[{"rt":1707,"stimulus":"Welcome to the experiment. Press any key to begin.","response":"m","trial_type":"html-keyboard-response","trial_index":0,"time_elapsed":1723,"internal_node_id":"0.0-0.0","params":{"nStudents":24,"maxFlips":25,"completionMinutes":45,"basePay":8,"maxBonus":9,"perTrialBonus":0.5,"perTrialBonusThreshold":0.05,"exampleCost":0.02},"classroomParams":{"A":{"a":1,"b":4},"B":{"a":4,"b":1},"C":{"a":2,"b":8},"D":{"a":8,"b":2}},"conditions":["nonSeqFull","nonSeqPartial","seqNoFeedback","seqFeedback"],"classroomPairings":[["A","B"],["C","D"]],"coinWeights":[0.2,0.5,0.8],"subjectId":"A13FUEPWBCLBUY","assignmentId":"3Z2R0DQ0JI0H1RZJL97BT5KTFW8E2D","hitId":"3IH9TRB0FBLK6RLF7MSMKICTGYN1IU","url":"https://gershmanlab.com/experiments/alicia/teaching/experiment/?hitId=3IH9TRB0FBLK6RLF7MSMKICTGYN1IU&workerId=A13FUEPWBCLBUY&assignmentId=3Z2R0DQ0JI0H1RZJL97BT5KTFW8E2D&a=002Z3&tp_a=002Z3&b=3Z2R0DQ0JI0H1RZJL97BT5KTFW8E2D&tp_b=3Z2R0DQ0JI0H1RZJL97BT5KTFW8E2D&c=365633&tp_c=365633"},{"rt":2315,"stimulus":"\n        <h3>Please read this consent agreement carefully before deciding whether to participate in this experiment.</h3>\n        <p><b>Purpose of the research:</b> To examine how people teach effectively.</p>\n        <p><b>What you will do in this research:</b> You will teach students the weights of different coins.</p>\n        <p><b>Time required:</b> This experiment will take 45 minutes to complete.</p>\n        <p><b>Risks:</b> There are no anticipated risks associated with participating in this study.             The effects of participating should be comparable to those you would experience from viewing a computer monitor             and using a mouse and keyboard for the duration of the experiment.</p>\n        <p><b>Benefits:</b> The study provides important information about the nature of teaching.</p>\n        <p><b>Compensation:</b> You will receive <b>$8</b> for completing the experiment and a performance bonus of up to <b>$9</b>.</p>\n        <p><b>Confidentiality:</b> Your participation in this study will remain confidential.             No personally identifiable information will be associated with your data.             Your de-identified data may be shared with other researchers and used in future projects.</p>\n        <p><b>Participation and withdrawal:</b> Your participation in this study is completely voluntary and             you may refuse to participate or you may choose to withdraw at any time without penalty or loss of\n            benefits to which you are otherwise entitled.</p>\n        <p><b>How to contact the researcher:</b> If you have questions or concerns about your participation            or payment, or want to request a summary of research findings, please contact\n            Alicia Chen, aliciachen@college.harvard.edu.</p>\n        <p><b>Whom to contact about your rights in this research:</b> For questions, concerns, suggestions,             or complaints that have not been or cannot be addressed by the researcher, or to report             research-related harm, please contact the Committee on the Use of Human Subjects in Research at Harvard University,             1414 Massachusetts Avenue, Second Floor, Cambridge, MA 02138. Phone: 617-496-2847. Email: cuhs@fas.harvard.edu.</p>\n        ","response":0,"trial_type":"html-button-response","trial_index":1,"time_elapsed":4043,"internal_node_id":"0.0-1.0","params":{"nStudents":24,"maxFlips":25,"completionMinutes":45,"basePay":8,"maxBonus":9,"perTrialBonus":0.5,"perTrialBonusThreshold":0.05,"exampleCost":0.02},"classroomParams":{"A":{"a":1,"b":4},"B":{"a":4,"b":1},"C":{"a":2,"b":8},"D":{"a":8,"b":2}},"conditions":["nonSeqFull","nonSeqPartial","seqNoFeedback","seqFeedback"],"classroomPairings":[["A","B"],["C","D"]],"coinWeights":[0.2,0.5,0.8],"subjectId":"A13FUEPWBCLBUY","assignmentId":"3Z2R0DQ0JI0H1RZJL97BT5KTFW8E2D","hitId":"3IH9TRB0FBLK6RLF7MSMKICTGYN1IU","url":"https://gershmanlab.com/experiments/alicia/teaching/experiment/?hitId=3IH9TRB0FBLK6RLF7MSMKICTGYN1IU&workerId=A13FUEPWBCLBUY&assignmentId=3Z2R0DQ0JI0H1RZJL97BT5KTFW8E2D&a=002Z3&tp_a=002Z3&b=3Z2R0DQ0JI0H1RZJL97BT5KTFW8E2D&tp_b=3Z2R0DQ0JI0H1RZJL97BT5KTFW8E2D&c=365633&tp_c=365633"},{"view_history":[{"page_index":0,"viewing_time":6989},{"page_index":1,"viewing_time":2563},{"page_index":2,"viewing_time":30854},{"page_index":3,"viewing_time":23347},{"page_index":4,"viewing_time":12526},{"page_index":5,"viewing_time":36657},{"page_index":6,"viewing_time":37771}],"rt":150707,"trial_type":"instructions","trial_index":2,"time_elapsed":154754,"internal_node_id":"0.0-2.0-0.0","params":{"nStudents":24,"maxFlips":25,"completionMinutes":45,"basePay":8,"maxBonus":9,"perTrialBonus":0.5,"perTrialBonusThreshold":0.05,"exampleCost":0.02},"classroomParams":{"A":{"a":1,"b":4},"B":{"a":4,"b":1},"C":{"a":2,"b":8},"D":{"a":8,"b":2}},"conditions":["nonSeqFull","nonSeqPartial","seqNoFeedback","seqFeedback"],"classroomPairings":[["A","B"],["C","D"]],"coinWeights":[0.2,0.5,0.8],"subjectId":"A13FUEPWBCLBUY","assignmentId":"3Z2R0DQ0JI0H1RZJL97BT5KTFW8E2D","hitId":"3IH9TRB0FBLK6RLF7MSMKICTGYN1IU","url":"https://gershmanlab.com/experiments/alicia/teaching/experiment/?hitId=3IH9TRB0FBLK6RLF7MSMKICTGYN1IU&workerId=A13FUEPWBCLBUY&assignmentId=3Z2R0DQ0JI0H1RZJL97BT5KTFW8E2D&a=002Z3&tp_a=002Z3&b=3Z2R0DQ0JI0H1RZJL97BT5KTFW8E2D&tp_b=3Z2R0DQ0JI0H1RZJL97BT5KTFW8E2D&c=365633&tp_c=365633"},{"rt":49134,"response":{"Q0":"Students in different classrooms will have seen a different number of heads and tails before seeing the examples you select for them.","Q1":"By <b>considering the student's classroom information</b> so that I can teach efficiently and accurately/helpfully at the same time (because each example I give to the student costs money!).","Q2":"The coin lands heads 90% of the time.","Q3":"No, I will teach a <b>new</b> student each time.","Q4":"The students are also on the same alien planet as you, where coins can be unfair.","Q5":"Based on the student's second (and final) guess."},"question_order":[5,0,2,1,3,4],"trial_type":"survey-multi-choice","trial_index":3,"time_elapsed":203893,"internal_node_id":"0.0-2.0-1.0","params":{"nStudents":24,"maxFlips":25,"completionMinutes":45,"basePay":8,"maxBonus":9,"perTrialBonus":0.5,"perTrialBonusThreshold":0.05,"exampleCost":0.02},"classroomParams":{"A":{"a":1,"b":4},"B":{"a":4,"b":1},"C":{"a":2,"b":8},"D":{"a":8,"b":2}},"conditions":["nonSeqFull","nonSeqPartial","seqNoFeedback","seqFeedback"],"classroomPairings":[["A","B"],["C","D"]],"coinWeights":[0.2,0.5,0.8],"subjectId":"A13FUEPWBCLBUY","assignmentId":"3Z2R0DQ0JI0H1RZJL97BT5KTFW8E2D","hitId":"3IH9TRB0FBLK6RLF7MSMKICTGYN1IU","url":"https://gershmanlab.com/experiments/alicia/teaching/experiment/?hitId=3IH9TRB0FBLK6RLF7MSMKICTGYN1IU&workerId=A13FUEPWBCLBUY&assignmentId=3Z2R0DQ0JI0H1RZJL97BT5KTFW8E2D&a=002Z3&tp_a=002Z3&b=3Z2R0DQ0JI0H1RZJL97BT5KTFW8E2D&tp_b=3Z2R0DQ0JI0H1RZJL97BT5KTFW8E2D&c=365633&tp_c=365633","pass":true},{"rt":null,"stimulus":"<div style=\"font-size:30px;\">Congrats on passing the comprehension quiz! The experiment will begin in a few seconds.</div>","response":null,"trial_type":"html-keyboard-response","trial_index":4,"time_elapsed":206911,"internal_node_id":"0.0-3.0","params":{"nStudents":24,"maxFlips":25,"completionMinutes":45,"basePay":8,"maxBonus":9,"perTrialBonus":0.5,"perTrialBonusThreshold":0.05,"exampleCost":0.02},"classroomParams":{"A":{"a":1,"b":4},"B":{"a":4,"b":1},"C":{"a":2,"b":8},"D":{"a":8,"b":2}},"conditions":["nonSeqFull","nonSeqPartial","seqNoFeedback","seqFeedback"],"classroomPairings":[["A","B"],["C","D"]],"coinWeights":[0.2,0.5,0.8],"subjectId":"A13FUEPWBCLBUY","assignmentId":"3Z2R0DQ0JI0H1RZJL97BT5KTFW8E2D","hitId":"3IH9TRB0FBLK6RLF7MSMKICTGYN1IU","url":"https://gershmanlab.com/experiments/alicia/teaching/experiment/?hitId=3IH9TRB0FBLK6RLF7MSMKICTGYN1IU&workerId=A13FUEPWBCLBUY&assignmentId=3Z2R0DQ0JI0H1RZJL97BT5KTFW8E2D&a=002Z3&tp_a=002Z3&b=3Z2R0DQ0JI0H1RZJL97BT5KTFW8E2D&tp_b=3Z2R0DQ0JI0H1RZJL97BT5KTFW8E2D&c=365633&tp_c=365633"},{"rt":null,"stimulus":"<div style=\"font-size:50px;\">First student</div>","response":null,"trial_type":"html-keyboard-response","trial_index":5,"time_elapsed":209915,"internal_node_id":"0.0-4.0","params":{"nStudents":24,"maxFlips":25,"completionMinutes":45,"basePay":8,"maxBonus":9,"perTrialBonus":0.5,"perTrialBonusThreshold":0.05,"exampleCost":0.02},"classroomParams":{"A":{"a":1,"b":4},"B":{"a":4,"b":1},"C":{"a":2,"b":8},"D":{"a":8,"b":2}},"conditions":["nonSeqFull","nonSeqPartial","seqNoFeedback","seqFeedback"],"classroomPairings":[["A","B"],["C","D"]],"coinWeights":[0.2,0.5,0.8],"subjectId":"A13FUEPWBCLBUY","assignmentId":"3Z2R0DQ0JI0H1RZJL97BT5KTFW8E2D","hitId":"3IH9TRB0FBLK6RLF7MSMKICTGYN1IU","url":"https://gershmanlab.com/experiments/alicia/teaching/experiment/?hitId=3IH9TRB0FBLK6RLF7MSMKICTGYN1IU&workerId=A13FUEPWBCLBUY&assignmentId=3Z2R0DQ0JI0H1RZJL97BT5KTFW8E2D&a=002Z3&tp_a=002Z3&b=3Z2R0DQ0JI0H1RZJL97BT5KTFW8E2D&tp_b=3Z2R0DQ0JI0H1RZJL97BT5KTFW8E2D&c=365633&tp_c=365633"},{"rt":5110,"stimulus":"\n            <h4 style=\"color:Orange;\">Student 1</h4>\n            <h2>The weight of your coin is <b style=\"color:Tomato;\">0.5</b>.</h2>\n            <p>In this block, you will be giving <b>two</b> sets of examples to Student 1.</p>\n                <p>You will receive feedback at the end of the block.</p>\n            <p></p>","response":0,"trial_type":"html-button-response","trial_index":6,"time_elapsed":215027,"internal_node_id":"0.0-5.0","params":{"nStudents":24,"maxFlips":25,"completionMinutes":45,"basePay":8,"maxBonus":9,"perTrialBonus":0.5,"perTrialBonusThreshold":0.05,"exampleCost":0.02},"classroomParams":{"A":{"a":1,"b":4},"B":{"a":4,"b":1},"C":{"a":2,"b":8},"D":{"a":8,"b":2}},"conditions":["nonSeqFull","nonSeqPartial","seqNoFeedback","seqFeedback"],"classroomPairings":[["A","B"],["C","D"]],"coinWeights":[0.2,0.5,0.8],"subjectId":"A13FUEPWBCLBUY","assignmentId":"3Z2R0DQ0JI0H1RZJL97BT5KTFW8E2D","hitId":"3IH9TRB0FBLK6RLF7MSMKICTGYN1IU","url":"https://gershmanlab.com/experiments/alicia/teaching/experiment/?hitId=3IH9TRB0FBLK6RLF7MSMKICTGYN1IU&workerId=A13FUEPWBCLBUY&assignmentId=3Z2R0DQ0JI0H1RZJL97BT5KTFW8E2D&a=002Z3&tp_a=002Z3&b=3Z2R0DQ0JI0H1RZJL97BT5KTFW8E2D&tp_b=3Z2R0DQ0JI0H1RZJL97BT5KTFW8E2D&c=365633&tp_c=365633"},{"rt":21530,"response":{"heads":"5","tails":"1"},"type":"response","condition":"seqNoFeedback","trueTheta":0.5,"classrooms":["C","D"],"studentTrueClassroom":"D","exampleSet":"first","trial_type":"survey-html-form","trial_index":7,"time_elapsed":236561,"internal_node_id":"0.0-6.0-0.0","params":{"nStudents":24,"maxFlips":25,"completionMinutes":45,"basePay":8,"maxBonus":9,"perTrialBonus":0.5,"perTrialBonusThreshold":0.05,"exampleCost":0.02},"classroomParams":{"A":{"a":1,"b":4},"B":{"a":4,"b":1},"C":{"a":2,"b":8},"D":{"a":8,"b":2}},"conditions":["nonSeqFull","nonSeqPartial","seqNoFeedback","seqFeedback"],"classroomPairings":[["A","B"],["C","D"]],"coinWeights":[0.2,0.5,0.8],"subjectId":"A13FUEPWBCLBUY","assignmentId":"3Z2R0DQ0JI0H1RZJL97BT5KTFW8E2D","hitId":"3IH9TRB0FBLK6RLF7MSMKICTGYN1IU","url":"https://gershmanlab.com/experiments/alicia/teaching/experiment/?hitId=3IH9TRB0FBLK6RLF7MSMKICTGYN1IU&workerId=A13FUEPWBCLBUY&assignmentId=3Z2R0DQ0JI0H1RZJL97BT5KTFW8E2D&a=002Z3&tp_a=002Z3&b=3Z2R0DQ0JI0H1RZJL97BT5KTFW8E2D&tp_b=3Z2R0DQ0JI0H1RZJL97BT5KTFW8E2D&c=365633&tp_c=365633","heads":5,"tails":1,"studentIndex":0,"studentTrueHypers":{"a":8,"b":2},"studentGuess":0.8125,"delta":0.3125,"totalExamples":6,"bonusSoFar":0},{"rt":null,"stimulus":"Sending examples to student... ","response":null,"trial_type":"html-keyboard-response","trial_index":8,"time_elapsed":237830,"internal_node_id":"0.0-7.0","params":{"nStudents":24,"maxFlips":25,"completionMinutes":45,"basePay":8,"maxBonus":9,"perTrialBonus":0.5,"perTrialBonusThreshold":0.05,"exampleCost":0.02},"classroomParams":{"A":{"a":1,"b":4},"B":{"a":4,"b":1},"C":{"a":2,"b":8},"D":{"a":8,"b":2}},"conditions":["nonSeqFull","nonSeqPartial","seqNoFeedback","seqFeedback"],"classroomPairings":[["A","B"],["C","D"]],"coinWeights":[0.2,0.5,0.8],"subjectId":"A13FUEPWBCLBUY","assignmentId":"3Z2R0DQ0JI0H1RZJL97BT5KTFW8E2D","hitId":"3IH9TRB0FBLK6RLF7MSMKICTGYN1IU","url":"https://gershmanlab.com/experiments/alicia/teaching/experiment/?hitId=3IH9TRB0FBLK6RLF7MSMKICTGYN1IU&workerId=A13FUEPWBCLBUY&assignmentId=3Z2R0DQ0JI0H1RZJL97BT5KTFW8E2D&a=002Z3&tp_a=002Z3&b=3Z2R0DQ0JI0H1RZJL97BT5KTFW8E2D&tp_b=3Z2R0DQ0JI0H1RZJL97BT5KTFW8E2D&c=365633&tp_c=365633"},{"rt":null,"stimulus":"Examples sent to student! Waiting for student...","response":null,"trial_type":"html-keyboard-response","trial_index":9,"time_elapsed":241838,"internal_node_id":"0.0-8.0","params":{"nStudents":24,"maxFlips":25,"completionMinutes":45,"basePay":8,"maxBonus":9,"perTrialBonus":0.5,"perTrialBonusThreshold":0.05,"exampleCost":0.02},"classroomParams":{"A":{"a":1,"b":4},"B":{"a":4,"b":1},"C":{"a":2,"b":8},"D":{"a":8,"b":2}},"conditions":["nonSeqFull","nonSeqPartial","seqNoFeedback","seqFeedback"],"classroomPairings":[["A","B"],["C","D"]],"coinWeights":[0.2,0.5,0.8],"subjectId":"A13FUEPWBCLBUY","assignmentId":"3Z2R0DQ0JI0H1RZJL97BT5KTFW8E2D","hitId":"3IH9TRB0FBLK6RLF7MSMKICTGYN1IU","url":"https://gershmanlab.com/experiments/alicia/teaching/experiment/?hitId=3IH9TRB0FBLK6RLF7MSMKICTGYN1IU&workerId=A13FUEPWBCLBUY&assignmentId=3Z2R0DQ0JI0H1RZJL97BT5KTFW8E2D&a=002Z3&tp_a=002Z3&b=3Z2R0DQ0JI0H1RZJL97BT5KTFW8E2D&tp_b=3Z2R0DQ0JI0H1RZJL97BT5KTFW8E2D&c=365633&tp_c=365633"},{"rt":6863,"response":{"heads":"3","tails":"3"},"type":"response","condition":"seqNoFeedback","trueTheta":0.5,"classrooms":["C","D"],"studentTrueClassroom":"D","exampleSet":"second","trial_type":"survey-html-form","trial_index":10,"time_elapsed":248703,"internal_node_id":"0.0-9.0-0.0","params":{"nStudents":24,"maxFlips":25,"completionMinutes":45,"basePay":8,"maxBonus":9,"perTrialBonus":0.5,"perTrialBonusThreshold":0.05,"exampleCost":0.02},"classroomParams":{"A":{"a":1,"b":4},"B":{"a":4,"b":1},"C":{"a":2,"b":8},"D":{"a":8,"b":2}},"conditions":["nonSeqFull","nonSeqPartial","seqNoFeedback","seqFeedback"],"classroomPairings":[["A","B"],["C","D"]],"coinWeights":[0.2,0.5,0.8],"subjectId":"A13FUEPWBCLBUY","assignmentId":"3Z2R0DQ0JI0H1RZJL97BT5KTFW8E2D","hitId":"3IH9TRB0FBLK6RLF7MSMKICTGYN1IU","url":"https://gershmanlab.com/experiments/alicia/teaching/experiment/?hitId=3IH9TRB0FBLK6RLF7MSMKICTGYN1IU&workerId=A13FUEPWBCLBUY&assignmentId=3Z2R0DQ0JI0H1RZJL97BT5KTFW8E2D&a=002Z3&tp_a=002Z3&b=3Z2R0DQ0JI0H1RZJL97BT5KTFW8E2D&tp_b=3Z2R0DQ0JI0H1RZJL97BT5KTFW8E2D&c=365633&tp_c=365633","firstResponseHeads":5,"firstResponseTails":1,"secondResponseHeads":3,"secondResponseTails":3,"totalHeads":8,"totalTails":4,"studentIndex":0,"studentTrueHypers":{"a":8,"b":2},"studentGuess":0.7272727272727273,"delta":0.2272727272727273,"bonus":0,"bonusSoFar":0,"totalExamples":12},{"rt":null,"stimulus":"Sending examples to student... ","response":null,"trial_type":"html-keyboard-response","trial_index":11,"time_elapsed":249966,"internal_node_id":"0.0-10.0","params":{"nStudents":24,"maxFlips":25,"completionMinutes":45,"basePay":8,"maxBonus":9,"perTrialBonus":0.5,"perTrialBonusThreshold":0.05,"exampleCost":0.02},"classroomParams":{"A":{"a":1,"b":4},"B":{"a":4,"b":1},"C":{"a":2,"b":8},"D":{"a":8,"b":2}},"conditions":["nonSeqFull","nonSeqPartial","seqNoFeedback","seqFeedback"],"classroomPairings":[["A","B"],["C","D"]],"coinWeights":[0.2,0.5,0.8],"subjectId":"A13FUEPWBCLBUY","assignmentId":"3Z2R0DQ0JI0H1RZJL97BT5KTFW8E2D","hitId":"3IH9TRB0FBLK6RLF7MSMKICTGYN1IU","url":"https://gershmanlab.com/experiments/alicia/teaching/experiment/?hitId=3IH9TRB0FBLK6RLF7MSMKICTGYN1IU&workerId=A13FUEPWBCLBUY&assignmentId=3Z2R0DQ0JI0H1RZJL97BT5KTFW8E2D&a=002Z3&tp_a=002Z3&b=3Z2R0DQ0JI0H1RZJL97BT5KTFW8E2D&tp_b=3Z2R0DQ0JI0H1RZJL97BT5KTFW8E2D&c=365633&tp_c=365633"},{"rt":null,"stimulus":"Examples sent to student! Waiting for student...","response":null,"trial_type":"html-keyboard-response","trial_index":12,"time_elapsed":254478,"internal_node_id":"0.0-11.0","params":{"nStudents":24,"maxFlips":25,"completionMinutes":45,"basePay":8,"maxBonus":9,"perTrialBonus":0.5,"perTrialBonusThreshold":0.05,"exampleCost":0.02},"classroomParams":{"A":{"a":1,"b":4},"B":{"a":4,"b":1},"C":{"a":2,"b":8},"D":{"a":8,"b":2}},"conditions":["nonSeqFull","nonSeqPartial","seqNoFeedback","seqFeedback"],"classroomPairings":[["A","B"],["C","D"]],"coinWeights":[0.2,0.5,0.8],"subjectId":"A13FUEPWBCLBUY","assignmentId":"3Z2R0DQ0JI0H1RZJL97BT5KTFW8E2D","hitId":"3IH9TRB0FBLK6RLF7MSMKICTGYN1IU","url":"https://gershmanlab.com/experiments/alicia/teaching/experiment/?hitId=3IH9TRB0FBLK6RLF7MSMKICTGYN1IU&workerId=A13FUEPWBCLBUY&assignmentId=3Z2R0DQ0JI0H1RZJL97BT5KTFW8E2D&a=002Z3&tp_a=002Z3&b=3Z2R0DQ0JI0H1RZJL97BT5KTFW8E2D&tp_b=3Z2R0DQ0JI0H1RZJL97BT5KTFW8E2D&c=365633&tp_c=365633"},{"rt":4343,"stimulus":"\n                <p>Student 1's first guess for coin weight: <b style=\"color:Tomato\";>0.81</b></p>\n                <p>Student 1's second guess for coin weight: <b style=\"color:Tomato\";>0.73</b></p>\n                <p>You received a bonus of <b>$0.00</b> based on the student's second guess.</p>\n                <p>Total bonus so far: <b>$0.00</b></p>\n                <p>Press any key to continue.</p>\n                ","response":"3","trial_type":"html-keyboard-response","trial_index":13,"time_elapsed":258824,"internal_node_id":"0.0-12.0","params":{"nStudents":24,"maxFlips":25,"completionMinutes":45,"basePay":8,"maxBonus":9,"perTrialBonus":0.5,"perTrialBonusThreshold":0.05,"exampleCost":0.02},"classroomParams":{"A":{"a":1,"b":4},"B":{"a":4,"b":1},"C":{"a":2,"b":8},"D":{"a":8,"b":2}},"conditions":["nonSeqFull","nonSeqPartial","seqNoFeedback","seqFeedback"],"classroomPairings":[["A","B"],["C","D"]],"coinWeights":[0.2,0.5,0.8],"subjectId":"A13FUEPWBCLBUY","assignmentId":"3Z2R0DQ0JI0H1RZJL97BT5KTFW8E2D","hitId":"3IH9TRB0FBLK6RLF7MSMKICTGYN1IU","url":"https://gershmanlab.com/experiments/alicia/teaching/experiment/?hitId=3IH9TRB0FBLK6RLF7MSMKICTGYN1IU&workerId=A13FUEPWBCLBUY&assignmentId=3Z2R0DQ0JI0H1RZJL97BT5KTFW8E2D&a=002Z3&tp_a=002Z3&b=3Z2R0DQ0JI0H1RZJL97BT5KTFW8E2D&tp_b=3Z2R0DQ0JI0H1RZJL97BT5KTFW8E2D&c=365633&tp_c=365633"},{"rt":null,"stimulus":"<div style=\"font-size:60px;\">Next student</div>","response":null,"trial_type":"html-keyboard-response","trial_index":14,"time_elapsed":261339,"internal_node_id":"0.0-13.0-0.0","params":{"nStudents":24,"maxFlips":25,"completionMinutes":45,"basePay":8,"maxBonus":9,"perTrialBonus":0.5,"perTrialBonusThreshold":0.05,"exampleCost":0.02},"classroomParams":{"A":{"a":1,"b":4},"B":{"a":4,"b":1},"C":{"a":2,"b":8},"D":{"a":8,"b":2}},"conditions":["nonSeqFull","nonSeqPartial","seqNoFeedback","seqFeedback"],"classroomPairings":[["A","B"],["C","D"]],"coinWeights":[0.2,0.5,0.8],"subjectId":"A13FUEPWBCLBUY","assignmentId":"3Z2R0DQ0JI0H1RZJL97BT5KTFW8E2D","hitId":"3IH9TRB0FBLK6RLF7MSMKICTGYN1IU","url":"https://gershmanlab.com/experiments/alicia/teaching/experiment/?hitId=3IH9TRB0FBLK6RLF7MSMKICTGYN1IU&workerId=A13FUEPWBCLBUY&assignmentId=3Z2R0DQ0JI0H1RZJL97BT5KTFW8E2D&a=002Z3&tp_a=002Z3&b=3Z2R0DQ0JI0H1RZJL97BT5KTFW8E2D&tp_b=3Z2R0DQ0JI0H1RZJL97BT5KTFW8E2D&c=365633&tp_c=365633"},{"rt":1410,"stimulus":"\n            <h4 style=\"color:Orange;\">Student 2</h4>\n            <h2>The weight of your coin is <b style=\"color:Tomato;\">0.8</b>.</h2>\n            <p>In this block, you will be giving <b>one</b> set of examples to Student 2.</p>\n                <p>You will receive feedback at the end of the block.</p>\n            <p></p>","response":0,"trial_type":"html-button-response","trial_index":15,"time_elapsed":262750,"internal_node_id":"0.0-14.0","params":{"nStudents":24,"maxFlips":25,"completionMinutes":45,"basePay":8,"maxBonus":9,"perTrialBonus":0.5,"perTrialBonusThreshold":0.05,"exampleCost":0.02},"classroomParams":{"A":{"a":1,"b":4},"B":{"a":4,"b":1},"C":{"a":2,"b":8},"D":{"a":8,"b":2}},"conditions":["nonSeqFull","nonSeqPartial","seqNoFeedback","seqFeedback"],"classroomPairings":[["A","B"],["C","D"]],"coinWeights":[0.2,0.5,0.8],"subjectId":"A13FUEPWBCLBUY","assignmentId":"3Z2R0DQ0JI0H1RZJL97BT5KTFW8E2D","hitId":"3IH9TRB0FBLK6RLF7MSMKICTGYN1IU","url":"https://gershmanlab.com/experiments/alicia/teaching/experiment/?hitId=3IH9TRB0FBLK6RLF7MSMKICTGYN1IU&workerId=A13FUEPWBCLBUY&assignmentId=3Z2R0DQ0JI0H1RZJL97BT5KTFW8E2D&a=002Z3&tp_a=002Z3&b=3Z2R0DQ0JI0H1RZJL97BT5KTFW8E2D&tp_b=3Z2R0DQ0JI0H1RZJL97BT5KTFW8E2D&c=365633&tp_c=365633"},{"rt":3144,"response":{"heads":"5","tails":"0"},"type":"response","condition":"nonSeqPartial","trueTheta":0.8,"classrooms":["A","B"],"studentTrueClassroom":"A","exampleSet":"first","trial_type":"survey-html-form","trial_index":16,"time_elapsed":265897,"internal_node_id":"0.0-15.0-0.0","params":{"nStudents":24,"maxFlips":25,"completionMinutes":45,"basePay":8,"maxBonus":9,"perTrialBonus":0.5,"perTrialBonusThreshold":0.05,"exampleCost":0.02},"classroomParams":{"A":{"a":1,"b":4},"B":{"a":4,"b":1},"C":{"a":2,"b":8},"D":{"a":8,"b":2}},"conditions":["nonSeqFull","nonSeqPartial","seqNoFeedback","seqFeedback"],"classroomPairings":[["A","B"],["C","D"]],"coinWeights":[0.2,0.5,0.8],"subjectId":"A13FUEPWBCLBUY","assignmentId":"3Z2R0DQ0JI0H1RZJL97BT5KTFW8E2D","hitId":"3IH9TRB0FBLK6RLF7MSMKICTGYN1IU","url":"https://gershmanlab.com/experiments/alicia/teaching/experiment/?hitId=3IH9TRB0FBLK6RLF7MSMKICTGYN1IU&workerId=A13FUEPWBCLBUY&assignmentId=3Z2R0DQ0JI0H1RZJL97BT5KTFW8E2D&a=002Z3&tp_a=002Z3&b=3Z2R0DQ0JI0H1RZJL97BT5KTFW8E2D&tp_b=3Z2R0DQ0JI0H1RZJL97BT5KTFW8E2D&c=365633&tp_c=365633","heads":5,"tails":0,"studentIndex":1,"studentTrueHypers":{"a":1,"b":4},"studentGuess":0.6,"delta":0.20000000000000007,"totalExamples":5,"bonus":0,"bonusSoFar":0},{"rt":null,"stimulus":"Sending examples to student... ","response":null,"trial_type":"html-keyboard-response","trial_index":17,"time_elapsed":267164,"internal_node_id":"0.0-16.0","params":{"nStudents":24,"maxFlips":25,"completionMinutes":45,"basePay":8,"maxBonus":9,"perTrialBonus":0.5,"perTrialBonusThreshold":0.05,"exampleCost":0.02},"classroomParams":{"A":{"a":1,"b":4},"B":{"a":4,"b":1},"C":{"a":2,"b":8},"D":{"a":8,"b":2}},"conditions":["nonSeqFull","nonSeqPartial","seqNoFeedback","seqFeedback"],"classroomPairings":[["A","B"],["C","D"]],"coinWeights":[0.2,0.5,0.8],"subjectId":"A13FUEPWBCLBUY","assignmentId":"3Z2R0DQ0JI0H1RZJL97BT5KTFW8E2D","hitId":"3IH9TRB0FBLK6RLF7MSMKICTGYN1IU","url":"https://gershmanlab.com/experiments/alicia/teaching/experiment/?hitId=3IH9TRB0FBLK6RLF7MSMKICTGYN1IU&workerId=A13FUEPWBCLBUY&assignmentId=3Z2R0DQ0JI0H1RZJL97BT5KTFW8E2D&a=002Z3&tp_a=002Z3&b=3Z2R0DQ0JI0H1RZJL97BT5KTFW8E2D&tp_b=3Z2R0DQ0JI0H1RZJL97BT5KTFW8E2D&c=365633&tp_c=365633"},{"rt":null,"stimulus":"Examples sent to student! Waiting for student...","response":null,"trial_type":"html-keyboard-response","trial_index":18,"time_elapsed":271677,"internal_node_id":"0.0-17.0","params":{"nStudents":24,"maxFlips":25,"completionMinutes":45,"basePay":8,"maxBonus":9,"perTrialBonus":0.5,"perTrialBonusThreshold":0.05,"exampleCost":0.02},"classroomParams":{"A":{"a":1,"b":4},"B":{"a":4,"b":1},"C":{"a":2,"b":8},"D":{"a":8,"b":2}},"conditions":["nonSeqFull","nonSeqPartial","seqNoFeedback","seqFeedback"],"classroomPairings":[["A","B"],["C","D"]],"coinWeights":[0.2,0.5,0.8],"subjectId":"A13FUEPWBCLBUY","assignmentId":"3Z2R0DQ0JI0H1RZJL97BT5KTFW8E2D","hitId":"3IH9TRB0FBLK6RLF7MSMKICTGYN1IU","url":"https://gershmanlab.com/experiments/alicia/teaching/experiment/?hitId=3IH9TRB0FBLK6RLF7MSMKICTGYN1IU&workerId=A13FUEPWBCLBUY&assignmentId=3Z2R0DQ0JI0H1RZJL97BT5KTFW8E2D&a=002Z3&tp_a=002Z3&b=3Z2R0DQ0JI0H1RZJL97BT5KTFW8E2D&tp_b=3Z2R0DQ0JI0H1RZJL97BT5KTFW8E2D&c=365633&tp_c=365633"},{"rt":1940,"stimulus":"\n                <p>Student's guess for coin weight: <b style=\"color:Tomato;\">0.60</b></p>\n                <p>You received a bonus of <b>$0</b>. Total bonus so far: <b>$0.00</b></b></p>\n                <p></p>\n                <p>Press any key to continue.</p>\n                ","response":"j","trial_type":"html-keyboard-response","trial_index":19,"time_elapsed":273619,"internal_node_id":"0.0-18.0","params":{"nStudents":24,"maxFlips":25,"completionMinutes":45,"basePay":8,"maxBonus":9,"perTrialBonus":0.5,"perTrialBonusThreshold":0.05,"exampleCost":0.02},"classroomParams":{"A":{"a":1,"b":4},"B":{"a":4,"b":1},"C":{"a":2,"b":8},"D":{"a":8,"b":2}},"conditions":["nonSeqFull","nonSeqPartial","seqNoFeedback","seqFeedback"],"classroomPairings":[["A","B"],["C","D"]],"coinWeights":[0.2,0.5,0.8],"subjectId":"A13FUEPWBCLBUY","assignmentId":"3Z2R0DQ0JI0H1RZJL97BT5KTFW8E2D","hitId":"3IH9TRB0FBLK6RLF7MSMKICTGYN1IU","url":"https://gershmanlab.com/experiments/alicia/teaching/experiment/?hitId=3IH9TRB0FBLK6RLF7MSMKICTGYN1IU&workerId=A13FUEPWBCLBUY&assignmentId=3Z2R0DQ0JI0H1RZJL97BT5KTFW8E2D&a=002Z3&tp_a=002Z3&b=3Z2R0DQ0JI0H1RZJL97BT5KTFW8E2D&tp_b=3Z2R0DQ0JI0H1RZJL97BT5KTFW8E2D&c=365633&tp_c=365633"},{"rt":null,"stimulus":"<div style=\"font-size:60px;\">Next student</div>","response":null,"trial_type":"html-keyboard-response","trial_index":20,"time_elapsed":276633,"internal_node_id":"0.0-19.0-0.0","params":{"nStudents":24,"maxFlips":25,"completionMinutes":45,"basePay":8,"maxBonus":9,"perTrialBonus":0.5,"perTrialBonusThreshold":0.05,"exampleCost":0.02},"classroomParams":{"A":{"a":1,"b":4},"B":{"a":4,"b":1},"C":{"a":2,"b":8},"D":{"a":8,"b":2}},"conditions":["nonSeqFull","nonSeqPartial","seqNoFeedback","seqFeedback"],"classroomPairings":[["A","B"],["C","D"]],"coinWeights":[0.2,0.5,0.8],"subjectId":"A13FUEPWBCLBUY","assignmentId":"3Z2R0DQ0JI0H1RZJL97BT5KTFW8E2D","hitId":"3IH9TRB0FBLK6RLF7MSMKICTGYN1IU","url":"https://gershmanlab.com/experiments/alicia/teaching/experiment/?hitId=3IH9TRB0FBLK6RLF7MSMKICTGYN1IU&workerId=A13FUEPWBCLBUY&assignmentId=3Z2R0DQ0JI0H1RZJL97BT5KTFW8E2D&a=002Z3&tp_a=002Z3&b=3Z2R0DQ0JI0H1RZJL97BT5KTFW8E2D&tp_b=3Z2R0DQ0JI0H1RZJL97BT5KTFW8E2D&c=365633&tp_c=365633"},{"rt":2675,"stimulus":"\n            <h4 style=\"color:Orange;\">Student 3</h4>\n            <h2>The weight of your coin is <b style=\"color:Tomato;\">0.8</b>.</h2>\n            <p>In this block, you will be giving <b>one</b> set of examples to Student 3.</p>\n                <p>You will receive feedback at the end of the block.</p>\n            <p></p>","response":0,"trial_type":"html-button-response","trial_index":21,"time_elapsed":279310,"internal_node_id":"0.0-20.0","params":{"nStudents":24,"maxFlips":25,"completionMinutes":45,"basePay":8,"maxBonus":9,"perTrialBonus":0.5,"perTrialBonusThreshold":0.05,"exampleCost":0.02},"classroomParams":{"A":{"a":1,"b":4},"B":{"a":4,"b":1},"C":{"a":2,"b":8},"D":{"a":8,"b":2}},"conditions":["nonSeqFull","nonSeqPartial","seqNoFeedback","seqFeedback"],"classroomPairings":[["A","B"],["C","D"]],"coinWeights":[0.2,0.5,0.8],"subjectId":"A13FUEPWBCLBUY","assignmentId":"3Z2R0DQ0JI0H1RZJL97BT5KTFW8E2D","hitId":"3IH9TRB0FBLK6RLF7MSMKICTGYN1IU","url":"https://gershmanlab.com/experiments/alicia/teaching/experiment/?hitId=3IH9TRB0FBLK6RLF7MSMKICTGYN1IU&workerId=A13FUEPWBCLBUY&assignmentId=3Z2R0DQ0JI0H1RZJL97BT5KTFW8E2D&a=002Z3&tp_a=002Z3&b=3Z2R0DQ0JI0H1RZJL97BT5KTFW8E2D&tp_b=3Z2R0DQ0JI0H1RZJL97BT5KTFW8E2D&c=365633&tp_c=365633"},{"rt":6569,"response":{"heads":"8","tails":"0"},"type":"response","condition":"nonSeqFull","trueTheta":0.8,"classrooms":["A","B"],"studentTrueClassroom":"B","exampleSet":"first","trial_type":"survey-html-form","trial_index":22,"time_elapsed":285883,"internal_node_id":"0.0-21.0-0.0","params":{"nStudents":24,"maxFlips":25,"completionMinutes":45,"basePay":8,"maxBonus":9,"perTrialBonus":0.5,"perTrialBonusThreshold":0.05,"exampleCost":0.02},"classroomParams":{"A":{"a":1,"b":4},"B":{"a":4,"b":1},"C":{"a":2,"b":8},"D":{"a":8,"b":2}},"conditions":["nonSeqFull","nonSeqPartial","seqNoFeedback","seqFeedback"],"classroomPairings":[["A","B"],["C","D"]],"coinWeights":[0.2,0.5,0.8],"subjectId":"A13FUEPWBCLBUY","assignmentId":"3Z2R0DQ0JI0H1RZJL97BT5KTFW8E2D","hitId":"3IH9TRB0FBLK6RLF7MSMKICTGYN1IU","url":"https://gershmanlab.com/experiments/alicia/teaching/experiment/?hitId=3IH9TRB0FBLK6RLF7MSMKICTGYN1IU&workerId=A13FUEPWBCLBUY&assignmentId=3Z2R0DQ0JI0H1RZJL97BT5KTFW8E2D&a=002Z3&tp_a=002Z3&b=3Z2R0DQ0JI0H1RZJL97BT5KTFW8E2D&tp_b=3Z2R0DQ0JI0H1RZJL97BT5KTFW8E2D&c=365633&tp_c=365633","heads":8,"tails":0,"studentIndex":2,"studentTrueHypers":{"a":4,"b":1},"studentGuess":0.9230769230769231,"delta":0.12307692307692308,"totalExamples":8,"bonus":0,"bonusSoFar":0},{"rt":null,"stimulus":"Sending examples to student... ","response":null,"trial_type":"html-keyboard-response","trial_index":23,"time_elapsed":287140,"internal_node_id":"0.0-22.0","params":{"nStudents":24,"maxFlips":25,"completionMinutes":45,"basePay":8,"maxBonus":9,"perTrialBonus":0.5,"perTrialBonusThreshold":0.05,"exampleCost":0.02},"classroomParams":{"A":{"a":1,"b":4},"B":{"a":4,"b":1},"C":{"a":2,"b":8},"D":{"a":8,"b":2}},"conditions":["nonSeqFull","nonSeqPartial","seqNoFeedback","seqFeedback"],"classroomPairings":[["A","B"],["C","D"]],"coinWeights":[0.2,0.5,0.8],"subjectId":"A13FUEPWBCLBUY","assignmentId":"3Z2R0DQ0JI0H1RZJL97BT5KTFW8E2D","hitId":"3IH9TRB0FBLK6RLF7MSMKICTGYN1IU","url":"https://gershmanlab.com/experiments/alicia/teaching/experiment/?hitId=3IH9TRB0FBLK6RLF7MSMKICTGYN1IU&workerId=A13FUEPWBCLBUY&assignmentId=3Z2R0DQ0JI0H1RZJL97BT5KTFW8E2D&a=002Z3&tp_a=002Z3&b=3Z2R0DQ0JI0H1RZJL97BT5KTFW8E2D&tp_b=3Z2R0DQ0JI0H1RZJL97BT5KTFW8E2D&c=365633&tp_c=365633"},{"rt":null,"stimulus":"Examples sent to student! Waiting for student...","response":null,"trial_type":"html-keyboard-response","trial_index":24,"time_elapsed":291152,"internal_node_id":"0.0-23.0","params":{"nStudents":24,"maxFlips":25,"completionMinutes":45,"basePay":8,"maxBonus":9,"perTrialBonus":0.5,"perTrialBonusThreshold":0.05,"exampleCost":0.02},"classroomParams":{"A":{"a":1,"b":4},"B":{"a":4,"b":1},"C":{"a":2,"b":8},"D":{"a":8,"b":2}},"conditions":["nonSeqFull","nonSeqPartial","seqNoFeedback","seqFeedback"],"classroomPairings":[["A","B"],["C","D"]],"coinWeights":[0.2,0.5,0.8],"subjectId":"A13FUEPWBCLBUY","assignmentId":"3Z2R0DQ0JI0H1RZJL97BT5KTFW8E2D","hitId":"3IH9TRB0FBLK6RLF7MSMKICTGYN1IU","url":"https://gershmanlab.com/experiments/alicia/teaching/experiment/?hitId=3IH9TRB0FBLK6RLF7MSMKICTGYN1IU&workerId=A13FUEPWBCLBUY&assignmentId=3Z2R0DQ0JI0H1RZJL97BT5KTFW8E2D&a=002Z3&tp_a=002Z3&b=3Z2R0DQ0JI0H1RZJL97BT5KTFW8E2D&tp_b=3Z2R0DQ0JI0H1RZJL97BT5KTFW8E2D&c=365633&tp_c=365633"},{"rt":1977,"stimulus":"\n                <p>Student's guess for coin weight: <b style=\"color:Tomato;\">0.92</b></p>\n                <p>You received a bonus of <b>$0</b>. Total bonus so far: <b>$0.00</b></b></p>\n                <p></p>\n                <p>Press any key to continue.</p>\n                ","response":"n","trial_type":"html-keyboard-response","trial_index":25,"time_elapsed":293131,"internal_node_id":"0.0-24.0","params":{"nStudents":24,"maxFlips":25,"completionMinutes":45,"basePay":8,"maxBonus":9,"perTrialBonus":0.5,"perTrialBonusThreshold":0.05,"exampleCost":0.02},"classroomParams":{"A":{"a":1,"b":4},"B":{"a":4,"b":1},"C":{"a":2,"b":8},"D":{"a":8,"b":2}},"conditions":["nonSeqFull","nonSeqPartial","seqNoFeedback","seqFeedback"],"classroomPairings":[["A","B"],["C","D"]],"coinWeights":[0.2,0.5,0.8],"subjectId":"A13FUEPWBCLBUY","assignmentId":"3Z2R0DQ0JI0H1RZJL97BT5KTFW8E2D","hitId":"3IH9TRB0FBLK6RLF7MSMKICTGYN1IU","url":"https://gershmanlab.com/experiments/alicia/teaching/experiment/?hitId=3IH9TRB0FBLK6RLF7MSMKICTGYN1IU&workerId=A13FUEPWBCLBUY&assignmentId=3Z2R0DQ0JI0H1RZJL97BT5KTFW8E2D&a=002Z3&tp_a=002Z3&b=3Z2R0DQ0JI0H1RZJL97BT5KTFW8E2D&tp_b=3Z2R0DQ0JI0H1RZJL97BT5KTFW8E2D&c=365633&tp_c=365633"},{"rt":null,"stimulus":"<div style=\"font-size:60px;\">Next student</div>","response":null,"trial_type":"html-keyboard-response","trial_index":26,"time_elapsed":295133,"internal_node_id":"0.0-25.0-0.0","params":{"nStudents":24,"maxFlips":25,"completionMinutes":45,"basePay":8,"maxBonus":9,"perTrialBonus":0.5,"perTrialBonusThreshold":0.05,"exampleCost":0.02},"classroomParams":{"A":{"a":1,"b":4},"B":{"a":4,"b":1},"C":{"a":2,"b":8},"D":{"a":8,"b":2}},"conditions":["nonSeqFull","nonSeqPartial","seqNoFeedback","seqFeedback"],"classroomPairings":[["A","B"],["C","D"]],"coinWeights":[0.2,0.5,0.8],"subjectId":"A13FUEPWBCLBUY","assignmentId":"3Z2R0DQ0JI0H1RZJL97BT5KTFW8E2D","hitId":"3IH9TRB0FBLK6RLF7MSMKICTGYN1IU","url":"https://gershmanlab.com/experiments/alicia/teaching/experiment/?hitId=3IH9TRB0FBLK6RLF7MSMKICTGYN1IU&workerId=A13FUEPWBCLBUY&assignmentId=3Z2R0DQ0JI0H1RZJL97BT5KTFW8E2D&a=002Z3&tp_a=002Z3&b=3Z2R0DQ0JI0H1RZJL97BT5KTFW8E2D&tp_b=3Z2R0DQ0JI0H1RZJL97BT5KTFW8E2D&c=365633&tp_c=365633"},{"rt":1163,"stimulus":"\n            <h4 style=\"color:Orange;\">Student 4</h4>\n            <h2>The weight of your coin is <b style=\"color:Tomato;\">0.2</b>.</h2>\n            <p>In this block, you will be giving <b>one</b> set of examples to Student 4.</p>\n                <p>You will receive feedback at the end of the block.</p>\n            <p></p>","response":0,"trial_type":"html-button-response","trial_index":27,"time_elapsed":296299,"internal_node_id":"0.0-26.0","params":{"nStudents":24,"maxFlips":25,"completionMinutes":45,"basePay":8,"maxBonus":9,"perTrialBonus":0.5,"perTrialBonusThreshold":0.05,"exampleCost":0.02},"classroomParams":{"A":{"a":1,"b":4},"B":{"a":4,"b":1},"C":{"a":2,"b":8},"D":{"a":8,"b":2}},"conditions":["nonSeqFull","nonSeqPartial","seqNoFeedback","seqFeedback"],"classroomPairings":[["A","B"],["C","D"]],"coinWeights":[0.2,0.5,0.8],"subjectId":"A13FUEPWBCLBUY","assignmentId":"3Z2R0DQ0JI0H1RZJL97BT5KTFW8E2D","hitId":"3IH9TRB0FBLK6RLF7MSMKICTGYN1IU","url":"https://gershmanlab.com/experiments/alicia/teaching/experiment/?hitId=3IH9TRB0FBLK6RLF7MSMKICTGYN1IU&workerId=A13FUEPWBCLBUY&assignmentId=3Z2R0DQ0JI0H1RZJL97BT5KTFW8E2D&a=002Z3&tp_a=002Z3&b=3Z2R0DQ0JI0H1RZJL97BT5KTFW8E2D&tp_b=3Z2R0DQ0JI0H1RZJL97BT5KTFW8E2D&c=365633&tp_c=365633"},{"rt":5288,"response":{"heads":"2","tails":"8"},"type":"response","condition":"nonSeqFull","trueTheta":0.2,"classrooms":["A","B"],"studentTrueClassroom":"B","exampleSet":"first","trial_type":"survey-html-form","trial_index":28,"time_elapsed":301589,"internal_node_id":"0.0-27.0-0.0","params":{"nStudents":24,"maxFlips":25,"completionMinutes":45,"basePay":8,"maxBonus":9,"perTrialBonus":0.5,"perTrialBonusThreshold":0.05,"exampleCost":0.02},"classroomParams":{"A":{"a":1,"b":4},"B":{"a":4,"b":1},"C":{"a":2,"b":8},"D":{"a":8,"b":2}},"conditions":["nonSeqFull","nonSeqPartial","seqNoFeedback","seqFeedback"],"classroomPairings":[["A","B"],["C","D"]],"coinWeights":[0.2,0.5,0.8],"subjectId":"A13FUEPWBCLBUY","assignmentId":"3Z2R0DQ0JI0H1RZJL97BT5KTFW8E2D","hitId":"3IH9TRB0FBLK6RLF7MSMKICTGYN1IU","url":"https://gershmanlab.com/experiments/alicia/teaching/experiment/?hitId=3IH9TRB0FBLK6RLF7MSMKICTGYN1IU&workerId=A13FUEPWBCLBUY&assignmentId=3Z2R0DQ0JI0H1RZJL97BT5KTFW8E2D&a=002Z3&tp_a=002Z3&b=3Z2R0DQ0JI0H1RZJL97BT5KTFW8E2D&tp_b=3Z2R0DQ0JI0H1RZJL97BT5KTFW8E2D&c=365633&tp_c=365633","heads":2,"tails":8,"studentIndex":3,"studentTrueHypers":{"a":4,"b":1},"studentGuess":0.4,"delta":0.2,"totalExamples":10,"bonus":0,"bonusSoFar":0},{"rt":null,"stimulus":"Sending examples to student... ","response":null,"trial_type":"html-keyboard-response","trial_index":29,"time_elapsed":303600,"internal_node_id":"0.0-28.0","params":{"nStudents":24,"maxFlips":25,"completionMinutes":45,"basePay":8,"maxBonus":9,"perTrialBonus":0.5,"perTrialBonusThreshold":0.05,"exampleCost":0.02},"classroomParams":{"A":{"a":1,"b":4},"B":{"a":4,"b":1},"C":{"a":2,"b":8},"D":{"a":8,"b":2}},"conditions":["nonSeqFull","nonSeqPartial","seqNoFeedback","seqFeedback"],"classroomPairings":[["A","B"],["C","D"]],"coinWeights":[0.2,0.5,0.8],"subjectId":"A13FUEPWBCLBUY","assignmentId":"3Z2R0DQ0JI0H1RZJL97BT5KTFW8E2D","hitId":"3IH9TRB0FBLK6RLF7MSMKICTGYN1IU","url":"https://gershmanlab.com/experiments/alicia/teaching/experiment/?hitId=3IH9TRB0FBLK6RLF7MSMKICTGYN1IU&workerId=A13FUEPWBCLBUY&assignmentId=3Z2R0DQ0JI0H1RZJL97BT5KTFW8E2D&a=002Z3&tp_a=002Z3&b=3Z2R0DQ0JI0H1RZJL97BT5KTFW8E2D&tp_b=3Z2R0DQ0JI0H1RZJL97BT5KTFW8E2D&c=365633&tp_c=365633"},{"rt":null,"stimulus":"Examples sent to student! Waiting for student...","response":null,"trial_type":"html-keyboard-response","trial_index":30,"time_elapsed":309103,"internal_node_id":"0.0-29.0","params":{"nStudents":24,"maxFlips":25,"completionMinutes":45,"basePay":8,"maxBonus":9,"perTrialBonus":0.5,"perTrialBonusThreshold":0.05,"exampleCost":0.02},"classroomParams":{"A":{"a":1,"b":4},"B":{"a":4,"b":1},"C":{"a":2,"b":8},"D":{"a":8,"b":2}},"conditions":["nonSeqFull","nonSeqPartial","seqNoFeedback","seqFeedback"],"classroomPairings":[["A","B"],["C","D"]],"coinWeights":[0.2,0.5,0.8],"subjectId":"A13FUEPWBCLBUY","assignmentId":"3Z2R0DQ0JI0H1RZJL97BT5KTFW8E2D","hitId":"3IH9TRB0FBLK6RLF7MSMKICTGYN1IU","url":"https://gershmanlab.com/experiments/alicia/teaching/experiment/?hitId=3IH9TRB0FBLK6RLF7MSMKICTGYN1IU&workerId=A13FUEPWBCLBUY&assignmentId=3Z2R0DQ0JI0H1RZJL97BT5KTFW8E2D&a=002Z3&tp_a=002Z3&b=3Z2R0DQ0JI0H1RZJL97BT5KTFW8E2D&tp_b=3Z2R0DQ0JI0H1RZJL97BT5KTFW8E2D&c=365633&tp_c=365633"},{"rt":1663,"stimulus":"\n                <p>Student's guess for coin weight: <b style=\"color:Tomato;\">0.40</b></p>\n                <p>You received a bonus of <b>$0</b>. Total bonus so far: <b>$0.00</b></b></p>\n                <p></p>\n                <p>Press any key to continue.</p>\n                ","response":"j","trial_type":"html-keyboard-response","trial_index":31,"time_elapsed":310768,"internal_node_id":"0.0-30.0","params":{"nStudents":24,"maxFlips":25,"completionMinutes":45,"basePay":8,"maxBonus":9,"perTrialBonus":0.5,"perTrialBonusThreshold":0.05,"exampleCost":0.02},"classroomParams":{"A":{"a":1,"b":4},"B":{"a":4,"b":1},"C":{"a":2,"b":8},"D":{"a":8,"b":2}},"conditions":["nonSeqFull","nonSeqPartial","seqNoFeedback","seqFeedback"],"classroomPairings":[["A","B"],["C","D"]],"coinWeights":[0.2,0.5,0.8],"subjectId":"A13FUEPWBCLBUY","assignmentId":"3Z2R0DQ0JI0H1RZJL97BT5KTFW8E2D","hitId":"3IH9TRB0FBLK6RLF7MSMKICTGYN1IU","url":"https://gershmanlab.com/experiments/alicia/teaching/experiment/?hitId=3IH9TRB0FBLK6RLF7MSMKICTGYN1IU&workerId=A13FUEPWBCLBUY&assignmentId=3Z2R0DQ0JI0H1RZJL97BT5KTFW8E2D&a=002Z3&tp_a=002Z3&b=3Z2R0DQ0JI0H1RZJL97BT5KTFW8E2D&tp_b=3Z2R0DQ0JI0H1RZJL97BT5KTFW8E2D&c=365633&tp_c=365633"},{"rt":null,"stimulus":"<div style=\"font-size:60px;\">Next student</div>","response":null,"trial_type":"html-keyboard-response","trial_index":32,"time_elapsed":313276,"internal_node_id":"0.0-31.0-0.0","params":{"nStudents":24,"maxFlips":25,"completionMinutes":45,"basePay":8,"maxBonus":9,"perTrialBonus":0.5,"perTrialBonusThreshold":0.05,"exampleCost":0.02},"classroomParams":{"A":{"a":1,"b":4},"B":{"a":4,"b":1},"C":{"a":2,"b":8},"D":{"a":8,"b":2}},"conditions":["nonSeqFull","nonSeqPartial","seqNoFeedback","seqFeedback"],"classroomPairings":[["A","B"],["C","D"]],"coinWeights":[0.2,0.5,0.8],"subjectId":"A13FUEPWBCLBUY","assignmentId":"3Z2R0DQ0JI0H1RZJL97BT5KTFW8E2D","hitId":"3IH9TRB0FBLK6RLF7MSMKICTGYN1IU","url":"https://gershmanlab.com/experiments/alicia/teaching/experiment/?hitId=3IH9TRB0FBLK6RLF7MSMKICTGYN1IU&workerId=A13FUEPWBCLBUY&assignmentId=3Z2R0DQ0JI0H1RZJL97BT5KTFW8E2D&a=002Z3&tp_a=002Z3&b=3Z2R0DQ0JI0H1RZJL97BT5KTFW8E2D&tp_b=3Z2R0DQ0JI0H1RZJL97BT5KTFW8E2D&c=365633&tp_c=365633"},{"rt":1425,"stimulus":"\n            <h4 style=\"color:Orange;\">Student 5</h4>\n            <h2>The weight of your coin is <b style=\"color:Tomato;\">0.8</b>.</h2>\n            <p>In this block, you will be giving <b>two</b> sets of examples to Student 5.</p>\n                <p>You will see the student's guess after the first set of examples. You will also receive feedback at the end of the block.</p>\n            <p>To earn the highest bonus, you will have to <b>take into consideration the student's guess</b> when you choose your second set of examples.</p>","response":0,"trial_type":"html-button-response","trial_index":33,"time_elapsed":314703,"internal_node_id":"0.0-32.0","params":{"nStudents":24,"maxFlips":25,"completionMinutes":45,"basePay":8,"maxBonus":9,"perTrialBonus":0.5,"perTrialBonusThreshold":0.05,"exampleCost":0.02},"classroomParams":{"A":{"a":1,"b":4},"B":{"a":4,"b":1},"C":{"a":2,"b":8},"D":{"a":8,"b":2}},"conditions":["nonSeqFull","nonSeqPartial","seqNoFeedback","seqFeedback"],"classroomPairings":[["A","B"],["C","D"]],"coinWeights":[0.2,0.5,0.8],"subjectId":"A13FUEPWBCLBUY","assignmentId":"3Z2R0DQ0JI0H1RZJL97BT5KTFW8E2D","hitId":"3IH9TRB0FBLK6RLF7MSMKICTGYN1IU","url":"https://gershmanlab.com/experiments/alicia/teaching/experiment/?hitId=3IH9TRB0FBLK6RLF7MSMKICTGYN1IU&workerId=A13FUEPWBCLBUY&assignmentId=3Z2R0DQ0JI0H1RZJL97BT5KTFW8E2D&a=002Z3&tp_a=002Z3&b=3Z2R0DQ0JI0H1RZJL97BT5KTFW8E2D&tp_b=3Z2R0DQ0JI0H1RZJL97BT5KTFW8E2D&c=365633&tp_c=365633"},{"rt":4396,"response":{"heads":"8","tails":"2"},"type":"response","condition":"seqFeedback","trueTheta":0.8,"classrooms":["C","D"],"studentTrueClassroom":"D","exampleSet":"first","trial_type":"survey-html-form","trial_index":34,"time_elapsed":319102,"internal_node_id":"0.0-33.0-0.0","params":{"nStudents":24,"maxFlips":25,"completionMinutes":45,"basePay":8,"maxBonus":9,"perTrialBonus":0.5,"perTrialBonusThreshold":0.05,"exampleCost":0.02},"classroomParams":{"A":{"a":1,"b":4},"B":{"a":4,"b":1},"C":{"a":2,"b":8},"D":{"a":8,"b":2}},"conditions":["nonSeqFull","nonSeqPartial","seqNoFeedback","seqFeedback"],"classroomPairings":[["A","B"],["C","D"]],"coinWeights":[0.2,0.5,0.8],"subjectId":"A13FUEPWBCLBUY","assignmentId":"3Z2R0DQ0JI0H1RZJL97BT5KTFW8E2D","hitId":"3IH9TRB0FBLK6RLF7MSMKICTGYN1IU","url":"https://gershmanlab.com/experiments/alicia/teaching/experiment/?hitId=3IH9TRB0FBLK6RLF7MSMKICTGYN1IU&workerId=A13FUEPWBCLBUY&assignmentId=3Z2R0DQ0JI0H1RZJL97BT5KTFW8E2D&a=002Z3&tp_a=002Z3&b=3Z2R0DQ0JI0H1RZJL97BT5KTFW8E2D&tp_b=3Z2R0DQ0JI0H1RZJL97BT5KTFW8E2D&c=365633&tp_c=365633","heads":8,"tails":2,"studentIndex":4,"studentTrueHypers":{"a":8,"b":2},"studentGuess":0.8,"delta":0,"totalExamples":10,"bonusSoFar":0},{"rt":null,"stimulus":"Sending examples to student... ","response":null,"trial_type":"html-keyboard-response","trial_index":35,"time_elapsed":320358,"internal_node_id":"0.0-34.0","params":{"nStudents":24,"maxFlips":25,"completionMinutes":45,"basePay":8,"maxBonus":9,"perTrialBonus":0.5,"perTrialBonusThreshold":0.05,"exampleCost":0.02},"classroomParams":{"A":{"a":1,"b":4},"B":{"a":4,"b":1},"C":{"a":2,"b":8},"D":{"a":8,"b":2}},"conditions":["nonSeqFull","nonSeqPartial","seqNoFeedback","seqFeedback"],"classroomPairings":[["A","B"],["C","D"]],"coinWeights":[0.2,0.5,0.8],"subjectId":"A13FUEPWBCLBUY","assignmentId":"3Z2R0DQ0JI0H1RZJL97BT5KTFW8E2D","hitId":"3IH9TRB0FBLK6RLF7MSMKICTGYN1IU","url":"https://gershmanlab.com/experiments/alicia/teaching/experiment/?hitId=3IH9TRB0FBLK6RLF7MSMKICTGYN1IU&workerId=A13FUEPWBCLBUY&assignmentId=3Z2R0DQ0JI0H1RZJL97BT5KTFW8E2D&a=002Z3&tp_a=002Z3&b=3Z2R0DQ0JI0H1RZJL97BT5KTFW8E2D&tp_b=3Z2R0DQ0JI0H1RZJL97BT5KTFW8E2D&c=365633&tp_c=365633"},{"rt":null,"stimulus":"Examples sent to student! Waiting for student...","response":null,"trial_type":"html-keyboard-response","trial_index":36,"time_elapsed":324371,"internal_node_id":"0.0-35.0","params":{"nStudents":24,"maxFlips":25,"completionMinutes":45,"basePay":8,"maxBonus":9,"perTrialBonus":0.5,"perTrialBonusThreshold":0.05,"exampleCost":0.02},"classroomParams":{"A":{"a":1,"b":4},"B":{"a":4,"b":1},"C":{"a":2,"b":8},"D":{"a":8,"b":2}},"conditions":["nonSeqFull","nonSeqPartial","seqNoFeedback","seqFeedback"],"classroomPairings":[["A","B"],["C","D"]],"coinWeights":[0.2,0.5,0.8],"subjectId":"A13FUEPWBCLBUY","assignmentId":"3Z2R0DQ0JI0H1RZJL97BT5KTFW8E2D","hitId":"3IH9TRB0FBLK6RLF7MSMKICTGYN1IU","url":"https://gershmanlab.com/experiments/alicia/teaching/experiment/?hitId=3IH9TRB0FBLK6RLF7MSMKICTGYN1IU&workerId=A13FUEPWBCLBUY&assignmentId=3Z2R0DQ0JI0H1RZJL97BT5KTFW8E2D&a=002Z3&tp_a=002Z3&b=3Z2R0DQ0JI0H1RZJL97BT5KTFW8E2D&tp_b=3Z2R0DQ0JI0H1RZJL97BT5KTFW8E2D&c=365633&tp_c=365633"},{"rt":4291,"stimulus":"\n                <p>Student's guess for coin weight: <b style=\"color:Tomato;\">0.80</b></p>\n                <p></b></p>\n                <p>You will now send another set of examples to your student. <b>Remember to take your student's guess into consideration so that you can earn the highest bonus possible!</b> </p>\n                <p>Press any key to continue.</p>\n                ","response":"j","trial_type":"html-keyboard-response","trial_index":37,"time_elapsed":328664,"internal_node_id":"0.0-36.0","params":{"nStudents":24,"maxFlips":25,"completionMinutes":45,"basePay":8,"maxBonus":9,"perTrialBonus":0.5,"perTrialBonusThreshold":0.05,"exampleCost":0.02},"classroomParams":{"A":{"a":1,"b":4},"B":{"a":4,"b":1},"C":{"a":2,"b":8},"D":{"a":8,"b":2}},"conditions":["nonSeqFull","nonSeqPartial","seqNoFeedback","seqFeedback"],"classroomPairings":[["A","B"],["C","D"]],"coinWeights":[0.2,0.5,0.8],"subjectId":"A13FUEPWBCLBUY","assignmentId":"3Z2R0DQ0JI0H1RZJL97BT5KTFW8E2D","hitId":"3IH9TRB0FBLK6RLF7MSMKICTGYN1IU","url":"https://gershmanlab.com/experiments/alicia/teaching/experiment/?hitId=3IH9TRB0FBLK6RLF7MSMKICTGYN1IU&workerId=A13FUEPWBCLBUY&assignmentId=3Z2R0DQ0JI0H1RZJL97BT5KTFW8E2D&a=002Z3&tp_a=002Z3&b=3Z2R0DQ0JI0H1RZJL97BT5KTFW8E2D&tp_b=3Z2R0DQ0JI0H1RZJL97BT5KTFW8E2D&c=365633&tp_c=365633"},{"rt":8992,"response":{"heads":"8","tails":"2"},"type":"response","condition":"seqFeedback","trueTheta":0.8,"classrooms":["C","D"],"studentTrueClassroom":"D","exampleSet":"second","trial_type":"survey-html-form","trial_index":38,"time_elapsed":337660,"internal_node_id":"0.0-37.0-0.0","params":{"nStudents":24,"maxFlips":25,"completionMinutes":45,"basePay":8,"maxBonus":9,"perTrialBonus":0.5,"perTrialBonusThreshold":0.05,"exampleCost":0.02},"classroomParams":{"A":{"a":1,"b":4},"B":{"a":4,"b":1},"C":{"a":2,"b":8},"D":{"a":8,"b":2}},"conditions":["nonSeqFull","nonSeqPartial","seqNoFeedback","seqFeedback"],"classroomPairings":[["A","B"],["C","D"]],"coinWeights":[0.2,0.5,0.8],"subjectId":"A13FUEPWBCLBUY","assignmentId":"3Z2R0DQ0JI0H1RZJL97BT5KTFW8E2D","hitId":"3IH9TRB0FBLK6RLF7MSMKICTGYN1IU","url":"https://gershmanlab.com/experiments/alicia/teaching/experiment/?hitId=3IH9TRB0FBLK6RLF7MSMKICTGYN1IU&workerId=A13FUEPWBCLBUY&assignmentId=3Z2R0DQ0JI0H1RZJL97BT5KTFW8E2D&a=002Z3&tp_a=002Z3&b=3Z2R0DQ0JI0H1RZJL97BT5KTFW8E2D&tp_b=3Z2R0DQ0JI0H1RZJL97BT5KTFW8E2D&c=365633&tp_c=365633","firstResponseHeads":8,"firstResponseTails":2,"secondResponseHeads":8,"secondResponseTails":2,"totalHeads":16,"totalTails":4,"studentIndex":4,"studentTrueHypers":{"a":8,"b":2},"studentGuess":0.8,"delta":0,"bonus":0.1,"bonusSoFar":0.1,"totalExamples":20},{"rt":null,"stimulus":"Sending examples to student... ","response":null,"trial_type":"html-keyboard-response","trial_index":39,"time_elapsed":339425,"internal_node_id":"0.0-38.0","params":{"nStudents":24,"maxFlips":25,"completionMinutes":45,"basePay":8,"maxBonus":9,"perTrialBonus":0.5,"perTrialBonusThreshold":0.05,"exampleCost":0.02},"classroomParams":{"A":{"a":1,"b":4},"B":{"a":4,"b":1},"C":{"a":2,"b":8},"D":{"a":8,"b":2}},"conditions":["nonSeqFull","nonSeqPartial","seqNoFeedback","seqFeedback"],"classroomPairings":[["A","B"],["C","D"]],"coinWeights":[0.2,0.5,0.8],"subjectId":"A13FUEPWBCLBUY","assignmentId":"3Z2R0DQ0JI0H1RZJL97BT5KTFW8E2D","hitId":"3IH9TRB0FBLK6RLF7MSMKICTGYN1IU","url":"https://gershmanlab.com/experiments/alicia/teaching/experiment/?hitId=3IH9TRB0FBLK6RLF7MSMKICTGYN1IU&workerId=A13FUEPWBCLBUY&assignmentId=3Z2R0DQ0JI0H1RZJL97BT5KTFW8E2D&a=002Z3&tp_a=002Z3&b=3Z2R0DQ0JI0H1RZJL97BT5KTFW8E2D&tp_b=3Z2R0DQ0JI0H1RZJL97BT5KTFW8E2D&c=365633&tp_c=365633"},{"rt":null,"stimulus":"Examples sent to student! Waiting for student...","response":null,"trial_type":"html-keyboard-response","trial_index":40,"time_elapsed":344432,"internal_node_id":"0.0-39.0","params":{"nStudents":24,"maxFlips":25,"completionMinutes":45,"basePay":8,"maxBonus":9,"perTrialBonus":0.5,"perTrialBonusThreshold":0.05,"exampleCost":0.02},"classroomParams":{"A":{"a":1,"b":4},"B":{"a":4,"b":1},"C":{"a":2,"b":8},"D":{"a":8,"b":2}},"conditions":["nonSeqFull","nonSeqPartial","seqNoFeedback","seqFeedback"],"classroomPairings":[["A","B"],["C","D"]],"coinWeights":[0.2,0.5,0.8],"subjectId":"A13FUEPWBCLBUY","assignmentId":"3Z2R0DQ0JI0H1RZJL97BT5KTFW8E2D","hitId":"3IH9TRB0FBLK6RLF7MSMKICTGYN1IU","url":"https://gershmanlab.com/experiments/alicia/teaching/experiment/?hitId=3IH9TRB0FBLK6RLF7MSMKICTGYN1IU&workerId=A13FUEPWBCLBUY&assignmentId=3Z2R0DQ0JI0H1RZJL97BT5KTFW8E2D&a=002Z3&tp_a=002Z3&b=3Z2R0DQ0JI0H1RZJL97BT5KTFW8E2D&tp_b=3Z2R0DQ0JI0H1RZJL97BT5KTFW8E2D&c=365633&tp_c=365633"},{"rt":2261,"stimulus":"\n                <p>Student 5's first guess for coin weight: <b style=\"color:Tomato\";>0.80</b></p>\n                <p>Student 5's second guess for coin weight: <b style=\"color:Tomato\";>0.80</b></p>\n                <p>You received a bonus of <b>$0.10</b> based on the student's second guess.</p>\n                <p>Total bonus so far: <b>$0.10</b></p>\n                <p>Press any key to continue.</p>\n                ","response":"j","trial_type":"html-keyboard-response","trial_index":41,"time_elapsed":346695,"internal_node_id":"0.0-40.0","params":{"nStudents":24,"maxFlips":25,"completionMinutes":45,"basePay":8,"maxBonus":9,"perTrialBonus":0.5,"perTrialBonusThreshold":0.05,"exampleCost":0.02},"classroomParams":{"A":{"a":1,"b":4},"B":{"a":4,"b":1},"C":{"a":2,"b":8},"D":{"a":8,"b":2}},"conditions":["nonSeqFull","nonSeqPartial","seqNoFeedback","seqFeedback"],"classroomPairings":[["A","B"],["C","D"]],"coinWeights":[0.2,0.5,0.8],"subjectId":"A13FUEPWBCLBUY","assignmentId":"3Z2R0DQ0JI0H1RZJL97BT5KTFW8E2D","hitId":"3IH9TRB0FBLK6RLF7MSMKICTGYN1IU","url":"https://gershmanlab.com/experiments/alicia/teaching/experiment/?hitId=3IH9TRB0FBLK6RLF7MSMKICTGYN1IU&workerId=A13FUEPWBCLBUY&assignmentId=3Z2R0DQ0JI0H1RZJL97BT5KTFW8E2D&a=002Z3&tp_a=002Z3&b=3Z2R0DQ0JI0H1RZJL97BT5KTFW8E2D&tp_b=3Z2R0DQ0JI0H1RZJL97BT5KTFW8E2D&c=365633&tp_c=365633"},{"rt":null,"stimulus":"<div style=\"font-size:60px;\">Next student</div>","response":null,"trial_type":"html-keyboard-response","trial_index":42,"time_elapsed":349200,"internal_node_id":"0.0-41.0-0.0","params":{"nStudents":24,"maxFlips":25,"completionMinutes":45,"basePay":8,"maxBonus":9,"perTrialBonus":0.5,"perTrialBonusThreshold":0.05,"exampleCost":0.02},"classroomParams":{"A":{"a":1,"b":4},"B":{"a":4,"b":1},"C":{"a":2,"b":8},"D":{"a":8,"b":2}},"conditions":["nonSeqFull","nonSeqPartial","seqNoFeedback","seqFeedback"],"classroomPairings":[["A","B"],["C","D"]],"coinWeights":[0.2,0.5,0.8],"subjectId":"A13FUEPWBCLBUY","assignmentId":"3Z2R0DQ0JI0H1RZJL97BT5KTFW8E2D","hitId":"3IH9TRB0FBLK6RLF7MSMKICTGYN1IU","url":"https://gershmanlab.com/experiments/alicia/teaching/experiment/?hitId=3IH9TRB0FBLK6RLF7MSMKICTGYN1IU&workerId=A13FUEPWBCLBUY&assignmentId=3Z2R0DQ0JI0H1RZJL97BT5KTFW8E2D&a=002Z3&tp_a=002Z3&b=3Z2R0DQ0JI0H1RZJL97BT5KTFW8E2D&tp_b=3Z2R0DQ0JI0H1RZJL97BT5KTFW8E2D&c=365633&tp_c=365633"},{"rt":6336,"stimulus":"\n            <h4 style=\"color:Orange;\">Student 6</h4>\n            <h2>The weight of your coin is <b style=\"color:Tomato;\">0.5</b>.</h2>\n            <p>In this block, you will be giving <b>two</b> sets of examples to Student 6.</p>\n                <p>You will see the student's guess after the first set of examples. You will also receive feedback at the end of the block.</p>\n            <p>To earn the highest bonus, you will have to <b>take into consideration the student's guess</b> when you choose your second set of examples.</p>","response":0,"trial_type":"html-button-response","trial_index":43,"time_elapsed":355537,"internal_node_id":"0.0-42.0","params":{"nStudents":24,"maxFlips":25,"completionMinutes":45,"basePay":8,"maxBonus":9,"perTrialBonus":0.5,"perTrialBonusThreshold":0.05,"exampleCost":0.02},"classroomParams":{"A":{"a":1,"b":4},"B":{"a":4,"b":1},"C":{"a":2,"b":8},"D":{"a":8,"b":2}},"conditions":["nonSeqFull","nonSeqPartial","seqNoFeedback","seqFeedback"],"classroomPairings":[["A","B"],["C","D"]],"coinWeights":[0.2,0.5,0.8],"subjectId":"A13FUEPWBCLBUY","assignmentId":"3Z2R0DQ0JI0H1RZJL97BT5KTFW8E2D","hitId":"3IH9TRB0FBLK6RLF7MSMKICTGYN1IU","url":"https://gershmanlab.com/experiments/alicia/teaching/experiment/?hitId=3IH9TRB0FBLK6RLF7MSMKICTGYN1IU&workerId=A13FUEPWBCLBUY&assignmentId=3Z2R0DQ0JI0H1RZJL97BT5KTFW8E2D&a=002Z3&tp_a=002Z3&b=3Z2R0DQ0JI0H1RZJL97BT5KTFW8E2D&tp_b=3Z2R0DQ0JI0H1RZJL97BT5KTFW8E2D&c=365633&tp_c=365633"},{"rt":4000,"response":{"heads":"5","tails":"5"},"type":"response","condition":"seqFeedback","trueTheta":0.5,"classrooms":["A","B"],"studentTrueClassroom":"A","exampleSet":"first","trial_type":"survey-html-form","trial_index":44,"time_elapsed":359540,"internal_node_id":"0.0-43.0-0.0","params":{"nStudents":24,"maxFlips":25,"completionMinutes":45,"basePay":8,"maxBonus":9,"perTrialBonus":0.5,"perTrialBonusThreshold":0.05,"exampleCost":0.02},"classroomParams":{"A":{"a":1,"b":4},"B":{"a":4,"b":1},"C":{"a":2,"b":8},"D":{"a":8,"b":2}},"conditions":["nonSeqFull","nonSeqPartial","seqNoFeedback","seqFeedback"],"classroomPairings":[["A","B"],["C","D"]],"coinWeights":[0.2,0.5,0.8],"subjectId":"A13FUEPWBCLBUY","assignmentId":"3Z2R0DQ0JI0H1RZJL97BT5KTFW8E2D","hitId":"3IH9TRB0FBLK6RLF7MSMKICTGYN1IU","url":"https://gershmanlab.com/experiments/alicia/teaching/experiment/?hitId=3IH9TRB0FBLK6RLF7MSMKICTGYN1IU&workerId=A13FUEPWBCLBUY&assignmentId=3Z2R0DQ0JI0H1RZJL97BT5KTFW8E2D&a=002Z3&tp_a=002Z3&b=3Z2R0DQ0JI0H1RZJL97BT5KTFW8E2D&tp_b=3Z2R0DQ0JI0H1RZJL97BT5KTFW8E2D&c=365633&tp_c=365633","heads":5,"tails":5,"studentIndex":5,"studentTrueHypers":{"a":1,"b":4},"studentGuess":0.4,"delta":0.09999999999999998,"totalExamples":10,"bonusSoFar":0.1},{"rt":null,"stimulus":"Sending examples to student... ","response":null,"trial_type":"html-keyboard-response","trial_index":45,"time_elapsed":361309,"internal_node_id":"0.0-44.0","params":{"nStudents":24,"maxFlips":25,"completionMinutes":45,"basePay":8,"maxBonus":9,"perTrialBonus":0.5,"perTrialBonusThreshold":0.05,"exampleCost":0.02},"classroomParams":{"A":{"a":1,"b":4},"B":{"a":4,"b":1},"C":{"a":2,"b":8},"D":{"a":8,"b":2}},"conditions":["nonSeqFull","nonSeqPartial","seqNoFeedback","seqFeedback"],"classroomPairings":[["A","B"],["C","D"]],"coinWeights":[0.2,0.5,0.8],"subjectId":"A13FUEPWBCLBUY","assignmentId":"3Z2R0DQ0JI0H1RZJL97BT5KTFW8E2D","hitId":"3IH9TRB0FBLK6RLF7MSMKICTGYN1IU","url":"https://gershmanlab.com/experiments/alicia/teaching/experiment/?hitId=3IH9TRB0FBLK6RLF7MSMKICTGYN1IU&workerId=A13FUEPWBCLBUY&assignmentId=3Z2R0DQ0JI0H1RZJL97BT5KTFW8E2D&a=002Z3&tp_a=002Z3&b=3Z2R0DQ0JI0H1RZJL97BT5KTFW8E2D&tp_b=3Z2R0DQ0JI0H1RZJL97BT5KTFW8E2D&c=365633&tp_c=365633"},{"rt":null,"stimulus":"Examples sent to student! Waiting for student...","response":null,"trial_type":"html-keyboard-response","trial_index":46,"time_elapsed":365827,"internal_node_id":"0.0-45.0","params":{"nStudents":24,"maxFlips":25,"completionMinutes":45,"basePay":8,"maxBonus":9,"perTrialBonus":0.5,"perTrialBonusThreshold":0.05,"exampleCost":0.02},"classroomParams":{"A":{"a":1,"b":4},"B":{"a":4,"b":1},"C":{"a":2,"b":8},"D":{"a":8,"b":2}},"conditions":["nonSeqFull","nonSeqPartial","seqNoFeedback","seqFeedback"],"classroomPairings":[["A","B"],["C","D"]],"coinWeights":[0.2,0.5,0.8],"subjectId":"A13FUEPWBCLBUY","assignmentId":"3Z2R0DQ0JI0H1RZJL97BT5KTFW8E2D","hitId":"3IH9TRB0FBLK6RLF7MSMKICTGYN1IU","url":"https://gershmanlab.com/experiments/alicia/teaching/experiment/?hitId=3IH9TRB0FBLK6RLF7MSMKICTGYN1IU&workerId=A13FUEPWBCLBUY&assignmentId=3Z2R0DQ0JI0H1RZJL97BT5KTFW8E2D&a=002Z3&tp_a=002Z3&b=3Z2R0DQ0JI0H1RZJL97BT5KTFW8E2D&tp_b=3Z2R0DQ0JI0H1RZJL97BT5KTFW8E2D&c=365633&tp_c=365633"},{"rt":1034,"stimulus":"\n                <p>Student's guess for coin weight: <b style=\"color:Tomato;\">0.40</b></p>\n                <p></b></p>\n                <p>You will now send another set of examples to your student. <b>Remember to take your student's guess into consideration so that you can earn the highest bonus possible!</b> </p>\n                <p>Press any key to continue.</p>\n                ","response":"j","trial_type":"html-keyboard-response","trial_index":47,"time_elapsed":366864,"internal_node_id":"0.0-46.0","params":{"nStudents":24,"maxFlips":25,"completionMinutes":45,"basePay":8,"maxBonus":9,"perTrialBonus":0.5,"perTrialBonusThreshold":0.05,"exampleCost":0.02},"classroomParams":{"A":{"a":1,"b":4},"B":{"a":4,"b":1},"C":{"a":2,"b":8},"D":{"a":8,"b":2}},"conditions":["nonSeqFull","nonSeqPartial","seqNoFeedback","seqFeedback"],"classroomPairings":[["A","B"],["C","D"]],"coinWeights":[0.2,0.5,0.8],"subjectId":"A13FUEPWBCLBUY","assignmentId":"3Z2R0DQ0JI0H1RZJL97BT5KTFW8E2D","hitId":"3IH9TRB0FBLK6RLF7MSMKICTGYN1IU","url":"https://gershmanlab.com/experiments/alicia/teaching/experiment/?hitId=3IH9TRB0FBLK6RLF7MSMKICTGYN1IU&workerId=A13FUEPWBCLBUY&assignmentId=3Z2R0DQ0JI0H1RZJL97BT5KTFW8E2D&a=002Z3&tp_a=002Z3&b=3Z2R0DQ0JI0H1RZJL97BT5KTFW8E2D&tp_b=3Z2R0DQ0JI0H1RZJL97BT5KTFW8E2D&c=365633&tp_c=365633"},{"rt":5225,"response":{"heads":"5","tails":"5"},"type":"response","condition":"seqFeedback","trueTheta":0.5,"classrooms":["A","B"],"studentTrueClassroom":"A","exampleSet":"second","trial_type":"survey-html-form","trial_index":48,"time_elapsed":372091,"internal_node_id":"0.0-47.0-0.0","params":{"nStudents":24,"maxFlips":25,"completionMinutes":45,"basePay":8,"maxBonus":9,"perTrialBonus":0.5,"perTrialBonusThreshold":0.05,"exampleCost":0.02},"classroomParams":{"A":{"a":1,"b":4},"B":{"a":4,"b":1},"C":{"a":2,"b":8},"D":{"a":8,"b":2}},"conditions":["nonSeqFull","nonSeqPartial","seqNoFeedback","seqFeedback"],"classroomPairings":[["A","B"],["C","D"]],"coinWeights":[0.2,0.5,0.8],"subjectId":"A13FUEPWBCLBUY","assignmentId":"3Z2R0DQ0JI0H1RZJL97BT5KTFW8E2D","hitId":"3IH9TRB0FBLK6RLF7MSMKICTGYN1IU","url":"https://gershmanlab.com/experiments/alicia/teaching/experiment/?hitId=3IH9TRB0FBLK6RLF7MSMKICTGYN1IU&workerId=A13FUEPWBCLBUY&assignmentId=3Z2R0DQ0JI0H1RZJL97BT5KTFW8E2D&a=002Z3&tp_a=002Z3&b=3Z2R0DQ0JI0H1RZJL97BT5KTFW8E2D&tp_b=3Z2R0DQ0JI0H1RZJL97BT5KTFW8E2D&c=365633&tp_c=365633","firstResponseHeads":5,"firstResponseTails":5,"secondResponseHeads":5,"secondResponseTails":5,"totalHeads":10,"totalTails":10,"studentIndex":5,"studentTrueHypers":{"a":1,"b":4},"studentGuess":0.44,"delta":0.06,"bonus":0,"bonusSoFar":0.1,"totalExamples":20},{"rt":null,"stimulus":"Sending examples to student... ","response":null,"trial_type":"html-keyboard-response","trial_index":49,"time_elapsed":374096,"internal_node_id":"0.0-48.0","params":{"nStudents":24,"maxFlips":25,"completionMinutes":45,"basePay":8,"maxBonus":9,"perTrialBonus":0.5,"perTrialBonusThreshold":0.05,"exampleCost":0.02},"classroomParams":{"A":{"a":1,"b":4},"B":{"a":4,"b":1},"C":{"a":2,"b":8},"D":{"a":8,"b":2}},"conditions":["nonSeqFull","nonSeqPartial","seqNoFeedback","seqFeedback"],"classroomPairings":[["A","B"],["C","D"]],"coinWeights":[0.2,0.5,0.8],"subjectId":"A13FUEPWBCLBUY","assignmentId":"3Z2R0DQ0JI0H1RZJL97BT5KTFW8E2D","hitId":"3IH9TRB0FBLK6RLF7MSMKICTGYN1IU","url":"https://gershmanlab.com/experiments/alicia/teaching/experiment/?hitId=3IH9TRB0FBLK6RLF7MSMKICTGYN1IU&workerId=A13FUEPWBCLBUY&assignmentId=3Z2R0DQ0JI0H1RZJL97BT5KTFW8E2D&a=002Z3&tp_a=002Z3&b=3Z2R0DQ0JI0H1RZJL97BT5KTFW8E2D&tp_b=3Z2R0DQ0JI0H1RZJL97BT5KTFW8E2D&c=365633&tp_c=365633"},{"rt":null,"stimulus":"Examples sent to student! Waiting for student...","response":null,"trial_type":"html-keyboard-response","trial_index":50,"time_elapsed":378609,"internal_node_id":"0.0-49.0","params":{"nStudents":24,"maxFlips":25,"completionMinutes":45,"basePay":8,"maxBonus":9,"perTrialBonus":0.5,"perTrialBonusThreshold":0.05,"exampleCost":0.02},"classroomParams":{"A":{"a":1,"b":4},"B":{"a":4,"b":1},"C":{"a":2,"b":8},"D":{"a":8,"b":2}},"conditions":["nonSeqFull","nonSeqPartial","seqNoFeedback","seqFeedback"],"classroomPairings":[["A","B"],["C","D"]],"coinWeights":[0.2,0.5,0.8],"subjectId":"A13FUEPWBCLBUY","assignmentId":"3Z2R0DQ0JI0H1RZJL97BT5KTFW8E2D","hitId":"3IH9TRB0FBLK6RLF7MSMKICTGYN1IU","url":"https://gershmanlab.com/experiments/alicia/teaching/experiment/?hitId=3IH9TRB0FBLK6RLF7MSMKICTGYN1IU&workerId=A13FUEPWBCLBUY&assignmentId=3Z2R0DQ0JI0H1RZJL97BT5KTFW8E2D&a=002Z3&tp_a=002Z3&b=3Z2R0DQ0JI0H1RZJL97BT5KTFW8E2D&tp_b=3Z2R0DQ0JI0H1RZJL97BT5KTFW8E2D&c=365633&tp_c=365633"},{"rt":2540,"stimulus":"\n                <p>Student 6's first guess for coin weight: <b style=\"color:Tomato\";>0.40</b></p>\n                <p>Student 6's second guess for coin weight: <b style=\"color:Tomato\";>0.44</b></p>\n                <p>You received a bonus of <b>$0.00</b> based on the student's second guess.</p>\n                <p>Total bonus so far: <b>$0.10</b></p>\n                <p>Press any key to continue.</p>\n                ","response":"j","trial_type":"html-keyboard-response","trial_index":51,"time_elapsed":381150,"internal_node_id":"0.0-50.0","params":{"nStudents":24,"maxFlips":25,"completionMinutes":45,"basePay":8,"maxBonus":9,"perTrialBonus":0.5,"perTrialBonusThreshold":0.05,"exampleCost":0.02},"classroomParams":{"A":{"a":1,"b":4},"B":{"a":4,"b":1},"C":{"a":2,"b":8},"D":{"a":8,"b":2}},"conditions":["nonSeqFull","nonSeqPartial","seqNoFeedback","seqFeedback"],"classroomPairings":[["A","B"],["C","D"]],"coinWeights":[0.2,0.5,0.8],"subjectId":"A13FUEPWBCLBUY","assignmentId":"3Z2R0DQ0JI0H1RZJL97BT5KTFW8E2D","hitId":"3IH9TRB0FBLK6RLF7MSMKICTGYN1IU","url":"https://gershmanlab.com/experiments/alicia/teaching/experiment/?hitId=3IH9TRB0FBLK6RLF7MSMKICTGYN1IU&workerId=A13FUEPWBCLBUY&assignmentId=3Z2R0DQ0JI0H1RZJL97BT5KTFW8E2D&a=002Z3&tp_a=002Z3&b=3Z2R0DQ0JI0H1RZJL97BT5KTFW8E2D&tp_b=3Z2R0DQ0JI0H1RZJL97BT5KTFW8E2D&c=365633&tp_c=365633"},{"rt":null,"stimulus":"<div style=\"font-size:60px;\">Next student</div>","response":null,"trial_type":"html-keyboard-response","trial_index":52,"time_elapsed":383404,"internal_node_id":"0.0-51.0-0.0","params":{"nStudents":24,"maxFlips":25,"completionMinutes":45,"basePay":8,"maxBonus":9,"perTrialBonus":0.5,"perTrialBonusThreshold":0.05,"exampleCost":0.02},"classroomParams":{"A":{"a":1,"b":4},"B":{"a":4,"b":1},"C":{"a":2,"b":8},"D":{"a":8,"b":2}},"conditions":["nonSeqFull","nonSeqPartial","seqNoFeedback","seqFeedback"],"classroomPairings":[["A","B"],["C","D"]],"coinWeights":[0.2,0.5,0.8],"subjectId":"A13FUEPWBCLBUY","assignmentId":"3Z2R0DQ0JI0H1RZJL97BT5KTFW8E2D","hitId":"3IH9TRB0FBLK6RLF7MSMKICTGYN1IU","url":"https://gershmanlab.com/experiments/alicia/teaching/experiment/?hitId=3IH9TRB0FBLK6RLF7MSMKICTGYN1IU&workerId=A13FUEPWBCLBUY&assignmentId=3Z2R0DQ0JI0H1RZJL97BT5KTFW8E2D&a=002Z3&tp_a=002Z3&b=3Z2R0DQ0JI0H1RZJL97BT5KTFW8E2D&tp_b=3Z2R0DQ0JI0H1RZJL97BT5KTFW8E2D&c=365633&tp_c=365633"},{"rt":1286,"stimulus":"\n            <h4 style=\"color:Orange;\">Student 7</h4>\n            <h2>The weight of your coin is <b style=\"color:Tomato;\">0.2</b>.</h2>\n            <p>In this block, you will be giving <b>two</b> sets of examples to Student 7.</p>\n                <p>You will receive feedback at the end of the block.</p>\n            <p></p>","response":0,"trial_type":"html-button-response","trial_index":53,"time_elapsed":384692,"internal_node_id":"0.0-52.0","params":{"nStudents":24,"maxFlips":25,"completionMinutes":45,"basePay":8,"maxBonus":9,"perTrialBonus":0.5,"perTrialBonusThreshold":0.05,"exampleCost":0.02},"classroomParams":{"A":{"a":1,"b":4},"B":{"a":4,"b":1},"C":{"a":2,"b":8},"D":{"a":8,"b":2}},"conditions":["nonSeqFull","nonSeqPartial","seqNoFeedback","seqFeedback"],"classroomPairings":[["A","B"],["C","D"]],"coinWeights":[0.2,0.5,0.8],"subjectId":"A13FUEPWBCLBUY","assignmentId":"3Z2R0DQ0JI0H1RZJL97BT5KTFW8E2D","hitId":"3IH9TRB0FBLK6RLF7MSMKICTGYN1IU","url":"https://gershmanlab.com/experiments/alicia/teaching/experiment/?hitId=3IH9TRB0FBLK6RLF7MSMKICTGYN1IU&workerId=A13FUEPWBCLBUY&assignmentId=3Z2R0DQ0JI0H1RZJL97BT5KTFW8E2D&a=002Z3&tp_a=002Z3&b=3Z2R0DQ0JI0H1RZJL97BT5KTFW8E2D&tp_b=3Z2R0DQ0JI0H1RZJL97BT5KTFW8E2D&c=365633&tp_c=365633"},{"rt":7429,"response":{"heads":"2","tails":"8"},"type":"response","condition":"seqNoFeedback","trueTheta":0.2,"classrooms":["C","D"],"studentTrueClassroom":"D","exampleSet":"first","trial_type":"survey-html-form","trial_index":54,"time_elapsed":392125,"internal_node_id":"0.0-53.0-0.0","params":{"nStudents":24,"maxFlips":25,"completionMinutes":45,"basePay":8,"maxBonus":9,"perTrialBonus":0.5,"perTrialBonusThreshold":0.05,"exampleCost":0.02},"classroomParams":{"A":{"a":1,"b":4},"B":{"a":4,"b":1},"C":{"a":2,"b":8},"D":{"a":8,"b":2}},"conditions":["nonSeqFull","nonSeqPartial","seqNoFeedback","seqFeedback"],"classroomPairings":[["A","B"],["C","D"]],"coinWeights":[0.2,0.5,0.8],"subjectId":"A13FUEPWBCLBUY","assignmentId":"3Z2R0DQ0JI0H1RZJL97BT5KTFW8E2D","hitId":"3IH9TRB0FBLK6RLF7MSMKICTGYN1IU","url":"https://gershmanlab.com/experiments/alicia/teaching/experiment/?hitId=3IH9TRB0FBLK6RLF7MSMKICTGYN1IU&workerId=A13FUEPWBCLBUY&assignmentId=3Z2R0DQ0JI0H1RZJL97BT5KTFW8E2D&a=002Z3&tp_a=002Z3&b=3Z2R0DQ0JI0H1RZJL97BT5KTFW8E2D&tp_b=3Z2R0DQ0JI0H1RZJL97BT5KTFW8E2D&c=365633&tp_c=365633","heads":2,"tails":8,"studentIndex":6,"studentTrueHypers":{"a":8,"b":2},"studentGuess":0.5,"delta":0.3,"totalExamples":10,"bonusSoFar":0.1},{"rt":null,"stimulus":"Sending examples to student... ","response":null,"trial_type":"html-keyboard-response","trial_index":55,"time_elapsed":393891,"internal_node_id":"0.0-54.0","params":{"nStudents":24,"maxFlips":25,"completionMinutes":45,"basePay":8,"maxBonus":9,"perTrialBonus":0.5,"perTrialBonusThreshold":0.05,"exampleCost":0.02},"classroomParams":{"A":{"a":1,"b":4},"B":{"a":4,"b":1},"C":{"a":2,"b":8},"D":{"a":8,"b":2}},"conditions":["nonSeqFull","nonSeqPartial","seqNoFeedback","seqFeedback"],"classroomPairings":[["A","B"],["C","D"]],"coinWeights":[0.2,0.5,0.8],"subjectId":"A13FUEPWBCLBUY","assignmentId":"3Z2R0DQ0JI0H1RZJL97BT5KTFW8E2D","hitId":"3IH9TRB0FBLK6RLF7MSMKICTGYN1IU","url":"https://gershmanlab.com/experiments/alicia/teaching/experiment/?hitId=3IH9TRB0FBLK6RLF7MSMKICTGYN1IU&workerId=A13FUEPWBCLBUY&assignmentId=3Z2R0DQ0JI0H1RZJL97BT5KTFW8E2D&a=002Z3&tp_a=002Z3&b=3Z2R0DQ0JI0H1RZJL97BT5KTFW8E2D&tp_b=3Z2R0DQ0JI0H1RZJL97BT5KTFW8E2D&c=365633&tp_c=365633"},{"rt":null,"stimulus":"Examples sent to student! Waiting for student...","response":null,"trial_type":"html-keyboard-response","trial_index":56,"time_elapsed":398905,"internal_node_id":"0.0-55.0","params":{"nStudents":24,"maxFlips":25,"completionMinutes":45,"basePay":8,"maxBonus":9,"perTrialBonus":0.5,"perTrialBonusThreshold":0.05,"exampleCost":0.02},"classroomParams":{"A":{"a":1,"b":4},"B":{"a":4,"b":1},"C":{"a":2,"b":8},"D":{"a":8,"b":2}},"conditions":["nonSeqFull","nonSeqPartial","seqNoFeedback","seqFeedback"],"classroomPairings":[["A","B"],["C","D"]],"coinWeights":[0.2,0.5,0.8],"subjectId":"A13FUEPWBCLBUY","assignmentId":"3Z2R0DQ0JI0H1RZJL97BT5KTFW8E2D","hitId":"3IH9TRB0FBLK6RLF7MSMKICTGYN1IU","url":"https://gershmanlab.com/experiments/alicia/teaching/experiment/?hitId=3IH9TRB0FBLK6RLF7MSMKICTGYN1IU&workerId=A13FUEPWBCLBUY&assignmentId=3Z2R0DQ0JI0H1RZJL97BT5KTFW8E2D&a=002Z3&tp_a=002Z3&b=3Z2R0DQ0JI0H1RZJL97BT5KTFW8E2D&tp_b=3Z2R0DQ0JI0H1RZJL97BT5KTFW8E2D&c=365633&tp_c=365633"},{"rt":7226,"response":{"heads":"2","tails":"8"},"type":"response","condition":"seqNoFeedback","trueTheta":0.2,"classrooms":["C","D"],"studentTrueClassroom":"D","exampleSet":"second","trial_type":"survey-html-form","trial_index":57,"time_elapsed":406136,"internal_node_id":"0.0-56.0-0.0","params":{"nStudents":24,"maxFlips":25,"completionMinutes":45,"basePay":8,"maxBonus":9,"perTrialBonus":0.5,"perTrialBonusThreshold":0.05,"exampleCost":0.02},"classroomParams":{"A":{"a":1,"b":4},"B":{"a":4,"b":1},"C":{"a":2,"b":8},"D":{"a":8,"b":2}},"conditions":["nonSeqFull","nonSeqPartial","seqNoFeedback","seqFeedback"],"classroomPairings":[["A","B"],["C","D"]],"coinWeights":[0.2,0.5,0.8],"subjectId":"A13FUEPWBCLBUY","assignmentId":"3Z2R0DQ0JI0H1RZJL97BT5KTFW8E2D","hitId":"3IH9TRB0FBLK6RLF7MSMKICTGYN1IU","url":"https://gershmanlab.com/experiments/alicia/teaching/experiment/?hitId=3IH9TRB0FBLK6RLF7MSMKICTGYN1IU&workerId=A13FUEPWBCLBUY&assignmentId=3Z2R0DQ0JI0H1RZJL97BT5KTFW8E2D&a=002Z3&tp_a=002Z3&b=3Z2R0DQ0JI0H1RZJL97BT5KTFW8E2D&tp_b=3Z2R0DQ0JI0H1RZJL97BT5KTFW8E2D&c=365633&tp_c=365633","firstResponseHeads":2,"firstResponseTails":8,"secondResponseHeads":2,"secondResponseTails":8,"totalHeads":4,"totalTails":16,"studentIndex":6,"studentTrueHypers":{"a":8,"b":2},"studentGuess":0.4,"delta":0.2,"bonus":0,"bonusSoFar":0.1,"totalExamples":20},{"rt":null,"stimulus":"Sending examples to student... ","response":null,"trial_type":"html-keyboard-response","trial_index":58,"time_elapsed":408140,"internal_node_id":"0.0-57.0","params":{"nStudents":24,"maxFlips":25,"completionMinutes":45,"basePay":8,"maxBonus":9,"perTrialBonus":0.5,"perTrialBonusThreshold":0.05,"exampleCost":0.02},"classroomParams":{"A":{"a":1,"b":4},"B":{"a":4,"b":1},"C":{"a":2,"b":8},"D":{"a":8,"b":2}},"conditions":["nonSeqFull","nonSeqPartial","seqNoFeedback","seqFeedback"],"classroomPairings":[["A","B"],["C","D"]],"coinWeights":[0.2,0.5,0.8],"subjectId":"A13FUEPWBCLBUY","assignmentId":"3Z2R0DQ0JI0H1RZJL97BT5KTFW8E2D","hitId":"3IH9TRB0FBLK6RLF7MSMKICTGYN1IU","url":"https://gershmanlab.com/experiments/alicia/teaching/experiment/?hitId=3IH9TRB0FBLK6RLF7MSMKICTGYN1IU&workerId=A13FUEPWBCLBUY&assignmentId=3Z2R0DQ0JI0H1RZJL97BT5KTFW8E2D&a=002Z3&tp_a=002Z3&b=3Z2R0DQ0JI0H1RZJL97BT5KTFW8E2D&tp_b=3Z2R0DQ0JI0H1RZJL97BT5KTFW8E2D&c=365633&tp_c=365633"},{"rt":null,"stimulus":"Examples sent to student! Waiting for student...","response":null,"trial_type":"html-keyboard-response","trial_index":59,"time_elapsed":413153,"internal_node_id":"0.0-58.0","params":{"nStudents":24,"maxFlips":25,"completionMinutes":45,"basePay":8,"maxBonus":9,"perTrialBonus":0.5,"perTrialBonusThreshold":0.05,"exampleCost":0.02},"classroomParams":{"A":{"a":1,"b":4},"B":{"a":4,"b":1},"C":{"a":2,"b":8},"D":{"a":8,"b":2}},"conditions":["nonSeqFull","nonSeqPartial","seqNoFeedback","seqFeedback"],"classroomPairings":[["A","B"],["C","D"]],"coinWeights":[0.2,0.5,0.8],"subjectId":"A13FUEPWBCLBUY","assignmentId":"3Z2R0DQ0JI0H1RZJL97BT5KTFW8E2D","hitId":"3IH9TRB0FBLK6RLF7MSMKICTGYN1IU","url":"https://gershmanlab.com/experiments/alicia/teaching/experiment/?hitId=3IH9TRB0FBLK6RLF7MSMKICTGYN1IU&workerId=A13FUEPWBCLBUY&assignmentId=3Z2R0DQ0JI0H1RZJL97BT5KTFW8E2D&a=002Z3&tp_a=002Z3&b=3Z2R0DQ0JI0H1RZJL97BT5KTFW8E2D&tp_b=3Z2R0DQ0JI0H1RZJL97BT5KTFW8E2D&c=365633&tp_c=365633"},{"rt":2484,"stimulus":"\n                <p>Student 7's first guess for coin weight: <b style=\"color:Tomato\";>0.50</b></p>\n                <p>Student 7's second guess for coin weight: <b style=\"color:Tomato\";>0.40</b></p>\n                <p>You received a bonus of <b>$0.00</b> based on the student's second guess.</p>\n                <p>Total bonus so far: <b>$0.10</b></p>\n                <p>Press any key to continue.</p>\n                ","response":"j","trial_type":"html-keyboard-response","trial_index":60,"time_elapsed":415639,"internal_node_id":"0.0-59.0","params":{"nStudents":24,"maxFlips":25,"completionMinutes":45,"basePay":8,"maxBonus":9,"perTrialBonus":0.5,"perTrialBonusThreshold":0.05,"exampleCost":0.02},"classroomParams":{"A":{"a":1,"b":4},"B":{"a":4,"b":1},"C":{"a":2,"b":8},"D":{"a":8,"b":2}},"conditions":["nonSeqFull","nonSeqPartial","seqNoFeedback","seqFeedback"],"classroomPairings":[["A","B"],["C","D"]],"coinWeights":[0.2,0.5,0.8],"subjectId":"A13FUEPWBCLBUY","assignmentId":"3Z2R0DQ0JI0H1RZJL97BT5KTFW8E2D","hitId":"3IH9TRB0FBLK6RLF7MSMKICTGYN1IU","url":"https://gershmanlab.com/experiments/alicia/teaching/experiment/?hitId=3IH9TRB0FBLK6RLF7MSMKICTGYN1IU&workerId=A13FUEPWBCLBUY&assignmentId=3Z2R0DQ0JI0H1RZJL97BT5KTFW8E2D&a=002Z3&tp_a=002Z3&b=3Z2R0DQ0JI0H1RZJL97BT5KTFW8E2D&tp_b=3Z2R0DQ0JI0H1RZJL97BT5KTFW8E2D&c=365633&tp_c=365633"},{"rt":null,"stimulus":"<div style=\"font-size:60px;\">Next student</div>","response":null,"trial_type":"html-keyboard-response","trial_index":61,"time_elapsed":417655,"internal_node_id":"0.0-60.0-0.0","params":{"nStudents":24,"maxFlips":25,"completionMinutes":45,"basePay":8,"maxBonus":9,"perTrialBonus":0.5,"perTrialBonusThreshold":0.05,"exampleCost":0.02},"classroomParams":{"A":{"a":1,"b":4},"B":{"a":4,"b":1},"C":{"a":2,"b":8},"D":{"a":8,"b":2}},"conditions":["nonSeqFull","nonSeqPartial","seqNoFeedback","seqFeedback"],"classroomPairings":[["A","B"],["C","D"]],"coinWeights":[0.2,0.5,0.8],"subjectId":"A13FUEPWBCLBUY","assignmentId":"3Z2R0DQ0JI0H1RZJL97BT5KTFW8E2D","hitId":"3IH9TRB0FBLK6RLF7MSMKICTGYN1IU","url":"https://gershmanlab.com/experiments/alicia/teaching/experiment/?hitId=3IH9TRB0FBLK6RLF7MSMKICTGYN1IU&workerId=A13FUEPWBCLBUY&assignmentId=3Z2R0DQ0JI0H1RZJL97BT5KTFW8E2D&a=002Z3&tp_a=002Z3&b=3Z2R0DQ0JI0H1RZJL97BT5KTFW8E2D&tp_b=3Z2R0DQ0JI0H1RZJL97BT5KTFW8E2D&c=365633&tp_c=365633"},{"rt":1088,"stimulus":"\n            <h4 style=\"color:Orange;\">Student 8</h4>\n            <h2>The weight of your coin is <b style=\"color:Tomato;\">0.8</b>.</h2>\n            <p>In this block, you will be giving <b>two</b> sets of examples to Student 8.</p>\n                <p>You will receive feedback at the end of the block.</p>\n            <p></p>","response":0,"trial_type":"html-button-response","trial_index":62,"time_elapsed":418746,"internal_node_id":"0.0-61.0","params":{"nStudents":24,"maxFlips":25,"completionMinutes":45,"basePay":8,"maxBonus":9,"perTrialBonus":0.5,"perTrialBonusThreshold":0.05,"exampleCost":0.02},"classroomParams":{"A":{"a":1,"b":4},"B":{"a":4,"b":1},"C":{"a":2,"b":8},"D":{"a":8,"b":2}},"conditions":["nonSeqFull","nonSeqPartial","seqNoFeedback","seqFeedback"],"classroomPairings":[["A","B"],["C","D"]],"coinWeights":[0.2,0.5,0.8],"subjectId":"A13FUEPWBCLBUY","assignmentId":"3Z2R0DQ0JI0H1RZJL97BT5KTFW8E2D","hitId":"3IH9TRB0FBLK6RLF7MSMKICTGYN1IU","url":"https://gershmanlab.com/experiments/alicia/teaching/experiment/?hitId=3IH9TRB0FBLK6RLF7MSMKICTGYN1IU&workerId=A13FUEPWBCLBUY&assignmentId=3Z2R0DQ0JI0H1RZJL97BT5KTFW8E2D&a=002Z3&tp_a=002Z3&b=3Z2R0DQ0JI0H1RZJL97BT5KTFW8E2D&tp_b=3Z2R0DQ0JI0H1RZJL97BT5KTFW8E2D&c=365633&tp_c=365633"},{"rt":4507,"response":{"heads":"8","tails":"1"},"type":"response","condition":"seqNoFeedback","trueTheta":0.8,"classrooms":["A","B"],"studentTrueClassroom":"B","exampleSet":"first","trial_type":"survey-html-form","trial_index":63,"time_elapsed":423255,"internal_node_id":"0.0-62.0-0.0","params":{"nStudents":24,"maxFlips":25,"completionMinutes":45,"basePay":8,"maxBonus":9,"perTrialBonus":0.5,"perTrialBonusThreshold":0.05,"exampleCost":0.02},"classroomParams":{"A":{"a":1,"b":4},"B":{"a":4,"b":1},"C":{"a":2,"b":8},"D":{"a":8,"b":2}},"conditions":["nonSeqFull","nonSeqPartial","seqNoFeedback","seqFeedback"],"classroomPairings":[["A","B"],["C","D"]],"coinWeights":[0.2,0.5,0.8],"subjectId":"A13FUEPWBCLBUY","assignmentId":"3Z2R0DQ0JI0H1RZJL97BT5KTFW8E2D","hitId":"3IH9TRB0FBLK6RLF7MSMKICTGYN1IU","url":"https://gershmanlab.com/experiments/alicia/teaching/experiment/?hitId=3IH9TRB0FBLK6RLF7MSMKICTGYN1IU&workerId=A13FUEPWBCLBUY&assignmentId=3Z2R0DQ0JI0H1RZJL97BT5KTFW8E2D&a=002Z3&tp_a=002Z3&b=3Z2R0DQ0JI0H1RZJL97BT5KTFW8E2D&tp_b=3Z2R0DQ0JI0H1RZJL97BT5KTFW8E2D&c=365633&tp_c=365633","heads":8,"tails":1,"studentIndex":7,"studentTrueHypers":{"a":4,"b":1},"studentGuess":0.8571428571428571,"delta":0.05714285714285705,"totalExamples":9,"bonusSoFar":0.1},{"rt":null,"stimulus":"Sending examples to student... ","response":null,"trial_type":"html-keyboard-response","trial_index":64,"time_elapsed":425020,"internal_node_id":"0.0-63.0","params":{"nStudents":24,"maxFlips":25,"completionMinutes":45,"basePay":8,"maxBonus":9,"perTrialBonus":0.5,"perTrialBonusThreshold":0.05,"exampleCost":0.02},"classroomParams":{"A":{"a":1,"b":4},"B":{"a":4,"b":1},"C":{"a":2,"b":8},"D":{"a":8,"b":2}},"conditions":["nonSeqFull","nonSeqPartial","seqNoFeedback","seqFeedback"],"classroomPairings":[["A","B"],["C","D"]],"coinWeights":[0.2,0.5,0.8],"subjectId":"A13FUEPWBCLBUY","assignmentId":"3Z2R0DQ0JI0H1RZJL97BT5KTFW8E2D","hitId":"3IH9TRB0FBLK6RLF7MSMKICTGYN1IU","url":"https://gershmanlab.com/experiments/alicia/teaching/experiment/?hitId=3IH9TRB0FBLK6RLF7MSMKICTGYN1IU&workerId=A13FUEPWBCLBUY&assignmentId=3Z2R0DQ0JI0H1RZJL97BT5KTFW8E2D&a=002Z3&tp_a=002Z3&b=3Z2R0DQ0JI0H1RZJL97BT5KTFW8E2D&tp_b=3Z2R0DQ0JI0H1RZJL97BT5KTFW8E2D&c=365633&tp_c=365633"},{"rt":null,"stimulus":"Examples sent to student! Waiting for student...","response":null,"trial_type":"html-keyboard-response","trial_index":65,"time_elapsed":431035,"internal_node_id":"0.0-64.0","params":{"nStudents":24,"maxFlips":25,"completionMinutes":45,"basePay":8,"maxBonus":9,"perTrialBonus":0.5,"perTrialBonusThreshold":0.05,"exampleCost":0.02},"classroomParams":{"A":{"a":1,"b":4},"B":{"a":4,"b":1},"C":{"a":2,"b":8},"D":{"a":8,"b":2}},"conditions":["nonSeqFull","nonSeqPartial","seqNoFeedback","seqFeedback"],"classroomPairings":[["A","B"],["C","D"]],"coinWeights":[0.2,0.5,0.8],"subjectId":"A13FUEPWBCLBUY","assignmentId":"3Z2R0DQ0JI0H1RZJL97BT5KTFW8E2D","hitId":"3IH9TRB0FBLK6RLF7MSMKICTGYN1IU","url":"https://gershmanlab.com/experiments/alicia/teaching/experiment/?hitId=3IH9TRB0FBLK6RLF7MSMKICTGYN1IU&workerId=A13FUEPWBCLBUY&assignmentId=3Z2R0DQ0JI0H1RZJL97BT5KTFW8E2D&a=002Z3&tp_a=002Z3&b=3Z2R0DQ0JI0H1RZJL97BT5KTFW8E2D&tp_b=3Z2R0DQ0JI0H1RZJL97BT5KTFW8E2D&c=365633&tp_c=365633"},{"rt":5619,"response":{"heads":"6","tails":"1"},"type":"response","condition":"seqNoFeedback","trueTheta":0.8,"classrooms":["A","B"],"studentTrueClassroom":"B","exampleSet":"second","trial_type":"survey-html-form","trial_index":66,"time_elapsed":436659,"internal_node_id":"0.0-65.0-0.0","params":{"nStudents":24,"maxFlips":25,"completionMinutes":45,"basePay":8,"maxBonus":9,"perTrialBonus":0.5,"perTrialBonusThreshold":0.05,"exampleCost":0.02},"classroomParams":{"A":{"a":1,"b":4},"B":{"a":4,"b":1},"C":{"a":2,"b":8},"D":{"a":8,"b":2}},"conditions":["nonSeqFull","nonSeqPartial","seqNoFeedback","seqFeedback"],"classroomPairings":[["A","B"],["C","D"]],"coinWeights":[0.2,0.5,0.8],"subjectId":"A13FUEPWBCLBUY","assignmentId":"3Z2R0DQ0JI0H1RZJL97BT5KTFW8E2D","hitId":"3IH9TRB0FBLK6RLF7MSMKICTGYN1IU","url":"https://gershmanlab.com/experiments/alicia/teaching/experiment/?hitId=3IH9TRB0FBLK6RLF7MSMKICTGYN1IU&workerId=A13FUEPWBCLBUY&assignmentId=3Z2R0DQ0JI0H1RZJL97BT5KTFW8E2D&a=002Z3&tp_a=002Z3&b=3Z2R0DQ0JI0H1RZJL97BT5KTFW8E2D&tp_b=3Z2R0DQ0JI0H1RZJL97BT5KTFW8E2D&c=365633&tp_c=365633","firstResponseHeads":8,"firstResponseTails":1,"secondResponseHeads":6,"secondResponseTails":1,"totalHeads":14,"totalTails":2,"studentIndex":7,"studentTrueHypers":{"a":4,"b":1},"studentGuess":0.8571428571428571,"delta":0.05714285714285705,"bonus":0,"bonusSoFar":0.1,"totalExamples":16},{"rt":null,"stimulus":"Sending examples to student... ","response":null,"trial_type":"html-keyboard-response","trial_index":67,"time_elapsed":437918,"internal_node_id":"0.0-66.0","params":{"nStudents":24,"maxFlips":25,"completionMinutes":45,"basePay":8,"maxBonus":9,"perTrialBonus":0.5,"perTrialBonusThreshold":0.05,"exampleCost":0.02},"classroomParams":{"A":{"a":1,"b":4},"B":{"a":4,"b":1},"C":{"a":2,"b":8},"D":{"a":8,"b":2}},"conditions":["nonSeqFull","nonSeqPartial","seqNoFeedback","seqFeedback"],"classroomPairings":[["A","B"],["C","D"]],"coinWeights":[0.2,0.5,0.8],"subjectId":"A13FUEPWBCLBUY","assignmentId":"3Z2R0DQ0JI0H1RZJL97BT5KTFW8E2D","hitId":"3IH9TRB0FBLK6RLF7MSMKICTGYN1IU","url":"https://gershmanlab.com/experiments/alicia/teaching/experiment/?hitId=3IH9TRB0FBLK6RLF7MSMKICTGYN1IU&workerId=A13FUEPWBCLBUY&assignmentId=3Z2R0DQ0JI0H1RZJL97BT5KTFW8E2D&a=002Z3&tp_a=002Z3&b=3Z2R0DQ0JI0H1RZJL97BT5KTFW8E2D&tp_b=3Z2R0DQ0JI0H1RZJL97BT5KTFW8E2D&c=365633&tp_c=365633"},{"rt":null,"stimulus":"Examples sent to student! Waiting for student...","response":null,"trial_type":"html-keyboard-response","trial_index":68,"time_elapsed":442928,"internal_node_id":"0.0-67.0","params":{"nStudents":24,"maxFlips":25,"completionMinutes":45,"basePay":8,"maxBonus":9,"perTrialBonus":0.5,"perTrialBonusThreshold":0.05,"exampleCost":0.02},"classroomParams":{"A":{"a":1,"b":4},"B":{"a":4,"b":1},"C":{"a":2,"b":8},"D":{"a":8,"b":2}},"conditions":["nonSeqFull","nonSeqPartial","seqNoFeedback","seqFeedback"],"classroomPairings":[["A","B"],["C","D"]],"coinWeights":[0.2,0.5,0.8],"subjectId":"A13FUEPWBCLBUY","assignmentId":"3Z2R0DQ0JI0H1RZJL97BT5KTFW8E2D","hitId":"3IH9TRB0FBLK6RLF7MSMKICTGYN1IU","url":"https://gershmanlab.com/experiments/alicia/teaching/experiment/?hitId=3IH9TRB0FBLK6RLF7MSMKICTGYN1IU&workerId=A13FUEPWBCLBUY&assignmentId=3Z2R0DQ0JI0H1RZJL97BT5KTFW8E2D&a=002Z3&tp_a=002Z3&b=3Z2R0DQ0JI0H1RZJL97BT5KTFW8E2D&tp_b=3Z2R0DQ0JI0H1RZJL97BT5KTFW8E2D&c=365633&tp_c=365633"},{"rt":1221,"stimulus":"\n                <p>Student 8's first guess for coin weight: <b style=\"color:Tomato\";>0.86</b></p>\n                <p>Student 8's second guess for coin weight: <b style=\"color:Tomato\";>0.86</b></p>\n                <p>You received a bonus of <b>$0.00</b> based on the student's second guess.</p>\n                <p>Total bonus so far: <b>$0.10</b></p>\n                <p>Press any key to continue.</p>\n                ","response":"j","trial_type":"html-keyboard-response","trial_index":69,"time_elapsed":444152,"internal_node_id":"0.0-68.0","params":{"nStudents":24,"maxFlips":25,"completionMinutes":45,"basePay":8,"maxBonus":9,"perTrialBonus":0.5,"perTrialBonusThreshold":0.05,"exampleCost":0.02},"classroomParams":{"A":{"a":1,"b":4},"B":{"a":4,"b":1},"C":{"a":2,"b":8},"D":{"a":8,"b":2}},"conditions":["nonSeqFull","nonSeqPartial","seqNoFeedback","seqFeedback"],"classroomPairings":[["A","B"],["C","D"]],"coinWeights":[0.2,0.5,0.8],"subjectId":"A13FUEPWBCLBUY","assignmentId":"3Z2R0DQ0JI0H1RZJL97BT5KTFW8E2D","hitId":"3IH9TRB0FBLK6RLF7MSMKICTGYN1IU","url":"https://gershmanlab.com/experiments/alicia/teaching/experiment/?hitId=3IH9TRB0FBLK6RLF7MSMKICTGYN1IU&workerId=A13FUEPWBCLBUY&assignmentId=3Z2R0DQ0JI0H1RZJL97BT5KTFW8E2D&a=002Z3&tp_a=002Z3&b=3Z2R0DQ0JI0H1RZJL97BT5KTFW8E2D&tp_b=3Z2R0DQ0JI0H1RZJL97BT5KTFW8E2D&c=365633&tp_c=365633"},{"rt":null,"stimulus":"<div style=\"font-size:60px;\">Next student</div>","response":null,"trial_type":"html-keyboard-response","trial_index":70,"time_elapsed":446169,"internal_node_id":"0.0-69.0-0.0","params":{"nStudents":24,"maxFlips":25,"completionMinutes":45,"basePay":8,"maxBonus":9,"perTrialBonus":0.5,"perTrialBonusThreshold":0.05,"exampleCost":0.02},"classroomParams":{"A":{"a":1,"b":4},"B":{"a":4,"b":1},"C":{"a":2,"b":8},"D":{"a":8,"b":2}},"conditions":["nonSeqFull","nonSeqPartial","seqNoFeedback","seqFeedback"],"classroomPairings":[["A","B"],["C","D"]],"coinWeights":[0.2,0.5,0.8],"subjectId":"A13FUEPWBCLBUY","assignmentId":"3Z2R0DQ0JI0H1RZJL97BT5KTFW8E2D","hitId":"3IH9TRB0FBLK6RLF7MSMKICTGYN1IU","url":"https://gershmanlab.com/experiments/alicia/teaching/experiment/?hitId=3IH9TRB0FBLK6RLF7MSMKICTGYN1IU&workerId=A13FUEPWBCLBUY&assignmentId=3Z2R0DQ0JI0H1RZJL97BT5KTFW8E2D&a=002Z3&tp_a=002Z3&b=3Z2R0DQ0JI0H1RZJL97BT5KTFW8E2D&tp_b=3Z2R0DQ0JI0H1RZJL97BT5KTFW8E2D&c=365633&tp_c=365633"},{"rt":1056,"stimulus":"\n            <h4 style=\"color:Orange;\">Student 9</h4>\n            <h2>The weight of your coin is <b style=\"color:Tomato;\">0.8</b>.</h2>\n            <p>In this block, you will be giving <b>two</b> sets of examples to Student 9.</p>\n                <p>You will see the student's guess after the first set of examples. You will also receive feedback at the end of the block.</p>\n            <p>To earn the highest bonus, you will have to <b>take into consideration the student's guess</b> when you choose your second set of examples.</p>","response":0,"trial_type":"html-button-response","trial_index":71,"time_elapsed":447228,"internal_node_id":"0.0-70.0","params":{"nStudents":24,"maxFlips":25,"completionMinutes":45,"basePay":8,"maxBonus":9,"perTrialBonus":0.5,"perTrialBonusThreshold":0.05,"exampleCost":0.02},"classroomParams":{"A":{"a":1,"b":4},"B":{"a":4,"b":1},"C":{"a":2,"b":8},"D":{"a":8,"b":2}},"conditions":["nonSeqFull","nonSeqPartial","seqNoFeedback","seqFeedback"],"classroomPairings":[["A","B"],["C","D"]],"coinWeights":[0.2,0.5,0.8],"subjectId":"A13FUEPWBCLBUY","assignmentId":"3Z2R0DQ0JI0H1RZJL97BT5KTFW8E2D","hitId":"3IH9TRB0FBLK6RLF7MSMKICTGYN1IU","url":"https://gershmanlab.com/experiments/alicia/teaching/experiment/?hitId=3IH9TRB0FBLK6RLF7MSMKICTGYN1IU&workerId=A13FUEPWBCLBUY&assignmentId=3Z2R0DQ0JI0H1RZJL97BT5KTFW8E2D&a=002Z3&tp_a=002Z3&b=3Z2R0DQ0JI0H1RZJL97BT5KTFW8E2D&tp_b=3Z2R0DQ0JI0H1RZJL97BT5KTFW8E2D&c=365633&tp_c=365633"},{"rt":4063,"response":{"heads":"6","tails":"1"},"type":"response","condition":"seqFeedback","trueTheta":0.8,"classrooms":["A","B"],"studentTrueClassroom":"A","exampleSet":"first","trial_type":"survey-html-form","trial_index":72,"time_elapsed":451293,"internal_node_id":"0.0-71.0-0.0","params":{"nStudents":24,"maxFlips":25,"completionMinutes":45,"basePay":8,"maxBonus":9,"perTrialBonus":0.5,"perTrialBonusThreshold":0.05,"exampleCost":0.02},"classroomParams":{"A":{"a":1,"b":4},"B":{"a":4,"b":1},"C":{"a":2,"b":8},"D":{"a":8,"b":2}},"conditions":["nonSeqFull","nonSeqPartial","seqNoFeedback","seqFeedback"],"classroomPairings":[["A","B"],["C","D"]],"coinWeights":[0.2,0.5,0.8],"subjectId":"A13FUEPWBCLBUY","assignmentId":"3Z2R0DQ0JI0H1RZJL97BT5KTFW8E2D","hitId":"3IH9TRB0FBLK6RLF7MSMKICTGYN1IU","url":"https://gershmanlab.com/experiments/alicia/teaching/experiment/?hitId=3IH9TRB0FBLK6RLF7MSMKICTGYN1IU&workerId=A13FUEPWBCLBUY&assignmentId=3Z2R0DQ0JI0H1RZJL97BT5KTFW8E2D&a=002Z3&tp_a=002Z3&b=3Z2R0DQ0JI0H1RZJL97BT5KTFW8E2D&tp_b=3Z2R0DQ0JI0H1RZJL97BT5KTFW8E2D&c=365633&tp_c=365633","heads":6,"tails":1,"studentIndex":8,"studentTrueHypers":{"a":1,"b":4},"studentGuess":0.5833333333333334,"delta":0.21666666666666667,"totalExamples":7,"bonusSoFar":0.1},{"rt":null,"stimulus":"Sending examples to student... ","response":null,"trial_type":"html-keyboard-response","trial_index":73,"time_elapsed":452809,"internal_node_id":"0.0-72.0","params":{"nStudents":24,"maxFlips":25,"completionMinutes":45,"basePay":8,"maxBonus":9,"perTrialBonus":0.5,"perTrialBonusThreshold":0.05,"exampleCost":0.02},"classroomParams":{"A":{"a":1,"b":4},"B":{"a":4,"b":1},"C":{"a":2,"b":8},"D":{"a":8,"b":2}},"conditions":["nonSeqFull","nonSeqPartial","seqNoFeedback","seqFeedback"],"classroomPairings":[["A","B"],["C","D"]],"coinWeights":[0.2,0.5,0.8],"subjectId":"A13FUEPWBCLBUY","assignmentId":"3Z2R0DQ0JI0H1RZJL97BT5KTFW8E2D","hitId":"3IH9TRB0FBLK6RLF7MSMKICTGYN1IU","url":"https://gershmanlab.com/experiments/alicia/teaching/experiment/?hitId=3IH9TRB0FBLK6RLF7MSMKICTGYN1IU&workerId=A13FUEPWBCLBUY&assignmentId=3Z2R0DQ0JI0H1RZJL97BT5KTFW8E2D&a=002Z3&tp_a=002Z3&b=3Z2R0DQ0JI0H1RZJL97BT5KTFW8E2D&tp_b=3Z2R0DQ0JI0H1RZJL97BT5KTFW8E2D&c=365633&tp_c=365633"},{"rt":null,"stimulus":"Examples sent to student! Waiting for student...","response":null,"trial_type":"html-keyboard-response","trial_index":74,"time_elapsed":457819,"internal_node_id":"0.0-73.0","params":{"nStudents":24,"maxFlips":25,"completionMinutes":45,"basePay":8,"maxBonus":9,"perTrialBonus":0.5,"perTrialBonusThreshold":0.05,"exampleCost":0.02},"classroomParams":{"A":{"a":1,"b":4},"B":{"a":4,"b":1},"C":{"a":2,"b":8},"D":{"a":8,"b":2}},"conditions":["nonSeqFull","nonSeqPartial","seqNoFeedback","seqFeedback"],"classroomPairings":[["A","B"],["C","D"]],"coinWeights":[0.2,0.5,0.8],"subjectId":"A13FUEPWBCLBUY","assignmentId":"3Z2R0DQ0JI0H1RZJL97BT5KTFW8E2D","hitId":"3IH9TRB0FBLK6RLF7MSMKICTGYN1IU","url":"https://gershmanlab.com/experiments/alicia/teaching/experiment/?hitId=3IH9TRB0FBLK6RLF7MSMKICTGYN1IU&workerId=A13FUEPWBCLBUY&assignmentId=3Z2R0DQ0JI0H1RZJL97BT5KTFW8E2D&a=002Z3&tp_a=002Z3&b=3Z2R0DQ0JI0H1RZJL97BT5KTFW8E2D&tp_b=3Z2R0DQ0JI0H1RZJL97BT5KTFW8E2D&c=365633&tp_c=365633"},{"rt":2088,"stimulus":"\n                <p>Student's guess for coin weight: <b style=\"color:Tomato;\">0.58</b></p>\n                <p></b></p>\n                <p>You will now send another set of examples to your student. <b>Remember to take your student's guess into consideration so that you can earn the highest bonus possible!</b> </p>\n                <p>Press any key to continue.</p>\n                ","response":"n","trial_type":"html-keyboard-response","trial_index":75,"time_elapsed":459909,"internal_node_id":"0.0-74.0","params":{"nStudents":24,"maxFlips":25,"completionMinutes":45,"basePay":8,"maxBonus":9,"perTrialBonus":0.5,"perTrialBonusThreshold":0.05,"exampleCost":0.02},"classroomParams":{"A":{"a":1,"b":4},"B":{"a":4,"b":1},"C":{"a":2,"b":8},"D":{"a":8,"b":2}},"conditions":["nonSeqFull","nonSeqPartial","seqNoFeedback","seqFeedback"],"classroomPairings":[["A","B"],["C","D"]],"coinWeights":[0.2,0.5,0.8],"subjectId":"A13FUEPWBCLBUY","assignmentId":"3Z2R0DQ0JI0H1RZJL97BT5KTFW8E2D","hitId":"3IH9TRB0FBLK6RLF7MSMKICTGYN1IU","url":"https://gershmanlab.com/experiments/alicia/teaching/experiment/?hitId=3IH9TRB0FBLK6RLF7MSMKICTGYN1IU&workerId=A13FUEPWBCLBUY&assignmentId=3Z2R0DQ0JI0H1RZJL97BT5KTFW8E2D&a=002Z3&tp_a=002Z3&b=3Z2R0DQ0JI0H1RZJL97BT5KTFW8E2D&tp_b=3Z2R0DQ0JI0H1RZJL97BT5KTFW8E2D&c=365633&tp_c=365633"},{"rt":4630,"response":{"heads":"8","tails":"1"},"type":"response","condition":"seqFeedback","trueTheta":0.8,"classrooms":["A","B"],"studentTrueClassroom":"A","exampleSet":"second","trial_type":"survey-html-form","trial_index":76,"time_elapsed":464541,"internal_node_id":"0.0-75.0-0.0","params":{"nStudents":24,"maxFlips":25,"completionMinutes":45,"basePay":8,"maxBonus":9,"perTrialBonus":0.5,"perTrialBonusThreshold":0.05,"exampleCost":0.02},"classroomParams":{"A":{"a":1,"b":4},"B":{"a":4,"b":1},"C":{"a":2,"b":8},"D":{"a":8,"b":2}},"conditions":["nonSeqFull","nonSeqPartial","seqNoFeedback","seqFeedback"],"classroomPairings":[["A","B"],["C","D"]],"coinWeights":[0.2,0.5,0.8],"subjectId":"A13FUEPWBCLBUY","assignmentId":"3Z2R0DQ0JI0H1RZJL97BT5KTFW8E2D","hitId":"3IH9TRB0FBLK6RLF7MSMKICTGYN1IU","url":"https://gershmanlab.com/experiments/alicia/teaching/experiment/?hitId=3IH9TRB0FBLK6RLF7MSMKICTGYN1IU&workerId=A13FUEPWBCLBUY&assignmentId=3Z2R0DQ0JI0H1RZJL97BT5KTFW8E2D&a=002Z3&tp_a=002Z3&b=3Z2R0DQ0JI0H1RZJL97BT5KTFW8E2D&tp_b=3Z2R0DQ0JI0H1RZJL97BT5KTFW8E2D&c=365633&tp_c=365633","firstResponseHeads":6,"firstResponseTails":1,"secondResponseHeads":8,"secondResponseTails":1,"totalHeads":14,"totalTails":2,"studentIndex":8,"studentTrueHypers":{"a":1,"b":4},"studentGuess":0.7142857142857143,"delta":0.08571428571428574,"bonus":0,"bonusSoFar":0.1,"totalExamples":16},{"rt":null,"stimulus":"Sending examples to student... ","response":null,"trial_type":"html-keyboard-response","trial_index":77,"time_elapsed":466295,"internal_node_id":"0.0-76.0","params":{"nStudents":24,"maxFlips":25,"completionMinutes":45,"basePay":8,"maxBonus":9,"perTrialBonus":0.5,"perTrialBonusThreshold":0.05,"exampleCost":0.02},"classroomParams":{"A":{"a":1,"b":4},"B":{"a":4,"b":1},"C":{"a":2,"b":8},"D":{"a":8,"b":2}},"conditions":["nonSeqFull","nonSeqPartial","seqNoFeedback","seqFeedback"],"classroomPairings":[["A","B"],["C","D"]],"coinWeights":[0.2,0.5,0.8],"subjectId":"A13FUEPWBCLBUY","assignmentId":"3Z2R0DQ0JI0H1RZJL97BT5KTFW8E2D","hitId":"3IH9TRB0FBLK6RLF7MSMKICTGYN1IU","url":"https://gershmanlab.com/experiments/alicia/teaching/experiment/?hitId=3IH9TRB0FBLK6RLF7MSMKICTGYN1IU&workerId=A13FUEPWBCLBUY&assignmentId=3Z2R0DQ0JI0H1RZJL97BT5KTFW8E2D&a=002Z3&tp_a=002Z3&b=3Z2R0DQ0JI0H1RZJL97BT5KTFW8E2D&tp_b=3Z2R0DQ0JI0H1RZJL97BT5KTFW8E2D&c=365633&tp_c=365633"},{"rt":null,"stimulus":"Examples sent to student! Waiting for student...","response":null,"trial_type":"html-keyboard-response","trial_index":78,"time_elapsed":470299,"internal_node_id":"0.0-77.0","params":{"nStudents":24,"maxFlips":25,"completionMinutes":45,"basePay":8,"maxBonus":9,"perTrialBonus":0.5,"perTrialBonusThreshold":0.05,"exampleCost":0.02},"classroomParams":{"A":{"a":1,"b":4},"B":{"a":4,"b":1},"C":{"a":2,"b":8},"D":{"a":8,"b":2}},"conditions":["nonSeqFull","nonSeqPartial","seqNoFeedback","seqFeedback"],"classroomPairings":[["A","B"],["C","D"]],"coinWeights":[0.2,0.5,0.8],"subjectId":"A13FUEPWBCLBUY","assignmentId":"3Z2R0DQ0JI0H1RZJL97BT5KTFW8E2D","hitId":"3IH9TRB0FBLK6RLF7MSMKICTGYN1IU","url":"https://gershmanlab.com/experiments/alicia/teaching/experiment/?hitId=3IH9TRB0FBLK6RLF7MSMKICTGYN1IU&workerId=A13FUEPWBCLBUY&assignmentId=3Z2R0DQ0JI0H1RZJL97BT5KTFW8E2D&a=002Z3&tp_a=002Z3&b=3Z2R0DQ0JI0H1RZJL97BT5KTFW8E2D&tp_b=3Z2R0DQ0JI0H1RZJL97BT5KTFW8E2D&c=365633&tp_c=365633"},{"rt":985,"stimulus":"\n                <p>Student 9's first guess for coin weight: <b style=\"color:Tomato\";>0.58</b></p>\n                <p>Student 9's second guess for coin weight: <b style=\"color:Tomato\";>0.71</b></p>\n                <p>You received a bonus of <b>$0.00</b> based on the student's second guess.</p>\n                <p>Total bonus so far: <b>$0.10</b></p>\n                <p>Press any key to continue.</p>\n                ","response":"j","trial_type":"html-keyboard-response","trial_index":79,"time_elapsed":471286,"internal_node_id":"0.0-78.0","params":{"nStudents":24,"maxFlips":25,"completionMinutes":45,"basePay":8,"maxBonus":9,"perTrialBonus":0.5,"perTrialBonusThreshold":0.05,"exampleCost":0.02},"classroomParams":{"A":{"a":1,"b":4},"B":{"a":4,"b":1},"C":{"a":2,"b":8},"D":{"a":8,"b":2}},"conditions":["nonSeqFull","nonSeqPartial","seqNoFeedback","seqFeedback"],"classroomPairings":[["A","B"],["C","D"]],"coinWeights":[0.2,0.5,0.8],"subjectId":"A13FUEPWBCLBUY","assignmentId":"3Z2R0DQ0JI0H1RZJL97BT5KTFW8E2D","hitId":"3IH9TRB0FBLK6RLF7MSMKICTGYN1IU","url":"https://gershmanlab.com/experiments/alicia/teaching/experiment/?hitId=3IH9TRB0FBLK6RLF7MSMKICTGYN1IU&workerId=A13FUEPWBCLBUY&assignmentId=3Z2R0DQ0JI0H1RZJL97BT5KTFW8E2D&a=002Z3&tp_a=002Z3&b=3Z2R0DQ0JI0H1RZJL97BT5KTFW8E2D&tp_b=3Z2R0DQ0JI0H1RZJL97BT5KTFW8E2D&c=365633&tp_c=365633"},{"rt":null,"stimulus":"<div style=\"font-size:60px;\">Next student</div>","response":null,"trial_type":"html-keyboard-response","trial_index":80,"time_elapsed":473790,"internal_node_id":"0.0-79.0-0.0","params":{"nStudents":24,"maxFlips":25,"completionMinutes":45,"basePay":8,"maxBonus":9,"perTrialBonus":0.5,"perTrialBonusThreshold":0.05,"exampleCost":0.02},"classroomParams":{"A":{"a":1,"b":4},"B":{"a":4,"b":1},"C":{"a":2,"b":8},"D":{"a":8,"b":2}},"conditions":["nonSeqFull","nonSeqPartial","seqNoFeedback","seqFeedback"],"classroomPairings":[["A","B"],["C","D"]],"coinWeights":[0.2,0.5,0.8],"subjectId":"A13FUEPWBCLBUY","assignmentId":"3Z2R0DQ0JI0H1RZJL97BT5KTFW8E2D","hitId":"3IH9TRB0FBLK6RLF7MSMKICTGYN1IU","url":"https://gershmanlab.com/experiments/alicia/teaching/experiment/?hitId=3IH9TRB0FBLK6RLF7MSMKICTGYN1IU&workerId=A13FUEPWBCLBUY&assignmentId=3Z2R0DQ0JI0H1RZJL97BT5KTFW8E2D&a=002Z3&tp_a=002Z3&b=3Z2R0DQ0JI0H1RZJL97BT5KTFW8E2D&tp_b=3Z2R0DQ0JI0H1RZJL97BT5KTFW8E2D&c=365633&tp_c=365633"},{"rt":863,"stimulus":"\n            <h4 style=\"color:Orange;\">Student 10</h4>\n            <h2>The weight of your coin is <b style=\"color:Tomato;\">0.5</b>.</h2>\n            <p>In this block, you will be giving <b>one</b> set of examples to Student 10.</p>\n                <p>You will receive feedback at the end of the block.</p>\n            <p></p>","response":0,"trial_type":"html-button-response","trial_index":81,"time_elapsed":474656,"internal_node_id":"0.0-80.0","params":{"nStudents":24,"maxFlips":25,"completionMinutes":45,"basePay":8,"maxBonus":9,"perTrialBonus":0.5,"perTrialBonusThreshold":0.05,"exampleCost":0.02},"classroomParams":{"A":{"a":1,"b":4},"B":{"a":4,"b":1},"C":{"a":2,"b":8},"D":{"a":8,"b":2}},"conditions":["nonSeqFull","nonSeqPartial","seqNoFeedback","seqFeedback"],"classroomPairings":[["A","B"],["C","D"]],"coinWeights":[0.2,0.5,0.8],"subjectId":"A13FUEPWBCLBUY","assignmentId":"3Z2R0DQ0JI0H1RZJL97BT5KTFW8E2D","hitId":"3IH9TRB0FBLK6RLF7MSMKICTGYN1IU","url":"https://gershmanlab.com/experiments/alicia/teaching/experiment/?hitId=3IH9TRB0FBLK6RLF7MSMKICTGYN1IU&workerId=A13FUEPWBCLBUY&assignmentId=3Z2R0DQ0JI0H1RZJL97BT5KTFW8E2D&a=002Z3&tp_a=002Z3&b=3Z2R0DQ0JI0H1RZJL97BT5KTFW8E2D&tp_b=3Z2R0DQ0JI0H1RZJL97BT5KTFW8E2D&c=365633&tp_c=365633"},{"rt":3543,"response":{"heads":"3","tails":"3"},"type":"response","condition":"nonSeqFull","trueTheta":0.5,"classrooms":["C","D"],"studentTrueClassroom":"D","exampleSet":"first","trial_type":"survey-html-form","trial_index":82,"time_elapsed":478201,"internal_node_id":"0.0-81.0-0.0","params":{"nStudents":24,"maxFlips":25,"completionMinutes":45,"basePay":8,"maxBonus":9,"perTrialBonus":0.5,"perTrialBonusThreshold":0.05,"exampleCost":0.02},"classroomParams":{"A":{"a":1,"b":4},"B":{"a":4,"b":1},"C":{"a":2,"b":8},"D":{"a":8,"b":2}},"conditions":["nonSeqFull","nonSeqPartial","seqNoFeedback","seqFeedback"],"classroomPairings":[["A","B"],["C","D"]],"coinWeights":[0.2,0.5,0.8],"subjectId":"A13FUEPWBCLBUY","assignmentId":"3Z2R0DQ0JI0H1RZJL97BT5KTFW8E2D","hitId":"3IH9TRB0FBLK6RLF7MSMKICTGYN1IU","url":"https://gershmanlab.com/experiments/alicia/teaching/experiment/?hitId=3IH9TRB0FBLK6RLF7MSMKICTGYN1IU&workerId=A13FUEPWBCLBUY&assignmentId=3Z2R0DQ0JI0H1RZJL97BT5KTFW8E2D&a=002Z3&tp_a=002Z3&b=3Z2R0DQ0JI0H1RZJL97BT5KTFW8E2D&tp_b=3Z2R0DQ0JI0H1RZJL97BT5KTFW8E2D&c=365633&tp_c=365633","heads":3,"tails":3,"studentIndex":9,"studentTrueHypers":{"a":8,"b":2},"studentGuess":0.6875,"delta":0.1875,"totalExamples":6,"bonus":0,"bonusSoFar":0.1},{"rt":null,"stimulus":"Sending examples to student... ","response":null,"trial_type":"html-keyboard-response","trial_index":83,"time_elapsed":479715,"internal_node_id":"0.0-82.0","params":{"nStudents":24,"maxFlips":25,"completionMinutes":45,"basePay":8,"maxBonus":9,"perTrialBonus":0.5,"perTrialBonusThreshold":0.05,"exampleCost":0.02},"classroomParams":{"A":{"a":1,"b":4},"B":{"a":4,"b":1},"C":{"a":2,"b":8},"D":{"a":8,"b":2}},"conditions":["nonSeqFull","nonSeqPartial","seqNoFeedback","seqFeedback"],"classroomPairings":[["A","B"],["C","D"]],"coinWeights":[0.2,0.5,0.8],"subjectId":"A13FUEPWBCLBUY","assignmentId":"3Z2R0DQ0JI0H1RZJL97BT5KTFW8E2D","hitId":"3IH9TRB0FBLK6RLF7MSMKICTGYN1IU","url":"https://gershmanlab.com/experiments/alicia/teaching/experiment/?hitId=3IH9TRB0FBLK6RLF7MSMKICTGYN1IU&workerId=A13FUEPWBCLBUY&assignmentId=3Z2R0DQ0JI0H1RZJL97BT5KTFW8E2D&a=002Z3&tp_a=002Z3&b=3Z2R0DQ0JI0H1RZJL97BT5KTFW8E2D&tp_b=3Z2R0DQ0JI0H1RZJL97BT5KTFW8E2D&c=365633&tp_c=365633"},{"rt":null,"stimulus":"Examples sent to student! Waiting for student...","response":null,"trial_type":"html-keyboard-response","trial_index":84,"time_elapsed":483732,"internal_node_id":"0.0-83.0","params":{"nStudents":24,"maxFlips":25,"completionMinutes":45,"basePay":8,"maxBonus":9,"perTrialBonus":0.5,"perTrialBonusThreshold":0.05,"exampleCost":0.02},"classroomParams":{"A":{"a":1,"b":4},"B":{"a":4,"b":1},"C":{"a":2,"b":8},"D":{"a":8,"b":2}},"conditions":["nonSeqFull","nonSeqPartial","seqNoFeedback","seqFeedback"],"classroomPairings":[["A","B"],["C","D"]],"coinWeights":[0.2,0.5,0.8],"subjectId":"A13FUEPWBCLBUY","assignmentId":"3Z2R0DQ0JI0H1RZJL97BT5KTFW8E2D","hitId":"3IH9TRB0FBLK6RLF7MSMKICTGYN1IU","url":"https://gershmanlab.com/experiments/alicia/teaching/experiment/?hitId=3IH9TRB0FBLK6RLF7MSMKICTGYN1IU&workerId=A13FUEPWBCLBUY&assignmentId=3Z2R0DQ0JI0H1RZJL97BT5KTFW8E2D&a=002Z3&tp_a=002Z3&b=3Z2R0DQ0JI0H1RZJL97BT5KTFW8E2D&tp_b=3Z2R0DQ0JI0H1RZJL97BT5KTFW8E2D&c=365633&tp_c=365633"},{"rt":656,"stimulus":"\n                <p>Student's guess for coin weight: <b style=\"color:Tomato;\">0.69</b></p>\n                <p>You received a bonus of <b>$0</b>. Total bonus so far: <b>$0.10</b></b></p>\n                <p></p>\n                <p>Press any key to continue.</p>\n                ","response":"k","trial_type":"html-keyboard-response","trial_index":85,"time_elapsed":484389,"internal_node_id":"0.0-84.0","params":{"nStudents":24,"maxFlips":25,"completionMinutes":45,"basePay":8,"maxBonus":9,"perTrialBonus":0.5,"perTrialBonusThreshold":0.05,"exampleCost":0.02},"classroomParams":{"A":{"a":1,"b":4},"B":{"a":4,"b":1},"C":{"a":2,"b":8},"D":{"a":8,"b":2}},"conditions":["nonSeqFull","nonSeqP