[{"rt":9993,"stimulus":"Welcome to the experiment. Press any key to begin.","response":" ","trial_type":"html-keyboard-response","trial_index":0,"time_elapsed":9997,"internal_node_id":"0.0-0.0","params":{"nStudents":24,"maxFlips":25,"completionMinutes":45,"basePay":8,"maxBonus":9,"perTrialBonus":0.5,"perTrialBonusThreshold":0.05,"exampleCost":0.02},"classroomParams":{"A":{"a":1,"b":4},"B":{"a":4,"b":1},"C":{"a":2,"b":8},"D":{"a":8,"b":2}},"conditions":["nonSeqFull","nonSeqPartial","seqNoFeedback","seqFeedback"],"classroomPairings":[["A","B"],["C","D"]],"coinWeights":[0.2,0.5,0.8],"subjectId":"A181HHZC94KPZR","assignmentId":"308XBLVESJQ0Y84KQ8KMT5MGORBBRP","hitId":"3IH9TRB0FBLK6RLF7MSMKICTGYN1IU","url":"https://gershmanlab.com/experiments/alicia/teaching/experiment/?hitId=3IH9TRB0FBLK6RLF7MSMKICTGYN1IU&workerId=A181HHZC94KPZR&assignmentId=308XBLVESJQ0Y84KQ8KMT5MGORBBRP&a=EB803&tp_a=EB803&b=308XBLVESJQ0Y84KQ8KMT5MGORBBRP&tp_b=308XBLVESJQ0Y84KQ8KMT5MGORBBRP&c=365633&tp_c=365633"},{"rt":47388,"stimulus":"\n        <h3>Please read this consent agreement carefully before deciding whether to participate in this experiment.</h3>\n        <p><b>Purpose of the research:</b> To examine how people teach effectively.</p>\n        <p><b>What you will do in this research:</b> You will teach students the weights of different coins.</p>\n        <p><b>Time required:</b> This experiment will take 45 minutes to complete.</p>\n        <p><b>Risks:</b> There are no anticipated risks associated with participating in this study.             The effects of participating should be comparable to those you would experience from viewing a computer monitor             and using a mouse and keyboard for the duration of the experiment.</p>\n        <p><b>Benefits:</b> The study provides important information about the nature of teaching.</p>\n        <p><b>Compensation:</b> You will receive <b>$8</b> for completing the experiment and a performance bonus of up to <b>$9</b>.</p>\n        <p><b>Confidentiality:</b> Your participation in this study will remain confidential.             No personally identifiable information will be associated with your data.             Your de-identified data may be shared with other researchers and used in future projects.</p>\n        <p><b>Participation and withdrawal:</b> Your participation in this study is completely voluntary and             you may refuse to participate or you may choose to withdraw at any time without penalty or loss of\n            benefits to which you are otherwise entitled.</p>\n        <p><b>How to contact the researcher:</b> If you have questions or concerns about your participation            or payment, or want to request a summary of research findings, please contact\n            Alicia Chen, aliciachen@college.harvard.edu.</p>\n        <p><b>Whom to contact about your rights in this research:</b> For questions, concerns, suggestions,             or complaints that have not been or cannot be addressed by the researcher, or to report             research-related harm, please contact the Committee on the Use of Human Subjects in Research at Harvard University,             1414 Massachusetts Avenue, Second Floor, Cambridge, MA 02138. Phone: 617-496-2847. Email: cuhs@fas.harvard.edu.</p>\n        ","response":0,"trial_type":"html-button-response","trial_index":1,"time_elapsed":57386,"internal_node_id":"0.0-1.0","params":{"nStudents":24,"maxFlips":25,"completionMinutes":45,"basePay":8,"maxBonus":9,"perTrialBonus":0.5,"perTrialBonusThreshold":0.05,"exampleCost":0.02},"classroomParams":{"A":{"a":1,"b":4},"B":{"a":4,"b":1},"C":{"a":2,"b":8},"D":{"a":8,"b":2}},"conditions":["nonSeqFull","nonSeqPartial","seqNoFeedback","seqFeedback"],"classroomPairings":[["A","B"],["C","D"]],"coinWeights":[0.2,0.5,0.8],"subjectId":"A181HHZC94KPZR","assignmentId":"308XBLVESJQ0Y84KQ8KMT5MGORBBRP","hitId":"3IH9TRB0FBLK6RLF7MSMKICTGYN1IU","url":"https://gershmanlab.com/experiments/alicia/teaching/experiment/?hitId=3IH9TRB0FBLK6RLF7MSMKICTGYN1IU&workerId=A181HHZC94KPZR&assignmentId=308XBLVESJQ0Y84KQ8KMT5MGORBBRP&a=EB803&tp_a=EB803&b=308XBLVESJQ0Y84KQ8KMT5MGORBBRP&tp_b=308XBLVESJQ0Y84KQ8KMT5MGORBBRP&c=365633&tp_c=365633"},{"view_history":[{"page_index":0,"viewing_time":50459},{"page_index":1,"viewing_time":17346},{"page_index":2,"viewing_time":38156},{"page_index":3,"viewing_time":32968},{"page_index":4,"viewing_time":11854},{"page_index":5,"viewing_time":41823},{"page_index":6,"viewing_time":16479}],"rt":209085,"trial_type":"instructions","trial_index":2,"time_elapsed":266472,"internal_node_id":"0.0-2.0-0.0","params":{"nStudents":24,"maxFlips":25,"completionMinutes":45,"basePay":8,"maxBonus":9,"perTrialBonus":0.5,"perTrialBonusThreshold":0.05,"exampleCost":0.02},"classroomParams":{"A":{"a":1,"b":4},"B":{"a":4,"b":1},"C":{"a":2,"b":8},"D":{"a":8,"b":2}},"conditions":["nonSeqFull","nonSeqPartial","seqNoFeedback","seqFeedback"],"classroomPairings":[["A","B"],["C","D"]],"coinWeights":[0.2,0.5,0.8],"subjectId":"A181HHZC94KPZR","assignmentId":"308XBLVESJQ0Y84KQ8KMT5MGORBBRP","hitId":"3IH9TRB0FBLK6RLF7MSMKICTGYN1IU","url":"https://gershmanlab.com/experiments/alicia/teaching/experiment/?hitId=3IH9TRB0FBLK6RLF7MSMKICTGYN1IU&workerId=A181HHZC94KPZR&assignmentId=308XBLVESJQ0Y84KQ8KMT5MGORBBRP&a=EB803&tp_a=EB803&b=308XBLVESJQ0Y84KQ8KMT5MGORBBRP&tp_b=308XBLVESJQ0Y84KQ8KMT5MGORBBRP&c=365633&tp_c=365633"},{"rt":242520,"response":{"Q0":"Students in different classrooms will have seen a different number of heads and tails before seeing the examples you select for them.","Q1":"By <b>considering the student's classroom information</b> so that I can teach efficiently and accurately/helpfully at the same time (because each example I give to the student costs money!).","Q2":"The coin lands heads 90% of the time.","Q3":"No, I will teach a <b>new</b> student each time.","Q4":"The students are also on the same alien planet as you, where coins can be unfair.","Q5":"Based on the student's second (and final) guess."},"question_order":[5,0,2,3,1,4],"trial_type":"survey-multi-choice","trial_index":3,"time_elapsed":508994,"internal_node_id":"0.0-2.0-1.0","params":{"nStudents":24,"maxFlips":25,"completionMinutes":45,"basePay":8,"maxBonus":9,"perTrialBonus":0.5,"perTrialBonusThreshold":0.05,"exampleCost":0.02},"classroomParams":{"A":{"a":1,"b":4},"B":{"a":4,"b":1},"C":{"a":2,"b":8},"D":{"a":8,"b":2}},"conditions":["nonSeqFull","nonSeqPartial","seqNoFeedback","seqFeedback"],"classroomPairings":[["A","B"],["C","D"]],"coinWeights":[0.2,0.5,0.8],"subjectId":"A181HHZC94KPZR","assignmentId":"308XBLVESJQ0Y84KQ8KMT5MGORBBRP","hitId":"3IH9TRB0FBLK6RLF7MSMKICTGYN1IU","url":"https://gershmanlab.com/experiments/alicia/teaching/experiment/?hitId=3IH9TRB0FBLK6RLF7MSMKICTGYN1IU&workerId=A181HHZC94KPZR&assignmentId=308XBLVESJQ0Y84KQ8KMT5MGORBBRP&a=EB803&tp_a=EB803&b=308XBLVESJQ0Y84KQ8KMT5MGORBBRP&tp_b=308XBLVESJQ0Y84KQ8KMT5MGORBBRP&c=365633&tp_c=365633","pass":true},{"rt":null,"stimulus":"<div style=\"font-size:30px;\">Congrats on passing the comprehension quiz! The experiment will begin in a few seconds.</div>","response":null,"trial_type":"html-keyboard-response","trial_index":4,"time_elapsed":512010,"internal_node_id":"0.0-3.0","params":{"nStudents":24,"maxFlips":25,"completionMinutes":45,"basePay":8,"maxBonus":9,"perTrialBonus":0.5,"perTrialBonusThreshold":0.05,"exampleCost":0.02},"classroomParams":{"A":{"a":1,"b":4},"B":{"a":4,"b":1},"C":{"a":2,"b":8},"D":{"a":8,"b":2}},"conditions":["nonSeqFull","nonSeqPartial","seqNoFeedback","seqFeedback"],"classroomPairings":[["A","B"],["C","D"]],"coinWeights":[0.2,0.5,0.8],"subjectId":"A181HHZC94KPZR","assignmentId":"308XBLVESJQ0Y84KQ8KMT5MGORBBRP","hitId":"3IH9TRB0FBLK6RLF7MSMKICTGYN1IU","url":"https://gershmanlab.com/experiments/alicia/teaching/experiment/?hitId=3IH9TRB0FBLK6RLF7MSMKICTGYN1IU&workerId=A181HHZC94KPZR&assignmentId=308XBLVESJQ0Y84KQ8KMT5MGORBBRP&a=EB803&tp_a=EB803&b=308XBLVESJQ0Y84KQ8KMT5MGORBBRP&tp_b=308XBLVESJQ0Y84KQ8KMT5MGORBBRP&c=365633&tp_c=365633"},{"rt":null,"stimulus":"<div style=\"font-size:50px;\">First student</div>","response":null,"trial_type":"html-keyboard-response","trial_index":5,"time_elapsed":515011,"internal_node_id":"0.0-4.0","params":{"nStudents":24,"maxFlips":25,"completionMinutes":45,"basePay":8,"maxBonus":9,"perTrialBonus":0.5,"perTrialBonusThreshold":0.05,"exampleCost":0.02},"classroomParams":{"A":{"a":1,"b":4},"B":{"a":4,"b":1},"C":{"a":2,"b":8},"D":{"a":8,"b":2}},"conditions":["nonSeqFull","nonSeqPartial","seqNoFeedback","seqFeedback"],"classroomPairings":[["A","B"],["C","D"]],"coinWeights":[0.2,0.5,0.8],"subjectId":"A181HHZC94KPZR","assignmentId":"308XBLVESJQ0Y84KQ8KMT5MGORBBRP","hitId":"3IH9TRB0FBLK6RLF7MSMKICTGYN1IU","url":"https://gershmanlab.com/experiments/alicia/teaching/experiment/?hitId=3IH9TRB0FBLK6RLF7MSMKICTGYN1IU&workerId=A181HHZC94KPZR&assignmentId=308XBLVESJQ0Y84KQ8KMT5MGORBBRP&a=EB803&tp_a=EB803&b=308XBLVESJQ0Y84KQ8KMT5MGORBBRP&tp_b=308XBLVESJQ0Y84KQ8KMT5MGORBBRP&c=365633&tp_c=365633"},{"rt":10253,"stimulus":"\n            <h4 style=\"color:Orange;\">Student 1</h4>\n            <h2>The weight of your coin is <b style=\"color:Tomato;\">0.8</b>.</h2>\n            <p>In this block, you will be giving <b>two</b> sets of examples to Student 1.</p>\n                <p>You will receive feedback at the end of the block.</p>\n            <p></p>","response":0,"trial_type":"html-button-response","trial_index":6,"time_elapsed":525266,"internal_node_id":"0.0-5.0","params":{"nStudents":24,"maxFlips":25,"completionMinutes":45,"basePay":8,"maxBonus":9,"perTrialBonus":0.5,"perTrialBonusThreshold":0.05,"exampleCost":0.02},"classroomParams":{"A":{"a":1,"b":4},"B":{"a":4,"b":1},"C":{"a":2,"b":8},"D":{"a":8,"b":2}},"conditions":["nonSeqFull","nonSeqPartial","seqNoFeedback","seqFeedback"],"classroomPairings":[["A","B"],["C","D"]],"coinWeights":[0.2,0.5,0.8],"subjectId":"A181HHZC94KPZR","assignmentId":"308XBLVESJQ0Y84KQ8KMT5MGORBBRP","hitId":"3IH9TRB0FBLK6RLF7MSMKICTGYN1IU","url":"https://gershmanlab.com/experiments/alicia/teaching/experiment/?hitId=3IH9TRB0FBLK6RLF7MSMKICTGYN1IU&workerId=A181HHZC94KPZR&assignmentId=308XBLVESJQ0Y84KQ8KMT5MGORBBRP&a=EB803&tp_a=EB803&b=308XBLVESJQ0Y84KQ8KMT5MGORBBRP&tp_b=308XBLVESJQ0Y84KQ8KMT5MGORBBRP&c=365633&tp_c=365633"},{"rt":114657,"response":{"heads":"13","tails":"12"},"type":"response","condition":"seqNoFeedback","trueTheta":0.8,"classrooms":["A","B"],"studentTrueClassroom":"B","exampleSet":"first","trial_type":"survey-html-form","trial_index":7,"time_elapsed":639924,"internal_node_id":"0.0-6.0-0.0","params":{"nStudents":24,"maxFlips":25,"completionMinutes":45,"basePay":8,"maxBonus":9,"perTrialBonus":0.5,"perTrialBonusThreshold":0.05,"exampleCost":0.02},"classroomParams":{"A":{"a":1,"b":4},"B":{"a":4,"b":1},"C":{"a":2,"b":8},"D":{"a":8,"b":2}},"conditions":["nonSeqFull","nonSeqPartial","seqNoFeedback","seqFeedback"],"classroomPairings":[["A","B"],["C","D"]],"coinWeights":[0.2,0.5,0.8],"subjectId":"A181HHZC94KPZR","assignmentId":"308XBLVESJQ0Y84KQ8KMT5MGORBBRP","hitId":"3IH9TRB0FBLK6RLF7MSMKICTGYN1IU","url":"https://gershmanlab.com/experiments/alicia/teaching/experiment/?hitId=3IH9TRB0FBLK6RLF7MSMKICTGYN1IU&workerId=A181HHZC94KPZR&assignmentId=308XBLVESJQ0Y84KQ8KMT5MGORBBRP&a=EB803&tp_a=EB803&b=308XBLVESJQ0Y84KQ8KMT5MGORBBRP&tp_b=308XBLVESJQ0Y84KQ8KMT5MGORBBRP&c=365633&tp_c=365633","heads":13,"tails":12,"studentIndex":0,"studentTrueHypers":{"a":4,"b":1},"studentGuess":0.5666666666666667,"delta":0.2333333333333334,"totalExamples":25,"bonusSoFar":0},{"rt":null,"stimulus":"Sending examples to student... ","response":null,"trial_type":"html-keyboard-response","trial_index":8,"time_elapsed":641676,"internal_node_id":"0.0-7.0","params":{"nStudents":24,"maxFlips":25,"completionMinutes":45,"basePay":8,"maxBonus":9,"perTrialBonus":0.5,"perTrialBonusThreshold":0.05,"exampleCost":0.02},"classroomParams":{"A":{"a":1,"b":4},"B":{"a":4,"b":1},"C":{"a":2,"b":8},"D":{"a":8,"b":2}},"conditions":["nonSeqFull","nonSeqPartial","seqNoFeedback","seqFeedback"],"classroomPairings":[["A","B"],["C","D"]],"coinWeights":[0.2,0.5,0.8],"subjectId":"A181HHZC94KPZR","assignmentId":"308XBLVESJQ0Y84KQ8KMT5MGORBBRP","hitId":"3IH9TRB0FBLK6RLF7MSMKICTGYN1IU","url":"https://gershmanlab.com/experiments/alicia/teaching/experiment/?hitId=3IH9TRB0FBLK6RLF7MSMKICTGYN1IU&workerId=A181HHZC94KPZR&assignmentId=308XBLVESJQ0Y84KQ8KMT5MGORBBRP&a=EB803&tp_a=EB803&b=308XBLVESJQ0Y84KQ8KMT5MGORBBRP&tp_b=308XBLVESJQ0Y84KQ8KMT5MGORBBRP&c=365633&tp_c=365633"},{"rt":null,"stimulus":"Examples sent to student! Waiting for student...","response":null,"trial_type":"html-keyboard-response","trial_index":9,"time_elapsed":647685,"internal_node_id":"0.0-8.0","params":{"nStudents":24,"maxFlips":25,"completionMinutes":45,"basePay":8,"maxBonus":9,"perTrialBonus":0.5,"perTrialBonusThreshold":0.05,"exampleCost":0.02},"classroomParams":{"A":{"a":1,"b":4},"B":{"a":4,"b":1},"C":{"a":2,"b":8},"D":{"a":8,"b":2}},"conditions":["nonSeqFull","nonSeqPartial","seqNoFeedback","seqFeedback"],"classroomPairings":[["A","B"],["C","D"]],"coinWeights":[0.2,0.5,0.8],"subjectId":"A181HHZC94KPZR","assignmentId":"308XBLVESJQ0Y84KQ8KMT5MGORBBRP","hitId":"3IH9TRB0FBLK6RLF7MSMKICTGYN1IU","url":"https://gershmanlab.com/experiments/alicia/teaching/experiment/?hitId=3IH9TRB0FBLK6RLF7MSMKICTGYN1IU&workerId=A181HHZC94KPZR&assignmentId=308XBLVESJQ0Y84KQ8KMT5MGORBBRP&a=EB803&tp_a=EB803&b=308XBLVESJQ0Y84KQ8KMT5MGORBBRP&tp_b=308XBLVESJQ0Y84KQ8KMT5MGORBBRP&c=365633&tp_c=365633"},{"rt":144747,"response":{"heads":"20","tails":"5"},"type":"response","condition":"seqNoFeedback","trueTheta":0.8,"classrooms":["A","B"],"studentTrueClassroom":"B","exampleSet":"second","trial_type":"survey-html-form","trial_index":10,"time_elapsed":792433,"internal_node_id":"0.0-9.0-0.0","params":{"nStudents":24,"maxFlips":25,"completionMinutes":45,"basePay":8,"maxBonus":9,"perTrialBonus":0.5,"perTrialBonusThreshold":0.05,"exampleCost":0.02},"classroomParams":{"A":{"a":1,"b":4},"B":{"a":4,"b":1},"C":{"a":2,"b":8},"D":{"a":8,"b":2}},"conditions":["nonSeqFull","nonSeqPartial","seqNoFeedback","seqFeedback"],"classroomPairings":[["A","B"],["C","D"]],"coinWeights":[0.2,0.5,0.8],"subjectId":"A181HHZC94KPZR","assignmentId":"308XBLVESJQ0Y84KQ8KMT5MGORBBRP","hitId":"3IH9TRB0FBLK6RLF7MSMKICTGYN1IU","url":"https://gershmanlab.com/experiments/alicia/teaching/experiment/?hitId=3IH9TRB0FBLK6RLF7MSMKICTGYN1IU&workerId=A181HHZC94KPZR&assignmentId=308XBLVESJQ0Y84KQ8KMT5MGORBBRP&a=EB803&tp_a=EB803&b=308XBLVESJQ0Y84KQ8KMT5MGORBBRP&tp_b=308XBLVESJQ0Y84KQ8KMT5MGORBBRP&c=365633&tp_c=365633","firstResponseHeads":13,"firstResponseTails":12,"secondResponseHeads":20,"secondResponseTails":5,"totalHeads":33,"totalTails":17,"studentIndex":0,"studentTrueHypers":{"a":4,"b":1},"studentGuess":0.6727272727272727,"delta":0.12727272727272732,"bonus":0,"bonusSoFar":0,"totalExamples":50},{"rt":null,"stimulus":"Sending examples to student... ","response":null,"trial_type":"html-keyboard-response","trial_index":11,"time_elapsed":793684,"internal_node_id":"0.0-10.0","params":{"nStudents":24,"maxFlips":25,"completionMinutes":45,"basePay":8,"maxBonus":9,"perTrialBonus":0.5,"perTrialBonusThreshold":0.05,"exampleCost":0.02},"classroomParams":{"A":{"a":1,"b":4},"B":{"a":4,"b":1},"C":{"a":2,"b":8},"D":{"a":8,"b":2}},"conditions":["nonSeqFull","nonSeqPartial","seqNoFeedback","seqFeedback"],"classroomPairings":[["A","B"],["C","D"]],"coinWeights":[0.2,0.5,0.8],"subjectId":"A181HHZC94KPZR","assignmentId":"308XBLVESJQ0Y84KQ8KMT5MGORBBRP","hitId":"3IH9TRB0FBLK6RLF7MSMKICTGYN1IU","url":"https://gershmanlab.com/experiments/alicia/teaching/experiment/?hitId=3IH9TRB0FBLK6RLF7MSMKICTGYN1IU&workerId=A181HHZC94KPZR&assignmentId=308XBLVESJQ0Y84KQ8KMT5MGORBBRP&a=EB803&tp_a=EB803&b=308XBLVESJQ0Y84KQ8KMT5MGORBBRP&tp_b=308XBLVESJQ0Y84KQ8KMT5MGORBBRP&c=365633&tp_c=365633"},{"rt":null,"stimulus":"Examples sent to student! Waiting for student...","response":null,"trial_type":"html-keyboard-response","trial_index":12,"time_elapsed":799191,"internal_node_id":"0.0-11.0","params":{"nStudents":24,"maxFlips":25,"completionMinutes":45,"basePay":8,"maxBonus":9,"perTrialBonus":0.5,"perTrialBonusThreshold":0.05,"exampleCost":0.02},"classroomParams":{"A":{"a":1,"b":4},"B":{"a":4,"b":1},"C":{"a":2,"b":8},"D":{"a":8,"b":2}},"conditions":["nonSeqFull","nonSeqPartial","seqNoFeedback","seqFeedback"],"classroomPairings":[["A","B"],["C","D"]],"coinWeights":[0.2,0.5,0.8],"subjectId":"A181HHZC94KPZR","assignmentId":"308XBLVESJQ0Y84KQ8KMT5MGORBBRP","hitId":"3IH9TRB0FBLK6RLF7MSMKICTGYN1IU","url":"https://gershmanlab.com/experiments/alicia/teaching/experiment/?hitId=3IH9TRB0FBLK6RLF7MSMKICTGYN1IU&workerId=A181HHZC94KPZR&assignmentId=308XBLVESJQ0Y84KQ8KMT5MGORBBRP&a=EB803&tp_a=EB803&b=308XBLVESJQ0Y84KQ8KMT5MGORBBRP&tp_b=308XBLVESJQ0Y84KQ8KMT5MGORBBRP&c=365633&tp_c=365633"},{"rt":null,"stimulus":"\n                <p>Student 1's first guess for coin weight: <b style=\"color:Tomato\";>0.57</b></p>\n                <p>Student 1's second guess for coin weight: <b style=\"color:Tomato\";>0.67</b></p>\n                <p>You received a bonus of <b>$0.00</b> based on the student's second guess.</p>\n                <p>Total bonus so far: <b>$0.00</b></p>\n                <p>Press any key to continue.</p>\n                ","response":null,"trial_type":"html-keyboard-response","trial_index":13,"time_elapsed":829207,"internal_node_id":"0.0-12.0","params":{"nStudents":24,"maxFlips":25,"completionMinutes":45,"basePay":8,"maxBonus":9,"perTrialBonus":0.5,"perTrialBonusThreshold":0.05,"exampleCost":0.02},"classroomParams":{"A":{"a":1,"b":4},"B":{"a":4,"b":1},"C":{"a":2,"b":8},"D":{"a":8,"b":2}},"conditions":["nonSeqFull","nonSeqPartial","seqNoFeedback","seqFeedback"],"classroomPairings":[["A","B"],["C","D"]],"coinWeights":[0.2,0.5,0.8],"subjectId":"A181HHZC94KPZR","assignmentId":"308XBLVESJQ0Y84KQ8KMT5MGORBBRP","hitId":"3IH9TRB0FBLK6RLF7MSMKICTGYN1IU","url":"https://gershmanlab.com/experiments/alicia/teaching/experiment/?hitId=3IH9TRB0FBLK6RLF7MSMKICTGYN1IU&workerId=A181HHZC94KPZR&assignmentId=308XBLVESJQ0Y84KQ8KMT5MGORBBRP&a=EB803&tp_a=EB803&b=308XBLVESJQ0Y84KQ8KMT5MGORBBRP&tp_b=308XBLVESJQ0Y84KQ8KMT5MGORBBRP&c=365633&tp_c=365633"},{"rt":null,"stimulus":"<div style=\"font-size:60px;\">Next student</div>","response":null,"trial_type":"html-keyboard-response","trial_index":14,"time_elapsed":831221,"internal_node_id":"0.0-13.0-0.0","params":{"nStudents":24,"maxFlips":25,"completionMinutes":45,"basePay":8,"maxBonus":9,"perTrialBonus":0.5,"perTrialBonusThreshold":0.05,"exampleCost":0.02},"classroomParams":{"A":{"a":1,"b":4},"B":{"a":4,"b":1},"C":{"a":2,"b":8},"D":{"a":8,"b":2}},"conditions":["nonSeqFull","nonSeqPartial","seqNoFeedback","seqFeedback"],"classroomPairings":[["A","B"],["C","D"]],"coinWeights":[0.2,0.5,0.8],"subjectId":"A181HHZC94KPZR","assignmentId":"308XBLVESJQ0Y84KQ8KMT5MGORBBRP","hitId":"3IH9TRB0FBLK6RLF7MSMKICTGYN1IU","url":"https://gershmanlab.com/experiments/alicia/teaching/experiment/?hitId=3IH9TRB0FBLK6RLF7MSMKICTGYN1IU&workerId=A181HHZC94KPZR&assignmentId=308XBLVESJQ0Y84KQ8KMT5MGORBBRP&a=EB803&tp_a=EB803&b=308XBLVESJQ0Y84KQ8KMT5MGORBBRP&tp_b=308XBLVESJQ0Y84KQ8KMT5MGORBBRP&c=365633&tp_c=365633"},{"rt":17945,"stimulus":"\n            <h4 style=\"color:Orange;\">Student 2</h4>\n            <h2>The weight of your coin is <b style=\"color:Tomato;\">0.2</b>.</h2>\n            <p>In this block, you will be giving <b>two</b> sets of examples to Student 2.</p>\n                <p>You will receive feedback at the end of the block.</p>\n            <p></p>","response":0,"trial_type":"html-button-response","trial_index":15,"time_elapsed":849166,"internal_node_id":"0.0-14.0","params":{"nStudents":24,"maxFlips":25,"completionMinutes":45,"basePay":8,"maxBonus":9,"perTrialBonus":0.5,"perTrialBonusThreshold":0.05,"exampleCost":0.02},"classroomParams":{"A":{"a":1,"b":4},"B":{"a":4,"b":1},"C":{"a":2,"b":8},"D":{"a":8,"b":2}},"conditions":["nonSeqFull","nonSeqPartial","seqNoFeedback","seqFeedback"],"classroomPairings":[["A","B"],["C","D"]],"coinWeights":[0.2,0.5,0.8],"subjectId":"A181HHZC94KPZR","assignmentId":"308XBLVESJQ0Y84KQ8KMT5MGORBBRP","hitId":"3IH9TRB0FBLK6RLF7MSMKICTGYN1IU","url":"https://gershmanlab.com/experiments/alicia/teaching/experiment/?hitId=3IH9TRB0FBLK6RLF7MSMKICTGYN1IU&workerId=A181HHZC94KPZR&assignmentId=308XBLVESJQ0Y84KQ8KMT5MGORBBRP&a=EB803&tp_a=EB803&b=308XBLVESJQ0Y84KQ8KMT5MGORBBRP&tp_b=308XBLVESJQ0Y84KQ8KMT5MGORBBRP&c=365633&tp_c=365633"},{"rt":21657,"response":{"heads":"5","tails":"20"},"type":"response","condition":"seqNoFeedback","trueTheta":0.2,"classrooms":["C","D"],"studentTrueClassroom":"C","exampleSet":"first","trial_type":"survey-html-form","trial_index":16,"time_elapsed":870823,"internal_node_id":"0.0-15.0-0.0","params":{"nStudents":24,"maxFlips":25,"completionMinutes":45,"basePay":8,"maxBonus":9,"perTrialBonus":0.5,"perTrialBonusThreshold":0.05,"exampleCost":0.02},"classroomParams":{"A":{"a":1,"b":4},"B":{"a":4,"b":1},"C":{"a":2,"b":8},"D":{"a":8,"b":2}},"conditions":["nonSeqFull","nonSeqPartial","seqNoFeedback","seqFeedback"],"classroomPairings":[["A","B"],["C","D"]],"coinWeights":[0.2,0.5,0.8],"subjectId":"A181HHZC94KPZR","assignmentId":"308XBLVESJQ0Y84KQ8KMT5MGORBBRP","hitId":"3IH9TRB0FBLK6RLF7MSMKICTGYN1IU","url":"https://gershmanlab.com/experiments/alicia/teaching/experiment/?hitId=3IH9TRB0FBLK6RLF7MSMKICTGYN1IU&workerId=A181HHZC94KPZR&assignmentId=308XBLVESJQ0Y84KQ8KMT5MGORBBRP&a=EB803&tp_a=EB803&b=308XBLVESJQ0Y84KQ8KMT5MGORBBRP&tp_b=308XBLVESJQ0Y84KQ8KMT5MGORBBRP&c=365633&tp_c=365633","heads":5,"tails":20,"studentIndex":1,"studentTrueHypers":{"a":2,"b":8},"studentGuess":0.2,"delta":0,"totalExamples":25,"bonusSoFar":0},{"rt":null,"stimulus":"Sending examples to student... ","response":null,"trial_type":"html-keyboard-response","trial_index":17,"time_elapsed":872328,"internal_node_id":"0.0-16.0","params":{"nStudents":24,"maxFlips":25,"completionMinutes":45,"basePay":8,"maxBonus":9,"perTrialBonus":0.5,"perTrialBonusThreshold":0.05,"exampleCost":0.02},"classroomParams":{"A":{"a":1,"b":4},"B":{"a":4,"b":1},"C":{"a":2,"b":8},"D":{"a":8,"b":2}},"conditions":["nonSeqFull","nonSeqPartial","seqNoFeedback","seqFeedback"],"classroomPairings":[["A","B"],["C","D"]],"coinWeights":[0.2,0.5,0.8],"subjectId":"A181HHZC94KPZR","assignmentId":"308XBLVESJQ0Y84KQ8KMT5MGORBBRP","hitId":"3IH9TRB0FBLK6RLF7MSMKICTGYN1IU","url":"https://gershmanlab.com/experiments/alicia/teaching/experiment/?hitId=3IH9TRB0FBLK6RLF7MSMKICTGYN1IU&workerId=A181HHZC94KPZR&assignmentId=308XBLVESJQ0Y84KQ8KMT5MGORBBRP&a=EB803&tp_a=EB803&b=308XBLVESJQ0Y84KQ8KMT5MGORBBRP&tp_b=308XBLVESJQ0Y84KQ8KMT5MGORBBRP&c=365633&tp_c=365633"},{"rt":null,"stimulus":"Examples sent to student! Waiting for student...","response":null,"trial_type":"html-keyboard-response","trial_index":18,"time_elapsed":878340,"internal_node_id":"0.0-17.0","params":{"nStudents":24,"maxFlips":25,"completionMinutes":45,"basePay":8,"maxBonus":9,"perTrialBonus":0.5,"perTrialBonusThreshold":0.05,"exampleCost":0.02},"classroomParams":{"A":{"a":1,"b":4},"B":{"a":4,"b":1},"C":{"a":2,"b":8},"D":{"a":8,"b":2}},"conditions":["nonSeqFull","nonSeqPartial","seqNoFeedback","seqFeedback"],"classroomPairings":[["A","B"],["C","D"]],"coinWeights":[0.2,0.5,0.8],"subjectId":"A181HHZC94KPZR","assignmentId":"308XBLVESJQ0Y84KQ8KMT5MGORBBRP","hitId":"3IH9TRB0FBLK6RLF7MSMKICTGYN1IU","url":"https://gershmanlab.com/experiments/alicia/teaching/experiment/?hitId=3IH9TRB0FBLK6RLF7MSMKICTGYN1IU&workerId=A181HHZC94KPZR&assignmentId=308XBLVESJQ0Y84KQ8KMT5MGORBBRP&a=EB803&tp_a=EB803&b=308XBLVESJQ0Y84KQ8KMT5MGORBBRP&tp_b=308XBLVESJQ0Y84KQ8KMT5MGORBBRP&c=365633&tp_c=365633"},{"rt":11009,"response":{"heads":"5","tails":"20"},"type":"response","condition":"seqNoFeedback","trueTheta":0.2,"classrooms":["C","D"],"studentTrueClassroom":"C","exampleSet":"second","trial_type":"survey-html-form","trial_index":19,"time_elapsed":889350,"internal_node_id":"0.0-18.0-0.0","params":{"nStudents":24,"maxFlips":25,"completionMinutes":45,"basePay":8,"maxBonus":9,"perTrialBonus":0.5,"perTrialBonusThreshold":0.05,"exampleCost":0.02},"classroomParams":{"A":{"a":1,"b":4},"B":{"a":4,"b":1},"C":{"a":2,"b":8},"D":{"a":8,"b":2}},"conditions":["nonSeqFull","nonSeqPartial","seqNoFeedback","seqFeedback"],"classroomPairings":[["A","B"],["C","D"]],"coinWeights":[0.2,0.5,0.8],"subjectId":"A181HHZC94KPZR","assignmentId":"308XBLVESJQ0Y84KQ8KMT5MGORBBRP","hitId":"3IH9TRB0FBLK6RLF7MSMKICTGYN1IU","url":"https://gershmanlab.com/experiments/alicia/teaching/experiment/?hitId=3IH9TRB0FBLK6RLF7MSMKICTGYN1IU&workerId=A181HHZC94KPZR&assignmentId=308XBLVESJQ0Y84KQ8KMT5MGORBBRP&a=EB803&tp_a=EB803&b=308XBLVESJQ0Y84KQ8KMT5MGORBBRP&tp_b=308XBLVESJQ0Y84KQ8KMT5MGORBBRP&c=365633&tp_c=365633","firstResponseHeads":5,"firstResponseTails":20,"secondResponseHeads":5,"secondResponseTails":20,"totalHeads":10,"totalTails":40,"studentIndex":1,"studentTrueHypers":{"a":2,"b":8},"studentGuess":0.2,"delta":0,"bonus":0,"bonusSoFar":0,"totalExamples":50},{"rt":null,"stimulus":"Sending examples to student... ","response":null,"trial_type":"html-keyboard-response","trial_index":20,"time_elapsed":891108,"internal_node_id":"0.0-19.0","params":{"nStudents":24,"maxFlips":25,"completionMinutes":45,"basePay":8,"maxBonus":9,"perTrialBonus":0.5,"perTrialBonusThreshold":0.05,"exampleCost":0.02},"classroomParams":{"A":{"a":1,"b":4},"B":{"a":4,"b":1},"C":{"a":2,"b":8},"D":{"a":8,"b":2}},"conditions":["nonSeqFull","nonSeqPartial","seqNoFeedback","seqFeedback"],"classroomPairings":[["A","B"],["C","D"]],"coinWeights":[0.2,0.5,0.8],"subjectId":"A181HHZC94KPZR","assignmentId":"308XBLVESJQ0Y84KQ8KMT5MGORBBRP","hitId":"3IH9TRB0FBLK6RLF7MSMKICTGYN1IU","url":"https://gershmanlab.com/experiments/alicia/teaching/experiment/?hitId=3IH9TRB0FBLK6RLF7MSMKICTGYN1IU&workerId=A181HHZC94KPZR&assignmentId=308XBLVESJQ0Y84KQ8KMT5MGORBBRP&a=EB803&tp_a=EB803&b=308XBLVESJQ0Y84KQ8KMT5MGORBBRP&tp_b=308XBLVESJQ0Y84KQ8KMT5MGORBBRP&c=365633&tp_c=365633"},{"rt":null,"stimulus":"Examples sent to student! Waiting for student...","response":null,"trial_type":"html-keyboard-response","trial_index":21,"time_elapsed":897115,"internal_node_id":"0.0-20.0","params":{"nStudents":24,"maxFlips":25,"completionMinutes":45,"basePay":8,"maxBonus":9,"perTrialBonus":0.5,"perTrialBonusThreshold":0.05,"exampleCost":0.02},"classroomParams":{"A":{"a":1,"b":4},"B":{"a":4,"b":1},"C":{"a":2,"b":8},"D":{"a":8,"b":2}},"conditions":["nonSeqFull","nonSeqPartial","seqNoFeedback","seqFeedback"],"classroomPairings":[["A","B"],["C","D"]],"coinWeights":[0.2,0.5,0.8],"subjectId":"A181HHZC94KPZR","assignmentId":"308XBLVESJQ0Y84KQ8KMT5MGORBBRP","hitId":"3IH9TRB0FBLK6RLF7MSMKICTGYN1IU","url":"https://gershmanlab.com/experiments/alicia/teaching/experiment/?hitId=3IH9TRB0FBLK6RLF7MSMKICTGYN1IU&workerId=A181HHZC94KPZR&assignmentId=308XBLVESJQ0Y84KQ8KMT5MGORBBRP&a=EB803&tp_a=EB803&b=308XBLVESJQ0Y84KQ8KMT5MGORBBRP&tp_b=308XBLVESJQ0Y84KQ8KMT5MGORBBRP&c=365633&tp_c=365633"},{"rt":null,"stimulus":"\n                <p>Student 2's first guess for coin weight: <b style=\"color:Tomato\";>0.20</b></p>\n                <p>Student 2's second guess for coin weight: <b style=\"color:Tomato\";>0.20</b></p>\n                <p>You received a bonus of <b>$0.00</b> based on the student's second guess.</p>\n                <p>Total bonus so far: <b>$0.00</b></p>\n                <p>Press any key to continue.</p>\n                ","response":null,"trial_type":"html-keyboard-response","trial_index":22,"time_elapsed":927123,"internal_node_id":"0.0-21.0","params":{"nStudents":24,"maxFlips":25,"completionMinutes":45,"basePay":8,"maxBonus":9,"perTrialBonus":0.5,"perTrialBonusThreshold":0.05,"exampleCost":0.02},"classroomParams":{"A":{"a":1,"b":4},"B":{"a":4,"b":1},"C":{"a":2,"b":8},"D":{"a":8,"b":2}},"conditions":["nonSeqFull","nonSeqPartial","seqNoFeedback","seqFeedback"],"classroomPairings":[["A","B"],["C","D"]],"coinWeights":[0.2,0.5,0.8],"subjectId":"A181HHZC94KPZR","assignmentId":"308XBLVESJQ0Y84KQ8KMT5MGORBBRP","hitId":"3IH9TRB0FBLK6RLF7MSMKICTGYN1IU","url":"https://gershmanlab.com/experiments/alicia/teaching/experiment/?hitId=3IH9TRB0FBLK6RLF7MSMKICTGYN1IU&workerId=A181HHZC94KPZR&assignmentId=308XBLVESJQ0Y84KQ8KMT5MGORBBRP&a=EB803&tp_a=EB803&b=308XBLVESJQ0Y84KQ8KMT5MGORBBRP&tp_b=308XBLVESJQ0Y84KQ8KMT5MGORBBRP&c=365633&tp_c=365633"},{"rt":null,"stimulus":"<div style=\"font-size:60px;\">Next student</div>","response":null,"trial_type":"html-keyboard-response","trial_index":23,"time_elapsed":929385,"internal_node_id":"0.0-22.0-0.0","params":{"nStudents":24,"maxFlips":25,"completionMinutes":45,"basePay":8,"maxBonus":9,"perTrialBonus":0.5,"perTrialBonusThreshold":0.05,"exampleCost":0.02},"classroomParams":{"A":{"a":1,"b":4},"B":{"a":4,"b":1},"C":{"a":2,"b":8},"D":{"a":8,"b":2}},"conditions":["nonSeqFull","nonSeqPartial","seqNoFeedback","seqFeedback"],"classroomPairings":[["A","B"],["C","D"]],"coinWeights":[0.2,0.5,0.8],"subjectId":"A181HHZC94KPZR","assignmentId":"308XBLVESJQ0Y84KQ8KMT5MGORBBRP","hitId":"3IH9TRB0FBLK6RLF7MSMKICTGYN1IU","url":"https://gershmanlab.com/experiments/alicia/teaching/experiment/?hitId=3IH9TRB0FBLK6RLF7MSMKICTGYN1IU&workerId=A181HHZC94KPZR&assignmentId=308XBLVESJQ0Y84KQ8KMT5MGORBBRP&a=EB803&tp_a=EB803&b=308XBLVESJQ0Y84KQ8KMT5MGORBBRP&tp_b=308XBLVESJQ0Y84KQ8KMT5MGORBBRP&c=365633&tp_c=365633"},{"rt":32991,"stimulus":"\n            <h4 style=\"color:Orange;\">Student 3</h4>\n            <h2>The weight of your coin is <b style=\"color:Tomato;\">0.5</b>.</h2>\n            <p>In this block, you will be giving <b>two</b> sets of examples to Student 3.</p>\n                <p>You will see the student's guess after the first set of examples. You will also receive feedback at the end of the block.</p>\n            <p>To earn the highest bonus, you will have to <b>take into consideration the student's guess</b> when you choose your second set of examples.</p>","response":0,"trial_type":"html-button-response","trial_index":24,"time_elapsed":962376,"internal_node_id":"0.0-23.0","params":{"nStudents":24,"maxFlips":25,"completionMinutes":45,"basePay":8,"maxBonus":9,"perTrialBonus":0.5,"perTrialBonusThreshold":0.05,"exampleCost":0.02},"classroomParams":{"A":{"a":1,"b":4},"B":{"a":4,"b":1},"C":{"a":2,"b":8},"D":{"a":8,"b":2}},"conditions":["nonSeqFull","nonSeqPartial","seqNoFeedback","seqFeedback"],"classroomPairings":[["A","B"],["C","D"]],"coinWeights":[0.2,0.5,0.8],"subjectId":"A181HHZC94KPZR","assignmentId":"308XBLVESJQ0Y84KQ8KMT5MGORBBRP","hitId":"3IH9TRB0FBLK6RLF7MSMKICTGYN1IU","url":"https://gershmanlab.com/experiments/alicia/teaching/experiment/?hitId=3IH9TRB0FBLK6RLF7MSMKICTGYN1IU&workerId=A181HHZC94KPZR&assignmentId=308XBLVESJQ0Y84KQ8KMT5MGORBBRP&a=EB803&tp_a=EB803&b=308XBLVESJQ0Y84KQ8KMT5MGORBBRP&tp_b=308XBLVESJQ0Y84KQ8KMT5MGORBBRP&c=365633&tp_c=365633"},{"rt":8172,"response":{"heads":"13","tails":"12"},"type":"response","condition":"seqFeedback","trueTheta":0.5,"classrooms":["A","B"],"studentTrueClassroom":"A","exampleSet":"first","trial_type":"survey-html-form","trial_index":25,"time_elapsed":970549,"internal_node_id":"0.0-24.0-0.0","params":{"nStudents":24,"maxFlips":25,"completionMinutes":45,"basePay":8,"maxBonus":9,"perTrialBonus":0.5,"perTrialBonusThreshold":0.05,"exampleCost":0.02},"classroomParams":{"A":{"a":1,"b":4},"B":{"a":4,"b":1},"C":{"a":2,"b":8},"D":{"a":8,"b":2}},"conditions":["nonSeqFull","nonSeqPartial","seqNoFeedback","seqFeedback"],"classroomPairings":[["A","B"],["C","D"]],"coinWeights":[0.2,0.5,0.8],"subjectId":"A181HHZC94KPZR","assignmentId":"308XBLVESJQ0Y84KQ8KMT5MGORBBRP","hitId":"3IH9TRB0FBLK6RLF7MSMKICTGYN1IU","url":"https://gershmanlab.com/experiments/alicia/teaching/experiment/?hitId=3IH9TRB0FBLK6RLF7MSMKICTGYN1IU&workerId=A181HHZC94KPZR&assignmentId=308XBLVESJQ0Y84KQ8KMT5MGORBBRP&a=EB803&tp_a=EB803&b=308XBLVESJQ0Y84KQ8KMT5MGORBBRP&tp_b=308XBLVESJQ0Y84KQ8KMT5MGORBBRP&c=365633&tp_c=365633","heads":13,"tails":12,"studentIndex":2,"studentTrueHypers":{"a":1,"b":4},"studentGuess":0.4666666666666667,"delta":0.033333333333333326,"totalExamples":25,"bonusSoFar":0},{"rt":null,"stimulus":"Sending examples to student... ","response":null,"trial_type":"html-keyboard-response","trial_index":26,"time_elapsed":971800,"internal_node_id":"0.0-25.0","params":{"nStudents":24,"maxFlips":25,"completionMinutes":45,"basePay":8,"maxBonus":9,"perTrialBonus":0.5,"perTrialBonusThreshold":0.05,"exampleCost":0.02},"classroomParams":{"A":{"a":1,"b":4},"B":{"a":4,"b":1},"C":{"a":2,"b":8},"D":{"a":8,"b":2}},"conditions":["nonSeqFull","nonSeqPartial","seqNoFeedback","seqFeedback"],"classroomPairings":[["A","B"],["C","D"]],"coinWeights":[0.2,0.5,0.8],"subjectId":"A181HHZC94KPZR","assignmentId":"308XBLVESJQ0Y84KQ8KMT5MGORBBRP","hitId":"3IH9TRB0FBLK6RLF7MSMKICTGYN1IU","url":"https://gershmanlab.com/experiments/alicia/teaching/experiment/?hitId=3IH9TRB0FBLK6RLF7MSMKICTGYN1IU&workerId=A181HHZC94KPZR&assignmentId=308XBLVESJQ0Y84KQ8KMT5MGORBBRP&a=EB803&tp_a=EB803&b=308XBLVESJQ0Y84KQ8KMT5MGORBBRP&tp_b=308XBLVESJQ0Y84KQ8KMT5MGORBBRP&c=365633&tp_c=365633"},{"rt":null,"stimulus":"Examples sent to student! Waiting for student...","response":null,"trial_type":"html-keyboard-response","trial_index":27,"time_elapsed":976815,"internal_node_id":"0.0-26.0","params":{"nStudents":24,"maxFlips":25,"completionMinutes":45,"basePay":8,"maxBonus":9,"perTrialBonus":0.5,"perTrialBonusThreshold":0.05,"exampleCost":0.02},"classroomParams":{"A":{"a":1,"b":4},"B":{"a":4,"b":1},"C":{"a":2,"b":8},"D":{"a":8,"b":2}},"conditions":["nonSeqFull","nonSeqPartial","seqNoFeedback","seqFeedback"],"classroomPairings":[["A","B"],["C","D"]],"coinWeights":[0.2,0.5,0.8],"subjectId":"A181HHZC94KPZR","assignmentId":"308XBLVESJQ0Y84KQ8KMT5MGORBBRP","hitId":"3IH9TRB0FBLK6RLF7MSMKICTGYN1IU","url":"https://gershmanlab.com/experiments/alicia/teaching/experiment/?hitId=3IH9TRB0FBLK6RLF7MSMKICTGYN1IU&workerId=A181HHZC94KPZR&assignmentId=308XBLVESJQ0Y84KQ8KMT5MGORBBRP&a=EB803&tp_a=EB803&b=308XBLVESJQ0Y84KQ8KMT5MGORBBRP&tp_b=308XBLVESJQ0Y84KQ8KMT5MGORBBRP&c=365633&tp_c=365633"},{"rt":4499,"stimulus":"\n                <p>Student's guess for coin weight: <b style=\"color:Tomato;\">0.47</b></p>\n                <p></b></p>\n                <p>You will now send another set of examples to your student. <b>Remember to take your student's guess into consideration so that you can earn the highest bonus possible!</b> </p>\n                <p>Press any key to continue.</p>\n                ","response":" ","trial_type":"html-keyboard-response","trial_index":28,"time_elapsed":981315,"internal_node_id":"0.0-27.0","params":{"nStudents":24,"maxFlips":25,"completionMinutes":45,"basePay":8,"maxBonus":9,"perTrialBonus":0.5,"perTrialBonusThreshold":0.05,"exampleCost":0.02},"classroomParams":{"A":{"a":1,"b":4},"B":{"a":4,"b":1},"C":{"a":2,"b":8},"D":{"a":8,"b":2}},"conditions":["nonSeqFull","nonSeqPartial","seqNoFeedback","seqFeedback"],"classroomPairings":[["A","B"],["C","D"]],"coinWeights":[0.2,0.5,0.8],"subjectId":"A181HHZC94KPZR","assignmentId":"308XBLVESJQ0Y84KQ8KMT5MGORBBRP","hitId":"3IH9TRB0FBLK6RLF7MSMKICTGYN1IU","url":"https://gershmanlab.com/experiments/alicia/teaching/experiment/?hitId=3IH9TRB0FBLK6RLF7MSMKICTGYN1IU&workerId=A181HHZC94KPZR&assignmentId=308XBLVESJQ0Y84KQ8KMT5MGORBBRP&a=EB803&tp_a=EB803&b=308XBLVESJQ0Y84KQ8KMT5MGORBBRP&tp_b=308XBLVESJQ0Y84KQ8KMT5MGORBBRP&c=365633&tp_c=365633"},{"rt":18469,"response":{"heads":"25","tails":"0"},"type":"response","condition":"seqFeedback","trueTheta":0.5,"classrooms":["A","B"],"studentTrueClassroom":"A","exampleSet":"second","trial_type":"survey-html-form","trial_index":29,"time_elapsed":999785,"internal_node_id":"0.0-28.0-0.0","params":{"nStudents":24,"maxFlips":25,"completionMinutes":45,"basePay":8,"maxBonus":9,"perTrialBonus":0.5,"perTrialBonusThreshold":0.05,"exampleCost":0.02},"classroomParams":{"A":{"a":1,"b":4},"B":{"a":4,"b":1},"C":{"a":2,"b":8},"D":{"a":8,"b":2}},"conditions":["nonSeqFull","nonSeqPartial","seqNoFeedback","seqFeedback"],"classroomPairings":[["A","B"],["C","D"]],"coinWeights":[0.2,0.5,0.8],"subjectId":"A181HHZC94KPZR","assignmentId":"308XBLVESJQ0Y84KQ8KMT5MGORBBRP","hitId":"3IH9TRB0FBLK6RLF7MSMKICTGYN1IU","url":"https://gershmanlab.com/experiments/alicia/teaching/experiment/?hitId=3IH9TRB0FBLK6RLF7MSMKICTGYN1IU&workerId=A181HHZC94KPZR&assignmentId=308XBLVESJQ0Y84KQ8KMT5MGORBBRP&a=EB803&tp_a=EB803&b=308XBLVESJQ0Y84KQ8KMT5MGORBBRP&tp_b=308XBLVESJQ0Y84KQ8KMT5MGORBBRP&c=365633&tp_c=365633","firstResponseHeads":13,"firstResponseTails":12,"secondResponseHeads":25,"secondResponseTails":0,"totalHeads":38,"totalTails":12,"studentIndex":2,"studentTrueHypers":{"a":1,"b":4},"studentGuess":0.7090909090909091,"delta":0.2090909090909091,"bonus":0,"bonusSoFar":0,"totalExamples":50},{"rt":null,"stimulus":"Sending examples to student... ","response":null,"trial_type":"html-keyboard-response","trial_index":30,"time_elapsed":1001541,"internal_node_id":"0.0-29.0","params":{"nStudents":24,"maxFlips":25,"completionMinutes":45,"basePay":8,"maxBonus":9,"perTrialBonus":0.5,"perTrialBonusThreshold":0.05,"exampleCost":0.02},"classroomParams":{"A":{"a":1,"b":4},"B":{"a":4,"b":1},"C":{"a":2,"b":8},"D":{"a":8,"b":2}},"conditions":["nonSeqFull","nonSeqPartial","seqNoFeedback","seqFeedback"],"classroomPairings":[["A","B"],["C","D"]],"coinWeights":[0.2,0.5,0.8],"subjectId":"A181HHZC94KPZR","assignmentId":"308XBLVESJQ0Y84KQ8KMT5MGORBBRP","hitId":"3IH9TRB0FBLK6RLF7MSMKICTGYN1IU","url":"https://gershmanlab.com/experiments/alicia/teaching/experiment/?hitId=3IH9TRB0FBLK6RLF7MSMKICTGYN1IU&workerId=A181HHZC94KPZR&assignmentId=308XBLVESJQ0Y84KQ8KMT5MGORBBRP&a=EB803&tp_a=EB803&b=308XBLVESJQ0Y84KQ8KMT5MGORBBRP&tp_b=308XBLVESJQ0Y84KQ8KMT5MGORBBRP&c=365633&tp_c=365633"},{"rt":null,"stimulus":"Examples sent to student! Waiting for student...","response":null,"trial_type":"html-keyboard-response","trial_index":31,"time_elapsed":1006049,"internal_node_id":"0.0-30.0","params":{"nStudents":24,"maxFlips":25,"completionMinutes":45,"basePay":8,"maxBonus":9,"perTrialBonus":0.5,"perTrialBonusThreshold":0.05,"exampleCost":0.02},"classroomParams":{"A":{"a":1,"b":4},"B":{"a":4,"b":1},"C":{"a":2,"b":8},"D":{"a":8,"b":2}},"conditions":["nonSeqFull","nonSeqPartial","seqNoFeedback","seqFeedback"],"classroomPairings":[["A","B"],["C","D"]],"coinWeights":[0.2,0.5,0.8],"subjectId":"A181HHZC94KPZR","assignmentId":"308XBLVESJQ0Y84KQ8KMT5MGORBBRP","hitId":"3IH9TRB0FBLK6RLF7MSMKICTGYN1IU","url":"https://gershmanlab.com/experiments/alicia/teaching/experiment/?hitId=3IH9TRB0FBLK6RLF7MSMKICTGYN1IU&workerId=A181HHZC94KPZR&assignmentId=308XBLVESJQ0Y84KQ8KMT5MGORBBRP&a=EB803&tp_a=EB803&b=308XBLVESJQ0Y84KQ8KMT5MGORBBRP&tp_b=308XBLVESJQ0Y84KQ8KMT5MGORBBRP&c=365633&tp_c=365633"},{"rt":12859,"stimulus":"\n                <p>Student 3's first guess for coin weight: <b style=\"color:Tomato\";>0.47</b></p>\n                <p>Student 3's second guess for coin weight: <b style=\"color:Tomato\";>0.71</b></p>\n                <p>You received a bonus of <b>$0.00</b> based on the student's second guess.</p>\n                <p>Total bonus so far: <b>$0.00</b></p>\n                <p>Press any key to continue.</p>\n                ","response":" ","trial_type":"html-keyboard-response","trial_index":32,"time_elapsed":1018909,"internal_node_id":"0.0-31.0","params":{"nStudents":24,"maxFlips":25,"completionMinutes":45,"basePay":8,"maxBonus":9,"perTrialBonus":0.5,"perTrialBonusThreshold":0.05,"exampleCost":0.02},"classroomParams":{"A":{"a":1,"b":4},"B":{"a":4,"b":1},"C":{"a":2,"b":8},"D":{"a":8,"b":2}},"conditions":["nonSeqFull","nonSeqPartial","seqNoFeedback","seqFeedback"],"classroomPairings":[["A","B"],["C","D"]],"coinWeights":[0.2,0.5,0.8],"subjectId":"A181HHZC94KPZR","assignmentId":"308XBLVESJQ0Y84KQ8KMT5MGORBBRP","hitId":"3IH9TRB0FBLK6RLF7MSMKICTGYN1IU","url":"https://gershmanlab.com/experiments/alicia/teaching/experiment/?hitId=3IH9TRB0FBLK6RLF7MSMKICTGYN1IU&workerId=A181HHZC94KPZR&assignmentId=308XBLVESJQ0Y84KQ8KMT5MGORBBRP&a=EB803&tp_a=EB803&b=308XBLVESJQ0Y84KQ8KMT5MGORBBRP&tp_b=308XBLVESJQ0Y84KQ8KMT5MGORBBRP&c=365633&tp_c=365633"},{"rt":null,"stimulus":"<div style=\"font-size:60px;\">Next student</div>","response":null,"trial_type":"html-keyboard-response","trial_index":33,"time_elapsed":1021419,"internal_node_id":"0.0-32.0-0.0","params":{"nStudents":24,"maxFlips":25,"completionMinutes":45,"basePay":8,"maxBonus":9,"perTrialBonus":0.5,"perTrialBonusThreshold":0.05,"exampleCost":0.02},"classroomParams":{"A":{"a":1,"b":4},"B":{"a":4,"b":1},"C":{"a":2,"b":8},"D":{"a":8,"b":2}},"conditions":["nonSeqFull","nonSeqPartial","seqNoFeedback","seqFeedback"],"classroomPairings":[["A","B"],["C","D"]],"coinWeights":[0.2,0.5,0.8],"subjectId":"A181HHZC94KPZR","assignmentId":"308XBLVESJQ0Y84KQ8KMT5MGORBBRP","hitId":"3IH9TRB0FBLK6RLF7MSMKICTGYN1IU","url":"https://gershmanlab.com/experiments/alicia/teaching/experiment/?hitId=3IH9TRB0FBLK6RLF7MSMKICTGYN1IU&workerId=A181HHZC94KPZR&assignmentId=308XBLVESJQ0Y84KQ8KMT5MGORBBRP&a=EB803&tp_a=EB803&b=308XBLVESJQ0Y84KQ8KMT5MGORBBRP&tp_b=308XBLVESJQ0Y84KQ8KMT5MGORBBRP&c=365633&tp_c=365633"},{"rt":4574,"stimulus":"\n            <h4 style=\"color:Orange;\">Student 4</h4>\n            <h2>The weight of your coin is <b style=\"color:Tomato;\">0.8</b>.</h2>\n            <p>In this block, you will be giving <b>one</b> set of examples to Student 4.</p>\n                <p>You will receive feedback at the end of the block.</p>\n            <p></p>","response":0,"trial_type":"html-button-response","trial_index":34,"time_elapsed":1025994,"internal_node_id":"0.0-33.0","params":{"nStudents":24,"maxFlips":25,"completionMinutes":45,"basePay":8,"maxBonus":9,"perTrialBonus":0.5,"perTrialBonusThreshold":0.05,"exampleCost":0.02},"classroomParams":{"A":{"a":1,"b":4},"B":{"a":4,"b":1},"C":{"a":2,"b":8},"D":{"a":8,"b":2}},"conditions":["nonSeqFull","nonSeqPartial","seqNoFeedback","seqFeedback"],"classroomPairings":[["A","B"],["C","D"]],"coinWeights":[0.2,0.5,0.8],"subjectId":"A181HHZC94KPZR","assignmentId":"308XBLVESJQ0Y84KQ8KMT5MGORBBRP","hitId":"3IH9TRB0FBLK6RLF7MSMKICTGYN1IU","url":"https://gershmanlab.com/experiments/alicia/teaching/experiment/?hitId=3IH9TRB0FBLK6RLF7MSMKICTGYN1IU&workerId=A181HHZC94KPZR&assignmentId=308XBLVESJQ0Y84KQ8KMT5MGORBBRP&a=EB803&tp_a=EB803&b=308XBLVESJQ0Y84KQ8KMT5MGORBBRP&tp_b=308XBLVESJQ0Y84KQ8KMT5MGORBBRP&c=365633&tp_c=365633"},{"rt":22332,"response":{"heads":"20","tails":"5"},"type":"response","condition":"nonSeqFull","trueTheta":0.8,"classrooms":["A","B"],"studentTrueClassroom":"A","exampleSet":"first","trial_type":"survey-html-form","trial_index":35,"time_elapsed":1048326,"internal_node_id":"0.0-34.0-0.0","params":{"nStudents":24,"maxFlips":25,"completionMinutes":45,"basePay":8,"maxBonus":9,"perTrialBonus":0.5,"perTrialBonusThreshold":0.05,"exampleCost":0.02},"classroomParams":{"A":{"a":1,"b":4},"B":{"a":4,"b":1},"C":{"a":2,"b":8},"D":{"a":8,"b":2}},"conditions":["nonSeqFull","nonSeqPartial","seqNoFeedback","seqFeedback"],"classroomPairings":[["A","B"],["C","D"]],"coinWeights":[0.2,0.5,0.8],"subjectId":"A181HHZC94KPZR","assignmentId":"308XBLVESJQ0Y84KQ8KMT5MGORBBRP","hitId":"3IH9TRB0FBLK6RLF7MSMKICTGYN1IU","url":"https://gershmanlab.com/experiments/alicia/teaching/experiment/?hitId=3IH9TRB0FBLK6RLF7MSMKICTGYN1IU&workerId=A181HHZC94KPZR&assignmentId=308XBLVESJQ0Y84KQ8KMT5MGORBBRP&a=EB803&tp_a=EB803&b=308XBLVESJQ0Y84KQ8KMT5MGORBBRP&tp_b=308XBLVESJQ0Y84KQ8KMT5MGORBBRP&c=365633&tp_c=365633","heads":20,"tails":5,"studentIndex":3,"studentTrueHypers":{"a":1,"b":4},"studentGuess":0.7,"delta":0.10000000000000009,"totalExamples":25,"bonus":0,"bonusSoFar":0},{"rt":null,"stimulus":"Sending examples to student... ","response":null,"trial_type":"html-keyboard-response","trial_index":36,"time_elapsed":1050092,"internal_node_id":"0.0-35.0","params":{"nStudents":24,"maxFlips":25,"completionMinutes":45,"basePay":8,"maxBonus":9,"perTrialBonus":0.5,"perTrialBonusThreshold":0.05,"exampleCost":0.02},"classroomParams":{"A":{"a":1,"b":4},"B":{"a":4,"b":1},"C":{"a":2,"b":8},"D":{"a":8,"b":2}},"conditions":["nonSeqFull","nonSeqPartial","seqNoFeedback","seqFeedback"],"classroomPairings":[["A","B"],["C","D"]],"coinWeights":[0.2,0.5,0.8],"subjectId":"A181HHZC94KPZR","assignmentId":"308XBLVESJQ0Y84KQ8KMT5MGORBBRP","hitId":"3IH9TRB0FBLK6RLF7MSMKICTGYN1IU","url":"https://gershmanlab.com/experiments/alicia/teaching/experiment/?hitId=3IH9TRB0FBLK6RLF7MSMKICTGYN1IU&workerId=A181HHZC94KPZR&assignmentId=308XBLVESJQ0Y84KQ8KMT5MGORBBRP&a=EB803&tp_a=EB803&b=308XBLVESJQ0Y84KQ8KMT5MGORBBRP&tp_b=308XBLVESJQ0Y84KQ8KMT5MGORBBRP&c=365633&tp_c=365633"},{"rt":null,"stimulus":"Examples sent to student! Waiting for student...","response":null,"trial_type":"html-keyboard-response","trial_index":37,"time_elapsed":1056098,"internal_node_id":"0.0-36.0","params":{"nStudents":24,"maxFlips":25,"completionMinutes":45,"basePay":8,"maxBonus":9,"perTrialBonus":0.5,"perTrialBonusThreshold":0.05,"exampleCost":0.02},"classroomParams":{"A":{"a":1,"b":4},"B":{"a":4,"b":1},"C":{"a":2,"b":8},"D":{"a":8,"b":2}},"conditions":["nonSeqFull","nonSeqPartial","seqNoFeedback","seqFeedback"],"classroomPairings":[["A","B"],["C","D"]],"coinWeights":[0.2,0.5,0.8],"subjectId":"A181HHZC94KPZR","assignmentId":"308XBLVESJQ0Y84KQ8KMT5MGORBBRP","hitId":"3IH9TRB0FBLK6RLF7MSMKICTGYN1IU","url":"https://gershmanlab.com/experiments/alicia/teaching/experiment/?hitId=3IH9TRB0FBLK6RLF7MSMKICTGYN1IU&workerId=A181HHZC94KPZR&assignmentId=308XBLVESJQ0Y84KQ8KMT5MGORBBRP&a=EB803&tp_a=EB803&b=308XBLVESJQ0Y84KQ8KMT5MGORBBRP&tp_b=308XBLVESJQ0Y84KQ8KMT5MGORBBRP&c=365633&tp_c=365633"},{"rt":7104,"stimulus":"\n                <p>Student's guess for coin weight: <b style=\"color:Tomato;\">0.70</b></p>\n                <p>You received a bonus of <b>$0</b>. Total bonus so far: <b>$0.00</b></b></p>\n                <p></p>\n                <p>Press any key to continue.</p>\n                ","response":"enter","trial_type":"html-keyboard-response","trial_index":38,"time_elapsed":1063202,"internal_node_id":"0.0-37.0","params":{"nStudents":24,"maxFlips":25,"completionMinutes":45,"basePay":8,"maxBonus":9,"perTrialBonus":0.5,"perTrialBonusThreshold":0.05,"exampleCost":0.02},"classroomParams":{"A":{"a":1,"b":4},"B":{"a":4,"b":1},"C":{"a":2,"b":8},"D":{"a":8,"b":2}},"conditions":["nonSeqFull","nonSeqPartial","seqNoFeedback","seqFeedback"],"classroomPairings":[["A","B"],["C","D"]],"coinWeights":[0.2,0.5,0.8],"subjectId":"A181HHZC94KPZR","assignmentId":"308XBLVESJQ0Y84KQ8KMT5MGORBBRP","hitId":"3IH9TRB0FBLK6RLF7MSMKICTGYN1IU","url":"https://gershmanlab.com/experiments/alicia/teaching/experiment/?hitId=3IH9TRB0FBLK6RLF7MSMKICTGYN1IU&workerId=A181HHZC94KPZR&assignmentId=308XBLVESJQ0Y84KQ8KMT5MGORBBRP&a=EB803&tp_a=EB803&b=308XBLVESJQ0Y84KQ8KMT5MGORBBRP&tp_b=308XBLVESJQ0Y84KQ8KMT5MGORBBRP&c=365633&tp_c=365633"},{"rt":null,"stimulus":"<div style=\"font-size:60px;\">Next student</div>","response":null,"trial_type":"html-keyboard-response","trial_index":39,"time_elapsed":1065703,"internal_node_id":"0.0-38.0-0.0","params":{"nStudents":24,"maxFlips":25,"completionMinutes":45,"basePay":8,"maxBonus":9,"perTrialBonus":0.5,"perTrialBonusThreshold":0.05,"exampleCost":0.02},"classroomParams":{"A":{"a":1,"b":4},"B":{"a":4,"b":1},"C":{"a":2,"b":8},"D":{"a":8,"b":2}},"conditions":["nonSeqFull","nonSeqPartial","seqNoFeedback","seqFeedback"],"classroomPairings":[["A","B"],["C","D"]],"coinWeights":[0.2,0.5,0.8],"subjectId":"A181HHZC94KPZR","assignmentId":"308XBLVESJQ0Y84KQ8KMT5MGORBBRP","hitId":"3IH9TRB0FBLK6RLF7MSMKICTGYN1IU","url":"https://gershmanlab.com/experiments/alicia/teaching/experiment/?hitId=3IH9TRB0FBLK6RLF7MSMKICTGYN1IU&workerId=A181HHZC94KPZR&assignmentId=308XBLVESJQ0Y84KQ8KMT5MGORBBRP&a=EB803&tp_a=EB803&b=308XBLVESJQ0Y84KQ8KMT5MGORBBRP&tp_b=308XBLVESJQ0Y84KQ8KMT5MGORBBRP&c=365633&tp_c=365633"},{"rt":3792,"stimulus":"\n            <h4 style=\"color:Orange;\">Student 5</h4>\n            <h2>The weight of your coin is <b style=\"color:Tomato;\">0.8</b>.</h2>\n            <p>In this block, you will be giving <b>one</b> set of examples to Student 5.</p>\n                <p>You will receive feedback at the end of the block.</p>\n            <p></p>","response":0,"trial_type":"html-button-response","trial_index":40,"time_elapsed":1069496,"internal_node_id":"0.0-39.0","params":{"nStudents":24,"maxFlips":25,"completionMinutes":45,"basePay":8,"maxBonus":9,"perTrialBonus":0.5,"perTrialBonusThreshold":0.05,"exampleCost":0.02},"classroomParams":{"A":{"a":1,"b":4},"B":{"a":4,"b":1},"C":{"a":2,"b":8},"D":{"a":8,"b":2}},"conditions":["nonSeqFull","nonSeqPartial","seqNoFeedback","seqFeedback"],"classroomPairings":[["A","B"],["C","D"]],"coinWeights":[0.2,0.5,0.8],"subjectId":"A181HHZC94KPZR","assignmentId":"308XBLVESJQ0Y84KQ8KMT5MGORBBRP","hitId":"3IH9TRB0FBLK6RLF7MSMKICTGYN1IU","url":"https://gershmanlab.com/experiments/alicia/teaching/experiment/?hitId=3IH9TRB0FBLK6RLF7MSMKICTGYN1IU&workerId=A181HHZC94KPZR&assignmentId=308XBLVESJQ0Y84KQ8KMT5MGORBBRP&a=EB803&tp_a=EB803&b=308XBLVESJQ0Y84KQ8KMT5MGORBBRP&tp_b=308XBLVESJQ0Y84KQ8KMT5MGORBBRP&c=365633&tp_c=365633"},{"rt":11990,"response":{"heads":"22","tails":"3"},"type":"response","condition":"nonSeqFull","trueTheta":0.8,"classrooms":["C","D"],"studentTrueClassroom":"C","exampleSet":"first","trial_type":"survey-html-form","trial_index":41,"time_elapsed":1081486,"internal_node_id":"0.0-40.0-0.0","params":{"nStudents":24,"maxFlips":25,"completionMinutes":45,"basePay":8,"maxBonus":9,"perTrialBonus":0.5,"perTrialBonusThreshold":0.05,"exampleCost":0.02},"classroomParams":{"A":{"a":1,"b":4},"B":{"a":4,"b":1},"C":{"a":2,"b":8},"D":{"a":8,"b":2}},"conditions":["nonSeqFull","nonSeqPartial","seqNoFeedback","seqFeedback"],"classroomPairings":[["A","B"],["C","D"]],"coinWeights":[0.2,0.5,0.8],"subjectId":"A181HHZC94KPZR","assignmentId":"308XBLVESJQ0Y84KQ8KMT5MGORBBRP","hitId":"3IH9TRB0FBLK6RLF7MSMKICTGYN1IU","url":"https://gershmanlab.com/experiments/alicia/teaching/experiment/?hitId=3IH9TRB0FBLK6RLF7MSMKICTGYN1IU&workerId=A181HHZC94KPZR&assignmentId=308XBLVESJQ0Y84KQ8KMT5MGORBBRP&a=EB803&tp_a=EB803&b=308XBLVESJQ0Y84KQ8KMT5MGORBBRP&tp_b=308XBLVESJQ0Y84KQ8KMT5MGORBBRP&c=365633&tp_c=365633","heads":22,"tails":3,"studentIndex":4,"studentTrueHypers":{"a":2,"b":8},"studentGuess":0.6857142857142857,"delta":0.11428571428571432,"totalExamples":25,"bonus":0,"bonusSoFar":0},{"rt":null,"stimulus":"Sending examples to student... ","response":null,"trial_type":"html-keyboard-response","trial_index":42,"time_elapsed":1083498,"internal_node_id":"0.0-41.0","params":{"nStudents":24,"maxFlips":25,"completionMinutes":45,"basePay":8,"maxBonus":9,"perTrialBonus":0.5,"perTrialBonusThreshold":0.05,"exampleCost":0.02},"classroomParams":{"A":{"a":1,"b":4},"B":{"a":4,"b":1},"C":{"a":2,"b":8},"D":{"a":8,"b":2}},"conditions":["nonSeqFull","nonSeqPartial","seqNoFeedback","seqFeedback"],"classroomPairings":[["A","B"],["C","D"]],"coinWeights":[0.2,0.5,0.8],"subjectId":"A181HHZC94KPZR","assignmentId":"308XBLVESJQ0Y84KQ8KMT5MGORBBRP","hitId":"3IH9TRB0FBLK6RLF7MSMKICTGYN1IU","url":"https://gershmanlab.com/experiments/alicia/teaching/experiment/?hitId=3IH9TRB0FBLK6RLF7MSMKICTGYN1IU&workerId=A181HHZC94KPZR&assignmentId=308XBLVESJQ0Y84KQ8KMT5MGORBBRP&a=EB803&tp_a=EB803&b=308XBLVESJQ0Y84KQ8KMT5MGORBBRP&tp_b=308XBLVESJQ0Y84KQ8KMT5MGORBBRP&c=365633&tp_c=365633"},{"rt":null,"stimulus":"Examples sent to student! Waiting for student...","response":null,"trial_type":"html-keyboard-response","trial_index":43,"time_elapsed":1089501,"internal_node_id":"0.0-42.0","params":{"nStudents":24,"maxFlips":25,"completionMinutes":45,"basePay":8,"maxBonus":9,"perTrialBonus":0.5,"perTrialBonusThreshold":0.05,"exampleCost":0.02},"classroomParams":{"A":{"a":1,"b":4},"B":{"a":4,"b":1},"C":{"a":2,"b":8},"D":{"a":8,"b":2}},"conditions":["nonSeqFull","nonSeqPartial","seqNoFeedback","seqFeedback"],"classroomPairings":[["A","B"],["C","D"]],"coinWeights":[0.2,0.5,0.8],"subjectId":"A181HHZC94KPZR","assignmentId":"308XBLVESJQ0Y84KQ8KMT5MGORBBRP","hitId":"3IH9TRB0FBLK6RLF7MSMKICTGYN1IU","url":"https://gershmanlab.com/experiments/alicia/teaching/experiment/?hitId=3IH9TRB0FBLK6RLF7MSMKICTGYN1IU&workerId=A181HHZC94KPZR&assignmentId=308XBLVESJQ0Y84KQ8KMT5MGORBBRP&a=EB803&tp_a=EB803&b=308XBLVESJQ0Y84KQ8KMT5MGORBBRP&tp_b=308XBLVESJQ0Y84KQ8KMT5MGORBBRP&c=365633&tp_c=365633"},{"rt":3394,"stimulus":"\n                <p>Student's guess for coin weight: <b style=\"color:Tomato;\">0.69</b></p>\n                <p>You received a bonus of <b>$0</b>. Total bonus so far: <b>$0.00</b></b></p>\n                <p></p>\n                <p>Press any key to continue.</p>\n                ","response":"enter","trial_type":"html-keyboard-response","trial_index":44,"time_elapsed":1092896,"internal_node_id":"0.0-43.0","params":{"nStudents":24,"maxFlips":25,"completionMinutes":45,"basePay":8,"maxBonus":9,"perTrialBonus":0.5,"perTrialBonusThreshold":0.05,"exampleCost":0.02},"classroomParams":{"A":{"a":1,"b":4},"B":{"a":4,"b":1},"C":{"a":2,"b":8},"D":{"a":8,"b":2}},"conditions":["nonSeqFull","nonSeqPartial","seqNoFeedback","seqFeedback"],"classroomPairings":[["A","B"],["C","D"]],"coinWeights":[0.2,0.5,0.8],"subjectId":"A181HHZC94KPZR","assignmentId":"308XBLVESJQ0Y84KQ8KMT5MGORBBRP","hitId":"3IH9TRB0FBLK6RLF7MSMKICTGYN1IU","url":"https://gershmanlab.com/experiments/alicia/teaching/experiment/?hitId=3IH9TRB0FBLK6RLF7MSMKICTGYN1IU&workerId=A181HHZC94KPZR&assignmentId=308XBLVESJQ0Y84KQ8KMT5MGORBBRP&a=EB803&tp_a=EB803&b=308XBLVESJQ0Y84KQ8KMT5MGORBBRP&tp_b=308XBLVESJQ0Y84KQ8KMT5MGORBBRP&c=365633&tp_c=365633"},{"rt":null,"stimulus":"<div style=\"font-size:60px;\">Next student</div>","response":null,"trial_type":"html-keyboard-response","trial_index":45,"time_elapsed":1095401,"internal_node_id":"0.0-44.0-0.0","params":{"nStudents":24,"maxFlips":25,"completionMinutes":45,"basePay":8,"maxBonus":9,"perTrialBonus":0.5,"perTrialBonusThreshold":0.05,"exampleCost":0.02},"classroomParams":{"A":{"a":1,"b":4},"B":{"a":4,"b":1},"C":{"a":2,"b":8},"D":{"a":8,"b":2}},"conditions":["nonSeqFull","nonSeqPartial","seqNoFeedback","seqFeedback"],"classroomPairings":[["A","B"],["C","D"]],"coinWeights":[0.2,0.5,0.8],"subjectId":"A181HHZC94KPZR","assignmentId":"308XBLVESJQ0Y84KQ8KMT5MGORBBRP","hitId":"3IH9TRB0FBLK6RLF7MSMKICTGYN1IU","url":"https://gershmanlab.com/experiments/alicia/teaching/experiment/?hitId=3IH9TRB0FBLK6RLF7MSMKICTGYN1IU&workerId=A181HHZC94KPZR&assignmentId=308XBLVESJQ0Y84KQ8KMT5MGORBBRP&a=EB803&tp_a=EB803&b=308XBLVESJQ0Y84KQ8KMT5MGORBBRP&tp_b=308XBLVESJQ0Y84KQ8KMT5MGORBBRP&c=365633&tp_c=365633"},{"rt":3606,"stimulus":"\n            <h4 style=\"color:Orange;\">Student 6</h4>\n            <h2>The weight of your coin is <b style=\"color:Tomato;\">0.5</b>.</h2>\n            <p>In this block, you will be giving <b>two</b> sets of examples to Student 6.</p>\n                <p>You will see the student's guess after the first set of examples. You will also receive feedback at the end of the block.</p>\n            <p>To earn the highest bonus, you will have to <b>take into consideration the student's guess</b> when you choose your second set of examples.</p>","response":0,"trial_type":"html-button-response","trial_index":46,"time_elapsed":1099008,"internal_node_id":"0.0-45.0","params":{"nStudents":24,"maxFlips":25,"completionMinutes":45,"basePay":8,"maxBonus":9,"perTrialBonus":0.5,"perTrialBonusThreshold":0.05,"exampleCost":0.02},"classroomParams":{"A":{"a":1,"b":4},"B":{"a":4,"b":1},"C":{"a":2,"b":8},"D":{"a":8,"b":2}},"conditions":["nonSeqFull","nonSeqPartial","seqNoFeedback","seqFeedback"],"classroomPairings":[["A","B"],["C","D"]],"coinWeights":[0.2,0.5,0.8],"subjectId":"A181HHZC94KPZR","assignmentId":"308XBLVESJQ0Y84KQ8KMT5MGORBBRP","hitId":"3IH9TRB0FBLK6RLF7MSMKICTGYN1IU","url":"https://gershmanlab.com/experiments/alicia/teaching/experiment/?hitId=3IH9TRB0FBLK6RLF7MSMKICTGYN1IU&workerId=A181HHZC94KPZR&assignmentId=308XBLVESJQ0Y84KQ8KMT5MGORBBRP&a=EB803&tp_a=EB803&b=308XBLVESJQ0Y84KQ8KMT5MGORBBRP&tp_b=308XBLVESJQ0Y84KQ8KMT5MGORBBRP&c=365633&tp_c=365633"},{"rt":39202,"response":{"heads":"15","tails":"10"},"type":"response","condition":"seqFeedback","trueTheta":0.5,"classrooms":["C","D"],"studentTrueClassroom":"D","exampleSet":"first","trial_type":"survey-html-form","trial_index":47,"time_elapsed":1138212,"internal_node_id":"0.0-46.0-0.0","params":{"nStudents":24,"maxFlips":25,"completionMinutes":45,"basePay":8,"maxBonus":9,"perTrialBonus":0.5,"perTrialBonusThreshold":0.05,"exampleCost":0.02},"classroomParams":{"A":{"a":1,"b":4},"B":{"a":4,"b":1},"C":{"a":2,"b":8},"D":{"a":8,"b":2}},"conditions":["nonSeqFull","nonSeqPartial","seqNoFeedback","seqFeedback"],"classroomPairings":[["A","B"],["C","D"]],"coinWeights":[0.2,0.5,0.8],"subjectId":"A181HHZC94KPZR","assignmentId":"308XBLVESJQ0Y84KQ8KMT5MGORBBRP","hitId":"3IH9TRB0FBLK6RLF7MSMKICTGYN1IU","url":"https://gershmanlab.com/experiments/alicia/teaching/experiment/?hitId=3IH9TRB0FBLK6RLF7MSMKICTGYN1IU&workerId=A181HHZC94KPZR&assignmentId=308XBLVESJQ0Y84KQ8KMT5MGORBBRP&a=EB803&tp_a=EB803&b=308XBLVESJQ0Y84KQ8KMT5MGORBBRP&tp_b=308XBLVESJQ0Y84KQ8KMT5MGORBBRP&c=365633&tp_c=365633","heads":15,"tails":10,"studentIndex":5,"studentTrueHypers":{"a":8,"b":2},"studentGuess":0.6571428571428571,"delta":0.15714285714285714,"totalExamples":25,"bonusSoFar":0},{"rt":null,"stimulus":"Sending examples to student... ","response":null,"trial_type":"html-keyboard-response","trial_index":48,"time_elapsed":1139973,"internal_node_id":"0.0-47.0","params":{"nStudents":24,"maxFlips":25,"completionMinutes":45,"basePay":8,"maxBonus":9,"perTrialBonus":0.5,"perTrialBonusThreshold":0.05,"exampleCost":0.02},"classroomParams":{"A":{"a":1,"b":4},"B":{"a":4,"b":1},"C":{"a":2,"b":8},"D":{"a":8,"b":2}},"conditions":["nonSeqFull","nonSeqPartial","seqNoFeedback","seqFeedback"],"classroomPairings":[["A","B"],["C","D"]],"coinWeights":[0.2,0.5,0.8],"subjectId":"A181HHZC94KPZR","assignmentId":"308XBLVESJQ0Y84KQ8KMT5MGORBBRP","hitId":"3IH9TRB0FBLK6RLF7MSMKICTGYN1IU","url":"https://gershmanlab.com/experiments/alicia/teaching/experiment/?hitId=3IH9TRB0FBLK6RLF7MSMKICTGYN1IU&workerId=A181HHZC94KPZR&assignmentId=308XBLVESJQ0Y84KQ8KMT5MGORBBRP&a=EB803&tp_a=EB803&b=308XBLVESJQ0Y84KQ8KMT5MGORBBRP&tp_b=308XBLVESJQ0Y84KQ8KMT5MGORBBRP&c=365633&tp_c=365633"},{"rt":null,"stimulus":"Examples sent to student! Waiting for student...","response":null,"trial_type":"html-keyboard-response","trial_index":49,"time_elapsed":1145478,"internal_node_id":"0.0-48.0","params":{"nStudents":24,"maxFlips":25,"completionMinutes":45,"basePay":8,"maxBonus":9,"perTrialBonus":0.5,"perTrialBonusThreshold":0.05,"exampleCost":0.02},"classroomParams":{"A":{"a":1,"b":4},"B":{"a":4,"b":1},"C":{"a":2,"b":8},"D":{"a":8,"b":2}},"conditions":["nonSeqFull","nonSeqPartial","seqNoFeedback","seqFeedback"],"classroomPairings":[["A","B"],["C","D"]],"coinWeights":[0.2,0.5,0.8],"subjectId":"A181HHZC94KPZR","assignmentId":"308XBLVESJQ0Y84KQ8KMT5MGORBBRP","hitId":"3IH9TRB0FBLK6RLF7MSMKICTGYN1IU","url":"https://gershmanlab.com/experiments/alicia/teaching/experiment/?hitId=3IH9TRB0FBLK6RLF7MSMKICTGYN1IU&workerId=A181HHZC94KPZR&assignmentId=308XBLVESJQ0Y84KQ8KMT5MGORBBRP&a=EB803&tp_a=EB803&b=308XBLVESJQ0Y84KQ8KMT5MGORBBRP&tp_b=308XBLVESJQ0Y84KQ8KMT5MGORBBRP&c=365633&tp_c=365633"},{"rt":3884,"stimulus":"\n                <p>Student's guess for coin weight: <b style=\"color:Tomato;\">0.66</b></p>\n                <p></b></p>\n                <p>You will now send another set of examples to your student. <b>Remember to take your student's guess into consideration so that you can earn the highest bonus possible!</b> </p>\n                <p>Press any key to continue.</p>\n                ","response":"enter","trial_type":"html-keyboard-response","trial_index":50,"time_elapsed":1149364,"internal_node_id":"0.0-49.0","params":{"nStudents":24,"maxFlips":25,"completionMinutes":45,"basePay":8,"maxBonus":9,"perTrialBonus":0.5,"perTrialBonusThreshold":0.05,"exampleCost":0.02},"classroomParams":{"A":{"a":1,"b":4},"B":{"a":4,"b":1},"C":{"a":2,"b":8},"D":{"a":8,"b":2}},"conditions":["nonSeqFull","nonSeqPartial","seqNoFeedback","seqFeedback"],"classroomPairings":[["A","B"],["C","D"]],"coinWeights":[0.2,0.5,0.8],"subjectId":"A181HHZC94KPZR","assignmentId":"308XBLVESJQ0Y84KQ8KMT5MGORBBRP","hitId":"3IH9TRB0FBLK6RLF7MSMKICTGYN1IU","url":"https://gershmanlab.com/experiments/alicia/teaching/experiment/?hitId=3IH9TRB0FBLK6RLF7MSMKICTGYN1IU&workerId=A181HHZC94KPZR&assignmentId=308XBLVESJQ0Y84KQ8KMT5MGORBBRP&a=EB803&tp_a=EB803&b=308XBLVESJQ0Y84KQ8KMT5MGORBBRP&tp_b=308XBLVESJQ0Y84KQ8KMT5MGORBBRP&c=365633&tp_c=365633"},{"rt":22846,"response":{"heads":"8","tails":"7"},"type":"response","condition":"seqFeedback","trueTheta":0.5,"classrooms":["C","D"],"studentTrueClassroom":"D","exampleSet":"second","trial_type":"survey-html-form","trial_index":51,"time_elapsed":1172210,"internal_node_id":"0.0-50.0-0.0","params":{"nStudents":24,"maxFlips":25,"completionMinutes":45,"basePay":8,"maxBonus":9,"perTrialBonus":0.5,"perTrialBonusThreshold":0.05,"exampleCost":0.02},"classroomParams":{"A":{"a":1,"b":4},"B":{"a":4,"b":1},"C":{"a":2,"b":8},"D":{"a":8,"b":2}},"conditions":["nonSeqFull","nonSeqPartial","seqNoFeedback","seqFeedback"],"classroomPairings":[["A","B"],["C","D"]],"coinWeights":[0.2,0.5,0.8],"subjectId":"A181HHZC94KPZR","assignmentId":"308XBLVESJQ0Y84KQ8KMT5MGORBBRP","hitId":"3IH9TRB0FBLK6RLF7MSMKICTGYN1IU","url":"https://gershmanlab.com/experiments/alicia/teaching/experiment/?hitId=3IH9TRB0FBLK6RLF7MSMKICTGYN1IU&workerId=A181HHZC94KPZR&assignmentId=308XBLVESJQ0Y84KQ8KMT5MGORBBRP&a=EB803&tp_a=EB803&b=308XBLVESJQ0Y84KQ8KMT5MGORBBRP&tp_b=308XBLVESJQ0Y84KQ8KMT5MGORBBRP&c=365633&tp_c=365633","firstResponseHeads":15,"firstResponseTails":10,"secondResponseHeads":8,"secondResponseTails":7,"totalHeads":23,"totalTails":17,"studentIndex":5,"studentTrueHypers":{"a":8,"b":2},"studentGuess":0.62,"delta":0.12,"bonus":0,"bonusSoFar":0,"totalExamples":40},{"rt":null,"stimulus":"Sending examples to student... ","response":null,"trial_type":"html-keyboard-response","trial_index":52,"time_elapsed":1173714,"internal_node_id":"0.0-51.0","params":{"nStudents":24,"maxFlips":25,"completionMinutes":45,"basePay":8,"maxBonus":9,"perTrialBonus":0.5,"perTrialBonusThreshold":0.05,"exampleCost":0.02},"classroomParams":{"A":{"a":1,"b":4},"B":{"a":4,"b":1},"C":{"a":2,"b":8},"D":{"a":8,"b":2}},"conditions":["nonSeqFull","nonSeqPartial","seqNoFeedback","seqFeedback"],"classroomPairings":[["A","B"],["C","D"]],"coinWeights":[0.2,0.5,0.8],"subjectId":"A181HHZC94KPZR","assignmentId":"308XBLVESJQ0Y84KQ8KMT5MGORBBRP","hitId":"3IH9TRB0FBLK6RLF7MSMKICTGYN1IU","url":"https://gershmanlab.com/experiments/alicia/teaching/experiment/?hitId=3IH9TRB0FBLK6RLF7MSMKICTGYN1IU&workerId=A181HHZC94KPZR&assignmentId=308XBLVESJQ0Y84KQ8KMT5MGORBBRP&a=EB803&tp_a=EB803&b=308XBLVESJQ0Y84KQ8KMT5MGORBBRP&tp_b=308XBLVESJQ0Y84KQ8KMT5MGORBBRP&c=365633&tp_c=365633"},{"rt":null,"stimulus":"Examples sent to student! Waiting for student...","response":null,"trial_type":"html-keyboard-response","trial_index":53,"time_elapsed":1178722,"internal_node_id":"0.0-52.0","params":{"nStudents":24,"maxFlips":25,"completionMinutes":45,"basePay":8,"maxBonus":9,"perTrialBonus":0.5,"perTrialBonusThreshold":0.05,"exampleCost":0.02},"classroomParams":{"A":{"a":1,"b":4},"B":{"a":4,"b":1},"C":{"a":2,"b":8},"D":{"a":8,"b":2}},"conditions":["nonSeqFull","nonSeqPartial","seqNoFeedback","seqFeedback"],"classroomPairings":[["A","B"],["C","D"]],"coinWeights":[0.2,0.5,0.8],"subjectId":"A181HHZC94KPZR","assignmentId":"308XBLVESJQ0Y84KQ8KMT5MGORBBRP","hitId":"3IH9TRB0FBLK6RLF7MSMKICTGYN1IU","url":"https://gershmanlab.com/experiments/alicia/teaching/experiment/?hitId=3IH9TRB0FBLK6RLF7MSMKICTGYN1IU&workerId=A181HHZC94KPZR&assignmentId=308XBLVESJQ0Y84KQ8KMT5MGORBBRP&a=EB803&tp_a=EB803&b=308XBLVESJQ0Y84KQ8KMT5MGORBBRP&tp_b=308XBLVESJQ0Y84KQ8KMT5MGORBBRP&c=365633&tp_c=365633"},{"rt":4555,"stimulus":"\n                <p>Student 6's first guess for coin weight: <b style=\"color:Tomato\";>0.66</b></p>\n                <p>Student 6's second guess for coin weight: <b style=\"color:Tomato\";>0.62</b></p>\n                <p>You received a bonus of <b>$0.00</b> based on the student's second guess.</p>\n                <p>Total bonus so far: <b>$0.00</b></p>\n                <p>Press any key to continue.</p>\n                ","response":"enter","trial_type":"html-keyboard-response","trial_index":54,"time_elapsed":1183278,"internal_node_id":"0.0-53.0","params":{"nStudents":24,"maxFlips":25,"completionMinutes":45,"basePay":8,"maxBonus":9,"perTrialBonus":0.5,"perTrialBonusThreshold":0.05,"exampleCost":0.02},"classroomParams":{"A":{"a":1,"b":4},"B":{"a":4,"b":1},"C":{"a":2,"b":8},"D":{"a":8,"b":2}},"conditions":["nonSeqFull","nonSeqPartial","seqNoFeedback","seqFeedback"],"classroomPairings":[["A","B"],["C","D"]],"coinWeights":[0.2,0.5,0.8],"subjectId":"A181HHZC94KPZR","assignmentId":"308XBLVESJQ0Y84KQ8KMT5MGORBBRP","hitId":"3IH9TRB0FBLK6RLF7MSMKICTGYN1IU","url":"https://gershmanlab.com/experiments/alicia/teaching/experiment/?hitId=3IH9TRB0FBLK6RLF7MSMKICTGYN1IU&workerId=A181HHZC94KPZR&assignmentId=308XBLVESJQ0Y84KQ8KMT5MGORBBRP&a=EB803&tp_a=EB803&b=308XBLVESJQ0Y84KQ8KMT5MGORBBRP&tp_b=308XBLVESJQ0Y84KQ8KMT5MGORBBRP&c=365633&tp_c=365633"},{"rt":null,"stimulus":"<div style=\"font-size:60px;\">Next student</div>","response":null,"trial_type":"html-keyboard-response","trial_index":55,"time_elapsed":1185288,"internal_node_id":"0.0-54.0-0.0","params":{"nStudents":24,"maxFlips":25,"completionMinutes":45,"basePay":8,"maxBonus":9,"perTrialBonus":0.5,"perTrialBonusThreshold":0.05,"exampleCost":0.02},"classroomParams":{"A":{"a":1,"b":4},"B":{"a":4,"b":1},"C":{"a":2,"b":8},"D":{"a":8,"b":2}},"conditions":["nonSeqFull","nonSeqPartial","seqNoFeedback","seqFeedback"],"classroomPairings":[["A","B"],["C","D"]],"coinWeights":[0.2,0.5,0.8],"subjectId":"A181HHZC94KPZR","assignmentId":"308XBLVESJQ0Y84KQ8KMT5MGORBBRP","hitId":"3IH9TRB0FBLK6RLF7MSMKICTGYN1IU","url":"https://gershmanlab.com/experiments/alicia/teaching/experiment/?hitId=3IH9TRB0FBLK6RLF7MSMKICTGYN1IU&workerId=A181HHZC94KPZR&assignmentId=308XBLVESJQ0Y84KQ8KMT5MGORBBRP&a=EB803&tp_a=EB803&b=308XBLVESJQ0Y84KQ8KMT5MGORBBRP&tp_b=308XBLVESJQ0Y84KQ8KMT5MGORBBRP&c=365633&tp_c=365633"},{"rt":7964,"stimulus":"\n            <h4 style=\"color:Orange;\">Student 7</h4>\n            <h2>The weight of your coin is <b style=\"color:Tomato;\">0.2</b>.</h2>\n            <p>In this block, you will be giving <b>one</b> set of examples to Student 7.</p>\n                <p>You will receive feedback at the end of the block.</p>\n            <p></p>","response":0,"trial_type":"html-button-response","trial_index":56,"time_elapsed":1193254,"internal_node_id":"0.0-55.0","params":{"nStudents":24,"maxFlips":25,"completionMinutes":45,"basePay":8,"maxBonus":9,"perTrialBonus":0.5,"perTrialBonusThreshold":0.05,"exampleCost":0.02},"classroomParams":{"A":{"a":1,"b":4},"B":{"a":4,"b":1},"C":{"a":2,"b":8},"D":{"a":8,"b":2}},"conditions":["nonSeqFull","nonSeqPartial","seqNoFeedback","seqFeedback"],"classroomPairings":[["A","B"],["C","D"]],"coinWeights":[0.2,0.5,0.8],"subjectId":"A181HHZC94KPZR","assignmentId":"308XBLVESJQ0Y84KQ8KMT5MGORBBRP","hitId":"3IH9TRB0FBLK6RLF7MSMKICTGYN1IU","url":"https://gershmanlab.com/experiments/alicia/teaching/experiment/?hitId=3IH9TRB0FBLK6RLF7MSMKICTGYN1IU&workerId=A181HHZC94KPZR&assignmentId=308XBLVESJQ0Y84KQ8KMT5MGORBBRP&a=EB803&tp_a=EB803&b=308XBLVESJQ0Y84KQ8KMT5MGORBBRP&tp_b=308XBLVESJQ0Y84KQ8KMT5MGORBBRP&c=365633&tp_c=365633"},{"rt":8287,"response":{"heads":"23","tails":"2"},"type":"response","condition":"nonSeqFull","trueTheta":0.2,"classrooms":["A","B"],"studentTrueClassroom":"B","exampleSet":"first","trial_type":"survey-html-form","trial_index":57,"time_elapsed":1201541,"internal_node_id":"0.0-56.0-0.0","params":{"nStudents":24,"maxFlips":25,"completionMinutes":45,"basePay":8,"maxBonus":9,"perTrialBonus":0.5,"perTrialBonusThreshold":0.05,"exampleCost":0.02},"classroomParams":{"A":{"a":1,"b":4},"B":{"a":4,"b":1},"C":{"a":2,"b":8},"D":{"a":8,"b":2}},"conditions":["nonSeqFull","nonSeqPartial","seqNoFeedback","seqFeedback"],"classroomPairings":[["A","B"],["C","D"]],"coinWeights":[0.2,0.5,0.8],"subjectId":"A181HHZC94KPZR","assignmentId":"308XBLVESJQ0Y84KQ8KMT5MGORBBRP","hitId":"3IH9TRB0FBLK6RLF7MSMKICTGYN1IU","url":"https://gershmanlab.com/experiments/alicia/teaching/experiment/?hitId=3IH9TRB0FBLK6RLF7MSMKICTGYN1IU&workerId=A181HHZC94KPZR&assignmentId=308XBLVESJQ0Y84KQ8KMT5MGORBBRP&a=EB803&tp_a=EB803&b=308XBLVESJQ0Y84KQ8KMT5MGORBBRP&tp_b=308XBLVESJQ0Y84KQ8KMT5MGORBBRP&c=365633&tp_c=365633","heads":23,"tails":2,"studentIndex":6,"studentTrueHypers":{"a":4,"b":1},"studentGuess":0.9,"delta":0.7,"totalExamples":25,"bonus":0,"bonusSoFar":0},{"rt":null,"stimulus":"Sending examples to student... ","response":null,"trial_type":"html-keyboard-response","trial_index":58,"time_elapsed":1203554,"internal_node_id":"0.0-57.0","params":{"nStudents":24,"maxFlips":25,"completionMinutes":45,"basePay":8,"maxBonus":9,"perTrialBonus":0.5,"perTrialBonusThreshold":0.05,"exampleCost":0.02},"classroomParams":{"A":{"a":1,"b":4},"B":{"a":4,"b":1},"C":{"a":2,"b":8},"D":{"a":8,"b":2}},"conditions":["nonSeqFull","nonSeqPartial","seqNoFeedback","seqFeedback"],"classroomPairings":[["A","B"],["C","D"]],"coinWeights":[0.2,0.5,0.8],"subjectId":"A181HHZC94KPZR","assignmentId":"308XBLVESJQ0Y84KQ8KMT5MGORBBRP","hitId":"3IH9TRB0FBLK6RLF7MSMKICTGYN1IU","url":"https://gershmanlab.com/experiments/alicia/teaching/experiment/?hitId=3IH9TRB0FBLK6RLF7MSMKICTGYN1IU&workerId=A181HHZC94KPZR&assignmentId=308XBLVESJQ0Y84KQ8KMT5MGORBBRP&a=EB803&tp_a=EB803&b=308XBLVESJQ0Y84KQ8KMT5MGORBBRP&tp_b=308XBLVESJQ0Y84KQ8KMT5MGORBBRP&c=365633&tp_c=365633"},{"rt":null,"stimulus":"Examples sent to student! Waiting for student...","response":null,"trial_type":"html-keyboard-response","trial_index":59,"time_elapsed":1207563,"internal_node_id":"0.0-58.0","params":{"nStudents":24,"maxFlips":25,"completionMinutes":45,"basePay":8,"maxBonus":9,"perTrialBonus":0.5,"perTrialBonusThreshold":0.05,"exampleCost":0.02},"classroomParams":{"A":{"a":1,"b":4},"B":{"a":4,"b":1},"C":{"a":2,"b":8},"D":{"a":8,"b":2}},"conditions":["nonSeqFull","nonSeqPartial","seqNoFeedback","seqFeedback"],"classroomPairings":[["A","B"],["C","D"]],"coinWeights":[0.2,0.5,0.8],"subjectId":"A181HHZC94KPZR","assignmentId":"308XBLVESJQ0Y84KQ8KMT5MGORBBRP","hitId":"3IH9TRB0FBLK6RLF7MSMKICTGYN1IU","url":"https://gershmanlab.com/experiments/alicia/teaching/experiment/?hitId=3IH9TRB0FBLK6RLF7MSMKICTGYN1IU&workerId=A181HHZC94KPZR&assignmentId=308XBLVESJQ0Y84KQ8KMT5MGORBBRP&a=EB803&tp_a=EB803&b=308XBLVESJQ0Y84KQ8KMT5MGORBBRP&tp_b=308XBLVESJQ0Y84KQ8KMT5MGORBBRP&c=365633&tp_c=365633"},{"rt":5012,"stimulus":"\n                <p>Student's guess for coin weight: <b style=\"color:Tomato;\">0.90</b></p>\n                <p>You received a bonus of <b>$0</b>. Total bonus so far: <b>$0.00</b></b></p>\n                <p></p>\n                <p>Press any key to continue.</p>\n                ","response":"enter","trial_type":"html-keyboard-response","trial_index":60,"time_elapsed":1212576,"internal_node_id":"0.0-59.0","params":{"nStudents":24,"maxFlips":25,"completionMinutes":45,"basePay":8,"maxBonus":9,"perTrialBonus":0.5,"perTrialBonusThreshold":0.05,"exampleCost":0.02},"classroomParams":{"A":{"a":1,"b":4},"B":{"a":4,"b":1},"C":{"a":2,"b":8},"D":{"a":8,"b":2}},"conditions":["nonSeqFull","nonSeqPartial","seqNoFeedback","seqFeedback"],"classroomPairings":[["A","B"],["C","D"]],"coinWeights":[0.2,0.5,0.8],"subjectId":"A181HHZC94KPZR","assignmentId":"308XBLVESJQ0Y84KQ8KMT5MGORBBRP","hitId":"3IH9TRB0FBLK6RLF7MSMKICTGYN1IU","url":"https://gershmanlab.com/experiments/alicia/teaching/experiment/?hitId=3IH9TRB0FBLK6RLF7MSMKICTGYN1IU&workerId=A181HHZC94KPZR&assignmentId=308XBLVESJQ0Y84KQ8KMT5MGORBBRP&a=EB803&tp_a=EB803&b=308XBLVESJQ0Y84KQ8KMT5MGORBBRP&tp_b=308XBLVESJQ0Y84KQ8KMT5MGORBBRP&c=365633&tp_c=365633"},{"rt":null,"stimulus":"<div style=\"font-size:60px;\">Next student</div>","response":null,"trial_type":"html-keyboard-response","trial_index":61,"time_elapsed":1214590,"internal_node_id":"0.0-60.0-0.0","params":{"nStudents":24,"maxFlips":25,"completionMinutes":45,"basePay":8,"maxBonus":9,"perTrialBonus":0.5,"perTrialBonusThreshold":0.05,"exampleCost":0.02},"classroomParams":{"A":{"a":1,"b":4},"B":{"a":4,"b":1},"C":{"a":2,"b":8},"D":{"a":8,"b":2}},"conditions":["nonSeqFull","nonSeqPartial","seqNoFeedback","seqFeedback"],"classroomPairings":[["A","B"],["C","D"]],"coinWeights":[0.2,0.5,0.8],"subjectId":"A181HHZC94KPZR","assignmentId":"308XBLVESJQ0Y84KQ8KMT5MGORBBRP","hitId":"3IH9TRB0FBLK6RLF7MSMKICTGYN1IU","url":"https://gershmanlab.com/experiments/alicia/teaching/experiment/?hitId=3IH9TRB0FBLK6RLF7MSMKICTGYN1IU&workerId=A181HHZC94KPZR&assignmentId=308XBLVESJQ0Y84KQ8KMT5MGORBBRP&a=EB803&tp_a=EB803&b=308XBLVESJQ0Y84KQ8KMT5MGORBBRP&tp_b=308XBLVESJQ0Y84KQ8KMT5MGORBBRP&c=365633&tp_c=365633"},{"rt":7052,"stimulus":"\n            <h4 style=\"color:Orange;\">Student 8</h4>\n            <h2>The weight of your coin is <b style=\"color:Tomato;\">0.5</b>.</h2>\n            <p>In this block, you will be giving <b>one</b> set of examples to Student 8.</p>\n                <p>You will receive feedback at the end of the block.</p>\n            <p></p>","response":0,"trial_type":"html-button-response","trial_index":62,"time_elapsed":1221642,"internal_node_id":"0.0-61.0","params":{"nStudents":24,"maxFlips":25,"completionMinutes":45,"basePay":8,"maxBonus":9,"perTrialBonus":0.5,"perTrialBonusThreshold":0.05,"exampleCost":0.02},"classroomParams":{"A":{"a":1,"b":4},"B":{"a":4,"b":1},"C":{"a":2,"b":8},"D":{"a":8,"b":2}},"conditions":["nonSeqFull","nonSeqPartial","seqNoFeedback","seqFeedback"],"classroomPairings":[["A","B"],["C","D"]],"coinWeights":[0.2,0.5,0.8],"subjectId":"A181HHZC94KPZR","assignmentId":"308XBLVESJQ0Y84KQ8KMT5MGORBBRP","hitId":"3IH9TRB0FBLK6RLF7MSMKICTGYN1IU","url":"https://gershmanlab.com/experiments/alicia/teaching/experiment/?hitId=3IH9TRB0FBLK6RLF7MSMKICTGYN1IU&workerId=A181HHZC94KPZR&assignmentId=308XBLVESJQ0Y84KQ8KMT5MGORBBRP&a=EB803&tp_a=EB803&b=308XBLVESJQ0Y84KQ8KMT5MGORBBRP&tp_b=308XBLVESJQ0Y84KQ8KMT5MGORBBRP&c=365633&tp_c=365633"},{"rt":11408,"response":{"heads":"5","tails":"5"},"type":"response","condition":"nonSeqPartial","trueTheta":0.5,"classrooms":["C","D"],"studentTrueClassroom":"C","exampleSet":"first","trial_type":"survey-html-form","trial_index":63,"time_elapsed":1233050,"internal_node_id":"0.0-62.0-0.0","params":{"nStudents":24,"maxFlips":25,"completionMinutes":45,"basePay":8,"maxBonus":9,"perTrialBonus":0.5,"perTrialBonusThreshold":0.05,"exampleCost":0.02},"classroomParams":{"A":{"a":1,"b":4},"B":{"a":4,"b":1},"C":{"a":2,"b":8},"D":{"a":8,"b":2}},"conditions":["nonSeqFull","nonSeqPartial","seqNoFeedback","seqFeedback"],"classroomPairings":[["A","B"],["C","D"]],"coinWeights":[0.2,0.5,0.8],"subjectId":"A181HHZC94KPZR","assignmentId":"308XBLVESJQ0Y84KQ8KMT5MGORBBRP","hitId":"3IH9TRB0FBLK6RLF7MSMKICTGYN1IU","url":"https://gershmanlab.com/experiments/alicia/teaching/experiment/?hitId=3IH9TRB0FBLK6RLF7MSMKICTGYN1IU&workerId=A181HHZC94KPZR&assignmentId=308XBLVESJQ0Y84KQ8KMT5MGORBBRP&a=EB803&tp_a=EB803&b=308XBLVESJQ0Y84KQ8KMT5MGORBBRP&tp_b=308XBLVESJQ0Y84KQ8KMT5MGORBBRP&c=365633&tp_c=365633","heads":5,"tails":5,"studentIndex":7,"studentTrueHypers":{"a":2,"b":8},"studentGuess":0.35,"delta":0.15000000000000002,"totalExamples":10,"bonus":0,"bonusSoFar":0},{"rt":null,"stimulus":"Sending examples to student... ","response":null,"trial_type":"html-keyboard-response","trial_index":64,"time_elapsed":1235066,"internal_node_id":"0.0-63.0","params":{"nStudents":24,"maxFlips":25,"completionMinutes":45,"basePay":8,"maxBonus":9,"perTrialBonus":0.5,"perTrialBonusThreshold":0.05,"exampleCost":0.02},"classroomParams":{"A":{"a":1,"b":4},"B":{"a":4,"b":1},"C":{"a":2,"b":8},"D":{"a":8,"b":2}},"conditions":["nonSeqFull","nonSeqPartial","seqNoFeedback","seqFeedback"],"classroomPairings":[["A","B"],["C","D"]],"coinWeights":[0.2,0.5,0.8],"subjectId":"A181HHZC94KPZR","assignmentId":"308XBLVESJQ0Y84KQ8KMT5MGORBBRP","hitId":"3IH9TRB0FBLK6RLF7MSMKICTGYN1IU","url":"https://gershmanlab.com/experiments/alicia/teaching/experiment/?hitId=3IH9TRB0FBLK6RLF7MSMKICTGYN1IU&workerId=A181HHZC94KPZR&assignmentId=308XBLVESJQ0Y84KQ8KMT5MGORBBRP&a=EB803&tp_a=EB803&b=308XBLVESJQ0Y84KQ8KMT5MGORBBRP&tp_b=308XBLVESJQ0Y84KQ8KMT5MGORBBRP&c=365633&tp_c=365633"},{"rt":null,"stimulus":"Examples sent to student! Waiting for student...","response":null,"trial_type":"html-keyboard-response","trial_index":65,"time_elapsed":1240577,"internal_node_id":"0.0-64.0","params":{"nStudents":24,"maxFlips":25,"completionMinutes":45,"basePay":8,"maxBonus":9,"perTrialBonus":0.5,"perTrialBonusThreshold":0.05,"exampleCost":0.02},"classroomParams":{"A":{"a":1,"b":4},"B":{"a":4,"b":1},"C":{"a":2,"b":8},"D":{"a":8,"b":2}},"conditions":["nonSeqFull","nonSeqPartial","seqNoFeedback","seqFeedback"],"classroomPairings":[["A","B"],["C","D"]],"coinWeights":[0.2,0.5,0.8],"subjectId":"A181HHZC94KPZR","assignmentId":"308XBLVESJQ0Y84KQ8KMT5MGORBBRP","hitId":"3IH9TRB0FBLK6RLF7MSMKICTGYN1IU","url":"https://gershmanlab.com/experiments/alicia/teaching/experiment/?hitId=3IH9TRB0FBLK6RLF7MSMKICTGYN1IU&workerId=A181HHZC94KPZR&assignmentId=308XBLVESJQ0Y84KQ8KMT5MGORBBRP&a=EB803&tp_a=EB803&b=308XBLVESJQ0Y84KQ8KMT5MGORBBRP&tp_b=308XBLVESJQ0Y84KQ8KMT5MGORBBRP&c=365633&tp_c=365633"},{"rt":2521,"stimulus":"\n                <p>Student's guess for coin weight: <b style=\"color:Tomato;\">0.35</b></p>\n                <p>You received a bonus of <b>$0</b>. Total bonus so far: <b>$0.00</b></b></p>\n                <p></p>\n                <p>Press any key to continue.</p>\n                ","response":"enter","trial_type":"html-keyboard-response","trial_index":66,"time_elapsed":1243098,"internal_node_id":"0.0-65.0","params":{"nStudents":24,"maxFlips":25,"completionMinutes":45,"basePay":8,"maxBonus":9,"perTrialBonus":0.5,"perTrialBonusThreshold":0.05,"exampleCost":0.02},"classroomParams":{"A":{"a":1,"b":4},"B":{"a":4,"b":1},"C":{"a":2,"b":8},"D":{"a":8,"b":2}},"conditions":["nonSeqFull","nonSeqPartial","seqNoFeedback","seqFeedback"],"classroomPairings":[["A","B"],["C","D"]],"coinWeights":[0.2,0.5,0.8],"subjectId":"A181HHZC94KPZR","assignmentId":"308XBLVESJQ0Y84KQ8KMT5MGORBBRP","hitId":"3IH9TRB0FBLK6RLF7MSMKICTGYN1IU","url":"https://gershmanlab.com/experiments/alicia/teaching/experiment/?hitId=3IH9TRB0FBLK6RLF7MSMKICTGYN1IU&workerId=A181HHZC94KPZR&assignmentId=308XBLVESJQ0Y84KQ8KMT5MGORBBRP&a=EB803&tp_a=EB803&b=308XBLVESJQ0Y84KQ8KMT5MGORBBRP&tp_b=308XBLVESJQ0Y84KQ8KMT5MGORBBRP&c=365633&tp_c=365633"},{"rt":null,"stimulus":"<div style=\"font-size:60px;\">Next student</div>","response":null,"trial_type":"html-keyboard-response","trial_index":67,"time_elapsed":1245603,"internal_node_id":"0.0-66.0-0.0","params":{"nStudents":24,"maxFlips":25,"completionMinutes":45,"basePay":8,"maxBonus":9,"perTrialBonus":0.5,"perTrialBonusThreshold":0.05,"exampleCost":0.02},"classroomParams":{"A":{"a":1,"b":4},"B":{"a":4,"b":1},"C":{"a":2,"b":8},"D":{"a":8,"b":2}},"conditions":["nonSeqFull","nonSeqPartial","seqNoFeedback","seqFeedback"],"classroomPairings":[["A","B"],["C","D"]],"coinWeights":[0.2,0.5,0.8],"subjectId":"A181HHZC94KPZR","assignmentId":"308XBLVESJQ0Y84KQ8KMT5MGORBBRP","hitId":"3IH9TRB0FBLK6RLF7MSMKICTGYN1IU","url":"https://gershmanlab.com/experiments/alicia/teaching/experiment/?hitId=3IH9TRB0FBLK6RLF7MSMKICTGYN1IU&workerId=A181HHZC94KPZR&assignmentId=308XBLVESJQ0Y84KQ8KMT5MGORBBRP&a=EB803&tp_a=EB803&b=308XBLVESJQ0Y84KQ8KMT5MGORBBRP&tp_b=308XBLVESJQ0Y84KQ8KMT5MGORBBRP&c=365633&tp_c=365633"},{"rt":2627,"stimulus":"\n            <h4 style=\"color:Orange;\">Student 9</h4>\n            <h2>The weight of your coin is <b style=\"color:Tomato;\">0.5</b>.</h2>\n            <p>In this block, you will be giving <b>one</b> set of examples to Student 9.</p>\n                <p>You will receive feedback at the end of the block.</p>\n            <p></p>","response":0,"trial_type":"html-button-response","trial_index":68,"time_elapsed":1248231,"internal_node_id":"0.0-67.0","params":{"nStudents":24,"maxFlips":25,"completionMinutes":45,"basePay":8,"maxBonus":9,"perTrialBonus":0.5,"perTrialBonusThreshold":0.05,"exampleCost":0.02},"classroomParams":{"A":{"a":1,"b":4},"B":{"a":4,"b":1},"C":{"a":2,"b":8},"D":{"a":8,"b":2}},"conditions":["nonSeqFull","nonSeqPartial","seqNoFeedback","seqFeedback"],"classroomPairings":[["A","B"],["C","D"]],"coinWeights":[0.2,0.5,0.8],"subjectId":"A181HHZC94KPZR","assignmentId":"308XBLVESJQ0Y84KQ8KMT5MGORBBRP","hitId":"3IH9TRB0FBLK6RLF7MSMKICTGYN1IU","url":"https://gershmanlab.com/experiments/alicia/teaching/experiment/?hitId=3IH9TRB0FBLK6RLF7MSMKICTGYN1IU&workerId=A181HHZC94KPZR&assignmentId=308XBLVESJQ0Y84KQ8KMT5MGORBBRP&a=EB803&tp_a=EB803&b=308XBLVESJQ0Y84KQ8KMT5MGORBBRP&tp_b=308XBLVESJQ0Y84KQ8KMT5MGORBBRP&c=365633&tp_c=365633"},{"rt":18133,"response":{"heads":"21","tails":"4"},"type":"response","condition":"nonSeqFull","trueTheta":0.5,"classrooms":["A","B"],"studentTrueClassroom":"B","exampleSet":"first","trial_type":"survey-html-form","trial_index":69,"time_elapsed":1266364,"internal_node_id":"0.0-68.0-0.0","params":{"nStudents":24,"maxFlips":25,"completionMinutes":45,"basePay":8,"maxBonus":9,"perTrialBonus":0.5,"perTrialBonusThreshold":0.05,"exampleCost":0.02},"classroomParams":{"A":{"a":1,"b":4},"B":{"a":4,"b":1},"C":{"a":2,"b":8},"D":{"a":8,"b":2}},"conditions":["nonSeqFull","nonSeqPartial","seqNoFeedback","seqFeedback"],"classroomPairings":[["A","B"],["C","D"]],"coinWeights":[0.2,0.5,0.8],"subjectId":"A181HHZC94KPZR","assignmentId":"308XBLVESJQ0Y84KQ8KMT5MGORBBRP","hitId":"3IH9TRB0FBLK6RLF7MSMKICTGYN1IU","url":"https://gershmanlab.com/experiments/alicia/teaching/experiment/?hitId=3IH9TRB0FBLK6RLF7MSMKICTGYN1IU&workerId=A181HHZC94KPZR&assignmentId=308XBLVESJQ0Y84KQ8KMT5MGORBBRP&a=EB803&tp_a=EB803&b=308XBLVESJQ0Y84KQ8KMT5MGORBBRP&tp_b=308XBLVESJQ0Y84KQ8KMT5MGORBBRP&c=365633&tp_c=365633","heads":21,"tails":4,"studentIndex":8,"studentTrueHypers":{"a":4,"b":1},"studentGuess":0.8333333333333334,"delta":0.33333333333333337,"totalExamples":25,"bonus":0,"bonusSoFar":0},{"rt":null,"stimulus":"Sending examples to student... ","response":null,"trial_type":"html-keyboard-response","trial_index":70,"time_elapsed":1268129,"internal_node_id":"0.0-69.0","params":{"nStudents":24,"maxFlips":25,"completionMinutes":45,"basePay":8,"maxBonus":9,"perTrialBonus":0.5,"perTrialBonusThreshold":0.05,"exampleCost":0.02},"classroomParams":{"A":{"a":1,"b":4},"B":{"a":4,"b":1},"C":{"a":2,"b":8},"D":{"a":8,"b":2}},"conditions":["nonSeqFull","nonSeqPartial","seqNoFeedback","seqFeedback"],"classroomPairings":[["A","B"],["C","D"]],"coinWeights":[0.2,0.5,0.8],"subjectId":"A181HHZC94KPZR","assignmentId":"308XBLVESJQ0Y84KQ8KMT5MGORBBRP","hitId":"3IH9TRB0FBLK6RLF7MSMKICTGYN1IU","url":"https://gershmanlab.com/experiments/alicia/teaching/experiment/?hitId=3IH9TRB0FBLK6RLF7MSMKICTGYN1IU&workerId=A181HHZC94KPZR&assignmentId=308XBLVESJQ0Y84KQ8KMT5MGORBBRP&a=EB803&tp_a=EB803&b=308XBLVESJQ0Y84KQ8KMT5MGORBBRP&tp_b=308XBLVESJQ0Y84KQ8KMT5MGORBBRP&c=365633&tp_c=365633"},{"rt":null,"stimulus":"Examples sent to student! Waiting for student...","response":null,"trial_type":"html-keyboard-response","trial_index":71,"time_elapsed":1272636,"internal_node_id":"0.0-70.0","params":{"nStudents":24,"maxFlips":25,"completionMinutes":45,"basePay":8,"maxBonus":9,"perTrialBonus":0.5,"perTrialBonusThreshold":0.05,"exampleCost":0.02},"classroomParams":{"A":{"a":1,"b":4},"B":{"a":4,"b":1},"C":{"a":2,"b":8},"D":{"a":8,"b":2}},"conditions":["nonSeqFull","nonSeqPartial","seqNoFeedback","seqFeedback"],"classroomPairings":[["A","B"],["C","D"]],"coinWeights":[0.2,0.5,0.8],"subjectId":"A181HHZC94KPZR","assignmentId":"308XBLVESJQ0Y84KQ8KMT5MGORBBRP","hitId":"3IH9TRB0FBLK6RLF7MSMKICTGYN1IU","url":"https://gershmanlab.com/experiments/alicia/teaching/experiment/?hitId=3IH9TRB0FBLK6RLF7MSMKICTGYN1IU&workerId=A181HHZC94KPZR&assignmentId=308XBLVESJQ0Y84KQ8KMT5MGORBBRP&a=EB803&tp_a=EB803&b=308XBLVESJQ0Y84KQ8KMT5MGORBBRP&tp_b=308XBLVESJQ0Y84KQ8KMT5MGORBBRP&c=365633&tp_c=365633"},{"rt":5026,"stimulus":"\n                <p>Student's guess for coin weight: <b style=\"color:Tomato;\">0.83</b></p>\n                <p>You received a bonus of <b>$0</b>. Total bonus so far: <b>$0.00</b></b></p>\n                <p></p>\n                <p>Press any key to continue.</p>\n                ","response":"enter","trial_type":"html-keyboard-response","trial_index":72,"time_elapsed":1277662,"internal_node_id":"0.0-71.0","params":{"nStudents":24,"maxFlips":25,"completionMinutes":45,"basePay":8,"maxBonus":9,"perTrialBonus":0.5,"perTrialBonusThreshold":0.05,"exampleCost":0.02},"classroomParams":{"A":{"a":1,"b":4},"B":{"a":4,"b":1},"C":{"a":2,"b":8},"D":{"a":8,"b":2}},"conditions":["nonSeqFull","nonSeqPartial","seqNoFeedback","seqFeedback"],"classroomPairings":[["A","B"],["C","D"]],"coinWeights":[0.2,0.5,0.8],"subjectId":"A181HHZC94KPZR","assignmentId":"308XBLVESJQ0Y84KQ8KMT5MGORBBRP","hitId":"3IH9TRB0FBLK6RLF7MSMKICTGYN1IU","url":"https://gershmanlab.com/experiments/alicia/teaching/experiment/?hitId=3IH9TRB0FBLK6RLF7MSMKICTGYN1IU&workerId=A181HHZC94KPZR&assignmentId=308XBLVESJQ0Y84KQ8KMT5MGORBBRP&a=EB803&tp_a=EB803&b=308XBLVESJQ0Y84KQ8KMT5MGORBBRP&tp_b=308XBLVESJQ0Y84KQ8KMT5MGORBBRP&c=365633&tp_c=365633"},{"rt":null,"stimulus":"<div style=\"font-size:60px;\">Next student</div>","response":null,"trial_type":"html-keyboard-response","trial_index":73,"time_elapsed":1280677,"internal_node_id":"0.0-72.0-0.0","params":{"nStudents":24,"maxFlips":25,"completionMinutes":45,"basePay":8,"maxBonus":9,"perTrialBonus":0.5,"perTrialBonusThreshold":0.05,"exampleCost":0.02},"classroomParams":{"A":{"a":1,"b":4},"B":{"a":4,"b":1},"C":{"a":2,"b":8},"D":{"a":8,"b":2}},"conditions":["nonSeqFull","nonSeqPartial","seqNoFeedback","seqFeedback"],"classroomPairings":[["A","B"],["C","D"]],"coinWeights":[0.2,0.5,0.8],"subjectId":"A181HHZC94KPZR","assignmentId":"308XBLVESJQ0Y84KQ8KMT5MGORBBRP","hitId":"3IH9TRB0FBLK6RLF7MSMKICTGYN1IU","url":"https://gershmanlab.com/experiments/alicia/teaching/experiment/?hitId=3IH9TRB0FBLK6RLF7MSMKICTGYN1IU&workerId=A181HHZC94KPZR&assignmentId=308XBLVESJQ0Y84KQ8KMT5MGORBBRP&a=EB803&tp_a=EB803&b=308XBLVESJQ0Y84KQ8KMT5MGORBBRP&tp_b=308XBLVESJQ0Y84KQ8KMT5MGORBBRP&c=365633&tp_c=365633"},{"rt":7400,"stimulus":"\n            <h4 style=\"color:Orange;\">Student 10</h4>\n            <h2>The weight of your coin is <b style=\"color:Tomato;\">0.8</b>.</h2>\n            <p>In this block, you will be giving <b>two</b> sets of examples to Student 10.</p>\n                <p>You will see the student's guess after the first set of examples. You will also receive feedback at the end of the block.</p>\n            <p>To earn the highest bonus, you will have to <b>take into consideration the student's guess</b> when you choose your second set of examples.</p>","response":0,"trial_type":"html-button-response","trial_index":74,"time_elapsed":1288077,"internal_node_id":"0.0-73.0","params":{"nStudents":24,"maxFlips":25,"completionMinutes":45,"basePay":8,"maxBonus":9,"perTrialBonus":0.5,"perTrialBonusThreshold":0.05,"exampleCost":0.02},"classroomParams":{"A":{"a":1,"b":4},"B":{"a":4,"b":1},"C":{"a":2,"b":8},"D":{"a":8,"b":2}},"conditions":["nonSeqFull","nonSeqPartial","seqNoFeedback","seqFeedback"],"classroomPairings":[["A","B"],["C","D"]],"coinWeights":[0.2,0.5,0.8],"subjectId":"A181HHZC94KPZR","assignmentId":"308XBLVESJQ0Y84KQ8KMT5MGORBBRP","hitId":"3IH9TRB0FBLK6RLF7MSMKICTGYN1IU","url":"https://gershmanlab.com/experiments/alicia/teaching/experiment/?hitId=3IH9TRB0FBLK6RLF7MSMKICTGYN1IU&workerId=A181HHZC94KPZR&assignmentId=308XBLVESJQ0Y84KQ8KMT5MGORBBRP&a=EB803&tp_a=EB803&b=308XBLVESJQ0Y84KQ8KMT5MGORBBRP&tp_b=308XBLVESJQ0Y84KQ8KMT5MGORBBRP&c=365633&tp_c=365633"},{"rt":19290,"response":{"heads":"24","tails":"1"},"type":"response","condition":"seqFeedback","trueTheta":0.8,"classrooms":["A","B"],"studentTrueClassroom":"A","exampleSet":"first","trial_type":"survey-html-form","trial_index":75,"time_elapsed":1307368,"internal_node_id":"0.0-74.0-0.0","params":{"nStudents":24,"maxFlips":25,"completionMinutes":45,"basePay":8,"maxBonus":9,"perTrialBonus":0.5,"perTrialBonusThreshold":0.05,"exampleCost":0.02},"classroomParams":{"A":{"a":1,"b":4},"B":{"a":4,"b":1},"C":{"a":2,"b":8},"D":{"a":8,"b":2}},"conditions":["nonSeqFull","nonSeqPartial","seqNoFeedback","seqFeedback"],"classroomPairings":[["A","B"],["C","D"]],"coinWeights":[0.2,0.5,0.8],"subjectId":"A181HHZC94KPZR","assignmentId":"308XBLVESJQ0Y84KQ8KMT5MGORBBRP","hitId":"3IH9TRB0FBLK6RLF7MSMKICTGYN1IU","url":"https://gershmanlab.com/experiments/alicia/teaching/experiment/?hitId=3IH9TRB0FBLK6RLF7MSMKICTGYN1IU&workerId=A181HHZC94KPZR&assignmentId=308XBLVESJQ0Y84KQ8KMT5MGORBBRP&a=EB803&tp_a=EB803&b=308XBLVESJQ0Y84KQ8KMT5MGORBBRP&tp_b=308XBLVESJQ0Y84KQ8KMT5MGORBBRP&c=365633&tp_c=365633","heads":24,"tails":1,"studentIndex":9,"studentTrueHypers":{"a":1,"b":4},"studentGuess":0.8333333333333334,"delta":0.033333333333333326,"totalExamples":25,"bonusSoFar":0},{"rt":null,"stimulus":"Sending examples to student... ","response":null,"trial_type":"html-keyboard-response","trial_index":76,"time_elapsed":1308885,"internal_node_id":"0.0-75.0","params":{"nStudents":24,"maxFlips":25,"completionMinutes":45,"basePay":8,"maxBonus":9,"perTrialBonus":0.5,"perTrialBonusThreshold":0.05,"exampleCost":0.02},"classroomParams":{"A":{"a":1,"b":4},"B":{"a":4,"b":1},"C":{"a":2,"b":8},"D":{"a":8,"b":2}},"conditions":["nonSeqFull","nonSeqPartial","seqNoFeedback","seqFeedback"],"classroomPairings":[["A","B"],["C","D"]],"coinWeights":[0.2,0.5,0.8],"subjectId":"A181HHZC94KPZR","assignmentId":"308XBLVESJQ0Y84KQ8KMT5MGORBBRP","hitId":"3IH9TRB0FBLK6RLF7MSMKICTGYN1IU","url":"https://gershmanlab.com/experiments/alicia/teaching/experiment/?hitId=3IH9TRB0FBLK6RLF7MSMKICTGYN1IU&workerId=A181HHZC94KPZR&assignmentId=308XBLVESJQ0Y84KQ8KMT5MGORBBRP&a=EB803&tp_a=EB803&b=308XBLVESJQ0Y84KQ8KMT5MGORBBRP&tp_b=308XBLVESJQ0Y84KQ8KMT5MGORBBRP&c=365633&tp_c=365633"},{"rt":null,"stimulus":"Examples sent to student! Waiting for student...","response":null,"trial_type":"html-keyboard-response","trial_index":77,"time_elapsed":1314396,"internal_node_id":"0.0-76.0","params":{"nStudents":24,"maxFlips":25,"completionMinutes":45,"basePay":8,"maxBonus":9,"perTrialBonus":0.5,"perTrialBonusThreshold":0.05,"exampleCost":0.02},"classroomParams":{"A":{"a":1,"b":4},"B":{"a":4,"b":1},"C":{"a":2,"b":8},"D":{"a":8,"b":2}},"conditions":["nonSeqFull","nonSeqPartial","seqNoFeedback","seqFeedback"],"classroomPairings":[["A","B"],["C","D"]],"coinWeights":[0.2,0.5,0.8],"subjectId":"A181HHZC94KPZR","assignmentId":"308XBLVESJQ0Y84KQ8KMT5MGORBBRP","hitId":"3IH9TRB0FBLK6RLF7MSMKICTGYN1IU","url":"https://gershmanlab.com/experiments/alicia/teaching/experiment/?hitId=3IH9TRB0FBLK6RLF7MSMKICTGYN1IU&workerId=A181HHZC94KPZR&assignmentId=308XBLVESJQ0Y84KQ8KMT5MGORBBRP&a=EB803&tp_a=EB803&b=308XBLVESJQ0Y84KQ8KMT5MGORBBRP&tp_b=308XBLVESJQ0Y84KQ8KMT5MGORBBRP&c=365633&tp_c=365633"},{"rt":3590,"stimulus":"\n                <p>Student's guess for coin weight: <b style=\"color:Tomato;\">0.83</b></p>\n                <p></b></p>\n                <p>You will now send another set of examples to your student. <b>Remember to take your student's guess into consideration so that you can earn the highest bonus possible!</b> </p>\n                <p>Press any key to continue.</p>\n                ","response":"enter","trial_type":"html-keyboard-response","trial_index":78,"time_elapsed":1317986,"internal_node_id":"0.0-77.0","params":{"nStudents":24,"maxFlips":25,"completionMinutes":45,"basePay":8,"maxBonus":9,"perTrialBonus":0.5,"perTrialBonusThreshold":0.05,"exampleCost":0.02},"classroomParams":{"A":{"a":1,"b":4},"B":{"a":4,"b":1},"C":{"a":2,"b":8},"D":{"a":8,"b":2}},"conditions":["nonSeqFull","nonSeqPartial","seqNoFeedback","seqFeedback"],"classroomPairings":[["A","B"],["C","D"]],"coinWeights":[0.2,0.5,0.8],"subjectId":"A181HHZC94KPZR","assignmentId":"308XBLVESJQ0Y84KQ8KMT5MGORBBRP","hitId":"3IH9TRB0FBLK6RLF7MSMKICTGYN1IU","url":"https://gershmanlab.com/experiments/alicia/teaching/experiment/?hitId=3IH9TRB0FBLK6RLF7MSMKICTGYN1IU&workerId=A181HHZC94KPZR&assignmentId=308XBLVESJQ0Y84KQ8KMT5MGORBBRP&a=EB803&tp_a=EB803&b=308XBLVESJQ0Y84KQ8KMT5MGORBBRP&tp_b=308XBLVESJQ0Y84KQ8KMT5MGORBBRP&c=365633&tp_c=365633"},{"rt":6600,"response":{"heads":"24","tails":"1"},"type":"response","condition":"seqFeedback","trueTheta":0.8,"classrooms":["A","B"],"studentTrueClassroom":"A","exampleSet":"second","trial_type":"survey-html-form","trial_index":79,"time_elapsed":1324587,"internal_node_id":"0.0-78.0-0.0","params":{"nStudents":24,"maxFlips":25,"completionMinutes":45,"basePay":8,"maxBonus":9,"perTrialBonus":0.5,"perTrialBonusThreshold":0.05,"exampleCost":0.02},"classroomParams":{"A":{"a":1,"b":4},"B":{"a":4,"b":1},"C":{"a":2,"b":8},"D":{"a":8,"b":2}},"conditions":["nonSeqFull","nonSeqPartial","seqNoFeedback","seqFeedback"],"classroomPairings":[["A","B"],["C","D"]],"coinWeights":[0.2,0.5,0.8],"subjectId":"A181HHZC94KPZR","assignmentId":"308XBLVESJQ0Y84KQ8KMT5MGORBBRP","hitId":"3IH9TRB0FBLK6RLF7MSMKICTGYN1IU","url":"https://gershmanlab.com/experiments/alicia/teaching/experiment/?hitId=3IH9TRB0FBLK6RLF7MSMKICTGYN1IU&workerId=A181HHZC94KPZR&assignmentId=308XBLVESJQ0Y84KQ8KMT5MGORBBRP&a=EB803&tp_a=EB803&b=308XBLVESJQ0Y84KQ8KMT5MGORBBRP&tp_b=308XBLVESJQ0Y84KQ8KMT5MGORBBRP&c=365633&tp_c=365633","firstResponseHeads":24,"firstResponseTails":1,"secondResponseHeads":24,"secondResponseTails":1,"totalHeads":48,"totalTails":2,"studentIndex":9,"studentTrueHypers":{"a":1,"b":4},"studentGuess":0.8909090909090909,"delta":0.09090909090909083,"bonus":0,"bonusSoFar":0,"totalExamples":50},{"rt":null,"stimulus":"Sending examples to student... ","response":null,"trial_type":"html-keyboard-response","trial_index":80,"time_elapsed":1326591,"internal_node_id":"0.0-79.0","params":{"nStudents":24,"maxFlips":25,"completionMinutes":45,"basePay":8,"maxBonus":9,"perTrialBonus":0.5,"perTrialBonusThreshold":0.05,"exampleCost":0.02},"classroomParams":{"A":{"a":1,"b":4},"B":{"a":4,"b":1},"C":{"a":2,"b":8},"D":{"a":8,"b":2}},"conditions":["nonSeqFull","nonSeqPartial","seqNoFeedback","seqFeedback"],"classroomPairings":[["A","B"],["C","D"]],"coinWeights":[0.2,0.5,0.8],"subjectId":"A181HHZC94KPZR","assignmentId":"308XBLVESJQ0Y84KQ8KMT5MGORBBRP","hitId":"3IH9TRB0FBLK6RLF7MSMKICTGYN1IU","url":"https://gershmanlab.com/experiments/alicia/teaching/experiment/?hitId=3IH9TRB0FBLK6RLF7MSMKICTGYN1IU&workerId=A181HHZC94KPZR&assignmentId=308XBLVESJQ0Y84KQ8KMT5MGORBBRP&a=EB803&tp_a=EB803&b=308XBLVESJQ0Y84KQ8KMT5MGORBBRP&tp_b=308XBLVESJQ0Y84KQ8KMT5MGORBBRP&c=365633&tp_c=365633"},{"rt":null,"stimulus":"Examples sent to student! Waiting for student...","response":null,"trial_type":"html-keyboard-response","trial_index":81,"time_elapsed":1331602,"internal_node_id":"0.0-80.0","params":{"nStudents":24,"maxFlips":25,"completionMinutes":45,"basePay":8,"maxBonus":9,"perTrialBonus":0.5,"perTrialBonusThreshold":0.05,"exampleCost":0.02},"classroomParams":{"A":{"a":1,"b":4},"B":{"a":4,"b":1},"C":{"a":2,"b":8},"D":{"a":8,"b":2}},"conditions":["nonSeqFull","nonSeqPartial","seqNoFeedback","seqFeedback"],"classroomPairings":[["A","B"],["C","D"]],"coinWeights":[0.2,0.5,0.8],"subjectId":"A181HHZC94KPZR","assignmentId":"308XBLVESJQ0Y84KQ8KMT5MGORBBRP","hitId":"3IH9TRB0FBLK6RLF7MSMKICTGYN1IU","url":"https://gershmanlab.com/experiments/alicia/teaching/experiment/?hitId=3IH9TRB0FBLK6RLF7MSMKICTGYN1IU&workerId=A181HHZC94KPZR&assignmentId=308XBLVESJQ0Y84KQ8KMT5MGORBBRP&a=EB803&tp_a=EB803&b=308XBLVESJQ0Y84KQ8KMT5MGORBBRP&tp_b=308XBLVESJQ0Y84KQ8KMT5MGORBBRP&c=365633&tp_c=365633"},{"rt":5454,"stimulus":"\n                <p>Student 10's first guess for coin weight: <b style=\"color:Tomato\";>0.83</b></p>\n                <p>Student 10's second guess for coin weight: <b style=\"color:Tomato\";>0.89</b></p>\n                <p>You received a bonus of <b>$0.00</b> based on the student's second guess.</p>\n                <p>Total bonus so far: <b>$0.00</b></p>\n                <p>Press any key to continue.</p>\n                ","response":" ","trial_type":"html-keyboard-response","trial_index":82,"time_elapsed":1337057,"internal_node_id":"0.0-81.0","params":{"nStudents":24,"maxFlips":25,"completionMinutes":45,"basePay":8,"maxBonus":9,"perTrialBonus":0.5,"perTrialBonusThreshold":0.05,"exampleCost":0.02},"classroomParams":{"A":{"a":1,"b":4},"B":{"a":4,"b":1},"C":{"a":2,"b":8},"D":{"a":8,"b":2}},"conditions":["nonSeqFull","nonSeqPartial","seqNoFeedback","seqFeedback"],"classroomPairings":[["A","B"],["C","D"]],"coinWeights":[0.2,0.5,0.8],"subjectId":"A181HHZC94KPZR","assignmentId":"308XBLVESJQ0Y84KQ8KMT5MGORBBRP","hitId":"3IH9TRB0FBLK6RLF7MSMKICTGYN1IU","url":"https://gershmanlab.com/experiments/alicia/teaching/experiment/?hitId=3IH9TRB0FBLK6RLF7MSMKICTGYN1IU&workerId=A181HHZC94KPZR&assignmentId=308XBLVESJQ0Y84KQ8KMT5MGORBBRP&a=EB803&tp_a=EB803&b=308XBLVESJQ0Y84KQ8KMT5MGORBBRP&tp_b=308XBLVESJQ0Y84KQ8KMT5MGORBBRP&c=365633&tp_c=365633"},{"rt":null,"stimulus":"<div style=\"font-size:60px;\">Next student</div>","response":null,"trial_type":"html-keyboard-response","trial_index":83,"time_elapsed":1339573,"internal_node_id":"0.0-82.0-0.0","params":{"nStudents":24,"maxFlips":25,"completionMinutes":45,"basePay":8,"maxBonus":9,"perTrialBonus":0.5,"perTrialBonusThreshold":0.05,"exampleCost":0.02},"classroomParams":{"A":{"a":1,"b":4},"B":{"a":4,"b":1},"C":{"a":2,"b":8},"D":{"a":8,"b":2}},"conditions":["nonSeqFull","nonSeqPartial","seqNoFeedback","seqFeedback"],"classroomPairings":[["A","B"],["C","D"]],"coinWeights":[0.2,0.5,0.8],"subjectId":"A181HHZC94KPZR","assignmentId":"308XBLVESJQ0Y84KQ8KMT5MGORBBRP","hitId":"3IH9TRB0FBLK6RLF7MSMKICTGYN1IU","url":"https://gershmanlab.com/experiments/alicia/teaching/experiment/?hitId=3IH9TRB0FBLK6RLF7MSMKICTGYN1IU&workerId=A181HHZC94KPZR&assignmentId=308XBLVESJQ0Y84KQ8KMT5MGORBBRP&a=EB803&tp_a=EB803&b=308XBLVESJQ0Y84KQ8KMT5MGORBBRP&tp_b=308XBLVESJQ0Y84KQ8KMT5MGORBBRP&c=365633&tp_c=365633"},{"rt":10271,"stimulus":"\n            <h4 style=\"color:Orange;\">Student 11</h4>\n            <h2>The weight of your coin is <b style=\"color:Tomato;\">0.2</b>.</h2>\n            <p>In this block, you will be giving <b>one</b> set of examples to Student 11.</p>\n                <p>You will receive feedback at the end of the block.</p>\n            <p></p>","response":0,"trial_type":"html-button-response","trial_index":84,"time_elapsed":1349845,"internal_node_id":"0.0-83.0","params":{"nStudents":24,"maxFlips":25,"completionMinutes":45,"basePay":8,"maxBonus":9,"perTrialBonus":0.5,"perTrialBonusThreshold":0.05,"exampleCost":0.02},"classroomParams":{"A":{"a":1,"b":4},"B":{"a":4,"b":1},"C":{"a":2,"b":8},"D":{"a":8,"b":2}},"conditions":["nonSeqFull","nonSeqPartial","seqNoFeedback","seqFeedback"],"classroomPairings":[["A","B"],["C","D"]],"coinWeights":[0.2,0.5,0.8],"subjectId":"A181HHZC94KPZR","assignmentId":"308XBLVESJQ0Y84KQ8KMT5MGORBBRP","hitId":"3IH9TRB0FBLK6RLF7MSMKICTGYN1IU","url":"https://gershmanlab.com/experiments/alicia/teaching/experiment/?hitId=3IH9TRB0FBLK6RLF7MSMKICTGYN1IU&workerId=A181HHZC94KPZR&assignmentId=308XBLVESJQ0Y84KQ8KMT5MGORBBRP&a=EB803&tp_a=EB803&b=308XBLVESJQ0Y84KQ8KMT5MGORBBRP&tp_b=308XBLVESJQ0Y84KQ8KMT5MGORBBRP&c=365633&tp_c=365633"},{"rt":10690,"response":{"heads":"0","tails":"25"},"type":"response","condition":"nonSeqFull","trueTheta":0.2,"classrooms":["C","D"],"studentTrueClassroom":"D","exampleSet":"first","trial_type":"survey-html-form","trial_index":85,"time_elapsed":1360535,"internal_node_id":"0.0-84.0-0.0","params":{"nStudents":24,"maxFlips":25,"completionMinutes":45,"basePay":8,"maxBonus":9,"perTrialBonus":0.5,"perTrialBonusThreshold":0.05,"examp