[{"rt":2325,"stimulus":"Welcome to the experiment. Press any key to begin.","response":" ","trial_type":"html-keyboard-response","trial_index":0,"time_elapsed":2335,"internal_node_id":"0.0-0.0","params":{"nStudents":24,"maxFlips":25,"completionMinutes":45,"basePay":8,"maxBonus":9,"perTrialBonus":0.5,"perTrialBonusThreshold":0.05,"exampleCost":0.02},"classroomParams":{"A":{"a":1,"b":4},"B":{"a":4,"b":1},"C":{"a":2,"b":8},"D":{"a":8,"b":2}},"conditions":["nonSeqFull","nonSeqPartial","seqNoFeedback","seqFeedback"],"classroomPairings":[["A","B"],["C","D"]],"coinWeights":[0.2,0.5,0.8],"subjectId":"A1FVXS8IM5QYO8","assignmentId":"3JWH6J9I9TZFJACSX135KLH6NUMBN1","hitId":"3XUY87HIVP03YZXVLN9CW37DVI1MM2","url":"https://gershmanlab.com/experiments/alicia/teaching/experiment/?hitId=3XUY87HIVP03YZXVLN9CW37DVI1MM2&workerId=A1FVXS8IM5QYO8&assignmentId=3JWH6J9I9TZFJACSX135KLH6NUMBN1&a=I6WJ3&tp_a=I6WJ3&b=3JWH6J9I9TZFJACSX135KLH6NUMBN1&tp_b=3JWH6J9I9TZFJACSX135KLH6NUMBN1&c=365633&tp_c=365633"},{"rt":15431,"stimulus":"\n        <h3>Please read this consent agreement carefully before deciding whether to participate in this experiment.</h3>\n        <p><b>Purpose of the research:</b> To examine how people teach effectively.</p>\n        <p><b>What you will do in this research:</b> You will teach students the weights of different coins.</p>\n        <p><b>Time required:</b> This experiment will take 45 minutes to complete.</p>\n        <p><b>Risks:</b> There are no anticipated risks associated with participating in this study.             The effects of participating should be comparable to those you would experience from viewing a computer monitor             and using a mouse and keyboard for the duration of the experiment.</p>\n        <p><b>Benefits:</b> The study provides important information about the nature of teaching.</p>\n        <p><b>Compensation:</b> You will receive <b>$8</b> for completing the experiment and a performance bonus of up to <b>$9</b>.</p>\n        <p><b>Confidentiality:</b> Your participation in this study will remain confidential.             No personally identifiable information will be associated with your data.             Your de-identified data may be shared with other researchers and used in future projects.</p>\n        <p><b>Participation and withdrawal:</b> Your participation in this study is completely voluntary and             you may refuse to participate or you may choose to withdraw at any time without penalty or loss of\n            benefits to which you are otherwise entitled.</p>\n        <p><b>How to contact the researcher:</b> If you have questions or concerns about your participation            or payment, or want to request a summary of research findings, please contact\n            Alicia Chen, aliciachen@college.harvard.edu.</p>\n        <p><b>Whom to contact about your rights in this research:</b> For questions, concerns, suggestions,             or complaints that have not been or cannot be addressed by the researcher, or to report             research-related harm, please contact the Committee on the Use of Human Subjects in Research at Harvard University,             1414 Massachusetts Avenue, Second Floor, Cambridge, MA 02138. Phone: 617-496-2847. Email: cuhs@fas.harvard.edu.</p>\n        ","response":0,"trial_type":"html-button-response","trial_index":1,"time_elapsed":17769,"internal_node_id":"0.0-1.0","params":{"nStudents":24,"maxFlips":25,"completionMinutes":45,"basePay":8,"maxBonus":9,"perTrialBonus":0.5,"perTrialBonusThreshold":0.05,"exampleCost":0.02},"classroomParams":{"A":{"a":1,"b":4},"B":{"a":4,"b":1},"C":{"a":2,"b":8},"D":{"a":8,"b":2}},"conditions":["nonSeqFull","nonSeqPartial","seqNoFeedback","seqFeedback"],"classroomPairings":[["A","B"],["C","D"]],"coinWeights":[0.2,0.5,0.8],"subjectId":"A1FVXS8IM5QYO8","assignmentId":"3JWH6J9I9TZFJACSX135KLH6NUMBN1","hitId":"3XUY87HIVP03YZXVLN9CW37DVI1MM2","url":"https://gershmanlab.com/experiments/alicia/teaching/experiment/?hitId=3XUY87HIVP03YZXVLN9CW37DVI1MM2&workerId=A1FVXS8IM5QYO8&assignmentId=3JWH6J9I9TZFJACSX135KLH6NUMBN1&a=I6WJ3&tp_a=I6WJ3&b=3JWH6J9I9TZFJACSX135KLH6NUMBN1&tp_b=3JWH6J9I9TZFJACSX135KLH6NUMBN1&c=365633&tp_c=365633"},{"view_history":[{"page_index":0,"viewing_time":10860},{"page_index":1,"viewing_time":3204},{"page_index":2,"viewing_time":38466},{"page_index":3,"viewing_time":23205},{"page_index":4,"viewing_time":19504},{"page_index":5,"viewing_time":30029},{"page_index":6,"viewing_time":21969}],"rt":147241,"trial_type":"instructions","trial_index":2,"time_elapsed":165011,"internal_node_id":"0.0-2.0-0.0","params":{"nStudents":24,"maxFlips":25,"completionMinutes":45,"basePay":8,"maxBonus":9,"perTrialBonus":0.5,"perTrialBonusThreshold":0.05,"exampleCost":0.02},"classroomParams":{"A":{"a":1,"b":4},"B":{"a":4,"b":1},"C":{"a":2,"b":8},"D":{"a":8,"b":2}},"conditions":["nonSeqFull","nonSeqPartial","seqNoFeedback","seqFeedback"],"classroomPairings":[["A","B"],["C","D"]],"coinWeights":[0.2,0.5,0.8],"subjectId":"A1FVXS8IM5QYO8","assignmentId":"3JWH6J9I9TZFJACSX135KLH6NUMBN1","hitId":"3XUY87HIVP03YZXVLN9CW37DVI1MM2","url":"https://gershmanlab.com/experiments/alicia/teaching/experiment/?hitId=3XUY87HIVP03YZXVLN9CW37DVI1MM2&workerId=A1FVXS8IM5QYO8&assignmentId=3JWH6J9I9TZFJACSX135KLH6NUMBN1&a=I6WJ3&tp_a=I6WJ3&b=3JWH6J9I9TZFJACSX135KLH6NUMBN1&tp_b=3JWH6J9I9TZFJACSX135KLH6NUMBN1&c=365633&tp_c=365633"},{"rt":123235,"response":{"Q0":"Students in different classrooms have seen a different proportion of fair and unfair coins before seeing the examples you select for them.","Q1":"By giving as few examples as possible.","Q2":"The coin lands heads 90% of the time.","Q3":"No, I will teach a <b>new</b> student each time.","Q4":"The students are also on the same alien planet as you, where coins can be unfair.","Q5":"Based on the student's second (and final) guess."},"question_order":[0,2,1,3,4,5],"trial_type":"survey-multi-choice","trial_index":3,"time_elapsed":288250,"internal_node_id":"0.0-2.0-1.0","params":{"nStudents":24,"maxFlips":25,"completionMinutes":45,"basePay":8,"maxBonus":9,"perTrialBonus":0.5,"perTrialBonusThreshold":0.05,"exampleCost":0.02},"classroomParams":{"A":{"a":1,"b":4},"B":{"a":4,"b":1},"C":{"a":2,"b":8},"D":{"a":8,"b":2}},"conditions":["nonSeqFull","nonSeqPartial","seqNoFeedback","seqFeedback"],"classroomPairings":[["A","B"],["C","D"]],"coinWeights":[0.2,0.5,0.8],"subjectId":"A1FVXS8IM5QYO8","assignmentId":"3JWH6J9I9TZFJACSX135KLH6NUMBN1","hitId":"3XUY87HIVP03YZXVLN9CW37DVI1MM2","url":"https://gershmanlab.com/experiments/alicia/teaching/experiment/?hitId=3XUY87HIVP03YZXVLN9CW37DVI1MM2&workerId=A1FVXS8IM5QYO8&assignmentId=3JWH6J9I9TZFJACSX135KLH6NUMBN1&a=I6WJ3&tp_a=I6WJ3&b=3JWH6J9I9TZFJACSX135KLH6NUMBN1&tp_b=3JWH6J9I9TZFJACSX135KLH6NUMBN1&c=365633&tp_c=365633","pass":false},{"rt":2863,"stimulus":"Oops, you have missed question(s) on the comprehension check! We'll show you the instructions again.","response":0,"trial_type":"html-button-response","trial_index":4,"time_elapsed":291123,"internal_node_id":"0.0-2.0-2.0-0.0","params":{"nStudents":24,"maxFlips":25,"completionMinutes":45,"basePay":8,"maxBonus":9,"perTrialBonus":0.5,"perTrialBonusThreshold":0.05,"exampleCost":0.02},"classroomParams":{"A":{"a":1,"b":4},"B":{"a":4,"b":1},"C":{"a":2,"b":8},"D":{"a":8,"b":2}},"conditions":["nonSeqFull","nonSeqPartial","seqNoFeedback","seqFeedback"],"classroomPairings":[["A","B"],["C","D"]],"coinWeights":[0.2,0.5,0.8],"subjectId":"A1FVXS8IM5QYO8","assignmentId":"3JWH6J9I9TZFJACSX135KLH6NUMBN1","hitId":"3XUY87HIVP03YZXVLN9CW37DVI1MM2","url":"https://gershmanlab.com/experiments/alicia/teaching/experiment/?hitId=3XUY87HIVP03YZXVLN9CW37DVI1MM2&workerId=A1FVXS8IM5QYO8&assignmentId=3JWH6J9I9TZFJACSX135KLH6NUMBN1&a=I6WJ3&tp_a=I6WJ3&b=3JWH6J9I9TZFJACSX135KLH6NUMBN1&tp_b=3JWH6J9I9TZFJACSX135KLH6NUMBN1&c=365633&tp_c=365633"},{"view_history":[{"page_index":0,"viewing_time":5127},{"page_index":1,"viewing_time":1571},{"page_index":2,"viewing_time":22325},{"page_index":3,"viewing_time":8789},{"page_index":4,"viewing_time":8293},{"page_index":5,"viewing_time":2691},{"page_index":6,"viewing_time":2171}],"rt":50969,"trial_type":"instructions","trial_index":5,"time_elapsed":342092,"internal_node_id":"0.0-2.1-0.1","params":{"nStudents":24,"maxFlips":25,"completionMinutes":45,"basePay":8,"maxBonus":9,"perTrialBonus":0.5,"perTrialBonusThreshold":0.05,"exampleCost":0.02},"classroomParams":{"A":{"a":1,"b":4},"B":{"a":4,"b":1},"C":{"a":2,"b":8},"D":{"a":8,"b":2}},"conditions":["nonSeqFull","nonSeqPartial","seqNoFeedback","seqFeedback"],"classroomPairings":[["A","B"],["C","D"]],"coinWeights":[0.2,0.5,0.8],"subjectId":"A1FVXS8IM5QYO8","assignmentId":"3JWH6J9I9TZFJACSX135KLH6NUMBN1","hitId":"3XUY87HIVP03YZXVLN9CW37DVI1MM2","url":"https://gershmanlab.com/experiments/alicia/teaching/experiment/?hitId=3XUY87HIVP03YZXVLN9CW37DVI1MM2&workerId=A1FVXS8IM5QYO8&assignmentId=3JWH6J9I9TZFJACSX135KLH6NUMBN1&a=I6WJ3&tp_a=I6WJ3&b=3JWH6J9I9TZFJACSX135KLH6NUMBN1&tp_b=3JWH6J9I9TZFJACSX135KLH6NUMBN1&c=365633&tp_c=365633"},{"rt":64865,"response":{"Q0":"Students in different classrooms have seen a different proportion of fair and unfair coins before seeing the examples you select for them.","Q1":"By <b>considering the student's classroom information</b> so that I can teach efficiently and accurately/helpfully at the same time (because each example I give to the student costs money!).","Q2":"The coin lands heads 90% of the time.","Q3":"Yes, I might encounter the same student twice.","Q4":"The students are also on the same alien planet as you, where coins can be unfair.","Q5":"Based on the student's second (and final) guess."},"question_order":[2,5,1,0,4,3],"trial_type":"survey-multi-choice","trial_index":6,"time_elapsed":406960,"internal_node_id":"0.0-2.1-1.1","params":{"nStudents":24,"maxFlips":25,"completionMinutes":45,"basePay":8,"maxBonus":9,"perTrialBonus":0.5,"perTrialBonusThreshold":0.05,"exampleCost":0.02},"classroomParams":{"A":{"a":1,"b":4},"B":{"a":4,"b":1},"C":{"a":2,"b":8},"D":{"a":8,"b":2}},"conditions":["nonSeqFull","nonSeqPartial","seqNoFeedback","seqFeedback"],"classroomPairings":[["A","B"],["C","D"]],"coinWeights":[0.2,0.5,0.8],"subjectId":"A1FVXS8IM5QYO8","assignmentId":"3JWH6J9I9TZFJACSX135KLH6NUMBN1","hitId":"3XUY87HIVP03YZXVLN9CW37DVI1MM2","url":"https://gershmanlab.com/experiments/alicia/teaching/experiment/?hitId=3XUY87HIVP03YZXVLN9CW37DVI1MM2&workerId=A1FVXS8IM5QYO8&assignmentId=3JWH6J9I9TZFJACSX135KLH6NUMBN1&a=I6WJ3&tp_a=I6WJ3&b=3JWH6J9I9TZFJACSX135KLH6NUMBN1&tp_b=3JWH6J9I9TZFJACSX135KLH6NUMBN1&c=365633&tp_c=365633","pass":false},{"rt":1590,"stimulus":"Oops, you have missed question(s) on the comprehension check! We'll show you the instructions again.","response":0,"trial_type":"html-button-response","trial_index":7,"time_elapsed":408556,"internal_node_id":"0.0-2.1-2.1-0.1","params":{"nStudents":24,"maxFlips":25,"completionMinutes":45,"basePay":8,"maxBonus":9,"perTrialBonus":0.5,"perTrialBonusThreshold":0.05,"exampleCost":0.02},"classroomParams":{"A":{"a":1,"b":4},"B":{"a":4,"b":1},"C":{"a":2,"b":8},"D":{"a":8,"b":2}},"conditions":["nonSeqFull","nonSeqPartial","seqNoFeedback","seqFeedback"],"classroomPairings":[["A","B"],["C","D"]],"coinWeights":[0.2,0.5,0.8],"subjectId":"A1FVXS8IM5QYO8","assignmentId":"3JWH6J9I9TZFJACSX135KLH6NUMBN1","hitId":"3XUY87HIVP03YZXVLN9CW37DVI1MM2","url":"https://gershmanlab.com/experiments/alicia/teaching/experiment/?hitId=3XUY87HIVP03YZXVLN9CW37DVI1MM2&workerId=A1FVXS8IM5QYO8&assignmentId=3JWH6J9I9TZFJACSX135KLH6NUMBN1&a=I6WJ3&tp_a=I6WJ3&b=3JWH6J9I9TZFJACSX135KLH6NUMBN1&tp_b=3JWH6J9I9TZFJACSX135KLH6NUMBN1&c=365633&tp_c=365633"},{"view_history":[{"page_index":0,"viewing_time":1207},{"page_index":1,"viewing_time":491},{"page_index":2,"viewing_time":1752},{"page_index":3,"viewing_time":1215},{"page_index":4,"viewing_time":1259},{"page_index":5,"viewing_time":10795},{"page_index":6,"viewing_time":1426}],"rt":18145,"trial_type":"instructions","trial_index":8,"time_elapsed":426702,"internal_node_id":"0.0-2.2-0.2","params":{"nStudents":24,"maxFlips":25,"completionMinutes":45,"basePay":8,"maxBonus":9,"perTrialBonus":0.5,"perTrialBonusThreshold":0.05,"exampleCost":0.02},"classroomParams":{"A":{"a":1,"b":4},"B":{"a":4,"b":1},"C":{"a":2,"b":8},"D":{"a":8,"b":2}},"conditions":["nonSeqFull","nonSeqPartial","seqNoFeedback","seqFeedback"],"classroomPairings":[["A","B"],["C","D"]],"coinWeights":[0.2,0.5,0.8],"subjectId":"A1FVXS8IM5QYO8","assignmentId":"3JWH6J9I9TZFJACSX135KLH6NUMBN1","hitId":"3XUY87HIVP03YZXVLN9CW37DVI1MM2","url":"https://gershmanlab.com/experiments/alicia/teaching/experiment/?hitId=3XUY87HIVP03YZXVLN9CW37DVI1MM2&workerId=A1FVXS8IM5QYO8&assignmentId=3JWH6J9I9TZFJACSX135KLH6NUMBN1&a=I6WJ3&tp_a=I6WJ3&b=3JWH6J9I9TZFJACSX135KLH6NUMBN1&tp_b=3JWH6J9I9TZFJACSX135KLH6NUMBN1&c=365633&tp_c=365633"},{"rt":97998,"response":{"Q0":"Students in different classrooms have seen a different proportion of fair and unfair coins before seeing the examples you select for them.","Q1":"By <b>considering the student's classroom information</b> so that I can teach efficiently and accurately/helpfully at the same time (because each example I give to the student costs money!).","Q2":"The coin lands heads 90% of the time.","Q3":"Yes, I might encounter the same student twice.","Q4":"The students are also on the same alien planet as you, where coins can be unfair.","Q5":"Based on the student's second (and final) guess."},"question_order":[4,0,5,2,3,1],"trial_type":"survey-multi-choice","trial_index":9,"time_elapsed":524702,"internal_node_id":"0.0-2.2-1.2","params":{"nStudents":24,"maxFlips":25,"completionMinutes":45,"basePay":8,"maxBonus":9,"perTrialBonus":0.5,"perTrialBonusThreshold":0.05,"exampleCost":0.02},"classroomParams":{"A":{"a":1,"b":4},"B":{"a":4,"b":1},"C":{"a":2,"b":8},"D":{"a":8,"b":2}},"conditions":["nonSeqFull","nonSeqPartial","seqNoFeedback","seqFeedback"],"classroomPairings":[["A","B"],["C","D"]],"coinWeights":[0.2,0.5,0.8],"subjectId":"A1FVXS8IM5QYO8","assignmentId":"3JWH6J9I9TZFJACSX135KLH6NUMBN1","hitId":"3XUY87HIVP03YZXVLN9CW37DVI1MM2","url":"https://gershmanlab.com/experiments/alicia/teaching/experiment/?hitId=3XUY87HIVP03YZXVLN9CW37DVI1MM2&workerId=A1FVXS8IM5QYO8&assignmentId=3JWH6J9I9TZFJACSX135KLH6NUMBN1&a=I6WJ3&tp_a=I6WJ3&b=3JWH6J9I9TZFJACSX135KLH6NUMBN1&tp_b=3JWH6J9I9TZFJACSX135KLH6NUMBN1&c=365633&tp_c=365633","pass":false},{"rt":1418,"stimulus":"Oops, you have missed question(s) on the comprehension check! We'll show you the instructions again.","response":0,"trial_type":"html-button-response","trial_index":10,"time_elapsed":526126,"internal_node_id":"0.0-2.2-2.2-0.2","params":{"nStudents":24,"maxFlips":25,"completionMinutes":45,"basePay":8,"maxBonus":9,"perTrialBonus":0.5,"perTrialBonusThreshold":0.05,"exampleCost":0.02},"classroomParams":{"A":{"a":1,"b":4},"B":{"a":4,"b":1},"C":{"a":2,"b":8},"D":{"a":8,"b":2}},"conditions":["nonSeqFull","nonSeqPartial","seqNoFeedback","seqFeedback"],"classroomPairings":[["A","B"],["C","D"]],"coinWeights":[0.2,0.5,0.8],"subjectId":"A1FVXS8IM5QYO8","assignmentId":"3JWH6J9I9TZFJACSX135KLH6NUMBN1","hitId":"3XUY87HIVP03YZXVLN9CW37DVI1MM2","url":"https://gershmanlab.com/experiments/alicia/teaching/experiment/?hitId=3XUY87HIVP03YZXVLN9CW37DVI1MM2&workerId=A1FVXS8IM5QYO8&assignmentId=3JWH6J9I9TZFJACSX135KLH6NUMBN1&a=I6WJ3&tp_a=I6WJ3&b=3JWH6J9I9TZFJACSX135KLH6NUMBN1&tp_b=3JWH6J9I9TZFJACSX135KLH6NUMBN1&c=365633&tp_c=365633"},{"view_history":[{"page_index":0,"viewing_time":1088},{"page_index":1,"viewing_time":664},{"page_index":2,"viewing_time":1787},{"page_index":3,"viewing_time":1000},{"page_index":4,"viewing_time":1049},{"page_index":5,"viewing_time":1035},{"page_index":6,"viewing_time":1105}],"rt":7729,"trial_type":"instructions","trial_index":11,"time_elapsed":533856,"internal_node_id":"0.0-2.3-0.3","params":{"nStudents":24,"maxFlips":25,"completionMinutes":45,"basePay":8,"maxBonus":9,"perTrialBonus":0.5,"perTrialBonusThreshold":0.05,"exampleCost":0.02},"classroomParams":{"A":{"a":1,"b":4},"B":{"a":4,"b":1},"C":{"a":2,"b":8},"D":{"a":8,"b":2}},"conditions":["nonSeqFull","nonSeqPartial","seqNoFeedback","seqFeedback"],"classroomPairings":[["A","B"],["C","D"]],"coinWeights":[0.2,0.5,0.8],"subjectId":"A1FVXS8IM5QYO8","assignmentId":"3JWH6J9I9TZFJACSX135KLH6NUMBN1","hitId":"3XUY87HIVP03YZXVLN9CW37DVI1MM2","url":"https://gershmanlab.com/experiments/alicia/teaching/experiment/?hitId=3XUY87HIVP03YZXVLN9CW37DVI1MM2&workerId=A1FVXS8IM5QYO8&assignmentId=3JWH6J9I9TZFJACSX135KLH6NUMBN1&a=I6WJ3&tp_a=I6WJ3&b=3JWH6J9I9TZFJACSX135KLH6NUMBN1&tp_b=3JWH6J9I9TZFJACSX135KLH6NUMBN1&c=365633&tp_c=365633"},{"rt":17582,"response":{"Q0":"Students in different classrooms will have seen a different number of heads and tails before seeing the examples you select for them.","Q1":"By <b>considering the student's classroom information</b> so that I can teach efficiently and accurately/helpfully at the same time (because each example I give to the student costs money!).","Q2":"The coin lands heads 90% of the time.","Q3":"Yes, I might encounter the same student twice.","Q4":"The students are also on the same alien planet as you, where coins can be unfair.","Q5":"Based on the student's second (and final) guess."},"question_order":[2,5,1,4,0,3],"trial_type":"survey-multi-choice","trial_index":12,"time_elapsed":551440,"internal_node_id":"0.0-2.3-1.3","params":{"nStudents":24,"maxFlips":25,"completionMinutes":45,"basePay":8,"maxBonus":9,"perTrialBonus":0.5,"perTrialBonusThreshold":0.05,"exampleCost":0.02},"classroomParams":{"A":{"a":1,"b":4},"B":{"a":4,"b":1},"C":{"a":2,"b":8},"D":{"a":8,"b":2}},"conditions":["nonSeqFull","nonSeqPartial","seqNoFeedback","seqFeedback"],"classroomPairings":[["A","B"],["C","D"]],"coinWeights":[0.2,0.5,0.8],"subjectId":"A1FVXS8IM5QYO8","assignmentId":"3JWH6J9I9TZFJACSX135KLH6NUMBN1","hitId":"3XUY87HIVP03YZXVLN9CW37DVI1MM2","url":"https://gershmanlab.com/experiments/alicia/teaching/experiment/?hitId=3XUY87HIVP03YZXVLN9CW37DVI1MM2&workerId=A1FVXS8IM5QYO8&assignmentId=3JWH6J9I9TZFJACSX135KLH6NUMBN1&a=I6WJ3&tp_a=I6WJ3&b=3JWH6J9I9TZFJACSX135KLH6NUMBN1&tp_b=3JWH6J9I9TZFJACSX135KLH6NUMBN1&c=365633&tp_c=365633","pass":false},{"rt":1535,"stimulus":"Oops, you have missed question(s) on the comprehension check! We'll show you the instructions again.","response":0,"trial_type":"html-button-response","trial_index":13,"time_elapsed":552982,"internal_node_id":"0.0-2.3-2.3-0.3","params":{"nStudents":24,"maxFlips":25,"completionMinutes":45,"basePay":8,"maxBonus":9,"perTrialBonus":0.5,"perTrialBonusThreshold":0.05,"exampleCost":0.02},"classroomParams":{"A":{"a":1,"b":4},"B":{"a":4,"b":1},"C":{"a":2,"b":8},"D":{"a":8,"b":2}},"conditions":["nonSeqFull","nonSeqPartial","seqNoFeedback","seqFeedback"],"classroomPairings":[["A","B"],["C","D"]],"coinWeights":[0.2,0.5,0.8],"subjectId":"A1FVXS8IM5QYO8","assignmentId":"3JWH6J9I9TZFJACSX135KLH6NUMBN1","hitId":"3XUY87HIVP03YZXVLN9CW37DVI1MM2","url":"https://gershmanlab.com/experiments/alicia/teaching/experiment/?hitId=3XUY87HIVP03YZXVLN9CW37DVI1MM2&workerId=A1FVXS8IM5QYO8&assignmentId=3JWH6J9I9TZFJACSX135KLH6NUMBN1&a=I6WJ3&tp_a=I6WJ3&b=3JWH6J9I9TZFJACSX135KLH6NUMBN1&tp_b=3JWH6J9I9TZFJACSX135KLH6NUMBN1&c=365633&tp_c=365633"},{"view_history":[{"page_index":0,"viewing_time":1178},{"page_index":1,"viewing_time":624},{"page_index":2,"viewing_time":1658},{"page_index":3,"viewing_time":1770},{"page_index":4,"viewing_time":2321},{"page_index":5,"viewing_time":1514},{"page_index":6,"viewing_time":1930}],"rt":10995,"trial_type":"instructions","trial_index":14,"time_elapsed":563977,"internal_node_id":"0.0-2.4-0.4","params":{"nStudents":24,"maxFlips":25,"completionMinutes":45,"basePay":8,"maxBonus":9,"perTrialBonus":0.5,"perTrialBonusThreshold":0.05,"exampleCost":0.02},"classroomParams":{"A":{"a":1,"b":4},"B":{"a":4,"b":1},"C":{"a":2,"b":8},"D":{"a":8,"b":2}},"conditions":["nonSeqFull","nonSeqPartial","seqNoFeedback","seqFeedback"],"classroomPairings":[["A","B"],["C","D"]],"coinWeights":[0.2,0.5,0.8],"subjectId":"A1FVXS8IM5QYO8","assignmentId":"3JWH6J9I9TZFJACSX135KLH6NUMBN1","hitId":"3XUY87HIVP03YZXVLN9CW37DVI1MM2","url":"https://gershmanlab.com/experiments/alicia/teaching/experiment/?hitId=3XUY87HIVP03YZXVLN9CW37DVI1MM2&workerId=A1FVXS8IM5QYO8&assignmentId=3JWH6J9I9TZFJACSX135KLH6NUMBN1&a=I6WJ3&tp_a=I6WJ3&b=3JWH6J9I9TZFJACSX135KLH6NUMBN1&tp_b=3JWH6J9I9TZFJACSX135KLH6NUMBN1&c=365633&tp_c=365633"},{"rt":24959,"response":{"Q0":"Students in different classrooms have seen a different proportion of fair and unfair coins before seeing the examples you select for them.","Q1":"By <b>considering the student's classroom information</b> so that I can teach efficiently and accurately/helpfully at the same time (because each example I give to the student costs money!).","Q2":"The coin lands heads 90% of the time.","Q3":"No, I will teach a <b>new</b> student each time.","Q4":"The students are also on the same alien planet as you, where coins can be unfair.","Q5":"Based on the student's second (and final) guess."},"question_order":[3,5,1,2,4,0],"trial_type":"survey-multi-choice","trial_index":15,"time_elapsed":588939,"internal_node_id":"0.0-2.4-1.4","params":{"nStudents":24,"maxFlips":25,"completionMinutes":45,"basePay":8,"maxBonus":9,"perTrialBonus":0.5,"perTrialBonusThreshold":0.05,"exampleCost":0.02},"classroomParams":{"A":{"a":1,"b":4},"B":{"a":4,"b":1},"C":{"a":2,"b":8},"D":{"a":8,"b":2}},"conditions":["nonSeqFull","nonSeqPartial","seqNoFeedback","seqFeedback"],"classroomPairings":[["A","B"],["C","D"]],"coinWeights":[0.2,0.5,0.8],"subjectId":"A1FVXS8IM5QYO8","assignmentId":"3JWH6J9I9TZFJACSX135KLH6NUMBN1","hitId":"3XUY87HIVP03YZXVLN9CW37DVI1MM2","url":"https://gershmanlab.com/experiments/alicia/teaching/experiment/?hitId=3XUY87HIVP03YZXVLN9CW37DVI1MM2&workerId=A1FVXS8IM5QYO8&assignmentId=3JWH6J9I9TZFJACSX135KLH6NUMBN1&a=I6WJ3&tp_a=I6WJ3&b=3JWH6J9I9TZFJACSX135KLH6NUMBN1&tp_b=3JWH6J9I9TZFJACSX135KLH6NUMBN1&c=365633&tp_c=365633","pass":false},{"rt":1665,"stimulus":"Oops, you have missed question(s) on the comprehension check! We'll show you the instructions again.","response":0,"trial_type":"html-button-response","trial_index":16,"time_elapsed":590611,"internal_node_id":"0.0-2.4-2.4-0.4","params":{"nStudents":24,"maxFlips":25,"completionMinutes":45,"basePay":8,"maxBonus":9,"perTrialBonus":0.5,"perTrialBonusThreshold":0.05,"exampleCost":0.02},"classroomParams":{"A":{"a":1,"b":4},"B":{"a":4,"b":1},"C":{"a":2,"b":8},"D":{"a":8,"b":2}},"conditions":["nonSeqFull","nonSeqPartial","seqNoFeedback","seqFeedback"],"classroomPairings":[["A","B"],["C","D"]],"coinWeights":[0.2,0.5,0.8],"subjectId":"A1FVXS8IM5QYO8","assignmentId":"3JWH6J9I9TZFJACSX135KLH6NUMBN1","hitId":"3XUY87HIVP03YZXVLN9CW37DVI1MM2","url":"https://gershmanlab.com/experiments/alicia/teaching/experiment/?hitId=3XUY87HIVP03YZXVLN9CW37DVI1MM2&workerId=A1FVXS8IM5QYO8&assignmentId=3JWH6J9I9TZFJACSX135KLH6NUMBN1&a=I6WJ3&tp_a=I6WJ3&b=3JWH6J9I9TZFJACSX135KLH6NUMBN1&tp_b=3JWH6J9I9TZFJACSX135KLH6NUMBN1&c=365633&tp_c=365633"},{"view_history":[{"page_index":0,"viewing_time":975},{"page_index":1,"viewing_time":664},{"page_index":2,"viewing_time":1610},{"page_index":3,"viewing_time":1043},{"page_index":4,"viewing_time":1241},{"page_index":5,"viewing_time":1081},{"page_index":6,"viewing_time":1074}],"rt":7688,"trial_type":"instructions","trial_index":17,"time_elapsed":598299,"internal_node_id":"0.0-2.5-0.5","params":{"nStudents":24,"maxFlips":25,"completionMinutes":45,"basePay":8,"maxBonus":9,"perTrialBonus":0.5,"perTrialBonusThreshold":0.05,"exampleCost":0.02},"classroomParams":{"A":{"a":1,"b":4},"B":{"a":4,"b":1},"C":{"a":2,"b":8},"D":{"a":8,"b":2}},"conditions":["nonSeqFull","nonSeqPartial","seqNoFeedback","seqFeedback"],"classroomPairings":[["A","B"],["C","D"]],"coinWeights":[0.2,0.5,0.8],"subjectId":"A1FVXS8IM5QYO8","assignmentId":"3JWH6J9I9TZFJACSX135KLH6NUMBN1","hitId":"3XUY87HIVP03YZXVLN9CW37DVI1MM2","url":"https://gershmanlab.com/experiments/alicia/teaching/experiment/?hitId=3XUY87HIVP03YZXVLN9CW37DVI1MM2&workerId=A1FVXS8IM5QYO8&assignmentId=3JWH6J9I9TZFJACSX135KLH6NUMBN1&a=I6WJ3&tp_a=I6WJ3&b=3JWH6J9I9TZFJACSX135KLH6NUMBN1&tp_b=3JWH6J9I9TZFJACSX135KLH6NUMBN1&c=365633&tp_c=365633"},{"rt":14153,"response":{"Q0":"Students in different classrooms will have seen a different number of heads and tails before seeing the examples you select for them.","Q1":"By <b>considering the student's classroom information</b> so that I can teach efficiently and accurately/helpfully at the same time (because each example I give to the student costs money!).","Q2":"The coin lands heads 90% of the time.","Q3":"No, I will teach a <b>new</b> student each time.","Q4":"The students are also on the same alien planet as you, where coins can be unfair.","Q5":"Based on the student's second (and final) guess."},"question_order":[5,1,0,4,3,2],"trial_type":"survey-multi-choice","trial_index":18,"time_elapsed":612454,"internal_node_id":"0.0-2.5-1.5","params":{"nStudents":24,"maxFlips":25,"completionMinutes":45,"basePay":8,"maxBonus":9,"perTrialBonus":0.5,"perTrialBonusThreshold":0.05,"exampleCost":0.02},"classroomParams":{"A":{"a":1,"b":4},"B":{"a":4,"b":1},"C":{"a":2,"b":8},"D":{"a":8,"b":2}},"conditions":["nonSeqFull","nonSeqPartial","seqNoFeedback","seqFeedback"],"classroomPairings":[["A","B"],["C","D"]],"coinWeights":[0.2,0.5,0.8],"subjectId":"A1FVXS8IM5QYO8","assignmentId":"3JWH6J9I9TZFJACSX135KLH6NUMBN1","hitId":"3XUY87HIVP03YZXVLN9CW37DVI1MM2","url":"https://gershmanlab.com/experiments/alicia/teaching/experiment/?hitId=3XUY87HIVP03YZXVLN9CW37DVI1MM2&workerId=A1FVXS8IM5QYO8&assignmentId=3JWH6J9I9TZFJACSX135KLH6NUMBN1&a=I6WJ3&tp_a=I6WJ3&b=3JWH6J9I9TZFJACSX135KLH6NUMBN1&tp_b=3JWH6J9I9TZFJACSX135KLH6NUMBN1&c=365633&tp_c=365633","pass":true},{"rt":null,"stimulus":"<div style=\"font-size:30px;\">Congrats on passing the comprehension quiz! The experiment will begin in a few seconds.</div>","response":null,"trial_type":"html-keyboard-response","trial_index":19,"time_elapsed":615465,"internal_node_id":"0.0-3.0","params":{"nStudents":24,"maxFlips":25,"completionMinutes":45,"basePay":8,"maxBonus":9,"perTrialBonus":0.5,"perTrialBonusThreshold":0.05,"exampleCost":0.02},"classroomParams":{"A":{"a":1,"b":4},"B":{"a":4,"b":1},"C":{"a":2,"b":8},"D":{"a":8,"b":2}},"conditions":["nonSeqFull","nonSeqPartial","seqNoFeedback","seqFeedback"],"classroomPairings":[["A","B"],["C","D"]],"coinWeights":[0.2,0.5,0.8],"subjectId":"A1FVXS8IM5QYO8","assignmentId":"3JWH6J9I9TZFJACSX135KLH6NUMBN1","hitId":"3XUY87HIVP03YZXVLN9CW37DVI1MM2","url":"https://gershmanlab.com/experiments/alicia/teaching/experiment/?hitId=3XUY87HIVP03YZXVLN9CW37DVI1MM2&workerId=A1FVXS8IM5QYO8&assignmentId=3JWH6J9I9TZFJACSX135KLH6NUMBN1&a=I6WJ3&tp_a=I6WJ3&b=3JWH6J9I9TZFJACSX135KLH6NUMBN1&tp_b=3JWH6J9I9TZFJACSX135KLH6NUMBN1&c=365633&tp_c=365633"},{"rt":null,"stimulus":"<div style=\"font-size:50px;\">First student</div>","response":null,"trial_type":"html-keyboard-response","trial_index":20,"time_elapsed":618468,"internal_node_id":"0.0-4.0","params":{"nStudents":24,"maxFlips":25,"completionMinutes":45,"basePay":8,"maxBonus":9,"perTrialBonus":0.5,"perTrialBonusThreshold":0.05,"exampleCost":0.02},"classroomParams":{"A":{"a":1,"b":4},"B":{"a":4,"b":1},"C":{"a":2,"b":8},"D":{"a":8,"b":2}},"conditions":["nonSeqFull","nonSeqPartial","seqNoFeedback","seqFeedback"],"classroomPairings":[["A","B"],["C","D"]],"coinWeights":[0.2,0.5,0.8],"subjectId":"A1FVXS8IM5QYO8","assignmentId":"3JWH6J9I9TZFJACSX135KLH6NUMBN1","hitId":"3XUY87HIVP03YZXVLN9CW37DVI1MM2","url":"https://gershmanlab.com/experiments/alicia/teaching/experiment/?hitId=3XUY87HIVP03YZXVLN9CW37DVI1MM2&workerId=A1FVXS8IM5QYO8&assignmentId=3JWH6J9I9TZFJACSX135KLH6NUMBN1&a=I6WJ3&tp_a=I6WJ3&b=3JWH6J9I9TZFJACSX135KLH6NUMBN1&tp_b=3JWH6J9I9TZFJACSX135KLH6NUMBN1&c=365633&tp_c=365633"},{"rt":5793,"stimulus":"\n            <h4 style=\"color:Orange;\">Student 1</h4>\n            <h2>The weight of your coin is <b style=\"color:Tomato;\">0.8</b>.</h2>\n            <p>In this block, you will be giving <b>one</b> set of examples to Student 1.</p>\n                <p>You will receive feedback at the end of the block.</p>\n            <p></p>","response":0,"trial_type":"html-button-response","trial_index":21,"time_elapsed":624263,"internal_node_id":"0.0-5.0","params":{"nStudents":24,"maxFlips":25,"completionMinutes":45,"basePay":8,"maxBonus":9,"perTrialBonus":0.5,"perTrialBonusThreshold":0.05,"exampleCost":0.02},"classroomParams":{"A":{"a":1,"b":4},"B":{"a":4,"b":1},"C":{"a":2,"b":8},"D":{"a":8,"b":2}},"conditions":["nonSeqFull","nonSeqPartial","seqNoFeedback","seqFeedback"],"classroomPairings":[["A","B"],["C","D"]],"coinWeights":[0.2,0.5,0.8],"subjectId":"A1FVXS8IM5QYO8","assignmentId":"3JWH6J9I9TZFJACSX135KLH6NUMBN1","hitId":"3XUY87HIVP03YZXVLN9CW37DVI1MM2","url":"https://gershmanlab.com/experiments/alicia/teaching/experiment/?hitId=3XUY87HIVP03YZXVLN9CW37DVI1MM2&workerId=A1FVXS8IM5QYO8&assignmentId=3JWH6J9I9TZFJACSX135KLH6NUMBN1&a=I6WJ3&tp_a=I6WJ3&b=3JWH6J9I9TZFJACSX135KLH6NUMBN1&tp_b=3JWH6J9I9TZFJACSX135KLH6NUMBN1&c=365633&tp_c=365633"},{"rt":36318,"response":{"heads":"8","tails":"2"},"type":"response","condition":"nonSeqPartial","trueTheta":0.8,"classrooms":["C","D"],"studentTrueClassroom":"C","exampleSet":"first","trial_type":"survey-html-form","trial_index":22,"time_elapsed":660585,"internal_node_id":"0.0-6.0-0.0","params":{"nStudents":24,"maxFlips":25,"completionMinutes":45,"basePay":8,"maxBonus":9,"perTrialBonus":0.5,"perTrialBonusThreshold":0.05,"exampleCost":0.02},"classroomParams":{"A":{"a":1,"b":4},"B":{"a":4,"b":1},"C":{"a":2,"b":8},"D":{"a":8,"b":2}},"conditions":["nonSeqFull","nonSeqPartial","seqNoFeedback","seqFeedback"],"classroomPairings":[["A","B"],["C","D"]],"coinWeights":[0.2,0.5,0.8],"subjectId":"A1FVXS8IM5QYO8","assignmentId":"3JWH6J9I9TZFJACSX135KLH6NUMBN1","hitId":"3XUY87HIVP03YZXVLN9CW37DVI1MM2","url":"https://gershmanlab.com/experiments/alicia/teaching/experiment/?hitId=3XUY87HIVP03YZXVLN9CW37DVI1MM2&workerId=A1FVXS8IM5QYO8&assignmentId=3JWH6J9I9TZFJACSX135KLH6NUMBN1&a=I6WJ3&tp_a=I6WJ3&b=3JWH6J9I9TZFJACSX135KLH6NUMBN1&tp_b=3JWH6J9I9TZFJACSX135KLH6NUMBN1&c=365633&tp_c=365633","heads":8,"tails":2,"studentIndex":0,"studentTrueHypers":{"a":2,"b":8},"studentGuess":0.5,"delta":0.30000000000000004,"totalExamples":10,"bonus":0,"bonusSoFar":0},{"rt":null,"stimulus":"Sending examples to student... ","response":null,"trial_type":"html-keyboard-response","trial_index":23,"time_elapsed":662339,"internal_node_id":"0.0-7.0","params":{"nStudents":24,"maxFlips":25,"completionMinutes":45,"basePay":8,"maxBonus":9,"perTrialBonus":0.5,"perTrialBonusThreshold":0.05,"exampleCost":0.02},"classroomParams":{"A":{"a":1,"b":4},"B":{"a":4,"b":1},"C":{"a":2,"b":8},"D":{"a":8,"b":2}},"conditions":["nonSeqFull","nonSeqPartial","seqNoFeedback","seqFeedback"],"classroomPairings":[["A","B"],["C","D"]],"coinWeights":[0.2,0.5,0.8],"subjectId":"A1FVXS8IM5QYO8","assignmentId":"3JWH6J9I9TZFJACSX135KLH6NUMBN1","hitId":"3XUY87HIVP03YZXVLN9CW37DVI1MM2","url":"https://gershmanlab.com/experiments/alicia/teaching/experiment/?hitId=3XUY87HIVP03YZXVLN9CW37DVI1MM2&workerId=A1FVXS8IM5QYO8&assignmentId=3JWH6J9I9TZFJACSX135KLH6NUMBN1&a=I6WJ3&tp_a=I6WJ3&b=3JWH6J9I9TZFJACSX135KLH6NUMBN1&tp_b=3JWH6J9I9TZFJACSX135KLH6NUMBN1&c=365633&tp_c=365633"},{"rt":null,"stimulus":"Examples sent to student! Waiting for student...","response":null,"trial_type":"html-keyboard-response","trial_index":24,"time_elapsed":666845,"internal_node_id":"0.0-8.0","params":{"nStudents":24,"maxFlips":25,"completionMinutes":45,"basePay":8,"maxBonus":9,"perTrialBonus":0.5,"perTrialBonusThreshold":0.05,"exampleCost":0.02},"classroomParams":{"A":{"a":1,"b":4},"B":{"a":4,"b":1},"C":{"a":2,"b":8},"D":{"a":8,"b":2}},"conditions":["nonSeqFull","nonSeqPartial","seqNoFeedback","seqFeedback"],"classroomPairings":[["A","B"],["C","D"]],"coinWeights":[0.2,0.5,0.8],"subjectId":"A1FVXS8IM5QYO8","assignmentId":"3JWH6J9I9TZFJACSX135KLH6NUMBN1","hitId":"3XUY87HIVP03YZXVLN9CW37DVI1MM2","url":"https://gershmanlab.com/experiments/alicia/teaching/experiment/?hitId=3XUY87HIVP03YZXVLN9CW37DVI1MM2&workerId=A1FVXS8IM5QYO8&assignmentId=3JWH6J9I9TZFJACSX135KLH6NUMBN1&a=I6WJ3&tp_a=I6WJ3&b=3JWH6J9I9TZFJACSX135KLH6NUMBN1&tp_b=3JWH6J9I9TZFJACSX135KLH6NUMBN1&c=365633&tp_c=365633"},{"rt":3304,"stimulus":"\n                <p>Student's guess for coin weight: <b style=\"color:Tomato;\">0.50</b></p>\n                <p>You received a bonus of <b>$0</b>. Total bonus so far: <b>$0.00</b></b></p>\n                <p></p>\n                <p>Press any key to continue.</p>\n                ","response":" ","trial_type":"html-keyboard-response","trial_index":25,"time_elapsed":670151,"internal_node_id":"0.0-9.0","params":{"nStudents":24,"maxFlips":25,"completionMinutes":45,"basePay":8,"maxBonus":9,"perTrialBonus":0.5,"perTrialBonusThreshold":0.05,"exampleCost":0.02},"classroomParams":{"A":{"a":1,"b":4},"B":{"a":4,"b":1},"C":{"a":2,"b":8},"D":{"a":8,"b":2}},"conditions":["nonSeqFull","nonSeqPartial","seqNoFeedback","seqFeedback"],"classroomPairings":[["A","B"],["C","D"]],"coinWeights":[0.2,0.5,0.8],"subjectId":"A1FVXS8IM5QYO8","assignmentId":"3JWH6J9I9TZFJACSX135KLH6NUMBN1","hitId":"3XUY87HIVP03YZXVLN9CW37DVI1MM2","url":"https://gershmanlab.com/experiments/alicia/teaching/experiment/?hitId=3XUY87HIVP03YZXVLN9CW37DVI1MM2&workerId=A1FVXS8IM5QYO8&assignmentId=3JWH6J9I9TZFJACSX135KLH6NUMBN1&a=I6WJ3&tp_a=I6WJ3&b=3JWH6J9I9TZFJACSX135KLH6NUMBN1&tp_b=3JWH6J9I9TZFJACSX135KLH6NUMBN1&c=365633&tp_c=365633"},{"rt":null,"stimulus":"<div style=\"font-size:60px;\">Next student</div>","response":null,"trial_type":"html-keyboard-response","trial_index":26,"time_elapsed":673156,"internal_node_id":"0.0-10.0-0.0","params":{"nStudents":24,"maxFlips":25,"completionMinutes":45,"basePay":8,"maxBonus":9,"perTrialBonus":0.5,"perTrialBonusThreshold":0.05,"exampleCost":0.02},"classroomParams":{"A":{"a":1,"b":4},"B":{"a":4,"b":1},"C":{"a":2,"b":8},"D":{"a":8,"b":2}},"conditions":["nonSeqFull","nonSeqPartial","seqNoFeedback","seqFeedback"],"classroomPairings":[["A","B"],["C","D"]],"coinWeights":[0.2,0.5,0.8],"subjectId":"A1FVXS8IM5QYO8","assignmentId":"3JWH6J9I9TZFJACSX135KLH6NUMBN1","hitId":"3XUY87HIVP03YZXVLN9CW37DVI1MM2","url":"https://gershmanlab.com/experiments/alicia/teaching/experiment/?hitId=3XUY87HIVP03YZXVLN9CW37DVI1MM2&workerId=A1FVXS8IM5QYO8&assignmentId=3JWH6J9I9TZFJACSX135KLH6NUMBN1&a=I6WJ3&tp_a=I6WJ3&b=3JWH6J9I9TZFJACSX135KLH6NUMBN1&tp_b=3JWH6J9I9TZFJACSX135KLH6NUMBN1&c=365633&tp_c=365633"},{"rt":2190,"stimulus":"\n            <h4 style=\"color:Orange;\">Student 2</h4>\n            <h2>The weight of your coin is <b style=\"color:Tomato;\">0.8</b>.</h2>\n            <p>In this block, you will be giving <b>two</b> sets of examples to Student 2.</p>\n                <p>You will receive feedback at the end of the block.</p>\n            <p></p>","response":0,"trial_type":"html-button-response","trial_index":27,"time_elapsed":675349,"internal_node_id":"0.0-11.0","params":{"nStudents":24,"maxFlips":25,"completionMinutes":45,"basePay":8,"maxBonus":9,"perTrialBonus":0.5,"perTrialBonusThreshold":0.05,"exampleCost":0.02},"classroomParams":{"A":{"a":1,"b":4},"B":{"a":4,"b":1},"C":{"a":2,"b":8},"D":{"a":8,"b":2}},"conditions":["nonSeqFull","nonSeqPartial","seqNoFeedback","seqFeedback"],"classroomPairings":[["A","B"],["C","D"]],"coinWeights":[0.2,0.5,0.8],"subjectId":"A1FVXS8IM5QYO8","assignmentId":"3JWH6J9I9TZFJACSX135KLH6NUMBN1","hitId":"3XUY87HIVP03YZXVLN9CW37DVI1MM2","url":"https://gershmanlab.com/experiments/alicia/teaching/experiment/?hitId=3XUY87HIVP03YZXVLN9CW37DVI1MM2&workerId=A1FVXS8IM5QYO8&assignmentId=3JWH6J9I9TZFJACSX135KLH6NUMBN1&a=I6WJ3&tp_a=I6WJ3&b=3JWH6J9I9TZFJACSX135KLH6NUMBN1&tp_b=3JWH6J9I9TZFJACSX135KLH6NUMBN1&c=365633&tp_c=365633"},{"rt":13398,"response":{"heads":"7","tails":"3"},"type":"response","condition":"seqNoFeedback","trueTheta":0.8,"classrooms":["A","B"],"studentTrueClassroom":"A","exampleSet":"first","trial_type":"survey-html-form","trial_index":28,"time_elapsed":688749,"internal_node_id":"0.0-12.0-0.0","params":{"nStudents":24,"maxFlips":25,"completionMinutes":45,"basePay":8,"maxBonus":9,"perTrialBonus":0.5,"perTrialBonusThreshold":0.05,"exampleCost":0.02},"classroomParams":{"A":{"a":1,"b":4},"B":{"a":4,"b":1},"C":{"a":2,"b":8},"D":{"a":8,"b":2}},"conditions":["nonSeqFull","nonSeqPartial","seqNoFeedback","seqFeedback"],"classroomPairings":[["A","B"],["C","D"]],"coinWeights":[0.2,0.5,0.8],"subjectId":"A1FVXS8IM5QYO8","assignmentId":"3JWH6J9I9TZFJACSX135KLH6NUMBN1","hitId":"3XUY87HIVP03YZXVLN9CW37DVI1MM2","url":"https://gershmanlab.com/experiments/alicia/teaching/experiment/?hitId=3XUY87HIVP03YZXVLN9CW37DVI1MM2&workerId=A1FVXS8IM5QYO8&assignmentId=3JWH6J9I9TZFJACSX135KLH6NUMBN1&a=I6WJ3&tp_a=I6WJ3&b=3JWH6J9I9TZFJACSX135KLH6NUMBN1&tp_b=3JWH6J9I9TZFJACSX135KLH6NUMBN1&c=365633&tp_c=365633","heads":7,"tails":3,"studentIndex":1,"studentTrueHypers":{"a":1,"b":4},"studentGuess":0.5333333333333333,"delta":0.2666666666666667,"totalExamples":10,"bonusSoFar":0},{"rt":null,"stimulus":"Sending examples to student... ","response":null,"trial_type":"html-keyboard-response","trial_index":29,"time_elapsed":690255,"internal_node_id":"0.0-13.0","params":{"nStudents":24,"maxFlips":25,"completionMinutes":45,"basePay":8,"maxBonus":9,"perTrialBonus":0.5,"perTrialBonusThreshold":0.05,"exampleCost":0.02},"classroomParams":{"A":{"a":1,"b":4},"B":{"a":4,"b":1},"C":{"a":2,"b":8},"D":{"a":8,"b":2}},"conditions":["nonSeqFull","nonSeqPartial","seqNoFeedback","seqFeedback"],"classroomPairings":[["A","B"],["C","D"]],"coinWeights":[0.2,0.5,0.8],"subjectId":"A1FVXS8IM5QYO8","assignmentId":"3JWH6J9I9TZFJACSX135KLH6NUMBN1","hitId":"3XUY87HIVP03YZXVLN9CW37DVI1MM2","url":"https://gershmanlab.com/experiments/alicia/teaching/experiment/?hitId=3XUY87HIVP03YZXVLN9CW37DVI1MM2&workerId=A1FVXS8IM5QYO8&assignmentId=3JWH6J9I9TZFJACSX135KLH6NUMBN1&a=I6WJ3&tp_a=I6WJ3&b=3JWH6J9I9TZFJACSX135KLH6NUMBN1&tp_b=3JWH6J9I9TZFJACSX135KLH6NUMBN1&c=365633&tp_c=365633"},{"rt":null,"stimulus":"Examples sent to student! Waiting for student...","response":null,"trial_type":"html-keyboard-response","trial_index":30,"time_elapsed":695259,"internal_node_id":"0.0-14.0","params":{"nStudents":24,"maxFlips":25,"completionMinutes":45,"basePay":8,"maxBonus":9,"perTrialBonus":0.5,"perTrialBonusThreshold":0.05,"exampleCost":0.02},"classroomParams":{"A":{"a":1,"b":4},"B":{"a":4,"b":1},"C":{"a":2,"b":8},"D":{"a":8,"b":2}},"conditions":["nonSeqFull","nonSeqPartial","seqNoFeedback","seqFeedback"],"classroomPairings":[["A","B"],["C","D"]],"coinWeights":[0.2,0.5,0.8],"subjectId":"A1FVXS8IM5QYO8","assignmentId":"3JWH6J9I9TZFJACSX135KLH6NUMBN1","hitId":"3XUY87HIVP03YZXVLN9CW37DVI1MM2","url":"https://gershmanlab.com/experiments/alicia/teaching/experiment/?hitId=3XUY87HIVP03YZXVLN9CW37DVI1MM2&workerId=A1FVXS8IM5QYO8&assignmentId=3JWH6J9I9TZFJACSX135KLH6NUMBN1&a=I6WJ3&tp_a=I6WJ3&b=3JWH6J9I9TZFJACSX135KLH6NUMBN1&tp_b=3JWH6J9I9TZFJACSX135KLH6NUMBN1&c=365633&tp_c=365633"},{"rt":20484,"response":{"heads":"15","tails":"5"},"type":"response","condition":"seqNoFeedback","trueTheta":0.8,"classrooms":["A","B"],"studentTrueClassroom":"A","exampleSet":"second","trial_type":"survey-html-form","trial_index":31,"time_elapsed":715744,"internal_node_id":"0.0-15.0-0.0","params":{"nStudents":24,"maxFlips":25,"completionMinutes":45,"basePay":8,"maxBonus":9,"perTrialBonus":0.5,"perTrialBonusThreshold":0.05,"exampleCost":0.02},"classroomParams":{"A":{"a":1,"b":4},"B":{"a":4,"b":1},"C":{"a":2,"b":8},"D":{"a":8,"b":2}},"conditions":["nonSeqFull","nonSeqPartial","seqNoFeedback","seqFeedback"],"classroomPairings":[["A","B"],["C","D"]],"coinWeights":[0.2,0.5,0.8],"subjectId":"A1FVXS8IM5QYO8","assignmentId":"3JWH6J9I9TZFJACSX135KLH6NUMBN1","hitId":"3XUY87HIVP03YZXVLN9CW37DVI1MM2","url":"https://gershmanlab.com/experiments/alicia/teaching/experiment/?hitId=3XUY87HIVP03YZXVLN9CW37DVI1MM2&workerId=A1FVXS8IM5QYO8&assignmentId=3JWH6J9I9TZFJACSX135KLH6NUMBN1&a=I6WJ3&tp_a=I6WJ3&b=3JWH6J9I9TZFJACSX135KLH6NUMBN1&tp_b=3JWH6J9I9TZFJACSX135KLH6NUMBN1&c=365633&tp_c=365633","firstResponseHeads":7,"firstResponseTails":3,"secondResponseHeads":15,"secondResponseTails":5,"totalHeads":22,"totalTails":8,"studentIndex":1,"studentTrueHypers":{"a":1,"b":4},"studentGuess":0.6571428571428571,"delta":0.1428571428571429,"bonus":0,"bonusSoFar":0,"totalExamples":30},{"rt":null,"stimulus":"Sending examples to student... ","response":null,"trial_type":"html-keyboard-response","trial_index":32,"time_elapsed":717501,"internal_node_id":"0.0-16.0","params":{"nStudents":24,"maxFlips":25,"completionMinutes":45,"basePay":8,"maxBonus":9,"perTrialBonus":0.5,"perTrialBonusThreshold":0.05,"exampleCost":0.02},"classroomParams":{"A":{"a":1,"b":4},"B":{"a":4,"b":1},"C":{"a":2,"b":8},"D":{"a":8,"b":2}},"conditions":["nonSeqFull","nonSeqPartial","seqNoFeedback","seqFeedback"],"classroomPairings":[["A","B"],["C","D"]],"coinWeights":[0.2,0.5,0.8],"subjectId":"A1FVXS8IM5QYO8","assignmentId":"3JWH6J9I9TZFJACSX135KLH6NUMBN1","hitId":"3XUY87HIVP03YZXVLN9CW37DVI1MM2","url":"https://gershmanlab.com/experiments/alicia/teaching/experiment/?hitId=3XUY87HIVP03YZXVLN9CW37DVI1MM2&workerId=A1FVXS8IM5QYO8&assignmentId=3JWH6J9I9TZFJACSX135KLH6NUMBN1&a=I6WJ3&tp_a=I6WJ3&b=3JWH6J9I9TZFJACSX135KLH6NUMBN1&tp_b=3JWH6J9I9TZFJACSX135KLH6NUMBN1&c=365633&tp_c=365633"},{"rt":null,"stimulus":"Examples sent to student! Waiting for student...","response":null,"trial_type":"html-keyboard-response","trial_index":33,"time_elapsed":723506,"internal_node_id":"0.0-17.0","params":{"nStudents":24,"maxFlips":25,"completionMinutes":45,"basePay":8,"maxBonus":9,"perTrialBonus":0.5,"perTrialBonusThreshold":0.05,"exampleCost":0.02},"classroomParams":{"A":{"a":1,"b":4},"B":{"a":4,"b":1},"C":{"a":2,"b":8},"D":{"a":8,"b":2}},"conditions":["nonSeqFull","nonSeqPartial","seqNoFeedback","seqFeedback"],"classroomPairings":[["A","B"],["C","D"]],"coinWeights":[0.2,0.5,0.8],"subjectId":"A1FVXS8IM5QYO8","assignmentId":"3JWH6J9I9TZFJACSX135KLH6NUMBN1","hitId":"3XUY87HIVP03YZXVLN9CW37DVI1MM2","url":"https://gershmanlab.com/experiments/alicia/teaching/experiment/?hitId=3XUY87HIVP03YZXVLN9CW37DVI1MM2&workerId=A1FVXS8IM5QYO8&assignmentId=3JWH6J9I9TZFJACSX135KLH6NUMBN1&a=I6WJ3&tp_a=I6WJ3&b=3JWH6J9I9TZFJACSX135KLH6NUMBN1&tp_b=3JWH6J9I9TZFJACSX135KLH6NUMBN1&c=365633&tp_c=365633"},{"rt":3924,"stimulus":"\n                <p>Student 2's first guess for coin weight: <b style=\"color:Tomato\";>0.53</b></p>\n                <p>Student 2's second guess for coin weight: <b style=\"color:Tomato\";>0.66</b></p>\n                <p>You received a bonus of <b>$0.00</b> based on the student's second guess.</p>\n                <p>Total bonus so far: <b>$0.00</b></p>\n                <p>Press any key to continue.</p>\n                ","response":" ","trial_type":"html-keyboard-response","trial_index":34,"time_elapsed":727433,"internal_node_id":"0.0-18.0","params":{"nStudents":24,"maxFlips":25,"completionMinutes":45,"basePay":8,"maxBonus":9,"perTrialBonus":0.5,"perTrialBonusThreshold":0.05,"exampleCost":0.02},"classroomParams":{"A":{"a":1,"b":4},"B":{"a":4,"b":1},"C":{"a":2,"b":8},"D":{"a":8,"b":2}},"conditions":["nonSeqFull","nonSeqPartial","seqNoFeedback","seqFeedback"],"classroomPairings":[["A","B"],["C","D"]],"coinWeights":[0.2,0.5,0.8],"subjectId":"A1FVXS8IM5QYO8","assignmentId":"3JWH6J9I9TZFJACSX135KLH6NUMBN1","hitId":"3XUY87HIVP03YZXVLN9CW37DVI1MM2","url":"https://gershmanlab.com/experiments/alicia/teaching/experiment/?hitId=3XUY87HIVP03YZXVLN9CW37DVI1MM2&workerId=A1FVXS8IM5QYO8&assignmentId=3JWH6J9I9TZFJACSX135KLH6NUMBN1&a=I6WJ3&tp_a=I6WJ3&b=3JWH6J9I9TZFJACSX135KLH6NUMBN1&tp_b=3JWH6J9I9TZFJACSX135KLH6NUMBN1&c=365633&tp_c=365633"},{"rt":null,"stimulus":"<div style=\"font-size:60px;\">Next student</div>","response":null,"trial_type":"html-keyboard-response","trial_index":35,"time_elapsed":729940,"internal_node_id":"0.0-19.0-0.0","params":{"nStudents":24,"maxFlips":25,"completionMinutes":45,"basePay":8,"maxBonus":9,"perTrialBonus":0.5,"perTrialBonusThreshold":0.05,"exampleCost":0.02},"classroomParams":{"A":{"a":1,"b":4},"B":{"a":4,"b":1},"C":{"a":2,"b":8},"D":{"a":8,"b":2}},"conditions":["nonSeqFull","nonSeqPartial","seqNoFeedback","seqFeedback"],"classroomPairings":[["A","B"],["C","D"]],"coinWeights":[0.2,0.5,0.8],"subjectId":"A1FVXS8IM5QYO8","assignmentId":"3JWH6J9I9TZFJACSX135KLH6NUMBN1","hitId":"3XUY87HIVP03YZXVLN9CW37DVI1MM2","url":"https://gershmanlab.com/experiments/alicia/teaching/experiment/?hitId=3XUY87HIVP03YZXVLN9CW37DVI1MM2&workerId=A1FVXS8IM5QYO8&assignmentId=3JWH6J9I9TZFJACSX135KLH6NUMBN1&a=I6WJ3&tp_a=I6WJ3&b=3JWH6J9I9TZFJACSX135KLH6NUMBN1&tp_b=3JWH6J9I9TZFJACSX135KLH6NUMBN1&c=365633&tp_c=365633"},{"rt":2218,"stimulus":"\n            <h4 style=\"color:Orange;\">Student 3</h4>\n            <h2>The weight of your coin is <b style=\"color:Tomato;\">0.8</b>.</h2>\n            <p>In this block, you will be giving <b>one</b> set of examples to Student 3.</p>\n                <p>You will receive feedback at the end of the block.</p>\n            <p></p>","response":0,"trial_type":"html-button-response","trial_index":36,"time_elapsed":732161,"internal_node_id":"0.0-20.0","params":{"nStudents":24,"maxFlips":25,"completionMinutes":45,"basePay":8,"maxBonus":9,"perTrialBonus":0.5,"perTrialBonusThreshold":0.05,"exampleCost":0.02},"classroomParams":{"A":{"a":1,"b":4},"B":{"a":4,"b":1},"C":{"a":2,"b":8},"D":{"a":8,"b":2}},"conditions":["nonSeqFull","nonSeqPartial","seqNoFeedback","seqFeedback"],"classroomPairings":[["A","B"],["C","D"]],"coinWeights":[0.2,0.5,0.8],"subjectId":"A1FVXS8IM5QYO8","assignmentId":"3JWH6J9I9TZFJACSX135KLH6NUMBN1","hitId":"3XUY87HIVP03YZXVLN9CW37DVI1MM2","url":"https://gershmanlab.com/experiments/alicia/teaching/experiment/?hitId=3XUY87HIVP03YZXVLN9CW37DVI1MM2&workerId=A1FVXS8IM5QYO8&assignmentId=3JWH6J9I9TZFJACSX135KLH6NUMBN1&a=I6WJ3&tp_a=I6WJ3&b=3JWH6J9I9TZFJACSX135KLH6NUMBN1&tp_b=3JWH6J9I9TZFJACSX135KLH6NUMBN1&c=365633&tp_c=365633"},{"rt":14035,"response":{"heads":"15","tails":"5"},"type":"response","condition":"nonSeqFull","trueTheta":0.8,"classrooms":["C","D"],"studentTrueClassroom":"C","exampleSet":"first","trial_type":"survey-html-form","trial_index":37,"time_elapsed":746198,"internal_node_id":"0.0-21.0-0.0","params":{"nStudents":24,"maxFlips":25,"completionMinutes":45,"basePay":8,"maxBonus":9,"perTrialBonus":0.5,"perTrialBonusThreshold":0.05,"exampleCost":0.02},"classroomParams":{"A":{"a":1,"b":4},"B":{"a":4,"b":1},"C":{"a":2,"b":8},"D":{"a":8,"b":2}},"conditions":["nonSeqFull","nonSeqPartial","seqNoFeedback","seqFeedback"],"classroomPairings":[["A","B"],["C","D"]],"coinWeights":[0.2,0.5,0.8],"subjectId":"A1FVXS8IM5QYO8","assignmentId":"3JWH6J9I9TZFJACSX135KLH6NUMBN1","hitId":"3XUY87HIVP03YZXVLN9CW37DVI1MM2","url":"https://gershmanlab.com/experiments/alicia/teaching/experiment/?hitId=3XUY87HIVP03YZXVLN9CW37DVI1MM2&workerId=A1FVXS8IM5QYO8&assignmentId=3JWH6J9I9TZFJACSX135KLH6NUMBN1&a=I6WJ3&tp_a=I6WJ3&b=3JWH6J9I9TZFJACSX135KLH6NUMBN1&tp_b=3JWH6J9I9TZFJACSX135KLH6NUMBN1&c=365633&tp_c=365633","heads":15,"tails":5,"studentIndex":2,"studentTrueHypers":{"a":2,"b":8},"studentGuess":0.5666666666666667,"delta":0.2333333333333334,"totalExamples":20,"bonus":0,"bonusSoFar":0},{"rt":null,"stimulus":"Sending examples to student... ","response":null,"trial_type":"html-keyboard-response","trial_index":38,"time_elapsed":747954,"internal_node_id":"0.0-22.0","params":{"nStudents":24,"maxFlips":25,"completionMinutes":45,"basePay":8,"maxBonus":9,"perTrialBonus":0.5,"perTrialBonusThreshold":0.05,"exampleCost":0.02},"classroomParams":{"A":{"a":1,"b":4},"B":{"a":4,"b":1},"C":{"a":2,"b":8},"D":{"a":8,"b":2}},"conditions":["nonSeqFull","nonSeqPartial","seqNoFeedback","seqFeedback"],"classroomPairings":[["A","B"],["C","D"]],"coinWeights":[0.2,0.5,0.8],"subjectId":"A1FVXS8IM5QYO8","assignmentId":"3JWH6J9I9TZFJACSX135KLH6NUMBN1","hitId":"3XUY87HIVP03YZXVLN9CW37DVI1MM2","url":"https://gershmanlab.com/experiments/alicia/teaching/experiment/?hitId=3XUY87HIVP03YZXVLN9CW37DVI1MM2&workerId=A1FVXS8IM5QYO8&assignmentId=3JWH6J9I9TZFJACSX135KLH6NUMBN1&a=I6WJ3&tp_a=I6WJ3&b=3JWH6J9I9TZFJACSX135KLH6NUMBN1&tp_b=3JWH6J9I9TZFJACSX135KLH6NUMBN1&c=365633&tp_c=365633"},{"rt":null,"stimulus":"Examples sent to student! Waiting for student...","response":null,"trial_type":"html-keyboard-response","trial_index":39,"time_elapsed":753958,"internal_node_id":"0.0-23.0","params":{"nStudents":24,"maxFlips":25,"completionMinutes":45,"basePay":8,"maxBonus":9,"perTrialBonus":0.5,"perTrialBonusThreshold":0.05,"exampleCost":0.02},"classroomParams":{"A":{"a":1,"b":4},"B":{"a":4,"b":1},"C":{"a":2,"b":8},"D":{"a":8,"b":2}},"conditions":["nonSeqFull","nonSeqPartial","seqNoFeedback","seqFeedback"],"classroomPairings":[["A","B"],["C","D"]],"coinWeights":[0.2,0.5,0.8],"subjectId":"A1FVXS8IM5QYO8","assignmentId":"3JWH6J9I9TZFJACSX135KLH6NUMBN1","hitId":"3XUY87HIVP03YZXVLN9CW37DVI1MM2","url":"https://gershmanlab.com/experiments/alicia/teaching/experiment/?hitId=3XUY87HIVP03YZXVLN9CW37DVI1MM2&workerId=A1FVXS8IM5QYO8&assignmentId=3JWH6J9I9TZFJACSX135KLH6NUMBN1&a=I6WJ3&tp_a=I6WJ3&b=3JWH6J9I9TZFJACSX135KLH6NUMBN1&tp_b=3JWH6J9I9TZFJACSX135KLH6NUMBN1&c=365633&tp_c=365633"},{"rt":1989,"stimulus":"\n                <p>Student's guess for coin weight: <b style=\"color:Tomato;\">0.57</b></p>\n                <p>You received a bonus of <b>$0</b>. Total bonus so far: <b>$0.00</b></b></p>\n                <p></p>\n                <p>Press any key to continue.</p>\n                ","response":" ","trial_type":"html-keyboard-response","trial_index":40,"time_elapsed":755950,"internal_node_id":"0.0-24.0","params":{"nStudents":24,"maxFlips":25,"completionMinutes":45,"basePay":8,"maxBonus":9,"perTrialBonus":0.5,"perTrialBonusThreshold":0.05,"exampleCost":0.02},"classroomParams":{"A":{"a":1,"b":4},"B":{"a":4,"b":1},"C":{"a":2,"b":8},"D":{"a":8,"b":2}},"conditions":["nonSeqFull","nonSeqPartial","seqNoFeedback","seqFeedback"],"classroomPairings":[["A","B"],["C","D"]],"coinWeights":[0.2,0.5,0.8],"subjectId":"A1FVXS8IM5QYO8","assignmentId":"3JWH6J9I9TZFJACSX135KLH6NUMBN1","hitId":"3XUY87HIVP03YZXVLN9CW37DVI1MM2","url":"https://gershmanlab.com/experiments/alicia/teaching/experiment/?hitId=3XUY87HIVP03YZXVLN9CW37DVI1MM2&workerId=A1FVXS8IM5QYO8&assignmentId=3JWH6J9I9TZFJACSX135KLH6NUMBN1&a=I6WJ3&tp_a=I6WJ3&b=3JWH6J9I9TZFJACSX135KLH6NUMBN1&tp_b=3JWH6J9I9TZFJACSX135KLH6NUMBN1&c=365633&tp_c=365633"},{"rt":null,"stimulus":"<div style=\"font-size:60px;\">Next student</div>","response":null,"trial_type":"html-keyboard-response","trial_index":41,"time_elapsed":758206,"internal_node_id":"0.0-25.0-0.0","params":{"nStudents":24,"maxFlips":25,"completionMinutes":45,"basePay":8,"maxBonus":9,"perTrialBonus":0.5,"perTrialBonusThreshold":0.05,"exampleCost":0.02},"classroomParams":{"A":{"a":1,"b":4},"B":{"a":4,"b":1},"C":{"a":2,"b":8},"D":{"a":8,"b":2}},"conditions":["nonSeqFull","nonSeqPartial","seqNoFeedback","seqFeedback"],"classroomPairings":[["A","B"],["C","D"]],"coinWeights":[0.2,0.5,0.8],"subjectId":"A1FVXS8IM5QYO8","assignmentId":"3JWH6J9I9TZFJACSX135KLH6NUMBN1","hitId":"3XUY87HIVP03YZXVLN9CW37DVI1MM2","url":"https://gershmanlab.com/experiments/alicia/teaching/experiment/?hitId=3XUY87HIVP03YZXVLN9CW37DVI1MM2&workerId=A1FVXS8IM5QYO8&assignmentId=3JWH6J9I9TZFJACSX135KLH6NUMBN1&a=I6WJ3&tp_a=I6WJ3&b=3JWH6J9I9TZFJACSX135KLH6NUMBN1&tp_b=3JWH6J9I9TZFJACSX135KLH6NUMBN1&c=365633&tp_c=365633"},{"rt":1968,"stimulus":"\n            <h4 style=\"color:Orange;\">Student 4</h4>\n            <h2>The weight of your coin is <b style=\"color:Tomato;\">0.8</b>.</h2>\n            <p>In this block, you will be giving <b>two</b> sets of examples to Student 4.</p>\n                <p>You will see the student's guess after the first set of examples. You will also receive feedback at the end of the block.</p>\n            <p>To earn the highest bonus, you will have to <b>take into consideration the student's guess</b> when you choose your second set of examples.</p>","response":0,"trial_type":"html-button-response","trial_index":42,"time_elapsed":760176,"internal_node_id":"0.0-26.0","params":{"nStudents":24,"maxFlips":25,"completionMinutes":45,"basePay":8,"maxBonus":9,"perTrialBonus":0.5,"perTrialBonusThreshold":0.05,"exampleCost":0.02},"classroomParams":{"A":{"a":1,"b":4},"B":{"a":4,"b":1},"C":{"a":2,"b":8},"D":{"a":8,"b":2}},"conditions":["nonSeqFull","nonSeqPartial","seqNoFeedback","seqFeedback"],"classroomPairings":[["A","B"],["C","D"]],"coinWeights":[0.2,0.5,0.8],"subjectId":"A1FVXS8IM5QYO8","assignmentId":"3JWH6J9I9TZFJACSX135KLH6NUMBN1","hitId":"3XUY87HIVP03YZXVLN9CW37DVI1MM2","url":"https://gershmanlab.com/experiments/alicia/teaching/experiment/?hitId=3XUY87HIVP03YZXVLN9CW37DVI1MM2&workerId=A1FVXS8IM5QYO8&assignmentId=3JWH6J9I9TZFJACSX135KLH6NUMBN1&a=I6WJ3&tp_a=I6WJ3&b=3JWH6J9I9TZFJACSX135KLH6NUMBN1&tp_b=3JWH6J9I9TZFJACSX135KLH6NUMBN1&c=365633&tp_c=365633"},{"rt":22290,"response":{"heads":"9","tails":"2"},"type":"response","condition":"seqFeedback","trueTheta":0.8,"classrooms":["C","D"],"studentTrueClassroom":"D","exampleSet":"first","trial_type":"survey-html-form","trial_index":43,"time_elapsed":782467,"internal_node_id":"0.0-27.0-0.0","params":{"nStudents":24,"maxFlips":25,"completionMinutes":45,"basePay":8,"maxBonus":9,"perTrialBonus":0.5,"perTrialBonusThreshold":0.05,"exampleCost":0.02},"classroomParams":{"A":{"a":1,"b":4},"B":{"a":4,"b":1},"C":{"a":2,"b":8},"D":{"a":8,"b":2}},"conditions":["nonSeqFull","nonSeqPartial","seqNoFeedback","seqFeedback"],"classroomPairings":[["A","B"],["C","D"]],"coinWeights":[0.2,0.5,0.8],"subjectId":"A1FVXS8IM5QYO8","assignmentId":"3JWH6J9I9TZFJACSX135KLH6NUMBN1","hitId":"3XUY87HIVP03YZXVLN9CW37DVI1MM2","url":"https://gershmanlab.com/experiments/alicia/teaching/experiment/?hitId=3XUY87HIVP03YZXVLN9CW37DVI1MM2&workerId=A1FVXS8IM5QYO8&assignmentId=3JWH6J9I9TZFJACSX135KLH6NUMBN1&a=I6WJ3&tp_a=I6WJ3&b=3JWH6J9I9TZFJACSX135KLH6NUMBN1&tp_b=3JWH6J9I9TZFJACSX135KLH6NUMBN1&c=365633&tp_c=365633","heads":9,"tails":2,"studentIndex":3,"studentTrueHypers":{"a":8,"b":2},"studentGuess":0.8095238095238095,"delta":0.00952380952380949,"totalExamples":11,"bonusSoFar":0},{"rt":null,"stimulus":"Sending examples to student... ","response":null,"trial_type":"html-keyboard-response","trial_index":44,"time_elapsed":784473,"internal_node_id":"0.0-28.0","params":{"nStudents":24,"maxFlips":25,"completionMinutes":45,"basePay":8,"maxBonus":9,"perTrialBonus":0.5,"perTrialBonusThreshold":0.05,"exampleCost":0.02},"classroomParams":{"A":{"a":1,"b":4},"B":{"a":4,"b":1},"C":{"a":2,"b":8},"D":{"a":8,"b":2}},"conditions":["nonSeqFull","nonSeqPartial","seqNoFeedback","seqFeedback"],"classroomPairings":[["A","B"],["C","D"]],"coinWeights":[0.2,0.5,0.8],"subjectId":"A1FVXS8IM5QYO8","assignmentId":"3JWH6J9I9TZFJACSX135KLH6NUMBN1","hitId":"3XUY87HIVP03YZXVLN9CW37DVI1MM2","url":"https://gershmanlab.com/experiments/alicia/teaching/experiment/?hitId=3XUY87HIVP03YZXVLN9CW37DVI1MM2&workerId=A1FVXS8IM5QYO8&assignmentId=3JWH6J9I9TZFJACSX135KLH6NUMBN1&a=I6WJ3&tp_a=I6WJ3&b=3JWH6J9I9TZFJACSX135KLH6NUMBN1&tp_b=3JWH6J9I9TZFJACSX135KLH6NUMBN1&c=365633&tp_c=365633"},{"rt":null,"stimulus":"Examples sent to student! Waiting for student...","response":null,"trial_type":"html-keyboard-response","trial_index":45,"time_elapsed":790481,"internal_node_id":"0.0-29.0","params":{"nStudents":24,"maxFlips":25,"completionMinutes":45,"basePay":8,"maxBonus":9,"perTrialBonus":0.5,"perTrialBonusThreshold":0.05,"exampleCost":0.02},"classroomParams":{"A":{"a":1,"b":4},"B":{"a":4,"b":1},"C":{"a":2,"b":8},"D":{"a":8,"b":2}},"conditions":["nonSeqFull","nonSeqPartial","seqNoFeedback","seqFeedback"],"classroomPairings":[["A","B"],["C","D"]],"coinWeights":[0.2,0.5,0.8],"subjectId":"A1FVXS8IM5QYO8","assignmentId":"3JWH6J9I9TZFJACSX135KLH6NUMBN1","hitId":"3XUY87HIVP03YZXVLN9CW37DVI1MM2","url":"https://gershmanlab.com/experiments/alicia/teaching/experiment/?hitId=3XUY87HIVP03YZXVLN9CW37DVI1MM2&workerId=A1FVXS8IM5QYO8&assignmentId=3JWH6J9I9TZFJACSX135KLH6NUMBN1&a=I6WJ3&tp_a=I6WJ3&b=3JWH6J9I9TZFJACSX135KLH6NUMBN1&tp_b=3JWH6J9I9TZFJACSX135KLH6NUMBN1&c=365633&tp_c=365633"},{"rt":4163,"stimulus":"\n                <p>Student's guess for coin weight: <b style=\"color:Tomato;\">0.81</b></p>\n                <p></b></p>\n                <p>You will now send another set of examples to your student. <b>Remember to take your student's guess into consideration so that you can earn the highest bonus possible!</b> </p>\n                <p>Press any key to continue.</p>\n                ","response":" ","trial_type":"html-keyboard-response","trial_index":46,"time_elapsed":794646,"internal_node_id":"0.0-30.0","params":{"nStudents":24,"maxFlips":25,"completionMinutes":45,"basePay":8,"maxBonus":9,"perTrialBonus":0.5,"perTrialBonusThreshold":0.05,"exampleCost":0.02},"classroomParams":{"A":{"a":1,"b":4},"B":{"a":4,"b":1},"C":{"a":2,"b":8},"D":{"a":8,"b":2}},"conditions":["nonSeqFull","nonSeqPartial","seqNoFeedback","seqFeedback"],"classroomPairings":[["A","B"],["C","D"]],"coinWeights":[0.2,0.5,0.8],"subjectId":"A1FVXS8IM5QYO8","assignmentId":"3JWH6J9I9TZFJACSX135KLH6NUMBN1","hitId":"3XUY87HIVP03YZXVLN9CW37DVI1MM2","url":"https://gershmanlab.com/experiments/alicia/teaching/experiment/?hitId=3XUY87HIVP03YZXVLN9CW37DVI1MM2&workerId=A1FVXS8IM5QYO8&assignmentId=3JWH6J9I9TZFJACSX135KLH6NUMBN1&a=I6WJ3&tp_a=I6WJ3&b=3JWH6J9I9TZFJACSX135KLH6NUMBN1&tp_b=3JWH6J9I9TZFJACSX135KLH6NUMBN1&c=365633&tp_c=365633"},{"rt":7586,"response":{"heads":"10","tails":"2"},"type":"response","condition":"seqFeedback","trueTheta":0.8,"classrooms":["C","D"],"studentTrueClassroom":"D","exampleSet":"second","trial_type":"survey-html-form","trial_index":47,"time_elapsed":802234,"internal_node_id":"0.0-31.0-0.0","params":{"nStudents":24,"maxFlips":25,"completionMinutes":45,"basePay":8,"maxBonus":9,"perTrialBonus":0.5,"perTrialBonusThreshold":0.05,"exampleCost":0.02},"classroomParams":{"A":{"a":1,"b":4},"B":{"a":4,"b":1},"C":{"a":2,"b":8},"D":{"a":8,"b":2}},"conditions":["nonSeqFull","nonSeqPartial","seqNoFeedback","seqFeedback"],"classroomPairings":[["A","B"],["C","D"]],"coinWeights":[0.2,0.5,0.8],"subjectId":"A1FVXS8IM5QYO8","assignmentId":"3JWH6J9I9TZFJACSX135KLH6NUMBN1","hitId":"3XUY87HIVP03YZXVLN9CW37DVI1MM2","url":"https://gershmanlab.com/experiments/alicia/teaching/experiment/?hitId=3XUY87HIVP03YZXVLN9CW37DVI1MM2&workerId=A1FVXS8IM5QYO8&assignmentId=3JWH6J9I9TZFJACSX135KLH6NUMBN1&a=I6WJ3&tp_a=I6WJ3&b=3JWH6J9I9TZFJACSX135KLH6NUMBN1&tp_b=3JWH6J9I9TZFJACSX135KLH6NUMBN1&c=365633&tp_c=365633","firstResponseHeads":9,"firstResponseTails":2,"secondResponseHeads":10,"secondResponseTails":2,"totalHeads":19,"totalTails":4,"studentIndex":3,"studentTrueHypers":{"a":8,"b":2},"studentGuess":0.8181818181818182,"delta":0.018181818181818188,"bonus":0.04,"bonusSoFar":0.04,"totalExamples":23},{"rt":null,"stimulus":"Sending examples to student... ","response":null,"trial_type":"html-keyboard-response","trial_index":48,"time_elapsed":803739,"internal_node_id":"0.0-32.0","params":{"nStudents":24,"maxFlips":25,"completionMinutes":45,"basePay":8,"maxBonus":9,"perTrialBonus":0.5,"perTrialBonusThreshold":0.05,"exampleCost":0.02},"classroomParams":{"A":{"a":1,"b":4},"B":{"a":4,"b":1},"C":{"a":2,"b":8},"D":{"a":8,"b":2}},"conditions":["nonSeqFull","nonSeqPartial","seqNoFeedback","seqFeedback"],"classroomPairings":[["A","B"],["C","D"]],"coinWeights":[0.2,0.5,0.8],"subjectId":"A1FVXS8IM5QYO8","assignmentId":"3JWH6J9I9TZFJACSX135KLH6NUMBN1","hitId":"3XUY87HIVP03YZXVLN9CW37DVI1MM2","url":"https://gershmanlab.com/experiments/alicia/teaching/experiment/?hitId=3XUY87HIVP03YZXVLN9CW37DVI1MM2&workerId=A1FVXS8IM5QYO8&assignmentId=3JWH6J9I9TZFJACSX135KLH6NUMBN1&a=I6WJ3&tp_a=I6WJ3&b=3JWH6J9I9TZFJACSX135KLH6NUMBN1&tp_b=3JWH6J9I9TZFJACSX135KLH6NUMBN1&c=365633&tp_c=365633"},{"rt":null,"stimulus":"Examples sent to student! Waiting for student...","response":null,"trial_type":"html-keyboard-response","trial_index":49,"time_elapsed":808246,"internal_node_id":"0.0-33.0","params":{"nStudents":24,"maxFlips":25,"completionMinutes":45,"basePay":8,"maxBonus":9,"perTrialBonus":0.5,"perTrialBonusThreshold":0.05,"exampleCost":0.02},"classroomParams":{"A":{"a":1,"b":4},"B":{"a":4,"b":1},"C":{"a":2,"b":8},"D":{"a":8,"b":2}},"conditions":["nonSeqFull","nonSeqPartial","seqNoFeedback","seqFeedback"],"classroomPairings":[["A","B"],["C","D"]],"coinWeights":[0.2,0.5,0.8],"subjectId":"A1FVXS8IM5QYO8","assignmentId":"3JWH6J9I9TZFJACSX135KLH6NUMBN1","hitId":"3XUY87HIVP03YZXVLN9CW37DVI1MM2","url":"https://gershmanlab.com/experiments/alicia/teaching/experiment/?hitId=3XUY87HIVP03YZXVLN9CW37DVI1MM2&workerId=A1FVXS8IM5QYO8&assignmentId=3JWH6J9I9TZFJACSX135KLH6NUMBN1&a=I6WJ3&tp_a=I6WJ3&b=3JWH6J9I9TZFJACSX135KLH6NUMBN1&tp_b=3JWH6J9I9TZFJACSX135KLH6NUMBN1&c=365633&tp_c=365633"},{"rt":3606,"stimulus":"\n                <p>Student 4's first guess for coin weight: <b style=\"color:Tomato\";>0.81</b></p>\n                <p>Student 4's second guess for coin weight: <b style=\"color:Tomato\";>0.82</b></p>\n                <p>You received a bonus of <b>$0.04</b> based on the student's second guess.</p>\n                <p>Total bonus so far: <b>$0.04</b></p>\n                <p>Press any key to continue.</p>\n                ","response":" ","trial_type":"html-keyboard-response","trial_index":50,"time_elapsed":811854,"internal_node_id":"0.0-34.0","params":{"nStudents":24,"maxFlips":25,"completionMinutes":45,"basePay":8,"maxBonus":9,"perTrialBonus":0.5,"perTrialBonusThreshold":0.05,"exampleCost":0.02},"classroomParams":{"A":{"a":1,"b":4},"B":{"a":4,"b":1},"C":{"a":2,"b":8},"D":{"a":8,"b":2}},"conditions":["nonSeqFull","nonSeqPartial","seqNoFeedback","seqFeedback"],"classroomPairings":[["A","B"],["C","D"]],"coinWeights":[0.2,0.5,0.8],"subjectId":"A1FVXS8IM5QYO8","assignmentId":"3JWH6J9I9TZFJACSX135KLH6NUMBN1","hitId":"3XUY87HIVP03YZXVLN9CW37DVI1MM2","url":"https://gershmanlab.com/experiments/alicia/teaching/experiment/?hitId=3XUY87HIVP03YZXVLN9CW37DVI1MM2&workerId=A1FVXS8IM5QYO8&assignmentId=3JWH6J9I9TZFJACSX135KLH6NUMBN1&a=I6WJ3&tp_a=I6WJ3&b=3JWH6J9I9TZFJACSX135KLH6NUMBN1&tp_b=3JWH6J9I9TZFJACSX135KLH6NUMBN1&c=365633&tp_c=365633"},{"rt":null,"stimulus":"<div style=\"font-size:60px;\">Next student</div>","response":null,"trial_type":"html-keyboard-response","trial_index":51,"time_elapsed":814857,"internal_node_id":"0.0-35.0-0.0","params":{"nStudents":24,"maxFlips":25,"completionMinutes":45,"basePay":8,"maxBonus":9,"perTrialBonus":0.5,"perTrialBonusThreshold":0.05,"exampleCost":0.02},"classroomParams":{"A":{"a":1,"b":4},"B":{"a":4,"b":1},"C":{"a":2,"b":8},"D":{"a":8,"b":2}},"conditions":["nonSeqFull","nonSeqPartial","seqNoFeedback","seqFeedback"],"classroomPairings":[["A","B"],["C","D"]],"coinWeights":[0.2,0.5,0.8],"subjectId":"A1FVXS8IM5QYO8","assignmentId":"3JWH6J9I9TZFJACSX135KLH6NUMBN1","hitId":"3XUY87HIVP03YZXVLN9CW37DVI1MM2","url":"https://gershmanlab.com/experiments/alicia/teaching/experiment/?hitId=3XUY87HIVP03YZXVLN9CW37DVI1MM2&workerId=A1FVXS8IM5QYO8&assignmentId=3JWH6J9I9TZFJACSX135KLH6NUMBN1&a=I6WJ3&tp_a=I6WJ3&b=3JWH6J9I9TZFJACSX135KLH6NUMBN1&tp_b=3JWH6J9I9TZFJACSX135KLH6NUMBN1&c=365633&tp_c=365633"},{"rt":3297,"stimulus":"\n            <h4 style=\"color:Orange;\">Student 5</h4>\n            <h2>The weight of your coin is <b style=\"color:Tomato;\">0.2</b>.</h2>\n            <p>In this block, you will be giving <b>one</b> set of examples to Student 5.</p>\n                <p>You will receive feedback at the end of the block.</p>\n            <p></p>","response":0,"trial_type":"html-button-response","trial_index":52,"time_elapsed":818157,"internal_node_id":"0.0-36.0","params":{"nStudents":24,"maxFlips":25,"completionMinutes":45,"basePay":8,"maxBonus":9,"perTrialBonus":0.5,"perTrialBonusThreshold":0.05,"exampleCost":0.02},"classroomParams":{"A":{"a":1,"b":4},"B":{"a":4,"b":1},"C":{"a":2,"b":8},"D":{"a":8,"b":2}},"conditions":["nonSeqFull","nonSeqPartial","seqNoFeedback","seqFeedback"],"classroomPairings":[["A","B"],["C","D"]],"coinWeights":[0.2,0.5,0.8],"subjectId":"A1FVXS8IM5QYO8","assignmentId":"3JWH6J9I9TZFJACSX135KLH6NUMBN1","hitId":"3XUY87HIVP03YZXVLN9CW37DVI1MM2","url":"https://gershmanlab.com/experiments/alicia/teaching/experiment/?hitId=3XUY87HIVP03YZXVLN9CW37DVI1MM2&workerId=A1FVXS8IM5QYO8&assignmentId=3JWH6J9I9TZFJACSX135KLH6NUMBN1&a=I6WJ3&tp_a=I6WJ3&b=3JWH6J9I9TZFJACSX135KLH6NUMBN1&tp_b=3JWH6J9I9TZFJACSX135KLH6NUMBN1&c=365633&tp_c=365633"},{"rt":11838,"response":{"heads":"2","tails":"10"},"type":"response","condition":"nonSeqPartial","trueTheta":0.2,"classrooms":["A","B"],"studentTrueClassroom":"A","exampleSet":"first","trial_type":"survey-html-form","trial_index":53,"time_elapsed":829996,"internal_node_id":"0.0-37.0-0.0","params":{"nStudents":24,"maxFlips":25,"completionMinutes":45,"basePay":8,"maxBonus":9,"perTrialBonus":0.5,"perTrialBonusThreshold":0.05,"exampleCost":0.02},"classroomParams":{"A":{"a":1,"b":4},"B":{"a":4,"b":1},"C":{"a":2,"b":8},"D":{"a":8,"b":2}},"conditions":["nonSeqFull","nonSeqPartial","seqNoFeedback","seqFeedback"],"classroomPairings":[["A","B"],["C","D"]],"coinWeights":[0.2,0.5,0.8],"subjectId":"A1FVXS8IM5QYO8","assignmentId":"3JWH6J9I9TZFJACSX135KLH6NUMBN1","hitId":"3XUY87HIVP03YZXVLN9CW37DVI1MM2","url":"https://gershmanlab.com/experiments/alicia/teaching/experiment/?hitId=3XUY87HIVP03YZXVLN9CW37DVI1MM2&workerId=A1FVXS8IM5QYO8&assignmentId=3JWH6J9I9TZFJACSX135KLH6NUMBN1&a=I6WJ3&tp_a=I6WJ3&b=3JWH6J9I9TZFJACSX135KLH6NUMBN1&tp_b=3JWH6J9I9TZFJACSX135KLH6NUMBN1&c=365633&tp_c=365633","heads":2,"tails":10,"studentIndex":4,"studentTrueHypers":{"a":1,"b":4},"studentGuess":0.17647058823529413,"delta":0.023529411764705882,"totalExamples":12,"bonus":0.26,"bonusSoFar":0.3},{"rt":null,"stimulus":"Sending examples to student... ","response":null,"trial_type":"html-keyboard-response","trial_index":54,"time_elapsed":831752,"internal_node_id":"0.0-38.0","params":{"nStudents":24,"maxFlips":25,"completionMinutes":45,"basePay":8,"maxBonus":9,"perTrialBonus":0.5,"perTrialBonusThreshold":0.05,"exampleCost":0.02},"classroomParams":{"A":{"a":1,"b":4},"B":{"a":4,"b":1},"C":{"a":2,"b":8},"D":{"a":8,"b":2}},"conditions":["nonSeqFull","nonSeqPartial","seqNoFeedback","seqFeedback"],"classroomPairings":[["A","B"],["C","D"]],"coinWeights":[0.2,0.5,0.8],"subjectId":"A1FVXS8IM5QYO8","assignmentId":"3JWH6J9I9TZFJACSX135KLH6NUMBN1","hitId":"3XUY87HIVP03YZXVLN9CW37DVI1MM2","url":"https://gershmanlab.com/experiments/alicia/teaching/experiment/?hitId=3XUY87HIVP03YZXVLN9CW37DVI1MM2&workerId=A1FVXS8IM5QYO8&assignmentId=3JWH6J9I9TZFJACSX135KLH6NUMBN1&a=I6WJ3&tp_a=I6WJ3&b=3JWH6J9I9TZFJACSX135KLH6NUMBN1&tp_b=3JWH6J9I9TZFJACSX135KLH6NUMBN1&c=365633&tp_c=365633"},{"rt":null,"stimulus":"Examples sent to student! Waiting for student...","response":null,"trial_type":"html-keyboard-response","trial_index":55,"time_elapsed":835757,"internal_node_id":"0.0-39.0","params":{"nStudents":24,"maxFlips":25,"completionMinutes":45,"basePay":8,"maxBonus":9,"perTrialBonus":0.5,"perTrialBonusThreshold":0.05,"exampleCost":0.02},"classroomParams":{"A":{"a":1,"b":4},"B":{"a":4,"b":1},"C":{"a":2,"b":8},"D":{"a":8,"b":2}},"conditions":["nonSeqFull","nonSeqPartial","seqNoFeedback","seqFeedback"],"classroomPairings":[["A","B"],["C","D"]],"coinWeights":[0.2,0.5,0.8],"subjectId":"A1FVXS8IM5QYO8","assignmentId":"3JWH6J9I9TZFJACSX135KLH6NUMBN1","hitId":"3XUY87HIVP03YZXVLN9CW37DVI1MM2","url":"https://gershmanlab.com/experiments/alicia/teaching/experiment/?hitId=3XUY87HIVP03YZXVLN9CW37DVI1MM2&workerId=A1FVXS8IM5QYO8&assignmentId=3JWH6J9I9TZFJACSX135KLH6NUMBN1&a=I6WJ3&tp_a=I6WJ3&b=3JWH6J9I9TZFJACSX135KLH6NUMBN1&tp_b=3JWH6J9I9TZFJACSX135KLH6NUMBN1&c=365633&tp_c=365633"},{"rt":2447,"stimulus":"\n                <p>Student's guess for coin weight: <b style=\"color:Tomato;\">0.18</b></p>\n                <p>You received a bonus of <b>$0.26</b>. Total bonus so far: <b>$0.30</b></b></p>\n                <p></p>\n                <p>Press any key to continue.</p>\n                ","response":" ","trial_type":"html-keyboard-response","trial_index":56,"time_elapsed":838207,"internal_node_id":"0.0-40.0","params":{"nStudents":24,"maxFlips":25,"completionMinutes":45,"basePay":8,"maxBonus":9,"perTrialBonus":0.5,"perTrialBonusThreshold":0.05,"exampleCost":0.02},"classroomParams":{"A":{"a":1,"b":4},"B":{"a":4,"b":1},"C":{"a":2,"b":8},"D":{"a":8,"b":2}},"conditions":["nonSeqFull","nonSeqPartial","seqNoFeedback","seqFeedback"],"classroomPairings":[["A","B"],["C","D"]],"coinWeights":[0.2,0.5,0.8],"subjectId":"A1FVXS8IM5QYO8","assignmentId":"3JWH6J9I9TZFJACSX135KLH6NUMBN1","hitId":"3XUY87HIVP03YZXVLN9CW37DVI1MM2","url":"https://gershmanlab.com/experiments/alicia/teaching/experiment/?hitId=3XUY87HIVP03YZXVLN9CW37DVI1MM2&workerId=A1FVXS8IM5QYO8&assignmentId=3JWH6J9I9TZFJACSX135KLH6NUMBN1&a=I6WJ3&tp_a=I6WJ3&b=3JWH6J9I9TZFJACSX135KLH6NUMBN1&tp_b=3JWH6J9I9TZFJACSX135KLH6NUMBN1&c=365633&tp_c=365633"},{"rt":null,"stimulus":"<div style=\"font-size:60px;\">Next student</div>","response":null,"trial_type":"html-keyboard-response","trial_index":57,"time_elapsed":840213,"internal_node_id":"0.0-41.0-0.0","params":{"nStudents":24,"maxFlips":25,"completionMinutes":45,"basePay":8,"maxBonus":9,"perTrialBonus":0.5,"perTrialBonusThreshold":0.05,"exampleCost":0.02},"classroomParams":{"A":{"a":1,"b":4},"B":{"a":4,"b":1},"C":{"a":2,"b":8},"D":{"a":8,"b":2}},"conditions":["nonSeqFull","nonSeqPartial","seqNoFeedback","seqFeedback"],"classroomPairings":[["A","B"],["C","D"]],"coinWeights":[0.2,0.5,0.8],"subjectId":"A1FVXS8IM5QYO8","assignmentId":"3JWH6J9I9TZFJACSX135KLH6NUMBN1","hitId":"3XUY87HIVP03YZXVLN9CW37DVI1MM2","url":"https://gershmanlab.com/experiments/alicia/teaching/experiment/?hitId=3XUY87HIVP03YZXVLN9CW37DVI1MM2&workerId=A1FVXS8IM5QYO8&assignmentId=3JWH6J9I9TZFJACSX135KLH6NUMBN1&a=I6WJ3&tp_a=I6WJ3&b=3JWH6J9I9TZFJACSX135KLH6NUMBN1&tp_b=3JWH6J9I9TZFJACSX135KLH6NUMBN1&c=365633&tp_c=365633"},{"rt":1918,"stimulus":"\n            <h4 style=\"color:Orange;\">Student 6</h4>\n            <h2>The weight of your coin is <b style=\"color:Tomato;\">0.5</b>.</h2>\n            <p>In this block, you will be giving <b>two</b> sets of examples to Student 6.</p>\n                <p>You will receive feedback at the end of the block.</p>\n            <p></p>","response":0,"trial_type":"html-button-response","trial_index":58,"time_elapsed":842134,"internal_node_id":"0.0-42.0","params":{"nStudents":24,"maxFlips":25,"completionMinutes":45,"basePay":8,"maxBonus":9,"perTrialBonus":0.5,"perTrialBonusThreshold":0.05,"exampleCost":0.02},"classroomParams":{"A":{"a":1,"b":4},"B":{"a":4,"b":1},"C":{"a":2,"b":8},"D":{"a":8,"b":2}},"conditions":["nonSeqFull","nonSeqPartial","seqNoFeedback","seqFeedback"],"classroomPairings":[["A","B"],["C","D"]],"coinWeights":[0.2,0.5,0.8],"subjectId":"A1FVXS8IM5QYO8","assignmentId":"3JWH6J9I9TZFJACSX135KLH6NUMBN1","hitId":"3XUY87HIVP03YZXVLN9CW37DVI1MM2","url":"https://gershmanlab.com/experiments/alicia/teaching/experiment/?hitId=3XUY87HIVP03YZXVLN9CW37DVI1MM2&workerId=A1FVXS8IM5QYO8&assignmentId=3JWH6J9I9TZFJACSX135KLH6NUMBN1&a=I6WJ3&tp_a=I6WJ3&b=3JWH6J9I9TZFJACSX135KLH6NUMBN1&tp_b=3JWH6J9I9TZFJACSX135KLH6NUMBN1&c=365633&tp_c=365633"},{"rt":7294,"response":{"heads":"5","tails":"5"},"type":"response","condition":"seqNoFeedback","trueTheta":0.5,"classrooms":["C","D"],"studentTrueClassroom":"C","exampleSet":"first","trial_type":"survey-html-form","trial_index":59,"time_elapsed":849430,"internal_node_id":"0.0-43.0-0.0","params":{"nStudents":24,"maxFlips":25,"completionMinutes":45,"basePay":8,"maxBonus":9,"perTrialBonus":0.5,"perTrialBonusThreshold":0.05,"exampleCost":0.02},"classroomParams":{"A":{"a":1,"b":4},"B":{"a":4,"b":1},"C":{"a":2,"b":8},"D":{"a":8,"b":2}},"conditions":["nonSeqFull","nonSeqPartial","seqNoFeedback","seqFeedback"],"classroomPairings":[["A","B"],["C","D"]],"coinWeights":[0.2,0.5,0.8],"subjectId":"A1FVXS8IM5QYO8","assignmentId":"3JWH6J9I9TZFJACSX135KLH6NUMBN1","hitId":"3XUY87HIVP03YZXVLN9CW37DVI1MM2","url":"https://gershmanlab.com/experiments/alicia/teaching/experiment/?hitId=3XUY87HIVP03YZXVLN9CW37DVI1MM2&workerId=A1FVXS8IM5QYO8&assignmentId=3JWH6J9I9TZFJACSX135KLH6NUMBN1&a=I6WJ3&tp_a=I6WJ3&b=3JWH6J9I9TZFJACSX135KLH6NUMBN1&tp_b=3JWH6J9I9TZFJACSX135KLH6NUMBN1&c=365633&tp_c=365633","heads":5,"tails":5,"studentIndex":5,"studentTrueHypers":{"a":2,"b":8},"studentGuess":0.35,"delta":0.15000000000000002,"totalExamples":10,"bonusSoFar":0.3},{"rt":null,"stimulus":"Sending examples to student... ","response":null,"trial_type":"html-keyboard-response","trial_index":60,"time_elapsed":850685,"internal_node_id":"0.0-44.0","params":{"nStudents":24,"maxFlips":25,"completionMinutes":45,"basePay":8,"maxBonus":9,"perTrialBonus":0.5,"perTrialBonusThreshold":0.05,"exampleCost":0.02},"classroomParams":{"A":{"a":1,"b":4},"B":{"a":4,"b":1},"C":{"a":2,"b":8},"D":{"a":8,"b":2}},"conditions":["nonSeqFull","nonSeqPartial","seqNoFeedback","seqFeedback"],"classroomPairings":[["A","B"],["C","D"]],"coinWeights":[0.2,0.5,0.8],"subjectId":"A1FVXS8IM5QYO8","assignmentId":"3JWH6J9I9TZFJACSX135KLH6NUMBN1","hitId":"3XUY87HIVP03YZXVLN9CW37DVI1MM2","url":"https://gershmanlab.com/experiments/alicia/teaching/experiment/?hitId=3XUY87HIVP03YZXVLN9CW37DVI1MM2&workerId=A1FVXS8IM5QYO8&assignmentId=3JWH6J9I9TZFJACSX135KLH6NUMBN1&a=I6WJ3&tp_a=I6WJ3&b=3JWH6J9I9TZFJACSX135KLH6NUMBN1&tp_b=3JWH6J9I9TZFJACSX135KLH6NUMBN1&c=365633&tp_c=365633"},{"rt":null,"stimulus":"Examples sent to student! Waiting for student...","response":null,"trial_type":"html-keyboard-response","trial_index":61,"time_elapsed":855692,"internal_node_id":"0.0-45.0","params":{"nStudents":24,"maxFlips":25,"completionMinutes":45,"basePay":8,"maxBonus":9,"perTrialBonus":0.5,"perTrialBonusThreshold":0.05,"exampleCost":0.02},"classroomParams":{"A":{"a":1,"b":4},"B":{"a":4,"b":1},"C":{"a":2,"b":8},"D":{"a":8,"b":2}},"conditions":["nonSeqFull","nonSeqPartial","seqNoFeedback","seqFeedback"],"classroomPairings":[["A","B"],["C","D"]],"coinWeights":[0.2,0.5,0.8],"subjectId":"A1FVXS8IM5QYO8","assignmentId":"3JWH6J9I9TZFJACSX135KLH6NUMBN1","hitId":"3XUY87HIVP03YZXVLN9CW37DVI1MM2","url":"https://gershmanlab.com/experiments/alicia/teaching/experiment/?hitId=3XUY87HIVP03YZXVLN9CW37DVI1MM2&workerId=A1FVXS8IM5QYO8&assignmentId=3JWH6J9I9TZFJACSX135KLH6NUMBN1&a=I6WJ3&tp_a=I6WJ3&b=3JWH6J9I9TZFJACSX135KLH6NUMBN1&tp_b=3JWH6J9I9TZFJACSX135KLH6NUMBN1&c=365633&tp_c=365633"},{"rt":9360,"response":{"heads":"10","tails":"10"},"type":"response","condition":"seqNoFeedback","trueTheta":0.5,"classrooms":["C","D"],"studentTrueClassroom":"C","exampleSet":"second","trial_type":"survey-html-form","trial_index":62,"time_elapsed":865053,"internal_node_id":"0.0-46.0-0.0","params":{"nStudents":24,"maxFlips":25,"completionMinutes":45,"basePay":8,"maxBonus":9,"perTrialBonus":0.5,"perTrialBonusThreshold":0.05,"exampleCost":0.02},"classroomParams":{"A":{"a":1,"b":4},"B":{"a":4,"b":1},"C":{"a":2,"b":8},"D":{"a":8,"b":2}},"conditions":["nonSeqFull","nonSeqPartial","seqNoFeedback","seqFeedback"],"classroomPairings":[["A","B"],["C","D"]],"coinWeights":[0.2,0.5,0.8],"subjectId":"A1FVXS8IM5QYO8","assignmentId":"3JWH6J9I9TZFJACSX135KLH6NUMBN1","hitId":"3XUY87HIVP03YZXVLN9CW37DVI1MM2","url":"https://gershmanlab.com/experiments/alicia/teaching/experiment/?hitId=3XUY87HIVP03YZXVLN9CW37DVI1MM2&workerId=A1FVXS8IM5QYO8&assignmentId=3JWH6J9I9TZFJACSX135KLH6NUMBN1&a=I6WJ3&tp_a=I6WJ3&b=3JWH6J9I9TZFJACSX135KLH6NUMBN1&tp_b=3JWH6J9I9TZFJACSX135KLH6NUMBN1&c=365633&tp_c=365633","firstResponseHeads":5,"firstResponseTails":5,"secondResponseHeads":10,"secondResponseTails":10,"totalHeads":15,"totalTails":15,"studentIndex":5,"studentTrueHypers":{"a":2,"b":8},"studentGuess":0.425,"delta":0.07500000000000001,"bonus":0,"bonusSoFar":0.3,"totalExamples":30},{"rt":null,"stimulus":"Sending examples to student... ","response":null,"trial_type":"html-keyboard-response","trial_index":63,"time_elapsed":867057,"internal_node_id":"0.0-47.0","params":{"nStudents":24,"maxFlips":25,"completionMinutes":45,"basePay":8,"maxBonus":9,"perTrialBonus":0.5,"perTrialBonusThreshold":0.05,"exampleCost":0.02},"classroomParams":{"A":{"a":1,"b":4},"B":{"a":4,"b":1},"C":{"a":2,"b":8},"D":{"a":8,"b":2}},"conditions":["nonSeqFull","nonSeqPartial","seqNoFeedback","seqFeedback"],"classroomPairings":[["A","B"],["C","D"]],"coinWeights":[0.2,0.5,0.8],"subjectId":"A1FVXS8IM5QYO8","assignmentId":"3JWH6J9I9TZFJACSX135KLH6NUMBN1","hitId":"3XUY87HIVP03YZXVLN9CW37DVI1MM2","url":"https://gershmanlab.com/experiments/alicia/teaching/experiment/?hitId=3XUY87HIVP03YZXVLN9CW37DVI1MM2&workerId=A1FVXS8IM5QYO8&assignmentId=3JWH6J9I9TZFJACSX135KLH6NUMBN1&a=I6WJ3&tp_a=I6WJ3&b=3JWH6J9I9TZFJACSX135KLH6NUMBN1&tp_b=3JWH6J9I9TZFJACSX135KLH6NUMBN1&c=365633&tp_c=365633"},{"rt":null,"stimulus":"Examples sent to student! Waiting for student...","response":null,"trial_type":"html-keyboard-response","trial_index":64,"time_elapsed":871064,"internal_node_id":"0.0-48.0","params":{"nStudents":24,"maxFlips":25,"completionMinutes":45,"basePay":8,"maxBonus":9,"perTrialBonus":0.5,"perTrialBonusThreshold":0.05,"exampleCost":0.02},"classroomParams":{"A":{"a":1,"b":4},"B":{"a":4,"b":1},"C":{"a":2,"b":8},"D":{"a":8,"b":2}},"conditions":["nonSeqFull","nonSeqPartial","seqNoFeedback","seqFeedback"],"classroomPairings":[["A","B"],["C","D"]],"coinWeights":[0.2,0.5,0.8],"subjectId":"A1FVXS8IM5QYO8","assignmentId":"3JWH6J9I9TZFJACSX135KLH6NUMBN1","hitId":"3XUY87HIVP03YZXVLN9CW37DVI1MM2","url":"https://gershmanlab.com/experiments/alicia/teaching/experiment/?hitId=3XUY87HIVP03YZXVLN9CW37DVI1MM2&workerId=A1FVXS8IM5QYO8&assignmentId=3JWH6J9I9TZFJACSX135KLH6NUMBN1&a=I6WJ3&tp_a=I6WJ3&b=3JWH6J9I9TZFJACSX135KLH6NUMBN1&tp_b=3JWH6J9I9TZFJACSX135KLH6NUMBN1&c=365633&tp_c=365633"},{"rt":3098,"stimulus":"\n                <p>Student 6's first guess for coin weight: <b style=\"color:Tomato\";>0.35</b></p>\n                <p>Student 6's second guess for coin weight: <b style=\"color:Tomato\";>0.42</b></p>\n                <p>You received a bonus of <b>$0.00</b> based on the student's second guess.</p>\n                <p>Total bonus so far: <b>$0.30</b></p>\n                <p>Press any key to continue.</p>\n                ","response":" ","trial_type":"html-keyboard-response","trial_index":65,"time_elapsed":874163,"internal_node_id":"0.0-49.0","params":{"nStudents":24,"maxFlips":25,"completionMinutes":45,"basePay":8,"maxBonus":9,"perTrialBonus":0.5,"perTrialBonusThreshold":0.05,"exampleCost":0.02},"classroomParams":{"A":{"a":1,"b":4},"B":{"a":4,"b":1},"C":{"a":2,"b":8},"D":{"a":8,"b":2}},"conditions":["nonSeqFull","nonSeqPartial","seqNoFeedback","seqFeedback"],"classroomPairings":[["A","B"],["C","D"]],"coinWeights":[0.2,0.5,0.8],"subjectId":"A1FVXS8IM5QYO8","assignmentId":"3JWH6J9I9TZFJACSX135KLH6NUMBN1","hitId":"3XUY87HIVP03YZXVLN9CW37DVI1MM2","url":"https://gershmanlab.com/experiments/alicia/teaching/experiment/?hitId=3XUY87HIVP03YZXVLN9CW37DVI1MM2&workerId=A1FVXS8IM5QYO8&assignmentId=3JWH6J9I9TZFJACSX135KLH6NUMBN1&a=I6WJ3&tp_a=I6WJ3&b=3JWH6J9I9TZFJACSX135KLH6NUMBN1&tp_b=3JWH6J9I9TZFJACSX135KLH6NUMBN1&c=365633&tp_c=365633"},{"rt":null,"stimulus":"<div style=\"font-size:60px;\">Next student</div>","response":null,"trial_type":"html-keyboard-response","trial_index":66,"time_elapsed":876670,"internal_node_id":"0.0-50.0-0.0","params":{"nStudents":24,"maxFlips":25,"completionMinutes":45,"basePay":8,"maxBonus":9,"perTrialBonus":0.5,"perTrialBonusThreshold":0.05,"exampleCost":0.02},"classroomParams":{"A":{"a":1,"b":4},"B":{"a":4,"b":1},"C":{"a":2,"b":8},"D":{"a":8,"b":2}},"conditions":["nonSeqFull","nonSeqPartial","seqNoFeedback","seqFeedback"],"classroomPairings":[["A","B"],["C","D"]],"coinWeights":[0.2,0.5,0.8],"subjectId":"A1FVXS8IM5QYO8","assignmentId":"3JWH6J9I9TZFJACSX135KLH6NUMBN1","hitId":"3XUY87HIVP03YZXVLN9CW37DVI1MM2","url":"https://gershmanlab.com/experiments/alicia/teaching/experiment/?hitId=3XUY87HIVP03YZXVLN9CW37DVI1MM2&workerId=A1FVXS8IM5QYO8&assignmentId=3JWH6J9I9TZFJACSX135KLH6NUMBN1&a=I6WJ3&tp_a=I6WJ3&b=3JWH6J9I9TZFJACSX135KLH6NUMBN1&tp_b=3JWH6J9I9TZFJACSX135KLH6NUMBN1&c=365633&tp_c=365633"},{"rt":1818,"stimulus":"\n            <h4 style=\"color:Orange;\">Student 7</h4>\n            <h2>The weight of your coin is <b style=\"color:Tomato;\">0.5</b>.</h2>\n            <p>In this block, you will be giving <b>one</b> set of examples to Student 7.</p>\n                <p>You will receive feedback at the end of the block.</p>\n            <p></p>","response":0,"trial_type":"html-button-response","trial_index":67,"time_elapsed":878490,"internal_node_id":"0.0-51.0","params":{"nStudents":24,"maxFlips":25,"completionMinutes":45,"basePay":8,"maxBonus":9,"perTrialBonus":0.5,"perTrialBonusThreshold":0.05,"exampleCost":0.02},"classroomParams":{"A":{"a":1,"b":4},"B":{"a":4,"b":1},"C":{"a":2,"b":8},"D":{"a":8,"b":2}},"conditions":["nonSeqFull","nonSeqPartial","seqNoFeedback","seqFeedback"],"classroomPairings":[["A","B"],["C","D"]],"coinWeights":[0.2,0.5,0.8],"subjectId":"A1FVXS8IM5QYO8","assignmentId":"3JWH6J9I9TZFJACSX135KLH6NUMBN1","hitId":"3XUY87HIVP03YZXVLN9CW37DVI1MM2","url":"https://gershmanlab.com/experiments/alicia/teaching/experiment/?hitId=3XUY87HIVP03YZXVLN9CW37DVI1MM2&workerId=A1FVXS8IM5QYO8&assignmentId=3JWH6J9I9TZFJACSX135KLH6NUMBN1&a=I6WJ3&tp_a=I6WJ3&b=3JWH6J9I9TZFJACSX135KLH6NUMBN1&tp_b=3JWH6J9I9TZFJACSX135KLH6NUMBN1&c=365633&tp_c=365633"},{"rt":7646,"response":{"heads":"5","tails":"5"},"type":"response","condition":"nonSeqPartial","trueTheta":0.5,"classrooms":["C","D"],"studentTrueClassroom":"C","exampleSet":"first","trial_type":"survey-html-form","trial_index":68,"time_elapsed":886137,"internal_node_id":"0.0-52.0-0.0","params":{"nStudents":24,"maxFlips":25,"completionMinutes":45,"basePay":8,"maxBonus":9,"perTrialBonus":0.5,"perTrialBonusThreshold":0.05,"exampleCost":0.02},"classroomParams":{"A":{"a":1,"b":4},"B":{"a":4,"b":1},"C":{"a":2,"b":8},"D":{"a":8,"b":2}},"conditions":["nonSeqFull","nonSeqPartial","seqNoFeedback","seqFeedback"],"classroomPairings":[["A","B"],["C","D"]],"coinWeights":[0.2,0.5,0.8],"subjectId":"A1FVXS8IM5QYO8","assignmentId":"3JWH6J9I9TZFJACSX135KLH6NUMBN1","hitId":"3XUY87HIVP03YZXVLN9CW37DVI1MM2","url":"https://gershmanlab.com/experiments/alicia/teaching/experiment/?hitId=3XUY87HIVP03YZXVLN9CW37DVI1MM2&workerId=A1FVXS8IM5QYO8&assignmentId=3JWH6J9I9TZFJACSX135KLH6NUMBN1&a=I6WJ3&tp_a=I6WJ3&b=3JWH6J9I9TZFJACSX135KLH6NUMBN1&tp_b=3JWH6J9I9TZFJACSX135KLH6NUMBN1&c=365633&tp_c=365633","heads":5,"tails":5,"studentIndex":6,"studentTrueHypers":{"a":2,"b":8},"studentGuess":0.35,"delta":0.15000000000000002,"totalExamples":10,"bonus":0,"bonusSoFar":0.3},{"rt":null,"stimulus":"Sending examples to student... ","response":null,"trial_type":"html-keyboard-response","trial_index":69,"time_elapsed":887639,"internal_node_id":"0.0-53.0","params":{"nStudents":24,"maxFlips":25,"completionMinutes":45,"basePay":8,"maxBonus":9,"perTrialBonus":0.5,"perTrialBonusThreshold":0.05,"exampleCost":0.02},"classroomParams":{"A":{"a":1,"b":4},"B":{"a":4,"b":1},"C":{"a":2,"b":8},"D":{"a":8,"b":2}},"conditions":["nonSeqFull","nonSeqPartial","seqNoFeedback","seqFeedback"],"classroomPairings":[["A","B"],["C","D"]],"coinWeights":[0.2,0.5,0.8],"subjectId":"A1FVXS8IM5QYO8","assignmentId":"3JWH6J9I9TZFJACSX135KLH6NUMBN1","hitId":"3XUY87HIVP03YZXVLN9CW37DVI1MM2","url":"https://gershmanlab.com/experiments/alicia/teaching/experiment/?hitId=3XUY87HIVP03YZXVLN9CW37DVI1MM2&workerId=A1FVXS8IM5QYO8&assignmentId=3JWH6J9I9TZFJACSX135KLH6NUMBN1&a=I6WJ3&tp_a=I6WJ3&b=3JWH6J9I9TZFJACSX135KLH6NUMBN1&tp_b=3JWH6J9I9TZFJACSX135KLH6NUMBN1&c=365633&tp_c=365633"},{"rt":null,"stimulus":"Examples sent to student! Waiting for student...","response":null,"trial_type":"html-keyboard-response","trial_index":70,"time_elapsed":893147,"internal_node_id":"0.0-54.0","params":{"nStudents":24,"maxFlips":25,"completionMinutes":45,"basePay":8,"maxBonus":9,"perTrialBonus":0.5,"perTrialBonusThreshold":0.05,"exampleCost":0.02},"classroomParams":{"A":{"a":1,"b":4},"B":{"a":4,"b":1},"C":{"a":2,"b":8},"D":{"a":8,"b":2}},"conditions":["nonSeqFull","nonSeqPartial","seqNoFeedback","seqFeedback"],"classroomPairings":[["A","B"],["C","D"]],"coinWeights":[0.2,0.5,0.8],"subjectId":"A1FVXS8IM5QYO8","assignmentId":"3JWH6J9I9TZFJACSX135KLH6NUMBN1","hitId":"3XUY87HIVP03YZXVLN9CW37DVI1MM2","url":"https://gershmanlab.com/experiments/alicia/teaching/experiment/?hitId=3XUY87HIVP03YZXVLN9CW37DVI1MM2&workerId=A1FVXS8IM5QYO8&assignmentId=3JWH6J9I9TZFJACSX135KLH6NUMBN1&a=I6WJ3&tp_a=I6WJ3&b=3JWH6J9I9TZFJACSX135KLH6NUMBN1&tp_b=3JWH6J9I9TZFJACSX135KLH6NUMBN1&c=365633&tp_c=365633"},{"rt":2281,"stimulus":"\n                <p>Student's guess for coin weight: <b style=\"color:Tomato;\">0.35</b></p>\n                <p>You received a bonus of <b>$0</b>. Total bonus so far: <b>$0.30</b></b></p>\n                <p></p>\n                <p>Press any key to continue.</p>\n                ","response":" ","trial_type":"html-keyboard-response","trial_index":71,"time_elapsed":895430,"internal_node_id":"0.0-55.0","params":{"nStudents":24,"maxFlips":25,"completionMinutes":45,"basePay":8,"maxBonus":9,"perTrialBonus":0.5,"perTrialBonusThreshold":0.05,"exampleCost":0.02},"classroomParams":{"A":{"a":1,"b":4},"B":{"a":4,"b":1},"C":{"a":2,"b":8},"D":{"a":8,"b":2}},"conditions":["nonSeqFull","nonSeqPartial","seqNoFeedback","seqFeedback"],"classroomPairings":[["A","B"],["C","D"]],"coinWeights":[0.2,0.5,0.8],"subjectId":"A1FVXS8IM5QYO8","assignmentId":"3JWH6J9I9TZFJACSX135KLH6NUMBN1","hitId":"3XUY87HIVP03YZXVLN9CW37DVI1MM2","url":"https://gershmanlab.com/experiments/alicia/teaching/experiment/?hitId=3XUY87HIVP03YZXVLN9CW37DVI1MM2&workerId=A1FVXS8IM5QYO8&assignmentId=3JWH6J9I9TZFJACSX135KLH6NUMBN1&a=I6WJ3&tp_a=I6WJ3&b=3JWH6J9I9TZFJACSX135KLH6NUMBN1&tp_b=3JWH6J9I9TZFJACSX135KLH6NUMBN1&c=365633&tp_c=365633"},{"rt":null,"stimulus":"<div style=\"font-size:60px;\">Next student</div>","response":null,"trial_type":"html-keyboard-response","trial_index":72,"time_elapsed":897937,"internal_node_id":"0.0-56.0-0.0","params":{"nStudents":24,"maxFlips":25,"completionMinutes":45,"basePay":8,"maxBonus":9,"perTrialBonus":0.5,"perTrialBonusThreshold":0.05,"exampleCost":0.02},"classroomParams":{"A":{"a":1,"b":4},"B":{"a":4,"b":1},"C":{"a":2,"b":8},"D":{"a":8,"b":2}},"conditions":["nonSeqFull","nonSeqPartial","seqNoFeedback","seqFeedback"],"classroomPairings":[["A","B"],["C","D"]],"coinWeights":[0.2,0.5,0.8],"subjectId":"A1FVXS8IM5QYO8","assignmentId":"3JWH6J9I9TZFJACSX135KLH6NUMBN1","hitId":"3XUY87HIVP03YZXVLN9CW37DVI1MM2","url":"https://gershmanlab.com/experiments/alicia/teaching/experiment/?hitId=3XUY87HIVP03YZXVLN9CW37DVI1MM2&workerId=A1FVXS8IM5QYO8&assignmentId=3JWH6J9I9TZFJACSX135KLH6NUMBN1&a=I6WJ3&tp_a=I6WJ3&b=3JWH6J9I9TZFJACSX135KLH6NUMBN1&tp_b=3JWH6J9I9TZFJACSX135KLH6NUMBN1&c=365633&tp_c=365633"},{"rt":1955,"stimulus":"\n            <h4 style=\"color:Orange;\">Student 8</h4>\n            <h2>The weight of your coin is <b style=\"color:Tomato;\">0.2</b>.</h2>\n            <p>In this block, you will be giving <b>two</b> sets of examples to Student 8.</p>\n                <p>You will receive feedback at the end of the block.</p>\n            <p></p>","response":0,"trial_type":"html-button-response","trial_index":73,"time_elapsed":899895,"internal_node_id":"0.0-57.0","params":{"nStudents":24,"maxFlips":25,"completionMinutes":45,"basePay":8,"maxBonus":9,"perTrialBonus":0.5,"perTrialBonusThreshold":0.05,"exampleCost":0.02},"classroomParams":{"A":{"a":1,"b":4},"B":{"a":4,"b":1},"C":{"a":2,"b":8},"D":{"a":8,"b":2}},"conditions":["nonSeqFull","nonSeqPartial","seqNoFeedback","seqFeedback"],"classroomPairings":[["A","B"],["C","D"]],"coinWeights":[0.2,0.5,0.8],"subjectId":"A1FVXS8IM5QYO8","assignmentId":"3JWH6J9I9TZFJACSX135KLH6NUMBN1","hitId":"3XUY87HIVP03YZXVLN9CW37DVI1MM2","url":"https://gershmanlab.com/experiments/alicia/teaching/experiment/?hitId=3XUY87HIVP03YZXVLN9CW37DVI1MM2&workerId=A1FVXS8IM5QYO8&assignmentId=3JWH6J9I9TZFJACSX135KLH6NUMBN1&a=I6WJ3&tp_a=I6WJ3&b=3JWH6J9I9TZFJACSX135KLH6NUMBN1&tp_b=3JWH6J9I9TZFJACSX135KLH6NUMBN1&c=365633&tp_c=365633"},{"rt":7958,"response":{"heads":"2","tails":"10"},"type":"response","condition":"seqNoFeedback","trueTheta":0.2,"classrooms":["C","D"],"studentTrueClassroom":"D","exampleSet":"first","trial_type":"survey-html-form","trial_index":74,"time_elapsed":907854,"internal_node_id":"0.0-58.0-0.0","params":{"nStudents":24,"maxFlips":25,"completionMinutes":45,"basePay":8,"maxBonus":9,"perTrialBonus":0.5,"perTrialBonusThreshold":0.05,"exampleCost":0.02},"classroomParams":{"A":{"a":1,"b":4},"B":{"a":4,"b":1},"C":{"a":2,"b":8},"D":{"a":8,"b":2}},"conditions":["nonSeqFull","nonSeqPartial","seqNoFeedback","seqFeedback"],"classroomPairings":[["A","B"],["C","D"]],"coinWeights":[0.2,0.5,0.8],"subjectId":"A1FVXS8IM5QYO8","assignmentId":"3JWH6J9I9TZFJACSX135KLH6NUMBN1","hitId":"3XUY87HIVP03YZXVLN9CW37DVI1MM2","url":"https://gershmanlab.com/experiments/alicia/teaching/experiment/?hitId=3XUY87HIVP03YZXVLN9CW37DVI1MM2&workerId=A1FVXS8IM5QYO8&assignmentId=3JWH6J9I9TZFJACSX135KLH6NUMBN1&a=I6WJ3&tp_a=I6WJ3&b=3JWH6J9I9TZFJACSX135KLH6NUMBN1&tp_b=3JWH6J9I9TZFJACSX135KLH6NUMBN1&c=365633&tp_c=365633","heads":2,"tails":10,"studentIndex":7,"studentTrueHypers":{"a":8,"b":2},"studentGuess":0.45454545454545453,"delta":0.2545454545454545,"totalExamples":12,"bonusSoFar":0.3},{"rt":null,"stimulus":"Sending examples to student... ","response":null,"trial_type":"html-keyboard-response","trial_index":75,"time_elapsed":909356,"internal_node_id":"0.0-59.0","params":{"nStudents":24,"maxFlips":25,"completionMinutes":45,"basePay":8,"maxBonus":9,"perTrialBonus":0.5,"perTrialBonusThreshold":0.05,"exampleCost":0.02},"classroomParams":{"A":{"a":1,"b":4},"B":{"a":4,"b":1},"C":{"a":2,"b":8},"D":{"a":8,"b":2}},"conditions":["nonSeqFull","nonSeqPartial","seqNoFeedback","seqFeedback"],"classroomPairings":[["A","B"],["C","D"]],"coinWeights":[0.2,0.5,0.8],"subjectId":"A1FVXS8IM5QYO8","assignmentId":"3JWH6J9I9TZFJACSX135KLH6NUMBN1","hitId":"3XUY87HIVP03YZXVLN9CW37DVI1MM2","url":"https://gershmanlab.com/experiments/alicia/teaching/experiment/?hitId=3XUY87HIVP03YZXVLN9CW37DVI1MM2&workerId=A1FVXS8IM5QYO8&assignmentId=3JWH6J9I9TZFJACSX135KLH6NUMBN1&a=I6WJ3&tp_a=I6WJ3&b=3JWH6J9I9TZFJACSX135KLH6NUMBN1&tp_b=3JWH6J9I9TZFJACSX135KLH6NUMBN1&c=365633&tp_c=365633"},{"rt":null,"stimulus":"Examples sent to student! Waiting for student...","response":null,"trial_type":"html-keyboard-response","trial_index":76,"time_elapsed":913364,"internal_node_id":"0.0-60.0","params":{"nStudents":24,"maxFlips":25,"completionMinutes":45,"basePay":8,"maxBonus":9,"perTrialBonus":0.5,"perTrialBonusThreshold":0.05,"exampleCost":0.02},"classroomParams":{"A":{"a":1,"b":4},"B":{"a":4,"b":1},"C":{"a":2,"b":8},"D":{"a":8,"b":2}},"conditions":["nonSeqFull","nonSeqPartial","seqNoFeedback","seqFeedback"],"classroomPairings":[["A","B"],["C","D"]],"coinWeights":[0.2,0.5,0.8],"subjectId":"A1FVXS8IM5QYO8","assignmentId":"3JWH6J9I9TZFJACSX135KLH6NUMBN1","hitId":"3XUY87HIVP03YZXVLN9CW37DVI1MM2","url":"https://gershmanlab.com/experiments/alicia/teaching/experiment/?hitId=3XUY87HIVP03YZXVLN9CW37DVI1MM2&workerId=A1FVXS8IM5QYO8&assignmentId=3JWH6J9I9TZFJACSX135KLH6NUMBN1&a=I6WJ3&tp_a=I6WJ3&b=3JWH6J9I9TZFJACSX135KLH6NUMBN1&tp_b=3JWH6J9I9TZFJACSX135KLH6NUMBN1&c=365633&tp_c=365633"},{"rt":10341,"response":{"heads":"4","tails":"12"},"type":"response","condition":"seqNoFeedback","trueTheta":0.2,"classrooms":["C","D"],"studentTrueClassroom":"D","exampleSet":"second","trial_type":"survey-html-form","trial_index":77,"time_elapsed":923707,"internal_node_id":"0.0-61.0-0.0","params":{"nStudents":24,"maxFlips":25,"completionMinutes":45,"basePay":8,"maxBonus":9,"perTrialBonus":0.5,"perTrialBonusThreshold":0.05,"exampleCost":0.02},"classroomParams":{"A":{"a":1,"b":4},"B":{"a":4,"b":1},"C":{"a":2,"b":8},"D":{"a":8,"b":2}},"conditions":["nonSeqFull","nonSeqPartial","seqNoFeedback","seqFeedback"],"classroomPairings":[["A","B"],["C","D"]],"coinWeights":[0.2,0.5,0.8],"subjectId":"A1FVXS8IM5QYO8","assignmentId":"3JWH6J9I9TZFJACSX135KLH6NUMBN1","hitId":"3XUY87HIVP03YZXVLN9CW37DVI1MM2","url":"https://gershmanlab.com/experiments/alicia/teaching/experiment/?hitId=3XUY87HIVP03YZXVLN9CW37DVI1MM2&workerId=A1FVXS8IM5QYO8&assignmentId=3JWH6J9I9TZFJACSX135KLH6NUMBN1&a=I6WJ3&tp_a=I6WJ3&b=3JWH6J9I9TZFJACSX135KLH6NUMBN1&tp_b=3JWH6J9I9TZFJACSX135KLH6NUMBN1&c=365633&tp_c=365633","firstResponseHeads":2,"firstResponseTails":10,"secondResponseHeads":4,"secondResponseTails":12,"totalHeads":6,"totalTails":22,"studentIndex":7,"studentTrueHypers":{"a":8,"b":2},"studentGuess":0.3684210526315789,"delta":0.16842105263157892,"bonus":0,"bonusSoFar":0.3,"totalExamples":28},{"rt":null,"stimulus":"Sending examples to student... ","response":null,"trial_type":"html-keyboard-response","trial_index":78,"time_elapsed":925709,"internal_node_id":"0.0-62.0","params":{"nStudents":24,"maxFlips":25,"completionMinutes":45,"basePay":8,"maxBonus":9,"perTrialBonus":0.5,"perTrialBonusThreshold":0.05,"exampleCost":0.02},"classroomParams":{"A":{"a":1,"b":4},"B":{"a":4,"b":1},"C":{"a":2,"b":8},"D":{"a":8,"b":2}},"conditions":["nonSeqFull","nonSeqPartial","seqNoFeedback","seqFeedback"],"classroomPairings":[["A","B"],["C","D"]],"coinWeights":[0.2,0.5,0.8],"subjectId":"A1FVXS8IM5QYO8","assignmentId":"3JWH6J9I9TZFJACSX135KLH6NUMBN1","hitId":"3XUY87HIVP03YZXVLN9CW37DVI1MM2","url":"https://gershmanlab.com/experiments/alicia/teaching/experiment/?hitId=3XUY87HIVP03YZXVLN9CW37DVI1MM2&workerId=A1FVXS8IM5QYO8&assignmentId=3JWH6J9I9TZFJACSX135KLH6NUMBN1&a=I6WJ3&tp_a=I6WJ3&b=3JWH6J9I9TZFJACSX135KLH6NUMBN1&tp_b=3JWH6J9I9TZFJACSX135KLH6NUMBN1&c=365633&tp_c=365633"},{"rt":null,"stimulus":"Examples sent to student! Waiting for student...","response":null,"trial_type":"html-keyboard-response","trial_index":79,"time_elapsed":929716,"internal_node_id":"0.0-63.0","params":{"nStudents":24,"maxFlips":25,"completionMinutes":45,"basePay":8,"maxBonus":9,"perTrialBonus":0.5,"perTrialBonusThreshold":0.05,"exampleCost":0.02},"classroomParams":{"A":{"a":1,"b":4},"B":{"a":4,"b":1},"C":{"a":2,"b":8},"D":{"a":8,"b":2}},"conditions":["nonSeqFull","nonSeqPartial","seqNoFeedback","seqFeedback"],"classroomPairings":[["A","B"],["C","D"]],"coinWeights":[0.2,0.5,0.8],"subjectId":"A1FVXS8IM5QYO8","assignmentId":"3JWH6J9I9TZFJACSX135KLH6NUMBN1","hitId":"3XUY87HIVP03YZXVLN9CW37DVI1MM2","url":"https://gershmanlab.com/experiments/alicia/teaching/experiment/?hitId=3XUY87HIVP03YZXVLN9CW37DVI1MM2&workerId=A1FVXS8IM5QYO8&assignmentId=3JWH6J9I9TZFJACSX135KLH6NUMBN1&a=I6WJ3&tp_a=I6WJ3&b=3JWH6J9I9TZFJACSX135KLH6NUMBN1&tp_b=3JWH6J9I9TZFJACSX135KLH6NUMBN1&c=365633&tp_c=365633"},{"rt":2440,"stimulus":"\n                <p>Student 8's first guess for coin weight: <b style=\"color:Tomato\";>0.45</b></p>\n                <p>Student 8's second guess for coin weight: <b style=\"color:Tomato\";>0.37</b></p>\n                <p>You received a bonus of <b>$0.00</b> based on the student's second guess.</p>\n                <p>Total bonus so far: <b>$0.30</b></p>\n                <p>Press any key to continue.</p>\n                ","response":" ","trial_type":"html-keyboard-response","trial_index":80,"time_elapsed":932158,"internal_node_id":"0.0-64.0","params":{"nStudents":24,"maxFlips":25,"completionMinutes":45,"basePay":8,"maxBonus":9,"perTrialBonus":0.5,"perTrialBonusThreshold":0.05,"exampleCost":0.02},"classroomParams":{"A":{"a":1,"b":4},"B":{"a":4,"b":1},"C":{"a":2,"b":8},"D":{"a":8,"b":2}},"conditions":["nonSeqFull","nonSeqPartial","seqNoFeedback","seqFeedback"],"classroomPairings":[["A","B"],["C","D"]],"coinWeights":[0.2,0.5,0.8],"subjectId":"A1FVXS8IM5QYO8","assignmentId":"3JWH6J9I9TZFJACSX135KLH6NUMBN1","hitId":"3XUY87HIVP03YZXVLN9CW37DVI1MM2","url":"https://gershmanlab.com/experiments/alicia/teaching/experiment/?hitId=3XUY87HIVP03YZXVLN9CW37DVI1MM2&workerId=A1FVXS8IM5QYO8&assignmentId=3JWH6J9I9TZFJACSX135KLH6NUMBN1&a=I6WJ3&tp_a=I6WJ3&b=3JWH6J9I9TZFJACSX135KLH6NUMBN1&tp_b=3JWH6J9I9TZFJACSX135KLH6NUMBN1&c=365633&tp_c=365633"},{"rt":null,"stimulus":"<div style=\"font-size:60px;\">Next student</div>","response":null,"trial_type":"html-keyboard-response","trial_index":81,"time_elapsed":934164,"internal_node_id":"0.0-65.0-0.0","params":{"nStudents":24,"maxFlips":25,"completionMinutes":45,"basePay":8,"maxBonus":9,"perTrialBonus":0.5,"perTrialBonusThreshold":0.05,"exampleCost":0.02},"classroomParams":{"A":{"a":1,"b":4},"B":{"a":4,"b":1},"C":{"a":2,"b":8},"D":{"a":8,"b":2}},"conditions":["nonSeqFull","nonSeqPartial","seqNoFeedback","seqFeedback"],"classroomPairings":[["A","B"],["C","D"]],"coinWeights":[0.2,0.5,0.8],"subjectId":"A1FVXS8IM5QYO8","assignmentId":"3JWH6J9I9TZFJACSX135KLH6NUMBN1","hitId":"3XUY87HIVP03YZXVLN9CW37DVI1MM2","url":"https://gershmanlab.com/experiments/alicia/teaching/experiment/?hitId=3XUY87HIVP03YZXVLN9CW37DVI1MM2&workerId=A1FVXS8IM5QYO8&assignmentId=3JWH6J9I9TZFJACSX135KLH6NUMBN1&a=I6WJ3&tp_a=I6WJ3&b=3JWH6J9I9TZFJACSX135KLH6NUMBN1&tp_b=3JWH6J9I9TZFJACSX135KLH6NUMBN1&c=365633&tp_c=365633"},{"rt":1604,"stimulus":"\n            <h4 style=\"color:Orange;\">Student 9</h4>\n            <h2>The weight of your coin is <b style=\"color:Tomato;\">0.2</b>.</h2>\n            <p>In this block, you will be giving <b>one</b> set of examples to Student 9.</p>\n                <p>You will receive feedback at the end of the block.</p>\n            <p></p>","response":0,"trial_type":"html-button-response","trial_index":82,"time_elapsed":935769,"internal_node_id":"0.0-66.0","params":{"nStudents":24,"maxFlips":25,"completionMinutes":45,"basePay":8,"maxBonus":9,"perTrialBonus":0.5,"perTrialBonusThreshold":0.05,"exampleCost":0.02},"classroomParams":{"A":{"a":1,"b":4},"B":{"a":4,"b":1},"C":{"a":2,"b":8},"D":{"a":8,"b":2}},"conditions":["nonSeqFull","nonSeqPartial","seqNoFeedback","seqFeedback"],"classroomPairings":[["A","B"],["C","D"]],"coinWeights":[0.2,0.5,0.8],"subjectId":"A1FVXS8IM5QYO8","assignmentId":"3JWH6J9I9TZFJACSX135KLH6NUMBN1","hitId":"3XUY87HIVP03YZXVLN9CW37DVI1MM2","url":"https://gershmanlab.com/experiments/alicia/teaching/experiment/?hitId=3XUY87HIVP03YZXVLN9CW37DVI1MM2&workerId=A1FVXS8IM5QYO8&assignmentId=3JWH6J9I9TZFJACSX135KLH6NUMBN1&a=I6WJ3&tp_a=I6WJ3&b=3JWH6J9I9TZFJACSX135KLH6NUMBN1&tp_b=3JWH6J9I9TZFJACSX135KLH6NUMBN1&c=365633&tp_c=365633"},{"rt":13292,"response":{"heads":"3","tails":"7"},"type":"response","condition":"nonSeqPartial","trueTheta":0.2,"classrooms":["C","D"],"studentTrueClassroom":"D","exampleSet":"first","trial_type":"survey-html-form","trial_index":83,"time_elapsed":949063,"internal_node_id":"0.0-67.0-0.0","params":{"nStudents":24,"maxFlips":25,"completionMinutes":45,"basePay":8,"maxBonus":9,"perTrialBonus":0.5,"perTrialBonusThreshold":0.05,"exampleCost":0.02},"classroomParams":{"A":{"a":1,"b":4},"B":{"a":4,"b":1},"C":{"a":2,"b":8},"D":{"a":8,"b":2}},"conditions":["nonSeqFull","nonSeqPartial","seqNoFeedback","seqFeedback"],"classroomPairings":[["A","B"],["C","D"]],"coinWeights":[0.2,0.5,0.8],"subjectId":"A1FVXS8IM5QYO8","assignmentId":"3JWH6J9I9TZFJACSX135KLH6NUMBN1","hitId":"3XUY87HIVP03YZXVLN9CW37DVI1MM2","url":"https://gershmanlab.com/experiments/alicia/teaching/experiment/?hitId=3XUY87HIVP03YZXVLN9CW37DVI1MM2&workerId=A1FVXS8IM5QYO8&assignmentId=3JWH6J9I9TZFJACSX135KLH6NUMBN1&a=I6WJ3&tp_a=I6WJ3&b=3JWH6J9I9TZFJACSX135KLH6NUMBN1&tp_b=3JWH6J9I9TZFJACSX135KLH6NUMBN1&c=365633&tp_c=365633","heads":3,"tails":7,"studentIndex":8,"studentTrueHypers":{"a":8,"b":2},"studentGuess":0.55,"delta":0.35000000000000003,"totalExamples":10,"bonus":0,"bonusSoFar":0.3},{"rt":null,"stimulus":"Sending examples to student... ","response":null,"trial_type":"html-keyboard-response","trial_index":84,"time_elapsed":950319,"internal_node_id":"0.0-68.0","params":{"nStudents":24,"maxFlips":25,"completionMinutes":45,"basePay":8,"maxBonus":9,"perTrialBonus":0.5,"perTrialBonusThreshold":0.05,"exampleCost":0.02},"classroomParams":{"A":{"a":1,"b":4},"