[{"rt":null,"stimulus":"Welcome to the experiment. Press any key to begin.","response":null,"trial_type":"html-keyboard-response","trial_index":0,"time_elapsed":30916,"internal_node_id":"0.0-0.0","params":{"nStudents":24,"maxFlips":25,"completionMinutes":45,"basePay":8,"maxBonus":9,"perTrialBonus":0.5,"perTrialBonusThreshold":0.05,"exampleCost":0.02},"classroomParams":{"A":{"a":1,"b":4},"B":{"a":4,"b":1},"C":{"a":2,"b":8},"D":{"a":8,"b":2}},"conditions":["nonSeqFull","nonSeqPartial","seqNoFeedback","seqFeedback"],"classroomPairings":[["A","B"],["C","D"]],"coinWeights":[0.2,0.5,0.8],"subjectId":"A1K8VUKRL53OX","assignmentId":"3JV9LGBJWU0TSCKFE2VW0L88THJOGA","hitId":"3IH9TRB0FBLK6RLF7MSMKICTGYN1IU","url":"https://gershmanlab.com/experiments/alicia/teaching/experiment/?hitId=3IH9TRB0FBLK6RLF7MSMKICTGYN1IU&workerId=A1K8VUKRL53OX&assignmentId=3JV9LGBJWU0TSCKFE2VW0L88THJOGA&a=JLVJ3&tp_a=JLVJ3&b=3JV9LGBJWU0TSCKFE2VW0L88THJOGA&tp_b=3JV9LGBJWU0TSCKFE2VW0L88THJOGA&c=365633&tp_c=365633"},{"rt":2018414,"stimulus":"\n        <h3>Please read this consent agreement carefully before deciding whether to participate in this experiment.</h3>\n        <p><b>Purpose of the research:</b> To examine how people teach effectively.</p>\n        <p><b>What you will do in this research:</b> You will teach students the weights of different coins.</p>\n        <p><b>Time required:</b> This experiment will take 45 minutes to complete.</p>\n        <p><b>Risks:</b> There are no anticipated risks associated with participating in this study.             The effects of participating should be comparable to those you would experience from viewing a computer monitor             and using a mouse and keyboard for the duration of the experiment.</p>\n        <p><b>Benefits:</b> The study provides important information about the nature of teaching.</p>\n        <p><b>Compensation:</b> You will receive <b>$8</b> for completing the experiment and a performance bonus of up to <b>$9</b>.</p>\n        <p><b>Confidentiality:</b> Your participation in this study will remain confidential.             No personally identifiable information will be associated with your data.             Your de-identified data may be shared with other researchers and used in future projects.</p>\n        <p><b>Participation and withdrawal:</b> Your participation in this study is completely voluntary and             you may refuse to participate or you may choose to withdraw at any time without penalty or loss of\n            benefits to which you are otherwise entitled.</p>\n        <p><b>How to contact the researcher:</b> If you have questions or concerns about your participation            or payment, or want to request a summary of research findings, please contact\n            Alicia Chen, aliciachen@college.harvard.edu.</p>\n        <p><b>Whom to contact about your rights in this research:</b> For questions, concerns, suggestions,             or complaints that have not been or cannot be addressed by the researcher, or to report             research-related harm, please contact the Committee on the Use of Human Subjects in Research at Harvard University,             1414 Massachusetts Avenue, Second Floor, Cambridge, MA 02138. Phone: 617-496-2847. Email: cuhs@fas.harvard.edu.</p>\n        ","response":0,"trial_type":"html-button-response","trial_index":1,"time_elapsed":2049336,"internal_node_id":"0.0-1.0","params":{"nStudents":24,"maxFlips":25,"completionMinutes":45,"basePay":8,"maxBonus":9,"perTrialBonus":0.5,"perTrialBonusThreshold":0.05,"exampleCost":0.02},"classroomParams":{"A":{"a":1,"b":4},"B":{"a":4,"b":1},"C":{"a":2,"b":8},"D":{"a":8,"b":2}},"conditions":["nonSeqFull","nonSeqPartial","seqNoFeedback","seqFeedback"],"classroomPairings":[["A","B"],["C","D"]],"coinWeights":[0.2,0.5,0.8],"subjectId":"A1K8VUKRL53OX","assignmentId":"3JV9LGBJWU0TSCKFE2VW0L88THJOGA","hitId":"3IH9TRB0FBLK6RLF7MSMKICTGYN1IU","url":"https://gershmanlab.com/experiments/alicia/teaching/experiment/?hitId=3IH9TRB0FBLK6RLF7MSMKICTGYN1IU&workerId=A1K8VUKRL53OX&assignmentId=3JV9LGBJWU0TSCKFE2VW0L88THJOGA&a=JLVJ3&tp_a=JLVJ3&b=3JV9LGBJWU0TSCKFE2VW0L88THJOGA&tp_b=3JV9LGBJWU0TSCKFE2VW0L88THJOGA&c=365633&tp_c=365633"},{"view_history":[{"page_index":0,"viewing_time":170641},{"page_index":1,"viewing_time":4790},{"page_index":2,"viewing_time":24106},{"page_index":3,"viewing_time":13864},{"page_index":4,"viewing_time":9856},{"page_index":5,"viewing_time":18928},{"page_index":6,"viewing_time":127240}],"rt":369425,"trial_type":"instructions","trial_index":2,"time_elapsed":2418766,"internal_node_id":"0.0-2.0-0.0","params":{"nStudents":24,"maxFlips":25,"completionMinutes":45,"basePay":8,"maxBonus":9,"perTrialBonus":0.5,"perTrialBonusThreshold":0.05,"exampleCost":0.02},"classroomParams":{"A":{"a":1,"b":4},"B":{"a":4,"b":1},"C":{"a":2,"b":8},"D":{"a":8,"b":2}},"conditions":["nonSeqFull","nonSeqPartial","seqNoFeedback","seqFeedback"],"classroomPairings":[["A","B"],["C","D"]],"coinWeights":[0.2,0.5,0.8],"subjectId":"A1K8VUKRL53OX","assignmentId":"3JV9LGBJWU0TSCKFE2VW0L88THJOGA","hitId":"3IH9TRB0FBLK6RLF7MSMKICTGYN1IU","url":"https://gershmanlab.com/experiments/alicia/teaching/experiment/?hitId=3IH9TRB0FBLK6RLF7MSMKICTGYN1IU&workerId=A1K8VUKRL53OX&assignmentId=3JV9LGBJWU0TSCKFE2VW0L88THJOGA&a=JLVJ3&tp_a=JLVJ3&b=3JV9LGBJWU0TSCKFE2VW0L88THJOGA&tp_b=3JV9LGBJWU0TSCKFE2VW0L88THJOGA&c=365633&tp_c=365633"},{"rt":94202,"response":{"Q0":"Students in different classrooms have seen a different proportion of fair and unfair coins before seeing the examples you select for them.","Q1":"By <b>considering the student's classroom information</b> so that I can teach efficiently and accurately/helpfully at the same time (because each example I give to the student costs money!).","Q2":"The coin lands heads 90% of the time.","Q3":"Yes, I might encounter the same student twice.","Q4":"The students are also on the same alien planet as you, where coins can be unfair.","Q5":"Based on both guesses."},"question_order":[0,4,2,3,1,5],"trial_type":"survey-multi-choice","trial_index":3,"time_elapsed":2512973,"internal_node_id":"0.0-2.0-1.0","params":{"nStudents":24,"maxFlips":25,"completionMinutes":45,"basePay":8,"maxBonus":9,"perTrialBonus":0.5,"perTrialBonusThreshold":0.05,"exampleCost":0.02},"classroomParams":{"A":{"a":1,"b":4},"B":{"a":4,"b":1},"C":{"a":2,"b":8},"D":{"a":8,"b":2}},"conditions":["nonSeqFull","nonSeqPartial","seqNoFeedback","seqFeedback"],"classroomPairings":[["A","B"],["C","D"]],"coinWeights":[0.2,0.5,0.8],"subjectId":"A1K8VUKRL53OX","assignmentId":"3JV9LGBJWU0TSCKFE2VW0L88THJOGA","hitId":"3IH9TRB0FBLK6RLF7MSMKICTGYN1IU","url":"https://gershmanlab.com/experiments/alicia/teaching/experiment/?hitId=3IH9TRB0FBLK6RLF7MSMKICTGYN1IU&workerId=A1K8VUKRL53OX&assignmentId=3JV9LGBJWU0TSCKFE2VW0L88THJOGA&a=JLVJ3&tp_a=JLVJ3&b=3JV9LGBJWU0TSCKFE2VW0L88THJOGA&tp_b=3JV9LGBJWU0TSCKFE2VW0L88THJOGA&c=365633&tp_c=365633","pass":false},{"rt":5025,"stimulus":"Oops, you have missed question(s) on the comprehension check! We'll show you the instructions again.","response":0,"trial_type":"html-button-response","trial_index":4,"time_elapsed":2518006,"internal_node_id":"0.0-2.0-2.0-0.0","params":{"nStudents":24,"maxFlips":25,"completionMinutes":45,"basePay":8,"maxBonus":9,"perTrialBonus":0.5,"perTrialBonusThreshold":0.05,"exampleCost":0.02},"classroomParams":{"A":{"a":1,"b":4},"B":{"a":4,"b":1},"C":{"a":2,"b":8},"D":{"a":8,"b":2}},"conditions":["nonSeqFull","nonSeqPartial","seqNoFeedback","seqFeedback"],"classroomPairings":[["A","B"],["C","D"]],"coinWeights":[0.2,0.5,0.8],"subjectId":"A1K8VUKRL53OX","assignmentId":"3JV9LGBJWU0TSCKFE2VW0L88THJOGA","hitId":"3IH9TRB0FBLK6RLF7MSMKICTGYN1IU","url":"https://gershmanlab.com/experiments/alicia/teaching/experiment/?hitId=3IH9TRB0FBLK6RLF7MSMKICTGYN1IU&workerId=A1K8VUKRL53OX&assignmentId=3JV9LGBJWU0TSCKFE2VW0L88THJOGA&a=JLVJ3&tp_a=JLVJ3&b=3JV9LGBJWU0TSCKFE2VW0L88THJOGA&tp_b=3JV9LGBJWU0TSCKFE2VW0L88THJOGA&c=365633&tp_c=365633"},{"view_history":[{"page_index":0,"viewing_time":9139},{"page_index":1,"viewing_time":3529},{"page_index":2,"viewing_time":34504},{"page_index":3,"viewing_time":18945},{"page_index":4,"viewing_time":16464},{"page_index":5,"viewing_time":24648},{"page_index":6,"viewing_time":58305}],"rt":165533,"trial_type":"instructions","trial_index":5,"time_elapsed":2683537,"internal_node_id":"0.0-2.1-0.1","params":{"nStudents":24,"maxFlips":25,"completionMinutes":45,"basePay":8,"maxBonus":9,"perTrialBonus":0.5,"perTrialBonusThreshold":0.05,"exampleCost":0.02},"classroomParams":{"A":{"a":1,"b":4},"B":{"a":4,"b":1},"C":{"a":2,"b":8},"D":{"a":8,"b":2}},"conditions":["nonSeqFull","nonSeqPartial","seqNoFeedback","seqFeedback"],"classroomPairings":[["A","B"],["C","D"]],"coinWeights":[0.2,0.5,0.8],"subjectId":"A1K8VUKRL53OX","assignmentId":"3JV9LGBJWU0TSCKFE2VW0L88THJOGA","hitId":"3IH9TRB0FBLK6RLF7MSMKICTGYN1IU","url":"https://gershmanlab.com/experiments/alicia/teaching/experiment/?hitId=3IH9TRB0FBLK6RLF7MSMKICTGYN1IU&workerId=A1K8VUKRL53OX&assignmentId=3JV9LGBJWU0TSCKFE2VW0L88THJOGA&a=JLVJ3&tp_a=JLVJ3&b=3JV9LGBJWU0TSCKFE2VW0L88THJOGA&tp_b=3JV9LGBJWU0TSCKFE2VW0L88THJOGA&c=365633&tp_c=365633"},{"rt":419820,"response":{"Q0":"Students in different classrooms will have seen a different number of heads and tails before seeing the examples you select for them.","Q1":"By <b>considering the student's classroom information</b> so that I can teach efficiently and accurately/helpfully at the same time (because each example I give to the student costs money!).","Q2":"The coin lands heads 90% of the time.","Q3":"No, I will teach a <b>new</b> student each time.","Q4":"The students are also on the same alien planet as you, where coins can be unfair.","Q5":"Based on the student's second (and final) guess."},"question_order":[2,1,4,5,0,3],"trial_type":"survey-multi-choice","trial_index":6,"time_elapsed":3103365,"internal_node_id":"0.0-2.1-1.1","params":{"nStudents":24,"maxFlips":25,"completionMinutes":45,"basePay":8,"maxBonus":9,"perTrialBonus":0.5,"perTrialBonusThreshold":0.05,"exampleCost":0.02},"classroomParams":{"A":{"a":1,"b":4},"B":{"a":4,"b":1},"C":{"a":2,"b":8},"D":{"a":8,"b":2}},"conditions":["nonSeqFull","nonSeqPartial","seqNoFeedback","seqFeedback"],"classroomPairings":[["A","B"],["C","D"]],"coinWeights":[0.2,0.5,0.8],"subjectId":"A1K8VUKRL53OX","assignmentId":"3JV9LGBJWU0TSCKFE2VW0L88THJOGA","hitId":"3IH9TRB0FBLK6RLF7MSMKICTGYN1IU","url":"https://gershmanlab.com/experiments/alicia/teaching/experiment/?hitId=3IH9TRB0FBLK6RLF7MSMKICTGYN1IU&workerId=A1K8VUKRL53OX&assignmentId=3JV9LGBJWU0TSCKFE2VW0L88THJOGA&a=JLVJ3&tp_a=JLVJ3&b=3JV9LGBJWU0TSCKFE2VW0L88THJOGA&tp_b=3JV9LGBJWU0TSCKFE2VW0L88THJOGA&c=365633&tp_c=365633","pass":true},{"rt":null,"stimulus":"<div style=\"font-size:30px;\">Congrats on passing the comprehension quiz! The experiment will begin in a few seconds.</div>","response":null,"trial_type":"html-keyboard-response","trial_index":7,"time_elapsed":3106384,"internal_node_id":"0.0-3.0","params":{"nStudents":24,"maxFlips":25,"completionMinutes":45,"basePay":8,"maxBonus":9,"perTrialBonus":0.5,"perTrialBonusThreshold":0.05,"exampleCost":0.02},"classroomParams":{"A":{"a":1,"b":4},"B":{"a":4,"b":1},"C":{"a":2,"b":8},"D":{"a":8,"b":2}},"conditions":["nonSeqFull","nonSeqPartial","seqNoFeedback","seqFeedback"],"classroomPairings":[["A","B"],["C","D"]],"coinWeights":[0.2,0.5,0.8],"subjectId":"A1K8VUKRL53OX","assignmentId":"3JV9LGBJWU0TSCKFE2VW0L88THJOGA","hitId":"3IH9TRB0FBLK6RLF7MSMKICTGYN1IU","url":"https://gershmanlab.com/experiments/alicia/teaching/experiment/?hitId=3IH9TRB0FBLK6RLF7MSMKICTGYN1IU&workerId=A1K8VUKRL53OX&assignmentId=3JV9LGBJWU0TSCKFE2VW0L88THJOGA&a=JLVJ3&tp_a=JLVJ3&b=3JV9LGBJWU0TSCKFE2VW0L88THJOGA&tp_b=3JV9LGBJWU0TSCKFE2VW0L88THJOGA&c=365633&tp_c=365633"},{"rt":null,"stimulus":"<div style=\"font-size:50px;\">First student</div>","response":null,"trial_type":"html-keyboard-response","trial_index":8,"time_elapsed":3109908,"internal_node_id":"0.0-4.0","params":{"nStudents":24,"maxFlips":25,"completionMinutes":45,"basePay":8,"maxBonus":9,"perTrialBonus":0.5,"perTrialBonusThreshold":0.05,"exampleCost":0.02},"classroomParams":{"A":{"a":1,"b":4},"B":{"a":4,"b":1},"C":{"a":2,"b":8},"D":{"a":8,"b":2}},"conditions":["nonSeqFull","nonSeqPartial","seqNoFeedback","seqFeedback"],"classroomPairings":[["A","B"],["C","D"]],"coinWeights":[0.2,0.5,0.8],"subjectId":"A1K8VUKRL53OX","assignmentId":"3JV9LGBJWU0TSCKFE2VW0L88THJOGA","hitId":"3IH9TRB0FBLK6RLF7MSMKICTGYN1IU","url":"https://gershmanlab.com/experiments/alicia/teaching/experiment/?hitId=3IH9TRB0FBLK6RLF7MSMKICTGYN1IU&workerId=A1K8VUKRL53OX&assignmentId=3JV9LGBJWU0TSCKFE2VW0L88THJOGA&a=JLVJ3&tp_a=JLVJ3&b=3JV9LGBJWU0TSCKFE2VW0L88THJOGA&tp_b=3JV9LGBJWU0TSCKFE2VW0L88THJOGA&c=365633&tp_c=365633"},{"rt":13917,"stimulus":"\n            <h4 style=\"color:Orange;\">Student 1</h4>\n            <h2>The weight of your coin is <b style=\"color:Tomato;\">0.2</b>.</h2>\n            <p>In this block, you will be giving <b>one</b> set of examples to Student 1.</p>\n                <p>You will receive feedback at the end of the block.</p>\n            <p></p>","response":0,"trial_type":"html-button-response","trial_index":9,"time_elapsed":3123829,"internal_node_id":"0.0-5.0","params":{"nStudents":24,"maxFlips":25,"completionMinutes":45,"basePay":8,"maxBonus":9,"perTrialBonus":0.5,"perTrialBonusThreshold":0.05,"exampleCost":0.02},"classroomParams":{"A":{"a":1,"b":4},"B":{"a":4,"b":1},"C":{"a":2,"b":8},"D":{"a":8,"b":2}},"conditions":["nonSeqFull","nonSeqPartial","seqNoFeedback","seqFeedback"],"classroomPairings":[["A","B"],["C","D"]],"coinWeights":[0.2,0.5,0.8],"subjectId":"A1K8VUKRL53OX","assignmentId":"3JV9LGBJWU0TSCKFE2VW0L88THJOGA","hitId":"3IH9TRB0FBLK6RLF7MSMKICTGYN1IU","url":"https://gershmanlab.com/experiments/alicia/teaching/experiment/?hitId=3IH9TRB0FBLK6RLF7MSMKICTGYN1IU&workerId=A1K8VUKRL53OX&assignmentId=3JV9LGBJWU0TSCKFE2VW0L88THJOGA&a=JLVJ3&tp_a=JLVJ3&b=3JV9LGBJWU0TSCKFE2VW0L88THJOGA&tp_b=3JV9LGBJWU0TSCKFE2VW0L88THJOGA&c=365633&tp_c=365633"},{"rt":22749,"response":{"heads":"3","tails":"7"},"type":"response","condition":"nonSeqFull","trueTheta":0.2,"classrooms":["A","B"],"studentTrueClassroom":"B","exampleSet":"first","trial_type":"survey-html-form","trial_index":10,"time_elapsed":3146580,"internal_node_id":"0.0-6.0-0.0","params":{"nStudents":24,"maxFlips":25,"completionMinutes":45,"basePay":8,"maxBonus":9,"perTrialBonus":0.5,"perTrialBonusThreshold":0.05,"exampleCost":0.02},"classroomParams":{"A":{"a":1,"b":4},"B":{"a":4,"b":1},"C":{"a":2,"b":8},"D":{"a":8,"b":2}},"conditions":["nonSeqFull","nonSeqPartial","seqNoFeedback","seqFeedback"],"classroomPairings":[["A","B"],["C","D"]],"coinWeights":[0.2,0.5,0.8],"subjectId":"A1K8VUKRL53OX","assignmentId":"3JV9LGBJWU0TSCKFE2VW0L88THJOGA","hitId":"3IH9TRB0FBLK6RLF7MSMKICTGYN1IU","url":"https://gershmanlab.com/experiments/alicia/teaching/experiment/?hitId=3IH9TRB0FBLK6RLF7MSMKICTGYN1IU&workerId=A1K8VUKRL53OX&assignmentId=3JV9LGBJWU0TSCKFE2VW0L88THJOGA&a=JLVJ3&tp_a=JLVJ3&b=3JV9LGBJWU0TSCKFE2VW0L88THJOGA&tp_b=3JV9LGBJWU0TSCKFE2VW0L88THJOGA&c=365633&tp_c=365633","heads":3,"tails":7,"studentIndex":0,"studentTrueHypers":{"a":4,"b":1},"studentGuess":0.4666666666666667,"delta":0.26666666666666666,"totalExamples":10,"bonus":0,"bonusSoFar":0},{"rt":null,"stimulus":"Sending examples to student... ","response":null,"trial_type":"html-keyboard-response","trial_index":11,"time_elapsed":3148583,"internal_node_id":"0.0-7.0","params":{"nStudents":24,"maxFlips":25,"completionMinutes":45,"basePay":8,"maxBonus":9,"perTrialBonus":0.5,"perTrialBonusThreshold":0.05,"exampleCost":0.02},"classroomParams":{"A":{"a":1,"b":4},"B":{"a":4,"b":1},"C":{"a":2,"b":8},"D":{"a":8,"b":2}},"conditions":["nonSeqFull","nonSeqPartial","seqNoFeedback","seqFeedback"],"classroomPairings":[["A","B"],["C","D"]],"coinWeights":[0.2,0.5,0.8],"subjectId":"A1K8VUKRL53OX","assignmentId":"3JV9LGBJWU0TSCKFE2VW0L88THJOGA","hitId":"3IH9TRB0FBLK6RLF7MSMKICTGYN1IU","url":"https://gershmanlab.com/experiments/alicia/teaching/experiment/?hitId=3IH9TRB0FBLK6RLF7MSMKICTGYN1IU&workerId=A1K8VUKRL53OX&assignmentId=3JV9LGBJWU0TSCKFE2VW0L88THJOGA&a=JLVJ3&tp_a=JLVJ3&b=3JV9LGBJWU0TSCKFE2VW0L88THJOGA&tp_b=3JV9LGBJWU0TSCKFE2VW0L88THJOGA&c=365633&tp_c=365633"},{"rt":null,"stimulus":"Examples sent to student! Waiting for student...","response":null,"trial_type":"html-keyboard-response","trial_index":12,"time_elapsed":3153591,"internal_node_id":"0.0-8.0","params":{"nStudents":24,"maxFlips":25,"completionMinutes":45,"basePay":8,"maxBonus":9,"perTrialBonus":0.5,"perTrialBonusThreshold":0.05,"exampleCost":0.02},"classroomParams":{"A":{"a":1,"b":4},"B":{"a":4,"b":1},"C":{"a":2,"b":8},"D":{"a":8,"b":2}},"conditions":["nonSeqFull","nonSeqPartial","seqNoFeedback","seqFeedback"],"classroomPairings":[["A","B"],["C","D"]],"coinWeights":[0.2,0.5,0.8],"subjectId":"A1K8VUKRL53OX","assignmentId":"3JV9LGBJWU0TSCKFE2VW0L88THJOGA","hitId":"3IH9TRB0FBLK6RLF7MSMKICTGYN1IU","url":"https://gershmanlab.com/experiments/alicia/teaching/experiment/?hitId=3IH9TRB0FBLK6RLF7MSMKICTGYN1IU&workerId=A1K8VUKRL53OX&assignmentId=3JV9LGBJWU0TSCKFE2VW0L88THJOGA&a=JLVJ3&tp_a=JLVJ3&b=3JV9LGBJWU0TSCKFE2VW0L88THJOGA&tp_b=3JV9LGBJWU0TSCKFE2VW0L88THJOGA&c=365633&tp_c=365633"},{"rt":9593,"stimulus":"\n                <p>Student's guess for coin weight: <b style=\"color:Tomato;\">0.47</b></p>\n                <p>You received a bonus of <b>$0</b>. Total bonus so far: <b>$0.00</b></b></p>\n                <p></p>\n                <p>Press any key to continue.</p>\n                ","response":"b","trial_type":"html-keyboard-response","trial_index":13,"time_elapsed":3163187,"internal_node_id":"0.0-9.0","params":{"nStudents":24,"maxFlips":25,"completionMinutes":45,"basePay":8,"maxBonus":9,"perTrialBonus":0.5,"perTrialBonusThreshold":0.05,"exampleCost":0.02},"classroomParams":{"A":{"a":1,"b":4},"B":{"a":4,"b":1},"C":{"a":2,"b":8},"D":{"a":8,"b":2}},"conditions":["nonSeqFull","nonSeqPartial","seqNoFeedback","seqFeedback"],"classroomPairings":[["A","B"],["C","D"]],"coinWeights":[0.2,0.5,0.8],"subjectId":"A1K8VUKRL53OX","assignmentId":"3JV9LGBJWU0TSCKFE2VW0L88THJOGA","hitId":"3IH9TRB0FBLK6RLF7MSMKICTGYN1IU","url":"https://gershmanlab.com/experiments/alicia/teaching/experiment/?hitId=3IH9TRB0FBLK6RLF7MSMKICTGYN1IU&workerId=A1K8VUKRL53OX&assignmentId=3JV9LGBJWU0TSCKFE2VW0L88THJOGA&a=JLVJ3&tp_a=JLVJ3&b=3JV9LGBJWU0TSCKFE2VW0L88THJOGA&tp_b=3JV9LGBJWU0TSCKFE2VW0L88THJOGA&c=365633&tp_c=365633"},{"rt":null,"stimulus":"<div style=\"font-size:60px;\">Next student</div>","response":null,"trial_type":"html-keyboard-response","trial_index":14,"time_elapsed":3165696,"internal_node_id":"0.0-10.0-0.0","params":{"nStudents":24,"maxFlips":25,"completionMinutes":45,"basePay":8,"maxBonus":9,"perTrialBonus":0.5,"perTrialBonusThreshold":0.05,"exampleCost":0.02},"classroomParams":{"A":{"a":1,"b":4},"B":{"a":4,"b":1},"C":{"a":2,"b":8},"D":{"a":8,"b":2}},"conditions":["nonSeqFull","nonSeqPartial","seqNoFeedback","seqFeedback"],"classroomPairings":[["A","B"],["C","D"]],"coinWeights":[0.2,0.5,0.8],"subjectId":"A1K8VUKRL53OX","assignmentId":"3JV9LGBJWU0TSCKFE2VW0L88THJOGA","hitId":"3IH9TRB0FBLK6RLF7MSMKICTGYN1IU","url":"https://gershmanlab.com/experiments/alicia/teaching/experiment/?hitId=3IH9TRB0FBLK6RLF7MSMKICTGYN1IU&workerId=A1K8VUKRL53OX&assignmentId=3JV9LGBJWU0TSCKFE2VW0L88THJOGA&a=JLVJ3&tp_a=JLVJ3&b=3JV9LGBJWU0TSCKFE2VW0L88THJOGA&tp_b=3JV9LGBJWU0TSCKFE2VW0L88THJOGA&c=365633&tp_c=365633"},{"rt":5665,"stimulus":"\n            <h4 style=\"color:Orange;\">Student 2</h4>\n            <h2>The weight of your coin is <b style=\"color:Tomato;\">0.5</b>.</h2>\n            <p>In this block, you will be giving <b>two</b> sets of examples to Student 2.</p>\n                <p>You will receive feedback at the end of the block.</p>\n            <p></p>","response":0,"trial_type":"html-button-response","trial_index":15,"time_elapsed":3171364,"internal_node_id":"0.0-11.0","params":{"nStudents":24,"maxFlips":25,"completionMinutes":45,"basePay":8,"maxBonus":9,"perTrialBonus":0.5,"perTrialBonusThreshold":0.05,"exampleCost":0.02},"classroomParams":{"A":{"a":1,"b":4},"B":{"a":4,"b":1},"C":{"a":2,"b":8},"D":{"a":8,"b":2}},"conditions":["nonSeqFull","nonSeqPartial","seqNoFeedback","seqFeedback"],"classroomPairings":[["A","B"],["C","D"]],"coinWeights":[0.2,0.5,0.8],"subjectId":"A1K8VUKRL53OX","assignmentId":"3JV9LGBJWU0TSCKFE2VW0L88THJOGA","hitId":"3IH9TRB0FBLK6RLF7MSMKICTGYN1IU","url":"https://gershmanlab.com/experiments/alicia/teaching/experiment/?hitId=3IH9TRB0FBLK6RLF7MSMKICTGYN1IU&workerId=A1K8VUKRL53OX&assignmentId=3JV9LGBJWU0TSCKFE2VW0L88THJOGA&a=JLVJ3&tp_a=JLVJ3&b=3JV9LGBJWU0TSCKFE2VW0L88THJOGA&tp_b=3JV9LGBJWU0TSCKFE2VW0L88THJOGA&c=365633&tp_c=365633"},{"rt":27606,"response":{"heads":"1","tails":"1"},"type":"response","condition":"seqNoFeedback","trueTheta":0.5,"classrooms":["A","B"],"studentTrueClassroom":"A","exampleSet":"first","trial_type":"survey-html-form","trial_index":16,"time_elapsed":3198972,"internal_node_id":"0.0-12.0-0.0","params":{"nStudents":24,"maxFlips":25,"completionMinutes":45,"basePay":8,"maxBonus":9,"perTrialBonus":0.5,"perTrialBonusThreshold":0.05,"exampleCost":0.02},"classroomParams":{"A":{"a":1,"b":4},"B":{"a":4,"b":1},"C":{"a":2,"b":8},"D":{"a":8,"b":2}},"conditions":["nonSeqFull","nonSeqPartial","seqNoFeedback","seqFeedback"],"classroomPairings":[["A","B"],["C","D"]],"coinWeights":[0.2,0.5,0.8],"subjectId":"A1K8VUKRL53OX","assignmentId":"3JV9LGBJWU0TSCKFE2VW0L88THJOGA","hitId":"3IH9TRB0FBLK6RLF7MSMKICTGYN1IU","url":"https://gershmanlab.com/experiments/alicia/teaching/experiment/?hitId=3IH9TRB0FBLK6RLF7MSMKICTGYN1IU&workerId=A1K8VUKRL53OX&assignmentId=3JV9LGBJWU0TSCKFE2VW0L88THJOGA&a=JLVJ3&tp_a=JLVJ3&b=3JV9LGBJWU0TSCKFE2VW0L88THJOGA&tp_b=3JV9LGBJWU0TSCKFE2VW0L88THJOGA&c=365633&tp_c=365633","heads":1,"tails":1,"studentIndex":1,"studentTrueHypers":{"a":1,"b":4},"studentGuess":0.2857142857142857,"delta":0.2142857142857143,"totalExamples":2,"bonusSoFar":0},{"rt":null,"stimulus":"Sending examples to student... ","response":null,"trial_type":"html-keyboard-response","trial_index":17,"time_elapsed":3200977,"internal_node_id":"0.0-13.0","params":{"nStudents":24,"maxFlips":25,"completionMinutes":45,"basePay":8,"maxBonus":9,"perTrialBonus":0.5,"perTrialBonusThreshold":0.05,"exampleCost":0.02},"classroomParams":{"A":{"a":1,"b":4},"B":{"a":4,"b":1},"C":{"a":2,"b":8},"D":{"a":8,"b":2}},"conditions":["nonSeqFull","nonSeqPartial","seqNoFeedback","seqFeedback"],"classroomPairings":[["A","B"],["C","D"]],"coinWeights":[0.2,0.5,0.8],"subjectId":"A1K8VUKRL53OX","assignmentId":"3JV9LGBJWU0TSCKFE2VW0L88THJOGA","hitId":"3IH9TRB0FBLK6RLF7MSMKICTGYN1IU","url":"https://gershmanlab.com/experiments/alicia/teaching/experiment/?hitId=3IH9TRB0FBLK6RLF7MSMKICTGYN1IU&workerId=A1K8VUKRL53OX&assignmentId=3JV9LGBJWU0TSCKFE2VW0L88THJOGA&a=JLVJ3&tp_a=JLVJ3&b=3JV9LGBJWU0TSCKFE2VW0L88THJOGA&tp_b=3JV9LGBJWU0TSCKFE2VW0L88THJOGA&c=365633&tp_c=365633"},{"rt":null,"stimulus":"Examples sent to student! Waiting for student...","response":null,"trial_type":"html-keyboard-response","trial_index":18,"time_elapsed":3205481,"internal_node_id":"0.0-14.0","params":{"nStudents":24,"maxFlips":25,"completionMinutes":45,"basePay":8,"maxBonus":9,"perTrialBonus":0.5,"perTrialBonusThreshold":0.05,"exampleCost":0.02},"classroomParams":{"A":{"a":1,"b":4},"B":{"a":4,"b":1},"C":{"a":2,"b":8},"D":{"a":8,"b":2}},"conditions":["nonSeqFull","nonSeqPartial","seqNoFeedback","seqFeedback"],"classroomPairings":[["A","B"],["C","D"]],"coinWeights":[0.2,0.5,0.8],"subjectId":"A1K8VUKRL53OX","assignmentId":"3JV9LGBJWU0TSCKFE2VW0L88THJOGA","hitId":"3IH9TRB0FBLK6RLF7MSMKICTGYN1IU","url":"https://gershmanlab.com/experiments/alicia/teaching/experiment/?hitId=3IH9TRB0FBLK6RLF7MSMKICTGYN1IU&workerId=A1K8VUKRL53OX&assignmentId=3JV9LGBJWU0TSCKFE2VW0L88THJOGA&a=JLVJ3&tp_a=JLVJ3&b=3JV9LGBJWU0TSCKFE2VW0L88THJOGA&tp_b=3JV9LGBJWU0TSCKFE2VW0L88THJOGA&c=365633&tp_c=365633"},{"rt":6249,"response":{"heads":"02","tails":"02"},"type":"response","condition":"seqNoFeedback","trueTheta":0.5,"classrooms":["A","B"],"studentTrueClassroom":"A","exampleSet":"second","trial_type":"survey-html-form","trial_index":19,"time_elapsed":3211734,"internal_node_id":"0.0-15.0-0.0","params":{"nStudents":24,"maxFlips":25,"completionMinutes":45,"basePay":8,"maxBonus":9,"perTrialBonus":0.5,"perTrialBonusThreshold":0.05,"exampleCost":0.02},"classroomParams":{"A":{"a":1,"b":4},"B":{"a":4,"b":1},"C":{"a":2,"b":8},"D":{"a":8,"b":2}},"conditions":["nonSeqFull","nonSeqPartial","seqNoFeedback","seqFeedback"],"classroomPairings":[["A","B"],["C","D"]],"coinWeights":[0.2,0.5,0.8],"subjectId":"A1K8VUKRL53OX","assignmentId":"3JV9LGBJWU0TSCKFE2VW0L88THJOGA","hitId":"3IH9TRB0FBLK6RLF7MSMKICTGYN1IU","url":"https://gershmanlab.com/experiments/alicia/teaching/experiment/?hitId=3IH9TRB0FBLK6RLF7MSMKICTGYN1IU&workerId=A1K8VUKRL53OX&assignmentId=3JV9LGBJWU0TSCKFE2VW0L88THJOGA&a=JLVJ3&tp_a=JLVJ3&b=3JV9LGBJWU0TSCKFE2VW0L88THJOGA&tp_b=3JV9LGBJWU0TSCKFE2VW0L88THJOGA&c=365633&tp_c=365633","firstResponseHeads":1,"firstResponseTails":1,"secondResponseHeads":2,"secondResponseTails":2,"totalHeads":3,"totalTails":3,"studentIndex":1,"studentTrueHypers":{"a":1,"b":4},"studentGuess":0.36363636363636365,"delta":0.13636363636363635,"bonus":0,"bonusSoFar":0,"totalExamples":6},{"rt":null,"stimulus":"Sending examples to student... ","response":null,"trial_type":"html-keyboard-response","trial_index":20,"time_elapsed":3212993,"internal_node_id":"0.0-16.0","params":{"nStudents":24,"maxFlips":25,"completionMinutes":45,"basePay":8,"maxBonus":9,"perTrialBonus":0.5,"perTrialBonusThreshold":0.05,"exampleCost":0.02},"classroomParams":{"A":{"a":1,"b":4},"B":{"a":4,"b":1},"C":{"a":2,"b":8},"D":{"a":8,"b":2}},"conditions":["nonSeqFull","nonSeqPartial","seqNoFeedback","seqFeedback"],"classroomPairings":[["A","B"],["C","D"]],"coinWeights":[0.2,0.5,0.8],"subjectId":"A1K8VUKRL53OX","assignmentId":"3JV9LGBJWU0TSCKFE2VW0L88THJOGA","hitId":"3IH9TRB0FBLK6RLF7MSMKICTGYN1IU","url":"https://gershmanlab.com/experiments/alicia/teaching/experiment/?hitId=3IH9TRB0FBLK6RLF7MSMKICTGYN1IU&workerId=A1K8VUKRL53OX&assignmentId=3JV9LGBJWU0TSCKFE2VW0L88THJOGA&a=JLVJ3&tp_a=JLVJ3&b=3JV9LGBJWU0TSCKFE2VW0L88THJOGA&tp_b=3JV9LGBJWU0TSCKFE2VW0L88THJOGA&c=365633&tp_c=365633"},{"rt":null,"stimulus":"Examples sent to student! Waiting for student...","response":null,"trial_type":"html-keyboard-response","trial_index":21,"time_elapsed":3217000,"internal_node_id":"0.0-17.0","params":{"nStudents":24,"maxFlips":25,"completionMinutes":45,"basePay":8,"maxBonus":9,"perTrialBonus":0.5,"perTrialBonusThreshold":0.05,"exampleCost":0.02},"classroomParams":{"A":{"a":1,"b":4},"B":{"a":4,"b":1},"C":{"a":2,"b":8},"D":{"a":8,"b":2}},"conditions":["nonSeqFull","nonSeqPartial","seqNoFeedback","seqFeedback"],"classroomPairings":[["A","B"],["C","D"]],"coinWeights":[0.2,0.5,0.8],"subjectId":"A1K8VUKRL53OX","assignmentId":"3JV9LGBJWU0TSCKFE2VW0L88THJOGA","hitId":"3IH9TRB0FBLK6RLF7MSMKICTGYN1IU","url":"https://gershmanlab.com/experiments/alicia/teaching/experiment/?hitId=3IH9TRB0FBLK6RLF7MSMKICTGYN1IU&workerId=A1K8VUKRL53OX&assignmentId=3JV9LGBJWU0TSCKFE2VW0L88THJOGA&a=JLVJ3&tp_a=JLVJ3&b=3JV9LGBJWU0TSCKFE2VW0L88THJOGA&tp_b=3JV9LGBJWU0TSCKFE2VW0L88THJOGA&c=365633&tp_c=365633"},{"rt":10592,"stimulus":"\n                <p>Student 2's first guess for coin weight: <b style=\"color:Tomato\";>0.29</b></p>\n                <p>Student 2's second guess for coin weight: <b style=\"color:Tomato\";>0.36</b></p>\n                <p>You received a bonus of <b>$0.00</b> based on the student's second guess.</p>\n                <p>Total bonus so far: <b>$0.00</b></p>\n                <p>Press any key to continue.</p>\n                ","response":"n","trial_type":"html-keyboard-response","trial_index":22,"time_elapsed":3227594,"internal_node_id":"0.0-18.0","params":{"nStudents":24,"maxFlips":25,"completionMinutes":45,"basePay":8,"maxBonus":9,"perTrialBonus":0.5,"perTrialBonusThreshold":0.05,"exampleCost":0.02},"classroomParams":{"A":{"a":1,"b":4},"B":{"a":4,"b":1},"C":{"a":2,"b":8},"D":{"a":8,"b":2}},"conditions":["nonSeqFull","nonSeqPartial","seqNoFeedback","seqFeedback"],"classroomPairings":[["A","B"],["C","D"]],"coinWeights":[0.2,0.5,0.8],"subjectId":"A1K8VUKRL53OX","assignmentId":"3JV9LGBJWU0TSCKFE2VW0L88THJOGA","hitId":"3IH9TRB0FBLK6RLF7MSMKICTGYN1IU","url":"https://gershmanlab.com/experiments/alicia/teaching/experiment/?hitId=3IH9TRB0FBLK6RLF7MSMKICTGYN1IU&workerId=A1K8VUKRL53OX&assignmentId=3JV9LGBJWU0TSCKFE2VW0L88THJOGA&a=JLVJ3&tp_a=JLVJ3&b=3JV9LGBJWU0TSCKFE2VW0L88THJOGA&tp_b=3JV9LGBJWU0TSCKFE2VW0L88THJOGA&c=365633&tp_c=365633"},{"rt":null,"stimulus":"<div style=\"font-size:60px;\">Next student</div>","response":null,"trial_type":"html-keyboard-response","trial_index":23,"time_elapsed":3229849,"internal_node_id":"0.0-19.0-0.0","params":{"nStudents":24,"maxFlips":25,"completionMinutes":45,"basePay":8,"maxBonus":9,"perTrialBonus":0.5,"perTrialBonusThreshold":0.05,"exampleCost":0.02},"classroomParams":{"A":{"a":1,"b":4},"B":{"a":4,"b":1},"C":{"a":2,"b":8},"D":{"a":8,"b":2}},"conditions":["nonSeqFull","nonSeqPartial","seqNoFeedback","seqFeedback"],"classroomPairings":[["A","B"],["C","D"]],"coinWeights":[0.2,0.5,0.8],"subjectId":"A1K8VUKRL53OX","assignmentId":"3JV9LGBJWU0TSCKFE2VW0L88THJOGA","hitId":"3IH9TRB0FBLK6RLF7MSMKICTGYN1IU","url":"https://gershmanlab.com/experiments/alicia/teaching/experiment/?hitId=3IH9TRB0FBLK6RLF7MSMKICTGYN1IU&workerId=A1K8VUKRL53OX&assignmentId=3JV9LGBJWU0TSCKFE2VW0L88THJOGA&a=JLVJ3&tp_a=JLVJ3&b=3JV9LGBJWU0TSCKFE2VW0L88THJOGA&tp_b=3JV9LGBJWU0TSCKFE2VW0L88THJOGA&c=365633&tp_c=365633"},{"rt":3234,"stimulus":"\n            <h4 style=\"color:Orange;\">Student 3</h4>\n            <h2>The weight of your coin is <b style=\"color:Tomato;\">0.8</b>.</h2>\n            <p>In this block, you will be giving <b>two</b> sets of examples to Student 3.</p>\n                <p>You will see the student's guess after the first set of examples. You will also receive feedback at the end of the block.</p>\n            <p>To earn the highest bonus, you will have to <b>take into consideration the student's guess</b> when you choose your second set of examples.</p>","response":0,"trial_type":"html-button-response","trial_index":24,"time_elapsed":3233086,"internal_node_id":"0.0-20.0","params":{"nStudents":24,"maxFlips":25,"completionMinutes":45,"basePay":8,"maxBonus":9,"perTrialBonus":0.5,"perTrialBonusThreshold":0.05,"exampleCost":0.02},"classroomParams":{"A":{"a":1,"b":4},"B":{"a":4,"b":1},"C":{"a":2,"b":8},"D":{"a":8,"b":2}},"conditions":["nonSeqFull","nonSeqPartial","seqNoFeedback","seqFeedback"],"classroomPairings":[["A","B"],["C","D"]],"coinWeights":[0.2,0.5,0.8],"subjectId":"A1K8VUKRL53OX","assignmentId":"3JV9LGBJWU0TSCKFE2VW0L88THJOGA","hitId":"3IH9TRB0FBLK6RLF7MSMKICTGYN1IU","url":"https://gershmanlab.com/experiments/alicia/teaching/experiment/?hitId=3IH9TRB0FBLK6RLF7MSMKICTGYN1IU&workerId=A1K8VUKRL53OX&assignmentId=3JV9LGBJWU0TSCKFE2VW0L88THJOGA&a=JLVJ3&tp_a=JLVJ3&b=3JV9LGBJWU0TSCKFE2VW0L88THJOGA&tp_b=3JV9LGBJWU0TSCKFE2VW0L88THJOGA&c=365633&tp_c=365633"},{"rt":30862,"response":{"heads":"1","tails":"1"},"type":"response","condition":"seqFeedback","trueTheta":0.8,"classrooms":["A","B"],"studentTrueClassroom":"A","exampleSet":"first","trial_type":"survey-html-form","trial_index":25,"time_elapsed":3263950,"internal_node_id":"0.0-21.0-0.0","params":{"nStudents":24,"maxFlips":25,"completionMinutes":45,"basePay":8,"maxBonus":9,"perTrialBonus":0.5,"perTrialBonusThreshold":0.05,"exampleCost":0.02},"classroomParams":{"A":{"a":1,"b":4},"B":{"a":4,"b":1},"C":{"a":2,"b":8},"D":{"a":8,"b":2}},"conditions":["nonSeqFull","nonSeqPartial","seqNoFeedback","seqFeedback"],"classroomPairings":[["A","B"],["C","D"]],"coinWeights":[0.2,0.5,0.8],"subjectId":"A1K8VUKRL53OX","assignmentId":"3JV9LGBJWU0TSCKFE2VW0L88THJOGA","hitId":"3IH9TRB0FBLK6RLF7MSMKICTGYN1IU","url":"https://gershmanlab.com/experiments/alicia/teaching/experiment/?hitId=3IH9TRB0FBLK6RLF7MSMKICTGYN1IU&workerId=A1K8VUKRL53OX&assignmentId=3JV9LGBJWU0TSCKFE2VW0L88THJOGA&a=JLVJ3&tp_a=JLVJ3&b=3JV9LGBJWU0TSCKFE2VW0L88THJOGA&tp_b=3JV9LGBJWU0TSCKFE2VW0L88THJOGA&c=365633&tp_c=365633","heads":1,"tails":1,"studentIndex":2,"studentTrueHypers":{"a":1,"b":4},"studentGuess":0.2857142857142857,"delta":0.5142857142857143,"totalExamples":2,"bonusSoFar":0},{"rt":null,"stimulus":"Sending examples to student... ","response":null,"trial_type":"html-keyboard-response","trial_index":26,"time_elapsed":3265711,"internal_node_id":"0.0-22.0","params":{"nStudents":24,"maxFlips":25,"completionMinutes":45,"basePay":8,"maxBonus":9,"perTrialBonus":0.5,"perTrialBonusThreshold":0.05,"exampleCost":0.02},"classroomParams":{"A":{"a":1,"b":4},"B":{"a":4,"b":1},"C":{"a":2,"b":8},"D":{"a":8,"b":2}},"conditions":["nonSeqFull","nonSeqPartial","seqNoFeedback","seqFeedback"],"classroomPairings":[["A","B"],["C","D"]],"coinWeights":[0.2,0.5,0.8],"subjectId":"A1K8VUKRL53OX","assignmentId":"3JV9LGBJWU0TSCKFE2VW0L88THJOGA","hitId":"3IH9TRB0FBLK6RLF7MSMKICTGYN1IU","url":"https://gershmanlab.com/experiments/alicia/teaching/experiment/?hitId=3IH9TRB0FBLK6RLF7MSMKICTGYN1IU&workerId=A1K8VUKRL53OX&assignmentId=3JV9LGBJWU0TSCKFE2VW0L88THJOGA&a=JLVJ3&tp_a=JLVJ3&b=3JV9LGBJWU0TSCKFE2VW0L88THJOGA&tp_b=3JV9LGBJWU0TSCKFE2VW0L88THJOGA&c=365633&tp_c=365633"},{"rt":null,"stimulus":"Examples sent to student! Waiting for student...","response":null,"trial_type":"html-keyboard-response","trial_index":27,"time_elapsed":3271713,"internal_node_id":"0.0-23.0","params":{"nStudents":24,"maxFlips":25,"completionMinutes":45,"basePay":8,"maxBonus":9,"perTrialBonus":0.5,"perTrialBonusThreshold":0.05,"exampleCost":0.02},"classroomParams":{"A":{"a":1,"b":4},"B":{"a":4,"b":1},"C":{"a":2,"b":8},"D":{"a":8,"b":2}},"conditions":["nonSeqFull","nonSeqPartial","seqNoFeedback","seqFeedback"],"classroomPairings":[["A","B"],["C","D"]],"coinWeights":[0.2,0.5,0.8],"subjectId":"A1K8VUKRL53OX","assignmentId":"3JV9LGBJWU0TSCKFE2VW0L88THJOGA","hitId":"3IH9TRB0FBLK6RLF7MSMKICTGYN1IU","url":"https://gershmanlab.com/experiments/alicia/teaching/experiment/?hitId=3IH9TRB0FBLK6RLF7MSMKICTGYN1IU&workerId=A1K8VUKRL53OX&assignmentId=3JV9LGBJWU0TSCKFE2VW0L88THJOGA&a=JLVJ3&tp_a=JLVJ3&b=3JV9LGBJWU0TSCKFE2VW0L88THJOGA&tp_b=3JV9LGBJWU0TSCKFE2VW0L88THJOGA&c=365633&tp_c=365633"},{"rt":5008,"stimulus":"\n                <p>Student's guess for coin weight: <b style=\"color:Tomato;\">0.29</b></p>\n                <p></b></p>\n                <p>You will now send another set of examples to your student. <b>Remember to take your student's guess into consideration so that you can earn the highest bonus possible!</b> </p>\n                <p>Press any key to continue.</p>\n                ","response":"v","trial_type":"html-keyboard-response","trial_index":28,"time_elapsed":3276723,"internal_node_id":"0.0-24.0","params":{"nStudents":24,"maxFlips":25,"completionMinutes":45,"basePay":8,"maxBonus":9,"perTrialBonus":0.5,"perTrialBonusThreshold":0.05,"exampleCost":0.02},"classroomParams":{"A":{"a":1,"b":4},"B":{"a":4,"b":1},"C":{"a":2,"b":8},"D":{"a":8,"b":2}},"conditions":["nonSeqFull","nonSeqPartial","seqNoFeedback","seqFeedback"],"classroomPairings":[["A","B"],["C","D"]],"coinWeights":[0.2,0.5,0.8],"subjectId":"A1K8VUKRL53OX","assignmentId":"3JV9LGBJWU0TSCKFE2VW0L88THJOGA","hitId":"3IH9TRB0FBLK6RLF7MSMKICTGYN1IU","url":"https://gershmanlab.com/experiments/alicia/teaching/experiment/?hitId=3IH9TRB0FBLK6RLF7MSMKICTGYN1IU&workerId=A1K8VUKRL53OX&assignmentId=3JV9LGBJWU0TSCKFE2VW0L88THJOGA&a=JLVJ3&tp_a=JLVJ3&b=3JV9LGBJWU0TSCKFE2VW0L88THJOGA&tp_b=3JV9LGBJWU0TSCKFE2VW0L88THJOGA&c=365633&tp_c=365633"},{"rt":10465,"response":{"heads":"2","tails":"2"},"type":"response","condition":"seqFeedback","trueTheta":0.8,"classrooms":["A","B"],"studentTrueClassroom":"A","exampleSet":"second","trial_type":"survey-html-form","trial_index":29,"time_elapsed":3287190,"internal_node_id":"0.0-25.0-0.0","params":{"nStudents":24,"maxFlips":25,"completionMinutes":45,"basePay":8,"maxBonus":9,"perTrialBonus":0.5,"perTrialBonusThreshold":0.05,"exampleCost":0.02},"classroomParams":{"A":{"a":1,"b":4},"B":{"a":4,"b":1},"C":{"a":2,"b":8},"D":{"a":8,"b":2}},"conditions":["nonSeqFull","nonSeqPartial","seqNoFeedback","seqFeedback"],"classroomPairings":[["A","B"],["C","D"]],"coinWeights":[0.2,0.5,0.8],"subjectId":"A1K8VUKRL53OX","assignmentId":"3JV9LGBJWU0TSCKFE2VW0L88THJOGA","hitId":"3IH9TRB0FBLK6RLF7MSMKICTGYN1IU","url":"https://gershmanlab.com/experiments/alicia/teaching/experiment/?hitId=3IH9TRB0FBLK6RLF7MSMKICTGYN1IU&workerId=A1K8VUKRL53OX&assignmentId=3JV9LGBJWU0TSCKFE2VW0L88THJOGA&a=JLVJ3&tp_a=JLVJ3&b=3JV9LGBJWU0TSCKFE2VW0L88THJOGA&tp_b=3JV9LGBJWU0TSCKFE2VW0L88THJOGA&c=365633&tp_c=365633","firstResponseHeads":1,"firstResponseTails":1,"secondResponseHeads":2,"secondResponseTails":2,"totalHeads":3,"totalTails":3,"studentIndex":2,"studentTrueHypers":{"a":1,"b":4},"studentGuess":0.36363636363636365,"delta":0.4363636363636364,"bonus":0,"bonusSoFar":0,"totalExamples":6},{"rt":null,"stimulus":"Sending examples to student... ","response":null,"trial_type":"html-keyboard-response","trial_index":30,"time_elapsed":3288943,"internal_node_id":"0.0-26.0","params":{"nStudents":24,"maxFlips":25,"completionMinutes":45,"basePay":8,"maxBonus":9,"perTrialBonus":0.5,"perTrialBonusThreshold":0.05,"exampleCost":0.02},"classroomParams":{"A":{"a":1,"b":4},"B":{"a":4,"b":1},"C":{"a":2,"b":8},"D":{"a":8,"b":2}},"conditions":["nonSeqFull","nonSeqPartial","seqNoFeedback","seqFeedback"],"classroomPairings":[["A","B"],["C","D"]],"coinWeights":[0.2,0.5,0.8],"subjectId":"A1K8VUKRL53OX","assignmentId":"3JV9LGBJWU0TSCKFE2VW0L88THJOGA","hitId":"3IH9TRB0FBLK6RLF7MSMKICTGYN1IU","url":"https://gershmanlab.com/experiments/alicia/teaching/experiment/?hitId=3IH9TRB0FBLK6RLF7MSMKICTGYN1IU&workerId=A1K8VUKRL53OX&assignmentId=3JV9LGBJWU0TSCKFE2VW0L88THJOGA&a=JLVJ3&tp_a=JLVJ3&b=3JV9LGBJWU0TSCKFE2VW0L88THJOGA&tp_b=3JV9LGBJWU0TSCKFE2VW0L88THJOGA&c=365633&tp_c=365633"},{"rt":null,"stimulus":"Examples sent to student! Waiting for student...","response":null,"trial_type":"html-keyboard-response","trial_index":31,"time_elapsed":3293449,"internal_node_id":"0.0-27.0","params":{"nStudents":24,"maxFlips":25,"completionMinutes":45,"basePay":8,"maxBonus":9,"perTrialBonus":0.5,"perTrialBonusThreshold":0.05,"exampleCost":0.02},"classroomParams":{"A":{"a":1,"b":4},"B":{"a":4,"b":1},"C":{"a":2,"b":8},"D":{"a":8,"b":2}},"conditions":["nonSeqFull","nonSeqPartial","seqNoFeedback","seqFeedback"],"classroomPairings":[["A","B"],["C","D"]],"coinWeights":[0.2,0.5,0.8],"subjectId":"A1K8VUKRL53OX","assignmentId":"3JV9LGBJWU0TSCKFE2VW0L88THJOGA","hitId":"3IH9TRB0FBLK6RLF7MSMKICTGYN1IU","url":"https://gershmanlab.com/experiments/alicia/teaching/experiment/?hitId=3IH9TRB0FBLK6RLF7MSMKICTGYN1IU&workerId=A1K8VUKRL53OX&assignmentId=3JV9LGBJWU0TSCKFE2VW0L88THJOGA&a=JLVJ3&tp_a=JLVJ3&b=3JV9LGBJWU0TSCKFE2VW0L88THJOGA&tp_b=3JV9LGBJWU0TSCKFE2VW0L88THJOGA&c=365633&tp_c=365633"},{"rt":2256,"stimulus":"\n                <p>Student 3's first guess for coin weight: <b style=\"color:Tomato\";>0.29</b></p>\n                <p>Student 3's second guess for coin weight: <b style=\"color:Tomato\";>0.36</b></p>\n                <p>You received a bonus of <b>$0.00</b> based on the student's second guess.</p>\n                <p>Total bonus so far: <b>$0.00</b></p>\n                <p>Press any key to continue.</p>\n                ","response":"b","trial_type":"html-keyboard-response","trial_index":32,"time_elapsed":3295706,"internal_node_id":"0.0-28.0","params":{"nStudents":24,"maxFlips":25,"completionMinutes":45,"basePay":8,"maxBonus":9,"perTrialBonus":0.5,"perTrialBonusThreshold":0.05,"exampleCost":0.02},"classroomParams":{"A":{"a":1,"b":4},"B":{"a":4,"b":1},"C":{"a":2,"b":8},"D":{"a":8,"b":2}},"conditions":["nonSeqFull","nonSeqPartial","seqNoFeedback","seqFeedback"],"classroomPairings":[["A","B"],["C","D"]],"coinWeights":[0.2,0.5,0.8],"subjectId":"A1K8VUKRL53OX","assignmentId":"3JV9LGBJWU0TSCKFE2VW0L88THJOGA","hitId":"3IH9TRB0FBLK6RLF7MSMKICTGYN1IU","url":"https://gershmanlab.com/experiments/alicia/teaching/experiment/?hitId=3IH9TRB0FBLK6RLF7MSMKICTGYN1IU&workerId=A1K8VUKRL53OX&assignmentId=3JV9LGBJWU0TSCKFE2VW0L88THJOGA&a=JLVJ3&tp_a=JLVJ3&b=3JV9LGBJWU0TSCKFE2VW0L88THJOGA&tp_b=3JV9LGBJWU0TSCKFE2VW0L88THJOGA&c=365633&tp_c=365633"},{"rt":null,"stimulus":"<div style=\"font-size:60px;\">Next student</div>","response":null,"trial_type":"html-keyboard-response","trial_index":33,"time_elapsed":3297719,"internal_node_id":"0.0-29.0-0.0","params":{"nStudents":24,"maxFlips":25,"completionMinutes":45,"basePay":8,"maxBonus":9,"perTrialBonus":0.5,"perTrialBonusThreshold":0.05,"exampleCost":0.02},"classroomParams":{"A":{"a":1,"b":4},"B":{"a":4,"b":1},"C":{"a":2,"b":8},"D":{"a":8,"b":2}},"conditions":["nonSeqFull","nonSeqPartial","seqNoFeedback","seqFeedback"],"classroomPairings":[["A","B"],["C","D"]],"coinWeights":[0.2,0.5,0.8],"subjectId":"A1K8VUKRL53OX","assignmentId":"3JV9LGBJWU0TSCKFE2VW0L88THJOGA","hitId":"3IH9TRB0FBLK6RLF7MSMKICTGYN1IU","url":"https://gershmanlab.com/experiments/alicia/teaching/experiment/?hitId=3IH9TRB0FBLK6RLF7MSMKICTGYN1IU&workerId=A1K8VUKRL53OX&assignmentId=3JV9LGBJWU0TSCKFE2VW0L88THJOGA&a=JLVJ3&tp_a=JLVJ3&b=3JV9LGBJWU0TSCKFE2VW0L88THJOGA&tp_b=3JV9LGBJWU0TSCKFE2VW0L88THJOGA&c=365633&tp_c=365633"},{"rt":2166,"stimulus":"\n            <h4 style=\"color:Orange;\">Student 4</h4>\n            <h2>The weight of your coin is <b style=\"color:Tomato;\">0.8</b>.</h2>\n            <p>In this block, you will be giving <b>two</b> sets of examples to Student 4.</p>\n                <p>You will receive feedback at the end of the block.</p>\n            <p></p>","response":0,"trial_type":"html-button-response","trial_index":34,"time_elapsed":3299886,"internal_node_id":"0.0-30.0","params":{"nStudents":24,"maxFlips":25,"completionMinutes":45,"basePay":8,"maxBonus":9,"perTrialBonus":0.5,"perTrialBonusThreshold":0.05,"exampleCost":0.02},"classroomParams":{"A":{"a":1,"b":4},"B":{"a":4,"b":1},"C":{"a":2,"b":8},"D":{"a":8,"b":2}},"conditions":["nonSeqFull","nonSeqPartial","seqNoFeedback","seqFeedback"],"classroomPairings":[["A","B"],["C","D"]],"coinWeights":[0.2,0.5,0.8],"subjectId":"A1K8VUKRL53OX","assignmentId":"3JV9LGBJWU0TSCKFE2VW0L88THJOGA","hitId":"3IH9TRB0FBLK6RLF7MSMKICTGYN1IU","url":"https://gershmanlab.com/experiments/alicia/teaching/experiment/?hitId=3IH9TRB0FBLK6RLF7MSMKICTGYN1IU&workerId=A1K8VUKRL53OX&assignmentId=3JV9LGBJWU0TSCKFE2VW0L88THJOGA&a=JLVJ3&tp_a=JLVJ3&b=3JV9LGBJWU0TSCKFE2VW0L88THJOGA&tp_b=3JV9LGBJWU0TSCKFE2VW0L88THJOGA&c=365633&tp_c=365633"},{"rt":6165,"response":{"heads":"1","tails":"0"},"type":"response","condition":"seqNoFeedback","trueTheta":0.8,"classrooms":["C","D"],"studentTrueClassroom":"D","exampleSet":"first","trial_type":"survey-html-form","trial_index":35,"time_elapsed":3306054,"internal_node_id":"0.0-31.0-0.0","params":{"nStudents":24,"maxFlips":25,"completionMinutes":45,"basePay":8,"maxBonus":9,"perTrialBonus":0.5,"perTrialBonusThreshold":0.05,"exampleCost":0.02},"classroomParams":{"A":{"a":1,"b":4},"B":{"a":4,"b":1},"C":{"a":2,"b":8},"D":{"a":8,"b":2}},"conditions":["nonSeqFull","nonSeqPartial","seqNoFeedback","seqFeedback"],"classroomPairings":[["A","B"],["C","D"]],"coinWeights":[0.2,0.5,0.8],"subjectId":"A1K8VUKRL53OX","assignmentId":"3JV9LGBJWU0TSCKFE2VW0L88THJOGA","hitId":"3IH9TRB0FBLK6RLF7MSMKICTGYN1IU","url":"https://gershmanlab.com/experiments/alicia/teaching/experiment/?hitId=3IH9TRB0FBLK6RLF7MSMKICTGYN1IU&workerId=A1K8VUKRL53OX&assignmentId=3JV9LGBJWU0TSCKFE2VW0L88THJOGA&a=JLVJ3&tp_a=JLVJ3&b=3JV9LGBJWU0TSCKFE2VW0L88THJOGA&tp_b=3JV9LGBJWU0TSCKFE2VW0L88THJOGA&c=365633&tp_c=365633","heads":1,"tails":0,"studentIndex":3,"studentTrueHypers":{"a":8,"b":2},"studentGuess":0.8181818181818182,"delta":0.018181818181818188,"totalExamples":1,"bonusSoFar":0},{"rt":null,"stimulus":"Sending examples to student... ","response":null,"trial_type":"html-keyboard-response","trial_index":36,"time_elapsed":3307562,"internal_node_id":"0.0-32.0","params":{"nStudents":24,"maxFlips":25,"completionMinutes":45,"basePay":8,"maxBonus":9,"perTrialBonus":0.5,"perTrialBonusThreshold":0.05,"exampleCost":0.02},"classroomParams":{"A":{"a":1,"b":4},"B":{"a":4,"b":1},"C":{"a":2,"b":8},"D":{"a":8,"b":2}},"conditions":["nonSeqFull","nonSeqPartial","seqNoFeedback","seqFeedback"],"classroomPairings":[["A","B"],["C","D"]],"coinWeights":[0.2,0.5,0.8],"subjectId":"A1K8VUKRL53OX","assignmentId":"3JV9LGBJWU0TSCKFE2VW0L88THJOGA","hitId":"3IH9TRB0FBLK6RLF7MSMKICTGYN1IU","url":"https://gershmanlab.com/experiments/alicia/teaching/experiment/?hitId=3IH9TRB0FBLK6RLF7MSMKICTGYN1IU&workerId=A1K8VUKRL53OX&assignmentId=3JV9LGBJWU0TSCKFE2VW0L88THJOGA&a=JLVJ3&tp_a=JLVJ3&b=3JV9LGBJWU0TSCKFE2VW0L88THJOGA&tp_b=3JV9LGBJWU0TSCKFE2VW0L88THJOGA&c=365633&tp_c=365633"},{"rt":null,"stimulus":"Examples sent to student! Waiting for student...","response":null,"trial_type":"html-keyboard-response","trial_index":37,"time_elapsed":3312068,"internal_node_id":"0.0-33.0","params":{"nStudents":24,"maxFlips":25,"completionMinutes":45,"basePay":8,"maxBonus":9,"perTrialBonus":0.5,"perTrialBonusThreshold":0.05,"exampleCost":0.02},"classroomParams":{"A":{"a":1,"b":4},"B":{"a":4,"b":1},"C":{"a":2,"b":8},"D":{"a":8,"b":2}},"conditions":["nonSeqFull","nonSeqPartial","seqNoFeedback","seqFeedback"],"classroomPairings":[["A","B"],["C","D"]],"coinWeights":[0.2,0.5,0.8],"subjectId":"A1K8VUKRL53OX","assignmentId":"3JV9LGBJWU0TSCKFE2VW0L88THJOGA","hitId":"3IH9TRB0FBLK6RLF7MSMKICTGYN1IU","url":"https://gershmanlab.com/experiments/alicia/teaching/experiment/?hitId=3IH9TRB0FBLK6RLF7MSMKICTGYN1IU&workerId=A1K8VUKRL53OX&assignmentId=3JV9LGBJWU0TSCKFE2VW0L88THJOGA&a=JLVJ3&tp_a=JLVJ3&b=3JV9LGBJWU0TSCKFE2VW0L88THJOGA&tp_b=3JV9LGBJWU0TSCKFE2VW0L88THJOGA&c=365633&tp_c=365633"},{"rt":4887,"response":{"heads":"0","tails":"0"},"type":"response","condition":"seqNoFeedback","trueTheta":0.8,"classrooms":["C","D"],"studentTrueClassroom":"D","exampleSet":"second","trial_type":"survey-html-form","trial_index":38,"time_elapsed":3316958,"internal_node_id":"0.0-34.0-0.0","params":{"nStudents":24,"maxFlips":25,"completionMinutes":45,"basePay":8,"maxBonus":9,"perTrialBonus":0.5,"perTrialBonusThreshold":0.05,"exampleCost":0.02},"classroomParams":{"A":{"a":1,"b":4},"B":{"a":4,"b":1},"C":{"a":2,"b":8},"D":{"a":8,"b":2}},"conditions":["nonSeqFull","nonSeqPartial","seqNoFeedback","seqFeedback"],"classroomPairings":[["A","B"],["C","D"]],"coinWeights":[0.2,0.5,0.8],"subjectId":"A1K8VUKRL53OX","assignmentId":"3JV9LGBJWU0TSCKFE2VW0L88THJOGA","hitId":"3IH9TRB0FBLK6RLF7MSMKICTGYN1IU","url":"https://gershmanlab.com/experiments/alicia/teaching/experiment/?hitId=3IH9TRB0FBLK6RLF7MSMKICTGYN1IU&workerId=A1K8VUKRL53OX&assignmentId=3JV9LGBJWU0TSCKFE2VW0L88THJOGA&a=JLVJ3&tp_a=JLVJ3&b=3JV9LGBJWU0TSCKFE2VW0L88THJOGA&tp_b=3JV9LGBJWU0TSCKFE2VW0L88THJOGA&c=365633&tp_c=365633","firstResponseHeads":1,"firstResponseTails":0,"secondResponseHeads":0,"secondResponseTails":0,"totalHeads":1,"totalTails":0,"studentIndex":3,"studentTrueHypers":{"a":8,"b":2},"studentGuess":0.8181818181818182,"delta":0.018181818181818188,"bonus":0.48,"bonusSoFar":0.48,"totalExamples":1},{"rt":5724,"response":{"heads":"0","tails":"0"},"type":"response","condition":"seqNoFeedback","trueTheta":0.8,"classrooms":["C","D"],"studentTrueClassroom":"D","exampleSet":"second","trial_type":"survey-html-form","trial_index":39,"time_elapsed":3322684,"internal_node_id":"0.0-34.1-0.1","params":{"nStudents":24,"maxFlips":25,"completionMinutes":45,"basePay":8,"maxBonus":9,"perTrialBonus":0.5,"perTrialBonusThreshold":0.05,"exampleCost":0.02},"classroomParams":{"A":{"a":1,"b":4},"B":{"a":4,"b":1},"C":{"a":2,"b":8},"D":{"a":8,"b":2}},"conditions":["nonSeqFull","nonSeqPartial","seqNoFeedback","seqFeedback"],"classroomPairings":[["A","B"],["C","D"]],"coinWeights":[0.2,0.5,0.8],"subjectId":"A1K8VUKRL53OX","assignmentId":"3JV9LGBJWU0TSCKFE2VW0L88THJOGA","hitId":"3IH9TRB0FBLK6RLF7MSMKICTGYN1IU","url":"https://gershmanlab.com/experiments/alicia/teaching/experiment/?hitId=3IH9TRB0FBLK6RLF7MSMKICTGYN1IU&workerId=A1K8VUKRL53OX&assignmentId=3JV9LGBJWU0TSCKFE2VW0L88THJOGA&a=JLVJ3&tp_a=JLVJ3&b=3JV9LGBJWU0TSCKFE2VW0L88THJOGA&tp_b=3JV9LGBJWU0TSCKFE2VW0L88THJOGA&c=365633&tp_c=365633","firstResponseHeads":1,"firstResponseTails":0,"secondResponseHeads":0,"secondResponseTails":0,"totalHeads":1,"totalTails":0,"studentIndex":3,"studentTrueHypers":{"a":8,"b":2},"studentGuess":0.8181818181818182,"delta":0.018181818181818188,"bonus":0.48,"bonusSoFar":0.96,"totalExamples":1},{"rt":7409,"response":{"heads":"1","tails":"1"},"type":"response","condition":"seqNoFeedback","trueTheta":0.8,"classrooms":["C","D"],"studentTrueClassroom":"D","exampleSet":"second","trial_type":"survey-html-form","trial_index":40,"time_elapsed":3330094,"internal_node_id":"0.0-34.2-0.2","params":{"nStudents":24,"maxFlips":25,"completionMinutes":45,"basePay":8,"maxBonus":9,"perTrialBonus":0.5,"perTrialBonusThreshold":0.05,"exampleCost":0.02},"classroomParams":{"A":{"a":1,"b":4},"B":{"a":4,"b":1},"C":{"a":2,"b":8},"D":{"a":8,"b":2}},"conditions":["nonSeqFull","nonSeqPartial","seqNoFeedback","seqFeedback"],"classroomPairings":[["A","B"],["C","D"]],"coinWeights":[0.2,0.5,0.8],"subjectId":"A1K8VUKRL53OX","assignmentId":"3JV9LGBJWU0TSCKFE2VW0L88THJOGA","hitId":"3IH9TRB0FBLK6RLF7MSMKICTGYN1IU","url":"https://gershmanlab.com/experiments/alicia/teaching/experiment/?hitId=3IH9TRB0FBLK6RLF7MSMKICTGYN1IU&workerId=A1K8VUKRL53OX&assignmentId=3JV9LGBJWU0TSCKFE2VW0L88THJOGA&a=JLVJ3&tp_a=JLVJ3&b=3JV9LGBJWU0TSCKFE2VW0L88THJOGA&tp_b=3JV9LGBJWU0TSCKFE2VW0L88THJOGA&c=365633&tp_c=365633","firstResponseHeads":1,"firstResponseTails":0,"secondResponseHeads":1,"secondResponseTails":1,"totalHeads":2,"totalTails":1,"studentIndex":3,"studentTrueHypers":{"a":8,"b":2},"studentGuess":0.7692307692307693,"delta":0.03076923076923077,"bonus":0.44,"bonusSoFar":1.4,"totalExamples":3},{"rt":null,"stimulus":"Sending examples to student... ","response":null,"trial_type":"html-keyboard-response","trial_index":41,"time_elapsed":3332097,"internal_node_id":"0.0-35.0","params":{"nStudents":24,"maxFlips":25,"completionMinutes":45,"basePay":8,"maxBonus":9,"perTrialBonus":0.5,"perTrialBonusThreshold":0.05,"exampleCost":0.02},"classroomParams":{"A":{"a":1,"b":4},"B":{"a":4,"b":1},"C":{"a":2,"b":8},"D":{"a":8,"b":2}},"conditions":["nonSeqFull","nonSeqPartial","seqNoFeedback","seqFeedback"],"classroomPairings":[["A","B"],["C","D"]],"coinWeights":[0.2,0.5,0.8],"subjectId":"A1K8VUKRL53OX","assignmentId":"3JV9LGBJWU0TSCKFE2VW0L88THJOGA","hitId":"3IH9TRB0FBLK6RLF7MSMKICTGYN1IU","url":"https://gershmanlab.com/experiments/alicia/teaching/experiment/?hitId=3IH9TRB0FBLK6RLF7MSMKICTGYN1IU&workerId=A1K8VUKRL53OX&assignmentId=3JV9LGBJWU0TSCKFE2VW0L88THJOGA&a=JLVJ3&tp_a=JLVJ3&b=3JV9LGBJWU0TSCKFE2VW0L88THJOGA&tp_b=3JV9LGBJWU0TSCKFE2VW0L88THJOGA&c=365633&tp_c=365633"},{"rt":null,"stimulus":"Examples sent to student! Waiting for student...","response":null,"trial_type":"html-keyboard-response","trial_index":42,"time_elapsed":3337101,"internal_node_id":"0.0-36.0","params":{"nStudents":24,"maxFlips":25,"completionMinutes":45,"basePay":8,"maxBonus":9,"perTrialBonus":0.5,"perTrialBonusThreshold":0.05,"exampleCost":0.02},"classroomParams":{"A":{"a":1,"b":4},"B":{"a":4,"b":1},"C":{"a":2,"b":8},"D":{"a":8,"b":2}},"conditions":["nonSeqFull","nonSeqPartial","seqNoFeedback","seqFeedback"],"classroomPairings":[["A","B"],["C","D"]],"coinWeights":[0.2,0.5,0.8],"subjectId":"A1K8VUKRL53OX","assignmentId":"3JV9LGBJWU0TSCKFE2VW0L88THJOGA","hitId":"3IH9TRB0FBLK6RLF7MSMKICTGYN1IU","url":"https://gershmanlab.com/experiments/alicia/teaching/experiment/?hitId=3IH9TRB0FBLK6RLF7MSMKICTGYN1IU&workerId=A1K8VUKRL53OX&assignmentId=3JV9LGBJWU0TSCKFE2VW0L88THJOGA&a=JLVJ3&tp_a=JLVJ3&b=3JV9LGBJWU0TSCKFE2VW0L88THJOGA&tp_b=3JV9LGBJWU0TSCKFE2VW0L88THJOGA&c=365633&tp_c=365633"},{"rt":10193,"stimulus":"\n                <p>Student 4's first guess for coin weight: <b style=\"color:Tomato\";>0.82</b></p>\n                <p>Student 4's second guess for coin weight: <b style=\"color:Tomato\";>0.82</b></p>\n                <p>You received a bonus of <b>$0.48</b> based on the student's second guess.</p>\n                <p>Total bonus so far: <b>$1.40</b></p>\n                <p>Press any key to continue.</p>\n                ","response":"b","trial_type":"html-keyboard-response","trial_index":43,"time_elapsed":3347295,"internal_node_id":"0.0-37.0","params":{"nStudents":24,"maxFlips":25,"completionMinutes":45,"basePay":8,"maxBonus":9,"perTrialBonus":0.5,"perTrialBonusThreshold":0.05,"exampleCost":0.02},"classroomParams":{"A":{"a":1,"b":4},"B":{"a":4,"b":1},"C":{"a":2,"b":8},"D":{"a":8,"b":2}},"conditions":["nonSeqFull","nonSeqPartial","seqNoFeedback","seqFeedback"],"classroomPairings":[["A","B"],["C","D"]],"coinWeights":[0.2,0.5,0.8],"subjectId":"A1K8VUKRL53OX","assignmentId":"3JV9LGBJWU0TSCKFE2VW0L88THJOGA","hitId":"3IH9TRB0FBLK6RLF7MSMKICTGYN1IU","url":"https://gershmanlab.com/experiments/alicia/teaching/experiment/?hitId=3IH9TRB0FBLK6RLF7MSMKICTGYN1IU&workerId=A1K8VUKRL53OX&assignmentId=3JV9LGBJWU0TSCKFE2VW0L88THJOGA&a=JLVJ3&tp_a=JLVJ3&b=3JV9LGBJWU0TSCKFE2VW0L88THJOGA&tp_b=3JV9LGBJWU0TSCKFE2VW0L88THJOGA&c=365633&tp_c=365633"},{"rt":null,"stimulus":"<div style=\"font-size:60px;\">Next student</div>","response":null,"trial_type":"html-keyboard-response","trial_index":44,"time_elapsed":3349550,"internal_node_id":"0.0-38.0-0.0","params":{"nStudents":24,"maxFlips":25,"completionMinutes":45,"basePay":8,"maxBonus":9,"perTrialBonus":0.5,"perTrialBonusThreshold":0.05,"exampleCost":0.02},"classroomParams":{"A":{"a":1,"b":4},"B":{"a":4,"b":1},"C":{"a":2,"b":8},"D":{"a":8,"b":2}},"conditions":["nonSeqFull","nonSeqPartial","seqNoFeedback","seqFeedback"],"classroomPairings":[["A","B"],["C","D"]],"coinWeights":[0.2,0.5,0.8],"subjectId":"A1K8VUKRL53OX","assignmentId":"3JV9LGBJWU0TSCKFE2VW0L88THJOGA","hitId":"3IH9TRB0FBLK6RLF7MSMKICTGYN1IU","url":"https://gershmanlab.com/experiments/alicia/teaching/experiment/?hitId=3IH9TRB0FBLK6RLF7MSMKICTGYN1IU&workerId=A1K8VUKRL53OX&assignmentId=3JV9LGBJWU0TSCKFE2VW0L88THJOGA&a=JLVJ3&tp_a=JLVJ3&b=3JV9LGBJWU0TSCKFE2VW0L88THJOGA&tp_b=3JV9LGBJWU0TSCKFE2VW0L88THJOGA&c=365633&tp_c=365633"},{"rt":1316,"stimulus":"\n            <h4 style=\"color:Orange;\">Student 5</h4>\n            <h2>The weight of your coin is <b style=\"color:Tomato;\">0.8</b>.</h2>\n            <p>In this block, you will be giving <b>one</b> set of examples to Student 5.</p>\n                <p>You will receive feedback at the end of the block.</p>\n            <p></p>","response":0,"trial_type":"html-button-response","trial_index":45,"time_elapsed":3350868,"internal_node_id":"0.0-39.0","params":{"nStudents":24,"maxFlips":25,"completionMinutes":45,"basePay":8,"maxBonus":9,"perTrialBonus":0.5,"perTrialBonusThreshold":0.05,"exampleCost":0.02},"classroomParams":{"A":{"a":1,"b":4},"B":{"a":4,"b":1},"C":{"a":2,"b":8},"D":{"a":8,"b":2}},"conditions":["nonSeqFull","nonSeqPartial","seqNoFeedback","seqFeedback"],"classroomPairings":[["A","B"],["C","D"]],"coinWeights":[0.2,0.5,0.8],"subjectId":"A1K8VUKRL53OX","assignmentId":"3JV9LGBJWU0TSCKFE2VW0L88THJOGA","hitId":"3IH9TRB0FBLK6RLF7MSMKICTGYN1IU","url":"https://gershmanlab.com/experiments/alicia/teaching/experiment/?hitId=3IH9TRB0FBLK6RLF7MSMKICTGYN1IU&workerId=A1K8VUKRL53OX&assignmentId=3JV9LGBJWU0TSCKFE2VW0L88THJOGA&a=JLVJ3&tp_a=JLVJ3&b=3JV9LGBJWU0TSCKFE2VW0L88THJOGA&tp_b=3JV9LGBJWU0TSCKFE2VW0L88THJOGA&c=365633&tp_c=365633"},{"rt":4030,"response":{"heads":"1","tails":"1"},"type":"response","condition":"nonSeqPartial","trueTheta":0.8,"classrooms":["A","B"],"studentTrueClassroom":"A","exampleSet":"first","trial_type":"survey-html-form","trial_index":46,"time_elapsed":3354900,"internal_node_id":"0.0-40.0-0.0","params":{"nStudents":24,"maxFlips":25,"completionMinutes":45,"basePay":8,"maxBonus":9,"perTrialBonus":0.5,"perTrialBonusThreshold":0.05,"exampleCost":0.02},"classroomParams":{"A":{"a":1,"b":4},"B":{"a":4,"b":1},"C":{"a":2,"b":8},"D":{"a":8,"b":2}},"conditions":["nonSeqFull","nonSeqPartial","seqNoFeedback","seqFeedback"],"classroomPairings":[["A","B"],["C","D"]],"coinWeights":[0.2,0.5,0.8],"subjectId":"A1K8VUKRL53OX","assignmentId":"3JV9LGBJWU0TSCKFE2VW0L88THJOGA","hitId":"3IH9TRB0FBLK6RLF7MSMKICTGYN1IU","url":"https://gershmanlab.com/experiments/alicia/teaching/experiment/?hitId=3IH9TRB0FBLK6RLF7MSMKICTGYN1IU&workerId=A1K8VUKRL53OX&assignmentId=3JV9LGBJWU0TSCKFE2VW0L88THJOGA&a=JLVJ3&tp_a=JLVJ3&b=3JV9LGBJWU0TSCKFE2VW0L88THJOGA&tp_b=3JV9LGBJWU0TSCKFE2VW0L88THJOGA&c=365633&tp_c=365633","heads":1,"tails":1,"studentIndex":4,"studentTrueHypers":{"a":1,"b":4},"studentGuess":0.2857142857142857,"delta":0.5142857142857143,"totalExamples":2,"bonus":0,"bonusSoFar":1.4},{"rt":null,"stimulus":"Sending examples to student... ","response":null,"trial_type":"html-keyboard-response","trial_index":47,"time_elapsed":3356905,"internal_node_id":"0.0-41.0","params":{"nStudents":24,"maxFlips":25,"completionMinutes":45,"basePay":8,"maxBonus":9,"perTrialBonus":0.5,"perTrialBonusThreshold":0.05,"exampleCost":0.02},"classroomParams":{"A":{"a":1,"b":4},"B":{"a":4,"b":1},"C":{"a":2,"b":8},"D":{"a":8,"b":2}},"conditions":["nonSeqFull","nonSeqPartial","seqNoFeedback","seqFeedback"],"classroomPairings":[["A","B"],["C","D"]],"coinWeights":[0.2,0.5,0.8],"subjectId":"A1K8VUKRL53OX","assignmentId":"3JV9LGBJWU0TSCKFE2VW0L88THJOGA","hitId":"3IH9TRB0FBLK6RLF7MSMKICTGYN1IU","url":"https://gershmanlab.com/experiments/alicia/teaching/experiment/?hitId=3IH9TRB0FBLK6RLF7MSMKICTGYN1IU&workerId=A1K8VUKRL53OX&assignmentId=3JV9LGBJWU0TSCKFE2VW0L88THJOGA&a=JLVJ3&tp_a=JLVJ3&b=3JV9LGBJWU0TSCKFE2VW0L88THJOGA&tp_b=3JV9LGBJWU0TSCKFE2VW0L88THJOGA&c=365633&tp_c=365633"},{"rt":null,"stimulus":"Examples sent to student! Waiting for student...","response":null,"trial_type":"html-keyboard-response","trial_index":48,"time_elapsed":3362411,"internal_node_id":"0.0-42.0","params":{"nStudents":24,"maxFlips":25,"completionMinutes":45,"basePay":8,"maxBonus":9,"perTrialBonus":0.5,"perTrialBonusThreshold":0.05,"exampleCost":0.02},"classroomParams":{"A":{"a":1,"b":4},"B":{"a":4,"b":1},"C":{"a":2,"b":8},"D":{"a":8,"b":2}},"conditions":["nonSeqFull","nonSeqPartial","seqNoFeedback","seqFeedback"],"classroomPairings":[["A","B"],["C","D"]],"coinWeights":[0.2,0.5,0.8],"subjectId":"A1K8VUKRL53OX","assignmentId":"3JV9LGBJWU0TSCKFE2VW0L88THJOGA","hitId":"3IH9TRB0FBLK6RLF7MSMKICTGYN1IU","url":"https://gershmanlab.com/experiments/alicia/teaching/experiment/?hitId=3IH9TRB0FBLK6RLF7MSMKICTGYN1IU&workerId=A1K8VUKRL53OX&assignmentId=3JV9LGBJWU0TSCKFE2VW0L88THJOGA&a=JLVJ3&tp_a=JLVJ3&b=3JV9LGBJWU0TSCKFE2VW0L88THJOGA&tp_b=3JV9LGBJWU0TSCKFE2VW0L88THJOGA&c=365633&tp_c=365633"},{"rt":6403,"stimulus":"\n                <p>Student's guess for coin weight: <b style=\"color:Tomato;\">0.29</b></p>\n                <p>You received a bonus of <b>$0</b>. Total bonus so far: <b>$1.40</b></b></p>\n                <p></p>\n                <p>Press any key to continue.</p>\n                ","response":"b","trial_type":"html-keyboard-response","trial_index":49,"time_elapsed":3368815,"internal_node_id":"0.0-43.0","params":{"nStudents":24,"maxFlips":25,"completionMinutes":45,"basePay":8,"maxBonus":9,"perTrialBonus":0.5,"perTrialBonusThreshold":0.05,"exampleCost":0.02},"classroomParams":{"A":{"a":1,"b":4},"B":{"a":4,"b":1},"C":{"a":2,"b":8},"D":{"a":8,"b":2}},"conditions":["nonSeqFull","nonSeqPartial","seqNoFeedback","seqFeedback"],"classroomPairings":[["A","B"],["C","D"]],"coinWeights":[0.2,0.5,0.8],"subjectId":"A1K8VUKRL53OX","assignmentId":"3JV9LGBJWU0TSCKFE2VW0L88THJOGA","hitId":"3IH9TRB0FBLK6RLF7MSMKICTGYN1IU","url":"https://gershmanlab.com/experiments/alicia/teaching/experiment/?hitId=3IH9TRB0FBLK6RLF7MSMKICTGYN1IU&workerId=A1K8VUKRL53OX&assignmentId=3JV9LGBJWU0TSCKFE2VW0L88THJOGA&a=JLVJ3&tp_a=JLVJ3&b=3JV9LGBJWU0TSCKFE2VW0L88THJOGA&tp_b=3JV9LGBJWU0TSCKFE2VW0L88THJOGA&c=365633&tp_c=365633"},{"rt":null,"stimulus":"<div style=\"font-size:60px;\">Next student</div>","response":null,"trial_type":"html-keyboard-response","trial_index":50,"time_elapsed":3371070,"internal_node_id":"0.0-44.0-0.0","params":{"nStudents":24,"maxFlips":25,"completionMinutes":45,"basePay":8,"maxBonus":9,"perTrialBonus":0.5,"perTrialBonusThreshold":0.05,"exampleCost":0.02},"classroomParams":{"A":{"a":1,"b":4},"B":{"a":4,"b":1},"C":{"a":2,"b":8},"D":{"a":8,"b":2}},"conditions":["nonSeqFull","nonSeqPartial","seqNoFeedback","seqFeedback"],"classroomPairings":[["A","B"],["C","D"]],"coinWeights":[0.2,0.5,0.8],"subjectId":"A1K8VUKRL53OX","assignmentId":"3JV9LGBJWU0TSCKFE2VW0L88THJOGA","hitId":"3IH9TRB0FBLK6RLF7MSMKICTGYN1IU","url":"https://gershmanlab.com/experiments/alicia/teaching/experiment/?hitId=3IH9TRB0FBLK6RLF7MSMKICTGYN1IU&workerId=A1K8VUKRL53OX&assignmentId=3JV9LGBJWU0TSCKFE2VW0L88THJOGA&a=JLVJ3&tp_a=JLVJ3&b=3JV9LGBJWU0TSCKFE2VW0L88THJOGA&tp_b=3JV9LGBJWU0TSCKFE2VW0L88THJOGA&c=365633&tp_c=365633"},{"rt":1292,"stimulus":"\n            <h4 style=\"color:Orange;\">Student 6</h4>\n            <h2>The weight of your coin is <b style=\"color:Tomato;\">0.2</b>.</h2>\n            <p>In this block, you will be giving <b>two</b> sets of examples to Student 6.</p>\n                <p>You will see the student's guess after the first set of examples. You will also receive feedback at the end of the block.</p>\n            <p>To earn the highest bonus, you will have to <b>take into consideration the student's guess</b> when you choose your second set of examples.</p>","response":0,"trial_type":"html-button-response","trial_index":51,"time_elapsed":3372364,"internal_node_id":"0.0-45.0","params":{"nStudents":24,"maxFlips":25,"completionMinutes":45,"basePay":8,"maxBonus":9,"perTrialBonus":0.5,"perTrialBonusThreshold":0.05,"exampleCost":0.02},"classroomParams":{"A":{"a":1,"b":4},"B":{"a":4,"b":1},"C":{"a":2,"b":8},"D":{"a":8,"b":2}},"conditions":["nonSeqFull","nonSeqPartial","seqNoFeedback","seqFeedback"],"classroomPairings":[["A","B"],["C","D"]],"coinWeights":[0.2,0.5,0.8],"subjectId":"A1K8VUKRL53OX","assignmentId":"3JV9LGBJWU0TSCKFE2VW0L88THJOGA","hitId":"3IH9TRB0FBLK6RLF7MSMKICTGYN1IU","url":"https://gershmanlab.com/experiments/alicia/teaching/experiment/?hitId=3IH9TRB0FBLK6RLF7MSMKICTGYN1IU&workerId=A1K8VUKRL53OX&assignmentId=3JV9LGBJWU0TSCKFE2VW0L88THJOGA&a=JLVJ3&tp_a=JLVJ3&b=3JV9LGBJWU0TSCKFE2VW0L88THJOGA&tp_b=3JV9LGBJWU0TSCKFE2VW0L88THJOGA&c=365633&tp_c=365633"},{"rt":4926,"response":{"heads":"1","tails":"0"},"type":"response","condition":"seqFeedback","trueTheta":0.2,"classrooms":["A","B"],"studentTrueClassroom":"A","exampleSet":"first","trial_type":"survey-html-form","trial_index":52,"time_elapsed":3377291,"internal_node_id":"0.0-46.0-0.0","params":{"nStudents":24,"maxFlips":25,"completionMinutes":45,"basePay":8,"maxBonus":9,"perTrialBonus":0.5,"perTrialBonusThreshold":0.05,"exampleCost":0.02},"classroomParams":{"A":{"a":1,"b":4},"B":{"a":4,"b":1},"C":{"a":2,"b":8},"D":{"a":8,"b":2}},"conditions":["nonSeqFull","nonSeqPartial","seqNoFeedback","seqFeedback"],"classroomPairings":[["A","B"],["C","D"]],"coinWeights":[0.2,0.5,0.8],"subjectId":"A1K8VUKRL53OX","assignmentId":"3JV9LGBJWU0TSCKFE2VW0L88THJOGA","hitId":"3IH9TRB0FBLK6RLF7MSMKICTGYN1IU","url":"https://gershmanlab.com/experiments/alicia/teaching/experiment/?hitId=3IH9TRB0FBLK6RLF7MSMKICTGYN1IU&workerId=A1K8VUKRL53OX&assignmentId=3JV9LGBJWU0TSCKFE2VW0L88THJOGA&a=JLVJ3&tp_a=JLVJ3&b=3JV9LGBJWU0TSCKFE2VW0L88THJOGA&tp_b=3JV9LGBJWU0TSCKFE2VW0L88THJOGA&c=365633&tp_c=365633","heads":1,"tails":0,"studentIndex":5,"studentTrueHypers":{"a":1,"b":4},"studentGuess":0.3333333333333333,"delta":0.1333333333333333,"totalExamples":1,"bonusSoFar":1.4},{"rt":null,"stimulus":"Sending examples to student... ","response":null,"trial_type":"html-keyboard-response","trial_index":53,"time_elapsed":3378556,"internal_node_id":"0.0-47.0","params":{"nStudents":24,"maxFlips":25,"completionMinutes":45,"basePay":8,"maxBonus":9,"perTrialBonus":0.5,"perTrialBonusThreshold":0.05,"exampleCost":0.02},"classroomParams":{"A":{"a":1,"b":4},"B":{"a":4,"b":1},"C":{"a":2,"b":8},"D":{"a":8,"b":2}},"conditions":["nonSeqFull","nonSeqPartial","seqNoFeedback","seqFeedback"],"classroomPairings":[["A","B"],["C","D"]],"coinWeights":[0.2,0.5,0.8],"subjectId":"A1K8VUKRL53OX","assignmentId":"3JV9LGBJWU0TSCKFE2VW0L88THJOGA","hitId":"3IH9TRB0FBLK6RLF7MSMKICTGYN1IU","url":"https://gershmanlab.com/experiments/alicia/teaching/experiment/?hitId=3IH9TRB0FBLK6RLF7MSMKICTGYN1IU&workerId=A1K8VUKRL53OX&assignmentId=3JV9LGBJWU0TSCKFE2VW0L88THJOGA&a=JLVJ3&tp_a=JLVJ3&b=3JV9LGBJWU0TSCKFE2VW0L88THJOGA&tp_b=3JV9LGBJWU0TSCKFE2VW0L88THJOGA&c=365633&tp_c=365633"},{"rt":null,"stimulus":"Examples sent to student! Waiting for student...","response":null,"trial_type":"html-keyboard-response","trial_index":54,"time_elapsed":3384063,"internal_node_id":"0.0-48.0","params":{"nStudents":24,"maxFlips":25,"completionMinutes":45,"basePay":8,"maxBonus":9,"perTrialBonus":0.5,"perTrialBonusThreshold":0.05,"exampleCost":0.02},"classroomParams":{"A":{"a":1,"b":4},"B":{"a":4,"b":1},"C":{"a":2,"b":8},"D":{"a":8,"b":2}},"conditions":["nonSeqFull","nonSeqPartial","seqNoFeedback","seqFeedback"],"classroomPairings":[["A","B"],["C","D"]],"coinWeights":[0.2,0.5,0.8],"subjectId":"A1K8VUKRL53OX","assignmentId":"3JV9LGBJWU0TSCKFE2VW0L88THJOGA","hitId":"3IH9TRB0FBLK6RLF7MSMKICTGYN1IU","url":"https://gershmanlab.com/experiments/alicia/teaching/experiment/?hitId=3IH9TRB0FBLK6RLF7MSMKICTGYN1IU&workerId=A1K8VUKRL53OX&assignmentId=3JV9LGBJWU0TSCKFE2VW0L88THJOGA&a=JLVJ3&tp_a=JLVJ3&b=3JV9LGBJWU0TSCKFE2VW0L88THJOGA&tp_b=3JV9LGBJWU0TSCKFE2VW0L88THJOGA&c=365633&tp_c=365633"},{"rt":5704,"stimulus":"\n                <p>Student's guess for coin weight: <b style=\"color:Tomato;\">0.33</b></p>\n                <p></b></p>\n                <p>You will now send another set of examples to your student. <b>Remember to take your student's guess into consideration so that you can earn the highest bonus possible!</b> </p>\n                <p>Press any key to continue.</p>\n                ","response":"v","trial_type":"html-keyboard-response","trial_index":55,"time_elapsed":3389769,"internal_node_id":"0.0-49.0","params":{"nStudents":24,"maxFlips":25,"completionMinutes":45,"basePay":8,"maxBonus":9,"perTrialBonus":0.5,"perTrialBonusThreshold":0.05,"exampleCost":0.02},"classroomParams":{"A":{"a":1,"b":4},"B":{"a":4,"b":1},"C":{"a":2,"b":8},"D":{"a":8,"b":2}},"conditions":["nonSeqFull","nonSeqPartial","seqNoFeedback","seqFeedback"],"classroomPairings":[["A","B"],["C","D"]],"coinWeights":[0.2,0.5,0.8],"subjectId":"A1K8VUKRL53OX","assignmentId":"3JV9LGBJWU0TSCKFE2VW0L88THJOGA","hitId":"3IH9TRB0FBLK6RLF7MSMKICTGYN1IU","url":"https://gershmanlab.com/experiments/alicia/teaching/experiment/?hitId=3IH9TRB0FBLK6RLF7MSMKICTGYN1IU&workerId=A1K8VUKRL53OX&assignmentId=3JV9LGBJWU0TSCKFE2VW0L88THJOGA&a=JLVJ3&tp_a=JLVJ3&b=3JV9LGBJWU0TSCKFE2VW0L88THJOGA&tp_b=3JV9LGBJWU0TSCKFE2VW0L88THJOGA&c=365633&tp_c=365633"},{"rt":5897,"response":{"heads":"1","tails":"1"},"type":"response","condition":"seqFeedback","trueTheta":0.2,"classrooms":["A","B"],"studentTrueClassroom":"A","exampleSet":"second","trial_type":"survey-html-form","trial_index":56,"time_elapsed":3395668,"internal_node_id":"0.0-50.0-0.0","params":{"nStudents":24,"maxFlips":25,"completionMinutes":45,"basePay":8,"maxBonus":9,"perTrialBonus":0.5,"perTrialBonusThreshold":0.05,"exampleCost":0.02},"classroomParams":{"A":{"a":1,"b":4},"B":{"a":4,"b":1},"C":{"a":2,"b":8},"D":{"a":8,"b":2}},"conditions":["nonSeqFull","nonSeqPartial","seqNoFeedback","seqFeedback"],"classroomPairings":[["A","B"],["C","D"]],"coinWeights":[0.2,0.5,0.8],"subjectId":"A1K8VUKRL53OX","assignmentId":"3JV9LGBJWU0TSCKFE2VW0L88THJOGA","hitId":"3IH9TRB0FBLK6RLF7MSMKICTGYN1IU","url":"https://gershmanlab.com/experiments/alicia/teaching/experiment/?hitId=3IH9TRB0FBLK6RLF7MSMKICTGYN1IU&workerId=A1K8VUKRL53OX&assignmentId=3JV9LGBJWU0TSCKFE2VW0L88THJOGA&a=JLVJ3&tp_a=JLVJ3&b=3JV9LGBJWU0TSCKFE2VW0L88THJOGA&tp_b=3JV9LGBJWU0TSCKFE2VW0L88THJOGA&c=365633&tp_c=365633","firstResponseHeads":1,"firstResponseTails":0,"secondResponseHeads":1,"secondResponseTails":1,"totalHeads":2,"totalTails":1,"studentIndex":5,"studentTrueHypers":{"a":1,"b":4},"studentGuess":0.375,"delta":0.175,"bonus":0,"bonusSoFar":1.4,"totalExamples":3},{"rt":null,"stimulus":"Sending examples to student... ","response":null,"trial_type":"html-keyboard-response","trial_index":57,"time_elapsed":3396924,"internal_node_id":"0.0-51.0","params":{"nStudents":24,"maxFlips":25,"completionMinutes":45,"basePay":8,"maxBonus":9,"perTrialBonus":0.5,"perTrialBonusThreshold":0.05,"exampleCost":0.02},"classroomParams":{"A":{"a":1,"b":4},"B":{"a":4,"b":1},"C":{"a":2,"b":8},"D":{"a":8,"b":2}},"conditions":["nonSeqFull","nonSeqPartial","seqNoFeedback","seqFeedback"],"classroomPairings":[["A","B"],["C","D"]],"coinWeights":[0.2,0.5,0.8],"subjectId":"A1K8VUKRL53OX","assignmentId":"3JV9LGBJWU0TSCKFE2VW0L88THJOGA","hitId":"3IH9TRB0FBLK6RLF7MSMKICTGYN1IU","url":"https://gershmanlab.com/experiments/alicia/teaching/experiment/?hitId=3IH9TRB0FBLK6RLF7MSMKICTGYN1IU&workerId=A1K8VUKRL53OX&assignmentId=3JV9LGBJWU0TSCKFE2VW0L88THJOGA&a=JLVJ3&tp_a=JLVJ3&b=3JV9LGBJWU0TSCKFE2VW0L88THJOGA&tp_b=3JV9LGBJWU0TSCKFE2VW0L88THJOGA&c=365633&tp_c=365633"},{"rt":null,"stimulus":"Examples sent to student! Waiting for student...","response":null,"trial_type":"html-keyboard-response","trial_index":58,"time_elapsed":3402430,"internal_node_id":"0.0-52.0","params":{"nStudents":24,"maxFlips":25,"completionMinutes":45,"basePay":8,"maxBonus":9,"perTrialBonus":0.5,"perTrialBonusThreshold":0.05,"exampleCost":0.02},"classroomParams":{"A":{"a":1,"b":4},"B":{"a":4,"b":1},"C":{"a":2,"b":8},"D":{"a":8,"b":2}},"conditions":["nonSeqFull","nonSeqPartial","seqNoFeedback","seqFeedback"],"classroomPairings":[["A","B"],["C","D"]],"coinWeights":[0.2,0.5,0.8],"subjectId":"A1K8VUKRL53OX","assignmentId":"3JV9LGBJWU0TSCKFE2VW0L88THJOGA","hitId":"3IH9TRB0FBLK6RLF7MSMKICTGYN1IU","url":"https://gershmanlab.com/experiments/alicia/teaching/experiment/?hitId=3IH9TRB0FBLK6RLF7MSMKICTGYN1IU&workerId=A1K8VUKRL53OX&assignmentId=3JV9LGBJWU0TSCKFE2VW0L88THJOGA&a=JLVJ3&tp_a=JLVJ3&b=3JV9LGBJWU0TSCKFE2VW0L88THJOGA&tp_b=3JV9LGBJWU0TSCKFE2VW0L88THJOGA&c=365633&tp_c=365633"},{"rt":2765,"stimulus":"\n                <p>Student 6's first guess for coin weight: <b style=\"color:Tomato\";>0.33</b></p>\n                <p>Student 6's second guess for coin weight: <b style=\"color:Tomato\";>0.38</b></p>\n                <p>You received a bonus of <b>$0.00</b> based on the student's second guess.</p>\n                <p>Total bonus so far: <b>$1.40</b></p>\n                <p>Press any key to continue.</p>\n                ","response":"v","trial_type":"html-keyboard-response","trial_index":59,"time_elapsed":3405197,"internal_node_id":"0.0-53.0","params":{"nStudents":24,"maxFlips":25,"completionMinutes":45,"basePay":8,"maxBonus":9,"perTrialBonus":0.5,"perTrialBonusThreshold":0.05,"exampleCost":0.02},"classroomParams":{"A":{"a":1,"b":4},"B":{"a":4,"b":1},"C":{"a":2,"b":8},"D":{"a":8,"b":2}},"conditions":["nonSeqFull","nonSeqPartial","seqNoFeedback","seqFeedback"],"classroomPairings":[["A","B"],["C","D"]],"coinWeights":[0.2,0.5,0.8],"subjectId":"A1K8VUKRL53OX","assignmentId":"3JV9LGBJWU0TSCKFE2VW0L88THJOGA","hitId":"3IH9TRB0FBLK6RLF7MSMKICTGYN1IU","url":"https://gershmanlab.com/experiments/alicia/teaching/experiment/?hitId=3IH9TRB0FBLK6RLF7MSMKICTGYN1IU&workerId=A1K8VUKRL53OX&assignmentId=3JV9LGBJWU0TSCKFE2VW0L88THJOGA&a=JLVJ3&tp_a=JLVJ3&b=3JV9LGBJWU0TSCKFE2VW0L88THJOGA&tp_b=3JV9LGBJWU0TSCKFE2VW0L88THJOGA&c=365633&tp_c=365633"},{"rt":null,"stimulus":"<div style=\"font-size:60px;\">Next student</div>","response":null,"trial_type":"html-keyboard-response","trial_index":60,"time_elapsed":3408206,"internal_node_id":"0.0-54.0-0.0","params":{"nStudents":24,"maxFlips":25,"completionMinutes":45,"basePay":8,"maxBonus":9,"perTrialBonus":0.5,"perTrialBonusThreshold":0.05,"exampleCost":0.02},"classroomParams":{"A":{"a":1,"b":4},"B":{"a":4,"b":1},"C":{"a":2,"b":8},"D":{"a":8,"b":2}},"conditions":["nonSeqFull","nonSeqPartial","seqNoFeedback","seqFeedback"],"classroomPairings":[["A","B"],["C","D"]],"coinWeights":[0.2,0.5,0.8],"subjectId":"A1K8VUKRL53OX","assignmentId":"3JV9LGBJWU0TSCKFE2VW0L88THJOGA","hitId":"3IH9TRB0FBLK6RLF7MSMKICTGYN1IU","url":"https://gershmanlab.com/experiments/alicia/teaching/experiment/?hitId=3IH9TRB0FBLK6RLF7MSMKICTGYN1IU&workerId=A1K8VUKRL53OX&assignmentId=3JV9LGBJWU0TSCKFE2VW0L88THJOGA&a=JLVJ3&tp_a=JLVJ3&b=3JV9LGBJWU0TSCKFE2VW0L88THJOGA&tp_b=3JV9LGBJWU0TSCKFE2VW0L88THJOGA&c=365633&tp_c=365633"},{"rt":1808,"stimulus":"\n            <h4 style=\"color:Orange;\">Student 7</h4>\n            <h2>The weight of your coin is <b style=\"color:Tomato;\">0.2</b>.</h2>\n            <p>In this block, you will be giving <b>one</b> set of examples to Student 7.</p>\n                <p>You will receive feedback at the end of the block.</p>\n            <p></p>","response":0,"trial_type":"html-button-response","trial_index":61,"time_elapsed":3410019,"internal_node_id":"0.0-55.0","params":{"nStudents":24,"maxFlips":25,"completionMinutes":45,"basePay":8,"maxBonus":9,"perTrialBonus":0.5,"perTrialBonusThreshold":0.05,"exampleCost":0.02},"classroomParams":{"A":{"a":1,"b":4},"B":{"a":4,"b":1},"C":{"a":2,"b":8},"D":{"a":8,"b":2}},"conditions":["nonSeqFull","nonSeqPartial","seqNoFeedback","seqFeedback"],"classroomPairings":[["A","B"],["C","D"]],"coinWeights":[0.2,0.5,0.8],"subjectId":"A1K8VUKRL53OX","assignmentId":"3JV9LGBJWU0TSCKFE2VW0L88THJOGA","hitId":"3IH9TRB0FBLK6RLF7MSMKICTGYN1IU","url":"https://gershmanlab.com/experiments/alicia/teaching/experiment/?hitId=3IH9TRB0FBLK6RLF7MSMKICTGYN1IU&workerId=A1K8VUKRL53OX&assignmentId=3JV9LGBJWU0TSCKFE2VW0L88THJOGA&a=JLVJ3&tp_a=JLVJ3&b=3JV9LGBJWU0TSCKFE2VW0L88THJOGA&tp_b=3JV9LGBJWU0TSCKFE2VW0L88THJOGA&c=365633&tp_c=365633"},{"rt":4623,"response":{"heads":"1","tails":"1"},"type":"response","condition":"nonSeqFull","trueTheta":0.2,"classrooms":["C","D"],"studentTrueClassroom":"D","exampleSet":"first","trial_type":"survey-html-form","trial_index":62,"time_elapsed":3414644,"internal_node_id":"0.0-56.0-0.0","params":{"nStudents":24,"maxFlips":25,"completionMinutes":45,"basePay":8,"maxBonus":9,"perTrialBonus":0.5,"perTrialBonusThreshold":0.05,"exampleCost":0.02},"classroomParams":{"A":{"a":1,"b":4},"B":{"a":4,"b":1},"C":{"a":2,"b":8},"D":{"a":8,"b":2}},"conditions":["nonSeqFull","nonSeqPartial","seqNoFeedback","seqFeedback"],"classroomPairings":[["A","B"],["C","D"]],"coinWeights":[0.2,0.5,0.8],"subjectId":"A1K8VUKRL53OX","assignmentId":"3JV9LGBJWU0TSCKFE2VW0L88THJOGA","hitId":"3IH9TRB0FBLK6RLF7MSMKICTGYN1IU","url":"https://gershmanlab.com/experiments/alicia/teaching/experiment/?hitId=3IH9TRB0FBLK6RLF7MSMKICTGYN1IU&workerId=A1K8VUKRL53OX&assignmentId=3JV9LGBJWU0TSCKFE2VW0L88THJOGA&a=JLVJ3&tp_a=JLVJ3&b=3JV9LGBJWU0TSCKFE2VW0L88THJOGA&tp_b=3JV9LGBJWU0TSCKFE2VW0L88THJOGA&c=365633&tp_c=365633","heads":1,"tails":1,"studentIndex":6,"studentTrueHypers":{"a":8,"b":2},"studentGuess":0.75,"delta":0.55,"totalExamples":2,"bonus":0,"bonusSoFar":1.4},{"rt":null,"stimulus":"Sending examples to student... ","response":null,"trial_type":"html-keyboard-response","trial_index":63,"time_elapsed":3416161,"internal_node_id":"0.0-57.0","params":{"nStudents":24,"maxFlips":25,"completionMinutes":45,"basePay":8,"maxBonus":9,"perTrialBonus":0.5,"perTrialBonusThreshold":0.05,"exampleCost":0.02},"classroomParams":{"A":{"a":1,"b":4},"B":{"a":4,"b":1},"C":{"a":2,"b":8},"D":{"a":8,"b":2}},"conditions":["nonSeqFull","nonSeqPartial","seqNoFeedback","seqFeedback"],"classroomPairings":[["A","B"],["C","D"]],"coinWeights":[0.2,0.5,0.8],"subjectId":"A1K8VUKRL53OX","assignmentId":"3JV9LGBJWU0TSCKFE2VW0L88THJOGA","hitId":"3IH9TRB0FBLK6RLF7MSMKICTGYN1IU","url":"https://gershmanlab.com/experiments/alicia/teaching/experiment/?hitId=3IH9TRB0FBLK6RLF7MSMKICTGYN1IU&workerId=A1K8VUKRL53OX&assignmentId=3JV9LGBJWU0TSCKFE2VW0L88THJOGA&a=JLVJ3&tp_a=JLVJ3&b=3JV9LGBJWU0TSCKFE2VW0L88THJOGA&tp_b=3JV9LGBJWU0TSCKFE2VW0L88THJOGA&c=365633&tp_c=365633"},{"rt":null,"stimulus":"Examples sent to student! Waiting for student...","response":null,"trial_type":"html-keyboard-response","trial_index":64,"time_elapsed":3420668,"internal_node_id":"0.0-58.0","params":{"nStudents":24,"maxFlips":25,"completionMinutes":45,"basePay":8,"maxBonus":9,"perTrialBonus":0.5,"perTrialBonusThreshold":0.05,"exampleCost":0.02},"classroomParams":{"A":{"a":1,"b":4},"B":{"a":4,"b":1},"C":{"a":2,"b":8},"D":{"a":8,"b":2}},"conditions":["nonSeqFull","nonSeqPartial","seqNoFeedback","seqFeedback"],"classroomPairings":[["A","B"],["C","D"]],"coinWeights":[0.2,0.5,0.8],"subjectId":"A1K8VUKRL53OX","assignmentId":"3JV9LGBJWU0TSCKFE2VW0L88THJOGA","hitId":"3IH9TRB0FBLK6RLF7MSMKICTGYN1IU","url":"https://gershmanlab.com/experiments/alicia/teaching/experiment/?hitId=3IH9TRB0FBLK6RLF7MSMKICTGYN1IU&workerId=A1K8VUKRL53OX&assignmentId=3JV9LGBJWU0TSCKFE2VW0L88THJOGA&a=JLVJ3&tp_a=JLVJ3&b=3JV9LGBJWU0TSCKFE2VW0L88THJOGA&tp_b=3JV9LGBJWU0TSCKFE2VW0L88THJOGA&c=365633&tp_c=365633"},{"rt":6474,"stimulus":"\n                <p>Student's guess for coin weight: <b style=\"color:Tomato;\">0.75</b></p>\n                <p>You received a bonus of <b>$0</b>. Total bonus so far: <b>$1.40</b></b></p>\n                <p></p>\n                <p>Press any key to continue.</p>\n                ","response":"v","trial_type":"html-keyboard-response","trial_index":65,"time_elapsed":3427144,"internal_node_id":"0.0-59.0","params":{"nStudents":24,"maxFlips":25,"completionMinutes":45,"basePay":8,"maxBonus":9,"perTrialBonus":0.5,"perTrialBonusThreshold":0.05,"exampleCost":0.02},"classroomParams":{"A":{"a":1,"b":4},"B":{"a":4,"b":1},"C":{"a":2,"b":8},"D":{"a":8,"b":2}},"conditions":["nonSeqFull","nonSeqPartial","seqNoFeedback","seqFeedback"],"classroomPairings":[["A","B"],["C","D"]],"coinWeights":[0.2,0.5,0.8],"subjectId":"A1K8VUKRL53OX","assignmentId":"3JV9LGBJWU0TSCKFE2VW0L88THJOGA","hitId":"3IH9TRB0FBLK6RLF7MSMKICTGYN1IU","url":"https://gershmanlab.com/experiments/alicia/teaching/experiment/?hitId=3IH9TRB0FBLK6RLF7MSMKICTGYN1IU&workerId=A1K8VUKRL53OX&assignmentId=3JV9LGBJWU0TSCKFE2VW0L88THJOGA&a=JLVJ3&tp_a=JLVJ3&b=3JV9LGBJWU0TSCKFE2VW0L88THJOGA&tp_b=3JV9LGBJWU0TSCKFE2VW0L88THJOGA&c=365633&tp_c=365633"},{"rt":null,"stimulus":"<div style=\"font-size:60px;\">Next student</div>","response":null,"trial_type":"html-keyboard-response","trial_index":66,"time_elapsed":3429655,"internal_node_id":"0.0-60.0-0.0","params":{"nStudents":24,"maxFlips":25,"completionMinutes":45,"basePay":8,"maxBonus":9,"perTrialBonus":0.5,"perTrialBonusThreshold":0.05,"exampleCost":0.02},"classroomParams":{"A":{"a":1,"b":4},"B":{"a":4,"b":1},"C":{"a":2,"b":8},"D":{"a":8,"b":2}},"conditions":["nonSeqFull","nonSeqPartial","seqNoFeedback","seqFeedback"],"classroomPairings":[["A","B"],["C","D"]],"coinWeights":[0.2,0.5,0.8],"subjectId":"A1K8VUKRL53OX","assignmentId":"3JV9LGBJWU0TSCKFE2VW0L88THJOGA","hitId":"3IH9TRB0FBLK6RLF7MSMKICTGYN1IU","url":"https://gershmanlab.com/experiments/alicia/teaching/experiment/?hitId=3IH9TRB0FBLK6RLF7MSMKICTGYN1IU&workerId=A1K8VUKRL53OX&assignmentId=3JV9LGBJWU0TSCKFE2VW0L88THJOGA&a=JLVJ3&tp_a=JLVJ3&b=3JV9LGBJWU0TSCKFE2VW0L88THJOGA&tp_b=3JV9LGBJWU0TSCKFE2VW0L88THJOGA&c=365633&tp_c=365633"},{"rt":1682,"stimulus":"\n            <h4 style=\"color:Orange;\">Student 8</h4>\n            <h2>The weight of your coin is <b style=\"color:Tomato;\">0.5</b>.</h2>\n            <p>In this block, you will be giving <b>one</b> set of examples to Student 8.</p>\n                <p>You will receive feedback at the end of the block.</p>\n            <p></p>","response":0,"trial_type":"html-button-response","trial_index":67,"time_elapsed":3431339,"internal_node_id":"0.0-61.0","params":{"nStudents":24,"maxFlips":25,"completionMinutes":45,"basePay":8,"maxBonus":9,"perTrialBonus":0.5,"perTrialBonusThreshold":0.05,"exampleCost":0.02},"classroomParams":{"A":{"a":1,"b":4},"B":{"a":4,"b":1},"C":{"a":2,"b":8},"D":{"a":8,"b":2}},"conditions":["nonSeqFull","nonSeqPartial","seqNoFeedback","seqFeedback"],"classroomPairings":[["A","B"],["C","D"]],"coinWeights":[0.2,0.5,0.8],"subjectId":"A1K8VUKRL53OX","assignmentId":"3JV9LGBJWU0TSCKFE2VW0L88THJOGA","hitId":"3IH9TRB0FBLK6RLF7MSMKICTGYN1IU","url":"https://gershmanlab.com/experiments/alicia/teaching/experiment/?hitId=3IH9TRB0FBLK6RLF7MSMKICTGYN1IU&workerId=A1K8VUKRL53OX&assignmentId=3JV9LGBJWU0TSCKFE2VW0L88THJOGA&a=JLVJ3&tp_a=JLVJ3&b=3JV9LGBJWU0TSCKFE2VW0L88THJOGA&tp_b=3JV9LGBJWU0TSCKFE2VW0L88THJOGA&c=365633&tp_c=365633"},{"rt":4175,"response":{"heads":"1","tails":"1"},"type":"response","condition":"nonSeqFull","trueTheta":0.5,"classrooms":["C","D"],"studentTrueClassroom":"C","exampleSet":"first","trial_type":"survey-html-form","trial_index":68,"time_elapsed":3435516,"internal_node_id":"0.0-62.0-0.0","params":{"nStudents":24,"maxFlips":25,"completionMinutes":45,"basePay":8,"maxBonus":9,"perTrialBonus":0.5,"perTrialBonusThreshold":0.05,"exampleCost":0.02},"classroomParams":{"A":{"a":1,"b":4},"B":{"a":4,"b":1},"C":{"a":2,"b":8},"D":{"a":8,"b":2}},"conditions":["nonSeqFull","nonSeqPartial","seqNoFeedback","seqFeedback"],"classroomPairings":[["A","B"],["C","D"]],"coinWeights":[0.2,0.5,0.8],"subjectId":"A1K8VUKRL53OX","assignmentId":"3JV9LGBJWU0TSCKFE2VW0L88THJOGA","hitId":"3IH9TRB0FBLK6RLF7MSMKICTGYN1IU","url":"https://gershmanlab.com/experiments/alicia/teaching/experiment/?hitId=3IH9TRB0FBLK6RLF7MSMKICTGYN1IU&workerId=A1K8VUKRL53OX&assignmentId=3JV9LGBJWU0TSCKFE2VW0L88THJOGA&a=JLVJ3&tp_a=JLVJ3&b=3JV9LGBJWU0TSCKFE2VW0L88THJOGA&tp_b=3JV9LGBJWU0TSCKFE2VW0L88THJOGA&c=365633&tp_c=365633","heads":1,"tails":1,"studentIndex":7,"studentTrueHypers":{"a":2,"b":8},"studentGuess":0.25,"delta":0.25,"totalExamples":2,"bonus":0,"bonusSoFar":1.4},{"rt":null,"stimulus":"Sending examples to student... ","response":null,"trial_type":"html-keyboard-response","trial_index":69,"time_elapsed":3437270,"internal_node_id":"0.0-63.0","params":{"nStudents":24,"maxFlips":25,"completionMinutes":45,"basePay":8,"maxBonus":9,"perTrialBonus":0.5,"perTrialBonusThreshold":0.05,"exampleCost":0.02},"classroomParams":{"A":{"a":1,"b":4},"B":{"a":4,"b":1},"C":{"a":2,"b":8},"D":{"a":8,"b":2}},"conditions":["nonSeqFull","nonSeqPartial","seqNoFeedback","seqFeedback"],"classroomPairings":[["A","B"],["C","D"]],"coinWeights":[0.2,0.5,0.8],"subjectId":"A1K8VUKRL53OX","assignmentId":"3JV9LGBJWU0TSCKFE2VW0L88THJOGA","hitId":"3IH9TRB0FBLK6RLF7MSMKICTGYN1IU","url":"https://gershmanlab.com/experiments/alicia/teaching/experiment/?hitId=3IH9TRB0FBLK6RLF7MSMKICTGYN1IU&workerId=A1K8VUKRL53OX&assignmentId=3JV9LGBJWU0TSCKFE2VW0L88THJOGA&a=JLVJ3&tp_a=JLVJ3&b=3JV9LGBJWU0TSCKFE2VW0L88THJOGA&tp_b=3JV9LGBJWU0TSCKFE2VW0L88THJOGA&c=365633&tp_c=365633"},{"rt":null,"stimulus":"Examples sent to student! Waiting for student...","response":null,"trial_type":"html-keyboard-response","trial_index":70,"time_elapsed":3443284,"internal_node_id":"0.0-64.0","params":{"nStudents":24,"maxFlips":25,"completionMinutes":45,"basePay":8,"maxBonus":9,"perTrialBonus":0.5,"perTrialBonusThreshold":0.05,"exampleCost":0.02},"classroomParams":{"A":{"a":1,"b":4},"B":{"a":4,"b":1},"C":{"a":2,"b":8},"D":{"a":8,"b":2}},"conditions":["nonSeqFull","nonSeqPartial","seqNoFeedback","seqFeedback"],"classroomPairings":[["A","B"],["C","D"]],"coinWeights":[0.2,0.5,0.8],"subjectId":"A1K8VUKRL53OX","assignmentId":"3JV9LGBJWU0TSCKFE2VW0L88THJOGA","hitId":"3IH9TRB0FBLK6RLF7MSMKICTGYN1IU","url":"https://gershmanlab.com/experiments/alicia/teaching/experiment/?hitId=3IH9TRB0FBLK6RLF7MSMKICTGYN1IU&workerId=A1K8VUKRL53OX&assignmentId=3JV9LGBJWU0TSCKFE2VW0L88THJOGA&a=JLVJ3&tp_a=JLVJ3&b=3JV9LGBJWU0TSCKFE2VW0L88THJOGA&tp_b=3JV9LGBJWU0TSCKFE2VW0L88THJOGA&c=365633&tp_c=365633"},{"rt":3441,"stimulus":"\n                <p>Student's guess for coin weight: <b style=\"color:Tomato;\">0.25</b></p>\n                <p>You received a bonus of <b>$0</b>. Total bonus so far: <b>$1.40</b></b></p>\n                <p></p>\n                <p>Press any key to continue.</p>\n                ","response":"n","trial_type":"html-keyboard-response","trial_index":71,"time_elapsed":3446726,"internal_node_id":"0.0-65.0","params":{"nStudents":24,"maxFlips":25,"completionMinutes":45,"basePay":8,"maxBonus":9,"perTrialBonus":0.5,"perTrialBonusThreshold":0.05,"exampleCost":0.02},"classroomParams":{"A":{"a":1,"b":4},"B":{"a":4,"b":1},"C":{"a":2,"b":8},"D":{"a":8,"b":2}},"conditions":["nonSeqFull","nonSeqPartial","seqNoFeedback","seqFeedback"],"classroomPairings":[["A","B"],["C","D"]],"coinWeights":[0.2,0.5,0.8],"subjectId":"A1K8VUKRL53OX","assignmentId":"3JV9LGBJWU0TSCKFE2VW0L88THJOGA","hitId":"3IH9TRB0FBLK6RLF7MSMKICTGYN1IU","url":"https://gershmanlab.com/experiments/alicia/teaching/experiment/?hitId=3IH9TRB0FBLK6RLF7MSMKICTGYN1IU&workerId=A1K8VUKRL53OX&assignmentId=3JV9LGBJWU0TSCKFE2VW0L88THJOGA&a=JLVJ3&tp_a=JLVJ3&b=3JV9LGBJWU0TSCKFE2VW0L88THJOGA&tp_b=3JV9LGBJWU0TSCKFE2VW0L88THJOGA&c=365633&tp_c=365633"},{"rt":null,"stimulus":"<div style=\"font-size:60px;\">Next student</div>","response":null,"trial_type":"html-keyboard-response","trial_index":72,"time_elapsed":3448732,"internal_node_id":"0.0-66.0-0.0","params":{"nStudents":24,"maxFlips":25,"completionMinutes":45,"basePay":8,"maxBonus":9,"perTrialBonus":0.5,"perTrialBonusThreshold":0.05,"exampleCost":0.02},"classroomParams":{"A":{"a":1,"b":4},"B":{"a":4,"b":1},"C":{"a":2,"b":8},"D":{"a":8,"b":2}},"conditions":["nonSeqFull","nonSeqPartial","seqNoFeedback","seqFeedback"],"classroomPairings":[["A","B"],["C","D"]],"coinWeights":[0.2,0.5,0.8],"subjectId":"A1K8VUKRL53OX","assignmentId":"3JV9LGBJWU0TSCKFE2VW0L88THJOGA","hitId":"3IH9TRB0FBLK6RLF7MSMKICTGYN1IU","url":"https://gershmanlab.com/experiments/alicia/teaching/experiment/?hitId=3IH9TRB0FBLK6RLF7MSMKICTGYN1IU&workerId=A1K8VUKRL53OX&assignmentId=3JV9LGBJWU0TSCKFE2VW0L88THJOGA&a=JLVJ3&tp_a=JLVJ3&b=3JV9LGBJWU0TSCKFE2VW0L88THJOGA&tp_b=3JV9LGBJWU0TSCKFE2VW0L88THJOGA&c=365633&tp_c=365633"},{"rt":3927,"stimulus":"\n            <h4 style=\"color:Orange;\">Student 9</h4>\n            <h2>The weight of your coin is <b style=\"color:Tomato;\">0.5</b>.</h2>\n            <p>In this block, you will be giving <b>one</b> set of examples to Student 9.</p>\n                <p>You will receive feedback at the end of the block.</p>\n            <p></p>","response":0,"trial_type":"html-button-response","trial_index":73,"time_elapsed":3452655,"internal_node_id":"0.0-67.0","params":{"nStudents":24,"maxFlips":25,"completionMinutes":45,"basePay":8,"maxBonus":9,"perTrialBonus":0.5,"perTrialBonusThreshold":0.05,"exampleCost":0.02},"classroomParams":{"A":{"a":1,"b":4},"B":{"a":4,"b":1},"C":{"a":2,"b":8},"D":{"a":8,"b":2}},"conditions":["nonSeqFull","nonSeqPartial","seqNoFeedback","seqFeedback"],"classroomPairings":[["A","B"],["C","D"]],"coinWeights":[0.2,0.5,0.8],"subjectId":"A1K8VUKRL53OX","assignmentId":"3JV9LGBJWU0TSCKFE2VW0L88THJOGA","hitId":"3IH9TRB0FBLK6RLF7MSMKICTGYN1IU","url":"https://gershmanlab.com/experiments/alicia/teaching/experiment/?hitId=3IH9TRB0FBLK6RLF7MSMKICTGYN1IU&workerId=A1K8VUKRL53OX&assignmentId=3JV9LGBJWU0TSCKFE2VW0L88THJOGA&a=JLVJ3&tp_a=JLVJ3&b=3JV9LGBJWU0TSCKFE2VW0L88THJOGA&tp_b=3JV9LGBJWU0TSCKFE2VW0L88THJOGA&c=365633&tp_c=365633"},{"rt":4821,"response":{"heads":"1","tails":"1"},"type":"response","condition":"nonSeqFull","trueTheta":0.5,"classrooms":["A","B"],"studentTrueClassroom":"B","exampleSet":"first","trial_type":"survey-html-form","trial_index":74,"time_elapsed":3457479,"internal_node_id":"0.0-68.0-0.0","params":{"nStudents":24,"maxFlips":25,"completionMinutes":45,"basePay":8,"maxBonus":9,"perTrialBonus":0.5,"perTrialBonusThreshold":0.05,"exampleCost":0.02},"classroomParams":{"A":{"a":1,"b":4},"B":{"a":4,"b":1},"C":{"a":2,"b":8},"D":{"a":8,"b":2}},"conditions":["nonSeqFull","nonSeqPartial","seqNoFeedback","seqFeedback"],"classroomPairings":[["A","B"],["C","D"]],"coinWeights":[0.2,0.5,0.8],"subjectId":"A1K8VUKRL53OX","assignmentId":"3JV9LGBJWU0TSCKFE2VW0L88THJOGA","hitId":"3IH9TRB0FBLK6RLF7MSMKICTGYN1IU","url":"https://gershmanlab.com/experiments/alicia/teaching/experiment/?hitId=3IH9TRB0FBLK6RLF7MSMKICTGYN1IU&workerId=A1K8VUKRL53OX&assignmentId=3JV9LGBJWU0TSCKFE2VW0L88THJOGA&a=JLVJ3&tp_a=JLVJ3&b=3JV9LGBJWU0TSCKFE2VW0L88THJOGA&tp_b=3JV9LGBJWU0TSCKFE2VW0L88THJOGA&c=365633&tp_c=365633","heads":1,"tails":1,"studentIndex":8,"studentTrueHypers":{"a":4,"b":1},"studentGuess":0.7142857142857143,"delta":0.2142857142857143,"totalExamples":2,"bonus":0,"bonusSoFar":1.4},{"rt":null,"stimulus":"Sending examples to student... ","response":null,"trial_type":"html-keyboard-response","trial_index":75,"time_elapsed":3458742,"internal_node_id":"0.0-69.0","params":{"nStudents":24,"maxFlips":25,"completionMinutes":45,"basePay":8,"maxBonus":9,"perTrialBonus":0.5,"perTrialBonusThreshold":0.05,"exampleCost":0.02},"classroomParams":{"A":{"a":1,"b":4},"B":{"a":4,"b":1},"C":{"a":2,"b":8},"D":{"a":8,"b":2}},"conditions":["nonSeqFull","nonSeqPartial","seqNoFeedback","seqFeedback"],"classroomPairings":[["A","B"],["C","D"]],"coinWeights":[0.2,0.5,0.8],"subjectId":"A1K8VUKRL53OX","assignmentId":"3JV9LGBJWU0TSCKFE2VW0L88THJOGA","hitId":"3IH9TRB0FBLK6RLF7MSMKICTGYN1IU","url":"https://gershmanlab.com/experiments/alicia/teaching/experiment/?hitId=3IH9TRB0FBLK6RLF7MSMKICTGYN1IU&workerId=A1K8VUKRL53OX&assignmentId=3JV9LGBJWU0TSCKFE2VW0L88THJOGA&a=JLVJ3&tp_a=JLVJ3&b=3JV9LGBJWU0TSCKFE2VW0L88THJOGA&tp_b=3JV9LGBJWU0TSCKFE2VW0L88THJOGA&c=365633&tp_c=365633"},{"rt":null,"stimulus":"Examples sent to student! Waiting for student...","response":null,"trial_type":"html-keyboard-response","trial_index":76,"time_elapsed":3463250,"internal_node_id":"0.0-70.0","params":{"nStudents":24,"maxFlips":25,"completionMinutes":45,"basePay":8,"maxBonus":9,"perTrialBonus":0.5,"perTrialBonusThreshold":0.05,"exampleCost":0.02},"classroomParams":{"A":{"a":1,"b":4},"B":{"a":4,"b":1},"C":{"a":2,"b":8},"D":{"a":8,"b":2}},"conditions":["nonSeqFull","nonSeqPartial","seqNoFeedback","seqFeedback"],"classroomPairings":[["A","B"],["C","D"]],"coinWeights":[0.2,0.5,0.8],"subjectId":"A1K8VUKRL53OX","assignmentId":"3JV9LGBJWU0TSCKFE2VW0L88THJOGA","hitId":"3IH9TRB0FBLK6RLF7MSMKICTGYN1IU","url":"https://gershmanlab.com/experiments/alicia/teaching/experiment/?hitId=3IH9TRB0FBLK6RLF7MSMKICTGYN1IU&workerId=A1K8VUKRL53OX&assignmentId=3JV9LGBJWU0TSCKFE2VW0L88THJOGA&a=JLVJ3&tp_a=JLVJ3&b=3JV9LGBJWU0TSCKFE2VW0L88THJOGA&tp_b=3JV9LGBJWU0TSCKFE2VW0L88THJOGA&c=365633&tp_c=365633"},{"rt":2154,"stimulus":"\n                <p>Student's guess for coin weight: <b style=\"color:Tomato;\">0.71</b></p>\n                <p>You received a bonus of <b>$0</b>. Total bonus so far: <b>$1.40</b></b></p>\n                <p></p>\n                <p>Press any key to continue.</p>\n                ","response":"b","trial_type":"html-keyboard-response","trial_index":77,"time_elapsed":3465405,"internal_node_id":"0.0-71.0","params":{"nStudents":24,"maxFlips":25,"completionMinutes":45,"basePay":8,"maxBonus":9,"perTrialBonus":0.5,"perTrialBonusThreshold":0.05,"exampleCost":0.02},"classroomParams":{"A":{"a":1,"b":4},"B":{"a":4,"b":1},"C":{"a":2,"b":8},"D":{"a":8,"b":2}},"conditions":["nonSeqFull","nonSeqPartial","seqNoFeedback","seqFeedback"],"classroomPairings":[["A","B"],["C","D"]],"coinWeights":[0.2,0.5,0.8],"subjectId":"A1K8VUKRL53OX","assignmentId":"3JV9LGBJWU0TSCKFE2VW0L88THJOGA","hitId":"3IH9TRB0FBLK6RLF7MSMKICTGYN1IU","url":"https://gershmanlab.com/experiments/alicia/teaching/experiment/?hitId=3IH9TRB0FBLK6RLF7MSMKICTGYN1IU&workerId=A1K8VUKRL53OX&assignmentId=3JV9LGBJWU0TSCKFE2VW0L88THJOGA&a=JLVJ3&tp_a=JLVJ3&b=3JV9LGBJWU0TSCKFE2VW0L88THJOGA&tp_b=3JV9LGBJWU0TSCKFE2VW0L88THJOGA&c=365633&tp_c=365633"},{"rt":null,"stimulus":"<div style=\"font-size:60px;\">Next student</div>","response":null,"trial_type":"html-keyboard-response","trial_index":78,"time_elapsed":3467665,"internal_node_id":"0.0-72.0-0.0","params":{"nStudents":24,"maxFlips":25,"completionMinutes":45,"basePay":8,"maxBonus":9,"perTrialBonus":0.5,"perTrialBonusThreshold":0.05,"exampleCost":0.02},"classroomParams":{"A":{"a":1,"b":4},"B":{"a":4,"b":1},"C":{"a":2,"b":8},"D":{"a":8,"b":2}},"conditions":["nonSeqFull","nonSeqPartial","seqNoFeedback","seqFeedback"],"classroomPairings":[["A","B"],["C","D"]],"coinWeights":[0.2,0.5,0.8],"subjectId":"A1K8VUKRL53OX","assignmentId":"3JV9LGBJWU0TSCKFE2VW0L88THJOGA","hitId":"3IH9TRB0FBLK6RLF7MSMKICTGYN1IU","url":"https://gershmanlab.com/experiments/alicia/teaching/experiment/?hitId=3IH9TRB0FBLK6RLF7MSMKICTGYN1IU&workerId=A1K8VUKRL53OX&assignmentId=3JV9LGBJWU0TSCKFE2VW0L88THJOGA&a=JLVJ3&tp_a=JLVJ3&b=3JV9LGBJWU0TSCKFE2VW0L88THJOGA&tp_b=3JV9LGBJWU0TSCKFE2VW0L88THJOGA&c=365633&tp_c=365633"},{"rt":1405,"stimulus":"\n            <h4 style=\"color:Orange;\">Student 10</h4>\n            <h2>The weight of your coin is <b style=\"color:Tomato;\">0.2</b>.</h2>\n            <p>In this block, you will be giving <b>two</b> sets of examples to Student 10.</p>\n                <p>You will receive feedback at the end of the block.</p>\n            <p></p>","response":0,"trial_type":"html-button-response","trial_index":79,"time_elapsed":3469071,"internal_node_id":"0.0-73.0","params":{"nStudents":24,"maxFlips":25,"completionMinutes":45,"basePay":8,"maxBonus":9,"perTrialBonus":0.5,"perTrialBonusThreshold":0.05,"exampleCost":0.02},"classroomParams":{"A":{"a":1,"b":4},"B":{"a":4,"b":1},"C":{"a":2,"b":8},"D":{"a":8,"b":2}},"conditions":["nonSeqFull","nonSeqPartial","seqNoFeedback","seqFeedback"],"classroomPairings":[["A","B"],["C","D"]],"coinWeights":[0.2,0.5,0.8],"subjectId":"A1K8VUKRL53OX","assignmentId":"3JV9LGBJWU0TSCKFE2VW0L88THJOGA","hitId":"3IH9TRB0FBLK6RLF7MSMKICTGYN1IU","url":"https://gershmanlab.com/experiments/alicia/teaching/experiment/?hitId=3IH9TRB0FBLK6RLF7MSMKICTGYN1IU&workerId=A1K8VUKRL53OX&assignmentId=3JV9LGBJWU0TSCKFE2VW0L88THJOGA&a=JLVJ3&tp_a=JLVJ3&b=3JV9LGBJWU0TSCKFE2VW0L88THJOGA&tp_b=3JV9LGBJWU0TSCKFE2VW0L88THJOGA&c=365633&tp_c=365633"},{"rt":4038,"response":{"heads":"1","tails":"1"},"type":"response","condition":"seqNoFeedback","trueTheta":0.2,"classrooms":["C","D"],"studentTrueClassroom":"D","exampleSet":"first","trial_type":"survey-html-form","trial_index":80,"time_elapsed":3473112,"internal_node_id":"0.0-74.0-0.0","params":{"nStudents":24,"maxFlips":25,"completionMinutes":45,"basePay":8,"maxBonus":9,"perTrialBonus":0.5,"perTrialBonusThreshold":0.05,"exampleCost":0.02},"classroomParams":{"A":{"a":1,"b":4},"B":{"a":4,"b":1},"C":{"a":2,"b":8},"D":{"a":8,"b":2}},"conditions":["nonSeqFull","nonSeqPartial","seqNoFeedback","seqFeedback"],"classroomPairings":[["A","B"],["C","D"]],"coinWeights":[0.2,0.5,0.8],"subjectId":"A1K8VUKRL53OX","assignmentId":"3JV9LGBJWU0TSCKFE2VW0L88THJOGA","hitId":"3IH9TRB0FBLK6RLF7MSMKICTGYN1IU","url":"https://gershmanlab.com/experiments/alicia/teaching/experiment/?hitId=3IH9TRB0FBLK6RLF7MSMKICTGYN1IU&workerId=A1K8VUKRL53OX&assignmentId=3JV9LGBJWU0TSCKFE2VW0L88THJOGA&a=JLVJ3&tp_a=JLVJ3&b=3JV9LGBJWU0TSCKFE2VW0L88THJOGA&tp_b=3JV9LGBJWU0TSCKFE2VW0L88THJOGA&c=365633&tp_c=365633","heads":1,"tails":1,"studentIndex":9,"studentTrueHypers":{"a":8,"b":2},"studentGuess":0.75,"delta":0.55,"totalExamples":2,"bonusSoFar":1.4},{"rt":null,"stimulus":"Sending examples to student... ","response":null,"trial_type":"html-keyboard-response","trial_index":81,"time_elapsed":3474618,"internal_node_id":"0.0-75.0","params":{"nStudents":24,"maxFlips":25,"completionMinutes":45,"basePay":8,"maxBonus":9,"perTrialBonus":0.5,"perTrialBonusThreshold":0.05,"exampleCost":0.02},"classroomParams":{"A":{"a":1,"b":4},"B":{"a":4,"b":1},"C":{"a":2,"b":8},"D":{"a":8,"b":2}},"conditions":["nonSeqFull","nonSeqPartial","seqNoFeedback","seqFeedback"],"classroomPairings":[["A","B"],["C","D"]],"coinWeights":[0.2,0.5,0.8],"subjectId":"A1K8VUKRL53OX","assignmentId":"3JV9LGBJWU0TSCKFE2VW0L88THJOGA","hitId":"3IH9TRB0FBLK6RLF7MSMKICTGYN1IU","url":"https://gershmanlab.com/experiments/alicia/teaching/experiment/?hitId=3IH9TRB0FBLK6RLF7MSMKICTGYN1IU&workerId=A1K8VUKRL53OX&assignmentId=3JV9LGBJWU0TSCKFE2VW0L88THJOGA&a=JLVJ3&tp_a=JLVJ3&b=3JV9LGBJWU0TSCKFE2VW0L88THJOGA&tp_b=3JV9LGBJWU0TSCKFE2VW0L88THJOGA&c=365633&tp_c=365633"},{"rt":null,"stimulus":"Examples sent to student! Waiting for student...","response":null,"trial_type":"html-keyboard-response","trial_index":82,"time_elapsed":3480120,"internal_node_id":"0.0-76.0","params":{"nStudents":24,"maxFlips":25,"completionMinutes":45,"basePay":8,"maxBonus":9,"perTrialBonus":0.5,"perTrialBonusThreshold":0.05,"exampleCost":0.02},"classroomParams":{"A":{"a":1,"b":4},"B":{"a":4,"b":1},"C":{"a":2,"b":8},"D":{"a":8,"b":2}},"conditions":["nonSeqFull","nonSeqPartial","seqNoFeedback","seqFeedback"],"classroomPairings":[["A","B"],["C","D"]],"coinWeights":[0.2,0.5,0.8],"subjectId":"A1K8VUKRL53OX","assignmentId":"3JV9LGBJWU0TSCKFE2VW0L88THJOGA","hitId":"3IH9TRB0FBLK6RLF7MSMKICTGYN1IU","url":"https://gershmanlab.com/experiments/alicia/teaching/experiment/?hitId=3IH9TRB0FBLK6RLF7MSMKICTGYN1IU&workerId=A1K8VUKRL53OX&assignmentId=3JV9LGBJWU0TSCKFE2VW0L88THJOGA&a=JLVJ3&tp_a=JLVJ3&b=3JV9LGBJWU0TSCKFE2VW0L88THJOGA&tp_b=3JV9LGBJWU0TSCKFE2VW0L88THJOGA&c=365633&tp_c=365633"},{"rt":3974,"response":{"heads":"1","tails":"1"},"type":"response","condition":"seqNoFeedback","trueTheta":0.2,"classrooms":["C","D"],"studentTrueClassroom":"D","exampleSet":"second","trial_type":"survey-html-form","trial_index":83,"time_elapsed":3484096,"internal_node_id":"0.0-77.0-0.0","params":{"nStudents":24,"maxFlips":25,"completionMinutes":45,"basePay":8,"maxBonus":9,"perTrialBonus":0.5,"perTrialBonusThreshold":0.05,"exampleCost":0.02},"classroomParams":{"A":{"a":1,"b":4},"B":{"a":4,"b":1},"C":{"a":2,"b":8},"D":{"a":8,"b":2}},"conditions":["nonSeqFull","nonSeqPartial","seqNoFeedback","seqFeedback"],"classroomPairings":[["A","B"],["C","D"]],"coinWeights":[0.2,0.5,0.8],"subjectId":"A1K8VUKRL53OX","assignmentId":"3JV9LGBJWU0TSCKFE2VW0L88THJOGA","hitId":"3IH9TRB0FBLK6RLF7MSMKICTGYN1IU","url":"https://gershmanlab.com/experiments/alicia/teaching/experiment/?hitId=3IH9TRB0FBLK6RLF7MSMKICTGYN1IU&workerId=A1K8VUKRL53OX&assignmentId=3JV9LGBJWU0TSCKFE2VW0L88THJOGA&a=JLVJ3&tp_a=JLVJ3&b=3JV9LGBJWU0TSCKFE2VW0L88THJOGA&tp_b=3JV9LGBJWU0TSCKFE2VW0L88THJOGA&c=365633&tp_c=365633","firstResponseHeads":1,"firstResponseTails":1,"secondResponseHeads":1,"secondResponseTails":1,"totalHeads":2,"totalTails":2,"studentIndex":9,"studentTrueHypers":{"a":8,"b":2},"studentGuess":0.7142857142857143,"delta":0.5142857142857142,"bonus":0,"bonusSoFar":1.4,"totalExamples":4},{"rt":null,"stimulus":"Sending examples to student... ","response":null,"trial_type":"html-keyboard-response","trial_index":84,"time_elapsed":3485355,"internal_node_id":"0.0-78.0","params":{"nStudents":24,"maxFlips":25,"completionMinutes":45,"basePay":8,"maxBonus":9,"perTrialBonus":0.5,"perTrialBonusThreshold":0.05,"exampleCost":0.02},"classroomParams":{"A":{"a":1,"b":4},"B":{"a":4,"b":1},"C":{"a":2,"b":8},"D":{"a":8,"b":2}},"conditions":["nonSeqFull","nonSeqPartial","seqNoFeedback","seqFeedback"],"classroomPairings":[["A","B"],["C","D"]],"coinWeights":[0.2,0.5,0.8],"subjectId":"A1K8VUKRL53OX","assignmentId":"3JV9LGBJWU0TSCKFE2VW0L88THJOGA","hitId":"3IH9TRB0FBLK6RLF7MSMKICTGYN1IU","url":"https://gershmanlab.com/experiments/alicia/teaching/experiment/?hitId=3IH9TRB0FBLK6RLF7MSMKICTGYN1IU&workerId=A1K8VUKRL53OX&assignmentId=3JV9LGBJWU0TSCKFE2VW0L88THJOGA&a=JLVJ3&tp_a=JLVJ3&b=3JV9LGBJWU0TSCKFE2VW0L88THJOGA&tp_b=3JV9LGBJWU0TSCKFE2VW0L88THJOGA&c=365633&tp_c=365633"},{"rt":null,"stimulus":"Examples sent to student! Waiting for student...","response":null,"trial_type":"html-keyboard-response","trial_index":85,"time_elapsed":3490862,"internal_node_id":"0.0-79.0","params":{"nStudents":24,"maxFlips":25,"completionMinutes":45,"basePay":8,"max