[{"rt":122,"stimulus":"Welcome to the experiment. Press any key to begin.","response":"f11","trial_type":"html-keyboard-response","trial_index":0,"time_elapsed":135,"internal_node_id":"0.0-0.0","params":{"nStudents":24,"maxFlips":25,"completionMinutes":45,"basePay":8,"maxBonus":9,"perTrialBonus":0.5,"perTrialBonusThreshold":0.05,"exampleCost":0.02},"classroomParams":{"A":{"a":1,"b":4},"B":{"a":4,"b":1},"C":{"a":2,"b":8},"D":{"a":8,"b":2}},"conditions":["nonSeqFull","nonSeqPartial","seqNoFeedback","seqFeedback"],"classroomPairings":[["A","B"],["C","D"]],"coinWeights":[0.2,0.5,0.8],"subjectId":"A272X64FOZFYLB","assignmentId":"3GU1KF0O4JNFMVO5DGGXOAM1N9NBPX","hitId":"3XUY87HIVP03YZXVLN9CW37DVI1MM2","url":"https://gershmanlab.com/experiments/alicia/teaching/experiment/?hitId=3XUY87HIVP03YZXVLN9CW37DVI1MM2&workerId=A272X64FOZFYLB&assignmentId=3GU1KF0O4JNFMVO5DGGXOAM1N9NBPX&a=OKUG3&tp_a=OKUG3&b=3GU1KF0O4JNFMVO5DGGXOAM1N9NBPX&tp_b=3GU1KF0O4JNFMVO5DGGXOAM1N9NBPX&c=365633&tp_c=365633"},{"rt":8384,"stimulus":"\n        <h3>Please read this consent agreement carefully before deciding whether to participate in this experiment.</h3>\n        <p><b>Purpose of the research:</b> To examine how people teach effectively.</p>\n        <p><b>What you will do in this research:</b> You will teach students the weights of different coins.</p>\n        <p><b>Time required:</b> This experiment will take 45 minutes to complete.</p>\n        <p><b>Risks:</b> There are no anticipated risks associated with participating in this study.             The effects of participating should be comparable to those you would experience from viewing a computer monitor             and using a mouse and keyboard for the duration of the experiment.</p>\n        <p><b>Benefits:</b> The study provides important information about the nature of teaching.</p>\n        <p><b>Compensation:</b> You will receive <b>$8</b> for completing the experiment and a performance bonus of up to <b>$9</b>.</p>\n        <p><b>Confidentiality:</b> Your participation in this study will remain confidential.             No personally identifiable information will be associated with your data.             Your de-identified data may be shared with other researchers and used in future projects.</p>\n        <p><b>Participation and withdrawal:</b> Your participation in this study is completely voluntary and             you may refuse to participate or you may choose to withdraw at any time without penalty or loss of\n            benefits to which you are otherwise entitled.</p>\n        <p><b>How to contact the researcher:</b> If you have questions or concerns about your participation            or payment, or want to request a summary of research findings, please contact\n            Alicia Chen, aliciachen@college.harvard.edu.</p>\n        <p><b>Whom to contact about your rights in this research:</b> For questions, concerns, suggestions,             or complaints that have not been or cannot be addressed by the researcher, or to report             research-related harm, please contact the Committee on the Use of Human Subjects in Research at Harvard University,             1414 Massachusetts Avenue, Second Floor, Cambridge, MA 02138. Phone: 617-496-2847. Email: cuhs@fas.harvard.edu.</p>\n        ","response":0,"trial_type":"html-button-response","trial_index":1,"time_elapsed":8521,"internal_node_id":"0.0-1.0","params":{"nStudents":24,"maxFlips":25,"completionMinutes":45,"basePay":8,"maxBonus":9,"perTrialBonus":0.5,"perTrialBonusThreshold":0.05,"exampleCost":0.02},"classroomParams":{"A":{"a":1,"b":4},"B":{"a":4,"b":1},"C":{"a":2,"b":8},"D":{"a":8,"b":2}},"conditions":["nonSeqFull","nonSeqPartial","seqNoFeedback","seqFeedback"],"classroomPairings":[["A","B"],["C","D"]],"coinWeights":[0.2,0.5,0.8],"subjectId":"A272X64FOZFYLB","assignmentId":"3GU1KF0O4JNFMVO5DGGXOAM1N9NBPX","hitId":"3XUY87HIVP03YZXVLN9CW37DVI1MM2","url":"https://gershmanlab.com/experiments/alicia/teaching/experiment/?hitId=3XUY87HIVP03YZXVLN9CW37DVI1MM2&workerId=A272X64FOZFYLB&assignmentId=3GU1KF0O4JNFMVO5DGGXOAM1N9NBPX&a=OKUG3&tp_a=OKUG3&b=3GU1KF0O4JNFMVO5DGGXOAM1N9NBPX&tp_b=3GU1KF0O4JNFMVO5DGGXOAM1N9NBPX&c=365633&tp_c=365633"},{"view_history":[{"page_index":0,"viewing_time":2653},{"page_index":1,"viewing_time":2338},{"page_index":2,"viewing_time":18728},{"page_index":3,"viewing_time":14408},{"page_index":4,"viewing_time":6720},{"page_index":5,"viewing_time":14848},{"page_index":6,"viewing_time":20495}],"rt":80189,"trial_type":"instructions","trial_index":2,"time_elapsed":88711,"internal_node_id":"0.0-2.0-0.0","params":{"nStudents":24,"maxFlips":25,"completionMinutes":45,"basePay":8,"maxBonus":9,"perTrialBonus":0.5,"perTrialBonusThreshold":0.05,"exampleCost":0.02},"classroomParams":{"A":{"a":1,"b":4},"B":{"a":4,"b":1},"C":{"a":2,"b":8},"D":{"a":8,"b":2}},"conditions":["nonSeqFull","nonSeqPartial","seqNoFeedback","seqFeedback"],"classroomPairings":[["A","B"],["C","D"]],"coinWeights":[0.2,0.5,0.8],"subjectId":"A272X64FOZFYLB","assignmentId":"3GU1KF0O4JNFMVO5DGGXOAM1N9NBPX","hitId":"3XUY87HIVP03YZXVLN9CW37DVI1MM2","url":"https://gershmanlab.com/experiments/alicia/teaching/experiment/?hitId=3XUY87HIVP03YZXVLN9CW37DVI1MM2&workerId=A272X64FOZFYLB&assignmentId=3GU1KF0O4JNFMVO5DGGXOAM1N9NBPX&a=OKUG3&tp_a=OKUG3&b=3GU1KF0O4JNFMVO5DGGXOAM1N9NBPX&tp_b=3GU1KF0O4JNFMVO5DGGXOAM1N9NBPX&c=365633&tp_c=365633"},{"rt":37194,"response":{"Q0":"Students in different classrooms will have seen a different number of heads and tails before seeing the examples you select for them.","Q1":"By <b>considering the student's classroom information</b> so that I can teach efficiently and accurately/helpfully at the same time (because each example I give to the student costs money!).","Q2":"The coin lands heads 90% of the time.","Q3":"No, I will teach a <b>new</b> student each time.","Q4":"The students are also on the same alien planet as you, where coins can be unfair.","Q5":"Based on the student's second (and final) guess."},"question_order":[5,4,3,1,0,2],"trial_type":"survey-multi-choice","trial_index":3,"time_elapsed":125907,"internal_node_id":"0.0-2.0-1.0","params":{"nStudents":24,"maxFlips":25,"completionMinutes":45,"basePay":8,"maxBonus":9,"perTrialBonus":0.5,"perTrialBonusThreshold":0.05,"exampleCost":0.02},"classroomParams":{"A":{"a":1,"b":4},"B":{"a":4,"b":1},"C":{"a":2,"b":8},"D":{"a":8,"b":2}},"conditions":["nonSeqFull","nonSeqPartial","seqNoFeedback","seqFeedback"],"classroomPairings":[["A","B"],["C","D"]],"coinWeights":[0.2,0.5,0.8],"subjectId":"A272X64FOZFYLB","assignmentId":"3GU1KF0O4JNFMVO5DGGXOAM1N9NBPX","hitId":"3XUY87HIVP03YZXVLN9CW37DVI1MM2","url":"https://gershmanlab.com/experiments/alicia/teaching/experiment/?hitId=3XUY87HIVP03YZXVLN9CW37DVI1MM2&workerId=A272X64FOZFYLB&assignmentId=3GU1KF0O4JNFMVO5DGGXOAM1N9NBPX&a=OKUG3&tp_a=OKUG3&b=3GU1KF0O4JNFMVO5DGGXOAM1N9NBPX&tp_b=3GU1KF0O4JNFMVO5DGGXOAM1N9NBPX&c=365633&tp_c=365633","pass":true},{"rt":null,"stimulus":"<div style=\"font-size:30px;\">Congrats on passing the comprehension quiz! The experiment will begin in a few seconds.</div>","response":null,"trial_type":"html-keyboard-response","trial_index":4,"time_elapsed":128916,"internal_node_id":"0.0-3.0","params":{"nStudents":24,"maxFlips":25,"completionMinutes":45,"basePay":8,"maxBonus":9,"perTrialBonus":0.5,"perTrialBonusThreshold":0.05,"exampleCost":0.02},"classroomParams":{"A":{"a":1,"b":4},"B":{"a":4,"b":1},"C":{"a":2,"b":8},"D":{"a":8,"b":2}},"conditions":["nonSeqFull","nonSeqPartial","seqNoFeedback","seqFeedback"],"classroomPairings":[["A","B"],["C","D"]],"coinWeights":[0.2,0.5,0.8],"subjectId":"A272X64FOZFYLB","assignmentId":"3GU1KF0O4JNFMVO5DGGXOAM1N9NBPX","hitId":"3XUY87HIVP03YZXVLN9CW37DVI1MM2","url":"https://gershmanlab.com/experiments/alicia/teaching/experiment/?hitId=3XUY87HIVP03YZXVLN9CW37DVI1MM2&workerId=A272X64FOZFYLB&assignmentId=3GU1KF0O4JNFMVO5DGGXOAM1N9NBPX&a=OKUG3&tp_a=OKUG3&b=3GU1KF0O4JNFMVO5DGGXOAM1N9NBPX&tp_b=3GU1KF0O4JNFMVO5DGGXOAM1N9NBPX&c=365633&tp_c=365633"},{"rt":null,"stimulus":"<div style=\"font-size:50px;\">First student</div>","response":null,"trial_type":"html-keyboard-response","trial_index":5,"time_elapsed":131932,"internal_node_id":"0.0-4.0","params":{"nStudents":24,"maxFlips":25,"completionMinutes":45,"basePay":8,"maxBonus":9,"perTrialBonus":0.5,"perTrialBonusThreshold":0.05,"exampleCost":0.02},"classroomParams":{"A":{"a":1,"b":4},"B":{"a":4,"b":1},"C":{"a":2,"b":8},"D":{"a":8,"b":2}},"conditions":["nonSeqFull","nonSeqPartial","seqNoFeedback","seqFeedback"],"classroomPairings":[["A","B"],["C","D"]],"coinWeights":[0.2,0.5,0.8],"subjectId":"A272X64FOZFYLB","assignmentId":"3GU1KF0O4JNFMVO5DGGXOAM1N9NBPX","hitId":"3XUY87HIVP03YZXVLN9CW37DVI1MM2","url":"https://gershmanlab.com/experiments/alicia/teaching/experiment/?hitId=3XUY87HIVP03YZXVLN9CW37DVI1MM2&workerId=A272X64FOZFYLB&assignmentId=3GU1KF0O4JNFMVO5DGGXOAM1N9NBPX&a=OKUG3&tp_a=OKUG3&b=3GU1KF0O4JNFMVO5DGGXOAM1N9NBPX&tp_b=3GU1KF0O4JNFMVO5DGGXOAM1N9NBPX&c=365633&tp_c=365633"},{"rt":4842,"stimulus":"\n            <h4 style=\"color:Orange;\">Student 1</h4>\n            <h2>The weight of your coin is <b style=\"color:Tomato;\">0.2</b>.</h2>\n            <p>In this block, you will be giving <b>two</b> sets of examples to Student 1.</p>\n                <p>You will receive feedback at the end of the block.</p>\n            <p></p>","response":0,"trial_type":"html-button-response","trial_index":6,"time_elapsed":136775,"internal_node_id":"0.0-5.0","params":{"nStudents":24,"maxFlips":25,"completionMinutes":45,"basePay":8,"maxBonus":9,"perTrialBonus":0.5,"perTrialBonusThreshold":0.05,"exampleCost":0.02},"classroomParams":{"A":{"a":1,"b":4},"B":{"a":4,"b":1},"C":{"a":2,"b":8},"D":{"a":8,"b":2}},"conditions":["nonSeqFull","nonSeqPartial","seqNoFeedback","seqFeedback"],"classroomPairings":[["A","B"],["C","D"]],"coinWeights":[0.2,0.5,0.8],"subjectId":"A272X64FOZFYLB","assignmentId":"3GU1KF0O4JNFMVO5DGGXOAM1N9NBPX","hitId":"3XUY87HIVP03YZXVLN9CW37DVI1MM2","url":"https://gershmanlab.com/experiments/alicia/teaching/experiment/?hitId=3XUY87HIVP03YZXVLN9CW37DVI1MM2&workerId=A272X64FOZFYLB&assignmentId=3GU1KF0O4JNFMVO5DGGXOAM1N9NBPX&a=OKUG3&tp_a=OKUG3&b=3GU1KF0O4JNFMVO5DGGXOAM1N9NBPX&tp_b=3GU1KF0O4JNFMVO5DGGXOAM1N9NBPX&c=365633&tp_c=365633"},{"rt":44776,"response":{"heads":"2","tails":"8"},"type":"response","condition":"seqNoFeedback","trueTheta":0.2,"classrooms":["C","D"],"studentTrueClassroom":"C","exampleSet":"first","trial_type":"survey-html-form","trial_index":7,"time_elapsed":181552,"internal_node_id":"0.0-6.0-0.0","params":{"nStudents":24,"maxFlips":25,"completionMinutes":45,"basePay":8,"maxBonus":9,"perTrialBonus":0.5,"perTrialBonusThreshold":0.05,"exampleCost":0.02},"classroomParams":{"A":{"a":1,"b":4},"B":{"a":4,"b":1},"C":{"a":2,"b":8},"D":{"a":8,"b":2}},"conditions":["nonSeqFull","nonSeqPartial","seqNoFeedback","seqFeedback"],"classroomPairings":[["A","B"],["C","D"]],"coinWeights":[0.2,0.5,0.8],"subjectId":"A272X64FOZFYLB","assignmentId":"3GU1KF0O4JNFMVO5DGGXOAM1N9NBPX","hitId":"3XUY87HIVP03YZXVLN9CW37DVI1MM2","url":"https://gershmanlab.com/experiments/alicia/teaching/experiment/?hitId=3XUY87HIVP03YZXVLN9CW37DVI1MM2&workerId=A272X64FOZFYLB&assignmentId=3GU1KF0O4JNFMVO5DGGXOAM1N9NBPX&a=OKUG3&tp_a=OKUG3&b=3GU1KF0O4JNFMVO5DGGXOAM1N9NBPX&tp_b=3GU1KF0O4JNFMVO5DGGXOAM1N9NBPX&c=365633&tp_c=365633","heads":2,"tails":8,"studentIndex":0,"studentTrueHypers":{"a":2,"b":8},"studentGuess":0.2,"delta":0,"totalExamples":10,"bonusSoFar":0},{"rt":null,"stimulus":"Sending examples to student... ","response":null,"trial_type":"html-keyboard-response","trial_index":8,"time_elapsed":183563,"internal_node_id":"0.0-7.0","params":{"nStudents":24,"maxFlips":25,"completionMinutes":45,"basePay":8,"maxBonus":9,"perTrialBonus":0.5,"perTrialBonusThreshold":0.05,"exampleCost":0.02},"classroomParams":{"A":{"a":1,"b":4},"B":{"a":4,"b":1},"C":{"a":2,"b":8},"D":{"a":8,"b":2}},"conditions":["nonSeqFull","nonSeqPartial","seqNoFeedback","seqFeedback"],"classroomPairings":[["A","B"],["C","D"]],"coinWeights":[0.2,0.5,0.8],"subjectId":"A272X64FOZFYLB","assignmentId":"3GU1KF0O4JNFMVO5DGGXOAM1N9NBPX","hitId":"3XUY87HIVP03YZXVLN9CW37DVI1MM2","url":"https://gershmanlab.com/experiments/alicia/teaching/experiment/?hitId=3XUY87HIVP03YZXVLN9CW37DVI1MM2&workerId=A272X64FOZFYLB&assignmentId=3GU1KF0O4JNFMVO5DGGXOAM1N9NBPX&a=OKUG3&tp_a=OKUG3&b=3GU1KF0O4JNFMVO5DGGXOAM1N9NBPX&tp_b=3GU1KF0O4JNFMVO5DGGXOAM1N9NBPX&c=365633&tp_c=365633"},{"rt":null,"stimulus":"Examples sent to student! Waiting for student...","response":null,"trial_type":"html-keyboard-response","trial_index":9,"time_elapsed":189571,"internal_node_id":"0.0-8.0","params":{"nStudents":24,"maxFlips":25,"completionMinutes":45,"basePay":8,"maxBonus":9,"perTrialBonus":0.5,"perTrialBonusThreshold":0.05,"exampleCost":0.02},"classroomParams":{"A":{"a":1,"b":4},"B":{"a":4,"b":1},"C":{"a":2,"b":8},"D":{"a":8,"b":2}},"conditions":["nonSeqFull","nonSeqPartial","seqNoFeedback","seqFeedback"],"classroomPairings":[["A","B"],["C","D"]],"coinWeights":[0.2,0.5,0.8],"subjectId":"A272X64FOZFYLB","assignmentId":"3GU1KF0O4JNFMVO5DGGXOAM1N9NBPX","hitId":"3XUY87HIVP03YZXVLN9CW37DVI1MM2","url":"https://gershmanlab.com/experiments/alicia/teaching/experiment/?hitId=3XUY87HIVP03YZXVLN9CW37DVI1MM2&workerId=A272X64FOZFYLB&assignmentId=3GU1KF0O4JNFMVO5DGGXOAM1N9NBPX&a=OKUG3&tp_a=OKUG3&b=3GU1KF0O4JNFMVO5DGGXOAM1N9NBPX&tp_b=3GU1KF0O4JNFMVO5DGGXOAM1N9NBPX&c=365633&tp_c=365633"},{"rt":13607,"response":{"heads":"0","tails":"0"},"type":"response","condition":"seqNoFeedback","trueTheta":0.2,"classrooms":["C","D"],"studentTrueClassroom":"C","exampleSet":"second","trial_type":"survey-html-form","trial_index":10,"time_elapsed":203179,"internal_node_id":"0.0-9.0-0.0","params":{"nStudents":24,"maxFlips":25,"completionMinutes":45,"basePay":8,"maxBonus":9,"perTrialBonus":0.5,"perTrialBonusThreshold":0.05,"exampleCost":0.02},"classroomParams":{"A":{"a":1,"b":4},"B":{"a":4,"b":1},"C":{"a":2,"b":8},"D":{"a":8,"b":2}},"conditions":["nonSeqFull","nonSeqPartial","seqNoFeedback","seqFeedback"],"classroomPairings":[["A","B"],["C","D"]],"coinWeights":[0.2,0.5,0.8],"subjectId":"A272X64FOZFYLB","assignmentId":"3GU1KF0O4JNFMVO5DGGXOAM1N9NBPX","hitId":"3XUY87HIVP03YZXVLN9CW37DVI1MM2","url":"https://gershmanlab.com/experiments/alicia/teaching/experiment/?hitId=3XUY87HIVP03YZXVLN9CW37DVI1MM2&workerId=A272X64FOZFYLB&assignmentId=3GU1KF0O4JNFMVO5DGGXOAM1N9NBPX&a=OKUG3&tp_a=OKUG3&b=3GU1KF0O4JNFMVO5DGGXOAM1N9NBPX&tp_b=3GU1KF0O4JNFMVO5DGGXOAM1N9NBPX&c=365633&tp_c=365633","firstResponseHeads":2,"firstResponseTails":8,"secondResponseHeads":0,"secondResponseTails":0,"totalHeads":2,"totalTails":8,"studentIndex":0,"studentTrueHypers":{"a":2,"b":8},"studentGuess":0.2,"delta":0,"bonus":0.3,"bonusSoFar":0.3,"totalExamples":10},{"rt":6067,"response":{"heads":"0","tails":"0"},"type":"response","condition":"seqNoFeedback","trueTheta":0.2,"classrooms":["C","D"],"studentTrueClassroom":"C","exampleSet":"second","trial_type":"survey-html-form","trial_index":11,"time_elapsed":209248,"internal_node_id":"0.0-9.1-0.1","params":{"nStudents":24,"maxFlips":25,"completionMinutes":45,"basePay":8,"maxBonus":9,"perTrialBonus":0.5,"perTrialBonusThreshold":0.05,"exampleCost":0.02},"classroomParams":{"A":{"a":1,"b":4},"B":{"a":4,"b":1},"C":{"a":2,"b":8},"D":{"a":8,"b":2}},"conditions":["nonSeqFull","nonSeqPartial","seqNoFeedback","seqFeedback"],"classroomPairings":[["A","B"],["C","D"]],"coinWeights":[0.2,0.5,0.8],"subjectId":"A272X64FOZFYLB","assignmentId":"3GU1KF0O4JNFMVO5DGGXOAM1N9NBPX","hitId":"3XUY87HIVP03YZXVLN9CW37DVI1MM2","url":"https://gershmanlab.com/experiments/alicia/teaching/experiment/?hitId=3XUY87HIVP03YZXVLN9CW37DVI1MM2&workerId=A272X64FOZFYLB&assignmentId=3GU1KF0O4JNFMVO5DGGXOAM1N9NBPX&a=OKUG3&tp_a=OKUG3&b=3GU1KF0O4JNFMVO5DGGXOAM1N9NBPX&tp_b=3GU1KF0O4JNFMVO5DGGXOAM1N9NBPX&c=365633&tp_c=365633","firstResponseHeads":2,"firstResponseTails":8,"secondResponseHeads":0,"secondResponseTails":0,"totalHeads":2,"totalTails":8,"studentIndex":0,"studentTrueHypers":{"a":2,"b":8},"studentGuess":0.2,"delta":0,"bonus":0.3,"bonusSoFar":0.6,"totalExamples":10},{"rt":6463,"response":{"heads":"2","tails":"8"},"type":"response","condition":"seqNoFeedback","trueTheta":0.2,"classrooms":["C","D"],"studentTrueClassroom":"C","exampleSet":"second","trial_type":"survey-html-form","trial_index":12,"time_elapsed":215712,"internal_node_id":"0.0-9.2-0.2","params":{"nStudents":24,"maxFlips":25,"completionMinutes":45,"basePay":8,"maxBonus":9,"perTrialBonus":0.5,"perTrialBonusThreshold":0.05,"exampleCost":0.02},"classroomParams":{"A":{"a":1,"b":4},"B":{"a":4,"b":1},"C":{"a":2,"b":8},"D":{"a":8,"b":2}},"conditions":["nonSeqFull","nonSeqPartial","seqNoFeedback","seqFeedback"],"classroomPairings":[["A","B"],["C","D"]],"coinWeights":[0.2,0.5,0.8],"subjectId":"A272X64FOZFYLB","assignmentId":"3GU1KF0O4JNFMVO5DGGXOAM1N9NBPX","hitId":"3XUY87HIVP03YZXVLN9CW37DVI1MM2","url":"https://gershmanlab.com/experiments/alicia/teaching/experiment/?hitId=3XUY87HIVP03YZXVLN9CW37DVI1MM2&workerId=A272X64FOZFYLB&assignmentId=3GU1KF0O4JNFMVO5DGGXOAM1N9NBPX&a=OKUG3&tp_a=OKUG3&b=3GU1KF0O4JNFMVO5DGGXOAM1N9NBPX&tp_b=3GU1KF0O4JNFMVO5DGGXOAM1N9NBPX&c=365633&tp_c=365633","firstResponseHeads":2,"firstResponseTails":8,"secondResponseHeads":2,"secondResponseTails":8,"totalHeads":4,"totalTails":16,"studentIndex":0,"studentTrueHypers":{"a":2,"b":8},"studentGuess":0.2,"delta":0,"bonus":0.1,"bonusSoFar":0.7,"totalExamples":20},{"rt":null,"stimulus":"Sending examples to student... ","response":null,"trial_type":"html-keyboard-response","trial_index":13,"time_elapsed":217219,"internal_node_id":"0.0-10.0","params":{"nStudents":24,"maxFlips":25,"completionMinutes":45,"basePay":8,"maxBonus":9,"perTrialBonus":0.5,"perTrialBonusThreshold":0.05,"exampleCost":0.02},"classroomParams":{"A":{"a":1,"b":4},"B":{"a":4,"b":1},"C":{"a":2,"b":8},"D":{"a":8,"b":2}},"conditions":["nonSeqFull","nonSeqPartial","seqNoFeedback","seqFeedback"],"classroomPairings":[["A","B"],["C","D"]],"coinWeights":[0.2,0.5,0.8],"subjectId":"A272X64FOZFYLB","assignmentId":"3GU1KF0O4JNFMVO5DGGXOAM1N9NBPX","hitId":"3XUY87HIVP03YZXVLN9CW37DVI1MM2","url":"https://gershmanlab.com/experiments/alicia/teaching/experiment/?hitId=3XUY87HIVP03YZXVLN9CW37DVI1MM2&workerId=A272X64FOZFYLB&assignmentId=3GU1KF0O4JNFMVO5DGGXOAM1N9NBPX&a=OKUG3&tp_a=OKUG3&b=3GU1KF0O4JNFMVO5DGGXOAM1N9NBPX&tp_b=3GU1KF0O4JNFMVO5DGGXOAM1N9NBPX&c=365633&tp_c=365633"},{"rt":null,"stimulus":"Examples sent to student! Waiting for student...","response":null,"trial_type":"html-keyboard-response","trial_index":14,"time_elapsed":221234,"internal_node_id":"0.0-11.0","params":{"nStudents":24,"maxFlips":25,"completionMinutes":45,"basePay":8,"maxBonus":9,"perTrialBonus":0.5,"perTrialBonusThreshold":0.05,"exampleCost":0.02},"classroomParams":{"A":{"a":1,"b":4},"B":{"a":4,"b":1},"C":{"a":2,"b":8},"D":{"a":8,"b":2}},"conditions":["nonSeqFull","nonSeqPartial","seqNoFeedback","seqFeedback"],"classroomPairings":[["A","B"],["C","D"]],"coinWeights":[0.2,0.5,0.8],"subjectId":"A272X64FOZFYLB","assignmentId":"3GU1KF0O4JNFMVO5DGGXOAM1N9NBPX","hitId":"3XUY87HIVP03YZXVLN9CW37DVI1MM2","url":"https://gershmanlab.com/experiments/alicia/teaching/experiment/?hitId=3XUY87HIVP03YZXVLN9CW37DVI1MM2&workerId=A272X64FOZFYLB&assignmentId=3GU1KF0O4JNFMVO5DGGXOAM1N9NBPX&a=OKUG3&tp_a=OKUG3&b=3GU1KF0O4JNFMVO5DGGXOAM1N9NBPX&tp_b=3GU1KF0O4JNFMVO5DGGXOAM1N9NBPX&c=365633&tp_c=365633"},{"rt":3436,"stimulus":"\n                <p>Student 1's first guess for coin weight: <b style=\"color:Tomato\";>0.20</b></p>\n                <p>Student 1's second guess for coin weight: <b style=\"color:Tomato\";>0.20</b></p>\n                <p>You received a bonus of <b>$0.30</b> based on the student's second guess.</p>\n                <p>Total bonus so far: <b>$0.70</b></p>\n                <p>Press any key to continue.</p>\n                ","response":"d","trial_type":"html-keyboard-response","trial_index":15,"time_elapsed":224671,"internal_node_id":"0.0-12.0","params":{"nStudents":24,"maxFlips":25,"completionMinutes":45,"basePay":8,"maxBonus":9,"perTrialBonus":0.5,"perTrialBonusThreshold":0.05,"exampleCost":0.02},"classroomParams":{"A":{"a":1,"b":4},"B":{"a":4,"b":1},"C":{"a":2,"b":8},"D":{"a":8,"b":2}},"conditions":["nonSeqFull","nonSeqPartial","seqNoFeedback","seqFeedback"],"classroomPairings":[["A","B"],["C","D"]],"coinWeights":[0.2,0.5,0.8],"subjectId":"A272X64FOZFYLB","assignmentId":"3GU1KF0O4JNFMVO5DGGXOAM1N9NBPX","hitId":"3XUY87HIVP03YZXVLN9CW37DVI1MM2","url":"https://gershmanlab.com/experiments/alicia/teaching/experiment/?hitId=3XUY87HIVP03YZXVLN9CW37DVI1MM2&workerId=A272X64FOZFYLB&assignmentId=3GU1KF0O4JNFMVO5DGGXOAM1N9NBPX&a=OKUG3&tp_a=OKUG3&b=3GU1KF0O4JNFMVO5DGGXOAM1N9NBPX&tp_b=3GU1KF0O4JNFMVO5DGGXOAM1N9NBPX&c=365633&tp_c=365633"},{"rt":null,"stimulus":"<div style=\"font-size:60px;\">Next student</div>","response":null,"trial_type":"html-keyboard-response","trial_index":16,"time_elapsed":226682,"internal_node_id":"0.0-13.0-0.0","params":{"nStudents":24,"maxFlips":25,"completionMinutes":45,"basePay":8,"maxBonus":9,"perTrialBonus":0.5,"perTrialBonusThreshold":0.05,"exampleCost":0.02},"classroomParams":{"A":{"a":1,"b":4},"B":{"a":4,"b":1},"C":{"a":2,"b":8},"D":{"a":8,"b":2}},"conditions":["nonSeqFull","nonSeqPartial","seqNoFeedback","seqFeedback"],"classroomPairings":[["A","B"],["C","D"]],"coinWeights":[0.2,0.5,0.8],"subjectId":"A272X64FOZFYLB","assignmentId":"3GU1KF0O4JNFMVO5DGGXOAM1N9NBPX","hitId":"3XUY87HIVP03YZXVLN9CW37DVI1MM2","url":"https://gershmanlab.com/experiments/alicia/teaching/experiment/?hitId=3XUY87HIVP03YZXVLN9CW37DVI1MM2&workerId=A272X64FOZFYLB&assignmentId=3GU1KF0O4JNFMVO5DGGXOAM1N9NBPX&a=OKUG3&tp_a=OKUG3&b=3GU1KF0O4JNFMVO5DGGXOAM1N9NBPX&tp_b=3GU1KF0O4JNFMVO5DGGXOAM1N9NBPX&c=365633&tp_c=365633"},{"rt":1868,"stimulus":"\n            <h4 style=\"color:Orange;\">Student 2</h4>\n            <h2>The weight of your coin is <b style=\"color:Tomato;\">0.2</b>.</h2>\n            <p>In this block, you will be giving <b>one</b> set of examples to Student 2.</p>\n                <p>You will receive feedback at the end of the block.</p>\n            <p></p>","response":0,"trial_type":"html-button-response","trial_index":17,"time_elapsed":228552,"internal_node_id":"0.0-14.0","params":{"nStudents":24,"maxFlips":25,"completionMinutes":45,"basePay":8,"maxBonus":9,"perTrialBonus":0.5,"perTrialBonusThreshold":0.05,"exampleCost":0.02},"classroomParams":{"A":{"a":1,"b":4},"B":{"a":4,"b":1},"C":{"a":2,"b":8},"D":{"a":8,"b":2}},"conditions":["nonSeqFull","nonSeqPartial","seqNoFeedback","seqFeedback"],"classroomPairings":[["A","B"],["C","D"]],"coinWeights":[0.2,0.5,0.8],"subjectId":"A272X64FOZFYLB","assignmentId":"3GU1KF0O4JNFMVO5DGGXOAM1N9NBPX","hitId":"3XUY87HIVP03YZXVLN9CW37DVI1MM2","url":"https://gershmanlab.com/experiments/alicia/teaching/experiment/?hitId=3XUY87HIVP03YZXVLN9CW37DVI1MM2&workerId=A272X64FOZFYLB&assignmentId=3GU1KF0O4JNFMVO5DGGXOAM1N9NBPX&a=OKUG3&tp_a=OKUG3&b=3GU1KF0O4JNFMVO5DGGXOAM1N9NBPX&tp_b=3GU1KF0O4JNFMVO5DGGXOAM1N9NBPX&c=365633&tp_c=365633"},{"rt":17215,"response":{"heads":"1","tails":"4"},"type":"response","condition":"nonSeqFull","trueTheta":0.2,"classrooms":["A","B"],"studentTrueClassroom":"A","exampleSet":"first","trial_type":"survey-html-form","trial_index":18,"time_elapsed":245767,"internal_node_id":"0.0-15.0-0.0","params":{"nStudents":24,"maxFlips":25,"completionMinutes":45,"basePay":8,"maxBonus":9,"perTrialBonus":0.5,"perTrialBonusThreshold":0.05,"exampleCost":0.02},"classroomParams":{"A":{"a":1,"b":4},"B":{"a":4,"b":1},"C":{"a":2,"b":8},"D":{"a":8,"b":2}},"conditions":["nonSeqFull","nonSeqPartial","seqNoFeedback","seqFeedback"],"classroomPairings":[["A","B"],["C","D"]],"coinWeights":[0.2,0.5,0.8],"subjectId":"A272X64FOZFYLB","assignmentId":"3GU1KF0O4JNFMVO5DGGXOAM1N9NBPX","hitId":"3XUY87HIVP03YZXVLN9CW37DVI1MM2","url":"https://gershmanlab.com/experiments/alicia/teaching/experiment/?hitId=3XUY87HIVP03YZXVLN9CW37DVI1MM2&workerId=A272X64FOZFYLB&assignmentId=3GU1KF0O4JNFMVO5DGGXOAM1N9NBPX&a=OKUG3&tp_a=OKUG3&b=3GU1KF0O4JNFMVO5DGGXOAM1N9NBPX&tp_b=3GU1KF0O4JNFMVO5DGGXOAM1N9NBPX&c=365633&tp_c=365633","heads":1,"tails":4,"studentIndex":1,"studentTrueHypers":{"a":1,"b":4},"studentGuess":0.2,"delta":0,"totalExamples":5,"bonus":0.4,"bonusSoFar":1.1},{"rt":null,"stimulus":"Sending examples to student... ","response":null,"trial_type":"html-keyboard-response","trial_index":19,"time_elapsed":247283,"internal_node_id":"0.0-16.0","params":{"nStudents":24,"maxFlips":25,"completionMinutes":45,"basePay":8,"maxBonus":9,"perTrialBonus":0.5,"perTrialBonusThreshold":0.05,"exampleCost":0.02},"classroomParams":{"A":{"a":1,"b":4},"B":{"a":4,"b":1},"C":{"a":2,"b":8},"D":{"a":8,"b":2}},"conditions":["nonSeqFull","nonSeqPartial","seqNoFeedback","seqFeedback"],"classroomPairings":[["A","B"],["C","D"]],"coinWeights":[0.2,0.5,0.8],"subjectId":"A272X64FOZFYLB","assignmentId":"3GU1KF0O4JNFMVO5DGGXOAM1N9NBPX","hitId":"3XUY87HIVP03YZXVLN9CW37DVI1MM2","url":"https://gershmanlab.com/experiments/alicia/teaching/experiment/?hitId=3XUY87HIVP03YZXVLN9CW37DVI1MM2&workerId=A272X64FOZFYLB&assignmentId=3GU1KF0O4JNFMVO5DGGXOAM1N9NBPX&a=OKUG3&tp_a=OKUG3&b=3GU1KF0O4JNFMVO5DGGXOAM1N9NBPX&tp_b=3GU1KF0O4JNFMVO5DGGXOAM1N9NBPX&c=365633&tp_c=365633"},{"rt":null,"stimulus":"Examples sent to student! Waiting for student...","response":null,"trial_type":"html-keyboard-response","trial_index":20,"time_elapsed":252300,"internal_node_id":"0.0-17.0","params":{"nStudents":24,"maxFlips":25,"completionMinutes":45,"basePay":8,"maxBonus":9,"perTrialBonus":0.5,"perTrialBonusThreshold":0.05,"exampleCost":0.02},"classroomParams":{"A":{"a":1,"b":4},"B":{"a":4,"b":1},"C":{"a":2,"b":8},"D":{"a":8,"b":2}},"conditions":["nonSeqFull","nonSeqPartial","seqNoFeedback","seqFeedback"],"classroomPairings":[["A","B"],["C","D"]],"coinWeights":[0.2,0.5,0.8],"subjectId":"A272X64FOZFYLB","assignmentId":"3GU1KF0O4JNFMVO5DGGXOAM1N9NBPX","hitId":"3XUY87HIVP03YZXVLN9CW37DVI1MM2","url":"https://gershmanlab.com/experiments/alicia/teaching/experiment/?hitId=3XUY87HIVP03YZXVLN9CW37DVI1MM2&workerId=A272X64FOZFYLB&assignmentId=3GU1KF0O4JNFMVO5DGGXOAM1N9NBPX&a=OKUG3&tp_a=OKUG3&b=3GU1KF0O4JNFMVO5DGGXOAM1N9NBPX&tp_b=3GU1KF0O4JNFMVO5DGGXOAM1N9NBPX&c=365633&tp_c=365633"},{"rt":2506,"stimulus":"\n                <p>Student's guess for coin weight: <b style=\"color:Tomato;\">0.20</b></p>\n                <p>You received a bonus of <b>$0.4</b>. Total bonus so far: <b>$1.10</b></b></p>\n                <p></p>\n                <p>Press any key to continue.</p>\n                ","response":"k","trial_type":"html-keyboard-response","trial_index":21,"time_elapsed":254807,"internal_node_id":"0.0-18.0","params":{"nStudents":24,"maxFlips":25,"completionMinutes":45,"basePay":8,"maxBonus":9,"perTrialBonus":0.5,"perTrialBonusThreshold":0.05,"exampleCost":0.02},"classroomParams":{"A":{"a":1,"b":4},"B":{"a":4,"b":1},"C":{"a":2,"b":8},"D":{"a":8,"b":2}},"conditions":["nonSeqFull","nonSeqPartial","seqNoFeedback","seqFeedback"],"classroomPairings":[["A","B"],["C","D"]],"coinWeights":[0.2,0.5,0.8],"subjectId":"A272X64FOZFYLB","assignmentId":"3GU1KF0O4JNFMVO5DGGXOAM1N9NBPX","hitId":"3XUY87HIVP03YZXVLN9CW37DVI1MM2","url":"https://gershmanlab.com/experiments/alicia/teaching/experiment/?hitId=3XUY87HIVP03YZXVLN9CW37DVI1MM2&workerId=A272X64FOZFYLB&assignmentId=3GU1KF0O4JNFMVO5DGGXOAM1N9NBPX&a=OKUG3&tp_a=OKUG3&b=3GU1KF0O4JNFMVO5DGGXOAM1N9NBPX&tp_b=3GU1KF0O4JNFMVO5DGGXOAM1N9NBPX&c=365633&tp_c=365633"},{"rt":null,"stimulus":"<div style=\"font-size:60px;\">Next student</div>","response":null,"trial_type":"html-keyboard-response","trial_index":22,"time_elapsed":257313,"internal_node_id":"0.0-19.0-0.0","params":{"nStudents":24,"maxFlips":25,"completionMinutes":45,"basePay":8,"maxBonus":9,"perTrialBonus":0.5,"perTrialBonusThreshold":0.05,"exampleCost":0.02},"classroomParams":{"A":{"a":1,"b":4},"B":{"a":4,"b":1},"C":{"a":2,"b":8},"D":{"a":8,"b":2}},"conditions":["nonSeqFull","nonSeqPartial","seqNoFeedback","seqFeedback"],"classroomPairings":[["A","B"],["C","D"]],"coinWeights":[0.2,0.5,0.8],"subjectId":"A272X64FOZFYLB","assignmentId":"3GU1KF0O4JNFMVO5DGGXOAM1N9NBPX","hitId":"3XUY87HIVP03YZXVLN9CW37DVI1MM2","url":"https://gershmanlab.com/experiments/alicia/teaching/experiment/?hitId=3XUY87HIVP03YZXVLN9CW37DVI1MM2&workerId=A272X64FOZFYLB&assignmentId=3GU1KF0O4JNFMVO5DGGXOAM1N9NBPX&a=OKUG3&tp_a=OKUG3&b=3GU1KF0O4JNFMVO5DGGXOAM1N9NBPX&tp_b=3GU1KF0O4JNFMVO5DGGXOAM1N9NBPX&c=365633&tp_c=365633"},{"rt":8501,"stimulus":"\n            <h4 style=\"color:Orange;\">Student 3</h4>\n            <h2>The weight of your coin is <b style=\"color:Tomato;\">0.8</b>.</h2>\n            <p>In this block, you will be giving <b>two</b> sets of examples to Student 3.</p>\n                <p>You will see the student's guess after the first set of examples. You will also receive feedback at the end of the block.</p>\n            <p>To earn the highest bonus, you will have to <b>take into consideration the student's guess</b> when you choose your second set of examples.</p>","response":0,"trial_type":"html-button-response","trial_index":23,"time_elapsed":265815,"internal_node_id":"0.0-20.0","params":{"nStudents":24,"maxFlips":25,"completionMinutes":45,"basePay":8,"maxBonus":9,"perTrialBonus":0.5,"perTrialBonusThreshold":0.05,"exampleCost":0.02},"classroomParams":{"A":{"a":1,"b":4},"B":{"a":4,"b":1},"C":{"a":2,"b":8},"D":{"a":8,"b":2}},"conditions":["nonSeqFull","nonSeqPartial","seqNoFeedback","seqFeedback"],"classroomPairings":[["A","B"],["C","D"]],"coinWeights":[0.2,0.5,0.8],"subjectId":"A272X64FOZFYLB","assignmentId":"3GU1KF0O4JNFMVO5DGGXOAM1N9NBPX","hitId":"3XUY87HIVP03YZXVLN9CW37DVI1MM2","url":"https://gershmanlab.com/experiments/alicia/teaching/experiment/?hitId=3XUY87HIVP03YZXVLN9CW37DVI1MM2&workerId=A272X64FOZFYLB&assignmentId=3GU1KF0O4JNFMVO5DGGXOAM1N9NBPX&a=OKUG3&tp_a=OKUG3&b=3GU1KF0O4JNFMVO5DGGXOAM1N9NBPX&tp_b=3GU1KF0O4JNFMVO5DGGXOAM1N9NBPX&c=365633&tp_c=365633"},{"rt":13263,"response":{"heads":"8","tails":"2"},"type":"response","condition":"seqFeedback","trueTheta":0.8,"classrooms":["C","D"],"studentTrueClassroom":"D","exampleSet":"first","trial_type":"survey-html-form","trial_index":24,"time_elapsed":279079,"internal_node_id":"0.0-21.0-0.0","params":{"nStudents":24,"maxFlips":25,"completionMinutes":45,"basePay":8,"maxBonus":9,"perTrialBonus":0.5,"perTrialBonusThreshold":0.05,"exampleCost":0.02},"classroomParams":{"A":{"a":1,"b":4},"B":{"a":4,"b":1},"C":{"a":2,"b":8},"D":{"a":8,"b":2}},"conditions":["nonSeqFull","nonSeqPartial","seqNoFeedback","seqFeedback"],"classroomPairings":[["A","B"],["C","D"]],"coinWeights":[0.2,0.5,0.8],"subjectId":"A272X64FOZFYLB","assignmentId":"3GU1KF0O4JNFMVO5DGGXOAM1N9NBPX","hitId":"3XUY87HIVP03YZXVLN9CW37DVI1MM2","url":"https://gershmanlab.com/experiments/alicia/teaching/experiment/?hitId=3XUY87HIVP03YZXVLN9CW37DVI1MM2&workerId=A272X64FOZFYLB&assignmentId=3GU1KF0O4JNFMVO5DGGXOAM1N9NBPX&a=OKUG3&tp_a=OKUG3&b=3GU1KF0O4JNFMVO5DGGXOAM1N9NBPX&tp_b=3GU1KF0O4JNFMVO5DGGXOAM1N9NBPX&c=365633&tp_c=365633","heads":8,"tails":2,"studentIndex":2,"studentTrueHypers":{"a":8,"b":2},"studentGuess":0.8,"delta":0,"totalExamples":10,"bonusSoFar":1.1},{"rt":null,"stimulus":"Sending examples to student... ","response":null,"trial_type":"html-keyboard-response","trial_index":25,"time_elapsed":281089,"internal_node_id":"0.0-22.0","params":{"nStudents":24,"maxFlips":25,"completionMinutes":45,"basePay":8,"maxBonus":9,"perTrialBonus":0.5,"perTrialBonusThreshold":0.05,"exampleCost":0.02},"classroomParams":{"A":{"a":1,"b":4},"B":{"a":4,"b":1},"C":{"a":2,"b":8},"D":{"a":8,"b":2}},"conditions":["nonSeqFull","nonSeqPartial","seqNoFeedback","seqFeedback"],"classroomPairings":[["A","B"],["C","D"]],"coinWeights":[0.2,0.5,0.8],"subjectId":"A272X64FOZFYLB","assignmentId":"3GU1KF0O4JNFMVO5DGGXOAM1N9NBPX","hitId":"3XUY87HIVP03YZXVLN9CW37DVI1MM2","url":"https://gershmanlab.com/experiments/alicia/teaching/experiment/?hitId=3XUY87HIVP03YZXVLN9CW37DVI1MM2&workerId=A272X64FOZFYLB&assignmentId=3GU1KF0O4JNFMVO5DGGXOAM1N9NBPX&a=OKUG3&tp_a=OKUG3&b=3GU1KF0O4JNFMVO5DGGXOAM1N9NBPX&tp_b=3GU1KF0O4JNFMVO5DGGXOAM1N9NBPX&c=365633&tp_c=365633"},{"rt":null,"stimulus":"Examples sent to student! Waiting for student...","response":null,"trial_type":"html-keyboard-response","trial_index":26,"time_elapsed":286598,"internal_node_id":"0.0-23.0","params":{"nStudents":24,"maxFlips":25,"completionMinutes":45,"basePay":8,"maxBonus":9,"perTrialBonus":0.5,"perTrialBonusThreshold":0.05,"exampleCost":0.02},"classroomParams":{"A":{"a":1,"b":4},"B":{"a":4,"b":1},"C":{"a":2,"b":8},"D":{"a":8,"b":2}},"conditions":["nonSeqFull","nonSeqPartial","seqNoFeedback","seqFeedback"],"classroomPairings":[["A","B"],["C","D"]],"coinWeights":[0.2,0.5,0.8],"subjectId":"A272X64FOZFYLB","assignmentId":"3GU1KF0O4JNFMVO5DGGXOAM1N9NBPX","hitId":"3XUY87HIVP03YZXVLN9CW37DVI1MM2","url":"https://gershmanlab.com/experiments/alicia/teaching/experiment/?hitId=3XUY87HIVP03YZXVLN9CW37DVI1MM2&workerId=A272X64FOZFYLB&assignmentId=3GU1KF0O4JNFMVO5DGGXOAM1N9NBPX&a=OKUG3&tp_a=OKUG3&b=3GU1KF0O4JNFMVO5DGGXOAM1N9NBPX&tp_b=3GU1KF0O4JNFMVO5DGGXOAM1N9NBPX&c=365633&tp_c=365633"},{"rt":1992,"stimulus":"\n                <p>Student's guess for coin weight: <b style=\"color:Tomato;\">0.80</b></p>\n                <p></b></p>\n                <p>You will now send another set of examples to your student. <b>Remember to take your student's guess into consideration so that you can earn the highest bonus possible!</b> </p>\n                <p>Press any key to continue.</p>\n                ","response":"s","trial_type":"html-keyboard-response","trial_index":27,"time_elapsed":288591,"internal_node_id":"0.0-24.0","params":{"nStudents":24,"maxFlips":25,"completionMinutes":45,"basePay":8,"maxBonus":9,"perTrialBonus":0.5,"perTrialBonusThreshold":0.05,"exampleCost":0.02},"classroomParams":{"A":{"a":1,"b":4},"B":{"a":4,"b":1},"C":{"a":2,"b":8},"D":{"a":8,"b":2}},"conditions":["nonSeqFull","nonSeqPartial","seqNoFeedback","seqFeedback"],"classroomPairings":[["A","B"],["C","D"]],"coinWeights":[0.2,0.5,0.8],"subjectId":"A272X64FOZFYLB","assignmentId":"3GU1KF0O4JNFMVO5DGGXOAM1N9NBPX","hitId":"3XUY87HIVP03YZXVLN9CW37DVI1MM2","url":"https://gershmanlab.com/experiments/alicia/teaching/experiment/?hitId=3XUY87HIVP03YZXVLN9CW37DVI1MM2&workerId=A272X64FOZFYLB&assignmentId=3GU1KF0O4JNFMVO5DGGXOAM1N9NBPX&a=OKUG3&tp_a=OKUG3&b=3GU1KF0O4JNFMVO5DGGXOAM1N9NBPX&tp_b=3GU1KF0O4JNFMVO5DGGXOAM1N9NBPX&c=365633&tp_c=365633"},{"rt":13015,"response":{"heads":"8","tails":"2"},"type":"response","condition":"seqFeedback","trueTheta":0.8,"classrooms":["C","D"],"studentTrueClassroom":"D","exampleSet":"second","trial_type":"survey-html-form","trial_index":28,"time_elapsed":301607,"internal_node_id":"0.0-25.0-0.0","params":{"nStudents":24,"maxFlips":25,"completionMinutes":45,"basePay":8,"maxBonus":9,"perTrialBonus":0.5,"perTrialBonusThreshold":0.05,"exampleCost":0.02},"classroomParams":{"A":{"a":1,"b":4},"B":{"a":4,"b":1},"C":{"a":2,"b":8},"D":{"a":8,"b":2}},"conditions":["nonSeqFull","nonSeqPartial","seqNoFeedback","seqFeedback"],"classroomPairings":[["A","B"],["C","D"]],"coinWeights":[0.2,0.5,0.8],"subjectId":"A272X64FOZFYLB","assignmentId":"3GU1KF0O4JNFMVO5DGGXOAM1N9NBPX","hitId":"3XUY87HIVP03YZXVLN9CW37DVI1MM2","url":"https://gershmanlab.com/experiments/alicia/teaching/experiment/?hitId=3XUY87HIVP03YZXVLN9CW37DVI1MM2&workerId=A272X64FOZFYLB&assignmentId=3GU1KF0O4JNFMVO5DGGXOAM1N9NBPX&a=OKUG3&tp_a=OKUG3&b=3GU1KF0O4JNFMVO5DGGXOAM1N9NBPX&tp_b=3GU1KF0O4JNFMVO5DGGXOAM1N9NBPX&c=365633&tp_c=365633","firstResponseHeads":8,"firstResponseTails":2,"secondResponseHeads":8,"secondResponseTails":2,"totalHeads":16,"totalTails":4,"studentIndex":2,"studentTrueHypers":{"a":8,"b":2},"studentGuess":0.8,"delta":0,"bonus":0.1,"bonusSoFar":1.2,"totalExamples":20},{"rt":null,"stimulus":"Sending examples to student... ","response":null,"trial_type":"html-keyboard-response","trial_index":29,"time_elapsed":302869,"internal_node_id":"0.0-26.0","params":{"nStudents":24,"maxFlips":25,"completionMinutes":45,"basePay":8,"maxBonus":9,"perTrialBonus":0.5,"perTrialBonusThreshold":0.05,"exampleCost":0.02},"classroomParams":{"A":{"a":1,"b":4},"B":{"a":4,"b":1},"C":{"a":2,"b":8},"D":{"a":8,"b":2}},"conditions":["nonSeqFull","nonSeqPartial","seqNoFeedback","seqFeedback"],"classroomPairings":[["A","B"],["C","D"]],"coinWeights":[0.2,0.5,0.8],"subjectId":"A272X64FOZFYLB","assignmentId":"3GU1KF0O4JNFMVO5DGGXOAM1N9NBPX","hitId":"3XUY87HIVP03YZXVLN9CW37DVI1MM2","url":"https://gershmanlab.com/experiments/alicia/teaching/experiment/?hitId=3XUY87HIVP03YZXVLN9CW37DVI1MM2&workerId=A272X64FOZFYLB&assignmentId=3GU1KF0O4JNFMVO5DGGXOAM1N9NBPX&a=OKUG3&tp_a=OKUG3&b=3GU1KF0O4JNFMVO5DGGXOAM1N9NBPX&tp_b=3GU1KF0O4JNFMVO5DGGXOAM1N9NBPX&c=365633&tp_c=365633"},{"rt":null,"stimulus":"Examples sent to student! Waiting for student...","response":null,"trial_type":"html-keyboard-response","trial_index":30,"time_elapsed":308870,"internal_node_id":"0.0-27.0","params":{"nStudents":24,"maxFlips":25,"completionMinutes":45,"basePay":8,"maxBonus":9,"perTrialBonus":0.5,"perTrialBonusThreshold":0.05,"exampleCost":0.02},"classroomParams":{"A":{"a":1,"b":4},"B":{"a":4,"b":1},"C":{"a":2,"b":8},"D":{"a":8,"b":2}},"conditions":["nonSeqFull","nonSeqPartial","seqNoFeedback","seqFeedback"],"classroomPairings":[["A","B"],["C","D"]],"coinWeights":[0.2,0.5,0.8],"subjectId":"A272X64FOZFYLB","assignmentId":"3GU1KF0O4JNFMVO5DGGXOAM1N9NBPX","hitId":"3XUY87HIVP03YZXVLN9CW37DVI1MM2","url":"https://gershmanlab.com/experiments/alicia/teaching/experiment/?hitId=3XUY87HIVP03YZXVLN9CW37DVI1MM2&workerId=A272X64FOZFYLB&assignmentId=3GU1KF0O4JNFMVO5DGGXOAM1N9NBPX&a=OKUG3&tp_a=OKUG3&b=3GU1KF0O4JNFMVO5DGGXOAM1N9NBPX&tp_b=3GU1KF0O4JNFMVO5DGGXOAM1N9NBPX&c=365633&tp_c=365633"},{"rt":2240,"stimulus":"\n                <p>Student 3's first guess for coin weight: <b style=\"color:Tomato\";>0.80</b></p>\n                <p>Student 3's second guess for coin weight: <b style=\"color:Tomato\";>0.80</b></p>\n                <p>You received a bonus of <b>$0.10</b> based on the student's second guess.</p>\n                <p>Total bonus so far: <b>$1.20</b></p>\n                <p>Press any key to continue.</p>\n                ","response":"k","trial_type":"html-keyboard-response","trial_index":31,"time_elapsed":311112,"internal_node_id":"0.0-28.0","params":{"nStudents":24,"maxFlips":25,"completionMinutes":45,"basePay":8,"maxBonus":9,"perTrialBonus":0.5,"perTrialBonusThreshold":0.05,"exampleCost":0.02},"classroomParams":{"A":{"a":1,"b":4},"B":{"a":4,"b":1},"C":{"a":2,"b":8},"D":{"a":8,"b":2}},"conditions":["nonSeqFull","nonSeqPartial","seqNoFeedback","seqFeedback"],"classroomPairings":[["A","B"],["C","D"]],"coinWeights":[0.2,0.5,0.8],"subjectId":"A272X64FOZFYLB","assignmentId":"3GU1KF0O4JNFMVO5DGGXOAM1N9NBPX","hitId":"3XUY87HIVP03YZXVLN9CW37DVI1MM2","url":"https://gershmanlab.com/experiments/alicia/teaching/experiment/?hitId=3XUY87HIVP03YZXVLN9CW37DVI1MM2&workerId=A272X64FOZFYLB&assignmentId=3GU1KF0O4JNFMVO5DGGXOAM1N9NBPX&a=OKUG3&tp_a=OKUG3&b=3GU1KF0O4JNFMVO5DGGXOAM1N9NBPX&tp_b=3GU1KF0O4JNFMVO5DGGXOAM1N9NBPX&c=365633&tp_c=365633"},{"rt":null,"stimulus":"<div style=\"font-size:60px;\">Next student</div>","response":null,"trial_type":"html-keyboard-response","trial_index":32,"time_elapsed":314123,"internal_node_id":"0.0-29.0-0.0","params":{"nStudents":24,"maxFlips":25,"completionMinutes":45,"basePay":8,"maxBonus":9,"perTrialBonus":0.5,"perTrialBonusThreshold":0.05,"exampleCost":0.02},"classroomParams":{"A":{"a":1,"b":4},"B":{"a":4,"b":1},"C":{"a":2,"b":8},"D":{"a":8,"b":2}},"conditions":["nonSeqFull","nonSeqPartial","seqNoFeedback","seqFeedback"],"classroomPairings":[["A","B"],["C","D"]],"coinWeights":[0.2,0.5,0.8],"subjectId":"A272X64FOZFYLB","assignmentId":"3GU1KF0O4JNFMVO5DGGXOAM1N9NBPX","hitId":"3XUY87HIVP03YZXVLN9CW37DVI1MM2","url":"https://gershmanlab.com/experiments/alicia/teaching/experiment/?hitId=3XUY87HIVP03YZXVLN9CW37DVI1MM2&workerId=A272X64FOZFYLB&assignmentId=3GU1KF0O4JNFMVO5DGGXOAM1N9NBPX&a=OKUG3&tp_a=OKUG3&b=3GU1KF0O4JNFMVO5DGGXOAM1N9NBPX&tp_b=3GU1KF0O4JNFMVO5DGGXOAM1N9NBPX&c=365633&tp_c=365633"},{"rt":4108,"stimulus":"\n            <h4 style=\"color:Orange;\">Student 4</h4>\n            <h2>The weight of your coin is <b style=\"color:Tomato;\">0.5</b>.</h2>\n            <p>In this block, you will be giving <b>one</b> set of examples to Student 4.</p>\n                <p>You will receive feedback at the end of the block.</p>\n            <p></p>","response":0,"trial_type":"html-button-response","trial_index":33,"time_elapsed":318232,"internal_node_id":"0.0-30.0","params":{"nStudents":24,"maxFlips":25,"completionMinutes":45,"basePay":8,"maxBonus":9,"perTrialBonus":0.5,"perTrialBonusThreshold":0.05,"exampleCost":0.02},"classroomParams":{"A":{"a":1,"b":4},"B":{"a":4,"b":1},"C":{"a":2,"b":8},"D":{"a":8,"b":2}},"conditions":["nonSeqFull","nonSeqPartial","seqNoFeedback","seqFeedback"],"classroomPairings":[["A","B"],["C","D"]],"coinWeights":[0.2,0.5,0.8],"subjectId":"A272X64FOZFYLB","assignmentId":"3GU1KF0O4JNFMVO5DGGXOAM1N9NBPX","hitId":"3XUY87HIVP03YZXVLN9CW37DVI1MM2","url":"https://gershmanlab.com/experiments/alicia/teaching/experiment/?hitId=3XUY87HIVP03YZXVLN9CW37DVI1MM2&workerId=A272X64FOZFYLB&assignmentId=3GU1KF0O4JNFMVO5DGGXOAM1N9NBPX&a=OKUG3&tp_a=OKUG3&b=3GU1KF0O4JNFMVO5DGGXOAM1N9NBPX&tp_b=3GU1KF0O4JNFMVO5DGGXOAM1N9NBPX&c=365633&tp_c=365633"},{"rt":25111,"response":{"heads":"5","tails":"5"},"type":"response","condition":"nonSeqFull","trueTheta":0.5,"classrooms":["A","B"],"studentTrueClassroom":"A","exampleSet":"first","trial_type":"survey-html-form","trial_index":34,"time_elapsed":343344,"internal_node_id":"0.0-31.0-0.0","params":{"nStudents":24,"maxFlips":25,"completionMinutes":45,"basePay":8,"maxBonus":9,"perTrialBonus":0.5,"perTrialBonusThreshold":0.05,"exampleCost":0.02},"classroomParams":{"A":{"a":1,"b":4},"B":{"a":4,"b":1},"C":{"a":2,"b":8},"D":{"a":8,"b":2}},"conditions":["nonSeqFull","nonSeqPartial","seqNoFeedback","seqFeedback"],"classroomPairings":[["A","B"],["C","D"]],"coinWeights":[0.2,0.5,0.8],"subjectId":"A272X64FOZFYLB","assignmentId":"3GU1KF0O4JNFMVO5DGGXOAM1N9NBPX","hitId":"3XUY87HIVP03YZXVLN9CW37DVI1MM2","url":"https://gershmanlab.com/experiments/alicia/teaching/experiment/?hitId=3XUY87HIVP03YZXVLN9CW37DVI1MM2&workerId=A272X64FOZFYLB&assignmentId=3GU1KF0O4JNFMVO5DGGXOAM1N9NBPX&a=OKUG3&tp_a=OKUG3&b=3GU1KF0O4JNFMVO5DGGXOAM1N9NBPX&tp_b=3GU1KF0O4JNFMVO5DGGXOAM1N9NBPX&c=365633&tp_c=365633","heads":5,"tails":5,"studentIndex":3,"studentTrueHypers":{"a":1,"b":4},"studentGuess":0.4,"delta":0.09999999999999998,"totalExamples":10,"bonus":0,"bonusSoFar":1.2},{"rt":null,"stimulus":"Sending examples to student... ","response":null,"trial_type":"html-keyboard-response","trial_index":35,"time_elapsed":345350,"internal_node_id":"0.0-32.0","params":{"nStudents":24,"maxFlips":25,"completionMinutes":45,"basePay":8,"maxBonus":9,"perTrialBonus":0.5,"perTrialBonusThreshold":0.05,"exampleCost":0.02},"classroomParams":{"A":{"a":1,"b":4},"B":{"a":4,"b":1},"C":{"a":2,"b":8},"D":{"a":8,"b":2}},"conditions":["nonSeqFull","nonSeqPartial","seqNoFeedback","seqFeedback"],"classroomPairings":[["A","B"],["C","D"]],"coinWeights":[0.2,0.5,0.8],"subjectId":"A272X64FOZFYLB","assignmentId":"3GU1KF0O4JNFMVO5DGGXOAM1N9NBPX","hitId":"3XUY87HIVP03YZXVLN9CW37DVI1MM2","url":"https://gershmanlab.com/experiments/alicia/teaching/experiment/?hitId=3XUY87HIVP03YZXVLN9CW37DVI1MM2&workerId=A272X64FOZFYLB&assignmentId=3GU1KF0O4JNFMVO5DGGXOAM1N9NBPX&a=OKUG3&tp_a=OKUG3&b=3GU1KF0O4JNFMVO5DGGXOAM1N9NBPX&tp_b=3GU1KF0O4JNFMVO5DGGXOAM1N9NBPX&c=365633&tp_c=365633"},{"rt":null,"stimulus":"Examples sent to student! Waiting for student...","response":null,"trial_type":"html-keyboard-response","trial_index":36,"time_elapsed":351362,"internal_node_id":"0.0-33.0","params":{"nStudents":24,"maxFlips":25,"completionMinutes":45,"basePay":8,"maxBonus":9,"perTrialBonus":0.5,"perTrialBonusThreshold":0.05,"exampleCost":0.02},"classroomParams":{"A":{"a":1,"b":4},"B":{"a":4,"b":1},"C":{"a":2,"b":8},"D":{"a":8,"b":2}},"conditions":["nonSeqFull","nonSeqPartial","seqNoFeedback","seqFeedback"],"classroomPairings":[["A","B"],["C","D"]],"coinWeights":[0.2,0.5,0.8],"subjectId":"A272X64FOZFYLB","assignmentId":"3GU1KF0O4JNFMVO5DGGXOAM1N9NBPX","hitId":"3XUY87HIVP03YZXVLN9CW37DVI1MM2","url":"https://gershmanlab.com/experiments/alicia/teaching/experiment/?hitId=3XUY87HIVP03YZXVLN9CW37DVI1MM2&workerId=A272X64FOZFYLB&assignmentId=3GU1KF0O4JNFMVO5DGGXOAM1N9NBPX&a=OKUG3&tp_a=OKUG3&b=3GU1KF0O4JNFMVO5DGGXOAM1N9NBPX&tp_b=3GU1KF0O4JNFMVO5DGGXOAM1N9NBPX&c=365633&tp_c=365633"},{"rt":1317,"stimulus":"\n                <p>Student's guess for coin weight: <b style=\"color:Tomato;\">0.40</b></p>\n                <p>You received a bonus of <b>$0</b>. Total bonus so far: <b>$1.20</b></b></p>\n                <p></p>\n                <p>Press any key to continue.</p>\n                ","response":"s","trial_type":"html-keyboard-response","trial_index":37,"time_elapsed":352679,"internal_node_id":"0.0-34.0","params":{"nStudents":24,"maxFlips":25,"completionMinutes":45,"basePay":8,"maxBonus":9,"perTrialBonus":0.5,"perTrialBonusThreshold":0.05,"exampleCost":0.02},"classroomParams":{"A":{"a":1,"b":4},"B":{"a":4,"b":1},"C":{"a":2,"b":8},"D":{"a":8,"b":2}},"conditions":["nonSeqFull","nonSeqPartial","seqNoFeedback","seqFeedback"],"classroomPairings":[["A","B"],["C","D"]],"coinWeights":[0.2,0.5,0.8],"subjectId":"A272X64FOZFYLB","assignmentId":"3GU1KF0O4JNFMVO5DGGXOAM1N9NBPX","hitId":"3XUY87HIVP03YZXVLN9CW37DVI1MM2","url":"https://gershmanlab.com/experiments/alicia/teaching/experiment/?hitId=3XUY87HIVP03YZXVLN9CW37DVI1MM2&workerId=A272X64FOZFYLB&assignmentId=3GU1KF0O4JNFMVO5DGGXOAM1N9NBPX&a=OKUG3&tp_a=OKUG3&b=3GU1KF0O4JNFMVO5DGGXOAM1N9NBPX&tp_b=3GU1KF0O4JNFMVO5DGGXOAM1N9NBPX&c=365633&tp_c=365633"},{"rt":null,"stimulus":"<div style=\"font-size:60px;\">Next student</div>","response":null,"trial_type":"html-keyboard-response","trial_index":38,"time_elapsed":355687,"internal_node_id":"0.0-35.0-0.0","params":{"nStudents":24,"maxFlips":25,"completionMinutes":45,"basePay":8,"maxBonus":9,"perTrialBonus":0.5,"perTrialBonusThreshold":0.05,"exampleCost":0.02},"classroomParams":{"A":{"a":1,"b":4},"B":{"a":4,"b":1},"C":{"a":2,"b":8},"D":{"a":8,"b":2}},"conditions":["nonSeqFull","nonSeqPartial","seqNoFeedback","seqFeedback"],"classroomPairings":[["A","B"],["C","D"]],"coinWeights":[0.2,0.5,0.8],"subjectId":"A272X64FOZFYLB","assignmentId":"3GU1KF0O4JNFMVO5DGGXOAM1N9NBPX","hitId":"3XUY87HIVP03YZXVLN9CW37DVI1MM2","url":"https://gershmanlab.com/experiments/alicia/teaching/experiment/?hitId=3XUY87HIVP03YZXVLN9CW37DVI1MM2&workerId=A272X64FOZFYLB&assignmentId=3GU1KF0O4JNFMVO5DGGXOAM1N9NBPX&a=OKUG3&tp_a=OKUG3&b=3GU1KF0O4JNFMVO5DGGXOAM1N9NBPX&tp_b=3GU1KF0O4JNFMVO5DGGXOAM1N9NBPX&c=365633&tp_c=365633"},{"rt":3976,"stimulus":"\n            <h4 style=\"color:Orange;\">Student 5</h4>\n            <h2>The weight of your coin is <b style=\"color:Tomato;\">0.8</b>.</h2>\n            <p>In this block, you will be giving <b>two</b> sets of examples to Student 5.</p>\n                <p>You will receive feedback at the end of the block.</p>\n            <p></p>","response":0,"trial_type":"html-button-response","trial_index":39,"time_elapsed":359664,"internal_node_id":"0.0-36.0","params":{"nStudents":24,"maxFlips":25,"completionMinutes":45,"basePay":8,"maxBonus":9,"perTrialBonus":0.5,"perTrialBonusThreshold":0.05,"exampleCost":0.02},"classroomParams":{"A":{"a":1,"b":4},"B":{"a":4,"b":1},"C":{"a":2,"b":8},"D":{"a":8,"b":2}},"conditions":["nonSeqFull","nonSeqPartial","seqNoFeedback","seqFeedback"],"classroomPairings":[["A","B"],["C","D"]],"coinWeights":[0.2,0.5,0.8],"subjectId":"A272X64FOZFYLB","assignmentId":"3GU1KF0O4JNFMVO5DGGXOAM1N9NBPX","hitId":"3XUY87HIVP03YZXVLN9CW37DVI1MM2","url":"https://gershmanlab.com/experiments/alicia/teaching/experiment/?hitId=3XUY87HIVP03YZXVLN9CW37DVI1MM2&workerId=A272X64FOZFYLB&assignmentId=3GU1KF0O4JNFMVO5DGGXOAM1N9NBPX&a=OKUG3&tp_a=OKUG3&b=3GU1KF0O4JNFMVO5DGGXOAM1N9NBPX&tp_b=3GU1KF0O4JNFMVO5DGGXOAM1N9NBPX&c=365633&tp_c=365633"},{"rt":7487,"response":{"heads":"8","tails":"2"},"type":"response","condition":"seqNoFeedback","trueTheta":0.8,"classrooms":["C","D"],"studentTrueClassroom":"C","exampleSet":"first","trial_type":"survey-html-form","trial_index":40,"time_elapsed":367152,"internal_node_id":"0.0-37.0-0.0","params":{"nStudents":24,"maxFlips":25,"completionMinutes":45,"basePay":8,"maxBonus":9,"perTrialBonus":0.5,"perTrialBonusThreshold":0.05,"exampleCost":0.02},"classroomParams":{"A":{"a":1,"b":4},"B":{"a":4,"b":1},"C":{"a":2,"b":8},"D":{"a":8,"b":2}},"conditions":["nonSeqFull","nonSeqPartial","seqNoFeedback","seqFeedback"],"classroomPairings":[["A","B"],["C","D"]],"coinWeights":[0.2,0.5,0.8],"subjectId":"A272X64FOZFYLB","assignmentId":"3GU1KF0O4JNFMVO5DGGXOAM1N9NBPX","hitId":"3XUY87HIVP03YZXVLN9CW37DVI1MM2","url":"https://gershmanlab.com/experiments/alicia/teaching/experiment/?hitId=3XUY87HIVP03YZXVLN9CW37DVI1MM2&workerId=A272X64FOZFYLB&assignmentId=3GU1KF0O4JNFMVO5DGGXOAM1N9NBPX&a=OKUG3&tp_a=OKUG3&b=3GU1KF0O4JNFMVO5DGGXOAM1N9NBPX&tp_b=3GU1KF0O4JNFMVO5DGGXOAM1N9NBPX&c=365633&tp_c=365633","heads":8,"tails":2,"studentIndex":4,"studentTrueHypers":{"a":2,"b":8},"studentGuess":0.5,"delta":0.30000000000000004,"totalExamples":10,"bonusSoFar":1.2},{"rt":null,"stimulus":"Sending examples to student... ","response":null,"trial_type":"html-keyboard-response","trial_index":41,"time_elapsed":368665,"internal_node_id":"0.0-38.0","params":{"nStudents":24,"maxFlips":25,"completionMinutes":45,"basePay":8,"maxBonus":9,"perTrialBonus":0.5,"perTrialBonusThreshold":0.05,"exampleCost":0.02},"classroomParams":{"A":{"a":1,"b":4},"B":{"a":4,"b":1},"C":{"a":2,"b":8},"D":{"a":8,"b":2}},"conditions":["nonSeqFull","nonSeqPartial","seqNoFeedback","seqFeedback"],"classroomPairings":[["A","B"],["C","D"]],"coinWeights":[0.2,0.5,0.8],"subjectId":"A272X64FOZFYLB","assignmentId":"3GU1KF0O4JNFMVO5DGGXOAM1N9NBPX","hitId":"3XUY87HIVP03YZXVLN9CW37DVI1MM2","url":"https://gershmanlab.com/experiments/alicia/teaching/experiment/?hitId=3XUY87HIVP03YZXVLN9CW37DVI1MM2&workerId=A272X64FOZFYLB&assignmentId=3GU1KF0O4JNFMVO5DGGXOAM1N9NBPX&a=OKUG3&tp_a=OKUG3&b=3GU1KF0O4JNFMVO5DGGXOAM1N9NBPX&tp_b=3GU1KF0O4JNFMVO5DGGXOAM1N9NBPX&c=365633&tp_c=365633"},{"rt":null,"stimulus":"Examples sent to student! Waiting for student...","response":null,"trial_type":"html-keyboard-response","trial_index":42,"time_elapsed":373175,"internal_node_id":"0.0-39.0","params":{"nStudents":24,"maxFlips":25,"completionMinutes":45,"basePay":8,"maxBonus":9,"perTrialBonus":0.5,"perTrialBonusThreshold":0.05,"exampleCost":0.02},"classroomParams":{"A":{"a":1,"b":4},"B":{"a":4,"b":1},"C":{"a":2,"b":8},"D":{"a":8,"b":2}},"conditions":["nonSeqFull","nonSeqPartial","seqNoFeedback","seqFeedback"],"classroomPairings":[["A","B"],["C","D"]],"coinWeights":[0.2,0.5,0.8],"subjectId":"A272X64FOZFYLB","assignmentId":"3GU1KF0O4JNFMVO5DGGXOAM1N9NBPX","hitId":"3XUY87HIVP03YZXVLN9CW37DVI1MM2","url":"https://gershmanlab.com/experiments/alicia/teaching/experiment/?hitId=3XUY87HIVP03YZXVLN9CW37DVI1MM2&workerId=A272X64FOZFYLB&assignmentId=3GU1KF0O4JNFMVO5DGGXOAM1N9NBPX&a=OKUG3&tp_a=OKUG3&b=3GU1KF0O4JNFMVO5DGGXOAM1N9NBPX&tp_b=3GU1KF0O4JNFMVO5DGGXOAM1N9NBPX&c=365633&tp_c=365633"},{"rt":23527,"response":{"heads":"4","tails":"1"},"type":"response","condition":"seqNoFeedback","trueTheta":0.8,"classrooms":["C","D"],"studentTrueClassroom":"C","exampleSet":"second","trial_type":"survey-html-form","trial_index":43,"time_elapsed":396704,"internal_node_id":"0.0-40.0-0.0","params":{"nStudents":24,"maxFlips":25,"completionMinutes":45,"basePay":8,"maxBonus":9,"perTrialBonus":0.5,"perTrialBonusThreshold":0.05,"exampleCost":0.02},"classroomParams":{"A":{"a":1,"b":4},"B":{"a":4,"b":1},"C":{"a":2,"b":8},"D":{"a":8,"b":2}},"conditions":["nonSeqFull","nonSeqPartial","seqNoFeedback","seqFeedback"],"classroomPairings":[["A","B"],["C","D"]],"coinWeights":[0.2,0.5,0.8],"subjectId":"A272X64FOZFYLB","assignmentId":"3GU1KF0O4JNFMVO5DGGXOAM1N9NBPX","hitId":"3XUY87HIVP03YZXVLN9CW37DVI1MM2","url":"https://gershmanlab.com/experiments/alicia/teaching/experiment/?hitId=3XUY87HIVP03YZXVLN9CW37DVI1MM2&workerId=A272X64FOZFYLB&assignmentId=3GU1KF0O4JNFMVO5DGGXOAM1N9NBPX&a=OKUG3&tp_a=OKUG3&b=3GU1KF0O4JNFMVO5DGGXOAM1N9NBPX&tp_b=3GU1KF0O4JNFMVO5DGGXOAM1N9NBPX&c=365633&tp_c=365633","firstResponseHeads":8,"firstResponseTails":2,"secondResponseHeads":4,"secondResponseTails":1,"totalHeads":12,"totalTails":3,"studentIndex":4,"studentTrueHypers":{"a":2,"b":8},"studentGuess":0.56,"delta":0.24,"bonus":0,"bonusSoFar":1.2,"totalExamples":15},{"rt":null,"stimulus":"Sending examples to student... ","response":null,"trial_type":"html-keyboard-response","trial_index":44,"time_elapsed":398471,"internal_node_id":"0.0-41.0","params":{"nStudents":24,"maxFlips":25,"completionMinutes":45,"basePay":8,"maxBonus":9,"perTrialBonus":0.5,"perTrialBonusThreshold":0.05,"exampleCost":0.02},"classroomParams":{"A":{"a":1,"b":4},"B":{"a":4,"b":1},"C":{"a":2,"b":8},"D":{"a":8,"b":2}},"conditions":["nonSeqFull","nonSeqPartial","seqNoFeedback","seqFeedback"],"classroomPairings":[["A","B"],["C","D"]],"coinWeights":[0.2,0.5,0.8],"subjectId":"A272X64FOZFYLB","assignmentId":"3GU1KF0O4JNFMVO5DGGXOAM1N9NBPX","hitId":"3XUY87HIVP03YZXVLN9CW37DVI1MM2","url":"https://gershmanlab.com/experiments/alicia/teaching/experiment/?hitId=3XUY87HIVP03YZXVLN9CW37DVI1MM2&workerId=A272X64FOZFYLB&assignmentId=3GU1KF0O4JNFMVO5DGGXOAM1N9NBPX&a=OKUG3&tp_a=OKUG3&b=3GU1KF0O4JNFMVO5DGGXOAM1N9NBPX&tp_b=3GU1KF0O4JNFMVO5DGGXOAM1N9NBPX&c=365633&tp_c=365633"},{"rt":null,"stimulus":"Examples sent to student! Waiting for student...","response":null,"trial_type":"html-keyboard-response","trial_index":45,"time_elapsed":402492,"internal_node_id":"0.0-42.0","params":{"nStudents":24,"maxFlips":25,"completionMinutes":45,"basePay":8,"maxBonus":9,"perTrialBonus":0.5,"perTrialBonusThreshold":0.05,"exampleCost":0.02},"classroomParams":{"A":{"a":1,"b":4},"B":{"a":4,"b":1},"C":{"a":2,"b":8},"D":{"a":8,"b":2}},"conditions":["nonSeqFull","nonSeqPartial","seqNoFeedback","seqFeedback"],"classroomPairings":[["A","B"],["C","D"]],"coinWeights":[0.2,0.5,0.8],"subjectId":"A272X64FOZFYLB","assignmentId":"3GU1KF0O4JNFMVO5DGGXOAM1N9NBPX","hitId":"3XUY87HIVP03YZXVLN9CW37DVI1MM2","url":"https://gershmanlab.com/experiments/alicia/teaching/experiment/?hitId=3XUY87HIVP03YZXVLN9CW37DVI1MM2&workerId=A272X64FOZFYLB&assignmentId=3GU1KF0O4JNFMVO5DGGXOAM1N9NBPX&a=OKUG3&tp_a=OKUG3&b=3GU1KF0O4JNFMVO5DGGXOAM1N9NBPX&tp_b=3GU1KF0O4JNFMVO5DGGXOAM1N9NBPX&c=365633&tp_c=365633"},{"rt":5802,"stimulus":"\n                <p>Student 5's first guess for coin weight: <b style=\"color:Tomato\";>0.50</b></p>\n                <p>Student 5's second guess for coin weight: <b style=\"color:Tomato\";>0.56</b></p>\n                <p>You received a bonus of <b>$0.00</b> based on the student's second guess.</p>\n                <p>Total bonus so far: <b>$1.20</b></p>\n                <p>Press any key to continue.</p>\n                ","response":"j","trial_type":"html-keyboard-response","trial_index":46,"time_elapsed":408295,"internal_node_id":"0.0-43.0","params":{"nStudents":24,"maxFlips":25,"completionMinutes":45,"basePay":8,"maxBonus":9,"perTrialBonus":0.5,"perTrialBonusThreshold":0.05,"exampleCost":0.02},"classroomParams":{"A":{"a":1,"b":4},"B":{"a":4,"b":1},"C":{"a":2,"b":8},"D":{"a":8,"b":2}},"conditions":["nonSeqFull","nonSeqPartial","seqNoFeedback","seqFeedback"],"classroomPairings":[["A","B"],["C","D"]],"coinWeights":[0.2,0.5,0.8],"subjectId":"A272X64FOZFYLB","assignmentId":"3GU1KF0O4JNFMVO5DGGXOAM1N9NBPX","hitId":"3XUY87HIVP03YZXVLN9CW37DVI1MM2","url":"https://gershmanlab.com/experiments/alicia/teaching/experiment/?hitId=3XUY87HIVP03YZXVLN9CW37DVI1MM2&workerId=A272X64FOZFYLB&assignmentId=3GU1KF0O4JNFMVO5DGGXOAM1N9NBPX&a=OKUG3&tp_a=OKUG3&b=3GU1KF0O4JNFMVO5DGGXOAM1N9NBPX&tp_b=3GU1KF0O4JNFMVO5DGGXOAM1N9NBPX&c=365633&tp_c=365633"},{"rt":null,"stimulus":"<div style=\"font-size:60px;\">Next student</div>","response":null,"trial_type":"html-keyboard-response","trial_index":47,"time_elapsed":411310,"internal_node_id":"0.0-44.0-0.0","params":{"nStudents":24,"maxFlips":25,"completionMinutes":45,"basePay":8,"maxBonus":9,"perTrialBonus":0.5,"perTrialBonusThreshold":0.05,"exampleCost":0.02},"classroomParams":{"A":{"a":1,"b":4},"B":{"a":4,"b":1},"C":{"a":2,"b":8},"D":{"a":8,"b":2}},"conditions":["nonSeqFull","nonSeqPartial","seqNoFeedback","seqFeedback"],"classroomPairings":[["A","B"],["C","D"]],"coinWeights":[0.2,0.5,0.8],"subjectId":"A272X64FOZFYLB","assignmentId":"3GU1KF0O4JNFMVO5DGGXOAM1N9NBPX","hitId":"3XUY87HIVP03YZXVLN9CW37DVI1MM2","url":"https://gershmanlab.com/experiments/alicia/teaching/experiment/?hitId=3XUY87HIVP03YZXVLN9CW37DVI1MM2&workerId=A272X64FOZFYLB&assignmentId=3GU1KF0O4JNFMVO5DGGXOAM1N9NBPX&a=OKUG3&tp_a=OKUG3&b=3GU1KF0O4JNFMVO5DGGXOAM1N9NBPX&tp_b=3GU1KF0O4JNFMVO5DGGXOAM1N9NBPX&c=365633&tp_c=365633"},{"rt":2057,"stimulus":"\n            <h4 style=\"color:Orange;\">Student 6</h4>\n            <h2>The weight of your coin is <b style=\"color:Tomato;\">0.8</b>.</h2>\n            <p>In this block, you will be giving <b>one</b> set of examples to Student 6.</p>\n                <p>You will receive feedback at the end of the block.</p>\n            <p></p>","response":0,"trial_type":"html-button-response","trial_index":48,"time_elapsed":413369,"internal_node_id":"0.0-45.0","params":{"nStudents":24,"maxFlips":25,"completionMinutes":45,"basePay":8,"maxBonus":9,"perTrialBonus":0.5,"perTrialBonusThreshold":0.05,"exampleCost":0.02},"classroomParams":{"A":{"a":1,"b":4},"B":{"a":4,"b":1},"C":{"a":2,"b":8},"D":{"a":8,"b":2}},"conditions":["nonSeqFull","nonSeqPartial","seqNoFeedback","seqFeedback"],"classroomPairings":[["A","B"],["C","D"]],"coinWeights":[0.2,0.5,0.8],"subjectId":"A272X64FOZFYLB","assignmentId":"3GU1KF0O4JNFMVO5DGGXOAM1N9NBPX","hitId":"3XUY87HIVP03YZXVLN9CW37DVI1MM2","url":"https://gershmanlab.com/experiments/alicia/teaching/experiment/?hitId=3XUY87HIVP03YZXVLN9CW37DVI1MM2&workerId=A272X64FOZFYLB&assignmentId=3GU1KF0O4JNFMVO5DGGXOAM1N9NBPX&a=OKUG3&tp_a=OKUG3&b=3GU1KF0O4JNFMVO5DGGXOAM1N9NBPX&tp_b=3GU1KF0O4JNFMVO5DGGXOAM1N9NBPX&c=365633&tp_c=365633"},{"rt":78640,"response":{"heads":"11","tails":"0"},"type":"response","condition":"nonSeqFull","trueTheta":0.8,"classrooms":["A","B"],"studentTrueClassroom":"A","exampleSet":"first","trial_type":"survey-html-form","trial_index":49,"time_elapsed":492009,"internal_node_id":"0.0-46.0-0.0","params":{"nStudents":24,"maxFlips":25,"completionMinutes":45,"basePay":8,"maxBonus":9,"perTrialBonus":0.5,"perTrialBonusThreshold":0.05,"exampleCost":0.02},"classroomParams":{"A":{"a":1,"b":4},"B":{"a":4,"b":1},"C":{"a":2,"b":8},"D":{"a":8,"b":2}},"conditions":["nonSeqFull","nonSeqPartial","seqNoFeedback","seqFeedback"],"classroomPairings":[["A","B"],["C","D"]],"coinWeights":[0.2,0.5,0.8],"subjectId":"A272X64FOZFYLB","assignmentId":"3GU1KF0O4JNFMVO5DGGXOAM1N9NBPX","hitId":"3XUY87HIVP03YZXVLN9CW37DVI1MM2","url":"https://gershmanlab.com/experiments/alicia/teaching/experiment/?hitId=3XUY87HIVP03YZXVLN9CW37DVI1MM2&workerId=A272X64FOZFYLB&assignmentId=3GU1KF0O4JNFMVO5DGGXOAM1N9NBPX&a=OKUG3&tp_a=OKUG3&b=3GU1KF0O4JNFMVO5DGGXOAM1N9NBPX&tp_b=3GU1KF0O4JNFMVO5DGGXOAM1N9NBPX&c=365633&tp_c=365633","heads":11,"tails":0,"studentIndex":5,"studentTrueHypers":{"a":1,"b":4},"studentGuess":0.75,"delta":0.050000000000000044,"totalExamples":11,"bonus":0,"bonusSoFar":1.2},{"rt":null,"stimulus":"Sending examples to student... ","response":null,"trial_type":"html-keyboard-response","trial_index":50,"time_elapsed":494022,"internal_node_id":"0.0-47.0","params":{"nStudents":24,"maxFlips":25,"completionMinutes":45,"basePay":8,"maxBonus":9,"perTrialBonus":0.5,"perTrialBonusThreshold":0.05,"exampleCost":0.02},"classroomParams":{"A":{"a":1,"b":4},"B":{"a":4,"b":1},"C":{"a":2,"b":8},"D":{"a":8,"b":2}},"conditions":["nonSeqFull","nonSeqPartial","seqNoFeedback","seqFeedback"],"classroomPairings":[["A","B"],["C","D"]],"coinWeights":[0.2,0.5,0.8],"subjectId":"A272X64FOZFYLB","assignmentId":"3GU1KF0O4JNFMVO5DGGXOAM1N9NBPX","hitId":"3XUY87HIVP03YZXVLN9CW37DVI1MM2","url":"https://gershmanlab.com/experiments/alicia/teaching/experiment/?hitId=3XUY87HIVP03YZXVLN9CW37DVI1MM2&workerId=A272X64FOZFYLB&assignmentId=3GU1KF0O4JNFMVO5DGGXOAM1N9NBPX&a=OKUG3&tp_a=OKUG3&b=3GU1KF0O4JNFMVO5DGGXOAM1N9NBPX&tp_b=3GU1KF0O4JNFMVO5DGGXOAM1N9NBPX&c=365633&tp_c=365633"},{"rt":null,"stimulus":"Examples sent to student! Waiting for student...","response":null,"trial_type":"html-keyboard-response","trial_index":51,"time_elapsed":499030,"internal_node_id":"0.0-48.0","params":{"nStudents":24,"maxFlips":25,"completionMinutes":45,"basePay":8,"maxBonus":9,"perTrialBonus":0.5,"perTrialBonusThreshold":0.05,"exampleCost":0.02},"classroomParams":{"A":{"a":1,"b":4},"B":{"a":4,"b":1},"C":{"a":2,"b":8},"D":{"a":8,"b":2}},"conditions":["nonSeqFull","nonSeqPartial","seqNoFeedback","seqFeedback"],"classroomPairings":[["A","B"],["C","D"]],"coinWeights":[0.2,0.5,0.8],"subjectId":"A272X64FOZFYLB","assignmentId":"3GU1KF0O4JNFMVO5DGGXOAM1N9NBPX","hitId":"3XUY87HIVP03YZXVLN9CW37DVI1MM2","url":"https://gershmanlab.com/experiments/alicia/teaching/experiment/?hitId=3XUY87HIVP03YZXVLN9CW37DVI1MM2&workerId=A272X64FOZFYLB&assignmentId=3GU1KF0O4JNFMVO5DGGXOAM1N9NBPX&a=OKUG3&tp_a=OKUG3&b=3GU1KF0O4JNFMVO5DGGXOAM1N9NBPX&tp_b=3GU1KF0O4JNFMVO5DGGXOAM1N9NBPX&c=365633&tp_c=365633"},{"rt":3785,"stimulus":"\n                <p>Student's guess for coin weight: <b style=\"color:Tomato;\">0.75</b></p>\n                <p>You received a bonus of <b>$0</b>. Total bonus so far: <b>$1.20</b></b></p>\n                <p></p>\n                <p>Press any key to continue.</p>\n                ","response":" ","trial_type":"html-keyboard-response","trial_index":52,"time_elapsed":502815,"internal_node_id":"0.0-49.0","params":{"nStudents":24,"maxFlips":25,"completionMinutes":45,"basePay":8,"maxBonus":9,"perTrialBonus":0.5,"perTrialBonusThreshold":0.05,"exampleCost":0.02},"classroomParams":{"A":{"a":1,"b":4},"B":{"a":4,"b":1},"C":{"a":2,"b":8},"D":{"a":8,"b":2}},"conditions":["nonSeqFull","nonSeqPartial","seqNoFeedback","seqFeedback"],"classroomPairings":[["A","B"],["C","D"]],"coinWeights":[0.2,0.5,0.8],"subjectId":"A272X64FOZFYLB","assignmentId":"3GU1KF0O4JNFMVO5DGGXOAM1N9NBPX","hitId":"3XUY87HIVP03YZXVLN9CW37DVI1MM2","url":"https://gershmanlab.com/experiments/alicia/teaching/experiment/?hitId=3XUY87HIVP03YZXVLN9CW37DVI1MM2&workerId=A272X64FOZFYLB&assignmentId=3GU1KF0O4JNFMVO5DGGXOAM1N9NBPX&a=OKUG3&tp_a=OKUG3&b=3GU1KF0O4JNFMVO5DGGXOAM1N9NBPX&tp_b=3GU1KF0O4JNFMVO5DGGXOAM1N9NBPX&c=365633&tp_c=365633"},{"rt":null,"stimulus":"<div style=\"font-size:60px;\">Next student</div>","response":null,"trial_type":"html-keyboard-response","trial_index":53,"time_elapsed":504818,"internal_node_id":"0.0-50.0-0.0","params":{"nStudents":24,"maxFlips":25,"completionMinutes":45,"basePay":8,"maxBonus":9,"perTrialBonus":0.5,"perTrialBonusThreshold":0.05,"exampleCost":0.02},"classroomParams":{"A":{"a":1,"b":4},"B":{"a":4,"b":1},"C":{"a":2,"b":8},"D":{"a":8,"b":2}},"conditions":["nonSeqFull","nonSeqPartial","seqNoFeedback","seqFeedback"],"classroomPairings":[["A","B"],["C","D"]],"coinWeights":[0.2,0.5,0.8],"subjectId":"A272X64FOZFYLB","assignmentId":"3GU1KF0O4JNFMVO5DGGXOAM1N9NBPX","hitId":"3XUY87HIVP03YZXVLN9CW37DVI1MM2","url":"https://gershmanlab.com/experiments/alicia/teaching/experiment/?hitId=3XUY87HIVP03YZXVLN9CW37DVI1MM2&workerId=A272X64FOZFYLB&assignmentId=3GU1KF0O4JNFMVO5DGGXOAM1N9NBPX&a=OKUG3&tp_a=OKUG3&b=3GU1KF0O4JNFMVO5DGGXOAM1N9NBPX&tp_b=3GU1KF0O4JNFMVO5DGGXOAM1N9NBPX&c=365633&tp_c=365633"},{"rt":4292,"stimulus":"\n            <h4 style=\"color:Orange;\">Student 7</h4>\n            <h2>The weight of your coin is <b style=\"color:Tomato;\">0.8</b>.</h2>\n            <p>In this block, you will be giving <b>two</b> sets of examples to Student 7.</p>\n                <p>You will receive feedback at the end of the block.</p>\n            <p></p>","response":0,"trial_type":"html-button-response","trial_index":54,"time_elapsed":509111,"internal_node_id":"0.0-51.0","params":{"nStudents":24,"maxFlips":25,"completionMinutes":45,"basePay":8,"maxBonus":9,"perTrialBonus":0.5,"perTrialBonusThreshold":0.05,"exampleCost":0.02},"classroomParams":{"A":{"a":1,"b":4},"B":{"a":4,"b":1},"C":{"a":2,"b":8},"D":{"a":8,"b":2}},"conditions":["nonSeqFull","nonSeqPartial","seqNoFeedback","seqFeedback"],"classroomPairings":[["A","B"],["C","D"]],"coinWeights":[0.2,0.5,0.8],"subjectId":"A272X64FOZFYLB","assignmentId":"3GU1KF0O4JNFMVO5DGGXOAM1N9NBPX","hitId":"3XUY87HIVP03YZXVLN9CW37DVI1MM2","url":"https://gershmanlab.com/experiments/alicia/teaching/experiment/?hitId=3XUY87HIVP03YZXVLN9CW37DVI1MM2&workerId=A272X64FOZFYLB&assignmentId=3GU1KF0O4JNFMVO5DGGXOAM1N9NBPX&a=OKUG3&tp_a=OKUG3&b=3GU1KF0O4JNFMVO5DGGXOAM1N9NBPX&tp_b=3GU1KF0O4JNFMVO5DGGXOAM1N9NBPX&c=365633&tp_c=365633"},{"rt":31463,"response":{"heads":"4","tails":"1"},"type":"response","condition":"seqNoFeedback","trueTheta":0.8,"classrooms":["A","B"],"studentTrueClassroom":"B","exampleSet":"first","trial_type":"survey-html-form","trial_index":55,"time_elapsed":540575,"internal_node_id":"0.0-52.0-0.0","params":{"nStudents":24,"maxFlips":25,"completionMinutes":45,"basePay":8,"maxBonus":9,"perTrialBonus":0.5,"perTrialBonusThreshold":0.05,"exampleCost":0.02},"classroomParams":{"A":{"a":1,"b":4},"B":{"a":4,"b":1},"C":{"a":2,"b":8},"D":{"a":8,"b":2}},"conditions":["nonSeqFull","nonSeqPartial","seqNoFeedback","seqFeedback"],"classroomPairings":[["A","B"],["C","D"]],"coinWeights":[0.2,0.5,0.8],"subjectId":"A272X64FOZFYLB","assignmentId":"3GU1KF0O4JNFMVO5DGGXOAM1N9NBPX","hitId":"3XUY87HIVP03YZXVLN9CW37DVI1MM2","url":"https://gershmanlab.com/experiments/alicia/teaching/experiment/?hitId=3XUY87HIVP03YZXVLN9CW37DVI1MM2&workerId=A272X64FOZFYLB&assignmentId=3GU1KF0O4JNFMVO5DGGXOAM1N9NBPX&a=OKUG3&tp_a=OKUG3&b=3GU1KF0O4JNFMVO5DGGXOAM1N9NBPX&tp_b=3GU1KF0O4JNFMVO5DGGXOAM1N9NBPX&c=365633&tp_c=365633","heads":4,"tails":1,"studentIndex":6,"studentTrueHypers":{"a":4,"b":1},"studentGuess":0.8,"delta":0,"totalExamples":5,"bonusSoFar":1.2},{"rt":null,"stimulus":"Sending examples to student... ","response":null,"trial_type":"html-keyboard-response","trial_index":56,"time_elapsed":542088,"internal_node_id":"0.0-53.0","params":{"nStudents":24,"maxFlips":25,"completionMinutes":45,"basePay":8,"maxBonus":9,"perTrialBonus":0.5,"perTrialBonusThreshold":0.05,"exampleCost":0.02},"classroomParams":{"A":{"a":1,"b":4},"B":{"a":4,"b":1},"C":{"a":2,"b":8},"D":{"a":8,"b":2}},"conditions":["nonSeqFull","nonSeqPartial","seqNoFeedback","seqFeedback"],"classroomPairings":[["A","B"],["C","D"]],"coinWeights":[0.2,0.5,0.8],"subjectId":"A272X64FOZFYLB","assignmentId":"3GU1KF0O4JNFMVO5DGGXOAM1N9NBPX","hitId":"3XUY87HIVP03YZXVLN9CW37DVI1MM2","url":"https://gershmanlab.com/experiments/alicia/teaching/experiment/?hitId=3XUY87HIVP03YZXVLN9CW37DVI1MM2&workerId=A272X64FOZFYLB&assignmentId=3GU1KF0O4JNFMVO5DGGXOAM1N9NBPX&a=OKUG3&tp_a=OKUG3&b=3GU1KF0O4JNFMVO5DGGXOAM1N9NBPX&tp_b=3GU1KF0O4JNFMVO5DGGXOAM1N9NBPX&c=365633&tp_c=365633"},{"rt":null,"stimulus":"Examples sent to student! Waiting for student...","response":null,"trial_type":"html-keyboard-response","trial_index":57,"time_elapsed":547602,"internal_node_id":"0.0-54.0","params":{"nStudents":24,"maxFlips":25,"completionMinutes":45,"basePay":8,"maxBonus":9,"perTrialBonus":0.5,"perTrialBonusThreshold":0.05,"exampleCost":0.02},"classroomParams":{"A":{"a":1,"b":4},"B":{"a":4,"b":1},"C":{"a":2,"b":8},"D":{"a":8,"b":2}},"conditions":["nonSeqFull","nonSeqPartial","seqNoFeedback","seqFeedback"],"classroomPairings":[["A","B"],["C","D"]],"coinWeights":[0.2,0.5,0.8],"subjectId":"A272X64FOZFYLB","assignmentId":"3GU1KF0O4JNFMVO5DGGXOAM1N9NBPX","hitId":"3XUY87HIVP03YZXVLN9CW37DVI1MM2","url":"https://gershmanlab.com/experiments/alicia/teaching/experiment/?hitId=3XUY87HIVP03YZXVLN9CW37DVI1MM2&workerId=A272X64FOZFYLB&assignmentId=3GU1KF0O4JNFMVO5DGGXOAM1N9NBPX&a=OKUG3&tp_a=OKUG3&b=3GU1KF0O4JNFMVO5DGGXOAM1N9NBPX&tp_b=3GU1KF0O4JNFMVO5DGGXOAM1N9NBPX&c=365633&tp_c=365633"},{"rt":4860,"response":{"heads":"4","tails":"1"},"type":"response","condition":"seqNoFeedback","trueTheta":0.8,"classrooms":["A","B"],"studentTrueClassroom":"B","exampleSet":"second","trial_type":"survey-html-form","trial_index":58,"time_elapsed":552463,"internal_node_id":"0.0-55.0-0.0","params":{"nStudents":24,"maxFlips":25,"completionMinutes":45,"basePay":8,"maxBonus":9,"perTrialBonus":0.5,"perTrialBonusThreshold":0.05,"exampleCost":0.02},"classroomParams":{"A":{"a":1,"b":4},"B":{"a":4,"b":1},"C":{"a":2,"b":8},"D":{"a":8,"b":2}},"conditions":["nonSeqFull","nonSeqPartial","seqNoFeedback","seqFeedback"],"classroomPairings":[["A","B"],["C","D"]],"coinWeights":[0.2,0.5,0.8],"subjectId":"A272X64FOZFYLB","assignmentId":"3GU1KF0O4JNFMVO5DGGXOAM1N9NBPX","hitId":"3XUY87HIVP03YZXVLN9CW37DVI1MM2","url":"https://gershmanlab.com/experiments/alicia/teaching/experiment/?hitId=3XUY87HIVP03YZXVLN9CW37DVI1MM2&workerId=A272X64FOZFYLB&assignmentId=3GU1KF0O4JNFMVO5DGGXOAM1N9NBPX&a=OKUG3&tp_a=OKUG3&b=3GU1KF0O4JNFMVO5DGGXOAM1N9NBPX&tp_b=3GU1KF0O4JNFMVO5DGGXOAM1N9NBPX&c=365633&tp_c=365633","firstResponseHeads":4,"firstResponseTails":1,"secondResponseHeads":4,"secondResponseTails":1,"totalHeads":8,"totalTails":2,"studentIndex":6,"studentTrueHypers":{"a":4,"b":1},"studentGuess":0.8,"delta":0,"bonus":0.3,"bonusSoFar":1.5,"totalExamples":10},{"rt":null,"stimulus":"Sending examples to student... ","response":null,"trial_type":"html-keyboard-response","trial_index":59,"time_elapsed":553730,"internal_node_id":"0.0-56.0","params":{"nStudents":24,"maxFlips":25,"completionMinutes":45,"basePay":8,"maxBonus":9,"perTrialBonus":0.5,"perTrialBonusThreshold":0.05,"exampleCost":0.02},"classroomParams":{"A":{"a":1,"b":4},"B":{"a":4,"b":1},"C":{"a":2,"b":8},"D":{"a":8,"b":2}},"conditions":["nonSeqFull","nonSeqPartial","seqNoFeedback","seqFeedback"],"classroomPairings":[["A","B"],["C","D"]],"coinWeights":[0.2,0.5,0.8],"subjectId":"A272X64FOZFYLB","assignmentId":"3GU1KF0O4JNFMVO5DGGXOAM1N9NBPX","hitId":"3XUY87HIVP03YZXVLN9CW37DVI1MM2","url":"https://gershmanlab.com/experiments/alicia/teaching/experiment/?hitId=3XUY87HIVP03YZXVLN9CW37DVI1MM2&workerId=A272X64FOZFYLB&assignmentId=3GU1KF0O4JNFMVO5DGGXOAM1N9NBPX&a=OKUG3&tp_a=OKUG3&b=3GU1KF0O4JNFMVO5DGGXOAM1N9NBPX&tp_b=3GU1KF0O4JNFMVO5DGGXOAM1N9NBPX&c=365633&tp_c=365633"},{"rt":null,"stimulus":"Examples sent to student! Waiting for student...","response":null,"trial_type":"html-keyboard-response","trial_index":60,"time_elapsed":559245,"internal_node_id":"0.0-57.0","params":{"nStudents":24,"maxFlips":25,"completionMinutes":45,"basePay":8,"maxBonus":9,"perTrialBonus":0.5,"perTrialBonusThreshold":0.05,"exampleCost":0.02},"classroomParams":{"A":{"a":1,"b":4},"B":{"a":4,"b":1},"C":{"a":2,"b":8},"D":{"a":8,"b":2}},"conditions":["nonSeqFull","nonSeqPartial","seqNoFeedback","seqFeedback"],"classroomPairings":[["A","B"],["C","D"]],"coinWeights":[0.2,0.5,0.8],"subjectId":"A272X64FOZFYLB","assignmentId":"3GU1KF0O4JNFMVO5DGGXOAM1N9NBPX","hitId":"3XUY87HIVP03YZXVLN9CW37DVI1MM2","url":"https://gershmanlab.com/experiments/alicia/teaching/experiment/?hitId=3XUY87HIVP03YZXVLN9CW37DVI1MM2&workerId=A272X64FOZFYLB&assignmentId=3GU1KF0O4JNFMVO5DGGXOAM1N9NBPX&a=OKUG3&tp_a=OKUG3&b=3GU1KF0O4JNFMVO5DGGXOAM1N9NBPX&tp_b=3GU1KF0O4JNFMVO5DGGXOAM1N9NBPX&c=365633&tp_c=365633"},{"rt":2449,"stimulus":"\n                <p>Student 7's first guess for coin weight: <b style=\"color:Tomato\";>0.80</b></p>\n                <p>Student 7's second guess for coin weight: <b style=\"color:Tomato\";>0.80</b></p>\n                <p>You received a bonus of <b>$0.30</b> based on the student's second guess.</p>\n                <p>Total bonus so far: <b>$1.50</b></p>\n                <p>Press any key to continue.</p>\n                ","response":"k","trial_type":"html-keyboard-response","trial_index":61,"time_elapsed":561695,"internal_node_id":"0.0-58.0","params":{"nStudents":24,"maxFlips":25,"completionMinutes":45,"basePay":8,"maxBonus":9,"perTrialBonus":0.5,"perTrialBonusThreshold":0.05,"exampleCost":0.02},"classroomParams":{"A":{"a":1,"b":4},"B":{"a":4,"b":1},"C":{"a":2,"b":8},"D":{"a":8,"b":2}},"conditions":["nonSeqFull","nonSeqPartial","seqNoFeedback","seqFeedback"],"classroomPairings":[["A","B"],["C","D"]],"coinWeights":[0.2,0.5,0.8],"subjectId":"A272X64FOZFYLB","assignmentId":"3GU1KF0O4JNFMVO5DGGXOAM1N9NBPX","hitId":"3XUY87HIVP03YZXVLN9CW37DVI1MM2","url":"https://gershmanlab.com/experiments/alicia/teaching/experiment/?hitId=3XUY87HIVP03YZXVLN9CW37DVI1MM2&workerId=A272X64FOZFYLB&assignmentId=3GU1KF0O4JNFMVO5DGGXOAM1N9NBPX&a=OKUG3&tp_a=OKUG3&b=3GU1KF0O4JNFMVO5DGGXOAM1N9NBPX&tp_b=3GU1KF0O4JNFMVO5DGGXOAM1N9NBPX&c=365633&tp_c=365633"},{"rt":null,"stimulus":"<div style=\"font-size:60px;\">Next student</div>","response":null,"trial_type":"html-keyboard-response","trial_index":62,"time_elapsed":563951,"internal_node_id":"0.0-59.0-0.0","params":{"nStudents":24,"maxFlips":25,"completionMinutes":45,"basePay":8,"maxBonus":9,"perTrialBonus":0.5,"perTrialBonusThreshold":0.05,"exampleCost":0.02},"classroomParams":{"A":{"a":1,"b":4},"B":{"a":4,"b":1},"C":{"a":2,"b":8},"D":{"a":8,"b":2}},"conditions":["nonSeqFull","nonSeqPartial","seqNoFeedback","seqFeedback"],"classroomPairings":[["A","B"],["C","D"]],"coinWeights":[0.2,0.5,0.8],"subjectId":"A272X64FOZFYLB","assignmentId":"3GU1KF0O4JNFMVO5DGGXOAM1N9NBPX","hitId":"3XUY87HIVP03YZXVLN9CW37DVI1MM2","url":"https://gershmanlab.com/experiments/alicia/teaching/experiment/?hitId=3XUY87HIVP03YZXVLN9CW37DVI1MM2&workerId=A272X64FOZFYLB&assignmentId=3GU1KF0O4JNFMVO5DGGXOAM1N9NBPX&a=OKUG3&tp_a=OKUG3&b=3GU1KF0O4JNFMVO5DGGXOAM1N9NBPX&tp_b=3GU1KF0O4JNFMVO5DGGXOAM1N9NBPX&c=365633&tp_c=365633"},{"rt":1359,"stimulus":"\n            <h4 style=\"color:Orange;\">Student 8</h4>\n            <h2>The weight of your coin is <b style=\"color:Tomato;\">0.2</b>.</h2>\n            <p>In this block, you will be giving <b>two</b> sets of examples to Student 8.</p>\n                <p>You will receive feedback at the end of the block.</p>\n            <p></p>","response":0,"trial_type":"html-button-response","trial_index":63,"time_elapsed":565311,"internal_node_id":"0.0-60.0","params":{"nStudents":24,"maxFlips":25,"completionMinutes":45,"basePay":8,"maxBonus":9,"perTrialBonus":0.5,"perTrialBonusThreshold":0.05,"exampleCost":0.02},"classroomParams":{"A":{"a":1,"b":4},"B":{"a":4,"b":1},"C":{"a":2,"b":8},"D":{"a":8,"b":2}},"conditions":["nonSeqFull","nonSeqPartial","seqNoFeedback","seqFeedback"],"classroomPairings":[["A","B"],["C","D"]],"coinWeights":[0.2,0.5,0.8],"subjectId":"A272X64FOZFYLB","assignmentId":"3GU1KF0O4JNFMVO5DGGXOAM1N9NBPX","hitId":"3XUY87HIVP03YZXVLN9CW37DVI1MM2","url":"https://gershmanlab.com/experiments/alicia/teaching/experiment/?hitId=3XUY87HIVP03YZXVLN9CW37DVI1MM2&workerId=A272X64FOZFYLB&assignmentId=3GU1KF0O4JNFMVO5DGGXOAM1N9NBPX&a=OKUG3&tp_a=OKUG3&b=3GU1KF0O4JNFMVO5DGGXOAM1N9NBPX&tp_b=3GU1KF0O4JNFMVO5DGGXOAM1N9NBPX&c=365633&tp_c=365633"},{"rt":10639,"response":{"heads":"1","tails":"4"},"type":"response","condition":"seqNoFeedback","trueTheta":0.2,"classrooms":["A","B"],"studentTrueClassroom":"B","exampleSet":"first","trial_type":"survey-html-form","trial_index":64,"time_elapsed":575952,"internal_node_id":"0.0-61.0-0.0","params":{"nStudents":24,"maxFlips":25,"completionMinutes":45,"basePay":8,"maxBonus":9,"perTrialBonus":0.5,"perTrialBonusThreshold":0.05,"exampleCost":0.02},"classroomParams":{"A":{"a":1,"b":4},"B":{"a":4,"b":1},"C":{"a":2,"b":8},"D":{"a":8,"b":2}},"conditions":["nonSeqFull","nonSeqPartial","seqNoFeedback","seqFeedback"],"classroomPairings":[["A","B"],["C","D"]],"coinWeights":[0.2,0.5,0.8],"subjectId":"A272X64FOZFYLB","assignmentId":"3GU1KF0O4JNFMVO5DGGXOAM1N9NBPX","hitId":"3XUY87HIVP03YZXVLN9CW37DVI1MM2","url":"https://gershmanlab.com/experiments/alicia/teaching/experiment/?hitId=3XUY87HIVP03YZXVLN9CW37DVI1MM2&workerId=A272X64FOZFYLB&assignmentId=3GU1KF0O4JNFMVO5DGGXOAM1N9NBPX&a=OKUG3&tp_a=OKUG3&b=3GU1KF0O4JNFMVO5DGGXOAM1N9NBPX&tp_b=3GU1KF0O4JNFMVO5DGGXOAM1N9NBPX&c=365633&tp_c=365633","heads":1,"tails":4,"studentIndex":7,"studentTrueHypers":{"a":4,"b":1},"studentGuess":0.5,"delta":0.3,"totalExamples":5,"bonusSoFar":1.5},{"rt":null,"stimulus":"Sending examples to student... ","response":null,"trial_type":"html-keyboard-response","trial_index":65,"time_elapsed":577212,"internal_node_id":"0.0-62.0","params":{"nStudents":24,"maxFlips":25,"completionMinutes":45,"basePay":8,"maxBonus":9,"perTrialBonus":0.5,"perTrialBonusThreshold":0.05,"exampleCost":0.02},"classroomParams":{"A":{"a":1,"b":4},"B":{"a":4,"b":1},"C":{"a":2,"b":8},"D":{"a":8,"b":2}},"conditions":["nonSeqFull","nonSeqPartial","seqNoFeedback","seqFeedback"],"classroomPairings":[["A","B"],["C","D"]],"coinWeights":[0.2,0.5,0.8],"subjectId":"A272X64FOZFYLB","assignmentId":"3GU1KF0O4JNFMVO5DGGXOAM1N9NBPX","hitId":"3XUY87HIVP03YZXVLN9CW37DVI1MM2","url":"https://gershmanlab.com/experiments/alicia/teaching/experiment/?hitId=3XUY87HIVP03YZXVLN9CW37DVI1MM2&workerId=A272X64FOZFYLB&assignmentId=3GU1KF0O4JNFMVO5DGGXOAM1N9NBPX&a=OKUG3&tp_a=OKUG3&b=3GU1KF0O4JNFMVO5DGGXOAM1N9NBPX&tp_b=3GU1KF0O4JNFMVO5DGGXOAM1N9NBPX&c=365633&tp_c=365633"},{"rt":null,"stimulus":"Examples sent to student! Waiting for student...","response":null,"trial_type":"html-keyboard-response","trial_index":66,"time_elapsed":581727,"internal_node_id":"0.0-63.0","params":{"nStudents":24,"maxFlips":25,"completionMinutes":45,"basePay":8,"maxBonus":9,"perTrialBonus":0.5,"perTrialBonusThreshold":0.05,"exampleCost":0.02},"classroomParams":{"A":{"a":1,"b":4},"B":{"a":4,"b":1},"C":{"a":2,"b":8},"D":{"a":8,"b":2}},"conditions":["nonSeqFull","nonSeqPartial","seqNoFeedback","seqFeedback"],"classroomPairings":[["A","B"],["C","D"]],"coinWeights":[0.2,0.5,0.8],"subjectId":"A272X64FOZFYLB","assignmentId":"3GU1KF0O4JNFMVO5DGGXOAM1N9NBPX","hitId":"3XUY87HIVP03YZXVLN9CW37DVI1MM2","url":"https://gershmanlab.com/experiments/alicia/teaching/experiment/?hitId=3XUY87HIVP03YZXVLN9CW37DVI1MM2&workerId=A272X64FOZFYLB&assignmentId=3GU1KF0O4JNFMVO5DGGXOAM1N9NBPX&a=OKUG3&tp_a=OKUG3&b=3GU1KF0O4JNFMVO5DGGXOAM1N9NBPX&tp_b=3GU1KF0O4JNFMVO5DGGXOAM1N9NBPX&c=365633&tp_c=365633"},{"rt":2262,"response":{"heads":"1","tails":"4"},"type":"response","condition":"seqNoFeedback","trueTheta":0.2,"classrooms":["A","B"],"studentTrueClassroom":"B","exampleSet":"second","trial_type":"survey-html-form","trial_index":67,"time_elapsed":583991,"internal_node_id":"0.0-64.0-0.0","params":{"nStudents":24,"maxFlips":25,"completionMinutes":45,"basePay":8,"maxBonus":9,"perTrialBonus":0.5,"perTrialBonusThreshold":0.05,"exampleCost":0.02},"classroomParams":{"A":{"a":1,"b":4},"B":{"a":4,"b":1},"C":{"a":2,"b":8},"D":{"a":8,"b":2}},"conditions":["nonSeqFull","nonSeqPartial","seqNoFeedback","seqFeedback"],"classroomPairings":[["A","B"],["C","D"]],"coinWeights":[0.2,0.5,0.8],"subjectId":"A272X64FOZFYLB","assignmentId":"3GU1KF0O4JNFMVO5DGGXOAM1N9NBPX","hitId":"3XUY87HIVP03YZXVLN9CW37DVI1MM2","url":"https://gershmanlab.com/experiments/alicia/teaching/experiment/?hitId=3XUY87HIVP03YZXVLN9CW37DVI1MM2&workerId=A272X64FOZFYLB&assignmentId=3GU1KF0O4JNFMVO5DGGXOAM1N9NBPX&a=OKUG3&tp_a=OKUG3&b=3GU1KF0O4JNFMVO5DGGXOAM1N9NBPX&tp_b=3GU1KF0O4JNFMVO5DGGXOAM1N9NBPX&c=365633&tp_c=365633","firstResponseHeads":1,"firstResponseTails":4,"secondResponseHeads":1,"secondResponseTails":4,"totalHeads":2,"totalTails":8,"studentIndex":7,"studentTrueHypers":{"a":4,"b":1},"studentGuess":0.4,"delta":0.2,"bonus":0,"bonusSoFar":1.5,"totalExamples":10},{"rt":null,"stimulus":"Sending examples to student... ","response":null,"trial_type":"html-keyboard-response","trial_index":68,"time_elapsed":586006,"internal_node_id":"0.0-65.0","params":{"nStudents":24,"maxFlips":25,"completionMinutes":45,"basePay":8,"maxBonus":9,"perTrialBonus":0.5,"perTrialBonusThreshold":0.05,"exampleCost":0.02},"classroomParams":{"A":{"a":1,"b":4},"B":{"a":4,"b":1},"C":{"a":2,"b":8},"D":{"a":8,"b":2}},"conditions":["nonSeqFull","nonSeqPartial","seqNoFeedback","seqFeedback"],"classroomPairings":[["A","B"],["C","D"]],"coinWeights":[0.2,0.5,0.8],"subjectId":"A272X64FOZFYLB","assignmentId":"3GU1KF0O4JNFMVO5DGGXOAM1N9NBPX","hitId":"3XUY87HIVP03YZXVLN9CW37DVI1MM2","url":"https://gershmanlab.com/experiments/alicia/teaching/experiment/?hitId=3XUY87HIVP03YZXVLN9CW37DVI1MM2&workerId=A272X64FOZFYLB&assignmentId=3GU1KF0O4JNFMVO5DGGXOAM1N9NBPX&a=OKUG3&tp_a=OKUG3&b=3GU1KF0O4JNFMVO5DGGXOAM1N9NBPX&tp_b=3GU1KF0O4JNFMVO5DGGXOAM1N9NBPX&c=365633&tp_c=365633"},{"rt":null,"stimulus":"Examples sent to student! Waiting for student...","response":null,"trial_type":"html-keyboard-response","trial_index":69,"time_elapsed":591015,"internal_node_id":"0.0-66.0","params":{"nStudents":24,"maxFlips":25,"completionMinutes":45,"basePay":8,"maxBonus":9,"perTrialBonus":0.5,"perTrialBonusThreshold":0.05,"exampleCost":0.02},"classroomParams":{"A":{"a":1,"b":4},"B":{"a":4,"b":1},"C":{"a":2,"b":8},"D":{"a":8,"b":2}},"conditions":["nonSeqFull","nonSeqPartial","seqNoFeedback","seqFeedback"],"classroomPairings":[["A","B"],["C","D"]],"coinWeights":[0.2,0.5,0.8],"subjectId":"A272X64FOZFYLB","assignmentId":"3GU1KF0O4JNFMVO5DGGXOAM1N9NBPX","hitId":"3XUY87HIVP03YZXVLN9CW37DVI1MM2","url":"https://gershmanlab.com/experiments/alicia/teaching/experiment/?hitId=3XUY87HIVP03YZXVLN9CW37DVI1MM2&workerId=A272X64FOZFYLB&assignmentId=3GU1KF0O4JNFMVO5DGGXOAM1N9NBPX&a=OKUG3&tp_a=OKUG3&b=3GU1KF0O4JNFMVO5DGGXOAM1N9NBPX&tp_b=3GU1KF0O4JNFMVO5DGGXOAM1N9NBPX&c=365633&tp_c=365633"},{"rt":2815,"stimulus":"\n                <p>Student 8's first guess for coin weight: <b style=\"color:Tomato\";>0.50</b></p>\n                <p>Student 8's second guess for coin weight: <b style=\"color:Tomato\";>0.40</b></p>\n                <p>You received a bonus of <b>$0.00</b> based on the student's second guess.</p>\n                <p>Total bonus so far: <b>$1.50</b></p>\n                <p>Press any key to continue.</p>\n                ","response":"k","trial_type":"html-keyboard-response","trial_index":70,"time_elapsed":593831,"internal_node_id":"0.0-67.0","params":{"nStudents":24,"maxFlips":25,"completionMinutes":45,"basePay":8,"maxBonus":9,"perTrialBonus":0.5,"perTrialBonusThreshold":0.05,"exampleCost":0.02},"classroomParams":{"A":{"a":1,"b":4},"B":{"a":4,"b":1},"C":{"a":2,"b":8},"D":{"a":8,"b":2}},"conditions":["nonSeqFull","nonSeqPartial","seqNoFeedback","seqFeedback"],"classroomPairings":[["A","B"],["C","D"]],"coinWeights":[0.2,0.5,0.8],"subjectId":"A272X64FOZFYLB","assignmentId":"3GU1KF0O4JNFMVO5DGGXOAM1N9NBPX","hitId":"3XUY87HIVP03YZXVLN9CW37DVI1MM2","url":"https://gershmanlab.com/experiments/alicia/teaching/experiment/?hitId=3XUY87HIVP03YZXVLN9CW37DVI1MM2&workerId=A272X64FOZFYLB&assignmentId=3GU1KF0O4JNFMVO5DGGXOAM1N9NBPX&a=OKUG3&tp_a=OKUG3&b=3GU1KF0O4JNFMVO5DGGXOAM1N9NBPX&tp_b=3GU1KF0O4JNFMVO5DGGXOAM1N9NBPX&c=365633&tp_c=365633"},{"rt":null,"stimulus":"<div style=\"font-size:60px;\">Next student</div>","response":null,"trial_type":"html-keyboard-response","trial_index":71,"time_elapsed":596531,"internal_node_id":"0.0-68.0-0.0","params":{"nStudents":24,"maxFlips":25,"completionMinutes":45,"basePay":8,"maxBonus":9,"perTrialBonus":0.5,"perTrialBonusThreshold":0.05,"exampleCost":0.02},"classroomParams":{"A":{"a":1,"b":4},"B":{"a":4,"b":1},"C":{"a":2,"b":8},"D":{"a":8,"b":2}},"conditions":["nonSeqFull","nonSeqPartial","seqNoFeedback","seqFeedback"],"classroomPairings":[["A","B"],["C","D"]],"coinWeights":[0.2,0.5,0.8],"subjectId":"A272X64FOZFYLB","assignmentId":"3GU1KF0O4JNFMVO5DGGXOAM1N9NBPX","hitId":"3XUY87HIVP03YZXVLN9CW37DVI1MM2","url":"https://gershmanlab.com/experiments/alicia/teaching/experiment/?hitId=3XUY87HIVP03YZXVLN9CW37DVI1MM2&workerId=A272X64FOZFYLB&assignmentId=3GU1KF0O4JNFMVO5DGGXOAM1N9NBPX&a=OKUG3&tp_a=OKUG3&b=3GU1KF0O4JNFMVO5DGGXOAM1N9NBPX&tp_b=3GU1KF0O4JNFMVO5DGGXOAM1N9NBPX&c=365633&tp_c=365633"},{"rt":5692,"stimulus":"\n            <h4 style=\"color:Orange;\">Student 9</h4>\n            <h2>The weight of your coin is <b style=\"color:Tomato;\">0.2</b>.</h2>\n            <p>In this block, you will be giving <b>two</b> sets of examples to Student 9.</p>\n                <p>You will see the student's guess after the first set of examples. You will also receive feedback at the end of the block.</p>\n            <p>To earn the highest bonus, you will have to <b>take into consideration the student's guess</b> when you choose your second set of examples.</p>","response":0,"trial_type":"html-button-response","trial_index":72,"time_elapsed":602224,"internal_node_id":"0.0-69.0","params":{"nStudents":24,"maxFlips":25,"completionMinutes":45,"basePay":8,"maxBonus":9,"perTrialBonus":0.5,"perTrialBonusThreshold":0.05,"exampleCost":0.02},"classroomParams":{"A":{"a":1,"b":4},"B":{"a":4,"b":1},"C":{"a":2,"b":8},"D":{"a":8,"b":2}},"conditions":["nonSeqFull","nonSeqPartial","seqNoFeedback","seqFeedback"],"classroomPairings":[["A","B"],["C","D"]],"coinWeights":[0.2,0.5,0.8],"subjectId":"A272X64FOZFYLB","assignmentId":"3GU1KF0O4JNFMVO5DGGXOAM1N9NBPX","hitId":"3XUY87HIVP03YZXVLN9CW37DVI1MM2","url":"https://gershmanlab.com/experiments/alicia/teaching/experiment/?hitId=3XUY87HIVP03YZXVLN9CW37DVI1MM2&workerId=A272X64FOZFYLB&assignmentId=3GU1KF0O4JNFMVO5DGGXOAM1N9NBPX&a=OKUG3&tp_a=OKUG3&b=3GU1KF0O4JNFMVO5DGGXOAM1N9NBPX&tp_b=3GU1KF0O4JNFMVO5DGGXOAM1N9NBPX&c=365633&tp_c=365633"},{"rt":16975,"response":{"heads":"1","tails":"4"},"type":"response","condition":"seqFeedback","trueTheta":0.2,"classrooms":["C","D"],"studentTrueClassroom":"D","exampleSet":"first","trial_type":"survey-html-form","trial_index":73,"time_elapsed":619200,"internal_node_id":"0.0-70.0-0.0","params":{"nStudents":24,"maxFlips":25,"completionMinutes":45,"basePay":8,"maxBonus":9,"perTrialBonus":0.5,"perTrialBonusThreshold":0.05,"exampleCost":0.02},"classroomParams":{"A":{"a":1,"b":4},"B":{"a":4,"b":1},"C":{"a":2,"b":8},"D":{"a":8,"b":2}},"conditions":["nonSeqFull","nonSeqPartial","seqNoFeedback","seqFeedback"],"classroomPairings":[["A","B"],["C","D"]],"coinWeights":[0.2,0.5,0.8],"subjectId":"A272X64FOZFYLB","assignmentId":"3GU1KF0O4JNFMVO5DGGXOAM1N9NBPX","hitId":"3XUY87HIVP03YZXVLN9CW37DVI1MM2","url":"https://gershmanlab.com/experiments/alicia/teaching/experiment/?hitId=3XUY87HIVP03YZXVLN9CW37DVI1MM2&workerId=A272X64FOZFYLB&assignmentId=3GU1KF0O4JNFMVO5DGGXOAM1N9NBPX&a=OKUG3&tp_a=OKUG3&b=3GU1KF0O4JNFMVO5DGGXOAM1N9NBPX&tp_b=3GU1KF0O4JNFMVO5DGGXOAM1N9NBPX&c=365633&tp_c=365633","heads":1,"tails":4,"studentIndex":8,"studentTrueHypers":{"a":8,"b":2},"studentGuess":0.6,"delta":0.39999999999999997,"totalExamples":5,"bonusSoFar":1.5},{"rt":null,"stimulus":"Sending examples to student... ","response":null,"trial_type":"html-keyboard-response","trial_index":74,"time_elapsed":620704,"internal_node_id":"0.0-71.0","params":{"nStudents":24,"maxFlips":25,"completionMinutes":45,"basePay":8,"maxBonus":9,"perTrialBonus":0.5,"perTrialBonusThreshold":0.05,"exampleCost":0.02},"classroomParams":{"A":{"a":1,"b":4},"B":{"a":4,"b":1},"C":{"a":2,"b":8},"D":{"a":8,"b":2}},"conditions":["nonSeqFull","nonSeqPartial","seqNoFeedback","seqFeedback"],"classroomPairings":[["A","B"],["C","D"]],"coinWeights":[0.2,0.5,0.8],"subjectId":"A272X64FOZFYLB","assignmentId":"3GU1KF0O4JNFMVO5DGGXOAM1N9NBPX","hitId":"3XUY87HIVP03YZXVLN9CW37DVI1MM2","url":"https://gershmanlab.com/experiments/alicia/teaching/experiment/?hitId=3XUY87HIVP03YZXVLN9CW37DVI1MM2&workerId=A272X64FOZFYLB&assignmentId=3GU1KF0O4JNFMVO5DGGXOAM1N9NBPX&a=OKUG3&tp_a=OKUG3&b=3GU1KF0O4JNFMVO5DGGXOAM1N9NBPX&tp_b=3GU1KF0O4JNFMVO5DGGXOAM1N9NBPX&c=365633&tp_c=365633"},{"rt":null,"stimulus":"Examples sent to student! Waiting for student...","response":null,"trial_type":"html-keyboard-response","trial_index":75,"time_elapsed":626723,"internal_node_id":"0.0-72.0","params":{"nStudents":24,"maxFlips":25,"completionMinutes":45,"basePay":8,"maxBonus":9,"perTrialBonus":0.5,"perTrialBonusThreshold":0.05,"exampleCost":0.02},"classroomParams":{"A":{"a":1,"b":4},"B":{"a":4,"b":1},"C":{"a":2,"b":8},"D":{"a":8,"b":2}},"conditions":["nonSeqFull","nonSeqPartial","seqNoFeedback","seqFeedback"],"classroomPairings":[["A","B"],["C","D"]],"coinWeights":[0.2,0.5,0.8],"subjectId":"A272X64FOZFYLB","assignmentId":"3GU1KF0O4JNFMVO5DGGXOAM1N9NBPX","hitId":"3XUY87HIVP03YZXVLN9CW37DVI1MM2","url":"https://gershmanlab.com/experiments/alicia/teaching/experiment/?hitId=3XUY87HIVP03YZXVLN9CW37DVI1MM2&workerId=A272X64FOZFYLB&assignmentId=3GU1KF0O4JNFMVO5DGGXOAM1N9NBPX&a=OKUG3&tp_a=OKUG3&b=3GU1KF0O4JNFMVO5DGGXOAM1N9NBPX&tp_b=3GU1KF0O4JNFMVO5DGGXOAM1N9NBPX&c=365633&tp_c=365633"},{"rt":6835,"stimulus":"\n                <p>Student's guess for coin weight: <b style=\"color:Tomato;\">0.60</b></p>\n                <p></b></p>\n                <p>You will now send another set of examples to your student. <b>Remember to take your student's guess into consideration so that you can earn the highest bonus possible!</b> </p>\n                <p>Press any key to continue.</p>\n                ","response":" ","trial_type":"html-keyboard-response","trial_index":76,"time_elapsed":633559,"internal_node_id":"0.0-73.0","params":{"nStudents":24,"maxFlips":25,"completionMinutes":45,"basePay":8,"maxBonus":9,"perTrialBonus":0.5,"perTrialBonusThreshold":0.05,"exampleCost":0.02},"classroomParams":{"A":{"a":1,"b":4},"B":{"a":4,"b":1},"C":{"a":2,"b":8},"D":{"a":8,"b":2}},"conditions":["nonSeqFull","nonSeqPartial","seqNoFeedback","seqFeedback"],"classroomPairings":[["A","B"],["C","D"]],"coinWeights":[0.2,0.5,0.8],"subjectId":"A272X64FOZFYLB","assignmentId":"3GU1KF0O4JNFMVO5DGGXOAM1N9NBPX","hitId":"3XUY87HIVP03YZXVLN9CW37DVI1MM2","url":"https://gershmanlab.com/experiments/alicia/teaching/experiment/?hitId=3XUY87HIVP03YZXVLN9CW37DVI1MM2&workerId=A272X64FOZFYLB&assignmentId=3GU1KF0O4JNFMVO5DGGXOAM1N9NBPX&a=OKUG3&tp_a=OKUG3&b=3GU1KF0O4JNFMVO5DGGXOAM1N9NBPX&tp_b=3GU1KF0O4JNFMVO5DGGXOAM1N9NBPX&c=365633&tp_c=365633"},{"rt":51540,"response":{"heads":"0","tails":"25"},"type":"response","condition":"seqFeedback","trueTheta":0.2,"classrooms":["C","D"],"studentTrueClassroom":"D","exampleSet":"second","trial_type":"survey-html-form","trial_index":77,"time_elapsed":685099,"internal_node_id":"0.0-74.0-0.0","params":{"nStudents":24,"maxFlips":25,"completionMinutes":45,"basePay":8,"maxBonus":9,"perTrialBonus":0.5,"perTrialBonusThreshold":0.05,"exampleCost":0.02},"classroomParams":{"A":{"a":1,"b":4},"B":{"a":4,"b":1},"C":{"a":2,"b":8},"D":{"a":8,"b":2}},"conditions":["nonSeqFull","nonSeqPartial","seqNoFeedback","seqFeedback"],"classroomPairings":[["A","B"],["C","D"]],"coinWeights":[0.2,0.5,0.8],"subjectId":"A272X64FOZFYLB","assignmentId":"3GU1KF0O4JNFMVO5DGGXOAM1N9NBPX","hitId":"3XUY87HIVP03YZXVLN9CW37DVI1MM2","url":"https://gershmanlab.com/experiments/alicia/teaching/experiment/?hitId=3XUY87HIVP03YZXVLN9CW37DVI1MM2&workerId=A272X64FOZFYLB&assignmentId=3GU1KF0O4JNFMVO5DGGXOAM1N9NBPX&a=OKUG3&tp_a=OKUG3&b=3GU1KF0O4JNFMVO5DGGXOAM1N9NBPX&tp_b=3GU1KF0O4JNFMVO5DGGXOAM1N9NBPX&c=365633&tp_c=365633","firstResponseHeads":1,"firstResponseTails":4,"secondResponseHeads":0,"secondResponseTails":25,"totalHeads":1,"totalTails":29,"studentIndex":8,"studentTrueHypers":{"a":8,"b":2},"studentGuess":0.225,"delta":0.024999999999999994,"bonus":0,"bonusSoFar":1.5,"totalExamples":30},{"rt":null,"stimulus":"Sending examples to student... ","response":null,"trial_type":"html-keyboard-response","trial_index":78,"time_elapsed":687120,"internal_node_id":"0.0-75.0","params":{"nStudents":24,"maxFlips":25,"completionMinutes":45,"basePay":8,"maxBonus":9,"perTrialBonus":0.5,"perTrialBonusThreshold":0.05,"exampleCost":0.02},"classroomParams":{"A":{"a":1,"b":4},"B":{"a":4,"b":1},"C":{"a":2,"b":8},"D":{"a":8,"b":2}},"conditions":["nonSeqFull","nonSeqPartial","seqNoFeedback","seqFeedback"],"classroomPairings":[["A","B"],["C","D"]],"coinWeights":[0.2,0.5,0.8],"subjectId":"A272X64FOZFYLB","assignmentId":"3GU1KF0O4JNFMVO5DGGXOAM1N9NBPX","hitId":"3XUY87HIVP03YZXVLN9CW37DVI1MM2","url":"https://gershmanlab.com/experiments/alicia/teaching/experiment/?hitId=3XUY87HIVP03YZXVLN9CW37DVI1MM2&workerId=A272X64FOZFYLB&assignmentId=3GU1KF0O4JNFMVO5DGGXOAM1N9NBPX&a=OKUG3&tp_a=OKUG3&b=3GU1KF0O4JNFMVO5DGGXOAM1N9NBPX&tp_b=3GU1KF0O4JNFMVO5DGGXOAM1N9NBPX&c=365633&tp_c=365633"},{"rt":null,"stimulus":"Examples sent to student! Waiting for student...","response":null,"trial_type":"html-keyboard-response","trial_index":79,"time_elapsed":691137,"internal_node_id":"0.0-76.0","params":{"nStudents":24,"maxFlips":25,"completionMinutes":45,"basePay":8,"maxBonus":9,"perTrialBonus":0.5,"perTrialBonusThreshold":0.05,"exampleCost":0.02},"classroomParams":{"A":{"a":1,"b":4},"B":{"a":4,"b":1},"C":{"a":2,"b":8},"D":{"a":8,"b":2}},"conditions":["nonSeqFull","nonSeqPartial","seqNoFeedback","seqFeedback"],"classroomPairings":[["A","B"],["C","D"]],"coinWeights":[0.2,0.5,0.8],"subjectId":"A272X64FOZFYLB","assignmentId":"3GU1KF0O4JNFMVO5DGGXOAM1N9NBPX","hitId":"3XUY87HIVP03YZXVLN9CW37DVI1MM2","url":"https://gershmanlab.com/experiments/alicia/teaching/experiment/?hitId=3XUY87HIVP03YZXVLN9CW37DVI1MM2&workerId=A272X64FOZFYLB&assignmentId=3GU1KF0O4JNFMVO5DGGXOAM1N9NBPX&a=OKUG3&tp_a=OKUG3&b=3GU1KF0O4JNFMVO5DGGXOAM1N9NBPX&tp_b=3GU1KF0O4JNFMVO5DGGXOAM1N9NBPX&c=365633&tp_c=365633"},{"rt":3293,"stimulus":"\n                <p>Student 9's first guess for coin weight: <b style=\"color:Tomato\";>0.60</b></p>\n                <p>Student 9's second guess for coin weight: <b style=\"color:Tomato\";>0.23</b></p>\n                <p>You received a bonus of <b>$0.00</b> based on the student's second guess.</p>\n                <p>Total bonus so far: <b>$1.50</b></p>\n                <p>Press any key to continue.</p>\n                ","response":"k","trial_type":"html-keyboard-response","trial_index":80,"time_elapsed":694431,"internal_node_id":"0.0-77.0","params":{"nStudents":24,"maxFlips":25,"completionMinutes":45,"basePay":8,"maxBonus":9,"perTrialBonus":0.5,"perTrialBonusThreshold":0.05,"exampleCost":0.02},"classroomParams":{"A":{"a":1,"b":4},"B":{"a":4,"b":1},"C":{"a":2,"b":8},"D":{"a":8,"b":2}},"conditions":["nonSeqFull","nonSeqPartial","seqNoFeedback","seqFeedback"],"classroomPairings":[["A","B"],["C","D"]],"coinWeights":[0.2,0.5,0.8],"subjectId":"A272X64FOZFYLB","assignmentId":"3GU1KF0O4JNFMVO5DGGXOAM1N9NBPX","hitId":"3XUY87HIVP03YZXVLN9CW37DVI1MM2","url":"https://gershmanlab.com/experiments/alicia/teaching/experiment/?hitId=3XUY87HIVP03YZXVLN9CW37DVI1MM2&workerId=A272X64FOZFYLB&assignmentId=3GU1KF0O4JNFMVO5DGGXOAM1N9NBPX&a=OKUG3&tp_a=OKUG3&b=3GU1KF0O4JNFMVO5DGGXOAM1N9NBPX&tp_b=3GU1KF0O4JNFMVO5DGGXOAM1N9NBPX&c=365633&tp_c=365633"},{"rt":null,"stimulus":"<div style=\"font-size:60px;\">Next student</div>","response":null,"trial_type":"html-keyboard-response","trial_index":81,"time_elapsed":696695,"internal_node_id":"0.0-78.0-0.0","params":{"nStudents":24,"maxFlips":25,"completionMinutes":45,"basePay":8,"maxBonus":9,"perTrialBonus":0.5,"perTrialBonusThreshold":0.05,"exampleCost":0.02},"classroomParams":{"A":{"a":1,"b":4},"B":{"a":4,"b":1},"C":{"a":2,"b":8},"D":{"a":8,"b":2}},"conditions":["nonSeqFull","nonSeqPartial","seqNoFeedback","seqFeedback"],"classroomPairings":[["A","B"],["C","D"]],"coinWeights":[0.2,0.5,0.8],"subjectId":"A272X64FOZFYLB","assignmentId":"3GU1KF0O4JNFMVO5DGGXOAM1N9NBPX","hitId":"3XUY87HIVP03YZXVLN9CW37DVI1MM2","url":"https://gershmanlab.com/experiments/alicia/teaching/experiment/?hitId=3XUY87HIVP03YZXVLN9CW37DVI1MM2&workerId=A272X64FOZFYLB&assignmentId=3GU1KF0O4JNFMVO5DGGXOAM1N9NBPX&a=OKUG3&tp_a=OKUG3&b=3GU1KF0O4JNFMVO5DGGXOAM1N9NBPX&tp_b=3GU1KF0O4JNFMVO5DGGXOAM1N9NBPX&c=365633&tp_c=365633"},{"rt":1462,"stimulus":"\n            <h4 style=\"color:Orange;\">Student 10</h4>\n            <h2>The weight of your coin is <b style=\"color:Tomato;\">0.2</b>.</h2>\n            <p>In this block, you will be giving <b>one</b> set of examples to Student 10.</p>\n                <p>You will receive feedback at the end of the block.</p>\n            <p></p>","response":0,"trial_type":"html-button-response","trial_index":82,"time_elapsed":698159,"internal_node_id":"0.0-79.0","params":{"nStudents":24,"maxFlips":25,"completionMinutes":45,"basePay":8,"maxBonus":9,"perTrialBonus":0.5,"perTrialBonusThreshold":0.05,"exampleCost":0.02},"classroomParams":{"A":{"a":1,"b":4},"B":{"a":4,"b":1},"C":{"a":2,"b":8},"D":{"a":8,"b":2}},"conditions":["nonSeqFull","nonSeqPartial","seqNoFeedback","seqFeedback"],"classroomPairings":[["A","B"],["C","D"]],"coinWeights":[0.2,0.5,0.8],"subjectId":"A272X64FOZFYLB","assignmentId":"3GU1KF0O4JNFMVO5DGGXOAM1N9NBPX","hitId":"3XUY87HIVP03YZXVLN9CW37DVI1MM2","url":"https://gershmanlab.com/experiments/alicia/teaching/experiment/?hitId=3XUY87HIVP03YZXVLN9CW37DVI1MM2&workerId=A272X64FOZFYLB&assignmentId=3GU1KF0O4JNFMVO5DGGXOAM1N9NBPX&a=OKUG3&tp_a=OKUG3&b=3GU1KF0O4JNFMVO5DGGXOAM1N9NBPX&tp_b=3GU1KF0O4JNFMVO5DGGXOAM1N9NBPX&c=365633&tp_c=365633"},{"rt":32431,"response":{"heads":"1","tails":"4"},"type":"response","condition":"nonSeqPartial","trueTheta":0.2,"classrooms":["A","B"],"studentTrueClassroom":"B","exampleSet":"first","trial_type":"survey-html-form","trial_index":83,"time_elapsed":730591,"internal_node_id":"0.0-80.0-0.0","params":{"nStudents":24,"maxFlips":25,"completionMinutes":45,"basePay":8,"maxBonus":9,"perTrialBonus":0.5,"perTrialBonusThreshold":0.05,"exampleCost":0.02},"classroomParams":{"A":{"a":1,"b":4},"B":{"a":4,"b":1},"C":{"a":2,"b":8},"D":{"a":8,"b":2}},"conditions":["nonSeqFull","nonSeqPartial","seqNoFeedback","seqFeedback"],"classroomPairings":[["A","B"],["C","D"]],"coinWeights":[0.2,0.5,0.8],"subjectId":"A272X64FOZFYLB","assignmentId":"3GU1KF0O4JNFMVO5DGGXOAM1N9NBPX","hitId":"3XUY87HIVP03YZXVLN9CW37DVI1MM2","url":"https://gershmanlab.com/experiments/alicia/teaching/experiment/?hitId=3XUY87HIVP03YZXVLN9CW37DVI1MM2&workerId=A272X64FOZFYLB&assignmentId=3GU1KF0O4JNFMVO5DGGXOAM1N9NBPX&a=OKUG3&tp_a=OKUG3&b=3GU1KF0O4JNFMVO5DGGXOAM1N9NBPX&tp_b=3GU1KF0O4JNFMVO5DGGXOAM1N9NBPX&c=365633&tp_c=365633","heads":1,"tails":4,"studentIndex":9,"studentTrueHypers":{"a":4,"b":1},"studentGuess":0.5,"delta":0.3,"totalExamples":5,"bonus":0,"bonusSoFar":1.5},{"rt":null,"stimulus":"Sending examples to student... ","response":null,"trial_type":"html-keyboard-response","trial_index":84,"time_elapsed":731844,"internal_node_id":"0.0-81.0","params":{"nStudents":24,"maxFlips":25,"completionMinutes":45,"basePay":8,"maxBonus":9,"perTrialBonus":0.5,"perTrialBonusThreshold":0.05,"exampleCost":0.02},"classroomParams":{"A":{"a":1,"b":4},"B":{"a":4,"b":1},"C":{"a":2,"b":8},"D":{"a":8,"b":2}},"conditions":["nonSeqFull","nonSeqPartial","seqNoFeedback","seqFeedback"],"classroomPairings":[["A","B"],["C","D"]],"coinWeights":[0.2,0.5,0.8],"subjectId":"A272X64FOZFYLB","assignmentId":"3GU1KF0O4JNFMVO5DGGXOAM1N9NBPX","hitId":"3XUY87HIVP03YZXVLN9CW37DVI1MM2","url":"https://gershmanlab.com/experiments/alicia/teaching/experiment/?hitId=3XUY87HIVP03YZXVLN9CW37DVI1MM2&workerId=A272X64FOZFYLB&assignmentId=3GU1KF0O4JNFMVO5DGGXOAM1N9NBPX&a=OKUG3&tp_a=OKUG3&b=3GU1KF0O4JNFMVO5DGGXOAM1N9NBPX&tp_b=3GU1KF0O4JNFMVO5DGGXOAM1N9NBPX&c=365633&tp_c=365633"},{"rt":null,"stimulus":"Examples sent to student! Waiting for student...","response":null,"trial_type":"html-keyboard-response","trial_index":85,"time_elapsed":735855,"internal_node_id":"0.0-82.0","params":{"nStudents":24,"maxFlips":25,"completionMinutes":45,"basePay":8,"maxBonus":9,"perTrialBonus":0.5,"perTrialBonusThreshold":0.05,"exampleCost":0.02},"classroomParams":{"A":{"a":1,"b":4},"B":{"a":4,"b":1},"C":{"a":2,"b":8},"D":{"a":8,"b":2}},"conditions":["nonSeqFull","nonSeqPartial","seqNoFeedback","seqFeedback"],"classroomPairings":[["A","B"],["C","D"]],"coinWeights":[0.2,0.5,0.8],"subjectId":"A272X64FOZFYLB","assignmentId":"3GU1KF0O4JNFMVO5DGGXOAM1N9NBPX","hitId":"3XUY87HIVP03YZXVLN9CW