[{"rt":6017,"stimulus":"Welcome to the experiment. Press any key to begin.","response":"d","trial_type":"html-keyboard-response","trial_index":0,"time_elapsed":6038,"internal_node_id":"0.0-0.0","params":{"nStudents":24,"maxFlips":25,"completionMinutes":45,"basePay":8,"maxBonus":9,"perTrialBonus":0.5,"perTrialBonusThreshold":0.05,"exampleCost":0.02},"classroomParams":{"A":{"a":1,"b":4},"B":{"a":4,"b":1},"C":{"a":2,"b":8},"D":{"a":8,"b":2}},"conditions":["nonSeqFull","nonSeqPartial","seqNoFeedback","seqFeedback"],"classroomPairings":[["A","B"],["C","D"]],"coinWeights":[0.2,0.5,0.8],"subjectId":"A2I4PRZ9IZMKON","assignmentId":"39GXDJN2OU09PHNUWG5M30LI1R38VG","hitId":"3QGHA0EA0JM3KKNCY0PQRLYAHLBWBE","url":"https://gershmanlab.com/experiments/alicia/teaching/experiment/?hitId=3QGHA0EA0JM3KKNCY0PQRLYAHLBWBE&workerId=A2I4PRZ9IZMKON&assignmentId=39GXDJN2OU09PHNUWG5M30LI1R38VG&a=2DG93&tp_a=2DG93&b=39GXDJN2OU09PHNUWG5M30LI1R38VG&tp_b=39GXDJN2OU09PHNUWG5M30LI1R38VG&c=365633&tp_c=365633"},{"rt":324428,"stimulus":"\n        <h3>Please read this consent agreement carefully before deciding whether to participate in this experiment.</h3>\n        <p><b>Purpose of the research:</b> To examine how people teach effectively.</p>\n        <p><b>What you will do in this research:</b> You will teach students the weights of different coins.</p>\n        <p><b>Time required:</b> This experiment will take 45 minutes to complete.</p>\n        <p><b>Risks:</b> There are no anticipated risks associated with participating in this study.             The effects of participating should be comparable to those you would experience from viewing a computer monitor             and using a mouse and keyboard for the duration of the experiment.</p>\n        <p><b>Benefits:</b> The study provides important information about the nature of teaching.</p>\n        <p><b>Compensation:</b> You will receive <b>$8</b> for completing the experiment and a performance bonus of up to <b>$9</b>.</p>\n        <p><b>Confidentiality:</b> Your participation in this study will remain confidential.             No personally identifiable information will be associated with your data.             Your de-identified data may be shared with other researchers and used in future projects.</p>\n        <p><b>Participation and withdrawal:</b> Your participation in this study is completely voluntary and             you may refuse to participate or you may choose to withdraw at any time without penalty or loss of\n            benefits to which you are otherwise entitled.</p>\n        <p><b>How to contact the researcher:</b> If you have questions or concerns about your participation            or payment, or want to request a summary of research findings, please contact\n            Alicia Chen, aliciachen@college.harvard.edu.</p>\n        <p><b>Whom to contact about your rights in this research:</b> For questions, concerns, suggestions,             or complaints that have not been or cannot be addressed by the researcher, or to report             research-related harm, please contact the Committee on the Use of Human Subjects in Research at Harvard University,             1414 Massachusetts Avenue, Second Floor, Cambridge, MA 02138. Phone: 617-496-2847. Email: cuhs@fas.harvard.edu.</p>\n        ","response":0,"trial_type":"html-button-response","trial_index":1,"time_elapsed":330468,"internal_node_id":"0.0-1.0","params":{"nStudents":24,"maxFlips":25,"completionMinutes":45,"basePay":8,"maxBonus":9,"perTrialBonus":0.5,"perTrialBonusThreshold":0.05,"exampleCost":0.02},"classroomParams":{"A":{"a":1,"b":4},"B":{"a":4,"b":1},"C":{"a":2,"b":8},"D":{"a":8,"b":2}},"conditions":["nonSeqFull","nonSeqPartial","seqNoFeedback","seqFeedback"],"classroomPairings":[["A","B"],["C","D"]],"coinWeights":[0.2,0.5,0.8],"subjectId":"A2I4PRZ9IZMKON","assignmentId":"39GXDJN2OU09PHNUWG5M30LI1R38VG","hitId":"3QGHA0EA0JM3KKNCY0PQRLYAHLBWBE","url":"https://gershmanlab.com/experiments/alicia/teaching/experiment/?hitId=3QGHA0EA0JM3KKNCY0PQRLYAHLBWBE&workerId=A2I4PRZ9IZMKON&assignmentId=39GXDJN2OU09PHNUWG5M30LI1R38VG&a=2DG93&tp_a=2DG93&b=39GXDJN2OU09PHNUWG5M30LI1R38VG&tp_b=39GXDJN2OU09PHNUWG5M30LI1R38VG&c=365633&tp_c=365633"},{"view_history":[{"page_index":0,"viewing_time":4740},{"page_index":1,"viewing_time":2142},{"page_index":2,"viewing_time":63281},{"page_index":3,"viewing_time":13122},{"page_index":4,"viewing_time":7604},{"page_index":5,"viewing_time":326952},{"page_index":6,"viewing_time":89070}],"rt":506911,"trial_type":"instructions","trial_index":2,"time_elapsed":837382,"internal_node_id":"0.0-2.0-0.0","params":{"nStudents":24,"maxFlips":25,"completionMinutes":45,"basePay":8,"maxBonus":9,"perTrialBonus":0.5,"perTrialBonusThreshold":0.05,"exampleCost":0.02},"classroomParams":{"A":{"a":1,"b":4},"B":{"a":4,"b":1},"C":{"a":2,"b":8},"D":{"a":8,"b":2}},"conditions":["nonSeqFull","nonSeqPartial","seqNoFeedback","seqFeedback"],"classroomPairings":[["A","B"],["C","D"]],"coinWeights":[0.2,0.5,0.8],"subjectId":"A2I4PRZ9IZMKON","assignmentId":"39GXDJN2OU09PHNUWG5M30LI1R38VG","hitId":"3QGHA0EA0JM3KKNCY0PQRLYAHLBWBE","url":"https://gershmanlab.com/experiments/alicia/teaching/experiment/?hitId=3QGHA0EA0JM3KKNCY0PQRLYAHLBWBE&workerId=A2I4PRZ9IZMKON&assignmentId=39GXDJN2OU09PHNUWG5M30LI1R38VG&a=2DG93&tp_a=2DG93&b=39GXDJN2OU09PHNUWG5M30LI1R38VG&tp_b=39GXDJN2OU09PHNUWG5M30LI1R38VG&c=365633&tp_c=365633"},{"rt":39348,"response":{"Q0":"Students in different classrooms will have seen a different number of heads and tails before seeing the examples you select for them.","Q1":"By <b>considering the student's classroom information</b> so that I can teach efficiently and accurately/helpfully at the same time (because each example I give to the student costs money!).","Q2":"The coin lands heads 90% of the time.","Q3":"No, I will teach a <b>new</b> student each time.","Q4":"The students are also on the same alien planet as you, where coins can be unfair.","Q5":"Based on the student's second (and final) guess."},"question_order":[5,3,0,4,2,1],"trial_type":"survey-multi-choice","trial_index":3,"time_elapsed":876735,"internal_node_id":"0.0-2.0-1.0","params":{"nStudents":24,"maxFlips":25,"completionMinutes":45,"basePay":8,"maxBonus":9,"perTrialBonus":0.5,"perTrialBonusThreshold":0.05,"exampleCost":0.02},"classroomParams":{"A":{"a":1,"b":4},"B":{"a":4,"b":1},"C":{"a":2,"b":8},"D":{"a":8,"b":2}},"conditions":["nonSeqFull","nonSeqPartial","seqNoFeedback","seqFeedback"],"classroomPairings":[["A","B"],["C","D"]],"coinWeights":[0.2,0.5,0.8],"subjectId":"A2I4PRZ9IZMKON","assignmentId":"39GXDJN2OU09PHNUWG5M30LI1R38VG","hitId":"3QGHA0EA0JM3KKNCY0PQRLYAHLBWBE","url":"https://gershmanlab.com/experiments/alicia/teaching/experiment/?hitId=3QGHA0EA0JM3KKNCY0PQRLYAHLBWBE&workerId=A2I4PRZ9IZMKON&assignmentId=39GXDJN2OU09PHNUWG5M30LI1R38VG&a=2DG93&tp_a=2DG93&b=39GXDJN2OU09PHNUWG5M30LI1R38VG&tp_b=39GXDJN2OU09PHNUWG5M30LI1R38VG&c=365633&tp_c=365633","pass":true},{"rt":null,"stimulus":"<div style=\"font-size:30px;\">Congrats on passing the comprehension quiz! The experiment will begin in a few seconds.</div>","response":null,"trial_type":"html-keyboard-response","trial_index":4,"time_elapsed":879742,"internal_node_id":"0.0-3.0","params":{"nStudents":24,"maxFlips":25,"completionMinutes":45,"basePay":8,"maxBonus":9,"perTrialBonus":0.5,"perTrialBonusThreshold":0.05,"exampleCost":0.02},"classroomParams":{"A":{"a":1,"b":4},"B":{"a":4,"b":1},"C":{"a":2,"b":8},"D":{"a":8,"b":2}},"conditions":["nonSeqFull","nonSeqPartial","seqNoFeedback","seqFeedback"],"classroomPairings":[["A","B"],["C","D"]],"coinWeights":[0.2,0.5,0.8],"subjectId":"A2I4PRZ9IZMKON","assignmentId":"39GXDJN2OU09PHNUWG5M30LI1R38VG","hitId":"3QGHA0EA0JM3KKNCY0PQRLYAHLBWBE","url":"https://gershmanlab.com/experiments/alicia/teaching/experiment/?hitId=3QGHA0EA0JM3KKNCY0PQRLYAHLBWBE&workerId=A2I4PRZ9IZMKON&assignmentId=39GXDJN2OU09PHNUWG5M30LI1R38VG&a=2DG93&tp_a=2DG93&b=39GXDJN2OU09PHNUWG5M30LI1R38VG&tp_b=39GXDJN2OU09PHNUWG5M30LI1R38VG&c=365633&tp_c=365633"},{"rt":null,"stimulus":"<div style=\"font-size:50px;\">First student</div>","response":null,"trial_type":"html-keyboard-response","trial_index":5,"time_elapsed":882745,"internal_node_id":"0.0-4.0","params":{"nStudents":24,"maxFlips":25,"completionMinutes":45,"basePay":8,"maxBonus":9,"perTrialBonus":0.5,"perTrialBonusThreshold":0.05,"exampleCost":0.02},"classroomParams":{"A":{"a":1,"b":4},"B":{"a":4,"b":1},"C":{"a":2,"b":8},"D":{"a":8,"b":2}},"conditions":["nonSeqFull","nonSeqPartial","seqNoFeedback","seqFeedback"],"classroomPairings":[["A","B"],["C","D"]],"coinWeights":[0.2,0.5,0.8],"subjectId":"A2I4PRZ9IZMKON","assignmentId":"39GXDJN2OU09PHNUWG5M30LI1R38VG","hitId":"3QGHA0EA0JM3KKNCY0PQRLYAHLBWBE","url":"https://gershmanlab.com/experiments/alicia/teaching/experiment/?hitId=3QGHA0EA0JM3KKNCY0PQRLYAHLBWBE&workerId=A2I4PRZ9IZMKON&assignmentId=39GXDJN2OU09PHNUWG5M30LI1R38VG&a=2DG93&tp_a=2DG93&b=39GXDJN2OU09PHNUWG5M30LI1R38VG&tp_b=39GXDJN2OU09PHNUWG5M30LI1R38VG&c=365633&tp_c=365633"},{"rt":6989,"stimulus":"\n            <h4 style=\"color:Orange;\">Student 1</h4>\n            <h2>The weight of your coin is <b style=\"color:Tomato;\">0.8</b>.</h2>\n            <p>In this block, you will be giving <b>one</b> set of examples to Student 1.</p>\n                <p>You will receive feedback at the end of the block.</p>\n            <p></p>","response":0,"trial_type":"html-button-response","trial_index":6,"time_elapsed":889736,"internal_node_id":"0.0-5.0","params":{"nStudents":24,"maxFlips":25,"completionMinutes":45,"basePay":8,"maxBonus":9,"perTrialBonus":0.5,"perTrialBonusThreshold":0.05,"exampleCost":0.02},"classroomParams":{"A":{"a":1,"b":4},"B":{"a":4,"b":1},"C":{"a":2,"b":8},"D":{"a":8,"b":2}},"conditions":["nonSeqFull","nonSeqPartial","seqNoFeedback","seqFeedback"],"classroomPairings":[["A","B"],["C","D"]],"coinWeights":[0.2,0.5,0.8],"subjectId":"A2I4PRZ9IZMKON","assignmentId":"39GXDJN2OU09PHNUWG5M30LI1R38VG","hitId":"3QGHA0EA0JM3KKNCY0PQRLYAHLBWBE","url":"https://gershmanlab.com/experiments/alicia/teaching/experiment/?hitId=3QGHA0EA0JM3KKNCY0PQRLYAHLBWBE&workerId=A2I4PRZ9IZMKON&assignmentId=39GXDJN2OU09PHNUWG5M30LI1R38VG&a=2DG93&tp_a=2DG93&b=39GXDJN2OU09PHNUWG5M30LI1R38VG&tp_b=39GXDJN2OU09PHNUWG5M30LI1R38VG&c=365633&tp_c=365633"},{"rt":63195,"response":{"heads":"22","tails":"0"},"type":"response","condition":"nonSeqFull","trueTheta":0.8,"classrooms":["C","D"],"studentTrueClassroom":"C","exampleSet":"first","trial_type":"survey-html-form","trial_index":7,"time_elapsed":952933,"internal_node_id":"0.0-6.0-0.0","params":{"nStudents":24,"maxFlips":25,"completionMinutes":45,"basePay":8,"maxBonus":9,"perTrialBonus":0.5,"perTrialBonusThreshold":0.05,"exampleCost":0.02},"classroomParams":{"A":{"a":1,"b":4},"B":{"a":4,"b":1},"C":{"a":2,"b":8},"D":{"a":8,"b":2}},"conditions":["nonSeqFull","nonSeqPartial","seqNoFeedback","seqFeedback"],"classroomPairings":[["A","B"],["C","D"]],"coinWeights":[0.2,0.5,0.8],"subjectId":"A2I4PRZ9IZMKON","assignmentId":"39GXDJN2OU09PHNUWG5M30LI1R38VG","hitId":"3QGHA0EA0JM3KKNCY0PQRLYAHLBWBE","url":"https://gershmanlab.com/experiments/alicia/teaching/experiment/?hitId=3QGHA0EA0JM3KKNCY0PQRLYAHLBWBE&workerId=A2I4PRZ9IZMKON&assignmentId=39GXDJN2OU09PHNUWG5M30LI1R38VG&a=2DG93&tp_a=2DG93&b=39GXDJN2OU09PHNUWG5M30LI1R38VG&tp_b=39GXDJN2OU09PHNUWG5M30LI1R38VG&c=365633&tp_c=365633","heads":22,"tails":0,"studentIndex":0,"studentTrueHypers":{"a":2,"b":8},"studentGuess":0.75,"delta":0.050000000000000044,"totalExamples":22,"bonus":0,"bonusSoFar":0},{"rt":null,"stimulus":"Sending examples to student... ","response":null,"trial_type":"html-keyboard-response","trial_index":8,"time_elapsed":954935,"internal_node_id":"0.0-7.0","params":{"nStudents":24,"maxFlips":25,"completionMinutes":45,"basePay":8,"maxBonus":9,"perTrialBonus":0.5,"perTrialBonusThreshold":0.05,"exampleCost":0.02},"classroomParams":{"A":{"a":1,"b":4},"B":{"a":4,"b":1},"C":{"a":2,"b":8},"D":{"a":8,"b":2}},"conditions":["nonSeqFull","nonSeqPartial","seqNoFeedback","seqFeedback"],"classroomPairings":[["A","B"],["C","D"]],"coinWeights":[0.2,0.5,0.8],"subjectId":"A2I4PRZ9IZMKON","assignmentId":"39GXDJN2OU09PHNUWG5M30LI1R38VG","hitId":"3QGHA0EA0JM3KKNCY0PQRLYAHLBWBE","url":"https://gershmanlab.com/experiments/alicia/teaching/experiment/?hitId=3QGHA0EA0JM3KKNCY0PQRLYAHLBWBE&workerId=A2I4PRZ9IZMKON&assignmentId=39GXDJN2OU09PHNUWG5M30LI1R38VG&a=2DG93&tp_a=2DG93&b=39GXDJN2OU09PHNUWG5M30LI1R38VG&tp_b=39GXDJN2OU09PHNUWG5M30LI1R38VG&c=365633&tp_c=365633"},{"rt":null,"stimulus":"Examples sent to student! Waiting for student...","response":null,"trial_type":"html-keyboard-response","trial_index":9,"time_elapsed":959939,"internal_node_id":"0.0-8.0","params":{"nStudents":24,"maxFlips":25,"completionMinutes":45,"basePay":8,"maxBonus":9,"perTrialBonus":0.5,"perTrialBonusThreshold":0.05,"exampleCost":0.02},"classroomParams":{"A":{"a":1,"b":4},"B":{"a":4,"b":1},"C":{"a":2,"b":8},"D":{"a":8,"b":2}},"conditions":["nonSeqFull","nonSeqPartial","seqNoFeedback","seqFeedback"],"classroomPairings":[["A","B"],["C","D"]],"coinWeights":[0.2,0.5,0.8],"subjectId":"A2I4PRZ9IZMKON","assignmentId":"39GXDJN2OU09PHNUWG5M30LI1R38VG","hitId":"3QGHA0EA0JM3KKNCY0PQRLYAHLBWBE","url":"https://gershmanlab.com/experiments/alicia/teaching/experiment/?hitId=3QGHA0EA0JM3KKNCY0PQRLYAHLBWBE&workerId=A2I4PRZ9IZMKON&assignmentId=39GXDJN2OU09PHNUWG5M30LI1R38VG&a=2DG93&tp_a=2DG93&b=39GXDJN2OU09PHNUWG5M30LI1R38VG&tp_b=39GXDJN2OU09PHNUWG5M30LI1R38VG&c=365633&tp_c=365633"},{"rt":7657,"stimulus":"\n                <p>Student's guess for coin weight: <b style=\"color:Tomato;\">0.75</b></p>\n                <p>You received a bonus of <b>$0</b>. Total bonus so far: <b>$0.00</b></b></p>\n                <p></p>\n                <p>Press any key to continue.</p>\n                ","response":"arrowright","trial_type":"html-keyboard-response","trial_index":10,"time_elapsed":967598,"internal_node_id":"0.0-9.0","params":{"nStudents":24,"maxFlips":25,"completionMinutes":45,"basePay":8,"maxBonus":9,"perTrialBonus":0.5,"perTrialBonusThreshold":0.05,"exampleCost":0.02},"classroomParams":{"A":{"a":1,"b":4},"B":{"a":4,"b":1},"C":{"a":2,"b":8},"D":{"a":8,"b":2}},"conditions":["nonSeqFull","nonSeqPartial","seqNoFeedback","seqFeedback"],"classroomPairings":[["A","B"],["C","D"]],"coinWeights":[0.2,0.5,0.8],"subjectId":"A2I4PRZ9IZMKON","assignmentId":"39GXDJN2OU09PHNUWG5M30LI1R38VG","hitId":"3QGHA0EA0JM3KKNCY0PQRLYAHLBWBE","url":"https://gershmanlab.com/experiments/alicia/teaching/experiment/?hitId=3QGHA0EA0JM3KKNCY0PQRLYAHLBWBE&workerId=A2I4PRZ9IZMKON&assignmentId=39GXDJN2OU09PHNUWG5M30LI1R38VG&a=2DG93&tp_a=2DG93&b=39GXDJN2OU09PHNUWG5M30LI1R38VG&tp_b=39GXDJN2OU09PHNUWG5M30LI1R38VG&c=365633&tp_c=365633"},{"rt":null,"stimulus":"<div style=\"font-size:60px;\">Next student</div>","response":null,"trial_type":"html-keyboard-response","trial_index":11,"time_elapsed":970100,"internal_node_id":"0.0-10.0-0.0","params":{"nStudents":24,"maxFlips":25,"completionMinutes":45,"basePay":8,"maxBonus":9,"perTrialBonus":0.5,"perTrialBonusThreshold":0.05,"exampleCost":0.02},"classroomParams":{"A":{"a":1,"b":4},"B":{"a":4,"b":1},"C":{"a":2,"b":8},"D":{"a":8,"b":2}},"conditions":["nonSeqFull","nonSeqPartial","seqNoFeedback","seqFeedback"],"classroomPairings":[["A","B"],["C","D"]],"coinWeights":[0.2,0.5,0.8],"subjectId":"A2I4PRZ9IZMKON","assignmentId":"39GXDJN2OU09PHNUWG5M30LI1R38VG","hitId":"3QGHA0EA0JM3KKNCY0PQRLYAHLBWBE","url":"https://gershmanlab.com/experiments/alicia/teaching/experiment/?hitId=3QGHA0EA0JM3KKNCY0PQRLYAHLBWBE&workerId=A2I4PRZ9IZMKON&assignmentId=39GXDJN2OU09PHNUWG5M30LI1R38VG&a=2DG93&tp_a=2DG93&b=39GXDJN2OU09PHNUWG5M30LI1R38VG&tp_b=39GXDJN2OU09PHNUWG5M30LI1R38VG&c=365633&tp_c=365633"},{"rt":2159,"stimulus":"\n            <h4 style=\"color:Orange;\">Student 2</h4>\n            <h2>The weight of your coin is <b style=\"color:Tomato;\">0.8</b>.</h2>\n            <p>In this block, you will be giving <b>one</b> set of examples to Student 2.</p>\n                <p>You will receive feedback at the end of the block.</p>\n            <p></p>","response":0,"trial_type":"html-button-response","trial_index":12,"time_elapsed":972261,"internal_node_id":"0.0-11.0","params":{"nStudents":24,"maxFlips":25,"completionMinutes":45,"basePay":8,"maxBonus":9,"perTrialBonus":0.5,"perTrialBonusThreshold":0.05,"exampleCost":0.02},"classroomParams":{"A":{"a":1,"b":4},"B":{"a":4,"b":1},"C":{"a":2,"b":8},"D":{"a":8,"b":2}},"conditions":["nonSeqFull","nonSeqPartial","seqNoFeedback","seqFeedback"],"classroomPairings":[["A","B"],["C","D"]],"coinWeights":[0.2,0.5,0.8],"subjectId":"A2I4PRZ9IZMKON","assignmentId":"39GXDJN2OU09PHNUWG5M30LI1R38VG","hitId":"3QGHA0EA0JM3KKNCY0PQRLYAHLBWBE","url":"https://gershmanlab.com/experiments/alicia/teaching/experiment/?hitId=3QGHA0EA0JM3KKNCY0PQRLYAHLBWBE&workerId=A2I4PRZ9IZMKON&assignmentId=39GXDJN2OU09PHNUWG5M30LI1R38VG&a=2DG93&tp_a=2DG93&b=39GXDJN2OU09PHNUWG5M30LI1R38VG&tp_b=39GXDJN2OU09PHNUWG5M30LI1R38VG&c=365633&tp_c=365633"},{"rt":10482,"response":{"heads":"8","tails":"0"},"type":"response","condition":"nonSeqPartial","trueTheta":0.8,"classrooms":["A","B"],"studentTrueClassroom":"B","exampleSet":"first","trial_type":"survey-html-form","trial_index":13,"time_elapsed":982746,"internal_node_id":"0.0-12.0-0.0","params":{"nStudents":24,"maxFlips":25,"completionMinutes":45,"basePay":8,"maxBonus":9,"perTrialBonus":0.5,"perTrialBonusThreshold":0.05,"exampleCost":0.02},"classroomParams":{"A":{"a":1,"b":4},"B":{"a":4,"b":1},"C":{"a":2,"b":8},"D":{"a":8,"b":2}},"conditions":["nonSeqFull","nonSeqPartial","seqNoFeedback","seqFeedback"],"classroomPairings":[["A","B"],["C","D"]],"coinWeights":[0.2,0.5,0.8],"subjectId":"A2I4PRZ9IZMKON","assignmentId":"39GXDJN2OU09PHNUWG5M30LI1R38VG","hitId":"3QGHA0EA0JM3KKNCY0PQRLYAHLBWBE","url":"https://gershmanlab.com/experiments/alicia/teaching/experiment/?hitId=3QGHA0EA0JM3KKNCY0PQRLYAHLBWBE&workerId=A2I4PRZ9IZMKON&assignmentId=39GXDJN2OU09PHNUWG5M30LI1R38VG&a=2DG93&tp_a=2DG93&b=39GXDJN2OU09PHNUWG5M30LI1R38VG&tp_b=39GXDJN2OU09PHNUWG5M30LI1R38VG&c=365633&tp_c=365633","heads":8,"tails":0,"studentIndex":1,"studentTrueHypers":{"a":4,"b":1},"studentGuess":0.9230769230769231,"delta":0.12307692307692308,"totalExamples":8,"bonus":0,"bonusSoFar":0},{"rt":null,"stimulus":"Sending examples to student... ","response":null,"trial_type":"html-keyboard-response","trial_index":14,"time_elapsed":984498,"internal_node_id":"0.0-13.0","params":{"nStudents":24,"maxFlips":25,"completionMinutes":45,"basePay":8,"maxBonus":9,"perTrialBonus":0.5,"perTrialBonusThreshold":0.05,"exampleCost":0.02},"classroomParams":{"A":{"a":1,"b":4},"B":{"a":4,"b":1},"C":{"a":2,"b":8},"D":{"a":8,"b":2}},"conditions":["nonSeqFull","nonSeqPartial","seqNoFeedback","seqFeedback"],"classroomPairings":[["A","B"],["C","D"]],"coinWeights":[0.2,0.5,0.8],"subjectId":"A2I4PRZ9IZMKON","assignmentId":"39GXDJN2OU09PHNUWG5M30LI1R38VG","hitId":"3QGHA0EA0JM3KKNCY0PQRLYAHLBWBE","url":"https://gershmanlab.com/experiments/alicia/teaching/experiment/?hitId=3QGHA0EA0JM3KKNCY0PQRLYAHLBWBE&workerId=A2I4PRZ9IZMKON&assignmentId=39GXDJN2OU09PHNUWG5M30LI1R38VG&a=2DG93&tp_a=2DG93&b=39GXDJN2OU09PHNUWG5M30LI1R38VG&tp_b=39GXDJN2OU09PHNUWG5M30LI1R38VG&c=365633&tp_c=365633"},{"rt":null,"stimulus":"Examples sent to student! Waiting for student...","response":null,"trial_type":"html-keyboard-response","trial_index":15,"time_elapsed":989001,"internal_node_id":"0.0-14.0","params":{"nStudents":24,"maxFlips":25,"completionMinutes":45,"basePay":8,"maxBonus":9,"perTrialBonus":0.5,"perTrialBonusThreshold":0.05,"exampleCost":0.02},"classroomParams":{"A":{"a":1,"b":4},"B":{"a":4,"b":1},"C":{"a":2,"b":8},"D":{"a":8,"b":2}},"conditions":["nonSeqFull","nonSeqPartial","seqNoFeedback","seqFeedback"],"classroomPairings":[["A","B"],["C","D"]],"coinWeights":[0.2,0.5,0.8],"subjectId":"A2I4PRZ9IZMKON","assignmentId":"39GXDJN2OU09PHNUWG5M30LI1R38VG","hitId":"3QGHA0EA0JM3KKNCY0PQRLYAHLBWBE","url":"https://gershmanlab.com/experiments/alicia/teaching/experiment/?hitId=3QGHA0EA0JM3KKNCY0PQRLYAHLBWBE&workerId=A2I4PRZ9IZMKON&assignmentId=39GXDJN2OU09PHNUWG5M30LI1R38VG&a=2DG93&tp_a=2DG93&b=39GXDJN2OU09PHNUWG5M30LI1R38VG&tp_b=39GXDJN2OU09PHNUWG5M30LI1R38VG&c=365633&tp_c=365633"},{"rt":4881,"stimulus":"\n                <p>Student's guess for coin weight: <b style=\"color:Tomato;\">0.92</b></p>\n                <p>You received a bonus of <b>$0</b>. Total bonus so far: <b>$0.00</b></b></p>\n                <p></p>\n                <p>Press any key to continue.</p>\n                ","response":"s","trial_type":"html-keyboard-response","trial_index":16,"time_elapsed":993884,"internal_node_id":"0.0-15.0","params":{"nStudents":24,"maxFlips":25,"completionMinutes":45,"basePay":8,"maxBonus":9,"perTrialBonus":0.5,"perTrialBonusThreshold":0.05,"exampleCost":0.02},"classroomParams":{"A":{"a":1,"b":4},"B":{"a":4,"b":1},"C":{"a":2,"b":8},"D":{"a":8,"b":2}},"conditions":["nonSeqFull","nonSeqPartial","seqNoFeedback","seqFeedback"],"classroomPairings":[["A","B"],["C","D"]],"coinWeights":[0.2,0.5,0.8],"subjectId":"A2I4PRZ9IZMKON","assignmentId":"39GXDJN2OU09PHNUWG5M30LI1R38VG","hitId":"3QGHA0EA0JM3KKNCY0PQRLYAHLBWBE","url":"https://gershmanlab.com/experiments/alicia/teaching/experiment/?hitId=3QGHA0EA0JM3KKNCY0PQRLYAHLBWBE&workerId=A2I4PRZ9IZMKON&assignmentId=39GXDJN2OU09PHNUWG5M30LI1R38VG&a=2DG93&tp_a=2DG93&b=39GXDJN2OU09PHNUWG5M30LI1R38VG&tp_b=39GXDJN2OU09PHNUWG5M30LI1R38VG&c=365633&tp_c=365633"},{"rt":null,"stimulus":"<div style=\"font-size:60px;\">Next student</div>","response":null,"trial_type":"html-keyboard-response","trial_index":17,"time_elapsed":995886,"internal_node_id":"0.0-16.0-0.0","params":{"nStudents":24,"maxFlips":25,"completionMinutes":45,"basePay":8,"maxBonus":9,"perTrialBonus":0.5,"perTrialBonusThreshold":0.05,"exampleCost":0.02},"classroomParams":{"A":{"a":1,"b":4},"B":{"a":4,"b":1},"C":{"a":2,"b":8},"D":{"a":8,"b":2}},"conditions":["nonSeqFull","nonSeqPartial","seqNoFeedback","seqFeedback"],"classroomPairings":[["A","B"],["C","D"]],"coinWeights":[0.2,0.5,0.8],"subjectId":"A2I4PRZ9IZMKON","assignmentId":"39GXDJN2OU09PHNUWG5M30LI1R38VG","hitId":"3QGHA0EA0JM3KKNCY0PQRLYAHLBWBE","url":"https://gershmanlab.com/experiments/alicia/teaching/experiment/?hitId=3QGHA0EA0JM3KKNCY0PQRLYAHLBWBE&workerId=A2I4PRZ9IZMKON&assignmentId=39GXDJN2OU09PHNUWG5M30LI1R38VG&a=2DG93&tp_a=2DG93&b=39GXDJN2OU09PHNUWG5M30LI1R38VG&tp_b=39GXDJN2OU09PHNUWG5M30LI1R38VG&c=365633&tp_c=365633"},{"rt":3794,"stimulus":"\n            <h4 style=\"color:Orange;\">Student 3</h4>\n            <h2>The weight of your coin is <b style=\"color:Tomato;\">0.8</b>.</h2>\n            <p>In this block, you will be giving <b>one</b> set of examples to Student 3.</p>\n                <p>You will receive feedback at the end of the block.</p>\n            <p></p>","response":0,"trial_type":"html-button-response","trial_index":18,"time_elapsed":999682,"internal_node_id":"0.0-17.0","params":{"nStudents":24,"maxFlips":25,"completionMinutes":45,"basePay":8,"maxBonus":9,"perTrialBonus":0.5,"perTrialBonusThreshold":0.05,"exampleCost":0.02},"classroomParams":{"A":{"a":1,"b":4},"B":{"a":4,"b":1},"C":{"a":2,"b":8},"D":{"a":8,"b":2}},"conditions":["nonSeqFull","nonSeqPartial","seqNoFeedback","seqFeedback"],"classroomPairings":[["A","B"],["C","D"]],"coinWeights":[0.2,0.5,0.8],"subjectId":"A2I4PRZ9IZMKON","assignmentId":"39GXDJN2OU09PHNUWG5M30LI1R38VG","hitId":"3QGHA0EA0JM3KKNCY0PQRLYAHLBWBE","url":"https://gershmanlab.com/experiments/alicia/teaching/experiment/?hitId=3QGHA0EA0JM3KKNCY0PQRLYAHLBWBE&workerId=A2I4PRZ9IZMKON&assignmentId=39GXDJN2OU09PHNUWG5M30LI1R38VG&a=2DG93&tp_a=2DG93&b=39GXDJN2OU09PHNUWG5M30LI1R38VG&tp_b=39GXDJN2OU09PHNUWG5M30LI1R38VG&c=365633&tp_c=365633"},{"rt":8171,"response":{"heads":"0","tails":"0"},"type":"response","condition":"nonSeqPartial","trueTheta":0.8,"classrooms":["C","D"],"studentTrueClassroom":"C","exampleSet":"first","trial_type":"survey-html-form","trial_index":19,"time_elapsed":1007855,"internal_node_id":"0.0-18.0-0.0","params":{"nStudents":24,"maxFlips":25,"completionMinutes":45,"basePay":8,"maxBonus":9,"perTrialBonus":0.5,"perTrialBonusThreshold":0.05,"exampleCost":0.02},"classroomParams":{"A":{"a":1,"b":4},"B":{"a":4,"b":1},"C":{"a":2,"b":8},"D":{"a":8,"b":2}},"conditions":["nonSeqFull","nonSeqPartial","seqNoFeedback","seqFeedback"],"classroomPairings":[["A","B"],["C","D"]],"coinWeights":[0.2,0.5,0.8],"subjectId":"A2I4PRZ9IZMKON","assignmentId":"39GXDJN2OU09PHNUWG5M30LI1R38VG","hitId":"3QGHA0EA0JM3KKNCY0PQRLYAHLBWBE","url":"https://gershmanlab.com/experiments/alicia/teaching/experiment/?hitId=3QGHA0EA0JM3KKNCY0PQRLYAHLBWBE&workerId=A2I4PRZ9IZMKON&assignmentId=39GXDJN2OU09PHNUWG5M30LI1R38VG&a=2DG93&tp_a=2DG93&b=39GXDJN2OU09PHNUWG5M30LI1R38VG&tp_b=39GXDJN2OU09PHNUWG5M30LI1R38VG&c=365633&tp_c=365633","heads":0,"tails":0,"studentIndex":2,"studentTrueHypers":{"a":2,"b":8},"studentGuess":0.2,"delta":0.6000000000000001,"totalExamples":0,"bonus":0,"bonusSoFar":0},{"rt":2187,"response":{"heads":"0","tails":"0"},"type":"response","condition":"nonSeqPartial","trueTheta":0.8,"classrooms":["C","D"],"studentTrueClassroom":"C","exampleSet":"first","trial_type":"survey-html-form","trial_index":20,"time_elapsed":1010046,"internal_node_id":"0.0-18.1-0.1","params":{"nStudents":24,"maxFlips":25,"completionMinutes":45,"basePay":8,"maxBonus":9,"perTrialBonus":0.5,"perTrialBonusThreshold":0.05,"exampleCost":0.02},"classroomParams":{"A":{"a":1,"b":4},"B":{"a":4,"b":1},"C":{"a":2,"b":8},"D":{"a":8,"b":2}},"conditions":["nonSeqFull","nonSeqPartial","seqNoFeedback","seqFeedback"],"classroomPairings":[["A","B"],["C","D"]],"coinWeights":[0.2,0.5,0.8],"subjectId":"A2I4PRZ9IZMKON","assignmentId":"39GXDJN2OU09PHNUWG5M30LI1R38VG","hitId":"3QGHA0EA0JM3KKNCY0PQRLYAHLBWBE","url":"https://gershmanlab.com/experiments/alicia/teaching/experiment/?hitId=3QGHA0EA0JM3KKNCY0PQRLYAHLBWBE&workerId=A2I4PRZ9IZMKON&assignmentId=39GXDJN2OU09PHNUWG5M30LI1R38VG&a=2DG93&tp_a=2DG93&b=39GXDJN2OU09PHNUWG5M30LI1R38VG&tp_b=39GXDJN2OU09PHNUWG5M30LI1R38VG&c=365633&tp_c=365633","heads":0,"tails":0,"studentIndex":2,"studentTrueHypers":{"a":2,"b":8},"studentGuess":0.2,"delta":0.6000000000000001,"totalExamples":0,"bonus":0,"bonusSoFar":0},{"rt":4749,"response":{"heads":"1","tails":"1"},"type":"response","condition":"nonSeqPartial","trueTheta":0.8,"classrooms":["C","D"],"studentTrueClassroom":"C","exampleSet":"first","trial_type":"survey-html-form","trial_index":21,"time_elapsed":1014796,"internal_node_id":"0.0-18.2-0.2","params":{"nStudents":24,"maxFlips":25,"completionMinutes":45,"basePay":8,"maxBonus":9,"perTrialBonus":0.5,"perTrialBonusThreshold":0.05,"exampleCost":0.02},"classroomParams":{"A":{"a":1,"b":4},"B":{"a":4,"b":1},"C":{"a":2,"b":8},"D":{"a":8,"b":2}},"conditions":["nonSeqFull","nonSeqPartial","seqNoFeedback","seqFeedback"],"classroomPairings":[["A","B"],["C","D"]],"coinWeights":[0.2,0.5,0.8],"subjectId":"A2I4PRZ9IZMKON","assignmentId":"39GXDJN2OU09PHNUWG5M30LI1R38VG","hitId":"3QGHA0EA0JM3KKNCY0PQRLYAHLBWBE","url":"https://gershmanlab.com/experiments/alicia/teaching/experiment/?hitId=3QGHA0EA0JM3KKNCY0PQRLYAHLBWBE&workerId=A2I4PRZ9IZMKON&assignmentId=39GXDJN2OU09PHNUWG5M30LI1R38VG&a=2DG93&tp_a=2DG93&b=39GXDJN2OU09PHNUWG5M30LI1R38VG&tp_b=39GXDJN2OU09PHNUWG5M30LI1R38VG&c=365633&tp_c=365633","heads":1,"tails":1,"studentIndex":2,"studentTrueHypers":{"a":2,"b":8},"studentGuess":0.25,"delta":0.55,"totalExamples":2,"bonus":0,"bonusSoFar":0},{"rt":null,"stimulus":"Sending examples to student... ","response":null,"trial_type":"html-keyboard-response","trial_index":22,"time_elapsed":1016299,"internal_node_id":"0.0-19.0","params":{"nStudents":24,"maxFlips":25,"completionMinutes":45,"basePay":8,"maxBonus":9,"perTrialBonus":0.5,"perTrialBonusThreshold":0.05,"exampleCost":0.02},"classroomParams":{"A":{"a":1,"b":4},"B":{"a":4,"b":1},"C":{"a":2,"b":8},"D":{"a":8,"b":2}},"conditions":["nonSeqFull","nonSeqPartial","seqNoFeedback","seqFeedback"],"classroomPairings":[["A","B"],["C","D"]],"coinWeights":[0.2,0.5,0.8],"subjectId":"A2I4PRZ9IZMKON","assignmentId":"39GXDJN2OU09PHNUWG5M30LI1R38VG","hitId":"3QGHA0EA0JM3KKNCY0PQRLYAHLBWBE","url":"https://gershmanlab.com/experiments/alicia/teaching/experiment/?hitId=3QGHA0EA0JM3KKNCY0PQRLYAHLBWBE&workerId=A2I4PRZ9IZMKON&assignmentId=39GXDJN2OU09PHNUWG5M30LI1R38VG&a=2DG93&tp_a=2DG93&b=39GXDJN2OU09PHNUWG5M30LI1R38VG&tp_b=39GXDJN2OU09PHNUWG5M30LI1R38VG&c=365633&tp_c=365633"},{"rt":null,"stimulus":"Examples sent to student! Waiting for student...","response":null,"trial_type":"html-keyboard-response","trial_index":23,"time_elapsed":1021802,"internal_node_id":"0.0-20.0","params":{"nStudents":24,"maxFlips":25,"completionMinutes":45,"basePay":8,"maxBonus":9,"perTrialBonus":0.5,"perTrialBonusThreshold":0.05,"exampleCost":0.02},"classroomParams":{"A":{"a":1,"b":4},"B":{"a":4,"b":1},"C":{"a":2,"b":8},"D":{"a":8,"b":2}},"conditions":["nonSeqFull","nonSeqPartial","seqNoFeedback","seqFeedback"],"classroomPairings":[["A","B"],["C","D"]],"coinWeights":[0.2,0.5,0.8],"subjectId":"A2I4PRZ9IZMKON","assignmentId":"39GXDJN2OU09PHNUWG5M30LI1R38VG","hitId":"3QGHA0EA0JM3KKNCY0PQRLYAHLBWBE","url":"https://gershmanlab.com/experiments/alicia/teaching/experiment/?hitId=3QGHA0EA0JM3KKNCY0PQRLYAHLBWBE&workerId=A2I4PRZ9IZMKON&assignmentId=39GXDJN2OU09PHNUWG5M30LI1R38VG&a=2DG93&tp_a=2DG93&b=39GXDJN2OU09PHNUWG5M30LI1R38VG&tp_b=39GXDJN2OU09PHNUWG5M30LI1R38VG&c=365633&tp_c=365633"},{"rt":2157,"stimulus":"\n                <p>Student's guess for coin weight: <b style=\"color:Tomato;\">0.20</b></p>\n                <p>You received a bonus of <b>$0</b>. Total bonus so far: <b>$0.00</b></b></p>\n                <p></p>\n                <p>Press any key to continue.</p>\n                ","response":"1","trial_type":"html-keyboard-response","trial_index":24,"time_elapsed":1023960,"internal_node_id":"0.0-21.0","params":{"nStudents":24,"maxFlips":25,"completionMinutes":45,"basePay":8,"maxBonus":9,"perTrialBonus":0.5,"perTrialBonusThreshold":0.05,"exampleCost":0.02},"classroomParams":{"A":{"a":1,"b":4},"B":{"a":4,"b":1},"C":{"a":2,"b":8},"D":{"a":8,"b":2}},"conditions":["nonSeqFull","nonSeqPartial","seqNoFeedback","seqFeedback"],"classroomPairings":[["A","B"],["C","D"]],"coinWeights":[0.2,0.5,0.8],"subjectId":"A2I4PRZ9IZMKON","assignmentId":"39GXDJN2OU09PHNUWG5M30LI1R38VG","hitId":"3QGHA0EA0JM3KKNCY0PQRLYAHLBWBE","url":"https://gershmanlab.com/experiments/alicia/teaching/experiment/?hitId=3QGHA0EA0JM3KKNCY0PQRLYAHLBWBE&workerId=A2I4PRZ9IZMKON&assignmentId=39GXDJN2OU09PHNUWG5M30LI1R38VG&a=2DG93&tp_a=2DG93&b=39GXDJN2OU09PHNUWG5M30LI1R38VG&tp_b=39GXDJN2OU09PHNUWG5M30LI1R38VG&c=365633&tp_c=365633"},{"rt":null,"stimulus":"<div style=\"font-size:60px;\">Next student</div>","response":null,"trial_type":"html-keyboard-response","trial_index":25,"time_elapsed":1026463,"internal_node_id":"0.0-22.0-0.0","params":{"nStudents":24,"maxFlips":25,"completionMinutes":45,"basePay":8,"maxBonus":9,"perTrialBonus":0.5,"perTrialBonusThreshold":0.05,"exampleCost":0.02},"classroomParams":{"A":{"a":1,"b":4},"B":{"a":4,"b":1},"C":{"a":2,"b":8},"D":{"a":8,"b":2}},"conditions":["nonSeqFull","nonSeqPartial","seqNoFeedback","seqFeedback"],"classroomPairings":[["A","B"],["C","D"]],"coinWeights":[0.2,0.5,0.8],"subjectId":"A2I4PRZ9IZMKON","assignmentId":"39GXDJN2OU09PHNUWG5M30LI1R38VG","hitId":"3QGHA0EA0JM3KKNCY0PQRLYAHLBWBE","url":"https://gershmanlab.com/experiments/alicia/teaching/experiment/?hitId=3QGHA0EA0JM3KKNCY0PQRLYAHLBWBE&workerId=A2I4PRZ9IZMKON&assignmentId=39GXDJN2OU09PHNUWG5M30LI1R38VG&a=2DG93&tp_a=2DG93&b=39GXDJN2OU09PHNUWG5M30LI1R38VG&tp_b=39GXDJN2OU09PHNUWG5M30LI1R38VG&c=365633&tp_c=365633"},{"rt":6786,"stimulus":"\n            <h4 style=\"color:Orange;\">Student 4</h4>\n            <h2>The weight of your coin is <b style=\"color:Tomato;\">0.2</b>.</h2>\n            <p>In this block, you will be giving <b>two</b> sets of examples to Student 4.</p>\n                <p>You will see the student's guess after the first set of examples. You will also receive feedback at the end of the block.</p>\n            <p>To earn the highest bonus, you will have to <b>take into consideration the student's guess</b> when you choose your second set of examples.</p>","response":0,"trial_type":"html-button-response","trial_index":26,"time_elapsed":1033251,"internal_node_id":"0.0-23.0","params":{"nStudents":24,"maxFlips":25,"completionMinutes":45,"basePay":8,"maxBonus":9,"perTrialBonus":0.5,"perTrialBonusThreshold":0.05,"exampleCost":0.02},"classroomParams":{"A":{"a":1,"b":4},"B":{"a":4,"b":1},"C":{"a":2,"b":8},"D":{"a":8,"b":2}},"conditions":["nonSeqFull","nonSeqPartial","seqNoFeedback","seqFeedback"],"classroomPairings":[["A","B"],["C","D"]],"coinWeights":[0.2,0.5,0.8],"subjectId":"A2I4PRZ9IZMKON","assignmentId":"39GXDJN2OU09PHNUWG5M30LI1R38VG","hitId":"3QGHA0EA0JM3KKNCY0PQRLYAHLBWBE","url":"https://gershmanlab.com/experiments/alicia/teaching/experiment/?hitId=3QGHA0EA0JM3KKNCY0PQRLYAHLBWBE&workerId=A2I4PRZ9IZMKON&assignmentId=39GXDJN2OU09PHNUWG5M30LI1R38VG&a=2DG93&tp_a=2DG93&b=39GXDJN2OU09PHNUWG5M30LI1R38VG&tp_b=39GXDJN2OU09PHNUWG5M30LI1R38VG&c=365633&tp_c=365633"},{"rt":7737,"response":{"heads":"1","tails":"1"},"type":"response","condition":"seqFeedback","trueTheta":0.2,"classrooms":["C","D"],"studentTrueClassroom":"D","exampleSet":"first","trial_type":"survey-html-form","trial_index":27,"time_elapsed":1040991,"internal_node_id":"0.0-24.0-0.0","params":{"nStudents":24,"maxFlips":25,"completionMinutes":45,"basePay":8,"maxBonus":9,"perTrialBonus":0.5,"perTrialBonusThreshold":0.05,"exampleCost":0.02},"classroomParams":{"A":{"a":1,"b":4},"B":{"a":4,"b":1},"C":{"a":2,"b":8},"D":{"a":8,"b":2}},"conditions":["nonSeqFull","nonSeqPartial","seqNoFeedback","seqFeedback"],"classroomPairings":[["A","B"],["C","D"]],"coinWeights":[0.2,0.5,0.8],"subjectId":"A2I4PRZ9IZMKON","assignmentId":"39GXDJN2OU09PHNUWG5M30LI1R38VG","hitId":"3QGHA0EA0JM3KKNCY0PQRLYAHLBWBE","url":"https://gershmanlab.com/experiments/alicia/teaching/experiment/?hitId=3QGHA0EA0JM3KKNCY0PQRLYAHLBWBE&workerId=A2I4PRZ9IZMKON&assignmentId=39GXDJN2OU09PHNUWG5M30LI1R38VG&a=2DG93&tp_a=2DG93&b=39GXDJN2OU09PHNUWG5M30LI1R38VG&tp_b=39GXDJN2OU09PHNUWG5M30LI1R38VG&c=365633&tp_c=365633","heads":1,"tails":1,"studentIndex":3,"studentTrueHypers":{"a":8,"b":2},"studentGuess":0.75,"delta":0.55,"totalExamples":2,"bonusSoFar":0},{"rt":null,"stimulus":"Sending examples to student... ","response":null,"trial_type":"html-keyboard-response","trial_index":28,"time_elapsed":1042242,"internal_node_id":"0.0-25.0","params":{"nStudents":24,"maxFlips":25,"completionMinutes":45,"basePay":8,"maxBonus":9,"perTrialBonus":0.5,"perTrialBonusThreshold":0.05,"exampleCost":0.02},"classroomParams":{"A":{"a":1,"b":4},"B":{"a":4,"b":1},"C":{"a":2,"b":8},"D":{"a":8,"b":2}},"conditions":["nonSeqFull","nonSeqPartial","seqNoFeedback","seqFeedback"],"classroomPairings":[["A","B"],["C","D"]],"coinWeights":[0.2,0.5,0.8],"subjectId":"A2I4PRZ9IZMKON","assignmentId":"39GXDJN2OU09PHNUWG5M30LI1R38VG","hitId":"3QGHA0EA0JM3KKNCY0PQRLYAHLBWBE","url":"https://gershmanlab.com/experiments/alicia/teaching/experiment/?hitId=3QGHA0EA0JM3KKNCY0PQRLYAHLBWBE&workerId=A2I4PRZ9IZMKON&assignmentId=39GXDJN2OU09PHNUWG5M30LI1R38VG&a=2DG93&tp_a=2DG93&b=39GXDJN2OU09PHNUWG5M30LI1R38VG&tp_b=39GXDJN2OU09PHNUWG5M30LI1R38VG&c=365633&tp_c=365633"},{"rt":null,"stimulus":"Examples sent to student! Waiting for student...","response":null,"trial_type":"html-keyboard-response","trial_index":29,"time_elapsed":1047244,"internal_node_id":"0.0-26.0","params":{"nStudents":24,"maxFlips":25,"completionMinutes":45,"basePay":8,"maxBonus":9,"perTrialBonus":0.5,"perTrialBonusThreshold":0.05,"exampleCost":0.02},"classroomParams":{"A":{"a":1,"b":4},"B":{"a":4,"b":1},"C":{"a":2,"b":8},"D":{"a":8,"b":2}},"conditions":["nonSeqFull","nonSeqPartial","seqNoFeedback","seqFeedback"],"classroomPairings":[["A","B"],["C","D"]],"coinWeights":[0.2,0.5,0.8],"subjectId":"A2I4PRZ9IZMKON","assignmentId":"39GXDJN2OU09PHNUWG5M30LI1R38VG","hitId":"3QGHA0EA0JM3KKNCY0PQRLYAHLBWBE","url":"https://gershmanlab.com/experiments/alicia/teaching/experiment/?hitId=3QGHA0EA0JM3KKNCY0PQRLYAHLBWBE&workerId=A2I4PRZ9IZMKON&assignmentId=39GXDJN2OU09PHNUWG5M30LI1R38VG&a=2DG93&tp_a=2DG93&b=39GXDJN2OU09PHNUWG5M30LI1R38VG&tp_b=39GXDJN2OU09PHNUWG5M30LI1R38VG&c=365633&tp_c=365633"},{"rt":3177,"stimulus":"\n                <p>Student's guess for coin weight: <b style=\"color:Tomato;\">0.75</b></p>\n                <p></b></p>\n                <p>You will now send another set of examples to your student. <b>Remember to take your student's guess into consideration so that you can earn the highest bonus possible!</b> </p>\n                <p>Press any key to continue.</p>\n                ","response":"1","trial_type":"html-keyboard-response","trial_index":30,"time_elapsed":1050423,"internal_node_id":"0.0-27.0","params":{"nStudents":24,"maxFlips":25,"completionMinutes":45,"basePay":8,"maxBonus":9,"perTrialBonus":0.5,"perTrialBonusThreshold":0.05,"exampleCost":0.02},"classroomParams":{"A":{"a":1,"b":4},"B":{"a":4,"b":1},"C":{"a":2,"b":8},"D":{"a":8,"b":2}},"conditions":["nonSeqFull","nonSeqPartial","seqNoFeedback","seqFeedback"],"classroomPairings":[["A","B"],["C","D"]],"coinWeights":[0.2,0.5,0.8],"subjectId":"A2I4PRZ9IZMKON","assignmentId":"39GXDJN2OU09PHNUWG5M30LI1R38VG","hitId":"3QGHA0EA0JM3KKNCY0PQRLYAHLBWBE","url":"https://gershmanlab.com/experiments/alicia/teaching/experiment/?hitId=3QGHA0EA0JM3KKNCY0PQRLYAHLBWBE&workerId=A2I4PRZ9IZMKON&assignmentId=39GXDJN2OU09PHNUWG5M30LI1R38VG&a=2DG93&tp_a=2DG93&b=39GXDJN2OU09PHNUWG5M30LI1R38VG&tp_b=39GXDJN2OU09PHNUWG5M30LI1R38VG&c=365633&tp_c=365633"},{"rt":14643,"response":{"heads":"0","tails":"20"},"type":"response","condition":"seqFeedback","trueTheta":0.2,"classrooms":["C","D"],"studentTrueClassroom":"D","exampleSet":"second","trial_type":"survey-html-form","trial_index":31,"time_elapsed":1065069,"internal_node_id":"0.0-28.0-0.0","params":{"nStudents":24,"maxFlips":25,"completionMinutes":45,"basePay":8,"maxBonus":9,"perTrialBonus":0.5,"perTrialBonusThreshold":0.05,"exampleCost":0.02},"classroomParams":{"A":{"a":1,"b":4},"B":{"a":4,"b":1},"C":{"a":2,"b":8},"D":{"a":8,"b":2}},"conditions":["nonSeqFull","nonSeqPartial","seqNoFeedback","seqFeedback"],"classroomPairings":[["A","B"],["C","D"]],"coinWeights":[0.2,0.5,0.8],"subjectId":"A2I4PRZ9IZMKON","assignmentId":"39GXDJN2OU09PHNUWG5M30LI1R38VG","hitId":"3QGHA0EA0JM3KKNCY0PQRLYAHLBWBE","url":"https://gershmanlab.com/experiments/alicia/teaching/experiment/?hitId=3QGHA0EA0JM3KKNCY0PQRLYAHLBWBE&workerId=A2I4PRZ9IZMKON&assignmentId=39GXDJN2OU09PHNUWG5M30LI1R38VG&a=2DG93&tp_a=2DG93&b=39GXDJN2OU09PHNUWG5M30LI1R38VG&tp_b=39GXDJN2OU09PHNUWG5M30LI1R38VG&c=365633&tp_c=365633","firstResponseHeads":1,"firstResponseTails":1,"secondResponseHeads":0,"secondResponseTails":20,"totalHeads":1,"totalTails":21,"studentIndex":3,"studentTrueHypers":{"a":8,"b":2},"studentGuess":0.28125,"delta":0.08124999999999999,"bonus":0,"bonusSoFar":0,"totalExamples":22},{"rt":null,"stimulus":"Sending examples to student... ","response":null,"trial_type":"html-keyboard-response","trial_index":32,"time_elapsed":1066571,"internal_node_id":"0.0-29.0","params":{"nStudents":24,"maxFlips":25,"completionMinutes":45,"basePay":8,"maxBonus":9,"perTrialBonus":0.5,"perTrialBonusThreshold":0.05,"exampleCost":0.02},"classroomParams":{"A":{"a":1,"b":4},"B":{"a":4,"b":1},"C":{"a":2,"b":8},"D":{"a":8,"b":2}},"conditions":["nonSeqFull","nonSeqPartial","seqNoFeedback","seqFeedback"],"classroomPairings":[["A","B"],["C","D"]],"coinWeights":[0.2,0.5,0.8],"subjectId":"A2I4PRZ9IZMKON","assignmentId":"39GXDJN2OU09PHNUWG5M30LI1R38VG","hitId":"3QGHA0EA0JM3KKNCY0PQRLYAHLBWBE","url":"https://gershmanlab.com/experiments/alicia/teaching/experiment/?hitId=3QGHA0EA0JM3KKNCY0PQRLYAHLBWBE&workerId=A2I4PRZ9IZMKON&assignmentId=39GXDJN2OU09PHNUWG5M30LI1R38VG&a=2DG93&tp_a=2DG93&b=39GXDJN2OU09PHNUWG5M30LI1R38VG&tp_b=39GXDJN2OU09PHNUWG5M30LI1R38VG&c=365633&tp_c=365633"},{"rt":null,"stimulus":"Examples sent to student! Waiting for student...","response":null,"trial_type":"html-keyboard-response","trial_index":33,"time_elapsed":1070572,"internal_node_id":"0.0-30.0","params":{"nStudents":24,"maxFlips":25,"completionMinutes":45,"basePay":8,"maxBonus":9,"perTrialBonus":0.5,"perTrialBonusThreshold":0.05,"exampleCost":0.02},"classroomParams":{"A":{"a":1,"b":4},"B":{"a":4,"b":1},"C":{"a":2,"b":8},"D":{"a":8,"b":2}},"conditions":["nonSeqFull","nonSeqPartial","seqNoFeedback","seqFeedback"],"classroomPairings":[["A","B"],["C","D"]],"coinWeights":[0.2,0.5,0.8],"subjectId":"A2I4PRZ9IZMKON","assignmentId":"39GXDJN2OU09PHNUWG5M30LI1R38VG","hitId":"3QGHA0EA0JM3KKNCY0PQRLYAHLBWBE","url":"https://gershmanlab.com/experiments/alicia/teaching/experiment/?hitId=3QGHA0EA0JM3KKNCY0PQRLYAHLBWBE&workerId=A2I4PRZ9IZMKON&assignmentId=39GXDJN2OU09PHNUWG5M30LI1R38VG&a=2DG93&tp_a=2DG93&b=39GXDJN2OU09PHNUWG5M30LI1R38VG&tp_b=39GXDJN2OU09PHNUWG5M30LI1R38VG&c=365633&tp_c=365633"},{"rt":3775,"stimulus":"\n                <p>Student 4's first guess for coin weight: <b style=\"color:Tomato\";>0.75</b></p>\n                <p>Student 4's second guess for coin weight: <b style=\"color:Tomato\";>0.28</b></p>\n                <p>You received a bonus of <b>$0.00</b> based on the student's second guess.</p>\n                <p>Total bonus so far: <b>$0.00</b></p>\n                <p>Press any key to continue.</p>\n                ","response":"arrowright","trial_type":"html-keyboard-response","trial_index":34,"time_elapsed":1074349,"internal_node_id":"0.0-31.0","params":{"nStudents":24,"maxFlips":25,"completionMinutes":45,"basePay":8,"maxBonus":9,"perTrialBonus":0.5,"perTrialBonusThreshold":0.05,"exampleCost":0.02},"classroomParams":{"A":{"a":1,"b":4},"B":{"a":4,"b":1},"C":{"a":2,"b":8},"D":{"a":8,"b":2}},"conditions":["nonSeqFull","nonSeqPartial","seqNoFeedback","seqFeedback"],"classroomPairings":[["A","B"],["C","D"]],"coinWeights":[0.2,0.5,0.8],"subjectId":"A2I4PRZ9IZMKON","assignmentId":"39GXDJN2OU09PHNUWG5M30LI1R38VG","hitId":"3QGHA0EA0JM3KKNCY0PQRLYAHLBWBE","url":"https://gershmanlab.com/experiments/alicia/teaching/experiment/?hitId=3QGHA0EA0JM3KKNCY0PQRLYAHLBWBE&workerId=A2I4PRZ9IZMKON&assignmentId=39GXDJN2OU09PHNUWG5M30LI1R38VG&a=2DG93&tp_a=2DG93&b=39GXDJN2OU09PHNUWG5M30LI1R38VG&tp_b=39GXDJN2OU09PHNUWG5M30LI1R38VG&c=365633&tp_c=365633"},{"rt":null,"stimulus":"<div style=\"font-size:60px;\">Next student</div>","response":null,"trial_type":"html-keyboard-response","trial_index":35,"time_elapsed":1076852,"internal_node_id":"0.0-32.0-0.0","params":{"nStudents":24,"maxFlips":25,"completionMinutes":45,"basePay":8,"maxBonus":9,"perTrialBonus":0.5,"perTrialBonusThreshold":0.05,"exampleCost":0.02},"classroomParams":{"A":{"a":1,"b":4},"B":{"a":4,"b":1},"C":{"a":2,"b":8},"D":{"a":8,"b":2}},"conditions":["nonSeqFull","nonSeqPartial","seqNoFeedback","seqFeedback"],"classroomPairings":[["A","B"],["C","D"]],"coinWeights":[0.2,0.5,0.8],"subjectId":"A2I4PRZ9IZMKON","assignmentId":"39GXDJN2OU09PHNUWG5M30LI1R38VG","hitId":"3QGHA0EA0JM3KKNCY0PQRLYAHLBWBE","url":"https://gershmanlab.com/experiments/alicia/teaching/experiment/?hitId=3QGHA0EA0JM3KKNCY0PQRLYAHLBWBE&workerId=A2I4PRZ9IZMKON&assignmentId=39GXDJN2OU09PHNUWG5M30LI1R38VG&a=2DG93&tp_a=2DG93&b=39GXDJN2OU09PHNUWG5M30LI1R38VG&tp_b=39GXDJN2OU09PHNUWG5M30LI1R38VG&c=365633&tp_c=365633"},{"rt":1388,"stimulus":"\n            <h4 style=\"color:Orange;\">Student 5</h4>\n            <h2>The weight of your coin is <b style=\"color:Tomato;\">0.5</b>.</h2>\n            <p>In this block, you will be giving <b>one</b> set of examples to Student 5.</p>\n                <p>You will receive feedback at the end of the block.</p>\n            <p></p>","response":0,"trial_type":"html-button-response","trial_index":36,"time_elapsed":1078241,"internal_node_id":"0.0-33.0","params":{"nStudents":24,"maxFlips":25,"completionMinutes":45,"basePay":8,"maxBonus":9,"perTrialBonus":0.5,"perTrialBonusThreshold":0.05,"exampleCost":0.02},"classroomParams":{"A":{"a":1,"b":4},"B":{"a":4,"b":1},"C":{"a":2,"b":8},"D":{"a":8,"b":2}},"conditions":["nonSeqFull","nonSeqPartial","seqNoFeedback","seqFeedback"],"classroomPairings":[["A","B"],["C","D"]],"coinWeights":[0.2,0.5,0.8],"subjectId":"A2I4PRZ9IZMKON","assignmentId":"39GXDJN2OU09PHNUWG5M30LI1R38VG","hitId":"3QGHA0EA0JM3KKNCY0PQRLYAHLBWBE","url":"https://gershmanlab.com/experiments/alicia/teaching/experiment/?hitId=3QGHA0EA0JM3KKNCY0PQRLYAHLBWBE&workerId=A2I4PRZ9IZMKON&assignmentId=39GXDJN2OU09PHNUWG5M30LI1R38VG&a=2DG93&tp_a=2DG93&b=39GXDJN2OU09PHNUWG5M30LI1R38VG&tp_b=39GXDJN2OU09PHNUWG5M30LI1R38VG&c=365633&tp_c=365633"},{"rt":8825,"response":{"heads":"0","tails":"6"},"type":"response","condition":"nonSeqFull","trueTheta":0.5,"classrooms":["C","D"],"studentTrueClassroom":"D","exampleSet":"first","trial_type":"survey-html-form","trial_index":37,"time_elapsed":1087068,"internal_node_id":"0.0-34.0-0.0","params":{"nStudents":24,"maxFlips":25,"completionMinutes":45,"basePay":8,"maxBonus":9,"perTrialBonus":0.5,"perTrialBonusThreshold":0.05,"exampleCost":0.02},"classroomParams":{"A":{"a":1,"b":4},"B":{"a":4,"b":1},"C":{"a":2,"b":8},"D":{"a":8,"b":2}},"conditions":["nonSeqFull","nonSeqPartial","seqNoFeedback","seqFeedback"],"classroomPairings":[["A","B"],["C","D"]],"coinWeights":[0.2,0.5,0.8],"subjectId":"A2I4PRZ9IZMKON","assignmentId":"39GXDJN2OU09PHNUWG5M30LI1R38VG","hitId":"3QGHA0EA0JM3KKNCY0PQRLYAHLBWBE","url":"https://gershmanlab.com/experiments/alicia/teaching/experiment/?hitId=3QGHA0EA0JM3KKNCY0PQRLYAHLBWBE&workerId=A2I4PRZ9IZMKON&assignmentId=39GXDJN2OU09PHNUWG5M30LI1R38VG&a=2DG93&tp_a=2DG93&b=39GXDJN2OU09PHNUWG5M30LI1R38VG&tp_b=39GXDJN2OU09PHNUWG5M30LI1R38VG&c=365633&tp_c=365633","heads":0,"tails":6,"studentIndex":4,"studentTrueHypers":{"a":8,"b":2},"studentGuess":0.5,"delta":0,"totalExamples":6,"bonus":0.38,"bonusSoFar":0.38},{"rt":null,"stimulus":"Sending examples to student... ","response":null,"trial_type":"html-keyboard-response","trial_index":38,"time_elapsed":1088321,"internal_node_id":"0.0-35.0","params":{"nStudents":24,"maxFlips":25,"completionMinutes":45,"basePay":8,"maxBonus":9,"perTrialBonus":0.5,"perTrialBonusThreshold":0.05,"exampleCost":0.02},"classroomParams":{"A":{"a":1,"b":4},"B":{"a":4,"b":1},"C":{"a":2,"b":8},"D":{"a":8,"b":2}},"conditions":["nonSeqFull","nonSeqPartial","seqNoFeedback","seqFeedback"],"classroomPairings":[["A","B"],["C","D"]],"coinWeights":[0.2,0.5,0.8],"subjectId":"A2I4PRZ9IZMKON","assignmentId":"39GXDJN2OU09PHNUWG5M30LI1R38VG","hitId":"3QGHA0EA0JM3KKNCY0PQRLYAHLBWBE","url":"https://gershmanlab.com/experiments/alicia/teaching/experiment/?hitId=3QGHA0EA0JM3KKNCY0PQRLYAHLBWBE&workerId=A2I4PRZ9IZMKON&assignmentId=39GXDJN2OU09PHNUWG5M30LI1R38VG&a=2DG93&tp_a=2DG93&b=39GXDJN2OU09PHNUWG5M30LI1R38VG&tp_b=39GXDJN2OU09PHNUWG5M30LI1R38VG&c=365633&tp_c=365633"},{"rt":null,"stimulus":"Examples sent to student! Waiting for student...","response":null,"trial_type":"html-keyboard-response","trial_index":39,"time_elapsed":1093323,"internal_node_id":"0.0-36.0","params":{"nStudents":24,"maxFlips":25,"completionMinutes":45,"basePay":8,"maxBonus":9,"perTrialBonus":0.5,"perTrialBonusThreshold":0.05,"exampleCost":0.02},"classroomParams":{"A":{"a":1,"b":4},"B":{"a":4,"b":1},"C":{"a":2,"b":8},"D":{"a":8,"b":2}},"conditions":["nonSeqFull","nonSeqPartial","seqNoFeedback","seqFeedback"],"classroomPairings":[["A","B"],["C","D"]],"coinWeights":[0.2,0.5,0.8],"subjectId":"A2I4PRZ9IZMKON","assignmentId":"39GXDJN2OU09PHNUWG5M30LI1R38VG","hitId":"3QGHA0EA0JM3KKNCY0PQRLYAHLBWBE","url":"https://gershmanlab.com/experiments/alicia/teaching/experiment/?hitId=3QGHA0EA0JM3KKNCY0PQRLYAHLBWBE&workerId=A2I4PRZ9IZMKON&assignmentId=39GXDJN2OU09PHNUWG5M30LI1R38VG&a=2DG93&tp_a=2DG93&b=39GXDJN2OU09PHNUWG5M30LI1R38VG&tp_b=39GXDJN2OU09PHNUWG5M30LI1R38VG&c=365633&tp_c=365633"},{"rt":1681,"stimulus":"\n                <p>Student's guess for coin weight: <b style=\"color:Tomato;\">0.50</b></p>\n                <p>You received a bonus of <b>$0.38</b>. Total bonus so far: <b>$0.38</b></b></p>\n                <p></p>\n                <p>Press any key to continue.</p>\n                ","response":"arrowright","trial_type":"html-keyboard-response","trial_index":40,"time_elapsed":1095005,"internal_node_id":"0.0-37.0","params":{"nStudents":24,"maxFlips":25,"completionMinutes":45,"basePay":8,"maxBonus":9,"perTrialBonus":0.5,"perTrialBonusThreshold":0.05,"exampleCost":0.02},"classroomParams":{"A":{"a":1,"b":4},"B":{"a":4,"b":1},"C":{"a":2,"b":8},"D":{"a":8,"b":2}},"conditions":["nonSeqFull","nonSeqPartial","seqNoFeedback","seqFeedback"],"classroomPairings":[["A","B"],["C","D"]],"coinWeights":[0.2,0.5,0.8],"subjectId":"A2I4PRZ9IZMKON","assignmentId":"39GXDJN2OU09PHNUWG5M30LI1R38VG","hitId":"3QGHA0EA0JM3KKNCY0PQRLYAHLBWBE","url":"https://gershmanlab.com/experiments/alicia/teaching/experiment/?hitId=3QGHA0EA0JM3KKNCY0PQRLYAHLBWBE&workerId=A2I4PRZ9IZMKON&assignmentId=39GXDJN2OU09PHNUWG5M30LI1R38VG&a=2DG93&tp_a=2DG93&b=39GXDJN2OU09PHNUWG5M30LI1R38VG&tp_b=39GXDJN2OU09PHNUWG5M30LI1R38VG&c=365633&tp_c=365633"},{"rt":null,"stimulus":"<div style=\"font-size:60px;\">Next student</div>","response":null,"trial_type":"html-keyboard-response","trial_index":41,"time_elapsed":1097507,"internal_node_id":"0.0-38.0-0.0","params":{"nStudents":24,"maxFlips":25,"completionMinutes":45,"basePay":8,"maxBonus":9,"perTrialBonus":0.5,"perTrialBonusThreshold":0.05,"exampleCost":0.02},"classroomParams":{"A":{"a":1,"b":4},"B":{"a":4,"b":1},"C":{"a":2,"b":8},"D":{"a":8,"b":2}},"conditions":["nonSeqFull","nonSeqPartial","seqNoFeedback","seqFeedback"],"classroomPairings":[["A","B"],["C","D"]],"coinWeights":[0.2,0.5,0.8],"subjectId":"A2I4PRZ9IZMKON","assignmentId":"39GXDJN2OU09PHNUWG5M30LI1R38VG","hitId":"3QGHA0EA0JM3KKNCY0PQRLYAHLBWBE","url":"https://gershmanlab.com/experiments/alicia/teaching/experiment/?hitId=3QGHA0EA0JM3KKNCY0PQRLYAHLBWBE&workerId=A2I4PRZ9IZMKON&assignmentId=39GXDJN2OU09PHNUWG5M30LI1R38VG&a=2DG93&tp_a=2DG93&b=39GXDJN2OU09PHNUWG5M30LI1R38VG&tp_b=39GXDJN2OU09PHNUWG5M30LI1R38VG&c=365633&tp_c=365633"},{"rt":1626,"stimulus":"\n            <h4 style=\"color:Orange;\">Student 6</h4>\n            <h2>The weight of your coin is <b style=\"color:Tomato;\">0.5</b>.</h2>\n            <p>In this block, you will be giving <b>one</b> set of examples to Student 6.</p>\n                <p>You will receive feedback at the end of the block.</p>\n            <p></p>","response":0,"trial_type":"html-button-response","trial_index":42,"time_elapsed":1099135,"internal_node_id":"0.0-39.0","params":{"nStudents":24,"maxFlips":25,"completionMinutes":45,"basePay":8,"maxBonus":9,"perTrialBonus":0.5,"perTrialBonusThreshold":0.05,"exampleCost":0.02},"classroomParams":{"A":{"a":1,"b":4},"B":{"a":4,"b":1},"C":{"a":2,"b":8},"D":{"a":8,"b":2}},"conditions":["nonSeqFull","nonSeqPartial","seqNoFeedback","seqFeedback"],"classroomPairings":[["A","B"],["C","D"]],"coinWeights":[0.2,0.5,0.8],"subjectId":"A2I4PRZ9IZMKON","assignmentId":"39GXDJN2OU09PHNUWG5M30LI1R38VG","hitId":"3QGHA0EA0JM3KKNCY0PQRLYAHLBWBE","url":"https://gershmanlab.com/experiments/alicia/teaching/experiment/?hitId=3QGHA0EA0JM3KKNCY0PQRLYAHLBWBE&workerId=A2I4PRZ9IZMKON&assignmentId=39GXDJN2OU09PHNUWG5M30LI1R38VG&a=2DG93&tp_a=2DG93&b=39GXDJN2OU09PHNUWG5M30LI1R38VG&tp_b=39GXDJN2OU09PHNUWG5M30LI1R38VG&c=365633&tp_c=365633"},{"rt":6076,"response":{"heads":"6","tails":"0"},"type":"response","condition":"nonSeqPartial","trueTheta":0.5,"classrooms":["C","D"],"studentTrueClassroom":"C","exampleSet":"first","trial_type":"survey-html-form","trial_index":43,"time_elapsed":1105212,"internal_node_id":"0.0-40.0-0.0","params":{"nStudents":24,"maxFlips":25,"completionMinutes":45,"basePay":8,"maxBonus":9,"perTrialBonus":0.5,"perTrialBonusThreshold":0.05,"exampleCost":0.02},"classroomParams":{"A":{"a":1,"b":4},"B":{"a":4,"b":1},"C":{"a":2,"b":8},"D":{"a":8,"b":2}},"conditions":["nonSeqFull","nonSeqPartial","seqNoFeedback","seqFeedback"],"classroomPairings":[["A","B"],["C","D"]],"coinWeights":[0.2,0.5,0.8],"subjectId":"A2I4PRZ9IZMKON","assignmentId":"39GXDJN2OU09PHNUWG5M30LI1R38VG","hitId":"3QGHA0EA0JM3KKNCY0PQRLYAHLBWBE","url":"https://gershmanlab.com/experiments/alicia/teaching/experiment/?hitId=3QGHA0EA0JM3KKNCY0PQRLYAHLBWBE&workerId=A2I4PRZ9IZMKON&assignmentId=39GXDJN2OU09PHNUWG5M30LI1R38VG&a=2DG93&tp_a=2DG93&b=39GXDJN2OU09PHNUWG5M30LI1R38VG&tp_b=39GXDJN2OU09PHNUWG5M30LI1R38VG&c=365633&tp_c=365633","heads":6,"tails":0,"studentIndex":5,"studentTrueHypers":{"a":2,"b":8},"studentGuess":0.5,"delta":0,"totalExamples":6,"bonus":0.38,"bonusSoFar":0.76},{"rt":null,"stimulus":"Sending examples to student... ","response":null,"trial_type":"html-keyboard-response","trial_index":44,"time_elapsed":1106464,"internal_node_id":"0.0-41.0","params":{"nStudents":24,"maxFlips":25,"completionMinutes":45,"basePay":8,"maxBonus":9,"perTrialBonus":0.5,"perTrialBonusThreshold":0.05,"exampleCost":0.02},"classroomParams":{"A":{"a":1,"b":4},"B":{"a":4,"b":1},"C":{"a":2,"b":8},"D":{"a":8,"b":2}},"conditions":["nonSeqFull","nonSeqPartial","seqNoFeedback","seqFeedback"],"classroomPairings":[["A","B"],["C","D"]],"coinWeights":[0.2,0.5,0.8],"subjectId":"A2I4PRZ9IZMKON","assignmentId":"39GXDJN2OU09PHNUWG5M30LI1R38VG","hitId":"3QGHA0EA0JM3KKNCY0PQRLYAHLBWBE","url":"https://gershmanlab.com/experiments/alicia/teaching/experiment/?hitId=3QGHA0EA0JM3KKNCY0PQRLYAHLBWBE&workerId=A2I4PRZ9IZMKON&assignmentId=39GXDJN2OU09PHNUWG5M30LI1R38VG&a=2DG93&tp_a=2DG93&b=39GXDJN2OU09PHNUWG5M30LI1R38VG&tp_b=39GXDJN2OU09PHNUWG5M30LI1R38VG&c=365633&tp_c=365633"},{"rt":null,"stimulus":"Examples sent to student! Waiting for student...","response":null,"trial_type":"html-keyboard-response","trial_index":45,"time_elapsed":1112466,"internal_node_id":"0.0-42.0","params":{"nStudents":24,"maxFlips":25,"completionMinutes":45,"basePay":8,"maxBonus":9,"perTrialBonus":0.5,"perTrialBonusThreshold":0.05,"exampleCost":0.02},"classroomParams":{"A":{"a":1,"b":4},"B":{"a":4,"b":1},"C":{"a":2,"b":8},"D":{"a":8,"b":2}},"conditions":["nonSeqFull","nonSeqPartial","seqNoFeedback","seqFeedback"],"classroomPairings":[["A","B"],["C","D"]],"coinWeights":[0.2,0.5,0.8],"subjectId":"A2I4PRZ9IZMKON","assignmentId":"39GXDJN2OU09PHNUWG5M30LI1R38VG","hitId":"3QGHA0EA0JM3KKNCY0PQRLYAHLBWBE","url":"https://gershmanlab.com/experiments/alicia/teaching/experiment/?hitId=3QGHA0EA0JM3KKNCY0PQRLYAHLBWBE&workerId=A2I4PRZ9IZMKON&assignmentId=39GXDJN2OU09PHNUWG5M30LI1R38VG&a=2DG93&tp_a=2DG93&b=39GXDJN2OU09PHNUWG5M30LI1R38VG&tp_b=39GXDJN2OU09PHNUWG5M30LI1R38VG&c=365633&tp_c=365633"},{"rt":1950,"stimulus":"\n                <p>Student's guess for coin weight: <b style=\"color:Tomato;\">0.50</b></p>\n                <p>You received a bonus of <b>$0.38</b>. Total bonus so far: <b>$0.76</b></b></p>\n                <p></p>\n                <p>Press any key to continue.</p>\n                ","response":"arrowright","trial_type":"html-keyboard-response","trial_index":46,"time_elapsed":1114417,"internal_node_id":"0.0-43.0","params":{"nStudents":24,"maxFlips":25,"completionMinutes":45,"basePay":8,"maxBonus":9,"perTrialBonus":0.5,"perTrialBonusThreshold":0.05,"exampleCost":0.02},"classroomParams":{"A":{"a":1,"b":4},"B":{"a":4,"b":1},"C":{"a":2,"b":8},"D":{"a":8,"b":2}},"conditions":["nonSeqFull","nonSeqPartial","seqNoFeedback","seqFeedback"],"classroomPairings":[["A","B"],["C","D"]],"coinWeights":[0.2,0.5,0.8],"subjectId":"A2I4PRZ9IZMKON","assignmentId":"39GXDJN2OU09PHNUWG5M30LI1R38VG","hitId":"3QGHA0EA0JM3KKNCY0PQRLYAHLBWBE","url":"https://gershmanlab.com/experiments/alicia/teaching/experiment/?hitId=3QGHA0EA0JM3KKNCY0PQRLYAHLBWBE&workerId=A2I4PRZ9IZMKON&assignmentId=39GXDJN2OU09PHNUWG5M30LI1R38VG&a=2DG93&tp_a=2DG93&b=39GXDJN2OU09PHNUWG5M30LI1R38VG&tp_b=39GXDJN2OU09PHNUWG5M30LI1R38VG&c=365633&tp_c=365633"},{"rt":null,"stimulus":"<div style=\"font-size:60px;\">Next student</div>","response":null,"trial_type":"html-keyboard-response","trial_index":47,"time_elapsed":1116672,"internal_node_id":"0.0-44.0-0.0","params":{"nStudents":24,"maxFlips":25,"completionMinutes":45,"basePay":8,"maxBonus":9,"perTrialBonus":0.5,"perTrialBonusThreshold":0.05,"exampleCost":0.02},"classroomParams":{"A":{"a":1,"b":4},"B":{"a":4,"b":1},"C":{"a":2,"b":8},"D":{"a":8,"b":2}},"conditions":["nonSeqFull","nonSeqPartial","seqNoFeedback","seqFeedback"],"classroomPairings":[["A","B"],["C","D"]],"coinWeights":[0.2,0.5,0.8],"subjectId":"A2I4PRZ9IZMKON","assignmentId":"39GXDJN2OU09PHNUWG5M30LI1R38VG","hitId":"3QGHA0EA0JM3KKNCY0PQRLYAHLBWBE","url":"https://gershmanlab.com/experiments/alicia/teaching/experiment/?hitId=3QGHA0EA0JM3KKNCY0PQRLYAHLBWBE&workerId=A2I4PRZ9IZMKON&assignmentId=39GXDJN2OU09PHNUWG5M30LI1R38VG&a=2DG93&tp_a=2DG93&b=39GXDJN2OU09PHNUWG5M30LI1R38VG&tp_b=39GXDJN2OU09PHNUWG5M30LI1R38VG&c=365633&tp_c=365633"},{"rt":4806,"stimulus":"\n            <h4 style=\"color:Orange;\">Student 7</h4>\n            <h2>The weight of your coin is <b style=\"color:Tomato;\">0.5</b>.</h2>\n            <p>In this block, you will be giving <b>two</b> sets of examples to Student 7.</p>\n                <p>You will see the student's guess after the first set of examples. You will also receive feedback at the end of the block.</p>\n            <p>To earn the highest bonus, you will have to <b>take into consideration the student's guess</b> when you choose your second set of examples.</p>","response":0,"trial_type":"html-button-response","trial_index":48,"time_elapsed":1121479,"internal_node_id":"0.0-45.0","params":{"nStudents":24,"maxFlips":25,"completionMinutes":45,"basePay":8,"maxBonus":9,"perTrialBonus":0.5,"perTrialBonusThreshold":0.05,"exampleCost":0.02},"classroomParams":{"A":{"a":1,"b":4},"B":{"a":4,"b":1},"C":{"a":2,"b":8},"D":{"a":8,"b":2}},"conditions":["nonSeqFull","nonSeqPartial","seqNoFeedback","seqFeedback"],"classroomPairings":[["A","B"],["C","D"]],"coinWeights":[0.2,0.5,0.8],"subjectId":"A2I4PRZ9IZMKON","assignmentId":"39GXDJN2OU09PHNUWG5M30LI1R38VG","hitId":"3QGHA0EA0JM3KKNCY0PQRLYAHLBWBE","url":"https://gershmanlab.com/experiments/alicia/teaching/experiment/?hitId=3QGHA0EA0JM3KKNCY0PQRLYAHLBWBE&workerId=A2I4PRZ9IZMKON&assignmentId=39GXDJN2OU09PHNUWG5M30LI1R38VG&a=2DG93&tp_a=2DG93&b=39GXDJN2OU09PHNUWG5M30LI1R38VG&tp_b=39GXDJN2OU09PHNUWG5M30LI1R38VG&c=365633&tp_c=365633"},{"rt":3635,"response":{"heads":"6","tails":"0"},"type":"response","condition":"seqFeedback","trueTheta":0.5,"classrooms":["C","D"],"studentTrueClassroom":"D","exampleSet":"first","trial_type":"survey-html-form","trial_index":49,"time_elapsed":1125117,"internal_node_id":"0.0-46.0-0.0","params":{"nStudents":24,"maxFlips":25,"completionMinutes":45,"basePay":8,"maxBonus":9,"perTrialBonus":0.5,"perTrialBonusThreshold":0.05,"exampleCost":0.02},"classroomParams":{"A":{"a":1,"b":4},"B":{"a":4,"b":1},"C":{"a":2,"b":8},"D":{"a":8,"b":2}},"conditions":["nonSeqFull","nonSeqPartial","seqNoFeedback","seqFeedback"],"classroomPairings":[["A","B"],["C","D"]],"coinWeights":[0.2,0.5,0.8],"subjectId":"A2I4PRZ9IZMKON","assignmentId":"39GXDJN2OU09PHNUWG5M30LI1R38VG","hitId":"3QGHA0EA0JM3KKNCY0PQRLYAHLBWBE","url":"https://gershmanlab.com/experiments/alicia/teaching/experiment/?hitId=3QGHA0EA0JM3KKNCY0PQRLYAHLBWBE&workerId=A2I4PRZ9IZMKON&assignmentId=39GXDJN2OU09PHNUWG5M30LI1R38VG&a=2DG93&tp_a=2DG93&b=39GXDJN2OU09PHNUWG5M30LI1R38VG&tp_b=39GXDJN2OU09PHNUWG5M30LI1R38VG&c=365633&tp_c=365633","heads":6,"tails":0,"studentIndex":6,"studentTrueHypers":{"a":8,"b":2},"studentGuess":0.875,"delta":0.375,"totalExamples":6,"bonusSoFar":0.76},{"rt":null,"stimulus":"Sending examples to student... ","response":null,"trial_type":"html-keyboard-response","trial_index":50,"time_elapsed":1126619,"internal_node_id":"0.0-47.0","params":{"nStudents":24,"maxFlips":25,"completionMinutes":45,"basePay":8,"maxBonus":9,"perTrialBonus":0.5,"perTrialBonusThreshold":0.05,"exampleCost":0.02},"classroomParams":{"A":{"a":1,"b":4},"B":{"a":4,"b":1},"C":{"a":2,"b":8},"D":{"a":8,"b":2}},"conditions":["nonSeqFull","nonSeqPartial","seqNoFeedback","seqFeedback"],"classroomPairings":[["A","B"],["C","D"]],"coinWeights":[0.2,0.5,0.8],"subjectId":"A2I4PRZ9IZMKON","assignmentId":"39GXDJN2OU09PHNUWG5M30LI1R38VG","hitId":"3QGHA0EA0JM3KKNCY0PQRLYAHLBWBE","url":"https://gershmanlab.com/experiments/alicia/teaching/experiment/?hitId=3QGHA0EA0JM3KKNCY0PQRLYAHLBWBE&workerId=A2I4PRZ9IZMKON&assignmentId=39GXDJN2OU09PHNUWG5M30LI1R38VG&a=2DG93&tp_a=2DG93&b=39GXDJN2OU09PHNUWG5M30LI1R38VG&tp_b=39GXDJN2OU09PHNUWG5M30LI1R38VG&c=365633&tp_c=365633"},{"rt":null,"stimulus":"Examples sent to student! Waiting for student...","response":null,"trial_type":"html-keyboard-response","trial_index":51,"time_elapsed":1130620,"internal_node_id":"0.0-48.0","params":{"nStudents":24,"maxFlips":25,"completionMinutes":45,"basePay":8,"maxBonus":9,"perTrialBonus":0.5,"perTrialBonusThreshold":0.05,"exampleCost":0.02},"classroomParams":{"A":{"a":1,"b":4},"B":{"a":4,"b":1},"C":{"a":2,"b":8},"D":{"a":8,"b":2}},"conditions":["nonSeqFull","nonSeqPartial","seqNoFeedback","seqFeedback"],"classroomPairings":[["A","B"],["C","D"]],"coinWeights":[0.2,0.5,0.8],"subjectId":"A2I4PRZ9IZMKON","assignmentId":"39GXDJN2OU09PHNUWG5M30LI1R38VG","hitId":"3QGHA0EA0JM3KKNCY0PQRLYAHLBWBE","url":"https://gershmanlab.com/experiments/alicia/teaching/experiment/?hitId=3QGHA0EA0JM3KKNCY0PQRLYAHLBWBE&workerId=A2I4PRZ9IZMKON&assignmentId=39GXDJN2OU09PHNUWG5M30LI1R38VG&a=2DG93&tp_a=2DG93&b=39GXDJN2OU09PHNUWG5M30LI1R38VG&tp_b=39GXDJN2OU09PHNUWG5M30LI1R38VG&c=365633&tp_c=365633"},{"rt":2726,"stimulus":"\n                <p>Student's guess for coin weight: <b style=\"color:Tomato;\">0.88</b></p>\n                <p></b></p>\n                <p>You will now send another set of examples to your student. <b>Remember to take your student's guess into consideration so that you can earn the highest bonus possible!</b> </p>\n                <p>Press any key to continue.</p>\n                ","response":"arrowright","trial_type":"html-keyboard-response","trial_index":52,"time_elapsed":1133347,"internal_node_id":"0.0-49.0","params":{"nStudents":24,"maxFlips":25,"completionMinutes":45,"basePay":8,"maxBonus":9,"perTrialBonus":0.5,"perTrialBonusThreshold":0.05,"exampleCost":0.02},"classroomParams":{"A":{"a":1,"b":4},"B":{"a":4,"b":1},"C":{"a":2,"b":8},"D":{"a":8,"b":2}},"conditions":["nonSeqFull","nonSeqPartial","seqNoFeedback","seqFeedback"],"classroomPairings":[["A","B"],["C","D"]],"coinWeights":[0.2,0.5,0.8],"subjectId":"A2I4PRZ9IZMKON","assignmentId":"39GXDJN2OU09PHNUWG5M30LI1R38VG","hitId":"3QGHA0EA0JM3KKNCY0PQRLYAHLBWBE","url":"https://gershmanlab.com/experiments/alicia/teaching/experiment/?hitId=3QGHA0EA0JM3KKNCY0PQRLYAHLBWBE&workerId=A2I4PRZ9IZMKON&assignmentId=39GXDJN2OU09PHNUWG5M30LI1R38VG&a=2DG93&tp_a=2DG93&b=39GXDJN2OU09PHNUWG5M30LI1R38VG&tp_b=39GXDJN2OU09PHNUWG5M30LI1R38VG&c=365633&tp_c=365633"},{"rt":5113,"response":{"heads":"0","tails":"6"},"type":"response","condition":"seqFeedback","trueTheta":0.5,"classrooms":["C","D"],"studentTrueClassroom":"D","exampleSet":"second","trial_type":"survey-html-form","trial_index":53,"time_elapsed":1138463,"internal_node_id":"0.0-50.0-0.0","params":{"nStudents":24,"maxFlips":25,"completionMinutes":45,"basePay":8,"maxBonus":9,"perTrialBonus":0.5,"perTrialBonusThreshold":0.05,"exampleCost":0.02},"classroomParams":{"A":{"a":1,"b":4},"B":{"a":4,"b":1},"C":{"a":2,"b":8},"D":{"a":8,"b":2}},"conditions":["nonSeqFull","nonSeqPartial","seqNoFeedback","seqFeedback"],"classroomPairings":[["A","B"],["C","D"]],"coinWeights":[0.2,0.5,0.8],"subjectId":"A2I4PRZ9IZMKON","assignmentId":"39GXDJN2OU09PHNUWG5M30LI1R38VG","hitId":"3QGHA0EA0JM3KKNCY0PQRLYAHLBWBE","url":"https://gershmanlab.com/experiments/alicia/teaching/experiment/?hitId=3QGHA0EA0JM3KKNCY0PQRLYAHLBWBE&workerId=A2I4PRZ9IZMKON&assignmentId=39GXDJN2OU09PHNUWG5M30LI1R38VG&a=2DG93&tp_a=2DG93&b=39GXDJN2OU09PHNUWG5M30LI1R38VG&tp_b=39GXDJN2OU09PHNUWG5M30LI1R38VG&c=365633&tp_c=365633","firstResponseHeads":6,"firstResponseTails":0,"secondResponseHeads":0,"secondResponseTails":6,"totalHeads":6,"totalTails":6,"studentIndex":6,"studentTrueHypers":{"a":8,"b":2},"studentGuess":0.6363636363636364,"delta":0.13636363636363635,"bonus":0,"bonusSoFar":0.76,"totalExamples":12},{"rt":null,"stimulus":"Sending examples to student... ","response":null,"trial_type":"html-keyboard-response","trial_index":54,"time_elapsed":1140214,"internal_node_id":"0.0-51.0","params":{"nStudents":24,"maxFlips":25,"completionMinutes":45,"basePay":8,"maxBonus":9,"perTrialBonus":0.5,"perTrialBonusThreshold":0.05,"exampleCost":0.02},"classroomParams":{"A":{"a":1,"b":4},"B":{"a":4,"b":1},"C":{"a":2,"b":8},"D":{"a":8,"b":2}},"conditions":["nonSeqFull","nonSeqPartial","seqNoFeedback","seqFeedback"],"classroomPairings":[["A","B"],["C","D"]],"coinWeights":[0.2,0.5,0.8],"subjectId":"A2I4PRZ9IZMKON","assignmentId":"39GXDJN2OU09PHNUWG5M30LI1R38VG","hitId":"3QGHA0EA0JM3KKNCY0PQRLYAHLBWBE","url":"https://gershmanlab.com/experiments/alicia/teaching/experiment/?hitId=3QGHA0EA0JM3KKNCY0PQRLYAHLBWBE&workerId=A2I4PRZ9IZMKON&assignmentId=39GXDJN2OU09PHNUWG5M30LI1R38VG&a=2DG93&tp_a=2DG93&b=39GXDJN2OU09PHNUWG5M30LI1R38VG&tp_b=39GXDJN2OU09PHNUWG5M30LI1R38VG&c=365633&tp_c=365633"},{"rt":null,"stimulus":"Examples sent to student! Waiting for student...","response":null,"trial_type":"html-keyboard-response","trial_index":55,"time_elapsed":1146217,"internal_node_id":"0.0-52.0","params":{"nStudents":24,"maxFlips":25,"completionMinutes":45,"basePay":8,"maxBonus":9,"perTrialBonus":0.5,"perTrialBonusThreshold":0.05,"exampleCost":0.02},"classroomParams":{"A":{"a":1,"b":4},"B":{"a":4,"b":1},"C":{"a":2,"b":8},"D":{"a":8,"b":2}},"conditions":["nonSeqFull","nonSeqPartial","seqNoFeedback","seqFeedback"],"classroomPairings":[["A","B"],["C","D"]],"coinWeights":[0.2,0.5,0.8],"subjectId":"A2I4PRZ9IZMKON","assignmentId":"39GXDJN2OU09PHNUWG5M30LI1R38VG","hitId":"3QGHA0EA0JM3KKNCY0PQRLYAHLBWBE","url":"https://gershmanlab.com/experiments/alicia/teaching/experiment/?hitId=3QGHA0EA0JM3KKNCY0PQRLYAHLBWBE&workerId=A2I4PRZ9IZMKON&assignmentId=39GXDJN2OU09PHNUWG5M30LI1R38VG&a=2DG93&tp_a=2DG93&b=39GXDJN2OU09PHNUWG5M30LI1R38VG&tp_b=39GXDJN2OU09PHNUWG5M30LI1R38VG&c=365633&tp_c=365633"},{"rt":3576,"stimulus":"\n                <p>Student 7's first guess for coin weight: <b style=\"color:Tomato\";>0.88</b></p>\n                <p>Student 7's second guess for coin weight: <b style=\"color:Tomato\";>0.64</b></p>\n                <p>You received a bonus of <b>$0.00</b> based on the student's second guess.</p>\n                <p>Total bonus so far: <b>$0.76</b></p>\n                <p>Press any key to continue.</p>\n                ","response":"arrowright","trial_type":"html-keyboard-response","trial_index":56,"time_elapsed":1149794,"internal_node_id":"0.0-53.0","params":{"nStudents":24,"maxFlips":25,"completionMinutes":45,"basePay":8,"maxBonus":9,"perTrialBonus":0.5,"perTrialBonusThreshold":0.05,"exampleCost":0.02},"classroomParams":{"A":{"a":1,"b":4},"B":{"a":4,"b":1},"C":{"a":2,"b":8},"D":{"a":8,"b":2}},"conditions":["nonSeqFull","nonSeqPartial","seqNoFeedback","seqFeedback"],"classroomPairings":[["A","B"],["C","D"]],"coinWeights":[0.2,0.5,0.8],"subjectId":"A2I4PRZ9IZMKON","assignmentId":"39GXDJN2OU09PHNUWG5M30LI1R38VG","hitId":"3QGHA0EA0JM3KKNCY0PQRLYAHLBWBE","url":"https://gershmanlab.com/experiments/alicia/teaching/experiment/?hitId=3QGHA0EA0JM3KKNCY0PQRLYAHLBWBE&workerId=A2I4PRZ9IZMKON&assignmentId=39GXDJN2OU09PHNUWG5M30LI1R38VG&a=2DG93&tp_a=2DG93&b=39GXDJN2OU09PHNUWG5M30LI1R38VG&tp_b=39GXDJN2OU09PHNUWG5M30LI1R38VG&c=365633&tp_c=365633"},{"rt":null,"stimulus":"<div style=\"font-size:60px;\">Next student</div>","response":null,"trial_type":"html-keyboard-response","trial_index":57,"time_elapsed":1152045,"internal_node_id":"0.0-54.0-0.0","params":{"nStudents":24,"maxFlips":25,"completionMinutes":45,"basePay":8,"maxBonus":9,"perTrialBonus":0.5,"perTrialBonusThreshold":0.05,"exampleCost":0.02},"classroomParams":{"A":{"a":1,"b":4},"B":{"a":4,"b":1},"C":{"a":2,"b":8},"D":{"a":8,"b":2}},"conditions":["nonSeqFull","nonSeqPartial","seqNoFeedback","seqFeedback"],"classroomPairings":[["A","B"],["C","D"]],"coinWeights":[0.2,0.5,0.8],"subjectId":"A2I4PRZ9IZMKON","assignmentId":"39GXDJN2OU09PHNUWG5M30LI1R38VG","hitId":"3QGHA0EA0JM3KKNCY0PQRLYAHLBWBE","url":"https://gershmanlab.com/experiments/alicia/teaching/experiment/?hitId=3QGHA0EA0JM3KKNCY0PQRLYAHLBWBE&workerId=A2I4PRZ9IZMKON&assignmentId=39GXDJN2OU09PHNUWG5M30LI1R38VG&a=2DG93&tp_a=2DG93&b=39GXDJN2OU09PHNUWG5M30LI1R38VG&tp_b=39GXDJN2OU09PHNUWG5M30LI1R38VG&c=365633&tp_c=365633"},{"rt":2050,"stimulus":"\n            <h4 style=\"color:Orange;\">Student 8</h4>\n            <h2>The weight of your coin is <b style=\"color:Tomato;\">0.2</b>.</h2>\n            <p>In this block, you will be giving <b>one</b> set of examples to Student 8.</p>\n                <p>You will receive feedback at the end of the block.</p>\n            <p></p>","response":0,"trial_type":"html-button-response","trial_index":58,"time_elapsed":1154097,"internal_node_id":"0.0-55.0","params":{"nStudents":24,"maxFlips":25,"completionMinutes":45,"basePay":8,"maxBonus":9,"perTrialBonus":0.5,"perTrialBonusThreshold":0.05,"exampleCost":0.02},"classroomParams":{"A":{"a":1,"b":4},"B":{"a":4,"b":1},"C":{"a":2,"b":8},"D":{"a":8,"b":2}},"conditions":["nonSeqFull","nonSeqPartial","seqNoFeedback","seqFeedback"],"classroomPairings":[["A","B"],["C","D"]],"coinWeights":[0.2,0.5,0.8],"subjectId":"A2I4PRZ9IZMKON","assignmentId":"39GXDJN2OU09PHNUWG5M30LI1R38VG","hitId":"3QGHA0EA0JM3KKNCY0PQRLYAHLBWBE","url":"https://gershmanlab.com/experiments/alicia/teaching/experiment/?hitId=3QGHA0EA0JM3KKNCY0PQRLYAHLBWBE&workerId=A2I4PRZ9IZMKON&assignmentId=39GXDJN2OU09PHNUWG5M30LI1R38VG&a=2DG93&tp_a=2DG93&b=39GXDJN2OU09PHNUWG5M30LI1R38VG&tp_b=39GXDJN2OU09PHNUWG5M30LI1R38VG&c=365633&tp_c=365633"},{"rt":23475,"response":{"heads":"0","tails":"22"},"type":"response","condition":"nonSeqFull","trueTheta":0.2,"classrooms":["C","D"],"studentTrueClassroom":"D","exampleSet":"first","trial_type":"survey-html-form","trial_index":59,"time_elapsed":1177574,"internal_node_id":"0.0-56.0-0.0","params":{"nStudents":24,"maxFlips":25,"completionMinutes":45,"basePay":8,"maxBonus":9,"perTrialBonus":0.5,"perTrialBonusThreshold":0.05,"exampleCost":0.02},"classroomParams":{"A":{"a":1,"b":4},"B":{"a":4,"b":1},"C":{"a":2,"b":8},"D":{"a":8,"b":2}},"conditions":["nonSeqFull","nonSeqPartial","seqNoFeedback","seqFeedback"],"classroomPairings":[["A","B"],["C","D"]],"coinWeights":[0.2,0.5,0.8],"subjectId":"A2I4PRZ9IZMKON","assignmentId":"39GXDJN2OU09PHNUWG5M30LI1R38VG","hitId":"3QGHA0EA0JM3KKNCY0PQRLYAHLBWBE","url":"https://gershmanlab.com/experiments/alicia/teaching/experiment/?hitId=3QGHA0EA0JM3KKNCY0PQRLYAHLBWBE&workerId=A2I4PRZ9IZMKON&assignmentId=39GXDJN2OU09PHNUWG5M30LI1R38VG&a=2DG93&tp_a=2DG93&b=39GXDJN2OU09PHNUWG5M30LI1R38VG&tp_b=39GXDJN2OU09PHNUWG5M30LI1R38VG&c=365633&tp_c=365633","heads":0,"tails":22,"studentIndex":7,"studentTrueHypers":{"a":8,"b":2},"studentGuess":0.25,"delta":0.04999999999999999,"totalExamples":22,"bonus":0.06,"bonusSoFar":0.82},{"rt":null,"stimulus":"Sending examples to student... ","response":null,"trial_type":"html-keyboard-response","trial_index":60,"time_elapsed":1179075,"internal_node_id":"0.0-57.0","params":{"nStudents":24,"maxFlips":25,"completionMinutes":45,"basePay":8,"maxBonus":9,"perTrialBonus":0.5,"perTrialBonusThreshold":0.05,"exampleCost":0.02},"classroomParams":{"A":{"a":1,"b":4},"B":{"a":4,"b":1},"C":{"a":2,"b":8},"D":{"a":8,"b":2}},"conditions":["nonSeqFull","nonSeqPartial","seqNoFeedback","seqFeedback"],"classroomPairings":[["A","B"],["C","D"]],"coinWeights":[0.2,0.5,0.8],"subjectId":"A2I4PRZ9IZMKON","assignmentId":"39GXDJN2OU09PHNUWG5M30LI1R38VG","hitId":"3QGHA0EA0JM3KKNCY0PQRLYAHLBWBE","url":"https://gershmanlab.com/experiments/alicia/teaching/experiment/?hitId=3QGHA0EA0JM3KKNCY0PQRLYAHLBWBE&workerId=A2I4PRZ9IZMKON&assignmentId=39GXDJN2OU09PHNUWG5M30LI1R38VG&a=2DG93&tp_a=2DG93&b=39GXDJN2OU09PHNUWG5M30LI1R38VG&tp_b=39GXDJN2OU09PHNUWG5M30LI1R38VG&c=365633&tp_c=365633"},{"rt":null,"stimulus":"Examples sent to student! Waiting for student...","response":null,"trial_type":"html-keyboard-response","trial_index":61,"time_elapsed":1183077,"internal_node_id":"0.0-58.0","params":{"nStudents":24,"maxFlips":25,"completionMinutes":45,"basePay":8,"maxBonus":9,"perTrialBonus":0.5,"perTrialBonusThreshold":0.05,"exampleCost":0.02},"classroomParams":{"A":{"a":1,"b":4},"B":{"a":4,"b":1},"C":{"a":2,"b":8},"D":{"a":8,"b":2}},"conditions":["nonSeqFull","nonSeqPartial","seqNoFeedback","seqFeedback"],"classroomPairings":[["A","B"],["C","D"]],"coinWeights":[0.2,0.5,0.8],"subjectId":"A2I4PRZ9IZMKON","assignmentId":"39GXDJN2OU09PHNUWG5M30LI1R38VG","hitId":"3QGHA0EA0JM3KKNCY0PQRLYAHLBWBE","url":"https://gershmanlab.com/experiments/alicia/teaching/experiment/?hitId=3QGHA0EA0JM3KKNCY0PQRLYAHLBWBE&workerId=A2I4PRZ9IZMKON&assignmentId=39GXDJN2OU09PHNUWG5M30LI1R38VG&a=2DG93&tp_a=2DG93&b=39GXDJN2OU09PHNUWG5M30LI1R38VG&tp_b=39GXDJN2OU09PHNUWG5M30LI1R38VG&c=365633&tp_c=365633"},{"rt":3248,"stimulus":"\n                <p>Student's guess for coin weight: <b style=\"color:Tomato;\">0.25</b></p>\n                <p>You received a bonus of <b>$0.06</b>. Total bonus so far: <b>$0.82</b></b></p>\n                <p></p>\n                <p>Press any key to continue.</p>\n                ","response":"arrowright","trial_type":"html-keyboard-response","trial_index":62,"time_elapsed":1186326,"internal_node_id":"0.0-59.0","params":{"nStudents":24,"maxFlips":25,"completionMinutes":45,"basePay":8,"maxBonus":9,"perTrialBonus":0.5,"perTrialBonusThreshold":0.05,"exampleCost":0.02},"classroomParams":{"A":{"a":1,"b":4},"B":{"a":4,"b":1},"C":{"a":2,"b":8},"D":{"a":8,"b":2}},"conditions":["nonSeqFull","nonSeqPartial","seqNoFeedback","seqFeedback"],"classroomPairings":[["A","B"],["C","D"]],"coinWeights":[0.2,0.5,0.8],"subjectId":"A2I4PRZ9IZMKON","assignmentId":"39GXDJN2OU09PHNUWG5M30LI1R38VG","hitId":"3QGHA0EA0JM3KKNCY0PQRLYAHLBWBE","url":"https://gershmanlab.com/experiments/alicia/teaching/experiment/?hitId=3QGHA0EA0JM3KKNCY0PQRLYAHLBWBE&workerId=A2I4PRZ9IZMKON&assignmentId=39GXDJN2OU09PHNUWG5M30LI1R38VG&a=2DG93&tp_a=2DG93&b=39GXDJN2OU09PHNUWG5M30LI1R38VG&tp_b=39GXDJN2OU09PHNUWG5M30LI1R38VG&c=365633&tp_c=365633"},{"rt":null,"stimulus":"<div style=\"font-size:60px;\">Next student</div>","response":null,"trial_type":"html-keyboard-response","trial_index":63,"time_elapsed":1188578,"internal_node_id":"0.0-60.0-0.0","params":{"nStudents":24,"maxFlips":25,"completionMinutes":45,"basePay":8,"maxBonus":9,"perTrialBonus":0.5,"perTrialBonusThreshold":0.05,"exampleCost":0.02},"classroomParams":{"A":{"a":1,"b":4},"B":{"a":4,"b":1},"C":{"a":2,"b":8},"D":{"a":8,"b":2}},"conditions":["nonSeqFull","nonSeqPartial","seqNoFeedback","seqFeedback"],"classroomPairings":[["A","B"],["C","D"]],"coinWeights":[0.2,0.5,0.8],"subjectId":"A2I4PRZ9IZMKON","assignmentId":"39GXDJN2OU09PHNUWG5M30LI1R38VG","hitId":"3QGHA0EA0JM3KKNCY0PQRLYAHLBWBE","url":"https://gershmanlab.com/experiments/alicia/teaching/experiment/?hitId=3QGHA0EA0JM3KKNCY0PQRLYAHLBWBE&workerId=A2I4PRZ9IZMKON&assignmentId=39GXDJN2OU09PHNUWG5M30LI1R38VG&a=2DG93&tp_a=2DG93&b=39GXDJN2OU09PHNUWG5M30LI1R38VG&tp_b=39GXDJN2OU09PHNUWG5M30LI1R38VG&c=365633&tp_c=365633"},{"rt":1412,"stimulus":"\n            <h4 style=\"color:Orange;\">Student 9</h4>\n            <h2>The weight of your coin is <b style=\"color:Tomato;\">0.2</b>.</h2>\n            <p>In this block, you will be giving <b>two</b> sets of examples to Student 9.</p>\n                <p>You will receive feedback at the end of the block.</p>\n            <p></p>","response":0,"trial_type":"html-button-response","trial_index":64,"time_elapsed":1189992,"internal_node_id":"0.0-61.0","params":{"nStudents":24,"maxFlips":25,"completionMinutes":45,"basePay":8,"maxBonus":9,"perTrialBonus":0.5,"perTrialBonusThreshold":0.05,"exampleCost":0.02},"classroomParams":{"A":{"a":1,"b":4},"B":{"a":4,"b":1},"C":{"a":2,"b":8},"D":{"a":8,"b":2}},"conditions":["nonSeqFull","nonSeqPartial","seqNoFeedback","seqFeedback"],"classroomPairings":[["A","B"],["C","D"]],"coinWeights":[0.2,0.5,0.8],"subjectId":"A2I4PRZ9IZMKON","assignmentId":"39GXDJN2OU09PHNUWG5M30LI1R38VG","hitId":"3QGHA0EA0JM3KKNCY0PQRLYAHLBWBE","url":"https://gershmanlab.com/experiments/alicia/teaching/experiment/?hitId=3QGHA0EA0JM3KKNCY0PQRLYAHLBWBE&workerId=A2I4PRZ9IZMKON&assignmentId=39GXDJN2OU09PHNUWG5M30LI1R38VG&a=2DG93&tp_a=2DG93&b=39GXDJN2OU09PHNUWG5M30LI1R38VG&tp_b=39GXDJN2OU09PHNUWG5M30LI1R38VG&c=365633&tp_c=365633"},{"rt":7124,"response":{"heads":"0","tails":"0"},"type":"response","condition":"seqNoFeedback","trueTheta":0.2,"classrooms":["A","B"],"studentTrueClassroom":"B","exampleSet":"first","trial_type":"survey-html-form","trial_index":65,"time_elapsed":1197119,"internal_node_id":"0.0-62.0-0.0","params":{"nStudents":24,"maxFlips":25,"completionMinutes":45,"basePay":8,"maxBonus":9,"perTrialBonus":0.5,"perTrialBonusThreshold":0.05,"exampleCost":0.02},"classroomParams":{"A":{"a":1,"b":4},"B":{"a":4,"b":1},"C":{"a":2,"b":8},"D":{"a":8,"b":2}},"conditions":["nonSeqFull","nonSeqPartial","seqNoFeedback","seqFeedback"],"classroomPairings":[["A","B"],["C","D"]],"coinWeights":[0.2,0.5,0.8],"subjectId":"A2I4PRZ9IZMKON","assignmentId":"39GXDJN2OU09PHNUWG5M30LI1R38VG","hitId":"3QGHA0EA0JM3KKNCY0PQRLYAHLBWBE","url":"https://gershmanlab.com/experiments/alicia/teaching/experiment/?hitId=3QGHA0EA0JM3KKNCY0PQRLYAHLBWBE&workerId=A2I4PRZ9IZMKON&assignmentId=39GXDJN2OU09PHNUWG5M30LI1R38VG&a=2DG93&tp_a=2DG93&b=39GXDJN2OU09PHNUWG5M30LI1R38VG&tp_b=39GXDJN2OU09PHNUWG5M30LI1R38VG&c=365633&tp_c=365633","heads":0,"tails":0,"studentIndex":8,"studentTrueHypers":{"a":4,"b":1},"studentGuess":0.8,"delta":0.6000000000000001,"totalExamples":0,"bonusSoFar":0.82},{"rt":16580,"response":{"heads":"0","tails":"1"},"type":"response","condition":"seqNoFeedback","trueTheta":0.2,"classrooms":["A","B"],"studentTrueClassroom":"B","exampleSet":"first","trial_type":"survey-html-form","trial_index":66,"time_elapsed":1213702,"internal_node_id":"0.0-62.1-0.1","params":{"nStudents":24,"maxFlips":25,"completionMinutes":45,"basePay":8,"maxBonus":9,"perTrialBonus":0.5,"perTrialBonusThreshold":0.05,"exampleCost":0.02},"classroomParams":{"A":{"a":1,"b":4},"B":{"a":4,"b":1},"C":{"a":2,"b":8},"D":{"a":8,"b":2}},"conditions":["nonSeqFull","nonSeqPartial","seqNoFeedback","seqFeedback"],"classroomPairings":[["A","B"],["C","D"]],"coinWeights":[0.2,0.5,0.8],"subjectId":"A2I4PRZ9IZMKON","assignmentId":"39GXDJN2OU09PHNUWG5M30LI1R38VG","hitId":"3QGHA0EA0JM3KKNCY0PQRLYAHLBWBE","url":"https://gershmanlab.com/experiments/alicia/teaching/experiment/?hitId=3QGHA0EA0JM3KKNCY0PQRLYAHLBWBE&workerId=A2I4PRZ9IZMKON&assignmentId=39GXDJN2OU09PHNUWG5M30LI1R38VG&a=2DG93&tp_a=2DG93&b=39GXDJN2OU09PHNUWG5M30LI1R38VG&tp_b=39GXDJN2OU09PHNUWG5M30LI1R38VG&c=365633&tp_c=365633","heads":0,"tails":1,"studentIndex":8,"studentTrueHypers":{"a":4,"b":1},"studentGuess":0.6666666666666666,"delta":0.4666666666666666,"totalExamples":1,"bonusSoFar":0.82},{"rt":null,"stimulus":"Sending examples to student... ","response":null,"trial_type":"html-keyboard-response","trial_index":67,"time_elapsed":1215703,"internal_node_id":"0.0-63.0","params":{"nStudents":24,"maxFlips":25,"completionMinutes":45,"basePay":8,"maxBonus":9,"perTrialBonus":0.5,"perTrialBonusThreshold":0.05,"exampleCost":0.02},"classroomParams":{"A":{"a":1,"b":4},"B":{"a":4,"b":1},"C":{"a":2,"b":8},"D":{"a":8,"b":2}},"conditions":["nonSeqFull","nonSeqPartial","seqNoFeedback","seqFeedback"],"classroomPairings":[["A","B"],["C","D"]],"coinWeights":[0.2,0.5,0.8],"subjectId":"A2I4PRZ9IZMKON","assignmentId":"39GXDJN2OU09PHNUWG5M30LI1R38VG","hitId":"3QGHA0EA0JM3KKNCY0PQRLYAHLBWBE","url":"https://gershmanlab.com/experiments/alicia/teaching/experiment/?hitId=3QGHA0EA0JM3KKNCY0PQRLYAHLBWBE&workerId=A2I4PRZ9IZMKON&assignmentId=39GXDJN2OU09PHNUWG5M30LI1R38VG&a=2DG93&tp_a=2DG93&b=39GXDJN2OU09PHNUWG5M30LI1R38VG&tp_b=39GXDJN2OU09PHNUWG5M30LI1R38VG&c=365633&tp_c=365633"},{"rt":null,"stimulus":"Examples sent to student! Waiting for student...","response":null,"trial_type":"html-keyboard-response","trial_index":68,"time_elapsed":1220204,"internal_node_id":"0.0-64.0","params":{"nStudents":24,"maxFlips":25,"completionMinutes":45,"basePay":8,"maxBonus":9,"perTrialBonus":0.5,"perTrialBonusThreshold":0.05,"exampleCost":0.02},"classroomParams":{"A":{"a":1,"b":4},"B":{"a":4,"b":1},"C":{"a":2,"b":8},"D":{"a":8,"b":2}},"conditions":["nonSeqFull","nonSeqPartial","seqNoFeedback","seqFeedback"],"classroomPairings":[["A","B"],["C","D"]],"coinWeights":[0.2,0.5,0.8],"subjectId":"A2I4PRZ9IZMKON","assignmentId":"39GXDJN2OU09PHNUWG5M30LI1R38VG","hitId":"3QGHA0EA0JM3KKNCY0PQRLYAHLBWBE","url":"https://gershmanlab.com/experiments/alicia/teaching/experiment/?hitId=3QGHA0EA0JM3KKNCY0PQRLYAHLBWBE&workerId=A2I4PRZ9IZMKON&assignmentId=39GXDJN2OU09PHNUWG5M30LI1R38VG&a=2DG93&tp_a=2DG93&b=39GXDJN2OU09PHNUWG5M30LI1R38VG&tp_b=39GXDJN2OU09PHNUWG5M30LI1R38VG&c=365633&tp_c=365633"},{"rt":15808,"response":{"heads":"0","tails":"1"},"type":"response","condition":"seqNoFeedback","trueTheta":0.2,"classrooms":["A","B"],"studentTrueClassroom":"B","exampleSet":"second","trial_type":"survey-html-form","trial_index":69,"time_elapsed":1236016,"internal_node_id":"0.0-65.0-0.0","params":{"nStudents":24,"maxFlips":25,"completionMinutes":45,"basePay":8,"maxBonus":9,"perTrialBonus":0.5,"perTrialBonusThreshold":0.05,"exampleCost":0.02},"classroomParams":{"A":{"a":1,"b":4},"B":{"a":4,"b":1},"C":{"a":2,"b":8},"D":{"a":8,"b":2}},"conditions":["nonSeqFull","nonSeqPartial","seqNoFeedback","seqFeedback"],"classroomPairings":[["A","B"],["C","D"]],"coinWeights":[0.2,0.5,0.8],"subjectId":"A2I4PRZ9IZMKON","assignmentId":"39GXDJN2OU09PHNUWG5M30LI1R38VG","hitId":"3QGHA0EA0JM3KKNCY0PQRLYAHLBWBE","url":"https://gershmanlab.com/experiments/alicia/teaching/experiment/?hitId=3QGHA0EA0JM3KKNCY0PQRLYAHLBWBE&workerId=A2I4PRZ9IZMKON&assignmentId=39GXDJN2OU09PHNUWG5M30LI1R38VG&a=2DG93&tp_a=2DG93&b=39GXDJN2OU09PHNUWG5M30LI1R38VG&tp_b=39GXDJN2OU09PHNUWG5M30LI1R38VG&c=365633&tp_c=365633","firstResponseHeads":0,"firstResponseTails":0,"secondResponseHeads":0,"secondResponseTails":1,"totalHeads":0,"totalTails":1,"studentIndex":8,"studentTrueHypers":{"a":4,"b":1},"studentGuess":0.6666666666666666,"delta":0.4666666666666666,"bonus":0,"bonusSoFar":0.82,"totalExamples":1},{"rt":null,"stimulus":"Sending examples to student... ","response":null,"trial_type":"html-keyboard-response","trial_index":70,"time_elapsed":1237268,"internal_node_id":"0.0-66.0","params":{"nStudents":24,"maxFlips":25,"completionMinutes":45,"basePay":8,"maxBonus":9,"perTrialBonus":0.5,"perTrialBonusThreshold":0.05,"exampleCost":0.02},"classroomParams":{"A":{"a":1,"b":4},"B":{"a":4,"b":1},"C":{"a":2,"b":8},"D":{"a":8,"b":2}},"conditions":["nonSeqFull","nonSeqPartial","seqNoFeedback","seqFeedback"],"classroomPairings":[["A","B"],["C","D"]],"coinWeights":[0.2,0.5,0.8],"subjectId":"A2I4PRZ9IZMKON","assignmentId":"39GXDJN2OU09PHNUWG5M30LI1R38VG","hitId":"3QGHA0EA0JM3KKNCY0PQRLYAHLBWBE","url":"https://gershmanlab.com/experiments/alicia/teaching/experiment/?hitId=3QGHA0EA0JM3KKNCY0PQRLYAHLBWBE&workerId=A2I4PRZ9IZMKON&assignmentId=39GXDJN2OU09PHNUWG5M30LI1R38VG&a=2DG93&tp_a=2DG93&b=39GXDJN2OU09PHNUWG5M30LI1R38VG&tp_b=39GXDJN2OU09PHNUWG5M30LI1R38VG&c=365633&tp_c=365633"},{"rt":null,"stimulus":"Examples sent to student! Waiting for student...","response":null,"trial_type":"html-keyboard-response","trial_index":71,"time_elapsed":1242770,"internal_node_id":"0.0-67.0","params":{"nStudents":24,"maxFlips":25,"completionMinutes":45,"basePay":8,"maxBonus":9,"perTrialBonus":0.5,"perTrialBonusThreshold":0.05,"exampleCost":0.02},"classroomParams":{"A":{"a":1,"b":4},"B":{"a":4,"b":1},"C":{"a":2,"b":8},"D":{"a":8,"b":2}},"conditions":["nonSeqFull","nonSeqPartial","seqNoFeedback","seqFeedback"],"classroomPairings":[["A","B"],["C","D"]],"coinWeights":[0.2,0.5,0.8],"subjectId":"A2I4PRZ9IZMKON","assignmentId":"39GXDJN2OU09PHNUWG5M30LI1R38VG","hitId":"3QGHA0EA0JM3KKNCY0PQRLYAHLBWBE","url":"https://gershmanlab.com/experiments/alicia/teaching/experiment/?hitId=3QGHA0EA0JM3KKNCY0PQRLYAHLBWBE&workerId=A2I4PRZ9IZMKON&assignmentId=39GXDJN2OU09PHNUWG5M30LI1R38VG&a=2DG93&tp_a=2DG93&b=39GXDJN2OU09PHNUWG5M30LI1R38VG&tp_b=39GXDJN2OU09PHNUWG5M30LI1R38VG&c=365633&tp_c=365633"},{"rt":2756,"stimulus":"\n                <p>Student 9's first guess for coin weight: <b style=\"color:Tomato\";>0.80</b></p>\n                <p>Student 9's second guess for coin weight: <b style=\"color:Tomato\";>0.67</b></p>\n                <p>You received a bonus of <b>$0.00</b> based on the student's second guess.</p>\n                <p>Total bonus so far: <b>$0.82</b></p>\n                <p>Press any key to continue.</p>\n                ","response":"1","trial_type":"html-keyboard-response","trial_index":72,"time_elapsed":1245527,"internal_node_id":"0.0-68.0","params":{"nStudents":24,"maxFlips":25,"completionMinutes":45,"basePay":8,"maxBonus":9,"perTrialBonus":0.5,"perTrialBonusThreshold":0.05,"exampleCost":0.02},"classroomParams":{"A":{"a":1,"b":4},"B":{"a":4,"b":1},"C":{"a":2,"b":8},"D":{"a":8,"b":2}},"conditions":["nonSeqFull","nonSeqPartial","seqNoFeedback","seqFeedback"],"classroomPairings":[["A","B"],["C","D"]],"coinWeights":[0.2,0.5,0.8],"subjectId":"A2I4PRZ9IZMKON","assignmentId":"39GXDJN2OU09PHNUWG5M30LI1R38VG","hitId":"3QGHA0EA0JM3KKNCY0PQRLYAHLBWBE","url":"https://gershmanlab.com/experiments/alicia/teaching/experiment/?hitId=3QGHA0EA0JM3KKNCY0PQRLYAHLBWBE&workerId=A2I4PRZ9IZMKON&assignmentId=39GXDJN2OU09PHNUWG5M30LI1R38VG&a=2DG93&tp_a=2DG93&b=39GXDJN2OU09PHNUWG5M30LI1R38VG&tp_b=39GXDJN2OU09PHNUWG5M30LI1R38VG&c=365633&tp_c=365633"},{"rt":null,"stimulus":"<div style=\"font-size:60px;\">Next student</div>","response":null,"trial_type":"html-keyboard-response","trial_index":73,"time_elapsed":1248030,"internal_node_id":"0.0-69.0-0.0","params":{"nStudents":24,"maxFlips":25,"completionMinutes":45,"basePay":8,"maxBonus":9,"perTrialBonus":0.5,"perTrialBonusThreshold":0.05,"exampleCost":0.02},"classroomParams":{"A":{"a":1,"b":4},"B":{"a":4,"b":1},"C":{"a":2,"b":8},"D":{"a":8,"b":2}},"conditions":["nonSeqFull","nonSeqPartial","seqNoFeedback","seqFeedback"],"classroomPairings":[["A","B"],["C","D"]],"coinWeights":[0.2,0.5,0.8],"subjectId":"A2I4PRZ9IZMKON","assignmentId":"39GXDJN2OU09PHNUWG5M30LI1R38VG","hitId":"3QGHA0EA0JM3KKNCY0PQRLYAHLBWBE","url":"https://gershmanlab.com/experiments/alicia/teaching/experiment/?hitId=3QGHA0EA0JM3KKNCY0PQRLYAHLBWBE&workerId=A2I4PRZ9IZMKON&assignmentId=39GXDJN2OU09PHNUWG5M30LI1R38VG&a=2DG93&tp_a=2DG93&b=39GXDJN2OU09PHNUWG5M30LI1R38VG&tp_b=39GXDJN2OU09PHNUWG5M30LI1R38VG&c=365633&tp_c=365633"},{"rt":3703,"stimulus":"\n            <h4 style=\"color:Orange;\">Student 10</h4>\n            <h2>The weight of your coin is <b style=\"color:Tomato;\">0.2</b>.</h2>\n            <p>In this block, you will be giving <b>one</b> set of examples to Student 10.</p>\n                <p>You will receive feedback at the end of the block.</p>\n            <p></p>","response":0,"trial_type":"html-button-response","trial_index":74,"time_elapsed":1251735,"internal_node_id":"0.0-70.0","params":{"nStudents":24,"maxFlips":25,"completionMinutes":45,"basePay":8,"maxBonus":9,"perTrialBonus":0.5,"perTrialBonusThreshold":0.05,"exampleCost":0.02},"classroomParams":{"A":{"a":1,"b":4},"B":{"a":4,"b":1},"C":{"a":2,"b":8},"D":{"a":8,"b":2}},"conditions":["nonSeqFull","nonSeqPartial","seqNoFeedback","seqFeedback"],"classroomPairings":[["A","B"],["C","D"]],"coinWeights":[0.2,0.5,0.8],"subjectId":"A2I4PRZ9IZMKON","assignmentId":"39GXDJN2OU09PHNUWG5M30LI1R38VG","hitId":"3QGHA0EA0JM3KKNCY0PQRLYAHLBWBE","url":"https://gershmanlab.com/experiments/alicia/teaching/experiment/?hitId=3QGHA0EA0JM3KKNCY0PQRLYAHLBWBE&workerId=A2I4PRZ9IZMKON&assignmentId=39GXDJN2OU09PHNUWG5M30LI1R38VG&a=2DG93&tp_a=2DG93&b=39GXDJN2OU09PHNUWG5M30LI1R38VG&tp_b=39GXDJN2OU09PHNUWG5M30LI1R38VG&c=365633&tp_c=365633"},{"rt":8794,"response":{"heads":"0","tails":"1"},"type":"response","condition":"nonSeqFull","trueTheta":0.2,"classrooms":["A","B"],"studentTrueClassroom":"A","exampleSet":"first","trial_type":"survey-html-form","trial_index":75,"time_elapsed":1260531,"internal_node_id":"0.0-71.0-0.0","params":{"nStudents":24,"maxFlips":25,"completionMinutes":45,"basePay":8,"maxBonus":9,"perTrialBonus":0.5,"perTrialBonusThreshold":0.05,"exampleCost":0.02},"classroomParams":{"A":{"a":1,"b":4},"B":{"a":4,"b":1},"C":{"a":2,"b":8},"D":{"a":8,"b":2}},"conditions":["nonSeqFull","nonSeqPartial","seqNoFeedback","seqFeedback"],"classroomPairings":[["A","B"],["C","D"]],"coinWeights":[0.2,0.5,0.8],"subjectId":"A2I4PRZ9IZMKON","assignmentId":"39GXDJN2OU09PHNUWG5M30LI1R38VG","hitId":"3QGHA0EA0JM3KKNCY0PQRLYAHLBWBE","url":"https://gershmanlab.com/experiments/alicia/teaching/experiment/?hitId=3QGHA0EA0JM3KKNCY0PQRLYAHLBWBE&workerId=A2I4PRZ9IZMKON&assignmentId=39GXDJN2OU09PHNUWG5M30LI1R38VG&a=2DG93&tp_a=2DG93&b=39GXDJN2OU09PHNUWG5M30LI1R38VG&tp_b=39GXDJN2OU09PHNUWG5M30LI1R38VG&c=365633&tp_c=365633","heads":0,"tails":1,"studentIndex":9,"studentTrueHypers":{"a":1,"b":4},"studentGuess":0.16666666666666666,"delta":0.033333333333333354,"totalExamples":1,"bonus":0.48,"bonusSoFar":1.3},{"rt":null,"stimulus":"Sending examples to student... ","response":null,"trial_type":"html-keyboard-response","trial_index":76,"time_elapsed":1262284,"internal_node_id":"0.0-72.0","params":{"nStudents":24,"maxFlips":25,"completionMinutes":45,"basePay":8,"maxBonus":9,"perTrialBonus":0.5,"perTrialBonusThreshold":0.05,"exampleCost":0.02},"classroomParams":{"A":{"a":1,"b":4},"B":{"a":4,"b":1},"C":{"a":2,"b":8},"D":{"a":8,"b":2}},"conditions":["nonSeqFull","nonSeqPartial","seqNoFeedback","seqFeedback"],"classroomPairings":[["A","B"],["C","D"]],"coinWeights":[0.2,0.5,0.8],"subjectId":"A2I4PRZ9IZMKON","assignmentId":"39GXDJN2OU09PHNUWG5M30LI1R38VG","hitId":"3QGHA0EA0JM3KKNCY0PQRLYAHLBWBE","url":"https://gershmanlab.com/experiments/alicia/teaching/experiment/?hitId=3QGHA0EA0JM3KKNCY0PQRLYAHLBWBE&workerId=A2I4PRZ9IZMKON&assignmentId=39GXDJN2OU09PHNUWG5M30LI1R38VG&a=2DG93&tp_a=2DG93&b=39GXDJN2OU09PHNUWG5M30LI1R38VG&tp_b=39GXDJN2OU09PHNUWG5M30LI1R38VG&c=365633&tp_c=365633"},{"rt":null,"stimulus":"Examples sent to student! Waiting for student...","response":null,"trial_type":"html-keyboard-response","trial_index":77,"time_elapsed":1266786,"internal_node_id":"0.0-73.0","params":{"nStudents":24,"maxFlips":25,"completionMinutes":45,"basePay":8,"maxBonus":9,"perTrialBonus":0.5,"perTrialBonusThreshold":0.05,"exampleCost":0.02},"classroomParams":{"A":{"a":1,"b":4},"B":{"a":4,"b":1},"C":{"a":2,"b":8},"D":{"a":8,"b":2}},"conditions":["nonSeqFull","nonSeqPartial","seqNoFeedback","seqFeedback"],"classroomPairings":[["A","B"],["C","D"]],"coinWeights":[0.2,0.5,0.8],"subjectId":"A2I4PRZ9IZMKON","assignmentId":"39GXDJN2OU09PHNUWG5M30LI1R38VG","hitId":"3QGHA0EA0JM3KKNCY0PQRLYAHLBWBE","url":"https://gershmanlab.com/experiments/alicia/teaching/experiment/?hitId=3QGHA0EA0JM3KKNCY0PQRLYAHLBWBE&workerId=A2I4PRZ9IZMKON&assignmentId=39GXDJN2OU09PHNUWG5M30LI1R38VG&a=2DG93&tp_a=2DG93&b=39GXDJN2OU09PHNUWG5M30LI1R38VG&tp_b=39GXDJN2OU09PHNUWG5M30LI1R38VG&c=365633&tp_c=365633"},{"rt":1829,"stimulus":"\n                <p>Student's guess for coin weight: <b style=\"color:Tomato;\">0.17</b></p>\n                <p>You received a bonus of <b>$0.48</b>. Total bonus so far: <b>$1.30</b></b></p>\n                <p></p>\n                <p>Press any key to continue.</p>\n                ","response":"1","trial_type":"html-keyboard-response","trial_index":78,"time_elapsed":1268616,"internal_node_id":"0.0-74.0","params":{"nStudents":24,"maxFlips":25,"completionMinutes":45,"basePay":8,"maxBonus":9,"perTrialBonus":0.5,"perTrialBonusThreshold":0.05,"exampleCost":0.02},"classroomParams":{"A":{"a":1,"b":4},"B":{"a":4,"b":1},"C":{"a":2,"b":8},"D":{"a":8,"b":2}},"conditions":["nonSeqFull","nonSeqPartial","seqNoFeedback","seqFeedback"],"classroomPairings":[["A","B"],["C","D"]],"coinWeights":[0.2,0.5,0.8],"subjectId":"A2I4PRZ9IZMKON","assignmentId":"39GXDJN2OU09PHNUWG5M30LI1R38VG","hitId":"3QGHA0EA0JM3KKNCY0PQRLYAHLBWBE","url":"https://gershmanlab.com/experiments/alicia/teaching/experiment/?hitId=3QGHA0EA0JM3KKNCY0PQRLYAHLBWBE&workerId=A2I4PRZ9IZMKON&assignmentId=39GXDJN2OU09PHNUWG5M30LI1R38VG&a=2DG93&tp_a=2DG93&b=39GXDJN2OU09PHNUWG5M30LI1R38VG&tp_b=39GXDJN2OU09PHNUWG5M30LI1R38VG&c=365633&tp_c=365633"},{"rt":null,"stimulus":"<div style=\"font-size:60px;\">Next student</div>","response":null,"trial_type":"html-keyboard-response","trial_index":79,"time_elapsed":1271118,"internal_node_id":"0.0-75.0-0.0","params":{"nStudents":24,"maxFlips":25,"completionMinutes":45,"basePay":8,"maxBonus":9,"perTrialBonus":0.5,"perTrialBonusThreshold":0.05,"exampleCost":0.02},"classroomParams":{"A":{"a":1,"b":4},"B":{"a":4,"b":1},"C":{"a":2,"b":8},"D":{"a":8,"b":2}},"conditions":["nonSeqFull","nonSeqPartial","seqNoFeedback","seqFeedback"],"classroomPairings":[["A","B"],["C","D"]],"coinWeights":[0.2,0.5,0.8],"subjectId":"A2I4PRZ9IZMKON","assignmentId":"39GXDJN2OU09PHNUWG5M30LI1R38VG","hitId":"3QGHA0EA0JM3KKNCY0PQRLYAHLBWBE","url":"https://gershmanlab.com/experiments/alicia/teaching/experiment/?hitId=3QGHA0EA0JM3KKNCY0PQRLYAHLBWBE&workerId=A2I4PRZ9IZMKON&assignmentId=39GXDJN2OU09PHNUWG5M30LI1R38VG&a=2DG93&tp_a=2DG93&b=39GXDJN2OU09PHNUWG5M30LI1R38VG&tp_b=39GXDJN2OU09PHNUWG5M30LI1R38VG&c=365633&tp_c=365633"},{"rt":3055,"stimulus":"\n            <h4 style=\"color:Orange;\">Student 11</h4>\n            <h2>The weight of your coin is <b style=\"color:Tomato;\">0.5</b>.</h2>\n            <p>In this block, you will be giving <b>two</b> sets of examples to Student 11.</p>\n                <p>You will see the student's guess after the first set of examples. You will also receive feedback at the end of the block.</p>\n            <p>To earn the highest bonus, you will have to <b>take into consideration the student's guess</b> when you choose your second set of examples.</p>","response":0,"trial_type":"html-button-response","trial_index":80,"time_elapsed":1274175,"internal_node_id":"0.0-76.0","params":{"nStudents":24,"maxFlips":25,"completionMinutes":45,"basePay":8,"maxBonus":9,"perTrialBonus":0.5,"perTrialBonusThreshold":0.05,"exampleCost":0.02},"classroomParams":{"A":{"a":1,"b":4},"B":{"a":4,"b":1},"C":{"a":2,"b":8},"D":{"a":8,"b":2}},"conditions":["nonSeqFull","nonSeqPartial","seqNoFeedback","seqFeedback"],"classroomPairings":[["A","B"],["C","D"]],"coinWeights":[0.2,0.5,0.8],"subjectId":"A2I4PRZ9IZMKON","assignmentId":"39GXDJN2OU09PHNUWG5M30LI1R38VG","hitId":"3QGHA0EA0JM3KKNCY0PQRLYAHLBWBE","url":"https://gershmanlab.com/experiments/alicia/teaching/experiment/?hitId=3QGHA0EA0JM3KKNCY0PQRLYAHLBWBE&workerId=A2I4PRZ9IZMKON&assignmentId=39GXDJN2OU09PHNUWG5M30LI1R38VG&a=2DG93&tp_a=2DG93&b=39GXDJN2OU09PHNUWG5M30LI1R38VG&tp_b=39GXDJN2OU09PHNUWG5M30LI1R38VG&c=365633&tp_c=365633"},{"rt":6041,"response":{"heads":"3","tails":"0"},"type":"response","condition":"seqFeedback","trueTheta":0.5,"classrooms":["A","B"],"studentTrueClassroom":"B","exampleSet":"first","trial_type":"survey-html-form","trial_index":81,"time_elapsed":1280218,"internal_node_id":"0.0-77.0-0.0","params":{"nStudents":24,"maxFlips":25,"completionMinutes":45,"basePay":8,"maxBonus":9,"perTrialBonus":0.5,"perTrialBonusThreshold":0.05,"exampleCost":0.02},"classroomParams":{"A":{"a":1,"b":4},"B":{"a":4,"b":1},"C":{"a":2,"b":8},"D":{"a":8,"b":2}},"conditions":["nonSeqFull","nonSeqPartial","seqNoFeedback","seqFeedback"],"classroomPairings":[["A","B"],["C","D"]],"coinWeights":[0.2,0.5,0.8],"subjectId":"A2I4PRZ9IZMKON","assignmentId":"39GXDJN2OU09PHNUWG5M30LI1R38VG","hitId":"3QGHA0EA0JM3KKNCY0PQRLYAHLBWBE","url":"https://gershmanlab.com/experiments/alicia/teaching/experiment/?hitId=3QGHA0EA0JM3KKNCY0PQRLYAHLBWBE&workerId=A2I4PRZ9IZMKON&assignmentId=39GXDJN2OU09PHNUWG5M30LI1R38VG&a=2DG93&tp_a=2DG93&b=39GXDJN2OU09PHNUWG5M30LI1R38VG&tp_b=39GXDJN2OU09PHNUWG5M30LI1R38VG&c=365633&tp_c=365633","heads":3,"tails":0,"studentIndex":10,"studentTrueHypers":{"a":4,"b":1},"studentGuess":0.875,"delta":0.375,"totalExamples":3,"bonusSoFar":1.3},{"rt":null,"stimulus":"Sending examples to student... ","response":null,"trial_type":"html-keyboard-response","trial_index":82,"time_elapsed":1281720,"internal_node_id":"0.0-78.0","params":{"nStudents":24,"maxFlips":25,"completionMinutes":45,"basePay":8,"maxBonus":9,"perTrialBonus":0.5,"perTrialBonusThreshold":0.05,"exampleCost":0.02},"classroomParams":{"A":{"a":1,"b":4},"B":{"a":4,"b":1},"C":{"a":2,"b":8},"D":{"a":8,"b":2}},"conditions":["nonSeqFull","nonSeqPartial","seqNoFeedback","seqFeedback"],"classroomPairings":[["A","B"],["C","D"]],"coinWeights":[0.2,0.5,0.8],"subjectId":"A2I4PRZ9IZMKON","assignmentId":"39GXDJN2OU09PHNUWG5M30LI1R38VG","hitId":"3QGHA0EA0JM3KKNCY0PQRLYAHLBWBE","url":"https://gershmanlab.com/experiments/alicia/teaching/experiment/?hitId=3QGHA0EA0JM3KKNCY0PQRLYAHLBWBE&workerId=A2I4PRZ9IZMKON&assignmentId=39GXDJN2OU09PHNUWG5M30LI1R38VG&a=2DG93&tp_a=2DG93&b=39GXDJN2OU09PHNUWG5M30LI1R38VG&tp_b=39GXDJN2OU09PHNUWG5M30LI1R38VG&c=365633&tp_c=365633"},{"rt":null,"stimulus":"Examples sent to student! Waiting for student...","response":null,"trial_type":"html-keyboard-response","trial_index":83,"time_elapsed":1287722,"internal_node_id":"0.0-79.0","params":{"nStudents":24,"maxFlips":25,"completionMinutes":45,"basePay":8,"maxBonus":9,"perTrialBonus":0.5,"perTrialBonusThreshold":0.05,"exampleCost":0.02},"classroomParams":{"A":{"a":1,"b":4},"B":{"a":4,"b":1},"C":{"a":2,"b":8},"D":{"a":8,"b":2}},"conditions":["nonSeqFull","nonSeqPartial","seqNoFeedback","seqFeedback"],"classroomPairings":[["A","B"],["C","D"]],"coinWeights":[0.2,0.5,0.8],"subjectId":"A2I4PRZ9IZMKON","assignmentId":"39GXDJN2OU09PHNUWG5M30LI1R38VG","hitId":"3QGHA0EA0JM3KKNCY0PQRLYAHLBWBE","url":"https://gershmanlab.com/experiments/alicia/teaching/experiment/?hitId=3QGHA0EA0JM3KKNCY0PQRLYAHLBWBE&workerId=A2I4PRZ9IZMKON&assignmentId=39GXDJN2OU09PHNUWG5M30LI1R38VG&a=2DG93&tp_a=2DG93&b=39GXDJN2OU09PHNUWG5M30LI1R38VG&tp_b=39GXDJN2OU09PHNUWG5M30LI1R38VG&c=365633&tp_c=365633"},{"rt":2258,"stimulus":"\n                <p>Student's guess for coin weight: <b style=\"color:Tomato;\">0.88</b></p>\n                <p></b></p>\n                <p>You will now send another set of examples to your student. <b>Remember to take your student's guess into consideration so that you can earn the highest bonus possible!</b> </p>\n                <p>Press any key to continue.</p>\n                ","response":"3","trial_type":"html-keyboard-response","trial_index":84,"time_elapsed":1289981,"internal_node_id":"0.0-80.0","params":{"nStudents":24,"maxFlips":25,"completionMinutes":45,"basePay":8,"maxBonus":9,"perTrialBonus":0.5,"perTrialBonusThreshold":0.05,"exampleCost":0.02},"classroomParams":{"A":{"a":1,"b":4},"B":{"a":4,"b":1},"C":{"a":2,"b":8},"D":{"a":8,"b":2}},"conditions":["nonSeqFull","nonSeqPartial","seqNoFeedback","seqFeedback"],"classroomPairings":[["A","B"],["C","D"]],"coinWeights":[0.2,0.5,0.8],"subjectId":"A2I4PRZ9IZMKON","assignmentId":"39GXDJN2OU09PHNUWG5M30LI1R38VG","hitId":"3QGHA0EA0JM3KKNCY0PQRLYAHLBWBE","url":"https://gershmanlab.com/experiments/alicia/teaching/experiment/?hitId=3QGHA0EA0JM3KKNCY0PQRLYAHLBWBE&workerId=A2I4PRZ9IZMKON&assignmentId=39GXDJN2OU09PHNUWG5M30LI1R38VG&a=2DG93&tp_a=2DG93&b=39GXDJN2OU09PHNUWG5M30LI1R38VG&tp_b=39GXDJN2OU09PHNUWG5M30LI1R38VG&c=365633&tp_c=365633"},{"rt":3480,"response":{"heads":"0","tails":"6"},"type":"response","condition":"seqFeedback","trueTheta":0.5,"classrooms":["A","B"],"studentTrueClassroom":"B","exampleSet":"second","trial_type":"survey-html-form","trial_index":85,"time_elapsed":1293464,"internal_node_id":"0.0-81.0-0.0","params":{"nStudents":24,"maxFlips":25,"completionMinutes":45,"basePay":8,"maxBonus":9,"perTrialBonus":0.5,"perTrialBonusThreshold":0.05,"exampleCost":0.02},"classroomParams":{