[{"rt":2622,"stimulus":"Welcome to the experiment. Press any key to begin.","response":" ","trial_type":"html-keyboard-response","trial_index":0,"time_elapsed":2796,"internal_node_id":"0.0-0.0","params":{"nStudents":24,"maxFlips":25,"completionMinutes":45,"basePay":8,"maxBonus":9,"perTrialBonus":0.5,"perTrialBonusThreshold":0.05,"exampleCost":0.02},"classroomParams":{"A":{"a":1,"b":4},"B":{"a":4,"b":1},"C":{"a":2,"b":8},"D":{"a":8,"b":2}},"conditions":["nonSeqFull","nonSeqPartial","seqNoFeedback","seqFeedback"],"classroomPairings":[["A","B"],["C","D"]],"coinWeights":[0.2,0.5,0.8],"subjectId":"A2S64AUN7JI7ZS","assignmentId":"3PIWWX1FJKSPI3JJ6VOUP2J2MFQJJQ","hitId":"3QGHA0EA0JM3KKNCY0PQRLYAHLBWBE","url":"https://gershmanlab.com/experiments/alicia/teaching/experiment/?hitId=3QGHA0EA0JM3KKNCY0PQRLYAHLBWBE&workerId=A2S64AUN7JI7ZS&assignmentId=3PIWWX1FJKSPI3JJ6VOUP2J2MFQJJQ&a=FWIP3&tp_a=FWIP3&b=3PIWWX1FJKSPI3JJ6VOUP2J2MFQJJQ&tp_b=3PIWWX1FJKSPI3JJ6VOUP2J2MFQJJQ&c=365633&tp_c=365633"},{"rt":5752,"stimulus":"\n        <h3>Please read this consent agreement carefully before deciding whether to participate in this experiment.</h3>\n        <p><b>Purpose of the research:</b> To examine how people teach effectively.</p>\n        <p><b>What you will do in this research:</b> You will teach students the weights of different coins.</p>\n        <p><b>Time required:</b> This experiment will take 45 minutes to complete.</p>\n        <p><b>Risks:</b> There are no anticipated risks associated with participating in this study.             The effects of participating should be comparable to those you would experience from viewing a computer monitor             and using a mouse and keyboard for the duration of the experiment.</p>\n        <p><b>Benefits:</b> The study provides important information about the nature of teaching.</p>\n        <p><b>Compensation:</b> You will receive <b>$8</b> for completing the experiment and a performance bonus of up to <b>$9</b>.</p>\n        <p><b>Confidentiality:</b> Your participation in this study will remain confidential.             No personally identifiable information will be associated with your data.             Your de-identified data may be shared with other researchers and used in future projects.</p>\n        <p><b>Participation and withdrawal:</b> Your participation in this study is completely voluntary and             you may refuse to participate or you may choose to withdraw at any time without penalty or loss of\n            benefits to which you are otherwise entitled.</p>\n        <p><b>How to contact the researcher:</b> If you have questions or concerns about your participation            or payment, or want to request a summary of research findings, please contact\n            Alicia Chen, aliciachen@college.harvard.edu.</p>\n        <p><b>Whom to contact about your rights in this research:</b> For questions, concerns, suggestions,             or complaints that have not been or cannot be addressed by the researcher, or to report             research-related harm, please contact the Committee on the Use of Human Subjects in Research at Harvard University,             1414 Massachusetts Avenue, Second Floor, Cambridge, MA 02138. Phone: 617-496-2847. Email: cuhs@fas.harvard.edu.</p>\n        ","response":0,"trial_type":"html-button-response","trial_index":1,"time_elapsed":8549,"internal_node_id":"0.0-1.0","params":{"nStudents":24,"maxFlips":25,"completionMinutes":45,"basePay":8,"maxBonus":9,"perTrialBonus":0.5,"perTrialBonusThreshold":0.05,"exampleCost":0.02},"classroomParams":{"A":{"a":1,"b":4},"B":{"a":4,"b":1},"C":{"a":2,"b":8},"D":{"a":8,"b":2}},"conditions":["nonSeqFull","nonSeqPartial","seqNoFeedback","seqFeedback"],"classroomPairings":[["A","B"],["C","D"]],"coinWeights":[0.2,0.5,0.8],"subjectId":"A2S64AUN7JI7ZS","assignmentId":"3PIWWX1FJKSPI3JJ6VOUP2J2MFQJJQ","hitId":"3QGHA0EA0JM3KKNCY0PQRLYAHLBWBE","url":"https://gershmanlab.com/experiments/alicia/teaching/experiment/?hitId=3QGHA0EA0JM3KKNCY0PQRLYAHLBWBE&workerId=A2S64AUN7JI7ZS&assignmentId=3PIWWX1FJKSPI3JJ6VOUP2J2MFQJJQ&a=FWIP3&tp_a=FWIP3&b=3PIWWX1FJKSPI3JJ6VOUP2J2MFQJJQ&tp_b=3PIWWX1FJKSPI3JJ6VOUP2J2MFQJJQ&c=365633&tp_c=365633"},{"view_history":[{"page_index":0,"viewing_time":5086},{"page_index":1,"viewing_time":6262},{"page_index":2,"viewing_time":37530},{"page_index":3,"viewing_time":28231},{"page_index":4,"viewing_time":15105},{"page_index":5,"viewing_time":33240},{"page_index":6,"viewing_time":45204}],"rt":170659,"trial_type":"instructions","trial_index":2,"time_elapsed":179205,"internal_node_id":"0.0-2.0-0.0","params":{"nStudents":24,"maxFlips":25,"completionMinutes":45,"basePay":8,"maxBonus":9,"perTrialBonus":0.5,"perTrialBonusThreshold":0.05,"exampleCost":0.02},"classroomParams":{"A":{"a":1,"b":4},"B":{"a":4,"b":1},"C":{"a":2,"b":8},"D":{"a":8,"b":2}},"conditions":["nonSeqFull","nonSeqPartial","seqNoFeedback","seqFeedback"],"classroomPairings":[["A","B"],["C","D"]],"coinWeights":[0.2,0.5,0.8],"subjectId":"A2S64AUN7JI7ZS","assignmentId":"3PIWWX1FJKSPI3JJ6VOUP2J2MFQJJQ","hitId":"3QGHA0EA0JM3KKNCY0PQRLYAHLBWBE","url":"https://gershmanlab.com/experiments/alicia/teaching/experiment/?hitId=3QGHA0EA0JM3KKNCY0PQRLYAHLBWBE&workerId=A2S64AUN7JI7ZS&assignmentId=3PIWWX1FJKSPI3JJ6VOUP2J2MFQJJQ&a=FWIP3&tp_a=FWIP3&b=3PIWWX1FJKSPI3JJ6VOUP2J2MFQJJQ&tp_b=3PIWWX1FJKSPI3JJ6VOUP2J2MFQJJQ&c=365633&tp_c=365633"},{"rt":60048,"response":{"Q0":"Students in different classrooms will have seen a different number of heads and tails before seeing the examples you select for them.","Q1":"By giving 25 examples (the maximum) on each trial so I can make sure that the students' guesses are as accurate as possible.","Q2":"The coin lands heads 90% of the time.","Q3":"Yes, I might encounter the same student twice.","Q4":"The students are also on the same alien planet as you, where coins can be unfair.","Q5":"Based on both guesses."},"question_order":[3,1,5,4,2,0],"trial_type":"survey-multi-choice","trial_index":3,"time_elapsed":239255,"internal_node_id":"0.0-2.0-1.0","params":{"nStudents":24,"maxFlips":25,"completionMinutes":45,"basePay":8,"maxBonus":9,"perTrialBonus":0.5,"perTrialBonusThreshold":0.05,"exampleCost":0.02},"classroomParams":{"A":{"a":1,"b":4},"B":{"a":4,"b":1},"C":{"a":2,"b":8},"D":{"a":8,"b":2}},"conditions":["nonSeqFull","nonSeqPartial","seqNoFeedback","seqFeedback"],"classroomPairings":[["A","B"],["C","D"]],"coinWeights":[0.2,0.5,0.8],"subjectId":"A2S64AUN7JI7ZS","assignmentId":"3PIWWX1FJKSPI3JJ6VOUP2J2MFQJJQ","hitId":"3QGHA0EA0JM3KKNCY0PQRLYAHLBWBE","url":"https://gershmanlab.com/experiments/alicia/teaching/experiment/?hitId=3QGHA0EA0JM3KKNCY0PQRLYAHLBWBE&workerId=A2S64AUN7JI7ZS&assignmentId=3PIWWX1FJKSPI3JJ6VOUP2J2MFQJJQ&a=FWIP3&tp_a=FWIP3&b=3PIWWX1FJKSPI3JJ6VOUP2J2MFQJJQ&tp_b=3PIWWX1FJKSPI3JJ6VOUP2J2MFQJJQ&c=365633&tp_c=365633","pass":false},{"rt":1863,"stimulus":"Oops, you have missed question(s) on the comprehension check! We'll show you the instructions again.","response":0,"trial_type":"html-button-response","trial_index":4,"time_elapsed":241144,"internal_node_id":"0.0-2.0-2.0-0.0","params":{"nStudents":24,"maxFlips":25,"completionMinutes":45,"basePay":8,"maxBonus":9,"perTrialBonus":0.5,"perTrialBonusThreshold":0.05,"exampleCost":0.02},"classroomParams":{"A":{"a":1,"b":4},"B":{"a":4,"b":1},"C":{"a":2,"b":8},"D":{"a":8,"b":2}},"conditions":["nonSeqFull","nonSeqPartial","seqNoFeedback","seqFeedback"],"classroomPairings":[["A","B"],["C","D"]],"coinWeights":[0.2,0.5,0.8],"subjectId":"A2S64AUN7JI7ZS","assignmentId":"3PIWWX1FJKSPI3JJ6VOUP2J2MFQJJQ","hitId":"3QGHA0EA0JM3KKNCY0PQRLYAHLBWBE","url":"https://gershmanlab.com/experiments/alicia/teaching/experiment/?hitId=3QGHA0EA0JM3KKNCY0PQRLYAHLBWBE&workerId=A2S64AUN7JI7ZS&assignmentId=3PIWWX1FJKSPI3JJ6VOUP2J2MFQJJQ&a=FWIP3&tp_a=FWIP3&b=3PIWWX1FJKSPI3JJ6VOUP2J2MFQJJQ&tp_b=3PIWWX1FJKSPI3JJ6VOUP2J2MFQJJQ&c=365633&tp_c=365633"},{"view_history":[{"page_index":0,"viewing_time":1791},{"page_index":1,"viewing_time":1180},{"page_index":2,"viewing_time":5092},{"page_index":3,"viewing_time":7292},{"page_index":4,"viewing_time":9978},{"page_index":5,"viewing_time":28119},{"page_index":6,"viewing_time":28500},{"page_index":5,"viewing_time":894},{"page_index":4,"viewing_time":1578},{"page_index":5,"viewing_time":1540},{"page_index":4,"viewing_time":994},{"page_index":3,"viewing_time":4566},{"page_index":4,"viewing_time":786},{"page_index":5,"viewing_time":1042},{"page_index":6,"viewing_time":878}],"rt":94229,"trial_type":"instructions","trial_index":5,"time_elapsed":335372,"internal_node_id":"0.0-2.1-0.1","params":{"nStudents":24,"maxFlips":25,"completionMinutes":45,"basePay":8,"maxBonus":9,"perTrialBonus":0.5,"perTrialBonusThreshold":0.05,"exampleCost":0.02},"classroomParams":{"A":{"a":1,"b":4},"B":{"a":4,"b":1},"C":{"a":2,"b":8},"D":{"a":8,"b":2}},"conditions":["nonSeqFull","nonSeqPartial","seqNoFeedback","seqFeedback"],"classroomPairings":[["A","B"],["C","D"]],"coinWeights":[0.2,0.5,0.8],"subjectId":"A2S64AUN7JI7ZS","assignmentId":"3PIWWX1FJKSPI3JJ6VOUP2J2MFQJJQ","hitId":"3QGHA0EA0JM3KKNCY0PQRLYAHLBWBE","url":"https://gershmanlab.com/experiments/alicia/teaching/experiment/?hitId=3QGHA0EA0JM3KKNCY0PQRLYAHLBWBE&workerId=A2S64AUN7JI7ZS&assignmentId=3PIWWX1FJKSPI3JJ6VOUP2J2MFQJJQ&a=FWIP3&tp_a=FWIP3&b=3PIWWX1FJKSPI3JJ6VOUP2J2MFQJJQ&tp_b=3PIWWX1FJKSPI3JJ6VOUP2J2MFQJJQ&c=365633&tp_c=365633"},{"rt":34379,"response":{"Q0":"Students in different classrooms will have seen a different number of heads and tails before seeing the examples you select for them.","Q1":"By <b>considering the student's classroom information</b> so that I can teach efficiently and accurately/helpfully at the same time (because each example I give to the student costs money!).","Q2":"The coin lands heads 90% of the time.","Q3":"Yes, I might encounter the same student twice.","Q4":"The students are also on the same alien planet as you, where coins can be unfair.","Q5":"Based on the student's second (and final) guess."},"question_order":[0,2,1,4,5,3],"trial_type":"survey-multi-choice","trial_index":6,"time_elapsed":369752,"internal_node_id":"0.0-2.1-1.1","params":{"nStudents":24,"maxFlips":25,"completionMinutes":45,"basePay":8,"maxBonus":9,"perTrialBonus":0.5,"perTrialBonusThreshold":0.05,"exampleCost":0.02},"classroomParams":{"A":{"a":1,"b":4},"B":{"a":4,"b":1},"C":{"a":2,"b":8},"D":{"a":8,"b":2}},"conditions":["nonSeqFull","nonSeqPartial","seqNoFeedback","seqFeedback"],"classroomPairings":[["A","B"],["C","D"]],"coinWeights":[0.2,0.5,0.8],"subjectId":"A2S64AUN7JI7ZS","assignmentId":"3PIWWX1FJKSPI3JJ6VOUP2J2MFQJJQ","hitId":"3QGHA0EA0JM3KKNCY0PQRLYAHLBWBE","url":"https://gershmanlab.com/experiments/alicia/teaching/experiment/?hitId=3QGHA0EA0JM3KKNCY0PQRLYAHLBWBE&workerId=A2S64AUN7JI7ZS&assignmentId=3PIWWX1FJKSPI3JJ6VOUP2J2MFQJJQ&a=FWIP3&tp_a=FWIP3&b=3PIWWX1FJKSPI3JJ6VOUP2J2MFQJJQ&tp_b=3PIWWX1FJKSPI3JJ6VOUP2J2MFQJJQ&c=365633&tp_c=365633","pass":false},{"rt":1179,"stimulus":"Oops, you have missed question(s) on the comprehension check! We'll show you the instructions again.","response":0,"trial_type":"html-button-response","trial_index":7,"time_elapsed":370941,"internal_node_id":"0.0-2.1-2.1-0.1","params":{"nStudents":24,"maxFlips":25,"completionMinutes":45,"basePay":8,"maxBonus":9,"perTrialBonus":0.5,"perTrialBonusThreshold":0.05,"exampleCost":0.02},"classroomParams":{"A":{"a":1,"b":4},"B":{"a":4,"b":1},"C":{"a":2,"b":8},"D":{"a":8,"b":2}},"conditions":["nonSeqFull","nonSeqPartial","seqNoFeedback","seqFeedback"],"classroomPairings":[["A","B"],["C","D"]],"coinWeights":[0.2,0.5,0.8],"subjectId":"A2S64AUN7JI7ZS","assignmentId":"3PIWWX1FJKSPI3JJ6VOUP2J2MFQJJQ","hitId":"3QGHA0EA0JM3KKNCY0PQRLYAHLBWBE","url":"https://gershmanlab.com/experiments/alicia/teaching/experiment/?hitId=3QGHA0EA0JM3KKNCY0PQRLYAHLBWBE&workerId=A2S64AUN7JI7ZS&assignmentId=3PIWWX1FJKSPI3JJ6VOUP2J2MFQJJQ&a=FWIP3&tp_a=FWIP3&b=3PIWWX1FJKSPI3JJ6VOUP2J2MFQJJQ&tp_b=3PIWWX1FJKSPI3JJ6VOUP2J2MFQJJQ&c=365633&tp_c=365633"},{"view_history":[{"page_index":0,"viewing_time":4111},{"page_index":1,"viewing_time":4369},{"page_index":2,"viewing_time":5824},{"page_index":3,"viewing_time":8078},{"page_index":4,"viewing_time":3476},{"page_index":5,"viewing_time":15200},{"page_index":6,"viewing_time":19080}],"rt":60137,"trial_type":"instructions","trial_index":8,"time_elapsed":431078,"internal_node_id":"0.0-2.2-0.2","params":{"nStudents":24,"maxFlips":25,"completionMinutes":45,"basePay":8,"maxBonus":9,"perTrialBonus":0.5,"perTrialBonusThreshold":0.05,"exampleCost":0.02},"classroomParams":{"A":{"a":1,"b":4},"B":{"a":4,"b":1},"C":{"a":2,"b":8},"D":{"a":8,"b":2}},"conditions":["nonSeqFull","nonSeqPartial","seqNoFeedback","seqFeedback"],"classroomPairings":[["A","B"],["C","D"]],"coinWeights":[0.2,0.5,0.8],"subjectId":"A2S64AUN7JI7ZS","assignmentId":"3PIWWX1FJKSPI3JJ6VOUP2J2MFQJJQ","hitId":"3QGHA0EA0JM3KKNCY0PQRLYAHLBWBE","url":"https://gershmanlab.com/experiments/alicia/teaching/experiment/?hitId=3QGHA0EA0JM3KKNCY0PQRLYAHLBWBE&workerId=A2S64AUN7JI7ZS&assignmentId=3PIWWX1FJKSPI3JJ6VOUP2J2MFQJJQ&a=FWIP3&tp_a=FWIP3&b=3PIWWX1FJKSPI3JJ6VOUP2J2MFQJJQ&tp_b=3PIWWX1FJKSPI3JJ6VOUP2J2MFQJJQ&c=365633&tp_c=365633"},{"rt":97147,"response":{"Q0":"Students in different classrooms have seen a different proportion of fair and unfair coins before seeing the examples you select for them.","Q1":"By giving as few examples as possible.","Q2":"The coin lands heads 90% of the time.","Q3":"Yes, I might encounter the same student twice.","Q4":"The students are also on the same alien planet as you, where coins can be unfair.","Q5":"Based on the student's second (and final) guess."},"question_order":[2,4,3,5,1,0],"trial_type":"survey-multi-choice","trial_index":9,"time_elapsed":528224,"internal_node_id":"0.0-2.2-1.2","params":{"nStudents":24,"maxFlips":25,"completionMinutes":45,"basePay":8,"maxBonus":9,"perTrialBonus":0.5,"perTrialBonusThreshold":0.05,"exampleCost":0.02},"classroomParams":{"A":{"a":1,"b":4},"B":{"a":4,"b":1},"C":{"a":2,"b":8},"D":{"a":8,"b":2}},"conditions":["nonSeqFull","nonSeqPartial","seqNoFeedback","seqFeedback"],"classroomPairings":[["A","B"],["C","D"]],"coinWeights":[0.2,0.5,0.8],"subjectId":"A2S64AUN7JI7ZS","assignmentId":"3PIWWX1FJKSPI3JJ6VOUP2J2MFQJJQ","hitId":"3QGHA0EA0JM3KKNCY0PQRLYAHLBWBE","url":"https://gershmanlab.com/experiments/alicia/teaching/experiment/?hitId=3QGHA0EA0JM3KKNCY0PQRLYAHLBWBE&workerId=A2S64AUN7JI7ZS&assignmentId=3PIWWX1FJKSPI3JJ6VOUP2J2MFQJJQ&a=FWIP3&tp_a=FWIP3&b=3PIWWX1FJKSPI3JJ6VOUP2J2MFQJJQ&tp_b=3PIWWX1FJKSPI3JJ6VOUP2J2MFQJJQ&c=365633&tp_c=365633","pass":false},{"rt":1667,"stimulus":"Oops, you have missed question(s) on the comprehension check! We'll show you the instructions again.","response":0,"trial_type":"html-button-response","trial_index":10,"time_elapsed":529900,"internal_node_id":"0.0-2.2-2.2-0.2","params":{"nStudents":24,"maxFlips":25,"completionMinutes":45,"basePay":8,"maxBonus":9,"perTrialBonus":0.5,"perTrialBonusThreshold":0.05,"exampleCost":0.02},"classroomParams":{"A":{"a":1,"b":4},"B":{"a":4,"b":1},"C":{"a":2,"b":8},"D":{"a":8,"b":2}},"conditions":["nonSeqFull","nonSeqPartial","seqNoFeedback","seqFeedback"],"classroomPairings":[["A","B"],["C","D"]],"coinWeights":[0.2,0.5,0.8],"subjectId":"A2S64AUN7JI7ZS","assignmentId":"3PIWWX1FJKSPI3JJ6VOUP2J2MFQJJQ","hitId":"3QGHA0EA0JM3KKNCY0PQRLYAHLBWBE","url":"https://gershmanlab.com/experiments/alicia/teaching/experiment/?hitId=3QGHA0EA0JM3KKNCY0PQRLYAHLBWBE&workerId=A2S64AUN7JI7ZS&assignmentId=3PIWWX1FJKSPI3JJ6VOUP2J2MFQJJQ&a=FWIP3&tp_a=FWIP3&b=3PIWWX1FJKSPI3JJ6VOUP2J2MFQJJQ&tp_b=3PIWWX1FJKSPI3JJ6VOUP2J2MFQJJQ&c=365633&tp_c=365633"},{"view_history":[{"page_index":0,"viewing_time":2882},{"page_index":1,"viewing_time":1334},{"page_index":2,"viewing_time":7469},{"page_index":3,"viewing_time":1104},{"page_index":2,"viewing_time":2956},{"page_index":3,"viewing_time":7490},{"page_index":4,"viewing_time":2780},{"page_index":5,"viewing_time":19386},{"page_index":4,"viewing_time":1038},{"page_index":3,"viewing_time":6172},{"page_index":2,"viewing_time":8638},{"page_index":1,"viewing_time":1478},{"page_index":0,"viewing_time":826},{"page_index":1,"viewing_time":834},{"page_index":2,"viewing_time":2325},{"page_index":3,"viewing_time":11342},{"page_index":4,"viewing_time":3932},{"page_index":5,"viewing_time":10878},{"page_index":6,"viewing_time":33134}],"rt":125997,"trial_type":"instructions","trial_index":11,"time_elapsed":655895,"internal_node_id":"0.0-2.3-0.3","params":{"nStudents":24,"maxFlips":25,"completionMinutes":45,"basePay":8,"maxBonus":9,"perTrialBonus":0.5,"perTrialBonusThreshold":0.05,"exampleCost":0.02},"classroomParams":{"A":{"a":1,"b":4},"B":{"a":4,"b":1},"C":{"a":2,"b":8},"D":{"a":8,"b":2}},"conditions":["nonSeqFull","nonSeqPartial","seqNoFeedback","seqFeedback"],"classroomPairings":[["A","B"],["C","D"]],"coinWeights":[0.2,0.5,0.8],"subjectId":"A2S64AUN7JI7ZS","assignmentId":"3PIWWX1FJKSPI3JJ6VOUP2J2MFQJJQ","hitId":"3QGHA0EA0JM3KKNCY0PQRLYAHLBWBE","url":"https://gershmanlab.com/experiments/alicia/teaching/experiment/?hitId=3QGHA0EA0JM3KKNCY0PQRLYAHLBWBE&workerId=A2S64AUN7JI7ZS&assignmentId=3PIWWX1FJKSPI3JJ6VOUP2J2MFQJJQ&a=FWIP3&tp_a=FWIP3&b=3PIWWX1FJKSPI3JJ6VOUP2J2MFQJJQ&tp_b=3PIWWX1FJKSPI3JJ6VOUP2J2MFQJJQ&c=365633&tp_c=365633"},{"rt":48274,"response":{"Q0":"Students in different classrooms will have seen a different number of heads and tails before seeing the examples you select for them.","Q1":"By <b>considering the student's classroom information</b> so that I can teach efficiently and accurately/helpfully at the same time (because each example I give to the student costs money!).","Q2":"The coin lands heads 90% of the time.","Q3":"Yes, I might encounter the same student twice.","Q4":"The students are also on the same alien planet as you, where coins can be unfair.","Q5":"Based on the student's second (and final) guess."},"question_order":[0,5,3,4,2,1],"trial_type":"survey-multi-choice","trial_index":12,"time_elapsed":704171,"internal_node_id":"0.0-2.3-1.3","params":{"nStudents":24,"maxFlips":25,"completionMinutes":45,"basePay":8,"maxBonus":9,"perTrialBonus":0.5,"perTrialBonusThreshold":0.05,"exampleCost":0.02},"classroomParams":{"A":{"a":1,"b":4},"B":{"a":4,"b":1},"C":{"a":2,"b":8},"D":{"a":8,"b":2}},"conditions":["nonSeqFull","nonSeqPartial","seqNoFeedback","seqFeedback"],"classroomPairings":[["A","B"],["C","D"]],"coinWeights":[0.2,0.5,0.8],"subjectId":"A2S64AUN7JI7ZS","assignmentId":"3PIWWX1FJKSPI3JJ6VOUP2J2MFQJJQ","hitId":"3QGHA0EA0JM3KKNCY0PQRLYAHLBWBE","url":"https://gershmanlab.com/experiments/alicia/teaching/experiment/?hitId=3QGHA0EA0JM3KKNCY0PQRLYAHLBWBE&workerId=A2S64AUN7JI7ZS&assignmentId=3PIWWX1FJKSPI3JJ6VOUP2J2MFQJJQ&a=FWIP3&tp_a=FWIP3&b=3PIWWX1FJKSPI3JJ6VOUP2J2MFQJJQ&tp_b=3PIWWX1FJKSPI3JJ6VOUP2J2MFQJJQ&c=365633&tp_c=365633","pass":false},{"rt":3112,"stimulus":"Oops, you have missed question(s) on the comprehension check! We'll show you the instructions again.","response":0,"trial_type":"html-button-response","trial_index":13,"time_elapsed":707292,"internal_node_id":"0.0-2.3-2.3-0.3","params":{"nStudents":24,"maxFlips":25,"completionMinutes":45,"basePay":8,"maxBonus":9,"perTrialBonus":0.5,"perTrialBonusThreshold":0.05,"exampleCost":0.02},"classroomParams":{"A":{"a":1,"b":4},"B":{"a":4,"b":1},"C":{"a":2,"b":8},"D":{"a":8,"b":2}},"conditions":["nonSeqFull","nonSeqPartial","seqNoFeedback","seqFeedback"],"classroomPairings":[["A","B"],["C","D"]],"coinWeights":[0.2,0.5,0.8],"subjectId":"A2S64AUN7JI7ZS","assignmentId":"3PIWWX1FJKSPI3JJ6VOUP2J2MFQJJQ","hitId":"3QGHA0EA0JM3KKNCY0PQRLYAHLBWBE","url":"https://gershmanlab.com/experiments/alicia/teaching/experiment/?hitId=3QGHA0EA0JM3KKNCY0PQRLYAHLBWBE&workerId=A2S64AUN7JI7ZS&assignmentId=3PIWWX1FJKSPI3JJ6VOUP2J2MFQJJQ&a=FWIP3&tp_a=FWIP3&b=3PIWWX1FJKSPI3JJ6VOUP2J2MFQJJQ&tp_b=3PIWWX1FJKSPI3JJ6VOUP2J2MFQJJQ&c=365633&tp_c=365633"},{"view_history":[{"page_index":0,"viewing_time":3151},{"page_index":1,"viewing_time":804},{"page_index":2,"viewing_time":1394},{"page_index":3,"viewing_time":726},{"page_index":4,"viewing_time":13572},{"page_index":5,"viewing_time":6728},{"page_index":6,"viewing_time":10496}],"rt":36871,"trial_type":"instructions","trial_index":14,"time_elapsed":744163,"internal_node_id":"0.0-2.4-0.4","params":{"nStudents":24,"maxFlips":25,"completionMinutes":45,"basePay":8,"maxBonus":9,"perTrialBonus":0.5,"perTrialBonusThreshold":0.05,"exampleCost":0.02},"classroomParams":{"A":{"a":1,"b":4},"B":{"a":4,"b":1},"C":{"a":2,"b":8},"D":{"a":8,"b":2}},"conditions":["nonSeqFull","nonSeqPartial","seqNoFeedback","seqFeedback"],"classroomPairings":[["A","B"],["C","D"]],"coinWeights":[0.2,0.5,0.8],"subjectId":"A2S64AUN7JI7ZS","assignmentId":"3PIWWX1FJKSPI3JJ6VOUP2J2MFQJJQ","hitId":"3QGHA0EA0JM3KKNCY0PQRLYAHLBWBE","url":"https://gershmanlab.com/experiments/alicia/teaching/experiment/?hitId=3QGHA0EA0JM3KKNCY0PQRLYAHLBWBE&workerId=A2S64AUN7JI7ZS&assignmentId=3PIWWX1FJKSPI3JJ6VOUP2J2MFQJJQ&a=FWIP3&tp_a=FWIP3&b=3PIWWX1FJKSPI3JJ6VOUP2J2MFQJJQ&tp_b=3PIWWX1FJKSPI3JJ6VOUP2J2MFQJJQ&c=365633&tp_c=365633"},{"rt":65420,"response":{"Q0":"Students in different classrooms have seen a different proportion of fair and unfair coins before seeing the examples you select for them.","Q1":"By <b>considering the student's classroom information</b> so that I can teach efficiently and accurately/helpfully at the same time (because each example I give to the student costs money!).","Q2":"The coin lands heads 90% of the time.","Q3":"Yes, I might encounter the same student twice.","Q4":"The students are also on the same alien planet as you, where coins can be unfair.","Q5":"Based on the student's second (and final) guess."},"question_order":[2,3,1,4,0,5],"trial_type":"survey-multi-choice","trial_index":15,"time_elapsed":809582,"internal_node_id":"0.0-2.4-1.4","params":{"nStudents":24,"maxFlips":25,"completionMinutes":45,"basePay":8,"maxBonus":9,"perTrialBonus":0.5,"perTrialBonusThreshold":0.05,"exampleCost":0.02},"classroomParams":{"A":{"a":1,"b":4},"B":{"a":4,"b":1},"C":{"a":2,"b":8},"D":{"a":8,"b":2}},"conditions":["nonSeqFull","nonSeqPartial","seqNoFeedback","seqFeedback"],"classroomPairings":[["A","B"],["C","D"]],"coinWeights":[0.2,0.5,0.8],"subjectId":"A2S64AUN7JI7ZS","assignmentId":"3PIWWX1FJKSPI3JJ6VOUP2J2MFQJJQ","hitId":"3QGHA0EA0JM3KKNCY0PQRLYAHLBWBE","url":"https://gershmanlab.com/experiments/alicia/teaching/experiment/?hitId=3QGHA0EA0JM3KKNCY0PQRLYAHLBWBE&workerId=A2S64AUN7JI7ZS&assignmentId=3PIWWX1FJKSPI3JJ6VOUP2J2MFQJJQ&a=FWIP3&tp_a=FWIP3&b=3PIWWX1FJKSPI3JJ6VOUP2J2MFQJJQ&tp_b=3PIWWX1FJKSPI3JJ6VOUP2J2MFQJJQ&c=365633&tp_c=365633","pass":false},{"rt":1213,"stimulus":"Oops, you have missed question(s) on the comprehension check! We'll show you the instructions again.","response":0,"trial_type":"html-button-response","trial_index":16,"time_elapsed":810806,"internal_node_id":"0.0-2.4-2.4-0.4","params":{"nStudents":24,"maxFlips":25,"completionMinutes":45,"basePay":8,"maxBonus":9,"perTrialBonus":0.5,"perTrialBonusThreshold":0.05,"exampleCost":0.02},"classroomParams":{"A":{"a":1,"b":4},"B":{"a":4,"b":1},"C":{"a":2,"b":8},"D":{"a":8,"b":2}},"conditions":["nonSeqFull","nonSeqPartial","seqNoFeedback","seqFeedback"],"classroomPairings":[["A","B"],["C","D"]],"coinWeights":[0.2,0.5,0.8],"subjectId":"A2S64AUN7JI7ZS","assignmentId":"3PIWWX1FJKSPI3JJ6VOUP2J2MFQJJQ","hitId":"3QGHA0EA0JM3KKNCY0PQRLYAHLBWBE","url":"https://gershmanlab.com/experiments/alicia/teaching/experiment/?hitId=3QGHA0EA0JM3KKNCY0PQRLYAHLBWBE&workerId=A2S64AUN7JI7ZS&assignmentId=3PIWWX1FJKSPI3JJ6VOUP2J2MFQJJQ&a=FWIP3&tp_a=FWIP3&b=3PIWWX1FJKSPI3JJ6VOUP2J2MFQJJQ&tp_b=3PIWWX1FJKSPI3JJ6VOUP2J2MFQJJQ&c=365633&tp_c=365633"},{"view_history":[{"page_index":0,"viewing_time":635},{"page_index":1,"viewing_time":626},{"page_index":2,"viewing_time":1216},{"page_index":3,"viewing_time":592},{"page_index":4,"viewing_time":656},{"page_index":5,"viewing_time":710},{"page_index":6,"viewing_time":708}],"rt":5143,"trial_type":"instructions","trial_index":17,"time_elapsed":815949,"internal_node_id":"0.0-2.5-0.5","params":{"nStudents":24,"maxFlips":25,"completionMinutes":45,"basePay":8,"maxBonus":9,"perTrialBonus":0.5,"perTrialBonusThreshold":0.05,"exampleCost":0.02},"classroomParams":{"A":{"a":1,"b":4},"B":{"a":4,"b":1},"C":{"a":2,"b":8},"D":{"a":8,"b":2}},"conditions":["nonSeqFull","nonSeqPartial","seqNoFeedback","seqFeedback"],"classroomPairings":[["A","B"],["C","D"]],"coinWeights":[0.2,0.5,0.8],"subjectId":"A2S64AUN7JI7ZS","assignmentId":"3PIWWX1FJKSPI3JJ6VOUP2J2MFQJJQ","hitId":"3QGHA0EA0JM3KKNCY0PQRLYAHLBWBE","url":"https://gershmanlab.com/experiments/alicia/teaching/experiment/?hitId=3QGHA0EA0JM3KKNCY0PQRLYAHLBWBE&workerId=A2S64AUN7JI7ZS&assignmentId=3PIWWX1FJKSPI3JJ6VOUP2J2MFQJJQ&a=FWIP3&tp_a=FWIP3&b=3PIWWX1FJKSPI3JJ6VOUP2J2MFQJJQ&tp_b=3PIWWX1FJKSPI3JJ6VOUP2J2MFQJJQ&c=365633&tp_c=365633"},{"rt":13205,"response":{"Q0":"Students in different classrooms have seen a different proportion of fair and unfair coins before seeing the examples you select for them.","Q1":"By <b>considering the student's classroom information</b> so that I can teach efficiently and accurately/helpfully at the same time (because each example I give to the student costs money!).","Q2":"The coin lands heads 90% of the time.","Q3":"Yes, I might encounter the same student twice.","Q4":"The students are also on the same alien planet as you, where coins can be unfair.","Q5":"Based on both guesses."},"question_order":[5,3,2,0,4,1],"trial_type":"survey-multi-choice","trial_index":18,"time_elapsed":829156,"internal_node_id":"0.0-2.5-1.5","params":{"nStudents":24,"maxFlips":25,"completionMinutes":45,"basePay":8,"maxBonus":9,"perTrialBonus":0.5,"perTrialBonusThreshold":0.05,"exampleCost":0.02},"classroomParams":{"A":{"a":1,"b":4},"B":{"a":4,"b":1},"C":{"a":2,"b":8},"D":{"a":8,"b":2}},"conditions":["nonSeqFull","nonSeqPartial","seqNoFeedback","seqFeedback"],"classroomPairings":[["A","B"],["C","D"]],"coinWeights":[0.2,0.5,0.8],"subjectId":"A2S64AUN7JI7ZS","assignmentId":"3PIWWX1FJKSPI3JJ6VOUP2J2MFQJJQ","hitId":"3QGHA0EA0JM3KKNCY0PQRLYAHLBWBE","url":"https://gershmanlab.com/experiments/alicia/teaching/experiment/?hitId=3QGHA0EA0JM3KKNCY0PQRLYAHLBWBE&workerId=A2S64AUN7JI7ZS&assignmentId=3PIWWX1FJKSPI3JJ6VOUP2J2MFQJJQ&a=FWIP3&tp_a=FWIP3&b=3PIWWX1FJKSPI3JJ6VOUP2J2MFQJJQ&tp_b=3PIWWX1FJKSPI3JJ6VOUP2J2MFQJJQ&c=365633&tp_c=365633","pass":false},{"rt":895,"stimulus":"Oops, you have missed question(s) on the comprehension check! We'll show you the instructions again.","response":0,"trial_type":"html-button-response","trial_index":19,"time_elapsed":830059,"internal_node_id":"0.0-2.5-2.5-0.5","params":{"nStudents":24,"maxFlips":25,"completionMinutes":45,"basePay":8,"maxBonus":9,"perTrialBonus":0.5,"perTrialBonusThreshold":0.05,"exampleCost":0.02},"classroomParams":{"A":{"a":1,"b":4},"B":{"a":4,"b":1},"C":{"a":2,"b":8},"D":{"a":8,"b":2}},"conditions":["nonSeqFull","nonSeqPartial","seqNoFeedback","seqFeedback"],"classroomPairings":[["A","B"],["C","D"]],"coinWeights":[0.2,0.5,0.8],"subjectId":"A2S64AUN7JI7ZS","assignmentId":"3PIWWX1FJKSPI3JJ6VOUP2J2MFQJJQ","hitId":"3QGHA0EA0JM3KKNCY0PQRLYAHLBWBE","url":"https://gershmanlab.com/experiments/alicia/teaching/experiment/?hitId=3QGHA0EA0JM3KKNCY0PQRLYAHLBWBE&workerId=A2S64AUN7JI7ZS&assignmentId=3PIWWX1FJKSPI3JJ6VOUP2J2MFQJJQ&a=FWIP3&tp_a=FWIP3&b=3PIWWX1FJKSPI3JJ6VOUP2J2MFQJJQ&tp_b=3PIWWX1FJKSPI3JJ6VOUP2J2MFQJJQ&c=365633&tp_c=365633"},{"view_history":[{"page_index":0,"viewing_time":739},{"page_index":1,"viewing_time":636},{"page_index":2,"viewing_time":1282},{"page_index":3,"viewing_time":436},{"page_index":4,"viewing_time":660},{"page_index":5,"viewing_time":620},{"page_index":6,"viewing_time":984}],"rt":5358,"trial_type":"instructions","trial_index":20,"time_elapsed":835417,"internal_node_id":"0.0-2.6-0.6","params":{"nStudents":24,"maxFlips":25,"completionMinutes":45,"basePay":8,"maxBonus":9,"perTrialBonus":0.5,"perTrialBonusThreshold":0.05,"exampleCost":0.02},"classroomParams":{"A":{"a":1,"b":4},"B":{"a":4,"b":1},"C":{"a":2,"b":8},"D":{"a":8,"b":2}},"conditions":["nonSeqFull","nonSeqPartial","seqNoFeedback","seqFeedback"],"classroomPairings":[["A","B"],["C","D"]],"coinWeights":[0.2,0.5,0.8],"subjectId":"A2S64AUN7JI7ZS","assignmentId":"3PIWWX1FJKSPI3JJ6VOUP2J2MFQJJQ","hitId":"3QGHA0EA0JM3KKNCY0PQRLYAHLBWBE","url":"https://gershmanlab.com/experiments/alicia/teaching/experiment/?hitId=3QGHA0EA0JM3KKNCY0PQRLYAHLBWBE&workerId=A2S64AUN7JI7ZS&assignmentId=3PIWWX1FJKSPI3JJ6VOUP2J2MFQJJQ&a=FWIP3&tp_a=FWIP3&b=3PIWWX1FJKSPI3JJ6VOUP2J2MFQJJQ&tp_b=3PIWWX1FJKSPI3JJ6VOUP2J2MFQJJQ&c=365633&tp_c=365633"},{"rt":19565,"response":{"Q0":"Students in different classrooms will have seen a different number of heads and tails before seeing the examples you select for them.","Q1":"By <b>considering the student's classroom information</b> so that I can teach efficiently and accurately/helpfully at the same time (because each example I give to the student costs money!).","Q2":"The coin lands heads 90% of the time.","Q3":"Yes, I might encounter the same student twice.","Q4":"The students are also on the same alien planet as you, where coins can be unfair.","Q5":"Based on the student's second (and final) guess."},"question_order":[0,4,5,1,2,3],"trial_type":"survey-multi-choice","trial_index":21,"time_elapsed":854983,"internal_node_id":"0.0-2.6-1.6","params":{"nStudents":24,"maxFlips":25,"completionMinutes":45,"basePay":8,"maxBonus":9,"perTrialBonus":0.5,"perTrialBonusThreshold":0.05,"exampleCost":0.02},"classroomParams":{"A":{"a":1,"b":4},"B":{"a":4,"b":1},"C":{"a":2,"b":8},"D":{"a":8,"b":2}},"conditions":["nonSeqFull","nonSeqPartial","seqNoFeedback","seqFeedback"],"classroomPairings":[["A","B"],["C","D"]],"coinWeights":[0.2,0.5,0.8],"subjectId":"A2S64AUN7JI7ZS","assignmentId":"3PIWWX1FJKSPI3JJ6VOUP2J2MFQJJQ","hitId":"3QGHA0EA0JM3KKNCY0PQRLYAHLBWBE","url":"https://gershmanlab.com/experiments/alicia/teaching/experiment/?hitId=3QGHA0EA0JM3KKNCY0PQRLYAHLBWBE&workerId=A2S64AUN7JI7ZS&assignmentId=3PIWWX1FJKSPI3JJ6VOUP2J2MFQJJQ&a=FWIP3&tp_a=FWIP3&b=3PIWWX1FJKSPI3JJ6VOUP2J2MFQJJQ&tp_b=3PIWWX1FJKSPI3JJ6VOUP2J2MFQJJQ&c=365633&tp_c=365633","pass":false},{"rt":914,"stimulus":"Oops, you have missed question(s) on the comprehension check! We'll show you the instructions again.","response":0,"trial_type":"html-button-response","trial_index":22,"time_elapsed":855907,"internal_node_id":"0.0-2.6-2.6-0.6","params":{"nStudents":24,"maxFlips":25,"completionMinutes":45,"basePay":8,"maxBonus":9,"perTrialBonus":0.5,"perTrialBonusThreshold":0.05,"exampleCost":0.02},"classroomParams":{"A":{"a":1,"b":4},"B":{"a":4,"b":1},"C":{"a":2,"b":8},"D":{"a":8,"b":2}},"conditions":["nonSeqFull","nonSeqPartial","seqNoFeedback","seqFeedback"],"classroomPairings":[["A","B"],["C","D"]],"coinWeights":[0.2,0.5,0.8],"subjectId":"A2S64AUN7JI7ZS","assignmentId":"3PIWWX1FJKSPI3JJ6VOUP2J2MFQJJQ","hitId":"3QGHA0EA0JM3KKNCY0PQRLYAHLBWBE","url":"https://gershmanlab.com/experiments/alicia/teaching/experiment/?hitId=3QGHA0EA0JM3KKNCY0PQRLYAHLBWBE&workerId=A2S64AUN7JI7ZS&assignmentId=3PIWWX1FJKSPI3JJ6VOUP2J2MFQJJQ&a=FWIP3&tp_a=FWIP3&b=3PIWWX1FJKSPI3JJ6VOUP2J2MFQJJQ&tp_b=3PIWWX1FJKSPI3JJ6VOUP2J2MFQJJQ&c=365633&tp_c=365633"},{"view_history":[{"page_index":0,"viewing_time":11969},{"page_index":1,"viewing_time":2000},{"page_index":2,"viewing_time":33805},{"page_index":3,"viewing_time":27419},{"page_index":4,"viewing_time":19280},{"page_index":5,"viewing_time":21002},{"page_index":6,"viewing_time":16622}],"rt":132098,"trial_type":"instructions","trial_index":23,"time_elapsed":988002,"internal_node_id":"0.0-2.7-0.7","params":{"nStudents":24,"maxFlips":25,"completionMinutes":45,"basePay":8,"maxBonus":9,"perTrialBonus":0.5,"perTrialBonusThreshold":0.05,"exampleCost":0.02},"classroomParams":{"A":{"a":1,"b":4},"B":{"a":4,"b":1},"C":{"a":2,"b":8},"D":{"a":8,"b":2}},"conditions":["nonSeqFull","nonSeqPartial","seqNoFeedback","seqFeedback"],"classroomPairings":[["A","B"],["C","D"]],"coinWeights":[0.2,0.5,0.8],"subjectId":"A2S64AUN7JI7ZS","assignmentId":"3PIWWX1FJKSPI3JJ6VOUP2J2MFQJJQ","hitId":"3QGHA0EA0JM3KKNCY0PQRLYAHLBWBE","url":"https://gershmanlab.com/experiments/alicia/teaching/experiment/?hitId=3QGHA0EA0JM3KKNCY0PQRLYAHLBWBE&workerId=A2S64AUN7JI7ZS&assignmentId=3PIWWX1FJKSPI3JJ6VOUP2J2MFQJJQ&a=FWIP3&tp_a=FWIP3&b=3PIWWX1FJKSPI3JJ6VOUP2J2MFQJJQ&tp_b=3PIWWX1FJKSPI3JJ6VOUP2J2MFQJJQ&c=365633&tp_c=365633"},{"rt":22878,"response":{"Q0":"Students in different classrooms have seen a different proportion of fair and unfair coins before seeing the examples you select for them.","Q1":"By <b>considering the student's classroom information</b> so that I can teach efficiently and accurately/helpfully at the same time (because each example I give to the student costs money!).","Q2":"The coin lands heads 90% of the time.","Q3":"No, I will teach a <b>new</b> student each time.","Q4":"The students are also on the same alien planet as you, where coins can be unfair.","Q5":"Based on the student's second (and final) guess."},"question_order":[3,5,1,0,2,4],"trial_type":"survey-multi-choice","trial_index":24,"time_elapsed":1010881,"internal_node_id":"0.0-2.7-1.7","params":{"nStudents":24,"maxFlips":25,"completionMinutes":45,"basePay":8,"maxBonus":9,"perTrialBonus":0.5,"perTrialBonusThreshold":0.05,"exampleCost":0.02},"classroomParams":{"A":{"a":1,"b":4},"B":{"a":4,"b":1},"C":{"a":2,"b":8},"D":{"a":8,"b":2}},"conditions":["nonSeqFull","nonSeqPartial","seqNoFeedback","seqFeedback"],"classroomPairings":[["A","B"],["C","D"]],"coinWeights":[0.2,0.5,0.8],"subjectId":"A2S64AUN7JI7ZS","assignmentId":"3PIWWX1FJKSPI3JJ6VOUP2J2MFQJJQ","hitId":"3QGHA0EA0JM3KKNCY0PQRLYAHLBWBE","url":"https://gershmanlab.com/experiments/alicia/teaching/experiment/?hitId=3QGHA0EA0JM3KKNCY0PQRLYAHLBWBE&workerId=A2S64AUN7JI7ZS&assignmentId=3PIWWX1FJKSPI3JJ6VOUP2J2MFQJJQ&a=FWIP3&tp_a=FWIP3&b=3PIWWX1FJKSPI3JJ6VOUP2J2MFQJJQ&tp_b=3PIWWX1FJKSPI3JJ6VOUP2J2MFQJJQ&c=365633&tp_c=365633","pass":false},{"rt":1103,"stimulus":"Oops, you have missed question(s) on the comprehension check! We'll show you the instructions again.","response":0,"trial_type":"html-button-response","trial_index":25,"time_elapsed":1011993,"internal_node_id":"0.0-2.7-2.7-0.7","params":{"nStudents":24,"maxFlips":25,"completionMinutes":45,"basePay":8,"maxBonus":9,"perTrialBonus":0.5,"perTrialBonusThreshold":0.05,"exampleCost":0.02},"classroomParams":{"A":{"a":1,"b":4},"B":{"a":4,"b":1},"C":{"a":2,"b":8},"D":{"a":8,"b":2}},"conditions":["nonSeqFull","nonSeqPartial","seqNoFeedback","seqFeedback"],"classroomPairings":[["A","B"],["C","D"]],"coinWeights":[0.2,0.5,0.8],"subjectId":"A2S64AUN7JI7ZS","assignmentId":"3PIWWX1FJKSPI3JJ6VOUP2J2MFQJJQ","hitId":"3QGHA0EA0JM3KKNCY0PQRLYAHLBWBE","url":"https://gershmanlab.com/experiments/alicia/teaching/experiment/?hitId=3QGHA0EA0JM3KKNCY0PQRLYAHLBWBE&workerId=A2S64AUN7JI7ZS&assignmentId=3PIWWX1FJKSPI3JJ6VOUP2J2MFQJJQ&a=FWIP3&tp_a=FWIP3&b=3PIWWX1FJKSPI3JJ6VOUP2J2MFQJJQ&tp_b=3PIWWX1FJKSPI3JJ6VOUP2J2MFQJJQ&c=365633&tp_c=365633"},{"view_history":[{"page_index":0,"viewing_time":921},{"page_index":1,"viewing_time":420},{"page_index":2,"viewing_time":838},{"page_index":3,"viewing_time":724},{"page_index":4,"viewing_time":952},{"page_index":5,"viewing_time":592},{"page_index":6,"viewing_time":1286}],"rt":5733,"trial_type":"instructions","trial_index":26,"time_elapsed":1017727,"internal_node_id":"0.0-2.8-0.8","params":{"nStudents":24,"maxFlips":25,"completionMinutes":45,"basePay":8,"maxBonus":9,"perTrialBonus":0.5,"perTrialBonusThreshold":0.05,"exampleCost":0.02},"classroomParams":{"A":{"a":1,"b":4},"B":{"a":4,"b":1},"C":{"a":2,"b":8},"D":{"a":8,"b":2}},"conditions":["nonSeqFull","nonSeqPartial","seqNoFeedback","seqFeedback"],"classroomPairings":[["A","B"],["C","D"]],"coinWeights":[0.2,0.5,0.8],"subjectId":"A2S64AUN7JI7ZS","assignmentId":"3PIWWX1FJKSPI3JJ6VOUP2J2MFQJJQ","hitId":"3QGHA0EA0JM3KKNCY0PQRLYAHLBWBE","url":"https://gershmanlab.com/experiments/alicia/teaching/experiment/?hitId=3QGHA0EA0JM3KKNCY0PQRLYAHLBWBE&workerId=A2S64AUN7JI7ZS&assignmentId=3PIWWX1FJKSPI3JJ6VOUP2J2MFQJJQ&a=FWIP3&tp_a=FWIP3&b=3PIWWX1FJKSPI3JJ6VOUP2J2MFQJJQ&tp_b=3PIWWX1FJKSPI3JJ6VOUP2J2MFQJJQ&c=365633&tp_c=365633"},{"rt":26689,"response":{"Q0":"Students in different classrooms will have seen a different number of heads and tails before seeing the examples you select for them.","Q1":"By <b>considering the student's classroom information</b> so that I can teach efficiently and accurately/helpfully at the same time (because each example I give to the student costs money!).","Q2":"The coin lands heads 90% of the time.","Q3":"No, I will teach a <b>new</b> student each time.","Q4":"The students are also on the same alien planet as you, where coins can be unfair.","Q5":"Based on the student's second (and final) guess."},"question_order":[1,3,5,4,0,2],"trial_type":"survey-multi-choice","trial_index":27,"time_elapsed":1044417,"internal_node_id":"0.0-2.8-1.8","params":{"nStudents":24,"maxFlips":25,"completionMinutes":45,"basePay":8,"maxBonus":9,"perTrialBonus":0.5,"perTrialBonusThreshold":0.05,"exampleCost":0.02},"classroomParams":{"A":{"a":1,"b":4},"B":{"a":4,"b":1},"C":{"a":2,"b":8},"D":{"a":8,"b":2}},"conditions":["nonSeqFull","nonSeqPartial","seqNoFeedback","seqFeedback"],"classroomPairings":[["A","B"],["C","D"]],"coinWeights":[0.2,0.5,0.8],"subjectId":"A2S64AUN7JI7ZS","assignmentId":"3PIWWX1FJKSPI3JJ6VOUP2J2MFQJJQ","hitId":"3QGHA0EA0JM3KKNCY0PQRLYAHLBWBE","url":"https://gershmanlab.com/experiments/alicia/teaching/experiment/?hitId=3QGHA0EA0JM3KKNCY0PQRLYAHLBWBE&workerId=A2S64AUN7JI7ZS&assignmentId=3PIWWX1FJKSPI3JJ6VOUP2J2MFQJJQ&a=FWIP3&tp_a=FWIP3&b=3PIWWX1FJKSPI3JJ6VOUP2J2MFQJJQ&tp_b=3PIWWX1FJKSPI3JJ6VOUP2J2MFQJJQ&c=365633&tp_c=365633","pass":true},{"rt":null,"stimulus":"<div style=\"font-size:30px;\">Congrats on passing the comprehension quiz! The experiment will begin in a few seconds.</div>","response":null,"trial_type":"html-keyboard-response","trial_index":28,"time_elapsed":1047426,"internal_node_id":"0.0-3.0","params":{"nStudents":24,"maxFlips":25,"completionMinutes":45,"basePay":8,"maxBonus":9,"perTrialBonus":0.5,"perTrialBonusThreshold":0.05,"exampleCost":0.02},"classroomParams":{"A":{"a":1,"b":4},"B":{"a":4,"b":1},"C":{"a":2,"b":8},"D":{"a":8,"b":2}},"conditions":["nonSeqFull","nonSeqPartial","seqNoFeedback","seqFeedback"],"classroomPairings":[["A","B"],["C","D"]],"coinWeights":[0.2,0.5,0.8],"subjectId":"A2S64AUN7JI7ZS","assignmentId":"3PIWWX1FJKSPI3JJ6VOUP2J2MFQJJQ","hitId":"3QGHA0EA0JM3KKNCY0PQRLYAHLBWBE","url":"https://gershmanlab.com/experiments/alicia/teaching/experiment/?hitId=3QGHA0EA0JM3KKNCY0PQRLYAHLBWBE&workerId=A2S64AUN7JI7ZS&assignmentId=3PIWWX1FJKSPI3JJ6VOUP2J2MFQJJQ&a=FWIP3&tp_a=FWIP3&b=3PIWWX1FJKSPI3JJ6VOUP2J2MFQJJQ&tp_b=3PIWWX1FJKSPI3JJ6VOUP2J2MFQJJQ&c=365633&tp_c=365633"},{"rt":null,"stimulus":"<div style=\"font-size:50px;\">First student</div>","response":null,"trial_type":"html-keyboard-response","trial_index":29,"time_elapsed":1050427,"internal_node_id":"0.0-4.0","params":{"nStudents":24,"maxFlips":25,"completionMinutes":45,"basePay":8,"maxBonus":9,"perTrialBonus":0.5,"perTrialBonusThreshold":0.05,"exampleCost":0.02},"classroomParams":{"A":{"a":1,"b":4},"B":{"a":4,"b":1},"C":{"a":2,"b":8},"D":{"a":8,"b":2}},"conditions":["nonSeqFull","nonSeqPartial","seqNoFeedback","seqFeedback"],"classroomPairings":[["A","B"],["C","D"]],"coinWeights":[0.2,0.5,0.8],"subjectId":"A2S64AUN7JI7ZS","assignmentId":"3PIWWX1FJKSPI3JJ6VOUP2J2MFQJJQ","hitId":"3QGHA0EA0JM3KKNCY0PQRLYAHLBWBE","url":"https://gershmanlab.com/experiments/alicia/teaching/experiment/?hitId=3QGHA0EA0JM3KKNCY0PQRLYAHLBWBE&workerId=A2S64AUN7JI7ZS&assignmentId=3PIWWX1FJKSPI3JJ6VOUP2J2MFQJJQ&a=FWIP3&tp_a=FWIP3&b=3PIWWX1FJKSPI3JJ6VOUP2J2MFQJJQ&tp_b=3PIWWX1FJKSPI3JJ6VOUP2J2MFQJJQ&c=365633&tp_c=365633"},{"rt":5590,"stimulus":"\n            <h4 style=\"color:Orange;\">Student 1</h4>\n            <h2>The weight of your coin is <b style=\"color:Tomato;\">0.5</b>.</h2>\n            <p>In this block, you will be giving <b>two</b> sets of examples to Student 1.</p>\n                <p>You will receive feedback at the end of the block.</p>\n            <p></p>","response":0,"trial_type":"html-button-response","trial_index":30,"time_elapsed":1056018,"internal_node_id":"0.0-5.0","params":{"nStudents":24,"maxFlips":25,"completionMinutes":45,"basePay":8,"maxBonus":9,"perTrialBonus":0.5,"perTrialBonusThreshold":0.05,"exampleCost":0.02},"classroomParams":{"A":{"a":1,"b":4},"B":{"a":4,"b":1},"C":{"a":2,"b":8},"D":{"a":8,"b":2}},"conditions":["nonSeqFull","nonSeqPartial","seqNoFeedback","seqFeedback"],"classroomPairings":[["A","B"],["C","D"]],"coinWeights":[0.2,0.5,0.8],"subjectId":"A2S64AUN7JI7ZS","assignmentId":"3PIWWX1FJKSPI3JJ6VOUP2J2MFQJJQ","hitId":"3QGHA0EA0JM3KKNCY0PQRLYAHLBWBE","url":"https://gershmanlab.com/experiments/alicia/teaching/experiment/?hitId=3QGHA0EA0JM3KKNCY0PQRLYAHLBWBE&workerId=A2S64AUN7JI7ZS&assignmentId=3PIWWX1FJKSPI3JJ6VOUP2J2MFQJJQ&a=FWIP3&tp_a=FWIP3&b=3PIWWX1FJKSPI3JJ6VOUP2J2MFQJJQ&tp_b=3PIWWX1FJKSPI3JJ6VOUP2J2MFQJJQ&c=365633&tp_c=365633"},{"rt":14235,"response":{"heads":"2","tails":"2"},"type":"response","condition":"seqNoFeedback","trueTheta":0.5,"classrooms":["C","D"],"studentTrueClassroom":"D","exampleSet":"first","trial_type":"survey-html-form","trial_index":31,"time_elapsed":1070255,"internal_node_id":"0.0-6.0-0.0","params":{"nStudents":24,"maxFlips":25,"completionMinutes":45,"basePay":8,"maxBonus":9,"perTrialBonus":0.5,"perTrialBonusThreshold":0.05,"exampleCost":0.02},"classroomParams":{"A":{"a":1,"b":4},"B":{"a":4,"b":1},"C":{"a":2,"b":8},"D":{"a":8,"b":2}},"conditions":["nonSeqFull","nonSeqPartial","seqNoFeedback","seqFeedback"],"classroomPairings":[["A","B"],["C","D"]],"coinWeights":[0.2,0.5,0.8],"subjectId":"A2S64AUN7JI7ZS","assignmentId":"3PIWWX1FJKSPI3JJ6VOUP2J2MFQJJQ","hitId":"3QGHA0EA0JM3KKNCY0PQRLYAHLBWBE","url":"https://gershmanlab.com/experiments/alicia/teaching/experiment/?hitId=3QGHA0EA0JM3KKNCY0PQRLYAHLBWBE&workerId=A2S64AUN7JI7ZS&assignmentId=3PIWWX1FJKSPI3JJ6VOUP2J2MFQJJQ&a=FWIP3&tp_a=FWIP3&b=3PIWWX1FJKSPI3JJ6VOUP2J2MFQJJQ&tp_b=3PIWWX1FJKSPI3JJ6VOUP2J2MFQJJQ&c=365633&tp_c=365633","heads":2,"tails":2,"studentIndex":0,"studentTrueHypers":{"a":8,"b":2},"studentGuess":0.7142857142857143,"delta":0.2142857142857143,"totalExamples":4,"bonusSoFar":0},{"rt":null,"stimulus":"Sending examples to student... ","response":null,"trial_type":"html-keyboard-response","trial_index":32,"time_elapsed":1072268,"internal_node_id":"0.0-7.0","params":{"nStudents":24,"maxFlips":25,"completionMinutes":45,"basePay":8,"maxBonus":9,"perTrialBonus":0.5,"perTrialBonusThreshold":0.05,"exampleCost":0.02},"classroomParams":{"A":{"a":1,"b":4},"B":{"a":4,"b":1},"C":{"a":2,"b":8},"D":{"a":8,"b":2}},"conditions":["nonSeqFull","nonSeqPartial","seqNoFeedback","seqFeedback"],"classroomPairings":[["A","B"],["C","D"]],"coinWeights":[0.2,0.5,0.8],"subjectId":"A2S64AUN7JI7ZS","assignmentId":"3PIWWX1FJKSPI3JJ6VOUP2J2MFQJJQ","hitId":"3QGHA0EA0JM3KKNCY0PQRLYAHLBWBE","url":"https://gershmanlab.com/experiments/alicia/teaching/experiment/?hitId=3QGHA0EA0JM3KKNCY0PQRLYAHLBWBE&workerId=A2S64AUN7JI7ZS&assignmentId=3PIWWX1FJKSPI3JJ6VOUP2J2MFQJJQ&a=FWIP3&tp_a=FWIP3&b=3PIWWX1FJKSPI3JJ6VOUP2J2MFQJJQ&tp_b=3PIWWX1FJKSPI3JJ6VOUP2J2MFQJJQ&c=365633&tp_c=365633"},{"rt":null,"stimulus":"Examples sent to student! Waiting for student...","response":null,"trial_type":"html-keyboard-response","trial_index":33,"time_elapsed":1078274,"internal_node_id":"0.0-8.0","params":{"nStudents":24,"maxFlips":25,"completionMinutes":45,"basePay":8,"maxBonus":9,"perTrialBonus":0.5,"perTrialBonusThreshold":0.05,"exampleCost":0.02},"classroomParams":{"A":{"a":1,"b":4},"B":{"a":4,"b":1},"C":{"a":2,"b":8},"D":{"a":8,"b":2}},"conditions":["nonSeqFull","nonSeqPartial","seqNoFeedback","seqFeedback"],"classroomPairings":[["A","B"],["C","D"]],"coinWeights":[0.2,0.5,0.8],"subjectId":"A2S64AUN7JI7ZS","assignmentId":"3PIWWX1FJKSPI3JJ6VOUP2J2MFQJJQ","hitId":"3QGHA0EA0JM3KKNCY0PQRLYAHLBWBE","url":"https://gershmanlab.com/experiments/alicia/teaching/experiment/?hitId=3QGHA0EA0JM3KKNCY0PQRLYAHLBWBE&workerId=A2S64AUN7JI7ZS&assignmentId=3PIWWX1FJKSPI3JJ6VOUP2J2MFQJJQ&a=FWIP3&tp_a=FWIP3&b=3PIWWX1FJKSPI3JJ6VOUP2J2MFQJJQ&tp_b=3PIWWX1FJKSPI3JJ6VOUP2J2MFQJJQ&c=365633&tp_c=365633"},{"rt":11450,"response":{"heads":"3","tails":"3"},"type":"response","condition":"seqNoFeedback","trueTheta":0.5,"classrooms":["C","D"],"studentTrueClassroom":"D","exampleSet":"second","trial_type":"survey-html-form","trial_index":34,"time_elapsed":1089726,"internal_node_id":"0.0-9.0-0.0","params":{"nStudents":24,"maxFlips":25,"completionMinutes":45,"basePay":8,"maxBonus":9,"perTrialBonus":0.5,"perTrialBonusThreshold":0.05,"exampleCost":0.02},"classroomParams":{"A":{"a":1,"b":4},"B":{"a":4,"b":1},"C":{"a":2,"b":8},"D":{"a":8,"b":2}},"conditions":["nonSeqFull","nonSeqPartial","seqNoFeedback","seqFeedback"],"classroomPairings":[["A","B"],["C","D"]],"coinWeights":[0.2,0.5,0.8],"subjectId":"A2S64AUN7JI7ZS","assignmentId":"3PIWWX1FJKSPI3JJ6VOUP2J2MFQJJQ","hitId":"3QGHA0EA0JM3KKNCY0PQRLYAHLBWBE","url":"https://gershmanlab.com/experiments/alicia/teaching/experiment/?hitId=3QGHA0EA0JM3KKNCY0PQRLYAHLBWBE&workerId=A2S64AUN7JI7ZS&assignmentId=3PIWWX1FJKSPI3JJ6VOUP2J2MFQJJQ&a=FWIP3&tp_a=FWIP3&b=3PIWWX1FJKSPI3JJ6VOUP2J2MFQJJQ&tp_b=3PIWWX1FJKSPI3JJ6VOUP2J2MFQJJQ&c=365633&tp_c=365633","firstResponseHeads":2,"firstResponseTails":2,"secondResponseHeads":3,"secondResponseTails":3,"totalHeads":5,"totalTails":5,"studentIndex":0,"studentTrueHypers":{"a":8,"b":2},"studentGuess":0.65,"delta":0.15000000000000002,"bonus":0,"bonusSoFar":0,"totalExamples":10},{"rt":null,"stimulus":"Sending examples to student... ","response":null,"trial_type":"html-keyboard-response","trial_index":35,"time_elapsed":1091728,"internal_node_id":"0.0-10.0","params":{"nStudents":24,"maxFlips":25,"completionMinutes":45,"basePay":8,"maxBonus":9,"perTrialBonus":0.5,"perTrialBonusThreshold":0.05,"exampleCost":0.02},"classroomParams":{"A":{"a":1,"b":4},"B":{"a":4,"b":1},"C":{"a":2,"b":8},"D":{"a":8,"b":2}},"conditions":["nonSeqFull","nonSeqPartial","seqNoFeedback","seqFeedback"],"classroomPairings":[["A","B"],["C","D"]],"coinWeights":[0.2,0.5,0.8],"subjectId":"A2S64AUN7JI7ZS","assignmentId":"3PIWWX1FJKSPI3JJ6VOUP2J2MFQJJQ","hitId":"3QGHA0EA0JM3KKNCY0PQRLYAHLBWBE","url":"https://gershmanlab.com/experiments/alicia/teaching/experiment/?hitId=3QGHA0EA0JM3KKNCY0PQRLYAHLBWBE&workerId=A2S64AUN7JI7ZS&assignmentId=3PIWWX1FJKSPI3JJ6VOUP2J2MFQJJQ&a=FWIP3&tp_a=FWIP3&b=3PIWWX1FJKSPI3JJ6VOUP2J2MFQJJQ&tp_b=3PIWWX1FJKSPI3JJ6VOUP2J2MFQJJQ&c=365633&tp_c=365633"},{"rt":null,"stimulus":"Examples sent to student! Waiting for student...","response":null,"trial_type":"html-keyboard-response","trial_index":36,"time_elapsed":1095732,"internal_node_id":"0.0-11.0","params":{"nStudents":24,"maxFlips":25,"completionMinutes":45,"basePay":8,"maxBonus":9,"perTrialBonus":0.5,"perTrialBonusThreshold":0.05,"exampleCost":0.02},"classroomParams":{"A":{"a":1,"b":4},"B":{"a":4,"b":1},"C":{"a":2,"b":8},"D":{"a":8,"b":2}},"conditions":["nonSeqFull","nonSeqPartial","seqNoFeedback","seqFeedback"],"classroomPairings":[["A","B"],["C","D"]],"coinWeights":[0.2,0.5,0.8],"subjectId":"A2S64AUN7JI7ZS","assignmentId":"3PIWWX1FJKSPI3JJ6VOUP2J2MFQJJQ","hitId":"3QGHA0EA0JM3KKNCY0PQRLYAHLBWBE","url":"https://gershmanlab.com/experiments/alicia/teaching/experiment/?hitId=3QGHA0EA0JM3KKNCY0PQRLYAHLBWBE&workerId=A2S64AUN7JI7ZS&assignmentId=3PIWWX1FJKSPI3JJ6VOUP2J2MFQJJQ&a=FWIP3&tp_a=FWIP3&b=3PIWWX1FJKSPI3JJ6VOUP2J2MFQJJQ&tp_b=3PIWWX1FJKSPI3JJ6VOUP2J2MFQJJQ&c=365633&tp_c=365633"},{"rt":4417,"stimulus":"\n                <p>Student 1's first guess for coin weight: <b style=\"color:Tomato\";>0.71</b></p>\n                <p>Student 1's second guess for coin weight: <b style=\"color:Tomato\";>0.65</b></p>\n                <p>You received a bonus of <b>$0.00</b> based on the student's second guess.</p>\n                <p>Total bonus so far: <b>$0.00</b></p>\n                <p>Press any key to continue.</p>\n                ","response":"enter","trial_type":"html-keyboard-response","trial_index":37,"time_elapsed":1100151,"internal_node_id":"0.0-12.0","params":{"nStudents":24,"maxFlips":25,"completionMinutes":45,"basePay":8,"maxBonus":9,"perTrialBonus":0.5,"perTrialBonusThreshold":0.05,"exampleCost":0.02},"classroomParams":{"A":{"a":1,"b":4},"B":{"a":4,"b":1},"C":{"a":2,"b":8},"D":{"a":8,"b":2}},"conditions":["nonSeqFull","nonSeqPartial","seqNoFeedback","seqFeedback"],"classroomPairings":[["A","B"],["C","D"]],"coinWeights":[0.2,0.5,0.8],"subjectId":"A2S64AUN7JI7ZS","assignmentId":"3PIWWX1FJKSPI3JJ6VOUP2J2MFQJJQ","hitId":"3QGHA0EA0JM3KKNCY0PQRLYAHLBWBE","url":"https://gershmanlab.com/experiments/alicia/teaching/experiment/?hitId=3QGHA0EA0JM3KKNCY0PQRLYAHLBWBE&workerId=A2S64AUN7JI7ZS&assignmentId=3PIWWX1FJKSPI3JJ6VOUP2J2MFQJJQ&a=FWIP3&tp_a=FWIP3&b=3PIWWX1FJKSPI3JJ6VOUP2J2MFQJJQ&tp_b=3PIWWX1FJKSPI3JJ6VOUP2J2MFQJJQ&c=365633&tp_c=365633"},{"rt":null,"stimulus":"<div style=\"font-size:60px;\">Next student</div>","response":null,"trial_type":"html-keyboard-response","trial_index":38,"time_elapsed":1102653,"internal_node_id":"0.0-13.0-0.0","params":{"nStudents":24,"maxFlips":25,"completionMinutes":45,"basePay":8,"maxBonus":9,"perTrialBonus":0.5,"perTrialBonusThreshold":0.05,"exampleCost":0.02},"classroomParams":{"A":{"a":1,"b":4},"B":{"a":4,"b":1},"C":{"a":2,"b":8},"D":{"a":8,"b":2}},"conditions":["nonSeqFull","nonSeqPartial","seqNoFeedback","seqFeedback"],"classroomPairings":[["A","B"],["C","D"]],"coinWeights":[0.2,0.5,0.8],"subjectId":"A2S64AUN7JI7ZS","assignmentId":"3PIWWX1FJKSPI3JJ6VOUP2J2MFQJJQ","hitId":"3QGHA0EA0JM3KKNCY0PQRLYAHLBWBE","url":"https://gershmanlab.com/experiments/alicia/teaching/experiment/?hitId=3QGHA0EA0JM3KKNCY0PQRLYAHLBWBE&workerId=A2S64AUN7JI7ZS&assignmentId=3PIWWX1FJKSPI3JJ6VOUP2J2MFQJJQ&a=FWIP3&tp_a=FWIP3&b=3PIWWX1FJKSPI3JJ6VOUP2J2MFQJJQ&tp_b=3PIWWX1FJKSPI3JJ6VOUP2J2MFQJJQ&c=365633&tp_c=365633"},{"rt":2693,"stimulus":"\n            <h4 style=\"color:Orange;\">Student 2</h4>\n            <h2>The weight of your coin is <b style=\"color:Tomato;\">0.5</b>.</h2>\n            <p>In this block, you will be giving <b>two</b> sets of examples to Student 2.</p>\n                <p>You will see the student's guess after the first set of examples. You will also receive feedback at the end of the block.</p>\n            <p>To earn the highest bonus, you will have to <b>take into consideration the student's guess</b> when you choose your second set of examples.</p>","response":0,"trial_type":"html-button-response","trial_index":39,"time_elapsed":1105347,"internal_node_id":"0.0-14.0","params":{"nStudents":24,"maxFlips":25,"completionMinutes":45,"basePay":8,"maxBonus":9,"perTrialBonus":0.5,"perTrialBonusThreshold":0.05,"exampleCost":0.02},"classroomParams":{"A":{"a":1,"b":4},"B":{"a":4,"b":1},"C":{"a":2,"b":8},"D":{"a":8,"b":2}},"conditions":["nonSeqFull","nonSeqPartial","seqNoFeedback","seqFeedback"],"classroomPairings":[["A","B"],["C","D"]],"coinWeights":[0.2,0.5,0.8],"subjectId":"A2S64AUN7JI7ZS","assignmentId":"3PIWWX1FJKSPI3JJ6VOUP2J2MFQJJQ","hitId":"3QGHA0EA0JM3KKNCY0PQRLYAHLBWBE","url":"https://gershmanlab.com/experiments/alicia/teaching/experiment/?hitId=3QGHA0EA0JM3KKNCY0PQRLYAHLBWBE&workerId=A2S64AUN7JI7ZS&assignmentId=3PIWWX1FJKSPI3JJ6VOUP2J2MFQJJQ&a=FWIP3&tp_a=FWIP3&b=3PIWWX1FJKSPI3JJ6VOUP2J2MFQJJQ&tp_b=3PIWWX1FJKSPI3JJ6VOUP2J2MFQJJQ&c=365633&tp_c=365633"},{"rt":6727,"response":{"heads":"2","tails":"2"},"type":"response","condition":"seqFeedback","trueTheta":0.5,"classrooms":["A","B"],"studentTrueClassroom":"B","exampleSet":"first","trial_type":"survey-html-form","trial_index":40,"time_elapsed":1112076,"internal_node_id":"0.0-15.0-0.0","params":{"nStudents":24,"maxFlips":25,"completionMinutes":45,"basePay":8,"maxBonus":9,"perTrialBonus":0.5,"perTrialBonusThreshold":0.05,"exampleCost":0.02},"classroomParams":{"A":{"a":1,"b":4},"B":{"a":4,"b":1},"C":{"a":2,"b":8},"D":{"a":8,"b":2}},"conditions":["nonSeqFull","nonSeqPartial","seqNoFeedback","seqFeedback"],"classroomPairings":[["A","B"],["C","D"]],"coinWeights":[0.2,0.5,0.8],"subjectId":"A2S64AUN7JI7ZS","assignmentId":"3PIWWX1FJKSPI3JJ6VOUP2J2MFQJJQ","hitId":"3QGHA0EA0JM3KKNCY0PQRLYAHLBWBE","url":"https://gershmanlab.com/experiments/alicia/teaching/experiment/?hitId=3QGHA0EA0JM3KKNCY0PQRLYAHLBWBE&workerId=A2S64AUN7JI7ZS&assignmentId=3PIWWX1FJKSPI3JJ6VOUP2J2MFQJJQ&a=FWIP3&tp_a=FWIP3&b=3PIWWX1FJKSPI3JJ6VOUP2J2MFQJJQ&tp_b=3PIWWX1FJKSPI3JJ6VOUP2J2MFQJJQ&c=365633&tp_c=365633","heads":2,"tails":2,"studentIndex":1,"studentTrueHypers":{"a":4,"b":1},"studentGuess":0.6666666666666666,"delta":0.16666666666666663,"totalExamples":4,"bonusSoFar":0},{"rt":null,"stimulus":"Sending examples to student... ","response":null,"trial_type":"html-keyboard-response","trial_index":41,"time_elapsed":1114077,"internal_node_id":"0.0-16.0","params":{"nStudents":24,"maxFlips":25,"completionMinutes":45,"basePay":8,"maxBonus":9,"perTrialBonus":0.5,"perTrialBonusThreshold":0.05,"exampleCost":0.02},"classroomParams":{"A":{"a":1,"b":4},"B":{"a":4,"b":1},"C":{"a":2,"b":8},"D":{"a":8,"b":2}},"conditions":["nonSeqFull","nonSeqPartial","seqNoFeedback","seqFeedback"],"classroomPairings":[["A","B"],["C","D"]],"coinWeights":[0.2,0.5,0.8],"subjectId":"A2S64AUN7JI7ZS","assignmentId":"3PIWWX1FJKSPI3JJ6VOUP2J2MFQJJQ","hitId":"3QGHA0EA0JM3KKNCY0PQRLYAHLBWBE","url":"https://gershmanlab.com/experiments/alicia/teaching/experiment/?hitId=3QGHA0EA0JM3KKNCY0PQRLYAHLBWBE&workerId=A2S64AUN7JI7ZS&assignmentId=3PIWWX1FJKSPI3JJ6VOUP2J2MFQJJQ&a=FWIP3&tp_a=FWIP3&b=3PIWWX1FJKSPI3JJ6VOUP2J2MFQJJQ&tp_b=3PIWWX1FJKSPI3JJ6VOUP2J2MFQJJQ&c=365633&tp_c=365633"},{"rt":null,"stimulus":"Examples sent to student! Waiting for student...","response":null,"trial_type":"html-keyboard-response","trial_index":42,"time_elapsed":1119578,"internal_node_id":"0.0-17.0","params":{"nStudents":24,"maxFlips":25,"completionMinutes":45,"basePay":8,"maxBonus":9,"perTrialBonus":0.5,"perTrialBonusThreshold":0.05,"exampleCost":0.02},"classroomParams":{"A":{"a":1,"b":4},"B":{"a":4,"b":1},"C":{"a":2,"b":8},"D":{"a":8,"b":2}},"conditions":["nonSeqFull","nonSeqPartial","seqNoFeedback","seqFeedback"],"classroomPairings":[["A","B"],["C","D"]],"coinWeights":[0.2,0.5,0.8],"subjectId":"A2S64AUN7JI7ZS","assignmentId":"3PIWWX1FJKSPI3JJ6VOUP2J2MFQJJQ","hitId":"3QGHA0EA0JM3KKNCY0PQRLYAHLBWBE","url":"https://gershmanlab.com/experiments/alicia/teaching/experiment/?hitId=3QGHA0EA0JM3KKNCY0PQRLYAHLBWBE&workerId=A2S64AUN7JI7ZS&assignmentId=3PIWWX1FJKSPI3JJ6VOUP2J2MFQJJQ&a=FWIP3&tp_a=FWIP3&b=3PIWWX1FJKSPI3JJ6VOUP2J2MFQJJQ&tp_b=3PIWWX1FJKSPI3JJ6VOUP2J2MFQJJQ&c=365633&tp_c=365633"},{"rt":1826,"stimulus":"\n                <p>Student's guess for coin weight: <b style=\"color:Tomato;\">0.67</b></p>\n                <p></b></p>\n                <p>You will now send another set of examples to your student. <b>Remember to take your student's guess into consideration so that you can earn the highest bonus possible!</b> </p>\n                <p>Press any key to continue.</p>\n                ","response":" ","trial_type":"html-keyboard-response","trial_index":43,"time_elapsed":1121406,"internal_node_id":"0.0-18.0","params":{"nStudents":24,"maxFlips":25,"completionMinutes":45,"basePay":8,"maxBonus":9,"perTrialBonus":0.5,"perTrialBonusThreshold":0.05,"exampleCost":0.02},"classroomParams":{"A":{"a":1,"b":4},"B":{"a":4,"b":1},"C":{"a":2,"b":8},"D":{"a":8,"b":2}},"conditions":["nonSeqFull","nonSeqPartial","seqNoFeedback","seqFeedback"],"classroomPairings":[["A","B"],["C","D"]],"coinWeights":[0.2,0.5,0.8],"subjectId":"A2S64AUN7JI7ZS","assignmentId":"3PIWWX1FJKSPI3JJ6VOUP2J2MFQJJQ","hitId":"3QGHA0EA0JM3KKNCY0PQRLYAHLBWBE","url":"https://gershmanlab.com/experiments/alicia/teaching/experiment/?hitId=3QGHA0EA0JM3KKNCY0PQRLYAHLBWBE&workerId=A2S64AUN7JI7ZS&assignmentId=3PIWWX1FJKSPI3JJ6VOUP2J2MFQJJQ&a=FWIP3&tp_a=FWIP3&b=3PIWWX1FJKSPI3JJ6VOUP2J2MFQJJQ&tp_b=3PIWWX1FJKSPI3JJ6VOUP2J2MFQJJQ&c=365633&tp_c=365633"},{"rt":9314,"response":{"heads":"1","tails":"1"},"type":"response","condition":"seqFeedback","trueTheta":0.5,"classrooms":["A","B"],"studentTrueClassroom":"B","exampleSet":"second","trial_type":"survey-html-form","trial_index":44,"time_elapsed":1130721,"internal_node_id":"0.0-19.0-0.0","params":{"nStudents":24,"maxFlips":25,"completionMinutes":45,"basePay":8,"maxBonus":9,"perTrialBonus":0.5,"perTrialBonusThreshold":0.05,"exampleCost":0.02},"classroomParams":{"A":{"a":1,"b":4},"B":{"a":4,"b":1},"C":{"a":2,"b":8},"D":{"a":8,"b":2}},"conditions":["nonSeqFull","nonSeqPartial","seqNoFeedback","seqFeedback"],"classroomPairings":[["A","B"],["C","D"]],"coinWeights":[0.2,0.5,0.8],"subjectId":"A2S64AUN7JI7ZS","assignmentId":"3PIWWX1FJKSPI3JJ6VOUP2J2MFQJJQ","hitId":"3QGHA0EA0JM3KKNCY0PQRLYAHLBWBE","url":"https://gershmanlab.com/experiments/alicia/teaching/experiment/?hitId=3QGHA0EA0JM3KKNCY0PQRLYAHLBWBE&workerId=A2S64AUN7JI7ZS&assignmentId=3PIWWX1FJKSPI3JJ6VOUP2J2MFQJJQ&a=FWIP3&tp_a=FWIP3&b=3PIWWX1FJKSPI3JJ6VOUP2J2MFQJJQ&tp_b=3PIWWX1FJKSPI3JJ6VOUP2J2MFQJJQ&c=365633&tp_c=365633","firstResponseHeads":2,"firstResponseTails":2,"secondResponseHeads":1,"secondResponseTails":1,"totalHeads":3,"totalTails":3,"studentIndex":1,"studentTrueHypers":{"a":4,"b":1},"studentGuess":0.6363636363636364,"delta":0.13636363636363635,"bonus":0,"bonusSoFar":0,"totalExamples":6},{"rt":null,"stimulus":"Sending examples to student... ","response":null,"trial_type":"html-keyboard-response","trial_index":45,"time_elapsed":1132723,"internal_node_id":"0.0-20.0","params":{"nStudents":24,"maxFlips":25,"completionMinutes":45,"basePay":8,"maxBonus":9,"perTrialBonus":0.5,"perTrialBonusThreshold":0.05,"exampleCost":0.02},"classroomParams":{"A":{"a":1,"b":4},"B":{"a":4,"b":1},"C":{"a":2,"b":8},"D":{"a":8,"b":2}},"conditions":["nonSeqFull","nonSeqPartial","seqNoFeedback","seqFeedback"],"classroomPairings":[["A","B"],["C","D"]],"coinWeights":[0.2,0.5,0.8],"subjectId":"A2S64AUN7JI7ZS","assignmentId":"3PIWWX1FJKSPI3JJ6VOUP2J2MFQJJQ","hitId":"3QGHA0EA0JM3KKNCY0PQRLYAHLBWBE","url":"https://gershmanlab.com/experiments/alicia/teaching/experiment/?hitId=3QGHA0EA0JM3KKNCY0PQRLYAHLBWBE&workerId=A2S64AUN7JI7ZS&assignmentId=3PIWWX1FJKSPI3JJ6VOUP2J2MFQJJQ&a=FWIP3&tp_a=FWIP3&b=3PIWWX1FJKSPI3JJ6VOUP2J2MFQJJQ&tp_b=3PIWWX1FJKSPI3JJ6VOUP2J2MFQJJQ&c=365633&tp_c=365633"},{"rt":null,"stimulus":"Examples sent to student! Waiting for student...","response":null,"trial_type":"html-keyboard-response","trial_index":46,"time_elapsed":1137229,"internal_node_id":"0.0-21.0","params":{"nStudents":24,"maxFlips":25,"completionMinutes":45,"basePay":8,"maxBonus":9,"perTrialBonus":0.5,"perTrialBonusThreshold":0.05,"exampleCost":0.02},"classroomParams":{"A":{"a":1,"b":4},"B":{"a":4,"b":1},"C":{"a":2,"b":8},"D":{"a":8,"b":2}},"conditions":["nonSeqFull","nonSeqPartial","seqNoFeedback","seqFeedback"],"classroomPairings":[["A","B"],["C","D"]],"coinWeights":[0.2,0.5,0.8],"subjectId":"A2S64AUN7JI7ZS","assignmentId":"3PIWWX1FJKSPI3JJ6VOUP2J2MFQJJQ","hitId":"3QGHA0EA0JM3KKNCY0PQRLYAHLBWBE","url":"https://gershmanlab.com/experiments/alicia/teaching/experiment/?hitId=3QGHA0EA0JM3KKNCY0PQRLYAHLBWBE&workerId=A2S64AUN7JI7ZS&assignmentId=3PIWWX1FJKSPI3JJ6VOUP2J2MFQJJQ&a=FWIP3&tp_a=FWIP3&b=3PIWWX1FJKSPI3JJ6VOUP2J2MFQJJQ&tp_b=3PIWWX1FJKSPI3JJ6VOUP2J2MFQJJQ&c=365633&tp_c=365633"},{"rt":1846,"stimulus":"\n                <p>Student 2's first guess for coin weight: <b style=\"color:Tomato\";>0.67</b></p>\n                <p>Student 2's second guess for coin weight: <b style=\"color:Tomato\";>0.64</b></p>\n                <p>You received a bonus of <b>$0.00</b> based on the student's second guess.</p>\n                <p>Total bonus so far: <b>$0.00</b></p>\n                <p>Press any key to continue.</p>\n                ","response":"arrowup","trial_type":"html-keyboard-response","trial_index":47,"time_elapsed":1139076,"internal_node_id":"0.0-22.0","params":{"nStudents":24,"maxFlips":25,"completionMinutes":45,"basePay":8,"maxBonus":9,"perTrialBonus":0.5,"perTrialBonusThreshold":0.05,"exampleCost":0.02},"classroomParams":{"A":{"a":1,"b":4},"B":{"a":4,"b":1},"C":{"a":2,"b":8},"D":{"a":8,"b":2}},"conditions":["nonSeqFull","nonSeqPartial","seqNoFeedback","seqFeedback"],"classroomPairings":[["A","B"],["C","D"]],"coinWeights":[0.2,0.5,0.8],"subjectId":"A2S64AUN7JI7ZS","assignmentId":"3PIWWX1FJKSPI3JJ6VOUP2J2MFQJJQ","hitId":"3QGHA0EA0JM3KKNCY0PQRLYAHLBWBE","url":"https://gershmanlab.com/experiments/alicia/teaching/experiment/?hitId=3QGHA0EA0JM3KKNCY0PQRLYAHLBWBE&workerId=A2S64AUN7JI7ZS&assignmentId=3PIWWX1FJKSPI3JJ6VOUP2J2MFQJJQ&a=FWIP3&tp_a=FWIP3&b=3PIWWX1FJKSPI3JJ6VOUP2J2MFQJJQ&tp_b=3PIWWX1FJKSPI3JJ6VOUP2J2MFQJJQ&c=365633&tp_c=365633"},{"rt":null,"stimulus":"<div style=\"font-size:60px;\">Next student</div>","response":null,"trial_type":"html-keyboard-response","trial_index":48,"time_elapsed":1141327,"internal_node_id":"0.0-23.0-0.0","params":{"nStudents":24,"maxFlips":25,"completionMinutes":45,"basePay":8,"maxBonus":9,"perTrialBonus":0.5,"perTrialBonusThreshold":0.05,"exampleCost":0.02},"classroomParams":{"A":{"a":1,"b":4},"B":{"a":4,"b":1},"C":{"a":2,"b":8},"D":{"a":8,"b":2}},"conditions":["nonSeqFull","nonSeqPartial","seqNoFeedback","seqFeedback"],"classroomPairings":[["A","B"],["C","D"]],"coinWeights":[0.2,0.5,0.8],"subjectId":"A2S64AUN7JI7ZS","assignmentId":"3PIWWX1FJKSPI3JJ6VOUP2J2MFQJJQ","hitId":"3QGHA0EA0JM3KKNCY0PQRLYAHLBWBE","url":"https://gershmanlab.com/experiments/alicia/teaching/experiment/?hitId=3QGHA0EA0JM3KKNCY0PQRLYAHLBWBE&workerId=A2S64AUN7JI7ZS&assignmentId=3PIWWX1FJKSPI3JJ6VOUP2J2MFQJJQ&a=FWIP3&tp_a=FWIP3&b=3PIWWX1FJKSPI3JJ6VOUP2J2MFQJJQ&tp_b=3PIWWX1FJKSPI3JJ6VOUP2J2MFQJJQ&c=365633&tp_c=365633"},{"rt":1467,"stimulus":"\n            <h4 style=\"color:Orange;\">Student 3</h4>\n            <h2>The weight of your coin is <b style=\"color:Tomato;\">0.8</b>.</h2>\n            <p>In this block, you will be giving <b>one</b> set of examples to Student 3.</p>\n                <p>You will receive feedback at the end of the block.</p>\n            <p></p>","response":0,"trial_type":"html-button-response","trial_index":49,"time_elapsed":1142795,"internal_node_id":"0.0-24.0","params":{"nStudents":24,"maxFlips":25,"completionMinutes":45,"basePay":8,"maxBonus":9,"perTrialBonus":0.5,"perTrialBonusThreshold":0.05,"exampleCost":0.02},"classroomParams":{"A":{"a":1,"b":4},"B":{"a":4,"b":1},"C":{"a":2,"b":8},"D":{"a":8,"b":2}},"conditions":["nonSeqFull","nonSeqPartial","seqNoFeedback","seqFeedback"],"classroomPairings":[["A","B"],["C","D"]],"coinWeights":[0.2,0.5,0.8],"subjectId":"A2S64AUN7JI7ZS","assignmentId":"3PIWWX1FJKSPI3JJ6VOUP2J2MFQJJQ","hitId":"3QGHA0EA0JM3KKNCY0PQRLYAHLBWBE","url":"https://gershmanlab.com/experiments/alicia/teaching/experiment/?hitId=3QGHA0EA0JM3KKNCY0PQRLYAHLBWBE&workerId=A2S64AUN7JI7ZS&assignmentId=3PIWWX1FJKSPI3JJ6VOUP2J2MFQJJQ&a=FWIP3&tp_a=FWIP3&b=3PIWWX1FJKSPI3JJ6VOUP2J2MFQJJQ&tp_b=3PIWWX1FJKSPI3JJ6VOUP2J2MFQJJQ&c=365633&tp_c=365633"},{"rt":10634,"response":{"heads":"4","tails":"1"},"type":"response","condition":"nonSeqPartial","trueTheta":0.8,"classrooms":["A","B"],"studentTrueClassroom":"B","exampleSet":"first","trial_type":"survey-html-form","trial_index":50,"time_elapsed":1153431,"internal_node_id":"0.0-25.0-0.0","params":{"nStudents":24,"maxFlips":25,"completionMinutes":45,"basePay":8,"maxBonus":9,"perTrialBonus":0.5,"perTrialBonusThreshold":0.05,"exampleCost":0.02},"classroomParams":{"A":{"a":1,"b":4},"B":{"a":4,"b":1},"C":{"a":2,"b":8},"D":{"a":8,"b":2}},"conditions":["nonSeqFull","nonSeqPartial","seqNoFeedback","seqFeedback"],"classroomPairings":[["A","B"],["C","D"]],"coinWeights":[0.2,0.5,0.8],"subjectId":"A2S64AUN7JI7ZS","assignmentId":"3PIWWX1FJKSPI3JJ6VOUP2J2MFQJJQ","hitId":"3QGHA0EA0JM3KKNCY0PQRLYAHLBWBE","url":"https://gershmanlab.com/experiments/alicia/teaching/experiment/?hitId=3QGHA0EA0JM3KKNCY0PQRLYAHLBWBE&workerId=A2S64AUN7JI7ZS&assignmentId=3PIWWX1FJKSPI3JJ6VOUP2J2MFQJJQ&a=FWIP3&tp_a=FWIP3&b=3PIWWX1FJKSPI3JJ6VOUP2J2MFQJJQ&tp_b=3PIWWX1FJKSPI3JJ6VOUP2J2MFQJJQ&c=365633&tp_c=365633","heads":4,"tails":1,"studentIndex":2,"studentTrueHypers":{"a":4,"b":1},"studentGuess":0.8,"delta":0,"totalExamples":5,"bonus":0.4,"bonusSoFar":0.4},{"rt":null,"stimulus":"Sending examples to student... ","response":null,"trial_type":"html-keyboard-response","trial_index":51,"time_elapsed":1154682,"internal_node_id":"0.0-26.0","params":{"nStudents":24,"maxFlips":25,"completionMinutes":45,"basePay":8,"maxBonus":9,"perTrialBonus":0.5,"perTrialBonusThreshold":0.05,"exampleCost":0.02},"classroomParams":{"A":{"a":1,"b":4},"B":{"a":4,"b":1},"C":{"a":2,"b":8},"D":{"a":8,"b":2}},"conditions":["nonSeqFull","nonSeqPartial","seqNoFeedback","seqFeedback"],"classroomPairings":[["A","B"],["C","D"]],"coinWeights":[0.2,0.5,0.8],"subjectId":"A2S64AUN7JI7ZS","assignmentId":"3PIWWX1FJKSPI3JJ6VOUP2J2MFQJJQ","hitId":"3QGHA0EA0JM3KKNCY0PQRLYAHLBWBE","url":"https://gershmanlab.com/experiments/alicia/teaching/experiment/?hitId=3QGHA0EA0JM3KKNCY0PQRLYAHLBWBE&workerId=A2S64AUN7JI7ZS&assignmentId=3PIWWX1FJKSPI3JJ6VOUP2J2MFQJJQ&a=FWIP3&tp_a=FWIP3&b=3PIWWX1FJKSPI3JJ6VOUP2J2MFQJJQ&tp_b=3PIWWX1FJKSPI3JJ6VOUP2J2MFQJJQ&c=365633&tp_c=365633"},{"rt":null,"stimulus":"Examples sent to student! Waiting for student...","response":null,"trial_type":"html-keyboard-response","trial_index":52,"time_elapsed":1159185,"internal_node_id":"0.0-27.0","params":{"nStudents":24,"maxFlips":25,"completionMinutes":45,"basePay":8,"maxBonus":9,"perTrialBonus":0.5,"perTrialBonusThreshold":0.05,"exampleCost":0.02},"classroomParams":{"A":{"a":1,"b":4},"B":{"a":4,"b":1},"C":{"a":2,"b":8},"D":{"a":8,"b":2}},"conditions":["nonSeqFull","nonSeqPartial","seqNoFeedback","seqFeedback"],"classroomPairings":[["A","B"],["C","D"]],"coinWeights":[0.2,0.5,0.8],"subjectId":"A2S64AUN7JI7ZS","assignmentId":"3PIWWX1FJKSPI3JJ6VOUP2J2MFQJJQ","hitId":"3QGHA0EA0JM3KKNCY0PQRLYAHLBWBE","url":"https://gershmanlab.com/experiments/alicia/teaching/experiment/?hitId=3QGHA0EA0JM3KKNCY0PQRLYAHLBWBE&workerId=A2S64AUN7JI7ZS&assignmentId=3PIWWX1FJKSPI3JJ6VOUP2J2MFQJJQ&a=FWIP3&tp_a=FWIP3&b=3PIWWX1FJKSPI3JJ6VOUP2J2MFQJJQ&tp_b=3PIWWX1FJKSPI3JJ6VOUP2J2MFQJJQ&c=365633&tp_c=365633"},{"rt":2134,"stimulus":"\n                <p>Student's guess for coin weight: <b style=\"color:Tomato;\">0.80</b></p>\n                <p>You received a bonus of <b>$0.4</b>. Total bonus so far: <b>$0.40</b></b></p>\n                <p></p>\n                <p>Press any key to continue.</p>\n                ","response":" ","trial_type":"html-keyboard-response","trial_index":53,"time_elapsed":1161321,"internal_node_id":"0.0-28.0","params":{"nStudents":24,"maxFlips":25,"completionMinutes":45,"basePay":8,"maxBonus":9,"perTrialBonus":0.5,"perTrialBonusThreshold":0.05,"exampleCost":0.02},"classroomParams":{"A":{"a":1,"b":4},"B":{"a":4,"b":1},"C":{"a":2,"b":8},"D":{"a":8,"b":2}},"conditions":["nonSeqFull","nonSeqPartial","seqNoFeedback","seqFeedback"],"classroomPairings":[["A","B"],["C","D"]],"coinWeights":[0.2,0.5,0.8],"subjectId":"A2S64AUN7JI7ZS","assignmentId":"3PIWWX1FJKSPI3JJ6VOUP2J2MFQJJQ","hitId":"3QGHA0EA0JM3KKNCY0PQRLYAHLBWBE","url":"https://gershmanlab.com/experiments/alicia/teaching/experiment/?hitId=3QGHA0EA0JM3KKNCY0PQRLYAHLBWBE&workerId=A2S64AUN7JI7ZS&assignmentId=3PIWWX1FJKSPI3JJ6VOUP2J2MFQJJQ&a=FWIP3&tp_a=FWIP3&b=3PIWWX1FJKSPI3JJ6VOUP2J2MFQJJQ&tp_b=3PIWWX1FJKSPI3JJ6VOUP2J2MFQJJQ&c=365633&tp_c=365633"},{"rt":null,"stimulus":"<div style=\"font-size:60px;\">Next student</div>","response":null,"trial_type":"html-keyboard-response","trial_index":54,"time_elapsed":1163325,"internal_node_id":"0.0-29.0-0.0","params":{"nStudents":24,"maxFlips":25,"completionMinutes":45,"basePay":8,"maxBonus":9,"perTrialBonus":0.5,"perTrialBonusThreshold":0.05,"exampleCost":0.02},"classroomParams":{"A":{"a":1,"b":4},"B":{"a":4,"b":1},"C":{"a":2,"b":8},"D":{"a":8,"b":2}},"conditions":["nonSeqFull","nonSeqPartial","seqNoFeedback","seqFeedback"],"classroomPairings":[["A","B"],["C","D"]],"coinWeights":[0.2,0.5,0.8],"subjectId":"A2S64AUN7JI7ZS","assignmentId":"3PIWWX1FJKSPI3JJ6VOUP2J2MFQJJQ","hitId":"3QGHA0EA0JM3KKNCY0PQRLYAHLBWBE","url":"https://gershmanlab.com/experiments/alicia/teaching/experiment/?hitId=3QGHA0EA0JM3KKNCY0PQRLYAHLBWBE&workerId=A2S64AUN7JI7ZS&assignmentId=3PIWWX1FJKSPI3JJ6VOUP2J2MFQJJQ&a=FWIP3&tp_a=FWIP3&b=3PIWWX1FJKSPI3JJ6VOUP2J2MFQJJQ&tp_b=3PIWWX1FJKSPI3JJ6VOUP2J2MFQJJQ&c=365633&tp_c=365633"},{"rt":2554,"stimulus":"\n            <h4 style=\"color:Orange;\">Student 4</h4>\n            <h2>The weight of your coin is <b style=\"color:Tomato;\">0.8</b>.</h2>\n            <p>In this block, you will be giving <b>two</b> sets of examples to Student 4.</p>\n                <p>You will see the student's guess after the first set of examples. You will also receive feedback at the end of the block.</p>\n            <p>To earn the highest bonus, you will have to <b>take into consideration the student's guess</b> when you choose your second set of examples.</p>","response":0,"trial_type":"html-button-response","trial_index":55,"time_elapsed":1165880,"internal_node_id":"0.0-30.0","params":{"nStudents":24,"maxFlips":25,"completionMinutes":45,"basePay":8,"maxBonus":9,"perTrialBonus":0.5,"perTrialBonusThreshold":0.05,"exampleCost":0.02},"classroomParams":{"A":{"a":1,"b":4},"B":{"a":4,"b":1},"C":{"a":2,"b":8},"D":{"a":8,"b":2}},"conditions":["nonSeqFull","nonSeqPartial","seqNoFeedback","seqFeedback"],"classroomPairings":[["A","B"],["C","D"]],"coinWeights":[0.2,0.5,0.8],"subjectId":"A2S64AUN7JI7ZS","assignmentId":"3PIWWX1FJKSPI3JJ6VOUP2J2MFQJJQ","hitId":"3QGHA0EA0JM3KKNCY0PQRLYAHLBWBE","url":"https://gershmanlab.com/experiments/alicia/teaching/experiment/?hitId=3QGHA0EA0JM3KKNCY0PQRLYAHLBWBE&workerId=A2S64AUN7JI7ZS&assignmentId=3PIWWX1FJKSPI3JJ6VOUP2J2MFQJJQ&a=FWIP3&tp_a=FWIP3&b=3PIWWX1FJKSPI3JJ6VOUP2J2MFQJJQ&tp_b=3PIWWX1FJKSPI3JJ6VOUP2J2MFQJJQ&c=365633&tp_c=365633"},{"rt":3029,"response":{"heads":"4","tails":"1"},"type":"response","condition":"seqFeedback","trueTheta":0.8,"classrooms":["A","B"],"studentTrueClassroom":"B","exampleSet":"first","trial_type":"survey-html-form","trial_index":56,"time_elapsed":1168911,"internal_node_id":"0.0-31.0-0.0","params":{"nStudents":24,"maxFlips":25,"completionMinutes":45,"basePay":8,"maxBonus":9,"perTrialBonus":0.5,"perTrialBonusThreshold":0.05,"exampleCost":0.02},"classroomParams":{"A":{"a":1,"b":4},"B":{"a":4,"b":1},"C":{"a":2,"b":8},"D":{"a":8,"b":2}},"conditions":["nonSeqFull","nonSeqPartial","seqNoFeedback","seqFeedback"],"classroomPairings":[["A","B"],["C","D"]],"coinWeights":[0.2,0.5,0.8],"subjectId":"A2S64AUN7JI7ZS","assignmentId":"3PIWWX1FJKSPI3JJ6VOUP2J2MFQJJQ","hitId":"3QGHA0EA0JM3KKNCY0PQRLYAHLBWBE","url":"https://gershmanlab.com/experiments/alicia/teaching/experiment/?hitId=3QGHA0EA0JM3KKNCY0PQRLYAHLBWBE&workerId=A2S64AUN7JI7ZS&assignmentId=3PIWWX1FJKSPI3JJ6VOUP2J2MFQJJQ&a=FWIP3&tp_a=FWIP3&b=3PIWWX1FJKSPI3JJ6VOUP2J2MFQJJQ&tp_b=3PIWWX1FJKSPI3JJ6VOUP2J2MFQJJQ&c=365633&tp_c=365633","heads":4,"tails":1,"studentIndex":3,"studentTrueHypers":{"a":4,"b":1},"studentGuess":0.8,"delta":0,"totalExamples":5,"bonusSoFar":0.4},{"rt":null,"stimulus":"Sending examples to student... ","response":null,"trial_type":"html-keyboard-response","trial_index":57,"time_elapsed":1170413,"internal_node_id":"0.0-32.0","params":{"nStudents":24,"maxFlips":25,"completionMinutes":45,"basePay":8,"maxBonus":9,"perTrialBonus":0.5,"perTrialBonusThreshold":0.05,"exampleCost":0.02},"classroomParams":{"A":{"a":1,"b":4},"B":{"a":4,"b":1},"C":{"a":2,"b":8},"D":{"a":8,"b":2}},"conditions":["nonSeqFull","nonSeqPartial","seqNoFeedback","seqFeedback"],"classroomPairings":[["A","B"],["C","D"]],"coinWeights":[0.2,0.5,0.8],"subjectId":"A2S64AUN7JI7ZS","assignmentId":"3PIWWX1FJKSPI3JJ6VOUP2J2MFQJJQ","hitId":"3QGHA0EA0JM3KKNCY0PQRLYAHLBWBE","url":"https://gershmanlab.com/experiments/alicia/teaching/experiment/?hitId=3QGHA0EA0JM3KKNCY0PQRLYAHLBWBE&workerId=A2S64AUN7JI7ZS&assignmentId=3PIWWX1FJKSPI3JJ6VOUP2J2MFQJJQ&a=FWIP3&tp_a=FWIP3&b=3PIWWX1FJKSPI3JJ6VOUP2J2MFQJJQ&tp_b=3PIWWX1FJKSPI3JJ6VOUP2J2MFQJJQ&c=365633&tp_c=365633"},{"rt":null,"stimulus":"Examples sent to student! Waiting for student...","response":null,"trial_type":"html-keyboard-response","trial_index":58,"time_elapsed":1175915,"internal_node_id":"0.0-33.0","params":{"nStudents":24,"maxFlips":25,"completionMinutes":45,"basePay":8,"maxBonus":9,"perTrialBonus":0.5,"perTrialBonusThreshold":0.05,"exampleCost":0.02},"classroomParams":{"A":{"a":1,"b":4},"B":{"a":4,"b":1},"C":{"a":2,"b":8},"D":{"a":8,"b":2}},"conditions":["nonSeqFull","nonSeqPartial","seqNoFeedback","seqFeedback"],"classroomPairings":[["A","B"],["C","D"]],"coinWeights":[0.2,0.5,0.8],"subjectId":"A2S64AUN7JI7ZS","assignmentId":"3PIWWX1FJKSPI3JJ6VOUP2J2MFQJJQ","hitId":"3QGHA0EA0JM3KKNCY0PQRLYAHLBWBE","url":"https://gershmanlab.com/experiments/alicia/teaching/experiment/?hitId=3QGHA0EA0JM3KKNCY0PQRLYAHLBWBE&workerId=A2S64AUN7JI7ZS&assignmentId=3PIWWX1FJKSPI3JJ6VOUP2J2MFQJJQ&a=FWIP3&tp_a=FWIP3&b=3PIWWX1FJKSPI3JJ6VOUP2J2MFQJJQ&tp_b=3PIWWX1FJKSPI3JJ6VOUP2J2MFQJJQ&c=365633&tp_c=365633"},{"rt":1290,"stimulus":"\n                <p>Student's guess for coin weight: <b style=\"color:Tomato;\">0.80</b></p>\n                <p></b></p>\n                <p>You will now send another set of examples to your student. <b>Remember to take your student's guess into consideration so that you can earn the highest bonus possible!</b> </p>\n                <p>Press any key to continue.</p>\n                ","response":" ","trial_type":"html-keyboard-response","trial_index":59,"time_elapsed":1177206,"internal_node_id":"0.0-34.0","params":{"nStudents":24,"maxFlips":25,"completionMinutes":45,"basePay":8,"maxBonus":9,"perTrialBonus":0.5,"perTrialBonusThreshold":0.05,"exampleCost":0.02},"classroomParams":{"A":{"a":1,"b":4},"B":{"a":4,"b":1},"C":{"a":2,"b":8},"D":{"a":8,"b":2}},"conditions":["nonSeqFull","nonSeqPartial","seqNoFeedback","seqFeedback"],"classroomPairings":[["A","B"],["C","D"]],"coinWeights":[0.2,0.5,0.8],"subjectId":"A2S64AUN7JI7ZS","assignmentId":"3PIWWX1FJKSPI3JJ6VOUP2J2MFQJJQ","hitId":"3QGHA0EA0JM3KKNCY0PQRLYAHLBWBE","url":"https://gershmanlab.com/experiments/alicia/teaching/experiment/?hitId=3QGHA0EA0JM3KKNCY0PQRLYAHLBWBE&workerId=A2S64AUN7JI7ZS&assignmentId=3PIWWX1FJKSPI3JJ6VOUP2J2MFQJJQ&a=FWIP3&tp_a=FWIP3&b=3PIWWX1FJKSPI3JJ6VOUP2J2MFQJJQ&tp_b=3PIWWX1FJKSPI3JJ6VOUP2J2MFQJJQ&c=365633&tp_c=365633"},{"rt":12614,"response":{"heads":"4","tails":"1"},"type":"response","condition":"seqFeedback","trueTheta":0.8,"classrooms":["A","B"],"studentTrueClassroom":"B","exampleSet":"second","trial_type":"survey-html-form","trial_index":60,"time_elapsed":1189821,"internal_node_id":"0.0-35.0-0.0","params":{"nStudents":24,"maxFlips":25,"completionMinutes":45,"basePay":8,"maxBonus":9,"perTrialBonus":0.5,"perTrialBonusThreshold":0.05,"exampleCost":0.02},"classroomParams":{"A":{"a":1,"b":4},"B":{"a":4,"b":1},"C":{"a":2,"b":8},"D":{"a":8,"b":2}},"conditions":["nonSeqFull","nonSeqPartial","seqNoFeedback","seqFeedback"],"classroomPairings":[["A","B"],["C","D"]],"coinWeights":[0.2,0.5,0.8],"subjectId":"A2S64AUN7JI7ZS","assignmentId":"3PIWWX1FJKSPI3JJ6VOUP2J2MFQJJQ","hitId":"3QGHA0EA0JM3KKNCY0PQRLYAHLBWBE","url":"https://gershmanlab.com/experiments/alicia/teaching/experiment/?hitId=3QGHA0EA0JM3KKNCY0PQRLYAHLBWBE&workerId=A2S64AUN7JI7ZS&assignmentId=3PIWWX1FJKSPI3JJ6VOUP2J2MFQJJQ&a=FWIP3&tp_a=FWIP3&b=3PIWWX1FJKSPI3JJ6VOUP2J2MFQJJQ&tp_b=3PIWWX1FJKSPI3JJ6VOUP2J2MFQJJQ&c=365633&tp_c=365633","firstResponseHeads":4,"firstResponseTails":1,"secondResponseHeads":4,"secondResponseTails":1,"totalHeads":8,"totalTails":2,"studentIndex":3,"studentTrueHypers":{"a":4,"b":1},"studentGuess":0.8,"delta":0,"bonus":0.3,"bonusSoFar":0.7,"totalExamples":10},{"rt":null,"stimulus":"Sending examples to student... ","response":null,"trial_type":"html-keyboard-response","trial_index":61,"time_elapsed":1191824,"internal_node_id":"0.0-36.0","params":{"nStudents":24,"maxFlips":25,"completionMinutes":45,"basePay":8,"maxBonus":9,"perTrialBonus":0.5,"perTrialBonusThreshold":0.05,"exampleCost":0.02},"classroomParams":{"A":{"a":1,"b":4},"B":{"a":4,"b":1},"C":{"a":2,"b":8},"D":{"a":8,"b":2}},"conditions":["nonSeqFull","nonSeqPartial","seqNoFeedback","seqFeedback"],"classroomPairings":[["A","B"],["C","D"]],"coinWeights":[0.2,0.5,0.8],"subjectId":"A2S64AUN7JI7ZS","assignmentId":"3PIWWX1FJKSPI3JJ6VOUP2J2MFQJJQ","hitId":"3QGHA0EA0JM3KKNCY0PQRLYAHLBWBE","url":"https://gershmanlab.com/experiments/alicia/teaching/experiment/?hitId=3QGHA0EA0JM3KKNCY0PQRLYAHLBWBE&workerId=A2S64AUN7JI7ZS&assignmentId=3PIWWX1FJKSPI3JJ6VOUP2J2MFQJJQ&a=FWIP3&tp_a=FWIP3&b=3PIWWX1FJKSPI3JJ6VOUP2J2MFQJJQ&tp_b=3PIWWX1FJKSPI3JJ6VOUP2J2MFQJJQ&c=365633&tp_c=365633"},{"rt":null,"stimulus":"Examples sent to student! Waiting for student...","response":null,"trial_type":"html-keyboard-response","trial_index":62,"time_elapsed":1196828,"internal_node_id":"0.0-37.0","params":{"nStudents":24,"maxFlips":25,"completionMinutes":45,"basePay":8,"maxBonus":9,"perTrialBonus":0.5,"perTrialBonusThreshold":0.05,"exampleCost":0.02},"classroomParams":{"A":{"a":1,"b":4},"B":{"a":4,"b":1},"C":{"a":2,"b":8},"D":{"a":8,"b":2}},"conditions":["nonSeqFull","nonSeqPartial","seqNoFeedback","seqFeedback"],"classroomPairings":[["A","B"],["C","D"]],"coinWeights":[0.2,0.5,0.8],"subjectId":"A2S64AUN7JI7ZS","assignmentId":"3PIWWX1FJKSPI3JJ6VOUP2J2MFQJJQ","hitId":"3QGHA0EA0JM3KKNCY0PQRLYAHLBWBE","url":"https://gershmanlab.com/experiments/alicia/teaching/experiment/?hitId=3QGHA0EA0JM3KKNCY0PQRLYAHLBWBE&workerId=A2S64AUN7JI7ZS&assignmentId=3PIWWX1FJKSPI3JJ6VOUP2J2MFQJJQ&a=FWIP3&tp_a=FWIP3&b=3PIWWX1FJKSPI3JJ6VOUP2J2MFQJJQ&tp_b=3PIWWX1FJKSPI3JJ6VOUP2J2MFQJJQ&c=365633&tp_c=365633"},{"rt":1497,"stimulus":"\n                <p>Student 4's first guess for coin weight: <b style=\"color:Tomato\";>0.80</b></p>\n                <p>Student 4's second guess for coin weight: <b style=\"color:Tomato\";>0.80</b></p>\n                <p>You received a bonus of <b>$0.30</b> based on the student's second guess.</p>\n                <p>Total bonus so far: <b>$0.70</b></p>\n                <p>Press any key to continue.</p>\n                ","response":" ","trial_type":"html-keyboard-response","trial_index":63,"time_elapsed":1198326,"internal_node_id":"0.0-38.0","params":{"nStudents":24,"maxFlips":25,"completionMinutes":45,"basePay":8,"maxBonus":9,"perTrialBonus":0.5,"perTrialBonusThreshold":0.05,"exampleCost":0.02},"classroomParams":{"A":{"a":1,"b":4},"B":{"a":4,"b":1},"C":{"a":2,"b":8},"D":{"a":8,"b":2}},"conditions":["nonSeqFull","nonSeqPartial","seqNoFeedback","seqFeedback"],"classroomPairings":[["A","B"],["C","D"]],"coinWeights":[0.2,0.5,0.8],"subjectId":"A2S64AUN7JI7ZS","assignmentId":"3PIWWX1FJKSPI3JJ6VOUP2J2MFQJJQ","hitId":"3QGHA0EA0JM3KKNCY0PQRLYAHLBWBE","url":"https://gershmanlab.com/experiments/alicia/teaching/experiment/?hitId=3QGHA0EA0JM3KKNCY0PQRLYAHLBWBE&workerId=A2S64AUN7JI7ZS&assignmentId=3PIWWX1FJKSPI3JJ6VOUP2J2MFQJJQ&a=FWIP3&tp_a=FWIP3&b=3PIWWX1FJKSPI3JJ6VOUP2J2MFQJJQ&tp_b=3PIWWX1FJKSPI3JJ6VOUP2J2MFQJJQ&c=365633&tp_c=365633"},{"rt":null,"stimulus":"<div style=\"font-size:60px;\">Next student</div>","response":null,"trial_type":"html-keyboard-response","trial_index":64,"time_elapsed":1200329,"internal_node_id":"0.0-39.0-0.0","params":{"nStudents":24,"maxFlips":25,"completionMinutes":45,"basePay":8,"maxBonus":9,"perTrialBonus":0.5,"perTrialBonusThreshold":0.05,"exampleCost":0.02},"classroomParams":{"A":{"a":1,"b":4},"B":{"a":4,"b":1},"C":{"a":2,"b":8},"D":{"a":8,"b":2}},"conditions":["nonSeqFull","nonSeqPartial","seqNoFeedback","seqFeedback"],"classroomPairings":[["A","B"],["C","D"]],"coinWeights":[0.2,0.5,0.8],"subjectId":"A2S64AUN7JI7ZS","assignmentId":"3PIWWX1FJKSPI3JJ6VOUP2J2MFQJJQ","hitId":"3QGHA0EA0JM3KKNCY0PQRLYAHLBWBE","url":"https://gershmanlab.com/experiments/alicia/teaching/experiment/?hitId=3QGHA0EA0JM3KKNCY0PQRLYAHLBWBE&workerId=A2S64AUN7JI7ZS&assignmentId=3PIWWX1FJKSPI3JJ6VOUP2J2MFQJJQ&a=FWIP3&tp_a=FWIP3&b=3PIWWX1FJKSPI3JJ6VOUP2J2MFQJJQ&tp_b=3PIWWX1FJKSPI3JJ6VOUP2J2MFQJJQ&c=365633&tp_c=365633"},{"rt":1055,"stimulus":"\n            <h4 style=\"color:Orange;\">Student 5</h4>\n            <h2>The weight of your coin is <b style=\"color:Tomato;\">0.8</b>.</h2>\n            <p>In this block, you will be giving <b>two</b> sets of examples to Student 5.</p>\n                <p>You will receive feedback at the end of the block.</p>\n            <p></p>","response":0,"trial_type":"html-button-response","trial_index":65,"time_elapsed":1201386,"internal_node_id":"0.0-40.0","params":{"nStudents":24,"maxFlips":25,"completionMinutes":45,"basePay":8,"maxBonus":9,"perTrialBonus":0.5,"perTrialBonusThreshold":0.05,"exampleCost":0.02},"classroomParams":{"A":{"a":1,"b":4},"B":{"a":4,"b":1},"C":{"a":2,"b":8},"D":{"a":8,"b":2}},"conditions":["nonSeqFull","nonSeqPartial","seqNoFeedback","seqFeedback"],"classroomPairings":[["A","B"],["C","D"]],"coinWeights":[0.2,0.5,0.8],"subjectId":"A2S64AUN7JI7ZS","assignmentId":"3PIWWX1FJKSPI3JJ6VOUP2J2MFQJJQ","hitId":"3QGHA0EA0JM3KKNCY0PQRLYAHLBWBE","url":"https://gershmanlab.com/experiments/alicia/teaching/experiment/?hitId=3QGHA0EA0JM3KKNCY0PQRLYAHLBWBE&workerId=A2S64AUN7JI7ZS&assignmentId=3PIWWX1FJKSPI3JJ6VOUP2J2MFQJJQ&a=FWIP3&tp_a=FWIP3&b=3PIWWX1FJKSPI3JJ6VOUP2J2MFQJJQ&tp_b=3PIWWX1FJKSPI3JJ6VOUP2J2MFQJJQ&c=365633&tp_c=365633"},{"rt":2504,"response":{"heads":"4","tails":"1"},"type":"response","condition":"seqNoFeedback","trueTheta":0.8,"classrooms":["A","B"],"studentTrueClassroom":"B","exampleSet":"first","trial_type":"survey-html-form","trial_index":66,"time_elapsed":1203891,"internal_node_id":"0.0-41.0-0.0","params":{"nStudents":24,"maxFlips":25,"completionMinutes":45,"basePay":8,"maxBonus":9,"perTrialBonus":0.5,"perTrialBonusThreshold":0.05,"exampleCost":0.02},"classroomParams":{"A":{"a":1,"b":4},"B":{"a":4,"b":1},"C":{"a":2,"b":8},"D":{"a":8,"b":2}},"conditions":["nonSeqFull","nonSeqPartial","seqNoFeedback","seqFeedback"],"classroomPairings":[["A","B"],["C","D"]],"coinWeights":[0.2,0.5,0.8],"subjectId":"A2S64AUN7JI7ZS","assignmentId":"3PIWWX1FJKSPI3JJ6VOUP2J2MFQJJQ","hitId":"3QGHA0EA0JM3KKNCY0PQRLYAHLBWBE","url":"https://gershmanlab.com/experiments/alicia/teaching/experiment/?hitId=3QGHA0EA0JM3KKNCY0PQRLYAHLBWBE&workerId=A2S64AUN7JI7ZS&assignmentId=3PIWWX1FJKSPI3JJ6VOUP2J2MFQJJQ&a=FWIP3&tp_a=FWIP3&b=3PIWWX1FJKSPI3JJ6VOUP2J2MFQJJQ&tp_b=3PIWWX1FJKSPI3JJ6VOUP2J2MFQJJQ&c=365633&tp_c=365633","heads":4,"tails":1,"studentIndex":4,"studentTrueHypers":{"a":4,"b":1},"studentGuess":0.8,"delta":0,"totalExamples":5,"bonusSoFar":0.7},{"rt":null,"stimulus":"Sending examples to student... ","response":null,"trial_type":"html-keyboard-response","trial_index":67,"time_elapsed":1205146,"internal_node_id":"0.0-42.0","params":{"nStudents":24,"maxFlips":25,"completionMinutes":45,"basePay":8,"maxBonus":9,"perTrialBonus":0.5,"perTrialBonusThreshold":0.05,"exampleCost":0.02},"classroomParams":{"A":{"a":1,"b":4},"B":{"a":4,"b":1},"C":{"a":2,"b":8},"D":{"a":8,"b":2}},"conditions":["nonSeqFull","nonSeqPartial","seqNoFeedback","seqFeedback"],"classroomPairings":[["A","B"],["C","D"]],"coinWeights":[0.2,0.5,0.8],"subjectId":"A2S64AUN7JI7ZS","assignmentId":"3PIWWX1FJKSPI3JJ6VOUP2J2MFQJJQ","hitId":"3QGHA0EA0JM3KKNCY0PQRLYAHLBWBE","url":"https://gershmanlab.com/experiments/alicia/teaching/experiment/?hitId=3QGHA0EA0JM3KKNCY0PQRLYAHLBWBE&workerId=A2S64AUN7JI7ZS&assignmentId=3PIWWX1FJKSPI3JJ6VOUP2J2MFQJJQ&a=FWIP3&tp_a=FWIP3&b=3PIWWX1FJKSPI3JJ6VOUP2J2MFQJJQ&tp_b=3PIWWX1FJKSPI3JJ6VOUP2J2MFQJJQ&c=365633&tp_c=365633"},{"rt":null,"stimulus":"Examples sent to student! Waiting for student...","response":null,"trial_type":"html-keyboard-response","trial_index":68,"time_elapsed":1209149,"internal_node_id":"0.0-43.0","params":{"nStudents":24,"maxFlips":25,"completionMinutes":45,"basePay":8,"maxBonus":9,"perTrialBonus":0.5,"perTrialBonusThreshold":0.05,"exampleCost":0.02},"classroomParams":{"A":{"a":1,"b":4},"B":{"a":4,"b":1},"C":{"a":2,"b":8},"D":{"a":8,"b":2}},"conditions":["nonSeqFull","nonSeqPartial","seqNoFeedback","seqFeedback"],"classroomPairings":[["A","B"],["C","D"]],"coinWeights":[0.2,0.5,0.8],"subjectId":"A2S64AUN7JI7ZS","assignmentId":"3PIWWX1FJKSPI3JJ6VOUP2J2MFQJJQ","hitId":"3QGHA0EA0JM3KKNCY0PQRLYAHLBWBE","url":"https://gershmanlab.com/experiments/alicia/teaching/experiment/?hitId=3QGHA0EA0JM3KKNCY0PQRLYAHLBWBE&workerId=A2S64AUN7JI7ZS&assignmentId=3PIWWX1FJKSPI3JJ6VOUP2J2MFQJJQ&a=FWIP3&tp_a=FWIP3&b=3PIWWX1FJKSPI3JJ6VOUP2J2MFQJJQ&tp_b=3PIWWX1FJKSPI3JJ6VOUP2J2MFQJJQ&c=365633&tp_c=365633"},{"rt":3081,"response":{"heads":"4","tails":"1"},"type":"response","condition":"seqNoFeedback","trueTheta":0.8,"classrooms":["A","B"],"studentTrueClassroom":"B","exampleSet":"second","trial_type":"survey-html-form","trial_index":69,"time_elapsed":1212231,"internal_node_id":"0.0-44.0-0.0","params":{"nStudents":24,"maxFlips":25,"completionMinutes":45,"basePay":8,"maxBonus":9,"perTrialBonus":0.5,"perTrialBonusThreshold":0.05,"exampleCost":0.02},"classroomParams":{"A":{"a":1,"b":4},"B":{"a":4,"b":1},"C":{"a":2,"b":8},"D":{"a":8,"b":2}},"conditions":["nonSeqFull","nonSeqPartial","seqNoFeedback","seqFeedback"],"classroomPairings":[["A","B"],["C","D"]],"coinWeights":[0.2,0.5,0.8],"subjectId":"A2S64AUN7JI7ZS","assignmentId":"3PIWWX1FJKSPI3JJ6VOUP2J2MFQJJQ","hitId":"3QGHA0EA0JM3KKNCY0PQRLYAHLBWBE","url":"https://gershmanlab.com/experiments/alicia/teaching/experiment/?hitId=3QGHA0EA0JM3KKNCY0PQRLYAHLBWBE&workerId=A2S64AUN7JI7ZS&assignmentId=3PIWWX1FJKSPI3JJ6VOUP2J2MFQJJQ&a=FWIP3&tp_a=FWIP3&b=3PIWWX1FJKSPI3JJ6VOUP2J2MFQJJQ&tp_b=3PIWWX1FJKSPI3JJ6VOUP2J2MFQJJQ&c=365633&tp_c=365633","firstResponseHeads":4,"firstResponseTails":1,"secondResponseHeads":4,"secondResponseTails":1,"totalHeads":8,"totalTails":2,"studentIndex":4,"studentTrueHypers":{"a":4,"b":1},"studentGuess":0.8,"delta":0,"bonus":0.3,"bonusSoFar":1,"totalExamples":10},{"rt":null,"stimulus":"Sending examples to student... ","response":null,"trial_type":"html-keyboard-response","trial_index":70,"time_elapsed":1213484,"internal_node_id":"0.0-45.0","params":{"nStudents":24,"maxFlips":25,"completionMinutes":45,"basePay":8,"maxBonus":9,"perTrialBonus":0.5,"perTrialBonusThreshold":0.05,"exampleCost":0.02},"classroomParams":{"A":{"a":1,"b":4},"B":{"a":4,"b":1},"C":{"a":2,"b":8},"D":{"a":8,"b":2}},"conditions":["nonSeqFull","nonSeqPartial","seqNoFeedback","seqFeedback"],"classroomPairings":[["A","B"],["C","D"]],"coinWeights":[0.2,0.5,0.8],"subjectId":"A2S64AUN7JI7ZS","assignmentId":"3PIWWX1FJKSPI3JJ6VOUP2J2MFQJJQ","hitId":"3QGHA0EA0JM3KKNCY0PQRLYAHLBWBE","url":"https://gershmanlab.com/experiments/alicia/teaching/experiment/?hitId=3QGHA0EA0JM3KKNCY0PQRLYAHLBWBE&workerId=A2S64AUN7JI7ZS&assignmentId=3PIWWX1FJKSPI3JJ6VOUP2J2MFQJJQ&a=FWIP3&tp_a=FWIP3&b=3PIWWX1FJKSPI3JJ6VOUP2J2MFQJJQ&tp_b=3PIWWX1FJKSPI3JJ6VOUP2J2MFQJJQ&c=365633&tp_c=365633"},{"rt":null,"stimulus":"Examples sent to student! Waiting for student...","response":null,"trial_type":"html-keyboard-response","trial_index":71,"time_elapsed":1218988,"internal_node_id":"0.0-46.0","params":{"nStudents":24,"maxFlips":25,"completionMinutes":45,"basePay":8,"maxBonus":9,"perTrialBonus":0.5,"perTrialBonusThreshold":0.05,"exampleCost":0.02},"classroomParams":{"A":{"a":1,"b":4},"B":{"a":4,"b":1},"C":{"a":2,"b":8},"D":{"a":8,"b":2}},"conditions":["nonSeqFull","nonSeqPartial","seqNoFeedback","seqFeedback"],"classroomPairings":[["A","B"],["C","D"]],"coinWeights":[0.2,0.5,0.8],"subjectId":"A2S64AUN7JI7ZS","assignmentId":"3PIWWX1FJKSPI3JJ6VOUP2J2MFQJJQ","hitId":"3QGHA0EA0JM3KKNCY0PQRLYAHLBWBE","url":"https://gershmanlab.com/experiments/alicia/teaching/experiment/?hitId=3QGHA0EA0JM3KKNCY0PQRLYAHLBWBE&workerId=A2S64AUN7JI7ZS&assignmentId=3PIWWX1FJKSPI3JJ6VOUP2J2MFQJJQ&a=FWIP3&tp_a=FWIP3&b=3PIWWX1FJKSPI3JJ6VOUP2J2MFQJJQ&tp_b=3PIWWX1FJKSPI3JJ6VOUP2J2MFQJJQ&c=365633&tp_c=365633"},{"rt":1072,"stimulus":"\n                <p>Student 5's first guess for coin weight: <b style=\"color:Tomato\";>0.80</b></p>\n                <p>Student 5's second guess for coin weight: <b style=\"color:Tomato\";>0.80</b></p>\n                <p>You received a bonus of <b>$0.30</b> based on the student's second guess.</p>\n                <p>Total bonus so far: <b>$1.00</b></p>\n                <p>Press any key to continue.</p>\n                ","response":" ","trial_type":"html-keyboard-response","trial_index":72,"time_elapsed":1220061,"internal_node_id":"0.0-47.0","params":{"nStudents":24,"maxFlips":25,"completionMinutes":45,"basePay":8,"maxBonus":9,"perTrialBonus":0.5,"perTrialBonusThreshold":0.05,"exampleCost":0.02},"classroomParams":{"A":{"a":1,"b":4},"B":{"a":4,"b":1},"C":{"a":2,"b":8},"D":{"a":8,"b":2}},"conditions":["nonSeqFull","nonSeqPartial","seqNoFeedback","seqFeedback"],"classroomPairings":[["A","B"],["C","D"]],"coinWeights":[0.2,0.5,0.8],"subjectId":"A2S64AUN7JI7ZS","assignmentId":"3PIWWX1FJKSPI3JJ6VOUP2J2MFQJJQ","hitId":"3QGHA0EA0JM3KKNCY0PQRLYAHLBWBE","url":"https://gershmanlab.com/experiments/alicia/teaching/experiment/?hitId=3QGHA0EA0JM3KKNCY0PQRLYAHLBWBE&workerId=A2S64AUN7JI7ZS&assignmentId=3PIWWX1FJKSPI3JJ6VOUP2J2MFQJJQ&a=FWIP3&tp_a=FWIP3&b=3PIWWX1FJKSPI3JJ6VOUP2J2MFQJJQ&tp_b=3PIWWX1FJKSPI3JJ6VOUP2J2MFQJJQ&c=365633&tp_c=365633"},{"rt":null,"stimulus":"<div style=\"font-size:60px;\">Next student</div>","response":null,"trial_type":"html-keyboard-response","trial_index":73,"time_elapsed":1222313,"internal_node_id":"0.0-48.0-0.0","params":{"nStudents":24,"maxFlips":25,"completionMinutes":45,"basePay":8,"maxBonus":9,"perTrialBonus":0.5,"perTrialBonusThreshold":0.05,"exampleCost":0.02},"classroomParams":{"A":{"a":1,"b":4},"B":{"a":4,"b":1},"C":{"a":2,"b":8},"D":{"a":8,"b":2}},"conditions":["nonSeqFull","nonSeqPartial","seqNoFeedback","seqFeedback"],"classroomPairings":[["A","B"],["C","D"]],"coinWeights":[0.2,0.5,0.8],"subjectId":"A2S64AUN7JI7ZS","assignmentId":"3PIWWX1FJKSPI3JJ6VOUP2J2MFQJJQ","hitId":"3QGHA0EA0JM3KKNCY0PQRLYAHLBWBE","url":"https://gershmanlab.com/experiments/alicia/teaching/experiment/?hitId=3QGHA0EA0JM3KKNCY0PQRLYAHLBWBE&workerId=A2S64AUN7JI7ZS&assignmentId=3PIWWX1FJKSPI3JJ6VOUP2J2MFQJJQ&a=FWIP3&tp_a=FWIP3&b=3PIWWX1FJKSPI3JJ6VOUP2J2MFQJJQ&tp_b=3PIWWX1FJKSPI3JJ6VOUP2J2MFQJJQ&c=365633&tp_c=365633"},{"rt":1917,"stimulus":"\n            <h4 style=\"color:Orange;\">Student 6</h4>\n            <h2>The weight of your coin is <b style=\"color:Tomato;\">0.8</b>.</h2>\n            <p>In this block, you will be giving <b>two</b> sets of examples to Student 6.</p>\n                <p>You will see the student's guess after the first set of examples. You will also receive feedback at the end of the block.</p>\n            <p>To earn the highest bonus, you will have to <b>take into consideration the student's guess</b> when you choose your second set of examples.</p>","response":0,"trial_type":"html-button-response","trial_index":74,"time_elapsed":1224231,"internal_node_id":"0.0-49.0","params":{"nStudents":24,"maxFlips":25,"completionMinutes":45,"basePay":8,"maxBonus":9,"perTrialBonus":0.5,"perTrialBonusThreshold":0.05,"exampleCost":0.02},"classroomParams":{"A":{"a":1,"b":4},"B":{"a":4,"b":1},"C":{"a":2,"b":8},"D":{"a":8,"b":2}},"conditions":["nonSeqFull","nonSeqPartial","seqNoFeedback","seqFeedback"],"classroomPairings":[["A","B"],["C","D"]],"coinWeights":[0.2,0.5,0.8],"subjectId":"A2S64AUN7JI7ZS","assignmentId":"3PIWWX1FJKSPI3JJ6VOUP2J2MFQJJQ","hitId":"3QGHA0EA0JM3KKNCY0PQRLYAHLBWBE","url":"https://gershmanlab.com/experiments/alicia/teaching/experiment/?hitId=3QGHA0EA0JM3KKNCY0PQRLYAHLBWBE&workerId=A2S64AUN7JI7ZS&assignmentId=3PIWWX1FJKSPI3JJ6VOUP2J2MFQJJQ&a=FWIP3&tp_a=FWIP3&b=3PIWWX1FJKSPI3JJ6VOUP2J2MFQJJQ&tp_b=3PIWWX1FJKSPI3JJ6VOUP2J2MFQJJQ&c=365633&tp_c=365633"},{"rt":5460,"response":{"heads":"8","tails":"2"},"type":"response","condition":"seqFeedback","trueTheta":0.8,"classrooms":["C","D"],"studentTrueClassroom":"D","exampleSet":"first","trial_type":"survey-html-form","trial_index":75,"time_elapsed":1229692,"internal_node_id":"0.0-50.0-0.0","params":{"nStudents":24,"maxFlips":25,"completionMinutes":45,"basePay":8,"maxBonus":9,"perTrialBonus":0.5,"perTrialBonusThreshold":0.05,"exampleCost":0.02},"classroomParams":{"A":{"a":1,"b":4},"B":{"a":4,"b":1},"C":{"a":2,"b":8},"D":{"a":8,"b":2}},"conditions":["nonSeqFull","nonSeqPartial","seqNoFeedback","seqFeedback"],"classroomPairings":[["A","B"],["C","D"]],"coinWeights":[0.2,0.5,0.8],"subjectId":"A2S64AUN7JI7ZS","assignmentId":"3PIWWX1FJKSPI3JJ6VOUP2J2MFQJJQ","hitId":"3QGHA0EA0JM3KKNCY0PQRLYAHLBWBE","url":"https://gershmanlab.com/experiments/alicia/teaching/experiment/?hitId=3QGHA0EA0JM3KKNCY0PQRLYAHLBWBE&workerId=A2S64AUN7JI7ZS&assignmentId=3PIWWX1FJKSPI3JJ6VOUP2J2MFQJJQ&a=FWIP3&tp_a=FWIP3&b=3PIWWX1FJKSPI3JJ6VOUP2J2MFQJJQ&tp_b=3PIWWX1FJKSPI3JJ6VOUP2J2MFQJJQ&c=365633&tp_c=365633","heads":8,"tails":2,"studentIndex":5,"studentTrueHypers":{"a":8,"b":2},"studentGuess":0.8,"delta":0,"totalExamples":10,"bonusSoFar":1},{"rt":null,"stimulus":"Sending examples to student... ","response":null,"trial_type":"html-keyboard-response","trial_index":76,"time_elapsed":1231443,"internal_node_id":"0.0-51.0","params":{"nStudents":24,"maxFlips":25,"completionMinutes":45,"basePay":8,"maxBonus":9,"perTrialBonus":0.5,"perTrialBonusThreshold":0.05,"exampleCost":0.02},"classroomParams":{"A":{"a":1,"b":4},"B":{"a":4,"b":1},"C":{"a":2,"b":8},"D":{"a":8,"b":2}},"conditions":["nonSeqFull","nonSeqPartial","seqNoFeedback","seqFeedback"],"classroomPairings":[["A","B"],["C","D"]],"coinWeights":[0.2,0.5,0.8],"subjectId":"A2S64AUN7JI7ZS","assignmentId":"3PIWWX1FJKSPI3JJ6VOUP2J2MFQJJQ","hitId":"3QGHA0EA0JM3KKNCY0PQRLYAHLBWBE","url":"https://gershmanlab.com/experiments/alicia/teaching/experiment/?hitId=3QGHA0EA0JM3KKNCY0PQRLYAHLBWBE&workerId=A2S64AUN7JI7ZS&assignmentId=3PIWWX1FJKSPI3JJ6VOUP2J2MFQJJQ&a=FWIP3&tp_a=FWIP3&b=3PIWWX1FJKSPI3JJ6VOUP2J2MFQJJQ&tp_b=3PIWWX1FJKSPI3JJ6VOUP2J2MFQJJQ&c=365633&tp_c=365633"},{"rt":null,"stimulus":"Examples sent to student! Waiting for student...","response":null,"trial_type":"html-keyboard-response","trial_index":77,"time_elapsed":1236447,"internal_node_id":"0.0-52.0","params":{"nStudents":24,"maxFlips":25,"completionMinutes":45,"basePay":8,"maxBonus":9,"perTrialBonus":0.5,"perTrialBonusThreshold":0.05,"exampleCost":0.02},"classroomParams":{"A":{"a":1,"b":4},"B":{"a":4,"b":1},"C":{"a":2,"b":8},"D":{"a":8,"b":2}},"conditions":["nonSeqFull","nonSeqPartial","seqNoFeedback","seqFeedback"],"classroomPairings":[["A","B"],["C","D"]],"coinWeights":[0.2,0.5,0.8],"subjectId":"A2S64AUN7JI7ZS","assignmentId":"3PIWWX1FJKSPI3JJ6VOUP2J2MFQJJQ","hitId":"3QGHA0EA0JM3KKNCY0PQRLYAHLBWBE","url":"https://gershmanlab.com/experiments/alicia/teaching/experiment/?hitId=3QGHA0EA0JM3KKNCY0PQRLYAHLBWBE&workerId=A2S64AUN7JI7ZS&assignmentId=3PIWWX1FJKSPI3JJ6VOUP2J2MFQJJQ&a=FWIP3&tp_a=FWIP3&b=3PIWWX1FJKSPI3JJ6VOUP2J2MFQJJQ&tp_b=3PIWWX1FJKSPI3JJ6VOUP2J2MFQJJQ&c=365633&tp_c=365633"},{"rt":1044,"stimulus":"\n                <p>Student's guess for coin weight: <b style=\"color:Tomato;\">0.80</b></p>\n                <p></b></p>\n                <p>You will now send another set of examples to your student. <b>Remember to take your student's guess into consideration so that you can earn the highest bonus possible!</b> </p>\n                <p>Press any key to continue.</p>\n                ","response":" ","trial_type":"html-keyboard-response","trial_index":78,"time_elapsed":1237492,"internal_node_id":"0.0-53.0","params":{"nStudents":24,"maxFlips":25,"completionMinutes":45,"basePay":8,"maxBonus":9,"perTrialBonus":0.5,"perTrialBonusThreshold":0.05,"exampleCost":0.02},"classroomParams":{"A":{"a":1,"b":4},"B":{"a":4,"b":1},"C":{"a":2,"b":8},"D":{"a":8,"b":2}},"conditions":["nonSeqFull","nonSeqPartial","seqNoFeedback","seqFeedback"],"classroomPairings":[["A","B"],["C","D"]],"coinWeights":[0.2,0.5,0.8],"subjectId":"A2S64AUN7JI7ZS","assignmentId":"3PIWWX1FJKSPI3JJ6VOUP2J2MFQJJQ","hitId":"3QGHA0EA0JM3KKNCY0PQRLYAHLBWBE","url":"https://gershmanlab.com/experiments/alicia/teaching/experiment/?hitId=3QGHA0EA0JM3KKNCY0PQRLYAHLBWBE&workerId=A2S64AUN7JI7ZS&assignmentId=3PIWWX1FJKSPI3JJ6VOUP2J2MFQJJQ&a=FWIP3&tp_a=FWIP3&b=3PIWWX1FJKSPI3JJ6VOUP2J2MFQJJQ&tp_b=3PIWWX1FJKSPI3JJ6VOUP2J2MFQJJQ&c=365633&tp_c=365633"},{"rt":4469,"response":{"heads":"8","tails":"2"},"type":"response","condition":"seqFeedback","trueTheta":0.8,"classrooms":["C","D"],"studentTrueClassroom":"D","exampleSet":"second","trial_type":"survey-html-form","trial_index":79,"time_elapsed":1241962,"internal_node_id":"0.0-54.0-0.0","params":{"nStudents":24,"maxFlips":25,"completionMinutes":45,"basePay":8,"maxBonus":9,"perTrialBonus":0.5,"perTrialBonusThreshold":0.05,"exampleCost":0.02},"classroomParams":{"A":{"a":1,"b":4},"B":{"a":4,"b":1},"C":{"a":2,"b":8},"D":{"a":8,"b":2}},"conditions":["nonSeqFull","nonSeqPartial","seqNoFeedback","seqFeedback"],"classroomPairings":[["A","B"],["C","D"]],"coinWeights":[0.2,0.5,0.8],"subjectId":"A2S64AUN7JI7ZS","assignmentId":"3PIWWX1FJKSPI3JJ6VOUP2J2MFQJJQ","hitId":"3QGHA0EA0JM3KKNCY0PQRLYAHLBWBE","url":"https://gershmanlab.com/experiments/alicia/teaching/experiment/?hitId=3QGHA0EA0JM3KKNCY0PQRLYAHLBWBE&workerId=A2S64AUN7JI7ZS&assignmentId=3PIWWX1FJKSPI3JJ6VOUP2J2MFQJJQ&a=FWIP3&tp_a=FWIP3&b=3PIWWX1FJKSPI3JJ6VOUP2J2MFQJJQ&tp_b=3PIWWX1FJKSPI3JJ6VOUP2J2MFQJJQ&c=365633&tp_c=365633","firstResponseHeads":8,"firstResponseTails":2,"secondResponseHeads":8,"secondResponseTails":2,"totalHeads":16,"totalTails":4,"studentIndex":5,"studentTrueHypers":{"a":8,"b":2},"studentGuess":0.8,"delta":0,"bonus":0.1,"bonusSoFar":1.1,"totalExamples":20},{"rt":null,"stimulus":"Sending examples to student... ","response":null,"trial_type":"html-keyboard-response","trial_index":80,"time_elapsed":1243466,"internal_node_id":"0.0-55.0","params":{"nStudents":24,"maxFlips":25,"completionMinutes":45,"basePay":8,"maxBonus":9,"perTrialBonus":0.5,"perTrialBonusThreshold":0.05,"exampleCost":0.02},"classroomParams":{"A":{"a":1,"b":4},"B":{"a":4,"b":1},"C":{"a":2,"b":8},"D":{"a":8,"b":2}},"conditions":["nonSeqFull","nonSeqPartial","seqNoFeedback","seqFeedback"],"classroomPairings":[["A","B"],["C","D"]],"coinWeights":[0.2,0.5,0.8],"subjectId":"A2S64AUN7JI7ZS","assignmentId":"3PIWWX1FJKSPI3JJ6VOUP2J2MFQJJQ","hitId":"3QGHA0EA0JM3KKNCY0PQRLYAHLBWBE","url":"https://gershmanlab.com/experiments/alicia/teaching/experiment/?hitId=3QGHA0EA0JM3KKNCY0PQRLYAHLBWBE&workerId=A2S64AUN7JI7ZS&assignmentId=3PIWWX1FJKSPI3JJ6VOUP2J2MFQJJQ&a=FWIP3&tp_a=FWIP3&b=3PIWWX1FJKSPI3JJ6VOUP2J2MFQJJQ&tp_b=3PIWWX1FJKSPI3JJ6VOUP2J2MFQJJQ&c=365633&tp_c=365633"},{"rt":null,"stimulus":"Examples sent to student! Waiting for student...","response":null,"trial_type":"html-keyboard-response","trial_index":81,"time_elapsed":1248967,"internal_node_id":"0.0-56.0","params":{"nStudents":24,"maxFlips":25,"completionMinutes":45,"basePay":8,"maxBonus":9,"perTrialBonus":0.5,"perTrialBonusThreshold":0.05,"exampleCost":0.02},"classroomParams":{"A":{"a":1,"b":4},"B":{"a":4,"b":1},"C":{"a":2,"b":8},"D":{"a":8,"b":2}},"conditions":["nonSeqFull","nonSeqPartial","seqNoFeedback","seqFeedback"],"classroomPairings":[["A","B"],["C","D"]],"coinWeights":[0.2,0.5,0.8],"subjectId":"A2S64AUN7JI7ZS","assignmentId":"3PIWWX1FJKSPI3JJ6VOUP2J2MFQJJQ","hitId":"3QGHA0EA0JM3KKNCY0PQRLYAHLBWBE","url":"https://gershmanlab.com/experiments/alicia/teaching/experiment/?hitId=3QGHA0EA0JM3KKNCY0PQRLYAHLBWBE&workerId=A2S64AUN7JI7ZS&assignmentId=3PIWWX1FJKSPI3JJ6VOUP2J2MFQJJQ&a=FWIP3&tp_a=FWIP3&b=3PIWWX1FJKSPI3JJ6VOUP2J2MFQJJQ&tp_b=3PIWWX1FJKSPI3JJ6VOUP2J2MFQJJQ&c=365633&tp_c=365633"},{"rt":1754,"stimulus":"\n                <p>Student 6's first guess for coin weight: <b style=\"color:Tomato\";>0.80</b></p>\n                <p>Student 6's second guess for coin weight: <b style=\"color:Tomato\";>0.80</b></p>\n                <p>You received a bonus of <b>$0.10</b> based on the student's second guess.</p>\n                <p>Total bon