[{"rt":5672,"stimulus":"Welcome to the experiment. Press any key to begin.","response":" ","trial_type":"html-keyboard-response","trial_index":0,"time_elapsed":5730,"internal_node_id":"0.0-0.0","params":{"nStudents":24,"maxFlips":25,"completionMinutes":45,"basePay":8,"maxBonus":9,"perTrialBonus":0.5,"perTrialBonusThreshold":0.05,"exampleCost":0.02},"classroomParams":{"A":{"a":1,"b":4},"B":{"a":4,"b":1},"C":{"a":2,"b":8},"D":{"a":8,"b":2}},"conditions":["nonSeqFull","nonSeqPartial","seqNoFeedback","seqFeedback"],"classroomPairings":[["A","B"],["C","D"]],"coinWeights":[0.2,0.5,0.8],"subjectId":"A2UR8ZKKO51K5N","assignmentId":"3RRCEFRB7NYTX22MFWO9LCB6WDR4BZ","hitId":"3IH9TRB0FBLK6RLF7MSMKICTGYN1IU","url":"https://gershmanlab.com/experiments/alicia/teaching/experiment/?hitId=3IH9TRB0FBLK6RLF7MSMKICTGYN1IU&workerId=A2UR8ZKKO51K5N&assignmentId=3RRCEFRB7NYTX22MFWO9LCB6WDR4BZ&a=BERR3&tp_a=BERR3&b=3RRCEFRB7NYTX22MFWO9LCB6WDR4BZ&tp_b=3RRCEFRB7NYTX22MFWO9LCB6WDR4BZ&c=365633&tp_c=365633"},{"rt":6519,"stimulus":"\n        <h3>Please read this consent agreement carefully before deciding whether to participate in this experiment.</h3>\n        <p><b>Purpose of the research:</b> To examine how people teach effectively.</p>\n        <p><b>What you will do in this research:</b> You will teach students the weights of different coins.</p>\n        <p><b>Time required:</b> This experiment will take 45 minutes to complete.</p>\n        <p><b>Risks:</b> There are no anticipated risks associated with participating in this study.             The effects of participating should be comparable to those you would experience from viewing a computer monitor             and using a mouse and keyboard for the duration of the experiment.</p>\n        <p><b>Benefits:</b> The study provides important information about the nature of teaching.</p>\n        <p><b>Compensation:</b> You will receive <b>$8</b> for completing the experiment and a performance bonus of up to <b>$9</b>.</p>\n        <p><b>Confidentiality:</b> Your participation in this study will remain confidential.             No personally identifiable information will be associated with your data.             Your de-identified data may be shared with other researchers and used in future projects.</p>\n        <p><b>Participation and withdrawal:</b> Your participation in this study is completely voluntary and             you may refuse to participate or you may choose to withdraw at any time without penalty or loss of\n            benefits to which you are otherwise entitled.</p>\n        <p><b>How to contact the researcher:</b> If you have questions or concerns about your participation            or payment, or want to request a summary of research findings, please contact\n            Alicia Chen, aliciachen@college.harvard.edu.</p>\n        <p><b>Whom to contact about your rights in this research:</b> For questions, concerns, suggestions,             or complaints that have not been or cannot be addressed by the researcher, or to report             research-related harm, please contact the Committee on the Use of Human Subjects in Research at Harvard University,             1414 Massachusetts Avenue, Second Floor, Cambridge, MA 02138. Phone: 617-496-2847. Email: cuhs@fas.harvard.edu.</p>\n        ","response":0,"trial_type":"html-button-response","trial_index":1,"time_elapsed":12268,"internal_node_id":"0.0-1.0","params":{"nStudents":24,"maxFlips":25,"completionMinutes":45,"basePay":8,"maxBonus":9,"perTrialBonus":0.5,"perTrialBonusThreshold":0.05,"exampleCost":0.02},"classroomParams":{"A":{"a":1,"b":4},"B":{"a":4,"b":1},"C":{"a":2,"b":8},"D":{"a":8,"b":2}},"conditions":["nonSeqFull","nonSeqPartial","seqNoFeedback","seqFeedback"],"classroomPairings":[["A","B"],["C","D"]],"coinWeights":[0.2,0.5,0.8],"subjectId":"A2UR8ZKKO51K5N","assignmentId":"3RRCEFRB7NYTX22MFWO9LCB6WDR4BZ","hitId":"3IH9TRB0FBLK6RLF7MSMKICTGYN1IU","url":"https://gershmanlab.com/experiments/alicia/teaching/experiment/?hitId=3IH9TRB0FBLK6RLF7MSMKICTGYN1IU&workerId=A2UR8ZKKO51K5N&assignmentId=3RRCEFRB7NYTX22MFWO9LCB6WDR4BZ&a=BERR3&tp_a=BERR3&b=3RRCEFRB7NYTX22MFWO9LCB6WDR4BZ&tp_b=3RRCEFRB7NYTX22MFWO9LCB6WDR4BZ&c=365633&tp_c=365633"},{"view_history":[{"page_index":0,"viewing_time":17705},{"page_index":1,"viewing_time":4121},{"page_index":2,"viewing_time":4083},{"page_index":3,"viewing_time":2768},{"page_index":4,"viewing_time":3065},{"page_index":5,"viewing_time":2332},{"page_index":6,"viewing_time":3072}],"rt":37151,"trial_type":"instructions","trial_index":2,"time_elapsed":49481,"internal_node_id":"0.0-2.0-0.0","params":{"nStudents":24,"maxFlips":25,"completionMinutes":45,"basePay":8,"maxBonus":9,"perTrialBonus":0.5,"perTrialBonusThreshold":0.05,"exampleCost":0.02},"classroomParams":{"A":{"a":1,"b":4},"B":{"a":4,"b":1},"C":{"a":2,"b":8},"D":{"a":8,"b":2}},"conditions":["nonSeqFull","nonSeqPartial","seqNoFeedback","seqFeedback"],"classroomPairings":[["A","B"],["C","D"]],"coinWeights":[0.2,0.5,0.8],"subjectId":"A2UR8ZKKO51K5N","assignmentId":"3RRCEFRB7NYTX22MFWO9LCB6WDR4BZ","hitId":"3IH9TRB0FBLK6RLF7MSMKICTGYN1IU","url":"https://gershmanlab.com/experiments/alicia/teaching/experiment/?hitId=3IH9TRB0FBLK6RLF7MSMKICTGYN1IU&workerId=A2UR8ZKKO51K5N&assignmentId=3RRCEFRB7NYTX22MFWO9LCB6WDR4BZ&a=BERR3&tp_a=BERR3&b=3RRCEFRB7NYTX22MFWO9LCB6WDR4BZ&tp_b=3RRCEFRB7NYTX22MFWO9LCB6WDR4BZ&c=365633&tp_c=365633"},{"rt":875338,"response":{"Q0":"Students in different classrooms will have seen a different number of heads and tails before seeing the examples you select for them.","Q1":"By <b>considering the student's classroom information</b> so that I can teach efficiently and accurately/helpfully at the same time (because each example I give to the student costs money!).","Q2":"The coin lands heads 90% of the time.","Q3":"No, I will teach a <b>new</b> student each time.","Q4":"The students are also on the same alien planet as you, where coins can be unfair.","Q5":"Based on the student's second (and final) guess."},"question_order":[0,2,5,1,3,4],"trial_type":"survey-multi-choice","trial_index":3,"time_elapsed":924844,"internal_node_id":"0.0-2.0-1.0","params":{"nStudents":24,"maxFlips":25,"completionMinutes":45,"basePay":8,"maxBonus":9,"perTrialBonus":0.5,"perTrialBonusThreshold":0.05,"exampleCost":0.02},"classroomParams":{"A":{"a":1,"b":4},"B":{"a":4,"b":1},"C":{"a":2,"b":8},"D":{"a":8,"b":2}},"conditions":["nonSeqFull","nonSeqPartial","seqNoFeedback","seqFeedback"],"classroomPairings":[["A","B"],["C","D"]],"coinWeights":[0.2,0.5,0.8],"subjectId":"A2UR8ZKKO51K5N","assignmentId":"3RRCEFRB7NYTX22MFWO9LCB6WDR4BZ","hitId":"3IH9TRB0FBLK6RLF7MSMKICTGYN1IU","url":"https://gershmanlab.com/experiments/alicia/teaching/experiment/?hitId=3IH9TRB0FBLK6RLF7MSMKICTGYN1IU&workerId=A2UR8ZKKO51K5N&assignmentId=3RRCEFRB7NYTX22MFWO9LCB6WDR4BZ&a=BERR3&tp_a=BERR3&b=3RRCEFRB7NYTX22MFWO9LCB6WDR4BZ&tp_b=3RRCEFRB7NYTX22MFWO9LCB6WDR4BZ&c=365633&tp_c=365633","pass":true},{"rt":null,"stimulus":"<div style=\"font-size:30px;\">Congrats on passing the comprehension quiz! The experiment will begin in a few seconds.</div>","response":null,"trial_type":"html-keyboard-response","trial_index":4,"time_elapsed":927881,"internal_node_id":"0.0-3.0","params":{"nStudents":24,"maxFlips":25,"completionMinutes":45,"basePay":8,"maxBonus":9,"perTrialBonus":0.5,"perTrialBonusThreshold":0.05,"exampleCost":0.02},"classroomParams":{"A":{"a":1,"b":4},"B":{"a":4,"b":1},"C":{"a":2,"b":8},"D":{"a":8,"b":2}},"conditions":["nonSeqFull","nonSeqPartial","seqNoFeedback","seqFeedback"],"classroomPairings":[["A","B"],["C","D"]],"coinWeights":[0.2,0.5,0.8],"subjectId":"A2UR8ZKKO51K5N","assignmentId":"3RRCEFRB7NYTX22MFWO9LCB6WDR4BZ","hitId":"3IH9TRB0FBLK6RLF7MSMKICTGYN1IU","url":"https://gershmanlab.com/experiments/alicia/teaching/experiment/?hitId=3IH9TRB0FBLK6RLF7MSMKICTGYN1IU&workerId=A2UR8ZKKO51K5N&assignmentId=3RRCEFRB7NYTX22MFWO9LCB6WDR4BZ&a=BERR3&tp_a=BERR3&b=3RRCEFRB7NYTX22MFWO9LCB6WDR4BZ&tp_b=3RRCEFRB7NYTX22MFWO9LCB6WDR4BZ&c=365633&tp_c=365633"},{"rt":null,"stimulus":"<div style=\"font-size:50px;\">First student</div>","response":null,"trial_type":"html-keyboard-response","trial_index":5,"time_elapsed":930902,"internal_node_id":"0.0-4.0","params":{"nStudents":24,"maxFlips":25,"completionMinutes":45,"basePay":8,"maxBonus":9,"perTrialBonus":0.5,"perTrialBonusThreshold":0.05,"exampleCost":0.02},"classroomParams":{"A":{"a":1,"b":4},"B":{"a":4,"b":1},"C":{"a":2,"b":8},"D":{"a":8,"b":2}},"conditions":["nonSeqFull","nonSeqPartial","seqNoFeedback","seqFeedback"],"classroomPairings":[["A","B"],["C","D"]],"coinWeights":[0.2,0.5,0.8],"subjectId":"A2UR8ZKKO51K5N","assignmentId":"3RRCEFRB7NYTX22MFWO9LCB6WDR4BZ","hitId":"3IH9TRB0FBLK6RLF7MSMKICTGYN1IU","url":"https://gershmanlab.com/experiments/alicia/teaching/experiment/?hitId=3IH9TRB0FBLK6RLF7MSMKICTGYN1IU&workerId=A2UR8ZKKO51K5N&assignmentId=3RRCEFRB7NYTX22MFWO9LCB6WDR4BZ&a=BERR3&tp_a=BERR3&b=3RRCEFRB7NYTX22MFWO9LCB6WDR4BZ&tp_b=3RRCEFRB7NYTX22MFWO9LCB6WDR4BZ&c=365633&tp_c=365633"},{"rt":5638,"stimulus":"\n            <h4 style=\"color:Orange;\">Student 1</h4>\n            <h2>The weight of your coin is <b style=\"color:Tomato;\">0.2</b>.</h2>\n            <p>In this block, you will be giving <b>one</b> set of examples to Student 1.</p>\n                <p>You will receive feedback at the end of the block.</p>\n            <p></p>","response":0,"trial_type":"html-button-response","trial_index":6,"time_elapsed":936546,"internal_node_id":"0.0-5.0","params":{"nStudents":24,"maxFlips":25,"completionMinutes":45,"basePay":8,"maxBonus":9,"perTrialBonus":0.5,"perTrialBonusThreshold":0.05,"exampleCost":0.02},"classroomParams":{"A":{"a":1,"b":4},"B":{"a":4,"b":1},"C":{"a":2,"b":8},"D":{"a":8,"b":2}},"conditions":["nonSeqFull","nonSeqPartial","seqNoFeedback","seqFeedback"],"classroomPairings":[["A","B"],["C","D"]],"coinWeights":[0.2,0.5,0.8],"subjectId":"A2UR8ZKKO51K5N","assignmentId":"3RRCEFRB7NYTX22MFWO9LCB6WDR4BZ","hitId":"3IH9TRB0FBLK6RLF7MSMKICTGYN1IU","url":"https://gershmanlab.com/experiments/alicia/teaching/experiment/?hitId=3IH9TRB0FBLK6RLF7MSMKICTGYN1IU&workerId=A2UR8ZKKO51K5N&assignmentId=3RRCEFRB7NYTX22MFWO9LCB6WDR4BZ&a=BERR3&tp_a=BERR3&b=3RRCEFRB7NYTX22MFWO9LCB6WDR4BZ&tp_b=3RRCEFRB7NYTX22MFWO9LCB6WDR4BZ&c=365633&tp_c=365633"},{"rt":21452,"response":{"heads":"10","tails":"15"},"type":"response","condition":"nonSeqFull","trueTheta":0.2,"classrooms":["C","D"],"studentTrueClassroom":"D","exampleSet":"first","trial_type":"survey-html-form","trial_index":7,"time_elapsed":958025,"internal_node_id":"0.0-6.0-0.0","params":{"nStudents":24,"maxFlips":25,"completionMinutes":45,"basePay":8,"maxBonus":9,"perTrialBonus":0.5,"perTrialBonusThreshold":0.05,"exampleCost":0.02},"classroomParams":{"A":{"a":1,"b":4},"B":{"a":4,"b":1},"C":{"a":2,"b":8},"D":{"a":8,"b":2}},"conditions":["nonSeqFull","nonSeqPartial","seqNoFeedback","seqFeedback"],"classroomPairings":[["A","B"],["C","D"]],"coinWeights":[0.2,0.5,0.8],"subjectId":"A2UR8ZKKO51K5N","assignmentId":"3RRCEFRB7NYTX22MFWO9LCB6WDR4BZ","hitId":"3IH9TRB0FBLK6RLF7MSMKICTGYN1IU","url":"https://gershmanlab.com/experiments/alicia/teaching/experiment/?hitId=3IH9TRB0FBLK6RLF7MSMKICTGYN1IU&workerId=A2UR8ZKKO51K5N&assignmentId=3RRCEFRB7NYTX22MFWO9LCB6WDR4BZ&a=BERR3&tp_a=BERR3&b=3RRCEFRB7NYTX22MFWO9LCB6WDR4BZ&tp_b=3RRCEFRB7NYTX22MFWO9LCB6WDR4BZ&c=365633&tp_c=365633","heads":10,"tails":15,"studentIndex":0,"studentTrueHypers":{"a":8,"b":2},"studentGuess":0.5142857142857142,"delta":0.3142857142857142,"totalExamples":25,"bonus":0,"bonusSoFar":0},{"rt":null,"stimulus":"Sending examples to student... ","response":null,"trial_type":"html-keyboard-response","trial_index":8,"time_elapsed":959559,"internal_node_id":"0.0-7.0","params":{"nStudents":24,"maxFlips":25,"completionMinutes":45,"basePay":8,"maxBonus":9,"perTrialBonus":0.5,"perTrialBonusThreshold":0.05,"exampleCost":0.02},"classroomParams":{"A":{"a":1,"b":4},"B":{"a":4,"b":1},"C":{"a":2,"b":8},"D":{"a":8,"b":2}},"conditions":["nonSeqFull","nonSeqPartial","seqNoFeedback","seqFeedback"],"classroomPairings":[["A","B"],["C","D"]],"coinWeights":[0.2,0.5,0.8],"subjectId":"A2UR8ZKKO51K5N","assignmentId":"3RRCEFRB7NYTX22MFWO9LCB6WDR4BZ","hitId":"3IH9TRB0FBLK6RLF7MSMKICTGYN1IU","url":"https://gershmanlab.com/experiments/alicia/teaching/experiment/?hitId=3IH9TRB0FBLK6RLF7MSMKICTGYN1IU&workerId=A2UR8ZKKO51K5N&assignmentId=3RRCEFRB7NYTX22MFWO9LCB6WDR4BZ&a=BERR3&tp_a=BERR3&b=3RRCEFRB7NYTX22MFWO9LCB6WDR4BZ&tp_b=3RRCEFRB7NYTX22MFWO9LCB6WDR4BZ&c=365633&tp_c=365633"},{"rt":null,"stimulus":"Examples sent to student! Waiting for student...","response":null,"trial_type":"html-keyboard-response","trial_index":9,"time_elapsed":964082,"internal_node_id":"0.0-8.0","params":{"nStudents":24,"maxFlips":25,"completionMinutes":45,"basePay":8,"maxBonus":9,"perTrialBonus":0.5,"perTrialBonusThreshold":0.05,"exampleCost":0.02},"classroomParams":{"A":{"a":1,"b":4},"B":{"a":4,"b":1},"C":{"a":2,"b":8},"D":{"a":8,"b":2}},"conditions":["nonSeqFull","nonSeqPartial","seqNoFeedback","seqFeedback"],"classroomPairings":[["A","B"],["C","D"]],"coinWeights":[0.2,0.5,0.8],"subjectId":"A2UR8ZKKO51K5N","assignmentId":"3RRCEFRB7NYTX22MFWO9LCB6WDR4BZ","hitId":"3IH9TRB0FBLK6RLF7MSMKICTGYN1IU","url":"https://gershmanlab.com/experiments/alicia/teaching/experiment/?hitId=3IH9TRB0FBLK6RLF7MSMKICTGYN1IU&workerId=A2UR8ZKKO51K5N&assignmentId=3RRCEFRB7NYTX22MFWO9LCB6WDR4BZ&a=BERR3&tp_a=BERR3&b=3RRCEFRB7NYTX22MFWO9LCB6WDR4BZ&tp_b=3RRCEFRB7NYTX22MFWO9LCB6WDR4BZ&c=365633&tp_c=365633"},{"rt":17331,"stimulus":"\n                <p>Student's guess for coin weight: <b style=\"color:Tomato;\">0.51</b></p>\n                <p>You received a bonus of <b>$0</b>. Total bonus so far: <b>$0.00</b></b></p>\n                <p></p>\n                <p>Press any key to continue.</p>\n                ","response":" ","trial_type":"html-keyboard-response","trial_index":10,"time_elapsed":981423,"internal_node_id":"0.0-9.0","params":{"nStudents":24,"maxFlips":25,"completionMinutes":45,"basePay":8,"maxBonus":9,"perTrialBonus":0.5,"perTrialBonusThreshold":0.05,"exampleCost":0.02},"classroomParams":{"A":{"a":1,"b":4},"B":{"a":4,"b":1},"C":{"a":2,"b":8},"D":{"a":8,"b":2}},"conditions":["nonSeqFull","nonSeqPartial","seqNoFeedback","seqFeedback"],"classroomPairings":[["A","B"],["C","D"]],"coinWeights":[0.2,0.5,0.8],"subjectId":"A2UR8ZKKO51K5N","assignmentId":"3RRCEFRB7NYTX22MFWO9LCB6WDR4BZ","hitId":"3IH9TRB0FBLK6RLF7MSMKICTGYN1IU","url":"https://gershmanlab.com/experiments/alicia/teaching/experiment/?hitId=3IH9TRB0FBLK6RLF7MSMKICTGYN1IU&workerId=A2UR8ZKKO51K5N&assignmentId=3RRCEFRB7NYTX22MFWO9LCB6WDR4BZ&a=BERR3&tp_a=BERR3&b=3RRCEFRB7NYTX22MFWO9LCB6WDR4BZ&tp_b=3RRCEFRB7NYTX22MFWO9LCB6WDR4BZ&c=365633&tp_c=365633"},{"rt":null,"stimulus":"<div style=\"font-size:60px;\">Next student</div>","response":null,"trial_type":"html-keyboard-response","trial_index":11,"time_elapsed":983939,"internal_node_id":"0.0-10.0-0.0","params":{"nStudents":24,"maxFlips":25,"completionMinutes":45,"basePay":8,"maxBonus":9,"perTrialBonus":0.5,"perTrialBonusThreshold":0.05,"exampleCost":0.02},"classroomParams":{"A":{"a":1,"b":4},"B":{"a":4,"b":1},"C":{"a":2,"b":8},"D":{"a":8,"b":2}},"conditions":["nonSeqFull","nonSeqPartial","seqNoFeedback","seqFeedback"],"classroomPairings":[["A","B"],["C","D"]],"coinWeights":[0.2,0.5,0.8],"subjectId":"A2UR8ZKKO51K5N","assignmentId":"3RRCEFRB7NYTX22MFWO9LCB6WDR4BZ","hitId":"3IH9TRB0FBLK6RLF7MSMKICTGYN1IU","url":"https://gershmanlab.com/experiments/alicia/teaching/experiment/?hitId=3IH9TRB0FBLK6RLF7MSMKICTGYN1IU&workerId=A2UR8ZKKO51K5N&assignmentId=3RRCEFRB7NYTX22MFWO9LCB6WDR4BZ&a=BERR3&tp_a=BERR3&b=3RRCEFRB7NYTX22MFWO9LCB6WDR4BZ&tp_b=3RRCEFRB7NYTX22MFWO9LCB6WDR4BZ&c=365633&tp_c=365633"},{"rt":5798,"stimulus":"\n            <h4 style=\"color:Orange;\">Student 2</h4>\n            <h2>The weight of your coin is <b style=\"color:Tomato;\">0.2</b>.</h2>\n            <p>In this block, you will be giving <b>two</b> sets of examples to Student 2.</p>\n                <p>You will see the student's guess after the first set of examples. You will also receive feedback at the end of the block.</p>\n            <p>To earn the highest bonus, you will have to <b>take into consideration the student's guess</b> when you choose your second set of examples.</p>","response":0,"trial_type":"html-button-response","trial_index":12,"time_elapsed":989743,"internal_node_id":"0.0-11.0","params":{"nStudents":24,"maxFlips":25,"completionMinutes":45,"basePay":8,"maxBonus":9,"perTrialBonus":0.5,"perTrialBonusThreshold":0.05,"exampleCost":0.02},"classroomParams":{"A":{"a":1,"b":4},"B":{"a":4,"b":1},"C":{"a":2,"b":8},"D":{"a":8,"b":2}},"conditions":["nonSeqFull","nonSeqPartial","seqNoFeedback","seqFeedback"],"classroomPairings":[["A","B"],["C","D"]],"coinWeights":[0.2,0.5,0.8],"subjectId":"A2UR8ZKKO51K5N","assignmentId":"3RRCEFRB7NYTX22MFWO9LCB6WDR4BZ","hitId":"3IH9TRB0FBLK6RLF7MSMKICTGYN1IU","url":"https://gershmanlab.com/experiments/alicia/teaching/experiment/?hitId=3IH9TRB0FBLK6RLF7MSMKICTGYN1IU&workerId=A2UR8ZKKO51K5N&assignmentId=3RRCEFRB7NYTX22MFWO9LCB6WDR4BZ&a=BERR3&tp_a=BERR3&b=3RRCEFRB7NYTX22MFWO9LCB6WDR4BZ&tp_b=3RRCEFRB7NYTX22MFWO9LCB6WDR4BZ&c=365633&tp_c=365633"},{"rt":12836,"response":{"heads":"10","tails":"10"},"type":"response","condition":"seqFeedback","trueTheta":0.2,"classrooms":["A","B"],"studentTrueClassroom":"B","exampleSet":"first","trial_type":"survey-html-form","trial_index":13,"time_elapsed":1002595,"internal_node_id":"0.0-12.0-0.0","params":{"nStudents":24,"maxFlips":25,"completionMinutes":45,"basePay":8,"maxBonus":9,"perTrialBonus":0.5,"perTrialBonusThreshold":0.05,"exampleCost":0.02},"classroomParams":{"A":{"a":1,"b":4},"B":{"a":4,"b":1},"C":{"a":2,"b":8},"D":{"a":8,"b":2}},"conditions":["nonSeqFull","nonSeqPartial","seqNoFeedback","seqFeedback"],"classroomPairings":[["A","B"],["C","D"]],"coinWeights":[0.2,0.5,0.8],"subjectId":"A2UR8ZKKO51K5N","assignmentId":"3RRCEFRB7NYTX22MFWO9LCB6WDR4BZ","hitId":"3IH9TRB0FBLK6RLF7MSMKICTGYN1IU","url":"https://gershmanlab.com/experiments/alicia/teaching/experiment/?hitId=3IH9TRB0FBLK6RLF7MSMKICTGYN1IU&workerId=A2UR8ZKKO51K5N&assignmentId=3RRCEFRB7NYTX22MFWO9LCB6WDR4BZ&a=BERR3&tp_a=BERR3&b=3RRCEFRB7NYTX22MFWO9LCB6WDR4BZ&tp_b=3RRCEFRB7NYTX22MFWO9LCB6WDR4BZ&c=365633&tp_c=365633","heads":10,"tails":10,"studentIndex":1,"studentTrueHypers":{"a":4,"b":1},"studentGuess":0.56,"delta":0.36000000000000004,"totalExamples":20,"bonusSoFar":0},{"rt":null,"stimulus":"Sending examples to student... ","response":null,"trial_type":"html-keyboard-response","trial_index":14,"time_elapsed":1004113,"internal_node_id":"0.0-13.0","params":{"nStudents":24,"maxFlips":25,"completionMinutes":45,"basePay":8,"maxBonus":9,"perTrialBonus":0.5,"perTrialBonusThreshold":0.05,"exampleCost":0.02},"classroomParams":{"A":{"a":1,"b":4},"B":{"a":4,"b":1},"C":{"a":2,"b":8},"D":{"a":8,"b":2}},"conditions":["nonSeqFull","nonSeqPartial","seqNoFeedback","seqFeedback"],"classroomPairings":[["A","B"],["C","D"]],"coinWeights":[0.2,0.5,0.8],"subjectId":"A2UR8ZKKO51K5N","assignmentId":"3RRCEFRB7NYTX22MFWO9LCB6WDR4BZ","hitId":"3IH9TRB0FBLK6RLF7MSMKICTGYN1IU","url":"https://gershmanlab.com/experiments/alicia/teaching/experiment/?hitId=3IH9TRB0FBLK6RLF7MSMKICTGYN1IU&workerId=A2UR8ZKKO51K5N&assignmentId=3RRCEFRB7NYTX22MFWO9LCB6WDR4BZ&a=BERR3&tp_a=BERR3&b=3RRCEFRB7NYTX22MFWO9LCB6WDR4BZ&tp_b=3RRCEFRB7NYTX22MFWO9LCB6WDR4BZ&c=365633&tp_c=365633"},{"rt":null,"stimulus":"Examples sent to student! Waiting for student...","response":null,"trial_type":"html-keyboard-response","trial_index":15,"time_elapsed":1009637,"internal_node_id":"0.0-14.0","params":{"nStudents":24,"maxFlips":25,"completionMinutes":45,"basePay":8,"maxBonus":9,"perTrialBonus":0.5,"perTrialBonusThreshold":0.05,"exampleCost":0.02},"classroomParams":{"A":{"a":1,"b":4},"B":{"a":4,"b":1},"C":{"a":2,"b":8},"D":{"a":8,"b":2}},"conditions":["nonSeqFull","nonSeqPartial","seqNoFeedback","seqFeedback"],"classroomPairings":[["A","B"],["C","D"]],"coinWeights":[0.2,0.5,0.8],"subjectId":"A2UR8ZKKO51K5N","assignmentId":"3RRCEFRB7NYTX22MFWO9LCB6WDR4BZ","hitId":"3IH9TRB0FBLK6RLF7MSMKICTGYN1IU","url":"https://gershmanlab.com/experiments/alicia/teaching/experiment/?hitId=3IH9TRB0FBLK6RLF7MSMKICTGYN1IU&workerId=A2UR8ZKKO51K5N&assignmentId=3RRCEFRB7NYTX22MFWO9LCB6WDR4BZ&a=BERR3&tp_a=BERR3&b=3RRCEFRB7NYTX22MFWO9LCB6WDR4BZ&tp_b=3RRCEFRB7NYTX22MFWO9LCB6WDR4BZ&c=365633&tp_c=365633"},{"rt":null,"stimulus":"\n                <p>Student's guess for coin weight: <b style=\"color:Tomato;\">0.56</b></p>\n                <p></b></p>\n                <p>You will now send another set of examples to your student. <b>Remember to take your student's guess into consideration so that you can earn the highest bonus possible!</b> </p>\n                <p>Press any key to continue.</p>\n                ","response":null,"trial_type":"html-keyboard-response","trial_index":16,"time_elapsed":1040294,"internal_node_id":"0.0-15.0","params":{"nStudents":24,"maxFlips":25,"completionMinutes":45,"basePay":8,"maxBonus":9,"perTrialBonus":0.5,"perTrialBonusThreshold":0.05,"exampleCost":0.02},"classroomParams":{"A":{"a":1,"b":4},"B":{"a":4,"b":1},"C":{"a":2,"b":8},"D":{"a":8,"b":2}},"conditions":["nonSeqFull","nonSeqPartial","seqNoFeedback","seqFeedback"],"classroomPairings":[["A","B"],["C","D"]],"coinWeights":[0.2,0.5,0.8],"subjectId":"A2UR8ZKKO51K5N","assignmentId":"3RRCEFRB7NYTX22MFWO9LCB6WDR4BZ","hitId":"3IH9TRB0FBLK6RLF7MSMKICTGYN1IU","url":"https://gershmanlab.com/experiments/alicia/teaching/experiment/?hitId=3IH9TRB0FBLK6RLF7MSMKICTGYN1IU&workerId=A2UR8ZKKO51K5N&assignmentId=3RRCEFRB7NYTX22MFWO9LCB6WDR4BZ&a=BERR3&tp_a=BERR3&b=3RRCEFRB7NYTX22MFWO9LCB6WDR4BZ&tp_b=3RRCEFRB7NYTX22MFWO9LCB6WDR4BZ&c=365633&tp_c=365633"},{"rt":63838,"response":{"heads":"5","tails":"10"},"type":"response","condition":"seqFeedback","trueTheta":0.2,"classrooms":["A","B"],"studentTrueClassroom":"B","exampleSet":"second","trial_type":"survey-html-form","trial_index":17,"time_elapsed":1104144,"internal_node_id":"0.0-16.0-0.0","params":{"nStudents":24,"maxFlips":25,"completionMinutes":45,"basePay":8,"maxBonus":9,"perTrialBonus":0.5,"perTrialBonusThreshold":0.05,"exampleCost":0.02},"classroomParams":{"A":{"a":1,"b":4},"B":{"a":4,"b":1},"C":{"a":2,"b":8},"D":{"a":8,"b":2}},"conditions":["nonSeqFull","nonSeqPartial","seqNoFeedback","seqFeedback"],"classroomPairings":[["A","B"],["C","D"]],"coinWeights":[0.2,0.5,0.8],"subjectId":"A2UR8ZKKO51K5N","assignmentId":"3RRCEFRB7NYTX22MFWO9LCB6WDR4BZ","hitId":"3IH9TRB0FBLK6RLF7MSMKICTGYN1IU","url":"https://gershmanlab.com/experiments/alicia/teaching/experiment/?hitId=3IH9TRB0FBLK6RLF7MSMKICTGYN1IU&workerId=A2UR8ZKKO51K5N&assignmentId=3RRCEFRB7NYTX22MFWO9LCB6WDR4BZ&a=BERR3&tp_a=BERR3&b=3RRCEFRB7NYTX22MFWO9LCB6WDR4BZ&tp_b=3RRCEFRB7NYTX22MFWO9LCB6WDR4BZ&c=365633&tp_c=365633","firstResponseHeads":10,"firstResponseTails":10,"secondResponseHeads":5,"secondResponseTails":10,"totalHeads":15,"totalTails":20,"studentIndex":1,"studentTrueHypers":{"a":4,"b":1},"studentGuess":0.475,"delta":0.27499999999999997,"bonus":0,"bonusSoFar":0,"totalExamples":35},{"rt":null,"stimulus":"Sending examples to student... ","response":null,"trial_type":"html-keyboard-response","trial_index":18,"time_elapsed":1105668,"internal_node_id":"0.0-17.0","params":{"nStudents":24,"maxFlips":25,"completionMinutes":45,"basePay":8,"maxBonus":9,"perTrialBonus":0.5,"perTrialBonusThreshold":0.05,"exampleCost":0.02},"classroomParams":{"A":{"a":1,"b":4},"B":{"a":4,"b":1},"C":{"a":2,"b":8},"D":{"a":8,"b":2}},"conditions":["nonSeqFull","nonSeqPartial","seqNoFeedback","seqFeedback"],"classroomPairings":[["A","B"],["C","D"]],"coinWeights":[0.2,0.5,0.8],"subjectId":"A2UR8ZKKO51K5N","assignmentId":"3RRCEFRB7NYTX22MFWO9LCB6WDR4BZ","hitId":"3IH9TRB0FBLK6RLF7MSMKICTGYN1IU","url":"https://gershmanlab.com/experiments/alicia/teaching/experiment/?hitId=3IH9TRB0FBLK6RLF7MSMKICTGYN1IU&workerId=A2UR8ZKKO51K5N&assignmentId=3RRCEFRB7NYTX22MFWO9LCB6WDR4BZ&a=BERR3&tp_a=BERR3&b=3RRCEFRB7NYTX22MFWO9LCB6WDR4BZ&tp_b=3RRCEFRB7NYTX22MFWO9LCB6WDR4BZ&c=365633&tp_c=365633"},{"rt":null,"stimulus":"Examples sent to student! Waiting for student...","response":null,"trial_type":"html-keyboard-response","trial_index":19,"time_elapsed":1111190,"internal_node_id":"0.0-18.0","params":{"nStudents":24,"maxFlips":25,"completionMinutes":45,"basePay":8,"maxBonus":9,"perTrialBonus":0.5,"perTrialBonusThreshold":0.05,"exampleCost":0.02},"classroomParams":{"A":{"a":1,"b":4},"B":{"a":4,"b":1},"C":{"a":2,"b":8},"D":{"a":8,"b":2}},"conditions":["nonSeqFull","nonSeqPartial","seqNoFeedback","seqFeedback"],"classroomPairings":[["A","B"],["C","D"]],"coinWeights":[0.2,0.5,0.8],"subjectId":"A2UR8ZKKO51K5N","assignmentId":"3RRCEFRB7NYTX22MFWO9LCB6WDR4BZ","hitId":"3IH9TRB0FBLK6RLF7MSMKICTGYN1IU","url":"https://gershmanlab.com/experiments/alicia/teaching/experiment/?hitId=3IH9TRB0FBLK6RLF7MSMKICTGYN1IU&workerId=A2UR8ZKKO51K5N&assignmentId=3RRCEFRB7NYTX22MFWO9LCB6WDR4BZ&a=BERR3&tp_a=BERR3&b=3RRCEFRB7NYTX22MFWO9LCB6WDR4BZ&tp_b=3RRCEFRB7NYTX22MFWO9LCB6WDR4BZ&c=365633&tp_c=365633"},{"rt":27447,"stimulus":"\n                <p>Student 2's first guess for coin weight: <b style=\"color:Tomato\";>0.56</b></p>\n                <p>Student 2's second guess for coin weight: <b style=\"color:Tomato\";>0.47</b></p>\n                <p>You received a bonus of <b>$0.00</b> based on the student's second guess.</p>\n                <p>Total bonus so far: <b>$0.00</b></p>\n                <p>Press any key to continue.</p>\n                ","response":" ","trial_type":"html-keyboard-response","trial_index":20,"time_elapsed":1138647,"internal_node_id":"0.0-19.0","params":{"nStudents":24,"maxFlips":25,"completionMinutes":45,"basePay":8,"maxBonus":9,"perTrialBonus":0.5,"perTrialBonusThreshold":0.05,"exampleCost":0.02},"classroomParams":{"A":{"a":1,"b":4},"B":{"a":4,"b":1},"C":{"a":2,"b":8},"D":{"a":8,"b":2}},"conditions":["nonSeqFull","nonSeqPartial","seqNoFeedback","seqFeedback"],"classroomPairings":[["A","B"],["C","D"]],"coinWeights":[0.2,0.5,0.8],"subjectId":"A2UR8ZKKO51K5N","assignmentId":"3RRCEFRB7NYTX22MFWO9LCB6WDR4BZ","hitId":"3IH9TRB0FBLK6RLF7MSMKICTGYN1IU","url":"https://gershmanlab.com/experiments/alicia/teaching/experiment/?hitId=3IH9TRB0FBLK6RLF7MSMKICTGYN1IU&workerId=A2UR8ZKKO51K5N&assignmentId=3RRCEFRB7NYTX22MFWO9LCB6WDR4BZ&a=BERR3&tp_a=BERR3&b=3RRCEFRB7NYTX22MFWO9LCB6WDR4BZ&tp_b=3RRCEFRB7NYTX22MFWO9LCB6WDR4BZ&c=365633&tp_c=365633"},{"rt":null,"stimulus":"<div style=\"font-size:60px;\">Next student</div>","response":null,"trial_type":"html-keyboard-response","trial_index":21,"time_elapsed":1140908,"internal_node_id":"0.0-20.0-0.0","params":{"nStudents":24,"maxFlips":25,"completionMinutes":45,"basePay":8,"maxBonus":9,"perTrialBonus":0.5,"perTrialBonusThreshold":0.05,"exampleCost":0.02},"classroomParams":{"A":{"a":1,"b":4},"B":{"a":4,"b":1},"C":{"a":2,"b":8},"D":{"a":8,"b":2}},"conditions":["nonSeqFull","nonSeqPartial","seqNoFeedback","seqFeedback"],"classroomPairings":[["A","B"],["C","D"]],"coinWeights":[0.2,0.5,0.8],"subjectId":"A2UR8ZKKO51K5N","assignmentId":"3RRCEFRB7NYTX22MFWO9LCB6WDR4BZ","hitId":"3IH9TRB0FBLK6RLF7MSMKICTGYN1IU","url":"https://gershmanlab.com/experiments/alicia/teaching/experiment/?hitId=3IH9TRB0FBLK6RLF7MSMKICTGYN1IU&workerId=A2UR8ZKKO51K5N&assignmentId=3RRCEFRB7NYTX22MFWO9LCB6WDR4BZ&a=BERR3&tp_a=BERR3&b=3RRCEFRB7NYTX22MFWO9LCB6WDR4BZ&tp_b=3RRCEFRB7NYTX22MFWO9LCB6WDR4BZ&c=365633&tp_c=365633"},{"rt":11259,"stimulus":"\n            <h4 style=\"color:Orange;\">Student 3</h4>\n            <h2>The weight of your coin is <b style=\"color:Tomato;\">0.8</b>.</h2>\n            <p>In this block, you will be giving <b>two</b> sets of examples to Student 3.</p>\n                <p>You will receive feedback at the end of the block.</p>\n            <p></p>","response":0,"trial_type":"html-button-response","trial_index":22,"time_elapsed":1152172,"internal_node_id":"0.0-21.0","params":{"nStudents":24,"maxFlips":25,"completionMinutes":45,"basePay":8,"maxBonus":9,"perTrialBonus":0.5,"perTrialBonusThreshold":0.05,"exampleCost":0.02},"classroomParams":{"A":{"a":1,"b":4},"B":{"a":4,"b":1},"C":{"a":2,"b":8},"D":{"a":8,"b":2}},"conditions":["nonSeqFull","nonSeqPartial","seqNoFeedback","seqFeedback"],"classroomPairings":[["A","B"],["C","D"]],"coinWeights":[0.2,0.5,0.8],"subjectId":"A2UR8ZKKO51K5N","assignmentId":"3RRCEFRB7NYTX22MFWO9LCB6WDR4BZ","hitId":"3IH9TRB0FBLK6RLF7MSMKICTGYN1IU","url":"https://gershmanlab.com/experiments/alicia/teaching/experiment/?hitId=3IH9TRB0FBLK6RLF7MSMKICTGYN1IU&workerId=A2UR8ZKKO51K5N&assignmentId=3RRCEFRB7NYTX22MFWO9LCB6WDR4BZ&a=BERR3&tp_a=BERR3&b=3RRCEFRB7NYTX22MFWO9LCB6WDR4BZ&tp_b=3RRCEFRB7NYTX22MFWO9LCB6WDR4BZ&c=365633&tp_c=365633"},{"rt":12056,"response":{"heads":"15","tails":"10"},"type":"response","condition":"seqNoFeedback","trueTheta":0.8,"classrooms":["A","B"],"studentTrueClassroom":"B","exampleSet":"first","trial_type":"survey-html-form","trial_index":23,"time_elapsed":1164253,"internal_node_id":"0.0-22.0-0.0","params":{"nStudents":24,"maxFlips":25,"completionMinutes":45,"basePay":8,"maxBonus":9,"perTrialBonus":0.5,"perTrialBonusThreshold":0.05,"exampleCost":0.02},"classroomParams":{"A":{"a":1,"b":4},"B":{"a":4,"b":1},"C":{"a":2,"b":8},"D":{"a":8,"b":2}},"conditions":["nonSeqFull","nonSeqPartial","seqNoFeedback","seqFeedback"],"classroomPairings":[["A","B"],["C","D"]],"coinWeights":[0.2,0.5,0.8],"subjectId":"A2UR8ZKKO51K5N","assignmentId":"3RRCEFRB7NYTX22MFWO9LCB6WDR4BZ","hitId":"3IH9TRB0FBLK6RLF7MSMKICTGYN1IU","url":"https://gershmanlab.com/experiments/alicia/teaching/experiment/?hitId=3IH9TRB0FBLK6RLF7MSMKICTGYN1IU&workerId=A2UR8ZKKO51K5N&assignmentId=3RRCEFRB7NYTX22MFWO9LCB6WDR4BZ&a=BERR3&tp_a=BERR3&b=3RRCEFRB7NYTX22MFWO9LCB6WDR4BZ&tp_b=3RRCEFRB7NYTX22MFWO9LCB6WDR4BZ&c=365633&tp_c=365633","heads":15,"tails":10,"studentIndex":2,"studentTrueHypers":{"a":4,"b":1},"studentGuess":0.6333333333333333,"delta":0.16666666666666674,"totalExamples":25,"bonusSoFar":0},{"rt":null,"stimulus":"Sending examples to student... ","response":null,"trial_type":"html-keyboard-response","trial_index":24,"time_elapsed":1165521,"internal_node_id":"0.0-23.0","params":{"nStudents":24,"maxFlips":25,"completionMinutes":45,"basePay":8,"maxBonus":9,"perTrialBonus":0.5,"perTrialBonusThreshold":0.05,"exampleCost":0.02},"classroomParams":{"A":{"a":1,"b":4},"B":{"a":4,"b":1},"C":{"a":2,"b":8},"D":{"a":8,"b":2}},"conditions":["nonSeqFull","nonSeqPartial","seqNoFeedback","seqFeedback"],"classroomPairings":[["A","B"],["C","D"]],"coinWeights":[0.2,0.5,0.8],"subjectId":"A2UR8ZKKO51K5N","assignmentId":"3RRCEFRB7NYTX22MFWO9LCB6WDR4BZ","hitId":"3IH9TRB0FBLK6RLF7MSMKICTGYN1IU","url":"https://gershmanlab.com/experiments/alicia/teaching/experiment/?hitId=3IH9TRB0FBLK6RLF7MSMKICTGYN1IU&workerId=A2UR8ZKKO51K5N&assignmentId=3RRCEFRB7NYTX22MFWO9LCB6WDR4BZ&a=BERR3&tp_a=BERR3&b=3RRCEFRB7NYTX22MFWO9LCB6WDR4BZ&tp_b=3RRCEFRB7NYTX22MFWO9LCB6WDR4BZ&c=365633&tp_c=365633"},{"rt":null,"stimulus":"Examples sent to student! Waiting for student...","response":null,"trial_type":"html-keyboard-response","trial_index":25,"time_elapsed":1171036,"internal_node_id":"0.0-24.0","params":{"nStudents":24,"maxFlips":25,"completionMinutes":45,"basePay":8,"maxBonus":9,"perTrialBonus":0.5,"perTrialBonusThreshold":0.05,"exampleCost":0.02},"classroomParams":{"A":{"a":1,"b":4},"B":{"a":4,"b":1},"C":{"a":2,"b":8},"D":{"a":8,"b":2}},"conditions":["nonSeqFull","nonSeqPartial","seqNoFeedback","seqFeedback"],"classroomPairings":[["A","B"],["C","D"]],"coinWeights":[0.2,0.5,0.8],"subjectId":"A2UR8ZKKO51K5N","assignmentId":"3RRCEFRB7NYTX22MFWO9LCB6WDR4BZ","hitId":"3IH9TRB0FBLK6RLF7MSMKICTGYN1IU","url":"https://gershmanlab.com/experiments/alicia/teaching/experiment/?hitId=3IH9TRB0FBLK6RLF7MSMKICTGYN1IU&workerId=A2UR8ZKKO51K5N&assignmentId=3RRCEFRB7NYTX22MFWO9LCB6WDR4BZ&a=BERR3&tp_a=BERR3&b=3RRCEFRB7NYTX22MFWO9LCB6WDR4BZ&tp_b=3RRCEFRB7NYTX22MFWO9LCB6WDR4BZ&c=365633&tp_c=365633"},{"rt":10340,"response":{"heads":"25","tails":"0"},"type":"response","condition":"seqNoFeedback","trueTheta":0.8,"classrooms":["A","B"],"studentTrueClassroom":"B","exampleSet":"second","trial_type":"survey-html-form","trial_index":26,"time_elapsed":1181385,"internal_node_id":"0.0-25.0-0.0","params":{"nStudents":24,"maxFlips":25,"completionMinutes":45,"basePay":8,"maxBonus":9,"perTrialBonus":0.5,"perTrialBonusThreshold":0.05,"exampleCost":0.02},"classroomParams":{"A":{"a":1,"b":4},"B":{"a":4,"b":1},"C":{"a":2,"b":8},"D":{"a":8,"b":2}},"conditions":["nonSeqFull","nonSeqPartial","seqNoFeedback","seqFeedback"],"classroomPairings":[["A","B"],["C","D"]],"coinWeights":[0.2,0.5,0.8],"subjectId":"A2UR8ZKKO51K5N","assignmentId":"3RRCEFRB7NYTX22MFWO9LCB6WDR4BZ","hitId":"3IH9TRB0FBLK6RLF7MSMKICTGYN1IU","url":"https://gershmanlab.com/experiments/alicia/teaching/experiment/?hitId=3IH9TRB0FBLK6RLF7MSMKICTGYN1IU&workerId=A2UR8ZKKO51K5N&assignmentId=3RRCEFRB7NYTX22MFWO9LCB6WDR4BZ&a=BERR3&tp_a=BERR3&b=3RRCEFRB7NYTX22MFWO9LCB6WDR4BZ&tp_b=3RRCEFRB7NYTX22MFWO9LCB6WDR4BZ&c=365633&tp_c=365633","firstResponseHeads":15,"firstResponseTails":10,"secondResponseHeads":25,"secondResponseTails":0,"totalHeads":40,"totalTails":10,"studentIndex":2,"studentTrueHypers":{"a":4,"b":1},"studentGuess":0.8,"delta":0,"bonus":0,"bonusSoFar":0,"totalExamples":50},{"rt":null,"stimulus":"Sending examples to student... ","response":null,"trial_type":"html-keyboard-response","trial_index":27,"time_elapsed":1182900,"internal_node_id":"0.0-26.0","params":{"nStudents":24,"maxFlips":25,"completionMinutes":45,"basePay":8,"maxBonus":9,"perTrialBonus":0.5,"perTrialBonusThreshold":0.05,"exampleCost":0.02},"classroomParams":{"A":{"a":1,"b":4},"B":{"a":4,"b":1},"C":{"a":2,"b":8},"D":{"a":8,"b":2}},"conditions":["nonSeqFull","nonSeqPartial","seqNoFeedback","seqFeedback"],"classroomPairings":[["A","B"],["C","D"]],"coinWeights":[0.2,0.5,0.8],"subjectId":"A2UR8ZKKO51K5N","assignmentId":"3RRCEFRB7NYTX22MFWO9LCB6WDR4BZ","hitId":"3IH9TRB0FBLK6RLF7MSMKICTGYN1IU","url":"https://gershmanlab.com/experiments/alicia/teaching/experiment/?hitId=3IH9TRB0FBLK6RLF7MSMKICTGYN1IU&workerId=A2UR8ZKKO51K5N&assignmentId=3RRCEFRB7NYTX22MFWO9LCB6WDR4BZ&a=BERR3&tp_a=BERR3&b=3RRCEFRB7NYTX22MFWO9LCB6WDR4BZ&tp_b=3RRCEFRB7NYTX22MFWO9LCB6WDR4BZ&c=365633&tp_c=365633"},{"rt":null,"stimulus":"Examples sent to student! Waiting for student...","response":null,"trial_type":"html-keyboard-response","trial_index":28,"time_elapsed":1188406,"internal_node_id":"0.0-27.0","params":{"nStudents":24,"maxFlips":25,"completionMinutes":45,"basePay":8,"maxBonus":9,"perTrialBonus":0.5,"perTrialBonusThreshold":0.05,"exampleCost":0.02},"classroomParams":{"A":{"a":1,"b":4},"B":{"a":4,"b":1},"C":{"a":2,"b":8},"D":{"a":8,"b":2}},"conditions":["nonSeqFull","nonSeqPartial","seqNoFeedback","seqFeedback"],"classroomPairings":[["A","B"],["C","D"]],"coinWeights":[0.2,0.5,0.8],"subjectId":"A2UR8ZKKO51K5N","assignmentId":"3RRCEFRB7NYTX22MFWO9LCB6WDR4BZ","hitId":"3IH9TRB0FBLK6RLF7MSMKICTGYN1IU","url":"https://gershmanlab.com/experiments/alicia/teaching/experiment/?hitId=3IH9TRB0FBLK6RLF7MSMKICTGYN1IU&workerId=A2UR8ZKKO51K5N&assignmentId=3RRCEFRB7NYTX22MFWO9LCB6WDR4BZ&a=BERR3&tp_a=BERR3&b=3RRCEFRB7NYTX22MFWO9LCB6WDR4BZ&tp_b=3RRCEFRB7NYTX22MFWO9LCB6WDR4BZ&c=365633&tp_c=365633"},{"rt":null,"stimulus":"\n                <p>Student 3's first guess for coin weight: <b style=\"color:Tomato\";>0.63</b></p>\n                <p>Student 3's second guess for coin weight: <b style=\"color:Tomato\";>0.80</b></p>\n                <p>You received a bonus of <b>$0.00</b> based on the student's second guess.</p>\n                <p>Total bonus so far: <b>$0.00</b></p>\n                <p>Press any key to continue.</p>\n                ","response":null,"trial_type":"html-keyboard-response","trial_index":29,"time_elapsed":1218428,"internal_node_id":"0.0-28.0","params":{"nStudents":24,"maxFlips":25,"completionMinutes":45,"basePay":8,"maxBonus":9,"perTrialBonus":0.5,"perTrialBonusThreshold":0.05,"exampleCost":0.02},"classroomParams":{"A":{"a":1,"b":4},"B":{"a":4,"b":1},"C":{"a":2,"b":8},"D":{"a":8,"b":2}},"conditions":["nonSeqFull","nonSeqPartial","seqNoFeedback","seqFeedback"],"classroomPairings":[["A","B"],["C","D"]],"coinWeights":[0.2,0.5,0.8],"subjectId":"A2UR8ZKKO51K5N","assignmentId":"3RRCEFRB7NYTX22MFWO9LCB6WDR4BZ","hitId":"3IH9TRB0FBLK6RLF7MSMKICTGYN1IU","url":"https://gershmanlab.com/experiments/alicia/teaching/experiment/?hitId=3IH9TRB0FBLK6RLF7MSMKICTGYN1IU&workerId=A2UR8ZKKO51K5N&assignmentId=3RRCEFRB7NYTX22MFWO9LCB6WDR4BZ&a=BERR3&tp_a=BERR3&b=3RRCEFRB7NYTX22MFWO9LCB6WDR4BZ&tp_b=3RRCEFRB7NYTX22MFWO9LCB6WDR4BZ&c=365633&tp_c=365633"},{"rt":null,"stimulus":"<div style=\"font-size:60px;\">Next student</div>","response":null,"trial_type":"html-keyboard-response","trial_index":30,"time_elapsed":1220442,"internal_node_id":"0.0-29.0-0.0","params":{"nStudents":24,"maxFlips":25,"completionMinutes":45,"basePay":8,"maxBonus":9,"perTrialBonus":0.5,"perTrialBonusThreshold":0.05,"exampleCost":0.02},"classroomParams":{"A":{"a":1,"b":4},"B":{"a":4,"b":1},"C":{"a":2,"b":8},"D":{"a":8,"b":2}},"conditions":["nonSeqFull","nonSeqPartial","seqNoFeedback","seqFeedback"],"classroomPairings":[["A","B"],["C","D"]],"coinWeights":[0.2,0.5,0.8],"subjectId":"A2UR8ZKKO51K5N","assignmentId":"3RRCEFRB7NYTX22MFWO9LCB6WDR4BZ","hitId":"3IH9TRB0FBLK6RLF7MSMKICTGYN1IU","url":"https://gershmanlab.com/experiments/alicia/teaching/experiment/?hitId=3IH9TRB0FBLK6RLF7MSMKICTGYN1IU&workerId=A2UR8ZKKO51K5N&assignmentId=3RRCEFRB7NYTX22MFWO9LCB6WDR4BZ&a=BERR3&tp_a=BERR3&b=3RRCEFRB7NYTX22MFWO9LCB6WDR4BZ&tp_b=3RRCEFRB7NYTX22MFWO9LCB6WDR4BZ&c=365633&tp_c=365633"},{"rt":99,"stimulus":"\n            <h4 style=\"color:Orange;\">Student 4</h4>\n            <h2>The weight of your coin is <b style=\"color:Tomato;\">0.5</b>.</h2>\n            <p>In this block, you will be giving <b>two</b> sets of examples to Student 4.</p>\n                <p>You will receive feedback at the end of the block.</p>\n            <p></p>","response":0,"trial_type":"html-button-response","trial_index":31,"time_elapsed":1220546,"internal_node_id":"0.0-30.0","params":{"nStudents":24,"maxFlips":25,"completionMinutes":45,"basePay":8,"maxBonus":9,"perTrialBonus":0.5,"perTrialBonusThreshold":0.05,"exampleCost":0.02},"classroomParams":{"A":{"a":1,"b":4},"B":{"a":4,"b":1},"C":{"a":2,"b":8},"D":{"a":8,"b":2}},"conditions":["nonSeqFull","nonSeqPartial","seqNoFeedback","seqFeedback"],"classroomPairings":[["A","B"],["C","D"]],"coinWeights":[0.2,0.5,0.8],"subjectId":"A2UR8ZKKO51K5N","assignmentId":"3RRCEFRB7NYTX22MFWO9LCB6WDR4BZ","hitId":"3IH9TRB0FBLK6RLF7MSMKICTGYN1IU","url":"https://gershmanlab.com/experiments/alicia/teaching/experiment/?hitId=3IH9TRB0FBLK6RLF7MSMKICTGYN1IU&workerId=A2UR8ZKKO51K5N&assignmentId=3RRCEFRB7NYTX22MFWO9LCB6WDR4BZ&a=BERR3&tp_a=BERR3&b=3RRCEFRB7NYTX22MFWO9LCB6WDR4BZ&tp_b=3RRCEFRB7NYTX22MFWO9LCB6WDR4BZ&c=365633&tp_c=365633"},{"rt":100609,"response":{"heads":"2","tails":"2"},"type":"response","condition":"seqNoFeedback","trueTheta":0.5,"classrooms":["A","B"],"studentTrueClassroom":"A","exampleSet":"first","trial_type":"survey-html-form","trial_index":32,"time_elapsed":1321163,"internal_node_id":"0.0-31.0-0.0","params":{"nStudents":24,"maxFlips":25,"completionMinutes":45,"basePay":8,"maxBonus":9,"perTrialBonus":0.5,"perTrialBonusThreshold":0.05,"exampleCost":0.02},"classroomParams":{"A":{"a":1,"b":4},"B":{"a":4,"b":1},"C":{"a":2,"b":8},"D":{"a":8,"b":2}},"conditions":["nonSeqFull","nonSeqPartial","seqNoFeedback","seqFeedback"],"classroomPairings":[["A","B"],["C","D"]],"coinWeights":[0.2,0.5,0.8],"subjectId":"A2UR8ZKKO51K5N","assignmentId":"3RRCEFRB7NYTX22MFWO9LCB6WDR4BZ","hitId":"3IH9TRB0FBLK6RLF7MSMKICTGYN1IU","url":"https://gershmanlab.com/experiments/alicia/teaching/experiment/?hitId=3IH9TRB0FBLK6RLF7MSMKICTGYN1IU&workerId=A2UR8ZKKO51K5N&assignmentId=3RRCEFRB7NYTX22MFWO9LCB6WDR4BZ&a=BERR3&tp_a=BERR3&b=3RRCEFRB7NYTX22MFWO9LCB6WDR4BZ&tp_b=3RRCEFRB7NYTX22MFWO9LCB6WDR4BZ&c=365633&tp_c=365633","heads":2,"tails":2,"studentIndex":3,"studentTrueHypers":{"a":1,"b":4},"studentGuess":0.3333333333333333,"delta":0.16666666666666669,"totalExamples":4,"bonusSoFar":0},{"rt":null,"stimulus":"Sending examples to student... ","response":null,"trial_type":"html-keyboard-response","trial_index":33,"time_elapsed":1322921,"internal_node_id":"0.0-32.0","params":{"nStudents":24,"maxFlips":25,"completionMinutes":45,"basePay":8,"maxBonus":9,"perTrialBonus":0.5,"perTrialBonusThreshold":0.05,"exampleCost":0.02},"classroomParams":{"A":{"a":1,"b":4},"B":{"a":4,"b":1},"C":{"a":2,"b":8},"D":{"a":8,"b":2}},"conditions":["nonSeqFull","nonSeqPartial","seqNoFeedback","seqFeedback"],"classroomPairings":[["A","B"],["C","D"]],"coinWeights":[0.2,0.5,0.8],"subjectId":"A2UR8ZKKO51K5N","assignmentId":"3RRCEFRB7NYTX22MFWO9LCB6WDR4BZ","hitId":"3IH9TRB0FBLK6RLF7MSMKICTGYN1IU","url":"https://gershmanlab.com/experiments/alicia/teaching/experiment/?hitId=3IH9TRB0FBLK6RLF7MSMKICTGYN1IU&workerId=A2UR8ZKKO51K5N&assignmentId=3RRCEFRB7NYTX22MFWO9LCB6WDR4BZ&a=BERR3&tp_a=BERR3&b=3RRCEFRB7NYTX22MFWO9LCB6WDR4BZ&tp_b=3RRCEFRB7NYTX22MFWO9LCB6WDR4BZ&c=365633&tp_c=365633"},{"rt":null,"stimulus":"Examples sent to student! Waiting for student...","response":null,"trial_type":"html-keyboard-response","trial_index":34,"time_elapsed":1328426,"internal_node_id":"0.0-33.0","params":{"nStudents":24,"maxFlips":25,"completionMinutes":45,"basePay":8,"maxBonus":9,"perTrialBonus":0.5,"perTrialBonusThreshold":0.05,"exampleCost":0.02},"classroomParams":{"A":{"a":1,"b":4},"B":{"a":4,"b":1},"C":{"a":2,"b":8},"D":{"a":8,"b":2}},"conditions":["nonSeqFull","nonSeqPartial","seqNoFeedback","seqFeedback"],"classroomPairings":[["A","B"],["C","D"]],"coinWeights":[0.2,0.5,0.8],"subjectId":"A2UR8ZKKO51K5N","assignmentId":"3RRCEFRB7NYTX22MFWO9LCB6WDR4BZ","hitId":"3IH9TRB0FBLK6RLF7MSMKICTGYN1IU","url":"https://gershmanlab.com/experiments/alicia/teaching/experiment/?hitId=3IH9TRB0FBLK6RLF7MSMKICTGYN1IU&workerId=A2UR8ZKKO51K5N&assignmentId=3RRCEFRB7NYTX22MFWO9LCB6WDR4BZ&a=BERR3&tp_a=BERR3&b=3RRCEFRB7NYTX22MFWO9LCB6WDR4BZ&tp_b=3RRCEFRB7NYTX22MFWO9LCB6WDR4BZ&c=365633&tp_c=365633"},{"rt":14930,"response":{"heads":"10","tails":"20"},"type":"response","condition":"seqNoFeedback","trueTheta":0.5,"classrooms":["A","B"],"studentTrueClassroom":"A","exampleSet":"second","trial_type":"survey-html-form","trial_index":35,"time_elapsed":1343366,"internal_node_id":"0.0-34.0-0.0","params":{"nStudents":24,"maxFlips":25,"completionMinutes":45,"basePay":8,"maxBonus":9,"perTrialBonus":0.5,"perTrialBonusThreshold":0.05,"exampleCost":0.02},"classroomParams":{"A":{"a":1,"b":4},"B":{"a":4,"b":1},"C":{"a":2,"b":8},"D":{"a":8,"b":2}},"conditions":["nonSeqFull","nonSeqPartial","seqNoFeedback","seqFeedback"],"classroomPairings":[["A","B"],["C","D"]],"coinWeights":[0.2,0.5,0.8],"subjectId":"A2UR8ZKKO51K5N","assignmentId":"3RRCEFRB7NYTX22MFWO9LCB6WDR4BZ","hitId":"3IH9TRB0FBLK6RLF7MSMKICTGYN1IU","url":"https://gershmanlab.com/experiments/alicia/teaching/experiment/?hitId=3IH9TRB0FBLK6RLF7MSMKICTGYN1IU&workerId=A2UR8ZKKO51K5N&assignmentId=3RRCEFRB7NYTX22MFWO9LCB6WDR4BZ&a=BERR3&tp_a=BERR3&b=3RRCEFRB7NYTX22MFWO9LCB6WDR4BZ&tp_b=3RRCEFRB7NYTX22MFWO9LCB6WDR4BZ&c=365633&tp_c=365633","firstResponseHeads":2,"firstResponseTails":2,"secondResponseHeads":10,"secondResponseTails":20,"totalHeads":12,"totalTails":22,"studentIndex":3,"studentTrueHypers":{"a":1,"b":4},"studentGuess":0.3333333333333333,"delta":0.16666666666666669,"bonus":0,"bonusSoFar":0,"totalExamples":34},{"rt":10544,"response":{"heads":"10","tails":"10"},"type":"response","condition":"seqNoFeedback","trueTheta":0.5,"classrooms":["A","B"],"studentTrueClassroom":"A","exampleSet":"second","trial_type":"survey-html-form","trial_index":36,"time_elapsed":1353930,"internal_node_id":"0.0-34.1-0.1","params":{"nStudents":24,"maxFlips":25,"completionMinutes":45,"basePay":8,"maxBonus":9,"perTrialBonus":0.5,"perTrialBonusThreshold":0.05,"exampleCost":0.02},"classroomParams":{"A":{"a":1,"b":4},"B":{"a":4,"b":1},"C":{"a":2,"b":8},"D":{"a":8,"b":2}},"conditions":["nonSeqFull","nonSeqPartial","seqNoFeedback","seqFeedback"],"classroomPairings":[["A","B"],["C","D"]],"coinWeights":[0.2,0.5,0.8],"subjectId":"A2UR8ZKKO51K5N","assignmentId":"3RRCEFRB7NYTX22MFWO9LCB6WDR4BZ","hitId":"3IH9TRB0FBLK6RLF7MSMKICTGYN1IU","url":"https://gershmanlab.com/experiments/alicia/teaching/experiment/?hitId=3IH9TRB0FBLK6RLF7MSMKICTGYN1IU&workerId=A2UR8ZKKO51K5N&assignmentId=3RRCEFRB7NYTX22MFWO9LCB6WDR4BZ&a=BERR3&tp_a=BERR3&b=3RRCEFRB7NYTX22MFWO9LCB6WDR4BZ&tp_b=3RRCEFRB7NYTX22MFWO9LCB6WDR4BZ&c=365633&tp_c=365633","firstResponseHeads":2,"firstResponseTails":2,"secondResponseHeads":10,"secondResponseTails":10,"totalHeads":12,"totalTails":12,"studentIndex":3,"studentTrueHypers":{"a":1,"b":4},"studentGuess":0.4482758620689655,"delta":0.051724137931034475,"bonus":0,"bonusSoFar":0,"totalExamples":24},{"rt":null,"stimulus":"Sending examples to student... ","response":null,"trial_type":"html-keyboard-response","trial_index":37,"time_elapsed":1355958,"internal_node_id":"0.0-35.0","params":{"nStudents":24,"maxFlips":25,"completionMinutes":45,"basePay":8,"maxBonus":9,"perTrialBonus":0.5,"perTrialBonusThreshold":0.05,"exampleCost":0.02},"classroomParams":{"A":{"a":1,"b":4},"B":{"a":4,"b":1},"C":{"a":2,"b":8},"D":{"a":8,"b":2}},"conditions":["nonSeqFull","nonSeqPartial","seqNoFeedback","seqFeedback"],"classroomPairings":[["A","B"],["C","D"]],"coinWeights":[0.2,0.5,0.8],"subjectId":"A2UR8ZKKO51K5N","assignmentId":"3RRCEFRB7NYTX22MFWO9LCB6WDR4BZ","hitId":"3IH9TRB0FBLK6RLF7MSMKICTGYN1IU","url":"https://gershmanlab.com/experiments/alicia/teaching/experiment/?hitId=3IH9TRB0FBLK6RLF7MSMKICTGYN1IU&workerId=A2UR8ZKKO51K5N&assignmentId=3RRCEFRB7NYTX22MFWO9LCB6WDR4BZ&a=BERR3&tp_a=BERR3&b=3RRCEFRB7NYTX22MFWO9LCB6WDR4BZ&tp_b=3RRCEFRB7NYTX22MFWO9LCB6WDR4BZ&c=365633&tp_c=365633"},{"rt":null,"stimulus":"Examples sent to student! Waiting for student...","response":null,"trial_type":"html-keyboard-response","trial_index":38,"time_elapsed":1360468,"internal_node_id":"0.0-36.0","params":{"nStudents":24,"maxFlips":25,"completionMinutes":45,"basePay":8,"maxBonus":9,"perTrialBonus":0.5,"perTrialBonusThreshold":0.05,"exampleCost":0.02},"classroomParams":{"A":{"a":1,"b":4},"B":{"a":4,"b":1},"C":{"a":2,"b":8},"D":{"a":8,"b":2}},"conditions":["nonSeqFull","nonSeqPartial","seqNoFeedback","seqFeedback"],"classroomPairings":[["A","B"],["C","D"]],"coinWeights":[0.2,0.5,0.8],"subjectId":"A2UR8ZKKO51K5N","assignmentId":"3RRCEFRB7NYTX22MFWO9LCB6WDR4BZ","hitId":"3IH9TRB0FBLK6RLF7MSMKICTGYN1IU","url":"https://gershmanlab.com/experiments/alicia/teaching/experiment/?hitId=3IH9TRB0FBLK6RLF7MSMKICTGYN1IU&workerId=A2UR8ZKKO51K5N&assignmentId=3RRCEFRB7NYTX22MFWO9LCB6WDR4BZ&a=BERR3&tp_a=BERR3&b=3RRCEFRB7NYTX22MFWO9LCB6WDR4BZ&tp_b=3RRCEFRB7NYTX22MFWO9LCB6WDR4BZ&c=365633&tp_c=365633"},{"rt":1764,"stimulus":"\n                <p>Student 4's first guess for coin weight: <b style=\"color:Tomato\";>0.33</b></p>\n                <p>Student 4's second guess for coin weight: <b style=\"color:Tomato\";>0.33</b></p>\n                <p>You received a bonus of <b>$0.00</b> based on the student's second guess.</p>\n                <p>Total bonus so far: <b>$0.00</b></p>\n                <p>Press any key to continue.</p>\n                ","response":" ","trial_type":"html-keyboard-response","trial_index":39,"time_elapsed":1362235,"internal_node_id":"0.0-37.0","params":{"nStudents":24,"maxFlips":25,"completionMinutes":45,"basePay":8,"maxBonus":9,"perTrialBonus":0.5,"perTrialBonusThreshold":0.05,"exampleCost":0.02},"classroomParams":{"A":{"a":1,"b":4},"B":{"a":4,"b":1},"C":{"a":2,"b":8},"D":{"a":8,"b":2}},"conditions":["nonSeqFull","nonSeqPartial","seqNoFeedback","seqFeedback"],"classroomPairings":[["A","B"],["C","D"]],"coinWeights":[0.2,0.5,0.8],"subjectId":"A2UR8ZKKO51K5N","assignmentId":"3RRCEFRB7NYTX22MFWO9LCB6WDR4BZ","hitId":"3IH9TRB0FBLK6RLF7MSMKICTGYN1IU","url":"https://gershmanlab.com/experiments/alicia/teaching/experiment/?hitId=3IH9TRB0FBLK6RLF7MSMKICTGYN1IU&workerId=A2UR8ZKKO51K5N&assignmentId=3RRCEFRB7NYTX22MFWO9LCB6WDR4BZ&a=BERR3&tp_a=BERR3&b=3RRCEFRB7NYTX22MFWO9LCB6WDR4BZ&tp_b=3RRCEFRB7NYTX22MFWO9LCB6WDR4BZ&c=365633&tp_c=365633"},{"rt":null,"stimulus":"<div style=\"font-size:60px;\">Next student</div>","response":null,"trial_type":"html-keyboard-response","trial_index":40,"time_elapsed":1364485,"internal_node_id":"0.0-38.0-0.0","params":{"nStudents":24,"maxFlips":25,"completionMinutes":45,"basePay":8,"maxBonus":9,"perTrialBonus":0.5,"perTrialBonusThreshold":0.05,"exampleCost":0.02},"classroomParams":{"A":{"a":1,"b":4},"B":{"a":4,"b":1},"C":{"a":2,"b":8},"D":{"a":8,"b":2}},"conditions":["nonSeqFull","nonSeqPartial","seqNoFeedback","seqFeedback"],"classroomPairings":[["A","B"],["C","D"]],"coinWeights":[0.2,0.5,0.8],"subjectId":"A2UR8ZKKO51K5N","assignmentId":"3RRCEFRB7NYTX22MFWO9LCB6WDR4BZ","hitId":"3IH9TRB0FBLK6RLF7MSMKICTGYN1IU","url":"https://gershmanlab.com/experiments/alicia/teaching/experiment/?hitId=3IH9TRB0FBLK6RLF7MSMKICTGYN1IU&workerId=A2UR8ZKKO51K5N&assignmentId=3RRCEFRB7NYTX22MFWO9LCB6WDR4BZ&a=BERR3&tp_a=BERR3&b=3RRCEFRB7NYTX22MFWO9LCB6WDR4BZ&tp_b=3RRCEFRB7NYTX22MFWO9LCB6WDR4BZ&c=365633&tp_c=365633"},{"rt":2020,"stimulus":"\n            <h4 style=\"color:Orange;\">Student 5</h4>\n            <h2>The weight of your coin is <b style=\"color:Tomato;\">0.5</b>.</h2>\n            <p>In this block, you will be giving <b>one</b> set of examples to Student 5.</p>\n                <p>You will receive feedback at the end of the block.</p>\n            <p></p>","response":0,"trial_type":"html-button-response","trial_index":41,"time_elapsed":1366513,"internal_node_id":"0.0-39.0","params":{"nStudents":24,"maxFlips":25,"completionMinutes":45,"basePay":8,"maxBonus":9,"perTrialBonus":0.5,"perTrialBonusThreshold":0.05,"exampleCost":0.02},"classroomParams":{"A":{"a":1,"b":4},"B":{"a":4,"b":1},"C":{"a":2,"b":8},"D":{"a":8,"b":2}},"conditions":["nonSeqFull","nonSeqPartial","seqNoFeedback","seqFeedback"],"classroomPairings":[["A","B"],["C","D"]],"coinWeights":[0.2,0.5,0.8],"subjectId":"A2UR8ZKKO51K5N","assignmentId":"3RRCEFRB7NYTX22MFWO9LCB6WDR4BZ","hitId":"3IH9TRB0FBLK6RLF7MSMKICTGYN1IU","url":"https://gershmanlab.com/experiments/alicia/teaching/experiment/?hitId=3IH9TRB0FBLK6RLF7MSMKICTGYN1IU&workerId=A2UR8ZKKO51K5N&assignmentId=3RRCEFRB7NYTX22MFWO9LCB6WDR4BZ&a=BERR3&tp_a=BERR3&b=3RRCEFRB7NYTX22MFWO9LCB6WDR4BZ&tp_b=3RRCEFRB7NYTX22MFWO9LCB6WDR4BZ&c=365633&tp_c=365633"},{"rt":17295,"response":{"heads":"10","tails":"10"},"type":"response","condition":"nonSeqFull","trueTheta":0.5,"classrooms":["C","D"],"studentTrueClassroom":"C","exampleSet":"first","trial_type":"survey-html-form","trial_index":42,"time_elapsed":1383824,"internal_node_id":"0.0-40.0-0.0","params":{"nStudents":24,"maxFlips":25,"completionMinutes":45,"basePay":8,"maxBonus":9,"perTrialBonus":0.5,"perTrialBonusThreshold":0.05,"exampleCost":0.02},"classroomParams":{"A":{"a":1,"b":4},"B":{"a":4,"b":1},"C":{"a":2,"b":8},"D":{"a":8,"b":2}},"conditions":["nonSeqFull","nonSeqPartial","seqNoFeedback","seqFeedback"],"classroomPairings":[["A","B"],["C","D"]],"coinWeights":[0.2,0.5,0.8],"subjectId":"A2UR8ZKKO51K5N","assignmentId":"3RRCEFRB7NYTX22MFWO9LCB6WDR4BZ","hitId":"3IH9TRB0FBLK6RLF7MSMKICTGYN1IU","url":"https://gershmanlab.com/experiments/alicia/teaching/experiment/?hitId=3IH9TRB0FBLK6RLF7MSMKICTGYN1IU&workerId=A2UR8ZKKO51K5N&assignmentId=3RRCEFRB7NYTX22MFWO9LCB6WDR4BZ&a=BERR3&tp_a=BERR3&b=3RRCEFRB7NYTX22MFWO9LCB6WDR4BZ&tp_b=3RRCEFRB7NYTX22MFWO9LCB6WDR4BZ&c=365633&tp_c=365633","heads":10,"tails":10,"studentIndex":4,"studentTrueHypers":{"a":2,"b":8},"studentGuess":0.4,"delta":0.09999999999999998,"totalExamples":20,"bonus":0,"bonusSoFar":0},{"rt":null,"stimulus":"Sending examples to student... ","response":null,"trial_type":"html-keyboard-response","trial_index":43,"time_elapsed":1385358,"internal_node_id":"0.0-41.0","params":{"nStudents":24,"maxFlips":25,"completionMinutes":45,"basePay":8,"maxBonus":9,"perTrialBonus":0.5,"perTrialBonusThreshold":0.05,"exampleCost":0.02},"classroomParams":{"A":{"a":1,"b":4},"B":{"a":4,"b":1},"C":{"a":2,"b":8},"D":{"a":8,"b":2}},"conditions":["nonSeqFull","nonSeqPartial","seqNoFeedback","seqFeedback"],"classroomPairings":[["A","B"],["C","D"]],"coinWeights":[0.2,0.5,0.8],"subjectId":"A2UR8ZKKO51K5N","assignmentId":"3RRCEFRB7NYTX22MFWO9LCB6WDR4BZ","hitId":"3IH9TRB0FBLK6RLF7MSMKICTGYN1IU","url":"https://gershmanlab.com/experiments/alicia/teaching/experiment/?hitId=3IH9TRB0FBLK6RLF7MSMKICTGYN1IU&workerId=A2UR8ZKKO51K5N&assignmentId=3RRCEFRB7NYTX22MFWO9LCB6WDR4BZ&a=BERR3&tp_a=BERR3&b=3RRCEFRB7NYTX22MFWO9LCB6WDR4BZ&tp_b=3RRCEFRB7NYTX22MFWO9LCB6WDR4BZ&c=365633&tp_c=365633"},{"rt":null,"stimulus":"Examples sent to student! Waiting for student...","response":null,"trial_type":"html-keyboard-response","trial_index":44,"time_elapsed":1389364,"internal_node_id":"0.0-42.0","params":{"nStudents":24,"maxFlips":25,"completionMinutes":45,"basePay":8,"maxBonus":9,"perTrialBonus":0.5,"perTrialBonusThreshold":0.05,"exampleCost":0.02},"classroomParams":{"A":{"a":1,"b":4},"B":{"a":4,"b":1},"C":{"a":2,"b":8},"D":{"a":8,"b":2}},"conditions":["nonSeqFull","nonSeqPartial","seqNoFeedback","seqFeedback"],"classroomPairings":[["A","B"],["C","D"]],"coinWeights":[0.2,0.5,0.8],"subjectId":"A2UR8ZKKO51K5N","assignmentId":"3RRCEFRB7NYTX22MFWO9LCB6WDR4BZ","hitId":"3IH9TRB0FBLK6RLF7MSMKICTGYN1IU","url":"https://gershmanlab.com/experiments/alicia/teaching/experiment/?hitId=3IH9TRB0FBLK6RLF7MSMKICTGYN1IU&workerId=A2UR8ZKKO51K5N&assignmentId=3RRCEFRB7NYTX22MFWO9LCB6WDR4BZ&a=BERR3&tp_a=BERR3&b=3RRCEFRB7NYTX22MFWO9LCB6WDR4BZ&tp_b=3RRCEFRB7NYTX22MFWO9LCB6WDR4BZ&c=365633&tp_c=365633"},{"rt":3580,"stimulus":"\n                <p>Student's guess for coin weight: <b style=\"color:Tomato;\">0.40</b></p>\n                <p>You received a bonus of <b>$0</b>. Total bonus so far: <b>$0.00</b></b></p>\n                <p></p>\n                <p>Press any key to continue.</p>\n                ","response":" ","trial_type":"html-keyboard-response","trial_index":45,"time_elapsed":1392948,"internal_node_id":"0.0-43.0","params":{"nStudents":24,"maxFlips":25,"completionMinutes":45,"basePay":8,"maxBonus":9,"perTrialBonus":0.5,"perTrialBonusThreshold":0.05,"exampleCost":0.02},"classroomParams":{"A":{"a":1,"b":4},"B":{"a":4,"b":1},"C":{"a":2,"b":8},"D":{"a":8,"b":2}},"conditions":["nonSeqFull","nonSeqPartial","seqNoFeedback","seqFeedback"],"classroomPairings":[["A","B"],["C","D"]],"coinWeights":[0.2,0.5,0.8],"subjectId":"A2UR8ZKKO51K5N","assignmentId":"3RRCEFRB7NYTX22MFWO9LCB6WDR4BZ","hitId":"3IH9TRB0FBLK6RLF7MSMKICTGYN1IU","url":"https://gershmanlab.com/experiments/alicia/teaching/experiment/?hitId=3IH9TRB0FBLK6RLF7MSMKICTGYN1IU&workerId=A2UR8ZKKO51K5N&assignmentId=3RRCEFRB7NYTX22MFWO9LCB6WDR4BZ&a=BERR3&tp_a=BERR3&b=3RRCEFRB7NYTX22MFWO9LCB6WDR4BZ&tp_b=3RRCEFRB7NYTX22MFWO9LCB6WDR4BZ&c=365633&tp_c=365633"},{"rt":null,"stimulus":"<div style=\"font-size:60px;\">Next student</div>","response":null,"trial_type":"html-keyboard-response","trial_index":46,"time_elapsed":1395206,"internal_node_id":"0.0-44.0-0.0","params":{"nStudents":24,"maxFlips":25,"completionMinutes":45,"basePay":8,"maxBonus":9,"perTrialBonus":0.5,"perTrialBonusThreshold":0.05,"exampleCost":0.02},"classroomParams":{"A":{"a":1,"b":4},"B":{"a":4,"b":1},"C":{"a":2,"b":8},"D":{"a":8,"b":2}},"conditions":["nonSeqFull","nonSeqPartial","seqNoFeedback","seqFeedback"],"classroomPairings":[["A","B"],["C","D"]],"coinWeights":[0.2,0.5,0.8],"subjectId":"A2UR8ZKKO51K5N","assignmentId":"3RRCEFRB7NYTX22MFWO9LCB6WDR4BZ","hitId":"3IH9TRB0FBLK6RLF7MSMKICTGYN1IU","url":"https://gershmanlab.com/experiments/alicia/teaching/experiment/?hitId=3IH9TRB0FBLK6RLF7MSMKICTGYN1IU&workerId=A2UR8ZKKO51K5N&assignmentId=3RRCEFRB7NYTX22MFWO9LCB6WDR4BZ&a=BERR3&tp_a=BERR3&b=3RRCEFRB7NYTX22MFWO9LCB6WDR4BZ&tp_b=3RRCEFRB7NYTX22MFWO9LCB6WDR4BZ&c=365633&tp_c=365633"},{"rt":1667,"stimulus":"\n            <h4 style=\"color:Orange;\">Student 6</h4>\n            <h2>The weight of your coin is <b style=\"color:Tomato;\">0.5</b>.</h2>\n            <p>In this block, you will be giving <b>one</b> set of examples to Student 6.</p>\n                <p>You will receive feedback at the end of the block.</p>\n            <p></p>","response":0,"trial_type":"html-button-response","trial_index":47,"time_elapsed":1396880,"internal_node_id":"0.0-45.0","params":{"nStudents":24,"maxFlips":25,"completionMinutes":45,"basePay":8,"maxBonus":9,"perTrialBonus":0.5,"perTrialBonusThreshold":0.05,"exampleCost":0.02},"classroomParams":{"A":{"a":1,"b":4},"B":{"a":4,"b":1},"C":{"a":2,"b":8},"D":{"a":8,"b":2}},"conditions":["nonSeqFull","nonSeqPartial","seqNoFeedback","seqFeedback"],"classroomPairings":[["A","B"],["C","D"]],"coinWeights":[0.2,0.5,0.8],"subjectId":"A2UR8ZKKO51K5N","assignmentId":"3RRCEFRB7NYTX22MFWO9LCB6WDR4BZ","hitId":"3IH9TRB0FBLK6RLF7MSMKICTGYN1IU","url":"https://gershmanlab.com/experiments/alicia/teaching/experiment/?hitId=3IH9TRB0FBLK6RLF7MSMKICTGYN1IU&workerId=A2UR8ZKKO51K5N&assignmentId=3RRCEFRB7NYTX22MFWO9LCB6WDR4BZ&a=BERR3&tp_a=BERR3&b=3RRCEFRB7NYTX22MFWO9LCB6WDR4BZ&tp_b=3RRCEFRB7NYTX22MFWO9LCB6WDR4BZ&c=365633&tp_c=365633"},{"rt":19040,"response":{"heads":"4","tails":"1"},"type":"response","condition":"nonSeqFull","trueTheta":0.5,"classrooms":["A","B"],"studentTrueClassroom":"B","exampleSet":"first","trial_type":"survey-html-form","trial_index":48,"time_elapsed":1415935,"internal_node_id":"0.0-46.0-0.0","params":{"nStudents":24,"maxFlips":25,"completionMinutes":45,"basePay":8,"maxBonus":9,"perTrialBonus":0.5,"perTrialBonusThreshold":0.05,"exampleCost":0.02},"classroomParams":{"A":{"a":1,"b":4},"B":{"a":4,"b":1},"C":{"a":2,"b":8},"D":{"a":8,"b":2}},"conditions":["nonSeqFull","nonSeqPartial","seqNoFeedback","seqFeedback"],"classroomPairings":[["A","B"],["C","D"]],"coinWeights":[0.2,0.5,0.8],"subjectId":"A2UR8ZKKO51K5N","assignmentId":"3RRCEFRB7NYTX22MFWO9LCB6WDR4BZ","hitId":"3IH9TRB0FBLK6RLF7MSMKICTGYN1IU","url":"https://gershmanlab.com/experiments/alicia/teaching/experiment/?hitId=3IH9TRB0FBLK6RLF7MSMKICTGYN1IU&workerId=A2UR8ZKKO51K5N&assignmentId=3RRCEFRB7NYTX22MFWO9LCB6WDR4BZ&a=BERR3&tp_a=BERR3&b=3RRCEFRB7NYTX22MFWO9LCB6WDR4BZ&tp_b=3RRCEFRB7NYTX22MFWO9LCB6WDR4BZ&c=365633&tp_c=365633","heads":4,"tails":1,"studentIndex":5,"studentTrueHypers":{"a":4,"b":1},"studentGuess":0.8,"delta":0.30000000000000004,"totalExamples":5,"bonus":0,"bonusSoFar":0},{"rt":null,"stimulus":"Sending examples to student... ","response":null,"trial_type":"html-keyboard-response","trial_index":49,"time_elapsed":1417457,"internal_node_id":"0.0-47.0","params":{"nStudents":24,"maxFlips":25,"completionMinutes":45,"basePay":8,"maxBonus":9,"perTrialBonus":0.5,"perTrialBonusThreshold":0.05,"exampleCost":0.02},"classroomParams":{"A":{"a":1,"b":4},"B":{"a":4,"b":1},"C":{"a":2,"b":8},"D":{"a":8,"b":2}},"conditions":["nonSeqFull","nonSeqPartial","seqNoFeedback","seqFeedback"],"classroomPairings":[["A","B"],["C","D"]],"coinWeights":[0.2,0.5,0.8],"subjectId":"A2UR8ZKKO51K5N","assignmentId":"3RRCEFRB7NYTX22MFWO9LCB6WDR4BZ","hitId":"3IH9TRB0FBLK6RLF7MSMKICTGYN1IU","url":"https://gershmanlab.com/experiments/alicia/teaching/experiment/?hitId=3IH9TRB0FBLK6RLF7MSMKICTGYN1IU&workerId=A2UR8ZKKO51K5N&assignmentId=3RRCEFRB7NYTX22MFWO9LCB6WDR4BZ&a=BERR3&tp_a=BERR3&b=3RRCEFRB7NYTX22MFWO9LCB6WDR4BZ&tp_b=3RRCEFRB7NYTX22MFWO9LCB6WDR4BZ&c=365633&tp_c=365633"},{"rt":null,"stimulus":"Examples sent to student! Waiting for student...","response":null,"trial_type":"html-keyboard-response","trial_index":50,"time_elapsed":1422963,"internal_node_id":"0.0-48.0","params":{"nStudents":24,"maxFlips":25,"completionMinutes":45,"basePay":8,"maxBonus":9,"perTrialBonus":0.5,"perTrialBonusThreshold":0.05,"exampleCost":0.02},"classroomParams":{"A":{"a":1,"b":4},"B":{"a":4,"b":1},"C":{"a":2,"b":8},"D":{"a":8,"b":2}},"conditions":["nonSeqFull","nonSeqPartial","seqNoFeedback","seqFeedback"],"classroomPairings":[["A","B"],["C","D"]],"coinWeights":[0.2,0.5,0.8],"subjectId":"A2UR8ZKKO51K5N","assignmentId":"3RRCEFRB7NYTX22MFWO9LCB6WDR4BZ","hitId":"3IH9TRB0FBLK6RLF7MSMKICTGYN1IU","url":"https://gershmanlab.com/experiments/alicia/teaching/experiment/?hitId=3IH9TRB0FBLK6RLF7MSMKICTGYN1IU&workerId=A2UR8ZKKO51K5N&assignmentId=3RRCEFRB7NYTX22MFWO9LCB6WDR4BZ&a=BERR3&tp_a=BERR3&b=3RRCEFRB7NYTX22MFWO9LCB6WDR4BZ&tp_b=3RRCEFRB7NYTX22MFWO9LCB6WDR4BZ&c=365633&tp_c=365633"},{"rt":4410,"stimulus":"\n                <p>Student's guess for coin weight: <b style=\"color:Tomato;\">0.80</b></p>\n                <p>You received a bonus of <b>$0</b>. Total bonus so far: <b>$0.00</b></b></p>\n                <p></p>\n                <p>Press any key to continue.</p>\n                ","response":" ","trial_type":"html-keyboard-response","trial_index":51,"time_elapsed":1427385,"internal_node_id":"0.0-49.0","params":{"nStudents":24,"maxFlips":25,"completionMinutes":45,"basePay":8,"maxBonus":9,"perTrialBonus":0.5,"perTrialBonusThreshold":0.05,"exampleCost":0.02},"classroomParams":{"A":{"a":1,"b":4},"B":{"a":4,"b":1},"C":{"a":2,"b":8},"D":{"a":8,"b":2}},"conditions":["nonSeqFull","nonSeqPartial","seqNoFeedback","seqFeedback"],"classroomPairings":[["A","B"],["C","D"]],"coinWeights":[0.2,0.5,0.8],"subjectId":"A2UR8ZKKO51K5N","assignmentId":"3RRCEFRB7NYTX22MFWO9LCB6WDR4BZ","hitId":"3IH9TRB0FBLK6RLF7MSMKICTGYN1IU","url":"https://gershmanlab.com/experiments/alicia/teaching/experiment/?hitId=3IH9TRB0FBLK6RLF7MSMKICTGYN1IU&workerId=A2UR8ZKKO51K5N&assignmentId=3RRCEFRB7NYTX22MFWO9LCB6WDR4BZ&a=BERR3&tp_a=BERR3&b=3RRCEFRB7NYTX22MFWO9LCB6WDR4BZ&tp_b=3RRCEFRB7NYTX22MFWO9LCB6WDR4BZ&c=365633&tp_c=365633"},{"rt":null,"stimulus":"<div style=\"font-size:60px;\">Next student</div>","response":null,"trial_type":"html-keyboard-response","trial_index":52,"time_elapsed":1430402,"internal_node_id":"0.0-50.0-0.0","params":{"nStudents":24,"maxFlips":25,"completionMinutes":45,"basePay":8,"maxBonus":9,"perTrialBonus":0.5,"perTrialBonusThreshold":0.05,"exampleCost":0.02},"classroomParams":{"A":{"a":1,"b":4},"B":{"a":4,"b":1},"C":{"a":2,"b":8},"D":{"a":8,"b":2}},"conditions":["nonSeqFull","nonSeqPartial","seqNoFeedback","seqFeedback"],"classroomPairings":[["A","B"],["C","D"]],"coinWeights":[0.2,0.5,0.8],"subjectId":"A2UR8ZKKO51K5N","assignmentId":"3RRCEFRB7NYTX22MFWO9LCB6WDR4BZ","hitId":"3IH9TRB0FBLK6RLF7MSMKICTGYN1IU","url":"https://gershmanlab.com/experiments/alicia/teaching/experiment/?hitId=3IH9TRB0FBLK6RLF7MSMKICTGYN1IU&workerId=A2UR8ZKKO51K5N&assignmentId=3RRCEFRB7NYTX22MFWO9LCB6WDR4BZ&a=BERR3&tp_a=BERR3&b=3RRCEFRB7NYTX22MFWO9LCB6WDR4BZ&tp_b=3RRCEFRB7NYTX22MFWO9LCB6WDR4BZ&c=365633&tp_c=365633"},{"rt":6562,"stimulus":"\n            <h4 style=\"color:Orange;\">Student 7</h4>\n            <h2>The weight of your coin is <b style=\"color:Tomato;\">0.5</b>.</h2>\n            <p>In this block, you will be giving <b>one</b> set of examples to Student 7.</p>\n                <p>You will receive feedback at the end of the block.</p>\n            <p></p>","response":0,"trial_type":"html-button-response","trial_index":53,"time_elapsed":1436971,"internal_node_id":"0.0-51.0","params":{"nStudents":24,"maxFlips":25,"completionMinutes":45,"basePay":8,"maxBonus":9,"perTrialBonus":0.5,"perTrialBonusThreshold":0.05,"exampleCost":0.02},"classroomParams":{"A":{"a":1,"b":4},"B":{"a":4,"b":1},"C":{"a":2,"b":8},"D":{"a":8,"b":2}},"conditions":["nonSeqFull","nonSeqPartial","seqNoFeedback","seqFeedback"],"classroomPairings":[["A","B"],["C","D"]],"coinWeights":[0.2,0.5,0.8],"subjectId":"A2UR8ZKKO51K5N","assignmentId":"3RRCEFRB7NYTX22MFWO9LCB6WDR4BZ","hitId":"3IH9TRB0FBLK6RLF7MSMKICTGYN1IU","url":"https://gershmanlab.com/experiments/alicia/teaching/experiment/?hitId=3IH9TRB0FBLK6RLF7MSMKICTGYN1IU&workerId=A2UR8ZKKO51K5N&assignmentId=3RRCEFRB7NYTX22MFWO9LCB6WDR4BZ&a=BERR3&tp_a=BERR3&b=3RRCEFRB7NYTX22MFWO9LCB6WDR4BZ&tp_b=3RRCEFRB7NYTX22MFWO9LCB6WDR4BZ&c=365633&tp_c=365633"},{"rt":6705,"response":{"heads":"3","tails":"0"},"type":"response","condition":"nonSeqPartial","trueTheta":0.5,"classrooms":["C","D"],"studentTrueClassroom":"D","exampleSet":"first","trial_type":"survey-html-form","trial_index":54,"time_elapsed":1443692,"internal_node_id":"0.0-52.0-0.0","params":{"nStudents":24,"maxFlips":25,"completionMinutes":45,"basePay":8,"maxBonus":9,"perTrialBonus":0.5,"perTrialBonusThreshold":0.05,"exampleCost":0.02},"classroomParams":{"A":{"a":1,"b":4},"B":{"a":4,"b":1},"C":{"a":2,"b":8},"D":{"a":8,"b":2}},"conditions":["nonSeqFull","nonSeqPartial","seqNoFeedback","seqFeedback"],"classroomPairings":[["A","B"],["C","D"]],"coinWeights":[0.2,0.5,0.8],"subjectId":"A2UR8ZKKO51K5N","assignmentId":"3RRCEFRB7NYTX22MFWO9LCB6WDR4BZ","hitId":"3IH9TRB0FBLK6RLF7MSMKICTGYN1IU","url":"https://gershmanlab.com/experiments/alicia/teaching/experiment/?hitId=3IH9TRB0FBLK6RLF7MSMKICTGYN1IU&workerId=A2UR8ZKKO51K5N&assignmentId=3RRCEFRB7NYTX22MFWO9LCB6WDR4BZ&a=BERR3&tp_a=BERR3&b=3RRCEFRB7NYTX22MFWO9LCB6WDR4BZ&tp_b=3RRCEFRB7NYTX22MFWO9LCB6WDR4BZ&c=365633&tp_c=365633","heads":3,"tails":0,"studentIndex":6,"studentTrueHypers":{"a":8,"b":2},"studentGuess":0.8461538461538461,"delta":0.34615384615384615,"totalExamples":3,"bonus":0,"bonusSoFar":0},{"rt":null,"stimulus":"Sending examples to student... ","response":null,"trial_type":"html-keyboard-response","trial_index":55,"time_elapsed":1444963,"internal_node_id":"0.0-53.0","params":{"nStudents":24,"maxFlips":25,"completionMinutes":45,"basePay":8,"maxBonus":9,"perTrialBonus":0.5,"perTrialBonusThreshold":0.05,"exampleCost":0.02},"classroomParams":{"A":{"a":1,"b":4},"B":{"a":4,"b":1},"C":{"a":2,"b":8},"D":{"a":8,"b":2}},"conditions":["nonSeqFull","nonSeqPartial","seqNoFeedback","seqFeedback"],"classroomPairings":[["A","B"],["C","D"]],"coinWeights":[0.2,0.5,0.8],"subjectId":"A2UR8ZKKO51K5N","assignmentId":"3RRCEFRB7NYTX22MFWO9LCB6WDR4BZ","hitId":"3IH9TRB0FBLK6RLF7MSMKICTGYN1IU","url":"https://gershmanlab.com/experiments/alicia/teaching/experiment/?hitId=3IH9TRB0FBLK6RLF7MSMKICTGYN1IU&workerId=A2UR8ZKKO51K5N&assignmentId=3RRCEFRB7NYTX22MFWO9LCB6WDR4BZ&a=BERR3&tp_a=BERR3&b=3RRCEFRB7NYTX22MFWO9LCB6WDR4BZ&tp_b=3RRCEFRB7NYTX22MFWO9LCB6WDR4BZ&c=365633&tp_c=365633"},{"rt":null,"stimulus":"Examples sent to student! Waiting for student...","response":null,"trial_type":"html-keyboard-response","trial_index":56,"time_elapsed":1449973,"internal_node_id":"0.0-54.0","params":{"nStudents":24,"maxFlips":25,"completionMinutes":45,"basePay":8,"maxBonus":9,"perTrialBonus":0.5,"perTrialBonusThreshold":0.05,"exampleCost":0.02},"classroomParams":{"A":{"a":1,"b":4},"B":{"a":4,"b":1},"C":{"a":2,"b":8},"D":{"a":8,"b":2}},"conditions":["nonSeqFull","nonSeqPartial","seqNoFeedback","seqFeedback"],"classroomPairings":[["A","B"],["C","D"]],"coinWeights":[0.2,0.5,0.8],"subjectId":"A2UR8ZKKO51K5N","assignmentId":"3RRCEFRB7NYTX22MFWO9LCB6WDR4BZ","hitId":"3IH9TRB0FBLK6RLF7MSMKICTGYN1IU","url":"https://gershmanlab.com/experiments/alicia/teaching/experiment/?hitId=3IH9TRB0FBLK6RLF7MSMKICTGYN1IU&workerId=A2UR8ZKKO51K5N&assignmentId=3RRCEFRB7NYTX22MFWO9LCB6WDR4BZ&a=BERR3&tp_a=BERR3&b=3RRCEFRB7NYTX22MFWO9LCB6WDR4BZ&tp_b=3RRCEFRB7NYTX22MFWO9LCB6WDR4BZ&c=365633&tp_c=365633"},{"rt":2132,"stimulus":"\n                <p>Student's guess for coin weight: <b style=\"color:Tomato;\">0.85</b></p>\n                <p>You received a bonus of <b>$0</b>. Total bonus so far: <b>$0.00</b></b></p>\n                <p></p>\n                <p>Press any key to continue.</p>\n                ","response":" ","trial_type":"html-keyboard-response","trial_index":57,"time_elapsed":1452109,"internal_node_id":"0.0-55.0","params":{"nStudents":24,"maxFlips":25,"completionMinutes":45,"basePay":8,"maxBonus":9,"perTrialBonus":0.5,"perTrialBonusThreshold":0.05,"exampleCost":0.02},"classroomParams":{"A":{"a":1,"b":4},"B":{"a":4,"b":1},"C":{"a":2,"b":8},"D":{"a":8,"b":2}},"conditions":["nonSeqFull","nonSeqPartial","seqNoFeedback","seqFeedback"],"classroomPairings":[["A","B"],["C","D"]],"coinWeights":[0.2,0.5,0.8],"subjectId":"A2UR8ZKKO51K5N","assignmentId":"3RRCEFRB7NYTX22MFWO9LCB6WDR4BZ","hitId":"3IH9TRB0FBLK6RLF7MSMKICTGYN1IU","url":"https://gershmanlab.com/experiments/alicia/teaching/experiment/?hitId=3IH9TRB0FBLK6RLF7MSMKICTGYN1IU&workerId=A2UR8ZKKO51K5N&assignmentId=3RRCEFRB7NYTX22MFWO9LCB6WDR4BZ&a=BERR3&tp_a=BERR3&b=3RRCEFRB7NYTX22MFWO9LCB6WDR4BZ&tp_b=3RRCEFRB7NYTX22MFWO9LCB6WDR4BZ&c=365633&tp_c=365633"},{"rt":null,"stimulus":"<div style=\"font-size:60px;\">Next student</div>","response":null,"trial_type":"html-keyboard-response","trial_index":58,"time_elapsed":1454630,"internal_node_id":"0.0-56.0-0.0","params":{"nStudents":24,"maxFlips":25,"completionMinutes":45,"basePay":8,"maxBonus":9,"perTrialBonus":0.5,"perTrialBonusThreshold":0.05,"exampleCost":0.02},"classroomParams":{"A":{"a":1,"b":4},"B":{"a":4,"b":1},"C":{"a":2,"b":8},"D":{"a":8,"b":2}},"conditions":["nonSeqFull","nonSeqPartial","seqNoFeedback","seqFeedback"],"classroomPairings":[["A","B"],["C","D"]],"coinWeights":[0.2,0.5,0.8],"subjectId":"A2UR8ZKKO51K5N","assignmentId":"3RRCEFRB7NYTX22MFWO9LCB6WDR4BZ","hitId":"3IH9TRB0FBLK6RLF7MSMKICTGYN1IU","url":"https://gershmanlab.com/experiments/alicia/teaching/experiment/?hitId=3IH9TRB0FBLK6RLF7MSMKICTGYN1IU&workerId=A2UR8ZKKO51K5N&assignmentId=3RRCEFRB7NYTX22MFWO9LCB6WDR4BZ&a=BERR3&tp_a=BERR3&b=3RRCEFRB7NYTX22MFWO9LCB6WDR4BZ&tp_b=3RRCEFRB7NYTX22MFWO9LCB6WDR4BZ&c=365633&tp_c=365633"},{"rt":1904,"stimulus":"\n            <h4 style=\"color:Orange;\">Student 8</h4>\n            <h2>The weight of your coin is <b style=\"color:Tomato;\">0.2</b>.</h2>\n            <p>In this block, you will be giving <b>one</b> set of examples to Student 8.</p>\n                <p>You will receive feedback at the end of the block.</p>\n            <p></p>","response":0,"trial_type":"html-button-response","trial_index":59,"time_elapsed":1456541,"internal_node_id":"0.0-57.0","params":{"nStudents":24,"maxFlips":25,"completionMinutes":45,"basePay":8,"maxBonus":9,"perTrialBonus":0.5,"perTrialBonusThreshold":0.05,"exampleCost":0.02},"classroomParams":{"A":{"a":1,"b":4},"B":{"a":4,"b":1},"C":{"a":2,"b":8},"D":{"a":8,"b":2}},"conditions":["nonSeqFull","nonSeqPartial","seqNoFeedback","seqFeedback"],"classroomPairings":[["A","B"],["C","D"]],"coinWeights":[0.2,0.5,0.8],"subjectId":"A2UR8ZKKO51K5N","assignmentId":"3RRCEFRB7NYTX22MFWO9LCB6WDR4BZ","hitId":"3IH9TRB0FBLK6RLF7MSMKICTGYN1IU","url":"https://gershmanlab.com/experiments/alicia/teaching/experiment/?hitId=3IH9TRB0FBLK6RLF7MSMKICTGYN1IU&workerId=A2UR8ZKKO51K5N&assignmentId=3RRCEFRB7NYTX22MFWO9LCB6WDR4BZ&a=BERR3&tp_a=BERR3&b=3RRCEFRB7NYTX22MFWO9LCB6WDR4BZ&tp_b=3RRCEFRB7NYTX22MFWO9LCB6WDR4BZ&c=365633&tp_c=365633"},{"rt":7069,"response":{"heads":"10","tails":"5"},"type":"response","condition":"nonSeqPartial","trueTheta":0.2,"classrooms":["C","D"],"studentTrueClassroom":"D","exampleSet":"first","trial_type":"survey-html-form","trial_index":60,"time_elapsed":1463628,"internal_node_id":"0.0-58.0-0.0","params":{"nStudents":24,"maxFlips":25,"completionMinutes":45,"basePay":8,"maxBonus":9,"perTrialBonus":0.5,"perTrialBonusThreshold":0.05,"exampleCost":0.02},"classroomParams":{"A":{"a":1,"b":4},"B":{"a":4,"b":1},"C":{"a":2,"b":8},"D":{"a":8,"b":2}},"conditions":["nonSeqFull","nonSeqPartial","seqNoFeedback","seqFeedback"],"classroomPairings":[["A","B"],["C","D"]],"coinWeights":[0.2,0.5,0.8],"subjectId":"A2UR8ZKKO51K5N","assignmentId":"3RRCEFRB7NYTX22MFWO9LCB6WDR4BZ","hitId":"3IH9TRB0FBLK6RLF7MSMKICTGYN1IU","url":"https://gershmanlab.com/experiments/alicia/teaching/experiment/?hitId=3IH9TRB0FBLK6RLF7MSMKICTGYN1IU&workerId=A2UR8ZKKO51K5N&assignmentId=3RRCEFRB7NYTX22MFWO9LCB6WDR4BZ&a=BERR3&tp_a=BERR3&b=3RRCEFRB7NYTX22MFWO9LCB6WDR4BZ&tp_b=3RRCEFRB7NYTX22MFWO9LCB6WDR4BZ&c=365633&tp_c=365633","heads":10,"tails":5,"studentIndex":7,"studentTrueHypers":{"a":8,"b":2},"studentGuess":0.72,"delta":0.52,"totalExamples":15,"bonus":0,"bonusSoFar":0},{"rt":null,"stimulus":"Sending examples to student... ","response":null,"trial_type":"html-keyboard-response","trial_index":61,"time_elapsed":1465154,"internal_node_id":"0.0-59.0","params":{"nStudents":24,"maxFlips":25,"completionMinutes":45,"basePay":8,"maxBonus":9,"perTrialBonus":0.5,"perTrialBonusThreshold":0.05,"exampleCost":0.02},"classroomParams":{"A":{"a":1,"b":4},"B":{"a":4,"b":1},"C":{"a":2,"b":8},"D":{"a":8,"b":2}},"conditions":["nonSeqFull","nonSeqPartial","seqNoFeedback","seqFeedback"],"classroomPairings":[["A","B"],["C","D"]],"coinWeights":[0.2,0.5,0.8],"subjectId":"A2UR8ZKKO51K5N","assignmentId":"3RRCEFRB7NYTX22MFWO9LCB6WDR4BZ","hitId":"3IH9TRB0FBLK6RLF7MSMKICTGYN1IU","url":"https://gershmanlab.com/experiments/alicia/teaching/experiment/?hitId=3IH9TRB0FBLK6RLF7MSMKICTGYN1IU&workerId=A2UR8ZKKO51K5N&assignmentId=3RRCEFRB7NYTX22MFWO9LCB6WDR4BZ&a=BERR3&tp_a=BERR3&b=3RRCEFRB7NYTX22MFWO9LCB6WDR4BZ&tp_b=3RRCEFRB7NYTX22MFWO9LCB6WDR4BZ&c=365633&tp_c=365633"},{"rt":null,"stimulus":"Examples sent to student! Waiting for student...","response":null,"trial_type":"html-keyboard-response","trial_index":62,"time_elapsed":1471166,"internal_node_id":"0.0-60.0","params":{"nStudents":24,"maxFlips":25,"completionMinutes":45,"basePay":8,"maxBonus":9,"perTrialBonus":0.5,"perTrialBonusThreshold":0.05,"exampleCost":0.02},"classroomParams":{"A":{"a":1,"b":4},"B":{"a":4,"b":1},"C":{"a":2,"b":8},"D":{"a":8,"b":2}},"conditions":["nonSeqFull","nonSeqPartial","seqNoFeedback","seqFeedback"],"classroomPairings":[["A","B"],["C","D"]],"coinWeights":[0.2,0.5,0.8],"subjectId":"A2UR8ZKKO51K5N","assignmentId":"3RRCEFRB7NYTX22MFWO9LCB6WDR4BZ","hitId":"3IH9TRB0FBLK6RLF7MSMKICTGYN1IU","url":"https://gershmanlab.com/experiments/alicia/teaching/experiment/?hitId=3IH9TRB0FBLK6RLF7MSMKICTGYN1IU&workerId=A2UR8ZKKO51K5N&assignmentId=3RRCEFRB7NYTX22MFWO9LCB6WDR4BZ&a=BERR3&tp_a=BERR3&b=3RRCEFRB7NYTX22MFWO9LCB6WDR4BZ&tp_b=3RRCEFRB7NYTX22MFWO9LCB6WDR4BZ&c=365633&tp_c=365633"},{"rt":2924,"stimulus":"\n                <p>Student's guess for coin weight: <b style=\"color:Tomato;\">0.72</b></p>\n                <p>You received a bonus of <b>$0</b>. Total bonus so far: <b>$0.00</b></b></p>\n                <p></p>\n                <p>Press any key to continue.</p>\n                ","response":" ","trial_type":"html-keyboard-response","trial_index":63,"time_elapsed":1474096,"internal_node_id":"0.0-61.0","params":{"nStudents":24,"maxFlips":25,"completionMinutes":45,"basePay":8,"maxBonus":9,"perTrialBonus":0.5,"perTrialBonusThreshold":0.05,"exampleCost":0.02},"classroomParams":{"A":{"a":1,"b":4},"B":{"a":4,"b":1},"C":{"a":2,"b":8},"D":{"a":8,"b":2}},"conditions":["nonSeqFull","nonSeqPartial","seqNoFeedback","seqFeedback"],"classroomPairings":[["A","B"],["C","D"]],"coinWeights":[0.2,0.5,0.8],"subjectId":"A2UR8ZKKO51K5N","assignmentId":"3RRCEFRB7NYTX22MFWO9LCB6WDR4BZ","hitId":"3IH9TRB0FBLK6RLF7MSMKICTGYN1IU","url":"https://gershmanlab.com/experiments/alicia/teaching/experiment/?hitId=3IH9TRB0FBLK6RLF7MSMKICTGYN1IU&workerId=A2UR8ZKKO51K5N&assignmentId=3RRCEFRB7NYTX22MFWO9LCB6WDR4BZ&a=BERR3&tp_a=BERR3&b=3RRCEFRB7NYTX22MFWO9LCB6WDR4BZ&tp_b=3RRCEFRB7NYTX22MFWO9LCB6WDR4BZ&c=365633&tp_c=365633"},{"rt":null,"stimulus":"<div style=\"font-size:60px;\">Next student</div>","response":null,"trial_type":"html-keyboard-response","trial_index":64,"time_elapsed":1476105,"internal_node_id":"0.0-62.0-0.0","params":{"nStudents":24,"maxFlips":25,"completionMinutes":45,"basePay":8,"maxBonus":9,"perTrialBonus":0.5,"perTrialBonusThreshold":0.05,"exampleCost":0.02},"classroomParams":{"A":{"a":1,"b":4},"B":{"a":4,"b":1},"C":{"a":2,"b":8},"D":{"a":8,"b":2}},"conditions":["nonSeqFull","nonSeqPartial","seqNoFeedback","seqFeedback"],"classroomPairings":[["A","B"],["C","D"]],"coinWeights":[0.2,0.5,0.8],"subjectId":"A2UR8ZKKO51K5N","assignmentId":"3RRCEFRB7NYTX22MFWO9LCB6WDR4BZ","hitId":"3IH9TRB0FBLK6RLF7MSMKICTGYN1IU","url":"https://gershmanlab.com/experiments/alicia/teaching/experiment/?hitId=3IH9TRB0FBLK6RLF7MSMKICTGYN1IU&workerId=A2UR8ZKKO51K5N&assignmentId=3RRCEFRB7NYTX22MFWO9LCB6WDR4BZ&a=BERR3&tp_a=BERR3&b=3RRCEFRB7NYTX22MFWO9LCB6WDR4BZ&tp_b=3RRCEFRB7NYTX22MFWO9LCB6WDR4BZ&c=365633&tp_c=365633"},{"rt":50329,"stimulus":"\n            <h4 style=\"color:Orange;\">Student 9</h4>\n            <h2>The weight of your coin is <b style=\"color:Tomato;\">0.8</b>.</h2>\n            <p>In this block, you will be giving <b>one</b> set of examples to Student 9.</p>\n                <p>You will receive feedback at the end of the block.</p>\n            <p></p>","response":0,"trial_type":"html-button-response","trial_index":65,"time_elapsed":1526437,"internal_node_id":"0.0-63.0","params":{"nStudents":24,"maxFlips":25,"completionMinutes":45,"basePay":8,"maxBonus":9,"perTrialBonus":0.5,"perTrialBonusThreshold":0.05,"exampleCost":0.02},"classroomParams":{"A":{"a":1,"b":4},"B":{"a":4,"b":1},"C":{"a":2,"b":8},"D":{"a":8,"b":2}},"conditions":["nonSeqFull","nonSeqPartial","seqNoFeedback","seqFeedback"],"classroomPairings":[["A","B"],["C","D"]],"coinWeights":[0.2,0.5,0.8],"subjectId":"A2UR8ZKKO51K5N","assignmentId":"3RRCEFRB7NYTX22MFWO9LCB6WDR4BZ","hitId":"3IH9TRB0FBLK6RLF7MSMKICTGYN1IU","url":"https://gershmanlab.com/experiments/alicia/teaching/experiment/?hitId=3IH9TRB0FBLK6RLF7MSMKICTGYN1IU&workerId=A2UR8ZKKO51K5N&assignmentId=3RRCEFRB7NYTX22MFWO9LCB6WDR4BZ&a=BERR3&tp_a=BERR3&b=3RRCEFRB7NYTX22MFWO9LCB6WDR4BZ&tp_b=3RRCEFRB7NYTX22MFWO9LCB6WDR4BZ&c=365633&tp_c=365633"},{"rt":12366,"response":{"heads":"20","tails":"5"},"type":"response","condition":"nonSeqPartial","trueTheta":0.8,"classrooms":["A","B"],"studentTrueClassroom":"A","exampleSet":"first","trial_type":"survey-html-form","trial_index":66,"time_elapsed":1538817,"internal_node_id":"0.0-64.0-0.0","params":{"nStudents":24,"maxFlips":25,"completionMinutes":45,"basePay":8,"maxBonus":9,"perTrialBonus":0.5,"perTrialBonusThreshold":0.05,"exampleCost":0.02},"classroomParams":{"A":{"a":1,"b":4},"B":{"a":4,"b":1},"C":{"a":2,"b":8},"D":{"a":8,"b":2}},"conditions":["nonSeqFull","nonSeqPartial","seqNoFeedback","seqFeedback"],"classroomPairings":[["A","B"],["C","D"]],"coinWeights":[0.2,0.5,0.8],"subjectId":"A2UR8ZKKO51K5N","assignmentId":"3RRCEFRB7NYTX22MFWO9LCB6WDR4BZ","hitId":"3IH9TRB0FBLK6RLF7MSMKICTGYN1IU","url":"https://gershmanlab.com/experiments/alicia/teaching/experiment/?hitId=3IH9TRB0FBLK6RLF7MSMKICTGYN1IU&workerId=A2UR8ZKKO51K5N&assignmentId=3RRCEFRB7NYTX22MFWO9LCB6WDR4BZ&a=BERR3&tp_a=BERR3&b=3RRCEFRB7NYTX22MFWO9LCB6WDR4BZ&tp_b=3RRCEFRB7NYTX22MFWO9LCB6WDR4BZ&c=365633&tp_c=365633","heads":20,"tails":5,"studentIndex":8,"studentTrueHypers":{"a":1,"b":4},"studentGuess":0.7,"delta":0.10000000000000009,"totalExamples":25,"bonus":0,"bonusSoFar":0},{"rt":null,"stimulus":"Sending examples to student... ","response":null,"trial_type":"html-keyboard-response","trial_index":67,"time_elapsed":1540332,"internal_node_id":"0.0-65.0","params":{"nStudents":24,"maxFlips":25,"completionMinutes":45,"basePay":8,"maxBonus":9,"perTrialBonus":0.5,"perTrialBonusThreshold":0.05,"exampleCost":0.02},"classroomParams":{"A":{"a":1,"b":4},"B":{"a":4,"b":1},"C":{"a":2,"b":8},"D":{"a":8,"b":2}},"conditions":["nonSeqFull","nonSeqPartial","seqNoFeedback","seqFeedback"],"classroomPairings":[["A","B"],["C","D"]],"coinWeights":[0.2,0.5,0.8],"subjectId":"A2UR8ZKKO51K5N","assignmentId":"3RRCEFRB7NYTX22MFWO9LCB6WDR4BZ","hitId":"3IH9TRB0FBLK6RLF7MSMKICTGYN1IU","url":"https://gershmanlab.com/experiments/alicia/teaching/experiment/?hitId=3IH9TRB0FBLK6RLF7MSMKICTGYN1IU&workerId=A2UR8ZKKO51K5N&assignmentId=3RRCEFRB7NYTX22MFWO9LCB6WDR4BZ&a=BERR3&tp_a=BERR3&b=3RRCEFRB7NYTX22MFWO9LCB6WDR4BZ&tp_b=3RRCEFRB7NYTX22MFWO9LCB6WDR4BZ&c=365633&tp_c=365633"},{"rt":null,"stimulus":"Examples sent to student! Waiting for student...","response":null,"trial_type":"html-keyboard-response","trial_index":68,"time_elapsed":1544843,"internal_node_id":"0.0-66.0","params":{"nStudents":24,"maxFlips":25,"completionMinutes":45,"basePay":8,"maxBonus":9,"perTrialBonus":0.5,"perTrialBonusThreshold":0.05,"exampleCost":0.02},"classroomParams":{"A":{"a":1,"b":4},"B":{"a":4,"b":1},"C":{"a":2,"b":8},"D":{"a":8,"b":2}},"conditions":["nonSeqFull","nonSeqPartial","seqNoFeedback","seqFeedback"],"classroomPairings":[["A","B"],["C","D"]],"coinWeights":[0.2,0.5,0.8],"subjectId":"A2UR8ZKKO51K5N","assignmentId":"3RRCEFRB7NYTX22MFWO9LCB6WDR4BZ","hitId":"3IH9TRB0FBLK6RLF7MSMKICTGYN1IU","url":"https://gershmanlab.com/experiments/alicia/teaching/experiment/?hitId=3IH9TRB0FBLK6RLF7MSMKICTGYN1IU&workerId=A2UR8ZKKO51K5N&assignmentId=3RRCEFRB7NYTX22MFWO9LCB6WDR4BZ&a=BERR3&tp_a=BERR3&b=3RRCEFRB7NYTX22MFWO9LCB6WDR4BZ&tp_b=3RRCEFRB7NYTX22MFWO9LCB6WDR4BZ&c=365633&tp_c=365633"},{"rt":13267,"stimulus":"\n                <p>Student's guess for coin weight: <b style=\"color:Tomato;\">0.70</b></p>\n                <p>You received a bonus of <b>$0</b>. Total bonus so far: <b>$0.00</b></b></p>\n                <p></p>\n                <p>Press any key to continue.</p>\n                ","response":" ","trial_type":"html-keyboard-response","trial_index":69,"time_elapsed":1558115,"internal_node_id":"0.0-67.0","params":{"nStudents":24,"maxFlips":25,"completionMinutes":45,"basePay":8,"maxBonus":9,"perTrialBonus":0.5,"perTrialBonusThreshold":0.05,"exampleCost":0.02},"classroomParams":{"A":{"a":1,"b":4},"B":{"a":4,"b":1},"C":{"a":2,"b":8},"D":{"a":8,"b":2}},"conditions":["nonSeqFull","nonSeqPartial","seqNoFeedback","seqFeedback"],"classroomPairings":[["A","B"],["C","D"]],"coinWeights":[0.2,0.5,0.8],"subjectId":"A2UR8ZKKO51K5N","assignmentId":"3RRCEFRB7NYTX22MFWO9LCB6WDR4BZ","hitId":"3IH9TRB0FBLK6RLF7MSMKICTGYN1IU","url":"https://gershmanlab.com/experiments/alicia/teaching/experiment/?hitId=3IH9TRB0FBLK6RLF7MSMKICTGYN1IU&workerId=A2UR8ZKKO51K5N&assignmentId=3RRCEFRB7NYTX22MFWO9LCB6WDR4BZ&a=BERR3&tp_a=BERR3&b=3RRCEFRB7NYTX22MFWO9LCB6WDR4BZ&tp_b=3RRCEFRB7NYTX22MFWO9LCB6WDR4BZ&c=365633&tp_c=365633"},{"rt":null,"stimulus":"<div style=\"font-size:60px;\">Next student</div>","response":null,"trial_type":"html-keyboard-response","trial_index":70,"time_elapsed":1560621,"internal_node_id":"0.0-68.0-0.0","params":{"nStudents":24,"maxFlips":25,"completionMinutes":45,"basePay":8,"maxBonus":9,"perTrialBonus":0.5,"perTrialBonusThreshold":0.05,"exampleCost":0.02},"classroomParams":{"A":{"a":1,"b":4},"B":{"a":4,"b":1},"C":{"a":2,"b":8},"D":{"a":8,"b":2}},"conditions":["nonSeqFull","nonSeqPartial","seqNoFeedback","seqFeedback"],"classroomPairings":[["A","B"],["C","D"]],"coinWeights":[0.2,0.5,0.8],"subjectId":"A2UR8ZKKO51K5N","assignmentId":"3RRCEFRB7NYTX22MFWO9LCB6WDR4BZ","hitId":"3IH9TRB0FBLK6RLF7MSMKICTGYN1IU","url":"https://gershmanlab.com/experiments/alicia/teaching/experiment/?hitId=3IH9TRB0FBLK6RLF7MSMKICTGYN1IU&workerId=A2UR8ZKKO51K5N&assignmentId=3RRCEFRB7NYTX22MFWO9LCB6WDR4BZ&a=BERR3&tp_a=BERR3&b=3RRCEFRB7NYTX22MFWO9LCB6WDR4BZ&tp_b=3RRCEFRB7NYTX22MFWO9LCB6WDR4BZ&c=365633&tp_c=365633"},{"rt":1895,"stimulus":"\n            <h4 style=\"color:Orange;\">Student 10</h4>\n            <h2>The weight of your coin is <b style=\"color:Tomato;\">0.5</b>.</h2>\n            <p>In this block, you will be giving <b>two</b> sets of examples to Student 10.</p>\n                <p>You will see the student's guess after the first set of examples. You will also receive feedback at the end of the block.</p>\n            <p>To earn the highest bonus, you will have to <b>take into consideration the student's guess</b> when you choose your second set of examples.</p>","response":0,"trial_type":"html-button-response","trial_index":71,"time_elapsed":1562520,"internal_node_id":"0.0-69.0","params":{"nStudents":24,"maxFlips":25,"completionMinutes":45,"basePay":8,"maxBonus":9,"perTrialBonus":0.5,"perTrialBonusThreshold":0.05,"exampleCost":0.02},"classroomParams":{"A":{"a":1,"b":4},"B":{"a":4,"b":1},"C":{"a":2,"b":8},"D":{"a":8,"b":2}},"conditions":["nonSeqFull","nonSeqPartial","seqNoFeedback","seqFeedback"],"classroomPairings":[["A","B"],["C","D"]],"coinWeights":[0.2,0.5,0.8],"subjectId":"A2UR8ZKKO51K5N","assignmentId":"3RRCEFRB7NYTX22MFWO9LCB6WDR4BZ","hitId":"3IH9TRB0FBLK6RLF7MSMKICTGYN1IU","url":"https://gershmanlab.com/experiments/alicia/teaching/experiment/?hitId=3IH9TRB0FBLK6RLF7MSMKICTGYN1IU&workerId=A2UR8ZKKO51K5N&assignmentId=3RRCEFRB7NYTX22MFWO9LCB6WDR4BZ&a=BERR3&tp_a=BERR3&b=3RRCEFRB7NYTX22MFWO9LCB6WDR4BZ&tp_b=3RRCEFRB7NYTX22MFWO9LCB6WDR4BZ&c=365633&tp_c=365633"},{"rt":9638,"response":{"heads":"10","tails":"10"},"type":"response","condition":"seqFeedback","trueTheta":0.5,"classrooms":["C","D"],"studentTrueClassroom":"D","exampleSet":"first","trial_type":"survey-html-form","trial_index":72,"time_elapsed":1572169,"internal_node_id":"0.0-70.0-0.0","params":{"nStudents":24,"maxFlips":25,"completionMinutes":45,"basePay":8,"maxBonus":9,"perTrialBonus":0.5,"perTrialBonusThreshold":0.05,"exampleCost":0.02},"classroomParams":{"A":{"a":1,"b":4},"B":{"a":4,"b":1},"C":{"a":2,"b":8},"D":{"a":8,"b":2}},"conditions":["nonSeqFull","nonSeqPartial","seqNoFeedback","seqFeedback"],"classroomPairings":[["A","B"],["C","D"]],"coinWeights":[0.2,0.5,0.8],"subjectId":"A2UR8ZKKO51K5N","assignmentId":"3RRCEFRB7NYTX22MFWO9LCB6WDR4BZ","hitId":"3IH9TRB0FBLK6RLF7MSMKICTGYN1IU","url":"https://gershmanlab.com/experiments/alicia/teaching/experiment/?hitId=3IH9TRB0FBLK6RLF7MSMKICTGYN1IU&workerId=A2UR8ZKKO51K5N&assignmentId=3RRCEFRB7NYTX22MFWO9LCB6WDR4BZ&a=BERR3&tp_a=BERR3&b=3RRCEFRB7NYTX22MFWO9LCB6WDR4BZ&tp_b=3RRCEFRB7NYTX22MFWO9LCB6WDR4BZ&c=365633&tp_c=365633","heads":10,"tails":10,"studentIndex":9,"studentTrueHypers":{"a":8,"b":2},"studentGuess":0.6,"delta":0.09999999999999998,"totalExamples":20,"bonusSoFar":0},{"rt":null,"stimulus":"Sending examples to student... ","response":null,"trial_type":"html-keyboard-response","trial_index":73,"time_elapsed":1574299,"internal_node_id":"0.0-71.0","params":{"nStudents":24,"maxFlips":25,"completionMinutes":45,"basePay":8,"maxBonus":9,"perTrialBonus":0.5,"perTrialBonusThreshold":0.05,"exampleCost":0.02},"classroomParams":{"A":{"a":1,"b":4},"B":{"a":4,"b":1},"C":{"a":2,"b":8},"D":{"a":8,"b":2}},"conditions":["nonSeqFull","nonSeqPartial","seqNoFeedback","seqFeedback"],"classroomPairings":[["A","B"],["C","D"]],"coinWeights":[0.2,0.5,0.8],"subjectId":"A2UR8ZKKO51K5N","assignmentId":"3RRCEFRB7NYTX22MFWO9LCB6WDR4BZ","hitId":"3IH9TRB0FBLK6RLF7MSMKICTGYN1IU","url":"https://gershmanlab.com/experiments/alicia/teaching/experiment/?hitId=3IH9TRB0FBLK6RLF7MSMKICTGYN1IU&workerId=A2UR8ZKKO51K5N&assignmentId=3RRCEFRB7NYTX22MFWO9LCB6WDR4BZ&a=BERR3&tp_a=BERR3&b=3RRCEFRB7NYTX22MFWO9LCB6WDR4BZ&tp_b=3RRCEFRB7NYTX22MFWO9LCB6WDR4BZ&c=365633&tp_c=365633"},{"rt":null,"stimulus":"Examples sent to student! Waiting for student...","response":null,"trial_type":"html-keyboard-response","trial_index":74,"time_elapsed":1581289,"internal_node_id":"0.0-72.0","params":{"nStudents":24,"maxFlips":25,"completionMinutes":45,"basePay":8,"maxBonus":9,"perTrialBonus":0.5,"perTrialBonusThreshold":0.05,"exampleCost":0.02},"classroomParams":{"A":{"a":1,"b":4},"B":{"a":4,"b":1},"C":{"a":2,"b":8},"D":{"a":8,"b":2}},"conditions":["nonSeqFull","nonSeqPartial","seqNoFeedback","seqFeedback"],"classroomPairings":[["A","B"],["C","D"]],"coinWeights":[0.2,0.5,0.8],"subjectId":"A2UR8ZKKO51K5N","assignmentId":"3RRCEFRB7NYTX22MFWO9LCB6WDR4BZ","hitId":"3IH9TRB0FBLK6RLF7MSMKICTGYN1IU","url":"https://gershmanlab.com/experiments/alicia/teaching/experiment/?hitId=3IH9TRB0FBLK6RLF7MSMKICTGYN1IU&workerId=A2UR8ZKKO51K5N&assignmentId=3RRCEFRB7NYTX22MFWO9LCB6WDR4BZ&a=BERR3&tp_a=BERR3&b=3RRCEFRB7NYTX22MFWO9LCB6WDR4BZ&tp_b=3RRCEFRB7NYTX22MFWO9LCB6WDR4BZ&c=365633&tp_c=365633"},{"rt":9577,"stimulus":"\n                <p>Student's guess for coin weight: <b style=\"color:Tomato;\">0.60</b></p>\n                <p></b></p>\n                <p>You will now send another set of examples to your student. <b>Remember to take your student's guess into consideration so that you can earn the highest bonus possible!</b> </p>\n                <p>Press any key to continue.</p>\n                ","response":" ","trial_type":"html-keyboard-response","trial_index":75,"time_elapsed":1590873,"internal_node_id":"0.0-73.0","params":{"nStudents":24,"maxFlips":25,"completionMinutes":45,"basePay":8,"maxBonus":9,"perTrialBonus":0.5,"perTrialBonusThreshold":0.05,"exampleCost":0.02},"classroomParams":{"A":{"a":1,"b":4},"B":{"a":4,"b":1},"C":{"a":2,"b":8},"D":{"a":8,"b":2}},"conditions":["nonSeqFull","nonSeqPartial","seqNoFeedback","seqFeedback"],"classroomPairings":[["A","B"],["C","D"]],"coinWeights":[0.2,0.5,0.8],"subjectId":"A2UR8ZKKO51K5N","assignmentId":"3RRCEFRB7NYTX22MFWO9LCB6WDR4BZ","hitId":"3IH9TRB0FBLK6RLF7MSMKICTGYN1IU","url":"https://gershmanlab.com/experiments/alicia/teaching/experiment/?hitId=3IH9TRB0FBLK6RLF7MSMKICTGYN1IU&workerId=A2UR8ZKKO51K5N&assignmentId=3RRCEFRB7NYTX22MFWO9LCB6WDR4BZ&a=BERR3&tp_a=BERR3&b=3RRCEFRB7NYTX22MFWO9LCB6WDR4BZ&tp_b=3RRCEFRB7NYTX22MFWO9LCB6WDR4BZ&c=365633&tp_c=365633"},{"rt":15959,"response":{"heads":"8","tails":"0"},"type":"response","condition":"seqFeedback","trueTheta":0.5,"classrooms":["C","D"],"studentTrueClassroom":"D","exampleSet":"second","trial_type":"survey-html-form","trial_index":76,"time_elapsed":1606846,"internal_node_id":"0.0-74.0-0.0","params":{"nStudents":24,"maxFlips":25,"completionMinutes":45,"basePay":8,"maxBonus":9,"perTrialBonus":0.5,"perTrialBonusThreshold":0.05,"exampleCost":0.02},"classroomParams":{"A":{"a":1,"b":4},"B":{"a":4,"b":1},"C":{"a":2,"b":8},"D":{"a":8,"b":2}},"conditions":["nonSeqFull","nonSeqPartial","seqNoFeedback","seqFeedback"],"classroomPairings":[["A","B"],["C","D"]],"coinWeights":[0.2,0.5,0.8],"subjectId":"A2UR8ZKKO51K5N","assignmentId":"3RRCEFRB7NYTX22MFWO9LCB6WDR4BZ","hitId":"3IH9TRB0FBLK6RLF7MSMKICTGYN1IU","url":"https://gershmanlab.com/experiments/alicia/teaching/experiment/?hitId=3IH9TRB0FBLK6RLF7MSMKICTGYN1IU&workerId=A2UR8ZKKO51K5N&assignmentId=3RRCEFRB7NYTX22MFWO9LCB6WDR4BZ&a=BERR3&tp_a=BERR3&b=3RRCEFRB7NYTX22MFWO9LCB6WDR4BZ&tp_b=3RRCEFRB7NYTX22MFWO9LCB6WDR4BZ&c=365633&tp_c=365633","firstResponseHeads":10,"firstResponseTails":10,"secondResponseHeads":8,"secondResponseTails":0,"totalHeads":18,"totalTails":10,"studentIndex":9,"studentTrueHypers":{"a":8,"b":2},"studentGuess":0.6842105263157895,"delta":0.1842105263157895,"bonus":0,"bonusSoFar":0,"totalExamples":28},{"rt":null,"stimulus":"Sending examples to student... ","response":null,"trial_type":"html-keyboard-response","trial_index":77,"time_elapsed":1608870,"internal_node_id":"0.0-75.0","params":{"nStudents":24,"maxFlips":25,"completionMinutes":45,"basePay":8,"maxBonus":9,"perTrialBonus":0.5,"perTrialBonusThreshold":0.05,"exampleCost":0.02},"classroomParams":{"A":{"a":1,"b":4},"B":{"a":4,"b":1},"C":{"a":2,"b":8},"D":{"a":8,"b":2}},"conditions":["nonSeqFull","nonSeqPartial","seqNoFeedback","seqFeedback"],"classroomPairings":[["A","B"],["C","D"]],"coinWeights":[0.2,0.5,0.8],"subjectId":"A2UR8ZKKO51K5N","assignmentId":"3RRCEFRB7NYTX22MFWO9LCB6WDR4BZ","hitId":"3IH9TRB0FBLK6RLF7MSMKICTGYN1IU","url":"https://gershmanlab.com/experiments/alicia/teaching/experiment/?hitId=3IH9TRB0FBLK6RLF7MSMKICTGYN1IU&workerId=A2UR8ZKKO51K5N&assignmentId=3RRCEFRB7NYTX22MFWO9LCB6WDR4BZ&a=BERR3&tp_a=BERR3&b=3RRCEFRB7NYTX22MFWO9LCB6WDR4BZ&tp_b=3RRCEFRB7NYTX22MFWO9LCB6WDR4BZ&c=365633&tp_c=365633"},{"rt":null,"stimulus":"Examples sent to student! Waiting for student...","response":null,"trial_type":"html-keyboard-response","trial_index":78,"time_elapsed":1612882,"internal_node_id":"0.0-76.0","params":{"nStudents":24,"maxFlips":25,"completionMinutes":45,"basePay":8,"maxBonus":9,"perTrialBonus":0.5,"perTrialBonusThreshold":0.05,"exampleCost":0.02},"classroomParams":{"A":{"a":1,"b":4},"B":{"a":4,"b":1},"C":{"a":2,"b":8},"D":{"a":8,"b":2}},"conditions":["nonSeqFull","nonSeqPartial","seqNoFeedback","seqFeedback"],"classroomPairings":[["A","B"],["C","D"]],"coinWeights":[0.2,0.5,0.8],"subjectId":"A2UR8ZKKO51K5N","assignmentId":"3RRCEFRB7NYTX22MFWO9LCB6WDR4BZ","hitId":"3IH9TRB0FBLK6RLF7MSMKICTGYN1IU","url":"https://gershmanlab.com/experiments/alicia/teaching/experiment/?hitId=3IH9TRB0FBLK6RLF7MSMKICTGYN1IU&workerId=A2UR8ZKKO51K5N&assignmentId=3RRCEFRB7NYTX22MFWO9LCB6WDR4BZ&a=BERR3&tp_a=BERR3&b=3RRCEFRB7NYTX22MFWO9LCB6WDR4BZ&tp_b=3RRCEFRB7NYTX22MFWO9LCB6WDR4BZ&c=365633&tp_c=365633"},{"rt":966,"stimulus":"\n                <p>Student 10's first guess for coin weight: <b style=\"color:Tomato\";>0.60</b></p>\n                <p>Student 10's second guess for coin weight: <b style=\"color:Tomato\";>0.68</b></p>\n                <p>You received a bonus of <b>$0.00</b> based on the student's second guess.</p>\n                <p>Total bonus so far: <b>$0.00</b></p>\n                <p>Press any key to continue.</p>\n                ","response":" ","trial_type":"html-keyboard-response","trial_index":79,"time_elapsed":1613851,"internal_node_id":"0.0-77.0","params":{"nStudents":24,"maxFlips":25,"completionMinutes":45,"basePay":8,"maxBonus":9,"perTrialBonus":0.5,"perTrialBonusThreshold":0.05,"exampleCost":0.02},"classroomParams":{"A":{"a":1,"b":4},"B":{"a":4,"b":1},"C":{"a":2,"b":8},"D":{"a":8,"b":2}},"conditions":["nonSeqFull","nonSeqPartial","seqNoFeedback","seqFeedback"],"classroomPairings":[["A","B"],["C","D"]],"coinWeights":[0.2,0.5,0.8],"subjectId":"A2UR8ZKKO51K5N","assignmentId":"3RRCEFRB7NYTX22MFWO9LCB6WDR4BZ","hitId":"3IH9TRB0FBLK6RLF7MSMKICTGYN1IU","url":"https://gershmanlab.com/experiments/alicia/teaching/experiment/?hitId=3IH9TRB0FBLK6RLF7MSMKICTGYN1IU&workerId=A2UR8ZKKO51K5N&assignmentId=3RRCEFRB7NYTX22MFWO9LCB6WDR4BZ&a=BERR3&tp_a=BERR3&b=3RRCEFRB7NYTX22MFWO9LCB6WDR4BZ&tp_b=3RRCEFRB7NYTX22MFWO9LCB6WDR4BZ&c=365633&tp_c=365633"},{"rt":null,"stimulus":"<div style=\"font-size:60px;\">Next student</div>","response":null,"trial_type":"html-keyboard-response","trial_index":80,"time_elapsed":1616873,"internal_node_id":"0.0-78.0-0.0","params":{"nStudents":24,"maxFlips":25,"completionMinutes":45,"basePay":8,"maxBonus":9,"perTrialBonus":0.5,"perTrialBonusThreshold":0.05,"exampleCost":0.02},"classroomParams":{"A":{"a":1,"b":4},"B":{"a":4,"b":1},"C":{"a":2,"b":8},"D":{"a":8,"b":2}},"conditions":["nonSeqFull","nonSeqPartial","seqNoFeedback","seqFeedback"],"classroomPairings":[["A","B"],["C","D"]],"coinWeights":[0.2,0.5,0.8],"subjectId":"A2UR8ZKKO51K5N","assignmentId":"3RRCEFRB7NYTX22MFWO9LCB6WDR4BZ","hitId":"3IH9TRB0FBLK6RLF7MSMKICTGYN1IU","url":"https://gershmanlab.com/experiments/alicia/teaching/experiment/?hitId=3IH9TRB0FBLK6RLF7MSMKICTGYN1IU&workerId=A2UR8ZKKO51K5N&assignmentId=3RRCEFRB7NYTX22MFWO9LCB6WDR4BZ&a=BERR3&tp_a=BERR3&b=3RRCEFRB7NYTX22MFWO9LCB6WDR4BZ&tp_b=3RRCEFRB7NYTX22MFWO9LCB6WDR4BZ&c=365633&tp_c=365633"},{"rt":2130,"stimulus":"\n            <h4 style=\"color:Orange;\">Student 11</h4>\n            <h2>The weight of your coin is <b style=\"color:Tomato;\">0.8</b>.</h2>\n            <p>In this block, you will be giving <b>one</b> set of examples to Student 11.</p>\n                <p>You will receive feedback at the end of the block.</p>\n            <p></p>","response":0,"trial_type":"html-button-response","trial_index":81,"time_elapsed":1619009,"internal_node_id":"0.0-79.0","params":{"nStudents":24,"maxFlips":25,"completionMinutes":45,"basePay":8,"maxBonus":9,"perTrialBonus":0.5,"perTrialBonusThreshold":0.05,"exampleCost":0.02},"classroomParams":{"A":{"a":1,"b":4},"B":{"a":4,"b":1},"C":{"a":2,"b":8},"D":{"a":8,"b":2}},"conditions":["nonSeqFull","nonSeqPartial","seqNoFeedback","seqFeedback"],"classroomPairings":[["A","B"],["C","D"]],"coinWeights":[0.2,0.5,0.8],"subjectId":"A2UR8ZKKO51K5N","assignmentId":"3RRCEFRB7NYTX22MFWO9LCB6WDR4BZ","hitId":"3IH9TRB0FBLK6RLF7MSMKICTGYN1IU","url":"https://gershmanlab.com/experiments/alicia/teaching/experiment/?hitId=3IH9TRB0FBLK6RLF7MSMKICTGYN1IU&workerId=A2UR8ZKKO51K5N&assignmentId=3RRCEFRB7NYTX22MFWO9LCB6WDR4BZ&a=BERR3&tp_a=BERR3&b=3RRCEFRB7NYTX22MFWO9LCB6WDR4BZ&tp_b=3RRCEFRB7NYTX22MFWO9LCB6WDR4BZ&c=365633&tp_c=365633"},{"rt":7122,"response":{"heads":"6","tails":"6"},"type":"response","condition":"nonSeqFull","trueTheta":0.8,"classrooms":["A","B"],"studentTrueClassroom":"B","exampleSet":"first","trial_type":"survey-html-form","trial_index":82,"time_elapsed":1626151,"internal_node_id":"0.0-80.0-0.0","params":{"nStudents":24,"maxFlips":25,"completionMinutes":45,"basePay":8,"maxBonus":9,"perTrialBonus":0.5,"perTrialBonusThreshold":0.05,"exampleCost":0.02},"classroomParams":{"A":{"a":1,"b":4},"B":{"a":4,"b":1},"C":{"a":2,"b":8},"D":{"a":8,"b":2}},"conditions":["nonSeqFull","nonSeqPartial","seqNoFeedback","seqFeedback"],"classroomPairings":[["A","B"],["C","D"]],"coinWeights":[0.2,0.5,0.8],"subjectId":"A2UR8ZKKO51K5N","assignmentId":"3RRCEFRB7NYTX22MFWO9LCB6WDR4BZ","hitId":"3IH9TRB0FBLK6RLF7MSMKICTGYN1IU","url":"https://gershmanlab.com/experiments/alicia/teaching/experiment/?hitId=3IH9TRB0FBLK6RLF7MSMKICTGYN1IU&workerId=A2UR8ZKKO51K5N&assignmentId=3RRCEFRB7NYTX22MFWO9LCB6WDR4BZ&a=BERR3&tp_a=BERR3&b=3RRCEFRB7NYTX22MFWO9LCB6WDR4BZ&tp_b=3RRCEFRB7NYTX22MFWO9LCB6WDR4BZ&c=365633&tp_c=365633","heads":6,"tails":6,"studentIndex":10,"studentTrueHypers":{"a":4,"b":1},"studentGuess":0.5882352941176471,"delta":0.21176470588235297,"totalExamples":12,"bonus":0,"bonusSoFar":0},{"rt":null,"stimulus":"Sending examples to student... ","response":null,"trial_type":"html-keyboard-response","trial_index":83,"time_elapsed":1627430,"internal_node_id":"0.0-81.0","params":{"nStudents":24,"maxFlips":25,"completionMinutes":45,"basePay":8,"maxBonus":9,"perTrialBonus":0.5,"perTrialBonusThreshold":0.05,"exampleCost":0.02},"classroomParams":{"A":{"a":1,"b":4},"B":{"a":4,"b":1},"C":{"a":2,"b":8},"D":{"a":8,"b":2}},"conditions":["nonSeqFull","nonSeqPartial","seqNoFeedback","seqFeedback"],"classroomPairings":[["A","B"],["C","D"]],"coinWeights":[0.2,0.5,0.8],"subjectId":"A2UR8ZKKO51K5N","assignmentId":"3RRCEFRB7NYTX22MFWO9LCB6WDR4BZ","hitId":"3IH9TRB0FBLK6RLF7MSMKICTGYN1IU","url":"https://gershmanlab.com/experiments/alicia/teaching/experiment/?hitId=3IH9TRB0FBLK6RLF7MSMKICTGYN1IU&workerId=A2UR8ZKKO51K5N&assignmentId=3RRCEFRB7NYTX22MFWO9LCB6WDR4BZ&a=BERR3&tp_a=BERR3&b=3RRCEFRB7NYTX22MFWO9LCB6WDR4BZ&tp_b=3RRCEFRB7NYTX22MFWO9LCB6WDR4BZ&c=365633&tp_c=365633"},{"rt":null,"stimulus":"Examples sent to student! Waiting for student...","response":null,"trial_type":"html-keyboard-response","trial_index":84,"time_elapsed":1633451,"internal_node_id":"0.0-82.0","params":{"nStudents":24,"maxFlips":25,"completionMinutes":45,"basePay":8,"maxBonus":9,"perTrialBonus":0.5,"perTrialBonusThreshold":0.05,"exampleCost":0.02},"classroomParams":{"A":{"a":1,"b":4},"B":{"a":4,"b":1},"C":{"a":2,"b":8},"D":{"a":8,"b":2}},"conditions":["nonSeqFull","nonSeqPartial","seqNoFeedback","seqFeedback"],"classroomPairings":[["A","B"],["C","D"]],"coinWeights":[0.2,0.5,0.8],"subjectId":"A2UR8ZKKO51K5N","assignmentId":"3RRCEFRB7NYTX22MFWO9LCB6WDR4BZ","hitId":"3IH9TRB0FBLK6RLF7MSMKICTGYN1IU","url":"https://gershmanlab.com/experiments/alicia/teaching/experiment/?hitId=3IH9TRB0FBLK6RLF7MSMKICTGYN1IU&workerId=A2UR8ZKKO51K5N&assignmentId=3RRCEFRB7NYTX22MFWO9LCB6WDR4BZ&a=BERR3&tp_a=BERR3&b=3RRCEFRB7NYTX22MFWO9LCB6WDR4BZ&tp_b=3RRCEFRB7NYTX22MFWO9LCB6WDR4BZ&c=365633&tp_c=365633"},{"rt":4233,"stimulus":"\n                <p>Student's guess for coin weight: <b style=\"color:Tomato;\">0.59</b></p>\n                <p>You received a bonus of <b>$0</b>. Total bonus so far: <b>$0.00</b></b></p>\n                <p></p>\n                <p>Press any key to continue.</p>\n                ","response":" ","trial_type":"html-keyboard-response","trial_index":85,"time_elapsed":1637688,"internal_node_id":"0.0-83.0","params":{"nStudents":24,"maxFlips":25,"completionMinutes":45,"basePay":8,"maxBonus":9,"perTrialBonus":0.5,"perTrialBonusThreshold":0.05,"exampleCost":0.02},"classroomParams":{"A":{"a":1,"b":4},"B":{"a":4,"b":1},"C":{"a":2,"b":8},"D":{"a":8,"b":2}},"conditions":["nonSeqFull","nonSeqPartial","seqNoFeedback","seqFeedback"],"classroomPairings":[["A","B"],["C","D"]],"coinWeights":[0.2,0.5,0.8],"subjectId":"A2UR8ZKKO51K5N","assignment