[{"rt":2108,"stimulus":"Welcome to the experiment. Press any key to begin.","response":"c","trial_type":"html-keyboard-response","trial_index":0,"time_elapsed":2121,"internal_node_id":"0.0-0.0","params":{"nStudents":24,"maxFlips":25,"completionMinutes":45,"basePay":8,"maxBonus":9,"perTrialBonus":0.5,"perTrialBonusThreshold":0.05,"exampleCost":0.02},"classroomParams":{"A":{"a":1,"b":4},"B":{"a":4,"b":1},"C":{"a":2,"b":8},"D":{"a":8,"b":2}},"conditions":["nonSeqFull","nonSeqPartial","seqNoFeedback","seqFeedback"],"classroomPairings":[["A","B"],["C","D"]],"coinWeights":[0.2,0.5,0.8],"subjectId":"A36470UBRH28GO","assignmentId":"3VBEN272MLL8Q4C8LJC5KQI9Q6MGSZ","hitId":"3XUY87HIVP03YZXVLN9CW37DVI1MM2","url":"https://gershmanlab.com/experiments/alicia/teaching/experiment/?hitId=3XUY87HIVP03YZXVLN9CW37DVI1MM2&workerId=A36470UBRH28GO&assignmentId=3VBEN272MLL8Q4C8LJC5KQI9Q6MGSZ&a=2NBV3&tp_a=2NBV3&b=3VBEN272MLL8Q4C8LJC5KQI9Q6MGSZ&tp_b=3VBEN272MLL8Q4C8LJC5KQI9Q6MGSZ&c=365633&tp_c=365633"},{"rt":9010,"stimulus":"\n        <h3>Please read this consent agreement carefully before deciding whether to participate in this experiment.</h3>\n        <p><b>Purpose of the research:</b> To examine how people teach effectively.</p>\n        <p><b>What you will do in this research:</b> You will teach students the weights of different coins.</p>\n        <p><b>Time required:</b> This experiment will take 45 minutes to complete.</p>\n        <p><b>Risks:</b> There are no anticipated risks associated with participating in this study.             The effects of participating should be comparable to those you would experience from viewing a computer monitor             and using a mouse and keyboard for the duration of the experiment.</p>\n        <p><b>Benefits:</b> The study provides important information about the nature of teaching.</p>\n        <p><b>Compensation:</b> You will receive <b>$8</b> for completing the experiment and a performance bonus of up to <b>$9</b>.</p>\n        <p><b>Confidentiality:</b> Your participation in this study will remain confidential.             No personally identifiable information will be associated with your data.             Your de-identified data may be shared with other researchers and used in future projects.</p>\n        <p><b>Participation and withdrawal:</b> Your participation in this study is completely voluntary and             you may refuse to participate or you may choose to withdraw at any time without penalty or loss of\n            benefits to which you are otherwise entitled.</p>\n        <p><b>How to contact the researcher:</b> If you have questions or concerns about your participation            or payment, or want to request a summary of research findings, please contact\n            Alicia Chen, aliciachen@college.harvard.edu.</p>\n        <p><b>Whom to contact about your rights in this research:</b> For questions, concerns, suggestions,             or complaints that have not been or cannot be addressed by the researcher, or to report             research-related harm, please contact the Committee on the Use of Human Subjects in Research at Harvard University,             1414 Massachusetts Avenue, Second Floor, Cambridge, MA 02138. Phone: 617-496-2847. Email: cuhs@fas.harvard.edu.</p>\n        ","response":0,"trial_type":"html-button-response","trial_index":1,"time_elapsed":11132,"internal_node_id":"0.0-1.0","params":{"nStudents":24,"maxFlips":25,"completionMinutes":45,"basePay":8,"maxBonus":9,"perTrialBonus":0.5,"perTrialBonusThreshold":0.05,"exampleCost":0.02},"classroomParams":{"A":{"a":1,"b":4},"B":{"a":4,"b":1},"C":{"a":2,"b":8},"D":{"a":8,"b":2}},"conditions":["nonSeqFull","nonSeqPartial","seqNoFeedback","seqFeedback"],"classroomPairings":[["A","B"],["C","D"]],"coinWeights":[0.2,0.5,0.8],"subjectId":"A36470UBRH28GO","assignmentId":"3VBEN272MLL8Q4C8LJC5KQI9Q6MGSZ","hitId":"3XUY87HIVP03YZXVLN9CW37DVI1MM2","url":"https://gershmanlab.com/experiments/alicia/teaching/experiment/?hitId=3XUY87HIVP03YZXVLN9CW37DVI1MM2&workerId=A36470UBRH28GO&assignmentId=3VBEN272MLL8Q4C8LJC5KQI9Q6MGSZ&a=2NBV3&tp_a=2NBV3&b=3VBEN272MLL8Q4C8LJC5KQI9Q6MGSZ&tp_b=3VBEN272MLL8Q4C8LJC5KQI9Q6MGSZ&c=365633&tp_c=365633"},{"view_history":[{"page_index":0,"viewing_time":13341},{"page_index":1,"viewing_time":10644},{"page_index":2,"viewing_time":31783},{"page_index":3,"viewing_time":18401},{"page_index":4,"viewing_time":11544},{"page_index":5,"viewing_time":26524},{"page_index":6,"viewing_time":30486}],"rt":142723,"trial_type":"instructions","trial_index":2,"time_elapsed":153846,"internal_node_id":"0.0-2.0-0.0","params":{"nStudents":24,"maxFlips":25,"completionMinutes":45,"basePay":8,"maxBonus":9,"perTrialBonus":0.5,"perTrialBonusThreshold":0.05,"exampleCost":0.02},"classroomParams":{"A":{"a":1,"b":4},"B":{"a":4,"b":1},"C":{"a":2,"b":8},"D":{"a":8,"b":2}},"conditions":["nonSeqFull","nonSeqPartial","seqNoFeedback","seqFeedback"],"classroomPairings":[["A","B"],["C","D"]],"coinWeights":[0.2,0.5,0.8],"subjectId":"A36470UBRH28GO","assignmentId":"3VBEN272MLL8Q4C8LJC5KQI9Q6MGSZ","hitId":"3XUY87HIVP03YZXVLN9CW37DVI1MM2","url":"https://gershmanlab.com/experiments/alicia/teaching/experiment/?hitId=3XUY87HIVP03YZXVLN9CW37DVI1MM2&workerId=A36470UBRH28GO&assignmentId=3VBEN272MLL8Q4C8LJC5KQI9Q6MGSZ&a=2NBV3&tp_a=2NBV3&b=3VBEN272MLL8Q4C8LJC5KQI9Q6MGSZ&tp_b=3VBEN272MLL8Q4C8LJC5KQI9Q6MGSZ&c=365633&tp_c=365633"},{"rt":233467,"response":{"Q0":"Students in different classrooms will have seen a different number of heads and tails before seeing the examples you select for them.","Q1":"By <b>considering the student's classroom information</b> so that I can teach efficiently and accurately/helpfully at the same time (because each example I give to the student costs money!).","Q2":"The coin lands heads 90% of the time.","Q3":"Yes, I might encounter the same student twice.","Q4":"The students are also on the same alien planet as you, where coins can be unfair.","Q5":"Based on the student's second (and final) guess."},"question_order":[4,5,1,0,3,2],"trial_type":"survey-multi-choice","trial_index":3,"time_elapsed":387325,"internal_node_id":"0.0-2.0-1.0","params":{"nStudents":24,"maxFlips":25,"completionMinutes":45,"basePay":8,"maxBonus":9,"perTrialBonus":0.5,"perTrialBonusThreshold":0.05,"exampleCost":0.02},"classroomParams":{"A":{"a":1,"b":4},"B":{"a":4,"b":1},"C":{"a":2,"b":8},"D":{"a":8,"b":2}},"conditions":["nonSeqFull","nonSeqPartial","seqNoFeedback","seqFeedback"],"classroomPairings":[["A","B"],["C","D"]],"coinWeights":[0.2,0.5,0.8],"subjectId":"A36470UBRH28GO","assignmentId":"3VBEN272MLL8Q4C8LJC5KQI9Q6MGSZ","hitId":"3XUY87HIVP03YZXVLN9CW37DVI1MM2","url":"https://gershmanlab.com/experiments/alicia/teaching/experiment/?hitId=3XUY87HIVP03YZXVLN9CW37DVI1MM2&workerId=A36470UBRH28GO&assignmentId=3VBEN272MLL8Q4C8LJC5KQI9Q6MGSZ&a=2NBV3&tp_a=2NBV3&b=3VBEN272MLL8Q4C8LJC5KQI9Q6MGSZ&tp_b=3VBEN272MLL8Q4C8LJC5KQI9Q6MGSZ&c=365633&tp_c=365633","pass":false},{"rt":5763,"stimulus":"Oops, you have missed question(s) on the comprehension check! We'll show you the instructions again.","response":0,"trial_type":"html-button-response","trial_index":4,"time_elapsed":393093,"internal_node_id":"0.0-2.0-2.0-0.0","params":{"nStudents":24,"maxFlips":25,"completionMinutes":45,"basePay":8,"maxBonus":9,"perTrialBonus":0.5,"perTrialBonusThreshold":0.05,"exampleCost":0.02},"classroomParams":{"A":{"a":1,"b":4},"B":{"a":4,"b":1},"C":{"a":2,"b":8},"D":{"a":8,"b":2}},"conditions":["nonSeqFull","nonSeqPartial","seqNoFeedback","seqFeedback"],"classroomPairings":[["A","B"],["C","D"]],"coinWeights":[0.2,0.5,0.8],"subjectId":"A36470UBRH28GO","assignmentId":"3VBEN272MLL8Q4C8LJC5KQI9Q6MGSZ","hitId":"3XUY87HIVP03YZXVLN9CW37DVI1MM2","url":"https://gershmanlab.com/experiments/alicia/teaching/experiment/?hitId=3XUY87HIVP03YZXVLN9CW37DVI1MM2&workerId=A36470UBRH28GO&assignmentId=3VBEN272MLL8Q4C8LJC5KQI9Q6MGSZ&a=2NBV3&tp_a=2NBV3&b=3VBEN272MLL8Q4C8LJC5KQI9Q6MGSZ&tp_b=3VBEN272MLL8Q4C8LJC5KQI9Q6MGSZ&c=365633&tp_c=365633"},{"view_history":[{"page_index":0,"viewing_time":5808},{"page_index":1,"viewing_time":1118},{"page_index":2,"viewing_time":10604},{"page_index":3,"viewing_time":3252},{"page_index":4,"viewing_time":10816},{"page_index":5,"viewing_time":11548},{"page_index":6,"viewing_time":10128}],"rt":53274,"trial_type":"instructions","trial_index":5,"time_elapsed":446368,"internal_node_id":"0.0-2.1-0.1","params":{"nStudents":24,"maxFlips":25,"completionMinutes":45,"basePay":8,"maxBonus":9,"perTrialBonus":0.5,"perTrialBonusThreshold":0.05,"exampleCost":0.02},"classroomParams":{"A":{"a":1,"b":4},"B":{"a":4,"b":1},"C":{"a":2,"b":8},"D":{"a":8,"b":2}},"conditions":["nonSeqFull","nonSeqPartial","seqNoFeedback","seqFeedback"],"classroomPairings":[["A","B"],["C","D"]],"coinWeights":[0.2,0.5,0.8],"subjectId":"A36470UBRH28GO","assignmentId":"3VBEN272MLL8Q4C8LJC5KQI9Q6MGSZ","hitId":"3XUY87HIVP03YZXVLN9CW37DVI1MM2","url":"https://gershmanlab.com/experiments/alicia/teaching/experiment/?hitId=3XUY87HIVP03YZXVLN9CW37DVI1MM2&workerId=A36470UBRH28GO&assignmentId=3VBEN272MLL8Q4C8LJC5KQI9Q6MGSZ&a=2NBV3&tp_a=2NBV3&b=3VBEN272MLL8Q4C8LJC5KQI9Q6MGSZ&tp_b=3VBEN272MLL8Q4C8LJC5KQI9Q6MGSZ&c=365633&tp_c=365633"},{"rt":52585,"response":{"Q0":"Students in different classrooms have seen a different proportion of fair and unfair coins before seeing the examples you select for them.","Q1":"By <b>considering the student's classroom information</b> so that I can teach efficiently and accurately/helpfully at the same time (because each example I give to the student costs money!).","Q2":"The coin lands heads 90% of the time.","Q3":"Yes, I might encounter the same student twice.","Q4":"The students are also on the same alien planet as you, where coins can be unfair.","Q5":"Based on the student's second (and final) guess."},"question_order":[3,0,2,5,4,1],"trial_type":"survey-multi-choice","trial_index":6,"time_elapsed":498954,"internal_node_id":"0.0-2.1-1.1","params":{"nStudents":24,"maxFlips":25,"completionMinutes":45,"basePay":8,"maxBonus":9,"perTrialBonus":0.5,"perTrialBonusThreshold":0.05,"exampleCost":0.02},"classroomParams":{"A":{"a":1,"b":4},"B":{"a":4,"b":1},"C":{"a":2,"b":8},"D":{"a":8,"b":2}},"conditions":["nonSeqFull","nonSeqPartial","seqNoFeedback","seqFeedback"],"classroomPairings":[["A","B"],["C","D"]],"coinWeights":[0.2,0.5,0.8],"subjectId":"A36470UBRH28GO","assignmentId":"3VBEN272MLL8Q4C8LJC5KQI9Q6MGSZ","hitId":"3XUY87HIVP03YZXVLN9CW37DVI1MM2","url":"https://gershmanlab.com/experiments/alicia/teaching/experiment/?hitId=3XUY87HIVP03YZXVLN9CW37DVI1MM2&workerId=A36470UBRH28GO&assignmentId=3VBEN272MLL8Q4C8LJC5KQI9Q6MGSZ&a=2NBV3&tp_a=2NBV3&b=3VBEN272MLL8Q4C8LJC5KQI9Q6MGSZ&tp_b=3VBEN272MLL8Q4C8LJC5KQI9Q6MGSZ&c=365633&tp_c=365633","pass":false},{"rt":1797,"stimulus":"Oops, you have missed question(s) on the comprehension check! We'll show you the instructions again.","response":0,"trial_type":"html-button-response","trial_index":7,"time_elapsed":500756,"internal_node_id":"0.0-2.1-2.1-0.1","params":{"nStudents":24,"maxFlips":25,"completionMinutes":45,"basePay":8,"maxBonus":9,"perTrialBonus":0.5,"perTrialBonusThreshold":0.05,"exampleCost":0.02},"classroomParams":{"A":{"a":1,"b":4},"B":{"a":4,"b":1},"C":{"a":2,"b":8},"D":{"a":8,"b":2}},"conditions":["nonSeqFull","nonSeqPartial","seqNoFeedback","seqFeedback"],"classroomPairings":[["A","B"],["C","D"]],"coinWeights":[0.2,0.5,0.8],"subjectId":"A36470UBRH28GO","assignmentId":"3VBEN272MLL8Q4C8LJC5KQI9Q6MGSZ","hitId":"3XUY87HIVP03YZXVLN9CW37DVI1MM2","url":"https://gershmanlab.com/experiments/alicia/teaching/experiment/?hitId=3XUY87HIVP03YZXVLN9CW37DVI1MM2&workerId=A36470UBRH28GO&assignmentId=3VBEN272MLL8Q4C8LJC5KQI9Q6MGSZ&a=2NBV3&tp_a=2NBV3&b=3VBEN272MLL8Q4C8LJC5KQI9Q6MGSZ&tp_b=3VBEN272MLL8Q4C8LJC5KQI9Q6MGSZ&c=365633&tp_c=365633"},{"view_history":[{"page_index":0,"viewing_time":3199},{"page_index":1,"viewing_time":503},{"page_index":2,"viewing_time":1591},{"page_index":3,"viewing_time":5836},{"page_index":4,"viewing_time":1648},{"page_index":5,"viewing_time":5514},{"page_index":6,"viewing_time":1684}],"rt":19976,"trial_type":"instructions","trial_index":8,"time_elapsed":520732,"internal_node_id":"0.0-2.2-0.2","params":{"nStudents":24,"maxFlips":25,"completionMinutes":45,"basePay":8,"maxBonus":9,"perTrialBonus":0.5,"perTrialBonusThreshold":0.05,"exampleCost":0.02},"classroomParams":{"A":{"a":1,"b":4},"B":{"a":4,"b":1},"C":{"a":2,"b":8},"D":{"a":8,"b":2}},"conditions":["nonSeqFull","nonSeqPartial","seqNoFeedback","seqFeedback"],"classroomPairings":[["A","B"],["C","D"]],"coinWeights":[0.2,0.5,0.8],"subjectId":"A36470UBRH28GO","assignmentId":"3VBEN272MLL8Q4C8LJC5KQI9Q6MGSZ","hitId":"3XUY87HIVP03YZXVLN9CW37DVI1MM2","url":"https://gershmanlab.com/experiments/alicia/teaching/experiment/?hitId=3XUY87HIVP03YZXVLN9CW37DVI1MM2&workerId=A36470UBRH28GO&assignmentId=3VBEN272MLL8Q4C8LJC5KQI9Q6MGSZ&a=2NBV3&tp_a=2NBV3&b=3VBEN272MLL8Q4C8LJC5KQI9Q6MGSZ&tp_b=3VBEN272MLL8Q4C8LJC5KQI9Q6MGSZ&c=365633&tp_c=365633"},{"rt":108063,"response":{"Q0":"Students in different classrooms will have seen a different number of heads and tails before seeing the examples you select for them.","Q1":"By <b>considering the student's classroom information</b> so that I can teach efficiently and accurately/helpfully at the same time (because each example I give to the student costs money!).","Q2":"The coin lands heads 90% of the time.","Q3":"Yes, I might encounter the same student twice.","Q4":"The students are also on the same alien planet as you, where coins can be unfair.","Q5":"Based on both guesses."},"question_order":[4,2,5,1,3,0],"trial_type":"survey-multi-choice","trial_index":9,"time_elapsed":628797,"internal_node_id":"0.0-2.2-1.2","params":{"nStudents":24,"maxFlips":25,"completionMinutes":45,"basePay":8,"maxBonus":9,"perTrialBonus":0.5,"perTrialBonusThreshold":0.05,"exampleCost":0.02},"classroomParams":{"A":{"a":1,"b":4},"B":{"a":4,"b":1},"C":{"a":2,"b":8},"D":{"a":8,"b":2}},"conditions":["nonSeqFull","nonSeqPartial","seqNoFeedback","seqFeedback"],"classroomPairings":[["A","B"],["C","D"]],"coinWeights":[0.2,0.5,0.8],"subjectId":"A36470UBRH28GO","assignmentId":"3VBEN272MLL8Q4C8LJC5KQI9Q6MGSZ","hitId":"3XUY87HIVP03YZXVLN9CW37DVI1MM2","url":"https://gershmanlab.com/experiments/alicia/teaching/experiment/?hitId=3XUY87HIVP03YZXVLN9CW37DVI1MM2&workerId=A36470UBRH28GO&assignmentId=3VBEN272MLL8Q4C8LJC5KQI9Q6MGSZ&a=2NBV3&tp_a=2NBV3&b=3VBEN272MLL8Q4C8LJC5KQI9Q6MGSZ&tp_b=3VBEN272MLL8Q4C8LJC5KQI9Q6MGSZ&c=365633&tp_c=365633","pass":false},{"rt":1468,"stimulus":"Oops, you have missed question(s) on the comprehension check! We'll show you the instructions again.","response":0,"trial_type":"html-button-response","trial_index":10,"time_elapsed":630270,"internal_node_id":"0.0-2.2-2.2-0.2","params":{"nStudents":24,"maxFlips":25,"completionMinutes":45,"basePay":8,"maxBonus":9,"perTrialBonus":0.5,"perTrialBonusThreshold":0.05,"exampleCost":0.02},"classroomParams":{"A":{"a":1,"b":4},"B":{"a":4,"b":1},"C":{"a":2,"b":8},"D":{"a":8,"b":2}},"conditions":["nonSeqFull","nonSeqPartial","seqNoFeedback","seqFeedback"],"classroomPairings":[["A","B"],["C","D"]],"coinWeights":[0.2,0.5,0.8],"subjectId":"A36470UBRH28GO","assignmentId":"3VBEN272MLL8Q4C8LJC5KQI9Q6MGSZ","hitId":"3XUY87HIVP03YZXVLN9CW37DVI1MM2","url":"https://gershmanlab.com/experiments/alicia/teaching/experiment/?hitId=3XUY87HIVP03YZXVLN9CW37DVI1MM2&workerId=A36470UBRH28GO&assignmentId=3VBEN272MLL8Q4C8LJC5KQI9Q6MGSZ&a=2NBV3&tp_a=2NBV3&b=3VBEN272MLL8Q4C8LJC5KQI9Q6MGSZ&tp_b=3VBEN272MLL8Q4C8LJC5KQI9Q6MGSZ&c=365633&tp_c=365633"},{"view_history":[{"page_index":0,"viewing_time":1068},{"page_index":1,"viewing_time":183},{"page_index":2,"viewing_time":1056},{"page_index":3,"viewing_time":748},{"page_index":4,"viewing_time":1086},{"page_index":5,"viewing_time":843},{"page_index":6,"viewing_time":929}],"rt":5914,"trial_type":"instructions","trial_index":11,"time_elapsed":636184,"internal_node_id":"0.0-2.3-0.3","params":{"nStudents":24,"maxFlips":25,"completionMinutes":45,"basePay":8,"maxBonus":9,"perTrialBonus":0.5,"perTrialBonusThreshold":0.05,"exampleCost":0.02},"classroomParams":{"A":{"a":1,"b":4},"B":{"a":4,"b":1},"C":{"a":2,"b":8},"D":{"a":8,"b":2}},"conditions":["nonSeqFull","nonSeqPartial","seqNoFeedback","seqFeedback"],"classroomPairings":[["A","B"],["C","D"]],"coinWeights":[0.2,0.5,0.8],"subjectId":"A36470UBRH28GO","assignmentId":"3VBEN272MLL8Q4C8LJC5KQI9Q6MGSZ","hitId":"3XUY87HIVP03YZXVLN9CW37DVI1MM2","url":"https://gershmanlab.com/experiments/alicia/teaching/experiment/?hitId=3XUY87HIVP03YZXVLN9CW37DVI1MM2&workerId=A36470UBRH28GO&assignmentId=3VBEN272MLL8Q4C8LJC5KQI9Q6MGSZ&a=2NBV3&tp_a=2NBV3&b=3VBEN272MLL8Q4C8LJC5KQI9Q6MGSZ&tp_b=3VBEN272MLL8Q4C8LJC5KQI9Q6MGSZ&c=365633&tp_c=365633"},{"rt":99871,"response":{"Q0":"Students in different classrooms have seen a different proportion of fair and unfair coins before seeing the examples you select for them.","Q1":"By <b>considering the student's classroom information</b> so that I can teach efficiently and accurately/helpfully at the same time (because each example I give to the student costs money!).","Q2":"The coin lands heads 90% of the time.","Q3":"Yes, I might encounter the same student twice.","Q4":"The students are also on the same alien planet as you, where coins can be unfair.","Q5":"Based on the student's second (and final) guess."},"question_order":[5,3,4,1,0,2],"trial_type":"survey-multi-choice","trial_index":12,"time_elapsed":736057,"internal_node_id":"0.0-2.3-1.3","params":{"nStudents":24,"maxFlips":25,"completionMinutes":45,"basePay":8,"maxBonus":9,"perTrialBonus":0.5,"perTrialBonusThreshold":0.05,"exampleCost":0.02},"classroomParams":{"A":{"a":1,"b":4},"B":{"a":4,"b":1},"C":{"a":2,"b":8},"D":{"a":8,"b":2}},"conditions":["nonSeqFull","nonSeqPartial","seqNoFeedback","seqFeedback"],"classroomPairings":[["A","B"],["C","D"]],"coinWeights":[0.2,0.5,0.8],"subjectId":"A36470UBRH28GO","assignmentId":"3VBEN272MLL8Q4C8LJC5KQI9Q6MGSZ","hitId":"3XUY87HIVP03YZXVLN9CW37DVI1MM2","url":"https://gershmanlab.com/experiments/alicia/teaching/experiment/?hitId=3XUY87HIVP03YZXVLN9CW37DVI1MM2&workerId=A36470UBRH28GO&assignmentId=3VBEN272MLL8Q4C8LJC5KQI9Q6MGSZ&a=2NBV3&tp_a=2NBV3&b=3VBEN272MLL8Q4C8LJC5KQI9Q6MGSZ&tp_b=3VBEN272MLL8Q4C8LJC5KQI9Q6MGSZ&c=365633&tp_c=365633","pass":false},{"rt":939,"stimulus":"Oops, you have missed question(s) on the comprehension check! We'll show you the instructions again.","response":0,"trial_type":"html-button-response","trial_index":13,"time_elapsed":737000,"internal_node_id":"0.0-2.3-2.3-0.3","params":{"nStudents":24,"maxFlips":25,"completionMinutes":45,"basePay":8,"maxBonus":9,"perTrialBonus":0.5,"perTrialBonusThreshold":0.05,"exampleCost":0.02},"classroomParams":{"A":{"a":1,"b":4},"B":{"a":4,"b":1},"C":{"a":2,"b":8},"D":{"a":8,"b":2}},"conditions":["nonSeqFull","nonSeqPartial","seqNoFeedback","seqFeedback"],"classroomPairings":[["A","B"],["C","D"]],"coinWeights":[0.2,0.5,0.8],"subjectId":"A36470UBRH28GO","assignmentId":"3VBEN272MLL8Q4C8LJC5KQI9Q6MGSZ","hitId":"3XUY87HIVP03YZXVLN9CW37DVI1MM2","url":"https://gershmanlab.com/experiments/alicia/teaching/experiment/?hitId=3XUY87HIVP03YZXVLN9CW37DVI1MM2&workerId=A36470UBRH28GO&assignmentId=3VBEN272MLL8Q4C8LJC5KQI9Q6MGSZ&a=2NBV3&tp_a=2NBV3&b=3VBEN272MLL8Q4C8LJC5KQI9Q6MGSZ&tp_b=3VBEN272MLL8Q4C8LJC5KQI9Q6MGSZ&c=365633&tp_c=365633"},{"view_history":[{"page_index":0,"viewing_time":1088},{"page_index":1,"viewing_time":504},{"page_index":2,"viewing_time":11068},{"page_index":3,"viewing_time":10532},{"page_index":4,"viewing_time":1772},{"page_index":5,"viewing_time":1591},{"page_index":6,"viewing_time":1299}],"rt":27854,"trial_type":"instructions","trial_index":14,"time_elapsed":764854,"internal_node_id":"0.0-2.4-0.4","params":{"nStudents":24,"maxFlips":25,"completionMinutes":45,"basePay":8,"maxBonus":9,"perTrialBonus":0.5,"perTrialBonusThreshold":0.05,"exampleCost":0.02},"classroomParams":{"A":{"a":1,"b":4},"B":{"a":4,"b":1},"C":{"a":2,"b":8},"D":{"a":8,"b":2}},"conditions":["nonSeqFull","nonSeqPartial","seqNoFeedback","seqFeedback"],"classroomPairings":[["A","B"],["C","D"]],"coinWeights":[0.2,0.5,0.8],"subjectId":"A36470UBRH28GO","assignmentId":"3VBEN272MLL8Q4C8LJC5KQI9Q6MGSZ","hitId":"3XUY87HIVP03YZXVLN9CW37DVI1MM2","url":"https://gershmanlab.com/experiments/alicia/teaching/experiment/?hitId=3XUY87HIVP03YZXVLN9CW37DVI1MM2&workerId=A36470UBRH28GO&assignmentId=3VBEN272MLL8Q4C8LJC5KQI9Q6MGSZ&a=2NBV3&tp_a=2NBV3&b=3VBEN272MLL8Q4C8LJC5KQI9Q6MGSZ&tp_b=3VBEN272MLL8Q4C8LJC5KQI9Q6MGSZ&c=365633&tp_c=365633"},{"rt":24123,"response":{"Q0":"Students in different classrooms have seen a different proportion of fair and unfair coins before seeing the examples you select for them.","Q1":"By <b>considering the student's classroom information</b> so that I can teach efficiently and accurately/helpfully at the same time (because each example I give to the student costs money!).","Q2":"The coin lands heads 90% of the time.","Q3":"Yes, I might encounter the same student twice.","Q4":"The students are also on the same alien planet as you, where coins can be unfair.","Q5":"Based on the student's second (and final) guess."},"question_order":[5,0,1,4,3,2],"trial_type":"survey-multi-choice","trial_index":15,"time_elapsed":788979,"internal_node_id":"0.0-2.4-1.4","params":{"nStudents":24,"maxFlips":25,"completionMinutes":45,"basePay":8,"maxBonus":9,"perTrialBonus":0.5,"perTrialBonusThreshold":0.05,"exampleCost":0.02},"classroomParams":{"A":{"a":1,"b":4},"B":{"a":4,"b":1},"C":{"a":2,"b":8},"D":{"a":8,"b":2}},"conditions":["nonSeqFull","nonSeqPartial","seqNoFeedback","seqFeedback"],"classroomPairings":[["A","B"],["C","D"]],"coinWeights":[0.2,0.5,0.8],"subjectId":"A36470UBRH28GO","assignmentId":"3VBEN272MLL8Q4C8LJC5KQI9Q6MGSZ","hitId":"3XUY87HIVP03YZXVLN9CW37DVI1MM2","url":"https://gershmanlab.com/experiments/alicia/teaching/experiment/?hitId=3XUY87HIVP03YZXVLN9CW37DVI1MM2&workerId=A36470UBRH28GO&assignmentId=3VBEN272MLL8Q4C8LJC5KQI9Q6MGSZ&a=2NBV3&tp_a=2NBV3&b=3VBEN272MLL8Q4C8LJC5KQI9Q6MGSZ&tp_b=3VBEN272MLL8Q4C8LJC5KQI9Q6MGSZ&c=365633&tp_c=365633","pass":false},{"rt":1138,"stimulus":"Oops, you have missed question(s) on the comprehension check! We'll show you the instructions again.","response":0,"trial_type":"html-button-response","trial_index":16,"time_elapsed":790121,"internal_node_id":"0.0-2.4-2.4-0.4","params":{"nStudents":24,"maxFlips":25,"completionMinutes":45,"basePay":8,"maxBonus":9,"perTrialBonus":0.5,"perTrialBonusThreshold":0.05,"exampleCost":0.02},"classroomParams":{"A":{"a":1,"b":4},"B":{"a":4,"b":1},"C":{"a":2,"b":8},"D":{"a":8,"b":2}},"conditions":["nonSeqFull","nonSeqPartial","seqNoFeedback","seqFeedback"],"classroomPairings":[["A","B"],["C","D"]],"coinWeights":[0.2,0.5,0.8],"subjectId":"A36470UBRH28GO","assignmentId":"3VBEN272MLL8Q4C8LJC5KQI9Q6MGSZ","hitId":"3XUY87HIVP03YZXVLN9CW37DVI1MM2","url":"https://gershmanlab.com/experiments/alicia/teaching/experiment/?hitId=3XUY87HIVP03YZXVLN9CW37DVI1MM2&workerId=A36470UBRH28GO&assignmentId=3VBEN272MLL8Q4C8LJC5KQI9Q6MGSZ&a=2NBV3&tp_a=2NBV3&b=3VBEN272MLL8Q4C8LJC5KQI9Q6MGSZ&tp_b=3VBEN272MLL8Q4C8LJC5KQI9Q6MGSZ&c=365633&tp_c=365633"},{"view_history":[{"page_index":0,"viewing_time":1087},{"page_index":1,"viewing_time":204},{"page_index":2,"viewing_time":1190},{"page_index":3,"viewing_time":456},{"page_index":4,"viewing_time":1049},{"page_index":5,"viewing_time":873},{"page_index":6,"viewing_time":1072}],"rt":5931,"trial_type":"instructions","trial_index":17,"time_elapsed":796052,"internal_node_id":"0.0-2.5-0.5","params":{"nStudents":24,"maxFlips":25,"completionMinutes":45,"basePay":8,"maxBonus":9,"perTrialBonus":0.5,"perTrialBonusThreshold":0.05,"exampleCost":0.02},"classroomParams":{"A":{"a":1,"b":4},"B":{"a":4,"b":1},"C":{"a":2,"b":8},"D":{"a":8,"b":2}},"conditions":["nonSeqFull","nonSeqPartial","seqNoFeedback","seqFeedback"],"classroomPairings":[["A","B"],["C","D"]],"coinWeights":[0.2,0.5,0.8],"subjectId":"A36470UBRH28GO","assignmentId":"3VBEN272MLL8Q4C8LJC5KQI9Q6MGSZ","hitId":"3XUY87HIVP03YZXVLN9CW37DVI1MM2","url":"https://gershmanlab.com/experiments/alicia/teaching/experiment/?hitId=3XUY87HIVP03YZXVLN9CW37DVI1MM2&workerId=A36470UBRH28GO&assignmentId=3VBEN272MLL8Q4C8LJC5KQI9Q6MGSZ&a=2NBV3&tp_a=2NBV3&b=3VBEN272MLL8Q4C8LJC5KQI9Q6MGSZ&tp_b=3VBEN272MLL8Q4C8LJC5KQI9Q6MGSZ&c=365633&tp_c=365633"},{"rt":32975,"response":{"Q0":"Students in different classrooms have seen a different proportion of fair and unfair coins before seeing the examples you select for them.","Q1":"By <b>considering the student's classroom information</b> so that I can teach efficiently and accurately/helpfully at the same time (because each example I give to the student costs money!).","Q2":"The coin lands heads 90% of the time.","Q3":"No, I will teach a <b>new</b> student each time.","Q4":"The students are also on the same alien planet as you, where coins can be unfair.","Q5":"Based on both guesses."},"question_order":[0,1,2,4,5,3],"trial_type":"survey-multi-choice","trial_index":18,"time_elapsed":829028,"internal_node_id":"0.0-2.5-1.5","params":{"nStudents":24,"maxFlips":25,"completionMinutes":45,"basePay":8,"maxBonus":9,"perTrialBonus":0.5,"perTrialBonusThreshold":0.05,"exampleCost":0.02},"classroomParams":{"A":{"a":1,"b":4},"B":{"a":4,"b":1},"C":{"a":2,"b":8},"D":{"a":8,"b":2}},"conditions":["nonSeqFull","nonSeqPartial","seqNoFeedback","seqFeedback"],"classroomPairings":[["A","B"],["C","D"]],"coinWeights":[0.2,0.5,0.8],"subjectId":"A36470UBRH28GO","assignmentId":"3VBEN272MLL8Q4C8LJC5KQI9Q6MGSZ","hitId":"3XUY87HIVP03YZXVLN9CW37DVI1MM2","url":"https://gershmanlab.com/experiments/alicia/teaching/experiment/?hitId=3XUY87HIVP03YZXVLN9CW37DVI1MM2&workerId=A36470UBRH28GO&assignmentId=3VBEN272MLL8Q4C8LJC5KQI9Q6MGSZ&a=2NBV3&tp_a=2NBV3&b=3VBEN272MLL8Q4C8LJC5KQI9Q6MGSZ&tp_b=3VBEN272MLL8Q4C8LJC5KQI9Q6MGSZ&c=365633&tp_c=365633","pass":false},{"rt":861,"stimulus":"Oops, you have missed question(s) on the comprehension check! We'll show you the instructions again.","response":0,"trial_type":"html-button-response","trial_index":19,"time_elapsed":829894,"internal_node_id":"0.0-2.5-2.5-0.5","params":{"nStudents":24,"maxFlips":25,"completionMinutes":45,"basePay":8,"maxBonus":9,"perTrialBonus":0.5,"perTrialBonusThreshold":0.05,"exampleCost":0.02},"classroomParams":{"A":{"a":1,"b":4},"B":{"a":4,"b":1},"C":{"a":2,"b":8},"D":{"a":8,"b":2}},"conditions":["nonSeqFull","nonSeqPartial","seqNoFeedback","seqFeedback"],"classroomPairings":[["A","B"],["C","D"]],"coinWeights":[0.2,0.5,0.8],"subjectId":"A36470UBRH28GO","assignmentId":"3VBEN272MLL8Q4C8LJC5KQI9Q6MGSZ","hitId":"3XUY87HIVP03YZXVLN9CW37DVI1MM2","url":"https://gershmanlab.com/experiments/alicia/teaching/experiment/?hitId=3XUY87HIVP03YZXVLN9CW37DVI1MM2&workerId=A36470UBRH28GO&assignmentId=3VBEN272MLL8Q4C8LJC5KQI9Q6MGSZ&a=2NBV3&tp_a=2NBV3&b=3VBEN272MLL8Q4C8LJC5KQI9Q6MGSZ&tp_b=3VBEN272MLL8Q4C8LJC5KQI9Q6MGSZ&c=365633&tp_c=365633"},{"view_history":[{"page_index":0,"viewing_time":1087},{"page_index":1,"viewing_time":781},{"page_index":2,"viewing_time":1598},{"page_index":3,"viewing_time":702},{"page_index":4,"viewing_time":1386},{"page_index":5,"viewing_time":826},{"page_index":6,"viewing_time":758}],"rt":7138,"trial_type":"instructions","trial_index":20,"time_elapsed":837033,"internal_node_id":"0.0-2.6-0.6","params":{"nStudents":24,"maxFlips":25,"completionMinutes":45,"basePay":8,"maxBonus":9,"perTrialBonus":0.5,"perTrialBonusThreshold":0.05,"exampleCost":0.02},"classroomParams":{"A":{"a":1,"b":4},"B":{"a":4,"b":1},"C":{"a":2,"b":8},"D":{"a":8,"b":2}},"conditions":["nonSeqFull","nonSeqPartial","seqNoFeedback","seqFeedback"],"classroomPairings":[["A","B"],["C","D"]],"coinWeights":[0.2,0.5,0.8],"subjectId":"A36470UBRH28GO","assignmentId":"3VBEN272MLL8Q4C8LJC5KQI9Q6MGSZ","hitId":"3XUY87HIVP03YZXVLN9CW37DVI1MM2","url":"https://gershmanlab.com/experiments/alicia/teaching/experiment/?hitId=3XUY87HIVP03YZXVLN9CW37DVI1MM2&workerId=A36470UBRH28GO&assignmentId=3VBEN272MLL8Q4C8LJC5KQI9Q6MGSZ&a=2NBV3&tp_a=2NBV3&b=3VBEN272MLL8Q4C8LJC5KQI9Q6MGSZ&tp_b=3VBEN272MLL8Q4C8LJC5KQI9Q6MGSZ&c=365633&tp_c=365633"},{"rt":22179,"response":{"Q0":"Students in different classrooms will have seen a different number of heads and tails before seeing the examples you select for them.","Q1":"By <b>considering the student's classroom information</b> so that I can teach efficiently and accurately/helpfully at the same time (because each example I give to the student costs money!).","Q2":"The coin lands heads 90% of the time.","Q3":"No, I will teach a <b>new</b> student each time.","Q4":"The students are also on the same alien planet as you, where coins can be unfair.","Q5":"Based on both guesses."},"question_order":[5,2,3,0,1,4],"trial_type":"survey-multi-choice","trial_index":21,"time_elapsed":859213,"internal_node_id":"0.0-2.6-1.6","params":{"nStudents":24,"maxFlips":25,"completionMinutes":45,"basePay":8,"maxBonus":9,"perTrialBonus":0.5,"perTrialBonusThreshold":0.05,"exampleCost":0.02},"classroomParams":{"A":{"a":1,"b":4},"B":{"a":4,"b":1},"C":{"a":2,"b":8},"D":{"a":8,"b":2}},"conditions":["nonSeqFull","nonSeqPartial","seqNoFeedback","seqFeedback"],"classroomPairings":[["A","B"],["C","D"]],"coinWeights":[0.2,0.5,0.8],"subjectId":"A36470UBRH28GO","assignmentId":"3VBEN272MLL8Q4C8LJC5KQI9Q6MGSZ","hitId":"3XUY87HIVP03YZXVLN9CW37DVI1MM2","url":"https://gershmanlab.com/experiments/alicia/teaching/experiment/?hitId=3XUY87HIVP03YZXVLN9CW37DVI1MM2&workerId=A36470UBRH28GO&assignmentId=3VBEN272MLL8Q4C8LJC5KQI9Q6MGSZ&a=2NBV3&tp_a=2NBV3&b=3VBEN272MLL8Q4C8LJC5KQI9Q6MGSZ&tp_b=3VBEN272MLL8Q4C8LJC5KQI9Q6MGSZ&c=365633&tp_c=365633","pass":false},{"rt":1027,"stimulus":"Oops, you have missed question(s) on the comprehension check! We'll show you the instructions again.","response":0,"trial_type":"html-button-response","trial_index":22,"time_elapsed":860244,"internal_node_id":"0.0-2.6-2.6-0.6","params":{"nStudents":24,"maxFlips":25,"completionMinutes":45,"basePay":8,"maxBonus":9,"perTrialBonus":0.5,"perTrialBonusThreshold":0.05,"exampleCost":0.02},"classroomParams":{"A":{"a":1,"b":4},"B":{"a":4,"b":1},"C":{"a":2,"b":8},"D":{"a":8,"b":2}},"conditions":["nonSeqFull","nonSeqPartial","seqNoFeedback","seqFeedback"],"classroomPairings":[["A","B"],["C","D"]],"coinWeights":[0.2,0.5,0.8],"subjectId":"A36470UBRH28GO","assignmentId":"3VBEN272MLL8Q4C8LJC5KQI9Q6MGSZ","hitId":"3XUY87HIVP03YZXVLN9CW37DVI1MM2","url":"https://gershmanlab.com/experiments/alicia/teaching/experiment/?hitId=3XUY87HIVP03YZXVLN9CW37DVI1MM2&workerId=A36470UBRH28GO&assignmentId=3VBEN272MLL8Q4C8LJC5KQI9Q6MGSZ&a=2NBV3&tp_a=2NBV3&b=3VBEN272MLL8Q4C8LJC5KQI9Q6MGSZ&tp_b=3VBEN272MLL8Q4C8LJC5KQI9Q6MGSZ&c=365633&tp_c=365633"},{"view_history":[{"page_index":0,"viewing_time":1149},{"page_index":1,"viewing_time":12287},{"page_index":2,"viewing_time":9523},{"page_index":3,"viewing_time":7878},{"page_index":4,"viewing_time":13964},{"page_index":5,"viewing_time":4032},{"page_index":6,"viewing_time":1260}],"rt":50094,"trial_type":"instructions","trial_index":23,"time_elapsed":910338,"internal_node_id":"0.0-2.7-0.7","params":{"nStudents":24,"maxFlips":25,"completionMinutes":45,"basePay":8,"maxBonus":9,"perTrialBonus":0.5,"perTrialBonusThreshold":0.05,"exampleCost":0.02},"classroomParams":{"A":{"a":1,"b":4},"B":{"a":4,"b":1},"C":{"a":2,"b":8},"D":{"a":8,"b":2}},"conditions":["nonSeqFull","nonSeqPartial","seqNoFeedback","seqFeedback"],"classroomPairings":[["A","B"],["C","D"]],"coinWeights":[0.2,0.5,0.8],"subjectId":"A36470UBRH28GO","assignmentId":"3VBEN272MLL8Q4C8LJC5KQI9Q6MGSZ","hitId":"3XUY87HIVP03YZXVLN9CW37DVI1MM2","url":"https://gershmanlab.com/experiments/alicia/teaching/experiment/?hitId=3XUY87HIVP03YZXVLN9CW37DVI1MM2&workerId=A36470UBRH28GO&assignmentId=3VBEN272MLL8Q4C8LJC5KQI9Q6MGSZ&a=2NBV3&tp_a=2NBV3&b=3VBEN272MLL8Q4C8LJC5KQI9Q6MGSZ&tp_b=3VBEN272MLL8Q4C8LJC5KQI9Q6MGSZ&c=365633&tp_c=365633"},{"rt":24123,"response":{"Q0":"Students in different classrooms will have seen a different number of heads and tails before seeing the examples you select for them.","Q1":"By <b>considering the student's classroom information</b> so that I can teach efficiently and accurately/helpfully at the same time (because each example I give to the student costs money!).","Q2":"The coin lands heads 90% of the time.","Q3":"No, I will teach a <b>new</b> student each time.","Q4":"The students are also on the same alien planet as you, where coins can be unfair.","Q5":"Based on the student's second (and final) guess."},"question_order":[3,2,0,4,5,1],"trial_type":"survey-multi-choice","trial_index":24,"time_elapsed":934462,"internal_node_id":"0.0-2.7-1.7","params":{"nStudents":24,"maxFlips":25,"completionMinutes":45,"basePay":8,"maxBonus":9,"perTrialBonus":0.5,"perTrialBonusThreshold":0.05,"exampleCost":0.02},"classroomParams":{"A":{"a":1,"b":4},"B":{"a":4,"b":1},"C":{"a":2,"b":8},"D":{"a":8,"b":2}},"conditions":["nonSeqFull","nonSeqPartial","seqNoFeedback","seqFeedback"],"classroomPairings":[["A","B"],["C","D"]],"coinWeights":[0.2,0.5,0.8],"subjectId":"A36470UBRH28GO","assignmentId":"3VBEN272MLL8Q4C8LJC5KQI9Q6MGSZ","hitId":"3XUY87HIVP03YZXVLN9CW37DVI1MM2","url":"https://gershmanlab.com/experiments/alicia/teaching/experiment/?hitId=3XUY87HIVP03YZXVLN9CW37DVI1MM2&workerId=A36470UBRH28GO&assignmentId=3VBEN272MLL8Q4C8LJC5KQI9Q6MGSZ&a=2NBV3&tp_a=2NBV3&b=3VBEN272MLL8Q4C8LJC5KQI9Q6MGSZ&tp_b=3VBEN272MLL8Q4C8LJC5KQI9Q6MGSZ&c=365633&tp_c=365633","pass":true},{"rt":null,"stimulus":"<div style=\"font-size:30px;\">Congrats on passing the comprehension quiz! The experiment will begin in a few seconds.</div>","response":null,"trial_type":"html-keyboard-response","trial_index":25,"time_elapsed":937467,"internal_node_id":"0.0-3.0","params":{"nStudents":24,"maxFlips":25,"completionMinutes":45,"basePay":8,"maxBonus":9,"perTrialBonus":0.5,"perTrialBonusThreshold":0.05,"exampleCost":0.02},"classroomParams":{"A":{"a":1,"b":4},"B":{"a":4,"b":1},"C":{"a":2,"b":8},"D":{"a":8,"b":2}},"conditions":["nonSeqFull","nonSeqPartial","seqNoFeedback","seqFeedback"],"classroomPairings":[["A","B"],["C","D"]],"coinWeights":[0.2,0.5,0.8],"subjectId":"A36470UBRH28GO","assignmentId":"3VBEN272MLL8Q4C8LJC5KQI9Q6MGSZ","hitId":"3XUY87HIVP03YZXVLN9CW37DVI1MM2","url":"https://gershmanlab.com/experiments/alicia/teaching/experiment/?hitId=3XUY87HIVP03YZXVLN9CW37DVI1MM2&workerId=A36470UBRH28GO&assignmentId=3VBEN272MLL8Q4C8LJC5KQI9Q6MGSZ&a=2NBV3&tp_a=2NBV3&b=3VBEN272MLL8Q4C8LJC5KQI9Q6MGSZ&tp_b=3VBEN272MLL8Q4C8LJC5KQI9Q6MGSZ&c=365633&tp_c=365633"},{"rt":null,"stimulus":"<div style=\"font-size:50px;\">First student</div>","response":null,"trial_type":"html-keyboard-response","trial_index":26,"time_elapsed":940470,"internal_node_id":"0.0-4.0","params":{"nStudents":24,"maxFlips":25,"completionMinutes":45,"basePay":8,"maxBonus":9,"perTrialBonus":0.5,"perTrialBonusThreshold":0.05,"exampleCost":0.02},"classroomParams":{"A":{"a":1,"b":4},"B":{"a":4,"b":1},"C":{"a":2,"b":8},"D":{"a":8,"b":2}},"conditions":["nonSeqFull","nonSeqPartial","seqNoFeedback","seqFeedback"],"classroomPairings":[["A","B"],["C","D"]],"coinWeights":[0.2,0.5,0.8],"subjectId":"A36470UBRH28GO","assignmentId":"3VBEN272MLL8Q4C8LJC5KQI9Q6MGSZ","hitId":"3XUY87HIVP03YZXVLN9CW37DVI1MM2","url":"https://gershmanlab.com/experiments/alicia/teaching/experiment/?hitId=3XUY87HIVP03YZXVLN9CW37DVI1MM2&workerId=A36470UBRH28GO&assignmentId=3VBEN272MLL8Q4C8LJC5KQI9Q6MGSZ&a=2NBV3&tp_a=2NBV3&b=3VBEN272MLL8Q4C8LJC5KQI9Q6MGSZ&tp_b=3VBEN272MLL8Q4C8LJC5KQI9Q6MGSZ&c=365633&tp_c=365633"},{"rt":14982,"stimulus":"\n            <h4 style=\"color:Orange;\">Student 1</h4>\n            <h2>The weight of your coin is <b style=\"color:Tomato;\">0.8</b>.</h2>\n            <p>In this block, you will be giving <b>one</b> set of examples to Student 1.</p>\n                <p>You will receive feedback at the end of the block.</p>\n            <p></p>","response":0,"trial_type":"html-button-response","trial_index":27,"time_elapsed":955452,"internal_node_id":"0.0-5.0","params":{"nStudents":24,"maxFlips":25,"completionMinutes":45,"basePay":8,"maxBonus":9,"perTrialBonus":0.5,"perTrialBonusThreshold":0.05,"exampleCost":0.02},"classroomParams":{"A":{"a":1,"b":4},"B":{"a":4,"b":1},"C":{"a":2,"b":8},"D":{"a":8,"b":2}},"conditions":["nonSeqFull","nonSeqPartial","seqNoFeedback","seqFeedback"],"classroomPairings":[["A","B"],["C","D"]],"coinWeights":[0.2,0.5,0.8],"subjectId":"A36470UBRH28GO","assignmentId":"3VBEN272MLL8Q4C8LJC5KQI9Q6MGSZ","hitId":"3XUY87HIVP03YZXVLN9CW37DVI1MM2","url":"https://gershmanlab.com/experiments/alicia/teaching/experiment/?hitId=3XUY87HIVP03YZXVLN9CW37DVI1MM2&workerId=A36470UBRH28GO&assignmentId=3VBEN272MLL8Q4C8LJC5KQI9Q6MGSZ&a=2NBV3&tp_a=2NBV3&b=3VBEN272MLL8Q4C8LJC5KQI9Q6MGSZ&tp_b=3VBEN272MLL8Q4C8LJC5KQI9Q6MGSZ&c=365633&tp_c=365633"},{"rt":18307,"response":{"heads":"5","tails":"0"},"type":"response","condition":"nonSeqFull","trueTheta":0.8,"classrooms":["C","D"],"studentTrueClassroom":"C","exampleSet":"first","trial_type":"survey-html-form","trial_index":28,"time_elapsed":973761,"internal_node_id":"0.0-6.0-0.0","params":{"nStudents":24,"maxFlips":25,"completionMinutes":45,"basePay":8,"maxBonus":9,"perTrialBonus":0.5,"perTrialBonusThreshold":0.05,"exampleCost":0.02},"classroomParams":{"A":{"a":1,"b":4},"B":{"a":4,"b":1},"C":{"a":2,"b":8},"D":{"a":8,"b":2}},"conditions":["nonSeqFull","nonSeqPartial","seqNoFeedback","seqFeedback"],"classroomPairings":[["A","B"],["C","D"]],"coinWeights":[0.2,0.5,0.8],"subjectId":"A36470UBRH28GO","assignmentId":"3VBEN272MLL8Q4C8LJC5KQI9Q6MGSZ","hitId":"3XUY87HIVP03YZXVLN9CW37DVI1MM2","url":"https://gershmanlab.com/experiments/alicia/teaching/experiment/?hitId=3XUY87HIVP03YZXVLN9CW37DVI1MM2&workerId=A36470UBRH28GO&assignmentId=3VBEN272MLL8Q4C8LJC5KQI9Q6MGSZ&a=2NBV3&tp_a=2NBV3&b=3VBEN272MLL8Q4C8LJC5KQI9Q6MGSZ&tp_b=3VBEN272MLL8Q4C8LJC5KQI9Q6MGSZ&c=365633&tp_c=365633","heads":5,"tails":0,"studentIndex":0,"studentTrueHypers":{"a":2,"b":8},"studentGuess":0.4666666666666667,"delta":0.33333333333333337,"totalExamples":5,"bonus":0,"bonusSoFar":0},{"rt":null,"stimulus":"Sending examples to student... ","response":null,"trial_type":"html-keyboard-response","trial_index":29,"time_elapsed":975763,"internal_node_id":"0.0-7.0","params":{"nStudents":24,"maxFlips":25,"completionMinutes":45,"basePay":8,"maxBonus":9,"perTrialBonus":0.5,"perTrialBonusThreshold":0.05,"exampleCost":0.02},"classroomParams":{"A":{"a":1,"b":4},"B":{"a":4,"b":1},"C":{"a":2,"b":8},"D":{"a":8,"b":2}},"conditions":["nonSeqFull","nonSeqPartial","seqNoFeedback","seqFeedback"],"classroomPairings":[["A","B"],["C","D"]],"coinWeights":[0.2,0.5,0.8],"subjectId":"A36470UBRH28GO","assignmentId":"3VBEN272MLL8Q4C8LJC5KQI9Q6MGSZ","hitId":"3XUY87HIVP03YZXVLN9CW37DVI1MM2","url":"https://gershmanlab.com/experiments/alicia/teaching/experiment/?hitId=3XUY87HIVP03YZXVLN9CW37DVI1MM2&workerId=A36470UBRH28GO&assignmentId=3VBEN272MLL8Q4C8LJC5KQI9Q6MGSZ&a=2NBV3&tp_a=2NBV3&b=3VBEN272MLL8Q4C8LJC5KQI9Q6MGSZ&tp_b=3VBEN272MLL8Q4C8LJC5KQI9Q6MGSZ&c=365633&tp_c=365633"},{"rt":null,"stimulus":"Examples sent to student! Waiting for student...","response":null,"trial_type":"html-keyboard-response","trial_index":30,"time_elapsed":979775,"internal_node_id":"0.0-8.0","params":{"nStudents":24,"maxFlips":25,"completionMinutes":45,"basePay":8,"maxBonus":9,"perTrialBonus":0.5,"perTrialBonusThreshold":0.05,"exampleCost":0.02},"classroomParams":{"A":{"a":1,"b":4},"B":{"a":4,"b":1},"C":{"a":2,"b":8},"D":{"a":8,"b":2}},"conditions":["nonSeqFull","nonSeqPartial","seqNoFeedback","seqFeedback"],"classroomPairings":[["A","B"],["C","D"]],"coinWeights":[0.2,0.5,0.8],"subjectId":"A36470UBRH28GO","assignmentId":"3VBEN272MLL8Q4C8LJC5KQI9Q6MGSZ","hitId":"3XUY87HIVP03YZXVLN9CW37DVI1MM2","url":"https://gershmanlab.com/experiments/alicia/teaching/experiment/?hitId=3XUY87HIVP03YZXVLN9CW37DVI1MM2&workerId=A36470UBRH28GO&assignmentId=3VBEN272MLL8Q4C8LJC5KQI9Q6MGSZ&a=2NBV3&tp_a=2NBV3&b=3VBEN272MLL8Q4C8LJC5KQI9Q6MGSZ&tp_b=3VBEN272MLL8Q4C8LJC5KQI9Q6MGSZ&c=365633&tp_c=365633"},{"rt":6274,"stimulus":"\n                <p>Student's guess for coin weight: <b style=\"color:Tomato;\">0.47</b></p>\n                <p>You received a bonus of <b>$0</b>. Total bonus so far: <b>$0.00</b></b></p>\n                <p></p>\n                <p>Press any key to continue.</p>\n                ","response":"0","trial_type":"html-keyboard-response","trial_index":31,"time_elapsed":986050,"internal_node_id":"0.0-9.0","params":{"nStudents":24,"maxFlips":25,"completionMinutes":45,"basePay":8,"maxBonus":9,"perTrialBonus":0.5,"perTrialBonusThreshold":0.05,"exampleCost":0.02},"classroomParams":{"A":{"a":1,"b":4},"B":{"a":4,"b":1},"C":{"a":2,"b":8},"D":{"a":8,"b":2}},"conditions":["nonSeqFull","nonSeqPartial","seqNoFeedback","seqFeedback"],"classroomPairings":[["A","B"],["C","D"]],"coinWeights":[0.2,0.5,0.8],"subjectId":"A36470UBRH28GO","assignmentId":"3VBEN272MLL8Q4C8LJC5KQI9Q6MGSZ","hitId":"3XUY87HIVP03YZXVLN9CW37DVI1MM2","url":"https://gershmanlab.com/experiments/alicia/teaching/experiment/?hitId=3XUY87HIVP03YZXVLN9CW37DVI1MM2&workerId=A36470UBRH28GO&assignmentId=3VBEN272MLL8Q4C8LJC5KQI9Q6MGSZ&a=2NBV3&tp_a=2NBV3&b=3VBEN272MLL8Q4C8LJC5KQI9Q6MGSZ&tp_b=3VBEN272MLL8Q4C8LJC5KQI9Q6MGSZ&c=365633&tp_c=365633"},{"rt":null,"stimulus":"<div style=\"font-size:60px;\">Next student</div>","response":null,"trial_type":"html-keyboard-response","trial_index":32,"time_elapsed":988051,"internal_node_id":"0.0-10.0-0.0","params":{"nStudents":24,"maxFlips":25,"completionMinutes":45,"basePay":8,"maxBonus":9,"perTrialBonus":0.5,"perTrialBonusThreshold":0.05,"exampleCost":0.02},"classroomParams":{"A":{"a":1,"b":4},"B":{"a":4,"b":1},"C":{"a":2,"b":8},"D":{"a":8,"b":2}},"conditions":["nonSeqFull","nonSeqPartial","seqNoFeedback","seqFeedback"],"classroomPairings":[["A","B"],["C","D"]],"coinWeights":[0.2,0.5,0.8],"subjectId":"A36470UBRH28GO","assignmentId":"3VBEN272MLL8Q4C8LJC5KQI9Q6MGSZ","hitId":"3XUY87HIVP03YZXVLN9CW37DVI1MM2","url":"https://gershmanlab.com/experiments/alicia/teaching/experiment/?hitId=3XUY87HIVP03YZXVLN9CW37DVI1MM2&workerId=A36470UBRH28GO&assignmentId=3VBEN272MLL8Q4C8LJC5KQI9Q6MGSZ&a=2NBV3&tp_a=2NBV3&b=3VBEN272MLL8Q4C8LJC5KQI9Q6MGSZ&tp_b=3VBEN272MLL8Q4C8LJC5KQI9Q6MGSZ&c=365633&tp_c=365633"},{"rt":15676,"stimulus":"\n            <h4 style=\"color:Orange;\">Student 2</h4>\n            <h2>The weight of your coin is <b style=\"color:Tomato;\">0.8</b>.</h2>\n            <p>In this block, you will be giving <b>two</b> sets of examples to Student 2.</p>\n                <p>You will see the student's guess after the first set of examples. You will also receive feedback at the end of the block.</p>\n            <p>To earn the highest bonus, you will have to <b>take into consideration the student's guess</b> when you choose your second set of examples.</p>","response":0,"trial_type":"html-button-response","trial_index":33,"time_elapsed":1003728,"internal_node_id":"0.0-11.0","params":{"nStudents":24,"maxFlips":25,"completionMinutes":45,"basePay":8,"maxBonus":9,"perTrialBonus":0.5,"perTrialBonusThreshold":0.05,"exampleCost":0.02},"classroomParams":{"A":{"a":1,"b":4},"B":{"a":4,"b":1},"C":{"a":2,"b":8},"D":{"a":8,"b":2}},"conditions":["nonSeqFull","nonSeqPartial","seqNoFeedback","seqFeedback"],"classroomPairings":[["A","B"],["C","D"]],"coinWeights":[0.2,0.5,0.8],"subjectId":"A36470UBRH28GO","assignmentId":"3VBEN272MLL8Q4C8LJC5KQI9Q6MGSZ","hitId":"3XUY87HIVP03YZXVLN9CW37DVI1MM2","url":"https://gershmanlab.com/experiments/alicia/teaching/experiment/?hitId=3XUY87HIVP03YZXVLN9CW37DVI1MM2&workerId=A36470UBRH28GO&assignmentId=3VBEN272MLL8Q4C8LJC5KQI9Q6MGSZ&a=2NBV3&tp_a=2NBV3&b=3VBEN272MLL8Q4C8LJC5KQI9Q6MGSZ&tp_b=3VBEN272MLL8Q4C8LJC5KQI9Q6MGSZ&c=365633&tp_c=365633"},{"rt":19911,"response":{"heads":"5","tails":"0"},"type":"response","condition":"seqFeedback","trueTheta":0.8,"classrooms":["C","D"],"studentTrueClassroom":"C","exampleSet":"first","trial_type":"survey-html-form","trial_index":34,"time_elapsed":1023641,"internal_node_id":"0.0-12.0-0.0","params":{"nStudents":24,"maxFlips":25,"completionMinutes":45,"basePay":8,"maxBonus":9,"perTrialBonus":0.5,"perTrialBonusThreshold":0.05,"exampleCost":0.02},"classroomParams":{"A":{"a":1,"b":4},"B":{"a":4,"b":1},"C":{"a":2,"b":8},"D":{"a":8,"b":2}},"conditions":["nonSeqFull","nonSeqPartial","seqNoFeedback","seqFeedback"],"classroomPairings":[["A","B"],["C","D"]],"coinWeights":[0.2,0.5,0.8],"subjectId":"A36470UBRH28GO","assignmentId":"3VBEN272MLL8Q4C8LJC5KQI9Q6MGSZ","hitId":"3XUY87HIVP03YZXVLN9CW37DVI1MM2","url":"https://gershmanlab.com/experiments/alicia/teaching/experiment/?hitId=3XUY87HIVP03YZXVLN9CW37DVI1MM2&workerId=A36470UBRH28GO&assignmentId=3VBEN272MLL8Q4C8LJC5KQI9Q6MGSZ&a=2NBV3&tp_a=2NBV3&b=3VBEN272MLL8Q4C8LJC5KQI9Q6MGSZ&tp_b=3VBEN272MLL8Q4C8LJC5KQI9Q6MGSZ&c=365633&tp_c=365633","heads":5,"tails":0,"studentIndex":1,"studentTrueHypers":{"a":2,"b":8},"studentGuess":0.4666666666666667,"delta":0.33333333333333337,"totalExamples":5,"bonusSoFar":0},{"rt":null,"stimulus":"Sending examples to student... ","response":null,"trial_type":"html-keyboard-response","trial_index":35,"time_elapsed":1025643,"internal_node_id":"0.0-13.0","params":{"nStudents":24,"maxFlips":25,"completionMinutes":45,"basePay":8,"maxBonus":9,"perTrialBonus":0.5,"perTrialBonusThreshold":0.05,"exampleCost":0.02},"classroomParams":{"A":{"a":1,"b":4},"B":{"a":4,"b":1},"C":{"a":2,"b":8},"D":{"a":8,"b":2}},"conditions":["nonSeqFull","nonSeqPartial","seqNoFeedback","seqFeedback"],"classroomPairings":[["A","B"],["C","D"]],"coinWeights":[0.2,0.5,0.8],"subjectId":"A36470UBRH28GO","assignmentId":"3VBEN272MLL8Q4C8LJC5KQI9Q6MGSZ","hitId":"3XUY87HIVP03YZXVLN9CW37DVI1MM2","url":"https://gershmanlab.com/experiments/alicia/teaching/experiment/?hitId=3XUY87HIVP03YZXVLN9CW37DVI1MM2&workerId=A36470UBRH28GO&assignmentId=3VBEN272MLL8Q4C8LJC5KQI9Q6MGSZ&a=2NBV3&tp_a=2NBV3&b=3VBEN272MLL8Q4C8LJC5KQI9Q6MGSZ&tp_b=3VBEN272MLL8Q4C8LJC5KQI9Q6MGSZ&c=365633&tp_c=365633"},{"rt":null,"stimulus":"Examples sent to student! Waiting for student...","response":null,"trial_type":"html-keyboard-response","trial_index":36,"time_elapsed":1029644,"internal_node_id":"0.0-14.0","params":{"nStudents":24,"maxFlips":25,"completionMinutes":45,"basePay":8,"maxBonus":9,"perTrialBonus":0.5,"perTrialBonusThreshold":0.05,"exampleCost":0.02},"classroomParams":{"A":{"a":1,"b":4},"B":{"a":4,"b":1},"C":{"a":2,"b":8},"D":{"a":8,"b":2}},"conditions":["nonSeqFull","nonSeqPartial","seqNoFeedback","seqFeedback"],"classroomPairings":[["A","B"],["C","D"]],"coinWeights":[0.2,0.5,0.8],"subjectId":"A36470UBRH28GO","assignmentId":"3VBEN272MLL8Q4C8LJC5KQI9Q6MGSZ","hitId":"3XUY87HIVP03YZXVLN9CW37DVI1MM2","url":"https://gershmanlab.com/experiments/alicia/teaching/experiment/?hitId=3XUY87HIVP03YZXVLN9CW37DVI1MM2&workerId=A36470UBRH28GO&assignmentId=3VBEN272MLL8Q4C8LJC5KQI9Q6MGSZ&a=2NBV3&tp_a=2NBV3&b=3VBEN272MLL8Q4C8LJC5KQI9Q6MGSZ&tp_b=3VBEN272MLL8Q4C8LJC5KQI9Q6MGSZ&c=365633&tp_c=365633"},{"rt":6416,"stimulus":"\n                <p>Student's guess for coin weight: <b style=\"color:Tomato;\">0.47</b></p>\n                <p></b></p>\n                <p>You will now send another set of examples to your student. <b>Remember to take your student's guess into consideration so that you can earn the highest bonus possible!</b> </p>\n                <p>Press any key to continue.</p>\n                ","response":"0","trial_type":"html-keyboard-response","trial_index":37,"time_elapsed":1036061,"internal_node_id":"0.0-15.0","params":{"nStudents":24,"maxFlips":25,"completionMinutes":45,"basePay":8,"maxBonus":9,"perTrialBonus":0.5,"perTrialBonusThreshold":0.05,"exampleCost":0.02},"classroomParams":{"A":{"a":1,"b":4},"B":{"a":4,"b":1},"C":{"a":2,"b":8},"D":{"a":8,"b":2}},"conditions":["nonSeqFull","nonSeqPartial","seqNoFeedback","seqFeedback"],"classroomPairings":[["A","B"],["C","D"]],"coinWeights":[0.2,0.5,0.8],"subjectId":"A36470UBRH28GO","assignmentId":"3VBEN272MLL8Q4C8LJC5KQI9Q6MGSZ","hitId":"3XUY87HIVP03YZXVLN9CW37DVI1MM2","url":"https://gershmanlab.com/experiments/alicia/teaching/experiment/?hitId=3XUY87HIVP03YZXVLN9CW37DVI1MM2&workerId=A36470UBRH28GO&assignmentId=3VBEN272MLL8Q4C8LJC5KQI9Q6MGSZ&a=2NBV3&tp_a=2NBV3&b=3VBEN272MLL8Q4C8LJC5KQI9Q6MGSZ&tp_b=3VBEN272MLL8Q4C8LJC5KQI9Q6MGSZ&c=365633&tp_c=365633"},{"rt":21351,"response":{"heads":"3","tails":"2"},"type":"response","condition":"seqFeedback","trueTheta":0.8,"classrooms":["C","D"],"studentTrueClassroom":"C","exampleSet":"second","trial_type":"survey-html-form","trial_index":38,"time_elapsed":1057413,"internal_node_id":"0.0-16.0-0.0","params":{"nStudents":24,"maxFlips":25,"completionMinutes":45,"basePay":8,"maxBonus":9,"perTrialBonus":0.5,"perTrialBonusThreshold":0.05,"exampleCost":0.02},"classroomParams":{"A":{"a":1,"b":4},"B":{"a":4,"b":1},"C":{"a":2,"b":8},"D":{"a":8,"b":2}},"conditions":["nonSeqFull","nonSeqPartial","seqNoFeedback","seqFeedback"],"classroomPairings":[["A","B"],["C","D"]],"coinWeights":[0.2,0.5,0.8],"subjectId":"A36470UBRH28GO","assignmentId":"3VBEN272MLL8Q4C8LJC5KQI9Q6MGSZ","hitId":"3XUY87HIVP03YZXVLN9CW37DVI1MM2","url":"https://gershmanlab.com/experiments/alicia/teaching/experiment/?hitId=3XUY87HIVP03YZXVLN9CW37DVI1MM2&workerId=A36470UBRH28GO&assignmentId=3VBEN272MLL8Q4C8LJC5KQI9Q6MGSZ&a=2NBV3&tp_a=2NBV3&b=3VBEN272MLL8Q4C8LJC5KQI9Q6MGSZ&tp_b=3VBEN272MLL8Q4C8LJC5KQI9Q6MGSZ&c=365633&tp_c=365633","firstResponseHeads":5,"firstResponseTails":0,"secondResponseHeads":3,"secondResponseTails":2,"totalHeads":8,"totalTails":2,"studentIndex":1,"studentTrueHypers":{"a":2,"b":8},"studentGuess":0.5,"delta":0.30000000000000004,"bonus":0,"bonusSoFar":0,"totalExamples":10},{"rt":null,"stimulus":"Sending examples to student... ","response":null,"trial_type":"html-keyboard-response","trial_index":39,"time_elapsed":1059414,"internal_node_id":"0.0-17.0","params":{"nStudents":24,"maxFlips":25,"completionMinutes":45,"basePay":8,"maxBonus":9,"perTrialBonus":0.5,"perTrialBonusThreshold":0.05,"exampleCost":0.02},"classroomParams":{"A":{"a":1,"b":4},"B":{"a":4,"b":1},"C":{"a":2,"b":8},"D":{"a":8,"b":2}},"conditions":["nonSeqFull","nonSeqPartial","seqNoFeedback","seqFeedback"],"classroomPairings":[["A","B"],["C","D"]],"coinWeights":[0.2,0.5,0.8],"subjectId":"A36470UBRH28GO","assignmentId":"3VBEN272MLL8Q4C8LJC5KQI9Q6MGSZ","hitId":"3XUY87HIVP03YZXVLN9CW37DVI1MM2","url":"https://gershmanlab.com/experiments/alicia/teaching/experiment/?hitId=3XUY87HIVP03YZXVLN9CW37DVI1MM2&workerId=A36470UBRH28GO&assignmentId=3VBEN272MLL8Q4C8LJC5KQI9Q6MGSZ&a=2NBV3&tp_a=2NBV3&b=3VBEN272MLL8Q4C8LJC5KQI9Q6MGSZ&tp_b=3VBEN272MLL8Q4C8LJC5KQI9Q6MGSZ&c=365633&tp_c=365633"},{"rt":null,"stimulus":"Examples sent to student! Waiting for student...","response":null,"trial_type":"html-keyboard-response","trial_index":40,"time_elapsed":1064420,"internal_node_id":"0.0-18.0","params":{"nStudents":24,"maxFlips":25,"completionMinutes":45,"basePay":8,"maxBonus":9,"perTrialBonus":0.5,"perTrialBonusThreshold":0.05,"exampleCost":0.02},"classroomParams":{"A":{"a":1,"b":4},"B":{"a":4,"b":1},"C":{"a":2,"b":8},"D":{"a":8,"b":2}},"conditions":["nonSeqFull","nonSeqPartial","seqNoFeedback","seqFeedback"],"classroomPairings":[["A","B"],["C","D"]],"coinWeights":[0.2,0.5,0.8],"subjectId":"A36470UBRH28GO","assignmentId":"3VBEN272MLL8Q4C8LJC5KQI9Q6MGSZ","hitId":"3XUY87HIVP03YZXVLN9CW37DVI1MM2","url":"https://gershmanlab.com/experiments/alicia/teaching/experiment/?hitId=3XUY87HIVP03YZXVLN9CW37DVI1MM2&workerId=A36470UBRH28GO&assignmentId=3VBEN272MLL8Q4C8LJC5KQI9Q6MGSZ&a=2NBV3&tp_a=2NBV3&b=3VBEN272MLL8Q4C8LJC5KQI9Q6MGSZ&tp_b=3VBEN272MLL8Q4C8LJC5KQI9Q6MGSZ&c=365633&tp_c=365633"},{"rt":4107,"stimulus":"\n                <p>Student 2's first guess for coin weight: <b style=\"color:Tomato\";>0.47</b></p>\n                <p>Student 2's second guess for coin weight: <b style=\"color:Tomato\";>0.50</b></p>\n                <p>You received a bonus of <b>$0.00</b> based on the student's second guess.</p>\n                <p>Total bonus so far: <b>$0.00</b></p>\n                <p>Press any key to continue.</p>\n                ","response":"0","trial_type":"html-keyboard-response","trial_index":41,"time_elapsed":1068528,"internal_node_id":"0.0-19.0","params":{"nStudents":24,"maxFlips":25,"completionMinutes":45,"basePay":8,"maxBonus":9,"perTrialBonus":0.5,"perTrialBonusThreshold":0.05,"exampleCost":0.02},"classroomParams":{"A":{"a":1,"b":4},"B":{"a":4,"b":1},"C":{"a":2,"b":8},"D":{"a":8,"b":2}},"conditions":["nonSeqFull","nonSeqPartial","seqNoFeedback","seqFeedback"],"classroomPairings":[["A","B"],["C","D"]],"coinWeights":[0.2,0.5,0.8],"subjectId":"A36470UBRH28GO","assignmentId":"3VBEN272MLL8Q4C8LJC5KQI9Q6MGSZ","hitId":"3XUY87HIVP03YZXVLN9CW37DVI1MM2","url":"https://gershmanlab.com/experiments/alicia/teaching/experiment/?hitId=3XUY87HIVP03YZXVLN9CW37DVI1MM2&workerId=A36470UBRH28GO&assignmentId=3VBEN272MLL8Q4C8LJC5KQI9Q6MGSZ&a=2NBV3&tp_a=2NBV3&b=3VBEN272MLL8Q4C8LJC5KQI9Q6MGSZ&tp_b=3VBEN272MLL8Q4C8LJC5KQI9Q6MGSZ&c=365633&tp_c=365633"},{"rt":null,"stimulus":"<div style=\"font-size:60px;\">Next student</div>","response":null,"trial_type":"html-keyboard-response","trial_index":42,"time_elapsed":1071539,"internal_node_id":"0.0-20.0-0.0","params":{"nStudents":24,"maxFlips":25,"completionMinutes":45,"basePay":8,"maxBonus":9,"perTrialBonus":0.5,"perTrialBonusThreshold":0.05,"exampleCost":0.02},"classroomParams":{"A":{"a":1,"b":4},"B":{"a":4,"b":1},"C":{"a":2,"b":8},"D":{"a":8,"b":2}},"conditions":["nonSeqFull","nonSeqPartial","seqNoFeedback","seqFeedback"],"classroomPairings":[["A","B"],["C","D"]],"coinWeights":[0.2,0.5,0.8],"subjectId":"A36470UBRH28GO","assignmentId":"3VBEN272MLL8Q4C8LJC5KQI9Q6MGSZ","hitId":"3XUY87HIVP03YZXVLN9CW37DVI1MM2","url":"https://gershmanlab.com/experiments/alicia/teaching/experiment/?hitId=3XUY87HIVP03YZXVLN9CW37DVI1MM2&workerId=A36470UBRH28GO&assignmentId=3VBEN272MLL8Q4C8LJC5KQI9Q6MGSZ&a=2NBV3&tp_a=2NBV3&b=3VBEN272MLL8Q4C8LJC5KQI9Q6MGSZ&tp_b=3VBEN272MLL8Q4C8LJC5KQI9Q6MGSZ&c=365633&tp_c=365633"},{"rt":4870,"stimulus":"\n            <h4 style=\"color:Orange;\">Student 3</h4>\n            <h2>The weight of your coin is <b style=\"color:Tomato;\">0.5</b>.</h2>\n            <p>In this block, you will be giving <b>one</b> set of examples to Student 3.</p>\n                <p>You will receive feedback at the end of the block.</p>\n            <p></p>","response":0,"trial_type":"html-button-response","trial_index":43,"time_elapsed":1076410,"internal_node_id":"0.0-21.0","params":{"nStudents":24,"maxFlips":25,"completionMinutes":45,"basePay":8,"maxBonus":9,"perTrialBonus":0.5,"perTrialBonusThreshold":0.05,"exampleCost":0.02},"classroomParams":{"A":{"a":1,"b":4},"B":{"a":4,"b":1},"C":{"a":2,"b":8},"D":{"a":8,"b":2}},"conditions":["nonSeqFull","nonSeqPartial","seqNoFeedback","seqFeedback"],"classroomPairings":[["A","B"],["C","D"]],"coinWeights":[0.2,0.5,0.8],"subjectId":"A36470UBRH28GO","assignmentId":"3VBEN272MLL8Q4C8LJC5KQI9Q6MGSZ","hitId":"3XUY87HIVP03YZXVLN9CW37DVI1MM2","url":"https://gershmanlab.com/experiments/alicia/teaching/experiment/?hitId=3XUY87HIVP03YZXVLN9CW37DVI1MM2&workerId=A36470UBRH28GO&assignmentId=3VBEN272MLL8Q4C8LJC5KQI9Q6MGSZ&a=2NBV3&tp_a=2NBV3&b=3VBEN272MLL8Q4C8LJC5KQI9Q6MGSZ&tp_b=3VBEN272MLL8Q4C8LJC5KQI9Q6MGSZ&c=365633&tp_c=365633"},{"rt":7481,"response":{"heads":"1","tails":"1"},"type":"response","condition":"nonSeqFull","trueTheta":0.5,"classrooms":["C","D"],"studentTrueClassroom":"C","exampleSet":"first","trial_type":"survey-html-form","trial_index":44,"time_elapsed":1083893,"internal_node_id":"0.0-22.0-0.0","params":{"nStudents":24,"maxFlips":25,"completionMinutes":45,"basePay":8,"maxBonus":9,"perTrialBonus":0.5,"perTrialBonusThreshold":0.05,"exampleCost":0.02},"classroomParams":{"A":{"a":1,"b":4},"B":{"a":4,"b":1},"C":{"a":2,"b":8},"D":{"a":8,"b":2}},"conditions":["nonSeqFull","nonSeqPartial","seqNoFeedback","seqFeedback"],"classroomPairings":[["A","B"],["C","D"]],"coinWeights":[0.2,0.5,0.8],"subjectId":"A36470UBRH28GO","assignmentId":"3VBEN272MLL8Q4C8LJC5KQI9Q6MGSZ","hitId":"3XUY87HIVP03YZXVLN9CW37DVI1MM2","url":"https://gershmanlab.com/experiments/alicia/teaching/experiment/?hitId=3XUY87HIVP03YZXVLN9CW37DVI1MM2&workerId=A36470UBRH28GO&assignmentId=3VBEN272MLL8Q4C8LJC5KQI9Q6MGSZ&a=2NBV3&tp_a=2NBV3&b=3VBEN272MLL8Q4C8LJC5KQI9Q6MGSZ&tp_b=3VBEN272MLL8Q4C8LJC5KQI9Q6MGSZ&c=365633&tp_c=365633","heads":1,"tails":1,"studentIndex":2,"studentTrueHypers":{"a":2,"b":8},"studentGuess":0.25,"delta":0.25,"totalExamples":2,"bonus":0,"bonusSoFar":0},{"rt":null,"stimulus":"Sending examples to student... ","response":null,"trial_type":"html-keyboard-response","trial_index":45,"time_elapsed":1085897,"internal_node_id":"0.0-23.0","params":{"nStudents":24,"maxFlips":25,"completionMinutes":45,"basePay":8,"maxBonus":9,"perTrialBonus":0.5,"perTrialBonusThreshold":0.05,"exampleCost":0.02},"classroomParams":{"A":{"a":1,"b":4},"B":{"a":4,"b":1},"C":{"a":2,"b":8},"D":{"a":8,"b":2}},"conditions":["nonSeqFull","nonSeqPartial","seqNoFeedback","seqFeedback"],"classroomPairings":[["A","B"],["C","D"]],"coinWeights":[0.2,0.5,0.8],"subjectId":"A36470UBRH28GO","assignmentId":"3VBEN272MLL8Q4C8LJC5KQI9Q6MGSZ","hitId":"3XUY87HIVP03YZXVLN9CW37DVI1MM2","url":"https://gershmanlab.com/experiments/alicia/teaching/experiment/?hitId=3XUY87HIVP03YZXVLN9CW37DVI1MM2&workerId=A36470UBRH28GO&assignmentId=3VBEN272MLL8Q4C8LJC5KQI9Q6MGSZ&a=2NBV3&tp_a=2NBV3&b=3VBEN272MLL8Q4C8LJC5KQI9Q6MGSZ&tp_b=3VBEN272MLL8Q4C8LJC5KQI9Q6MGSZ&c=365633&tp_c=365633"},{"rt":null,"stimulus":"Examples sent to student! Waiting for student...","response":null,"trial_type":"html-keyboard-response","trial_index":46,"time_elapsed":1089899,"internal_node_id":"0.0-24.0","params":{"nStudents":24,"maxFlips":25,"completionMinutes":45,"basePay":8,"maxBonus":9,"perTrialBonus":0.5,"perTrialBonusThreshold":0.05,"exampleCost":0.02},"classroomParams":{"A":{"a":1,"b":4},"B":{"a":4,"b":1},"C":{"a":2,"b":8},"D":{"a":8,"b":2}},"conditions":["nonSeqFull","nonSeqPartial","seqNoFeedback","seqFeedback"],"classroomPairings":[["A","B"],["C","D"]],"coinWeights":[0.2,0.5,0.8],"subjectId":"A36470UBRH28GO","assignmentId":"3VBEN272MLL8Q4C8LJC5KQI9Q6MGSZ","hitId":"3XUY87HIVP03YZXVLN9CW37DVI1MM2","url":"https://gershmanlab.com/experiments/alicia/teaching/experiment/?hitId=3XUY87HIVP03YZXVLN9CW37DVI1MM2&workerId=A36470UBRH28GO&assignmentId=3VBEN272MLL8Q4C8LJC5KQI9Q6MGSZ&a=2NBV3&tp_a=2NBV3&b=3VBEN272MLL8Q4C8LJC5KQI9Q6MGSZ&tp_b=3VBEN272MLL8Q4C8LJC5KQI9Q6MGSZ&c=365633&tp_c=365633"},{"rt":2439,"stimulus":"\n                <p>Student's guess for coin weight: <b style=\"color:Tomato;\">0.25</b></p>\n                <p>You received a bonus of <b>$0</b>. Total bonus so far: <b>$0.00</b></b></p>\n                <p></p>\n                <p>Press any key to continue.</p>\n                ","response":"tab","trial_type":"html-keyboard-response","trial_index":47,"time_elapsed":1092339,"internal_node_id":"0.0-25.0","params":{"nStudents":24,"maxFlips":25,"completionMinutes":45,"basePay":8,"maxBonus":9,"perTrialBonus":0.5,"perTrialBonusThreshold":0.05,"exampleCost":0.02},"classroomParams":{"A":{"a":1,"b":4},"B":{"a":4,"b":1},"C":{"a":2,"b":8},"D":{"a":8,"b":2}},"conditions":["nonSeqFull","nonSeqPartial","seqNoFeedback","seqFeedback"],"classroomPairings":[["A","B"],["C","D"]],"coinWeights":[0.2,0.5,0.8],"subjectId":"A36470UBRH28GO","assignmentId":"3VBEN272MLL8Q4C8LJC5KQI9Q6MGSZ","hitId":"3XUY87HIVP03YZXVLN9CW37DVI1MM2","url":"https://gershmanlab.com/experiments/alicia/teaching/experiment/?hitId=3XUY87HIVP03YZXVLN9CW37DVI1MM2&workerId=A36470UBRH28GO&assignmentId=3VBEN272MLL8Q4C8LJC5KQI9Q6MGSZ&a=2NBV3&tp_a=2NBV3&b=3VBEN272MLL8Q4C8LJC5KQI9Q6MGSZ&tp_b=3VBEN272MLL8Q4C8LJC5KQI9Q6MGSZ&c=365633&tp_c=365633"},{"rt":null,"stimulus":"<div style=\"font-size:60px;\">Next student</div>","response":null,"trial_type":"html-keyboard-response","trial_index":48,"time_elapsed":1094344,"internal_node_id":"0.0-26.0-0.0","params":{"nStudents":24,"maxFlips":25,"completionMinutes":45,"basePay":8,"maxBonus":9,"perTrialBonus":0.5,"perTrialBonusThreshold":0.05,"exampleCost":0.02},"classroomParams":{"A":{"a":1,"b":4},"B":{"a":4,"b":1},"C":{"a":2,"b":8},"D":{"a":8,"b":2}},"conditions":["nonSeqFull","nonSeqPartial","seqNoFeedback","seqFeedback"],"classroomPairings":[["A","B"],["C","D"]],"coinWeights":[0.2,0.5,0.8],"subjectId":"A36470UBRH28GO","assignmentId":"3VBEN272MLL8Q4C8LJC5KQI9Q6MGSZ","hitId":"3XUY87HIVP03YZXVLN9CW37DVI1MM2","url":"https://gershmanlab.com/experiments/alicia/teaching/experiment/?hitId=3XUY87HIVP03YZXVLN9CW37DVI1MM2&workerId=A36470UBRH28GO&assignmentId=3VBEN272MLL8Q4C8LJC5KQI9Q6MGSZ&a=2NBV3&tp_a=2NBV3&b=3VBEN272MLL8Q4C8LJC5KQI9Q6MGSZ&tp_b=3VBEN272MLL8Q4C8LJC5KQI9Q6MGSZ&c=365633&tp_c=365633"},{"rt":1412,"stimulus":"\n            <h4 style=\"color:Orange;\">Student 4</h4>\n            <h2>The weight of your coin is <b style=\"color:Tomato;\">0.8</b>.</h2>\n            <p>In this block, you will be giving <b>one</b> set of examples to Student 4.</p>\n                <p>You will receive feedback at the end of the block.</p>\n            <p></p>","response":0,"trial_type":"html-button-response","trial_index":49,"time_elapsed":1095756,"internal_node_id":"0.0-27.0","params":{"nStudents":24,"maxFlips":25,"completionMinutes":45,"basePay":8,"maxBonus":9,"perTrialBonus":0.5,"perTrialBonusThreshold":0.05,"exampleCost":0.02},"classroomParams":{"A":{"a":1,"b":4},"B":{"a":4,"b":1},"C":{"a":2,"b":8},"D":{"a":8,"b":2}},"conditions":["nonSeqFull","nonSeqPartial","seqNoFeedback","seqFeedback"],"classroomPairings":[["A","B"],["C","D"]],"coinWeights":[0.2,0.5,0.8],"subjectId":"A36470UBRH28GO","assignmentId":"3VBEN272MLL8Q4C8LJC5KQI9Q6MGSZ","hitId":"3XUY87HIVP03YZXVLN9CW37DVI1MM2","url":"https://gershmanlab.com/experiments/alicia/teaching/experiment/?hitId=3XUY87HIVP03YZXVLN9CW37DVI1MM2&workerId=A36470UBRH28GO&assignmentId=3VBEN272MLL8Q4C8LJC5KQI9Q6MGSZ&a=2NBV3&tp_a=2NBV3&b=3VBEN272MLL8Q4C8LJC5KQI9Q6MGSZ&tp_b=3VBEN272MLL8Q4C8LJC5KQI9Q6MGSZ&c=365633&tp_c=365633"},{"rt":10837,"response":{"heads":"2","tails":"2"},"type":"response","condition":"nonSeqPartial","trueTheta":0.8,"classrooms":["A","B"],"studentTrueClassroom":"B","exampleSet":"first","trial_type":"survey-html-form","trial_index":50,"time_elapsed":1106595,"internal_node_id":"0.0-28.0-0.0","params":{"nStudents":24,"maxFlips":25,"completionMinutes":45,"basePay":8,"maxBonus":9,"perTrialBonus":0.5,"perTrialBonusThreshold":0.05,"exampleCost":0.02},"classroomParams":{"A":{"a":1,"b":4},"B":{"a":4,"b":1},"C":{"a":2,"b":8},"D":{"a":8,"b":2}},"conditions":["nonSeqFull","nonSeqPartial","seqNoFeedback","seqFeedback"],"classroomPairings":[["A","B"],["C","D"]],"coinWeights":[0.2,0.5,0.8],"subjectId":"A36470UBRH28GO","assignmentId":"3VBEN272MLL8Q4C8LJC5KQI9Q6MGSZ","hitId":"3XUY87HIVP03YZXVLN9CW37DVI1MM2","url":"https://gershmanlab.com/experiments/alicia/teaching/experiment/?hitId=3XUY87HIVP03YZXVLN9CW37DVI1MM2&workerId=A36470UBRH28GO&assignmentId=3VBEN272MLL8Q4C8LJC5KQI9Q6MGSZ&a=2NBV3&tp_a=2NBV3&b=3VBEN272MLL8Q4C8LJC5KQI9Q6MGSZ&tp_b=3VBEN272MLL8Q4C8LJC5KQI9Q6MGSZ&c=365633&tp_c=365633","heads":2,"tails":2,"studentIndex":3,"studentTrueHypers":{"a":4,"b":1},"studentGuess":0.6666666666666666,"delta":0.13333333333333341,"totalExamples":4,"bonus":0,"bonusSoFar":0},{"rt":null,"stimulus":"Sending examples to student... ","response":null,"trial_type":"html-keyboard-response","trial_index":51,"time_elapsed":1107858,"internal_node_id":"0.0-29.0","params":{"nStudents":24,"maxFlips":25,"completionMinutes":45,"basePay":8,"maxBonus":9,"perTrialBonus":0.5,"perTrialBonusThreshold":0.05,"exampleCost":0.02},"classroomParams":{"A":{"a":1,"b":4},"B":{"a":4,"b":1},"C":{"a":2,"b":8},"D":{"a":8,"b":2}},"conditions":["nonSeqFull","nonSeqPartial","seqNoFeedback","seqFeedback"],"classroomPairings":[["A","B"],["C","D"]],"coinWeights":[0.2,0.5,0.8],"subjectId":"A36470UBRH28GO","assignmentId":"3VBEN272MLL8Q4C8LJC5KQI9Q6MGSZ","hitId":"3XUY87HIVP03YZXVLN9CW37DVI1MM2","url":"https://gershmanlab.com/experiments/alicia/teaching/experiment/?hitId=3XUY87HIVP03YZXVLN9CW37DVI1MM2&workerId=A36470UBRH28GO&assignmentId=3VBEN272MLL8Q4C8LJC5KQI9Q6MGSZ&a=2NBV3&tp_a=2NBV3&b=3VBEN272MLL8Q4C8LJC5KQI9Q6MGSZ&tp_b=3VBEN272MLL8Q4C8LJC5KQI9Q6MGSZ&c=365633&tp_c=365633"},{"rt":null,"stimulus":"Examples sent to student! Waiting for student...","response":null,"trial_type":"html-keyboard-response","trial_index":52,"time_elapsed":1112368,"internal_node_id":"0.0-30.0","params":{"nStudents":24,"maxFlips":25,"completionMinutes":45,"basePay":8,"maxBonus":9,"perTrialBonus":0.5,"perTrialBonusThreshold":0.05,"exampleCost":0.02},"classroomParams":{"A":{"a":1,"b":4},"B":{"a":4,"b":1},"C":{"a":2,"b":8},"D":{"a":8,"b":2}},"conditions":["nonSeqFull","nonSeqPartial","seqNoFeedback","seqFeedback"],"classroomPairings":[["A","B"],["C","D"]],"coinWeights":[0.2,0.5,0.8],"subjectId":"A36470UBRH28GO","assignmentId":"3VBEN272MLL8Q4C8LJC5KQI9Q6MGSZ","hitId":"3XUY87HIVP03YZXVLN9CW37DVI1MM2","url":"https://gershmanlab.com/experiments/alicia/teaching/experiment/?hitId=3XUY87HIVP03YZXVLN9CW37DVI1MM2&workerId=A36470UBRH28GO&assignmentId=3VBEN272MLL8Q4C8LJC5KQI9Q6MGSZ&a=2NBV3&tp_a=2NBV3&b=3VBEN272MLL8Q4C8LJC5KQI9Q6MGSZ&tp_b=3VBEN272MLL8Q4C8LJC5KQI9Q6MGSZ&c=365633&tp_c=365633"},{"rt":8124,"stimulus":"\n                <p>Student's guess for coin weight: <b style=\"color:Tomato;\">0.67</b></p>\n                <p>You received a bonus of <b>$0</b>. Total bonus so far: <b>$0.00</b></b></p>\n                <p></p>\n                <p>Press any key to continue.</p>\n                ","response":"shift","trial_type":"html-keyboard-response","trial_index":53,"time_elapsed":1120493,"internal_node_id":"0.0-31.0","params":{"nStudents":24,"maxFlips":25,"completionMinutes":45,"basePay":8,"maxBonus":9,"perTrialBonus":0.5,"perTrialBonusThreshold":0.05,"exampleCost":0.02},"classroomParams":{"A":{"a":1,"b":4},"B":{"a":4,"b":1},"C":{"a":2,"b":8},"D":{"a":8,"b":2}},"conditions":["nonSeqFull","nonSeqPartial","seqNoFeedback","seqFeedback"],"classroomPairings":[["A","B"],["C","D"]],"coinWeights":[0.2,0.5,0.8],"subjectId":"A36470UBRH28GO","assignmentId":"3VBEN272MLL8Q4C8LJC5KQI9Q6MGSZ","hitId":"3XUY87HIVP03YZXVLN9CW37DVI1MM2","url":"https://gershmanlab.com/experiments/alicia/teaching/experiment/?hitId=3XUY87HIVP03YZXVLN9CW37DVI1MM2&workerId=A36470UBRH28GO&assignmentId=3VBEN272MLL8Q4C8LJC5KQI9Q6MGSZ&a=2NBV3&tp_a=2NBV3&b=3VBEN272MLL8Q4C8LJC5KQI9Q6MGSZ&tp_b=3VBEN272MLL8Q4C8LJC5KQI9Q6MGSZ&c=365633&tp_c=365633"},{"rt":null,"stimulus":"<div style=\"font-size:60px;\">Next student</div>","response":null,"trial_type":"html-keyboard-response","trial_index":54,"time_elapsed":1123502,"internal_node_id":"0.0-32.0-0.0","params":{"nStudents":24,"maxFlips":25,"completionMinutes":45,"basePay":8,"maxBonus":9,"perTrialBonus":0.5,"perTrialBonusThreshold":0.05,"exampleCost":0.02},"classroomParams":{"A":{"a":1,"b":4},"B":{"a":4,"b":1},"C":{"a":2,"b":8},"D":{"a":8,"b":2}},"conditions":["nonSeqFull","nonSeqPartial","seqNoFeedback","seqFeedback"],"classroomPairings":[["A","B"],["C","D"]],"coinWeights":[0.2,0.5,0.8],"subjectId":"A36470UBRH28GO","assignmentId":"3VBEN272MLL8Q4C8LJC5KQI9Q6MGSZ","hitId":"3XUY87HIVP03YZXVLN9CW37DVI1MM2","url":"https://gershmanlab.com/experiments/alicia/teaching/experiment/?hitId=3XUY87HIVP03YZXVLN9CW37DVI1MM2&workerId=A36470UBRH28GO&assignmentId=3VBEN272MLL8Q4C8LJC5KQI9Q6MGSZ&a=2NBV3&tp_a=2NBV3&b=3VBEN272MLL8Q4C8LJC5KQI9Q6MGSZ&tp_b=3VBEN272MLL8Q4C8LJC5KQI9Q6MGSZ&c=365633&tp_c=365633"},{"rt":2931,"stimulus":"\n            <h4 style=\"color:Orange;\">Student 5</h4>\n            <h2>The weight of your coin is <b style=\"color:Tomato;\">0.2</b>.</h2>\n            <p>In this block, you will be giving <b>one</b> set of examples to Student 5.</p>\n                <p>You will receive feedback at the end of the block.</p>\n            <p></p>","response":0,"trial_type":"html-button-response","trial_index":55,"time_elapsed":1126434,"internal_node_id":"0.0-33.0","params":{"nStudents":24,"maxFlips":25,"completionMinutes":45,"basePay":8,"maxBonus":9,"perTrialBonus":0.5,"perTrialBonusThreshold":0.05,"exampleCost":0.02},"classroomParams":{"A":{"a":1,"b":4},"B":{"a":4,"b":1},"C":{"a":2,"b":8},"D":{"a":8,"b":2}},"conditions":["nonSeqFull","nonSeqPartial","seqNoFeedback","seqFeedback"],"classroomPairings":[["A","B"],["C","D"]],"coinWeights":[0.2,0.5,0.8],"subjectId":"A36470UBRH28GO","assignmentId":"3VBEN272MLL8Q4C8LJC5KQI9Q6MGSZ","hitId":"3XUY87HIVP03YZXVLN9CW37DVI1MM2","url":"https://gershmanlab.com/experiments/alicia/teaching/experiment/?hitId=3XUY87HIVP03YZXVLN9CW37DVI1MM2&workerId=A36470UBRH28GO&assignmentId=3VBEN272MLL8Q4C8LJC5KQI9Q6MGSZ&a=2NBV3&tp_a=2NBV3&b=3VBEN272MLL8Q4C8LJC5KQI9Q6MGSZ&tp_b=3VBEN272MLL8Q4C8LJC5KQI9Q6MGSZ&c=365633&tp_c=365633"},{"rt":6637,"response":{"heads":"5","tails":"5"},"type":"response","condition":"nonSeqFull","trueTheta":0.2,"classrooms":["A","B"],"studentTrueClassroom":"A","exampleSet":"first","trial_type":"survey-html-form","trial_index":56,"time_elapsed":1133073,"internal_node_id":"0.0-34.0-0.0","params":{"nStudents":24,"maxFlips":25,"completionMinutes":45,"basePay":8,"maxBonus":9,"perTrialBonus":0.5,"perTrialBonusThreshold":0.05,"exampleCost":0.02},"classroomParams":{"A":{"a":1,"b":4},"B":{"a":4,"b":1},"C":{"a":2,"b":8},"D":{"a":8,"b":2}},"conditions":["nonSeqFull","nonSeqPartial","seqNoFeedback","seqFeedback"],"classroomPairings":[["A","B"],["C","D"]],"coinWeights":[0.2,0.5,0.8],"subjectId":"A36470UBRH28GO","assignmentId":"3VBEN272MLL8Q4C8LJC5KQI9Q6MGSZ","hitId":"3XUY87HIVP03YZXVLN9CW37DVI1MM2","url":"https://gershmanlab.com/experiments/alicia/teaching/experiment/?hitId=3XUY87HIVP03YZXVLN9CW37DVI1MM2&workerId=A36470UBRH28GO&assignmentId=3VBEN272MLL8Q4C8LJC5KQI9Q6MGSZ&a=2NBV3&tp_a=2NBV3&b=3VBEN272MLL8Q4C8LJC5KQI9Q6MGSZ&tp_b=3VBEN272MLL8Q4C8LJC5KQI9Q6MGSZ&c=365633&tp_c=365633","heads":5,"tails":5,"studentIndex":4,"studentTrueHypers":{"a":1,"b":4},"studentGuess":0.4,"delta":0.2,"totalExamples":10,"bonus":0,"bonusSoFar":0},{"rt":null,"stimulus":"Sending examples to student... ","response":null,"trial_type":"html-keyboard-response","trial_index":57,"time_elapsed":1135075,"internal_node_id":"0.0-35.0","params":{"nStudents":24,"maxFlips":25,"completionMinutes":45,"basePay":8,"maxBonus":9,"perTrialBonus":0.5,"perTrialBonusThreshold":0.05,"exampleCost":0.02},"classroomParams":{"A":{"a":1,"b":4},"B":{"a":4,"b":1},"C":{"a":2,"b":8},"D":{"a":8,"b":2}},"conditions":["nonSeqFull","nonSeqPartial","seqNoFeedback","seqFeedback"],"classroomPairings":[["A","B"],["C","D"]],"coinWeights":[0.2,0.5,0.8],"subjectId":"A36470UBRH28GO","assignmentId":"3VBEN272MLL8Q4C8LJC5KQI9Q6MGSZ","hitId":"3XUY87HIVP03YZXVLN9CW37DVI1MM2","url":"https://gershmanlab.com/experiments/alicia/teaching/experiment/?hitId=3XUY87HIVP03YZXVLN9CW37DVI1MM2&workerId=A36470UBRH28GO&assignmentId=3VBEN272MLL8Q4C8LJC5KQI9Q6MGSZ&a=2NBV3&tp_a=2NBV3&b=3VBEN272MLL8Q4C8LJC5KQI9Q6MGSZ&tp_b=3VBEN272MLL8Q4C8LJC5KQI9Q6MGSZ&c=365633&tp_c=365633"},{"rt":null,"stimulus":"Examples sent to student! Waiting for student...","response":null,"trial_type":"html-keyboard-response","trial_index":58,"time_elapsed":1139087,"internal_node_id":"0.0-36.0","params":{"nStudents":24,"maxFlips":25,"completionMinutes":45,"basePay":8,"maxBonus":9,"perTrialBonus":0.5,"perTrialBonusThreshold":0.05,"exampleCost":0.02},"classroomParams":{"A":{"a":1,"b":4},"B":{"a":4,"b":1},"C":{"a":2,"b":8},"D":{"a":8,"b":2}},"conditions":["nonSeqFull","nonSeqPartial","seqNoFeedback","seqFeedback"],"classroomPairings":[["A","B"],["C","D"]],"coinWeights":[0.2,0.5,0.8],"subjectId":"A36470UBRH28GO","assignmentId":"3VBEN272MLL8Q4C8LJC5KQI9Q6MGSZ","hitId":"3XUY87HIVP03YZXVLN9CW37DVI1MM2","url":"https://gershmanlab.com/experiments/alicia/teaching/experiment/?hitId=3XUY87HIVP03YZXVLN9CW37DVI1MM2&workerId=A36470UBRH28GO&assignmentId=3VBEN272MLL8Q4C8LJC5KQI9Q6MGSZ&a=2NBV3&tp_a=2NBV3&b=3VBEN272MLL8Q4C8LJC5KQI9Q6MGSZ&tp_b=3VBEN272MLL8Q4C8LJC5KQI9Q6MGSZ&c=365633&tp_c=365633"},{"rt":3233,"stimulus":"\n                <p>Student's guess for coin weight: <b style=\"color:Tomato;\">0.40</b></p>\n                <p>You received a bonus of <b>$0</b>. Total bonus so far: <b>$0.00</b></b></p>\n                <p></p>\n                <p>Press any key to continue.</p>\n                ","response":"0","trial_type":"html-keyboard-response","trial_index":59,"time_elapsed":1142320,"internal_node_id":"0.0-37.0","params":{"nStudents":24,"maxFlips":25,"completionMinutes":45,"basePay":8,"maxBonus":9,"perTrialBonus":0.5,"perTrialBonusThreshold":0.05,"exampleCost":0.02},"classroomParams":{"A":{"a":1,"b":4},"B":{"a":4,"b":1},"C":{"a":2,"b":8},"D":{"a":8,"b":2}},"conditions":["nonSeqFull","nonSeqPartial","seqNoFeedback","seqFeedback"],"classroomPairings":[["A","B"],["C","D"]],"coinWeights":[0.2,0.5,0.8],"subjectId":"A36470UBRH28GO","assignmentId":"3VBEN272MLL8Q4C8LJC5KQI9Q6MGSZ","hitId":"3XUY87HIVP03YZXVLN9CW37DVI1MM2","url":"https://gershmanlab.com/experiments/alicia/teaching/experiment/?hitId=3XUY87HIVP03YZXVLN9CW37DVI1MM2&workerId=A36470UBRH28GO&assignmentId=3VBEN272MLL8Q4C8LJC5KQI9Q6MGSZ&a=2NBV3&tp_a=2NBV3&b=3VBEN272MLL8Q4C8LJC5KQI9Q6MGSZ&tp_b=3VBEN272MLL8Q4C8LJC5KQI9Q6MGSZ&c=365633&tp_c=365633"},{"rt":null,"stimulus":"<div style=\"font-size:60px;\">Next student</div>","response":null,"trial_type":"html-keyboard-response","trial_index":60,"time_elapsed":1145327,"internal_node_id":"0.0-38.0-0.0","params":{"nStudents":24,"maxFlips":25,"completionMinutes":45,"basePay":8,"maxBonus":9,"perTrialBonus":0.5,"perTrialBonusThreshold":0.05,"exampleCost":0.02},"classroomParams":{"A":{"a":1,"b":4},"B":{"a":4,"b":1},"C":{"a":2,"b":8},"D":{"a":8,"b":2}},"conditions":["nonSeqFull","nonSeqPartial","seqNoFeedback","seqFeedback"],"classroomPairings":[["A","B"],["C","D"]],"coinWeights":[0.2,0.5,0.8],"subjectId":"A36470UBRH28GO","assignmentId":"3VBEN272MLL8Q4C8LJC5KQI9Q6MGSZ","hitId":"3XUY87HIVP03YZXVLN9CW37DVI1MM2","url":"https://gershmanlab.com/experiments/alicia/teaching/experiment/?hitId=3XUY87HIVP03YZXVLN9CW37DVI1MM2&workerId=A36470UBRH28GO&assignmentId=3VBEN272MLL8Q4C8LJC5KQI9Q6MGSZ&a=2NBV3&tp_a=2NBV3&b=3VBEN272MLL8Q4C8LJC5KQI9Q6MGSZ&tp_b=3VBEN272MLL8Q4C8LJC5KQI9Q6MGSZ&c=365633&tp_c=365633"},{"rt":2284,"stimulus":"\n            <h4 style=\"color:Orange;\">Student 6</h4>\n            <h2>The weight of your coin is <b style=\"color:Tomato;\">0.8</b>.</h2>\n            <p>In this block, you will be giving <b>one</b> set of examples to Student 6.</p>\n                <p>You will receive feedback at the end of the block.</p>\n            <p></p>","response":0,"trial_type":"html-button-response","trial_index":61,"time_elapsed":1147613,"internal_node_id":"0.0-39.0","params":{"nStudents":24,"maxFlips":25,"completionMinutes":45,"basePay":8,"maxBonus":9,"perTrialBonus":0.5,"perTrialBonusThreshold":0.05,"exampleCost":0.02},"classroomParams":{"A":{"a":1,"b":4},"B":{"a":4,"b":1},"C":{"a":2,"b":8},"D":{"a":8,"b":2}},"conditions":["nonSeqFull","nonSeqPartial","seqNoFeedback","seqFeedback"],"classroomPairings":[["A","B"],["C","D"]],"coinWeights":[0.2,0.5,0.8],"subjectId":"A36470UBRH28GO","assignmentId":"3VBEN272MLL8Q4C8LJC5KQI9Q6MGSZ","hitId":"3XUY87HIVP03YZXVLN9CW37DVI1MM2","url":"https://gershmanlab.com/experiments/alicia/teaching/experiment/?hitId=3XUY87HIVP03YZXVLN9CW37DVI1MM2&workerId=A36470UBRH28GO&assignmentId=3VBEN272MLL8Q4C8LJC5KQI9Q6MGSZ&a=2NBV3&tp_a=2NBV3&b=3VBEN272MLL8Q4C8LJC5KQI9Q6MGSZ&tp_b=3VBEN272MLL8Q4C8LJC5KQI9Q6MGSZ&c=365633&tp_c=365633"},{"rt":5961,"response":{"heads":"6","tails":"6"},"type":"response","condition":"nonSeqPartial","trueTheta":0.8,"classrooms":["C","D"],"studentTrueClassroom":"D","exampleSet":"first","trial_type":"survey-html-form","trial_index":62,"time_elapsed":1153574,"internal_node_id":"0.0-40.0-0.0","params":{"nStudents":24,"maxFlips":25,"completionMinutes":45,"basePay":8,"maxBonus":9,"perTrialBonus":0.5,"perTrialBonusThreshold":0.05,"exampleCost":0.02},"classroomParams":{"A":{"a":1,"b":4},"B":{"a":4,"b":1},"C":{"a":2,"b":8},"D":{"a":8,"b":2}},"conditions":["nonSeqFull","nonSeqPartial","seqNoFeedback","seqFeedback"],"classroomPairings":[["A","B"],["C","D"]],"coinWeights":[0.2,0.5,0.8],"subjectId":"A36470UBRH28GO","assignmentId":"3VBEN272MLL8Q4C8LJC5KQI9Q6MGSZ","hitId":"3XUY87HIVP03YZXVLN9CW37DVI1MM2","url":"https://gershmanlab.com/experiments/alicia/teaching/experiment/?hitId=3XUY87HIVP03YZXVLN9CW37DVI1MM2&workerId=A36470UBRH28GO&assignmentId=3VBEN272MLL8Q4C8LJC5KQI9Q6MGSZ&a=2NBV3&tp_a=2NBV3&b=3VBEN272MLL8Q4C8LJC5KQI9Q6MGSZ&tp_b=3VBEN272MLL8Q4C8LJC5KQI9Q6MGSZ&c=365633&tp_c=365633","heads":6,"tails":6,"studentIndex":5,"studentTrueHypers":{"a":8,"b":2},"studentGuess":0.6363636363636364,"delta":0.1636363636363637,"totalExamples":12,"bonus":0,"bonusSoFar":0},{"rt":null,"stimulus":"Sending examples to student... ","response":null,"trial_type":"html-keyboard-response","trial_index":63,"time_elapsed":1154828,"internal_node_id":"0.0-41.0","params":{"nStudents":24,"maxFlips":25,"completionMinutes":45,"basePay":8,"maxBonus":9,"perTrialBonus":0.5,"perTrialBonusThreshold":0.05,"exampleCost":0.02},"classroomParams":{"A":{"a":1,"b":4},"B":{"a":4,"b":1},"C":{"a":2,"b":8},"D":{"a":8,"b":2}},"conditions":["nonSeqFull","nonSeqPartial","seqNoFeedback","seqFeedback"],"classroomPairings":[["A","B"],["C","D"]],"coinWeights":[0.2,0.5,0.8],"subjectId":"A36470UBRH28GO","assignmentId":"3VBEN272MLL8Q4C8LJC5KQI9Q6MGSZ","hitId":"3XUY87HIVP03YZXVLN9CW37DVI1MM2","url":"https://gershmanlab.com/experiments/alicia/teaching/experiment/?hitId=3XUY87HIVP03YZXVLN9CW37DVI1MM2&workerId=A36470UBRH28GO&assignmentId=3VBEN272MLL8Q4C8LJC5KQI9Q6MGSZ&a=2NBV3&tp_a=2NBV3&b=3VBEN272MLL8Q4C8LJC5KQI9Q6MGSZ&tp_b=3VBEN272MLL8Q4C8LJC5KQI9Q6MGSZ&c=365633&tp_c=365633"},{"rt":null,"stimulus":"Examples sent to student! Waiting for student...","response":null,"trial_type":"html-keyboard-response","trial_index":64,"time_elapsed":1159838,"internal_node_id":"0.0-42.0","params":{"nStudents":24,"maxFlips":25,"completionMinutes":45,"basePay":8,"maxBonus":9,"perTrialBonus":0.5,"perTrialBonusThreshold":0.05,"exampleCost":0.02},"classroomParams":{"A":{"a":1,"b":4},"B":{"a":4,"b":1},"C":{"a":2,"b":8},"D":{"a":8,"b":2}},"conditions":["nonSeqFull","nonSeqPartial","seqNoFeedback","seqFeedback"],"classroomPairings":[["A","B"],["C","D"]],"coinWeights":[0.2,0.5,0.8],"subjectId":"A36470UBRH28GO","assignmentId":"3VBEN272MLL8Q4C8LJC5KQI9Q6MGSZ","hitId":"3XUY87HIVP03YZXVLN9CW37DVI1MM2","url":"https://gershmanlab.com/experiments/alicia/teaching/experiment/?hitId=3XUY87HIVP03YZXVLN9CW37DVI1MM2&workerId=A36470UBRH28GO&assignmentId=3VBEN272MLL8Q4C8LJC5KQI9Q6MGSZ&a=2NBV3&tp_a=2NBV3&b=3VBEN272MLL8Q4C8LJC5KQI9Q6MGSZ&tp_b=3VBEN272MLL8Q4C8LJC5KQI9Q6MGSZ&c=365633&tp_c=365633"},{"rt":2844,"stimulus":"\n                <p>Student's guess for coin weight: <b style=\"color:Tomato;\">0.64</b></p>\n                <p>You received a bonus of <b>$0</b>. Total bonus so far: <b>$0.00</b></b></p>\n                <p></p>\n                <p>Press any key to continue.</p>\n                ","response":"0","trial_type":"html-keyboard-response","trial_index":65,"time_elapsed":1162683,"internal_node_id":"0.0-43.0","params":{"nStudents":24,"maxFlips":25,"completionMinutes":45,"basePay":8,"maxBonus":9,"perTrialBonus":0.5,"perTrialBonusThreshold":0.05,"exampleCost":0.02},"classroomParams":{"A":{"a":1,"b":4},"B":{"a":4,"b":1},"C":{"a":2,"b":8},"D":{"a":8,"b":2}},"conditions":["nonSeqFull","nonSeqPartial","seqNoFeedback","seqFeedback"],"classroomPairings":[["A","B"],["C","D"]],"coinWeights":[0.2,0.5,0.8],"subjectId":"A36470UBRH28GO","assignmentId":"3VBEN272MLL8Q4C8LJC5KQI9Q6MGSZ","hitId":"3XUY87HIVP03YZXVLN9CW37DVI1MM2","url":"https://gershmanlab.com/experiments/alicia/teaching/experiment/?hitId=3XUY87HIVP03YZXVLN9CW37DVI1MM2&workerId=A36470UBRH28GO&assignmentId=3VBEN272MLL8Q4C8LJC5KQI9Q6MGSZ&a=2NBV3&tp_a=2NBV3&b=3VBEN272MLL8Q4C8LJC5KQI9Q6MGSZ&tp_b=3VBEN272MLL8Q4C8LJC5KQI9Q6MGSZ&c=365633&tp_c=365633"},{"rt":null,"stimulus":"<div style=\"font-size:60px;\">Next student</div>","response":null,"trial_type":"html-keyboard-response","trial_index":66,"time_elapsed":1164942,"internal_node_id":"0.0-44.0-0.0","params":{"nStudents":24,"maxFlips":25,"completionMinutes":45,"basePay":8,"maxBonus":9,"perTrialBonus":0.5,"perTrialBonusThreshold":0.05,"exampleCost":0.02},"classroomParams":{"A":{"a":1,"b":4},"B":{"a":4,"b":1},"C":{"a":2,"b":8},"D":{"a":8,"b":2}},"conditions":["nonSeqFull","nonSeqPartial","seqNoFeedback","seqFeedback"],"classroomPairings":[["A","B"],["C","D"]],"coinWeights":[0.2,0.5,0.8],"subjectId":"A36470UBRH28GO","assignmentId":"3VBEN272MLL8Q4C8LJC5KQI9Q6MGSZ","hitId":"3XUY87HIVP03YZXVLN9CW37DVI1MM2","url":"https://gershmanlab.com/experiments/alicia/teaching/experiment/?hitId=3XUY87HIVP03YZXVLN9CW37DVI1MM2&workerId=A36470UBRH28GO&assignmentId=3VBEN272MLL8Q4C8LJC5KQI9Q6MGSZ&a=2NBV3&tp_a=2NBV3&b=3VBEN272MLL8Q4C8LJC5KQI9Q6MGSZ&tp_b=3VBEN272MLL8Q4C8LJC5KQI9Q6MGSZ&c=365633&tp_c=365633"},{"rt":5037,"stimulus":"\n            <h4 style=\"color:Orange;\">Student 7</h4>\n            <h2>The weight of your coin is <b style=\"color:Tomato;\">0.2</b>.</h2>\n            <p>In this block, you will be giving <b>two</b> sets of examples to Student 7.</p>\n                <p>You will receive feedback at the end of the block.</p>\n            <p></p>","response":0,"trial_type":"html-button-response","trial_index":67,"time_elapsed":1169980,"internal_node_id":"0.0-45.0","params":{"nStudents":24,"maxFlips":25,"completionMinutes":45,"basePay":8,"maxBonus":9,"perTrialBonus":0.5,"perTrialBonusThreshold":0.05,"exampleCost":0.02},"classroomParams":{"A":{"a":1,"b":4},"B":{"a":4,"b":1},"C":{"a":2,"b":8},"D":{"a":8,"b":2}},"conditions":["nonSeqFull","nonSeqPartial","seqNoFeedback","seqFeedback"],"classroomPairings":[["A","B"],["C","D"]],"coinWeights":[0.2,0.5,0.8],"subjectId":"A36470UBRH28GO","assignmentId":"3VBEN272MLL8Q4C8LJC5KQI9Q6MGSZ","hitId":"3XUY87HIVP03YZXVLN9CW37DVI1MM2","url":"https://gershmanlab.com/experiments/alicia/teaching/experiment/?hitId=3XUY87HIVP03YZXVLN9CW37DVI1MM2&workerId=A36470UBRH28GO&assignmentId=3VBEN272MLL8Q4C8LJC5KQI9Q6MGSZ&a=2NBV3&tp_a=2NBV3&b=3VBEN272MLL8Q4C8LJC5KQI9Q6MGSZ&tp_b=3VBEN272MLL8Q4C8LJC5KQI9Q6MGSZ&c=365633&tp_c=365633"},{"rt":4095,"response":{"heads":"0","tails":"6"},"type":"response","condition":"seqNoFeedback","trueTheta":0.2,"classrooms":["C","D"],"studentTrueClassroom":"C","exampleSet":"first","trial_type":"survey-html-form","trial_index":68,"time_elapsed":1174077,"internal_node_id":"0.0-46.0-0.0","params":{"nStudents":24,"maxFlips":25,"completionMinutes":45,"basePay":8,"maxBonus":9,"perTrialBonus":0.5,"perTrialBonusThreshold":0.05,"exampleCost":0.02},"classroomParams":{"A":{"a":1,"b":4},"B":{"a":4,"b":1},"C":{"a":2,"b":8},"D":{"a":8,"b":2}},"conditions":["nonSeqFull","nonSeqPartial","seqNoFeedback","seqFeedback"],"classroomPairings":[["A","B"],["C","D"]],"coinWeights":[0.2,0.5,0.8],"subjectId":"A36470UBRH28GO","assignmentId":"3VBEN272MLL8Q4C8LJC5KQI9Q6MGSZ","hitId":"3XUY87HIVP03YZXVLN9CW37DVI1MM2","url":"https://gershmanlab.com/experiments/alicia/teaching/experiment/?hitId=3XUY87HIVP03YZXVLN9CW37DVI1MM2&workerId=A36470UBRH28GO&assignmentId=3VBEN272MLL8Q4C8LJC5KQI9Q6MGSZ&a=2NBV3&tp_a=2NBV3&b=3VBEN272MLL8Q4C8LJC5KQI9Q6MGSZ&tp_b=3VBEN272MLL8Q4C8LJC5KQI9Q6MGSZ&c=365633&tp_c=365633","heads":0,"tails":6,"studentIndex":6,"studentTrueHypers":{"a":2,"b":8},"studentGuess":0.125,"delta":0.07500000000000001,"totalExamples":6,"bonusSoFar":0},{"rt":null,"stimulus":"Sending examples to student... ","response":null,"trial_type":"html-keyboard-response","trial_index":69,"time_elapsed":1176077,"internal_node_id":"0.0-47.0","params":{"nStudents":24,"maxFlips":25,"completionMinutes":45,"basePay":8,"maxBonus":9,"perTrialBonus":0.5,"perTrialBonusThreshold":0.05,"exampleCost":0.02},"classroomParams":{"A":{"a":1,"b":4},"B":{"a":4,"b":1},"C":{"a":2,"b":8},"D":{"a":8,"b":2}},"conditions":["nonSeqFull","nonSeqPartial","seqNoFeedback","seqFeedback"],"classroomPairings":[["A","B"],["C","D"]],"coinWeights":[0.2,0.5,0.8],"subjectId":"A36470UBRH28GO","assignmentId":"3VBEN272MLL8Q4C8LJC5KQI9Q6MGSZ","hitId":"3XUY87HIVP03YZXVLN9CW37DVI1MM2","url":"https://gershmanlab.com/experiments/alicia/teaching/experiment/?hitId=3XUY87HIVP03YZXVLN9CW37DVI1MM2&workerId=A36470UBRH28GO&assignmentId=3VBEN272MLL8Q4C8LJC5KQI9Q6MGSZ&a=2NBV3&tp_a=2NBV3&b=3VBEN272MLL8Q4C8LJC5KQI9Q6MGSZ&tp_b=3VBEN272MLL8Q4C8LJC5KQI9Q6MGSZ&c=365633&tp_c=365633"},{"rt":null,"stimulus":"Examples sent to student! Waiting for student...","response":null,"trial_type":"html-keyboard-response","trial_index":70,"time_elapsed":1181589,"internal_node_id":"0.0-48.0","params":{"nStudents":24,"maxFlips":25,"completionMinutes":45,"basePay":8,"maxBonus":9,"perTrialBonus":0.5,"perTrialBonusThreshold":0.05,"exampleCost":0.02},"classroomParams":{"A":{"a":1,"b":4},"B":{"a":4,"b":1},"C":{"a":2,"b":8},"D":{"a":8,"b":2}},"conditions":["nonSeqFull","nonSeqPartial","seqNoFeedback","seqFeedback"],"classroomPairings":[["A","B"],["C","D"]],"coinWeights":[0.2,0.5,0.8],"subjectId":"A36470UBRH28GO","assignmentId":"3VBEN272MLL8Q4C8LJC5KQI9Q6MGSZ","hitId":"3XUY87HIVP03YZXVLN9CW37DVI1MM2","url":"https://gershmanlab.com/experiments/alicia/teaching/experiment/?hitId=3XUY87HIVP03YZXVLN9CW37DVI1MM2&workerId=A36470UBRH28GO&assignmentId=3VBEN272MLL8Q4C8LJC5KQI9Q6MGSZ&a=2NBV3&tp_a=2NBV3&b=3VBEN272MLL8Q4C8LJC5KQI9Q6MGSZ&tp_b=3VBEN272MLL8Q4C8LJC5KQI9Q6MGSZ&c=365633&tp_c=365633"},{"rt":9500,"response":{"heads":"1","tails":"6"},"type":"response","condition":"seqNoFeedback","trueTheta":0.2,"classrooms":["C","D"],"studentTrueClassroom":"C","exampleSet":"second","trial_type":"survey-html-form","trial_index":71,"time_elapsed":1191090,"internal_node_id":"0.0-49.0-0.0","params":{"nStudents":24,"maxFlips":25,"completionMinutes":45,"basePay":8,"maxBonus":9,"perTrialBonus":0.5,"perTrialBonusThreshold":0.05,"exampleCost":0.02},"classroomParams":{"A":{"a":1,"b":4},"B":{"a":4,"b":1},"C":{"a":2,"b":8},"D":{"a":8,"b":2}},"conditions":["nonSeqFull","nonSeqPartial","seqNoFeedback","seqFeedback"],"classroomPairings":[["A","B"],["C","D"]],"coinWeights":[0.2,0.5,0.8],"subjectId":"A36470UBRH28GO","assignmentId":"3VBEN272MLL8Q4C8LJC5KQI9Q6MGSZ","hitId":"3XUY87HIVP03YZXVLN9CW37DVI1MM2","url":"https://gershmanlab.com/experiments/alicia/teaching/experiment/?hitId=3XUY87HIVP03YZXVLN9CW37DVI1MM2&workerId=A36470UBRH28GO&assignmentId=3VBEN272MLL8Q4C8LJC5KQI9Q6MGSZ&a=2NBV3&tp_a=2NBV3&b=3VBEN272MLL8Q4C8LJC5KQI9Q6MGSZ&tp_b=3VBEN272MLL8Q4C8LJC5KQI9Q6MGSZ&c=365633&tp_c=365633","firstResponseHeads":0,"firstResponseTails":6,"secondResponseHeads":1,"secondResponseTails":6,"totalHeads":1,"totalTails":12,"studentIndex":6,"studentTrueHypers":{"a":2,"b":8},"studentGuess":0.13043478260869565,"delta":0.06956521739130436,"bonus":0,"bonusSoFar":0,"totalExamples":13},{"rt":null,"stimulus":"Sending examples to student... ","response":null,"trial_type":"html-keyboard-response","trial_index":72,"time_elapsed":1192351,"internal_node_id":"0.0-50.0","params":{"nStudents":24,"maxFlips":25,"completionMinutes":45,"basePay":8,"maxBonus":9,"perTrialBonus":0.5,"perTrialBonusThreshold":0.05,"exampleCost":0.02},"classroomParams":{"A":{"a":1,"b":4},"B":{"a":4,"b":1},"C":{"a":2,"b":8},"D":{"a":8,"b":2}},"conditions":["nonSeqFull","nonSeqPartial","seqNoFeedback","seqFeedback"],"classroomPairings":[["A","B"],["C","D"]],"coinWeights":[0.2,0.5,0.8],"subjectId":"A36470UBRH28GO","assignmentId":"3VBEN272MLL8Q4C8LJC5KQI9Q6MGSZ","hitId":"3XUY87HIVP03YZXVLN9CW37DVI1MM2","url":"https://gershmanlab.com/experiments/alicia/teaching/experiment/?hitId=3XUY87HIVP03YZXVLN9CW37DVI1MM2&workerId=A36470UBRH28GO&assignmentId=3VBEN272MLL8Q4C8LJC5KQI9Q6MGSZ&a=2NBV3&tp_a=2NBV3&b=3VBEN272MLL8Q4C8LJC5KQI9Q6MGSZ&tp_b=3VBEN272MLL8Q4C8LJC5KQI9Q6MGSZ&c=365633&tp_c=365633"},{"rt":null,"stimulus":"Examples sent to student! Waiting for student...","response":null,"trial_type":"html-keyboard-response","trial_index":73,"time_elapsed":1196353,"internal_node_id":"0.0-51.0","params":{"nStudents":24,"maxFlips":25,"completionMinutes":45,"basePay":8,"maxBonus":9,"perTrialBonus":0.5,"perTrialBonusThreshold":0.05,"exampleCost":0.02},"classroomParams":{"A":{"a":1,"b":4},"B":{"a":4,"b":1},"C":{"a":2,"b":8},"D":{"a":8,"b":2}},"conditions":["nonSeqFull","nonSeqPartial","seqNoFeedback","seqFeedback"],"classroomPairings":[["A","B"],["C","D"]],"coinWeights":[0.2,0.5,0.8],"subjectId":"A36470UBRH28GO","assignmentId":"3VBEN272MLL8Q4C8LJC5KQI9Q6MGSZ","hitId":"3XUY87HIVP03YZXVLN9CW37DVI1MM2","url":"https://gershmanlab.com/experiments/alicia/teaching/experiment/?hitId=3XUY87HIVP03YZXVLN9CW37DVI1MM2&workerId=A36470UBRH28GO&assignmentId=3VBEN272MLL8Q4C8LJC5KQI9Q6MGSZ&a=2NBV3&tp_a=2NBV3&b=3VBEN272MLL8Q4C8LJC5KQI9Q6MGSZ&tp_b=3VBEN272MLL8Q4C8LJC5KQI9Q6MGSZ&c=365633&tp_c=365633"},{"rt":3969,"stimulus":"\n                <p>Student 7's first guess for coin weight: <b style=\"color:Tomato\";>0.13</b></p>\n                <p>Student 7's second guess for coin weight: <b style=\"color:Tomato\";>0.13</b></p>\n                <p>You received a bonus of <b>$0.00</b> based on the student's second guess.</p>\n                <p>Total bonus so far: <b>$0.00</b></p>\n                <p>Press any key to continue.</p>\n                ","response":"0","trial_type":"html-keyboard-response","trial_index":74,"time_elapsed":1200323,"internal_node_id":"0.0-52.0","params":{"nStudents":24,"maxFlips":25,"completionMinutes":45,"basePay":8,"maxBonus":9,"perTrialBonus":0.5,"perTrialBonusThreshold":0.05,"exampleCost":0.02},"classroomParams":{"A":{"a":1,"b":4},"B":{"a":4,"b":1},"C":{"a":2,"b":8},"D":{"a":8,"b":2}},"conditions":["nonSeqFull","nonSeqPartial","seqNoFeedback","seqFeedback"],"classroomPairings":[["A","B"],["C","D"]],"coinWeights":[0.2,0.5,0.8],"subjectId":"A36470UBRH28GO","assignmentId":"3VBEN272MLL8Q4C8LJC5KQI9Q6MGSZ","hitId":"3XUY87HIVP03YZXVLN9CW37DVI1MM2","url":"https://gershmanlab.com/experiments/alicia/teaching/experiment/?hitId=3XUY87HIVP03YZXVLN9CW37DVI1MM2&workerId=A36470UBRH28GO&assignmentId=3VBEN272MLL8Q4C8LJC5KQI9Q6MGSZ&a=2NBV3&tp_a=2NBV3&b=3VBEN272MLL8Q4C8LJC5KQI9Q6MGSZ&tp_b=3VBEN272MLL8Q4C8LJC5KQI9Q6MGSZ&c=365633&tp_c=365633"},{"rt":null,"stimulus":"<div style=\"font-size:60px;\">Next student</div>","response":null,"trial_type":"html-keyboard-response","trial_index":75,"time_elapsed":1202833,"internal_node_id":"0.0-53.0-0.0","params":{"nStudents":24,"maxFlips":25,"completionMinutes":45,"basePay":8,"maxBonus":9,"perTrialBonus":0.5,"perTrialBonusThreshold":0.05,"exampleCost":0.02},"classroomParams":{"A":{"a":1,"b":4},"B":{"a":4,"b":1},"C":{"a":2,"b":8},"D":{"a":8,"b":2}},"conditions":["nonSeqFull","nonSeqPartial","seqNoFeedback","seqFeedback"],"classroomPairings":[["A","B"],["C","D"]],"coinWeights":[0.2,0.5,0.8],"subjectId":"A36470UBRH28GO","assignmentId":"3VBEN272MLL8Q4C8LJC5KQI9Q6MGSZ","hitId":"3XUY87HIVP03YZXVLN9CW37DVI1MM2","url":"https://gershmanlab.com/experiments/alicia/teaching/experiment/?hitId=3XUY87HIVP03YZXVLN9CW37DVI1MM2&workerId=A36470UBRH28GO&assignmentId=3VBEN272MLL8Q4C8LJC5KQI9Q6MGSZ&a=2NBV3&tp_a=2NBV3&b=3VBEN272MLL8Q4C8LJC5KQI9Q6MGSZ&tp_b=3VBEN272MLL8Q4C8LJC5KQI9Q6MGSZ&c=365633&tp_c=365633"},{"rt":3213,"stimulus":"\n            <h4 style=\"color:Orange;\">Student 8</h4>\n            <h2>The weight of your coin is <b style=\"color:Tomato;\">0.5</b>.</h2>\n            <p>In this block, you will be giving <b>two</b> sets of examples to Student 8.</p>\n                <p>You will receive feedback at the end of the block.</p>\n            <p></p>","response":0,"trial_type":"html-button-response","trial_index":76,"time_elapsed":1206047,"internal_node_id":"0.0-54.0","params":{"nStudents":24,"maxFlips":25,"completionMinutes":45,"basePay":8,"maxBonus":9,"perTrialBonus":0.5,"perTrialBonusThreshold":0.05,"exampleCost":0.02},"classroomParams":{"A":{"a":1,"b":4},"B":{"a":4,"b":1},"C":{"a":2,"b":8},"D":{"a":8,"b":2}},"conditions":["nonSeqFull","nonSeqPartial","seqNoFeedback","seqFeedback"],"classroomPairings":[["A","B"],["C","D"]],"coinWeights":[0.2,0.5,0.8],"subjectId":"A36470UBRH28GO","assignmentId":"3VBEN272MLL8Q4C8LJC5KQI9Q6MGSZ","hitId":"3XUY87HIVP03YZXVLN9CW37DVI1MM2","url":"https://gershmanlab.com/experiments/alicia/teaching/experiment/?hitId=3XUY87HIVP03YZXVLN9CW37DVI1MM2&workerId=A36470UBRH28GO&assignmentId=3VBEN272MLL8Q4C8LJC5KQI9Q6MGSZ&a=2NBV3&tp_a=2NBV3&b=3VBEN272MLL8Q4C8LJC5KQI9Q6MGSZ&tp_b=3VBEN272MLL8Q4C8LJC5KQI9Q6MGSZ&c=365633&tp_c=365633"},{"rt":4740,"response":{"heads":"5","tails":"5"},"type":"response","condition":"seqNoFeedback","trueTheta":0.5,"classrooms":["A","B"],"studentTrueClassroom":"A","exampleSet":"first","trial_type":"survey-html-form","trial_index":77,"time_elapsed":1210788,"internal_node_id":"0.0-55.0-0.0","params":{"nStudents":24,"maxFlips":25,"completionMinutes":45,"basePay":8,"maxBonus":9,"perTrialBonus":0.5,"perTrialBonusThreshold":0.05,"exampleCost":0.02},"classroomParams":{"A":{"a":1,"b":4},"B":{"a":4,"b":1},"C":{"a":2,"b":8},"D":{"a":8,"b":2}},"conditions":["nonSeqFull","nonSeqPartial","seqNoFeedback","seqFeedback"],"classroomPairings":[["A","B"],["C","D"]],"coinWeights":[0.2,0.5,0.8],"subjectId":"A36470UBRH28GO","assignmentId":"3VBEN272MLL8Q4C8LJC5KQI9Q6MGSZ","hitId":"3XUY87HIVP03YZXVLN9CW37DVI1MM2","url":"https://gershmanlab.com/experiments/alicia/teaching/experiment/?hitId=3XUY87HIVP03YZXVLN9CW37DVI1MM2&workerId=A36470UBRH28GO&assignmentId=3VBEN272MLL8Q4C8LJC5KQI9Q6MGSZ&a=2NBV3&tp_a=2NBV3&b=3VBEN272MLL8Q4C8LJC5KQI9Q6MGSZ&tp_b=3VBEN272MLL8Q4C8LJC5KQI9Q6MGSZ&c=365633&tp_c=365633","heads":5,"tails":5,"studentIndex":7,"studentTrueHypers":{"a":1,"b":4},"studentGuess":0.4,"delta":0.09999999999999998,"totalExamples":10,"bonusSoFar":0},{"rt":null,"stimulus":"Sending examples to student... ","response":null,"trial_type":"html-keyboard-response","trial_index":78,"time_elapsed":1212550,"internal_node_id":"0.0-56.0","params":{"nStudents":24,"maxFlips":25,"completionMinutes":45,"basePay":8,"maxBonus":9,"perTrialBonus":0.5,"perTrialBonusThreshold":0.05,"exampleCost":0.02},"classroomParams":{"A":{"a":1,"b":4},"B":{"a":4,"b":1},"C":{"a":2,"b":8},"D":{"a":8,"b":2}},"conditions":["nonSeqFull","nonSeqPartial","seqNoFeedback","seqFeedback"],"classroomPairings":[["A","B"],["C","D"]],"coinWeights":[0.2,0.5,0.8],"subjectId":"A36470UBRH28GO","assignmentId":"3VBEN272MLL8Q4C8LJC5KQI9Q6MGSZ","hitId":"3XUY87HIVP03YZXVLN9CW37DVI1MM2","url":"https://gershmanlab.com/experiments/alicia/teaching/experiment/?hitId=3XUY87HIVP03YZXVLN9CW37DVI1MM2&workerId=A36470UBRH28GO&assignmentId=3VBEN272MLL8Q4C8LJC5KQI9Q6MGSZ&a=2NBV3&tp_a=2NBV3&b=3VBEN272MLL8Q4C8LJC5KQI9Q6MGSZ&tp_b=3VBEN272MLL8Q4C8LJC5KQI9Q6MGSZ&c=365633&tp_c=365633"},{"rt":null,"stimulus":"Examples sent to student! Waiting for student...","response":null,"trial_type":"html-keyboard-response","trial_index":79,"time_elapsed":1218064,"internal_node_id":"0.0-57.0","params":{"nStudents":24,"maxFlips":25,"completionMinutes":45,"basePay":8,"maxBonus":9,"perTrialBonus":0.5,"perTrialBonusThreshold":0.05,"exampleCost":0.02},"classroomParams":{"A":{"a":1,"b":4},"B":{"a":4,"b":1},"C":{"a":2,"b":8},"D":{"a":8,"b":2}},"conditions":["nonSeqFull","nonSeqPartial","seqNoFeedback","seqFeedback"],"classroomPairings":[["A","B"],["C","D"]],"coinWeights":[0.2,0.5,0.8],"subjectId":"A36470UBRH28GO","assignmentId":"3VBEN272MLL8Q4C8LJC5KQI9Q6MGSZ","hitId":"3XUY87HIVP03YZXVLN9CW37DVI1MM2","url":"https://gershmanlab.com/experiments/alicia/teaching/experiment/?hitId=3XUY87HIVP03YZXVLN9CW37DVI1MM2&workerId=A36470UBRH28GO&assignmentId=3VBEN272MLL8Q4C8LJC5KQI9Q6MGSZ&a=2NBV3&tp_a=2NBV3&b=3VBEN272MLL8Q4C8LJC5KQI9Q6MGSZ&tp_b=3VBEN272MLL8Q4C8LJC5KQI9Q6MGSZ&c=365633&tp_c=365633"},{"rt":6161,"response":{"heads":"5","tails":"5"},"type":"response","condition":"seqNoFeedback","trueTheta":0.5,"classrooms":["A","B"],"studentTrueClassroom":"A","exampleSet":"second","trial_type":"survey-html-form","trial_index":80,"time_elapsed":1224226,"internal_node_id":"0.0-58.0-0.0","params":{"nStudents":24,"maxFlips":25,"completionMinutes":45,"basePay":8,"maxBonus":9,"perTrialBonus":0.5,"perTrialBonusThreshold":0.05,"exampleCost":0.02},"classroomParams":{"A":{"a":1,"b":4},"B":{"a":4,"b":1},"C":{"a":2,"b":8},"D":{"a":8,"b":2}},"conditions":["nonSeqFull","nonSeqPartial","seqNoFeedback","seqFeedback"],"classroomPairings":[["A","B"],["C","D"]],"coinWeights":[0.2,0.5,0.8],"subjectId":"A36470UBRH28GO","assignmentId":"3VBEN272MLL8Q4C8LJC5KQI9Q6MGSZ","hitId":"3XUY87HIVP03YZXVLN9CW37DVI1MM2","url":"https://gershmanlab.com/experiments/alicia/teaching/experiment/?hitId=3XUY87HIVP03YZXVLN9CW37DVI1MM2&workerId=A36470UBRH28GO&assignmentId=3VBEN272MLL8Q4C8LJC5KQI9Q6MGSZ&a=2NBV3&tp_a=2NBV3&b=3VBEN272MLL8Q4C8LJC5KQI9Q6MGSZ&tp_b=3VBEN272MLL8Q4C8LJC5KQI9Q6MGSZ&c=365633&tp_c=365633","firstResponseHeads":5,"firstResponseTails":5,"secondResponseHeads":5,"secondResponseTails":5,"totalHeads":10,"totalTails":10,"studentIndex":7,"studentTrueHypers":{"a":1,"b":4},"studentGuess":0.44,"delta":0.06,"bonus":0,"bonusSoFar":0,"totalExamples":20},{"rt":null,"stimulus":"Sending examples to student... ","response":null,"trial_type":"html-keyboard-response","trial_index":81,"time_elapsed":1225977,"internal_node_id":"0.0-59.0","params":{"nStudents":24,"maxFlips":25,"completionMinutes":45,"basePay":8,"maxBonus":9,"perTrialBonus":0.5,"perTrialBonusThreshold":0.05,"exampleCost":0.02},"classroomParams":{"A":{"a":1,"b":4},"B":{"a":4,"b":1},"C":{"a":2,"b":8},"D":{"a":8,"b":2}},"conditions":["nonSeqFull","nonSeqPartial","seqNoFeedback","seqFeedback"],"classroomPairings":[["A","B"],["C","D"]],"coinWeights":[0.2,0.5,0.8],"subjectId":"A36470UBRH28GO","assignmentId":"3VBEN272MLL8Q4C8LJC5KQI9Q6MGSZ","hitId":"3XUY87HIVP03YZXVLN9CW37DVI1MM2","url":"https://gershmanlab.com/experiments/alicia/teaching/experiment/?hitId=3XUY87HIVP03YZXVLN9CW37DVI1MM2&workerId=A36470UBRH28GO&assignmentId=3VBEN272MLL8Q4C8LJC5KQI9Q6MGSZ&a=2NBV3&tp_a=2NBV3&b=3VBEN272MLL8Q4C8LJC5KQI9Q6MGSZ&tp_b=3VBEN272MLL8Q4C8LJC5KQI9Q6MGSZ&c=365633&tp_c=365633"},{"rt":null,"stimulus":"Examples sent to student! Waiting for student...","response":null,"trial_type":"html-keyboard-response","trial_index":82,"time_elapsed":1230980,"internal_node_id":"0.0-60.0","params":{"nStudents":24,"maxFlips":25,"completionMinutes":45,"basePay":8,"maxBonus":9,"perTrialBonus":0.5,"perTrialBonusThreshold":0.05,"exampleCost":0.02},"classroomParams":{"A":{"a":1,"b":4},"B":{"a":4,"b":1},"C":{"a":2,"b":8},"D":{"a":8,"b":2}},"conditions":["nonSeqFull","nonSeqPartial","seqNoFeedback","seqFeedback"],"classroomPairings":[["A","B"],["C","D"]],"coinWeights":[0.2,0.5,0.8],"subjectId":"A36470UBRH28GO","assignmentId":"3VBEN272MLL8Q4C8LJC5KQI9Q6MGSZ","hitId":"3XUY87HIVP03YZXVLN9CW37DVI1MM2","url":"https://gershmanlab.com/experiments/alicia/teaching/experiment/?hitId=3XUY87HIVP03YZXVLN9CW37DVI1MM2&workerId=A36470UBRH28GO&assignmentId=3VBEN272MLL8Q4C8LJC5KQI9Q6MGSZ&a=2NBV3&tp_a=2NBV3&b=3VBEN272MLL8Q4C8LJC5KQI9Q6MGSZ&tp_b=3VBEN272MLL8Q4C8LJC5KQI9Q6MGSZ&c=365633&tp_c=365633"},{"rt":2620,"stimulus":"\n                <p>Student 8's first guess for coin weight: <b style=\"color:Tomato\";>0.40</b></p>\n                <p>Student 8's second guess for coin weight: <b style=\"color:Tomato\";>0.44</b></p>\n                <p>You received a bonus of <b>$0.00</b> based on the student's second guess.</p>\n                <p>Total bonus so far: <b>$0.00</b></p>\n                <p>Press any key to continue.</p>\n                ","response":"0","trial_type":"html-keyboard-response","trial_index":83,"time_elapsed":1233601,"internal_node_id":"0.0-61.0","params":{"nStudents":24,"maxFlips":25,"completionMinutes":45,"basePay":8,"maxBonus":9,"perTrialBonus":0.5,"perTrialBonusThreshold":0.05,"exampleCost":0.02},"classroomParams":{"A":{"a":1,"b":4},"B":{"a":4,"b":1},"C":{"a":2,"b":8},"D":{"a":8,"b":2}},"conditions":["nonSeqFull","nonSeqPartial","seqNoFeedback","seqFeedback"],"classroomPairings":[["A","B"],["C","D"]],"coinWeights":[0.2,0.5,0.8],"subjectId":"A36470UBRH28GO","assignmentId":"3VBEN272MLL8Q4C8LJC5KQI9Q6MGSZ","hitId":"3XUY87HIVP03YZXVLN9CW37DVI1MM2","url":"https://gershmanlab.com/experiments/alicia/teaching/experiment/?hitId=