[{"rt":5732,"stimulus":"Welcome to the experiment. Press any key to begin.","response":"enter","trial_type":"html-keyboard-response","trial_index":0,"time_elapsed":5752,"internal_node_id":"0.0-0.0","params":{"nStudents":24,"maxFlips":25,"completionMinutes":45,"basePay":8,"maxBonus":9,"perTrialBonus":0.5,"perTrialBonusThreshold":0.05,"exampleCost":0.02},"classroomParams":{"A":{"a":1,"b":4},"B":{"a":4,"b":1},"C":{"a":2,"b":8},"D":{"a":8,"b":2}},"conditions":["nonSeqFull","nonSeqPartial","seqNoFeedback","seqFeedback"],"classroomPairings":[["A","B"],["C","D"]],"coinWeights":[0.2,0.5,0.8],"subjectId":"A3BU8UL4W258UU","assignmentId":"337RC3OW06O44O7DQ5EQ857OLR2LVF","hitId":"3IH9TRB0FBLK6RLF7MSMKICTGYN1IU","url":"https://gershmanlab.com/experiments/alicia/teaching/experiment/?hitId=3IH9TRB0FBLK6RLF7MSMKICTGYN1IU&workerId=A3BU8UL4W258UU&assignmentId=337RC3OW06O44O7DQ5EQ857OLR2LVF&a=WC733&tp_a=WC733&b=337RC3OW06O44O7DQ5EQ857OLR2LVF&tp_b=337RC3OW06O44O7DQ5EQ857OLR2LVF&c=365633&tp_c=365633"},{"rt":2245,"stimulus":"\n        <h3>Please read this consent agreement carefully before deciding whether to participate in this experiment.</h3>\n        <p><b>Purpose of the research:</b> To examine how people teach effectively.</p>\n        <p><b>What you will do in this research:</b> You will teach students the weights of different coins.</p>\n        <p><b>Time required:</b> This experiment will take 45 minutes to complete.</p>\n        <p><b>Risks:</b> There are no anticipated risks associated with participating in this study.             The effects of participating should be comparable to those you would experience from viewing a computer monitor             and using a mouse and keyboard for the duration of the experiment.</p>\n        <p><b>Benefits:</b> The study provides important information about the nature of teaching.</p>\n        <p><b>Compensation:</b> You will receive <b>$8</b> for completing the experiment and a performance bonus of up to <b>$9</b>.</p>\n        <p><b>Confidentiality:</b> Your participation in this study will remain confidential.             No personally identifiable information will be associated with your data.             Your de-identified data may be shared with other researchers and used in future projects.</p>\n        <p><b>Participation and withdrawal:</b> Your participation in this study is completely voluntary and             you may refuse to participate or you may choose to withdraw at any time without penalty or loss of\n            benefits to which you are otherwise entitled.</p>\n        <p><b>How to contact the researcher:</b> If you have questions or concerns about your participation            or payment, or want to request a summary of research findings, please contact\n            Alicia Chen, aliciachen@college.harvard.edu.</p>\n        <p><b>Whom to contact about your rights in this research:</b> For questions, concerns, suggestions,             or complaints that have not been or cannot be addressed by the researcher, or to report             research-related harm, please contact the Committee on the Use of Human Subjects in Research at Harvard University,             1414 Massachusetts Avenue, Second Floor, Cambridge, MA 02138. Phone: 617-496-2847. Email: cuhs@fas.harvard.edu.</p>\n        ","response":0,"trial_type":"html-button-response","trial_index":1,"time_elapsed":7999,"internal_node_id":"0.0-1.0","params":{"nStudents":24,"maxFlips":25,"completionMinutes":45,"basePay":8,"maxBonus":9,"perTrialBonus":0.5,"perTrialBonusThreshold":0.05,"exampleCost":0.02},"classroomParams":{"A":{"a":1,"b":4},"B":{"a":4,"b":1},"C":{"a":2,"b":8},"D":{"a":8,"b":2}},"conditions":["nonSeqFull","nonSeqPartial","seqNoFeedback","seqFeedback"],"classroomPairings":[["A","B"],["C","D"]],"coinWeights":[0.2,0.5,0.8],"subjectId":"A3BU8UL4W258UU","assignmentId":"337RC3OW06O44O7DQ5EQ857OLR2LVF","hitId":"3IH9TRB0FBLK6RLF7MSMKICTGYN1IU","url":"https://gershmanlab.com/experiments/alicia/teaching/experiment/?hitId=3IH9TRB0FBLK6RLF7MSMKICTGYN1IU&workerId=A3BU8UL4W258UU&assignmentId=337RC3OW06O44O7DQ5EQ857OLR2LVF&a=WC733&tp_a=WC733&b=337RC3OW06O44O7DQ5EQ857OLR2LVF&tp_b=337RC3OW06O44O7DQ5EQ857OLR2LVF&c=365633&tp_c=365633"},{"view_history":[{"page_index":0,"viewing_time":4792},{"page_index":1,"viewing_time":4327},{"page_index":2,"viewing_time":32114},{"page_index":3,"viewing_time":18902},{"page_index":4,"viewing_time":12506},{"page_index":5,"viewing_time":34527},{"page_index":6,"viewing_time":57877}],"rt":165046,"trial_type":"instructions","trial_index":2,"time_elapsed":173047,"internal_node_id":"0.0-2.0-0.0","params":{"nStudents":24,"maxFlips":25,"completionMinutes":45,"basePay":8,"maxBonus":9,"perTrialBonus":0.5,"perTrialBonusThreshold":0.05,"exampleCost":0.02},"classroomParams":{"A":{"a":1,"b":4},"B":{"a":4,"b":1},"C":{"a":2,"b":8},"D":{"a":8,"b":2}},"conditions":["nonSeqFull","nonSeqPartial","seqNoFeedback","seqFeedback"],"classroomPairings":[["A","B"],["C","D"]],"coinWeights":[0.2,0.5,0.8],"subjectId":"A3BU8UL4W258UU","assignmentId":"337RC3OW06O44O7DQ5EQ857OLR2LVF","hitId":"3IH9TRB0FBLK6RLF7MSMKICTGYN1IU","url":"https://gershmanlab.com/experiments/alicia/teaching/experiment/?hitId=3IH9TRB0FBLK6RLF7MSMKICTGYN1IU&workerId=A3BU8UL4W258UU&assignmentId=337RC3OW06O44O7DQ5EQ857OLR2LVF&a=WC733&tp_a=WC733&b=337RC3OW06O44O7DQ5EQ857OLR2LVF&tp_b=337RC3OW06O44O7DQ5EQ857OLR2LVF&c=365633&tp_c=365633"},{"rt":44133,"response":{"Q0":"Students in different classrooms will have seen a different number of heads and tails before seeing the examples you select for them.","Q1":"By <b>considering the student's classroom information</b> so that I can teach efficiently and accurately/helpfully at the same time (because each example I give to the student costs money!).","Q2":"The coin lands heads 90% of the time.","Q3":"No, I will teach a <b>new</b> student each time.","Q4":"The students are also on the same alien planet as you, where coins can be unfair.","Q5":"Based on the student's second (and final) guess."},"question_order":[0,1,3,5,4,2],"trial_type":"survey-multi-choice","trial_index":3,"time_elapsed":217181,"internal_node_id":"0.0-2.0-1.0","params":{"nStudents":24,"maxFlips":25,"completionMinutes":45,"basePay":8,"maxBonus":9,"perTrialBonus":0.5,"perTrialBonusThreshold":0.05,"exampleCost":0.02},"classroomParams":{"A":{"a":1,"b":4},"B":{"a":4,"b":1},"C":{"a":2,"b":8},"D":{"a":8,"b":2}},"conditions":["nonSeqFull","nonSeqPartial","seqNoFeedback","seqFeedback"],"classroomPairings":[["A","B"],["C","D"]],"coinWeights":[0.2,0.5,0.8],"subjectId":"A3BU8UL4W258UU","assignmentId":"337RC3OW06O44O7DQ5EQ857OLR2LVF","hitId":"3IH9TRB0FBLK6RLF7MSMKICTGYN1IU","url":"https://gershmanlab.com/experiments/alicia/teaching/experiment/?hitId=3IH9TRB0FBLK6RLF7MSMKICTGYN1IU&workerId=A3BU8UL4W258UU&assignmentId=337RC3OW06O44O7DQ5EQ857OLR2LVF&a=WC733&tp_a=WC733&b=337RC3OW06O44O7DQ5EQ857OLR2LVF&tp_b=337RC3OW06O44O7DQ5EQ857OLR2LVF&c=365633&tp_c=365633","pass":true},{"rt":null,"stimulus":"<div style=\"font-size:30px;\">Congrats on passing the comprehension quiz! The experiment will begin in a few seconds.</div>","response":null,"trial_type":"html-keyboard-response","trial_index":4,"time_elapsed":220197,"internal_node_id":"0.0-3.0","params":{"nStudents":24,"maxFlips":25,"completionMinutes":45,"basePay":8,"maxBonus":9,"perTrialBonus":0.5,"perTrialBonusThreshold":0.05,"exampleCost":0.02},"classroomParams":{"A":{"a":1,"b":4},"B":{"a":4,"b":1},"C":{"a":2,"b":8},"D":{"a":8,"b":2}},"conditions":["nonSeqFull","nonSeqPartial","seqNoFeedback","seqFeedback"],"classroomPairings":[["A","B"],["C","D"]],"coinWeights":[0.2,0.5,0.8],"subjectId":"A3BU8UL4W258UU","assignmentId":"337RC3OW06O44O7DQ5EQ857OLR2LVF","hitId":"3IH9TRB0FBLK6RLF7MSMKICTGYN1IU","url":"https://gershmanlab.com/experiments/alicia/teaching/experiment/?hitId=3IH9TRB0FBLK6RLF7MSMKICTGYN1IU&workerId=A3BU8UL4W258UU&assignmentId=337RC3OW06O44O7DQ5EQ857OLR2LVF&a=WC733&tp_a=WC733&b=337RC3OW06O44O7DQ5EQ857OLR2LVF&tp_b=337RC3OW06O44O7DQ5EQ857OLR2LVF&c=365633&tp_c=365633"},{"rt":null,"stimulus":"<div style=\"font-size:50px;\">First student</div>","response":null,"trial_type":"html-keyboard-response","trial_index":5,"time_elapsed":223205,"internal_node_id":"0.0-4.0","params":{"nStudents":24,"maxFlips":25,"completionMinutes":45,"basePay":8,"maxBonus":9,"perTrialBonus":0.5,"perTrialBonusThreshold":0.05,"exampleCost":0.02},"classroomParams":{"A":{"a":1,"b":4},"B":{"a":4,"b":1},"C":{"a":2,"b":8},"D":{"a":8,"b":2}},"conditions":["nonSeqFull","nonSeqPartial","seqNoFeedback","seqFeedback"],"classroomPairings":[["A","B"],["C","D"]],"coinWeights":[0.2,0.5,0.8],"subjectId":"A3BU8UL4W258UU","assignmentId":"337RC3OW06O44O7DQ5EQ857OLR2LVF","hitId":"3IH9TRB0FBLK6RLF7MSMKICTGYN1IU","url":"https://gershmanlab.com/experiments/alicia/teaching/experiment/?hitId=3IH9TRB0FBLK6RLF7MSMKICTGYN1IU&workerId=A3BU8UL4W258UU&assignmentId=337RC3OW06O44O7DQ5EQ857OLR2LVF&a=WC733&tp_a=WC733&b=337RC3OW06O44O7DQ5EQ857OLR2LVF&tp_b=337RC3OW06O44O7DQ5EQ857OLR2LVF&c=365633&tp_c=365633"},{"rt":9293,"stimulus":"\n            <h4 style=\"color:Orange;\">Student 1</h4>\n            <h2>The weight of your coin is <b style=\"color:Tomato;\">0.5</b>.</h2>\n            <p>In this block, you will be giving <b>one</b> set of examples to Student 1.</p>\n                <p>You will receive feedback at the end of the block.</p>\n            <p></p>","response":0,"trial_type":"html-button-response","trial_index":6,"time_elapsed":232499,"internal_node_id":"0.0-5.0","params":{"nStudents":24,"maxFlips":25,"completionMinutes":45,"basePay":8,"maxBonus":9,"perTrialBonus":0.5,"perTrialBonusThreshold":0.05,"exampleCost":0.02},"classroomParams":{"A":{"a":1,"b":4},"B":{"a":4,"b":1},"C":{"a":2,"b":8},"D":{"a":8,"b":2}},"conditions":["nonSeqFull","nonSeqPartial","seqNoFeedback","seqFeedback"],"classroomPairings":[["A","B"],["C","D"]],"coinWeights":[0.2,0.5,0.8],"subjectId":"A3BU8UL4W258UU","assignmentId":"337RC3OW06O44O7DQ5EQ857OLR2LVF","hitId":"3IH9TRB0FBLK6RLF7MSMKICTGYN1IU","url":"https://gershmanlab.com/experiments/alicia/teaching/experiment/?hitId=3IH9TRB0FBLK6RLF7MSMKICTGYN1IU&workerId=A3BU8UL4W258UU&assignmentId=337RC3OW06O44O7DQ5EQ857OLR2LVF&a=WC733&tp_a=WC733&b=337RC3OW06O44O7DQ5EQ857OLR2LVF&tp_b=337RC3OW06O44O7DQ5EQ857OLR2LVF&c=365633&tp_c=365633"},{"rt":40962,"response":{"heads":"0","tails":"3"},"type":"response","condition":"nonSeqFull","trueTheta":0.5,"classrooms":["A","B"],"studentTrueClassroom":"B","exampleSet":"first","trial_type":"survey-html-form","trial_index":7,"time_elapsed":273462,"internal_node_id":"0.0-6.0-0.0","params":{"nStudents":24,"maxFlips":25,"completionMinutes":45,"basePay":8,"maxBonus":9,"perTrialBonus":0.5,"perTrialBonusThreshold":0.05,"exampleCost":0.02},"classroomParams":{"A":{"a":1,"b":4},"B":{"a":4,"b":1},"C":{"a":2,"b":8},"D":{"a":8,"b":2}},"conditions":["nonSeqFull","nonSeqPartial","seqNoFeedback","seqFeedback"],"classroomPairings":[["A","B"],["C","D"]],"coinWeights":[0.2,0.5,0.8],"subjectId":"A3BU8UL4W258UU","assignmentId":"337RC3OW06O44O7DQ5EQ857OLR2LVF","hitId":"3IH9TRB0FBLK6RLF7MSMKICTGYN1IU","url":"https://gershmanlab.com/experiments/alicia/teaching/experiment/?hitId=3IH9TRB0FBLK6RLF7MSMKICTGYN1IU&workerId=A3BU8UL4W258UU&assignmentId=337RC3OW06O44O7DQ5EQ857OLR2LVF&a=WC733&tp_a=WC733&b=337RC3OW06O44O7DQ5EQ857OLR2LVF&tp_b=337RC3OW06O44O7DQ5EQ857OLR2LVF&c=365633&tp_c=365633","heads":0,"tails":3,"studentIndex":0,"studentTrueHypers":{"a":4,"b":1},"studentGuess":0.5,"delta":0,"totalExamples":3,"bonus":0.44,"bonusSoFar":0.44},{"rt":null,"stimulus":"Sending examples to student... ","response":null,"trial_type":"html-keyboard-response","trial_index":8,"time_elapsed":275468,"internal_node_id":"0.0-7.0","params":{"nStudents":24,"maxFlips":25,"completionMinutes":45,"basePay":8,"maxBonus":9,"perTrialBonus":0.5,"perTrialBonusThreshold":0.05,"exampleCost":0.02},"classroomParams":{"A":{"a":1,"b":4},"B":{"a":4,"b":1},"C":{"a":2,"b":8},"D":{"a":8,"b":2}},"conditions":["nonSeqFull","nonSeqPartial","seqNoFeedback","seqFeedback"],"classroomPairings":[["A","B"],["C","D"]],"coinWeights":[0.2,0.5,0.8],"subjectId":"A3BU8UL4W258UU","assignmentId":"337RC3OW06O44O7DQ5EQ857OLR2LVF","hitId":"3IH9TRB0FBLK6RLF7MSMKICTGYN1IU","url":"https://gershmanlab.com/experiments/alicia/teaching/experiment/?hitId=3IH9TRB0FBLK6RLF7MSMKICTGYN1IU&workerId=A3BU8UL4W258UU&assignmentId=337RC3OW06O44O7DQ5EQ857OLR2LVF&a=WC733&tp_a=WC733&b=337RC3OW06O44O7DQ5EQ857OLR2LVF&tp_b=337RC3OW06O44O7DQ5EQ857OLR2LVF&c=365633&tp_c=365633"},{"rt":null,"stimulus":"Examples sent to student! Waiting for student...","response":null,"trial_type":"html-keyboard-response","trial_index":9,"time_elapsed":280484,"internal_node_id":"0.0-8.0","params":{"nStudents":24,"maxFlips":25,"completionMinutes":45,"basePay":8,"maxBonus":9,"perTrialBonus":0.5,"perTrialBonusThreshold":0.05,"exampleCost":0.02},"classroomParams":{"A":{"a":1,"b":4},"B":{"a":4,"b":1},"C":{"a":2,"b":8},"D":{"a":8,"b":2}},"conditions":["nonSeqFull","nonSeqPartial","seqNoFeedback","seqFeedback"],"classroomPairings":[["A","B"],["C","D"]],"coinWeights":[0.2,0.5,0.8],"subjectId":"A3BU8UL4W258UU","assignmentId":"337RC3OW06O44O7DQ5EQ857OLR2LVF","hitId":"3IH9TRB0FBLK6RLF7MSMKICTGYN1IU","url":"https://gershmanlab.com/experiments/alicia/teaching/experiment/?hitId=3IH9TRB0FBLK6RLF7MSMKICTGYN1IU&workerId=A3BU8UL4W258UU&assignmentId=337RC3OW06O44O7DQ5EQ857OLR2LVF&a=WC733&tp_a=WC733&b=337RC3OW06O44O7DQ5EQ857OLR2LVF&tp_b=337RC3OW06O44O7DQ5EQ857OLR2LVF&c=365633&tp_c=365633"},{"rt":10752,"stimulus":"\n                <p>Student's guess for coin weight: <b style=\"color:Tomato;\">0.50</b></p>\n                <p>You received a bonus of <b>$0.44</b>. Total bonus so far: <b>$0.44</b></b></p>\n                <p></p>\n                <p>Press any key to continue.</p>\n                ","response":" ","trial_type":"html-keyboard-response","trial_index":10,"time_elapsed":291238,"internal_node_id":"0.0-9.0","params":{"nStudents":24,"maxFlips":25,"completionMinutes":45,"basePay":8,"maxBonus":9,"perTrialBonus":0.5,"perTrialBonusThreshold":0.05,"exampleCost":0.02},"classroomParams":{"A":{"a":1,"b":4},"B":{"a":4,"b":1},"C":{"a":2,"b":8},"D":{"a":8,"b":2}},"conditions":["nonSeqFull","nonSeqPartial","seqNoFeedback","seqFeedback"],"classroomPairings":[["A","B"],["C","D"]],"coinWeights":[0.2,0.5,0.8],"subjectId":"A3BU8UL4W258UU","assignmentId":"337RC3OW06O44O7DQ5EQ857OLR2LVF","hitId":"3IH9TRB0FBLK6RLF7MSMKICTGYN1IU","url":"https://gershmanlab.com/experiments/alicia/teaching/experiment/?hitId=3IH9TRB0FBLK6RLF7MSMKICTGYN1IU&workerId=A3BU8UL4W258UU&assignmentId=337RC3OW06O44O7DQ5EQ857OLR2LVF&a=WC733&tp_a=WC733&b=337RC3OW06O44O7DQ5EQ857OLR2LVF&tp_b=337RC3OW06O44O7DQ5EQ857OLR2LVF&c=365633&tp_c=365633"},{"rt":null,"stimulus":"<div style=\"font-size:60px;\">Next student</div>","response":null,"trial_type":"html-keyboard-response","trial_index":11,"time_elapsed":293744,"internal_node_id":"0.0-10.0-0.0","params":{"nStudents":24,"maxFlips":25,"completionMinutes":45,"basePay":8,"maxBonus":9,"perTrialBonus":0.5,"perTrialBonusThreshold":0.05,"exampleCost":0.02},"classroomParams":{"A":{"a":1,"b":4},"B":{"a":4,"b":1},"C":{"a":2,"b":8},"D":{"a":8,"b":2}},"conditions":["nonSeqFull","nonSeqPartial","seqNoFeedback","seqFeedback"],"classroomPairings":[["A","B"],["C","D"]],"coinWeights":[0.2,0.5,0.8],"subjectId":"A3BU8UL4W258UU","assignmentId":"337RC3OW06O44O7DQ5EQ857OLR2LVF","hitId":"3IH9TRB0FBLK6RLF7MSMKICTGYN1IU","url":"https://gershmanlab.com/experiments/alicia/teaching/experiment/?hitId=3IH9TRB0FBLK6RLF7MSMKICTGYN1IU&workerId=A3BU8UL4W258UU&assignmentId=337RC3OW06O44O7DQ5EQ857OLR2LVF&a=WC733&tp_a=WC733&b=337RC3OW06O44O7DQ5EQ857OLR2LVF&tp_b=337RC3OW06O44O7DQ5EQ857OLR2LVF&c=365633&tp_c=365633"},{"rt":10223,"stimulus":"\n            <h4 style=\"color:Orange;\">Student 2</h4>\n            <h2>The weight of your coin is <b style=\"color:Tomato;\">0.2</b>.</h2>\n            <p>In this block, you will be giving <b>two</b> sets of examples to Student 2.</p>\n                <p>You will see the student's guess after the first set of examples. You will also receive feedback at the end of the block.</p>\n            <p>To earn the highest bonus, you will have to <b>take into consideration the student's guess</b> when you choose your second set of examples.</p>","response":0,"trial_type":"html-button-response","trial_index":12,"time_elapsed":303968,"internal_node_id":"0.0-11.0","params":{"nStudents":24,"maxFlips":25,"completionMinutes":45,"basePay":8,"maxBonus":9,"perTrialBonus":0.5,"perTrialBonusThreshold":0.05,"exampleCost":0.02},"classroomParams":{"A":{"a":1,"b":4},"B":{"a":4,"b":1},"C":{"a":2,"b":8},"D":{"a":8,"b":2}},"conditions":["nonSeqFull","nonSeqPartial","seqNoFeedback","seqFeedback"],"classroomPairings":[["A","B"],["C","D"]],"coinWeights":[0.2,0.5,0.8],"subjectId":"A3BU8UL4W258UU","assignmentId":"337RC3OW06O44O7DQ5EQ857OLR2LVF","hitId":"3IH9TRB0FBLK6RLF7MSMKICTGYN1IU","url":"https://gershmanlab.com/experiments/alicia/teaching/experiment/?hitId=3IH9TRB0FBLK6RLF7MSMKICTGYN1IU&workerId=A3BU8UL4W258UU&assignmentId=337RC3OW06O44O7DQ5EQ857OLR2LVF&a=WC733&tp_a=WC733&b=337RC3OW06O44O7DQ5EQ857OLR2LVF&tp_b=337RC3OW06O44O7DQ5EQ857OLR2LVF&c=365633&tp_c=365633"},{"rt":69103,"response":{"heads":"0","tails":"8"},"type":"response","condition":"seqFeedback","trueTheta":0.2,"classrooms":["C","D"],"studentTrueClassroom":"C","exampleSet":"first","trial_type":"survey-html-form","trial_index":13,"time_elapsed":373072,"internal_node_id":"0.0-12.0-0.0","params":{"nStudents":24,"maxFlips":25,"completionMinutes":45,"basePay":8,"maxBonus":9,"perTrialBonus":0.5,"perTrialBonusThreshold":0.05,"exampleCost":0.02},"classroomParams":{"A":{"a":1,"b":4},"B":{"a":4,"b":1},"C":{"a":2,"b":8},"D":{"a":8,"b":2}},"conditions":["nonSeqFull","nonSeqPartial","seqNoFeedback","seqFeedback"],"classroomPairings":[["A","B"],["C","D"]],"coinWeights":[0.2,0.5,0.8],"subjectId":"A3BU8UL4W258UU","assignmentId":"337RC3OW06O44O7DQ5EQ857OLR2LVF","hitId":"3IH9TRB0FBLK6RLF7MSMKICTGYN1IU","url":"https://gershmanlab.com/experiments/alicia/teaching/experiment/?hitId=3IH9TRB0FBLK6RLF7MSMKICTGYN1IU&workerId=A3BU8UL4W258UU&assignmentId=337RC3OW06O44O7DQ5EQ857OLR2LVF&a=WC733&tp_a=WC733&b=337RC3OW06O44O7DQ5EQ857OLR2LVF&tp_b=337RC3OW06O44O7DQ5EQ857OLR2LVF&c=365633&tp_c=365633","heads":0,"tails":8,"studentIndex":1,"studentTrueHypers":{"a":2,"b":8},"studentGuess":0.1111111111111111,"delta":0.0888888888888889,"totalExamples":8,"bonusSoFar":0.44},{"rt":null,"stimulus":"Sending examples to student... ","response":null,"trial_type":"html-keyboard-response","trial_index":14,"time_elapsed":374324,"internal_node_id":"0.0-13.0","params":{"nStudents":24,"maxFlips":25,"completionMinutes":45,"basePay":8,"maxBonus":9,"perTrialBonus":0.5,"perTrialBonusThreshold":0.05,"exampleCost":0.02},"classroomParams":{"A":{"a":1,"b":4},"B":{"a":4,"b":1},"C":{"a":2,"b":8},"D":{"a":8,"b":2}},"conditions":["nonSeqFull","nonSeqPartial","seqNoFeedback","seqFeedback"],"classroomPairings":[["A","B"],["C","D"]],"coinWeights":[0.2,0.5,0.8],"subjectId":"A3BU8UL4W258UU","assignmentId":"337RC3OW06O44O7DQ5EQ857OLR2LVF","hitId":"3IH9TRB0FBLK6RLF7MSMKICTGYN1IU","url":"https://gershmanlab.com/experiments/alicia/teaching/experiment/?hitId=3IH9TRB0FBLK6RLF7MSMKICTGYN1IU&workerId=A3BU8UL4W258UU&assignmentId=337RC3OW06O44O7DQ5EQ857OLR2LVF&a=WC733&tp_a=WC733&b=337RC3OW06O44O7DQ5EQ857OLR2LVF&tp_b=337RC3OW06O44O7DQ5EQ857OLR2LVF&c=365633&tp_c=365633"},{"rt":null,"stimulus":"Examples sent to student! Waiting for student...","response":null,"trial_type":"html-keyboard-response","trial_index":15,"time_elapsed":378838,"internal_node_id":"0.0-14.0","params":{"nStudents":24,"maxFlips":25,"completionMinutes":45,"basePay":8,"maxBonus":9,"perTrialBonus":0.5,"perTrialBonusThreshold":0.05,"exampleCost":0.02},"classroomParams":{"A":{"a":1,"b":4},"B":{"a":4,"b":1},"C":{"a":2,"b":8},"D":{"a":8,"b":2}},"conditions":["nonSeqFull","nonSeqPartial","seqNoFeedback","seqFeedback"],"classroomPairings":[["A","B"],["C","D"]],"coinWeights":[0.2,0.5,0.8],"subjectId":"A3BU8UL4W258UU","assignmentId":"337RC3OW06O44O7DQ5EQ857OLR2LVF","hitId":"3IH9TRB0FBLK6RLF7MSMKICTGYN1IU","url":"https://gershmanlab.com/experiments/alicia/teaching/experiment/?hitId=3IH9TRB0FBLK6RLF7MSMKICTGYN1IU&workerId=A3BU8UL4W258UU&assignmentId=337RC3OW06O44O7DQ5EQ857OLR2LVF&a=WC733&tp_a=WC733&b=337RC3OW06O44O7DQ5EQ857OLR2LVF&tp_b=337RC3OW06O44O7DQ5EQ857OLR2LVF&c=365633&tp_c=365633"},{"rt":7684,"stimulus":"\n                <p>Student's guess for coin weight: <b style=\"color:Tomato;\">0.11</b></p>\n                <p></b></p>\n                <p>You will now send another set of examples to your student. <b>Remember to take your student's guess into consideration so that you can earn the highest bonus possible!</b> </p>\n                <p>Press any key to continue.</p>\n                ","response":"enter","trial_type":"html-keyboard-response","trial_index":16,"time_elapsed":386523,"internal_node_id":"0.0-15.0","params":{"nStudents":24,"maxFlips":25,"completionMinutes":45,"basePay":8,"maxBonus":9,"perTrialBonus":0.5,"perTrialBonusThreshold":0.05,"exampleCost":0.02},"classroomParams":{"A":{"a":1,"b":4},"B":{"a":4,"b":1},"C":{"a":2,"b":8},"D":{"a":8,"b":2}},"conditions":["nonSeqFull","nonSeqPartial","seqNoFeedback","seqFeedback"],"classroomPairings":[["A","B"],["C","D"]],"coinWeights":[0.2,0.5,0.8],"subjectId":"A3BU8UL4W258UU","assignmentId":"337RC3OW06O44O7DQ5EQ857OLR2LVF","hitId":"3IH9TRB0FBLK6RLF7MSMKICTGYN1IU","url":"https://gershmanlab.com/experiments/alicia/teaching/experiment/?hitId=3IH9TRB0FBLK6RLF7MSMKICTGYN1IU&workerId=A3BU8UL4W258UU&assignmentId=337RC3OW06O44O7DQ5EQ857OLR2LVF&a=WC733&tp_a=WC733&b=337RC3OW06O44O7DQ5EQ857OLR2LVF&tp_b=337RC3OW06O44O7DQ5EQ857OLR2LVF&c=365633&tp_c=365633"},{"rt":32408,"response":{"heads":"2","tails":"8"},"type":"response","condition":"seqFeedback","trueTheta":0.2,"classrooms":["C","D"],"studentTrueClassroom":"C","exampleSet":"second","trial_type":"survey-html-form","trial_index":17,"time_elapsed":418932,"internal_node_id":"0.0-16.0-0.0","params":{"nStudents":24,"maxFlips":25,"completionMinutes":45,"basePay":8,"maxBonus":9,"perTrialBonus":0.5,"perTrialBonusThreshold":0.05,"exampleCost":0.02},"classroomParams":{"A":{"a":1,"b":4},"B":{"a":4,"b":1},"C":{"a":2,"b":8},"D":{"a":8,"b":2}},"conditions":["nonSeqFull","nonSeqPartial","seqNoFeedback","seqFeedback"],"classroomPairings":[["A","B"],["C","D"]],"coinWeights":[0.2,0.5,0.8],"subjectId":"A3BU8UL4W258UU","assignmentId":"337RC3OW06O44O7DQ5EQ857OLR2LVF","hitId":"3IH9TRB0FBLK6RLF7MSMKICTGYN1IU","url":"https://gershmanlab.com/experiments/alicia/teaching/experiment/?hitId=3IH9TRB0FBLK6RLF7MSMKICTGYN1IU&workerId=A3BU8UL4W258UU&assignmentId=337RC3OW06O44O7DQ5EQ857OLR2LVF&a=WC733&tp_a=WC733&b=337RC3OW06O44O7DQ5EQ857OLR2LVF&tp_b=337RC3OW06O44O7DQ5EQ857OLR2LVF&c=365633&tp_c=365633","firstResponseHeads":0,"firstResponseTails":8,"secondResponseHeads":2,"secondResponseTails":8,"totalHeads":2,"totalTails":16,"studentIndex":1,"studentTrueHypers":{"a":2,"b":8},"studentGuess":0.14285714285714285,"delta":0.05714285714285716,"bonus":0,"bonusSoFar":0.44,"totalExamples":18},{"rt":null,"stimulus":"Sending examples to student... ","response":null,"trial_type":"html-keyboard-response","trial_index":18,"time_elapsed":420434,"internal_node_id":"0.0-17.0","params":{"nStudents":24,"maxFlips":25,"completionMinutes":45,"basePay":8,"maxBonus":9,"perTrialBonus":0.5,"perTrialBonusThreshold":0.05,"exampleCost":0.02},"classroomParams":{"A":{"a":1,"b":4},"B":{"a":4,"b":1},"C":{"a":2,"b":8},"D":{"a":8,"b":2}},"conditions":["nonSeqFull","nonSeqPartial","seqNoFeedback","seqFeedback"],"classroomPairings":[["A","B"],["C","D"]],"coinWeights":[0.2,0.5,0.8],"subjectId":"A3BU8UL4W258UU","assignmentId":"337RC3OW06O44O7DQ5EQ857OLR2LVF","hitId":"3IH9TRB0FBLK6RLF7MSMKICTGYN1IU","url":"https://gershmanlab.com/experiments/alicia/teaching/experiment/?hitId=3IH9TRB0FBLK6RLF7MSMKICTGYN1IU&workerId=A3BU8UL4W258UU&assignmentId=337RC3OW06O44O7DQ5EQ857OLR2LVF&a=WC733&tp_a=WC733&b=337RC3OW06O44O7DQ5EQ857OLR2LVF&tp_b=337RC3OW06O44O7DQ5EQ857OLR2LVF&c=365633&tp_c=365633"},{"rt":null,"stimulus":"Examples sent to student! Waiting for student...","response":null,"trial_type":"html-keyboard-response","trial_index":19,"time_elapsed":425944,"internal_node_id":"0.0-18.0","params":{"nStudents":24,"maxFlips":25,"completionMinutes":45,"basePay":8,"maxBonus":9,"perTrialBonus":0.5,"perTrialBonusThreshold":0.05,"exampleCost":0.02},"classroomParams":{"A":{"a":1,"b":4},"B":{"a":4,"b":1},"C":{"a":2,"b":8},"D":{"a":8,"b":2}},"conditions":["nonSeqFull","nonSeqPartial","seqNoFeedback","seqFeedback"],"classroomPairings":[["A","B"],["C","D"]],"coinWeights":[0.2,0.5,0.8],"subjectId":"A3BU8UL4W258UU","assignmentId":"337RC3OW06O44O7DQ5EQ857OLR2LVF","hitId":"3IH9TRB0FBLK6RLF7MSMKICTGYN1IU","url":"https://gershmanlab.com/experiments/alicia/teaching/experiment/?hitId=3IH9TRB0FBLK6RLF7MSMKICTGYN1IU&workerId=A3BU8UL4W258UU&assignmentId=337RC3OW06O44O7DQ5EQ857OLR2LVF&a=WC733&tp_a=WC733&b=337RC3OW06O44O7DQ5EQ857OLR2LVF&tp_b=337RC3OW06O44O7DQ5EQ857OLR2LVF&c=365633&tp_c=365633"},{"rt":6888,"stimulus":"\n                <p>Student 2's first guess for coin weight: <b style=\"color:Tomato\";>0.11</b></p>\n                <p>Student 2's second guess for coin weight: <b style=\"color:Tomato\";>0.14</b></p>\n                <p>You received a bonus of <b>$0.00</b> based on the student's second guess.</p>\n                <p>Total bonus so far: <b>$0.44</b></p>\n                <p>Press any key to continue.</p>\n                ","response":"enter","trial_type":"html-keyboard-response","trial_index":20,"time_elapsed":432834,"internal_node_id":"0.0-19.0","params":{"nStudents":24,"maxFlips":25,"completionMinutes":45,"basePay":8,"maxBonus":9,"perTrialBonus":0.5,"perTrialBonusThreshold":0.05,"exampleCost":0.02},"classroomParams":{"A":{"a":1,"b":4},"B":{"a":4,"b":1},"C":{"a":2,"b":8},"D":{"a":8,"b":2}},"conditions":["nonSeqFull","nonSeqPartial","seqNoFeedback","seqFeedback"],"classroomPairings":[["A","B"],["C","D"]],"coinWeights":[0.2,0.5,0.8],"subjectId":"A3BU8UL4W258UU","assignmentId":"337RC3OW06O44O7DQ5EQ857OLR2LVF","hitId":"3IH9TRB0FBLK6RLF7MSMKICTGYN1IU","url":"https://gershmanlab.com/experiments/alicia/teaching/experiment/?hitId=3IH9TRB0FBLK6RLF7MSMKICTGYN1IU&workerId=A3BU8UL4W258UU&assignmentId=337RC3OW06O44O7DQ5EQ857OLR2LVF&a=WC733&tp_a=WC733&b=337RC3OW06O44O7DQ5EQ857OLR2LVF&tp_b=337RC3OW06O44O7DQ5EQ857OLR2LVF&c=365633&tp_c=365633"},{"rt":null,"stimulus":"<div style=\"font-size:60px;\">Next student</div>","response":null,"trial_type":"html-keyboard-response","trial_index":21,"time_elapsed":434842,"internal_node_id":"0.0-20.0-0.0","params":{"nStudents":24,"maxFlips":25,"completionMinutes":45,"basePay":8,"maxBonus":9,"perTrialBonus":0.5,"perTrialBonusThreshold":0.05,"exampleCost":0.02},"classroomParams":{"A":{"a":1,"b":4},"B":{"a":4,"b":1},"C":{"a":2,"b":8},"D":{"a":8,"b":2}},"conditions":["nonSeqFull","nonSeqPartial","seqNoFeedback","seqFeedback"],"classroomPairings":[["A","B"],["C","D"]],"coinWeights":[0.2,0.5,0.8],"subjectId":"A3BU8UL4W258UU","assignmentId":"337RC3OW06O44O7DQ5EQ857OLR2LVF","hitId":"3IH9TRB0FBLK6RLF7MSMKICTGYN1IU","url":"https://gershmanlab.com/experiments/alicia/teaching/experiment/?hitId=3IH9TRB0FBLK6RLF7MSMKICTGYN1IU&workerId=A3BU8UL4W258UU&assignmentId=337RC3OW06O44O7DQ5EQ857OLR2LVF&a=WC733&tp_a=WC733&b=337RC3OW06O44O7DQ5EQ857OLR2LVF&tp_b=337RC3OW06O44O7DQ5EQ857OLR2LVF&c=365633&tp_c=365633"},{"rt":2890,"stimulus":"\n            <h4 style=\"color:Orange;\">Student 3</h4>\n            <h2>The weight of your coin is <b style=\"color:Tomato;\">0.2</b>.</h2>\n            <p>In this block, you will be giving <b>two</b> sets of examples to Student 3.</p>\n                <p>You will receive feedback at the end of the block.</p>\n            <p></p>","response":0,"trial_type":"html-button-response","trial_index":22,"time_elapsed":437732,"internal_node_id":"0.0-21.0","params":{"nStudents":24,"maxFlips":25,"completionMinutes":45,"basePay":8,"maxBonus":9,"perTrialBonus":0.5,"perTrialBonusThreshold":0.05,"exampleCost":0.02},"classroomParams":{"A":{"a":1,"b":4},"B":{"a":4,"b":1},"C":{"a":2,"b":8},"D":{"a":8,"b":2}},"conditions":["nonSeqFull","nonSeqPartial","seqNoFeedback","seqFeedback"],"classroomPairings":[["A","B"],["C","D"]],"coinWeights":[0.2,0.5,0.8],"subjectId":"A3BU8UL4W258UU","assignmentId":"337RC3OW06O44O7DQ5EQ857OLR2LVF","hitId":"3IH9TRB0FBLK6RLF7MSMKICTGYN1IU","url":"https://gershmanlab.com/experiments/alicia/teaching/experiment/?hitId=3IH9TRB0FBLK6RLF7MSMKICTGYN1IU&workerId=A3BU8UL4W258UU&assignmentId=337RC3OW06O44O7DQ5EQ857OLR2LVF&a=WC733&tp_a=WC733&b=337RC3OW06O44O7DQ5EQ857OLR2LVF&tp_b=337RC3OW06O44O7DQ5EQ857OLR2LVF&c=365633&tp_c=365633"},{"rt":28050,"response":{"heads":"2","tails":"10"},"type":"response","condition":"seqNoFeedback","trueTheta":0.2,"classrooms":["A","B"],"studentTrueClassroom":"B","exampleSet":"first","trial_type":"survey-html-form","trial_index":23,"time_elapsed":465783,"internal_node_id":"0.0-22.0-0.0","params":{"nStudents":24,"maxFlips":25,"completionMinutes":45,"basePay":8,"maxBonus":9,"perTrialBonus":0.5,"perTrialBonusThreshold":0.05,"exampleCost":0.02},"classroomParams":{"A":{"a":1,"b":4},"B":{"a":4,"b":1},"C":{"a":2,"b":8},"D":{"a":8,"b":2}},"conditions":["nonSeqFull","nonSeqPartial","seqNoFeedback","seqFeedback"],"classroomPairings":[["A","B"],["C","D"]],"coinWeights":[0.2,0.5,0.8],"subjectId":"A3BU8UL4W258UU","assignmentId":"337RC3OW06O44O7DQ5EQ857OLR2LVF","hitId":"3IH9TRB0FBLK6RLF7MSMKICTGYN1IU","url":"https://gershmanlab.com/experiments/alicia/teaching/experiment/?hitId=3IH9TRB0FBLK6RLF7MSMKICTGYN1IU&workerId=A3BU8UL4W258UU&assignmentId=337RC3OW06O44O7DQ5EQ857OLR2LVF&a=WC733&tp_a=WC733&b=337RC3OW06O44O7DQ5EQ857OLR2LVF&tp_b=337RC3OW06O44O7DQ5EQ857OLR2LVF&c=365633&tp_c=365633","heads":2,"tails":10,"studentIndex":2,"studentTrueHypers":{"a":4,"b":1},"studentGuess":0.35294117647058826,"delta":0.15294117647058825,"totalExamples":12,"bonusSoFar":0.44},{"rt":null,"stimulus":"Sending examples to student... ","response":null,"trial_type":"html-keyboard-response","trial_index":24,"time_elapsed":467797,"internal_node_id":"0.0-23.0","params":{"nStudents":24,"maxFlips":25,"completionMinutes":45,"basePay":8,"maxBonus":9,"perTrialBonus":0.5,"perTrialBonusThreshold":0.05,"exampleCost":0.02},"classroomParams":{"A":{"a":1,"b":4},"B":{"a":4,"b":1},"C":{"a":2,"b":8},"D":{"a":8,"b":2}},"conditions":["nonSeqFull","nonSeqPartial","seqNoFeedback","seqFeedback"],"classroomPairings":[["A","B"],["C","D"]],"coinWeights":[0.2,0.5,0.8],"subjectId":"A3BU8UL4W258UU","assignmentId":"337RC3OW06O44O7DQ5EQ857OLR2LVF","hitId":"3IH9TRB0FBLK6RLF7MSMKICTGYN1IU","url":"https://gershmanlab.com/experiments/alicia/teaching/experiment/?hitId=3IH9TRB0FBLK6RLF7MSMKICTGYN1IU&workerId=A3BU8UL4W258UU&assignmentId=337RC3OW06O44O7DQ5EQ857OLR2LVF&a=WC733&tp_a=WC733&b=337RC3OW06O44O7DQ5EQ857OLR2LVF&tp_b=337RC3OW06O44O7DQ5EQ857OLR2LVF&c=365633&tp_c=365633"},{"rt":null,"stimulus":"Examples sent to student! Waiting for student...","response":null,"trial_type":"html-keyboard-response","trial_index":25,"time_elapsed":472312,"internal_node_id":"0.0-24.0","params":{"nStudents":24,"maxFlips":25,"completionMinutes":45,"basePay":8,"maxBonus":9,"perTrialBonus":0.5,"perTrialBonusThreshold":0.05,"exampleCost":0.02},"classroomParams":{"A":{"a":1,"b":4},"B":{"a":4,"b":1},"C":{"a":2,"b":8},"D":{"a":8,"b":2}},"conditions":["nonSeqFull","nonSeqPartial","seqNoFeedback","seqFeedback"],"classroomPairings":[["A","B"],["C","D"]],"coinWeights":[0.2,0.5,0.8],"subjectId":"A3BU8UL4W258UU","assignmentId":"337RC3OW06O44O7DQ5EQ857OLR2LVF","hitId":"3IH9TRB0FBLK6RLF7MSMKICTGYN1IU","url":"https://gershmanlab.com/experiments/alicia/teaching/experiment/?hitId=3IH9TRB0FBLK6RLF7MSMKICTGYN1IU&workerId=A3BU8UL4W258UU&assignmentId=337RC3OW06O44O7DQ5EQ857OLR2LVF&a=WC733&tp_a=WC733&b=337RC3OW06O44O7DQ5EQ857OLR2LVF&tp_b=337RC3OW06O44O7DQ5EQ857OLR2LVF&c=365633&tp_c=365633"},{"rt":25126,"response":{"heads":"1","tails":"3"},"type":"response","condition":"seqNoFeedback","trueTheta":0.2,"classrooms":["A","B"],"studentTrueClassroom":"B","exampleSet":"second","trial_type":"survey-html-form","trial_index":26,"time_elapsed":497439,"internal_node_id":"0.0-25.0-0.0","params":{"nStudents":24,"maxFlips":25,"completionMinutes":45,"basePay":8,"maxBonus":9,"perTrialBonus":0.5,"perTrialBonusThreshold":0.05,"exampleCost":0.02},"classroomParams":{"A":{"a":1,"b":4},"B":{"a":4,"b":1},"C":{"a":2,"b":8},"D":{"a":8,"b":2}},"conditions":["nonSeqFull","nonSeqPartial","seqNoFeedback","seqFeedback"],"classroomPairings":[["A","B"],["C","D"]],"coinWeights":[0.2,0.5,0.8],"subjectId":"A3BU8UL4W258UU","assignmentId":"337RC3OW06O44O7DQ5EQ857OLR2LVF","hitId":"3IH9TRB0FBLK6RLF7MSMKICTGYN1IU","url":"https://gershmanlab.com/experiments/alicia/teaching/experiment/?hitId=3IH9TRB0FBLK6RLF7MSMKICTGYN1IU&workerId=A3BU8UL4W258UU&assignmentId=337RC3OW06O44O7DQ5EQ857OLR2LVF&a=WC733&tp_a=WC733&b=337RC3OW06O44O7DQ5EQ857OLR2LVF&tp_b=337RC3OW06O44O7DQ5EQ857OLR2LVF&c=365633&tp_c=365633","firstResponseHeads":2,"firstResponseTails":10,"secondResponseHeads":1,"secondResponseTails":3,"totalHeads":3,"totalTails":13,"studentIndex":2,"studentTrueHypers":{"a":4,"b":1},"studentGuess":0.3333333333333333,"delta":0.1333333333333333,"bonus":0,"bonusSoFar":0.44,"totalExamples":16},{"rt":null,"stimulus":"Sending examples to student... ","response":null,"trial_type":"html-keyboard-response","trial_index":27,"time_elapsed":499190,"internal_node_id":"0.0-26.0","params":{"nStudents":24,"maxFlips":25,"completionMinutes":45,"basePay":8,"maxBonus":9,"perTrialBonus":0.5,"perTrialBonusThreshold":0.05,"exampleCost":0.02},"classroomParams":{"A":{"a":1,"b":4},"B":{"a":4,"b":1},"C":{"a":2,"b":8},"D":{"a":8,"b":2}},"conditions":["nonSeqFull","nonSeqPartial","seqNoFeedback","seqFeedback"],"classroomPairings":[["A","B"],["C","D"]],"coinWeights":[0.2,0.5,0.8],"subjectId":"A3BU8UL4W258UU","assignmentId":"337RC3OW06O44O7DQ5EQ857OLR2LVF","hitId":"3IH9TRB0FBLK6RLF7MSMKICTGYN1IU","url":"https://gershmanlab.com/experiments/alicia/teaching/experiment/?hitId=3IH9TRB0FBLK6RLF7MSMKICTGYN1IU&workerId=A3BU8UL4W258UU&assignmentId=337RC3OW06O44O7DQ5EQ857OLR2LVF&a=WC733&tp_a=WC733&b=337RC3OW06O44O7DQ5EQ857OLR2LVF&tp_b=337RC3OW06O44O7DQ5EQ857OLR2LVF&c=365633&tp_c=365633"},{"rt":null,"stimulus":"Examples sent to student! Waiting for student...","response":null,"trial_type":"html-keyboard-response","trial_index":28,"time_elapsed":504696,"internal_node_id":"0.0-27.0","params":{"nStudents":24,"maxFlips":25,"completionMinutes":45,"basePay":8,"maxBonus":9,"perTrialBonus":0.5,"perTrialBonusThreshold":0.05,"exampleCost":0.02},"classroomParams":{"A":{"a":1,"b":4},"B":{"a":4,"b":1},"C":{"a":2,"b":8},"D":{"a":8,"b":2}},"conditions":["nonSeqFull","nonSeqPartial","seqNoFeedback","seqFeedback"],"classroomPairings":[["A","B"],["C","D"]],"coinWeights":[0.2,0.5,0.8],"subjectId":"A3BU8UL4W258UU","assignmentId":"337RC3OW06O44O7DQ5EQ857OLR2LVF","hitId":"3IH9TRB0FBLK6RLF7MSMKICTGYN1IU","url":"https://gershmanlab.com/experiments/alicia/teaching/experiment/?hitId=3IH9TRB0FBLK6RLF7MSMKICTGYN1IU&workerId=A3BU8UL4W258UU&assignmentId=337RC3OW06O44O7DQ5EQ857OLR2LVF&a=WC733&tp_a=WC733&b=337RC3OW06O44O7DQ5EQ857OLR2LVF&tp_b=337RC3OW06O44O7DQ5EQ857OLR2LVF&c=365633&tp_c=365633"},{"rt":6372,"stimulus":"\n                <p>Student 3's first guess for coin weight: <b style=\"color:Tomato\";>0.35</b></p>\n                <p>Student 3's second guess for coin weight: <b style=\"color:Tomato\";>0.33</b></p>\n                <p>You received a bonus of <b>$0.00</b> based on the student's second guess.</p>\n                <p>Total bonus so far: <b>$0.44</b></p>\n                <p>Press any key to continue.</p>\n                ","response":"enter","trial_type":"html-keyboard-response","trial_index":29,"time_elapsed":511068,"internal_node_id":"0.0-28.0","params":{"nStudents":24,"maxFlips":25,"completionMinutes":45,"basePay":8,"maxBonus":9,"perTrialBonus":0.5,"perTrialBonusThreshold":0.05,"exampleCost":0.02},"classroomParams":{"A":{"a":1,"b":4},"B":{"a":4,"b":1},"C":{"a":2,"b":8},"D":{"a":8,"b":2}},"conditions":["nonSeqFull","nonSeqPartial","seqNoFeedback","seqFeedback"],"classroomPairings":[["A","B"],["C","D"]],"coinWeights":[0.2,0.5,0.8],"subjectId":"A3BU8UL4W258UU","assignmentId":"337RC3OW06O44O7DQ5EQ857OLR2LVF","hitId":"3IH9TRB0FBLK6RLF7MSMKICTGYN1IU","url":"https://gershmanlab.com/experiments/alicia/teaching/experiment/?hitId=3IH9TRB0FBLK6RLF7MSMKICTGYN1IU&workerId=A3BU8UL4W258UU&assignmentId=337RC3OW06O44O7DQ5EQ857OLR2LVF&a=WC733&tp_a=WC733&b=337RC3OW06O44O7DQ5EQ857OLR2LVF&tp_b=337RC3OW06O44O7DQ5EQ857OLR2LVF&c=365633&tp_c=365633"},{"rt":null,"stimulus":"<div style=\"font-size:60px;\">Next student</div>","response":null,"trial_type":"html-keyboard-response","trial_index":30,"time_elapsed":514069,"internal_node_id":"0.0-29.0-0.0","params":{"nStudents":24,"maxFlips":25,"completionMinutes":45,"basePay":8,"maxBonus":9,"perTrialBonus":0.5,"perTrialBonusThreshold":0.05,"exampleCost":0.02},"classroomParams":{"A":{"a":1,"b":4},"B":{"a":4,"b":1},"C":{"a":2,"b":8},"D":{"a":8,"b":2}},"conditions":["nonSeqFull","nonSeqPartial","seqNoFeedback","seqFeedback"],"classroomPairings":[["A","B"],["C","D"]],"coinWeights":[0.2,0.5,0.8],"subjectId":"A3BU8UL4W258UU","assignmentId":"337RC3OW06O44O7DQ5EQ857OLR2LVF","hitId":"3IH9TRB0FBLK6RLF7MSMKICTGYN1IU","url":"https://gershmanlab.com/experiments/alicia/teaching/experiment/?hitId=3IH9TRB0FBLK6RLF7MSMKICTGYN1IU&workerId=A3BU8UL4W258UU&assignmentId=337RC3OW06O44O7DQ5EQ857OLR2LVF&a=WC733&tp_a=WC733&b=337RC3OW06O44O7DQ5EQ857OLR2LVF&tp_b=337RC3OW06O44O7DQ5EQ857OLR2LVF&c=365633&tp_c=365633"},{"rt":3375,"stimulus":"\n            <h4 style=\"color:Orange;\">Student 4</h4>\n            <h2>The weight of your coin is <b style=\"color:Tomato;\">0.8</b>.</h2>\n            <p>In this block, you will be giving <b>two</b> sets of examples to Student 4.</p>\n                <p>You will receive feedback at the end of the block.</p>\n            <p></p>","response":0,"trial_type":"html-button-response","trial_index":31,"time_elapsed":517446,"internal_node_id":"0.0-30.0","params":{"nStudents":24,"maxFlips":25,"completionMinutes":45,"basePay":8,"maxBonus":9,"perTrialBonus":0.5,"perTrialBonusThreshold":0.05,"exampleCost":0.02},"classroomParams":{"A":{"a":1,"b":4},"B":{"a":4,"b":1},"C":{"a":2,"b":8},"D":{"a":8,"b":2}},"conditions":["nonSeqFull","nonSeqPartial","seqNoFeedback","seqFeedback"],"classroomPairings":[["A","B"],["C","D"]],"coinWeights":[0.2,0.5,0.8],"subjectId":"A3BU8UL4W258UU","assignmentId":"337RC3OW06O44O7DQ5EQ857OLR2LVF","hitId":"3IH9TRB0FBLK6RLF7MSMKICTGYN1IU","url":"https://gershmanlab.com/experiments/alicia/teaching/experiment/?hitId=3IH9TRB0FBLK6RLF7MSMKICTGYN1IU&workerId=A3BU8UL4W258UU&assignmentId=337RC3OW06O44O7DQ5EQ857OLR2LVF&a=WC733&tp_a=WC733&b=337RC3OW06O44O7DQ5EQ857OLR2LVF&tp_b=337RC3OW06O44O7DQ5EQ857OLR2LVF&c=365633&tp_c=365633"},{"rt":10906,"response":{"heads":"8","tails":"2"},"type":"response","condition":"seqNoFeedback","trueTheta":0.8,"classrooms":["A","B"],"studentTrueClassroom":"B","exampleSet":"first","trial_type":"survey-html-form","trial_index":32,"time_elapsed":528353,"internal_node_id":"0.0-31.0-0.0","params":{"nStudents":24,"maxFlips":25,"completionMinutes":45,"basePay":8,"maxBonus":9,"perTrialBonus":0.5,"perTrialBonusThreshold":0.05,"exampleCost":0.02},"classroomParams":{"A":{"a":1,"b":4},"B":{"a":4,"b":1},"C":{"a":2,"b":8},"D":{"a":8,"b":2}},"conditions":["nonSeqFull","nonSeqPartial","seqNoFeedback","seqFeedback"],"classroomPairings":[["A","B"],["C","D"]],"coinWeights":[0.2,0.5,0.8],"subjectId":"A3BU8UL4W258UU","assignmentId":"337RC3OW06O44O7DQ5EQ857OLR2LVF","hitId":"3IH9TRB0FBLK6RLF7MSMKICTGYN1IU","url":"https://gershmanlab.com/experiments/alicia/teaching/experiment/?hitId=3IH9TRB0FBLK6RLF7MSMKICTGYN1IU&workerId=A3BU8UL4W258UU&assignmentId=337RC3OW06O44O7DQ5EQ857OLR2LVF&a=WC733&tp_a=WC733&b=337RC3OW06O44O7DQ5EQ857OLR2LVF&tp_b=337RC3OW06O44O7DQ5EQ857OLR2LVF&c=365633&tp_c=365633","heads":8,"tails":2,"studentIndex":3,"studentTrueHypers":{"a":4,"b":1},"studentGuess":0.8,"delta":0,"totalExamples":10,"bonusSoFar":0.44},{"rt":null,"stimulus":"Sending examples to student... ","response":null,"trial_type":"html-keyboard-response","trial_index":33,"time_elapsed":529604,"internal_node_id":"0.0-32.0","params":{"nStudents":24,"maxFlips":25,"completionMinutes":45,"basePay":8,"maxBonus":9,"perTrialBonus":0.5,"perTrialBonusThreshold":0.05,"exampleCost":0.02},"classroomParams":{"A":{"a":1,"b":4},"B":{"a":4,"b":1},"C":{"a":2,"b":8},"D":{"a":8,"b":2}},"conditions":["nonSeqFull","nonSeqPartial","seqNoFeedback","seqFeedback"],"classroomPairings":[["A","B"],["C","D"]],"coinWeights":[0.2,0.5,0.8],"subjectId":"A3BU8UL4W258UU","assignmentId":"337RC3OW06O44O7DQ5EQ857OLR2LVF","hitId":"3IH9TRB0FBLK6RLF7MSMKICTGYN1IU","url":"https://gershmanlab.com/experiments/alicia/teaching/experiment/?hitId=3IH9TRB0FBLK6RLF7MSMKICTGYN1IU&workerId=A3BU8UL4W258UU&assignmentId=337RC3OW06O44O7DQ5EQ857OLR2LVF&a=WC733&tp_a=WC733&b=337RC3OW06O44O7DQ5EQ857OLR2LVF&tp_b=337RC3OW06O44O7DQ5EQ857OLR2LVF&c=365633&tp_c=365633"},{"rt":null,"stimulus":"Examples sent to student! Waiting for student...","response":null,"trial_type":"html-keyboard-response","trial_index":34,"time_elapsed":535109,"internal_node_id":"0.0-33.0","params":{"nStudents":24,"maxFlips":25,"completionMinutes":45,"basePay":8,"maxBonus":9,"perTrialBonus":0.5,"perTrialBonusThreshold":0.05,"exampleCost":0.02},"classroomParams":{"A":{"a":1,"b":4},"B":{"a":4,"b":1},"C":{"a":2,"b":8},"D":{"a":8,"b":2}},"conditions":["nonSeqFull","nonSeqPartial","seqNoFeedback","seqFeedback"],"classroomPairings":[["A","B"],["C","D"]],"coinWeights":[0.2,0.5,0.8],"subjectId":"A3BU8UL4W258UU","assignmentId":"337RC3OW06O44O7DQ5EQ857OLR2LVF","hitId":"3IH9TRB0FBLK6RLF7MSMKICTGYN1IU","url":"https://gershmanlab.com/experiments/alicia/teaching/experiment/?hitId=3IH9TRB0FBLK6RLF7MSMKICTGYN1IU&workerId=A3BU8UL4W258UU&assignmentId=337RC3OW06O44O7DQ5EQ857OLR2LVF&a=WC733&tp_a=WC733&b=337RC3OW06O44O7DQ5EQ857OLR2LVF&tp_b=337RC3OW06O44O7DQ5EQ857OLR2LVF&c=365633&tp_c=365633"},{"rt":7425,"response":{"heads":"0","tails":"2"},"type":"response","condition":"seqNoFeedback","trueTheta":0.8,"classrooms":["A","B"],"studentTrueClassroom":"B","exampleSet":"second","trial_type":"survey-html-form","trial_index":35,"time_elapsed":542535,"internal_node_id":"0.0-34.0-0.0","params":{"nStudents":24,"maxFlips":25,"completionMinutes":45,"basePay":8,"maxBonus":9,"perTrialBonus":0.5,"perTrialBonusThreshold":0.05,"exampleCost":0.02},"classroomParams":{"A":{"a":1,"b":4},"B":{"a":4,"b":1},"C":{"a":2,"b":8},"D":{"a":8,"b":2}},"conditions":["nonSeqFull","nonSeqPartial","seqNoFeedback","seqFeedback"],"classroomPairings":[["A","B"],["C","D"]],"coinWeights":[0.2,0.5,0.8],"subjectId":"A3BU8UL4W258UU","assignmentId":"337RC3OW06O44O7DQ5EQ857OLR2LVF","hitId":"3IH9TRB0FBLK6RLF7MSMKICTGYN1IU","url":"https://gershmanlab.com/experiments/alicia/teaching/experiment/?hitId=3IH9TRB0FBLK6RLF7MSMKICTGYN1IU&workerId=A3BU8UL4W258UU&assignmentId=337RC3OW06O44O7DQ5EQ857OLR2LVF&a=WC733&tp_a=WC733&b=337RC3OW06O44O7DQ5EQ857OLR2LVF&tp_b=337RC3OW06O44O7DQ5EQ857OLR2LVF&c=365633&tp_c=365633","firstResponseHeads":8,"firstResponseTails":2,"secondResponseHeads":0,"secondResponseTails":2,"totalHeads":8,"totalTails":4,"studentIndex":3,"studentTrueHypers":{"a":4,"b":1},"studentGuess":0.7058823529411765,"delta":0.09411764705882353,"bonus":0,"bonusSoFar":0.44,"totalExamples":12},{"rt":null,"stimulus":"Sending examples to student... ","response":null,"trial_type":"html-keyboard-response","trial_index":36,"time_elapsed":544036,"internal_node_id":"0.0-35.0","params":{"nStudents":24,"maxFlips":25,"completionMinutes":45,"basePay":8,"maxBonus":9,"perTrialBonus":0.5,"perTrialBonusThreshold":0.05,"exampleCost":0.02},"classroomParams":{"A":{"a":1,"b":4},"B":{"a":4,"b":1},"C":{"a":2,"b":8},"D":{"a":8,"b":2}},"conditions":["nonSeqFull","nonSeqPartial","seqNoFeedback","seqFeedback"],"classroomPairings":[["A","B"],["C","D"]],"coinWeights":[0.2,0.5,0.8],"subjectId":"A3BU8UL4W258UU","assignmentId":"337RC3OW06O44O7DQ5EQ857OLR2LVF","hitId":"3IH9TRB0FBLK6RLF7MSMKICTGYN1IU","url":"https://gershmanlab.com/experiments/alicia/teaching/experiment/?hitId=3IH9TRB0FBLK6RLF7MSMKICTGYN1IU&workerId=A3BU8UL4W258UU&assignmentId=337RC3OW06O44O7DQ5EQ857OLR2LVF&a=WC733&tp_a=WC733&b=337RC3OW06O44O7DQ5EQ857OLR2LVF&tp_b=337RC3OW06O44O7DQ5EQ857OLR2LVF&c=365633&tp_c=365633"},{"rt":null,"stimulus":"Examples sent to student! Waiting for student...","response":null,"trial_type":"html-keyboard-response","trial_index":37,"time_elapsed":550039,"internal_node_id":"0.0-36.0","params":{"nStudents":24,"maxFlips":25,"completionMinutes":45,"basePay":8,"maxBonus":9,"perTrialBonus":0.5,"perTrialBonusThreshold":0.05,"exampleCost":0.02},"classroomParams":{"A":{"a":1,"b":4},"B":{"a":4,"b":1},"C":{"a":2,"b":8},"D":{"a":8,"b":2}},"conditions":["nonSeqFull","nonSeqPartial","seqNoFeedback","seqFeedback"],"classroomPairings":[["A","B"],["C","D"]],"coinWeights":[0.2,0.5,0.8],"subjectId":"A3BU8UL4W258UU","assignmentId":"337RC3OW06O44O7DQ5EQ857OLR2LVF","hitId":"3IH9TRB0FBLK6RLF7MSMKICTGYN1IU","url":"https://gershmanlab.com/experiments/alicia/teaching/experiment/?hitId=3IH9TRB0FBLK6RLF7MSMKICTGYN1IU&workerId=A3BU8UL4W258UU&assignmentId=337RC3OW06O44O7DQ5EQ857OLR2LVF&a=WC733&tp_a=WC733&b=337RC3OW06O44O7DQ5EQ857OLR2LVF&tp_b=337RC3OW06O44O7DQ5EQ857OLR2LVF&c=365633&tp_c=365633"},{"rt":5122,"stimulus":"\n                <p>Student 4's first guess for coin weight: <b style=\"color:Tomato\";>0.80</b></p>\n                <p>Student 4's second guess for coin weight: <b style=\"color:Tomato\";>0.71</b></p>\n                <p>You received a bonus of <b>$0.00</b> based on the student's second guess.</p>\n                <p>Total bonus so far: <b>$0.44</b></p>\n                <p>Press any key to continue.</p>\n                ","response":"enter","trial_type":"html-keyboard-response","trial_index":38,"time_elapsed":555162,"internal_node_id":"0.0-37.0","params":{"nStudents":24,"maxFlips":25,"completionMinutes":45,"basePay":8,"maxBonus":9,"perTrialBonus":0.5,"perTrialBonusThreshold":0.05,"exampleCost":0.02},"classroomParams":{"A":{"a":1,"b":4},"B":{"a":4,"b":1},"C":{"a":2,"b":8},"D":{"a":8,"b":2}},"conditions":["nonSeqFull","nonSeqPartial","seqNoFeedback","seqFeedback"],"classroomPairings":[["A","B"],["C","D"]],"coinWeights":[0.2,0.5,0.8],"subjectId":"A3BU8UL4W258UU","assignmentId":"337RC3OW06O44O7DQ5EQ857OLR2LVF","hitId":"3IH9TRB0FBLK6RLF7MSMKICTGYN1IU","url":"https://gershmanlab.com/experiments/alicia/teaching/experiment/?hitId=3IH9TRB0FBLK6RLF7MSMKICTGYN1IU&workerId=A3BU8UL4W258UU&assignmentId=337RC3OW06O44O7DQ5EQ857OLR2LVF&a=WC733&tp_a=WC733&b=337RC3OW06O44O7DQ5EQ857OLR2LVF&tp_b=337RC3OW06O44O7DQ5EQ857OLR2LVF&c=365633&tp_c=365633"},{"rt":null,"stimulus":"<div style=\"font-size:60px;\">Next student</div>","response":null,"trial_type":"html-keyboard-response","trial_index":39,"time_elapsed":557163,"internal_node_id":"0.0-38.0-0.0","params":{"nStudents":24,"maxFlips":25,"completionMinutes":45,"basePay":8,"maxBonus":9,"perTrialBonus":0.5,"perTrialBonusThreshold":0.05,"exampleCost":0.02},"classroomParams":{"A":{"a":1,"b":4},"B":{"a":4,"b":1},"C":{"a":2,"b":8},"D":{"a":8,"b":2}},"conditions":["nonSeqFull","nonSeqPartial","seqNoFeedback","seqFeedback"],"classroomPairings":[["A","B"],["C","D"]],"coinWeights":[0.2,0.5,0.8],"subjectId":"A3BU8UL4W258UU","assignmentId":"337RC3OW06O44O7DQ5EQ857OLR2LVF","hitId":"3IH9TRB0FBLK6RLF7MSMKICTGYN1IU","url":"https://gershmanlab.com/experiments/alicia/teaching/experiment/?hitId=3IH9TRB0FBLK6RLF7MSMKICTGYN1IU&workerId=A3BU8UL4W258UU&assignmentId=337RC3OW06O44O7DQ5EQ857OLR2LVF&a=WC733&tp_a=WC733&b=337RC3OW06O44O7DQ5EQ857OLR2LVF&tp_b=337RC3OW06O44O7DQ5EQ857OLR2LVF&c=365633&tp_c=365633"},{"rt":2776,"stimulus":"\n            <h4 style=\"color:Orange;\">Student 5</h4>\n            <h2>The weight of your coin is <b style=\"color:Tomato;\">0.5</b>.</h2>\n            <p>In this block, you will be giving <b>two</b> sets of examples to Student 5.</p>\n                <p>You will receive feedback at the end of the block.</p>\n            <p></p>","response":0,"trial_type":"html-button-response","trial_index":40,"time_elapsed":559939,"internal_node_id":"0.0-39.0","params":{"nStudents":24,"maxFlips":25,"completionMinutes":45,"basePay":8,"maxBonus":9,"perTrialBonus":0.5,"perTrialBonusThreshold":0.05,"exampleCost":0.02},"classroomParams":{"A":{"a":1,"b":4},"B":{"a":4,"b":1},"C":{"a":2,"b":8},"D":{"a":8,"b":2}},"conditions":["nonSeqFull","nonSeqPartial","seqNoFeedback","seqFeedback"],"classroomPairings":[["A","B"],["C","D"]],"coinWeights":[0.2,0.5,0.8],"subjectId":"A3BU8UL4W258UU","assignmentId":"337RC3OW06O44O7DQ5EQ857OLR2LVF","hitId":"3IH9TRB0FBLK6RLF7MSMKICTGYN1IU","url":"https://gershmanlab.com/experiments/alicia/teaching/experiment/?hitId=3IH9TRB0FBLK6RLF7MSMKICTGYN1IU&workerId=A3BU8UL4W258UU&assignmentId=337RC3OW06O44O7DQ5EQ857OLR2LVF&a=WC733&tp_a=WC733&b=337RC3OW06O44O7DQ5EQ857OLR2LVF&tp_b=337RC3OW06O44O7DQ5EQ857OLR2LVF&c=365633&tp_c=365633"},{"rt":7364,"response":{"heads":"5","tails":"5"},"type":"response","condition":"seqNoFeedback","trueTheta":0.5,"classrooms":["A","B"],"studentTrueClassroom":"A","exampleSet":"first","trial_type":"survey-html-form","trial_index":41,"time_elapsed":567305,"internal_node_id":"0.0-40.0-0.0","params":{"nStudents":24,"maxFlips":25,"completionMinutes":45,"basePay":8,"maxBonus":9,"perTrialBonus":0.5,"perTrialBonusThreshold":0.05,"exampleCost":0.02},"classroomParams":{"A":{"a":1,"b":4},"B":{"a":4,"b":1},"C":{"a":2,"b":8},"D":{"a":8,"b":2}},"conditions":["nonSeqFull","nonSeqPartial","seqNoFeedback","seqFeedback"],"classroomPairings":[["A","B"],["C","D"]],"coinWeights":[0.2,0.5,0.8],"subjectId":"A3BU8UL4W258UU","assignmentId":"337RC3OW06O44O7DQ5EQ857OLR2LVF","hitId":"3IH9TRB0FBLK6RLF7MSMKICTGYN1IU","url":"https://gershmanlab.com/experiments/alicia/teaching/experiment/?hitId=3IH9TRB0FBLK6RLF7MSMKICTGYN1IU&workerId=A3BU8UL4W258UU&assignmentId=337RC3OW06O44O7DQ5EQ857OLR2LVF&a=WC733&tp_a=WC733&b=337RC3OW06O44O7DQ5EQ857OLR2LVF&tp_b=337RC3OW06O44O7DQ5EQ857OLR2LVF&c=365633&tp_c=365633","heads":5,"tails":5,"studentIndex":4,"studentTrueHypers":{"a":1,"b":4},"studentGuess":0.4,"delta":0.09999999999999998,"totalExamples":10,"bonusSoFar":0.44},{"rt":null,"stimulus":"Sending examples to student... ","response":null,"trial_type":"html-keyboard-response","trial_index":42,"time_elapsed":569306,"internal_node_id":"0.0-41.0","params":{"nStudents":24,"maxFlips":25,"completionMinutes":45,"basePay":8,"maxBonus":9,"perTrialBonus":0.5,"perTrialBonusThreshold":0.05,"exampleCost":0.02},"classroomParams":{"A":{"a":1,"b":4},"B":{"a":4,"b":1},"C":{"a":2,"b":8},"D":{"a":8,"b":2}},"conditions":["nonSeqFull","nonSeqPartial","seqNoFeedback","seqFeedback"],"classroomPairings":[["A","B"],["C","D"]],"coinWeights":[0.2,0.5,0.8],"subjectId":"A3BU8UL4W258UU","assignmentId":"337RC3OW06O44O7DQ5EQ857OLR2LVF","hitId":"3IH9TRB0FBLK6RLF7MSMKICTGYN1IU","url":"https://gershmanlab.com/experiments/alicia/teaching/experiment/?hitId=3IH9TRB0FBLK6RLF7MSMKICTGYN1IU&workerId=A3BU8UL4W258UU&assignmentId=337RC3OW06O44O7DQ5EQ857OLR2LVF&a=WC733&tp_a=WC733&b=337RC3OW06O44O7DQ5EQ857OLR2LVF&tp_b=337RC3OW06O44O7DQ5EQ857OLR2LVF&c=365633&tp_c=365633"},{"rt":null,"stimulus":"Examples sent to student! Waiting for student...","response":null,"trial_type":"html-keyboard-response","trial_index":43,"time_elapsed":573808,"internal_node_id":"0.0-42.0","params":{"nStudents":24,"maxFlips":25,"completionMinutes":45,"basePay":8,"maxBonus":9,"perTrialBonus":0.5,"perTrialBonusThreshold":0.05,"exampleCost":0.02},"classroomParams":{"A":{"a":1,"b":4},"B":{"a":4,"b":1},"C":{"a":2,"b":8},"D":{"a":8,"b":2}},"conditions":["nonSeqFull","nonSeqPartial","seqNoFeedback","seqFeedback"],"classroomPairings":[["A","B"],["C","D"]],"coinWeights":[0.2,0.5,0.8],"subjectId":"A3BU8UL4W258UU","assignmentId":"337RC3OW06O44O7DQ5EQ857OLR2LVF","hitId":"3IH9TRB0FBLK6RLF7MSMKICTGYN1IU","url":"https://gershmanlab.com/experiments/alicia/teaching/experiment/?hitId=3IH9TRB0FBLK6RLF7MSMKICTGYN1IU&workerId=A3BU8UL4W258UU&assignmentId=337RC3OW06O44O7DQ5EQ857OLR2LVF&a=WC733&tp_a=WC733&b=337RC3OW06O44O7DQ5EQ857OLR2LVF&tp_b=337RC3OW06O44O7DQ5EQ857OLR2LVF&c=365633&tp_c=365633"},{"rt":6795,"response":{"heads":"3","tails":"3"},"type":"response","condition":"seqNoFeedback","trueTheta":0.5,"classrooms":["A","B"],"studentTrueClassroom":"A","exampleSet":"second","trial_type":"survey-html-form","trial_index":44,"time_elapsed":580604,"internal_node_id":"0.0-43.0-0.0","params":{"nStudents":24,"maxFlips":25,"completionMinutes":45,"basePay":8,"maxBonus":9,"perTrialBonus":0.5,"perTrialBonusThreshold":0.05,"exampleCost":0.02},"classroomParams":{"A":{"a":1,"b":4},"B":{"a":4,"b":1},"C":{"a":2,"b":8},"D":{"a":8,"b":2}},"conditions":["nonSeqFull","nonSeqPartial","seqNoFeedback","seqFeedback"],"classroomPairings":[["A","B"],["C","D"]],"coinWeights":[0.2,0.5,0.8],"subjectId":"A3BU8UL4W258UU","assignmentId":"337RC3OW06O44O7DQ5EQ857OLR2LVF","hitId":"3IH9TRB0FBLK6RLF7MSMKICTGYN1IU","url":"https://gershmanlab.com/experiments/alicia/teaching/experiment/?hitId=3IH9TRB0FBLK6RLF7MSMKICTGYN1IU&workerId=A3BU8UL4W258UU&assignmentId=337RC3OW06O44O7DQ5EQ857OLR2LVF&a=WC733&tp_a=WC733&b=337RC3OW06O44O7DQ5EQ857OLR2LVF&tp_b=337RC3OW06O44O7DQ5EQ857OLR2LVF&c=365633&tp_c=365633","firstResponseHeads":5,"firstResponseTails":5,"secondResponseHeads":3,"secondResponseTails":3,"totalHeads":8,"totalTails":8,"studentIndex":4,"studentTrueHypers":{"a":1,"b":4},"studentGuess":0.42857142857142855,"delta":0.07142857142857145,"bonus":0,"bonusSoFar":0.44,"totalExamples":16},{"rt":null,"stimulus":"Sending examples to student... ","response":null,"trial_type":"html-keyboard-response","trial_index":45,"time_elapsed":581855,"internal_node_id":"0.0-44.0","params":{"nStudents":24,"maxFlips":25,"completionMinutes":45,"basePay":8,"maxBonus":9,"perTrialBonus":0.5,"perTrialBonusThreshold":0.05,"exampleCost":0.02},"classroomParams":{"A":{"a":1,"b":4},"B":{"a":4,"b":1},"C":{"a":2,"b":8},"D":{"a":8,"b":2}},"conditions":["nonSeqFull","nonSeqPartial","seqNoFeedback","seqFeedback"],"classroomPairings":[["A","B"],["C","D"]],"coinWeights":[0.2,0.5,0.8],"subjectId":"A3BU8UL4W258UU","assignmentId":"337RC3OW06O44O7DQ5EQ857OLR2LVF","hitId":"3IH9TRB0FBLK6RLF7MSMKICTGYN1IU","url":"https://gershmanlab.com/experiments/alicia/teaching/experiment/?hitId=3IH9TRB0FBLK6RLF7MSMKICTGYN1IU&workerId=A3BU8UL4W258UU&assignmentId=337RC3OW06O44O7DQ5EQ857OLR2LVF&a=WC733&tp_a=WC733&b=337RC3OW06O44O7DQ5EQ857OLR2LVF&tp_b=337RC3OW06O44O7DQ5EQ857OLR2LVF&c=365633&tp_c=365633"},{"rt":null,"stimulus":"Examples sent to student! Waiting for student...","response":null,"trial_type":"html-keyboard-response","trial_index":46,"time_elapsed":587357,"internal_node_id":"0.0-45.0","params":{"nStudents":24,"maxFlips":25,"completionMinutes":45,"basePay":8,"maxBonus":9,"perTrialBonus":0.5,"perTrialBonusThreshold":0.05,"exampleCost":0.02},"classroomParams":{"A":{"a":1,"b":4},"B":{"a":4,"b":1},"C":{"a":2,"b":8},"D":{"a":8,"b":2}},"conditions":["nonSeqFull","nonSeqPartial","seqNoFeedback","seqFeedback"],"classroomPairings":[["A","B"],["C","D"]],"coinWeights":[0.2,0.5,0.8],"subjectId":"A3BU8UL4W258UU","assignmentId":"337RC3OW06O44O7DQ5EQ857OLR2LVF","hitId":"3IH9TRB0FBLK6RLF7MSMKICTGYN1IU","url":"https://gershmanlab.com/experiments/alicia/teaching/experiment/?hitId=3IH9TRB0FBLK6RLF7MSMKICTGYN1IU&workerId=A3BU8UL4W258UU&assignmentId=337RC3OW06O44O7DQ5EQ857OLR2LVF&a=WC733&tp_a=WC733&b=337RC3OW06O44O7DQ5EQ857OLR2LVF&tp_b=337RC3OW06O44O7DQ5EQ857OLR2LVF&c=365633&tp_c=365633"},{"rt":1971,"stimulus":"\n                <p>Student 5's first guess for coin weight: <b style=\"color:Tomato\";>0.40</b></p>\n                <p>Student 5's second guess for coin weight: <b style=\"color:Tomato\";>0.43</b></p>\n                <p>You received a bonus of <b>$0.00</b> based on the student's second guess.</p>\n                <p>Total bonus so far: <b>$0.44</b></p>\n                <p>Press any key to continue.</p>\n                ","response":"enter","trial_type":"html-keyboard-response","trial_index":47,"time_elapsed":589329,"internal_node_id":"0.0-46.0","params":{"nStudents":24,"maxFlips":25,"completionMinutes":45,"basePay":8,"maxBonus":9,"perTrialBonus":0.5,"perTrialBonusThreshold":0.05,"exampleCost":0.02},"classroomParams":{"A":{"a":1,"b":4},"B":{"a":4,"b":1},"C":{"a":2,"b":8},"D":{"a":8,"b":2}},"conditions":["nonSeqFull","nonSeqPartial","seqNoFeedback","seqFeedback"],"classroomPairings":[["A","B"],["C","D"]],"coinWeights":[0.2,0.5,0.8],"subjectId":"A3BU8UL4W258UU","assignmentId":"337RC3OW06O44O7DQ5EQ857OLR2LVF","hitId":"3IH9TRB0FBLK6RLF7MSMKICTGYN1IU","url":"https://gershmanlab.com/experiments/alicia/teaching/experiment/?hitId=3IH9TRB0FBLK6RLF7MSMKICTGYN1IU&workerId=A3BU8UL4W258UU&assignmentId=337RC3OW06O44O7DQ5EQ857OLR2LVF&a=WC733&tp_a=WC733&b=337RC3OW06O44O7DQ5EQ857OLR2LVF&tp_b=337RC3OW06O44O7DQ5EQ857OLR2LVF&c=365633&tp_c=365633"},{"rt":null,"stimulus":"<div style=\"font-size:60px;\">Next student</div>","response":null,"trial_type":"html-keyboard-response","trial_index":48,"time_elapsed":591835,"internal_node_id":"0.0-47.0-0.0","params":{"nStudents":24,"maxFlips":25,"completionMinutes":45,"basePay":8,"maxBonus":9,"perTrialBonus":0.5,"perTrialBonusThreshold":0.05,"exampleCost":0.02},"classroomParams":{"A":{"a":1,"b":4},"B":{"a":4,"b":1},"C":{"a":2,"b":8},"D":{"a":8,"b":2}},"conditions":["nonSeqFull","nonSeqPartial","seqNoFeedback","seqFeedback"],"classroomPairings":[["A","B"],["C","D"]],"coinWeights":[0.2,0.5,0.8],"subjectId":"A3BU8UL4W258UU","assignmentId":"337RC3OW06O44O7DQ5EQ857OLR2LVF","hitId":"3IH9TRB0FBLK6RLF7MSMKICTGYN1IU","url":"https://gershmanlab.com/experiments/alicia/teaching/experiment/?hitId=3IH9TRB0FBLK6RLF7MSMKICTGYN1IU&workerId=A3BU8UL4W258UU&assignmentId=337RC3OW06O44O7DQ5EQ857OLR2LVF&a=WC733&tp_a=WC733&b=337RC3OW06O44O7DQ5EQ857OLR2LVF&tp_b=337RC3OW06O44O7DQ5EQ857OLR2LVF&c=365633&tp_c=365633"},{"rt":3708,"stimulus":"\n            <h4 style=\"color:Orange;\">Student 6</h4>\n            <h2>The weight of your coin is <b style=\"color:Tomato;\">0.2</b>.</h2>\n            <p>In this block, you will be giving <b>two</b> sets of examples to Student 6.</p>\n                <p>You will see the student's guess after the first set of examples. You will also receive feedback at the end of the block.</p>\n            <p>To earn the highest bonus, you will have to <b>take into consideration the student's guess</b> when you choose your second set of examples.</p>","response":0,"trial_type":"html-button-response","trial_index":49,"time_elapsed":595545,"internal_node_id":"0.0-48.0","params":{"nStudents":24,"maxFlips":25,"completionMinutes":45,"basePay":8,"maxBonus":9,"perTrialBonus":0.5,"perTrialBonusThreshold":0.05,"exampleCost":0.02},"classroomParams":{"A":{"a":1,"b":4},"B":{"a":4,"b":1},"C":{"a":2,"b":8},"D":{"a":8,"b":2}},"conditions":["nonSeqFull","nonSeqPartial","seqNoFeedback","seqFeedback"],"classroomPairings":[["A","B"],["C","D"]],"coinWeights":[0.2,0.5,0.8],"subjectId":"A3BU8UL4W258UU","assignmentId":"337RC3OW06O44O7DQ5EQ857OLR2LVF","hitId":"3IH9TRB0FBLK6RLF7MSMKICTGYN1IU","url":"https://gershmanlab.com/experiments/alicia/teaching/experiment/?hitId=3IH9TRB0FBLK6RLF7MSMKICTGYN1IU&workerId=A3BU8UL4W258UU&assignmentId=337RC3OW06O44O7DQ5EQ857OLR2LVF&a=WC733&tp_a=WC733&b=337RC3OW06O44O7DQ5EQ857OLR2LVF&tp_b=337RC3OW06O44O7DQ5EQ857OLR2LVF&c=365633&tp_c=365633"},{"rt":21572,"response":{"heads":"2","tails":"8"},"type":"response","condition":"seqFeedback","trueTheta":0.2,"classrooms":["A","B"],"studentTrueClassroom":"A","exampleSet":"first","trial_type":"survey-html-form","trial_index":50,"time_elapsed":617118,"internal_node_id":"0.0-49.0-0.0","params":{"nStudents":24,"maxFlips":25,"completionMinutes":45,"basePay":8,"maxBonus":9,"perTrialBonus":0.5,"perTrialBonusThreshold":0.05,"exampleCost":0.02},"classroomParams":{"A":{"a":1,"b":4},"B":{"a":4,"b":1},"C":{"a":2,"b":8},"D":{"a":8,"b":2}},"conditions":["nonSeqFull","nonSeqPartial","seqNoFeedback","seqFeedback"],"classroomPairings":[["A","B"],["C","D"]],"coinWeights":[0.2,0.5,0.8],"subjectId":"A3BU8UL4W258UU","assignmentId":"337RC3OW06O44O7DQ5EQ857OLR2LVF","hitId":"3IH9TRB0FBLK6RLF7MSMKICTGYN1IU","url":"https://gershmanlab.com/experiments/alicia/teaching/experiment/?hitId=3IH9TRB0FBLK6RLF7MSMKICTGYN1IU&workerId=A3BU8UL4W258UU&assignmentId=337RC3OW06O44O7DQ5EQ857OLR2LVF&a=WC733&tp_a=WC733&b=337RC3OW06O44O7DQ5EQ857OLR2LVF&tp_b=337RC3OW06O44O7DQ5EQ857OLR2LVF&c=365633&tp_c=365633","heads":2,"tails":8,"studentIndex":5,"studentTrueHypers":{"a":1,"b":4},"studentGuess":0.2,"delta":0,"totalExamples":10,"bonusSoFar":0.44},{"rt":null,"stimulus":"Sending examples to student... ","response":null,"trial_type":"html-keyboard-response","trial_index":51,"time_elapsed":618869,"internal_node_id":"0.0-50.0","params":{"nStudents":24,"maxFlips":25,"completionMinutes":45,"basePay":8,"maxBonus":9,"perTrialBonus":0.5,"perTrialBonusThreshold":0.05,"exampleCost":0.02},"classroomParams":{"A":{"a":1,"b":4},"B":{"a":4,"b":1},"C":{"a":2,"b":8},"D":{"a":8,"b":2}},"conditions":["nonSeqFull","nonSeqPartial","seqNoFeedback","seqFeedback"],"classroomPairings":[["A","B"],["C","D"]],"coinWeights":[0.2,0.5,0.8],"subjectId":"A3BU8UL4W258UU","assignmentId":"337RC3OW06O44O7DQ5EQ857OLR2LVF","hitId":"3IH9TRB0FBLK6RLF7MSMKICTGYN1IU","url":"https://gershmanlab.com/experiments/alicia/teaching/experiment/?hitId=3IH9TRB0FBLK6RLF7MSMKICTGYN1IU&workerId=A3BU8UL4W258UU&assignmentId=337RC3OW06O44O7DQ5EQ857OLR2LVF&a=WC733&tp_a=WC733&b=337RC3OW06O44O7DQ5EQ857OLR2LVF&tp_b=337RC3OW06O44O7DQ5EQ857OLR2LVF&c=365633&tp_c=365633"},{"rt":null,"stimulus":"Examples sent to student! Waiting for student...","response":null,"trial_type":"html-keyboard-response","trial_index":52,"time_elapsed":623870,"internal_node_id":"0.0-51.0","params":{"nStudents":24,"maxFlips":25,"completionMinutes":45,"basePay":8,"maxBonus":9,"perTrialBonus":0.5,"perTrialBonusThreshold":0.05,"exampleCost":0.02},"classroomParams":{"A":{"a":1,"b":4},"B":{"a":4,"b":1},"C":{"a":2,"b":8},"D":{"a":8,"b":2}},"conditions":["nonSeqFull","nonSeqPartial","seqNoFeedback","seqFeedback"],"classroomPairings":[["A","B"],["C","D"]],"coinWeights":[0.2,0.5,0.8],"subjectId":"A3BU8UL4W258UU","assignmentId":"337RC3OW06O44O7DQ5EQ857OLR2LVF","hitId":"3IH9TRB0FBLK6RLF7MSMKICTGYN1IU","url":"https://gershmanlab.com/experiments/alicia/teaching/experiment/?hitId=3IH9TRB0FBLK6RLF7MSMKICTGYN1IU&workerId=A3BU8UL4W258UU&assignmentId=337RC3OW06O44O7DQ5EQ857OLR2LVF&a=WC733&tp_a=WC733&b=337RC3OW06O44O7DQ5EQ857OLR2LVF&tp_b=337RC3OW06O44O7DQ5EQ857OLR2LVF&c=365633&tp_c=365633"},{"rt":4824,"stimulus":"\n                <p>Student's guess for coin weight: <b style=\"color:Tomato;\">0.20</b></p>\n                <p></b></p>\n                <p>You will now send another set of examples to your student. <b>Remember to take your student's guess into consideration so that you can earn the highest bonus possible!</b> </p>\n                <p>Press any key to continue.</p>\n                ","response":"enter","trial_type":"html-keyboard-response","trial_index":53,"time_elapsed":628695,"internal_node_id":"0.0-52.0","params":{"nStudents":24,"maxFlips":25,"completionMinutes":45,"basePay":8,"maxBonus":9,"perTrialBonus":0.5,"perTrialBonusThreshold":0.05,"exampleCost":0.02},"classroomParams":{"A":{"a":1,"b":4},"B":{"a":4,"b":1},"C":{"a":2,"b":8},"D":{"a":8,"b":2}},"conditions":["nonSeqFull","nonSeqPartial","seqNoFeedback","seqFeedback"],"classroomPairings":[["A","B"],["C","D"]],"coinWeights":[0.2,0.5,0.8],"subjectId":"A3BU8UL4W258UU","assignmentId":"337RC3OW06O44O7DQ5EQ857OLR2LVF","hitId":"3IH9TRB0FBLK6RLF7MSMKICTGYN1IU","url":"https://gershmanlab.com/experiments/alicia/teaching/experiment/?hitId=3IH9TRB0FBLK6RLF7MSMKICTGYN1IU&workerId=A3BU8UL4W258UU&assignmentId=337RC3OW06O44O7DQ5EQ857OLR2LVF&a=WC733&tp_a=WC733&b=337RC3OW06O44O7DQ5EQ857OLR2LVF&tp_b=337RC3OW06O44O7DQ5EQ857OLR2LVF&c=365633&tp_c=365633"},{"rt":21331,"response":{"heads":"4","tails":"7"},"type":"response","condition":"seqFeedback","trueTheta":0.2,"classrooms":["A","B"],"studentTrueClassroom":"A","exampleSet":"second","trial_type":"survey-html-form","trial_index":54,"time_elapsed":650027,"internal_node_id":"0.0-53.0-0.0","params":{"nStudents":24,"maxFlips":25,"completionMinutes":45,"basePay":8,"maxBonus":9,"perTrialBonus":0.5,"perTrialBonusThreshold":0.05,"exampleCost":0.02},"classroomParams":{"A":{"a":1,"b":4},"B":{"a":4,"b":1},"C":{"a":2,"b":8},"D":{"a":8,"b":2}},"conditions":["nonSeqFull","nonSeqPartial","seqNoFeedback","seqFeedback"],"classroomPairings":[["A","B"],["C","D"]],"coinWeights":[0.2,0.5,0.8],"subjectId":"A3BU8UL4W258UU","assignmentId":"337RC3OW06O44O7DQ5EQ857OLR2LVF","hitId":"3IH9TRB0FBLK6RLF7MSMKICTGYN1IU","url":"https://gershmanlab.com/experiments/alicia/teaching/experiment/?hitId=3IH9TRB0FBLK6RLF7MSMKICTGYN1IU&workerId=A3BU8UL4W258UU&assignmentId=337RC3OW06O44O7DQ5EQ857OLR2LVF&a=WC733&tp_a=WC733&b=337RC3OW06O44O7DQ5EQ857OLR2LVF&tp_b=337RC3OW06O44O7DQ5EQ857OLR2LVF&c=365633&tp_c=365633","firstResponseHeads":2,"firstResponseTails":8,"secondResponseHeads":4,"secondResponseTails":7,"totalHeads":6,"totalTails":15,"studentIndex":5,"studentTrueHypers":{"a":1,"b":4},"studentGuess":0.2692307692307692,"delta":0.0692307692307692,"bonus":0,"bonusSoFar":0.44,"totalExamples":21},{"rt":null,"stimulus":"Sending examples to student... ","response":null,"trial_type":"html-keyboard-response","trial_index":55,"time_elapsed":651278,"internal_node_id":"0.0-54.0","params":{"nStudents":24,"maxFlips":25,"completionMinutes":45,"basePay":8,"maxBonus":9,"perTrialBonus":0.5,"perTrialBonusThreshold":0.05,"exampleCost":0.02},"classroomParams":{"A":{"a":1,"b":4},"B":{"a":4,"b":1},"C":{"a":2,"b":8},"D":{"a":8,"b":2}},"conditions":["nonSeqFull","nonSeqPartial","seqNoFeedback","seqFeedback"],"classroomPairings":[["A","B"],["C","D"]],"coinWeights":[0.2,0.5,0.8],"subjectId":"A3BU8UL4W258UU","assignmentId":"337RC3OW06O44O7DQ5EQ857OLR2LVF","hitId":"3IH9TRB0FBLK6RLF7MSMKICTGYN1IU","url":"https://gershmanlab.com/experiments/alicia/teaching/experiment/?hitId=3IH9TRB0FBLK6RLF7MSMKICTGYN1IU&workerId=A3BU8UL4W258UU&assignmentId=337RC3OW06O44O7DQ5EQ857OLR2LVF&a=WC733&tp_a=WC733&b=337RC3OW06O44O7DQ5EQ857OLR2LVF&tp_b=337RC3OW06O44O7DQ5EQ857OLR2LVF&c=365633&tp_c=365633"},{"rt":null,"stimulus":"Examples sent to student! Waiting for student...","response":null,"trial_type":"html-keyboard-response","trial_index":56,"time_elapsed":655285,"internal_node_id":"0.0-55.0","params":{"nStudents":24,"maxFlips":25,"completionMinutes":45,"basePay":8,"maxBonus":9,"perTrialBonus":0.5,"perTrialBonusThreshold":0.05,"exampleCost":0.02},"classroomParams":{"A":{"a":1,"b":4},"B":{"a":4,"b":1},"C":{"a":2,"b":8},"D":{"a":8,"b":2}},"conditions":["nonSeqFull","nonSeqPartial","seqNoFeedback","seqFeedback"],"classroomPairings":[["A","B"],["C","D"]],"coinWeights":[0.2,0.5,0.8],"subjectId":"A3BU8UL4W258UU","assignmentId":"337RC3OW06O44O7DQ5EQ857OLR2LVF","hitId":"3IH9TRB0FBLK6RLF7MSMKICTGYN1IU","url":"https://gershmanlab.com/experiments/alicia/teaching/experiment/?hitId=3IH9TRB0FBLK6RLF7MSMKICTGYN1IU&workerId=A3BU8UL4W258UU&assignmentId=337RC3OW06O44O7DQ5EQ857OLR2LVF&a=WC733&tp_a=WC733&b=337RC3OW06O44O7DQ5EQ857OLR2LVF&tp_b=337RC3OW06O44O7DQ5EQ857OLR2LVF&c=365633&tp_c=365633"},{"rt":1468,"stimulus":"\n                <p>Student 6's first guess for coin weight: <b style=\"color:Tomato\";>0.20</b></p>\n                <p>Student 6's second guess for coin weight: <b style=\"color:Tomato\";>0.27</b></p>\n                <p>You received a bonus of <b>$0.00</b> based on the student's second guess.</p>\n                <p>Total bonus so far: <b>$0.44</b></p>\n                <p>Press any key to continue.</p>\n                ","response":"enter","trial_type":"html-keyboard-response","trial_index":57,"time_elapsed":656754,"internal_node_id":"0.0-56.0","params":{"nStudents":24,"maxFlips":25,"completionMinutes":45,"basePay":8,"maxBonus":9,"perTrialBonus":0.5,"perTrialBonusThreshold":0.05,"exampleCost":0.02},"classroomParams":{"A":{"a":1,"b":4},"B":{"a":4,"b":1},"C":{"a":2,"b":8},"D":{"a":8,"b":2}},"conditions":["nonSeqFull","nonSeqPartial","seqNoFeedback","seqFeedback"],"classroomPairings":[["A","B"],["C","D"]],"coinWeights":[0.2,0.5,0.8],"subjectId":"A3BU8UL4W258UU","assignmentId":"337RC3OW06O44O7DQ5EQ857OLR2LVF","hitId":"3IH9TRB0FBLK6RLF7MSMKICTGYN1IU","url":"https://gershmanlab.com/experiments/alicia/teaching/experiment/?hitId=3IH9TRB0FBLK6RLF7MSMKICTGYN1IU&workerId=A3BU8UL4W258UU&assignmentId=337RC3OW06O44O7DQ5EQ857OLR2LVF&a=WC733&tp_a=WC733&b=337RC3OW06O44O7DQ5EQ857OLR2LVF&tp_b=337RC3OW06O44O7DQ5EQ857OLR2LVF&c=365633&tp_c=365633"},{"rt":null,"stimulus":"<div style=\"font-size:60px;\">Next student</div>","response":null,"trial_type":"html-keyboard-response","trial_index":58,"time_elapsed":659005,"internal_node_id":"0.0-57.0-0.0","params":{"nStudents":24,"maxFlips":25,"completionMinutes":45,"basePay":8,"maxBonus":9,"perTrialBonus":0.5,"perTrialBonusThreshold":0.05,"exampleCost":0.02},"classroomParams":{"A":{"a":1,"b":4},"B":{"a":4,"b":1},"C":{"a":2,"b":8},"D":{"a":8,"b":2}},"conditions":["nonSeqFull","nonSeqPartial","seqNoFeedback","seqFeedback"],"classroomPairings":[["A","B"],["C","D"]],"coinWeights":[0.2,0.5,0.8],"subjectId":"A3BU8UL4W258UU","assignmentId":"337RC3OW06O44O7DQ5EQ857OLR2LVF","hitId":"3IH9TRB0FBLK6RLF7MSMKICTGYN1IU","url":"https://gershmanlab.com/experiments/alicia/teaching/experiment/?hitId=3IH9TRB0FBLK6RLF7MSMKICTGYN1IU&workerId=A3BU8UL4W258UU&assignmentId=337RC3OW06O44O7DQ5EQ857OLR2LVF&a=WC733&tp_a=WC733&b=337RC3OW06O44O7DQ5EQ857OLR2LVF&tp_b=337RC3OW06O44O7DQ5EQ857OLR2LVF&c=365633&tp_c=365633"},{"rt":1757,"stimulus":"\n            <h4 style=\"color:Orange;\">Student 7</h4>\n            <h2>The weight of your coin is <b style=\"color:Tomato;\">0.8</b>.</h2>\n            <p>In this block, you will be giving <b>one</b> set of examples to Student 7.</p>\n                <p>You will receive feedback at the end of the block.</p>\n            <p></p>","response":0,"trial_type":"html-button-response","trial_index":59,"time_elapsed":660763,"internal_node_id":"0.0-58.0","params":{"nStudents":24,"maxFlips":25,"completionMinutes":45,"basePay":8,"maxBonus":9,"perTrialBonus":0.5,"perTrialBonusThreshold":0.05,"exampleCost":0.02},"classroomParams":{"A":{"a":1,"b":4},"B":{"a":4,"b":1},"C":{"a":2,"b":8},"D":{"a":8,"b":2}},"conditions":["nonSeqFull","nonSeqPartial","seqNoFeedback","seqFeedback"],"classroomPairings":[["A","B"],["C","D"]],"coinWeights":[0.2,0.5,0.8],"subjectId":"A3BU8UL4W258UU","assignmentId":"337RC3OW06O44O7DQ5EQ857OLR2LVF","hitId":"3IH9TRB0FBLK6RLF7MSMKICTGYN1IU","url":"https://gershmanlab.com/experiments/alicia/teaching/experiment/?hitId=3IH9TRB0FBLK6RLF7MSMKICTGYN1IU&workerId=A3BU8UL4W258UU&assignmentId=337RC3OW06O44O7DQ5EQ857OLR2LVF&a=WC733&tp_a=WC733&b=337RC3OW06O44O7DQ5EQ857OLR2LVF&tp_b=337RC3OW06O44O7DQ5EQ857OLR2LVF&c=365633&tp_c=365633"},{"rt":7375,"response":{"heads":"8","tails":"0"},"type":"response","condition":"nonSeqPartial","trueTheta":0.8,"classrooms":["A","B"],"studentTrueClassroom":"B","exampleSet":"first","trial_type":"survey-html-form","trial_index":60,"time_elapsed":668139,"internal_node_id":"0.0-59.0-0.0","params":{"nStudents":24,"maxFlips":25,"completionMinutes":45,"basePay":8,"maxBonus":9,"perTrialBonus":0.5,"perTrialBonusThreshold":0.05,"exampleCost":0.02},"classroomParams":{"A":{"a":1,"b":4},"B":{"a":4,"b":1},"C":{"a":2,"b":8},"D":{"a":8,"b":2}},"conditions":["nonSeqFull","nonSeqPartial","seqNoFeedback","seqFeedback"],"classroomPairings":[["A","B"],["C","D"]],"coinWeights":[0.2,0.5,0.8],"subjectId":"A3BU8UL4W258UU","assignmentId":"337RC3OW06O44O7DQ5EQ857OLR2LVF","hitId":"3IH9TRB0FBLK6RLF7MSMKICTGYN1IU","url":"https://gershmanlab.com/experiments/alicia/teaching/experiment/?hitId=3IH9TRB0FBLK6RLF7MSMKICTGYN1IU&workerId=A3BU8UL4W258UU&assignmentId=337RC3OW06O44O7DQ5EQ857OLR2LVF&a=WC733&tp_a=WC733&b=337RC3OW06O44O7DQ5EQ857OLR2LVF&tp_b=337RC3OW06O44O7DQ5EQ857OLR2LVF&c=365633&tp_c=365633","heads":8,"tails":0,"studentIndex":6,"studentTrueHypers":{"a":4,"b":1},"studentGuess":0.9230769230769231,"delta":0.12307692307692308,"totalExamples":8,"bonus":0,"bonusSoFar":0.44},{"rt":null,"stimulus":"Sending examples to student... ","response":null,"trial_type":"html-keyboard-response","trial_index":61,"time_elapsed":669391,"internal_node_id":"0.0-60.0","params":{"nStudents":24,"maxFlips":25,"completionMinutes":45,"basePay":8,"maxBonus":9,"perTrialBonus":0.5,"perTrialBonusThreshold":0.05,"exampleCost":0.02},"classroomParams":{"A":{"a":1,"b":4},"B":{"a":4,"b":1},"C":{"a":2,"b":8},"D":{"a":8,"b":2}},"conditions":["nonSeqFull","nonSeqPartial","seqNoFeedback","seqFeedback"],"classroomPairings":[["A","B"],["C","D"]],"coinWeights":[0.2,0.5,0.8],"subjectId":"A3BU8UL4W258UU","assignmentId":"337RC3OW06O44O7DQ5EQ857OLR2LVF","hitId":"3IH9TRB0FBLK6RLF7MSMKICTGYN1IU","url":"https://gershmanlab.com/experiments/alicia/teaching/experiment/?hitId=3IH9TRB0FBLK6RLF7MSMKICTGYN1IU&workerId=A3BU8UL4W258UU&assignmentId=337RC3OW06O44O7DQ5EQ857OLR2LVF&a=WC733&tp_a=WC733&b=337RC3OW06O44O7DQ5EQ857OLR2LVF&tp_b=337RC3OW06O44O7DQ5EQ857OLR2LVF&c=365633&tp_c=365633"},{"rt":null,"stimulus":"Examples sent to student! Waiting for student...","response":null,"trial_type":"html-keyboard-response","trial_index":62,"time_elapsed":673891,"internal_node_id":"0.0-61.0","params":{"nStudents":24,"maxFlips":25,"completionMinutes":45,"basePay":8,"maxBonus":9,"perTrialBonus":0.5,"perTrialBonusThreshold":0.05,"exampleCost":0.02},"classroomParams":{"A":{"a":1,"b":4},"B":{"a":4,"b":1},"C":{"a":2,"b":8},"D":{"a":8,"b":2}},"conditions":["nonSeqFull","nonSeqPartial","seqNoFeedback","seqFeedback"],"classroomPairings":[["A","B"],["C","D"]],"coinWeights":[0.2,0.5,0.8],"subjectId":"A3BU8UL4W258UU","assignmentId":"337RC3OW06O44O7DQ5EQ857OLR2LVF","hitId":"3IH9TRB0FBLK6RLF7MSMKICTGYN1IU","url":"https://gershmanlab.com/experiments/alicia/teaching/experiment/?hitId=3IH9TRB0FBLK6RLF7MSMKICTGYN1IU&workerId=A3BU8UL4W258UU&assignmentId=337RC3OW06O44O7DQ5EQ857OLR2LVF&a=WC733&tp_a=WC733&b=337RC3OW06O44O7DQ5EQ857OLR2LVF&tp_b=337RC3OW06O44O7DQ5EQ857OLR2LVF&c=365633&tp_c=365633"},{"rt":3885,"stimulus":"\n                <p>Student's guess for coin weight: <b style=\"color:Tomato;\">0.92</b></p>\n                <p>You received a bonus of <b>$0</b>. Total bonus so far: <b>$0.44</b></b></p>\n                <p></p>\n                <p>Press any key to continue.</p>\n                ","response":"enter","trial_type":"html-keyboard-response","trial_index":63,"time_elapsed":677777,"internal_node_id":"0.0-62.0","params":{"nStudents":24,"maxFlips":25,"completionMinutes":45,"basePay":8,"maxBonus":9,"perTrialBonus":0.5,"perTrialBonusThreshold":0.05,"exampleCost":0.02},"classroomParams":{"A":{"a":1,"b":4},"B":{"a":4,"b":1},"C":{"a":2,"b":8},"D":{"a":8,"b":2}},"conditions":["nonSeqFull","nonSeqPartial","seqNoFeedback","seqFeedback"],"classroomPairings":[["A","B"],["C","D"]],"coinWeights":[0.2,0.5,0.8],"subjectId":"A3BU8UL4W258UU","assignmentId":"337RC3OW06O44O7DQ5EQ857OLR2LVF","hitId":"3IH9TRB0FBLK6RLF7MSMKICTGYN1IU","url":"https://gershmanlab.com/experiments/alicia/teaching/experiment/?hitId=3IH9TRB0FBLK6RLF7MSMKICTGYN1IU&workerId=A3BU8UL4W258UU&assignmentId=337RC3OW06O44O7DQ5EQ857OLR2LVF&a=WC733&tp_a=WC733&b=337RC3OW06O44O7DQ5EQ857OLR2LVF&tp_b=337RC3OW06O44O7DQ5EQ857OLR2LVF&c=365633&tp_c=365633"},{"rt":null,"stimulus":"<div style=\"font-size:60px;\">Next student</div>","response":null,"trial_type":"html-keyboard-response","trial_index":64,"time_elapsed":680035,"internal_node_id":"0.0-63.0-0.0","params":{"nStudents":24,"maxFlips":25,"completionMinutes":45,"basePay":8,"maxBonus":9,"perTrialBonus":0.5,"perTrialBonusThreshold":0.05,"exampleCost":0.02},"classroomParams":{"A":{"a":1,"b":4},"B":{"a":4,"b":1},"C":{"a":2,"b":8},"D":{"a":8,"b":2}},"conditions":["nonSeqFull","nonSeqPartial","seqNoFeedback","seqFeedback"],"classroomPairings":[["A","B"],["C","D"]],"coinWeights":[0.2,0.5,0.8],"subjectId":"A3BU8UL4W258UU","assignmentId":"337RC3OW06O44O7DQ5EQ857OLR2LVF","hitId":"3IH9TRB0FBLK6RLF7MSMKICTGYN1IU","url":"https://gershmanlab.com/experiments/alicia/teaching/experiment/?hitId=3IH9TRB0FBLK6RLF7MSMKICTGYN1IU&workerId=A3BU8UL4W258UU&assignmentId=337RC3OW06O44O7DQ5EQ857OLR2LVF&a=WC733&tp_a=WC733&b=337RC3OW06O44O7DQ5EQ857OLR2LVF&tp_b=337RC3OW06O44O7DQ5EQ857OLR2LVF&c=365633&tp_c=365633"},{"rt":1561,"stimulus":"\n            <h4 style=\"color:Orange;\">Student 8</h4>\n            <h2>The weight of your coin is <b style=\"color:Tomato;\">0.5</b>.</h2>\n            <p>In this block, you will be giving <b>one</b> set of examples to Student 8.</p>\n                <p>You will receive feedback at the end of the block.</p>\n            <p></p>","response":0,"trial_type":"html-button-response","trial_index":65,"time_elapsed":681596,"internal_node_id":"0.0-64.0","params":{"nStudents":24,"maxFlips":25,"completionMinutes":45,"basePay":8,"maxBonus":9,"perTrialBonus":0.5,"perTrialBonusThreshold":0.05,"exampleCost":0.02},"classroomParams":{"A":{"a":1,"b":4},"B":{"a":4,"b":1},"C":{"a":2,"b":8},"D":{"a":8,"b":2}},"conditions":["nonSeqFull","nonSeqPartial","seqNoFeedback","seqFeedback"],"classroomPairings":[["A","B"],["C","D"]],"coinWeights":[0.2,0.5,0.8],"subjectId":"A3BU8UL4W258UU","assignmentId":"337RC3OW06O44O7DQ5EQ857OLR2LVF","hitId":"3IH9TRB0FBLK6RLF7MSMKICTGYN1IU","url":"https://gershmanlab.com/experiments/alicia/teaching/experiment/?hitId=3IH9TRB0FBLK6RLF7MSMKICTGYN1IU&workerId=A3BU8UL4W258UU&assignmentId=337RC3OW06O44O7DQ5EQ857OLR2LVF&a=WC733&tp_a=WC733&b=337RC3OW06O44O7DQ5EQ857OLR2LVF&tp_b=337RC3OW06O44O7DQ5EQ857OLR2LVF&c=365633&tp_c=365633"},{"rt":7850,"response":{"heads":"8","tails":"0"},"type":"response","condition":"nonSeqFull","trueTheta":0.5,"classrooms":["C","D"],"studentTrueClassroom":"C","exampleSet":"first","trial_type":"survey-html-form","trial_index":66,"time_elapsed":689447,"internal_node_id":"0.0-65.0-0.0","params":{"nStudents":24,"maxFlips":25,"completionMinutes":45,"basePay":8,"maxBonus":9,"perTrialBonus":0.5,"perTrialBonusThreshold":0.05,"exampleCost":0.02},"classroomParams":{"A":{"a":1,"b":4},"B":{"a":4,"b":1},"C":{"a":2,"b":8},"D":{"a":8,"b":2}},"conditions":["nonSeqFull","nonSeqPartial","seqNoFeedback","seqFeedback"],"classroomPairings":[["A","B"],["C","D"]],"coinWeights":[0.2,0.5,0.8],"subjectId":"A3BU8UL4W258UU","assignmentId":"337RC3OW06O44O7DQ5EQ857OLR2LVF","hitId":"3IH9TRB0FBLK6RLF7MSMKICTGYN1IU","url":"https://gershmanlab.com/experiments/alicia/teaching/experiment/?hitId=3IH9TRB0FBLK6RLF7MSMKICTGYN1IU&workerId=A3BU8UL4W258UU&assignmentId=337RC3OW06O44O7DQ5EQ857OLR2LVF&a=WC733&tp_a=WC733&b=337RC3OW06O44O7DQ5EQ857OLR2LVF&tp_b=337RC3OW06O44O7DQ5EQ857OLR2LVF&c=365633&tp_c=365633","heads":8,"tails":0,"studentIndex":7,"studentTrueHypers":{"a":2,"b":8},"studentGuess":0.5555555555555556,"delta":0.05555555555555558,"totalExamples":8,"bonus":0,"bonusSoFar":0.44},{"rt":null,"stimulus":"Sending examples to student... ","response":null,"trial_type":"html-keyboard-response","trial_index":67,"time_elapsed":690713,"internal_node_id":"0.0-66.0","params":{"nStudents":24,"maxFlips":25,"completionMinutes":45,"basePay":8,"maxBonus":9,"perTrialBonus":0.5,"perTrialBonusThreshold":0.05,"exampleCost":0.02},"classroomParams":{"A":{"a":1,"b":4},"B":{"a":4,"b":1},"C":{"a":2,"b":8},"D":{"a":8,"b":2}},"conditions":["nonSeqFull","nonSeqPartial","seqNoFeedback","seqFeedback"],"classroomPairings":[["A","B"],["C","D"]],"coinWeights":[0.2,0.5,0.8],"subjectId":"A3BU8UL4W258UU","assignmentId":"337RC3OW06O44O7DQ5EQ857OLR2LVF","hitId":"3IH9TRB0FBLK6RLF7MSMKICTGYN1IU","url":"https://gershmanlab.com/experiments/alicia/teaching/experiment/?hitId=3IH9TRB0FBLK6RLF7MSMKICTGYN1IU&workerId=A3BU8UL4W258UU&assignmentId=337RC3OW06O44O7DQ5EQ857OLR2LVF&a=WC733&tp_a=WC733&b=337RC3OW06O44O7DQ5EQ857OLR2LVF&tp_b=337RC3OW06O44O7DQ5EQ857OLR2LVF&c=365633&tp_c=365633"},{"rt":null,"stimulus":"Examples sent to student! Waiting for student...","response":null,"trial_type":"html-keyboard-response","trial_index":68,"time_elapsed":694722,"internal_node_id":"0.0-67.0","params":{"nStudents":24,"maxFlips":25,"completionMinutes":45,"basePay":8,"maxBonus":9,"perTrialBonus":0.5,"perTrialBonusThreshold":0.05,"exampleCost":0.02},"classroomParams":{"A":{"a":1,"b":4},"B":{"a":4,"b":1},"C":{"a":2,"b":8},"D":{"a":8,"b":2}},"conditions":["nonSeqFull","nonSeqPartial","seqNoFeedback","seqFeedback"],"classroomPairings":[["A","B"],["C","D"]],"coinWeights":[0.2,0.5,0.8],"subjectId":"A3BU8UL4W258UU","assignmentId":"337RC3OW06O44O7DQ5EQ857OLR2LVF","hitId":"3IH9TRB0FBLK6RLF7MSMKICTGYN1IU","url":"https://gershmanlab.com/experiments/alicia/teaching/experiment/?hitId=3IH9TRB0FBLK6RLF7MSMKICTGYN1IU&workerId=A3BU8UL4W258UU&assignmentId=337RC3OW06O44O7DQ5EQ857OLR2LVF&a=WC733&tp_a=WC733&b=337RC3OW06O44O7DQ5EQ857OLR2LVF&tp_b=337RC3OW06O44O7DQ5EQ857OLR2LVF&c=365633&tp_c=365633"},{"rt":1890,"stimulus":"\n                <p>Student's guess for coin weight: <b style=\"color:Tomato;\">0.56</b></p>\n                <p>You received a bonus of <b>$0</b>. Total bonus so far: <b>$0.44</b></b></p>\n                <p></p>\n                <p>Press any key to continue.</p>\n                ","response":"enter","trial_type":"html-keyboard-response","trial_index":69,"time_elapsed":696613,"internal_node_id":"0.0-68.0","params":{"nStudents":24,"maxFlips":25,"completionMinutes":45,"basePay":8,"maxBonus":9,"perTrialBonus":0.5,"perTrialBonusThreshold":0.05,"exampleCost":0.02},"classroomParams":{"A":{"a":1,"b":4},"B":{"a":4,"b":1},"C":{"a":2,"b":8},"D":{"a":8,"b":2}},"conditions":["nonSeqFull","nonSeqPartial","seqNoFeedback","seqFeedback"],"classroomPairings":[["A","B"],["C","D"]],"coinWeights":[0.2,0.5,0.8],"subjectId":"A3BU8UL4W258UU","assignmentId":"337RC3OW06O44O7DQ5EQ857OLR2LVF","hitId":"3IH9TRB0FBLK6RLF7MSMKICTGYN1IU","url":"https://gershmanlab.com/experiments/alicia/teaching/experiment/?hitId=3IH9TRB0FBLK6RLF7MSMKICTGYN1IU&workerId=A3BU8UL4W258UU&assignmentId=337RC3OW06O44O7DQ5EQ857OLR2LVF&a=WC733&tp_a=WC733&b=337RC3OW06O44O7DQ5EQ857OLR2LVF&tp_b=337RC3OW06O44O7DQ5EQ857OLR2LVF&c=365633&tp_c=365633"},{"rt":null,"stimulus":"<div style=\"font-size:60px;\">Next student</div>","response":null,"trial_type":"html-keyboard-response","trial_index":70,"time_elapsed":699114,"internal_node_id":"0.0-69.0-0.0","params":{"nStudents":24,"maxFlips":25,"completionMinutes":45,"basePay":8,"maxBonus":9,"perTrialBonus":0.5,"perTrialBonusThreshold":0.05,"exampleCost":0.02},"classroomParams":{"A":{"a":1,"b":4},"B":{"a":4,"b":1},"C":{"a":2,"b":8},"D":{"a":8,"b":2}},"conditions":["nonSeqFull","nonSeqPartial","seqNoFeedback","seqFeedback"],"classroomPairings":[["A","B"],["C","D"]],"coinWeights":[0.2,0.5,0.8],"subjectId":"A3BU8UL4W258UU","assignmentId":"337RC3OW06O44O7DQ5EQ857OLR2LVF","hitId":"3IH9TRB0FBLK6RLF7MSMKICTGYN1IU","url":"https://gershmanlab.com/experiments/alicia/teaching/experiment/?hitId=3IH9TRB0FBLK6RLF7MSMKICTGYN1IU&workerId=A3BU8UL4W258UU&assignmentId=337RC3OW06O44O7DQ5EQ857OLR2LVF&a=WC733&tp_a=WC733&b=337RC3OW06O44O7DQ5EQ857OLR2LVF&tp_b=337RC3OW06O44O7DQ5EQ857OLR2LVF&c=365633&tp_c=365633"},{"rt":1236,"stimulus":"\n            <h4 style=\"color:Orange;\">Student 9</h4>\n            <h2>The weight of your coin is <b style=\"color:Tomato;\">0.5</b>.</h2>\n            <p>In this block, you will be giving <b>one</b> set of examples to Student 9.</p>\n                <p>You will receive feedback at the end of the block.</p>\n            <p></p>","response":0,"trial_type":"html-button-response","trial_index":71,"time_elapsed":700351,"internal_node_id":"0.0-70.0","params":{"nStudents":24,"maxFlips":25,"completionMinutes":45,"basePay":8,"maxBonus":9,"perTrialBonus":0.5,"perTrialBonusThreshold":0.05,"exampleCost":0.02},"classroomParams":{"A":{"a":1,"b":4},"B":{"a":4,"b":1},"C":{"a":2,"b":8},"D":{"a":8,"b":2}},"conditions":["nonSeqFull","nonSeqPartial","seqNoFeedback","seqFeedback"],"classroomPairings":[["A","B"],["C","D"]],"coinWeights":[0.2,0.5,0.8],"subjectId":"A3BU8UL4W258UU","assignmentId":"337RC3OW06O44O7DQ5EQ857OLR2LVF","hitId":"3IH9TRB0FBLK6RLF7MSMKICTGYN1IU","url":"https://gershmanlab.com/experiments/alicia/teaching/experiment/?hitId=3IH9TRB0FBLK6RLF7MSMKICTGYN1IU&workerId=A3BU8UL4W258UU&assignmentId=337RC3OW06O44O7DQ5EQ857OLR2LVF&a=WC733&tp_a=WC733&b=337RC3OW06O44O7DQ5EQ857OLR2LVF&tp_b=337RC3OW06O44O7DQ5EQ857OLR2LVF&c=365633&tp_c=365633"},{"rt":20759,"response":{"heads":"2","tails":"0"},"type":"response","condition":"nonSeqPartial","trueTheta":0.5,"classrooms":["A","B"],"studentTrueClassroom":"A","exampleSet":"first","trial_type":"survey-html-form","trial_index":72,"time_elapsed":721112,"internal_node_id":"0.0-71.0-0.0","params":{"nStudents":24,"maxFlips":25,"completionMinutes":45,"basePay":8,"maxBonus":9,"perTrialBonus":0.5,"perTrialBonusThreshold":0.05,"exampleCost":0.02},"classroomParams":{"A":{"a":1,"b":4},"B":{"a":4,"b":1},"C":{"a":2,"b":8},"D":{"a":8,"b":2}},"conditions":["nonSeqFull","nonSeqPartial","seqNoFeedback","seqFeedback"],"classroomPairings":[["A","B"],["C","D"]],"coinWeights":[0.2,0.5,0.8],"subjectId":"A3BU8UL4W258UU","assignmentId":"337RC3OW06O44O7DQ5EQ857OLR2LVF","hitId":"3IH9TRB0FBLK6RLF7MSMKICTGYN1IU","url":"https://gershmanlab.com/experiments/alicia/teaching/experiment/?hitId=3IH9TRB0FBLK6RLF7MSMKICTGYN1IU&workerId=A3BU8UL4W258UU&assignmentId=337RC3OW06O44O7DQ5EQ857OLR2LVF&a=WC733&tp_a=WC733&b=337RC3OW06O44O7DQ5EQ857OLR2LVF&tp_b=337RC3OW06O44O7DQ5EQ857OLR2LVF&c=365633&tp_c=365633","heads":2,"tails":0,"studentIndex":8,"studentTrueHypers":{"a":1,"b":4},"studentGuess":0.42857142857142855,"delta":0.07142857142857145,"totalExamples":2,"bonus":0,"bonusSoFar":0.44},{"rt":null,"stimulus":"Sending examples to student... ","response":null,"trial_type":"html-keyboard-response","trial_index":73,"time_elapsed":722616,"internal_node_id":"0.0-72.0","params":{"nStudents":24,"maxFlips":25,"completionMinutes":45,"basePay":8,"maxBonus":9,"perTrialBonus":0.5,"perTrialBonusThreshold":0.05,"exampleCost":0.02},"classroomParams":{"A":{"a":1,"b":4},"B":{"a":4,"b":1},"C":{"a":2,"b":8},"D":{"a":8,"b":2}},"conditions":["nonSeqFull","nonSeqPartial","seqNoFeedback","seqFeedback"],"classroomPairings":[["A","B"],["C","D"]],"coinWeights":[0.2,0.5,0.8],"subjectId":"A3BU8UL4W258UU","assignmentId":"337RC3OW06O44O7DQ5EQ857OLR2LVF","hitId":"3IH9TRB0FBLK6RLF7MSMKICTGYN1IU","url":"https://gershmanlab.com/experiments/alicia/teaching/experiment/?hitId=3IH9TRB0FBLK6RLF7MSMKICTGYN1IU&workerId=A3BU8UL4W258UU&assignmentId=337RC3OW06O44O7DQ5EQ857OLR2LVF&a=WC733&tp_a=WC733&b=337RC3OW06O44O7DQ5EQ857OLR2LVF&tp_b=337RC3OW06O44O7DQ5EQ857OLR2LVF&c=365633&tp_c=365633"},{"rt":null,"stimulus":"Examples sent to student! Waiting for student...","response":null,"trial_type":"html-keyboard-response","trial_index":74,"time_elapsed":728624,"internal_node_id":"0.0-73.0","params":{"nStudents":24,"maxFlips":25,"completionMinutes":45,"basePay":8,"maxBonus":9,"perTrialBonus":0.5,"perTrialBonusThreshold":0.05,"exampleCost":0.02},"classroomParams":{"A":{"a":1,"b":4},"B":{"a":4,"b":1},"C":{"a":2,"b":8},"D":{"a":8,"b":2}},"conditions":["nonSeqFull","nonSeqPartial","seqNoFeedback","seqFeedback"],"classroomPairings":[["A","B"],["C","D"]],"coinWeights":[0.2,0.5,0.8],"subjectId":"A3BU8UL4W258UU","assignmentId":"337RC3OW06O44O7DQ5EQ857OLR2LVF","hitId":"3IH9TRB0FBLK6RLF7MSMKICTGYN1IU","url":"https://gershmanlab.com/experiments/alicia/teaching/experiment/?hitId=3IH9TRB0FBLK6RLF7MSMKICTGYN1IU&workerId=A3BU8UL4W258UU&assignmentId=337RC3OW06O44O7DQ5EQ857OLR2LVF&a=WC733&tp_a=WC733&b=337RC3OW06O44O7DQ5EQ857OLR2LVF&tp_b=337RC3OW06O44O7DQ5EQ857OLR2LVF&c=365633&tp_c=365633"},{"rt":2380,"stimulus":"\n                <p>Student's guess for coin weight: <b style=\"color:Tomato;\">0.43</b></p>\n                <p>You received a bonus of <b>$0</b>. Total bonus so far: <b>$0.44</b></b></p>\n                <p></p>\n                <p>Press any key to continue.</p>\n                ","response":"enter","trial_type":"html-keyboard-response","trial_index":75,"time_elapsed":731005,"internal_node_id":"0.0-74.0","params":{"nStudents":24,"maxFlips":25,"completionMinutes":45,"basePay":8,"maxBonus":9,"perTrialBonus":0.5,"perTrialBonusThreshold":0.05,"exampleCost":0.02},"classroomParams":{"A":{"a":1,"b":4},"B":{"a":4,"b":1},"C":{"a":2,"b":8},"D":{"a":8,"b":2}},"conditions":["nonSeqFull","nonSeqPartial","seqNoFeedback","seqFeedback"],"classroomPairings":[["A","B"],["C","D"]],"coinWeights":[0.2,0.5,0.8],"subjectId":"A3BU8UL4W258UU","assignmentId":"337RC3OW06O44O7DQ5EQ857OLR2LVF","hitId":"3IH9TRB0FBLK6RLF7MSMKICTGYN1IU","url":"https://gershmanlab.com/experiments/alicia/teaching/experiment/?hitId=3IH9TRB0FBLK6RLF7MSMKICTGYN1IU&workerId=A3BU8UL4W258UU&assignmentId=337RC3OW06O44O7DQ5EQ857OLR2LVF&a=WC733&tp_a=WC733&b=337RC3OW06O44O7DQ5EQ857OLR2LVF&tp_b=337RC3OW06O44O7DQ5EQ857OLR2LVF&c=365633&tp_c=365633"},{"rt":null,"stimulus":"<div style=\"font-size:60px;\">Next student</div>","response":null,"trial_type":"html-keyboard-response","trial_index":76,"time_elapsed":734007,"internal_node_id":"0.0-75.0-0.0","params":{"nStudents":24,"maxFlips":25,"completionMinutes":45,"basePay":8,"maxBonus":9,"perTrialBonus":0.5,"perTrialBonusThreshold":0.05,"exampleCost":0.02},"classroomParams":{"A":{"a":1,"b":4},"B":{"a":4,"b":1},"C":{"a":2,"b":8},"D":{"a":8,"b":2}},"conditions":["nonSeqFull","nonSeqPartial","seqNoFeedback","seqFeedback"],"classroomPairings":[["A","B"],["C","D"]],"coinWeights":[0.2,0.5,0.8],"subjectId":"A3BU8UL4W258UU","assignmentId":"337RC3OW06O44O7DQ5EQ857OLR2LVF","hitId":"3IH9TRB0FBLK6RLF7MSMKICTGYN1IU","url":"https://gershmanlab.com/experiments/alicia/teaching/experiment/?hitId=3IH9TRB0FBLK6RLF7MSMKICTGYN1IU&workerId=A3BU8UL4W258UU&assignmentId=337RC3OW06O44O7DQ5EQ857OLR2LVF&a=WC733&tp_a=WC733&b=337RC3OW06O44O7DQ5EQ857OLR2LVF&tp_b=337RC3OW06O44O7DQ5EQ857OLR2LVF&c=365633&tp_c=365633"},{"rt":1370,"stimulus":"\n            <h4 style=\"color:Orange;\">Student 10</h4>\n            <h2>The weight of your coin is <b style=\"color:Tomato;\">0.5</b>.</h2>\n            <p>In this block, you will be giving <b>one</b> set of examples to Student 10.</p>\n                <p>You will receive feedback at the end of the block.</p>\n            <p></p>","response":0,"trial_type":"html-button-response","trial_index":77,"time_elapsed":735379,"internal_node_id":"0.0-76.0","params":{"nStudents":24,"maxFlips":25,"completionMinutes":45,"basePay":8,"maxBonus":9,"perTrialBonus":0.5,"perTrialBonusThreshold":0.05,"exampleCost":0.02},"classroomParams":{"A":{"a":1,"b":4},"B":{"a":4,"b":1},"C":{"a":2,"b":8},"D":{"a":8,"b":2}},"conditions":["nonSeqFull","nonSeqPartial","seqNoFeedback","seqFeedback"],"classroomPairings":[["A","B"],["C","D"]],"coinWeights":[0.2,0.5,0.8],"subjectId":"A3BU8UL4W258UU","assignmentId":"337RC3OW06O44O7DQ5EQ857OLR2LVF","hitId":"3IH9TRB0FBLK6RLF7MSMKICTGYN1IU","url":"https://gershmanlab.com/experiments/alicia/teaching/experiment/?hitId=3IH9TRB0FBLK6RLF7MSMKICTGYN1IU&workerId=A3BU8UL4W258UU&assignmentId=337RC3OW06O44O7DQ5EQ857OLR2LVF&a=WC733&tp_a=WC733&b=337RC3OW06O44O7DQ5EQ857OLR2LVF&tp_b=337RC3OW06O44O7DQ5EQ857OLR2LVF&c=365633&tp_c=365633"},{"rt":19328,"response":{"heads":"5","tails":"0"},"type":"response","condition":"nonSeqPartial","trueTheta":0.5,"classrooms":["C","D"],"studentTrueClassroom":"C","exampleSet":"first","trial_type":"survey-html-form","trial_index":78,"time_elapsed":754708,"internal_node_id":"0.0-77.0-0.0","params":{"nStudents":24,"maxFlips":25,"completionMinutes":45,"basePay":8,"maxBonus":9,"perTrialBonus":0.5,"perTrialBonusThreshold":0.05,"exampleCost":0.02},"classroomParams":{"A":{"a":1,"b":4},"B":{"a":4,"b":1},"C":{"a":2,"b":8},"D":{"a":8,"b":2}},"conditions":["nonSeqFull","nonSeqPartial","seqNoFeedback","seqFeedback"],"classroomPairings":[["A","B"],["C","D"]],"coinWeights":[0.2,0.5,0.8],"subjectId":"A3BU8UL4W258UU","assignmentId":"337RC3OW06O44O7DQ5EQ857OLR2LVF","hitId":"3IH9TRB0FBLK6RLF7MSMKICTGYN1IU","url":"https://gershmanlab.com/experiments/alicia/teaching/experiment/?hitId=3IH9TRB0FBLK6RLF7MSMKICTGYN1IU&workerId=A3BU8UL4W258UU&assignmentId=337RC3OW06O44O7DQ5EQ857OLR2LVF&a=WC733&tp_a=WC733&b=337RC3OW06O44O7DQ5EQ857OLR2LVF&tp_b=337RC3OW06O44O7DQ5EQ857OLR2LVF&c=365633&tp_c=365633","heads":5,"tails":0,"studentIndex":9,"studentTrueHypers":{"a":2,"b":8},"studentGuess":0.4666666666666667,"delta":0.033333333333333326,"totalExamples":5,"bonus":0.4,"bonusSoFar":0.84},{"rt":null,"stimulus":"Sending examples to student... ","response":null,"trial_type":"html-keyboard-response","trial_index":79,"time_elapsed":756459,"internal_node_id":"0.0-78.0","params":{"nStudents":24,"maxFlips":25,"completionMinutes":45,"basePay":8,"maxBonus":9,"perTrialBonus":0.5,"perTrialBonusThreshold":0.05,"exampleCost":0.02},"classroomParams":{"A":{"a":1,"b":4},"B":{"a":4,"b":1},"C":{"a":2,"b":8},"D":{"a":8,"b":2}},"conditions":["nonSeqFull","nonSeqPartial","seqNoFeedback","seqFeedback"],"classroomPairings":[["A","B"],["C","D"]],"coinWeights":[0.2,0.5,0.8],"subjectId":"A3BU8UL4W258UU","assignmentId":"337RC3OW06O44O7DQ5EQ857OLR2LVF","hitId":"3IH9TRB0FBLK6RLF7MSMKICTGYN1IU","url":"https://gershmanlab.com/experiments/alicia/teaching/experiment/?hitId=3IH9TRB0FBLK6RLF7MSMKICTGYN1IU&workerId=A3BU8UL4W258UU&assignmentId=337RC3OW06O44O7DQ5EQ857OLR2LVF&a=WC733&tp_a=WC733&b=337RC3OW06O44O7DQ5EQ857OLR2LVF&tp_b=337RC3OW06O44O7DQ5EQ857OLR2LVF&c=365633&tp_c=365633"},{"rt":null,"stimulus":"Examples sent to student! Waiting for student...","response":null,"trial_type":"html-keyboard-response","trial_index":80,"time_elapsed":762463,"internal_node_id":"0.0-79.0","params":{"nStudents":24,"maxFlips":25,"completionMinutes":45,"basePay":8,"maxBonus":9,"perTrialBonus":0.5,"perTrialBonusThreshold":0.05,"exampleCost":0.02},"classroomParams":{"A":{"a":1,"b":4},"B":{"a":4,"b":1},"C":{"a":2,"b":8},"D":{"a":8,"b":2}},"conditions":["nonSeqFull","nonSeqPartial","seqNoFeedback","seqFeedback"],"classroomPairings":[["A","B"],["C","D"]],"coinWeights":[0.2,0.5,0.8],"subjectId":"A3BU8UL4W258UU","assignmentId":"337RC3OW06O44O7DQ5EQ857OLR2LVF","hitId":"3IH9TRB0FBLK6RLF7MSMKICTGYN1IU","url":"https://gershmanlab.com/experiments/alicia/teaching/experiment/?hitId=3IH9TRB0FBLK6RLF7MSMKICTGYN1IU&workerId=A3BU8UL4W258UU&assignmentId=337RC3OW06O44O7DQ5EQ857OLR2LVF&a=WC733&tp_a=WC733&b=337RC3OW06O44O7DQ5EQ857OLR2LVF&tp_b=337RC3OW06O44O7DQ5EQ857OLR2LVF&c=365633&tp_c=365633"},{"rt":2042,"stimulus":"\n                <p>Student's guess for coin weight: <b style=\"color:Tomato;\">0.47</b></p>\n                <p>You received a bonus of <b>$0.4</b>. Total bonus so far: <b>$0.84</b></b></p>\n                <p></p>\n                <p>Press any key to continue.</p>\n                ","response":"enter","trial_type":"html-keyboard-response","trial_index":81,"time_elapsed":764506,"internal_node_id":"0.0-80.0","params":{"nStudents":24,"maxFlips":25,"completionMinutes":45,"basePay":8,"maxBonus":9,"perTrialBonus":0.5,"perTrialBonusThreshold":0.05,"exampleCost":0.02},"classroomParams":{"A":{"a":1,"b":4},"B":{"a":4,"b":1},"C":{"a":2,"b":8},"D":{"a":8,"b":2}},"conditions":["nonSeqFull","nonSeqPartial","seqNoFeedback","seqFeedback"],"classroomPairings":[["A","B"],["C","D"]],"coinWeights":[0.2,0.5,0.8],"subjectId":"A3BU8UL4W258UU","assignmentId":"337RC3OW06O44O7DQ5EQ857OLR2LVF","hitId":"3IH9TRB0FBLK6RLF7MSMKICTGYN1IU","url":"https://gershmanlab.com/experiments/alicia/teaching/experiment/?hitId=3IH9TRB0FBLK6RLF7MSMKICTGYN1IU&workerId=A3BU8UL4W258UU&assignmentId=337RC3OW06O44O7DQ5EQ857OLR2LVF&a=WC733&tp_a=WC733&b=337RC3OW06O44O7DQ5EQ857OLR2LVF&tp_b=337RC3OW06O44O7DQ5EQ857OLR2LVF&c=365633&tp_c=365633"},{"rt":null,"stimulus":"<div style=\"font-size:60px;\">Next student</div>","response":null,"trial_type":"html-keyboard-response","trial_index":82,"time_elapsed":766757,"internal_node_id":"0.0-81.0-0.0","params":{"nStudents":24,"maxFlips":25,"completionMinutes":45,"basePay":8,"maxBonus":9,"perTrialBonus":0.5,"perTrialBonusThreshold":0.05,"exampleCost":0.02},"classroomParams":{"A":{"a":1,"b":4},"B":{"a":4,"b":1},"C":{"a":2,"b":8},"D":{"a":8,"b":2}},"conditions":["nonSeqFull","nonSeqPartial","seqNoFeedback","seqFeedback"],"classroomPairings":[["A","B"],["C","D"]],"coinWeights":[0.2,0.5,0.8],"subjectId":"A3BU8UL4W258UU","assignmentId":"337RC3OW06O44O7DQ5EQ857OLR2LVF","hitId":"3IH9TRB0FBLK6RLF7MSMKICTGYN1IU","url":"https://gershmanlab.com/experiments/alicia/teaching/experiment/?hitId=3IH9TRB0FBLK6RLF7MSMKICTGYN1IU&workerId=A3BU8UL4W258UU&assignmentId=337RC3OW06O44O7DQ5EQ857OLR2LVF&a=WC733&tp_a=WC733&b=337RC3OW06O44O7DQ5EQ857OLR2LVF&tp_b=337RC3OW06O44O7DQ5EQ857OLR2LVF&c=365633&tp_c=365633"},{"rt":1460,"stimulus":"\n            <h4 style=\"color:Orange;\">Student 11</h4>\n            <h2>The weight of your coin is <b style=\"color:Tomato;\">0.5</b>.</h2>\n            <p>In this block, you will be giving <b>two</b> sets of examples to Student 11.</p>\n                <p>You will receive feedback at the end of the block.</p>\n            <p></p>","response":0,"trial_type":"html-button-response","trial_index":83,"time_elapsed":768218,"internal_node_id":"0.0-82.0","params":{"nStudents":24,"maxFlips":25,"completionMinutes":45,"basePay":8,"maxBonus":9,"perTrialBonus":0.5,"perTrialBonusThreshold":0.05,"exampleCost":0.02},"classroomParams":{"A":{"a":1,"b":4},"B":{"a":4,"b":1},"C":{"a":2,"b":8},"D":{"a":8,"b":2}},"conditions":["nonSeqFull","nonSeqPartial","seqNoFeedback","seqFeedback"],"classroomPairings":[["A","B"],["C","D"]],"coinWeights":[0.2,0.5,0.8],"subjectId":"A3BU8UL4W258UU","assignmentId":"337RC3OW06O44O7DQ5EQ857OLR2LVF","hitId":"3IH9TRB0FBLK6RLF7MSMKICTGYN1IU","url":"https://gershmanlab.com/experiments/alicia/teaching/experiment/?hitId=3IH9TRB0FBLK6RLF7MSMKICTGYN1IU&workerId=A3BU8UL4W258UU&assignmentId=337RC3OW06O44O7DQ5EQ857OLR2LVF&a=WC733&tp_a=WC733&b=337RC3OW06O44O7DQ5EQ857OLR2LVF&tp_b=337RC3OW06O44O7DQ5EQ857OLR2LVF&c=365633&tp_c=365633"},{"rt":8330,"response":{"heads":"5","tails":"0"},"type":"response","condition":"seqNoFeedback","trueTheta":0.5,"classrooms":["C","D"],"studentTrueClassroom":"D","exampleSet":"first","trial_type":"survey-html-form","trial_index":84,"time_elapsed":776549,"internal_node_id":"0.0-83.0-0.0","params":{"nStudents":24,"maxFlips":25,"completionMinutes":45,"basePay":8,"maxBonus":9,"perTrialBonus":0.5,"perTrialBonusThreshold":0.05,"exampleCost":0.02},"classroomParams":{"A":{"a":1,"b":4},"B":{"a":4,"b":1},"C":{"a":2,"b":8},"D":{"a":8,"b":2}},"conditions":["nonSeqFull","nonSeqPartial","seqNoFeedback","seqFeedback"],"classroomPairings":[["A","B"],["C","D"]],"coinWeights":[0.2,0.5,0.8],"subjectId":"A3BU8UL4W258UU","assignmentId":"337RC3OW06O44O7DQ5EQ857OLR2LVF","hitId":"3IH9TRB0FBLK6RLF7MSMKICTGYN1IU","url":"https://gershmanlab.com/experiments/alicia/teaching/experiment/?hitId=3IH9TRB0FBLK6RLF7MSMKICTGYN1IU&workerId=A3BU8UL4W258UU&assignmentId=337RC3OW06O44O7DQ5EQ857OLR2LVF&a=WC733&tp_a=WC733&b=337RC3OW06O44O7DQ5EQ857OLR2LVF&tp_b=337RC3OW06O44O7DQ5EQ857OLR2LVF&c=365633&tp_c=365633","heads":5,"tails":0,"studentIndex":10,"studentTrueHypers":{"a":8,"b":2},"studentGuess":0.8666666666666667,"delta":0.3666666666666667,"totalExamples":5,"bonusSoFar":0.84},{"rt":null,"stimulus":"Sending examples to student... ","response":null,"trial_type":"html-keyboard-response","trial_index":85,"time_elapsed":777800,"internal_node_id":"0.0-84.0","params":{"nStudents":24,"maxFlips":25,"completionMinutes":45,"basePay":8,"maxBonus":9,"perTrialBonus":0.5,"perTrialBonusThreshold":0.05,"exampleCost":0.02},"classroomParams":{"A":{"a":1,"b":4},"B":{"a":4,"b":1},"C":{"a":2,"b":8},"D":{"a":8,"b":2}},"conditions":["nonSeqFull","nonSeqPartial","seqNoFeedback","seqFeedback"],"classroomPairings":[["A","B"],["C","D"]],"coinWeights":[0.2,0.5,0.8],"subjectId":"A3BU8UL4W258UU","assignmentId":"337RC3OW06O44O7DQ5EQ857OLR2LVF","hitId":"3IH9TRB0FBLK6RLF7MSMKICTGYN1IU","url":"https://gershmanl