[{"rt":3650,"stimulus":"Welcome to the experiment. Press any key to begin.","response":"enter","trial_type":"html-keyboard-response","trial_index":0,"time_elapsed":3665,"internal_node_id":"0.0-0.0","params":{"nStudents":24,"maxFlips":25,"completionMinutes":45,"basePay":8,"maxBonus":9,"perTrialBonus":0.5,"perTrialBonusThreshold":0.05,"exampleCost":0.02},"classroomParams":{"A":{"a":1,"b":4},"B":{"a":4,"b":1},"C":{"a":2,"b":8},"D":{"a":8,"b":2}},"conditions":["nonSeqFull","nonSeqPartial","seqNoFeedback","seqFeedback"],"classroomPairings":[["A","B"],["C","D"]],"coinWeights":[0.2,0.5,0.8],"subjectId":"A3FKXJVH0K2E3E","assignmentId":"33NF62TLXKOKTNP1OGO6QHJF14QJKP","hitId":"3QGHA0EA0JM3KKNCY0PQRLYAHLBWBE","url":"https://gershmanlab.com/experiments/alicia/teaching/experiment/?hitId=3QGHA0EA0JM3KKNCY0PQRLYAHLBWBE&workerId=A3FKXJVH0K2E3E&assignmentId=33NF62TLXKOKTNP1OGO6QHJF14QJKP&a=L6N33&tp_a=L6N33&b=33NF62TLXKOKTNP1OGO6QHJF14QJKP&tp_b=33NF62TLXKOKTNP1OGO6QHJF14QJKP&c=365633&tp_c=365633"},{"rt":4161,"stimulus":"\n        <h3>Please read this consent agreement carefully before deciding whether to participate in this experiment.</h3>\n        <p><b>Purpose of the research:</b> To examine how people teach effectively.</p>\n        <p><b>What you will do in this research:</b> You will teach students the weights of different coins.</p>\n        <p><b>Time required:</b> This experiment will take 45 minutes to complete.</p>\n        <p><b>Risks:</b> There are no anticipated risks associated with participating in this study.             The effects of participating should be comparable to those you would experience from viewing a computer monitor             and using a mouse and keyboard for the duration of the experiment.</p>\n        <p><b>Benefits:</b> The study provides important information about the nature of teaching.</p>\n        <p><b>Compensation:</b> You will receive <b>$8</b> for completing the experiment and a performance bonus of up to <b>$9</b>.</p>\n        <p><b>Confidentiality:</b> Your participation in this study will remain confidential.             No personally identifiable information will be associated with your data.             Your de-identified data may be shared with other researchers and used in future projects.</p>\n        <p><b>Participation and withdrawal:</b> Your participation in this study is completely voluntary and             you may refuse to participate or you may choose to withdraw at any time without penalty or loss of\n            benefits to which you are otherwise entitled.</p>\n        <p><b>How to contact the researcher:</b> If you have questions or concerns about your participation            or payment, or want to request a summary of research findings, please contact\n            Alicia Chen, aliciachen@college.harvard.edu.</p>\n        <p><b>Whom to contact about your rights in this research:</b> For questions, concerns, suggestions,             or complaints that have not been or cannot be addressed by the researcher, or to report             research-related harm, please contact the Committee on the Use of Human Subjects in Research at Harvard University,             1414 Massachusetts Avenue, Second Floor, Cambridge, MA 02138. Phone: 617-496-2847. Email: cuhs@fas.harvard.edu.</p>\n        ","response":0,"trial_type":"html-button-response","trial_index":1,"time_elapsed":7827,"internal_node_id":"0.0-1.0","params":{"nStudents":24,"maxFlips":25,"completionMinutes":45,"basePay":8,"maxBonus":9,"perTrialBonus":0.5,"perTrialBonusThreshold":0.05,"exampleCost":0.02},"classroomParams":{"A":{"a":1,"b":4},"B":{"a":4,"b":1},"C":{"a":2,"b":8},"D":{"a":8,"b":2}},"conditions":["nonSeqFull","nonSeqPartial","seqNoFeedback","seqFeedback"],"classroomPairings":[["A","B"],["C","D"]],"coinWeights":[0.2,0.5,0.8],"subjectId":"A3FKXJVH0K2E3E","assignmentId":"33NF62TLXKOKTNP1OGO6QHJF14QJKP","hitId":"3QGHA0EA0JM3KKNCY0PQRLYAHLBWBE","url":"https://gershmanlab.com/experiments/alicia/teaching/experiment/?hitId=3QGHA0EA0JM3KKNCY0PQRLYAHLBWBE&workerId=A3FKXJVH0K2E3E&assignmentId=33NF62TLXKOKTNP1OGO6QHJF14QJKP&a=L6N33&tp_a=L6N33&b=33NF62TLXKOKTNP1OGO6QHJF14QJKP&tp_b=33NF62TLXKOKTNP1OGO6QHJF14QJKP&c=365633&tp_c=365633"},{"view_history":[{"page_index":0,"viewing_time":4745},{"page_index":1,"viewing_time":2823},{"page_index":2,"viewing_time":29127},{"page_index":3,"viewing_time":11319},{"page_index":4,"viewing_time":6702},{"page_index":5,"viewing_time":14174},{"page_index":6,"viewing_time":42140}],"rt":111030,"trial_type":"instructions","trial_index":2,"time_elapsed":118858,"internal_node_id":"0.0-2.0-0.0","params":{"nStudents":24,"maxFlips":25,"completionMinutes":45,"basePay":8,"maxBonus":9,"perTrialBonus":0.5,"perTrialBonusThreshold":0.05,"exampleCost":0.02},"classroomParams":{"A":{"a":1,"b":4},"B":{"a":4,"b":1},"C":{"a":2,"b":8},"D":{"a":8,"b":2}},"conditions":["nonSeqFull","nonSeqPartial","seqNoFeedback","seqFeedback"],"classroomPairings":[["A","B"],["C","D"]],"coinWeights":[0.2,0.5,0.8],"subjectId":"A3FKXJVH0K2E3E","assignmentId":"33NF62TLXKOKTNP1OGO6QHJF14QJKP","hitId":"3QGHA0EA0JM3KKNCY0PQRLYAHLBWBE","url":"https://gershmanlab.com/experiments/alicia/teaching/experiment/?hitId=3QGHA0EA0JM3KKNCY0PQRLYAHLBWBE&workerId=A3FKXJVH0K2E3E&assignmentId=33NF62TLXKOKTNP1OGO6QHJF14QJKP&a=L6N33&tp_a=L6N33&b=33NF62TLXKOKTNP1OGO6QHJF14QJKP&tp_b=33NF62TLXKOKTNP1OGO6QHJF14QJKP&c=365633&tp_c=365633"},{"rt":46528,"response":{"Q0":"Students in different classrooms will have seen a different number of heads and tails before seeing the examples you select for them.","Q1":"By <b>considering the student's classroom information</b> so that I can teach efficiently and accurately/helpfully at the same time (because each example I give to the student costs money!).","Q2":"The coin lands heads 90% of the time.","Q3":"No, I will teach a <b>new</b> student each time.","Q4":"The students are all on planet Earth, where they tend to believe the vast majority of coins will be fair.","Q5":"Based on the student's second (and final) guess."},"question_order":[2,3,0,4,1,5],"trial_type":"survey-multi-choice","trial_index":3,"time_elapsed":165387,"internal_node_id":"0.0-2.0-1.0","params":{"nStudents":24,"maxFlips":25,"completionMinutes":45,"basePay":8,"maxBonus":9,"perTrialBonus":0.5,"perTrialBonusThreshold":0.05,"exampleCost":0.02},"classroomParams":{"A":{"a":1,"b":4},"B":{"a":4,"b":1},"C":{"a":2,"b":8},"D":{"a":8,"b":2}},"conditions":["nonSeqFull","nonSeqPartial","seqNoFeedback","seqFeedback"],"classroomPairings":[["A","B"],["C","D"]],"coinWeights":[0.2,0.5,0.8],"subjectId":"A3FKXJVH0K2E3E","assignmentId":"33NF62TLXKOKTNP1OGO6QHJF14QJKP","hitId":"3QGHA0EA0JM3KKNCY0PQRLYAHLBWBE","url":"https://gershmanlab.com/experiments/alicia/teaching/experiment/?hitId=3QGHA0EA0JM3KKNCY0PQRLYAHLBWBE&workerId=A3FKXJVH0K2E3E&assignmentId=33NF62TLXKOKTNP1OGO6QHJF14QJKP&a=L6N33&tp_a=L6N33&b=33NF62TLXKOKTNP1OGO6QHJF14QJKP&tp_b=33NF62TLXKOKTNP1OGO6QHJF14QJKP&c=365633&tp_c=365633","pass":false},{"rt":3626,"stimulus":"Oops, you have missed question(s) on the comprehension check! We'll show you the instructions again.","response":0,"trial_type":"html-button-response","trial_index":4,"time_elapsed":169017,"internal_node_id":"0.0-2.0-2.0-0.0","params":{"nStudents":24,"maxFlips":25,"completionMinutes":45,"basePay":8,"maxBonus":9,"perTrialBonus":0.5,"perTrialBonusThreshold":0.05,"exampleCost":0.02},"classroomParams":{"A":{"a":1,"b":4},"B":{"a":4,"b":1},"C":{"a":2,"b":8},"D":{"a":8,"b":2}},"conditions":["nonSeqFull","nonSeqPartial","seqNoFeedback","seqFeedback"],"classroomPairings":[["A","B"],["C","D"]],"coinWeights":[0.2,0.5,0.8],"subjectId":"A3FKXJVH0K2E3E","assignmentId":"33NF62TLXKOKTNP1OGO6QHJF14QJKP","hitId":"3QGHA0EA0JM3KKNCY0PQRLYAHLBWBE","url":"https://gershmanlab.com/experiments/alicia/teaching/experiment/?hitId=3QGHA0EA0JM3KKNCY0PQRLYAHLBWBE&workerId=A3FKXJVH0K2E3E&assignmentId=33NF62TLXKOKTNP1OGO6QHJF14QJKP&a=L6N33&tp_a=L6N33&b=33NF62TLXKOKTNP1OGO6QHJF14QJKP&tp_b=33NF62TLXKOKTNP1OGO6QHJF14QJKP&c=365633&tp_c=365633"},{"view_history":[{"page_index":0,"viewing_time":3666},{"page_index":1,"viewing_time":2112},{"page_index":2,"viewing_time":23148},{"page_index":3,"viewing_time":12776},{"page_index":4,"viewing_time":14126},{"page_index":5,"viewing_time":17520},{"page_index":6,"viewing_time":9191}],"rt":82538,"trial_type":"instructions","trial_index":5,"time_elapsed":251556,"internal_node_id":"0.0-2.1-0.1","params":{"nStudents":24,"maxFlips":25,"completionMinutes":45,"basePay":8,"maxBonus":9,"perTrialBonus":0.5,"perTrialBonusThreshold":0.05,"exampleCost":0.02},"classroomParams":{"A":{"a":1,"b":4},"B":{"a":4,"b":1},"C":{"a":2,"b":8},"D":{"a":8,"b":2}},"conditions":["nonSeqFull","nonSeqPartial","seqNoFeedback","seqFeedback"],"classroomPairings":[["A","B"],["C","D"]],"coinWeights":[0.2,0.5,0.8],"subjectId":"A3FKXJVH0K2E3E","assignmentId":"33NF62TLXKOKTNP1OGO6QHJF14QJKP","hitId":"3QGHA0EA0JM3KKNCY0PQRLYAHLBWBE","url":"https://gershmanlab.com/experiments/alicia/teaching/experiment/?hitId=3QGHA0EA0JM3KKNCY0PQRLYAHLBWBE&workerId=A3FKXJVH0K2E3E&assignmentId=33NF62TLXKOKTNP1OGO6QHJF14QJKP&a=L6N33&tp_a=L6N33&b=33NF62TLXKOKTNP1OGO6QHJF14QJKP&tp_b=33NF62TLXKOKTNP1OGO6QHJF14QJKP&c=365633&tp_c=365633"},{"rt":45420,"response":{"Q0":"Students in different classrooms have seen a different proportion of fair and unfair coins before seeing the examples you select for them.","Q1":"By <b>considering the student's classroom information</b> so that I can teach efficiently and accurately/helpfully at the same time (because each example I give to the student costs money!).","Q2":"The coin lands heads 90% of the time.","Q3":"Yes, I might encounter the same student twice.","Q4":"The students are also on the same alien planet as you, where coins can be unfair.","Q5":"Based on the student's second (and final) guess."},"question_order":[0,5,2,4,3,1],"trial_type":"survey-multi-choice","trial_index":6,"time_elapsed":296977,"internal_node_id":"0.0-2.1-1.1","params":{"nStudents":24,"maxFlips":25,"completionMinutes":45,"basePay":8,"maxBonus":9,"perTrialBonus":0.5,"perTrialBonusThreshold":0.05,"exampleCost":0.02},"classroomParams":{"A":{"a":1,"b":4},"B":{"a":4,"b":1},"C":{"a":2,"b":8},"D":{"a":8,"b":2}},"conditions":["nonSeqFull","nonSeqPartial","seqNoFeedback","seqFeedback"],"classroomPairings":[["A","B"],["C","D"]],"coinWeights":[0.2,0.5,0.8],"subjectId":"A3FKXJVH0K2E3E","assignmentId":"33NF62TLXKOKTNP1OGO6QHJF14QJKP","hitId":"3QGHA0EA0JM3KKNCY0PQRLYAHLBWBE","url":"https://gershmanlab.com/experiments/alicia/teaching/experiment/?hitId=3QGHA0EA0JM3KKNCY0PQRLYAHLBWBE&workerId=A3FKXJVH0K2E3E&assignmentId=33NF62TLXKOKTNP1OGO6QHJF14QJKP&a=L6N33&tp_a=L6N33&b=33NF62TLXKOKTNP1OGO6QHJF14QJKP&tp_b=33NF62TLXKOKTNP1OGO6QHJF14QJKP&c=365633&tp_c=365633","pass":false},{"rt":2626,"stimulus":"Oops, you have missed question(s) on the comprehension check! We'll show you the instructions again.","response":0,"trial_type":"html-button-response","trial_index":7,"time_elapsed":299606,"internal_node_id":"0.0-2.1-2.1-0.1","params":{"nStudents":24,"maxFlips":25,"completionMinutes":45,"basePay":8,"maxBonus":9,"perTrialBonus":0.5,"perTrialBonusThreshold":0.05,"exampleCost":0.02},"classroomParams":{"A":{"a":1,"b":4},"B":{"a":4,"b":1},"C":{"a":2,"b":8},"D":{"a":8,"b":2}},"conditions":["nonSeqFull","nonSeqPartial","seqNoFeedback","seqFeedback"],"classroomPairings":[["A","B"],["C","D"]],"coinWeights":[0.2,0.5,0.8],"subjectId":"A3FKXJVH0K2E3E","assignmentId":"33NF62TLXKOKTNP1OGO6QHJF14QJKP","hitId":"3QGHA0EA0JM3KKNCY0PQRLYAHLBWBE","url":"https://gershmanlab.com/experiments/alicia/teaching/experiment/?hitId=3QGHA0EA0JM3KKNCY0PQRLYAHLBWBE&workerId=A3FKXJVH0K2E3E&assignmentId=33NF62TLXKOKTNP1OGO6QHJF14QJKP&a=L6N33&tp_a=L6N33&b=33NF62TLXKOKTNP1OGO6QHJF14QJKP&tp_b=33NF62TLXKOKTNP1OGO6QHJF14QJKP&c=365633&tp_c=365633"},{"view_history":[{"page_index":0,"viewing_time":978},{"page_index":1,"viewing_time":467},{"page_index":2,"viewing_time":985},{"page_index":3,"viewing_time":524},{"page_index":4,"viewing_time":879},{"page_index":5,"viewing_time":874},{"page_index":6,"viewing_time":1642}],"rt":6350,"trial_type":"instructions","trial_index":8,"time_elapsed":305956,"internal_node_id":"0.0-2.2-0.2","params":{"nStudents":24,"maxFlips":25,"completionMinutes":45,"basePay":8,"maxBonus":9,"perTrialBonus":0.5,"perTrialBonusThreshold":0.05,"exampleCost":0.02},"classroomParams":{"A":{"a":1,"b":4},"B":{"a":4,"b":1},"C":{"a":2,"b":8},"D":{"a":8,"b":2}},"conditions":["nonSeqFull","nonSeqPartial","seqNoFeedback","seqFeedback"],"classroomPairings":[["A","B"],["C","D"]],"coinWeights":[0.2,0.5,0.8],"subjectId":"A3FKXJVH0K2E3E","assignmentId":"33NF62TLXKOKTNP1OGO6QHJF14QJKP","hitId":"3QGHA0EA0JM3KKNCY0PQRLYAHLBWBE","url":"https://gershmanlab.com/experiments/alicia/teaching/experiment/?hitId=3QGHA0EA0JM3KKNCY0PQRLYAHLBWBE&workerId=A3FKXJVH0K2E3E&assignmentId=33NF62TLXKOKTNP1OGO6QHJF14QJKP&a=L6N33&tp_a=L6N33&b=33NF62TLXKOKTNP1OGO6QHJF14QJKP&tp_b=33NF62TLXKOKTNP1OGO6QHJF14QJKP&c=365633&tp_c=365633"},{"rt":35031,"response":{"Q0":"Students in different classrooms will have seen a different number of heads and tails before seeing the examples you select for them.","Q1":"By giving as few examples as possible.","Q2":"The coin lands heads 90% of the time.","Q3":"Yes, I might encounter the same student twice.","Q4":"The students are also on the same alien planet as you, where coins can be unfair.","Q5":"Based on the student's second (and final) guess."},"question_order":[0,5,4,3,2,1],"trial_type":"survey-multi-choice","trial_index":9,"time_elapsed":340990,"internal_node_id":"0.0-2.2-1.2","params":{"nStudents":24,"maxFlips":25,"completionMinutes":45,"basePay":8,"maxBonus":9,"perTrialBonus":0.5,"perTrialBonusThreshold":0.05,"exampleCost":0.02},"classroomParams":{"A":{"a":1,"b":4},"B":{"a":4,"b":1},"C":{"a":2,"b":8},"D":{"a":8,"b":2}},"conditions":["nonSeqFull","nonSeqPartial","seqNoFeedback","seqFeedback"],"classroomPairings":[["A","B"],["C","D"]],"coinWeights":[0.2,0.5,0.8],"subjectId":"A3FKXJVH0K2E3E","assignmentId":"33NF62TLXKOKTNP1OGO6QHJF14QJKP","hitId":"3QGHA0EA0JM3KKNCY0PQRLYAHLBWBE","url":"https://gershmanlab.com/experiments/alicia/teaching/experiment/?hitId=3QGHA0EA0JM3KKNCY0PQRLYAHLBWBE&workerId=A3FKXJVH0K2E3E&assignmentId=33NF62TLXKOKTNP1OGO6QHJF14QJKP&a=L6N33&tp_a=L6N33&b=33NF62TLXKOKTNP1OGO6QHJF14QJKP&tp_b=33NF62TLXKOKTNP1OGO6QHJF14QJKP&c=365633&tp_c=365633","pass":false},{"rt":1221,"stimulus":"Oops, you have missed question(s) on the comprehension check! We'll show you the instructions again.","response":0,"trial_type":"html-button-response","trial_index":10,"time_elapsed":342214,"internal_node_id":"0.0-2.2-2.2-0.2","params":{"nStudents":24,"maxFlips":25,"completionMinutes":45,"basePay":8,"maxBonus":9,"perTrialBonus":0.5,"perTrialBonusThreshold":0.05,"exampleCost":0.02},"classroomParams":{"A":{"a":1,"b":4},"B":{"a":4,"b":1},"C":{"a":2,"b":8},"D":{"a":8,"b":2}},"conditions":["nonSeqFull","nonSeqPartial","seqNoFeedback","seqFeedback"],"classroomPairings":[["A","B"],["C","D"]],"coinWeights":[0.2,0.5,0.8],"subjectId":"A3FKXJVH0K2E3E","assignmentId":"33NF62TLXKOKTNP1OGO6QHJF14QJKP","hitId":"3QGHA0EA0JM3KKNCY0PQRLYAHLBWBE","url":"https://gershmanlab.com/experiments/alicia/teaching/experiment/?hitId=3QGHA0EA0JM3KKNCY0PQRLYAHLBWBE&workerId=A3FKXJVH0K2E3E&assignmentId=33NF62TLXKOKTNP1OGO6QHJF14QJKP&a=L6N33&tp_a=L6N33&b=33NF62TLXKOKTNP1OGO6QHJF14QJKP&tp_b=33NF62TLXKOKTNP1OGO6QHJF14QJKP&c=365633&tp_c=365633"},{"view_history":[{"page_index":0,"viewing_time":717},{"page_index":1,"viewing_time":431},{"page_index":2,"viewing_time":1162},{"page_index":3,"viewing_time":608},{"page_index":4,"viewing_time":896},{"page_index":5,"viewing_time":1472},{"page_index":6,"viewing_time":1059}],"rt":6345,"trial_type":"instructions","trial_index":11,"time_elapsed":348560,"internal_node_id":"0.0-2.3-0.3","params":{"nStudents":24,"maxFlips":25,"completionMinutes":45,"basePay":8,"maxBonus":9,"perTrialBonus":0.5,"perTrialBonusThreshold":0.05,"exampleCost":0.02},"classroomParams":{"A":{"a":1,"b":4},"B":{"a":4,"b":1},"C":{"a":2,"b":8},"D":{"a":8,"b":2}},"conditions":["nonSeqFull","nonSeqPartial","seqNoFeedback","seqFeedback"],"classroomPairings":[["A","B"],["C","D"]],"coinWeights":[0.2,0.5,0.8],"subjectId":"A3FKXJVH0K2E3E","assignmentId":"33NF62TLXKOKTNP1OGO6QHJF14QJKP","hitId":"3QGHA0EA0JM3KKNCY0PQRLYAHLBWBE","url":"https://gershmanlab.com/experiments/alicia/teaching/experiment/?hitId=3QGHA0EA0JM3KKNCY0PQRLYAHLBWBE&workerId=A3FKXJVH0K2E3E&assignmentId=33NF62TLXKOKTNP1OGO6QHJF14QJKP&a=L6N33&tp_a=L6N33&b=33NF62TLXKOKTNP1OGO6QHJF14QJKP&tp_b=33NF62TLXKOKTNP1OGO6QHJF14QJKP&c=365633&tp_c=365633"},{"rt":41805,"response":{"Q0":"Students in different classrooms have seen a different proportion of fair and unfair coins before seeing the examples you select for them.","Q1":"By <b>considering the student's classroom information</b> so that I can teach efficiently and accurately/helpfully at the same time (because each example I give to the student costs money!).","Q2":"The coin lands heads 90% of the time.","Q3":"Yes, I might encounter the same student twice.","Q4":"The students are also on the same alien planet as you, where coins can be unfair.","Q5":"Based on the student's second (and final) guess."},"question_order":[4,2,3,5,1,0],"trial_type":"survey-multi-choice","trial_index":12,"time_elapsed":390366,"internal_node_id":"0.0-2.3-1.3","params":{"nStudents":24,"maxFlips":25,"completionMinutes":45,"basePay":8,"maxBonus":9,"perTrialBonus":0.5,"perTrialBonusThreshold":0.05,"exampleCost":0.02},"classroomParams":{"A":{"a":1,"b":4},"B":{"a":4,"b":1},"C":{"a":2,"b":8},"D":{"a":8,"b":2}},"conditions":["nonSeqFull","nonSeqPartial","seqNoFeedback","seqFeedback"],"classroomPairings":[["A","B"],["C","D"]],"coinWeights":[0.2,0.5,0.8],"subjectId":"A3FKXJVH0K2E3E","assignmentId":"33NF62TLXKOKTNP1OGO6QHJF14QJKP","hitId":"3QGHA0EA0JM3KKNCY0PQRLYAHLBWBE","url":"https://gershmanlab.com/experiments/alicia/teaching/experiment/?hitId=3QGHA0EA0JM3KKNCY0PQRLYAHLBWBE&workerId=A3FKXJVH0K2E3E&assignmentId=33NF62TLXKOKTNP1OGO6QHJF14QJKP&a=L6N33&tp_a=L6N33&b=33NF62TLXKOKTNP1OGO6QHJF14QJKP&tp_b=33NF62TLXKOKTNP1OGO6QHJF14QJKP&c=365633&tp_c=365633","pass":false},{"rt":1408,"stimulus":"Oops, you have missed question(s) on the comprehension check! We'll show you the instructions again.","response":0,"trial_type":"html-button-response","trial_index":13,"time_elapsed":391777,"internal_node_id":"0.0-2.3-2.3-0.3","params":{"nStudents":24,"maxFlips":25,"completionMinutes":45,"basePay":8,"maxBonus":9,"perTrialBonus":0.5,"perTrialBonusThreshold":0.05,"exampleCost":0.02},"classroomParams":{"A":{"a":1,"b":4},"B":{"a":4,"b":1},"C":{"a":2,"b":8},"D":{"a":8,"b":2}},"conditions":["nonSeqFull","nonSeqPartial","seqNoFeedback","seqFeedback"],"classroomPairings":[["A","B"],["C","D"]],"coinWeights":[0.2,0.5,0.8],"subjectId":"A3FKXJVH0K2E3E","assignmentId":"33NF62TLXKOKTNP1OGO6QHJF14QJKP","hitId":"3QGHA0EA0JM3KKNCY0PQRLYAHLBWBE","url":"https://gershmanlab.com/experiments/alicia/teaching/experiment/?hitId=3QGHA0EA0JM3KKNCY0PQRLYAHLBWBE&workerId=A3FKXJVH0K2E3E&assignmentId=33NF62TLXKOKTNP1OGO6QHJF14QJKP&a=L6N33&tp_a=L6N33&b=33NF62TLXKOKTNP1OGO6QHJF14QJKP&tp_b=33NF62TLXKOKTNP1OGO6QHJF14QJKP&c=365633&tp_c=365633"},{"view_history":[{"page_index":0,"viewing_time":1057},{"page_index":1,"viewing_time":180},{"page_index":2,"viewing_time":959},{"page_index":3,"viewing_time":537},{"page_index":4,"viewing_time":619},{"page_index":5,"viewing_time":574},{"page_index":6,"viewing_time":1142}],"rt":5068,"trial_type":"instructions","trial_index":14,"time_elapsed":396846,"internal_node_id":"0.0-2.4-0.4","params":{"nStudents":24,"maxFlips":25,"completionMinutes":45,"basePay":8,"maxBonus":9,"perTrialBonus":0.5,"perTrialBonusThreshold":0.05,"exampleCost":0.02},"classroomParams":{"A":{"a":1,"b":4},"B":{"a":4,"b":1},"C":{"a":2,"b":8},"D":{"a":8,"b":2}},"conditions":["nonSeqFull","nonSeqPartial","seqNoFeedback","seqFeedback"],"classroomPairings":[["A","B"],["C","D"]],"coinWeights":[0.2,0.5,0.8],"subjectId":"A3FKXJVH0K2E3E","assignmentId":"33NF62TLXKOKTNP1OGO6QHJF14QJKP","hitId":"3QGHA0EA0JM3KKNCY0PQRLYAHLBWBE","url":"https://gershmanlab.com/experiments/alicia/teaching/experiment/?hitId=3QGHA0EA0JM3KKNCY0PQRLYAHLBWBE&workerId=A3FKXJVH0K2E3E&assignmentId=33NF62TLXKOKTNP1OGO6QHJF14QJKP&a=L6N33&tp_a=L6N33&b=33NF62TLXKOKTNP1OGO6QHJF14QJKP&tp_b=33NF62TLXKOKTNP1OGO6QHJF14QJKP&c=365633&tp_c=365633"},{"rt":27211,"response":{"Q0":"Students in different classrooms will have seen a different number of heads and tails before seeing the examples you select for them.","Q1":"By <b>considering the student's classroom information</b> so that I can teach efficiently and accurately/helpfully at the same time (because each example I give to the student costs money!).","Q2":"The coin lands heads 90% of the time.","Q3":"Yes, I might encounter the same student twice.","Q4":"The students are also on the same alien planet as you, where coins can be unfair.","Q5":"Based on the student's second (and final) guess."},"question_order":[2,5,4,3,0,1],"trial_type":"survey-multi-choice","trial_index":15,"time_elapsed":424057,"internal_node_id":"0.0-2.4-1.4","params":{"nStudents":24,"maxFlips":25,"completionMinutes":45,"basePay":8,"maxBonus":9,"perTrialBonus":0.5,"perTrialBonusThreshold":0.05,"exampleCost":0.02},"classroomParams":{"A":{"a":1,"b":4},"B":{"a":4,"b":1},"C":{"a":2,"b":8},"D":{"a":8,"b":2}},"conditions":["nonSeqFull","nonSeqPartial","seqNoFeedback","seqFeedback"],"classroomPairings":[["A","B"],["C","D"]],"coinWeights":[0.2,0.5,0.8],"subjectId":"A3FKXJVH0K2E3E","assignmentId":"33NF62TLXKOKTNP1OGO6QHJF14QJKP","hitId":"3QGHA0EA0JM3KKNCY0PQRLYAHLBWBE","url":"https://gershmanlab.com/experiments/alicia/teaching/experiment/?hitId=3QGHA0EA0JM3KKNCY0PQRLYAHLBWBE&workerId=A3FKXJVH0K2E3E&assignmentId=33NF62TLXKOKTNP1OGO6QHJF14QJKP&a=L6N33&tp_a=L6N33&b=33NF62TLXKOKTNP1OGO6QHJF14QJKP&tp_b=33NF62TLXKOKTNP1OGO6QHJF14QJKP&c=365633&tp_c=365633","pass":false},{"rt":1077,"stimulus":"Oops, you have missed question(s) on the comprehension check! We'll show you the instructions again.","response":0,"trial_type":"html-button-response","trial_index":16,"time_elapsed":425137,"internal_node_id":"0.0-2.4-2.4-0.4","params":{"nStudents":24,"maxFlips":25,"completionMinutes":45,"basePay":8,"maxBonus":9,"perTrialBonus":0.5,"perTrialBonusThreshold":0.05,"exampleCost":0.02},"classroomParams":{"A":{"a":1,"b":4},"B":{"a":4,"b":1},"C":{"a":2,"b":8},"D":{"a":8,"b":2}},"conditions":["nonSeqFull","nonSeqPartial","seqNoFeedback","seqFeedback"],"classroomPairings":[["A","B"],["C","D"]],"coinWeights":[0.2,0.5,0.8],"subjectId":"A3FKXJVH0K2E3E","assignmentId":"33NF62TLXKOKTNP1OGO6QHJF14QJKP","hitId":"3QGHA0EA0JM3KKNCY0PQRLYAHLBWBE","url":"https://gershmanlab.com/experiments/alicia/teaching/experiment/?hitId=3QGHA0EA0JM3KKNCY0PQRLYAHLBWBE&workerId=A3FKXJVH0K2E3E&assignmentId=33NF62TLXKOKTNP1OGO6QHJF14QJKP&a=L6N33&tp_a=L6N33&b=33NF62TLXKOKTNP1OGO6QHJF14QJKP&tp_b=33NF62TLXKOKTNP1OGO6QHJF14QJKP&c=365633&tp_c=365633"},{"view_history":[{"page_index":0,"viewing_time":1869},{"page_index":1,"viewing_time":2280},{"page_index":2,"viewing_time":21392},{"page_index":3,"viewing_time":19819},{"page_index":4,"viewing_time":12710},{"page_index":5,"viewing_time":12595},{"page_index":6,"viewing_time":4992}],"rt":75658,"trial_type":"instructions","trial_index":17,"time_elapsed":500795,"internal_node_id":"0.0-2.5-0.5","params":{"nStudents":24,"maxFlips":25,"completionMinutes":45,"basePay":8,"maxBonus":9,"perTrialBonus":0.5,"perTrialBonusThreshold":0.05,"exampleCost":0.02},"classroomParams":{"A":{"a":1,"b":4},"B":{"a":4,"b":1},"C":{"a":2,"b":8},"D":{"a":8,"b":2}},"conditions":["nonSeqFull","nonSeqPartial","seqNoFeedback","seqFeedback"],"classroomPairings":[["A","B"],["C","D"]],"coinWeights":[0.2,0.5,0.8],"subjectId":"A3FKXJVH0K2E3E","assignmentId":"33NF62TLXKOKTNP1OGO6QHJF14QJKP","hitId":"3QGHA0EA0JM3KKNCY0PQRLYAHLBWBE","url":"https://gershmanlab.com/experiments/alicia/teaching/experiment/?hitId=3QGHA0EA0JM3KKNCY0PQRLYAHLBWBE&workerId=A3FKXJVH0K2E3E&assignmentId=33NF62TLXKOKTNP1OGO6QHJF14QJKP&a=L6N33&tp_a=L6N33&b=33NF62TLXKOKTNP1OGO6QHJF14QJKP&tp_b=33NF62TLXKOKTNP1OGO6QHJF14QJKP&c=365633&tp_c=365633"},{"rt":22432,"response":{"Q0":"Students in different classrooms will have seen a different number of heads and tails before seeing the examples you select for them.","Q1":"By <b>considering the student's classroom information</b> so that I can teach efficiently and accurately/helpfully at the same time (because each example I give to the student costs money!).","Q2":"The coin lands heads 90% of the time.","Q3":"No, I will teach a <b>new</b> student each time.","Q4":"The students are also on the same alien planet as you, where coins can be unfair.","Q5":"Based on the student's second (and final) guess."},"question_order":[3,1,0,5,4,2],"trial_type":"survey-multi-choice","trial_index":18,"time_elapsed":523228,"internal_node_id":"0.0-2.5-1.5","params":{"nStudents":24,"maxFlips":25,"completionMinutes":45,"basePay":8,"maxBonus":9,"perTrialBonus":0.5,"perTrialBonusThreshold":0.05,"exampleCost":0.02},"classroomParams":{"A":{"a":1,"b":4},"B":{"a":4,"b":1},"C":{"a":2,"b":8},"D":{"a":8,"b":2}},"conditions":["nonSeqFull","nonSeqPartial","seqNoFeedback","seqFeedback"],"classroomPairings":[["A","B"],["C","D"]],"coinWeights":[0.2,0.5,0.8],"subjectId":"A3FKXJVH0K2E3E","assignmentId":"33NF62TLXKOKTNP1OGO6QHJF14QJKP","hitId":"3QGHA0EA0JM3KKNCY0PQRLYAHLBWBE","url":"https://gershmanlab.com/experiments/alicia/teaching/experiment/?hitId=3QGHA0EA0JM3KKNCY0PQRLYAHLBWBE&workerId=A3FKXJVH0K2E3E&assignmentId=33NF62TLXKOKTNP1OGO6QHJF14QJKP&a=L6N33&tp_a=L6N33&b=33NF62TLXKOKTNP1OGO6QHJF14QJKP&tp_b=33NF62TLXKOKTNP1OGO6QHJF14QJKP&c=365633&tp_c=365633","pass":true},{"rt":null,"stimulus":"<div style=\"font-size:30px;\">Congrats on passing the comprehension quiz! The experiment will begin in a few seconds.</div>","response":null,"trial_type":"html-keyboard-response","trial_index":19,"time_elapsed":526244,"internal_node_id":"0.0-3.0","params":{"nStudents":24,"maxFlips":25,"completionMinutes":45,"basePay":8,"maxBonus":9,"perTrialBonus":0.5,"perTrialBonusThreshold":0.05,"exampleCost":0.02},"classroomParams":{"A":{"a":1,"b":4},"B":{"a":4,"b":1},"C":{"a":2,"b":8},"D":{"a":8,"b":2}},"conditions":["nonSeqFull","nonSeqPartial","seqNoFeedback","seqFeedback"],"classroomPairings":[["A","B"],["C","D"]],"coinWeights":[0.2,0.5,0.8],"subjectId":"A3FKXJVH0K2E3E","assignmentId":"33NF62TLXKOKTNP1OGO6QHJF14QJKP","hitId":"3QGHA0EA0JM3KKNCY0PQRLYAHLBWBE","url":"https://gershmanlab.com/experiments/alicia/teaching/experiment/?hitId=3QGHA0EA0JM3KKNCY0PQRLYAHLBWBE&workerId=A3FKXJVH0K2E3E&assignmentId=33NF62TLXKOKTNP1OGO6QHJF14QJKP&a=L6N33&tp_a=L6N33&b=33NF62TLXKOKTNP1OGO6QHJF14QJKP&tp_b=33NF62TLXKOKTNP1OGO6QHJF14QJKP&c=365633&tp_c=365633"},{"rt":null,"stimulus":"<div style=\"font-size:50px;\">First student</div>","response":null,"trial_type":"html-keyboard-response","trial_index":20,"time_elapsed":529254,"internal_node_id":"0.0-4.0","params":{"nStudents":24,"maxFlips":25,"completionMinutes":45,"basePay":8,"maxBonus":9,"perTrialBonus":0.5,"perTrialBonusThreshold":0.05,"exampleCost":0.02},"classroomParams":{"A":{"a":1,"b":4},"B":{"a":4,"b":1},"C":{"a":2,"b":8},"D":{"a":8,"b":2}},"conditions":["nonSeqFull","nonSeqPartial","seqNoFeedback","seqFeedback"],"classroomPairings":[["A","B"],["C","D"]],"coinWeights":[0.2,0.5,0.8],"subjectId":"A3FKXJVH0K2E3E","assignmentId":"33NF62TLXKOKTNP1OGO6QHJF14QJKP","hitId":"3QGHA0EA0JM3KKNCY0PQRLYAHLBWBE","url":"https://gershmanlab.com/experiments/alicia/teaching/experiment/?hitId=3QGHA0EA0JM3KKNCY0PQRLYAHLBWBE&workerId=A3FKXJVH0K2E3E&assignmentId=33NF62TLXKOKTNP1OGO6QHJF14QJKP&a=L6N33&tp_a=L6N33&b=33NF62TLXKOKTNP1OGO6QHJF14QJKP&tp_b=33NF62TLXKOKTNP1OGO6QHJF14QJKP&c=365633&tp_c=365633"},{"rt":8283,"stimulus":"\n            <h4 style=\"color:Orange;\">Student 1</h4>\n            <h2>The weight of your coin is <b style=\"color:Tomato;\">0.2</b>.</h2>\n            <p>In this block, you will be giving <b>one</b> set of examples to Student 1.</p>\n                <p>You will receive feedback at the end of the block.</p>\n            <p></p>","response":0,"trial_type":"html-button-response","trial_index":21,"time_elapsed":537538,"internal_node_id":"0.0-5.0","params":{"nStudents":24,"maxFlips":25,"completionMinutes":45,"basePay":8,"maxBonus":9,"perTrialBonus":0.5,"perTrialBonusThreshold":0.05,"exampleCost":0.02},"classroomParams":{"A":{"a":1,"b":4},"B":{"a":4,"b":1},"C":{"a":2,"b":8},"D":{"a":8,"b":2}},"conditions":["nonSeqFull","nonSeqPartial","seqNoFeedback","seqFeedback"],"classroomPairings":[["A","B"],["C","D"]],"coinWeights":[0.2,0.5,0.8],"subjectId":"A3FKXJVH0K2E3E","assignmentId":"33NF62TLXKOKTNP1OGO6QHJF14QJKP","hitId":"3QGHA0EA0JM3KKNCY0PQRLYAHLBWBE","url":"https://gershmanlab.com/experiments/alicia/teaching/experiment/?hitId=3QGHA0EA0JM3KKNCY0PQRLYAHLBWBE&workerId=A3FKXJVH0K2E3E&assignmentId=33NF62TLXKOKTNP1OGO6QHJF14QJKP&a=L6N33&tp_a=L6N33&b=33NF62TLXKOKTNP1OGO6QHJF14QJKP&tp_b=33NF62TLXKOKTNP1OGO6QHJF14QJKP&c=365633&tp_c=365633"},{"rt":43696,"response":{"heads":"2","tails":"4"},"type":"response","condition":"nonSeqPartial","trueTheta":0.2,"classrooms":["C","D"],"studentTrueClassroom":"D","exampleSet":"first","trial_type":"survey-html-form","trial_index":22,"time_elapsed":581235,"internal_node_id":"0.0-6.0-0.0","params":{"nStudents":24,"maxFlips":25,"completionMinutes":45,"basePay":8,"maxBonus":9,"perTrialBonus":0.5,"perTrialBonusThreshold":0.05,"exampleCost":0.02},"classroomParams":{"A":{"a":1,"b":4},"B":{"a":4,"b":1},"C":{"a":2,"b":8},"D":{"a":8,"b":2}},"conditions":["nonSeqFull","nonSeqPartial","seqNoFeedback","seqFeedback"],"classroomPairings":[["A","B"],["C","D"]],"coinWeights":[0.2,0.5,0.8],"subjectId":"A3FKXJVH0K2E3E","assignmentId":"33NF62TLXKOKTNP1OGO6QHJF14QJKP","hitId":"3QGHA0EA0JM3KKNCY0PQRLYAHLBWBE","url":"https://gershmanlab.com/experiments/alicia/teaching/experiment/?hitId=3QGHA0EA0JM3KKNCY0PQRLYAHLBWBE&workerId=A3FKXJVH0K2E3E&assignmentId=33NF62TLXKOKTNP1OGO6QHJF14QJKP&a=L6N33&tp_a=L6N33&b=33NF62TLXKOKTNP1OGO6QHJF14QJKP&tp_b=33NF62TLXKOKTNP1OGO6QHJF14QJKP&c=365633&tp_c=365633","heads":2,"tails":4,"studentIndex":0,"studentTrueHypers":{"a":8,"b":2},"studentGuess":0.625,"delta":0.425,"totalExamples":6,"bonus":0,"bonusSoFar":0},{"rt":null,"stimulus":"Sending examples to student... ","response":null,"trial_type":"html-keyboard-response","trial_index":23,"time_elapsed":583243,"internal_node_id":"0.0-7.0","params":{"nStudents":24,"maxFlips":25,"completionMinutes":45,"basePay":8,"maxBonus":9,"perTrialBonus":0.5,"perTrialBonusThreshold":0.05,"exampleCost":0.02},"classroomParams":{"A":{"a":1,"b":4},"B":{"a":4,"b":1},"C":{"a":2,"b":8},"D":{"a":8,"b":2}},"conditions":["nonSeqFull","nonSeqPartial","seqNoFeedback","seqFeedback"],"classroomPairings":[["A","B"],["C","D"]],"coinWeights":[0.2,0.5,0.8],"subjectId":"A3FKXJVH0K2E3E","assignmentId":"33NF62TLXKOKTNP1OGO6QHJF14QJKP","hitId":"3QGHA0EA0JM3KKNCY0PQRLYAHLBWBE","url":"https://gershmanlab.com/experiments/alicia/teaching/experiment/?hitId=3QGHA0EA0JM3KKNCY0PQRLYAHLBWBE&workerId=A3FKXJVH0K2E3E&assignmentId=33NF62TLXKOKTNP1OGO6QHJF14QJKP&a=L6N33&tp_a=L6N33&b=33NF62TLXKOKTNP1OGO6QHJF14QJKP&tp_b=33NF62TLXKOKTNP1OGO6QHJF14QJKP&c=365633&tp_c=365633"},{"rt":null,"stimulus":"Examples sent to student! Waiting for student...","response":null,"trial_type":"html-keyboard-response","trial_index":24,"time_elapsed":588263,"internal_node_id":"0.0-8.0","params":{"nStudents":24,"maxFlips":25,"completionMinutes":45,"basePay":8,"maxBonus":9,"perTrialBonus":0.5,"perTrialBonusThreshold":0.05,"exampleCost":0.02},"classroomParams":{"A":{"a":1,"b":4},"B":{"a":4,"b":1},"C":{"a":2,"b":8},"D":{"a":8,"b":2}},"conditions":["nonSeqFull","nonSeqPartial","seqNoFeedback","seqFeedback"],"classroomPairings":[["A","B"],["C","D"]],"coinWeights":[0.2,0.5,0.8],"subjectId":"A3FKXJVH0K2E3E","assignmentId":"33NF62TLXKOKTNP1OGO6QHJF14QJKP","hitId":"3QGHA0EA0JM3KKNCY0PQRLYAHLBWBE","url":"https://gershmanlab.com/experiments/alicia/teaching/experiment/?hitId=3QGHA0EA0JM3KKNCY0PQRLYAHLBWBE&workerId=A3FKXJVH0K2E3E&assignmentId=33NF62TLXKOKTNP1OGO6QHJF14QJKP&a=L6N33&tp_a=L6N33&b=33NF62TLXKOKTNP1OGO6QHJF14QJKP&tp_b=33NF62TLXKOKTNP1OGO6QHJF14QJKP&c=365633&tp_c=365633"},{"rt":11672,"stimulus":"\n                <p>Student's guess for coin weight: <b style=\"color:Tomato;\">0.63</b></p>\n                <p>You received a bonus of <b>$0</b>. Total bonus so far: <b>$0.00</b></b></p>\n                <p></p>\n                <p>Press any key to continue.</p>\n                ","response":"enter","trial_type":"html-keyboard-response","trial_index":25,"time_elapsed":599937,"internal_node_id":"0.0-9.0","params":{"nStudents":24,"maxFlips":25,"completionMinutes":45,"basePay":8,"maxBonus":9,"perTrialBonus":0.5,"perTrialBonusThreshold":0.05,"exampleCost":0.02},"classroomParams":{"A":{"a":1,"b":4},"B":{"a":4,"b":1},"C":{"a":2,"b":8},"D":{"a":8,"b":2}},"conditions":["nonSeqFull","nonSeqPartial","seqNoFeedback","seqFeedback"],"classroomPairings":[["A","B"],["C","D"]],"coinWeights":[0.2,0.5,0.8],"subjectId":"A3FKXJVH0K2E3E","assignmentId":"33NF62TLXKOKTNP1OGO6QHJF14QJKP","hitId":"3QGHA0EA0JM3KKNCY0PQRLYAHLBWBE","url":"https://gershmanlab.com/experiments/alicia/teaching/experiment/?hitId=3QGHA0EA0JM3KKNCY0PQRLYAHLBWBE&workerId=A3FKXJVH0K2E3E&assignmentId=33NF62TLXKOKTNP1OGO6QHJF14QJKP&a=L6N33&tp_a=L6N33&b=33NF62TLXKOKTNP1OGO6QHJF14QJKP&tp_b=33NF62TLXKOKTNP1OGO6QHJF14QJKP&c=365633&tp_c=365633"},{"rt":null,"stimulus":"<div style=\"font-size:60px;\">Next student</div>","response":null,"trial_type":"html-keyboard-response","trial_index":26,"time_elapsed":601943,"internal_node_id":"0.0-10.0-0.0","params":{"nStudents":24,"maxFlips":25,"completionMinutes":45,"basePay":8,"maxBonus":9,"perTrialBonus":0.5,"perTrialBonusThreshold":0.05,"exampleCost":0.02},"classroomParams":{"A":{"a":1,"b":4},"B":{"a":4,"b":1},"C":{"a":2,"b":8},"D":{"a":8,"b":2}},"conditions":["nonSeqFull","nonSeqPartial","seqNoFeedback","seqFeedback"],"classroomPairings":[["A","B"],["C","D"]],"coinWeights":[0.2,0.5,0.8],"subjectId":"A3FKXJVH0K2E3E","assignmentId":"33NF62TLXKOKTNP1OGO6QHJF14QJKP","hitId":"3QGHA0EA0JM3KKNCY0PQRLYAHLBWBE","url":"https://gershmanlab.com/experiments/alicia/teaching/experiment/?hitId=3QGHA0EA0JM3KKNCY0PQRLYAHLBWBE&workerId=A3FKXJVH0K2E3E&assignmentId=33NF62TLXKOKTNP1OGO6QHJF14QJKP&a=L6N33&tp_a=L6N33&b=33NF62TLXKOKTNP1OGO6QHJF14QJKP&tp_b=33NF62TLXKOKTNP1OGO6QHJF14QJKP&c=365633&tp_c=365633"},{"rt":5824,"stimulus":"\n            <h4 style=\"color:Orange;\">Student 2</h4>\n            <h2>The weight of your coin is <b style=\"color:Tomato;\">0.2</b>.</h2>\n            <p>In this block, you will be giving <b>two</b> sets of examples to Student 2.</p>\n                <p>You will receive feedback at the end of the block.</p>\n            <p></p>","response":0,"trial_type":"html-button-response","trial_index":27,"time_elapsed":607768,"internal_node_id":"0.0-11.0","params":{"nStudents":24,"maxFlips":25,"completionMinutes":45,"basePay":8,"maxBonus":9,"perTrialBonus":0.5,"perTrialBonusThreshold":0.05,"exampleCost":0.02},"classroomParams":{"A":{"a":1,"b":4},"B":{"a":4,"b":1},"C":{"a":2,"b":8},"D":{"a":8,"b":2}},"conditions":["nonSeqFull","nonSeqPartial","seqNoFeedback","seqFeedback"],"classroomPairings":[["A","B"],["C","D"]],"coinWeights":[0.2,0.5,0.8],"subjectId":"A3FKXJVH0K2E3E","assignmentId":"33NF62TLXKOKTNP1OGO6QHJF14QJKP","hitId":"3QGHA0EA0JM3KKNCY0PQRLYAHLBWBE","url":"https://gershmanlab.com/experiments/alicia/teaching/experiment/?hitId=3QGHA0EA0JM3KKNCY0PQRLYAHLBWBE&workerId=A3FKXJVH0K2E3E&assignmentId=33NF62TLXKOKTNP1OGO6QHJF14QJKP&a=L6N33&tp_a=L6N33&b=33NF62TLXKOKTNP1OGO6QHJF14QJKP&tp_b=33NF62TLXKOKTNP1OGO6QHJF14QJKP&c=365633&tp_c=365633"},{"rt":18471,"response":{"heads":"2","tails":"8"},"type":"response","condition":"seqNoFeedback","trueTheta":0.2,"classrooms":["A","B"],"studentTrueClassroom":"B","exampleSet":"first","trial_type":"survey-html-form","trial_index":28,"time_elapsed":626241,"internal_node_id":"0.0-12.0-0.0","params":{"nStudents":24,"maxFlips":25,"completionMinutes":45,"basePay":8,"maxBonus":9,"perTrialBonus":0.5,"perTrialBonusThreshold":0.05,"exampleCost":0.02},"classroomParams":{"A":{"a":1,"b":4},"B":{"a":4,"b":1},"C":{"a":2,"b":8},"D":{"a":8,"b":2}},"conditions":["nonSeqFull","nonSeqPartial","seqNoFeedback","seqFeedback"],"classroomPairings":[["A","B"],["C","D"]],"coinWeights":[0.2,0.5,0.8],"subjectId":"A3FKXJVH0K2E3E","assignmentId":"33NF62TLXKOKTNP1OGO6QHJF14QJKP","hitId":"3QGHA0EA0JM3KKNCY0PQRLYAHLBWBE","url":"https://gershmanlab.com/experiments/alicia/teaching/experiment/?hitId=3QGHA0EA0JM3KKNCY0PQRLYAHLBWBE&workerId=A3FKXJVH0K2E3E&assignmentId=33NF62TLXKOKTNP1OGO6QHJF14QJKP&a=L6N33&tp_a=L6N33&b=33NF62TLXKOKTNP1OGO6QHJF14QJKP&tp_b=33NF62TLXKOKTNP1OGO6QHJF14QJKP&c=365633&tp_c=365633","heads":2,"tails":8,"studentIndex":1,"studentTrueHypers":{"a":4,"b":1},"studentGuess":0.4,"delta":0.2,"totalExamples":10,"bonusSoFar":0},{"rt":null,"stimulus":"Sending examples to student... ","response":null,"trial_type":"html-keyboard-response","trial_index":29,"time_elapsed":627494,"internal_node_id":"0.0-13.0","params":{"nStudents":24,"maxFlips":25,"completionMinutes":45,"basePay":8,"maxBonus":9,"perTrialBonus":0.5,"perTrialBonusThreshold":0.05,"exampleCost":0.02},"classroomParams":{"A":{"a":1,"b":4},"B":{"a":4,"b":1},"C":{"a":2,"b":8},"D":{"a":8,"b":2}},"conditions":["nonSeqFull","nonSeqPartial","seqNoFeedback","seqFeedback"],"classroomPairings":[["A","B"],["C","D"]],"coinWeights":[0.2,0.5,0.8],"subjectId":"A3FKXJVH0K2E3E","assignmentId":"33NF62TLXKOKTNP1OGO6QHJF14QJKP","hitId":"3QGHA0EA0JM3KKNCY0PQRLYAHLBWBE","url":"https://gershmanlab.com/experiments/alicia/teaching/experiment/?hitId=3QGHA0EA0JM3KKNCY0PQRLYAHLBWBE&workerId=A3FKXJVH0K2E3E&assignmentId=33NF62TLXKOKTNP1OGO6QHJF14QJKP&a=L6N33&tp_a=L6N33&b=33NF62TLXKOKTNP1OGO6QHJF14QJKP&tp_b=33NF62TLXKOKTNP1OGO6QHJF14QJKP&c=365633&tp_c=365633"},{"rt":null,"stimulus":"Examples sent to student! Waiting for student...","response":null,"trial_type":"html-keyboard-response","trial_index":30,"time_elapsed":632013,"internal_node_id":"0.0-14.0","params":{"nStudents":24,"maxFlips":25,"completionMinutes":45,"basePay":8,"maxBonus":9,"perTrialBonus":0.5,"perTrialBonusThreshold":0.05,"exampleCost":0.02},"classroomParams":{"A":{"a":1,"b":4},"B":{"a":4,"b":1},"C":{"a":2,"b":8},"D":{"a":8,"b":2}},"conditions":["nonSeqFull","nonSeqPartial","seqNoFeedback","seqFeedback"],"classroomPairings":[["A","B"],["C","D"]],"coinWeights":[0.2,0.5,0.8],"subjectId":"A3FKXJVH0K2E3E","assignmentId":"33NF62TLXKOKTNP1OGO6QHJF14QJKP","hitId":"3QGHA0EA0JM3KKNCY0PQRLYAHLBWBE","url":"https://gershmanlab.com/experiments/alicia/teaching/experiment/?hitId=3QGHA0EA0JM3KKNCY0PQRLYAHLBWBE&workerId=A3FKXJVH0K2E3E&assignmentId=33NF62TLXKOKTNP1OGO6QHJF14QJKP&a=L6N33&tp_a=L6N33&b=33NF62TLXKOKTNP1OGO6QHJF14QJKP&tp_b=33NF62TLXKOKTNP1OGO6QHJF14QJKP&c=365633&tp_c=365633"},{"rt":8771,"response":{"heads":"2","tails":"8"},"type":"response","condition":"seqNoFeedback","trueTheta":0.2,"classrooms":["A","B"],"studentTrueClassroom":"B","exampleSet":"second","trial_type":"survey-html-form","trial_index":31,"time_elapsed":640786,"internal_node_id":"0.0-15.0-0.0","params":{"nStudents":24,"maxFlips":25,"completionMinutes":45,"basePay":8,"maxBonus":9,"perTrialBonus":0.5,"perTrialBonusThreshold":0.05,"exampleCost":0.02},"classroomParams":{"A":{"a":1,"b":4},"B":{"a":4,"b":1},"C":{"a":2,"b":8},"D":{"a":8,"b":2}},"conditions":["nonSeqFull","nonSeqPartial","seqNoFeedback","seqFeedback"],"classroomPairings":[["A","B"],["C","D"]],"coinWeights":[0.2,0.5,0.8],"subjectId":"A3FKXJVH0K2E3E","assignmentId":"33NF62TLXKOKTNP1OGO6QHJF14QJKP","hitId":"3QGHA0EA0JM3KKNCY0PQRLYAHLBWBE","url":"https://gershmanlab.com/experiments/alicia/teaching/experiment/?hitId=3QGHA0EA0JM3KKNCY0PQRLYAHLBWBE&workerId=A3FKXJVH0K2E3E&assignmentId=33NF62TLXKOKTNP1OGO6QHJF14QJKP&a=L6N33&tp_a=L6N33&b=33NF62TLXKOKTNP1OGO6QHJF14QJKP&tp_b=33NF62TLXKOKTNP1OGO6QHJF14QJKP&c=365633&tp_c=365633","firstResponseHeads":2,"firstResponseTails":8,"secondResponseHeads":2,"secondResponseTails":8,"totalHeads":4,"totalTails":16,"studentIndex":1,"studentTrueHypers":{"a":4,"b":1},"studentGuess":0.32,"delta":0.12,"bonus":0,"bonusSoFar":0,"totalExamples":20},{"rt":null,"stimulus":"Sending examples to student... ","response":null,"trial_type":"html-keyboard-response","trial_index":32,"time_elapsed":642803,"internal_node_id":"0.0-16.0","params":{"nStudents":24,"maxFlips":25,"completionMinutes":45,"basePay":8,"maxBonus":9,"perTrialBonus":0.5,"perTrialBonusThreshold":0.05,"exampleCost":0.02},"classroomParams":{"A":{"a":1,"b":4},"B":{"a":4,"b":1},"C":{"a":2,"b":8},"D":{"a":8,"b":2}},"conditions":["nonSeqFull","nonSeqPartial","seqNoFeedback","seqFeedback"],"classroomPairings":[["A","B"],["C","D"]],"coinWeights":[0.2,0.5,0.8],"subjectId":"A3FKXJVH0K2E3E","assignmentId":"33NF62TLXKOKTNP1OGO6QHJF14QJKP","hitId":"3QGHA0EA0JM3KKNCY0PQRLYAHLBWBE","url":"https://gershmanlab.com/experiments/alicia/teaching/experiment/?hitId=3QGHA0EA0JM3KKNCY0PQRLYAHLBWBE&workerId=A3FKXJVH0K2E3E&assignmentId=33NF62TLXKOKTNP1OGO6QHJF14QJKP&a=L6N33&tp_a=L6N33&b=33NF62TLXKOKTNP1OGO6QHJF14QJKP&tp_b=33NF62TLXKOKTNP1OGO6QHJF14QJKP&c=365633&tp_c=365633"},{"rt":null,"stimulus":"Examples sent to student! Waiting for student...","response":null,"trial_type":"html-keyboard-response","trial_index":33,"time_elapsed":647313,"internal_node_id":"0.0-17.0","params":{"nStudents":24,"maxFlips":25,"completionMinutes":45,"basePay":8,"maxBonus":9,"perTrialBonus":0.5,"perTrialBonusThreshold":0.05,"exampleCost":0.02},"classroomParams":{"A":{"a":1,"b":4},"B":{"a":4,"b":1},"C":{"a":2,"b":8},"D":{"a":8,"b":2}},"conditions":["nonSeqFull","nonSeqPartial","seqNoFeedback","seqFeedback"],"classroomPairings":[["A","B"],["C","D"]],"coinWeights":[0.2,0.5,0.8],"subjectId":"A3FKXJVH0K2E3E","assignmentId":"33NF62TLXKOKTNP1OGO6QHJF14QJKP","hitId":"3QGHA0EA0JM3KKNCY0PQRLYAHLBWBE","url":"https://gershmanlab.com/experiments/alicia/teaching/experiment/?hitId=3QGHA0EA0JM3KKNCY0PQRLYAHLBWBE&workerId=A3FKXJVH0K2E3E&assignmentId=33NF62TLXKOKTNP1OGO6QHJF14QJKP&a=L6N33&tp_a=L6N33&b=33NF62TLXKOKTNP1OGO6QHJF14QJKP&tp_b=33NF62TLXKOKTNP1OGO6QHJF14QJKP&c=365633&tp_c=365633"},{"rt":6407,"stimulus":"\n                <p>Student 2's first guess for coin weight: <b style=\"color:Tomato\";>0.40</b></p>\n                <p>Student 2's second guess for coin weight: <b style=\"color:Tomato\";>0.32</b></p>\n                <p>You received a bonus of <b>$0.00</b> based on the student's second guess.</p>\n                <p>Total bonus so far: <b>$0.00</b></p>\n                <p>Press any key to continue.</p>\n                ","response":"enter","trial_type":"html-keyboard-response","trial_index":34,"time_elapsed":653721,"internal_node_id":"0.0-18.0","params":{"nStudents":24,"maxFlips":25,"completionMinutes":45,"basePay":8,"maxBonus":9,"perTrialBonus":0.5,"perTrialBonusThreshold":0.05,"exampleCost":0.02},"classroomParams":{"A":{"a":1,"b":4},"B":{"a":4,"b":1},"C":{"a":2,"b":8},"D":{"a":8,"b":2}},"conditions":["nonSeqFull","nonSeqPartial","seqNoFeedback","seqFeedback"],"classroomPairings":[["A","B"],["C","D"]],"coinWeights":[0.2,0.5,0.8],"subjectId":"A3FKXJVH0K2E3E","assignmentId":"33NF62TLXKOKTNP1OGO6QHJF14QJKP","hitId":"3QGHA0EA0JM3KKNCY0PQRLYAHLBWBE","url":"https://gershmanlab.com/experiments/alicia/teaching/experiment/?hitId=3QGHA0EA0JM3KKNCY0PQRLYAHLBWBE&workerId=A3FKXJVH0K2E3E&assignmentId=33NF62TLXKOKTNP1OGO6QHJF14QJKP&a=L6N33&tp_a=L6N33&b=33NF62TLXKOKTNP1OGO6QHJF14QJKP&tp_b=33NF62TLXKOKTNP1OGO6QHJF14QJKP&c=365633&tp_c=365633"},{"rt":null,"stimulus":"<div style=\"font-size:60px;\">Next student</div>","response":null,"trial_type":"html-keyboard-response","trial_index":35,"time_elapsed":656233,"internal_node_id":"0.0-19.0-0.0","params":{"nStudents":24,"maxFlips":25,"completionMinutes":45,"basePay":8,"maxBonus":9,"perTrialBonus":0.5,"perTrialBonusThreshold":0.05,"exampleCost":0.02},"classroomParams":{"A":{"a":1,"b":4},"B":{"a":4,"b":1},"C":{"a":2,"b":8},"D":{"a":8,"b":2}},"conditions":["nonSeqFull","nonSeqPartial","seqNoFeedback","seqFeedback"],"classroomPairings":[["A","B"],["C","D"]],"coinWeights":[0.2,0.5,0.8],"subjectId":"A3FKXJVH0K2E3E","assignmentId":"33NF62TLXKOKTNP1OGO6QHJF14QJKP","hitId":"3QGHA0EA0JM3KKNCY0PQRLYAHLBWBE","url":"https://gershmanlab.com/experiments/alicia/teaching/experiment/?hitId=3QGHA0EA0JM3KKNCY0PQRLYAHLBWBE&workerId=A3FKXJVH0K2E3E&assignmentId=33NF62TLXKOKTNP1OGO6QHJF14QJKP&a=L6N33&tp_a=L6N33&b=33NF62TLXKOKTNP1OGO6QHJF14QJKP&tp_b=33NF62TLXKOKTNP1OGO6QHJF14QJKP&c=365633&tp_c=365633"},{"rt":6862,"stimulus":"\n            <h4 style=\"color:Orange;\">Student 3</h4>\n            <h2>The weight of your coin is <b style=\"color:Tomato;\">0.8</b>.</h2>\n            <p>In this block, you will be giving <b>two</b> sets of examples to Student 3.</p>\n                <p>You will see the student's guess after the first set of examples. You will also receive feedback at the end of the block.</p>\n            <p>To earn the highest bonus, you will have to <b>take into consideration the student's guess</b> when you choose your second set of examples.</p>","response":0,"trial_type":"html-button-response","trial_index":36,"time_elapsed":663096,"internal_node_id":"0.0-20.0","params":{"nStudents":24,"maxFlips":25,"completionMinutes":45,"basePay":8,"maxBonus":9,"perTrialBonus":0.5,"perTrialBonusThreshold":0.05,"exampleCost":0.02},"classroomParams":{"A":{"a":1,"b":4},"B":{"a":4,"b":1},"C":{"a":2,"b":8},"D":{"a":8,"b":2}},"conditions":["nonSeqFull","nonSeqPartial","seqNoFeedback","seqFeedback"],"classroomPairings":[["A","B"],["C","D"]],"coinWeights":[0.2,0.5,0.8],"subjectId":"A3FKXJVH0K2E3E","assignmentId":"33NF62TLXKOKTNP1OGO6QHJF14QJKP","hitId":"3QGHA0EA0JM3KKNCY0PQRLYAHLBWBE","url":"https://gershmanlab.com/experiments/alicia/teaching/experiment/?hitId=3QGHA0EA0JM3KKNCY0PQRLYAHLBWBE&workerId=A3FKXJVH0K2E3E&assignmentId=33NF62TLXKOKTNP1OGO6QHJF14QJKP&a=L6N33&tp_a=L6N33&b=33NF62TLXKOKTNP1OGO6QHJF14QJKP&tp_b=33NF62TLXKOKTNP1OGO6QHJF14QJKP&c=365633&tp_c=365633"},{"rt":12355,"response":{"heads":"8","tails":"0"},"type":"response","condition":"seqFeedback","trueTheta":0.8,"classrooms":["A","B"],"studentTrueClassroom":"A","exampleSet":"first","trial_type":"survey-html-form","trial_index":37,"time_elapsed":675451,"internal_node_id":"0.0-21.0-0.0","params":{"nStudents":24,"maxFlips":25,"completionMinutes":45,"basePay":8,"maxBonus":9,"perTrialBonus":0.5,"perTrialBonusThreshold":0.05,"exampleCost":0.02},"classroomParams":{"A":{"a":1,"b":4},"B":{"a":4,"b":1},"C":{"a":2,"b":8},"D":{"a":8,"b":2}},"conditions":["nonSeqFull","nonSeqPartial","seqNoFeedback","seqFeedback"],"classroomPairings":[["A","B"],["C","D"]],"coinWeights":[0.2,0.5,0.8],"subjectId":"A3FKXJVH0K2E3E","assignmentId":"33NF62TLXKOKTNP1OGO6QHJF14QJKP","hitId":"3QGHA0EA0JM3KKNCY0PQRLYAHLBWBE","url":"https://gershmanlab.com/experiments/alicia/teaching/experiment/?hitId=3QGHA0EA0JM3KKNCY0PQRLYAHLBWBE&workerId=A3FKXJVH0K2E3E&assignmentId=33NF62TLXKOKTNP1OGO6QHJF14QJKP&a=L6N33&tp_a=L6N33&b=33NF62TLXKOKTNP1OGO6QHJF14QJKP&tp_b=33NF62TLXKOKTNP1OGO6QHJF14QJKP&c=365633&tp_c=365633","heads":8,"tails":0,"studentIndex":2,"studentTrueHypers":{"a":1,"b":4},"studentGuess":0.6923076923076923,"delta":0.10769230769230775,"totalExamples":8,"bonusSoFar":0},{"rt":null,"stimulus":"Sending examples to student... ","response":null,"trial_type":"html-keyboard-response","trial_index":38,"time_elapsed":676953,"internal_node_id":"0.0-22.0","params":{"nStudents":24,"maxFlips":25,"completionMinutes":45,"basePay":8,"maxBonus":9,"perTrialBonus":0.5,"perTrialBonusThreshold":0.05,"exampleCost":0.02},"classroomParams":{"A":{"a":1,"b":4},"B":{"a":4,"b":1},"C":{"a":2,"b":8},"D":{"a":8,"b":2}},"conditions":["nonSeqFull","nonSeqPartial","seqNoFeedback","seqFeedback"],"classroomPairings":[["A","B"],["C","D"]],"coinWeights":[0.2,0.5,0.8],"subjectId":"A3FKXJVH0K2E3E","assignmentId":"33NF62TLXKOKTNP1OGO6QHJF14QJKP","hitId":"3QGHA0EA0JM3KKNCY0PQRLYAHLBWBE","url":"https://gershmanlab.com/experiments/alicia/teaching/experiment/?hitId=3QGHA0EA0JM3KKNCY0PQRLYAHLBWBE&workerId=A3FKXJVH0K2E3E&assignmentId=33NF62TLXKOKTNP1OGO6QHJF14QJKP&a=L6N33&tp_a=L6N33&b=33NF62TLXKOKTNP1OGO6QHJF14QJKP&tp_b=33NF62TLXKOKTNP1OGO6QHJF14QJKP&c=365633&tp_c=365633"},{"rt":null,"stimulus":"Examples sent to student! Waiting for student...","response":null,"trial_type":"html-keyboard-response","trial_index":39,"time_elapsed":680968,"internal_node_id":"0.0-23.0","params":{"nStudents":24,"maxFlips":25,"completionMinutes":45,"basePay":8,"maxBonus":9,"perTrialBonus":0.5,"perTrialBonusThreshold":0.05,"exampleCost":0.02},"classroomParams":{"A":{"a":1,"b":4},"B":{"a":4,"b":1},"C":{"a":2,"b":8},"D":{"a":8,"b":2}},"conditions":["nonSeqFull","nonSeqPartial","seqNoFeedback","seqFeedback"],"classroomPairings":[["A","B"],["C","D"]],"coinWeights":[0.2,0.5,0.8],"subjectId":"A3FKXJVH0K2E3E","assignmentId":"33NF62TLXKOKTNP1OGO6QHJF14QJKP","hitId":"3QGHA0EA0JM3KKNCY0PQRLYAHLBWBE","url":"https://gershmanlab.com/experiments/alicia/teaching/experiment/?hitId=3QGHA0EA0JM3KKNCY0PQRLYAHLBWBE&workerId=A3FKXJVH0K2E3E&assignmentId=33NF62TLXKOKTNP1OGO6QHJF14QJKP&a=L6N33&tp_a=L6N33&b=33NF62TLXKOKTNP1OGO6QHJF14QJKP&tp_b=33NF62TLXKOKTNP1OGO6QHJF14QJKP&c=365633&tp_c=365633"},{"rt":4031,"stimulus":"\n                <p>Student's guess for coin weight: <b style=\"color:Tomato;\">0.69</b></p>\n                <p></b></p>\n                <p>You will now send another set of examples to your student. <b>Remember to take your student's guess into consideration so that you can earn the highest bonus possible!</b> </p>\n                <p>Press any key to continue.</p>\n                ","response":"enter","trial_type":"html-keyboard-response","trial_index":40,"time_elapsed":685001,"internal_node_id":"0.0-24.0","params":{"nStudents":24,"maxFlips":25,"completionMinutes":45,"basePay":8,"maxBonus":9,"perTrialBonus":0.5,"perTrialBonusThreshold":0.05,"exampleCost":0.02},"classroomParams":{"A":{"a":1,"b":4},"B":{"a":4,"b":1},"C":{"a":2,"b":8},"D":{"a":8,"b":2}},"conditions":["nonSeqFull","nonSeqPartial","seqNoFeedback","seqFeedback"],"classroomPairings":[["A","B"],["C","D"]],"coinWeights":[0.2,0.5,0.8],"subjectId":"A3FKXJVH0K2E3E","assignmentId":"33NF62TLXKOKTNP1OGO6QHJF14QJKP","hitId":"3QGHA0EA0JM3KKNCY0PQRLYAHLBWBE","url":"https://gershmanlab.com/experiments/alicia/teaching/experiment/?hitId=3QGHA0EA0JM3KKNCY0PQRLYAHLBWBE&workerId=A3FKXJVH0K2E3E&assignmentId=33NF62TLXKOKTNP1OGO6QHJF14QJKP&a=L6N33&tp_a=L6N33&b=33NF62TLXKOKTNP1OGO6QHJF14QJKP&tp_b=33NF62TLXKOKTNP1OGO6QHJF14QJKP&c=365633&tp_c=365633"},{"rt":5568,"response":{"heads":"8","tails":"0"},"type":"response","condition":"seqFeedback","trueTheta":0.8,"classrooms":["A","B"],"studentTrueClassroom":"A","exampleSet":"second","trial_type":"survey-html-form","trial_index":41,"time_elapsed":690569,"internal_node_id":"0.0-25.0-0.0","params":{"nStudents":24,"maxFlips":25,"completionMinutes":45,"basePay":8,"maxBonus":9,"perTrialBonus":0.5,"perTrialBonusThreshold":0.05,"exampleCost":0.02},"classroomParams":{"A":{"a":1,"b":4},"B":{"a":4,"b":1},"C":{"a":2,"b":8},"D":{"a":8,"b":2}},"conditions":["nonSeqFull","nonSeqPartial","seqNoFeedback","seqFeedback"],"classroomPairings":[["A","B"],["C","D"]],"coinWeights":[0.2,0.5,0.8],"subjectId":"A3FKXJVH0K2E3E","assignmentId":"33NF62TLXKOKTNP1OGO6QHJF14QJKP","hitId":"3QGHA0EA0JM3KKNCY0PQRLYAHLBWBE","url":"https://gershmanlab.com/experiments/alicia/teaching/experiment/?hitId=3QGHA0EA0JM3KKNCY0PQRLYAHLBWBE&workerId=A3FKXJVH0K2E3E&assignmentId=33NF62TLXKOKTNP1OGO6QHJF14QJKP&a=L6N33&tp_a=L6N33&b=33NF62TLXKOKTNP1OGO6QHJF14QJKP&tp_b=33NF62TLXKOKTNP1OGO6QHJF14QJKP&c=365633&tp_c=365633","firstResponseHeads":8,"firstResponseTails":0,"secondResponseHeads":8,"secondResponseTails":0,"totalHeads":16,"totalTails":0,"studentIndex":2,"studentTrueHypers":{"a":1,"b":4},"studentGuess":0.8095238095238095,"delta":0.00952380952380949,"bonus":0.18,"bonusSoFar":0.18,"totalExamples":16},{"rt":null,"stimulus":"Sending examples to student... ","response":null,"trial_type":"html-keyboard-response","trial_index":42,"time_elapsed":691833,"internal_node_id":"0.0-26.0","params":{"nStudents":24,"maxFlips":25,"completionMinutes":45,"basePay":8,"maxBonus":9,"perTrialBonus":0.5,"perTrialBonusThreshold":0.05,"exampleCost":0.02},"classroomParams":{"A":{"a":1,"b":4},"B":{"a":4,"b":1},"C":{"a":2,"b":8},"D":{"a":8,"b":2}},"conditions":["nonSeqFull","nonSeqPartial","seqNoFeedback","seqFeedback"],"classroomPairings":[["A","B"],["C","D"]],"coinWeights":[0.2,0.5,0.8],"subjectId":"A3FKXJVH0K2E3E","assignmentId":"33NF62TLXKOKTNP1OGO6QHJF14QJKP","hitId":"3QGHA0EA0JM3KKNCY0PQRLYAHLBWBE","url":"https://gershmanlab.com/experiments/alicia/teaching/experiment/?hitId=3QGHA0EA0JM3KKNCY0PQRLYAHLBWBE&workerId=A3FKXJVH0K2E3E&assignmentId=33NF62TLXKOKTNP1OGO6QHJF14QJKP&a=L6N33&tp_a=L6N33&b=33NF62TLXKOKTNP1OGO6QHJF14QJKP&tp_b=33NF62TLXKOKTNP1OGO6QHJF14QJKP&c=365633&tp_c=365633"},{"rt":null,"stimulus":"Examples sent to student! Waiting for student...","response":null,"trial_type":"html-keyboard-response","trial_index":43,"time_elapsed":696844,"internal_node_id":"0.0-27.0","params":{"nStudents":24,"maxFlips":25,"completionMinutes":45,"basePay":8,"maxBonus":9,"perTrialBonus":0.5,"perTrialBonusThreshold":0.05,"exampleCost":0.02},"classroomParams":{"A":{"a":1,"b":4},"B":{"a":4,"b":1},"C":{"a":2,"b":8},"D":{"a":8,"b":2}},"conditions":["nonSeqFull","nonSeqPartial","seqNoFeedback","seqFeedback"],"classroomPairings":[["A","B"],["C","D"]],"coinWeights":[0.2,0.5,0.8],"subjectId":"A3FKXJVH0K2E3E","assignmentId":"33NF62TLXKOKTNP1OGO6QHJF14QJKP","hitId":"3QGHA0EA0JM3KKNCY0PQRLYAHLBWBE","url":"https://gershmanlab.com/experiments/alicia/teaching/experiment/?hitId=3QGHA0EA0JM3KKNCY0PQRLYAHLBWBE&workerId=A3FKXJVH0K2E3E&assignmentId=33NF62TLXKOKTNP1OGO6QHJF14QJKP&a=L6N33&tp_a=L6N33&b=33NF62TLXKOKTNP1OGO6QHJF14QJKP&tp_b=33NF62TLXKOKTNP1OGO6QHJF14QJKP&c=365633&tp_c=365633"},{"rt":13772,"stimulus":"\n                <p>Student 3's first guess for coin weight: <b style=\"color:Tomato\";>0.69</b></p>\n                <p>Student 3's second guess for coin weight: <b style=\"color:Tomato\";>0.81</b></p>\n                <p>You received a bonus of <b>$0.18</b> based on the student's second guess.</p>\n                <p>Total bonus so far: <b>$0.18</b></p>\n                <p>Press any key to continue.</p>\n                ","response":"enter","trial_type":"html-keyboard-response","trial_index":44,"time_elapsed":710617,"internal_node_id":"0.0-28.0","params":{"nStudents":24,"maxFlips":25,"completionMinutes":45,"basePay":8,"maxBonus":9,"perTrialBonus":0.5,"perTrialBonusThreshold":0.05,"exampleCost":0.02},"classroomParams":{"A":{"a":1,"b":4},"B":{"a":4,"b":1},"C":{"a":2,"b":8},"D":{"a":8,"b":2}},"conditions":["nonSeqFull","nonSeqPartial","seqNoFeedback","seqFeedback"],"classroomPairings":[["A","B"],["C","D"]],"coinWeights":[0.2,0.5,0.8],"subjectId":"A3FKXJVH0K2E3E","assignmentId":"33NF62TLXKOKTNP1OGO6QHJF14QJKP","hitId":"3QGHA0EA0JM3KKNCY0PQRLYAHLBWBE","url":"https://gershmanlab.com/experiments/alicia/teaching/experiment/?hitId=3QGHA0EA0JM3KKNCY0PQRLYAHLBWBE&workerId=A3FKXJVH0K2E3E&assignmentId=33NF62TLXKOKTNP1OGO6QHJF14QJKP&a=L6N33&tp_a=L6N33&b=33NF62TLXKOKTNP1OGO6QHJF14QJKP&tp_b=33NF62TLXKOKTNP1OGO6QHJF14QJKP&c=365633&tp_c=365633"},{"rt":null,"stimulus":"<div style=\"font-size:60px;\">Next student</div>","response":null,"trial_type":"html-keyboard-response","trial_index":45,"time_elapsed":712623,"internal_node_id":"0.0-29.0-0.0","params":{"nStudents":24,"maxFlips":25,"completionMinutes":45,"basePay":8,"maxBonus":9,"perTrialBonus":0.5,"perTrialBonusThreshold":0.05,"exampleCost":0.02},"classroomParams":{"A":{"a":1,"b":4},"B":{"a":4,"b":1},"C":{"a":2,"b":8},"D":{"a":8,"b":2}},"conditions":["nonSeqFull","nonSeqPartial","seqNoFeedback","seqFeedback"],"classroomPairings":[["A","B"],["C","D"]],"coinWeights":[0.2,0.5,0.8],"subjectId":"A3FKXJVH0K2E3E","assignmentId":"33NF62TLXKOKTNP1OGO6QHJF14QJKP","hitId":"3QGHA0EA0JM3KKNCY0PQRLYAHLBWBE","url":"https://gershmanlab.com/experiments/alicia/teaching/experiment/?hitId=3QGHA0EA0JM3KKNCY0PQRLYAHLBWBE&workerId=A3FKXJVH0K2E3E&assignmentId=33NF62TLXKOKTNP1OGO6QHJF14QJKP&a=L6N33&tp_a=L6N33&b=33NF62TLXKOKTNP1OGO6QHJF14QJKP&tp_b=33NF62TLXKOKTNP1OGO6QHJF14QJKP&c=365633&tp_c=365633"},{"rt":1291,"stimulus":"\n            <h4 style=\"color:Orange;\">Student 4</h4>\n            <h2>The weight of your coin is <b style=\"color:Tomato;\">0.2</b>.</h2>\n            <p>In this block, you will be giving <b>two</b> sets of examples to Student 4.</p>\n                <p>You will receive feedback at the end of the block.</p>\n            <p></p>","response":0,"trial_type":"html-button-response","trial_index":46,"time_elapsed":713915,"internal_node_id":"0.0-30.0","params":{"nStudents":24,"maxFlips":25,"completionMinutes":45,"basePay":8,"maxBonus":9,"perTrialBonus":0.5,"perTrialBonusThreshold":0.05,"exampleCost":0.02},"classroomParams":{"A":{"a":1,"b":4},"B":{"a":4,"b":1},"C":{"a":2,"b":8},"D":{"a":8,"b":2}},"conditions":["nonSeqFull","nonSeqPartial","seqNoFeedback","seqFeedback"],"classroomPairings":[["A","B"],["C","D"]],"coinWeights":[0.2,0.5,0.8],"subjectId":"A3FKXJVH0K2E3E","assignmentId":"33NF62TLXKOKTNP1OGO6QHJF14QJKP","hitId":"3QGHA0EA0JM3KKNCY0PQRLYAHLBWBE","url":"https://gershmanlab.com/experiments/alicia/teaching/experiment/?hitId=3QGHA0EA0JM3KKNCY0PQRLYAHLBWBE&workerId=A3FKXJVH0K2E3E&assignmentId=33NF62TLXKOKTNP1OGO6QHJF14QJKP&a=L6N33&tp_a=L6N33&b=33NF62TLXKOKTNP1OGO6QHJF14QJKP&tp_b=33NF62TLXKOKTNP1OGO6QHJF14QJKP&c=365633&tp_c=365633"},{"rt":12260,"response":{"heads":"0","tails":"12"},"type":"response","condition":"seqNoFeedback","trueTheta":0.2,"classrooms":["C","D"],"studentTrueClassroom":"C","exampleSet":"first","trial_type":"survey-html-form","trial_index":47,"time_elapsed":726176,"internal_node_id":"0.0-31.0-0.0","params":{"nStudents":24,"maxFlips":25,"completionMinutes":45,"basePay":8,"maxBonus":9,"perTrialBonus":0.5,"perTrialBonusThreshold":0.05,"exampleCost":0.02},"classroomParams":{"A":{"a":1,"b":4},"B":{"a":4,"b":1},"C":{"a":2,"b":8},"D":{"a":8,"b":2}},"conditions":["nonSeqFull","nonSeqPartial","seqNoFeedback","seqFeedback"],"classroomPairings":[["A","B"],["C","D"]],"coinWeights":[0.2,0.5,0.8],"subjectId":"A3FKXJVH0K2E3E","assignmentId":"33NF62TLXKOKTNP1OGO6QHJF14QJKP","hitId":"3QGHA0EA0JM3KKNCY0PQRLYAHLBWBE","url":"https://gershmanlab.com/experiments/alicia/teaching/experiment/?hitId=3QGHA0EA0JM3KKNCY0PQRLYAHLBWBE&workerId=A3FKXJVH0K2E3E&assignmentId=33NF62TLXKOKTNP1OGO6QHJF14QJKP&a=L6N33&tp_a=L6N33&b=33NF62TLXKOKTNP1OGO6QHJF14QJKP&tp_b=33NF62TLXKOKTNP1OGO6QHJF14QJKP&c=365633&tp_c=365633","heads":0,"tails":12,"studentIndex":3,"studentTrueHypers":{"a":2,"b":8},"studentGuess":0.09090909090909091,"delta":0.1090909090909091,"totalExamples":12,"bonusSoFar":0.18},{"rt":null,"stimulus":"Sending examples to student... ","response":null,"trial_type":"html-keyboard-response","trial_index":48,"time_elapsed":727430,"internal_node_id":"0.0-32.0","params":{"nStudents":24,"maxFlips":25,"completionMinutes":45,"basePay":8,"maxBonus":9,"perTrialBonus":0.5,"perTrialBonusThreshold":0.05,"exampleCost":0.02},"classroomParams":{"A":{"a":1,"b":4},"B":{"a":4,"b":1},"C":{"a":2,"b":8},"D":{"a":8,"b":2}},"conditions":["nonSeqFull","nonSeqPartial","seqNoFeedback","seqFeedback"],"classroomPairings":[["A","B"],["C","D"]],"coinWeights":[0.2,0.5,0.8],"subjectId":"A3FKXJVH0K2E3E","assignmentId":"33NF62TLXKOKTNP1OGO6QHJF14QJKP","hitId":"3QGHA0EA0JM3KKNCY0PQRLYAHLBWBE","url":"https://gershmanlab.com/experiments/alicia/teaching/experiment/?hitId=3QGHA0EA0JM3KKNCY0PQRLYAHLBWBE&workerId=A3FKXJVH0K2E3E&assignmentId=33NF62TLXKOKTNP1OGO6QHJF14QJKP&a=L6N33&tp_a=L6N33&b=33NF62TLXKOKTNP1OGO6QHJF14QJKP&tp_b=33NF62TLXKOKTNP1OGO6QHJF14QJKP&c=365633&tp_c=365633"},{"rt":null,"stimulus":"Examples sent to student! Waiting for student...","response":null,"trial_type":"html-keyboard-response","trial_index":49,"time_elapsed":733438,"internal_node_id":"0.0-33.0","params":{"nStudents":24,"maxFlips":25,"completionMinutes":45,"basePay":8,"maxBonus":9,"perTrialBonus":0.5,"perTrialBonusThreshold":0.05,"exampleCost":0.02},"classroomParams":{"A":{"a":1,"b":4},"B":{"a":4,"b":1},"C":{"a":2,"b":8},"D":{"a":8,"b":2}},"conditions":["nonSeqFull","nonSeqPartial","seqNoFeedback","seqFeedback"],"classroomPairings":[["A","B"],["C","D"]],"coinWeights":[0.2,0.5,0.8],"subjectId":"A3FKXJVH0K2E3E","assignmentId":"33NF62TLXKOKTNP1OGO6QHJF14QJKP","hitId":"3QGHA0EA0JM3KKNCY0PQRLYAHLBWBE","url":"https://gershmanlab.com/experiments/alicia/teaching/experiment/?hitId=3QGHA0EA0JM3KKNCY0PQRLYAHLBWBE&workerId=A3FKXJVH0K2E3E&assignmentId=33NF62TLXKOKTNP1OGO6QHJF14QJKP&a=L6N33&tp_a=L6N33&b=33NF62TLXKOKTNP1OGO6QHJF14QJKP&tp_b=33NF62TLXKOKTNP1OGO6QHJF14QJKP&c=365633&tp_c=365633"},{"rt":7397,"response":{"heads":"0","tails":"12"},"type":"response","condition":"seqNoFeedback","trueTheta":0.2,"classrooms":["C","D"],"studentTrueClassroom":"C","exampleSet":"second","trial_type":"survey-html-form","trial_index":50,"time_elapsed":740837,"internal_node_id":"0.0-34.0-0.0","params":{"nStudents":24,"maxFlips":25,"completionMinutes":45,"basePay":8,"maxBonus":9,"perTrialBonus":0.5,"perTrialBonusThreshold":0.05,"exampleCost":0.02},"classroomParams":{"A":{"a":1,"b":4},"B":{"a":4,"b":1},"C":{"a":2,"b":8},"D":{"a":8,"b":2}},"conditions":["nonSeqFull","nonSeqPartial","seqNoFeedback","seqFeedback"],"classroomPairings":[["A","B"],["C","D"]],"coinWeights":[0.2,0.5,0.8],"subjectId":"A3FKXJVH0K2E3E","assignmentId":"33NF62TLXKOKTNP1OGO6QHJF14QJKP","hitId":"3QGHA0EA0JM3KKNCY0PQRLYAHLBWBE","url":"https://gershmanlab.com/experiments/alicia/teaching/experiment/?hitId=3QGHA0EA0JM3KKNCY0PQRLYAHLBWBE&workerId=A3FKXJVH0K2E3E&assignmentId=33NF62TLXKOKTNP1OGO6QHJF14QJKP&a=L6N33&tp_a=L6N33&b=33NF62TLXKOKTNP1OGO6QHJF14QJKP&tp_b=33NF62TLXKOKTNP1OGO6QHJF14QJKP&c=365633&tp_c=365633","firstResponseHeads":0,"firstResponseTails":12,"secondResponseHeads":0,"secondResponseTails":12,"totalHeads":0,"totalTails":24,"studentIndex":3,"studentTrueHypers":{"a":2,"b":8},"studentGuess":0.058823529411764705,"delta":0.1411764705882353,"bonus":0,"bonusSoFar":0.18,"totalExamples":24},{"rt":null,"stimulus":"Sending examples to student... ","response":null,"trial_type":"html-keyboard-response","trial_index":51,"time_elapsed":742103,"internal_node_id":"0.0-35.0","params":{"nStudents":24,"maxFlips":25,"completionMinutes":45,"basePay":8,"maxBonus":9,"perTrialBonus":0.5,"perTrialBonusThreshold":0.05,"exampleCost":0.02},"classroomParams":{"A":{"a":1,"b":4},"B":{"a":4,"b":1},"C":{"a":2,"b":8},"D":{"a":8,"b":2}},"conditions":["nonSeqFull","nonSeqPartial","seqNoFeedback","seqFeedback"],"classroomPairings":[["A","B"],["C","D"]],"coinWeights":[0.2,0.5,0.8],"subjectId":"A3FKXJVH0K2E3E","assignmentId":"33NF62TLXKOKTNP1OGO6QHJF14QJKP","hitId":"3QGHA0EA0JM3KKNCY0PQRLYAHLBWBE","url":"https://gershmanlab.com/experiments/alicia/teaching/experiment/?hitId=3QGHA0EA0JM3KKNCY0PQRLYAHLBWBE&workerId=A3FKXJVH0K2E3E&assignmentId=33NF62TLXKOKTNP1OGO6QHJF14QJKP&a=L6N33&tp_a=L6N33&b=33NF62TLXKOKTNP1OGO6QHJF14QJKP&tp_b=33NF62TLXKOKTNP1OGO6QHJF14QJKP&c=365633&tp_c=365633"},{"rt":null,"stimulus":"Examples sent to student! Waiting for student...","response":null,"trial_type":"html-keyboard-response","trial_index":52,"time_elapsed":746114,"internal_node_id":"0.0-36.0","params":{"nStudents":24,"maxFlips":25,"completionMinutes":45,"basePay":8,"maxBonus":9,"perTrialBonus":0.5,"perTrialBonusThreshold":0.05,"exampleCost":0.02},"classroomParams":{"A":{"a":1,"b":4},"B":{"a":4,"b":1},"C":{"a":2,"b":8},"D":{"a":8,"b":2}},"conditions":["nonSeqFull","nonSeqPartial","seqNoFeedback","seqFeedback"],"classroomPairings":[["A","B"],["C","D"]],"coinWeights":[0.2,0.5,0.8],"subjectId":"A3FKXJVH0K2E3E","assignmentId":"33NF62TLXKOKTNP1OGO6QHJF14QJKP","hitId":"3QGHA0EA0JM3KKNCY0PQRLYAHLBWBE","url":"https://gershmanlab.com/experiments/alicia/teaching/experiment/?hitId=3QGHA0EA0JM3KKNCY0PQRLYAHLBWBE&workerId=A3FKXJVH0K2E3E&assignmentId=33NF62TLXKOKTNP1OGO6QHJF14QJKP&a=L6N33&tp_a=L6N33&b=33NF62TLXKOKTNP1OGO6QHJF14QJKP&tp_b=33NF62TLXKOKTNP1OGO6QHJF14QJKP&c=365633&tp_c=365633"},{"rt":18958,"stimulus":"\n                <p>Student 4's first guess for coin weight: <b style=\"color:Tomato\";>0.09</b></p>\n                <p>Student 4's second guess for coin weight: <b style=\"color:Tomato\";>0.06</b></p>\n                <p>You received a bonus of <b>$0.00</b> based on the student's second guess.</p>\n                <p>Total bonus so far: <b>$0.18</b></p>\n                <p>Press any key to continue.</p>\n                ","response":"enter","trial_type":"html-keyboard-response","trial_index":53,"time_elapsed":765073,"internal_node_id":"0.0-37.0","params":{"nStudents":24,"maxFlips":25,"completionMinutes":45,"basePay":8,"maxBonus":9,"perTrialBonus":0.5,"perTrialBonusThreshold":0.05,"exampleCost":0.02},"classroomParams":{"A":{"a":1,"b":4},"B":{"a":4,"b":1},"C":{"a":2,"b":8},"D":{"a":8,"b":2}},"conditions":["nonSeqFull","nonSeqPartial","seqNoFeedback","seqFeedback"],"classroomPairings":[["A","B"],["C","D"]],"coinWeights":[0.2,0.5,0.8],"subjectId":"A3FKXJVH0K2E3E","assignmentId":"33NF62TLXKOKTNP1OGO6QHJF14QJKP","hitId":"3QGHA0EA0JM3KKNCY0PQRLYAHLBWBE","url":"https://gershmanlab.com/experiments/alicia/teaching/experiment/?hitId=3QGHA0EA0JM3KKNCY0PQRLYAHLBWBE&workerId=A3FKXJVH0K2E3E&assignmentId=33NF62TLXKOKTNP1OGO6QHJF14QJKP&a=L6N33&tp_a=L6N33&b=33NF62TLXKOKTNP1OGO6QHJF14QJKP&tp_b=33NF62TLXKOKTNP1OGO6QHJF14QJKP&c=365633&tp_c=365633"},{"rt":null,"stimulus":"<div style=\"font-size:60px;\">Next student</div>","response":null,"trial_type":"html-keyboard-response","trial_index":54,"time_elapsed":767093,"internal_node_id":"0.0-38.0-0.0","params":{"nStudents":24,"maxFlips":25,"completionMinutes":45,"basePay":8,"maxBonus":9,"perTrialBonus":0.5,"perTrialBonusThreshold":0.05,"exampleCost":0.02},"classroomParams":{"A":{"a":1,"b":4},"B":{"a":4,"b":1},"C":{"a":2,"b":8},"D":{"a":8,"b":2}},"conditions":["nonSeqFull","nonSeqPartial","seqNoFeedback","seqFeedback"],"classroomPairings":[["A","B"],["C","D"]],"coinWeights":[0.2,0.5,0.8],"subjectId":"A3FKXJVH0K2E3E","assignmentId":"33NF62TLXKOKTNP1OGO6QHJF14QJKP","hitId":"3QGHA0EA0JM3KKNCY0PQRLYAHLBWBE","url":"https://gershmanlab.com/experiments/alicia/teaching/experiment/?hitId=3QGHA0EA0JM3KKNCY0PQRLYAHLBWBE&workerId=A3FKXJVH0K2E3E&assignmentId=33NF62TLXKOKTNP1OGO6QHJF14QJKP&a=L6N33&tp_a=L6N33&b=33NF62TLXKOKTNP1OGO6QHJF14QJKP&tp_b=33NF62TLXKOKTNP1OGO6QHJF14QJKP&c=365633&tp_c=365633"},{"rt":6536,"stimulus":"\n            <h4 style=\"color:Orange;\">Student 5</h4>\n            <h2>The weight of your coin is <b style=\"color:Tomato;\">0.5</b>.</h2>\n            <p>In this block, you will be giving <b>two</b> sets of examples to Student 5.</p>\n                <p>You will receive feedback at the end of the block.</p>\n            <p></p>","response":0,"trial_type":"html-button-response","trial_index":55,"time_elapsed":773631,"internal_node_id":"0.0-39.0","params":{"nStudents":24,"maxFlips":25,"completionMinutes":45,"basePay":8,"maxBonus":9,"perTrialBonus":0.5,"perTrialBonusThreshold":0.05,"exampleCost":0.02},"classroomParams":{"A":{"a":1,"b":4},"B":{"a":4,"b":1},"C":{"a":2,"b":8},"D":{"a":8,"b":2}},"conditions":["nonSeqFull","nonSeqPartial","seqNoFeedback","seqFeedback"],"classroomPairings":[["A","B"],["C","D"]],"coinWeights":[0.2,0.5,0.8],"subjectId":"A3FKXJVH0K2E3E","assignmentId":"33NF62TLXKOKTNP1OGO6QHJF14QJKP","hitId":"3QGHA0EA0JM3KKNCY0PQRLYAHLBWBE","url":"https://gershmanlab.com/experiments/alicia/teaching/experiment/?hitId=3QGHA0EA0JM3KKNCY0PQRLYAHLBWBE&workerId=A3FKXJVH0K2E3E&assignmentId=33NF62TLXKOKTNP1OGO6QHJF14QJKP&a=L6N33&tp_a=L6N33&b=33NF62TLXKOKTNP1OGO6QHJF14QJKP&tp_b=33NF62TLXKOKTNP1OGO6QHJF14QJKP&c=365633&tp_c=365633"},{"rt":8094,"response":{"heads":"4","tails":"4"},"type":"response","condition":"seqNoFeedback","trueTheta":0.5,"classrooms":["A","B"],"studentTrueClassroom":"A","exampleSet":"first","trial_type":"survey-html-form","trial_index":56,"time_elapsed":781726,"internal_node_id":"0.0-40.0-0.0","params":{"nStudents":24,"maxFlips":25,"completionMinutes":45,"basePay":8,"maxBonus":9,"perTrialBonus":0.5,"perTrialBonusThreshold":0.05,"exampleCost":0.02},"classroomParams":{"A":{"a":1,"b":4},"B":{"a":4,"b":1},"C":{"a":2,"b":8},"D":{"a":8,"b":2}},"conditions":["nonSeqFull","nonSeqPartial","seqNoFeedback","seqFeedback"],"classroomPairings":[["A","B"],["C","D"]],"coinWeights":[0.2,0.5,0.8],"subjectId":"A3FKXJVH0K2E3E","assignmentId":"33NF62TLXKOKTNP1OGO6QHJF14QJKP","hitId":"3QGHA0EA0JM3KKNCY0PQRLYAHLBWBE","url":"https://gershmanlab.com/experiments/alicia/teaching/experiment/?hitId=3QGHA0EA0JM3KKNCY0PQRLYAHLBWBE&workerId=A3FKXJVH0K2E3E&assignmentId=33NF62TLXKOKTNP1OGO6QHJF14QJKP&a=L6N33&tp_a=L6N33&b=33NF62TLXKOKTNP1OGO6QHJF14QJKP&tp_b=33NF62TLXKOKTNP1OGO6QHJF14QJKP&c=365633&tp_c=365633","heads":4,"tails":4,"studentIndex":4,"studentTrueHypers":{"a":1,"b":4},"studentGuess":0.38461538461538464,"delta":0.11538461538461536,"totalExamples":8,"bonusSoFar":0.18},{"rt":null,"stimulus":"Sending examples to student... ","response":null,"trial_type":"html-keyboard-response","trial_index":57,"time_elapsed":783736,"internal_node_id":"0.0-41.0","params":{"nStudents":24,"maxFlips":25,"completionMinutes":45,"basePay":8,"maxBonus":9,"perTrialBonus":0.5,"perTrialBonusThreshold":0.05,"exampleCost":0.02},"classroomParams":{"A":{"a":1,"b":4},"B":{"a":4,"b":1},"C":{"a":2,"b":8},"D":{"a":8,"b":2}},"conditions":["nonSeqFull","nonSeqPartial","seqNoFeedback","seqFeedback"],"classroomPairings":[["A","B"],["C","D"]],"coinWeights":[0.2,0.5,0.8],"subjectId":"A3FKXJVH0K2E3E","assignmentId":"33NF62TLXKOKTNP1OGO6QHJF14QJKP","hitId":"3QGHA0EA0JM3KKNCY0PQRLYAHLBWBE","url":"https://gershmanlab.com/experiments/alicia/teaching/experiment/?hitId=3QGHA0EA0JM3KKNCY0PQRLYAHLBWBE&workerId=A3FKXJVH0K2E3E&assignmentId=33NF62TLXKOKTNP1OGO6QHJF14QJKP&a=L6N33&tp_a=L6N33&b=33NF62TLXKOKTNP1OGO6QHJF14QJKP&tp_b=33NF62TLXKOKTNP1OGO6QHJF14QJKP&c=365633&tp_c=365633"},{"rt":null,"stimulus":"Examples sent to student! Waiting for student...","response":null,"trial_type":"html-keyboard-response","trial_index":58,"time_elapsed":787743,"internal_node_id":"0.0-42.0","params":{"nStudents":24,"maxFlips":25,"completionMinutes":45,"basePay":8,"maxBonus":9,"perTrialBonus":0.5,"perTrialBonusThreshold":0.05,"exampleCost":0.02},"classroomParams":{"A":{"a":1,"b":4},"B":{"a":4,"b":1},"C":{"a":2,"b":8},"D":{"a":8,"b":2}},"conditions":["nonSeqFull","nonSeqPartial","seqNoFeedback","seqFeedback"],"classroomPairings":[["A","B"],["C","D"]],"coinWeights":[0.2,0.5,0.8],"subjectId":"A3FKXJVH0K2E3E","assignmentId":"33NF62TLXKOKTNP1OGO6QHJF14QJKP","hitId":"3QGHA0EA0JM3KKNCY0PQRLYAHLBWBE","url":"https://gershmanlab.com/experiments/alicia/teaching/experiment/?hitId=3QGHA0EA0JM3KKNCY0PQRLYAHLBWBE&workerId=A3FKXJVH0K2E3E&assignmentId=33NF62TLXKOKTNP1OGO6QHJF14QJKP&a=L6N33&tp_a=L6N33&b=33NF62TLXKOKTNP1OGO6QHJF14QJKP&tp_b=33NF62TLXKOKTNP1OGO6QHJF14QJKP&c=365633&tp_c=365633"},{"rt":8916,"response":{"heads":"4","tails":"4"},"type":"response","condition":"seqNoFeedback","trueTheta":0.5,"classrooms":["A","B"],"studentTrueClassroom":"A","exampleSet":"second","trial_type":"survey-html-form","trial_index":59,"time_elapsed":796660,"internal_node_id":"0.0-43.0-0.0","params":{"nStudents":24,"maxFlips":25,"completionMinutes":45,"basePay":8,"maxBonus":9,"perTrialBonus":0.5,"perTrialBonusThreshold":0.05,"exampleCost":0.02},"classroomParams":{"A":{"a":1,"b":4},"B":{"a":4,"b":1},"C":{"a":2,"b":8},"D":{"a":8,"b":2}},"conditions":["nonSeqFull","nonSeqPartial","seqNoFeedback","seqFeedback"],"classroomPairings":[["A","B"],["C","D"]],"coinWeights":[0.2,0.5,0.8],"subjectId":"A3FKXJVH0K2E3E","assignmentId":"33NF62TLXKOKTNP1OGO6QHJF14QJKP","hitId":"3QGHA0EA0JM3KKNCY0PQRLYAHLBWBE","url":"https://gershmanlab.com/experiments/alicia/teaching/experiment/?hitId=3QGHA0EA0JM3KKNCY0PQRLYAHLBWBE&workerId=A3FKXJVH0K2E3E&assignmentId=33NF62TLXKOKTNP1OGO6QHJF14QJKP&a=L6N33&tp_a=L6N33&b=33NF62TLXKOKTNP1OGO6QHJF14QJKP&tp_b=33NF62TLXKOKTNP1OGO6QHJF14QJKP&c=365633&tp_c=365633","firstResponseHeads":4,"firstResponseTails":4,"secondResponseHeads":4,"secondResponseTails":4,"totalHeads":8,"totalTails":8,"studentIndex":4,"studentTrueHypers":{"a":1,"b":4},"studentGuess":0.42857142857142855,"delta":0.07142857142857145,"bonus":0,"bonusSoFar":0.18,"totalExamples":16},{"rt":null,"stimulus":"Sending examples to student... ","response":null,"trial_type":"html-keyboard-response","trial_index":60,"time_elapsed":798674,"internal_node_id":"0.0-44.0","params":{"nStudents":24,"maxFlips":25,"completionMinutes":45,"basePay":8,"maxBonus":9,"perTrialBonus":0.5,"perTrialBonusThreshold":0.05,"exampleCost":0.02},"classroomParams":{"A":{"a":1,"b":4},"B":{"a":4,"b":1},"C":{"a":2,"b":8},"D":{"a":8,"b":2}},"conditions":["nonSeqFull","nonSeqPartial","seqNoFeedback","seqFeedback"],"classroomPairings":[["A","B"],["C","D"]],"coinWeights":[0.2,0.5,0.8],"subjectId":"A3FKXJVH0K2E3E","assignmentId":"33NF62TLXKOKTNP1OGO6QHJF14QJKP","hitId":"3QGHA0EA0JM3KKNCY0PQRLYAHLBWBE","url":"https://gershmanlab.com/experiments/alicia/teaching/experiment/?hitId=3QGHA0EA0JM3KKNCY0PQRLYAHLBWBE&workerId=A3FKXJVH0K2E3E&assignmentId=33NF62TLXKOKTNP1OGO6QHJF14QJKP&a=L6N33&tp_a=L6N33&b=33NF62TLXKOKTNP1OGO6QHJF14QJKP&tp_b=33NF62TLXKOKTNP1OGO6QHJF14QJKP&c=365633&tp_c=365633"},{"rt":null,"stimulus":"Examples sent to student! Waiting for student...","response":null,"trial_type":"html-keyboard-response","trial_index":61,"time_elapsed":803675,"internal_node_id":"0.0-45.0","params":{"nStudents":24,"maxFlips":25,"completionMinutes":45,"basePay":8,"maxBonus":9,"perTrialBonus":0.5,"perTrialBonusThreshold":0.05,"exampleCost":0.02},"classroomParams":{"A":{"a":1,"b":4},"B":{"a":4,"b":1},"C":{"a":2,"b":8},"D":{"a":8,"b":2}},"conditions":["nonSeqFull","nonSeqPartial","seqNoFeedback","seqFeedback"],"classroomPairings":[["A","B"],["C","D"]],"coinWeights":[0.2,0.5,0.8],"subjectId":"A3FKXJVH0K2E3E","assignmentId":"33NF62TLXKOKTNP1OGO6QHJF14QJKP","hitId":"3QGHA0EA0JM3KKNCY0PQRLYAHLBWBE","url":"https://gershmanlab.com/experiments/alicia/teaching/experiment/?hitId=3QGHA0EA0JM3KKNCY0PQRLYAHLBWBE&workerId=A3FKXJVH0K2E3E&assignmentId=33NF62TLXKOKTNP1OGO6QHJF14QJKP&a=L6N33&tp_a=L6N33&b=33NF62TLXKOKTNP1OGO6QHJF14QJKP&tp_b=33NF62TLXKOKTNP1OGO6QHJF14QJKP&c=365633&tp_c=365633"},{"rt":13197,"stimulus":"\n                <p>Student 5's first guess for coin weight: <b style=\"color:Tomato\";>0.38</b></p>\n                <p>Student 5's second guess for coin weight: <b style=\"color:Tomato\";>0.43</b></p>\n                <p>You received a bonus of <b>$0.00</b> based on the student's second guess.</p>\n                <p>Total bonus so far: <b>$0.18</b></p>\n                <p>Press any key to continue.</p>\n                ","response":"enter","trial_type":"html-keyboard-response","trial_index":62,"time_elapsed":816873,"internal_node_id":"0.0-46.0","params":{"nStudents":24,"maxFlips":25,"completionMinutes":45,"basePay":8,"maxBonus":9,"perTrialBonus":0.5,"perTrialBonusThreshold":0.05,"exampleCost":0.02},"classroomParams":{"A":{"a":1,"b":4},"B":{"a":4,"b":1},"C":{"a":2,"b":8},"D":{"a":8,"b":2}},"conditions":["nonSeqFull","nonSeqPartial","seqNoFeedback","seqFeedback"],"classroomPairings":[["A","B"],["C","D"]],"coinWeights":[0.2,0.5,0.8],"subjectId":"A3FKXJVH0K2E3E","assignmentId":"33NF62TLXKOKTNP1OGO6QHJF14QJKP","hitId":"3QGHA0EA0JM3KKNCY0PQRLYAHLBWBE","url":"https://gershmanlab.com/experiments/alicia/teaching/experiment/?hitId=3QGHA0EA0JM3KKNCY0PQRLYAHLBWBE&workerId=A3FKXJVH0K2E3E&assignmentId=33NF62TLXKOKTNP1OGO6QHJF14QJKP&a=L6N33&tp_a=L6N33&b=33NF62TLXKOKTNP1OGO6QHJF14QJKP&tp_b=33NF62TLXKOKTNP1OGO6QHJF14QJKP&c=365633&tp_c=365633"},{"rt":null,"stimulus":"<div style=\"font-size:60px;\">Next student</div>","response":null,"trial_type":"html-keyboard-response","trial_index":63,"time_elapsed":819143,"internal_node_id":"0.0-47.0-0.0","params":{"nStudents":24,"maxFlips":25,"completionMinutes":45,"basePay":8,"maxBonus":9,"perTrialBonus":0.5,"perTrialBonusThreshold":0.05,"exampleCost":0.02},"classroomParams":{"A":{"a":1,"b":4},"B":{"a":4,"b":1},"C":{"a":2,"b":8},"D":{"a":8,"b":2}},"conditions":["nonSeqFull","nonSeqPartial","seqNoFeedback","seqFeedback"],"classroomPairings":[["A","B"],["C","D"]],"coinWeights":[0.2,0.5,0.8],"subjectId":"A3FKXJVH0K2E3E","assignmentId":"33NF62TLXKOKTNP1OGO6QHJF14QJKP","hitId":"3QGHA0EA0JM3KKNCY0PQRLYAHLBWBE","url":"https://gershmanlab.com/experiments/alicia/teaching/experiment/?hitId=3QGHA0EA0JM3KKNCY0PQRLYAHLBWBE&workerId=A3FKXJVH0K2E3E&assignmentId=33NF62TLXKOKTNP1OGO6QHJF14QJKP&a=L6N33&tp_a=L6N33&b=33NF62TLXKOKTNP1OGO6QHJF14QJKP&tp_b=33NF62TLXKOKTNP1OGO6QHJF14QJKP&c=365633&tp_c=365633"},{"rt":6674,"stimulus":"\n            <h4 style=\"color:Orange;\">Student 6</h4>\n            <h2>The weight of your coin is <b style=\"color:Tomato;\">0.2</b>.</h2>\n            <p>In this block, you will be giving <b>two</b> sets of examples to Student 6.</p>\n                <p>You will see the student's guess after the first set of examples. You will also receive feedback at the end of the block.</p>\n            <p>To earn the highest bonus, you will have to <b>take into consideration the student's guess</b> when you choose your second set of examples.</p>","response":0,"trial_type":"html-button-response","trial_index":64,"time_elapsed":825818,"internal_node_id":"0.0-48.0","params":{"nStudents":24,"maxFlips":25,"completionMinutes":45,"basePay":8,"maxBonus":9,"perTrialBonus":0.5,"perTrialBonusThreshold":0.05,"exampleCost":0.02},"classroomParams":{"A":{"a":1,"b":4},"B":{"a":4,"b":1},"C":{"a":2,"b":8},"D":{"a":8,"b":2}},"conditions":["nonSeqFull","nonSeqPartial","seqNoFeedback","seqFeedback"],"classroomPairings":[["A","B"],["C","D"]],"coinWeights":[0.2,0.5,0.8],"subjectId":"A3FKXJVH0K2E3E","assignmentId":"33NF62TLXKOKTNP1OGO6QHJF14QJKP","hitId":"3QGHA0EA0JM3KKNCY0PQRLYAHLBWBE","url":"https://gershmanlab.com/experiments/alicia/teaching/experiment/?hitId=3QGHA0EA0JM3KKNCY0PQRLYAHLBWBE&workerId=A3FKXJVH0K2E3E&assignmentId=33NF62TLXKOKTNP1OGO6QHJF14QJKP&a=L6N33&tp_a=L6N33&b=33NF62TLXKOKTNP1OGO6QHJF14QJKP&tp_b=33NF62TLXKOKTNP1OGO6QHJF14QJKP&c=365633&tp_c=365633"},{"rt":8644,"response":{"heads":"0","tails":"8"},"type":"response","condition":"seqFeedback","trueTheta":0.2,"classrooms":["A","B"],"studentTrueClassroom":"A","exampleSet":"first","trial_type":"survey-html-form","trial_index":65,"time_elapsed":834463,"internal_node_id":"0.0-49.0-0.0","params":{"nStudents":24,"maxFlips":25,"completionMinutes":45,"basePay":8,"maxBonus":9,"perTrialBonus":0.5,"perTrialBonusThreshold":0.05,"exampleCost":0.02},"classroomParams":{"A":{"a":1,"b":4},"B":{"a":4,"b":1},"C":{"a":2,"b":8},"D":{"a":8,"b":2}},"conditions":["nonSeqFull","nonSeqPartial","seqNoFeedback","seqFeedback"],"classroomPairings":[["A","B"],["C","D"]],"coinWeights":[0.2,0.5,0.8],"subjectId":"A3FKXJVH0K2E3E","assignmentId":"33NF62TLXKOKTNP1OGO6QHJF14QJKP","hitId":"3QGHA0EA0JM3KKNCY0PQRLYAHLBWBE","url":"https://gershmanlab.com/experiments/alicia/teaching/experiment/?hitId=3QGHA0EA0JM3KKNCY0PQRLYAHLBWBE&workerId=A3FKXJVH0K2E3E&assignmentId=33NF62TLXKOKTNP1OGO6QHJF14QJKP&a=L6N33&tp_a=L6N33&b=33NF62TLXKOKTNP1OGO6QHJF14QJKP&tp_b=33NF62TLXKOKTNP1OGO6QHJF14QJKP&c=365633&tp_c=365633","heads":0,"tails":8,"studentIndex":5,"studentTrueHypers":{"a":1,"b":4},"studentGuess":0.07692307692307693,"delta":0.12307692307692308,"totalExamples":8,"bonusSoFar":0.18},{"rt":null,"stimulus":"Sending examples to student... ","response":null,"trial_type":"html-keyboard-response","trial_index":66,"time_elapsed":836234,"internal_node_id":"0.0-50.0","params":{"nStudents":24,"maxFlips":25,"completionMinutes":45,"basePay":8,"maxBonus":9,"perTrialBonus":0.5,"perTrialBonusThreshold":0.05,"exampleCost":0.02},"classroomParams":{"A":{"a":1,"b":4},"B":{"a":4,"b":1},"C":{"a":2,"b":8},"D":{"a":8,"b":2}},"conditions":["nonSeqFull","nonSeqPartial","seqNoFeedback","seqFeedback"],"classroomPairings":[["A","B"],["C","D"]],"coinWeights":[0.2,0.5,0.8],"subjectId":"A3FKXJVH0K2E3E","assignmentId":"33NF62TLXKOKTNP1OGO6QHJF14QJKP","hitId":"3QGHA0EA0JM3KKNCY0PQRLYAHLBWBE","url":"https://gershmanlab.com/experiments/alicia/teaching/experiment/?hitId=3QGHA0EA0JM3KKNCY0PQRLYAHLBWBE&workerId=A3FKXJVH0K2E3E&assignmentId=33NF62TLXKOKTNP1OGO6QHJF14QJKP&a=L6N33&tp_a=L6N33&b=33NF62TLXKOKTNP1OGO6QHJF14QJKP&tp_b=33NF62TLXKOKTNP1OGO6QHJF14QJKP&c=365633&tp_c=365633"},{"rt":null,"stimulus":"Examples sent to student! Waiting for student...","response":null,"trial_type":"html-keyboard-response","trial_index":67,"time_elapsed":841253,"internal_node_id":"0.0-51.0","params":{"nStudents":24,"maxFlips":25,"completionMinutes":45,"basePay":8,"maxBonus":9,"perTrialBonus":0.5,"perTrialBonusThreshold":0.05,"exampleCost":0.02},"classroomParams":{"A":{"a":1,"b":4},"B":{"a":4,"b":1},"C":{"a":2,"b":8},"D":{"a":8,"b":2}},"conditions":["nonSeqFull","nonSeqPartial","seqNoFeedback","seqFeedback"],"classroomPairings":[["A","B"],["C","D"]],"coinWeights":[0.2,0.5,0.8],"subjectId":"A3FKXJVH0K2E3E","assignmentId":"33NF62TLXKOKTNP1OGO6QHJF14QJKP","hitId":"3QGHA0EA0JM3KKNCY0PQRLYAHLBWBE","url":"https://gershmanlab.com/experiments/alicia/teaching/experiment/?hitId=3QGHA0EA0JM3KKNCY0PQRLYAHLBWBE&workerId=A3FKXJVH0K2E3E&assignmentId=33NF62TLXKOKTNP1OGO6QHJF14QJKP&a=L6N33&tp_a=L6N33&b=33NF62TLXKOKTNP1OGO6QHJF14QJKP&tp_b=33NF62TLXKOKTNP1OGO6QHJF14QJKP&c=365633&tp_c=365633"},{"rt":8659,"stimulus":"\n                <p>Student's guess for coin weight: <b style=\"color:Tomato;\">0.08</b></p>\n                <p></b></p>\n                <p>You will now send another set of examples to your student. <b>Remember to take your student's guess into consideration so that you can earn the highest bonus possible!</b> </p>\n                <p>Press any key to continue.</p>\n                ","response":"enter","trial_type":"html-keyboard-response","trial_index":68,"time_elapsed":849913,"internal_node_id":"0.0-52.0","params":{"nStudents":24,"maxFlips":25,"completionMinutes":45,"basePay":8,"maxBonus":9,"perTrialBonus":0.5,"perTrialBonusThreshold":0.05,"exampleCost":0.02},"classroomParams":{"A":{"a":1,"b":4},"B":{"a":4,"b":1},"C":{"a":2,"b":8},"D":{"a":8,"b":2}},"conditions":["nonSeqFull","nonSeqPartial","seqNoFeedback","seqFeedback"],"classroomPairings":[["A","B"],["C","D"]],"coinWeights":[0.2,0.5,0.8],"subjectId":"A3FKXJVH0K2E3E","assignmentId":"33NF62TLXKOKTNP1OGO6QHJF14QJKP","hitId":"3QGHA0EA0JM3KKNCY0PQRLYAHLBWBE","url":"https://gershmanlab.com/experiments/alicia/teaching/experiment/?hitId=3QGHA0EA0JM3KKNCY0PQRLYAHLBWBE&workerId=A3FKXJVH0K2E3E&assignmentId=33NF62TLXKOKTNP1OGO6QHJF14QJKP&a=L6N33&tp_a=L6N33&b=33NF62TLXKOKTNP1OGO6QHJF14QJKP&tp_b=33NF62TLXKOKTNP1OGO6QHJF14QJKP&c=365633&tp_c=365633"},{"rt":10801,"response":{"heads":"0","tails":"8"},"type":"response","condition":"seqFeedback","trueTheta":0.2,"classrooms":["A","B"],"studentTrueClassroom":"A","exampleSet":"second","trial_type":"survey-html-form","trial_index":69,"time_elapsed":860715,"internal_node_id":"0.0-53.0-0.0","params":{"nStudents":24,"maxFlips":25,"completionMinutes":45,"basePay":8,"maxBonus":9,"perTrialBonus":0.5,"perTrialBonusThreshold":0.05,"exampleCost":0.02},"classroomParams":{"A":{"a":1,"b":4},"B":{"a":4,"b":1},"C":{"a":2,"b":8},"D":{"a":8,"b":2}},"conditions":["nonSeqFull","nonSeqPartial","seqNoFeedback","seqFeedback"],"classroomPairings":[["A","B"],["C","D"]],"coinWeights":[0.2,0.5,0.8],"subjectId":"A3FKXJVH0K2E3E","assignmentId":"33NF62TLXKOKTNP1OGO6QHJF14QJKP","hitId":"3QGHA0EA0JM3KKNCY0PQRLYAHLBWBE","url":"https://gershmanlab.com/experiments/alicia/teaching/experiment/?hitId=3QGHA0EA0JM3KKNCY0PQRLYAHLBWBE&workerId=A3FKXJVH0K2E3E&assignmentId=33NF62TLXKOKTNP1OGO6QHJF14QJKP&a=L6N33&tp_a=L6N33&b=33NF62TLXKOKTNP1OGO6QHJF14QJKP&tp_b=33NF62TLXKOKTNP1OGO6QHJF14QJKP&c=365633&tp_c=365633","firstResponseHeads":0,"firstResponseTails":8,"secondResponseHeads":0,"secondResponseTails":8,"totalHeads":0,"totalTails":16,"studentIndex":5,"studentTrueHypers":{"a":1,"b":4},"studentGuess":0.047619047619047616,"delta":0.1523809523809524,"bonus":0,"bonusSoFar":0.18,"totalExamples":16},{"rt":null,"stimulus":"Sending examples to student... ","response":null,"trial_type":"html-keyboard-response","trial_index":70,"time_elapsed":862734,"internal_node_id":"0.0-54.0","params":{"nStudents":24,"maxFlips":25,"completionMinutes":45,"basePay":8,"maxBonus":9,"perTrialBonus":0.5,"perTrialBonusThreshold":0.05,"exampleCost":0.02},"classroomParams":{"A":{"a":1,"b":4},"B":{"a":4,"b":1},"C":{"a":2,"b":8},"D":{"a":8,"b":2}},"conditions":["nonSeqFull","nonSeqPartial","seqNoFeedback","seqFeedback"],"classroomPairings":[["A","B"],["C","D"]],"coinWeights":[0.2,0.5,0.8],"subjectId":"A3FKXJVH0K2E3E","assignmentId":"33NF62TLXKOKTNP1OGO6QHJF14QJKP","hitId":"3QGHA0EA0JM3KKNCY0PQRLYAHLBWBE","url":"https://gershmanlab.com/experiments/alicia/teaching/experiment/?hitId=3QGHA0EA0JM3KKNCY0PQRLYAHLBWBE&workerId=A3FKXJVH0K2E3E&assignmentId=33NF62TLXKOKTNP1OGO6QHJF14QJKP&a=L6N33&tp_a=L6N33&b=33NF62TLXKOKTNP1OGO6QHJF14QJKP&tp_b=33NF62TLXKOKTNP1OGO6QHJF14QJKP&c=365633&tp_c=365633"},{"rt":null,"stimulus":"Examples sent to student! Waiting for student...","response":null,"trial_type":"html-keyboard-response","trial_index":71,"time_elapsed":867253,"internal_node_id":"0.0-55.0","params":{"nStudents":24,"maxFlips":25,"completionMinutes":45,"basePay":8,"maxBonus":9,"perTrialBonus":0.5,"perTrialBonusThreshold":0.05,"exampleCost":0.02},"classroomParams":{"A":{"a":1,"b":4},"B":{"a":4,"b":1},"C":{"a":2,"b":8},"D":{"a":8,"b":2}},"conditions":["nonSeqFull","nonSeqPartial","seqNoFeedback","seqFeedback"],"classroomPairings":[["A","B"],["C","D"]],"coinWeights":[0.2,0.5,0.8],"subjectId":"A3FKXJVH0K2E3E","assignmentId":"33NF62TLXKOKTNP1OGO6QHJF14QJKP","hitId":"3QGHA0EA0JM3KKNCY0PQRLYAHLBWBE","url":"https://gershmanlab.com/experiments/alicia/teaching/experiment/?hitId=3QGHA0EA0JM3KKNCY0PQRLYAHLBWBE&workerId=A3FKXJVH0K2E3E&assignmentId=33NF62TLXKOKTNP1OGO6QHJF14QJKP&a=L6N33&tp_a=L6N33&b=33NF62TLXKOKTNP1OGO6QHJF14QJKP&tp_b=33NF62TLXKOKTNP1OGO6QHJF14QJKP&c=365633&tp_c=365633"},{"rt":7322,"stimulus":"\n                <p>Student 6's first guess for coin weight: <b style=\"color:Tomato\";>0.08</b></p>\n                <p>Student 6's second guess for coin weight: <b style=\"color:Tomato\";>0.05</b></p>\n                <p>You received a bonus of <b>$0.00</b> based on the student's second guess.</p>\n                <p>Total bonus so far: <b>$0.18</b></p>\n                <p>Press any key to continue.</p>\n                ","response":"enter","trial_type":"html-keyboard-response","trial_index":72,"time_elapsed":874577,"internal_node_id":"0.0-56.0","params":{"nStudents":24,"maxFlips":25,"completionMinutes":45,"basePay":8,"maxBonus":9,"perTrialBonus":0.5,"perTrialBonusThreshold":0.05,"exampleCost":0.02},"classroomParams":{"A":{"a":1,"b":4},"B":{"a":4,"b":1},"C":{"a":2,"b":8},"D":{"a":8,"b":2}},"conditions":["nonSeqFull","nonSeqPartial","seqNoFeedback","seqFeedback"],"classroomPairings":[["A","B"],["C","D"]],"coinWeights":[0.2,0.5,0.8],"subjectId":"A3FKXJVH0K2E3E","assignmentId":"33NF62TLXKOKTNP1OGO6QHJF14QJKP","hitId":"3QGHA0EA0JM3KKNCY0PQRLYAHLBWBE","url":"https://gershmanlab.com/experiments/alicia/teaching/experiment/?hitId=3QGHA0EA0JM3KKNCY0PQRLYAHLBWBE&workerId=A3FKXJVH0K2E3E&assignmentId=33NF62TLXKOKTNP1OGO6QHJF14QJKP&a=L6N33&tp_a=L6N33&b=33NF62TLXKOKTNP1OGO6QHJF14QJKP&tp_b=33NF62TLXKOKTNP1OGO6QHJF14QJKP&c=365633&tp_c=365633"},{"rt":null,"stimulus":"<div style=\"font-size:60px;\">Next student</div>","response":null,"trial_type":"html-keyboard-response","trial_index":73,"time_elapsed":876843,"internal_node_id":"0.0-57.0-0.0","params":{"nStudents":24,"maxFlips":25,"completionMinutes":45,"basePay":8,"maxBonus":9,"perTrialBonus":0.5,"perTrialBonusThreshold":0.05,"exampleCost":0.02},"classroomParams":{"A":{"a":1,"b":4},"B":{"a":4,"b":1},"C":{"a":2,"b":8},"D":{"a":8,"b":2}},"conditions":["nonSeqFull","nonSeqPartial","seqNoFeedback","seqFeedback"],"classroomPairings":[["A","B"],["C","D"]],"coinWeights":[0.2,0.5,0.8],"subjectId":"A3FKXJVH0K2E3E","assignmentId":"33NF62TLXKOKTNP1OGO6QHJF14QJKP","hitId":"3QGHA0EA0JM3KKNCY0PQRLYAHLBWBE","url":"https://gershmanlab.com/experiments/alicia/teaching/experiment/?hitId=3QGHA0EA0JM3KKNCY0PQRLYAHLBWBE&workerId=A3FKXJVH0K2E3E&assignmentId=33NF62TLXKOKTNP1OGO6QHJF14QJKP&a=L6N33&tp_a=L6N33&b=33NF62TLXKOKTNP1OGO6QHJF14QJKP&tp_b=33NF62TLXKOKTNP1OGO6QHJF14QJKP&c=365633&tp_c=365633"},{"rt":3838,"stimulus":"\n            <h4 style=\"color:Orange;\">Student 7</h4>\n            <h2>The weight of your coin is <b style=\"color:Tomato;\">0.8</b>.</h2>\n            <p>In this block, you will be giving <b>one</b> set of examples to Student 7.</p>\n                <p>You will receive feedback at the end of the block.</p>\n            <p></p>","response":0,"trial_type":"html-button-response","trial_index":74,"time_elapsed":880682,"internal_node_id":"0.0-58.0","params":{"nStudents":24,"maxFlips":25,"completionMinutes":45,"basePay":8,"maxBonus":9,"perTrialBonus":0.5,"perTrialBonusThreshold":0.05,"exampleCost":0.02},"classroomParams":{"A":{"a":1,"b":4},"B":{"a":4,"b":1},"C":{"a":2,"b":8},"D":{"a":8,"b":2}},"conditions":["nonSeqFull","nonSeqPartial","seqNoFeedback","seqFeedback"],"classroomPairings":[["A","B"],["C","D"]],"coinWeights":[0.2,0.5,0.8],"subjectId":"A3FKXJVH0K2E3E","assignmentId":"33NF62TLXKOKTNP1OGO6QHJF14QJKP","hitId":"3QGHA0EA0JM3KKNCY0PQRLYAHLBWBE","url":"https://gershmanlab.com/experiments/alicia/teaching/experiment/?hitId=3QGHA0EA0JM3KKNCY0PQRLYAHLBWBE&workerId=A3FKXJVH0K2E3E&assignmentId=33NF62TLXKOKTNP1OGO6QHJF14QJKP&a=L6N33&tp_a=L6N33&b=33NF62TLXKOKTNP1OGO6QHJF14QJKP&tp_b=33NF62TLXKOKTNP1OGO6QHJF14QJKP&c=365633&tp_c=365633"},{"rt":10949,"response":{"heads":"13","tails":"0"},"type":"response","condition":"nonSeqFull","trueTheta":0.8,"classrooms":["A","B"],"studentTrueClassroom":"B","exampleSet":"first","trial_type":"survey-html-form","trial_index":75,"time_elapsed":891632,"internal_node_id":"0.0-59.0-0.0","params":{"nStudents":24,"maxFlips":25,"completionMinutes":45,"basePay":8,"maxBonus":9,"perTrialBonus":0.5,"perTrialBonusThreshold":0.05,"exampleCost":0.02},"classroomParams":{"A":{"a":1,"b":4},"B":{"a":4,"b":1},"C":{"a":2,"b":8},"D":{"a":8,"b":2}},"conditions":["nonSeqFull","nonSeqPartial","seqNoFeedback","seqFeedback"],"classroomPairings":[["A","B"],["C","D"]],"coinWeights":[0.2,0.5,0.8],"subjectId":"A3FKXJVH0K2E3E","assignmentId":"33NF62TLXKOKTNP1OGO6QHJF14QJKP","hitId":"3QGHA0EA0JM3KKNCY0PQRLYAHLBWBE","url":"https://gershmanlab.com/experiments/alicia/teaching/experiment/?hitId=3QGHA0EA0JM3KKNCY0PQRLYAHLBWBE&workerId=A3FKXJVH0K2E3E&assignmentId=33NF62TLXKOKTNP1OGO6QHJF14QJKP&a=L6N33&tp_a=L6N33&b=33NF62TLXKOKTNP1OGO6QHJF14QJKP&tp_b=33NF62TLXKOKTNP1OGO6QHJF14QJKP&c=365633&tp_c=365633","heads":13,"tails":0,"studentIndex":6,"studentTrueHypers":{"a":4,"b":1},"studentGuess":0.9444444444444444,"delta":0.14444444444444438,"totalExamples":13,"bonus":0,"bonusSoFar":0.18},{"rt":null,"stimulus":"Sending examples to student... ","response":null,"trial_type":"html-keyboard-response","trial_index":76,"time_elapsed":892904,"internal_node_id":"0.0-60.0","params":{"nStudents":24,"maxFlips":25,"completionMinutes":45,"basePay":8,"maxBonus":9,"perTrialBonus":0.5,"perTrialBonusThreshold":0.05,"exampleCost":0.02},"classroomParams":{"A":{"a":1,"b":4},"B":{"a":4,"b":1},"C":{"a":2,"b":8},"D":{"a":8,"b":2}},"conditions":["nonSeqFull","nonSeqPartial","seqNoFeedback","seqFeedback"],"classroomPairings":[["A","B"],["C","D"]],"coinWeights":[0.2,0.5,0.8],"subjectId":"A3FKXJVH0K2E3E","assignmentId":"33NF62TLXKOKTNP1OGO6QHJF14QJKP","hitId":"3QGHA0EA0JM3KKNCY0PQRLYAHLBWBE","url":"https://gershmanlab.com/experiments/alicia/teaching/experiment/?hitId=3QGHA0EA0JM3KKNCY0PQRLYAHLBWBE&workerId=A3FKXJVH0K2E3E&assignmentId=33NF62TLXKOKTNP1OGO6QHJF14QJKP&a=L6N33&tp_a=L6N33&b=33NF62TLXKOKTNP1OGO6QHJF14QJKP&tp_b=33NF62TLXKOKTNP1OGO6QHJF14QJKP&c=365633&tp_c=365633"},{"rt":null,"stimulus":"Examples sent to student! Waiting for student...","response":null,"trial_type":"html-keyboard-response","trial_index":77,"time_elapsed":897919,"internal_node_id":"0.0-61.0","params":{"nStudents":24,"maxFlips":25,"completionMinutes":45,"basePay":8,"maxBonus":9,"perTrialBonus":0.5,"perTrialBonusThreshold":0.05,"exampleCost":0.02},"classroomParams":{"A":{"a":1,"b":4},"B":{"a":4,"b":1},"C":{"a":2,"b":8},"D":{"a":8,"b":2}},"conditions":["nonSeqFull","nonSeqPartial","seqNoFeedback","seqFeedback"],"classroomPairings":[["A","B"],["C","D"]],"coinWeights":[0.2,0.5,0.8],"subjectId":"A3FKXJVH0K2E3E","assignmentId":"33NF62TLXKOKTNP1OGO6QHJF14QJKP","hitId":"3QGHA0EA0JM3KKNCY0PQRLYAHLBWBE","url":"https://gershmanlab.com/experiments/alicia/teaching/experiment/?hitId=3QGHA0EA0JM3KKNCY0PQRLYAHLBWBE&workerId=A3FKXJVH0K2E3E&assignmentId=33NF62TLXKOKTNP1OGO6QHJF14QJKP&a=L6N33&tp_a=L6N33&b=33NF62TLXKOKTNP1OGO6QHJF14QJKP&tp_b=33NF62TLXKOKTNP1OGO6QHJF14QJKP&c=365633&tp_c=365633"},{"rt":4705,"stimulus":"\n                <p>Student's guess for coin weight: <b style=\"color:Tomato;\">0.94</b></p>\n                <p>You received a bonus of <b>$0</b>. Total bonus so far: <b>$0.18</b></b></p>\n                <p></p>\n                <p>Press any key to continue.</p>\n                ","response":"enter","trial_type":"html-keyboard-response","trial_index":78,"time_elapsed":902625,"internal_node_id":"0.0-62.0","params":{"nStudents":24,"maxFlips":25,"completionMinutes":45,"basePay":8,"maxBonus":9,"perTrialBonus":0.5,"perTrialBonusThreshold":0.05,"exampleCost":0.02},"classroomParams":{"A":{"a":1,"b":4},"B":{"a":4,"b":1},"C":{"a":2,"b":8},"D":{"a":8,"b":2}},"conditions":["nonSeqFull","nonSeqPartial","seqNoFeedback","seqFeedback"],"classroomPairings":[["A","B"],["C","D"]],"coinWeights":[0.2,0.5,0.8],"subjectId":"A3FKXJVH0K2E3E","assignmentId":"33NF62TLXKOKTNP1OGO6QHJF14QJKP","hitId":"3QGHA0EA0JM3KKNCY0PQRLYAHLBWBE","url":"https://gershmanlab.com/experiments/alicia/teaching/experiment/?hitId=3QGHA0EA0JM3KKNCY0PQRLYAHLBWBE&workerId=A3FKXJVH0K2E3E&assignmentId=33NF62TLXKOKTNP1OGO6QHJF14QJKP&a=L6N33&tp_a=L6N33&b=33NF62TLXKOKTNP1OGO6QHJF14QJKP&tp_b=33NF62TLXKOKTNP1OGO6QHJF14QJKP&c=365633&tp_c=365633"},{"rt":null,"stimulus":"<div style=\"font-size:60px;\">Next student</div>","response":null,"trial_type":"html-keyboard-response","trial_index":79,"time_elapsed":905633,"internal_node_id":"0.0-63.0-0.0","params":{"nStudents":24,"maxFlips":25,"completionMinutes":45,"basePay":8,"maxBonus":9,"perTrialBonus":0.5,"perTrialBonusThreshold":0.05,"exampleCost":0.02},"classroomParams":{"A":{"a":1,"b":4},"B":{"a":4,"b":1},"C":{"a":2,"b":8},"D":{"a":8,"b":2}},"conditions":["nonSeqFull","nonSeqPartial","seqNoFeedback","seqFeedback"],"classroomPairings":[["A","B"],["C","D"]],"coinWeights":[0.2,0.5,0.8],"subjectId":"A3FKXJVH0K2E3E","assignmentId":"33NF62TLXKOKTNP1OGO6QHJF14QJKP","hitId":"3QGHA0EA0JM3KKNCY0PQRLYAHLBWBE","url":"https://gershmanlab.com/experiments/alicia/teaching/experiment/?hitId=3QGHA0EA0JM3KKNCY0PQRLYAHLBWBE&workerId=A3FKXJVH0K2E3E&assignmentId=33NF62TLXKOKTNP1OGO6QHJF14QJKP&a=L6N33&tp_a=L6N33&b=33NF62TLXKOKTNP1OGO6QHJF14QJKP&tp_b=33NF62TLXKOKTNP1OGO6QHJF14QJKP&c=365633&tp_c=365633"},{"rt":1798,"stimulus":"\n            <h4 style=\"color:Orange;\">Student 8</h4>\n            <h2>The weight of your coin is <b style=\"color:Tomato;\">0.8</b>.</h2>\n            <p>In this block, you will be giving <b>one</b> set of examples to Student 8.</p>\n                <p>You will receive feedback at the end of the block.</p>\n            <p></p>","response":0,"trial_type":"html-button-response","trial_index":80,"time_elapsed":907432,"internal_node_id":"0.0-64.0","params":{"nStudents":24,"maxFlips":25,"completionMinutes":45,"basePay":8,"maxBonus":9,"perTrialBonus":0.5,"perTrialBonusThreshold":0.05,"exampleCost":0.02},"classroomParams":{"A":{"a":1,"b":4},"B":{"a":4,"b":1},"C":{"a":2,"b":8},"D":{"a":8,"b":2}},"conditions":["nonSeqFull","nonSeqPartial","seqNoFeedback","seqFeedback"],"classroomPairings":[["A","B"],["C","D"]],"coinWeights":[0.2,0.5,0.8],"subjectId":"A3FKXJVH0K2E3E","assignmentId":"33NF62TLXKOKTNP1OGO6QHJF14QJKP","hitId":"3QGHA0EA0JM3KKNCY0PQRLYAHLBWBE","url":"https://gershmanlab.com/experiments/alicia/teaching/experiment/?hitId=3QGHA0EA0JM3KKNCY0PQRLYAHLBWBE&workerId=A3FKXJVH0K2E3E&assignmentId=33NF62TLXKOKTNP1OGO6QHJF14QJKP&a=L6N33&tp_a=L6N33&b=33NF62TLXKOKTNP1OGO6QHJF14QJKP&tp_b=33NF62TLXKOKTNP1OGO6QHJF14QJKP&c=365633&tp_c=365633"},{"rt":7476,"response":{"heads":"9","tails":"0"},"type":"response","condition":"nonSeqPartial","trueTheta":0.8,"classrooms":["A","B"],"studentTrueClassroom":"A","exampleSet":"first","trial_type":"survey-html-form","trial_index":81,"time_elapsed":914909,"internal_node_id":"0.0-65.0-0.0","params":{"nStudents":24,"maxFlips":25,"completionMinutes":45,"basePay":8,"maxBonus":9,"perTrialBonus":0.5,"perTrialBonusThreshold":0.05,"exampleCost":0.02},"classroomParams":{"A":{"a":1,"b":4},"B":{"a":4,"b":1},"C":{"a":2,"b":8},"D":{"a":8,"b":2}},"conditions":["nonSeqFull","nonSeqPartial","seqNoFeedback","seqFeedback"],"classroomPairings":[["A","B"],["C","D"]],"coinWeights":[0.2,0.5,0.8],"subjectId":"A3FKXJVH0K2E3E","assignmentId":"33NF62TLXKOKTNP1OGO6QHJF14QJKP","hitId":"3QGHA0EA0JM3KKNCY0PQRLYAHLBWBE","url":"https://gershmanlab.com/experiments/alicia/teaching/experiment/?hitId=3QGHA0EA0JM3KKNCY0PQRLYAHLBWBE&workerId=A3FKXJVH0K2E3E&assignmentId=33NF62TLXKOKTNP1OGO6QHJF14QJKP&a=L6N33&tp_a=L6N33&b=33NF62TLXKOKTNP1OGO6QHJF14QJKP&tp_b=33NF62TLXKOKTNP1OGO6QHJF14QJKP&c=365633&tp_c=365633","heads":9,"tails":0,"studentIndex":7,"studentTrueHypers":{"a":1,"b":4},"studentGuess":0.7142857142857143,"delta":0.08571428571428574,"totalExamples":9,"bonus":0,"bonusSoFar":0.18},{"rt":null,"stimulus":"Sending examples to student... ","response":null,"trial_type":"html-keyboard-response","trial_index":82,"time_elapsed":916423,"internal_node_id":"0.0-66.0","params":{"nStudents":24,"maxFlips":25,"completionMinutes":45,"basePay":8,"maxBonus":9,"perTrialBonus":0.5,"perTrialBonusThreshold":0.05,"exampleCost":0.02},"classroomParams":{"A":{"a":1,"b":4},"B":{"a":4,"b":1},"C":{"a":2,"b":8},"D":{"a":8,"b":2}},"conditions":["nonSeqFull","nonSeqPartial","seqNoFeedback","seqFeedback"],"classroomPairings":[["A","B"],["C","D"]],"coinWeights":[0.2,0.5,0.8],"subjectId":"A3FKXJVH0K2E3E","assignmentId":"33NF62TLXKOKTNP1OGO6QHJF14QJKP","hitId":"3QGHA0EA0JM3KKNCY0PQRLYAHLBWBE","url":"https://gershmanlab.com/experiments/alicia/teaching/experiment/?hitId=3QGHA0EA0JM3KKNCY0PQRLYAHLBWBE&workerId=A3FKXJVH0K2E3E&assignmentId=33NF62TLXKOKTNP1OGO6QHJF14QJKP&a=L6N33&tp_a=L6N33&b=33NF62TLXKOKTNP1OGO6QHJF14QJKP&tp_b=33NF62TLXKOKTNP1OGO6QHJF14QJKP&c=365633&tp_c=365633"},{"rt":null,"stimulus":"Examples sent to student! Waiting for student...","response":null,"trial_type":"html-keyboard-response","trial_index":83,"time_elapsed":921924,"internal_node_id":"0.0-67.0","params":{"nStudents":24,"maxFlips":25,"completionMinutes":45,"basePay":8,"maxBonus":9,"perTrialBonus":0.5,"perTrialBonusThreshold":0.05,"exampleCost":0.02},"classroomParams":{"A":{"a":1,"b":4},"B":{"a":4,"b":1},"C":{"a":2,"b":8},"D":{"a":8,"b":2}},"conditions":["nonSeqFull","nonSeqPartial","seqNoFeedback","seqFeedback"],"classroomPairings":[["A","B"],["C","D"]],"coinWeights":[0.2,0.5,0.8],"subjectId":"A3FKXJVH0K2E3E","assignmentId":"33NF62TLXKOKTNP1OGO6QHJF14QJKP","hitId":"3QGHA0EA0JM3KKNCY0PQRLYAHLBWBE","url":"https://gershmanlab.com/experiments/alicia/teaching/experiment/?hitId=3QGHA0EA0JM3KKNCY0PQRLYAHLBWBE&workerId=A3FKXJVH0K2E3E&assignmentId=33NF62TLXKOKTNP1OGO6QHJF14QJKP&a=L6N33&tp_a=L6N33&b=33NF62TLXKOKTNP1OGO6QHJF14QJKP&tp_b=33NF62TLXKOKTNP1OGO6QHJF14QJKP&c=365633&tp_c=365633"},{"rt":3212,"stimulus":"\n                <p>Student's guess for coin weight: <b style=\"color:Tomato;\">