[{"rt":7064,"stimulus":"Welcome to the experiment. Press any key to begin.","response":"enter","trial_type":"html-keyboard-response","trial_index":0,"time_elapsed":7117,"internal_node_id":"0.0-0.0","params":{"nStudents":24,"maxFlips":25,"completionMinutes":45,"basePay":8,"maxBonus":9,"perTrialBonus":0.5,"perTrialBonusThreshold":0.05,"exampleCost":0.02},"classroomParams":{"A":{"a":1,"b":4},"B":{"a":4,"b":1},"C":{"a":2,"b":8},"D":{"a":8,"b":2}},"conditions":["nonSeqFull","nonSeqPartial","seqNoFeedback","seqFeedback"],"classroomPairings":[["A","B"],["C","D"]],"coinWeights":[0.2,0.5,0.8],"subjectId":"A3LFVI65XV1T46","assignmentId":"3VSOLARPKCVPRD4LHY5UK1OAUDS939","hitId":"39WICJI5ATE2BKO4UUUR86UGAV2Z3G","url":"https://gershmanlab.com/experiments/alicia/teaching/experiment/?hitId=39WICJI5ATE2BKO4UUUR86UGAV2Z3G&workerId=A3LFVI65XV1T46&assignmentId=3VSOLARPKCVPRD4LHY5UK1OAUDS939&a=PLSV3&tp_a=PLSV3&b=3VSOLARPKCVPRD4LHY5UK1OAUDS939&tp_b=3VSOLARPKCVPRD4LHY5UK1OAUDS939&c=365633&tp_c=365633"},{"rt":6990,"stimulus":"\n        <h3>Please read this consent agreement carefully before deciding whether to participate in this experiment.</h3>\n        <p><b>Purpose of the research:</b> To examine how people teach effectively.</p>\n        <p><b>What you will do in this research:</b> You will teach students the weights of different coins.</p>\n        <p><b>Time required:</b> This experiment will take 45 minutes to complete.</p>\n        <p><b>Risks:</b> There are no anticipated risks associated with participating in this study.             The effects of participating should be comparable to those you would experience from viewing a computer monitor             and using a mouse and keyboard for the duration of the experiment.</p>\n        <p><b>Benefits:</b> The study provides important information about the nature of teaching.</p>\n        <p><b>Compensation:</b> You will receive <b>$8</b> for completing the experiment and a performance bonus of up to <b>$9</b>.</p>\n        <p><b>Confidentiality:</b> Your participation in this study will remain confidential.             No personally identifiable information will be associated with your data.             Your de-identified data may be shared with other researchers and used in future projects.</p>\n        <p><b>Participation and withdrawal:</b> Your participation in this study is completely voluntary and             you may refuse to participate or you may choose to withdraw at any time without penalty or loss of\n            benefits to which you are otherwise entitled.</p>\n        <p><b>How to contact the researcher:</b> If you have questions or concerns about your participation            or payment, or want to request a summary of research findings, please contact\n            Alicia Chen, aliciachen@college.harvard.edu.</p>\n        <p><b>Whom to contact about your rights in this research:</b> For questions, concerns, suggestions,             or complaints that have not been or cannot be addressed by the researcher, or to report             research-related harm, please contact the Committee on the Use of Human Subjects in Research at Harvard University,             1414 Massachusetts Avenue, Second Floor, Cambridge, MA 02138. Phone: 617-496-2847. Email: cuhs@fas.harvard.edu.</p>\n        ","response":0,"trial_type":"html-button-response","trial_index":1,"time_elapsed":14109,"internal_node_id":"0.0-1.0","params":{"nStudents":24,"maxFlips":25,"completionMinutes":45,"basePay":8,"maxBonus":9,"perTrialBonus":0.5,"perTrialBonusThreshold":0.05,"exampleCost":0.02},"classroomParams":{"A":{"a":1,"b":4},"B":{"a":4,"b":1},"C":{"a":2,"b":8},"D":{"a":8,"b":2}},"conditions":["nonSeqFull","nonSeqPartial","seqNoFeedback","seqFeedback"],"classroomPairings":[["A","B"],["C","D"]],"coinWeights":[0.2,0.5,0.8],"subjectId":"A3LFVI65XV1T46","assignmentId":"3VSOLARPKCVPRD4LHY5UK1OAUDS939","hitId":"39WICJI5ATE2BKO4UUUR86UGAV2Z3G","url":"https://gershmanlab.com/experiments/alicia/teaching/experiment/?hitId=39WICJI5ATE2BKO4UUUR86UGAV2Z3G&workerId=A3LFVI65XV1T46&assignmentId=3VSOLARPKCVPRD4LHY5UK1OAUDS939&a=PLSV3&tp_a=PLSV3&b=3VSOLARPKCVPRD4LHY5UK1OAUDS939&tp_b=3VSOLARPKCVPRD4LHY5UK1OAUDS939&c=365633&tp_c=365633"},{"view_history":[{"page_index":0,"viewing_time":4365},{"page_index":1,"viewing_time":4271},{"page_index":2,"viewing_time":38979},{"page_index":3,"viewing_time":23439},{"page_index":4,"viewing_time":13806},{"page_index":5,"viewing_time":24754},{"page_index":6,"viewing_time":29127}],"rt":138742,"trial_type":"instructions","trial_index":2,"time_elapsed":152852,"internal_node_id":"0.0-2.0-0.0","params":{"nStudents":24,"maxFlips":25,"completionMinutes":45,"basePay":8,"maxBonus":9,"perTrialBonus":0.5,"perTrialBonusThreshold":0.05,"exampleCost":0.02},"classroomParams":{"A":{"a":1,"b":4},"B":{"a":4,"b":1},"C":{"a":2,"b":8},"D":{"a":8,"b":2}},"conditions":["nonSeqFull","nonSeqPartial","seqNoFeedback","seqFeedback"],"classroomPairings":[["A","B"],["C","D"]],"coinWeights":[0.2,0.5,0.8],"subjectId":"A3LFVI65XV1T46","assignmentId":"3VSOLARPKCVPRD4LHY5UK1OAUDS939","hitId":"39WICJI5ATE2BKO4UUUR86UGAV2Z3G","url":"https://gershmanlab.com/experiments/alicia/teaching/experiment/?hitId=39WICJI5ATE2BKO4UUUR86UGAV2Z3G&workerId=A3LFVI65XV1T46&assignmentId=3VSOLARPKCVPRD4LHY5UK1OAUDS939&a=PLSV3&tp_a=PLSV3&b=3VSOLARPKCVPRD4LHY5UK1OAUDS939&tp_b=3VSOLARPKCVPRD4LHY5UK1OAUDS939&c=365633&tp_c=365633"},{"rt":58893,"response":{"Q0":"Students in different classrooms will have seen a different number of heads and tails before seeing the examples you select for them.","Q1":"By <b>considering the student's classroom information</b> so that I can teach efficiently and accurately/helpfully at the same time (because each example I give to the student costs money!).","Q2":"The coin lands heads 90% of the time.","Q3":"No, I will teach a <b>new</b> student each time.","Q4":"The students are also on the same alien planet as you, where coins can be unfair.","Q5":"Based on the student's second (and final) guess."},"question_order":[1,3,4,5,0,2],"trial_type":"survey-multi-choice","trial_index":3,"time_elapsed":211749,"internal_node_id":"0.0-2.0-1.0","params":{"nStudents":24,"maxFlips":25,"completionMinutes":45,"basePay":8,"maxBonus":9,"perTrialBonus":0.5,"perTrialBonusThreshold":0.05,"exampleCost":0.02},"classroomParams":{"A":{"a":1,"b":4},"B":{"a":4,"b":1},"C":{"a":2,"b":8},"D":{"a":8,"b":2}},"conditions":["nonSeqFull","nonSeqPartial","seqNoFeedback","seqFeedback"],"classroomPairings":[["A","B"],["C","D"]],"coinWeights":[0.2,0.5,0.8],"subjectId":"A3LFVI65XV1T46","assignmentId":"3VSOLARPKCVPRD4LHY5UK1OAUDS939","hitId":"39WICJI5ATE2BKO4UUUR86UGAV2Z3G","url":"https://gershmanlab.com/experiments/alicia/teaching/experiment/?hitId=39WICJI5ATE2BKO4UUUR86UGAV2Z3G&workerId=A3LFVI65XV1T46&assignmentId=3VSOLARPKCVPRD4LHY5UK1OAUDS939&a=PLSV3&tp_a=PLSV3&b=3VSOLARPKCVPRD4LHY5UK1OAUDS939&tp_b=3VSOLARPKCVPRD4LHY5UK1OAUDS939&c=365633&tp_c=365633","pass":true},{"rt":null,"stimulus":"<div style=\"font-size:30px;\">Congrats on passing the comprehension quiz! The experiment will begin in a few seconds.</div>","response":null,"trial_type":"html-keyboard-response","trial_index":4,"time_elapsed":214756,"internal_node_id":"0.0-3.0","params":{"nStudents":24,"maxFlips":25,"completionMinutes":45,"basePay":8,"maxBonus":9,"perTrialBonus":0.5,"perTrialBonusThreshold":0.05,"exampleCost":0.02},"classroomParams":{"A":{"a":1,"b":4},"B":{"a":4,"b":1},"C":{"a":2,"b":8},"D":{"a":8,"b":2}},"conditions":["nonSeqFull","nonSeqPartial","seqNoFeedback","seqFeedback"],"classroomPairings":[["A","B"],["C","D"]],"coinWeights":[0.2,0.5,0.8],"subjectId":"A3LFVI65XV1T46","assignmentId":"3VSOLARPKCVPRD4LHY5UK1OAUDS939","hitId":"39WICJI5ATE2BKO4UUUR86UGAV2Z3G","url":"https://gershmanlab.com/experiments/alicia/teaching/experiment/?hitId=39WICJI5ATE2BKO4UUUR86UGAV2Z3G&workerId=A3LFVI65XV1T46&assignmentId=3VSOLARPKCVPRD4LHY5UK1OAUDS939&a=PLSV3&tp_a=PLSV3&b=3VSOLARPKCVPRD4LHY5UK1OAUDS939&tp_b=3VSOLARPKCVPRD4LHY5UK1OAUDS939&c=365633&tp_c=365633"},{"rt":null,"stimulus":"<div style=\"font-size:50px;\">First student</div>","response":null,"trial_type":"html-keyboard-response","trial_index":5,"time_elapsed":217774,"internal_node_id":"0.0-4.0","params":{"nStudents":24,"maxFlips":25,"completionMinutes":45,"basePay":8,"maxBonus":9,"perTrialBonus":0.5,"perTrialBonusThreshold":0.05,"exampleCost":0.02},"classroomParams":{"A":{"a":1,"b":4},"B":{"a":4,"b":1},"C":{"a":2,"b":8},"D":{"a":8,"b":2}},"conditions":["nonSeqFull","nonSeqPartial","seqNoFeedback","seqFeedback"],"classroomPairings":[["A","B"],["C","D"]],"coinWeights":[0.2,0.5,0.8],"subjectId":"A3LFVI65XV1T46","assignmentId":"3VSOLARPKCVPRD4LHY5UK1OAUDS939","hitId":"39WICJI5ATE2BKO4UUUR86UGAV2Z3G","url":"https://gershmanlab.com/experiments/alicia/teaching/experiment/?hitId=39WICJI5ATE2BKO4UUUR86UGAV2Z3G&workerId=A3LFVI65XV1T46&assignmentId=3VSOLARPKCVPRD4LHY5UK1OAUDS939&a=PLSV3&tp_a=PLSV3&b=3VSOLARPKCVPRD4LHY5UK1OAUDS939&tp_b=3VSOLARPKCVPRD4LHY5UK1OAUDS939&c=365633&tp_c=365633"},{"rt":5716,"stimulus":"\n            <h4 style=\"color:Orange;\">Student 1</h4>\n            <h2>The weight of your coin is <b style=\"color:Tomato;\">0.5</b>.</h2>\n            <p>In this block, you will be giving <b>one</b> set of examples to Student 1.</p>\n                <p>You will receive feedback at the end of the block.</p>\n            <p></p>","response":0,"trial_type":"html-button-response","trial_index":6,"time_elapsed":223492,"internal_node_id":"0.0-5.0","params":{"nStudents":24,"maxFlips":25,"completionMinutes":45,"basePay":8,"maxBonus":9,"perTrialBonus":0.5,"perTrialBonusThreshold":0.05,"exampleCost":0.02},"classroomParams":{"A":{"a":1,"b":4},"B":{"a":4,"b":1},"C":{"a":2,"b":8},"D":{"a":8,"b":2}},"conditions":["nonSeqFull","nonSeqPartial","seqNoFeedback","seqFeedback"],"classroomPairings":[["A","B"],["C","D"]],"coinWeights":[0.2,0.5,0.8],"subjectId":"A3LFVI65XV1T46","assignmentId":"3VSOLARPKCVPRD4LHY5UK1OAUDS939","hitId":"39WICJI5ATE2BKO4UUUR86UGAV2Z3G","url":"https://gershmanlab.com/experiments/alicia/teaching/experiment/?hitId=39WICJI5ATE2BKO4UUUR86UGAV2Z3G&workerId=A3LFVI65XV1T46&assignmentId=3VSOLARPKCVPRD4LHY5UK1OAUDS939&a=PLSV3&tp_a=PLSV3&b=3VSOLARPKCVPRD4LHY5UK1OAUDS939&tp_b=3VSOLARPKCVPRD4LHY5UK1OAUDS939&c=365633&tp_c=365633"},{"rt":15398,"response":{"heads":"1","tails":"1"},"type":"response","condition":"nonSeqPartial","trueTheta":0.5,"classrooms":["C","D"],"studentTrueClassroom":"D","exampleSet":"first","trial_type":"survey-html-form","trial_index":7,"time_elapsed":238892,"internal_node_id":"0.0-6.0-0.0","params":{"nStudents":24,"maxFlips":25,"completionMinutes":45,"basePay":8,"maxBonus":9,"perTrialBonus":0.5,"perTrialBonusThreshold":0.05,"exampleCost":0.02},"classroomParams":{"A":{"a":1,"b":4},"B":{"a":4,"b":1},"C":{"a":2,"b":8},"D":{"a":8,"b":2}},"conditions":["nonSeqFull","nonSeqPartial","seqNoFeedback","seqFeedback"],"classroomPairings":[["A","B"],["C","D"]],"coinWeights":[0.2,0.5,0.8],"subjectId":"A3LFVI65XV1T46","assignmentId":"3VSOLARPKCVPRD4LHY5UK1OAUDS939","hitId":"39WICJI5ATE2BKO4UUUR86UGAV2Z3G","url":"https://gershmanlab.com/experiments/alicia/teaching/experiment/?hitId=39WICJI5ATE2BKO4UUUR86UGAV2Z3G&workerId=A3LFVI65XV1T46&assignmentId=3VSOLARPKCVPRD4LHY5UK1OAUDS939&a=PLSV3&tp_a=PLSV3&b=3VSOLARPKCVPRD4LHY5UK1OAUDS939&tp_b=3VSOLARPKCVPRD4LHY5UK1OAUDS939&c=365633&tp_c=365633","heads":1,"tails":1,"studentIndex":0,"studentTrueHypers":{"a":8,"b":2},"studentGuess":0.75,"delta":0.25,"totalExamples":2,"bonus":0,"bonusSoFar":0},{"rt":null,"stimulus":"Sending examples to student... ","response":null,"trial_type":"html-keyboard-response","trial_index":8,"time_elapsed":240152,"internal_node_id":"0.0-7.0","params":{"nStudents":24,"maxFlips":25,"completionMinutes":45,"basePay":8,"maxBonus":9,"perTrialBonus":0.5,"perTrialBonusThreshold":0.05,"exampleCost":0.02},"classroomParams":{"A":{"a":1,"b":4},"B":{"a":4,"b":1},"C":{"a":2,"b":8},"D":{"a":8,"b":2}},"conditions":["nonSeqFull","nonSeqPartial","seqNoFeedback","seqFeedback"],"classroomPairings":[["A","B"],["C","D"]],"coinWeights":[0.2,0.5,0.8],"subjectId":"A3LFVI65XV1T46","assignmentId":"3VSOLARPKCVPRD4LHY5UK1OAUDS939","hitId":"39WICJI5ATE2BKO4UUUR86UGAV2Z3G","url":"https://gershmanlab.com/experiments/alicia/teaching/experiment/?hitId=39WICJI5ATE2BKO4UUUR86UGAV2Z3G&workerId=A3LFVI65XV1T46&assignmentId=3VSOLARPKCVPRD4LHY5UK1OAUDS939&a=PLSV3&tp_a=PLSV3&b=3VSOLARPKCVPRD4LHY5UK1OAUDS939&tp_b=3VSOLARPKCVPRD4LHY5UK1OAUDS939&c=365633&tp_c=365633"},{"rt":null,"stimulus":"Examples sent to student! Waiting for student...","response":null,"trial_type":"html-keyboard-response","trial_index":9,"time_elapsed":246174,"internal_node_id":"0.0-8.0","params":{"nStudents":24,"maxFlips":25,"completionMinutes":45,"basePay":8,"maxBonus":9,"perTrialBonus":0.5,"perTrialBonusThreshold":0.05,"exampleCost":0.02},"classroomParams":{"A":{"a":1,"b":4},"B":{"a":4,"b":1},"C":{"a":2,"b":8},"D":{"a":8,"b":2}},"conditions":["nonSeqFull","nonSeqPartial","seqNoFeedback","seqFeedback"],"classroomPairings":[["A","B"],["C","D"]],"coinWeights":[0.2,0.5,0.8],"subjectId":"A3LFVI65XV1T46","assignmentId":"3VSOLARPKCVPRD4LHY5UK1OAUDS939","hitId":"39WICJI5ATE2BKO4UUUR86UGAV2Z3G","url":"https://gershmanlab.com/experiments/alicia/teaching/experiment/?hitId=39WICJI5ATE2BKO4UUUR86UGAV2Z3G&workerId=A3LFVI65XV1T46&assignmentId=3VSOLARPKCVPRD4LHY5UK1OAUDS939&a=PLSV3&tp_a=PLSV3&b=3VSOLARPKCVPRD4LHY5UK1OAUDS939&tp_b=3VSOLARPKCVPRD4LHY5UK1OAUDS939&c=365633&tp_c=365633"},{"rt":4379,"stimulus":"\n                <p>Student's guess for coin weight: <b style=\"color:Tomato;\">0.75</b></p>\n                <p>You received a bonus of <b>$0</b>. Total bonus so far: <b>$0.00</b></b></p>\n                <p></p>\n                <p>Press any key to continue.</p>\n                ","response":"enter","trial_type":"html-keyboard-response","trial_index":10,"time_elapsed":250554,"internal_node_id":"0.0-9.0","params":{"nStudents":24,"maxFlips":25,"completionMinutes":45,"basePay":8,"maxBonus":9,"perTrialBonus":0.5,"perTrialBonusThreshold":0.05,"exampleCost":0.02},"classroomParams":{"A":{"a":1,"b":4},"B":{"a":4,"b":1},"C":{"a":2,"b":8},"D":{"a":8,"b":2}},"conditions":["nonSeqFull","nonSeqPartial","seqNoFeedback","seqFeedback"],"classroomPairings":[["A","B"],["C","D"]],"coinWeights":[0.2,0.5,0.8],"subjectId":"A3LFVI65XV1T46","assignmentId":"3VSOLARPKCVPRD4LHY5UK1OAUDS939","hitId":"39WICJI5ATE2BKO4UUUR86UGAV2Z3G","url":"https://gershmanlab.com/experiments/alicia/teaching/experiment/?hitId=39WICJI5ATE2BKO4UUUR86UGAV2Z3G&workerId=A3LFVI65XV1T46&assignmentId=3VSOLARPKCVPRD4LHY5UK1OAUDS939&a=PLSV3&tp_a=PLSV3&b=3VSOLARPKCVPRD4LHY5UK1OAUDS939&tp_b=3VSOLARPKCVPRD4LHY5UK1OAUDS939&c=365633&tp_c=365633"},{"rt":null,"stimulus":"<div style=\"font-size:60px;\">Next student</div>","response":null,"trial_type":"html-keyboard-response","trial_index":11,"time_elapsed":253058,"internal_node_id":"0.0-10.0-0.0","params":{"nStudents":24,"maxFlips":25,"completionMinutes":45,"basePay":8,"maxBonus":9,"perTrialBonus":0.5,"perTrialBonusThreshold":0.05,"exampleCost":0.02},"classroomParams":{"A":{"a":1,"b":4},"B":{"a":4,"b":1},"C":{"a":2,"b":8},"D":{"a":8,"b":2}},"conditions":["nonSeqFull","nonSeqPartial","seqNoFeedback","seqFeedback"],"classroomPairings":[["A","B"],["C","D"]],"coinWeights":[0.2,0.5,0.8],"subjectId":"A3LFVI65XV1T46","assignmentId":"3VSOLARPKCVPRD4LHY5UK1OAUDS939","hitId":"39WICJI5ATE2BKO4UUUR86UGAV2Z3G","url":"https://gershmanlab.com/experiments/alicia/teaching/experiment/?hitId=39WICJI5ATE2BKO4UUUR86UGAV2Z3G&workerId=A3LFVI65XV1T46&assignmentId=3VSOLARPKCVPRD4LHY5UK1OAUDS939&a=PLSV3&tp_a=PLSV3&b=3VSOLARPKCVPRD4LHY5UK1OAUDS939&tp_b=3VSOLARPKCVPRD4LHY5UK1OAUDS939&c=365633&tp_c=365633"},{"rt":7824,"stimulus":"\n            <h4 style=\"color:Orange;\">Student 2</h4>\n            <h2>The weight of your coin is <b style=\"color:Tomato;\">0.2</b>.</h2>\n            <p>In this block, you will be giving <b>two</b> sets of examples to Student 2.</p>\n                <p>You will see the student's guess after the first set of examples. You will also receive feedback at the end of the block.</p>\n            <p>To earn the highest bonus, you will have to <b>take into consideration the student's guess</b> when you choose your second set of examples.</p>","response":0,"trial_type":"html-button-response","trial_index":12,"time_elapsed":260883,"internal_node_id":"0.0-11.0","params":{"nStudents":24,"maxFlips":25,"completionMinutes":45,"basePay":8,"maxBonus":9,"perTrialBonus":0.5,"perTrialBonusThreshold":0.05,"exampleCost":0.02},"classroomParams":{"A":{"a":1,"b":4},"B":{"a":4,"b":1},"C":{"a":2,"b":8},"D":{"a":8,"b":2}},"conditions":["nonSeqFull","nonSeqPartial","seqNoFeedback","seqFeedback"],"classroomPairings":[["A","B"],["C","D"]],"coinWeights":[0.2,0.5,0.8],"subjectId":"A3LFVI65XV1T46","assignmentId":"3VSOLARPKCVPRD4LHY5UK1OAUDS939","hitId":"39WICJI5ATE2BKO4UUUR86UGAV2Z3G","url":"https://gershmanlab.com/experiments/alicia/teaching/experiment/?hitId=39WICJI5ATE2BKO4UUUR86UGAV2Z3G&workerId=A3LFVI65XV1T46&assignmentId=3VSOLARPKCVPRD4LHY5UK1OAUDS939&a=PLSV3&tp_a=PLSV3&b=3VSOLARPKCVPRD4LHY5UK1OAUDS939&tp_b=3VSOLARPKCVPRD4LHY5UK1OAUDS939&c=365633&tp_c=365633"},{"rt":12895,"response":{"heads":"2","tails":"8"},"type":"response","condition":"seqFeedback","trueTheta":0.2,"classrooms":["A","B"],"studentTrueClassroom":"B","exampleSet":"first","trial_type":"survey-html-form","trial_index":13,"time_elapsed":273780,"internal_node_id":"0.0-12.0-0.0","params":{"nStudents":24,"maxFlips":25,"completionMinutes":45,"basePay":8,"maxBonus":9,"perTrialBonus":0.5,"perTrialBonusThreshold":0.05,"exampleCost":0.02},"classroomParams":{"A":{"a":1,"b":4},"B":{"a":4,"b":1},"C":{"a":2,"b":8},"D":{"a":8,"b":2}},"conditions":["nonSeqFull","nonSeqPartial","seqNoFeedback","seqFeedback"],"classroomPairings":[["A","B"],["C","D"]],"coinWeights":[0.2,0.5,0.8],"subjectId":"A3LFVI65XV1T46","assignmentId":"3VSOLARPKCVPRD4LHY5UK1OAUDS939","hitId":"39WICJI5ATE2BKO4UUUR86UGAV2Z3G","url":"https://gershmanlab.com/experiments/alicia/teaching/experiment/?hitId=39WICJI5ATE2BKO4UUUR86UGAV2Z3G&workerId=A3LFVI65XV1T46&assignmentId=3VSOLARPKCVPRD4LHY5UK1OAUDS939&a=PLSV3&tp_a=PLSV3&b=3VSOLARPKCVPRD4LHY5UK1OAUDS939&tp_b=3VSOLARPKCVPRD4LHY5UK1OAUDS939&c=365633&tp_c=365633","heads":2,"tails":8,"studentIndex":1,"studentTrueHypers":{"a":4,"b":1},"studentGuess":0.4,"delta":0.2,"totalExamples":10,"bonusSoFar":0},{"rt":null,"stimulus":"Sending examples to student... ","response":null,"trial_type":"html-keyboard-response","trial_index":14,"time_elapsed":275783,"internal_node_id":"0.0-13.0","params":{"nStudents":24,"maxFlips":25,"completionMinutes":45,"basePay":8,"maxBonus":9,"perTrialBonus":0.5,"perTrialBonusThreshold":0.05,"exampleCost":0.02},"classroomParams":{"A":{"a":1,"b":4},"B":{"a":4,"b":1},"C":{"a":2,"b":8},"D":{"a":8,"b":2}},"conditions":["nonSeqFull","nonSeqPartial","seqNoFeedback","seqFeedback"],"classroomPairings":[["A","B"],["C","D"]],"coinWeights":[0.2,0.5,0.8],"subjectId":"A3LFVI65XV1T46","assignmentId":"3VSOLARPKCVPRD4LHY5UK1OAUDS939","hitId":"39WICJI5ATE2BKO4UUUR86UGAV2Z3G","url":"https://gershmanlab.com/experiments/alicia/teaching/experiment/?hitId=39WICJI5ATE2BKO4UUUR86UGAV2Z3G&workerId=A3LFVI65XV1T46&assignmentId=3VSOLARPKCVPRD4LHY5UK1OAUDS939&a=PLSV3&tp_a=PLSV3&b=3VSOLARPKCVPRD4LHY5UK1OAUDS939&tp_b=3VSOLARPKCVPRD4LHY5UK1OAUDS939&c=365633&tp_c=365633"},{"rt":null,"stimulus":"Examples sent to student! Waiting for student...","response":null,"trial_type":"html-keyboard-response","trial_index":15,"time_elapsed":281302,"internal_node_id":"0.0-14.0","params":{"nStudents":24,"maxFlips":25,"completionMinutes":45,"basePay":8,"maxBonus":9,"perTrialBonus":0.5,"perTrialBonusThreshold":0.05,"exampleCost":0.02},"classroomParams":{"A":{"a":1,"b":4},"B":{"a":4,"b":1},"C":{"a":2,"b":8},"D":{"a":8,"b":2}},"conditions":["nonSeqFull","nonSeqPartial","seqNoFeedback","seqFeedback"],"classroomPairings":[["A","B"],["C","D"]],"coinWeights":[0.2,0.5,0.8],"subjectId":"A3LFVI65XV1T46","assignmentId":"3VSOLARPKCVPRD4LHY5UK1OAUDS939","hitId":"39WICJI5ATE2BKO4UUUR86UGAV2Z3G","url":"https://gershmanlab.com/experiments/alicia/teaching/experiment/?hitId=39WICJI5ATE2BKO4UUUR86UGAV2Z3G&workerId=A3LFVI65XV1T46&assignmentId=3VSOLARPKCVPRD4LHY5UK1OAUDS939&a=PLSV3&tp_a=PLSV3&b=3VSOLARPKCVPRD4LHY5UK1OAUDS939&tp_b=3VSOLARPKCVPRD4LHY5UK1OAUDS939&c=365633&tp_c=365633"},{"rt":3707,"stimulus":"\n                <p>Student's guess for coin weight: <b style=\"color:Tomato;\">0.40</b></p>\n                <p></b></p>\n                <p>You will now send another set of examples to your student. <b>Remember to take your student's guess into consideration so that you can earn the highest bonus possible!</b> </p>\n                <p>Press any key to continue.</p>\n                ","response":"enter","trial_type":"html-keyboard-response","trial_index":16,"time_elapsed":285011,"internal_node_id":"0.0-15.0","params":{"nStudents":24,"maxFlips":25,"completionMinutes":45,"basePay":8,"maxBonus":9,"perTrialBonus":0.5,"perTrialBonusThreshold":0.05,"exampleCost":0.02},"classroomParams":{"A":{"a":1,"b":4},"B":{"a":4,"b":1},"C":{"a":2,"b":8},"D":{"a":8,"b":2}},"conditions":["nonSeqFull","nonSeqPartial","seqNoFeedback","seqFeedback"],"classroomPairings":[["A","B"],["C","D"]],"coinWeights":[0.2,0.5,0.8],"subjectId":"A3LFVI65XV1T46","assignmentId":"3VSOLARPKCVPRD4LHY5UK1OAUDS939","hitId":"39WICJI5ATE2BKO4UUUR86UGAV2Z3G","url":"https://gershmanlab.com/experiments/alicia/teaching/experiment/?hitId=39WICJI5ATE2BKO4UUUR86UGAV2Z3G&workerId=A3LFVI65XV1T46&assignmentId=3VSOLARPKCVPRD4LHY5UK1OAUDS939&a=PLSV3&tp_a=PLSV3&b=3VSOLARPKCVPRD4LHY5UK1OAUDS939&tp_b=3VSOLARPKCVPRD4LHY5UK1OAUDS939&c=365633&tp_c=365633"},{"rt":16288,"response":{"heads":"2","tails":"8"},"type":"response","condition":"seqFeedback","trueTheta":0.2,"classrooms":["A","B"],"studentTrueClassroom":"B","exampleSet":"second","trial_type":"survey-html-form","trial_index":17,"time_elapsed":301301,"internal_node_id":"0.0-16.0-0.0","params":{"nStudents":24,"maxFlips":25,"completionMinutes":45,"basePay":8,"maxBonus":9,"perTrialBonus":0.5,"perTrialBonusThreshold":0.05,"exampleCost":0.02},"classroomParams":{"A":{"a":1,"b":4},"B":{"a":4,"b":1},"C":{"a":2,"b":8},"D":{"a":8,"b":2}},"conditions":["nonSeqFull","nonSeqPartial","seqNoFeedback","seqFeedback"],"classroomPairings":[["A","B"],["C","D"]],"coinWeights":[0.2,0.5,0.8],"subjectId":"A3LFVI65XV1T46","assignmentId":"3VSOLARPKCVPRD4LHY5UK1OAUDS939","hitId":"39WICJI5ATE2BKO4UUUR86UGAV2Z3G","url":"https://gershmanlab.com/experiments/alicia/teaching/experiment/?hitId=39WICJI5ATE2BKO4UUUR86UGAV2Z3G&workerId=A3LFVI65XV1T46&assignmentId=3VSOLARPKCVPRD4LHY5UK1OAUDS939&a=PLSV3&tp_a=PLSV3&b=3VSOLARPKCVPRD4LHY5UK1OAUDS939&tp_b=3VSOLARPKCVPRD4LHY5UK1OAUDS939&c=365633&tp_c=365633","firstResponseHeads":2,"firstResponseTails":8,"secondResponseHeads":2,"secondResponseTails":8,"totalHeads":4,"totalTails":16,"studentIndex":1,"studentTrueHypers":{"a":4,"b":1},"studentGuess":0.32,"delta":0.12,"bonus":0,"bonusSoFar":0,"totalExamples":20},{"rt":null,"stimulus":"Sending examples to student... ","response":null,"trial_type":"html-keyboard-response","trial_index":18,"time_elapsed":302810,"internal_node_id":"0.0-17.0","params":{"nStudents":24,"maxFlips":25,"completionMinutes":45,"basePay":8,"maxBonus":9,"perTrialBonus":0.5,"perTrialBonusThreshold":0.05,"exampleCost":0.02},"classroomParams":{"A":{"a":1,"b":4},"B":{"a":4,"b":1},"C":{"a":2,"b":8},"D":{"a":8,"b":2}},"conditions":["nonSeqFull","nonSeqPartial","seqNoFeedback","seqFeedback"],"classroomPairings":[["A","B"],["C","D"]],"coinWeights":[0.2,0.5,0.8],"subjectId":"A3LFVI65XV1T46","assignmentId":"3VSOLARPKCVPRD4LHY5UK1OAUDS939","hitId":"39WICJI5ATE2BKO4UUUR86UGAV2Z3G","url":"https://gershmanlab.com/experiments/alicia/teaching/experiment/?hitId=39WICJI5ATE2BKO4UUUR86UGAV2Z3G&workerId=A3LFVI65XV1T46&assignmentId=3VSOLARPKCVPRD4LHY5UK1OAUDS939&a=PLSV3&tp_a=PLSV3&b=3VSOLARPKCVPRD4LHY5UK1OAUDS939&tp_b=3VSOLARPKCVPRD4LHY5UK1OAUDS939&c=365633&tp_c=365633"},{"rt":null,"stimulus":"Examples sent to student! Waiting for student...","response":null,"trial_type":"html-keyboard-response","trial_index":19,"time_elapsed":308819,"internal_node_id":"0.0-18.0","params":{"nStudents":24,"maxFlips":25,"completionMinutes":45,"basePay":8,"maxBonus":9,"perTrialBonus":0.5,"perTrialBonusThreshold":0.05,"exampleCost":0.02},"classroomParams":{"A":{"a":1,"b":4},"B":{"a":4,"b":1},"C":{"a":2,"b":8},"D":{"a":8,"b":2}},"conditions":["nonSeqFull","nonSeqPartial","seqNoFeedback","seqFeedback"],"classroomPairings":[["A","B"],["C","D"]],"coinWeights":[0.2,0.5,0.8],"subjectId":"A3LFVI65XV1T46","assignmentId":"3VSOLARPKCVPRD4LHY5UK1OAUDS939","hitId":"39WICJI5ATE2BKO4UUUR86UGAV2Z3G","url":"https://gershmanlab.com/experiments/alicia/teaching/experiment/?hitId=39WICJI5ATE2BKO4UUUR86UGAV2Z3G&workerId=A3LFVI65XV1T46&assignmentId=3VSOLARPKCVPRD4LHY5UK1OAUDS939&a=PLSV3&tp_a=PLSV3&b=3VSOLARPKCVPRD4LHY5UK1OAUDS939&tp_b=3VSOLARPKCVPRD4LHY5UK1OAUDS939&c=365633&tp_c=365633"},{"rt":3446,"stimulus":"\n                <p>Student 2's first guess for coin weight: <b style=\"color:Tomato\";>0.40</b></p>\n                <p>Student 2's second guess for coin weight: <b style=\"color:Tomato\";>0.32</b></p>\n                <p>You received a bonus of <b>$0.00</b> based on the student's second guess.</p>\n                <p>Total bonus so far: <b>$0.00</b></p>\n                <p>Press any key to continue.</p>\n                ","response":"enter","trial_type":"html-keyboard-response","trial_index":20,"time_elapsed":312267,"internal_node_id":"0.0-19.0","params":{"nStudents":24,"maxFlips":25,"completionMinutes":45,"basePay":8,"maxBonus":9,"perTrialBonus":0.5,"perTrialBonusThreshold":0.05,"exampleCost":0.02},"classroomParams":{"A":{"a":1,"b":4},"B":{"a":4,"b":1},"C":{"a":2,"b":8},"D":{"a":8,"b":2}},"conditions":["nonSeqFull","nonSeqPartial","seqNoFeedback","seqFeedback"],"classroomPairings":[["A","B"],["C","D"]],"coinWeights":[0.2,0.5,0.8],"subjectId":"A3LFVI65XV1T46","assignmentId":"3VSOLARPKCVPRD4LHY5UK1OAUDS939","hitId":"39WICJI5ATE2BKO4UUUR86UGAV2Z3G","url":"https://gershmanlab.com/experiments/alicia/teaching/experiment/?hitId=39WICJI5ATE2BKO4UUUR86UGAV2Z3G&workerId=A3LFVI65XV1T46&assignmentId=3VSOLARPKCVPRD4LHY5UK1OAUDS939&a=PLSV3&tp_a=PLSV3&b=3VSOLARPKCVPRD4LHY5UK1OAUDS939&tp_b=3VSOLARPKCVPRD4LHY5UK1OAUDS939&c=365633&tp_c=365633"},{"rt":null,"stimulus":"<div style=\"font-size:60px;\">Next student</div>","response":null,"trial_type":"html-keyboard-response","trial_index":21,"time_elapsed":314270,"internal_node_id":"0.0-20.0-0.0","params":{"nStudents":24,"maxFlips":25,"completionMinutes":45,"basePay":8,"maxBonus":9,"perTrialBonus":0.5,"perTrialBonusThreshold":0.05,"exampleCost":0.02},"classroomParams":{"A":{"a":1,"b":4},"B":{"a":4,"b":1},"C":{"a":2,"b":8},"D":{"a":8,"b":2}},"conditions":["nonSeqFull","nonSeqPartial","seqNoFeedback","seqFeedback"],"classroomPairings":[["A","B"],["C","D"]],"coinWeights":[0.2,0.5,0.8],"subjectId":"A3LFVI65XV1T46","assignmentId":"3VSOLARPKCVPRD4LHY5UK1OAUDS939","hitId":"39WICJI5ATE2BKO4UUUR86UGAV2Z3G","url":"https://gershmanlab.com/experiments/alicia/teaching/experiment/?hitId=39WICJI5ATE2BKO4UUUR86UGAV2Z3G&workerId=A3LFVI65XV1T46&assignmentId=3VSOLARPKCVPRD4LHY5UK1OAUDS939&a=PLSV3&tp_a=PLSV3&b=3VSOLARPKCVPRD4LHY5UK1OAUDS939&tp_b=3VSOLARPKCVPRD4LHY5UK1OAUDS939&c=365633&tp_c=365633"},{"rt":4694,"stimulus":"\n            <h4 style=\"color:Orange;\">Student 3</h4>\n            <h2>The weight of your coin is <b style=\"color:Tomato;\">0.2</b>.</h2>\n            <p>In this block, you will be giving <b>one</b> set of examples to Student 3.</p>\n                <p>You will receive feedback at the end of the block.</p>\n            <p></p>","response":0,"trial_type":"html-button-response","trial_index":22,"time_elapsed":318964,"internal_node_id":"0.0-21.0","params":{"nStudents":24,"maxFlips":25,"completionMinutes":45,"basePay":8,"maxBonus":9,"perTrialBonus":0.5,"perTrialBonusThreshold":0.05,"exampleCost":0.02},"classroomParams":{"A":{"a":1,"b":4},"B":{"a":4,"b":1},"C":{"a":2,"b":8},"D":{"a":8,"b":2}},"conditions":["nonSeqFull","nonSeqPartial","seqNoFeedback","seqFeedback"],"classroomPairings":[["A","B"],["C","D"]],"coinWeights":[0.2,0.5,0.8],"subjectId":"A3LFVI65XV1T46","assignmentId":"3VSOLARPKCVPRD4LHY5UK1OAUDS939","hitId":"39WICJI5ATE2BKO4UUUR86UGAV2Z3G","url":"https://gershmanlab.com/experiments/alicia/teaching/experiment/?hitId=39WICJI5ATE2BKO4UUUR86UGAV2Z3G&workerId=A3LFVI65XV1T46&assignmentId=3VSOLARPKCVPRD4LHY5UK1OAUDS939&a=PLSV3&tp_a=PLSV3&b=3VSOLARPKCVPRD4LHY5UK1OAUDS939&tp_b=3VSOLARPKCVPRD4LHY5UK1OAUDS939&c=365633&tp_c=365633"},{"rt":12342,"response":{"heads":"2","tails":"5"},"type":"response","condition":"nonSeqFull","trueTheta":0.2,"classrooms":["A","B"],"studentTrueClassroom":"A","exampleSet":"first","trial_type":"survey-html-form","trial_index":23,"time_elapsed":331309,"internal_node_id":"0.0-22.0-0.0","params":{"nStudents":24,"maxFlips":25,"completionMinutes":45,"basePay":8,"maxBonus":9,"perTrialBonus":0.5,"perTrialBonusThreshold":0.05,"exampleCost":0.02},"classroomParams":{"A":{"a":1,"b":4},"B":{"a":4,"b":1},"C":{"a":2,"b":8},"D":{"a":8,"b":2}},"conditions":["nonSeqFull","nonSeqPartial","seqNoFeedback","seqFeedback"],"classroomPairings":[["A","B"],["C","D"]],"coinWeights":[0.2,0.5,0.8],"subjectId":"A3LFVI65XV1T46","assignmentId":"3VSOLARPKCVPRD4LHY5UK1OAUDS939","hitId":"39WICJI5ATE2BKO4UUUR86UGAV2Z3G","url":"https://gershmanlab.com/experiments/alicia/teaching/experiment/?hitId=39WICJI5ATE2BKO4UUUR86UGAV2Z3G&workerId=A3LFVI65XV1T46&assignmentId=3VSOLARPKCVPRD4LHY5UK1OAUDS939&a=PLSV3&tp_a=PLSV3&b=3VSOLARPKCVPRD4LHY5UK1OAUDS939&tp_b=3VSOLARPKCVPRD4LHY5UK1OAUDS939&c=365633&tp_c=365633","heads":2,"tails":5,"studentIndex":2,"studentTrueHypers":{"a":1,"b":4},"studentGuess":0.25,"delta":0.04999999999999999,"totalExamples":7,"bonus":0.36,"bonusSoFar":0.36},{"rt":null,"stimulus":"Sending examples to student... ","response":null,"trial_type":"html-keyboard-response","trial_index":24,"time_elapsed":332819,"internal_node_id":"0.0-23.0","params":{"nStudents":24,"maxFlips":25,"completionMinutes":45,"basePay":8,"maxBonus":9,"perTrialBonus":0.5,"perTrialBonusThreshold":0.05,"exampleCost":0.02},"classroomParams":{"A":{"a":1,"b":4},"B":{"a":4,"b":1},"C":{"a":2,"b":8},"D":{"a":8,"b":2}},"conditions":["nonSeqFull","nonSeqPartial","seqNoFeedback","seqFeedback"],"classroomPairings":[["A","B"],["C","D"]],"coinWeights":[0.2,0.5,0.8],"subjectId":"A3LFVI65XV1T46","assignmentId":"3VSOLARPKCVPRD4LHY5UK1OAUDS939","hitId":"39WICJI5ATE2BKO4UUUR86UGAV2Z3G","url":"https://gershmanlab.com/experiments/alicia/teaching/experiment/?hitId=39WICJI5ATE2BKO4UUUR86UGAV2Z3G&workerId=A3LFVI65XV1T46&assignmentId=3VSOLARPKCVPRD4LHY5UK1OAUDS939&a=PLSV3&tp_a=PLSV3&b=3VSOLARPKCVPRD4LHY5UK1OAUDS939&tp_b=3VSOLARPKCVPRD4LHY5UK1OAUDS939&c=365633&tp_c=365633"},{"rt":null,"stimulus":"Examples sent to student! Waiting for student...","response":null,"trial_type":"html-keyboard-response","trial_index":25,"time_elapsed":337835,"internal_node_id":"0.0-24.0","params":{"nStudents":24,"maxFlips":25,"completionMinutes":45,"basePay":8,"maxBonus":9,"perTrialBonus":0.5,"perTrialBonusThreshold":0.05,"exampleCost":0.02},"classroomParams":{"A":{"a":1,"b":4},"B":{"a":4,"b":1},"C":{"a":2,"b":8},"D":{"a":8,"b":2}},"conditions":["nonSeqFull","nonSeqPartial","seqNoFeedback","seqFeedback"],"classroomPairings":[["A","B"],["C","D"]],"coinWeights":[0.2,0.5,0.8],"subjectId":"A3LFVI65XV1T46","assignmentId":"3VSOLARPKCVPRD4LHY5UK1OAUDS939","hitId":"39WICJI5ATE2BKO4UUUR86UGAV2Z3G","url":"https://gershmanlab.com/experiments/alicia/teaching/experiment/?hitId=39WICJI5ATE2BKO4UUUR86UGAV2Z3G&workerId=A3LFVI65XV1T46&assignmentId=3VSOLARPKCVPRD4LHY5UK1OAUDS939&a=PLSV3&tp_a=PLSV3&b=3VSOLARPKCVPRD4LHY5UK1OAUDS939&tp_b=3VSOLARPKCVPRD4LHY5UK1OAUDS939&c=365633&tp_c=365633"},{"rt":3093,"stimulus":"\n                <p>Student's guess for coin weight: <b style=\"color:Tomato;\">0.25</b></p>\n                <p>You received a bonus of <b>$0.36</b>. Total bonus so far: <b>$0.36</b></b></p>\n                <p></p>\n                <p>Press any key to continue.</p>\n                ","response":"enter","trial_type":"html-keyboard-response","trial_index":26,"time_elapsed":340930,"internal_node_id":"0.0-25.0","params":{"nStudents":24,"maxFlips":25,"completionMinutes":45,"basePay":8,"maxBonus":9,"perTrialBonus":0.5,"perTrialBonusThreshold":0.05,"exampleCost":0.02},"classroomParams":{"A":{"a":1,"b":4},"B":{"a":4,"b":1},"C":{"a":2,"b":8},"D":{"a":8,"b":2}},"conditions":["nonSeqFull","nonSeqPartial","seqNoFeedback","seqFeedback"],"classroomPairings":[["A","B"],["C","D"]],"coinWeights":[0.2,0.5,0.8],"subjectId":"A3LFVI65XV1T46","assignmentId":"3VSOLARPKCVPRD4LHY5UK1OAUDS939","hitId":"39WICJI5ATE2BKO4UUUR86UGAV2Z3G","url":"https://gershmanlab.com/experiments/alicia/teaching/experiment/?hitId=39WICJI5ATE2BKO4UUUR86UGAV2Z3G&workerId=A3LFVI65XV1T46&assignmentId=3VSOLARPKCVPRD4LHY5UK1OAUDS939&a=PLSV3&tp_a=PLSV3&b=3VSOLARPKCVPRD4LHY5UK1OAUDS939&tp_b=3VSOLARPKCVPRD4LHY5UK1OAUDS939&c=365633&tp_c=365633"},{"rt":null,"stimulus":"<div style=\"font-size:60px;\">Next student</div>","response":null,"trial_type":"html-keyboard-response","trial_index":27,"time_elapsed":343189,"internal_node_id":"0.0-26.0-0.0","params":{"nStudents":24,"maxFlips":25,"completionMinutes":45,"basePay":8,"maxBonus":9,"perTrialBonus":0.5,"perTrialBonusThreshold":0.05,"exampleCost":0.02},"classroomParams":{"A":{"a":1,"b":4},"B":{"a":4,"b":1},"C":{"a":2,"b":8},"D":{"a":8,"b":2}},"conditions":["nonSeqFull","nonSeqPartial","seqNoFeedback","seqFeedback"],"classroomPairings":[["A","B"],["C","D"]],"coinWeights":[0.2,0.5,0.8],"subjectId":"A3LFVI65XV1T46","assignmentId":"3VSOLARPKCVPRD4LHY5UK1OAUDS939","hitId":"39WICJI5ATE2BKO4UUUR86UGAV2Z3G","url":"https://gershmanlab.com/experiments/alicia/teaching/experiment/?hitId=39WICJI5ATE2BKO4UUUR86UGAV2Z3G&workerId=A3LFVI65XV1T46&assignmentId=3VSOLARPKCVPRD4LHY5UK1OAUDS939&a=PLSV3&tp_a=PLSV3&b=3VSOLARPKCVPRD4LHY5UK1OAUDS939&tp_b=3VSOLARPKCVPRD4LHY5UK1OAUDS939&c=365633&tp_c=365633"},{"rt":3462,"stimulus":"\n            <h4 style=\"color:Orange;\">Student 4</h4>\n            <h2>The weight of your coin is <b style=\"color:Tomato;\">0.2</b>.</h2>\n            <p>In this block, you will be giving <b>one</b> set of examples to Student 4.</p>\n                <p>You will receive feedback at the end of the block.</p>\n            <p></p>","response":0,"trial_type":"html-button-response","trial_index":28,"time_elapsed":346652,"internal_node_id":"0.0-27.0","params":{"nStudents":24,"maxFlips":25,"completionMinutes":45,"basePay":8,"maxBonus":9,"perTrialBonus":0.5,"perTrialBonusThreshold":0.05,"exampleCost":0.02},"classroomParams":{"A":{"a":1,"b":4},"B":{"a":4,"b":1},"C":{"a":2,"b":8},"D":{"a":8,"b":2}},"conditions":["nonSeqFull","nonSeqPartial","seqNoFeedback","seqFeedback"],"classroomPairings":[["A","B"],["C","D"]],"coinWeights":[0.2,0.5,0.8],"subjectId":"A3LFVI65XV1T46","assignmentId":"3VSOLARPKCVPRD4LHY5UK1OAUDS939","hitId":"39WICJI5ATE2BKO4UUUR86UGAV2Z3G","url":"https://gershmanlab.com/experiments/alicia/teaching/experiment/?hitId=39WICJI5ATE2BKO4UUUR86UGAV2Z3G&workerId=A3LFVI65XV1T46&assignmentId=3VSOLARPKCVPRD4LHY5UK1OAUDS939&a=PLSV3&tp_a=PLSV3&b=3VSOLARPKCVPRD4LHY5UK1OAUDS939&tp_b=3VSOLARPKCVPRD4LHY5UK1OAUDS939&c=365633&tp_c=365633"},{"rt":5809,"response":{"heads":"2","tails":"5"},"type":"response","condition":"nonSeqPartial","trueTheta":0.2,"classrooms":["A","B"],"studentTrueClassroom":"A","exampleSet":"first","trial_type":"survey-html-form","trial_index":29,"time_elapsed":352464,"internal_node_id":"0.0-28.0-0.0","params":{"nStudents":24,"maxFlips":25,"completionMinutes":45,"basePay":8,"maxBonus":9,"perTrialBonus":0.5,"perTrialBonusThreshold":0.05,"exampleCost":0.02},"classroomParams":{"A":{"a":1,"b":4},"B":{"a":4,"b":1},"C":{"a":2,"b":8},"D":{"a":8,"b":2}},"conditions":["nonSeqFull","nonSeqPartial","seqNoFeedback","seqFeedback"],"classroomPairings":[["A","B"],["C","D"]],"coinWeights":[0.2,0.5,0.8],"subjectId":"A3LFVI65XV1T46","assignmentId":"3VSOLARPKCVPRD4LHY5UK1OAUDS939","hitId":"39WICJI5ATE2BKO4UUUR86UGAV2Z3G","url":"https://gershmanlab.com/experiments/alicia/teaching/experiment/?hitId=39WICJI5ATE2BKO4UUUR86UGAV2Z3G&workerId=A3LFVI65XV1T46&assignmentId=3VSOLARPKCVPRD4LHY5UK1OAUDS939&a=PLSV3&tp_a=PLSV3&b=3VSOLARPKCVPRD4LHY5UK1OAUDS939&tp_b=3VSOLARPKCVPRD4LHY5UK1OAUDS939&c=365633&tp_c=365633","heads":2,"tails":5,"studentIndex":3,"studentTrueHypers":{"a":1,"b":4},"studentGuess":0.25,"delta":0.04999999999999999,"totalExamples":7,"bonus":0.36,"bonusSoFar":0.72},{"rt":null,"stimulus":"Sending examples to student... ","response":null,"trial_type":"html-keyboard-response","trial_index":30,"time_elapsed":353971,"internal_node_id":"0.0-29.0","params":{"nStudents":24,"maxFlips":25,"completionMinutes":45,"basePay":8,"maxBonus":9,"perTrialBonus":0.5,"perTrialBonusThreshold":0.05,"exampleCost":0.02},"classroomParams":{"A":{"a":1,"b":4},"B":{"a":4,"b":1},"C":{"a":2,"b":8},"D":{"a":8,"b":2}},"conditions":["nonSeqFull","nonSeqPartial","seqNoFeedback","seqFeedback"],"classroomPairings":[["A","B"],["C","D"]],"coinWeights":[0.2,0.5,0.8],"subjectId":"A3LFVI65XV1T46","assignmentId":"3VSOLARPKCVPRD4LHY5UK1OAUDS939","hitId":"39WICJI5ATE2BKO4UUUR86UGAV2Z3G","url":"https://gershmanlab.com/experiments/alicia/teaching/experiment/?hitId=39WICJI5ATE2BKO4UUUR86UGAV2Z3G&workerId=A3LFVI65XV1T46&assignmentId=3VSOLARPKCVPRD4LHY5UK1OAUDS939&a=PLSV3&tp_a=PLSV3&b=3VSOLARPKCVPRD4LHY5UK1OAUDS939&tp_b=3VSOLARPKCVPRD4LHY5UK1OAUDS939&c=365633&tp_c=365633"},{"rt":null,"stimulus":"Examples sent to student! Waiting for student...","response":null,"trial_type":"html-keyboard-response","trial_index":31,"time_elapsed":358493,"internal_node_id":"0.0-30.0","params":{"nStudents":24,"maxFlips":25,"completionMinutes":45,"basePay":8,"maxBonus":9,"perTrialBonus":0.5,"perTrialBonusThreshold":0.05,"exampleCost":0.02},"classroomParams":{"A":{"a":1,"b":4},"B":{"a":4,"b":1},"C":{"a":2,"b":8},"D":{"a":8,"b":2}},"conditions":["nonSeqFull","nonSeqPartial","seqNoFeedback","seqFeedback"],"classroomPairings":[["A","B"],["C","D"]],"coinWeights":[0.2,0.5,0.8],"subjectId":"A3LFVI65XV1T46","assignmentId":"3VSOLARPKCVPRD4LHY5UK1OAUDS939","hitId":"39WICJI5ATE2BKO4UUUR86UGAV2Z3G","url":"https://gershmanlab.com/experiments/alicia/teaching/experiment/?hitId=39WICJI5ATE2BKO4UUUR86UGAV2Z3G&workerId=A3LFVI65XV1T46&assignmentId=3VSOLARPKCVPRD4LHY5UK1OAUDS939&a=PLSV3&tp_a=PLSV3&b=3VSOLARPKCVPRD4LHY5UK1OAUDS939&tp_b=3VSOLARPKCVPRD4LHY5UK1OAUDS939&c=365633&tp_c=365633"},{"rt":3636,"stimulus":"\n                <p>Student's guess for coin weight: <b style=\"color:Tomato;\">0.25</b></p>\n                <p>You received a bonus of <b>$0.36</b>. Total bonus so far: <b>$0.72</b></b></p>\n                <p></p>\n                <p>Press any key to continue.</p>\n                ","response":"enter","trial_type":"html-keyboard-response","trial_index":32,"time_elapsed":362131,"internal_node_id":"0.0-31.0","params":{"nStudents":24,"maxFlips":25,"completionMinutes":45,"basePay":8,"maxBonus":9,"perTrialBonus":0.5,"perTrialBonusThreshold":0.05,"exampleCost":0.02},"classroomParams":{"A":{"a":1,"b":4},"B":{"a":4,"b":1},"C":{"a":2,"b":8},"D":{"a":8,"b":2}},"conditions":["nonSeqFull","nonSeqPartial","seqNoFeedback","seqFeedback"],"classroomPairings":[["A","B"],["C","D"]],"coinWeights":[0.2,0.5,0.8],"subjectId":"A3LFVI65XV1T46","assignmentId":"3VSOLARPKCVPRD4LHY5UK1OAUDS939","hitId":"39WICJI5ATE2BKO4UUUR86UGAV2Z3G","url":"https://gershmanlab.com/experiments/alicia/teaching/experiment/?hitId=39WICJI5ATE2BKO4UUUR86UGAV2Z3G&workerId=A3LFVI65XV1T46&assignmentId=3VSOLARPKCVPRD4LHY5UK1OAUDS939&a=PLSV3&tp_a=PLSV3&b=3VSOLARPKCVPRD4LHY5UK1OAUDS939&tp_b=3VSOLARPKCVPRD4LHY5UK1OAUDS939&c=365633&tp_c=365633"},{"rt":null,"stimulus":"<div style=\"font-size:60px;\">Next student</div>","response":null,"trial_type":"html-keyboard-response","trial_index":33,"time_elapsed":364146,"internal_node_id":"0.0-32.0-0.0","params":{"nStudents":24,"maxFlips":25,"completionMinutes":45,"basePay":8,"maxBonus":9,"perTrialBonus":0.5,"perTrialBonusThreshold":0.05,"exampleCost":0.02},"classroomParams":{"A":{"a":1,"b":4},"B":{"a":4,"b":1},"C":{"a":2,"b":8},"D":{"a":8,"b":2}},"conditions":["nonSeqFull","nonSeqPartial","seqNoFeedback","seqFeedback"],"classroomPairings":[["A","B"],["C","D"]],"coinWeights":[0.2,0.5,0.8],"subjectId":"A3LFVI65XV1T46","assignmentId":"3VSOLARPKCVPRD4LHY5UK1OAUDS939","hitId":"39WICJI5ATE2BKO4UUUR86UGAV2Z3G","url":"https://gershmanlab.com/experiments/alicia/teaching/experiment/?hitId=39WICJI5ATE2BKO4UUUR86UGAV2Z3G&workerId=A3LFVI65XV1T46&assignmentId=3VSOLARPKCVPRD4LHY5UK1OAUDS939&a=PLSV3&tp_a=PLSV3&b=3VSOLARPKCVPRD4LHY5UK1OAUDS939&tp_b=3VSOLARPKCVPRD4LHY5UK1OAUDS939&c=365633&tp_c=365633"},{"rt":2504,"stimulus":"\n            <h4 style=\"color:Orange;\">Student 5</h4>\n            <h2>The weight of your coin is <b style=\"color:Tomato;\">0.5</b>.</h2>\n            <p>In this block, you will be giving <b>one</b> set of examples to Student 5.</p>\n                <p>You will receive feedback at the end of the block.</p>\n            <p></p>","response":0,"trial_type":"html-button-response","trial_index":34,"time_elapsed":366651,"internal_node_id":"0.0-33.0","params":{"nStudents":24,"maxFlips":25,"completionMinutes":45,"basePay":8,"maxBonus":9,"perTrialBonus":0.5,"perTrialBonusThreshold":0.05,"exampleCost":0.02},"classroomParams":{"A":{"a":1,"b":4},"B":{"a":4,"b":1},"C":{"a":2,"b":8},"D":{"a":8,"b":2}},"conditions":["nonSeqFull","nonSeqPartial","seqNoFeedback","seqFeedback"],"classroomPairings":[["A","B"],["C","D"]],"coinWeights":[0.2,0.5,0.8],"subjectId":"A3LFVI65XV1T46","assignmentId":"3VSOLARPKCVPRD4LHY5UK1OAUDS939","hitId":"39WICJI5ATE2BKO4UUUR86UGAV2Z3G","url":"https://gershmanlab.com/experiments/alicia/teaching/experiment/?hitId=39WICJI5ATE2BKO4UUUR86UGAV2Z3G&workerId=A3LFVI65XV1T46&assignmentId=3VSOLARPKCVPRD4LHY5UK1OAUDS939&a=PLSV3&tp_a=PLSV3&b=3VSOLARPKCVPRD4LHY5UK1OAUDS939&tp_b=3VSOLARPKCVPRD4LHY5UK1OAUDS939&c=365633&tp_c=365633"},{"rt":9016,"response":{"heads":"2","tails":"2"},"type":"response","condition":"nonSeqFull","trueTheta":0.5,"classrooms":["A","B"],"studentTrueClassroom":"B","exampleSet":"first","trial_type":"survey-html-form","trial_index":35,"time_elapsed":375670,"internal_node_id":"0.0-34.0-0.0","params":{"nStudents":24,"maxFlips":25,"completionMinutes":45,"basePay":8,"maxBonus":9,"perTrialBonus":0.5,"perTrialBonusThreshold":0.05,"exampleCost":0.02},"classroomParams":{"A":{"a":1,"b":4},"B":{"a":4,"b":1},"C":{"a":2,"b":8},"D":{"a":8,"b":2}},"conditions":["nonSeqFull","nonSeqPartial","seqNoFeedback","seqFeedback"],"classroomPairings":[["A","B"],["C","D"]],"coinWeights":[0.2,0.5,0.8],"subjectId":"A3LFVI65XV1T46","assignmentId":"3VSOLARPKCVPRD4LHY5UK1OAUDS939","hitId":"39WICJI5ATE2BKO4UUUR86UGAV2Z3G","url":"https://gershmanlab.com/experiments/alicia/teaching/experiment/?hitId=39WICJI5ATE2BKO4UUUR86UGAV2Z3G&workerId=A3LFVI65XV1T46&assignmentId=3VSOLARPKCVPRD4LHY5UK1OAUDS939&a=PLSV3&tp_a=PLSV3&b=3VSOLARPKCVPRD4LHY5UK1OAUDS939&tp_b=3VSOLARPKCVPRD4LHY5UK1OAUDS939&c=365633&tp_c=365633","heads":2,"tails":2,"studentIndex":4,"studentTrueHypers":{"a":4,"b":1},"studentGuess":0.6666666666666666,"delta":0.16666666666666663,"totalExamples":4,"bonus":0,"bonusSoFar":0.72},{"rt":null,"stimulus":"Sending examples to student... ","response":null,"trial_type":"html-keyboard-response","trial_index":36,"time_elapsed":377679,"internal_node_id":"0.0-35.0","params":{"nStudents":24,"maxFlips":25,"completionMinutes":45,"basePay":8,"maxBonus":9,"perTrialBonus":0.5,"perTrialBonusThreshold":0.05,"exampleCost":0.02},"classroomParams":{"A":{"a":1,"b":4},"B":{"a":4,"b":1},"C":{"a":2,"b":8},"D":{"a":8,"b":2}},"conditions":["nonSeqFull","nonSeqPartial","seqNoFeedback","seqFeedback"],"classroomPairings":[["A","B"],["C","D"]],"coinWeights":[0.2,0.5,0.8],"subjectId":"A3LFVI65XV1T46","assignmentId":"3VSOLARPKCVPRD4LHY5UK1OAUDS939","hitId":"39WICJI5ATE2BKO4UUUR86UGAV2Z3G","url":"https://gershmanlab.com/experiments/alicia/teaching/experiment/?hitId=39WICJI5ATE2BKO4UUUR86UGAV2Z3G&workerId=A3LFVI65XV1T46&assignmentId=3VSOLARPKCVPRD4LHY5UK1OAUDS939&a=PLSV3&tp_a=PLSV3&b=3VSOLARPKCVPRD4LHY5UK1OAUDS939&tp_b=3VSOLARPKCVPRD4LHY5UK1OAUDS939&c=365633&tp_c=365633"},{"rt":null,"stimulus":"Examples sent to student! Waiting for student...","response":null,"trial_type":"html-keyboard-response","trial_index":37,"time_elapsed":382682,"internal_node_id":"0.0-36.0","params":{"nStudents":24,"maxFlips":25,"completionMinutes":45,"basePay":8,"maxBonus":9,"perTrialBonus":0.5,"perTrialBonusThreshold":0.05,"exampleCost":0.02},"classroomParams":{"A":{"a":1,"b":4},"B":{"a":4,"b":1},"C":{"a":2,"b":8},"D":{"a":8,"b":2}},"conditions":["nonSeqFull","nonSeqPartial","seqNoFeedback","seqFeedback"],"classroomPairings":[["A","B"],["C","D"]],"coinWeights":[0.2,0.5,0.8],"subjectId":"A3LFVI65XV1T46","assignmentId":"3VSOLARPKCVPRD4LHY5UK1OAUDS939","hitId":"39WICJI5ATE2BKO4UUUR86UGAV2Z3G","url":"https://gershmanlab.com/experiments/alicia/teaching/experiment/?hitId=39WICJI5ATE2BKO4UUUR86UGAV2Z3G&workerId=A3LFVI65XV1T46&assignmentId=3VSOLARPKCVPRD4LHY5UK1OAUDS939&a=PLSV3&tp_a=PLSV3&b=3VSOLARPKCVPRD4LHY5UK1OAUDS939&tp_b=3VSOLARPKCVPRD4LHY5UK1OAUDS939&c=365633&tp_c=365633"},{"rt":3503,"stimulus":"\n                <p>Student's guess for coin weight: <b style=\"color:Tomato;\">0.67</b></p>\n                <p>You received a bonus of <b>$0</b>. Total bonus so far: <b>$0.72</b></b></p>\n                <p></p>\n                <p>Press any key to continue.</p>\n                ","response":"enter","trial_type":"html-keyboard-response","trial_index":38,"time_elapsed":386186,"internal_node_id":"0.0-37.0","params":{"nStudents":24,"maxFlips":25,"completionMinutes":45,"basePay":8,"maxBonus":9,"perTrialBonus":0.5,"perTrialBonusThreshold":0.05,"exampleCost":0.02},"classroomParams":{"A":{"a":1,"b":4},"B":{"a":4,"b":1},"C":{"a":2,"b":8},"D":{"a":8,"b":2}},"conditions":["nonSeqFull","nonSeqPartial","seqNoFeedback","seqFeedback"],"classroomPairings":[["A","B"],["C","D"]],"coinWeights":[0.2,0.5,0.8],"subjectId":"A3LFVI65XV1T46","assignmentId":"3VSOLARPKCVPRD4LHY5UK1OAUDS939","hitId":"39WICJI5ATE2BKO4UUUR86UGAV2Z3G","url":"https://gershmanlab.com/experiments/alicia/teaching/experiment/?hitId=39WICJI5ATE2BKO4UUUR86UGAV2Z3G&workerId=A3LFVI65XV1T46&assignmentId=3VSOLARPKCVPRD4LHY5UK1OAUDS939&a=PLSV3&tp_a=PLSV3&b=3VSOLARPKCVPRD4LHY5UK1OAUDS939&tp_b=3VSOLARPKCVPRD4LHY5UK1OAUDS939&c=365633&tp_c=365633"},{"rt":null,"stimulus":"<div style=\"font-size:60px;\">Next student</div>","response":null,"trial_type":"html-keyboard-response","trial_index":39,"time_elapsed":388196,"internal_node_id":"0.0-38.0-0.0","params":{"nStudents":24,"maxFlips":25,"completionMinutes":45,"basePay":8,"maxBonus":9,"perTrialBonus":0.5,"perTrialBonusThreshold":0.05,"exampleCost":0.02},"classroomParams":{"A":{"a":1,"b":4},"B":{"a":4,"b":1},"C":{"a":2,"b":8},"D":{"a":8,"b":2}},"conditions":["nonSeqFull","nonSeqPartial","seqNoFeedback","seqFeedback"],"classroomPairings":[["A","B"],["C","D"]],"coinWeights":[0.2,0.5,0.8],"subjectId":"A3LFVI65XV1T46","assignmentId":"3VSOLARPKCVPRD4LHY5UK1OAUDS939","hitId":"39WICJI5ATE2BKO4UUUR86UGAV2Z3G","url":"https://gershmanlab.com/experiments/alicia/teaching/experiment/?hitId=39WICJI5ATE2BKO4UUUR86UGAV2Z3G&workerId=A3LFVI65XV1T46&assignmentId=3VSOLARPKCVPRD4LHY5UK1OAUDS939&a=PLSV3&tp_a=PLSV3&b=3VSOLARPKCVPRD4LHY5UK1OAUDS939&tp_b=3VSOLARPKCVPRD4LHY5UK1OAUDS939&c=365633&tp_c=365633"},{"rt":2109,"stimulus":"\n            <h4 style=\"color:Orange;\">Student 6</h4>\n            <h2>The weight of your coin is <b style=\"color:Tomato;\">0.5</b>.</h2>\n            <p>In this block, you will be giving <b>one</b> set of examples to Student 6.</p>\n                <p>You will receive feedback at the end of the block.</p>\n            <p></p>","response":0,"trial_type":"html-button-response","trial_index":40,"time_elapsed":390306,"internal_node_id":"0.0-39.0","params":{"nStudents":24,"maxFlips":25,"completionMinutes":45,"basePay":8,"maxBonus":9,"perTrialBonus":0.5,"perTrialBonusThreshold":0.05,"exampleCost":0.02},"classroomParams":{"A":{"a":1,"b":4},"B":{"a":4,"b":1},"C":{"a":2,"b":8},"D":{"a":8,"b":2}},"conditions":["nonSeqFull","nonSeqPartial","seqNoFeedback","seqFeedback"],"classroomPairings":[["A","B"],["C","D"]],"coinWeights":[0.2,0.5,0.8],"subjectId":"A3LFVI65XV1T46","assignmentId":"3VSOLARPKCVPRD4LHY5UK1OAUDS939","hitId":"39WICJI5ATE2BKO4UUUR86UGAV2Z3G","url":"https://gershmanlab.com/experiments/alicia/teaching/experiment/?hitId=39WICJI5ATE2BKO4UUUR86UGAV2Z3G&workerId=A3LFVI65XV1T46&assignmentId=3VSOLARPKCVPRD4LHY5UK1OAUDS939&a=PLSV3&tp_a=PLSV3&b=3VSOLARPKCVPRD4LHY5UK1OAUDS939&tp_b=3VSOLARPKCVPRD4LHY5UK1OAUDS939&c=365633&tp_c=365633"},{"rt":12488,"response":{"heads":"1","tails":"1"},"type":"response","condition":"nonSeqPartial","trueTheta":0.5,"classrooms":["A","B"],"studentTrueClassroom":"B","exampleSet":"first","trial_type":"survey-html-form","trial_index":41,"time_elapsed":402796,"internal_node_id":"0.0-40.0-0.0","params":{"nStudents":24,"maxFlips":25,"completionMinutes":45,"basePay":8,"maxBonus":9,"perTrialBonus":0.5,"perTrialBonusThreshold":0.05,"exampleCost":0.02},"classroomParams":{"A":{"a":1,"b":4},"B":{"a":4,"b":1},"C":{"a":2,"b":8},"D":{"a":8,"b":2}},"conditions":["nonSeqFull","nonSeqPartial","seqNoFeedback","seqFeedback"],"classroomPairings":[["A","B"],["C","D"]],"coinWeights":[0.2,0.5,0.8],"subjectId":"A3LFVI65XV1T46","assignmentId":"3VSOLARPKCVPRD4LHY5UK1OAUDS939","hitId":"39WICJI5ATE2BKO4UUUR86UGAV2Z3G","url":"https://gershmanlab.com/experiments/alicia/teaching/experiment/?hitId=39WICJI5ATE2BKO4UUUR86UGAV2Z3G&workerId=A3LFVI65XV1T46&assignmentId=3VSOLARPKCVPRD4LHY5UK1OAUDS939&a=PLSV3&tp_a=PLSV3&b=3VSOLARPKCVPRD4LHY5UK1OAUDS939&tp_b=3VSOLARPKCVPRD4LHY5UK1OAUDS939&c=365633&tp_c=365633","heads":1,"tails":1,"studentIndex":5,"studentTrueHypers":{"a":4,"b":1},"studentGuess":0.7142857142857143,"delta":0.2142857142857143,"totalExamples":2,"bonus":0,"bonusSoFar":0.72},{"rt":null,"stimulus":"Sending examples to student... ","response":null,"trial_type":"html-keyboard-response","trial_index":42,"time_elapsed":404578,"internal_node_id":"0.0-41.0","params":{"nStudents":24,"maxFlips":25,"completionMinutes":45,"basePay":8,"maxBonus":9,"perTrialBonus":0.5,"perTrialBonusThreshold":0.05,"exampleCost":0.02},"classroomParams":{"A":{"a":1,"b":4},"B":{"a":4,"b":1},"C":{"a":2,"b":8},"D":{"a":8,"b":2}},"conditions":["nonSeqFull","nonSeqPartial","seqNoFeedback","seqFeedback"],"classroomPairings":[["A","B"],["C","D"]],"coinWeights":[0.2,0.5,0.8],"subjectId":"A3LFVI65XV1T46","assignmentId":"3VSOLARPKCVPRD4LHY5UK1OAUDS939","hitId":"39WICJI5ATE2BKO4UUUR86UGAV2Z3G","url":"https://gershmanlab.com/experiments/alicia/teaching/experiment/?hitId=39WICJI5ATE2BKO4UUUR86UGAV2Z3G&workerId=A3LFVI65XV1T46&assignmentId=3VSOLARPKCVPRD4LHY5UK1OAUDS939&a=PLSV3&tp_a=PLSV3&b=3VSOLARPKCVPRD4LHY5UK1OAUDS939&tp_b=3VSOLARPKCVPRD4LHY5UK1OAUDS939&c=365633&tp_c=365633"},{"rt":null,"stimulus":"Examples sent to student! Waiting for student...","response":null,"trial_type":"html-keyboard-response","trial_index":43,"time_elapsed":409083,"internal_node_id":"0.0-42.0","params":{"nStudents":24,"maxFlips":25,"completionMinutes":45,"basePay":8,"maxBonus":9,"perTrialBonus":0.5,"perTrialBonusThreshold":0.05,"exampleCost":0.02},"classroomParams":{"A":{"a":1,"b":4},"B":{"a":4,"b":1},"C":{"a":2,"b":8},"D":{"a":8,"b":2}},"conditions":["nonSeqFull","nonSeqPartial","seqNoFeedback","seqFeedback"],"classroomPairings":[["A","B"],["C","D"]],"coinWeights":[0.2,0.5,0.8],"subjectId":"A3LFVI65XV1T46","assignmentId":"3VSOLARPKCVPRD4LHY5UK1OAUDS939","hitId":"39WICJI5ATE2BKO4UUUR86UGAV2Z3G","url":"https://gershmanlab.com/experiments/alicia/teaching/experiment/?hitId=39WICJI5ATE2BKO4UUUR86UGAV2Z3G&workerId=A3LFVI65XV1T46&assignmentId=3VSOLARPKCVPRD4LHY5UK1OAUDS939&a=PLSV3&tp_a=PLSV3&b=3VSOLARPKCVPRD4LHY5UK1OAUDS939&tp_b=3VSOLARPKCVPRD4LHY5UK1OAUDS939&c=365633&tp_c=365633"},{"rt":3677,"stimulus":"\n                <p>Student's guess for coin weight: <b style=\"color:Tomato;\">0.71</b></p>\n                <p>You received a bonus of <b>$0</b>. Total bonus so far: <b>$0.72</b></b></p>\n                <p></p>\n                <p>Press any key to continue.</p>\n                ","response":"enter","trial_type":"html-keyboard-response","trial_index":44,"time_elapsed":412762,"internal_node_id":"0.0-43.0","params":{"nStudents":24,"maxFlips":25,"completionMinutes":45,"basePay":8,"maxBonus":9,"perTrialBonus":0.5,"perTrialBonusThreshold":0.05,"exampleCost":0.02},"classroomParams":{"A":{"a":1,"b":4},"B":{"a":4,"b":1},"C":{"a":2,"b":8},"D":{"a":8,"b":2}},"conditions":["nonSeqFull","nonSeqPartial","seqNoFeedback","seqFeedback"],"classroomPairings":[["A","B"],["C","D"]],"coinWeights":[0.2,0.5,0.8],"subjectId":"A3LFVI65XV1T46","assignmentId":"3VSOLARPKCVPRD4LHY5UK1OAUDS939","hitId":"39WICJI5ATE2BKO4UUUR86UGAV2Z3G","url":"https://gershmanlab.com/experiments/alicia/teaching/experiment/?hitId=39WICJI5ATE2BKO4UUUR86UGAV2Z3G&workerId=A3LFVI65XV1T46&assignmentId=3VSOLARPKCVPRD4LHY5UK1OAUDS939&a=PLSV3&tp_a=PLSV3&b=3VSOLARPKCVPRD4LHY5UK1OAUDS939&tp_b=3VSOLARPKCVPRD4LHY5UK1OAUDS939&c=365633&tp_c=365633"},{"rt":null,"stimulus":"<div style=\"font-size:60px;\">Next student</div>","response":null,"trial_type":"html-keyboard-response","trial_index":45,"time_elapsed":415265,"internal_node_id":"0.0-44.0-0.0","params":{"nStudents":24,"maxFlips":25,"completionMinutes":45,"basePay":8,"maxBonus":9,"perTrialBonus":0.5,"perTrialBonusThreshold":0.05,"exampleCost":0.02},"classroomParams":{"A":{"a":1,"b":4},"B":{"a":4,"b":1},"C":{"a":2,"b":8},"D":{"a":8,"b":2}},"conditions":["nonSeqFull","nonSeqPartial","seqNoFeedback","seqFeedback"],"classroomPairings":[["A","B"],["C","D"]],"coinWeights":[0.2,0.5,0.8],"subjectId":"A3LFVI65XV1T46","assignmentId":"3VSOLARPKCVPRD4LHY5UK1OAUDS939","hitId":"39WICJI5ATE2BKO4UUUR86UGAV2Z3G","url":"https://gershmanlab.com/experiments/alicia/teaching/experiment/?hitId=39WICJI5ATE2BKO4UUUR86UGAV2Z3G&workerId=A3LFVI65XV1T46&assignmentId=3VSOLARPKCVPRD4LHY5UK1OAUDS939&a=PLSV3&tp_a=PLSV3&b=3VSOLARPKCVPRD4LHY5UK1OAUDS939&tp_b=3VSOLARPKCVPRD4LHY5UK1OAUDS939&c=365633&tp_c=365633"},{"rt":5081,"stimulus":"\n            <h4 style=\"color:Orange;\">Student 7</h4>\n            <h2>The weight of your coin is <b style=\"color:Tomato;\">0.5</b>.</h2>\n            <p>In this block, you will be giving <b>two</b> sets of examples to Student 7.</p>\n                <p>You will see the student's guess after the first set of examples. You will also receive feedback at the end of the block.</p>\n            <p>To earn the highest bonus, you will have to <b>take into consideration the student's guess</b> when you choose your second set of examples.</p>","response":0,"trial_type":"html-button-response","trial_index":46,"time_elapsed":420346,"internal_node_id":"0.0-45.0","params":{"nStudents":24,"maxFlips":25,"completionMinutes":45,"basePay":8,"maxBonus":9,"perTrialBonus":0.5,"perTrialBonusThreshold":0.05,"exampleCost":0.02},"classroomParams":{"A":{"a":1,"b":4},"B":{"a":4,"b":1},"C":{"a":2,"b":8},"D":{"a":8,"b":2}},"conditions":["nonSeqFull","nonSeqPartial","seqNoFeedback","seqFeedback"],"classroomPairings":[["A","B"],["C","D"]],"coinWeights":[0.2,0.5,0.8],"subjectId":"A3LFVI65XV1T46","assignmentId":"3VSOLARPKCVPRD4LHY5UK1OAUDS939","hitId":"39WICJI5ATE2BKO4UUUR86UGAV2Z3G","url":"https://gershmanlab.com/experiments/alicia/teaching/experiment/?hitId=39WICJI5ATE2BKO4UUUR86UGAV2Z3G&workerId=A3LFVI65XV1T46&assignmentId=3VSOLARPKCVPRD4LHY5UK1OAUDS939&a=PLSV3&tp_a=PLSV3&b=3VSOLARPKCVPRD4LHY5UK1OAUDS939&tp_b=3VSOLARPKCVPRD4LHY5UK1OAUDS939&c=365633&tp_c=365633"},{"rt":11200,"response":{"heads":"3","tails":"2"},"type":"response","condition":"seqFeedback","trueTheta":0.5,"classrooms":["C","D"],"studentTrueClassroom":"C","exampleSet":"first","trial_type":"survey-html-form","trial_index":47,"time_elapsed":431548,"internal_node_id":"0.0-46.0-0.0","params":{"nStudents":24,"maxFlips":25,"completionMinutes":45,"basePay":8,"maxBonus":9,"perTrialBonus":0.5,"perTrialBonusThreshold":0.05,"exampleCost":0.02},"classroomParams":{"A":{"a":1,"b":4},"B":{"a":4,"b":1},"C":{"a":2,"b":8},"D":{"a":8,"b":2}},"conditions":["nonSeqFull","nonSeqPartial","seqNoFeedback","seqFeedback"],"classroomPairings":[["A","B"],["C","D"]],"coinWeights":[0.2,0.5,0.8],"subjectId":"A3LFVI65XV1T46","assignmentId":"3VSOLARPKCVPRD4LHY5UK1OAUDS939","hitId":"39WICJI5ATE2BKO4UUUR86UGAV2Z3G","url":"https://gershmanlab.com/experiments/alicia/teaching/experiment/?hitId=39WICJI5ATE2BKO4UUUR86UGAV2Z3G&workerId=A3LFVI65XV1T46&assignmentId=3VSOLARPKCVPRD4LHY5UK1OAUDS939&a=PLSV3&tp_a=PLSV3&b=3VSOLARPKCVPRD4LHY5UK1OAUDS939&tp_b=3VSOLARPKCVPRD4LHY5UK1OAUDS939&c=365633&tp_c=365633","heads":3,"tails":2,"studentIndex":6,"studentTrueHypers":{"a":2,"b":8},"studentGuess":0.3333333333333333,"delta":0.16666666666666669,"totalExamples":5,"bonusSoFar":0.72},{"rt":null,"stimulus":"Sending examples to student... ","response":null,"trial_type":"html-keyboard-response","trial_index":48,"time_elapsed":433310,"internal_node_id":"0.0-47.0","params":{"nStudents":24,"maxFlips":25,"completionMinutes":45,"basePay":8,"maxBonus":9,"perTrialBonus":0.5,"perTrialBonusThreshold":0.05,"exampleCost":0.02},"classroomParams":{"A":{"a":1,"b":4},"B":{"a":4,"b":1},"C":{"a":2,"b":8},"D":{"a":8,"b":2}},"conditions":["nonSeqFull","nonSeqPartial","seqNoFeedback","seqFeedback"],"classroomPairings":[["A","B"],["C","D"]],"coinWeights":[0.2,0.5,0.8],"subjectId":"A3LFVI65XV1T46","assignmentId":"3VSOLARPKCVPRD4LHY5UK1OAUDS939","hitId":"39WICJI5ATE2BKO4UUUR86UGAV2Z3G","url":"https://gershmanlab.com/experiments/alicia/teaching/experiment/?hitId=39WICJI5ATE2BKO4UUUR86UGAV2Z3G&workerId=A3LFVI65XV1T46&assignmentId=3VSOLARPKCVPRD4LHY5UK1OAUDS939&a=PLSV3&tp_a=PLSV3&b=3VSOLARPKCVPRD4LHY5UK1OAUDS939&tp_b=3VSOLARPKCVPRD4LHY5UK1OAUDS939&c=365633&tp_c=365633"},{"rt":null,"stimulus":"Examples sent to student! Waiting for student...","response":null,"trial_type":"html-keyboard-response","trial_index":49,"time_elapsed":438327,"internal_node_id":"0.0-48.0","params":{"nStudents":24,"maxFlips":25,"completionMinutes":45,"basePay":8,"maxBonus":9,"perTrialBonus":0.5,"perTrialBonusThreshold":0.05,"exampleCost":0.02},"classroomParams":{"A":{"a":1,"b":4},"B":{"a":4,"b":1},"C":{"a":2,"b":8},"D":{"a":8,"b":2}},"conditions":["nonSeqFull","nonSeqPartial","seqNoFeedback","seqFeedback"],"classroomPairings":[["A","B"],["C","D"]],"coinWeights":[0.2,0.5,0.8],"subjectId":"A3LFVI65XV1T46","assignmentId":"3VSOLARPKCVPRD4LHY5UK1OAUDS939","hitId":"39WICJI5ATE2BKO4UUUR86UGAV2Z3G","url":"https://gershmanlab.com/experiments/alicia/teaching/experiment/?hitId=39WICJI5ATE2BKO4UUUR86UGAV2Z3G&workerId=A3LFVI65XV1T46&assignmentId=3VSOLARPKCVPRD4LHY5UK1OAUDS939&a=PLSV3&tp_a=PLSV3&b=3VSOLARPKCVPRD4LHY5UK1OAUDS939&tp_b=3VSOLARPKCVPRD4LHY5UK1OAUDS939&c=365633&tp_c=365633"},{"rt":4137,"stimulus":"\n                <p>Student's guess for coin weight: <b style=\"color:Tomato;\">0.33</b></p>\n                <p></b></p>\n                <p>You will now send another set of examples to your student. <b>Remember to take your student's guess into consideration so that you can earn the highest bonus possible!</b> </p>\n                <p>Press any key to continue.</p>\n                ","response":"enter","trial_type":"html-keyboard-response","trial_index":50,"time_elapsed":442465,"internal_node_id":"0.0-49.0","params":{"nStudents":24,"maxFlips":25,"completionMinutes":45,"basePay":8,"maxBonus":9,"perTrialBonus":0.5,"perTrialBonusThreshold":0.05,"exampleCost":0.02},"classroomParams":{"A":{"a":1,"b":4},"B":{"a":4,"b":1},"C":{"a":2,"b":8},"D":{"a":8,"b":2}},"conditions":["nonSeqFull","nonSeqPartial","seqNoFeedback","seqFeedback"],"classroomPairings":[["A","B"],["C","D"]],"coinWeights":[0.2,0.5,0.8],"subjectId":"A3LFVI65XV1T46","assignmentId":"3VSOLARPKCVPRD4LHY5UK1OAUDS939","hitId":"39WICJI5ATE2BKO4UUUR86UGAV2Z3G","url":"https://gershmanlab.com/experiments/alicia/teaching/experiment/?hitId=39WICJI5ATE2BKO4UUUR86UGAV2Z3G&workerId=A3LFVI65XV1T46&assignmentId=3VSOLARPKCVPRD4LHY5UK1OAUDS939&a=PLSV3&tp_a=PLSV3&b=3VSOLARPKCVPRD4LHY5UK1OAUDS939&tp_b=3VSOLARPKCVPRD4LHY5UK1OAUDS939&c=365633&tp_c=365633"},{"rt":5114,"response":{"heads":"2","tails":"3"},"type":"response","condition":"seqFeedback","trueTheta":0.5,"classrooms":["C","D"],"studentTrueClassroom":"C","exampleSet":"second","trial_type":"survey-html-form","trial_index":51,"time_elapsed":447581,"internal_node_id":"0.0-50.0-0.0","params":{"nStudents":24,"maxFlips":25,"completionMinutes":45,"basePay":8,"maxBonus":9,"perTrialBonus":0.5,"perTrialBonusThreshold":0.05,"exampleCost":0.02},"classroomParams":{"A":{"a":1,"b":4},"B":{"a":4,"b":1},"C":{"a":2,"b":8},"D":{"a":8,"b":2}},"conditions":["nonSeqFull","nonSeqPartial","seqNoFeedback","seqFeedback"],"classroomPairings":[["A","B"],["C","D"]],"coinWeights":[0.2,0.5,0.8],"subjectId":"A3LFVI65XV1T46","assignmentId":"3VSOLARPKCVPRD4LHY5UK1OAUDS939","hitId":"39WICJI5ATE2BKO4UUUR86UGAV2Z3G","url":"https://gershmanlab.com/experiments/alicia/teaching/experiment/?hitId=39WICJI5ATE2BKO4UUUR86UGAV2Z3G&workerId=A3LFVI65XV1T46&assignmentId=3VSOLARPKCVPRD4LHY5UK1OAUDS939&a=PLSV3&tp_a=PLSV3&b=3VSOLARPKCVPRD4LHY5UK1OAUDS939&tp_b=3VSOLARPKCVPRD4LHY5UK1OAUDS939&c=365633&tp_c=365633","firstResponseHeads":3,"firstResponseTails":2,"secondResponseHeads":2,"secondResponseTails":3,"totalHeads":5,"totalTails":5,"studentIndex":6,"studentTrueHypers":{"a":2,"b":8},"studentGuess":0.35,"delta":0.15000000000000002,"bonus":0,"bonusSoFar":0.72,"totalExamples":10},{"rt":null,"stimulus":"Sending examples to student... ","response":null,"trial_type":"html-keyboard-response","trial_index":52,"time_elapsed":449583,"internal_node_id":"0.0-51.0","params":{"nStudents":24,"maxFlips":25,"completionMinutes":45,"basePay":8,"maxBonus":9,"perTrialBonus":0.5,"perTrialBonusThreshold":0.05,"exampleCost":0.02},"classroomParams":{"A":{"a":1,"b":4},"B":{"a":4,"b":1},"C":{"a":2,"b":8},"D":{"a":8,"b":2}},"conditions":["nonSeqFull","nonSeqPartial","seqNoFeedback","seqFeedback"],"classroomPairings":[["A","B"],["C","D"]],"coinWeights":[0.2,0.5,0.8],"subjectId":"A3LFVI65XV1T46","assignmentId":"3VSOLARPKCVPRD4LHY5UK1OAUDS939","hitId":"39WICJI5ATE2BKO4UUUR86UGAV2Z3G","url":"https://gershmanlab.com/experiments/alicia/teaching/experiment/?hitId=39WICJI5ATE2BKO4UUUR86UGAV2Z3G&workerId=A3LFVI65XV1T46&assignmentId=3VSOLARPKCVPRD4LHY5UK1OAUDS939&a=PLSV3&tp_a=PLSV3&b=3VSOLARPKCVPRD4LHY5UK1OAUDS939&tp_b=3VSOLARPKCVPRD4LHY5UK1OAUDS939&c=365633&tp_c=365633"},{"rt":null,"stimulus":"Examples sent to student! Waiting for student...","response":null,"trial_type":"html-keyboard-response","trial_index":53,"time_elapsed":453599,"internal_node_id":"0.0-52.0","params":{"nStudents":24,"maxFlips":25,"completionMinutes":45,"basePay":8,"maxBonus":9,"perTrialBonus":0.5,"perTrialBonusThreshold":0.05,"exampleCost":0.02},"classroomParams":{"A":{"a":1,"b":4},"B":{"a":4,"b":1},"C":{"a":2,"b":8},"D":{"a":8,"b":2}},"conditions":["nonSeqFull","nonSeqPartial","seqNoFeedback","seqFeedback"],"classroomPairings":[["A","B"],["C","D"]],"coinWeights":[0.2,0.5,0.8],"subjectId":"A3LFVI65XV1T46","assignmentId":"3VSOLARPKCVPRD4LHY5UK1OAUDS939","hitId":"39WICJI5ATE2BKO4UUUR86UGAV2Z3G","url":"https://gershmanlab.com/experiments/alicia/teaching/experiment/?hitId=39WICJI5ATE2BKO4UUUR86UGAV2Z3G&workerId=A3LFVI65XV1T46&assignmentId=3VSOLARPKCVPRD4LHY5UK1OAUDS939&a=PLSV3&tp_a=PLSV3&b=3VSOLARPKCVPRD4LHY5UK1OAUDS939&tp_b=3VSOLARPKCVPRD4LHY5UK1OAUDS939&c=365633&tp_c=365633"},{"rt":3234,"stimulus":"\n                <p>Student 7's first guess for coin weight: <b style=\"color:Tomato\";>0.33</b></p>\n                <p>Student 7's second guess for coin weight: <b style=\"color:Tomato\";>0.35</b></p>\n                <p>You received a bonus of <b>$0.00</b> based on the student's second guess.</p>\n                <p>Total bonus so far: <b>$0.72</b></p>\n                <p>Press any key to continue.</p>\n                ","response":"enter","trial_type":"html-keyboard-response","trial_index":54,"time_elapsed":456833,"internal_node_id":"0.0-53.0","params":{"nStudents":24,"maxFlips":25,"completionMinutes":45,"basePay":8,"maxBonus":9,"perTrialBonus":0.5,"perTrialBonusThreshold":0.05,"exampleCost":0.02},"classroomParams":{"A":{"a":1,"b":4},"B":{"a":4,"b":1},"C":{"a":2,"b":8},"D":{"a":8,"b":2}},"conditions":["nonSeqFull","nonSeqPartial","seqNoFeedback","seqFeedback"],"classroomPairings":[["A","B"],["C","D"]],"coinWeights":[0.2,0.5,0.8],"subjectId":"A3LFVI65XV1T46","assignmentId":"3VSOLARPKCVPRD4LHY5UK1OAUDS939","hitId":"39WICJI5ATE2BKO4UUUR86UGAV2Z3G","url":"https://gershmanlab.com/experiments/alicia/teaching/experiment/?hitId=39WICJI5ATE2BKO4UUUR86UGAV2Z3G&workerId=A3LFVI65XV1T46&assignmentId=3VSOLARPKCVPRD4LHY5UK1OAUDS939&a=PLSV3&tp_a=PLSV3&b=3VSOLARPKCVPRD4LHY5UK1OAUDS939&tp_b=3VSOLARPKCVPRD4LHY5UK1OAUDS939&c=365633&tp_c=365633"},{"rt":null,"stimulus":"<div style=\"font-size:60px;\">Next student</div>","response":null,"trial_type":"html-keyboard-response","trial_index":55,"time_elapsed":459100,"internal_node_id":"0.0-54.0-0.0","params":{"nStudents":24,"maxFlips":25,"completionMinutes":45,"basePay":8,"maxBonus":9,"perTrialBonus":0.5,"perTrialBonusThreshold":0.05,"exampleCost":0.02},"classroomParams":{"A":{"a":1,"b":4},"B":{"a":4,"b":1},"C":{"a":2,"b":8},"D":{"a":8,"b":2}},"conditions":["nonSeqFull","nonSeqPartial","seqNoFeedback","seqFeedback"],"classroomPairings":[["A","B"],["C","D"]],"coinWeights":[0.2,0.5,0.8],"subjectId":"A3LFVI65XV1T46","assignmentId":"3VSOLARPKCVPRD4LHY5UK1OAUDS939","hitId":"39WICJI5ATE2BKO4UUUR86UGAV2Z3G","url":"https://gershmanlab.com/experiments/alicia/teaching/experiment/?hitId=39WICJI5ATE2BKO4UUUR86UGAV2Z3G&workerId=A3LFVI65XV1T46&assignmentId=3VSOLARPKCVPRD4LHY5UK1OAUDS939&a=PLSV3&tp_a=PLSV3&b=3VSOLARPKCVPRD4LHY5UK1OAUDS939&tp_b=3VSOLARPKCVPRD4LHY5UK1OAUDS939&c=365633&tp_c=365633"},{"rt":3109,"stimulus":"\n            <h4 style=\"color:Orange;\">Student 8</h4>\n            <h2>The weight of your coin is <b style=\"color:Tomato;\">0.8</b>.</h2>\n            <p>In this block, you will be giving <b>one</b> set of examples to Student 8.</p>\n                <p>You will receive feedback at the end of the block.</p>\n            <p></p>","response":0,"trial_type":"html-button-response","trial_index":56,"time_elapsed":462211,"internal_node_id":"0.0-55.0","params":{"nStudents":24,"maxFlips":25,"completionMinutes":45,"basePay":8,"maxBonus":9,"perTrialBonus":0.5,"perTrialBonusThreshold":0.05,"exampleCost":0.02},"classroomParams":{"A":{"a":1,"b":4},"B":{"a":4,"b":1},"C":{"a":2,"b":8},"D":{"a":8,"b":2}},"conditions":["nonSeqFull","nonSeqPartial","seqNoFeedback","seqFeedback"],"classroomPairings":[["A","B"],["C","D"]],"coinWeights":[0.2,0.5,0.8],"subjectId":"A3LFVI65XV1T46","assignmentId":"3VSOLARPKCVPRD4LHY5UK1OAUDS939","hitId":"39WICJI5ATE2BKO4UUUR86UGAV2Z3G","url":"https://gershmanlab.com/experiments/alicia/teaching/experiment/?hitId=39WICJI5ATE2BKO4UUUR86UGAV2Z3G&workerId=A3LFVI65XV1T46&assignmentId=3VSOLARPKCVPRD4LHY5UK1OAUDS939&a=PLSV3&tp_a=PLSV3&b=3VSOLARPKCVPRD4LHY5UK1OAUDS939&tp_b=3VSOLARPKCVPRD4LHY5UK1OAUDS939&c=365633&tp_c=365633"},{"rt":5794,"response":{"heads":"4","tails":"1"},"type":"response","condition":"nonSeqPartial","trueTheta":0.8,"classrooms":["A","B"],"studentTrueClassroom":"A","exampleSet":"first","trial_type":"survey-html-form","trial_index":57,"time_elapsed":468006,"internal_node_id":"0.0-56.0-0.0","params":{"nStudents":24,"maxFlips":25,"completionMinutes":45,"basePay":8,"maxBonus":9,"perTrialBonus":0.5,"perTrialBonusThreshold":0.05,"exampleCost":0.02},"classroomParams":{"A":{"a":1,"b":4},"B":{"a":4,"b":1},"C":{"a":2,"b":8},"D":{"a":8,"b":2}},"conditions":["nonSeqFull","nonSeqPartial","seqNoFeedback","seqFeedback"],"classroomPairings":[["A","B"],["C","D"]],"coinWeights":[0.2,0.5,0.8],"subjectId":"A3LFVI65XV1T46","assignmentId":"3VSOLARPKCVPRD4LHY5UK1OAUDS939","hitId":"39WICJI5ATE2BKO4UUUR86UGAV2Z3G","url":"https://gershmanlab.com/experiments/alicia/teaching/experiment/?hitId=39WICJI5ATE2BKO4UUUR86UGAV2Z3G&workerId=A3LFVI65XV1T46&assignmentId=3VSOLARPKCVPRD4LHY5UK1OAUDS939&a=PLSV3&tp_a=PLSV3&b=3VSOLARPKCVPRD4LHY5UK1OAUDS939&tp_b=3VSOLARPKCVPRD4LHY5UK1OAUDS939&c=365633&tp_c=365633","heads":4,"tails":1,"studentIndex":7,"studentTrueHypers":{"a":1,"b":4},"studentGuess":0.5,"delta":0.30000000000000004,"totalExamples":5,"bonus":0,"bonusSoFar":0.72},{"rt":null,"stimulus":"Sending examples to student... ","response":null,"trial_type":"html-keyboard-response","trial_index":58,"time_elapsed":469516,"internal_node_id":"0.0-57.0","params":{"nStudents":24,"maxFlips":25,"completionMinutes":45,"basePay":8,"maxBonus":9,"perTrialBonus":0.5,"perTrialBonusThreshold":0.05,"exampleCost":0.02},"classroomParams":{"A":{"a":1,"b":4},"B":{"a":4,"b":1},"C":{"a":2,"b":8},"D":{"a":8,"b":2}},"conditions":["nonSeqFull","nonSeqPartial","seqNoFeedback","seqFeedback"],"classroomPairings":[["A","B"],["C","D"]],"coinWeights":[0.2,0.5,0.8],"subjectId":"A3LFVI65XV1T46","assignmentId":"3VSOLARPKCVPRD4LHY5UK1OAUDS939","hitId":"39WICJI5ATE2BKO4UUUR86UGAV2Z3G","url":"https://gershmanlab.com/experiments/alicia/teaching/experiment/?hitId=39WICJI5ATE2BKO4UUUR86UGAV2Z3G&workerId=A3LFVI65XV1T46&assignmentId=3VSOLARPKCVPRD4LHY5UK1OAUDS939&a=PLSV3&tp_a=PLSV3&b=3VSOLARPKCVPRD4LHY5UK1OAUDS939&tp_b=3VSOLARPKCVPRD4LHY5UK1OAUDS939&c=365633&tp_c=365633"},{"rt":null,"stimulus":"Examples sent to student! Waiting for student...","response":null,"trial_type":"html-keyboard-response","trial_index":59,"time_elapsed":474034,"internal_node_id":"0.0-58.0","params":{"nStudents":24,"maxFlips":25,"completionMinutes":45,"basePay":8,"maxBonus":9,"perTrialBonus":0.5,"perTrialBonusThreshold":0.05,"exampleCost":0.02},"classroomParams":{"A":{"a":1,"b":4},"B":{"a":4,"b":1},"C":{"a":2,"b":8},"D":{"a":8,"b":2}},"conditions":["nonSeqFull","nonSeqPartial","seqNoFeedback","seqFeedback"],"classroomPairings":[["A","B"],["C","D"]],"coinWeights":[0.2,0.5,0.8],"subjectId":"A3LFVI65XV1T46","assignmentId":"3VSOLARPKCVPRD4LHY5UK1OAUDS939","hitId":"39WICJI5ATE2BKO4UUUR86UGAV2Z3G","url":"https://gershmanlab.com/experiments/alicia/teaching/experiment/?hitId=39WICJI5ATE2BKO4UUUR86UGAV2Z3G&workerId=A3LFVI65XV1T46&assignmentId=3VSOLARPKCVPRD4LHY5UK1OAUDS939&a=PLSV3&tp_a=PLSV3&b=3VSOLARPKCVPRD4LHY5UK1OAUDS939&tp_b=3VSOLARPKCVPRD4LHY5UK1OAUDS939&c=365633&tp_c=365633"},{"rt":3711,"stimulus":"\n                <p>Student's guess for coin weight: <b style=\"color:Tomato;\">0.50</b></p>\n                <p>You received a bonus of <b>$0</b>. Total bonus so far: <b>$0.72</b></b></p>\n                <p></p>\n                <p>Press any key to continue.</p>\n                ","response":"enter","trial_type":"html-keyboard-response","trial_index":60,"time_elapsed":477746,"internal_node_id":"0.0-59.0","params":{"nStudents":24,"maxFlips":25,"completionMinutes":45,"basePay":8,"maxBonus":9,"perTrialBonus":0.5,"perTrialBonusThreshold":0.05,"exampleCost":0.02},"classroomParams":{"A":{"a":1,"b":4},"B":{"a":4,"b":1},"C":{"a":2,"b":8},"D":{"a":8,"b":2}},"conditions":["nonSeqFull","nonSeqPartial","seqNoFeedback","seqFeedback"],"classroomPairings":[["A","B"],["C","D"]],"coinWeights":[0.2,0.5,0.8],"subjectId":"A3LFVI65XV1T46","assignmentId":"3VSOLARPKCVPRD4LHY5UK1OAUDS939","hitId":"39WICJI5ATE2BKO4UUUR86UGAV2Z3G","url":"https://gershmanlab.com/experiments/alicia/teaching/experiment/?hitId=39WICJI5ATE2BKO4UUUR86UGAV2Z3G&workerId=A3LFVI65XV1T46&assignmentId=3VSOLARPKCVPRD4LHY5UK1OAUDS939&a=PLSV3&tp_a=PLSV3&b=3VSOLARPKCVPRD4LHY5UK1OAUDS939&tp_b=3VSOLARPKCVPRD4LHY5UK1OAUDS939&c=365633&tp_c=365633"},{"rt":null,"stimulus":"<div style=\"font-size:60px;\">Next student</div>","response":null,"trial_type":"html-keyboard-response","trial_index":61,"time_elapsed":480012,"internal_node_id":"0.0-60.0-0.0","params":{"nStudents":24,"maxFlips":25,"completionMinutes":45,"basePay":8,"maxBonus":9,"perTrialBonus":0.5,"perTrialBonusThreshold":0.05,"exampleCost":0.02},"classroomParams":{"A":{"a":1,"b":4},"B":{"a":4,"b":1},"C":{"a":2,"b":8},"D":{"a":8,"b":2}},"conditions":["nonSeqFull","nonSeqPartial","seqNoFeedback","seqFeedback"],"classroomPairings":[["A","B"],["C","D"]],"coinWeights":[0.2,0.5,0.8],"subjectId":"A3LFVI65XV1T46","assignmentId":"3VSOLARPKCVPRD4LHY5UK1OAUDS939","hitId":"39WICJI5ATE2BKO4UUUR86UGAV2Z3G","url":"https://gershmanlab.com/experiments/alicia/teaching/experiment/?hitId=39WICJI5ATE2BKO4UUUR86UGAV2Z3G&workerId=A3LFVI65XV1T46&assignmentId=3VSOLARPKCVPRD4LHY5UK1OAUDS939&a=PLSV3&tp_a=PLSV3&b=3VSOLARPKCVPRD4LHY5UK1OAUDS939&tp_b=3VSOLARPKCVPRD4LHY5UK1OAUDS939&c=365633&tp_c=365633"},{"rt":2076,"stimulus":"\n            <h4 style=\"color:Orange;\">Student 9</h4>\n            <h2>The weight of your coin is <b style=\"color:Tomato;\">0.8</b>.</h2>\n            <p>In this block, you will be giving <b>two</b> sets of examples to Student 9.</p>\n                <p>You will see the student's guess after the first set of examples. You will also receive feedback at the end of the block.</p>\n            <p>To earn the highest bonus, you will have to <b>take into consideration the student's guess</b> when you choose your second set of examples.</p>","response":0,"trial_type":"html-button-response","trial_index":62,"time_elapsed":482100,"internal_node_id":"0.0-61.0","params":{"nStudents":24,"maxFlips":25,"completionMinutes":45,"basePay":8,"maxBonus":9,"perTrialBonus":0.5,"perTrialBonusThreshold":0.05,"exampleCost":0.02},"classroomParams":{"A":{"a":1,"b":4},"B":{"a":4,"b":1},"C":{"a":2,"b":8},"D":{"a":8,"b":2}},"conditions":["nonSeqFull","nonSeqPartial","seqNoFeedback","seqFeedback"],"classroomPairings":[["A","B"],["C","D"]],"coinWeights":[0.2,0.5,0.8],"subjectId":"A3LFVI65XV1T46","assignmentId":"3VSOLARPKCVPRD4LHY5UK1OAUDS939","hitId":"39WICJI5ATE2BKO4UUUR86UGAV2Z3G","url":"https://gershmanlab.com/experiments/alicia/teaching/experiment/?hitId=39WICJI5ATE2BKO4UUUR86UGAV2Z3G&workerId=A3LFVI65XV1T46&assignmentId=3VSOLARPKCVPRD4LHY5UK1OAUDS939&a=PLSV3&tp_a=PLSV3&b=3VSOLARPKCVPRD4LHY5UK1OAUDS939&tp_b=3VSOLARPKCVPRD4LHY5UK1OAUDS939&c=365633&tp_c=365633"},{"rt":6706,"response":{"heads":"5","tails":"1"},"type":"response","condition":"seqFeedback","trueTheta":0.8,"classrooms":["A","B"],"studentTrueClassroom":"B","exampleSet":"first","trial_type":"survey-html-form","trial_index":63,"time_elapsed":488808,"internal_node_id":"0.0-62.0-0.0","params":{"nStudents":24,"maxFlips":25,"completionMinutes":45,"basePay":8,"maxBonus":9,"perTrialBonus":0.5,"perTrialBonusThreshold":0.05,"exampleCost":0.02},"classroomParams":{"A":{"a":1,"b":4},"B":{"a":4,"b":1},"C":{"a":2,"b":8},"D":{"a":8,"b":2}},"conditions":["nonSeqFull","nonSeqPartial","seqNoFeedback","seqFeedback"],"classroomPairings":[["A","B"],["C","D"]],"coinWeights":[0.2,0.5,0.8],"subjectId":"A3LFVI65XV1T46","assignmentId":"3VSOLARPKCVPRD4LHY5UK1OAUDS939","hitId":"39WICJI5ATE2BKO4UUUR86UGAV2Z3G","url":"https://gershmanlab.com/experiments/alicia/teaching/experiment/?hitId=39WICJI5ATE2BKO4UUUR86UGAV2Z3G&workerId=A3LFVI65XV1T46&assignmentId=3VSOLARPKCVPRD4LHY5UK1OAUDS939&a=PLSV3&tp_a=PLSV3&b=3VSOLARPKCVPRD4LHY5UK1OAUDS939&tp_b=3VSOLARPKCVPRD4LHY5UK1OAUDS939&c=365633&tp_c=365633","heads":5,"tails":1,"studentIndex":8,"studentTrueHypers":{"a":4,"b":1},"studentGuess":0.8181818181818182,"delta":0.018181818181818188,"totalExamples":6,"bonusSoFar":0.72},{"rt":null,"stimulus":"Sending examples to student... ","response":null,"trial_type":"html-keyboard-response","trial_index":64,"time_elapsed":490827,"internal_node_id":"0.0-63.0","params":{"nStudents":24,"maxFlips":25,"completionMinutes":45,"basePay":8,"maxBonus":9,"perTrialBonus":0.5,"perTrialBonusThreshold":0.05,"exampleCost":0.02},"classroomParams":{"A":{"a":1,"b":4},"B":{"a":4,"b":1},"C":{"a":2,"b":8},"D":{"a":8,"b":2}},"conditions":["nonSeqFull","nonSeqPartial","seqNoFeedback","seqFeedback"],"classroomPairings":[["A","B"],["C","D"]],"coinWeights":[0.2,0.5,0.8],"subjectId":"A3LFVI65XV1T46","assignmentId":"3VSOLARPKCVPRD4LHY5UK1OAUDS939","hitId":"39WICJI5ATE2BKO4UUUR86UGAV2Z3G","url":"https://gershmanlab.com/experiments/alicia/teaching/experiment/?hitId=39WICJI5ATE2BKO4UUUR86UGAV2Z3G&workerId=A3LFVI65XV1T46&assignmentId=3VSOLARPKCVPRD4LHY5UK1OAUDS939&a=PLSV3&tp_a=PLSV3&b=3VSOLARPKCVPRD4LHY5UK1OAUDS939&tp_b=3VSOLARPKCVPRD4LHY5UK1OAUDS939&c=365633&tp_c=365633"},{"rt":null,"stimulus":"Examples sent to student! Waiting for student...","response":null,"trial_type":"html-keyboard-response","trial_index":65,"time_elapsed":495339,"internal_node_id":"0.0-64.0","params":{"nStudents":24,"maxFlips":25,"completionMinutes":45,"basePay":8,"maxBonus":9,"perTrialBonus":0.5,"perTrialBonusThreshold":0.05,"exampleCost":0.02},"classroomParams":{"A":{"a":1,"b":4},"B":{"a":4,"b":1},"C":{"a":2,"b":8},"D":{"a":8,"b":2}},"conditions":["nonSeqFull","nonSeqPartial","seqNoFeedback","seqFeedback"],"classroomPairings":[["A","B"],["C","D"]],"coinWeights":[0.2,0.5,0.8],"subjectId":"A3LFVI65XV1T46","assignmentId":"3VSOLARPKCVPRD4LHY5UK1OAUDS939","hitId":"39WICJI5ATE2BKO4UUUR86UGAV2Z3G","url":"https://gershmanlab.com/experiments/alicia/teaching/experiment/?hitId=39WICJI5ATE2BKO4UUUR86UGAV2Z3G&workerId=A3LFVI65XV1T46&assignmentId=3VSOLARPKCVPRD4LHY5UK1OAUDS939&a=PLSV3&tp_a=PLSV3&b=3VSOLARPKCVPRD4LHY5UK1OAUDS939&tp_b=3VSOLARPKCVPRD4LHY5UK1OAUDS939&c=365633&tp_c=365633"},{"rt":3374,"stimulus":"\n                <p>Student's guess for coin weight: <b style=\"color:Tomato;\">0.82</b></p>\n                <p></b></p>\n                <p>You will now send another set of examples to your student. <b>Remember to take your student's guess into consideration so that you can earn the highest bonus possible!</b> </p>\n                <p>Press any key to continue.</p>\n                ","response":"enter","trial_type":"html-keyboard-response","trial_index":66,"time_elapsed":498714,"internal_node_id":"0.0-65.0","params":{"nStudents":24,"maxFlips":25,"completionMinutes":45,"basePay":8,"maxBonus":9,"perTrialBonus":0.5,"perTrialBonusThreshold":0.05,"exampleCost":0.02},"classroomParams":{"A":{"a":1,"b":4},"B":{"a":4,"b":1},"C":{"a":2,"b":8},"D":{"a":8,"b":2}},"conditions":["nonSeqFull","nonSeqPartial","seqNoFeedback","seqFeedback"],"classroomPairings":[["A","B"],["C","D"]],"coinWeights":[0.2,0.5,0.8],"subjectId":"A3LFVI65XV1T46","assignmentId":"3VSOLARPKCVPRD4LHY5UK1OAUDS939","hitId":"39WICJI5ATE2BKO4UUUR86UGAV2Z3G","url":"https://gershmanlab.com/experiments/alicia/teaching/experiment/?hitId=39WICJI5ATE2BKO4UUUR86UGAV2Z3G&workerId=A3LFVI65XV1T46&assignmentId=3VSOLARPKCVPRD4LHY5UK1OAUDS939&a=PLSV3&tp_a=PLSV3&b=3VSOLARPKCVPRD4LHY5UK1OAUDS939&tp_b=3VSOLARPKCVPRD4LHY5UK1OAUDS939&c=365633&tp_c=365633"},{"rt":5553,"response":{"heads":"5","tails":"1"},"type":"response","condition":"seqFeedback","trueTheta":0.8,"classrooms":["A","B"],"studentTrueClassroom":"B","exampleSet":"second","trial_type":"survey-html-form","trial_index":67,"time_elapsed":504268,"internal_node_id":"0.0-66.0-0.0","params":{"nStudents":24,"maxFlips":25,"completionMinutes":45,"basePay":8,"maxBonus":9,"perTrialBonus":0.5,"perTrialBonusThreshold":0.05,"exampleCost":0.02},"classroomParams":{"A":{"a":1,"b":4},"B":{"a":4,"b":1},"C":{"a":2,"b":8},"D":{"a":8,"b":2}},"conditions":["nonSeqFull","nonSeqPartial","seqNoFeedback","seqFeedback"],"classroomPairings":[["A","B"],["C","D"]],"coinWeights":[0.2,0.5,0.8],"subjectId":"A3LFVI65XV1T46","assignmentId":"3VSOLARPKCVPRD4LHY5UK1OAUDS939","hitId":"39WICJI5ATE2BKO4UUUR86UGAV2Z3G","url":"https://gershmanlab.com/experiments/alicia/teaching/experiment/?hitId=39WICJI5ATE2BKO4UUUR86UGAV2Z3G&workerId=A3LFVI65XV1T46&assignmentId=3VSOLARPKCVPRD4LHY5UK1OAUDS939&a=PLSV3&tp_a=PLSV3&b=3VSOLARPKCVPRD4LHY5UK1OAUDS939&tp_b=3VSOLARPKCVPRD4LHY5UK1OAUDS939&c=365633&tp_c=365633","firstResponseHeads":5,"firstResponseTails":1,"secondResponseHeads":5,"secondResponseTails":1,"totalHeads":10,"totalTails":2,"studentIndex":8,"studentTrueHypers":{"a":4,"b":1},"studentGuess":0.8235294117647058,"delta":0.0235294117647058,"bonus":0.26,"bonusSoFar":0.98,"totalExamples":12},{"rt":null,"stimulus":"Sending examples to student... ","response":null,"trial_type":"html-keyboard-response","trial_index":68,"time_elapsed":505818,"internal_node_id":"0.0-67.0","params":{"nStudents":24,"maxFlips":25,"completionMinutes":45,"basePay":8,"maxBonus":9,"perTrialBonus":0.5,"perTrialBonusThreshold":0.05,"exampleCost":0.02},"classroomParams":{"A":{"a":1,"b":4},"B":{"a":4,"b":1},"C":{"a":2,"b":8},"D":{"a":8,"b":2}},"conditions":["nonSeqFull","nonSeqPartial","seqNoFeedback","seqFeedback"],"classroomPairings":[["A","B"],["C","D"]],"coinWeights":[0.2,0.5,0.8],"subjectId":"A3LFVI65XV1T46","assignmentId":"3VSOLARPKCVPRD4LHY5UK1OAUDS939","hitId":"39WICJI5ATE2BKO4UUUR86UGAV2Z3G","url":"https://gershmanlab.com/experiments/alicia/teaching/experiment/?hitId=39WICJI5ATE2BKO4UUUR86UGAV2Z3G&workerId=A3LFVI65XV1T46&assignmentId=3VSOLARPKCVPRD4LHY5UK1OAUDS939&a=PLSV3&tp_a=PLSV3&b=3VSOLARPKCVPRD4LHY5UK1OAUDS939&tp_b=3VSOLARPKCVPRD4LHY5UK1OAUDS939&c=365633&tp_c=365633"},{"rt":null,"stimulus":"Examples sent to student! Waiting for student...","response":null,"trial_type":"html-keyboard-response","trial_index":69,"time_elapsed":509834,"internal_node_id":"0.0-68.0","params":{"nStudents":24,"maxFlips":25,"completionMinutes":45,"basePay":8,"maxBonus":9,"perTrialBonus":0.5,"perTrialBonusThreshold":0.05,"exampleCost":0.02},"classroomParams":{"A":{"a":1,"b":4},"B":{"a":4,"b":1},"C":{"a":2,"b":8},"D":{"a":8,"b":2}},"conditions":["nonSeqFull","nonSeqPartial","seqNoFeedback","seqFeedback"],"classroomPairings":[["A","B"],["C","D"]],"coinWeights":[0.2,0.5,0.8],"subjectId":"A3LFVI65XV1T46","assignmentId":"3VSOLARPKCVPRD4LHY5UK1OAUDS939","hitId":"39WICJI5ATE2BKO4UUUR86UGAV2Z3G","url":"https://gershmanlab.com/experiments/alicia/teaching/experiment/?hitId=39WICJI5ATE2BKO4UUUR86UGAV2Z3G&workerId=A3LFVI65XV1T46&assignmentId=3VSOLARPKCVPRD4LHY5UK1OAUDS939&a=PLSV3&tp_a=PLSV3&b=3VSOLARPKCVPRD4LHY5UK1OAUDS939&tp_b=3VSOLARPKCVPRD4LHY5UK1OAUDS939&c=365633&tp_c=365633"},{"rt":2849,"stimulus":"\n                <p>Student 9's first guess for coin weight: <b style=\"color:Tomato\";>0.82</b></p>\n                <p>Student 9's second guess for coin weight: <b style=\"color:Tomato\";>0.82</b></p>\n                <p>You received a bonus of <b>$0.26</b> based on the student's second guess.</p>\n                <p>Total bonus so far: <b>$0.98</b></p>\n                <p>Press any key to continue.</p>\n                ","response":"enter","trial_type":"html-keyboard-response","trial_index":70,"time_elapsed":512684,"internal_node_id":"0.0-69.0","params":{"nStudents":24,"maxFlips":25,"completionMinutes":45,"basePay":8,"maxBonus":9,"perTrialBonus":0.5,"perTrialBonusThreshold":0.05,"exampleCost":0.02},"classroomParams":{"A":{"a":1,"b":4},"B":{"a":4,"b":1},"C":{"a":2,"b":8},"D":{"a":8,"b":2}},"conditions":["nonSeqFull","nonSeqPartial","seqNoFeedback","seqFeedback"],"classroomPairings":[["A","B"],["C","D"]],"coinWeights":[0.2,0.5,0.8],"subjectId":"A3LFVI65XV1T46","assignmentId":"3VSOLARPKCVPRD4LHY5UK1OAUDS939","hitId":"39WICJI5ATE2BKO4UUUR86UGAV2Z3G","url":"https://gershmanlab.com/experiments/alicia/teaching/experiment/?hitId=39WICJI5ATE2BKO4UUUR86UGAV2Z3G&workerId=A3LFVI65XV1T46&assignmentId=3VSOLARPKCVPRD4LHY5UK1OAUDS939&a=PLSV3&tp_a=PLSV3&b=3VSOLARPKCVPRD4LHY5UK1OAUDS939&tp_b=3VSOLARPKCVPRD4LHY5UK1OAUDS939&c=365633&tp_c=365633"},{"rt":null,"stimulus":"<div style=\"font-size:60px;\">Next student</div>","response":null,"trial_type":"html-keyboard-response","trial_index":71,"time_elapsed":515201,"internal_node_id":"0.0-70.0-0.0","params":{"nStudents":24,"maxFlips":25,"completionMinutes":45,"basePay":8,"maxBonus":9,"perTrialBonus":0.5,"perTrialBonusThreshold":0.05,"exampleCost":0.02},"classroomParams":{"A":{"a":1,"b":4},"B":{"a":4,"b":1},"C":{"a":2,"b":8},"D":{"a":8,"b":2}},"conditions":["nonSeqFull","nonSeqPartial","seqNoFeedback","seqFeedback"],"classroomPairings":[["A","B"],["C","D"]],"coinWeights":[0.2,0.5,0.8],"subjectId":"A3LFVI65XV1T46","assignmentId":"3VSOLARPKCVPRD4LHY5UK1OAUDS939","hitId":"39WICJI5ATE2BKO4UUUR86UGAV2Z3G","url":"https://gershmanlab.com/experiments/alicia/teaching/experiment/?hitId=39WICJI5ATE2BKO4UUUR86UGAV2Z3G&workerId=A3LFVI65XV1T46&assignmentId=3VSOLARPKCVPRD4LHY5UK1OAUDS939&a=PLSV3&tp_a=PLSV3&b=3VSOLARPKCVPRD4LHY5UK1OAUDS939&tp_b=3VSOLARPKCVPRD4LHY5UK1OAUDS939&c=365633&tp_c=365633"},{"rt":2304,"stimulus":"\n            <h4 style=\"color:Orange;\">Student 10</h4>\n            <h2>The weight of your coin is <b style=\"color:Tomato;\">0.8</b>.</h2>\n            <p>In this block, you will be giving <b>two</b> sets of examples to Student 10.</p>\n                <p>You will receive feedback at the end of the block.</p>\n            <p></p>","response":0,"trial_type":"html-button-response","trial_index":72,"time_elapsed":517507,"internal_node_id":"0.0-71.0","params":{"nStudents":24,"maxFlips":25,"completionMinutes":45,"basePay":8,"maxBonus":9,"perTrialBonus":0.5,"perTrialBonusThreshold":0.05,"exampleCost":0.02},"classroomParams":{"A":{"a":1,"b":4},"B":{"a":4,"b":1},"C":{"a":2,"b":8},"D":{"a":8,"b":2}},"conditions":["nonSeqFull","nonSeqPartial","seqNoFeedback","seqFeedback"],"classroomPairings":[["A","B"],["C","D"]],"coinWeights":[0.2,0.5,0.8],"subjectId":"A3LFVI65XV1T46","assignmentId":"3VSOLARPKCVPRD4LHY5UK1OAUDS939","hitId":"39WICJI5ATE2BKO4UUUR86UGAV2Z3G","url":"https://gershmanlab.com/experiments/alicia/teaching/experiment/?hitId=39WICJI5ATE2BKO4UUUR86UGAV2Z3G&workerId=A3LFVI65XV1T46&assignmentId=3VSOLARPKCVPRD4LHY5UK1OAUDS939&a=PLSV3&tp_a=PLSV3&b=3VSOLARPKCVPRD4LHY5UK1OAUDS939&tp_b=3VSOLARPKCVPRD4LHY5UK1OAUDS939&c=365633&tp_c=365633"},{"rt":11336,"response":{"heads":"6","tails":"1"},"type":"response","condition":"seqNoFeedback","trueTheta":0.8,"classrooms":["C","D"],"studentTrueClassroom":"D","exampleSet":"first","trial_type":"survey-html-form","trial_index":73,"time_elapsed":528845,"internal_node_id":"0.0-72.0-0.0","params":{"nStudents":24,"maxFlips":25,"completionMinutes":45,"basePay":8,"maxBonus":9,"perTrialBonus":0.5,"perTrialBonusThreshold":0.05,"exampleCost":0.02},"classroomParams":{"A":{"a":1,"b":4},"B":{"a":4,"b":1},"C":{"a":2,"b":8},"D":{"a":8,"b":2}},"conditions":["nonSeqFull","nonSeqPartial","seqNoFeedback","seqFeedback"],"classroomPairings":[["A","B"],["C","D"]],"coinWeights":[0.2,0.5,0.8],"subjectId":"A3LFVI65XV1T46","assignmentId":"3VSOLARPKCVPRD4LHY5UK1OAUDS939","hitId":"39WICJI5ATE2BKO4UUUR86UGAV2Z3G","url":"https://gershmanlab.com/experiments/alicia/teaching/experiment/?hitId=39WICJI5ATE2BKO4UUUR86UGAV2Z3G&workerId=A3LFVI65XV1T46&assignmentId=3VSOLARPKCVPRD4LHY5UK1OAUDS939&a=PLSV3&tp_a=PLSV3&b=3VSOLARPKCVPRD4LHY5UK1OAUDS939&tp_b=3VSOLARPKCVPRD4LHY5UK1OAUDS939&c=365633&tp_c=365633","heads":6,"tails":1,"studentIndex":9,"studentTrueHypers":{"a":8,"b":2},"studentGuess":0.8235294117647058,"delta":0.0235294117647058,"totalExamples":7,"bonusSoFar":0.98},{"rt":null,"stimulus":"Sending examples to student... ","response":null,"trial_type":"html-keyboard-response","trial_index":74,"time_elapsed":530854,"internal_node_id":"0.0-73.0","params":{"nStudents":24,"maxFlips":25,"completionMinutes":45,"basePay":8,"maxBonus":9,"perTrialBonus":0.5,"perTrialBonusThreshold":0.05,"exampleCost":0.02},"classroomParams":{"A":{"a":1,"b":4},"B":{"a":4,"b":1},"C":{"a":2,"b":8},"D":{"a":8,"b":2}},"conditions":["nonSeqFull","nonSeqPartial","seqNoFeedback","seqFeedback"],"classroomPairings":[["A","B"],["C","D"]],"coinWeights":[0.2,0.5,0.8],"subjectId":"A3LFVI65XV1T46","assignmentId":"3VSOLARPKCVPRD4LHY5UK1OAUDS939","hitId":"39WICJI5ATE2BKO4UUUR86UGAV2Z3G","url":"https://gershmanlab.com/experiments/alicia/teaching/experiment/?hitId=39WICJI5ATE2BKO4UUUR86UGAV2Z3G&workerId=A3LFVI65XV1T46&assignmentId=3VSOLARPKCVPRD4LHY5UK1OAUDS939&a=PLSV3&tp_a=PLSV3&b=3VSOLARPKCVPRD4LHY5UK1OAUDS939&tp_b=3VSOLARPKCVPRD4LHY5UK1OAUDS939&c=365633&tp_c=365633"},{"rt":null,"stimulus":"Examples sent to student! Waiting for student...","response":null,"trial_type":"html-keyboard-response","trial_index":75,"time_elapsed":534866,"internal_node_id":"0.0-74.0","params":{"nStudents":24,"maxFlips":25,"completionMinutes":45,"basePay":8,"maxBonus":9,"perTrialBonus":0.5,"perTrialBonusThreshold":0.05,"exampleCost":0.02},"classroomParams":{"A":{"a":1,"b":4},"B":{"a":4,"b":1},"C":{"a":2,"b":8},"D":{"a":8,"b":2}},"conditions":["nonSeqFull","nonSeqPartial","seqNoFeedback","seqFeedback"],"classroomPairings":[["A","B"],["C","D"]],"coinWeights":[0.2,0.5,0.8],"subjectId":"A3LFVI65XV1T46","assignmentId":"3VSOLARPKCVPRD4LHY5UK1OAUDS939","hitId":"39WICJI5ATE2BKO4UUUR86UGAV2Z3G","url":"https://gershmanlab.com/experiments/alicia/teaching/experiment/?hitId=39WICJI5ATE2BKO4UUUR86UGAV2Z3G&workerId=A3LFVI65XV1T46&assignmentId=3VSOLARPKCVPRD4LHY5UK1OAUDS939&a=PLSV3&tp_a=PLSV3&b=3VSOLARPKCVPRD4LHY5UK1OAUDS939&tp_b=3VSOLARPKCVPRD4LHY5UK1OAUDS939&c=365633&tp_c=365633"},{"rt":10884,"response":{"heads":"5","tails":"2"},"type":"response","condition":"seqNoFeedback","trueTheta":0.8,"classrooms":["C","D"],"studentTrueClassroom":"D","exampleSet":"second","trial_type":"survey-html-form","trial_index":76,"time_elapsed":545765,"internal_node_id":"0.0-75.0-0.0","params":{"nStudents":24,"maxFlips":25,"completionMinutes":45,"basePay":8,"maxBonus":9,"perTrialBonus":0.5,"perTrialBonusThreshold":0.05,"exampleCost":0.02},"classroomParams":{"A":{"a":1,"b":4},"B":{"a":4,"b":1},"C":{"a":2,"b":8},"D":{"a":8,"b":2}},"conditions":["nonSeqFull","nonSeqPartial","seqNoFeedback","seqFeedback"],"classroomPairings":[["A","B"],["C","D"]],"coinWeights":[0.2,0.5,0.8],"subjectId":"A3LFVI65XV1T46","assignmentId":"3VSOLARPKCVPRD4LHY5UK1OAUDS939","hitId":"39WICJI5ATE2BKO4UUUR86UGAV2Z3G","url":"https://gershmanlab.com/experiments/alicia/teaching/experiment/?hitId=39WICJI5ATE2BKO4UUUR86UGAV2Z3G&workerId=A3LFVI65XV1T46&assignmentId=3VSOLARPKCVPRD4LHY5UK1OAUDS939&a=PLSV3&tp_a=PLSV3&b=3VSOLARPKCVPRD4LHY5UK1OAUDS939&tp_b=3VSOLARPKCVPRD4LHY5UK1OAUDS939&c=365633&tp_c=365633","firstResponseHeads":6,"firstResponseTails":1,"secondResponseHeads":5,"secondResponseTails":2,"totalHeads":11,"totalTails":3,"studentIndex":9,"studentTrueHypers":{"a":8,"b":2},"studentGuess":0.7916666666666666,"delta":0.008333333333333415,"bonus":0.22,"bonusSoFar":1.2,"totalExamples":14},{"rt":null,"stimulus":"Sending examples to student... ","response":null,"trial_type":"html-keyboard-response","trial_index":77,"time_elapsed":547524,"internal_node_id":"0.0-76.0","params":{"nStudents":24,"maxFlips":25,"completionMinutes":45,"basePay":8,"maxBonus":9,"perTrialBonus":0.5,"perTrialBonusThreshold":0.05,"exampleCost":0.02},"classroomParams":{"A":{"a":1,"b":4},"B":{"a":4,"b":1},"C":{"a":2,"b":8},"D":{"a":8,"b":2}},"conditions":["nonSeqFull","nonSeqPartial","seqNoFeedback","seqFeedback"],"classroomPairings":[["A","B"],["C","D"]],"coinWeights":[0.2,0.5,0.8],"subjectId":"A3LFVI65XV1T46","assignmentId":"3VSOLARPKCVPRD4LHY5UK1OAUDS939","hitId":"39WICJI5ATE2BKO4UUUR86UGAV2Z3G","url":"https://gershmanlab.com/experiments/alicia/teaching/experiment/?hitId=39WICJI5ATE2BKO4UUUR86UGAV2Z3G&workerId=A3LFVI65XV1T46&assignmentId=3VSOLARPKCVPRD4LHY5UK1OAUDS939&a=PLSV3&tp_a=PLSV3&b=3VSOLARPKCVPRD4LHY5UK1OAUDS939&tp_b=3VSOLARPKCVPRD4LHY5UK1OAUDS939&c=365633&tp_c=365633"},{"rt":null,"stimulus":"Examples sent to student! Waiting for student...","response":null,"trial_type":"html-keyboard-response","trial_index":78,"time_elapsed":553535,"internal_node_id":"0.0-77.0","params":{"nStudents":24,"maxFlips":25,"completionMinutes":45,"basePay":8,"maxBonus":9,"perTrialBonus":0.5,"perTrialBonusThreshold":0.05,"exampleCost":0.02},"classroomParams":{"A":{"a":1,"b":4},"B":{"a":4,"b":1},"C":{"a":2,"b":8},"D":{"a":8,"b":2}},"conditions":["nonSeqFull","nonSeqPartial","seqNoFeedback","seqFeedback"],"classroomPairings":[["A","B"],["C","D"]],"coinWeights":[0.2,0.5,0.8],"subjectId":"A3LFVI65XV1T46","assignmentId":"3VSOLARPKCVPRD4LHY5UK1OAUDS939","hitId":"39WICJI5ATE2BKO4UUUR86UGAV2Z3G","url":"https://gershmanlab.com/experiments/alicia/teaching/experiment/?hitId=39WICJI5ATE2BKO4UUUR86UGAV2Z3G&workerId=A3LFVI65XV1T46&assignmentId=3VSOLARPKCVPRD4LHY5UK1OAUDS939&a=PLSV3&tp_a=PLSV3&b=3VSOLARPKCVPRD4LHY5UK1OAUDS939&tp_b=3VSOLARPKCVPRD4LHY5UK1OAUDS939&c=365633&tp_c=365633"},{"rt":2831,"stimulus":"\n                <p>Student 10's first guess for coin weight: <b style=\"color:Tomato\";>0.82</b></p>\n                <p>Student 10's second guess for coin weight: <b style=\"color:Tomato\";>0.79</b></p>\n                <p>You received a bonus of <b>$0.22</b> based on the student's second guess.</p>\n                <p>Total bonus so far: <b>$1.20</b></p>\n                <p>Press any key to continue.</p>\n                ","response":"enter","trial_type":"html-keyboard-response","trial_index":79,"time_elapsed":556395,"internal_node_id":"0.0-78.0","params":{"nStudents":24,"maxFlips":25,"completionMinutes":45,"basePay":8,"maxBonus":9,"perTrialBonus":0.5,"perTrialBonusThreshold":0.05,"exampleCost":0.02},"classroomParams":{"A":{"a":1,"b":4},"B":{"a":4,"b":1},"C":{"a":2,"b":8},"D":{"a":8,"b":2}},"conditions":["nonSeqFull","nonSeqPartial","seqNoFeedback","seqFeedback"],"classroomPairings":[["A","B"],["C","D"]],"coinWeights":[0.2,0.5,0.8],"subjectId":"A3LFVI65XV1T46","assignmentId":"3VSOLARPKCVPRD4LHY5UK1OAUDS939","hitId":"39WICJI5ATE2BKO4UUUR86UGAV2Z3G","url":"https://gershmanlab.com/experiments/alicia/teaching/experiment/?hitId=39WICJI5ATE2BKO4UUUR86UGAV2Z3G&workerId=A3LFVI65XV1T46&assignmentId=3VSOLARPKCVPRD4LHY5UK1OAUDS939&a=PLSV3&tp_a=PLSV3&b=3VSOLARPKCVPRD4LHY5UK1OAUDS939&tp_b=3VSOLARPKCVPRD4LHY5UK1OAUDS939&c=365633&tp_c=365633"},{"rt":null,"stimulus":"<div style=\"font-size:60px;\">Next student</div>","response":null,"trial_type":"html-keyboard-response","trial_index":80,"time_elapsed":559410,"internal_node_id":"0.0-79.0-0.0","params":{"nStudents":24,"maxFlips":25,"completionMinutes":45,"basePay":8,"maxBonus":9,"perTrialBonus":0.5,"perTrialBonusThreshold":0.05,"exampleCost":0.02},"classroomParams":{"A":{"a":1,"b":4},"B":{"a":4,"b":1},"C":{"a":2,"b":8},"D":{"a":8,"b":2}},"conditions":["nonSeqFull","nonSeqPartial","seqNoFeedback","seqFeedback"],"classroomPairings":[["A","B"],["C","D"]],"coinWeights":[0.2,0.5,0.8],"subjectId":"A3LFVI65XV1T46","assignmentId":"3VSOLARPKCVPRD4LHY5UK1OAUDS939","hitId":"39WICJI5ATE2BKO4UUUR86UGAV2Z3G","url":"https://gershmanlab.com/experiments/alicia/teaching/experiment/?hitId=39WICJI5ATE2BKO4UUUR86UGAV2Z3G&workerId=A3LFVI65XV1T46&assignmentId=3VSOLARPKCVPRD4LHY5UK1OAUDS939&a=PLSV3&tp_a=PLSV3&b=3VSOLARPKCVPRD4LHY5UK1OAUDS939&tp_b=3VSOLARPKCVPRD4LHY5UK1OAUDS939&c=365633&tp_c=365633"},{"rt":2535,"stimulus":"\n            <h4 style=\"color:Orange;\">Student 11</h4>\n            <h2>The weight of your coin is <b style=\"color:Tomato;\">0.8</b>.</h2>\n            <p>In this block, you will be giving <b>one</b> set of examples to Student 11.</p>\n                <p>You will receive feedback at the end of the block.</p>\n            <p></p>","response":0,"trial_type":"html-button-response","trial_index":81,"time_elapsed":561947,"internal_node_id":"0.0-80.0","params":{"nStudents":24,"maxFlips":25,"completionMinutes":45,"basePay":8,"maxBonus":9,"perTrialBonus":0.5,"perTrialBonusThreshold":0.05,"exampleCost":0.02},"classroomParams":{"A":{"a":1,"b":4},"B":{"a":4,"b":1},"C":{"a":2,"b":8},"D":{"a":8,"b":2}},"conditions":["nonSeqFull","nonSeqPartial","seqNoFeedback","seqFeedback"],"classroomPairings":[["A","B"],["C","D"]],"coinWeights":[0.2,0.5,0.8],"subjectId":"A3LFVI65XV1T46","assignmentId":"3VSOLARPKCVPRD4LHY5UK1OAUDS939","hitId":"39WICJI5ATE2BKO4UUUR86UGAV2Z3G","url":"https://gershmanlab.com/experiments/alicia/teaching/experiment/?hitId=39WICJI5ATE2BKO4UUUR86UGAV2Z3G&workerId=A3LFVI65XV1T46&assignmentId=3VSOLARPKCVPRD4LHY5UK1OAUDS939&a=PLSV3&tp_a=PLSV3&b=3VSOLARPKCVPRD4LHY5UK1OAUDS939&tp_b=3VSOLARPKCVPRD4LHY5UK1OAUDS939&c=365633&tp_c=365633"},{"rt":4424,"response":{"heads":"5","tails":"2"},"type":"response","condition":"nonSeqFull","trueTheta":0.8,"classrooms":["C","D"],"studentTrueClassroom":"D","exampleSet":"first","trial_type":"survey-html-form","trial_index":82,"time_elapsed":566372,"internal_node_id":"0.0-81.0-0.0","params":{"nStudents":24,"maxFlips":25,"completionMinutes":45,"basePay":8,"maxBonus":9,"perTrialBonus":0.5,"perTrialBonusThreshold":0.05,"exampleCost":0.02},"classroomParams":{"A":{"a":1,"b":4},"B":{"a":4,"b":1},"C":{"a":2,"b":8},"D":{"a":8,"b":2}},"conditions":["nonSeqFull","nonSeqPartial","seqNoFeedback","seqFeedback"],"classroomPairings":[["A","B"],["C","D"]],"coinWeights":[0.2,0.5,0.8],"subjectId":"A3LFVI65XV1T46","assignmentId":"3VSOLARPKCVPRD4LHY5UK1OAUDS939","hitId":"39WICJI5ATE2BKO4UUUR86UGAV2Z3G","url":"https://gershmanlab.com/experiments/alicia/teaching/experiment/?hitId=39WICJI5ATE2BKO4UUUR86UGAV2Z3G&workerId=A3LFVI65XV1T46&assignmentId=3VSOLARPKCVPRD4LHY5UK1OAUDS939&a=PLSV3&tp_a=PLSV3&b=3VSOLARPKCVPRD4LHY5UK1OAUDS939&tp_b=3VSOLARPKCVPRD4LHY5UK1OAUDS939&c=365633&tp_c=365633","heads":5,"tails":2,"studentIndex":10,"studentTrueHypers":{"a":8,"b":2},"studentGuess":0.7647058823529411,"delta":0.03529411764705892,"totalExamples":7,"bonus":0.36,"bonusSoFar":1.56},{"rt":null,"stimulus":"Sending examples to student... ","response":null,"trial_type":"html-keyboard-response","trial_index":83,"time_elapsed":568436,"internal_node_id":"0.0-82.0","params":{"nStudents":24,"maxFlips":25,"completionMinutes":45,"basePay":8,"maxBonus":9,"perTrialBonus":0.5,"perTrialBonusThreshold":0.05,"exampleCost":0.02},"classroomParams":{"A":{"a":1,"b":4},"B":{"a":4,"b":1},"C":{"a":2,"b":8},"D":{"a":8,"b":2}},"conditions":["nonSeqFull","nonSeqPartial","seqNoFeedback","seqFeedback"],"classroomPairings":[["A","B"],["C","D"]],"coinWeights":[0.2,0.5,0.8],"subjectId":"A3LFVI65XV1T46","assignmentId":"3VSOLARPKCVPRD4LHY5UK1OAUDS939","hitId":"39WICJI5ATE2BKO4UUUR86UGAV2Z3G","url":"https://gershmanlab.com/experiments/alicia/teaching/experiment/?hitId=39WICJI5ATE2BKO4UUUR86UGAV2Z3G&workerId=A3LFVI65XV1T46&assignmentId=3VSOLARPKCVPRD4LHY5UK1OAUDS939&a=PLSV3&tp_a=PLSV3&b=3VSOLARPKCVPRD4LHY5UK1OAUDS939&tp_b=3VSOLARPKCVPRD4LHY5UK1OAUDS939&c=365633&tp_c=365633"},{"rt":null,"stimulus":"Examples sent to student! Waiting for student...","response":null,"trial_type":"html-keyboard-response","trial_index":84,"time_elapsed":572443,"internal_node_id":"0.0-83.0","params":{"nStudents":24,"maxFlips":25,"completionMinutes":45,"basePay":8,"maxBonus":9,"perTrialBonus":0.5,"perTrialBonusThreshold":0.05,"exampleCost":0.02},"classroomParams":{"A":{"a":1,"b":4},"B":{"a":4,"b":1},"C":{"a":2,"b":8},"D":{"a":8,"b":2}},"conditions":["nonSeqFull","nonSeqPartial","seqNoFeedback","seqFeedback"],"classroomPairings":[["A","B"],["C","D"]],"coinWeights":[0.2,0.5,0.8],"subjectId":"A3LFVI65XV1T46","assignmentId":"3VSOLARPKCVPRD4LHY5UK1OAUDS939","hitId":"39WICJI5ATE2BKO4UUUR86UGAV2Z3G","url":"https://gershmanlab.com/experiments/alicia/teaching/experiment/?hitId=39WICJI5ATE2BKO4UUUR86UGAV2Z3G&workerId=A3LFVI65XV1T46&assignmentId=3VSOLARPKCVPRD4LHY5UK1OAUDS939&a=PLSV3&tp_a=PLSV3&b=3VSOLARPKCVPRD4LHY5UK1OAUDS939&tp_b=3VSOLARPKCVPRD4LHY5UK1OAUDS939&c=365633&tp_c=365633"},{"rt":2318,"stimulus":"\n                <p>Student's guess for coin weight: <b style=\"color:Tomato;\">0.76</b></p>\n                <p>You received a bonus of <b>$0.36</b>. Total bonus so far: <b>$1.56</b></b></p>\n                <p></p>\n                <p>Press any key to continue.</p>\n                ","response":"enter","trial_type":"html-keyboard-response","trial_index":85,"time_elapsed":574762,"internal_node_id":"0.0-84.0","params":{"nStudents":24,"maxFlips":25,"completionMinutes":45,"basePay":8,"maxBonus":9,"perTrialBonus":0.5,"perTrialBonusThreshold":0.05,"exampleCost":0.02},"classroomParams":{"A":{"a":1,"b":4},"B":{"a":4,"b":1},"C":{"a":2,"b":8},"D":{"a":8,"b":2}},"conditions":["nonS