[{"rt":7837,"stimulus":"Welcome to the experiment. Press any key to begin.","response":" ","trial_type":"html-keyboard-response","trial_index":0,"time_elapsed":7856,"internal_node_id":"0.0-0.0","params":{"nStudents":24,"maxFlips":25,"completionMinutes":45,"basePay":8,"maxBonus":9,"perTrialBonus":0.5,"perTrialBonusThreshold":0.05,"exampleCost":0.02},"classroomParams":{"A":{"a":1,"b":4},"B":{"a":4,"b":1},"C":{"a":2,"b":8},"D":{"a":8,"b":2}},"conditions":["nonSeqFull","nonSeqPartial","seqNoFeedback","seqFeedback"],"classroomPairings":[["A","B"],["C","D"]],"coinWeights":[0.2,0.5,0.8],"subjectId":"A48WNR6C4CI3J","assignmentId":"3JNQLM5FT58V7X9B2VUF60ADOTOL2M","hitId":"39WICJI5ATE2BKO4UUUR86UGAV2Z3G","url":"https://gershmanlab.com/experiments/alicia/teaching/experiment/?hitId=39WICJI5ATE2BKO4UUUR86UGAV2Z3G&workerId=A48WNR6C4CI3J&assignmentId=3JNQLM5FT58V7X9B2VUF60ADOTOL2M&a=FLNJ3&tp_a=FLNJ3&b=3JNQLM5FT58V7X9B2VUF60ADOTOL2M&tp_b=3JNQLM5FT58V7X9B2VUF60ADOTOL2M&c=365633&tp_c=365633"},{"rt":31333,"stimulus":"\n        <h3>Please read this consent agreement carefully before deciding whether to participate in this experiment.</h3>\n        <p><b>Purpose of the research:</b> To examine how people teach effectively.</p>\n        <p><b>What you will do in this research:</b> You will teach students the weights of different coins.</p>\n        <p><b>Time required:</b> This experiment will take 45 minutes to complete.</p>\n        <p><b>Risks:</b> There are no anticipated risks associated with participating in this study.             The effects of participating should be comparable to those you would experience from viewing a computer monitor             and using a mouse and keyboard for the duration of the experiment.</p>\n        <p><b>Benefits:</b> The study provides important information about the nature of teaching.</p>\n        <p><b>Compensation:</b> You will receive <b>$8</b> for completing the experiment and a performance bonus of up to <b>$9</b>.</p>\n        <p><b>Confidentiality:</b> Your participation in this study will remain confidential.             No personally identifiable information will be associated with your data.             Your de-identified data may be shared with other researchers and used in future projects.</p>\n        <p><b>Participation and withdrawal:</b> Your participation in this study is completely voluntary and             you may refuse to participate or you may choose to withdraw at any time without penalty or loss of\n            benefits to which you are otherwise entitled.</p>\n        <p><b>How to contact the researcher:</b> If you have questions or concerns about your participation            or payment, or want to request a summary of research findings, please contact\n            Alicia Chen, aliciachen@college.harvard.edu.</p>\n        <p><b>Whom to contact about your rights in this research:</b> For questions, concerns, suggestions,             or complaints that have not been or cannot be addressed by the researcher, or to report             research-related harm, please contact the Committee on the Use of Human Subjects in Research at Harvard University,             1414 Massachusetts Avenue, Second Floor, Cambridge, MA 02138. Phone: 617-496-2847. Email: cuhs@fas.harvard.edu.</p>\n        ","response":0,"trial_type":"html-button-response","trial_index":1,"time_elapsed":39194,"internal_node_id":"0.0-1.0","params":{"nStudents":24,"maxFlips":25,"completionMinutes":45,"basePay":8,"maxBonus":9,"perTrialBonus":0.5,"perTrialBonusThreshold":0.05,"exampleCost":0.02},"classroomParams":{"A":{"a":1,"b":4},"B":{"a":4,"b":1},"C":{"a":2,"b":8},"D":{"a":8,"b":2}},"conditions":["nonSeqFull","nonSeqPartial","seqNoFeedback","seqFeedback"],"classroomPairings":[["A","B"],["C","D"]],"coinWeights":[0.2,0.5,0.8],"subjectId":"A48WNR6C4CI3J","assignmentId":"3JNQLM5FT58V7X9B2VUF60ADOTOL2M","hitId":"39WICJI5ATE2BKO4UUUR86UGAV2Z3G","url":"https://gershmanlab.com/experiments/alicia/teaching/experiment/?hitId=39WICJI5ATE2BKO4UUUR86UGAV2Z3G&workerId=A48WNR6C4CI3J&assignmentId=3JNQLM5FT58V7X9B2VUF60ADOTOL2M&a=FLNJ3&tp_a=FLNJ3&b=3JNQLM5FT58V7X9B2VUF60ADOTOL2M&tp_b=3JNQLM5FT58V7X9B2VUF60ADOTOL2M&c=365633&tp_c=365633"},{"view_history":[{"page_index":0,"viewing_time":8945},{"page_index":1,"viewing_time":3316},{"page_index":2,"viewing_time":24654},{"page_index":3,"viewing_time":14742},{"page_index":4,"viewing_time":7788},{"page_index":5,"viewing_time":18611},{"page_index":6,"viewing_time":36055}],"rt":114112,"trial_type":"instructions","trial_index":2,"time_elapsed":153308,"internal_node_id":"0.0-2.0-0.0","params":{"nStudents":24,"maxFlips":25,"completionMinutes":45,"basePay":8,"maxBonus":9,"perTrialBonus":0.5,"perTrialBonusThreshold":0.05,"exampleCost":0.02},"classroomParams":{"A":{"a":1,"b":4},"B":{"a":4,"b":1},"C":{"a":2,"b":8},"D":{"a":8,"b":2}},"conditions":["nonSeqFull","nonSeqPartial","seqNoFeedback","seqFeedback"],"classroomPairings":[["A","B"],["C","D"]],"coinWeights":[0.2,0.5,0.8],"subjectId":"A48WNR6C4CI3J","assignmentId":"3JNQLM5FT58V7X9B2VUF60ADOTOL2M","hitId":"39WICJI5ATE2BKO4UUUR86UGAV2Z3G","url":"https://gershmanlab.com/experiments/alicia/teaching/experiment/?hitId=39WICJI5ATE2BKO4UUUR86UGAV2Z3G&workerId=A48WNR6C4CI3J&assignmentId=3JNQLM5FT58V7X9B2VUF60ADOTOL2M&a=FLNJ3&tp_a=FLNJ3&b=3JNQLM5FT58V7X9B2VUF60ADOTOL2M&tp_b=3JNQLM5FT58V7X9B2VUF60ADOTOL2M&c=365633&tp_c=365633"},{"rt":38055,"response":{"Q0":"Students in different classrooms have seen a different proportion of fair and unfair coins before seeing the examples you select for them.","Q1":"By <b>considering the student's classroom information</b> so that I can teach efficiently and accurately/helpfully at the same time (because each example I give to the student costs money!).","Q2":"The coin lands heads 90% of the time.","Q3":"No, I will teach a <b>new</b> student each time.","Q4":"The students are also on the same alien planet as you, where coins can be unfair.","Q5":"Based on the student's second (and final) guess."},"question_order":[5,1,3,4,0,2],"trial_type":"survey-multi-choice","trial_index":3,"time_elapsed":191370,"internal_node_id":"0.0-2.0-1.0","params":{"nStudents":24,"maxFlips":25,"completionMinutes":45,"basePay":8,"maxBonus":9,"perTrialBonus":0.5,"perTrialBonusThreshold":0.05,"exampleCost":0.02},"classroomParams":{"A":{"a":1,"b":4},"B":{"a":4,"b":1},"C":{"a":2,"b":8},"D":{"a":8,"b":2}},"conditions":["nonSeqFull","nonSeqPartial","seqNoFeedback","seqFeedback"],"classroomPairings":[["A","B"],["C","D"]],"coinWeights":[0.2,0.5,0.8],"subjectId":"A48WNR6C4CI3J","assignmentId":"3JNQLM5FT58V7X9B2VUF60ADOTOL2M","hitId":"39WICJI5ATE2BKO4UUUR86UGAV2Z3G","url":"https://gershmanlab.com/experiments/alicia/teaching/experiment/?hitId=39WICJI5ATE2BKO4UUUR86UGAV2Z3G&workerId=A48WNR6C4CI3J&assignmentId=3JNQLM5FT58V7X9B2VUF60ADOTOL2M&a=FLNJ3&tp_a=FLNJ3&b=3JNQLM5FT58V7X9B2VUF60ADOTOL2M&tp_b=3JNQLM5FT58V7X9B2VUF60ADOTOL2M&c=365633&tp_c=365633","pass":false},{"rt":3420,"stimulus":"Oops, you have missed question(s) on the comprehension check! We'll show you the instructions again.","response":0,"trial_type":"html-button-response","trial_index":4,"time_elapsed":194799,"internal_node_id":"0.0-2.0-2.0-0.0","params":{"nStudents":24,"maxFlips":25,"completionMinutes":45,"basePay":8,"maxBonus":9,"perTrialBonus":0.5,"perTrialBonusThreshold":0.05,"exampleCost":0.02},"classroomParams":{"A":{"a":1,"b":4},"B":{"a":4,"b":1},"C":{"a":2,"b":8},"D":{"a":8,"b":2}},"conditions":["nonSeqFull","nonSeqPartial","seqNoFeedback","seqFeedback"],"classroomPairings":[["A","B"],["C","D"]],"coinWeights":[0.2,0.5,0.8],"subjectId":"A48WNR6C4CI3J","assignmentId":"3JNQLM5FT58V7X9B2VUF60ADOTOL2M","hitId":"39WICJI5ATE2BKO4UUUR86UGAV2Z3G","url":"https://gershmanlab.com/experiments/alicia/teaching/experiment/?hitId=39WICJI5ATE2BKO4UUUR86UGAV2Z3G&workerId=A48WNR6C4CI3J&assignmentId=3JNQLM5FT58V7X9B2VUF60ADOTOL2M&a=FLNJ3&tp_a=FLNJ3&b=3JNQLM5FT58V7X9B2VUF60ADOTOL2M&tp_b=3JNQLM5FT58V7X9B2VUF60ADOTOL2M&c=365633&tp_c=365633"},{"view_history":[{"page_index":0,"viewing_time":8652},{"page_index":1,"viewing_time":1200},{"page_index":2,"viewing_time":10448},{"page_index":3,"viewing_time":10477},{"page_index":4,"viewing_time":8174},{"page_index":5,"viewing_time":12365},{"page_index":6,"viewing_time":13501}],"rt":64818,"trial_type":"instructions","trial_index":5,"time_elapsed":259619,"internal_node_id":"0.0-2.1-0.1","params":{"nStudents":24,"maxFlips":25,"completionMinutes":45,"basePay":8,"maxBonus":9,"perTrialBonus":0.5,"perTrialBonusThreshold":0.05,"exampleCost":0.02},"classroomParams":{"A":{"a":1,"b":4},"B":{"a":4,"b":1},"C":{"a":2,"b":8},"D":{"a":8,"b":2}},"conditions":["nonSeqFull","nonSeqPartial","seqNoFeedback","seqFeedback"],"classroomPairings":[["A","B"],["C","D"]],"coinWeights":[0.2,0.5,0.8],"subjectId":"A48WNR6C4CI3J","assignmentId":"3JNQLM5FT58V7X9B2VUF60ADOTOL2M","hitId":"39WICJI5ATE2BKO4UUUR86UGAV2Z3G","url":"https://gershmanlab.com/experiments/alicia/teaching/experiment/?hitId=39WICJI5ATE2BKO4UUUR86UGAV2Z3G&workerId=A48WNR6C4CI3J&assignmentId=3JNQLM5FT58V7X9B2VUF60ADOTOL2M&a=FLNJ3&tp_a=FLNJ3&b=3JNQLM5FT58V7X9B2VUF60ADOTOL2M&tp_b=3JNQLM5FT58V7X9B2VUF60ADOTOL2M&c=365633&tp_c=365633"},{"rt":26110,"response":{"Q0":"Students in different classrooms will have seen a different number of heads and tails before seeing the examples you select for them.","Q1":"By <b>considering the student's classroom information</b> so that I can teach efficiently and accurately/helpfully at the same time (because each example I give to the student costs money!).","Q2":"The coin lands heads 90% of the time.","Q3":"Yes, I might encounter the same student twice.","Q4":"The students are also on the same alien planet as you, where coins can be unfair.","Q5":"Based on the student's second (and final) guess."},"question_order":[2,4,5,1,0,3],"trial_type":"survey-multi-choice","trial_index":6,"time_elapsed":285733,"internal_node_id":"0.0-2.1-1.1","params":{"nStudents":24,"maxFlips":25,"completionMinutes":45,"basePay":8,"maxBonus":9,"perTrialBonus":0.5,"perTrialBonusThreshold":0.05,"exampleCost":0.02},"classroomParams":{"A":{"a":1,"b":4},"B":{"a":4,"b":1},"C":{"a":2,"b":8},"D":{"a":8,"b":2}},"conditions":["nonSeqFull","nonSeqPartial","seqNoFeedback","seqFeedback"],"classroomPairings":[["A","B"],["C","D"]],"coinWeights":[0.2,0.5,0.8],"subjectId":"A48WNR6C4CI3J","assignmentId":"3JNQLM5FT58V7X9B2VUF60ADOTOL2M","hitId":"39WICJI5ATE2BKO4UUUR86UGAV2Z3G","url":"https://gershmanlab.com/experiments/alicia/teaching/experiment/?hitId=39WICJI5ATE2BKO4UUUR86UGAV2Z3G&workerId=A48WNR6C4CI3J&assignmentId=3JNQLM5FT58V7X9B2VUF60ADOTOL2M&a=FLNJ3&tp_a=FLNJ3&b=3JNQLM5FT58V7X9B2VUF60ADOTOL2M&tp_b=3JNQLM5FT58V7X9B2VUF60ADOTOL2M&c=365633&tp_c=365633","pass":false},{"rt":2444,"stimulus":"Oops, you have missed question(s) on the comprehension check! We'll show you the instructions again.","response":0,"trial_type":"html-button-response","trial_index":7,"time_elapsed":288182,"internal_node_id":"0.0-2.1-2.1-0.1","params":{"nStudents":24,"maxFlips":25,"completionMinutes":45,"basePay":8,"maxBonus":9,"perTrialBonus":0.5,"perTrialBonusThreshold":0.05,"exampleCost":0.02},"classroomParams":{"A":{"a":1,"b":4},"B":{"a":4,"b":1},"C":{"a":2,"b":8},"D":{"a":8,"b":2}},"conditions":["nonSeqFull","nonSeqPartial","seqNoFeedback","seqFeedback"],"classroomPairings":[["A","B"],["C","D"]],"coinWeights":[0.2,0.5,0.8],"subjectId":"A48WNR6C4CI3J","assignmentId":"3JNQLM5FT58V7X9B2VUF60ADOTOL2M","hitId":"39WICJI5ATE2BKO4UUUR86UGAV2Z3G","url":"https://gershmanlab.com/experiments/alicia/teaching/experiment/?hitId=39WICJI5ATE2BKO4UUUR86UGAV2Z3G&workerId=A48WNR6C4CI3J&assignmentId=3JNQLM5FT58V7X9B2VUF60ADOTOL2M&a=FLNJ3&tp_a=FLNJ3&b=3JNQLM5FT58V7X9B2VUF60ADOTOL2M&tp_b=3JNQLM5FT58V7X9B2VUF60ADOTOL2M&c=365633&tp_c=365633"},{"view_history":[{"page_index":0,"viewing_time":2601},{"page_index":1,"viewing_time":1477},{"page_index":2,"viewing_time":13326},{"page_index":3,"viewing_time":4685},{"page_index":4,"viewing_time":6063},{"page_index":5,"viewing_time":1077},{"page_index":6,"viewing_time":671}],"rt":29900,"trial_type":"instructions","trial_index":8,"time_elapsed":318084,"internal_node_id":"0.0-2.2-0.2","params":{"nStudents":24,"maxFlips":25,"completionMinutes":45,"basePay":8,"maxBonus":9,"perTrialBonus":0.5,"perTrialBonusThreshold":0.05,"exampleCost":0.02},"classroomParams":{"A":{"a":1,"b":4},"B":{"a":4,"b":1},"C":{"a":2,"b":8},"D":{"a":8,"b":2}},"conditions":["nonSeqFull","nonSeqPartial","seqNoFeedback","seqFeedback"],"classroomPairings":[["A","B"],["C","D"]],"coinWeights":[0.2,0.5,0.8],"subjectId":"A48WNR6C4CI3J","assignmentId":"3JNQLM5FT58V7X9B2VUF60ADOTOL2M","hitId":"39WICJI5ATE2BKO4UUUR86UGAV2Z3G","url":"https://gershmanlab.com/experiments/alicia/teaching/experiment/?hitId=39WICJI5ATE2BKO4UUUR86UGAV2Z3G&workerId=A48WNR6C4CI3J&assignmentId=3JNQLM5FT58V7X9B2VUF60ADOTOL2M&a=FLNJ3&tp_a=FLNJ3&b=3JNQLM5FT58V7X9B2VUF60ADOTOL2M&tp_b=3JNQLM5FT58V7X9B2VUF60ADOTOL2M&c=365633&tp_c=365633"},{"rt":14159,"response":{"Q0":"Students in different classrooms will have seen a different number of heads and tails before seeing the examples you select for them.","Q1":"By <b>considering the student's classroom information</b> so that I can teach efficiently and accurately/helpfully at the same time (because each example I give to the student costs money!).","Q2":"The coin lands heads 90% of the time.","Q3":"No, I will teach a <b>new</b> student each time.","Q4":"The students are also on the same alien planet as you, where coins can be unfair.","Q5":"Based on the student's second (and final) guess."},"question_order":[2,3,5,4,0,1],"trial_type":"survey-multi-choice","trial_index":9,"time_elapsed":332245,"internal_node_id":"0.0-2.2-1.2","params":{"nStudents":24,"maxFlips":25,"completionMinutes":45,"basePay":8,"maxBonus":9,"perTrialBonus":0.5,"perTrialBonusThreshold":0.05,"exampleCost":0.02},"classroomParams":{"A":{"a":1,"b":4},"B":{"a":4,"b":1},"C":{"a":2,"b":8},"D":{"a":8,"b":2}},"conditions":["nonSeqFull","nonSeqPartial","seqNoFeedback","seqFeedback"],"classroomPairings":[["A","B"],["C","D"]],"coinWeights":[0.2,0.5,0.8],"subjectId":"A48WNR6C4CI3J","assignmentId":"3JNQLM5FT58V7X9B2VUF60ADOTOL2M","hitId":"39WICJI5ATE2BKO4UUUR86UGAV2Z3G","url":"https://gershmanlab.com/experiments/alicia/teaching/experiment/?hitId=39WICJI5ATE2BKO4UUUR86UGAV2Z3G&workerId=A48WNR6C4CI3J&assignmentId=3JNQLM5FT58V7X9B2VUF60ADOTOL2M&a=FLNJ3&tp_a=FLNJ3&b=3JNQLM5FT58V7X9B2VUF60ADOTOL2M&tp_b=3JNQLM5FT58V7X9B2VUF60ADOTOL2M&c=365633&tp_c=365633","pass":true},{"rt":null,"stimulus":"<div style=\"font-size:30px;\">Congrats on passing the comprehension quiz! The experiment will begin in a few seconds.</div>","response":null,"trial_type":"html-keyboard-response","trial_index":10,"time_elapsed":335253,"internal_node_id":"0.0-3.0","params":{"nStudents":24,"maxFlips":25,"completionMinutes":45,"basePay":8,"maxBonus":9,"perTrialBonus":0.5,"perTrialBonusThreshold":0.05,"exampleCost":0.02},"classroomParams":{"A":{"a":1,"b":4},"B":{"a":4,"b":1},"C":{"a":2,"b":8},"D":{"a":8,"b":2}},"conditions":["nonSeqFull","nonSeqPartial","seqNoFeedback","seqFeedback"],"classroomPairings":[["A","B"],["C","D"]],"coinWeights":[0.2,0.5,0.8],"subjectId":"A48WNR6C4CI3J","assignmentId":"3JNQLM5FT58V7X9B2VUF60ADOTOL2M","hitId":"39WICJI5ATE2BKO4UUUR86UGAV2Z3G","url":"https://gershmanlab.com/experiments/alicia/teaching/experiment/?hitId=39WICJI5ATE2BKO4UUUR86UGAV2Z3G&workerId=A48WNR6C4CI3J&assignmentId=3JNQLM5FT58V7X9B2VUF60ADOTOL2M&a=FLNJ3&tp_a=FLNJ3&b=3JNQLM5FT58V7X9B2VUF60ADOTOL2M&tp_b=3JNQLM5FT58V7X9B2VUF60ADOTOL2M&c=365633&tp_c=365633"},{"rt":null,"stimulus":"<div style=\"font-size:50px;\">First student</div>","response":null,"trial_type":"html-keyboard-response","trial_index":11,"time_elapsed":338255,"internal_node_id":"0.0-4.0","params":{"nStudents":24,"maxFlips":25,"completionMinutes":45,"basePay":8,"maxBonus":9,"perTrialBonus":0.5,"perTrialBonusThreshold":0.05,"exampleCost":0.02},"classroomParams":{"A":{"a":1,"b":4},"B":{"a":4,"b":1},"C":{"a":2,"b":8},"D":{"a":8,"b":2}},"conditions":["nonSeqFull","nonSeqPartial","seqNoFeedback","seqFeedback"],"classroomPairings":[["A","B"],["C","D"]],"coinWeights":[0.2,0.5,0.8],"subjectId":"A48WNR6C4CI3J","assignmentId":"3JNQLM5FT58V7X9B2VUF60ADOTOL2M","hitId":"39WICJI5ATE2BKO4UUUR86UGAV2Z3G","url":"https://gershmanlab.com/experiments/alicia/teaching/experiment/?hitId=39WICJI5ATE2BKO4UUUR86UGAV2Z3G&workerId=A48WNR6C4CI3J&assignmentId=3JNQLM5FT58V7X9B2VUF60ADOTOL2M&a=FLNJ3&tp_a=FLNJ3&b=3JNQLM5FT58V7X9B2VUF60ADOTOL2M&tp_b=3JNQLM5FT58V7X9B2VUF60ADOTOL2M&c=365633&tp_c=365633"},{"rt":15650,"stimulus":"\n            <h4 style=\"color:Orange;\">Student 1</h4>\n            <h2>The weight of your coin is <b style=\"color:Tomato;\">0.2</b>.</h2>\n            <p>In this block, you will be giving <b>two</b> sets of examples to Student 1.</p>\n                <p>You will see the student's guess after the first set of examples. You will also receive feedback at the end of the block.</p>\n            <p>To earn the highest bonus, you will have to <b>take into consideration the student's guess</b> when you choose your second set of examples.</p>","response":0,"trial_type":"html-button-response","trial_index":12,"time_elapsed":353906,"internal_node_id":"0.0-5.0","params":{"nStudents":24,"maxFlips":25,"completionMinutes":45,"basePay":8,"maxBonus":9,"perTrialBonus":0.5,"perTrialBonusThreshold":0.05,"exampleCost":0.02},"classroomParams":{"A":{"a":1,"b":4},"B":{"a":4,"b":1},"C":{"a":2,"b":8},"D":{"a":8,"b":2}},"conditions":["nonSeqFull","nonSeqPartial","seqNoFeedback","seqFeedback"],"classroomPairings":[["A","B"],["C","D"]],"coinWeights":[0.2,0.5,0.8],"subjectId":"A48WNR6C4CI3J","assignmentId":"3JNQLM5FT58V7X9B2VUF60ADOTOL2M","hitId":"39WICJI5ATE2BKO4UUUR86UGAV2Z3G","url":"https://gershmanlab.com/experiments/alicia/teaching/experiment/?hitId=39WICJI5ATE2BKO4UUUR86UGAV2Z3G&workerId=A48WNR6C4CI3J&assignmentId=3JNQLM5FT58V7X9B2VUF60ADOTOL2M&a=FLNJ3&tp_a=FLNJ3&b=3JNQLM5FT58V7X9B2VUF60ADOTOL2M&tp_b=3JNQLM5FT58V7X9B2VUF60ADOTOL2M&c=365633&tp_c=365633"},{"rt":18224,"response":{"heads":"2","tails":"8"},"type":"response","condition":"seqFeedback","trueTheta":0.2,"classrooms":["C","D"],"studentTrueClassroom":"D","exampleSet":"first","trial_type":"survey-html-form","trial_index":13,"time_elapsed":372132,"internal_node_id":"0.0-6.0-0.0","params":{"nStudents":24,"maxFlips":25,"completionMinutes":45,"basePay":8,"maxBonus":9,"perTrialBonus":0.5,"perTrialBonusThreshold":0.05,"exampleCost":0.02},"classroomParams":{"A":{"a":1,"b":4},"B":{"a":4,"b":1},"C":{"a":2,"b":8},"D":{"a":8,"b":2}},"conditions":["nonSeqFull","nonSeqPartial","seqNoFeedback","seqFeedback"],"classroomPairings":[["A","B"],["C","D"]],"coinWeights":[0.2,0.5,0.8],"subjectId":"A48WNR6C4CI3J","assignmentId":"3JNQLM5FT58V7X9B2VUF60ADOTOL2M","hitId":"39WICJI5ATE2BKO4UUUR86UGAV2Z3G","url":"https://gershmanlab.com/experiments/alicia/teaching/experiment/?hitId=39WICJI5ATE2BKO4UUUR86UGAV2Z3G&workerId=A48WNR6C4CI3J&assignmentId=3JNQLM5FT58V7X9B2VUF60ADOTOL2M&a=FLNJ3&tp_a=FLNJ3&b=3JNQLM5FT58V7X9B2VUF60ADOTOL2M&tp_b=3JNQLM5FT58V7X9B2VUF60ADOTOL2M&c=365633&tp_c=365633","heads":2,"tails":8,"studentIndex":0,"studentTrueHypers":{"a":8,"b":2},"studentGuess":0.5,"delta":0.3,"totalExamples":10,"bonusSoFar":0},{"rt":null,"stimulus":"Sending examples to student... ","response":null,"trial_type":"html-keyboard-response","trial_index":14,"time_elapsed":373885,"internal_node_id":"0.0-7.0","params":{"nStudents":24,"maxFlips":25,"completionMinutes":45,"basePay":8,"maxBonus":9,"perTrialBonus":0.5,"perTrialBonusThreshold":0.05,"exampleCost":0.02},"classroomParams":{"A":{"a":1,"b":4},"B":{"a":4,"b":1},"C":{"a":2,"b":8},"D":{"a":8,"b":2}},"conditions":["nonSeqFull","nonSeqPartial","seqNoFeedback","seqFeedback"],"classroomPairings":[["A","B"],["C","D"]],"coinWeights":[0.2,0.5,0.8],"subjectId":"A48WNR6C4CI3J","assignmentId":"3JNQLM5FT58V7X9B2VUF60ADOTOL2M","hitId":"39WICJI5ATE2BKO4UUUR86UGAV2Z3G","url":"https://gershmanlab.com/experiments/alicia/teaching/experiment/?hitId=39WICJI5ATE2BKO4UUUR86UGAV2Z3G&workerId=A48WNR6C4CI3J&assignmentId=3JNQLM5FT58V7X9B2VUF60ADOTOL2M&a=FLNJ3&tp_a=FLNJ3&b=3JNQLM5FT58V7X9B2VUF60ADOTOL2M&tp_b=3JNQLM5FT58V7X9B2VUF60ADOTOL2M&c=365633&tp_c=365633"},{"rt":null,"stimulus":"Examples sent to student! Waiting for student...","response":null,"trial_type":"html-keyboard-response","trial_index":15,"time_elapsed":379887,"internal_node_id":"0.0-8.0","params":{"nStudents":24,"maxFlips":25,"completionMinutes":45,"basePay":8,"maxBonus":9,"perTrialBonus":0.5,"perTrialBonusThreshold":0.05,"exampleCost":0.02},"classroomParams":{"A":{"a":1,"b":4},"B":{"a":4,"b":1},"C":{"a":2,"b":8},"D":{"a":8,"b":2}},"conditions":["nonSeqFull","nonSeqPartial","seqNoFeedback","seqFeedback"],"classroomPairings":[["A","B"],["C","D"]],"coinWeights":[0.2,0.5,0.8],"subjectId":"A48WNR6C4CI3J","assignmentId":"3JNQLM5FT58V7X9B2VUF60ADOTOL2M","hitId":"39WICJI5ATE2BKO4UUUR86UGAV2Z3G","url":"https://gershmanlab.com/experiments/alicia/teaching/experiment/?hitId=39WICJI5ATE2BKO4UUUR86UGAV2Z3G&workerId=A48WNR6C4CI3J&assignmentId=3JNQLM5FT58V7X9B2VUF60ADOTOL2M&a=FLNJ3&tp_a=FLNJ3&b=3JNQLM5FT58V7X9B2VUF60ADOTOL2M&tp_b=3JNQLM5FT58V7X9B2VUF60ADOTOL2M&c=365633&tp_c=365633"},{"rt":9968,"stimulus":"\n                <p>Student's guess for coin weight: <b style=\"color:Tomato;\">0.50</b></p>\n                <p></b></p>\n                <p>You will now send another set of examples to your student. <b>Remember to take your student's guess into consideration so that you can earn the highest bonus possible!</b> </p>\n                <p>Press any key to continue.</p>\n                ","response":" ","trial_type":"html-keyboard-response","trial_index":16,"time_elapsed":389857,"internal_node_id":"0.0-9.0","params":{"nStudents":24,"maxFlips":25,"completionMinutes":45,"basePay":8,"maxBonus":9,"perTrialBonus":0.5,"perTrialBonusThreshold":0.05,"exampleCost":0.02},"classroomParams":{"A":{"a":1,"b":4},"B":{"a":4,"b":1},"C":{"a":2,"b":8},"D":{"a":8,"b":2}},"conditions":["nonSeqFull","nonSeqPartial","seqNoFeedback","seqFeedback"],"classroomPairings":[["A","B"],["C","D"]],"coinWeights":[0.2,0.5,0.8],"subjectId":"A48WNR6C4CI3J","assignmentId":"3JNQLM5FT58V7X9B2VUF60ADOTOL2M","hitId":"39WICJI5ATE2BKO4UUUR86UGAV2Z3G","url":"https://gershmanlab.com/experiments/alicia/teaching/experiment/?hitId=39WICJI5ATE2BKO4UUUR86UGAV2Z3G&workerId=A48WNR6C4CI3J&assignmentId=3JNQLM5FT58V7X9B2VUF60ADOTOL2M&a=FLNJ3&tp_a=FLNJ3&b=3JNQLM5FT58V7X9B2VUF60ADOTOL2M&tp_b=3JNQLM5FT58V7X9B2VUF60ADOTOL2M&c=365633&tp_c=365633"},{"rt":8122,"response":{"heads":"4","tails":"20"},"type":"response","condition":"seqFeedback","trueTheta":0.2,"classrooms":["C","D"],"studentTrueClassroom":"D","exampleSet":"second","trial_type":"survey-html-form","trial_index":17,"time_elapsed":397983,"internal_node_id":"0.0-10.0-0.0","params":{"nStudents":24,"maxFlips":25,"completionMinutes":45,"basePay":8,"maxBonus":9,"perTrialBonus":0.5,"perTrialBonusThreshold":0.05,"exampleCost":0.02},"classroomParams":{"A":{"a":1,"b":4},"B":{"a":4,"b":1},"C":{"a":2,"b":8},"D":{"a":8,"b":2}},"conditions":["nonSeqFull","nonSeqPartial","seqNoFeedback","seqFeedback"],"classroomPairings":[["A","B"],["C","D"]],"coinWeights":[0.2,0.5,0.8],"subjectId":"A48WNR6C4CI3J","assignmentId":"3JNQLM5FT58V7X9B2VUF60ADOTOL2M","hitId":"39WICJI5ATE2BKO4UUUR86UGAV2Z3G","url":"https://gershmanlab.com/experiments/alicia/teaching/experiment/?hitId=39WICJI5ATE2BKO4UUUR86UGAV2Z3G&workerId=A48WNR6C4CI3J&assignmentId=3JNQLM5FT58V7X9B2VUF60ADOTOL2M&a=FLNJ3&tp_a=FLNJ3&b=3JNQLM5FT58V7X9B2VUF60ADOTOL2M&tp_b=3JNQLM5FT58V7X9B2VUF60ADOTOL2M&c=365633&tp_c=365633","firstResponseHeads":2,"firstResponseTails":8,"secondResponseHeads":4,"secondResponseTails":20,"totalHeads":6,"totalTails":28,"studentIndex":0,"studentTrueHypers":{"a":8,"b":2},"studentGuess":0.3181818181818182,"delta":0.11818181818181817,"bonus":0,"bonusSoFar":0,"totalExamples":34},{"rt":null,"stimulus":"Sending examples to student... ","response":null,"trial_type":"html-keyboard-response","trial_index":18,"time_elapsed":399236,"internal_node_id":"0.0-11.0","params":{"nStudents":24,"maxFlips":25,"completionMinutes":45,"basePay":8,"maxBonus":9,"perTrialBonus":0.5,"perTrialBonusThreshold":0.05,"exampleCost":0.02},"classroomParams":{"A":{"a":1,"b":4},"B":{"a":4,"b":1},"C":{"a":2,"b":8},"D":{"a":8,"b":2}},"conditions":["nonSeqFull","nonSeqPartial","seqNoFeedback","seqFeedback"],"classroomPairings":[["A","B"],["C","D"]],"coinWeights":[0.2,0.5,0.8],"subjectId":"A48WNR6C4CI3J","assignmentId":"3JNQLM5FT58V7X9B2VUF60ADOTOL2M","hitId":"39WICJI5ATE2BKO4UUUR86UGAV2Z3G","url":"https://gershmanlab.com/experiments/alicia/teaching/experiment/?hitId=39WICJI5ATE2BKO4UUUR86UGAV2Z3G&workerId=A48WNR6C4CI3J&assignmentId=3JNQLM5FT58V7X9B2VUF60ADOTOL2M&a=FLNJ3&tp_a=FLNJ3&b=3JNQLM5FT58V7X9B2VUF60ADOTOL2M&tp_b=3JNQLM5FT58V7X9B2VUF60ADOTOL2M&c=365633&tp_c=365633"},{"rt":null,"stimulus":"Examples sent to student! Waiting for student...","response":null,"trial_type":"html-keyboard-response","trial_index":19,"time_elapsed":403238,"internal_node_id":"0.0-12.0","params":{"nStudents":24,"maxFlips":25,"completionMinutes":45,"basePay":8,"maxBonus":9,"perTrialBonus":0.5,"perTrialBonusThreshold":0.05,"exampleCost":0.02},"classroomParams":{"A":{"a":1,"b":4},"B":{"a":4,"b":1},"C":{"a":2,"b":8},"D":{"a":8,"b":2}},"conditions":["nonSeqFull","nonSeqPartial","seqNoFeedback","seqFeedback"],"classroomPairings":[["A","B"],["C","D"]],"coinWeights":[0.2,0.5,0.8],"subjectId":"A48WNR6C4CI3J","assignmentId":"3JNQLM5FT58V7X9B2VUF60ADOTOL2M","hitId":"39WICJI5ATE2BKO4UUUR86UGAV2Z3G","url":"https://gershmanlab.com/experiments/alicia/teaching/experiment/?hitId=39WICJI5ATE2BKO4UUUR86UGAV2Z3G&workerId=A48WNR6C4CI3J&assignmentId=3JNQLM5FT58V7X9B2VUF60ADOTOL2M&a=FLNJ3&tp_a=FLNJ3&b=3JNQLM5FT58V7X9B2VUF60ADOTOL2M&tp_b=3JNQLM5FT58V7X9B2VUF60ADOTOL2M&c=365633&tp_c=365633"},{"rt":6249,"stimulus":"\n                <p>Student 1's first guess for coin weight: <b style=\"color:Tomato\";>0.50</b></p>\n                <p>Student 1's second guess for coin weight: <b style=\"color:Tomato\";>0.32</b></p>\n                <p>You received a bonus of <b>$0.00</b> based on the student's second guess.</p>\n                <p>Total bonus so far: <b>$0.00</b></p>\n                <p>Press any key to continue.</p>\n                ","response":" ","trial_type":"html-keyboard-response","trial_index":20,"time_elapsed":409490,"internal_node_id":"0.0-13.0","params":{"nStudents":24,"maxFlips":25,"completionMinutes":45,"basePay":8,"maxBonus":9,"perTrialBonus":0.5,"perTrialBonusThreshold":0.05,"exampleCost":0.02},"classroomParams":{"A":{"a":1,"b":4},"B":{"a":4,"b":1},"C":{"a":2,"b":8},"D":{"a":8,"b":2}},"conditions":["nonSeqFull","nonSeqPartial","seqNoFeedback","seqFeedback"],"classroomPairings":[["A","B"],["C","D"]],"coinWeights":[0.2,0.5,0.8],"subjectId":"A48WNR6C4CI3J","assignmentId":"3JNQLM5FT58V7X9B2VUF60ADOTOL2M","hitId":"39WICJI5ATE2BKO4UUUR86UGAV2Z3G","url":"https://gershmanlab.com/experiments/alicia/teaching/experiment/?hitId=39WICJI5ATE2BKO4UUUR86UGAV2Z3G&workerId=A48WNR6C4CI3J&assignmentId=3JNQLM5FT58V7X9B2VUF60ADOTOL2M&a=FLNJ3&tp_a=FLNJ3&b=3JNQLM5FT58V7X9B2VUF60ADOTOL2M&tp_b=3JNQLM5FT58V7X9B2VUF60ADOTOL2M&c=365633&tp_c=365633"},{"rt":null,"stimulus":"<div style=\"font-size:60px;\">Next student</div>","response":null,"trial_type":"html-keyboard-response","trial_index":21,"time_elapsed":411492,"internal_node_id":"0.0-14.0-0.0","params":{"nStudents":24,"maxFlips":25,"completionMinutes":45,"basePay":8,"maxBonus":9,"perTrialBonus":0.5,"perTrialBonusThreshold":0.05,"exampleCost":0.02},"classroomParams":{"A":{"a":1,"b":4},"B":{"a":4,"b":1},"C":{"a":2,"b":8},"D":{"a":8,"b":2}},"conditions":["nonSeqFull","nonSeqPartial","seqNoFeedback","seqFeedback"],"classroomPairings":[["A","B"],["C","D"]],"coinWeights":[0.2,0.5,0.8],"subjectId":"A48WNR6C4CI3J","assignmentId":"3JNQLM5FT58V7X9B2VUF60ADOTOL2M","hitId":"39WICJI5ATE2BKO4UUUR86UGAV2Z3G","url":"https://gershmanlab.com/experiments/alicia/teaching/experiment/?hitId=39WICJI5ATE2BKO4UUUR86UGAV2Z3G&workerId=A48WNR6C4CI3J&assignmentId=3JNQLM5FT58V7X9B2VUF60ADOTOL2M&a=FLNJ3&tp_a=FLNJ3&b=3JNQLM5FT58V7X9B2VUF60ADOTOL2M&tp_b=3JNQLM5FT58V7X9B2VUF60ADOTOL2M&c=365633&tp_c=365633"},{"rt":3414,"stimulus":"\n            <h4 style=\"color:Orange;\">Student 2</h4>\n            <h2>The weight of your coin is <b style=\"color:Tomato;\">0.5</b>.</h2>\n            <p>In this block, you will be giving <b>two</b> sets of examples to Student 2.</p>\n                <p>You will receive feedback at the end of the block.</p>\n            <p></p>","response":0,"trial_type":"html-button-response","trial_index":22,"time_elapsed":414910,"internal_node_id":"0.0-15.0","params":{"nStudents":24,"maxFlips":25,"completionMinutes":45,"basePay":8,"maxBonus":9,"perTrialBonus":0.5,"perTrialBonusThreshold":0.05,"exampleCost":0.02},"classroomParams":{"A":{"a":1,"b":4},"B":{"a":4,"b":1},"C":{"a":2,"b":8},"D":{"a":8,"b":2}},"conditions":["nonSeqFull","nonSeqPartial","seqNoFeedback","seqFeedback"],"classroomPairings":[["A","B"],["C","D"]],"coinWeights":[0.2,0.5,0.8],"subjectId":"A48WNR6C4CI3J","assignmentId":"3JNQLM5FT58V7X9B2VUF60ADOTOL2M","hitId":"39WICJI5ATE2BKO4UUUR86UGAV2Z3G","url":"https://gershmanlab.com/experiments/alicia/teaching/experiment/?hitId=39WICJI5ATE2BKO4UUUR86UGAV2Z3G&workerId=A48WNR6C4CI3J&assignmentId=3JNQLM5FT58V7X9B2VUF60ADOTOL2M&a=FLNJ3&tp_a=FLNJ3&b=3JNQLM5FT58V7X9B2VUF60ADOTOL2M&tp_b=3JNQLM5FT58V7X9B2VUF60ADOTOL2M&c=365633&tp_c=365633"},{"rt":13682,"response":{"heads":"10","tails":"10"},"type":"response","condition":"seqNoFeedback","trueTheta":0.5,"classrooms":["C","D"],"studentTrueClassroom":"D","exampleSet":"first","trial_type":"survey-html-form","trial_index":23,"time_elapsed":428595,"internal_node_id":"0.0-16.0-0.0","params":{"nStudents":24,"maxFlips":25,"completionMinutes":45,"basePay":8,"maxBonus":9,"perTrialBonus":0.5,"perTrialBonusThreshold":0.05,"exampleCost":0.02},"classroomParams":{"A":{"a":1,"b":4},"B":{"a":4,"b":1},"C":{"a":2,"b":8},"D":{"a":8,"b":2}},"conditions":["nonSeqFull","nonSeqPartial","seqNoFeedback","seqFeedback"],"classroomPairings":[["A","B"],["C","D"]],"coinWeights":[0.2,0.5,0.8],"subjectId":"A48WNR6C4CI3J","assignmentId":"3JNQLM5FT58V7X9B2VUF60ADOTOL2M","hitId":"39WICJI5ATE2BKO4UUUR86UGAV2Z3G","url":"https://gershmanlab.com/experiments/alicia/teaching/experiment/?hitId=39WICJI5ATE2BKO4UUUR86UGAV2Z3G&workerId=A48WNR6C4CI3J&assignmentId=3JNQLM5FT58V7X9B2VUF60ADOTOL2M&a=FLNJ3&tp_a=FLNJ3&b=3JNQLM5FT58V7X9B2VUF60ADOTOL2M&tp_b=3JNQLM5FT58V7X9B2VUF60ADOTOL2M&c=365633&tp_c=365633","heads":10,"tails":10,"studentIndex":1,"studentTrueHypers":{"a":8,"b":2},"studentGuess":0.6,"delta":0.09999999999999998,"totalExamples":20,"bonusSoFar":0},{"rt":null,"stimulus":"Sending examples to student... ","response":null,"trial_type":"html-keyboard-response","trial_index":24,"time_elapsed":429848,"internal_node_id":"0.0-17.0","params":{"nStudents":24,"maxFlips":25,"completionMinutes":45,"basePay":8,"maxBonus":9,"perTrialBonus":0.5,"perTrialBonusThreshold":0.05,"exampleCost":0.02},"classroomParams":{"A":{"a":1,"b":4},"B":{"a":4,"b":1},"C":{"a":2,"b":8},"D":{"a":8,"b":2}},"conditions":["nonSeqFull","nonSeqPartial","seqNoFeedback","seqFeedback"],"classroomPairings":[["A","B"],["C","D"]],"coinWeights":[0.2,0.5,0.8],"subjectId":"A48WNR6C4CI3J","assignmentId":"3JNQLM5FT58V7X9B2VUF60ADOTOL2M","hitId":"39WICJI5ATE2BKO4UUUR86UGAV2Z3G","url":"https://gershmanlab.com/experiments/alicia/teaching/experiment/?hitId=39WICJI5ATE2BKO4UUUR86UGAV2Z3G&workerId=A48WNR6C4CI3J&assignmentId=3JNQLM5FT58V7X9B2VUF60ADOTOL2M&a=FLNJ3&tp_a=FLNJ3&b=3JNQLM5FT58V7X9B2VUF60ADOTOL2M&tp_b=3JNQLM5FT58V7X9B2VUF60ADOTOL2M&c=365633&tp_c=365633"},{"rt":null,"stimulus":"Examples sent to student! Waiting for student...","response":null,"trial_type":"html-keyboard-response","trial_index":25,"time_elapsed":433850,"internal_node_id":"0.0-18.0","params":{"nStudents":24,"maxFlips":25,"completionMinutes":45,"basePay":8,"maxBonus":9,"perTrialBonus":0.5,"perTrialBonusThreshold":0.05,"exampleCost":0.02},"classroomParams":{"A":{"a":1,"b":4},"B":{"a":4,"b":1},"C":{"a":2,"b":8},"D":{"a":8,"b":2}},"conditions":["nonSeqFull","nonSeqPartial","seqNoFeedback","seqFeedback"],"classroomPairings":[["A","B"],["C","D"]],"coinWeights":[0.2,0.5,0.8],"subjectId":"A48WNR6C4CI3J","assignmentId":"3JNQLM5FT58V7X9B2VUF60ADOTOL2M","hitId":"39WICJI5ATE2BKO4UUUR86UGAV2Z3G","url":"https://gershmanlab.com/experiments/alicia/teaching/experiment/?hitId=39WICJI5ATE2BKO4UUUR86UGAV2Z3G&workerId=A48WNR6C4CI3J&assignmentId=3JNQLM5FT58V7X9B2VUF60ADOTOL2M&a=FLNJ3&tp_a=FLNJ3&b=3JNQLM5FT58V7X9B2VUF60ADOTOL2M&tp_b=3JNQLM5FT58V7X9B2VUF60ADOTOL2M&c=365633&tp_c=365633"},{"rt":17341,"response":{"heads":"10","tails":"10"},"type":"response","condition":"seqNoFeedback","trueTheta":0.5,"classrooms":["C","D"],"studentTrueClassroom":"D","exampleSet":"second","trial_type":"survey-html-form","trial_index":26,"time_elapsed":451194,"internal_node_id":"0.0-19.0-0.0","params":{"nStudents":24,"maxFlips":25,"completionMinutes":45,"basePay":8,"maxBonus":9,"perTrialBonus":0.5,"perTrialBonusThreshold":0.05,"exampleCost":0.02},"classroomParams":{"A":{"a":1,"b":4},"B":{"a":4,"b":1},"C":{"a":2,"b":8},"D":{"a":8,"b":2}},"conditions":["nonSeqFull","nonSeqPartial","seqNoFeedback","seqFeedback"],"classroomPairings":[["A","B"],["C","D"]],"coinWeights":[0.2,0.5,0.8],"subjectId":"A48WNR6C4CI3J","assignmentId":"3JNQLM5FT58V7X9B2VUF60ADOTOL2M","hitId":"39WICJI5ATE2BKO4UUUR86UGAV2Z3G","url":"https://gershmanlab.com/experiments/alicia/teaching/experiment/?hitId=39WICJI5ATE2BKO4UUUR86UGAV2Z3G&workerId=A48WNR6C4CI3J&assignmentId=3JNQLM5FT58V7X9B2VUF60ADOTOL2M&a=FLNJ3&tp_a=FLNJ3&b=3JNQLM5FT58V7X9B2VUF60ADOTOL2M&tp_b=3JNQLM5FT58V7X9B2VUF60ADOTOL2M&c=365633&tp_c=365633","firstResponseHeads":10,"firstResponseTails":10,"secondResponseHeads":10,"secondResponseTails":10,"totalHeads":20,"totalTails":20,"studentIndex":1,"studentTrueHypers":{"a":8,"b":2},"studentGuess":0.56,"delta":0.06000000000000005,"bonus":0,"bonusSoFar":0,"totalExamples":40},{"rt":null,"stimulus":"Sending examples to student... ","response":null,"trial_type":"html-keyboard-response","trial_index":27,"time_elapsed":452697,"internal_node_id":"0.0-20.0","params":{"nStudents":24,"maxFlips":25,"completionMinutes":45,"basePay":8,"maxBonus":9,"perTrialBonus":0.5,"perTrialBonusThreshold":0.05,"exampleCost":0.02},"classroomParams":{"A":{"a":1,"b":4},"B":{"a":4,"b":1},"C":{"a":2,"b":8},"D":{"a":8,"b":2}},"conditions":["nonSeqFull","nonSeqPartial","seqNoFeedback","seqFeedback"],"classroomPairings":[["A","B"],["C","D"]],"coinWeights":[0.2,0.5,0.8],"subjectId":"A48WNR6C4CI3J","assignmentId":"3JNQLM5FT58V7X9B2VUF60ADOTOL2M","hitId":"39WICJI5ATE2BKO4UUUR86UGAV2Z3G","url":"https://gershmanlab.com/experiments/alicia/teaching/experiment/?hitId=39WICJI5ATE2BKO4UUUR86UGAV2Z3G&workerId=A48WNR6C4CI3J&assignmentId=3JNQLM5FT58V7X9B2VUF60ADOTOL2M&a=FLNJ3&tp_a=FLNJ3&b=3JNQLM5FT58V7X9B2VUF60ADOTOL2M&tp_b=3JNQLM5FT58V7X9B2VUF60ADOTOL2M&c=365633&tp_c=365633"},{"rt":null,"stimulus":"Examples sent to student! Waiting for student...","response":null,"trial_type":"html-keyboard-response","trial_index":28,"time_elapsed":456700,"internal_node_id":"0.0-21.0","params":{"nStudents":24,"maxFlips":25,"completionMinutes":45,"basePay":8,"maxBonus":9,"perTrialBonus":0.5,"perTrialBonusThreshold":0.05,"exampleCost":0.02},"classroomParams":{"A":{"a":1,"b":4},"B":{"a":4,"b":1},"C":{"a":2,"b":8},"D":{"a":8,"b":2}},"conditions":["nonSeqFull","nonSeqPartial","seqNoFeedback","seqFeedback"],"classroomPairings":[["A","B"],["C","D"]],"coinWeights":[0.2,0.5,0.8],"subjectId":"A48WNR6C4CI3J","assignmentId":"3JNQLM5FT58V7X9B2VUF60ADOTOL2M","hitId":"39WICJI5ATE2BKO4UUUR86UGAV2Z3G","url":"https://gershmanlab.com/experiments/alicia/teaching/experiment/?hitId=39WICJI5ATE2BKO4UUUR86UGAV2Z3G&workerId=A48WNR6C4CI3J&assignmentId=3JNQLM5FT58V7X9B2VUF60ADOTOL2M&a=FLNJ3&tp_a=FLNJ3&b=3JNQLM5FT58V7X9B2VUF60ADOTOL2M&tp_b=3JNQLM5FT58V7X9B2VUF60ADOTOL2M&c=365633&tp_c=365633"},{"rt":8132,"stimulus":"\n                <p>Student 2's first guess for coin weight: <b style=\"color:Tomato\";>0.60</b></p>\n                <p>Student 2's second guess for coin weight: <b style=\"color:Tomato\";>0.56</b></p>\n                <p>You received a bonus of <b>$0.00</b> based on the student's second guess.</p>\n                <p>Total bonus so far: <b>$0.00</b></p>\n                <p>Press any key to continue.</p>\n                ","response":" ","trial_type":"html-keyboard-response","trial_index":29,"time_elapsed":464834,"internal_node_id":"0.0-22.0","params":{"nStudents":24,"maxFlips":25,"completionMinutes":45,"basePay":8,"maxBonus":9,"perTrialBonus":0.5,"perTrialBonusThreshold":0.05,"exampleCost":0.02},"classroomParams":{"A":{"a":1,"b":4},"B":{"a":4,"b":1},"C":{"a":2,"b":8},"D":{"a":8,"b":2}},"conditions":["nonSeqFull","nonSeqPartial","seqNoFeedback","seqFeedback"],"classroomPairings":[["A","B"],["C","D"]],"coinWeights":[0.2,0.5,0.8],"subjectId":"A48WNR6C4CI3J","assignmentId":"3JNQLM5FT58V7X9B2VUF60ADOTOL2M","hitId":"39WICJI5ATE2BKO4UUUR86UGAV2Z3G","url":"https://gershmanlab.com/experiments/alicia/teaching/experiment/?hitId=39WICJI5ATE2BKO4UUUR86UGAV2Z3G&workerId=A48WNR6C4CI3J&assignmentId=3JNQLM5FT58V7X9B2VUF60ADOTOL2M&a=FLNJ3&tp_a=FLNJ3&b=3JNQLM5FT58V7X9B2VUF60ADOTOL2M&tp_b=3JNQLM5FT58V7X9B2VUF60ADOTOL2M&c=365633&tp_c=365633"},{"rt":null,"stimulus":"<div style=\"font-size:60px;\">Next student</div>","response":null,"trial_type":"html-keyboard-response","trial_index":30,"time_elapsed":467837,"internal_node_id":"0.0-23.0-0.0","params":{"nStudents":24,"maxFlips":25,"completionMinutes":45,"basePay":8,"maxBonus":9,"perTrialBonus":0.5,"perTrialBonusThreshold":0.05,"exampleCost":0.02},"classroomParams":{"A":{"a":1,"b":4},"B":{"a":4,"b":1},"C":{"a":2,"b":8},"D":{"a":8,"b":2}},"conditions":["nonSeqFull","nonSeqPartial","seqNoFeedback","seqFeedback"],"classroomPairings":[["A","B"],["C","D"]],"coinWeights":[0.2,0.5,0.8],"subjectId":"A48WNR6C4CI3J","assignmentId":"3JNQLM5FT58V7X9B2VUF60ADOTOL2M","hitId":"39WICJI5ATE2BKO4UUUR86UGAV2Z3G","url":"https://gershmanlab.com/experiments/alicia/teaching/experiment/?hitId=39WICJI5ATE2BKO4UUUR86UGAV2Z3G&workerId=A48WNR6C4CI3J&assignmentId=3JNQLM5FT58V7X9B2VUF60ADOTOL2M&a=FLNJ3&tp_a=FLNJ3&b=3JNQLM5FT58V7X9B2VUF60ADOTOL2M&tp_b=3JNQLM5FT58V7X9B2VUF60ADOTOL2M&c=365633&tp_c=365633"},{"rt":7756,"stimulus":"\n            <h4 style=\"color:Orange;\">Student 3</h4>\n            <h2>The weight of your coin is <b style=\"color:Tomato;\">0.8</b>.</h2>\n            <p>In this block, you will be giving <b>one</b> set of examples to Student 3.</p>\n                <p>You will receive feedback at the end of the block.</p>\n            <p></p>","response":0,"trial_type":"html-button-response","trial_index":31,"time_elapsed":475596,"internal_node_id":"0.0-24.0","params":{"nStudents":24,"maxFlips":25,"completionMinutes":45,"basePay":8,"maxBonus":9,"perTrialBonus":0.5,"perTrialBonusThreshold":0.05,"exampleCost":0.02},"classroomParams":{"A":{"a":1,"b":4},"B":{"a":4,"b":1},"C":{"a":2,"b":8},"D":{"a":8,"b":2}},"conditions":["nonSeqFull","nonSeqPartial","seqNoFeedback","seqFeedback"],"classroomPairings":[["A","B"],["C","D"]],"coinWeights":[0.2,0.5,0.8],"subjectId":"A48WNR6C4CI3J","assignmentId":"3JNQLM5FT58V7X9B2VUF60ADOTOL2M","hitId":"39WICJI5ATE2BKO4UUUR86UGAV2Z3G","url":"https://gershmanlab.com/experiments/alicia/teaching/experiment/?hitId=39WICJI5ATE2BKO4UUUR86UGAV2Z3G&workerId=A48WNR6C4CI3J&assignmentId=3JNQLM5FT58V7X9B2VUF60ADOTOL2M&a=FLNJ3&tp_a=FLNJ3&b=3JNQLM5FT58V7X9B2VUF60ADOTOL2M&tp_b=3JNQLM5FT58V7X9B2VUF60ADOTOL2M&c=365633&tp_c=365633"},{"rt":21456,"response":{"heads":"18","tails":"3"},"type":"response","condition":"nonSeqFull","trueTheta":0.8,"classrooms":["C","D"],"studentTrueClassroom":"C","exampleSet":"first","trial_type":"survey-html-form","trial_index":32,"time_elapsed":497054,"internal_node_id":"0.0-25.0-0.0","params":{"nStudents":24,"maxFlips":25,"completionMinutes":45,"basePay":8,"maxBonus":9,"perTrialBonus":0.5,"perTrialBonusThreshold":0.05,"exampleCost":0.02},"classroomParams":{"A":{"a":1,"b":4},"B":{"a":4,"b":1},"C":{"a":2,"b":8},"D":{"a":8,"b":2}},"conditions":["nonSeqFull","nonSeqPartial","seqNoFeedback","seqFeedback"],"classroomPairings":[["A","B"],["C","D"]],"coinWeights":[0.2,0.5,0.8],"subjectId":"A48WNR6C4CI3J","assignmentId":"3JNQLM5FT58V7X9B2VUF60ADOTOL2M","hitId":"39WICJI5ATE2BKO4UUUR86UGAV2Z3G","url":"https://gershmanlab.com/experiments/alicia/teaching/experiment/?hitId=39WICJI5ATE2BKO4UUUR86UGAV2Z3G&workerId=A48WNR6C4CI3J&assignmentId=3JNQLM5FT58V7X9B2VUF60ADOTOL2M&a=FLNJ3&tp_a=FLNJ3&b=3JNQLM5FT58V7X9B2VUF60ADOTOL2M&tp_b=3JNQLM5FT58V7X9B2VUF60ADOTOL2M&c=365633&tp_c=365633","heads":18,"tails":3,"studentIndex":2,"studentTrueHypers":{"a":2,"b":8},"studentGuess":0.6451612903225806,"delta":0.15483870967741942,"totalExamples":21,"bonus":0,"bonusSoFar":0},{"rt":null,"stimulus":"Sending examples to student... ","response":null,"trial_type":"html-keyboard-response","trial_index":33,"time_elapsed":498806,"internal_node_id":"0.0-26.0","params":{"nStudents":24,"maxFlips":25,"completionMinutes":45,"basePay":8,"maxBonus":9,"perTrialBonus":0.5,"perTrialBonusThreshold":0.05,"exampleCost":0.02},"classroomParams":{"A":{"a":1,"b":4},"B":{"a":4,"b":1},"C":{"a":2,"b":8},"D":{"a":8,"b":2}},"conditions":["nonSeqFull","nonSeqPartial","seqNoFeedback","seqFeedback"],"classroomPairings":[["A","B"],["C","D"]],"coinWeights":[0.2,0.5,0.8],"subjectId":"A48WNR6C4CI3J","assignmentId":"3JNQLM5FT58V7X9B2VUF60ADOTOL2M","hitId":"39WICJI5ATE2BKO4UUUR86UGAV2Z3G","url":"https://gershmanlab.com/experiments/alicia/teaching/experiment/?hitId=39WICJI5ATE2BKO4UUUR86UGAV2Z3G&workerId=A48WNR6C4CI3J&assignmentId=3JNQLM5FT58V7X9B2VUF60ADOTOL2M&a=FLNJ3&tp_a=FLNJ3&b=3JNQLM5FT58V7X9B2VUF60ADOTOL2M&tp_b=3JNQLM5FT58V7X9B2VUF60ADOTOL2M&c=365633&tp_c=365633"},{"rt":null,"stimulus":"Examples sent to student! Waiting for student...","response":null,"trial_type":"html-keyboard-response","trial_index":34,"time_elapsed":502808,"internal_node_id":"0.0-27.0","params":{"nStudents":24,"maxFlips":25,"completionMinutes":45,"basePay":8,"maxBonus":9,"perTrialBonus":0.5,"perTrialBonusThreshold":0.05,"exampleCost":0.02},"classroomParams":{"A":{"a":1,"b":4},"B":{"a":4,"b":1},"C":{"a":2,"b":8},"D":{"a":8,"b":2}},"conditions":["nonSeqFull","nonSeqPartial","seqNoFeedback","seqFeedback"],"classroomPairings":[["A","B"],["C","D"]],"coinWeights":[0.2,0.5,0.8],"subjectId":"A48WNR6C4CI3J","assignmentId":"3JNQLM5FT58V7X9B2VUF60ADOTOL2M","hitId":"39WICJI5ATE2BKO4UUUR86UGAV2Z3G","url":"https://gershmanlab.com/experiments/alicia/teaching/experiment/?hitId=39WICJI5ATE2BKO4UUUR86UGAV2Z3G&workerId=A48WNR6C4CI3J&assignmentId=3JNQLM5FT58V7X9B2VUF60ADOTOL2M&a=FLNJ3&tp_a=FLNJ3&b=3JNQLM5FT58V7X9B2VUF60ADOTOL2M&tp_b=3JNQLM5FT58V7X9B2VUF60ADOTOL2M&c=365633&tp_c=365633"},{"rt":6395,"stimulus":"\n                <p>Student's guess for coin weight: <b style=\"color:Tomato;\">0.65</b></p>\n                <p>You received a bonus of <b>$0</b>. Total bonus so far: <b>$0.00</b></b></p>\n                <p></p>\n                <p>Press any key to continue.</p>\n                ","response":" ","trial_type":"html-keyboard-response","trial_index":35,"time_elapsed":509205,"internal_node_id":"0.0-28.0","params":{"nStudents":24,"maxFlips":25,"completionMinutes":45,"basePay":8,"maxBonus":9,"perTrialBonus":0.5,"perTrialBonusThreshold":0.05,"exampleCost":0.02},"classroomParams":{"A":{"a":1,"b":4},"B":{"a":4,"b":1},"C":{"a":2,"b":8},"D":{"a":8,"b":2}},"conditions":["nonSeqFull","nonSeqPartial","seqNoFeedback","seqFeedback"],"classroomPairings":[["A","B"],["C","D"]],"coinWeights":[0.2,0.5,0.8],"subjectId":"A48WNR6C4CI3J","assignmentId":"3JNQLM5FT58V7X9B2VUF60ADOTOL2M","hitId":"39WICJI5ATE2BKO4UUUR86UGAV2Z3G","url":"https://gershmanlab.com/experiments/alicia/teaching/experiment/?hitId=39WICJI5ATE2BKO4UUUR86UGAV2Z3G&workerId=A48WNR6C4CI3J&assignmentId=3JNQLM5FT58V7X9B2VUF60ADOTOL2M&a=FLNJ3&tp_a=FLNJ3&b=3JNQLM5FT58V7X9B2VUF60ADOTOL2M&tp_b=3JNQLM5FT58V7X9B2VUF60ADOTOL2M&c=365633&tp_c=365633"},{"rt":null,"stimulus":"<div style=\"font-size:60px;\">Next student</div>","response":null,"trial_type":"html-keyboard-response","trial_index":36,"time_elapsed":511206,"internal_node_id":"0.0-29.0-0.0","params":{"nStudents":24,"maxFlips":25,"completionMinutes":45,"basePay":8,"maxBonus":9,"perTrialBonus":0.5,"perTrialBonusThreshold":0.05,"exampleCost":0.02},"classroomParams":{"A":{"a":1,"b":4},"B":{"a":4,"b":1},"C":{"a":2,"b":8},"D":{"a":8,"b":2}},"conditions":["nonSeqFull","nonSeqPartial","seqNoFeedback","seqFeedback"],"classroomPairings":[["A","B"],["C","D"]],"coinWeights":[0.2,0.5,0.8],"subjectId":"A48WNR6C4CI3J","assignmentId":"3JNQLM5FT58V7X9B2VUF60ADOTOL2M","hitId":"39WICJI5ATE2BKO4UUUR86UGAV2Z3G","url":"https://gershmanlab.com/experiments/alicia/teaching/experiment/?hitId=39WICJI5ATE2BKO4UUUR86UGAV2Z3G&workerId=A48WNR6C4CI3J&assignmentId=3JNQLM5FT58V7X9B2VUF60ADOTOL2M&a=FLNJ3&tp_a=FLNJ3&b=3JNQLM5FT58V7X9B2VUF60ADOTOL2M&tp_b=3JNQLM5FT58V7X9B2VUF60ADOTOL2M&c=365633&tp_c=365633"},{"rt":2604,"stimulus":"\n            <h4 style=\"color:Orange;\">Student 4</h4>\n            <h2>The weight of your coin is <b style=\"color:Tomato;\">0.8</b>.</h2>\n            <p>In this block, you will be giving <b>two</b> sets of examples to Student 4.</p>\n                <p>You will see the student's guess after the first set of examples. You will also receive feedback at the end of the block.</p>\n            <p>To earn the highest bonus, you will have to <b>take into consideration the student's guess</b> when you choose your second set of examples.</p>","response":0,"trial_type":"html-button-response","trial_index":37,"time_elapsed":513813,"internal_node_id":"0.0-30.0","params":{"nStudents":24,"maxFlips":25,"completionMinutes":45,"basePay":8,"maxBonus":9,"perTrialBonus":0.5,"perTrialBonusThreshold":0.05,"exampleCost":0.02},"classroomParams":{"A":{"a":1,"b":4},"B":{"a":4,"b":1},"C":{"a":2,"b":8},"D":{"a":8,"b":2}},"conditions":["nonSeqFull","nonSeqPartial","seqNoFeedback","seqFeedback"],"classroomPairings":[["A","B"],["C","D"]],"coinWeights":[0.2,0.5,0.8],"subjectId":"A48WNR6C4CI3J","assignmentId":"3JNQLM5FT58V7X9B2VUF60ADOTOL2M","hitId":"39WICJI5ATE2BKO4UUUR86UGAV2Z3G","url":"https://gershmanlab.com/experiments/alicia/teaching/experiment/?hitId=39WICJI5ATE2BKO4UUUR86UGAV2Z3G&workerId=A48WNR6C4CI3J&assignmentId=3JNQLM5FT58V7X9B2VUF60ADOTOL2M&a=FLNJ3&tp_a=FLNJ3&b=3JNQLM5FT58V7X9B2VUF60ADOTOL2M&tp_b=3JNQLM5FT58V7X9B2VUF60ADOTOL2M&c=365633&tp_c=365633"},{"rt":23777,"response":{"heads":"4","tails":"1"},"type":"response","condition":"seqFeedback","trueTheta":0.8,"classrooms":["A","B"],"studentTrueClassroom":"A","exampleSet":"first","trial_type":"survey-html-form","trial_index":38,"time_elapsed":537594,"internal_node_id":"0.0-31.0-0.0","params":{"nStudents":24,"maxFlips":25,"completionMinutes":45,"basePay":8,"maxBonus":9,"perTrialBonus":0.5,"perTrialBonusThreshold":0.05,"exampleCost":0.02},"classroomParams":{"A":{"a":1,"b":4},"B":{"a":4,"b":1},"C":{"a":2,"b":8},"D":{"a":8,"b":2}},"conditions":["nonSeqFull","nonSeqPartial","seqNoFeedback","seqFeedback"],"classroomPairings":[["A","B"],["C","D"]],"coinWeights":[0.2,0.5,0.8],"subjectId":"A48WNR6C4CI3J","assignmentId":"3JNQLM5FT58V7X9B2VUF60ADOTOL2M","hitId":"39WICJI5ATE2BKO4UUUR86UGAV2Z3G","url":"https://gershmanlab.com/experiments/alicia/teaching/experiment/?hitId=39WICJI5ATE2BKO4UUUR86UGAV2Z3G&workerId=A48WNR6C4CI3J&assignmentId=3JNQLM5FT58V7X9B2VUF60ADOTOL2M&a=FLNJ3&tp_a=FLNJ3&b=3JNQLM5FT58V7X9B2VUF60ADOTOL2M&tp_b=3JNQLM5FT58V7X9B2VUF60ADOTOL2M&c=365633&tp_c=365633","heads":4,"tails":1,"studentIndex":3,"studentTrueHypers":{"a":1,"b":4},"studentGuess":0.5,"delta":0.30000000000000004,"totalExamples":5,"bonusSoFar":0},{"rt":null,"stimulus":"Sending examples to student... ","response":null,"trial_type":"html-keyboard-response","trial_index":39,"time_elapsed":539097,"internal_node_id":"0.0-32.0","params":{"nStudents":24,"maxFlips":25,"completionMinutes":45,"basePay":8,"maxBonus":9,"perTrialBonus":0.5,"perTrialBonusThreshold":0.05,"exampleCost":0.02},"classroomParams":{"A":{"a":1,"b":4},"B":{"a":4,"b":1},"C":{"a":2,"b":8},"D":{"a":8,"b":2}},"conditions":["nonSeqFull","nonSeqPartial","seqNoFeedback","seqFeedback"],"classroomPairings":[["A","B"],["C","D"]],"coinWeights":[0.2,0.5,0.8],"subjectId":"A48WNR6C4CI3J","assignmentId":"3JNQLM5FT58V7X9B2VUF60ADOTOL2M","hitId":"39WICJI5ATE2BKO4UUUR86UGAV2Z3G","url":"https://gershmanlab.com/experiments/alicia/teaching/experiment/?hitId=39WICJI5ATE2BKO4UUUR86UGAV2Z3G&workerId=A48WNR6C4CI3J&assignmentId=3JNQLM5FT58V7X9B2VUF60ADOTOL2M&a=FLNJ3&tp_a=FLNJ3&b=3JNQLM5FT58V7X9B2VUF60ADOTOL2M&tp_b=3JNQLM5FT58V7X9B2VUF60ADOTOL2M&c=365633&tp_c=365633"},{"rt":null,"stimulus":"Examples sent to student! Waiting for student...","response":null,"trial_type":"html-keyboard-response","trial_index":40,"time_elapsed":544600,"internal_node_id":"0.0-33.0","params":{"nStudents":24,"maxFlips":25,"completionMinutes":45,"basePay":8,"maxBonus":9,"perTrialBonus":0.5,"perTrialBonusThreshold":0.05,"exampleCost":0.02},"classroomParams":{"A":{"a":1,"b":4},"B":{"a":4,"b":1},"C":{"a":2,"b":8},"D":{"a":8,"b":2}},"conditions":["nonSeqFull","nonSeqPartial","seqNoFeedback","seqFeedback"],"classroomPairings":[["A","B"],["C","D"]],"coinWeights":[0.2,0.5,0.8],"subjectId":"A48WNR6C4CI3J","assignmentId":"3JNQLM5FT58V7X9B2VUF60ADOTOL2M","hitId":"39WICJI5ATE2BKO4UUUR86UGAV2Z3G","url":"https://gershmanlab.com/experiments/alicia/teaching/experiment/?hitId=39WICJI5ATE2BKO4UUUR86UGAV2Z3G&workerId=A48WNR6C4CI3J&assignmentId=3JNQLM5FT58V7X9B2VUF60ADOTOL2M&a=FLNJ3&tp_a=FLNJ3&b=3JNQLM5FT58V7X9B2VUF60ADOTOL2M&tp_b=3JNQLM5FT58V7X9B2VUF60ADOTOL2M&c=365633&tp_c=365633"},{"rt":5712,"stimulus":"\n                <p>Student's guess for coin weight: <b style=\"color:Tomato;\">0.50</b></p>\n                <p></b></p>\n                <p>You will now send another set of examples to your student. <b>Remember to take your student's guess into consideration so that you can earn the highest bonus possible!</b> </p>\n                <p>Press any key to continue.</p>\n                ","response":" ","trial_type":"html-keyboard-response","trial_index":41,"time_elapsed":550314,"internal_node_id":"0.0-34.0","params":{"nStudents":24,"maxFlips":25,"completionMinutes":45,"basePay":8,"maxBonus":9,"perTrialBonus":0.5,"perTrialBonusThreshold":0.05,"exampleCost":0.02},"classroomParams":{"A":{"a":1,"b":4},"B":{"a":4,"b":1},"C":{"a":2,"b":8},"D":{"a":8,"b":2}},"conditions":["nonSeqFull","nonSeqPartial","seqNoFeedback","seqFeedback"],"classroomPairings":[["A","B"],["C","D"]],"coinWeights":[0.2,0.5,0.8],"subjectId":"A48WNR6C4CI3J","assignmentId":"3JNQLM5FT58V7X9B2VUF60ADOTOL2M","hitId":"39WICJI5ATE2BKO4UUUR86UGAV2Z3G","url":"https://gershmanlab.com/experiments/alicia/teaching/experiment/?hitId=39WICJI5ATE2BKO4UUUR86UGAV2Z3G&workerId=A48WNR6C4CI3J&assignmentId=3JNQLM5FT58V7X9B2VUF60ADOTOL2M&a=FLNJ3&tp_a=FLNJ3&b=3JNQLM5FT58V7X9B2VUF60ADOTOL2M&tp_b=3JNQLM5FT58V7X9B2VUF60ADOTOL2M&c=365633&tp_c=365633"},{"rt":13824,"response":{"heads":"8","tails":"2"},"type":"response","condition":"seqFeedback","trueTheta":0.8,"classrooms":["A","B"],"studentTrueClassroom":"A","exampleSet":"second","trial_type":"survey-html-form","trial_index":42,"time_elapsed":564141,"internal_node_id":"0.0-35.0-0.0","params":{"nStudents":24,"maxFlips":25,"completionMinutes":45,"basePay":8,"maxBonus":9,"perTrialBonus":0.5,"perTrialBonusThreshold":0.05,"exampleCost":0.02},"classroomParams":{"A":{"a":1,"b":4},"B":{"a":4,"b":1},"C":{"a":2,"b":8},"D":{"a":8,"b":2}},"conditions":["nonSeqFull","nonSeqPartial","seqNoFeedback","seqFeedback"],"classroomPairings":[["A","B"],["C","D"]],"coinWeights":[0.2,0.5,0.8],"subjectId":"A48WNR6C4CI3J","assignmentId":"3JNQLM5FT58V7X9B2VUF60ADOTOL2M","hitId":"39WICJI5ATE2BKO4UUUR86UGAV2Z3G","url":"https://gershmanlab.com/experiments/alicia/teaching/experiment/?hitId=39WICJI5ATE2BKO4UUUR86UGAV2Z3G&workerId=A48WNR6C4CI3J&assignmentId=3JNQLM5FT58V7X9B2VUF60ADOTOL2M&a=FLNJ3&tp_a=FLNJ3&b=3JNQLM5FT58V7X9B2VUF60ADOTOL2M&tp_b=3JNQLM5FT58V7X9B2VUF60ADOTOL2M&c=365633&tp_c=365633","firstResponseHeads":4,"firstResponseTails":1,"secondResponseHeads":8,"secondResponseTails":2,"totalHeads":12,"totalTails":3,"studentIndex":3,"studentTrueHypers":{"a":1,"b":4},"studentGuess":0.65,"delta":0.15000000000000002,"bonus":0,"bonusSoFar":0,"totalExamples":15},{"rt":null,"stimulus":"Sending examples to student... ","response":null,"trial_type":"html-keyboard-response","trial_index":43,"time_elapsed":565644,"internal_node_id":"0.0-36.0","params":{"nStudents":24,"maxFlips":25,"completionMinutes":45,"basePay":8,"maxBonus":9,"perTrialBonus":0.5,"perTrialBonusThreshold":0.05,"exampleCost":0.02},"classroomParams":{"A":{"a":1,"b":4},"B":{"a":4,"b":1},"C":{"a":2,"b":8},"D":{"a":8,"b":2}},"conditions":["nonSeqFull","nonSeqPartial","seqNoFeedback","seqFeedback"],"classroomPairings":[["A","B"],["C","D"]],"coinWeights":[0.2,0.5,0.8],"subjectId":"A48WNR6C4CI3J","assignmentId":"3JNQLM5FT58V7X9B2VUF60ADOTOL2M","hitId":"39WICJI5ATE2BKO4UUUR86UGAV2Z3G","url":"https://gershmanlab.com/experiments/alicia/teaching/experiment/?hitId=39WICJI5ATE2BKO4UUUR86UGAV2Z3G&workerId=A48WNR6C4CI3J&assignmentId=3JNQLM5FT58V7X9B2VUF60ADOTOL2M&a=FLNJ3&tp_a=FLNJ3&b=3JNQLM5FT58V7X9B2VUF60ADOTOL2M&tp_b=3JNQLM5FT58V7X9B2VUF60ADOTOL2M&c=365633&tp_c=365633"},{"rt":null,"stimulus":"Examples sent to student! Waiting for student...","response":null,"trial_type":"html-keyboard-response","trial_index":44,"time_elapsed":570146,"internal_node_id":"0.0-37.0","params":{"nStudents":24,"maxFlips":25,"completionMinutes":45,"basePay":8,"maxBonus":9,"perTrialBonus":0.5,"perTrialBonusThreshold":0.05,"exampleCost":0.02},"classroomParams":{"A":{"a":1,"b":4},"B":{"a":4,"b":1},"C":{"a":2,"b":8},"D":{"a":8,"b":2}},"conditions":["nonSeqFull","nonSeqPartial","seqNoFeedback","seqFeedback"],"classroomPairings":[["A","B"],["C","D"]],"coinWeights":[0.2,0.5,0.8],"subjectId":"A48WNR6C4CI3J","assignmentId":"3JNQLM5FT58V7X9B2VUF60ADOTOL2M","hitId":"39WICJI5ATE2BKO4UUUR86UGAV2Z3G","url":"https://gershmanlab.com/experiments/alicia/teaching/experiment/?hitId=39WICJI5ATE2BKO4UUUR86UGAV2Z3G&workerId=A48WNR6C4CI3J&assignmentId=3JNQLM5FT58V7X9B2VUF60ADOTOL2M&a=FLNJ3&tp_a=FLNJ3&b=3JNQLM5FT58V7X9B2VUF60ADOTOL2M&tp_b=3JNQLM5FT58V7X9B2VUF60ADOTOL2M&c=365633&tp_c=365633"},{"rt":3770,"stimulus":"\n                <p>Student 4's first guess for coin weight: <b style=\"color:Tomato\";>0.50</b></p>\n                <p>Student 4's second guess for coin weight: <b style=\"color:Tomato\";>0.65</b></p>\n                <p>You received a bonus of <b>$0.00</b> based on the student's second guess.</p>\n                <p>Total bonus so far: <b>$0.00</b></p>\n                <p>Press any key to continue.</p>\n                ","response":" ","trial_type":"html-keyboard-response","trial_index":45,"time_elapsed":573918,"internal_node_id":"0.0-38.0","params":{"nStudents":24,"maxFlips":25,"completionMinutes":45,"basePay":8,"maxBonus":9,"perTrialBonus":0.5,"perTrialBonusThreshold":0.05,"exampleCost":0.02},"classroomParams":{"A":{"a":1,"b":4},"B":{"a":4,"b":1},"C":{"a":2,"b":8},"D":{"a":8,"b":2}},"conditions":["nonSeqFull","nonSeqPartial","seqNoFeedback","seqFeedback"],"classroomPairings":[["A","B"],["C","D"]],"coinWeights":[0.2,0.5,0.8],"subjectId":"A48WNR6C4CI3J","assignmentId":"3JNQLM5FT58V7X9B2VUF60ADOTOL2M","hitId":"39WICJI5ATE2BKO4UUUR86UGAV2Z3G","url":"https://gershmanlab.com/experiments/alicia/teaching/experiment/?hitId=39WICJI5ATE2BKO4UUUR86UGAV2Z3G&workerId=A48WNR6C4CI3J&assignmentId=3JNQLM5FT58V7X9B2VUF60ADOTOL2M&a=FLNJ3&tp_a=FLNJ3&b=3JNQLM5FT58V7X9B2VUF60ADOTOL2M&tp_b=3JNQLM5FT58V7X9B2VUF60ADOTOL2M&c=365633&tp_c=365633"},{"rt":null,"stimulus":"<div style=\"font-size:60px;\">Next student</div>","response":null,"trial_type":"html-keyboard-response","trial_index":46,"time_elapsed":576920,"internal_node_id":"0.0-39.0-0.0","params":{"nStudents":24,"maxFlips":25,"completionMinutes":45,"basePay":8,"maxBonus":9,"perTrialBonus":0.5,"perTrialBonusThreshold":0.05,"exampleCost":0.02},"classroomParams":{"A":{"a":1,"b":4},"B":{"a":4,"b":1},"C":{"a":2,"b":8},"D":{"a":8,"b":2}},"conditions":["nonSeqFull","nonSeqPartial","seqNoFeedback","seqFeedback"],"classroomPairings":[["A","B"],["C","D"]],"coinWeights":[0.2,0.5,0.8],"subjectId":"A48WNR6C4CI3J","assignmentId":"3JNQLM5FT58V7X9B2VUF60ADOTOL2M","hitId":"39WICJI5ATE2BKO4UUUR86UGAV2Z3G","url":"https://gershmanlab.com/experiments/alicia/teaching/experiment/?hitId=39WICJI5ATE2BKO4UUUR86UGAV2Z3G&workerId=A48WNR6C4CI3J&assignmentId=3JNQLM5FT58V7X9B2VUF60ADOTOL2M&a=FLNJ3&tp_a=FLNJ3&b=3JNQLM5FT58V7X9B2VUF60ADOTOL2M&tp_b=3JNQLM5FT58V7X9B2VUF60ADOTOL2M&c=365633&tp_c=365633"},{"rt":4197,"stimulus":"\n            <h4 style=\"color:Orange;\">Student 5</h4>\n            <h2>The weight of your coin is <b style=\"color:Tomato;\">0.5</b>.</h2>\n            <p>In this block, you will be giving <b>one</b> set of examples to Student 5.</p>\n                <p>You will receive feedback at the end of the block.</p>\n            <p></p>","response":0,"trial_type":"html-button-response","trial_index":47,"time_elapsed":581121,"internal_node_id":"0.0-40.0","params":{"nStudents":24,"maxFlips":25,"completionMinutes":45,"basePay":8,"maxBonus":9,"perTrialBonus":0.5,"perTrialBonusThreshold":0.05,"exampleCost":0.02},"classroomParams":{"A":{"a":1,"b":4},"B":{"a":4,"b":1},"C":{"a":2,"b":8},"D":{"a":8,"b":2}},"conditions":["nonSeqFull","nonSeqPartial","seqNoFeedback","seqFeedback"],"classroomPairings":[["A","B"],["C","D"]],"coinWeights":[0.2,0.5,0.8],"subjectId":"A48WNR6C4CI3J","assignmentId":"3JNQLM5FT58V7X9B2VUF60ADOTOL2M","hitId":"39WICJI5ATE2BKO4UUUR86UGAV2Z3G","url":"https://gershmanlab.com/experiments/alicia/teaching/experiment/?hitId=39WICJI5ATE2BKO4UUUR86UGAV2Z3G&workerId=A48WNR6C4CI3J&assignmentId=3JNQLM5FT58V7X9B2VUF60ADOTOL2M&a=FLNJ3&tp_a=FLNJ3&b=3JNQLM5FT58V7X9B2VUF60ADOTOL2M&tp_b=3JNQLM5FT58V7X9B2VUF60ADOTOL2M&c=365633&tp_c=365633"},{"rt":13474,"response":{"heads":"10","tails":"0"},"type":"response","condition":"nonSeqFull","trueTheta":0.5,"classrooms":["C","D"],"studentTrueClassroom":"D","exampleSet":"first","trial_type":"survey-html-form","trial_index":48,"time_elapsed":594598,"internal_node_id":"0.0-41.0-0.0","params":{"nStudents":24,"maxFlips":25,"completionMinutes":45,"basePay":8,"maxBonus":9,"perTrialBonus":0.5,"perTrialBonusThreshold":0.05,"exampleCost":0.02},"classroomParams":{"A":{"a":1,"b":4},"B":{"a":4,"b":1},"C":{"a":2,"b":8},"D":{"a":8,"b":2}},"conditions":["nonSeqFull","nonSeqPartial","seqNoFeedback","seqFeedback"],"classroomPairings":[["A","B"],["C","D"]],"coinWeights":[0.2,0.5,0.8],"subjectId":"A48WNR6C4CI3J","assignmentId":"3JNQLM5FT58V7X9B2VUF60ADOTOL2M","hitId":"39WICJI5ATE2BKO4UUUR86UGAV2Z3G","url":"https://gershmanlab.com/experiments/alicia/teaching/experiment/?hitId=39WICJI5ATE2BKO4UUUR86UGAV2Z3G&workerId=A48WNR6C4CI3J&assignmentId=3JNQLM5FT58V7X9B2VUF60ADOTOL2M&a=FLNJ3&tp_a=FLNJ3&b=3JNQLM5FT58V7X9B2VUF60ADOTOL2M&tp_b=3JNQLM5FT58V7X9B2VUF60ADOTOL2M&c=365633&tp_c=365633","heads":10,"tails":0,"studentIndex":4,"studentTrueHypers":{"a":8,"b":2},"studentGuess":0.9,"delta":0.4,"totalExamples":10,"bonus":0,"bonusSoFar":0},{"rt":null,"stimulus":"Sending examples to student... ","response":null,"trial_type":"html-keyboard-response","trial_index":49,"time_elapsed":596601,"internal_node_id":"0.0-42.0","params":{"nStudents":24,"maxFlips":25,"completionMinutes":45,"basePay":8,"maxBonus":9,"perTrialBonus":0.5,"perTrialBonusThreshold":0.05,"exampleCost":0.02},"classroomParams":{"A":{"a":1,"b":4},"B":{"a":4,"b":1},"C":{"a":2,"b":8},"D":{"a":8,"b":2}},"conditions":["nonSeqFull","nonSeqPartial","seqNoFeedback","seqFeedback"],"classroomPairings":[["A","B"],["C","D"]],"coinWeights":[0.2,0.5,0.8],"subjectId":"A48WNR6C4CI3J","assignmentId":"3JNQLM5FT58V7X9B2VUF60ADOTOL2M","hitId":"39WICJI5ATE2BKO4UUUR86UGAV2Z3G","url":"https://gershmanlab.com/experiments/alicia/teaching/experiment/?hitId=39WICJI5ATE2BKO4UUUR86UGAV2Z3G&workerId=A48WNR6C4CI3J&assignmentId=3JNQLM5FT58V7X9B2VUF60ADOTOL2M&a=FLNJ3&tp_a=FLNJ3&b=3JNQLM5FT58V7X9B2VUF60ADOTOL2M&tp_b=3JNQLM5FT58V7X9B2VUF60ADOTOL2M&c=365633&tp_c=365633"},{"rt":null,"stimulus":"Examples sent to student! Waiting for student...","response":null,"trial_type":"html-keyboard-response","trial_index":50,"time_elapsed":600603,"internal_node_id":"0.0-43.0","params":{"nStudents":24,"maxFlips":25,"completionMinutes":45,"basePay":8,"maxBonus":9,"perTrialBonus":0.5,"perTrialBonusThreshold":0.05,"exampleCost":0.02},"classroomParams":{"A":{"a":1,"b":4},"B":{"a":4,"b":1},"C":{"a":2,"b":8},"D":{"a":8,"b":2}},"conditions":["nonSeqFull","nonSeqPartial","seqNoFeedback","seqFeedback"],"classroomPairings":[["A","B"],["C","D"]],"coinWeights":[0.2,0.5,0.8],"subjectId":"A48WNR6C4CI3J","assignmentId":"3JNQLM5FT58V7X9B2VUF60ADOTOL2M","hitId":"39WICJI5ATE2BKO4UUUR86UGAV2Z3G","url":"https://gershmanlab.com/experiments/alicia/teaching/experiment/?hitId=39WICJI5ATE2BKO4UUUR86UGAV2Z3G&workerId=A48WNR6C4CI3J&assignmentId=3JNQLM5FT58V7X9B2VUF60ADOTOL2M&a=FLNJ3&tp_a=FLNJ3&b=3JNQLM5FT58V7X9B2VUF60ADOTOL2M&tp_b=3JNQLM5FT58V7X9B2VUF60ADOTOL2M&c=365633&tp_c=365633"},{"rt":6217,"stimulus":"\n                <p>Student's guess for coin weight: <b style=\"color:Tomato;\">0.90</b></p>\n                <p>You received a bonus of <b>$0</b>. Total bonus so far: <b>$0.00</b></b></p>\n                <p></p>\n                <p>Press any key to continue.</p>\n                ","response":" ","trial_type":"html-keyboard-response","trial_index":51,"time_elapsed":606821,"internal_node_id":"0.0-44.0","params":{"nStudents":24,"maxFlips":25,"completionMinutes":45,"basePay":8,"maxBonus":9,"perTrialBonus":0.5,"perTrialBonusThreshold":0.05,"exampleCost":0.02},"classroomParams":{"A":{"a":1,"b":4},"B":{"a":4,"b":1},"C":{"a":2,"b":8},"D":{"a":8,"b":2}},"conditions":["nonSeqFull","nonSeqPartial","seqNoFeedback","seqFeedback"],"classroomPairings":[["A","B"],["C","D"]],"coinWeights":[0.2,0.5,0.8],"subjectId":"A48WNR6C4CI3J","assignmentId":"3JNQLM5FT58V7X9B2VUF60ADOTOL2M","hitId":"39WICJI5ATE2BKO4UUUR86UGAV2Z3G","url":"https://gershmanlab.com/experiments/alicia/teaching/experiment/?hitId=39WICJI5ATE2BKO4UUUR86UGAV2Z3G&workerId=A48WNR6C4CI3J&assignmentId=3JNQLM5FT58V7X9B2VUF60ADOTOL2M&a=FLNJ3&tp_a=FLNJ3&b=3JNQLM5FT58V7X9B2VUF60ADOTOL2M&tp_b=3JNQLM5FT58V7X9B2VUF60ADOTOL2M&c=365633&tp_c=365633"},{"rt":null,"stimulus":"<div style=\"font-size:60px;\">Next student</div>","response":null,"trial_type":"html-keyboard-response","trial_index":52,"time_elapsed":609823,"internal_node_id":"0.0-45.0-0.0","params":{"nStudents":24,"maxFlips":25,"completionMinutes":45,"basePay":8,"maxBonus":9,"perTrialBonus":0.5,"perTrialBonusThreshold":0.05,"exampleCost":0.02},"classroomParams":{"A":{"a":1,"b":4},"B":{"a":4,"b":1},"C":{"a":2,"b":8},"D":{"a":8,"b":2}},"conditions":["nonSeqFull","nonSeqPartial","seqNoFeedback","seqFeedback"],"classroomPairings":[["A","B"],["C","D"]],"coinWeights":[0.2,0.5,0.8],"subjectId":"A48WNR6C4CI3J","assignmentId":"3JNQLM5FT58V7X9B2VUF60ADOTOL2M","hitId":"39WICJI5ATE2BKO4UUUR86UGAV2Z3G","url":"https://gershmanlab.com/experiments/alicia/teaching/experiment/?hitId=39WICJI5ATE2BKO4UUUR86UGAV2Z3G&workerId=A48WNR6C4CI3J&assignmentId=3JNQLM5FT58V7X9B2VUF60ADOTOL2M&a=FLNJ3&tp_a=FLNJ3&b=3JNQLM5FT58V7X9B2VUF60ADOTOL2M&tp_b=3JNQLM5FT58V7X9B2VUF60ADOTOL2M&c=365633&tp_c=365633"},{"rt":2045,"stimulus":"\n            <h4 style=\"color:Orange;\">Student 6</h4>\n            <h2>The weight of your coin is <b style=\"color:Tomato;\">0.5</b>.</h2>\n            <p>In this block, you will be giving <b>one</b> set of examples to Student 6.</p>\n                <p>You will receive feedback at the end of the block.</p>\n            <p></p>","response":0,"trial_type":"html-button-response","trial_index":53,"time_elapsed":611870,"internal_node_id":"0.0-46.0","params":{"nStudents":24,"maxFlips":25,"completionMinutes":45,"basePay":8,"maxBonus":9,"perTrialBonus":0.5,"perTrialBonusThreshold":0.05,"exampleCost":0.02},"classroomParams":{"A":{"a":1,"b":4},"B":{"a":4,"b":1},"C":{"a":2,"b":8},"D":{"a":8,"b":2}},"conditions":["nonSeqFull","nonSeqPartial","seqNoFeedback","seqFeedback"],"classroomPairings":[["A","B"],["C","D"]],"coinWeights":[0.2,0.5,0.8],"subjectId":"A48WNR6C4CI3J","assignmentId":"3JNQLM5FT58V7X9B2VUF60ADOTOL2M","hitId":"39WICJI5ATE2BKO4UUUR86UGAV2Z3G","url":"https://gershmanlab.com/experiments/alicia/teaching/experiment/?hitId=39WICJI5ATE2BKO4UUUR86UGAV2Z3G&workerId=A48WNR6C4CI3J&assignmentId=3JNQLM5FT58V7X9B2VUF60ADOTOL2M&a=FLNJ3&tp_a=FLNJ3&b=3JNQLM5FT58V7X9B2VUF60ADOTOL2M&tp_b=3JNQLM5FT58V7X9B2VUF60ADOTOL2M&c=365633&tp_c=365633"},{"rt":12294,"response":{"heads":"8","tails":"2"},"type":"response","condition":"nonSeqFull","trueTheta":0.5,"classrooms":["A","B"],"studentTrueClassroom":"A","exampleSet":"first","trial_type":"survey-html-form","trial_index":54,"time_elapsed":624167,"internal_node_id":"0.0-47.0-0.0","params":{"nStudents":24,"maxFlips":25,"completionMinutes":45,"basePay":8,"maxBonus":9,"perTrialBonus":0.5,"perTrialBonusThreshold":0.05,"exampleCost":0.02},"classroomParams":{"A":{"a":1,"b":4},"B":{"a":4,"b":1},"C":{"a":2,"b":8},"D":{"a":8,"b":2}},"conditions":["nonSeqFull","nonSeqPartial","seqNoFeedback","seqFeedback"],"classroomPairings":[["A","B"],["C","D"]],"coinWeights":[0.2,0.5,0.8],"subjectId":"A48WNR6C4CI3J","assignmentId":"3JNQLM5FT58V7X9B2VUF60ADOTOL2M","hitId":"39WICJI5ATE2BKO4UUUR86UGAV2Z3G","url":"https://gershmanlab.com/experiments/alicia/teaching/experiment/?hitId=39WICJI5ATE2BKO4UUUR86UGAV2Z3G&workerId=A48WNR6C4CI3J&assignmentId=3JNQLM5FT58V7X9B2VUF60ADOTOL2M&a=FLNJ3&tp_a=FLNJ3&b=3JNQLM5FT58V7X9B2VUF60ADOTOL2M&tp_b=3JNQLM5FT58V7X9B2VUF60ADOTOL2M&c=365633&tp_c=365633","heads":8,"tails":2,"studentIndex":5,"studentTrueHypers":{"a":1,"b":4},"studentGuess":0.6,"delta":0.09999999999999998,"totalExamples":10,"bonus":0,"bonusSoFar":0},{"rt":null,"stimulus":"Sending examples to student... ","response":null,"trial_type":"html-keyboard-response","trial_index":55,"time_elapsed":625668,"internal_node_id":"0.0-48.0","params":{"nStudents":24,"maxFlips":25,"completionMinutes":45,"basePay":8,"maxBonus":9,"perTrialBonus":0.5,"perTrialBonusThreshold":0.05,"exampleCost":0.02},"classroomParams":{"A":{"a":1,"b":4},"B":{"a":4,"b":1},"C":{"a":2,"b":8},"D":{"a":8,"b":2}},"conditions":["nonSeqFull","nonSeqPartial","seqNoFeedback","seqFeedback"],"classroomPairings":[["A","B"],["C","D"]],"coinWeights":[0.2,0.5,0.8],"subjectId":"A48WNR6C4CI3J","assignmentId":"3JNQLM5FT58V7X9B2VUF60ADOTOL2M","hitId":"39WICJI5ATE2BKO4UUUR86UGAV2Z3G","url":"https://gershmanlab.com/experiments/alicia/teaching/experiment/?hitId=39WICJI5ATE2BKO4UUUR86UGAV2Z3G&workerId=A48WNR6C4CI3J&assignmentId=3JNQLM5FT58V7X9B2VUF60ADOTOL2M&a=FLNJ3&tp_a=FLNJ3&b=3JNQLM5FT58V7X9B2VUF60ADOTOL2M&tp_b=3JNQLM5FT58V7X9B2VUF60ADOTOL2M&c=365633&tp_c=365633"},{"rt":null,"stimulus":"Examples sent to student! Waiting for student...","response":null,"trial_type":"html-keyboard-response","trial_index":56,"time_elapsed":631169,"internal_node_id":"0.0-49.0","params":{"nStudents":24,"maxFlips":25,"completionMinutes":45,"basePay":8,"maxBonus":9,"perTrialBonus":0.5,"perTrialBonusThreshold":0.05,"exampleCost":0.02},"classroomParams":{"A":{"a":1,"b":4},"B":{"a":4,"b":1},"C":{"a":2,"b":8},"D":{"a":8,"b":2}},"conditions":["nonSeqFull","nonSeqPartial","seqNoFeedback","seqFeedback"],"classroomPairings":[["A","B"],["C","D"]],"coinWeights":[0.2,0.5,0.8],"subjectId":"A48WNR6C4CI3J","assignmentId":"3JNQLM5FT58V7X9B2VUF60ADOTOL2M","hitId":"39WICJI5ATE2BKO4UUUR86UGAV2Z3G","url":"https://gershmanlab.com/experiments/alicia/teaching/experiment/?hitId=39WICJI5ATE2BKO4UUUR86UGAV2Z3G&workerId=A48WNR6C4CI3J&assignmentId=3JNQLM5FT58V7X9B2VUF60ADOTOL2M&a=FLNJ3&tp_a=FLNJ3&b=3JNQLM5FT58V7X9B2VUF60ADOTOL2M&tp_b=3JNQLM5FT58V7X9B2VUF60ADOTOL2M&c=365633&tp_c=365633"},{"rt":2832,"stimulus":"\n                <p>Student's guess for coin weight: <b style=\"color:Tomato;\">0.60</b></p>\n                <p>You received a bonus of <b>$0</b>. Total bonus so far: <b>$0.00</b></b></p>\n                <p></p>\n                <p>Press any key to continue.</p>\n                ","response":" ","trial_type":"html-keyboard-response","trial_index":57,"time_elapsed":634003,"internal_node_id":"0.0-50.0","params":{"nStudents":24,"maxFlips":25,"completionMinutes":45,"basePay":8,"maxBonus":9,"perTrialBonus":0.5,"perTrialBonusThreshold":0.05,"exampleCost":0.02},"classroomParams":{"A":{"a":1,"b":4},"B":{"a":4,"b":1},"C":{"a":2,"b":8},"D":{"a":8,"b":2}},"conditions":["nonSeqFull","nonSeqPartial","seqNoFeedback","seqFeedback"],"classroomPairings":[["A","B"],["C","D"]],"coinWeights":[0.2,0.5,0.8],"subjectId":"A48WNR6C4CI3J","assignmentId":"3JNQLM5FT58V7X9B2VUF60ADOTOL2M","hitId":"39WICJI5ATE2BKO4UUUR86UGAV2Z3G","url":"https://gershmanlab.com/experiments/alicia/teaching/experiment/?hitId=39WICJI5ATE2BKO4UUUR86UGAV2Z3G&workerId=A48WNR6C4CI3J&assignmentId=3JNQLM5FT58V7X9B2VUF60ADOTOL2M&a=FLNJ3&tp_a=FLNJ3&b=3JNQLM5FT58V7X9B2VUF60ADOTOL2M&tp_b=3JNQLM5FT58V7X9B2VUF60ADOTOL2M&c=365633&tp_c=365633"},{"rt":null,"stimulus":"<div style=\"font-size:60px;\">Next student</div>","response":null,"trial_type":"html-keyboard-response","trial_index":58,"time_elapsed":637005,"internal_node_id":"0.0-51.0-0.0","params":{"nStudents":24,"maxFlips":25,"completionMinutes":45,"basePay":8,"maxBonus":9,"perTrialBonus":0.5,"perTrialBonusThreshold":0.05,"exampleCost":0.02},"classroomParams":{"A":{"a":1,"b":4},"B":{"a":4,"b":1},"C":{"a":2,"b":8},"D":{"a":8,"b":2}},"conditions":["nonSeqFull","nonSeqPartial","seqNoFeedback","seqFeedback"],"classroomPairings":[["A","B"],["C","D"]],"coinWeights":[0.2,0.5,0.8],"subjectId":"A48WNR6C4CI3J","assignmentId":"3JNQLM5FT58V7X9B2VUF60ADOTOL2M","hitId":"39WICJI5ATE2BKO4UUUR86UGAV2Z3G","url":"https://gershmanlab.com/experiments/alicia/teaching/experiment/?hitId=39WICJI5ATE2BKO4UUUR86UGAV2Z3G&workerId=A48WNR6C4CI3J&assignmentId=3JNQLM5FT58V7X9B2VUF60ADOTOL2M&a=FLNJ3&tp_a=FLNJ3&b=3JNQLM5FT58V7X9B2VUF60ADOTOL2M&tp_b=3JNQLM5FT58V7X9B2VUF60ADOTOL2M&c=365633&tp_c=365633"},{"rt":1992,"stimulus":"\n            <h4 style=\"color:Orange;\">Student 7</h4>\n            <h2>The weight of your coin is <b style=\"color:Tomato;\">0.8</b>.</h2>\n            <p>In this block, you will be giving <b>one</b> set of examples to Student 7.</p>\n                <p>You will receive feedback at the end of the block.</p>\n            <p></p>","response":0,"trial_type":"html-button-response","trial_index":59,"time_elapsed":639000,"internal_node_id":"0.0-52.0","params":{"nStudents":24,"maxFlips":25,"completionMinutes":45,"basePay":8,"maxBonus":9,"perTrialBonus":0.5,"perTrialBonusThreshold":0.05,"exampleCost":0.02},"classroomParams":{"A":{"a":1,"b":4},"B":{"a":4,"b":1},"C":{"a":2,"b":8},"D":{"a":8,"b":2}},"conditions":["nonSeqFull","nonSeqPartial","seqNoFeedback","seqFeedback"],"classroomPairings":[["A","B"],["C","D"]],"coinWeights":[0.2,0.5,0.8],"subjectId":"A48WNR6C4CI3J","assignmentId":"3JNQLM5FT58V7X9B2VUF60ADOTOL2M","hitId":"39WICJI5ATE2BKO4UUUR86UGAV2Z3G","url":"https://gershmanlab.com/experiments/alicia/teaching/experiment/?hitId=39WICJI5ATE2BKO4UUUR86UGAV2Z3G&workerId=A48WNR6C4CI3J&assignmentId=3JNQLM5FT58V7X9B2VUF60ADOTOL2M&a=FLNJ3&tp_a=FLNJ3&b=3JNQLM5FT58V7X9B2VUF60ADOTOL2M&tp_b=3JNQLM5FT58V7X9B2VUF60ADOTOL2M&c=365633&tp_c=365633"},{"rt":11117,"response":{"heads":"8","tails":"2"},"type":"response","condition":"nonSeqPartial","trueTheta":0.8,"classrooms":["A","B"],"studentTrueClassroom":"A","exampleSet":"first","trial_type":"survey-html-form","trial_index":60,"time_elapsed":650121,"internal_node_id":"0.0-53.0-0.0","params":{"nStudents":24,"maxFlips":25,"completionMinutes":45,"basePay":8,"maxBonus":9,"perTrialBonus":0.5,"perTrialBonusThreshold":0.05,"exampleCost":0.02},"classroomParams":{"A":{"a":1,"b":4},"B":{"a":4,"b":1},"C":{"a":2,"b":8},"D":{"a":8,"b":2}},"conditions":["nonSeqFull","nonSeqPartial","seqNoFeedback","seqFeedback"],"classroomPairings":[["A","B"],["C","D"]],"coinWeights":[0.2,0.5,0.8],"subjectId":"A48WNR6C4CI3J","assignmentId":"3JNQLM5FT58V7X9B2VUF60ADOTOL2M","hitId":"39WICJI5ATE2BKO4UUUR86UGAV2Z3G","url":"https://gershmanlab.com/experiments/alicia/teaching/experiment/?hitId=39WICJI5ATE2BKO4UUUR86UGAV2Z3G&workerId=A48WNR6C4CI3J&assignmentId=3JNQLM5FT58V7X9B2VUF60ADOTOL2M&a=FLNJ3&tp_a=FLNJ3&b=3JNQLM5FT58V7X9B2VUF60ADOTOL2M&tp_b=3JNQLM5FT58V7X9B2VUF60ADOTOL2M&c=365633&tp_c=365633","heads":8,"tails":2,"studentIndex":6,"studentTrueHypers":{"a":1,"b":4},"studentGuess":0.6,"delta":0.20000000000000007,"totalExamples":10,"bonus":0,"bonusSoFar":0},{"rt":null,"stimulus":"Sending examples to student... ","response":null,"trial_type":"html-keyboard-response","trial_index":61,"time_elapsed":651373,"internal_node_id":"0.0-54.0","params":{"nStudents":24,"maxFlips":25,"completionMinutes":45,"basePay":8,"maxBonus":9,"perTrialBonus":0.5,"perTrialBonusThreshold":0.05,"exampleCost":0.02},"classroomParams":{"A":{"a":1,"b":4},"B":{"a":4,"b":1},"C":{"a":2,"b":8},"D":{"a":8,"b":2}},"conditions":["nonSeqFull","nonSeqPartial","seqNoFeedback","seqFeedback"],"classroomPairings":[["A","B"],["C","D"]],"coinWeights":[0.2,0.5,0.8],"subjectId":"A48WNR6C4CI3J","assignmentId":"3JNQLM5FT58V7X9B2VUF60ADOTOL2M","hitId":"39WICJI5ATE2BKO4UUUR86UGAV2Z3G","url":"https://gershmanlab.com/experiments/alicia/teaching/experiment/?hitId=39WICJI5ATE2BKO4UUUR86UGAV2Z3G&workerId=A48WNR6C4CI3J&assignmentId=3JNQLM5FT58V7X9B2VUF60ADOTOL2M&a=FLNJ3&tp_a=FLNJ3&b=3JNQLM5FT58V7X9B2VUF60ADOTOL2M&tp_b=3JNQLM5FT58V7X9B2VUF60ADOTOL2M&c=365633&tp_c=365633"},{"rt":null,"stimulus":"Examples sent to student! Waiting for student...","response":null,"trial_type":"html-keyboard-response","trial_index":62,"time_elapsed":656875,"internal_node_id":"0.0-55.0","params":{"nStudents":24,"maxFlips":25,"completionMinutes":45,"basePay":8,"maxBonus":9,"perTrialBonus":0.5,"perTrialBonusThreshold":0.05,"exampleCost":0.02},"classroomParams":{"A":{"a":1,"b":4},"B":{"a":4,"b":1},"C":{"a":2,"b":8},"D":{"a":8,"b":2}},"conditions":["nonSeqFull","nonSeqPartial","seqNoFeedback","seqFeedback"],"classroomPairings":[["A","B"],["C","D"]],"coinWeights":[0.2,0.5,0.8],"subjectId":"A48WNR6C4CI3J","assignmentId":"3JNQLM5FT58V7X9B2VUF60ADOTOL2M","hitId":"39WICJI5ATE2BKO4UUUR86UGAV2Z3G","url":"https://gershmanlab.com/experiments/alicia/teaching/experiment/?hitId=39WICJI5ATE2BKO4UUUR86UGAV2Z3G&workerId=A48WNR6C4CI3J&assignmentId=3JNQLM5FT58V7X9B2VUF60ADOTOL2M&a=FLNJ3&tp_a=FLNJ3&b=3JNQLM5FT58V7X9B2VUF60ADOTOL2M&tp_b=3JNQLM5FT58V7X9B2VUF60ADOTOL2M&c=365633&tp_c=365633"},{"rt":846,"stimulus":"\n                <p>Student's guess for coin weight: <b style=\"color:Tomato;\">0.60</b></p>\n                <p>You received a bonus of <b>$0</b>. Total bonus so far: <b>$0.00</b></b></p>\n                <p></p>\n                <p>Press any key to continue.</p>\n                ","response":"tab","trial_type":"html-keyboard-response","trial_index":63,"time_elapsed":657722,"internal_node_id":"0.0-56.0","params":{"nStudents":24,"maxFlips":25,"completionMinutes":45,"basePay":8,"maxBonus":9,"perTrialBonus":0.5,"perTrialBonusThreshold":0.05,"exampleCost":0.02},"classroomParams":{"A":{"a":1,"b":4},"B":{"a":4,"b":1},"C":{"a":2,"b":8},"D":{"a":8,"b":2}},"conditions":["nonSeqFull","nonSeqPartial","seqNoFeedback","seqFeedback"],"classroomPairings":[["A","B"],["C","D"]],"coinWeights":[0.2,0.5,0.8],"subjectId":"A48WNR6C4CI3J","assignmentId":"3JNQLM5FT58V7X9B2VUF60ADOTOL2M","hitId":"39WICJI5ATE2BKO4UUUR86UGAV2Z3G","url":"https://gershmanlab.com/experiments/alicia/teaching/experiment/?hitId=39WICJI5ATE2BKO4UUUR86UGAV2Z3G&workerId=A48WNR6C4CI3J&assignmentId=3JNQLM5FT58V7X9B2VUF60ADOTOL2M&a=FLNJ3&tp_a=FLNJ3&b=3JNQLM5FT58V7X9B2VUF60ADOTOL2M&tp_b=3JNQLM5FT58V7X9B2VUF60ADOTOL2M&c=365633&tp_c=365633"},{"rt":null,"stimulus":"<div style=\"font-size:60px;\">Next student</div>","response":null,"trial_type":"html-keyboard-response","trial_index":64,"time_elapsed":659724,"internal_node_id":"0.0-57.0-0.0","params":{"nStudents":24,"maxFlips":25,"completionMinutes":45,"basePay":8,"maxBonus":9,"perTrialBonus":0.5,"perTrialBonusThreshold":0.05,"exampleCost":0.02},"classroomParams":{"A":{"a":1,"b":4},"B":{"a":4,"b":1},"C":{"a":2,"b":8},"D":{"a":8,"b":2}},"conditions":["nonSeqFull","nonSeqPartial","seqNoFeedback","seqFeedback"],"classroomPairings":[["A","B"],["C","D"]],"coinWeights":[0.2,0.5,0.8],"subjectId":"A48WNR6C4CI3J","assignmentId":"3JNQLM5FT58V7X9B2VUF60ADOTOL2M","hitId":"39WICJI5ATE2BKO4UUUR86UGAV2Z3G","url":"https://gershmanlab.com/experiments/alicia/teaching/experiment/?hitId=39WICJI5ATE2BKO4UUUR86UGAV2Z3G&workerId=A48WNR6C4CI3J&assignmentId=3JNQLM5FT58V7X9B2VUF60ADOTOL2M&a=FLNJ3&tp_a=FLNJ3&b=3JNQLM5FT58V7X9B2VUF60ADOTOL2M&tp_b=3JNQLM5FT58V7X9B2VUF60ADOTOL2M&c=365633&tp_c=365633"},{"rt":1769,"stimulus":"\n            <h4 style=\"color:Orange;\">Student 8</h4>\n            <h2>The weight of your coin is <b style=\"color:Tomato;\">0.8</b>.</h2>\n            <p>In this block, you will be giving <b>one</b> set of examples to Student 8.</p>\n                <p>You will receive feedback at the end of the block.</p>\n            <p></p>","response":0,"trial_type":"html-button-response","trial_index":65,"time_elapsed":661495,"internal_node_id":"0.0-58.0","params":{"nStudents":24,"maxFlips":25,"completionMinutes":45,"basePay":8,"maxBonus":9,"perTrialBonus":0.5,"perTrialBonusThreshold":0.05,"exampleCost":0.02},"classroomParams":{"A":{"a":1,"b":4},"B":{"a":4,"b":1},"C":{"a":2,"b":8},"D":{"a":8,"b":2}},"conditions":["nonSeqFull","nonSeqPartial","seqNoFeedback","seqFeedback"],"classroomPairings":[["A","B"],["C","D"]],"coinWeights":[0.2,0.5,0.8],"subjectId":"A48WNR6C4CI3J","assignmentId":"3JNQLM5FT58V7X9B2VUF60ADOTOL2M","hitId":"39WICJI5ATE2BKO4UUUR86UGAV2Z3G","url":"https://gershmanlab.com/experiments/alicia/teaching/experiment/?hitId=39WICJI5ATE2BKO4UUUR86UGAV2Z3G&workerId=A48WNR6C4CI3J&assignmentId=3JNQLM5FT58V7X9B2VUF60ADOTOL2M&a=FLNJ3&tp_a=FLNJ3&b=3JNQLM5FT58V7X9B2VUF60ADOTOL2M&tp_b=3JNQLM5FT58V7X9B2VUF60ADOTOL2M&c=365633&tp_c=365633"},{"rt":4275,"response":{"heads":"8","tails":"2"},"type":"response","condition":"nonSeqPartial","trueTheta":0.8,"classrooms":["C","D"],"studentTrueClassroom":"D","exampleSet":"first","trial_type":"survey-html-form","trial_index":66,"time_elapsed":665773,"internal_node_id":"0.0-59.0-0.0","params":{"nStudents":24,"maxFlips":25,"completionMinutes":45,"basePay":8,"maxBonus":9,"perTrialBonus":0.5,"perTrialBonusThreshold":0.05,"exampleCost":0.02},"classroomParams":{"A":{"a":1,"b":4},"B":{"a":4,"b":1},"C":{"a":2,"b":8},"D":{"a":8,"b":2}},"conditions":["nonSeqFull","nonSeqPartial","seqNoFeedback","seqFeedback"],"classroomPairings":[["A","B"],["C","D"]],"coinWeights":[0.2,0.5,0.8],"subjectId":"A48WNR6C4CI3J","assignmentId":"3JNQLM5FT58V7X9B2VUF60ADOTOL2M","hitId":"39WICJI5ATE2BKO4UUUR86UGAV2Z3G","url":"https://gershmanlab.com/experiments/alicia/teaching/experiment/?hitId=39WICJI5ATE2BKO4UUUR86UGAV2Z3G&workerId=A48WNR6C4CI3J&assignmentId=3JNQLM5FT58V7X9B2VUF60ADOTOL2M&a=FLNJ3&tp_a=FLNJ3&b=3JNQLM5FT58V7X9B2VUF60ADOTOL2M&tp_b=3JNQLM5FT58V7X9B2VUF60ADOTOL2M&c=365633&tp_c=365633","heads":8,"tails":2,"studentIndex":7,"studentTrueHypers":{"a":8,"b":2},"studentGuess":0.8,"delta":0,"totalExamples":10,"bonus":0.3,"bonusSoFar":0.3},{"rt":null,"stimulus":"Sending examples to student... ","response":null,"trial_type":"html-keyboard-response","trial_index":67,"time_elapsed":667024,"internal_node_id":"0.0-60.0","params":{"nStudents":24,"maxFlips":25,"completionMinutes":45,"basePay":8,"maxBonus":9,"perTrialBonus":0.5,"perTrialBonusThreshold":0.05,"exampleCost":0.02},"classroomParams":{"A":{"a":1,"b":4},"B":{"a":4,"b":1},"C":{"a":2,"b":8},"D":{"a":8,"b":2}},"conditions":["nonSeqFull","nonSeqPartial","seqNoFeedback","seqFeedback"],"classroomPairings":[["A","B"],["C","D"]],"coinWeights":[0.2,0.5,0.8],"subjectId":"A48WNR6C4CI3J","assignmentId":"3JNQLM5FT58V7X9B2VUF60ADOTOL2M","hitId":"39WICJI5ATE2BKO4UUUR86UGAV2Z3G","url":"https://gershmanlab.com/experiments/alicia/teaching/experiment/?hitId=39WICJI5ATE2BKO4UUUR86UGAV2Z3G&workerId=A48WNR6C4CI3J&assignmentId=3JNQLM5FT58V7X9B2VUF60ADOTOL2M&a=FLNJ3&tp_a=FLNJ3&b=3JNQLM5FT58V7X9B2VUF60ADOTOL2M&tp_b=3JNQLM5FT58V7X9B2VUF60ADOTOL2M&c=365633&tp_c=365633"},{"rt":null,"stimulus":"Examples sent to student! Waiting for student...","response":null,"trial_type":"html-keyboard-response","trial_index":68,"time_elapsed":672025,"internal_node_id":"0.0-61.0","params":{"nStudents":24,"maxFlips":25,"completionMinutes":45,"basePay":8,"maxBonus":9,"perTrialBonus":0.5,"perTrialBonusThreshold":0.05,"exampleCost":0.02},"classroomParams":{"A":{"a":1,"b":4},"B":{"a":4,"b":1},"C":{"a":2,"b":8},"D":{"a":8,"b":2}},"conditions":["nonSeqFull","nonSeqPartial","seqNoFeedback","seqFeedback"],"classroomPairings":[["A","B"],["C","D"]],"coinWeights":[0.2,0.5,0.8],"subjectId":"A48WNR6C4CI3J","assignmentId":"3JNQLM5FT58V7X9B2VUF60ADOTOL2M","hitId":"39WICJI5ATE2BKO4UUUR86UGAV2Z3G","url":"https://gershmanlab.com/experiments/alicia/teaching/experiment/?hitId=39WICJI5ATE2BKO4UUUR86UGAV2Z3G&workerId=A48WNR6C4CI3J&assignmentId=3JNQLM5FT58V7X9B2VUF60ADOTOL2M&a=FLNJ3&tp_a=FLNJ3&b=3JNQLM5FT58V7X9B2VUF60ADOTOL2M&tp_b=3JNQLM5FT58V7X9B2VUF60ADOTOL2M&c=365633&tp_c=365633"},{"rt":2803,"stimulus":"\n                <p>Student's guess for coin weight: <b style=\"color:Tomato;\">0.80</b></p>\n                <p>You received a bonus of <b>$0.3</b>. Total bonus so far: <b>$0.30</b></b></p>\n                <p></p>\n                <p>Press any key to continue.</p>\n                ","response":"enter","trial_type":"html-keyboard-response","trial_index":69,"time_elapsed":674829,"internal_node_id":"0.0-62.0","params":{"nStudents":24,"maxFlips":25,"completionMinutes":45,"basePay":8,"maxBonus":9,"perTrialBonus":0.5,"perTrialBonusThreshold":0.05,"exampleCost":0.02},"classroomParams":{"A":{"a":1,"b":4},"B":{"a":4,"b":1},"C":{"a":2,"b":8},"D":{"a":8,"b":2}},"conditions":["nonSeqFull","nonSeqPartial","seqNoFeedback","seqFeedback"],"classroomPairings":[["A","B"],["C","D"]],"coinWeights":[0.2,0.5,0.8],"subjectId":"A48WNR6C4CI3J","assignmentId":"3JNQLM5FT58V7X9B2VUF60ADOTOL2M","hitId":"39WICJI5ATE2BKO4UUUR86UGAV2Z3G","url":"https://gershmanlab.com/experiments/alicia/teaching/experiment/?hitId=39WICJI5ATE2BKO4UUUR86UGAV2Z3G&workerId=A48WNR6C4CI3J&assignmentId=3JNQLM5FT58V7X9B2VUF60ADOTOL2M&a=FLNJ3&tp_a=FLNJ3&b=3JNQLM5FT58V7X9B2VUF60ADOTOL2M&tp_b=3JNQLM5FT58V7X9B2VUF60ADOTOL2M&c=365633&tp_c=365633"},{"rt":null,"stimulus":"<div style=\"font-size:60px;\">Next student</div>","response":null,"trial_type":"html-keyboard-response","trial_index":70,"time_elapsed":676830,"internal_node_id":"0.0-63.0-0.0","params":{"nStudents":24,"maxFlips":25,"completionMinutes":45,"basePay":8,"maxBonus":9,"perTrialBonus":0.5,"perTrialBonusThreshold":0.05,"exampleCost":0.02},"classroomParams":{"A":{"a":1,"b":4},"B":{"a":4,"b":1},"C":{"a":2,"b":8},"D":{"a":8,"b":2}},"conditions":["nonSeqFull","nonSeqPartial","seqNoFeedback","seqFeedback"],"classroomPairings":[["A","B"],["C","D"]],"coinWeights":[0.2,0.5,0.8],"subjectId":"A48WNR6C4CI3J","assignmentId":"3JNQLM5FT58V7X9B2VUF60ADOTOL2M","hitId":"39WICJI5ATE2BKO4UUUR86UGAV2Z3G","url":"https://gershmanlab.com/experiments/alicia/teaching/experiment/?hitId=39WICJI5ATE2BKO4UUUR86UGAV2Z3G&workerId=A48WNR6C4CI3J&assignmentId=3JNQLM5FT58V7X9B2VUF60ADOTOL2M&a=FLNJ3&tp_a=FLNJ3&b=3JNQLM5FT58V7X9B2VUF60ADOTOL2M&tp_b=3JNQLM5FT58V7X9B2VUF60ADOTOL2M&c=365633&tp_c=365633"},{"rt":1970,"stimulus":"\n            <h4 style=\"color:Orange;\">Student 9</h4>\n            <h2>The weight of your coin is <b style=\"color:Tomato;\">0.5</b>.</h2>\n            <p>In this block, you will be giving <b>two</b> sets of examples to Student 9.</p>\n                <p>You will receive feedback at the end of the block.</p>\n            <p></p>","response":0,"trial_type":"html-button-response","trial_index":71,"time_elapsed":678803,"internal_node_id":"0.0-64.0","params":{"nStudents":24,"maxFlips":25,"completionMinutes":45,"basePay":8,"maxBonus":9,"perTrialBonus":0.5,"perTrialBonusThreshold":0.05,"exampleCost":0.02},"classroomParams":{"A":{"a":1,"b":4},"B":{"a":4,"b":1},"C":{"a":2,"b":8},"D":{"a":8,"b":2}},"conditions":["nonSeqFull","nonSeqPartial","seqNoFeedback","seqFeedback"],"classroomPairings":[["A","B"],["C","D"]],"coinWeights":[0.2,0.5,0.8],"subjectId":"A48WNR6C4CI3J","assignmentId":"3JNQLM5FT58V7X9B2VUF60ADOTOL2M","hitId":"39WICJI5ATE2BKO4UUUR86UGAV2Z3G","url":"https://gershmanlab.com/experiments/alicia/teaching/experiment/?hitId=39WICJI5ATE2BKO4UUUR86UGAV2Z3G&workerId=A48WNR6C4CI3J&assignmentId=3JNQLM5FT58V7X9B2VUF60ADOTOL2M&a=FLNJ3&tp_a=FLNJ3&b=3JNQLM5FT58V7X9B2VUF60ADOTOL2M&tp_b=3JNQLM5FT58V7X9B2VUF60ADOTOL2M&c=365633&tp_c=365633"},{"rt":3166,"response":{"heads":"5","tails":"5"},"type":"response","condition":"seqNoFeedback","trueTheta":0.5,"classrooms":["A","B"],"studentTrueClassroom":"A","exampleSet":"first","trial_type":"survey-html-form","trial_index":72,"time_elapsed":681972,"internal_node_id":"0.0-65.0-0.0","params":{"nStudents":24,"maxFlips":25,"completionMinutes":45,"basePay":8,"maxBonus":9,"perTrialBonus":0.5,"perTrialBonusThreshold":0.05,"exampleCost":0.02},"classroomParams":{"A":{"a":1,"b":4},"B":{"a":4,"b":1},"C":{"a":2,"b":8},"D":{"a":8,"b":2}},"conditions":["nonSeqFull","nonSeqPartial","seqNoFeedback","seqFeedback"],"classroomPairings":[["A","B"],["C","D"]],"coinWeights":[0.2,0.5,0.8],"subjectId":"A48WNR6C4CI3J","assignmentId":"3JNQLM5FT58V7X9B2VUF60ADOTOL2M","hitId":"39WICJI5ATE2BKO4UUUR86UGAV2Z3G","url":"https://gershmanlab.com/experiments/alicia/teaching/experiment/?hitId=39WICJI5ATE2BKO4UUUR86UGAV2Z3G&workerId=A48WNR6C4CI3J&assignmentId=3JNQLM5FT58V7X9B2VUF60ADOTOL2M&a=FLNJ3&tp_a=FLNJ3&b=3JNQLM5FT58V7X9B2VUF60ADOTOL2M&tp_b=3JNQLM5FT58V7X9B2VUF60ADOTOL2M&c=365633&tp_c=365633","heads":5,"tails":5,"studentIndex":8,"studentTrueHypers":{"a":1,"b":4},"studentGuess":0.4,"delta":0.09999999999999998,"totalExamples":10,"bonusSoFar":0.3},{"rt":null,"stimulus":"Sending examples to student... ","response":null,"trial_type":"html-keyboard-response","trial_index":73,"time_elapsed":683974,"internal_node_id":"0.0-66.0","params":{"nStudents":24,"maxFlips":25,"completionMinutes":45,"basePay":8,"maxBonus":9,"perTrialBonus":0.5,"perTrialBonusThreshold":0.05,"exampleCost":0.02},"classroomParams":{"A":{"a":1,"b":4},"B":{"a":4,"b":1},"C":{"a":2,"b":8},"D":{"a":8,"b":2}},"conditions":["nonSeqFull","nonSeqPartial","seqNoFeedback","seqFeedback"],"classroomPairings":[["A","B"],["C","D"]],"coinWeights":[0.2,0.5,0.8],"subjectId":"A48WNR6C4CI3J","assignmentId":"3JNQLM5FT58V7X9B2VUF60ADOTOL2M","hitId":"39WICJI5ATE2BKO4UUUR86UGAV2Z3G","url":"https://gershmanlab.com/experiments/alicia/teaching/experiment/?hitId=39WICJI5ATE2BKO4UUUR86UGAV2Z3G&workerId=A48WNR6C4CI3J&assignmentId=3JNQLM5FT58V7X9B2VUF60ADOTOL2M&a=FLNJ3&tp_a=FLNJ3&b=3JNQLM5FT58V7X9B2VUF60ADOTOL2M&tp_b=3JNQLM5FT58V7X9B2VUF60ADOTOL2M&c=365633&tp_c=365633"},{"rt":null,"stimulus":"Examples sent to student! Waiting for student...","response":null,"trial_type":"html-keyboard-response","trial_index":74,"time_elapsed":687975,"internal_node_id":"0.0-67.0","params":{"nStudents":24,"maxFlips":25,"completionMinutes":45,"basePay":8,"maxBonus":9,"perTrialBonus":0.5,"perTrialBonusThreshold":0.05,"exampleCost":0.02},"classroomParams":{"A":{"a":1,"b":4},"B":{"a":4,"b":1},"C":{"a":2,"b":8},"D":{"a":8,"b":2}},"conditions":["nonSeqFull","nonSeqPartial","seqNoFeedback","seqFeedback"],"classroomPairings":[["A","B"],["C","D"]],"coinWeights":[0.2,0.5,0.8],"subjectId":"A48WNR6C4CI3J","assignmentId":"3JNQLM5FT58V7X9B2VUF60ADOTOL2M","hitId":"39WICJI5ATE2BKO4UUUR86UGAV2Z3G","url":"https://gershmanlab.com/experiments/alicia/teaching/experiment/?hitId=39WICJI5ATE2BKO4UUUR86UGAV2Z3G&workerId=A48WNR6C4CI3J&assignmentId=3JNQLM5FT58V7X9B2VUF60ADOTOL2M&a=FLNJ3&tp_a=FLNJ3&b=3JNQLM5FT58V7X9B2VUF60ADOTOL2M&tp_b=3JNQLM5FT58V7X9B2VUF60ADOTOL2M&c=365633&tp_c=365633"},{"rt":1882,"response":{"heads":"5","tails":"5"},"type":"response","condition":"seqNoFeedback","trueTheta":0.5,"classrooms":["A","B"],"studentTrueClassroom":"A","exampleSet":"second","trial_type":"survey-html-form","trial_index":75,"time_elapsed":689860,"internal_node_id":"0.0-68.0-0.0","params":{"nStudents":24,"maxFlips":25,"completionMinutes":45,"basePay":8,"maxBonus":9,"perTrialBonus":0.5,"perTrialBonusThreshold":0.05,"exampleCost":0.02},"classroomParams":{"A":{"a":1,"b":4},"B":{"a":4,"b":1},"C":{"a":2,"b":8},"D":{"a":8,"b":2}},"conditions":["nonSeqFull","nonSeqPartial","seqNoFeedback","seqFeedback"],"classroomPairings":[["A","B"],["C","D"]],"coinWeights":[0.2,0.5,0.8],"subjectId":"A48WNR6C4CI3J","assignmentId":"3JNQLM5FT58V7X9B2VUF60ADOTOL2M","hitId":"39WICJI5ATE2BKO4UUUR86UGAV2Z3G","url":"https://gershmanlab.com/experiments/alicia/teaching/experiment/?hitId=39WICJI5ATE2BKO4UUUR86UGAV2Z3G&workerId=A48WNR6C4CI3J&assignmentId=3JNQLM5FT58V7X9B2VUF60ADOTOL2M&a=FLNJ3&tp_a=FLNJ3&b=3JNQLM5FT58V7X9B2VUF60ADOTOL2M&tp_b=3JNQLM5FT58V7X9B2VUF60ADOTOL2M&c=365633&tp_c=365633","firstResponseHeads":5,"firstResponseTails":5,"secondResponseHeads":5,"secondResponseTails":5,"totalHeads":10,"totalTails":10,"studentIndex":8,"studentTrueHypers":{"a":1,"b":4},"studentGuess":0.44,"delta":0.06,"bonus":0,"bonusSoFar":0.3,"totalExamples":20},{"rt":null,"stimulus":"Sending examples to student... ","response":null,"trial_type":"html-keyboard-response","trial_index":76,"time_elapsed":691613,"internal_node_id":"0.0-69.0","params":{"nStudents":24,"maxFlips":25,"completionMinutes":45,"basePay":8,"maxBonus":9,"perTrialBonus":0.5,"perTrialBonusThreshold":0.05,"exampleCost":0.02},"classroomParams":{"A":{"a":1,"b":4},"B":{"a":4,"b":1},"C":{"a":2,"b":8},"D":{"a":8,"b":2}},"conditions":["nonSeqFull","nonSeqPartial","seqNoFeedback","seqFeedback"],"classroomPairings":[["A","B"],["C","D"]],"coinWeights":[0.2,0.5,0.8],"subjectId":"A48WNR6C4CI3J","assignmentId":"3JNQLM5FT58V7X9B2VUF60ADOTOL2M","hitId":"39WICJI5ATE2BKO4UUUR86UGAV2Z3G","url":"https://gershmanlab.com/experiments/alicia/teaching/experiment/?hitId=39WICJI5ATE2BKO4UUUR86UGAV2Z3G&workerId=A48WNR6C4CI3J&assignmentId=3JNQLM5FT58V7X9B2VUF60ADOTOL2M&a=FLNJ3&tp_a=FLNJ3&b=3JNQLM5FT58V7X9B2VUF60ADOTOL2M&tp_b=3JNQLM5FT58V7X9B2VUF60ADOTOL2M&c=365633&tp_c=365633"},{"rt":null,"stimulus":"Examples sent to student! Waiting for student...","response":null,"trial_type":"html-keyboard-response","trial_index":77,"time_elapsed":696115,"internal_node_id":"0.0-70.0","params":{"nStudents":24,"maxFlips":25,"completionMinutes":45,"basePay":8,"maxBonus":9,"perTrialBonus":0.5,"perTrialBonusThreshold":0.05,"exampleCost":0.02},"classroomParams":{"A":{"a":1,"b":4},"B":{"a":4,"b":1},"C":{"a":2,"b":8},"D":{"a":8,"b":2}},"conditions":["nonSeqFull","nonSeqPartial","seqNoFeedback","seqFeedback"],"classroomPairings":[["A","B"],["C","D"]],"coinWeights":[0.2,0.5,0.8],"subjectId":"A48WNR6C4CI3J","assignmentId":"3JNQLM5FT58V7X9B2VUF60ADOTOL2M","hitId":"39WICJI5ATE2BKO4UUUR86UGAV2Z3G","url":"https://gershmanlab.com/experiments/alicia/teaching/experiment/?hitId=39WICJI5ATE2BKO4UUUR86UGAV2Z3G&workerId=A48WNR6C4CI3J&assignmentId=3JNQLM5FT58V7X9B2VUF60ADOTOL2M&a=FLNJ3&tp_a=FLNJ3&b=3JNQLM5FT58V7X9B2VUF60ADOTOL2M&tp_b=3JNQLM5FT58V7X9B2VUF60ADOTOL2M&c=365633&tp_c=365633"},{"rt":1385,"stimulus":"\n                <p>Student 9's first guess for coin weight: <b style=\"color:Tomato\";>0.40</b></p>\n                <p>Student 9's second guess for coin weight: <b style=\"color:Tomato\";>0.44</b></p>\n                <p>You received a bonus of <b>$0.00</b> based on the student's second guess.</p>\n                <p>Total bonus so far: <b>$0.30</b></p>\n                <p>Press any key to continue.</p>\n                ","response":"tab","trial_type":"html-keyboard-response","trial_index":78,"time_elapsed":697502,"internal_node_id":"0.0-71.0","params":{"nStudents":24,"maxFlips":25,"completionMinutes":45,"basePay":8,"maxBonus":9,"perTrialBonus":0.5,"perTrialBonusThreshold":0.05,"exampleCost":0.02},"classroomParams":{"A":{"a":1,"b":4},"B":{"a":4,"b":1},"C":{"a":2,"b":8},"D":{"a":8,"b":2}},"conditions":["nonSeqFull","nonSeqPartial","seqNoFeedback","seqFeedback"],"classroomPairings":[["A","B"],["C","D"]],"coinWeights":[0.2,0.5,0.8],"subjectId":"A48WNR6C4CI3J","assignmentId":"3JNQLM5FT58V7X9B2VUF60ADOTOL2M","hitId":"39WICJI5ATE2BKO4UUUR86UGAV2Z3G","url":"https://gershmanlab.com/experiments/alicia/teaching/experiment/?hitId=39WICJI5ATE2BKO4UUUR86UGAV2Z3G&workerId=A48WNR6C4CI3J&assignmentId=3JNQLM5FT58V7X9B2VUF60ADOTOL2M&a=FLNJ3&tp_a=FLNJ3&b=3JNQLM5FT58V7X9B2VUF60ADOTOL2M&tp_b=3JNQLM5FT58V7X9B2VUF60ADOTOL2M&c=365633&tp_c=365633"},{"rt":null,"stimulus":"<div style=\"font-size:60px;\">Next student</div>","response":null,"trial_type":"html-keyboard-response","trial_index":79,"time_elapsed":699754,"internal_node_id":"0.0-72.0-0.0","params":{"nStudents":24,"maxFlips":25,"completionMinutes":45,"basePay":8,"maxBonus":9,"perTrialBonus":0.5,"perTrialBonusThreshold":0.05,"exampleCost":0.02},"classroomParams":{"A":{"a":1,"b":4},"B":{"a":4,"b":1},"C":{"a":2,"b":8},"D":{"a":8,"b":2}},"conditions":["nonSeqFull","nonSeqPartial","seqNoFeedback","seqFeedback"],"classroomPairings":[["A","B"],["C","D"]],"coinWeights":[0.2,0.5,0.8],"subjectId":"A48WNR6C4CI3J","assignmentId":"3JNQLM5FT58V7X9B2VUF60ADOTOL2M","hitId":"39WICJI5ATE2BKO4UUUR86UGAV2Z3G","url":"https://gershmanlab.com/experiments/alicia/teaching/experiment/?hitId=39WICJI5ATE2BKO4UUUR86UGAV2Z3G&workerId=A48WNR6C4CI3J&assignmentId=3JNQLM5FT58V7X9B2VUF60ADOTOL2M&a=FLNJ3&tp_a=FLNJ3&b=3JNQLM5FT58V7X9B2VUF60ADOTOL2M&tp_b=3JNQLM5FT58V7X9B2VUF60ADOTOL2M&c=365633&tp_c=365633"},{"rt":2646,"stimulus":"\n            <h4 style=\"color:Orange;\">Student 10</h4>\n            <h2>The weight of your coin is <b style=\"color:Tomato;\">0.5</b>.</h2>\n            <p>In this block, you will be giving <b>two</b> sets of examples to Student 10.</p>\n                <p>You will see the student's guess after the first set of examples. You will also receive feedback at the end of the block.</p>\n            <p>To earn the highest bonus, you will have to <b>take into consideration the student's guess</b> when you choose your second set of examples.</p>","response":0,"trial_type":"html-button-response","trial_index":80,"time_elapsed":702402,"internal_node_id":"0.0-73.0","params":{"nStudents":24,"maxFlips":25,"completionMinutes":45,"basePay":8,"maxBonus":9,"perTrialBonus":0.5,"perTrialBonusThreshold":0.05,"exampleCost":0.02},"classroomParams":{"A":{"a":1,"b":4},"B":{"a":4,"b":1},"C":{"a":2,"b":8},"D":{"a":8,"b":2}},"conditions":["nonSeqFull","nonSeqPartial","seqNoFeedback","seqFeedback"],"classroomPairings":[["A","B"],["C","D"]],"coinWeights":[0.2,0.5,0.8],"subjectId":"A48WNR6C4CI3J","assignmentId":"3JNQLM5FT58V7X9B2VUF60ADOTOL2M","hitId":"39WICJI5ATE2BKO4UUUR86UGAV2Z3G","url":"https://gershmanlab.com/experiments/alicia/teaching/experiment/?hitId=39WICJI5ATE2BKO4UUUR86UGAV2Z3G&workerId=A48WNR6C4CI3J&assignmentId=3JNQLM5FT58V7X9B2VUF60ADOTOL2M&a=FLNJ3&tp_a=FLNJ3&b=3JNQLM5FT58V7X9B2VUF60ADOTOL2M&tp_b=3JNQLM5FT58V7X9B2VUF60ADOTOL2M&c=365633&tp_c=365633"},{"rt":4831,"response":{"heads":"15","tails":"5"},"type":"response","condition":"seqFeedback","trueTheta":0.5,"classrooms":["C","D"],"studentTrueClassroom":"D","exampleSet":"first","trial_type":"survey-html-form","trial_index":81,"time_elapsed":707237,"internal_node_id":"0.0-74.0-0.0","params":{"nStudents":24,"maxFlips":25,"completionMinutes":45,"basePay":8,"maxBonus":9,"perTrialBonus":0.5,"perTrialBonusThreshold":0.05,"exampleCost":0.02},"classroomParams":{"A":{"a":1,"b":4},"B":{"a":4,"b":1},"C":{"a":2,"b":8},"D":{"a":8,"b":2}},"conditions":["nonSeqFull","nonSeqPartial","seqNoFeedback","seqFeedback"],"classroomPairings":[["A","B"],["C","D"]],"coinWeights":[0.2,0.5,0.8],"subjectId":"A48WNR6C4CI3J","assignmentId":"3JNQLM5FT58V7X9B2VUF60ADOTOL2M","hitId":"39WICJI5ATE2BKO4UUUR86UGAV2Z3G","url":"https://gershmanlab.com/experiments/alicia/teaching/experiment/?hitId=39WICJI5ATE2BKO4UUUR86UGAV2Z3G&workerId=A48WNR6C4CI3J&assignmentId=3JNQLM5FT58V7X9B2VUF60ADOTOL2M&a=FLNJ3&tp_a=FLNJ3&b=3JNQLM5FT58V7X9B2VUF60ADOTOL2M&tp_b=3JNQLM5FT58V7X9B2VUF60ADOTOL2M&c=365633&tp_c=365633","heads":15,"tails":5,"studentIndex":9,"studentTrueHypers":{"a":8,"b":2},"studentGuess":0.7666666666666667,"delta":0.2666666666666667,"totalExamples":20,"bonusSoFar":0.3},{"rt":null,"stimulus":"Sending examples to student... ","response":null,"trial_type":"html-keyboard-response","trial_index":82,"time_elapsed":709240,"internal_node_id":"0.0-75.0","params":{"nStudents":24,"maxFlips":25,"completionMinutes":45,"basePay":8,"maxBonus":9,"perTrialBonus":0.5,"perTrialBonusThreshold":0.05,"exampleCost":0.02},"classroomParams":{"A":{"a":1,"b":4},"B":{"a":4,"b":1},"C":{"a":2,"b":8},"D":{"a":8,"b":2}},"conditions":["nonSeqFull","nonSeqPartial","seqNoFeedback","seqFeedback"],"classroomPairings":[["A","B"],["C","D"]],"coinWeights":[0.2,0.5,0.8],"subjectId":"A48WNR6C4CI3J","assignmentId":"3JNQLM5FT58V7X9B2VUF60ADOTOL2M","hitId":"39WICJI5ATE2BKO4UUUR86UGAV2Z3G","url":"https://gershmanlab.com/experiments/alicia/teaching/experiment/?hitId=39WICJI5ATE2BKO4UUUR86UGAV2Z3G&workerId=A48WNR6C4CI3J&assignmentId=3JNQLM5FT58V7X9B2VUF60ADOTOL2M&a=FLNJ3&tp_a=FLNJ3&b=3JNQLM5FT58V7X9B2VUF60ADOTOL2M&tp_b=3JNQLM5FT58V7X9B2VUF60ADOTOL2M&c=365633&tp_c=365633"},{"rt":null,"stimulus":"Examples sent to student! Waiting for student...","response":null,"trial_type":"html-keyboard-response","trial_index":83,"time_elapsed":715241,"internal_node_id":"0.0-76.0","params":{"nStudents":24,"maxFlips":25,"completionMinutes":45,"basePay":8,"maxBonus":9,"perTrialBonus":0.5,"perTrialBonusThreshold":0.05,"exampleCost":0.02},"classroomParams":{"A":{"a":1,"b":4},"B":{"a":4,"b":1},"C":{"a":2,"b":8},"D":{"a":8,"b":2}},"conditions":["nonSeqFull","nonSeqPartial","seqNoFeedback","seqFeedback"],"classroomPairings":[["A","B"],["C","D"]],"coinWeights":[0.2,0.5,0.8],"subjectId":"A48WNR6C4CI3J","assignmentId":"3JNQLM5FT58V7X9B2VUF60ADOTOL2M","hitId":"39WICJI5ATE2BKO4UUUR86UGAV2Z3G","url":"https://gershmanlab.com/experiments/alicia/teaching/experiment/?hitId=39WICJI5ATE2BKO4UUUR86UGAV2Z3G&workerId=A48WNR6C4CI3J&assignmentId=3JNQLM5FT58V7X9B2VUF60ADOTOL2M&a=FLNJ3&tp_a=FLNJ3&b=3JNQLM5FT58V7X9B2VUF60ADOTOL2M&tp_b=3JNQLM5FT58V7X9B2VUF60ADOTOL2M&c=365633&tp_c=365633"},{"rt":2689,"stimulus":"\n                <p>Student's guess for coin weight: <b style=\"color:Tomato;\">0.77</b></p>\n                <p></b></p>\n                <p>You will now send another set of examples to your student. <b>Remember to take your student's guess into consideration so that you can earn the highest bonus possible!</b> </p>\n                <p>Press any key to continue.</p>\n                ","response":"enter","trial_type":"html-keyboard-response","trial_index":84,"time_elapsed":717933,"internal_node_id":"0.0-77.0","params":{"nStudents":24,"maxFlips":25,"completionMinutes":45,"basePay":8,"maxBonus":9,"perTrialBonus":0.5,"perTrialBonusThreshold":0.05,"exampleCost":0.02},"classroomParams":{"A":{"a":1,"b":4},"B":{"a":4,"b":1},"C":{"a":2,"b":8},"D":{"a":8,"b":2}},"conditions":["nonSeqFull","nonSeqPartial","seqNoFeedback","seqFeedback"],"classroomPairings":[["A","B"],["C","D"]],"coinWeights":[0.2,0.5,0.8],"subjectId":"A48WNR6C4CI3J","assignmentId":"3JNQLM5FT58V7X9B2VUF60ADOTOL2M","hitId":"39WICJI5ATE2BKO4UUUR86UGAV2Z3G","url":"https://gershmanlab.com/experiments/alicia/teaching/experiment/?hitId=39WICJI5ATE2BKO4UUUR86UGAV2Z3G&workerId=A48WNR6C4CI3J&assignmentId=3JNQLM5FT58V7X9B2VUF60ADOTOL2M&a=FLNJ3&tp_a=FLNJ3&b=3JNQLM5FT58V7X9B2VUF60ADOTOL2M&tp_b=3JNQLM5FT58V7X9B2VUF60ADOTOL2M&c=365633&tp_c=365633"},{"rt":9989,"response":{"heads":"5","tails":"5"},"type":"response","condition":"seqFeedback","trueTheta":0.5,"classrooms":["C","D"],"studentTrueClassroom":"D","examp