[{"rt":6583,"stimulus":"Welcome to the experiment. Press any key to begin.","response":" ","trial_type":"html-keyboard-response","trial_index":0,"time_elapsed":6597,"internal_node_id":"0.0-0.0","params":{"nStudents":24,"maxFlips":25,"completionMinutes":45,"basePay":8,"maxBonus":9,"perTrialBonus":0.5,"perTrialBonusThreshold":0.05,"exampleCost":0.02},"classroomParams":{"A":{"a":1,"b":4},"B":{"a":4,"b":1},"C":{"a":2,"b":8},"D":{"a":8,"b":2}},"conditions":["nonSeqFull","nonSeqPartial","seqNoFeedback","seqFeedback"],"classroomPairings":[["A","B"],["C","D"]],"coinWeights":[0.2,0.5,0.8],"subjectId":"A6Y7SZU9L301W","assignmentId":"3NC5L260MP8NECOK3IPEI08WS2JOFB","hitId":"3XUY87HIVP03YZXVLN9CW37DVI1MM2","url":"https://gershmanlab.com/experiments/alicia/teaching/experiment/?hitId=3XUY87HIVP03YZXVLN9CW37DVI1MM2&workerId=A6Y7SZU9L301W&assignmentId=3NC5L260MP8NECOK3IPEI08WS2JOFB&a=0LCN3&tp_a=0LCN3&b=3NC5L260MP8NECOK3IPEI08WS2JOFB&tp_b=3NC5L260MP8NECOK3IPEI08WS2JOFB&c=365633&tp_c=365633"},{"rt":7927,"stimulus":"\n        <h3>Please read this consent agreement carefully before deciding whether to participate in this experiment.</h3>\n        <p><b>Purpose of the research:</b> To examine how people teach effectively.</p>\n        <p><b>What you will do in this research:</b> You will teach students the weights of different coins.</p>\n        <p><b>Time required:</b> This experiment will take 45 minutes to complete.</p>\n        <p><b>Risks:</b> There are no anticipated risks associated with participating in this study.             The effects of participating should be comparable to those you would experience from viewing a computer monitor             and using a mouse and keyboard for the duration of the experiment.</p>\n        <p><b>Benefits:</b> The study provides important information about the nature of teaching.</p>\n        <p><b>Compensation:</b> You will receive <b>$8</b> for completing the experiment and a performance bonus of up to <b>$9</b>.</p>\n        <p><b>Confidentiality:</b> Your participation in this study will remain confidential.             No personally identifiable information will be associated with your data.             Your de-identified data may be shared with other researchers and used in future projects.</p>\n        <p><b>Participation and withdrawal:</b> Your participation in this study is completely voluntary and             you may refuse to participate or you may choose to withdraw at any time without penalty or loss of\n            benefits to which you are otherwise entitled.</p>\n        <p><b>How to contact the researcher:</b> If you have questions or concerns about your participation            or payment, or want to request a summary of research findings, please contact\n            Alicia Chen, aliciachen@college.harvard.edu.</p>\n        <p><b>Whom to contact about your rights in this research:</b> For questions, concerns, suggestions,             or complaints that have not been or cannot be addressed by the researcher, or to report             research-related harm, please contact the Committee on the Use of Human Subjects in Research at Harvard University,             1414 Massachusetts Avenue, Second Floor, Cambridge, MA 02138. Phone: 617-496-2847. Email: cuhs@fas.harvard.edu.</p>\n        ","response":0,"trial_type":"html-button-response","trial_index":1,"time_elapsed":14528,"internal_node_id":"0.0-1.0","params":{"nStudents":24,"maxFlips":25,"completionMinutes":45,"basePay":8,"maxBonus":9,"perTrialBonus":0.5,"perTrialBonusThreshold":0.05,"exampleCost":0.02},"classroomParams":{"A":{"a":1,"b":4},"B":{"a":4,"b":1},"C":{"a":2,"b":8},"D":{"a":8,"b":2}},"conditions":["nonSeqFull","nonSeqPartial","seqNoFeedback","seqFeedback"],"classroomPairings":[["A","B"],["C","D"]],"coinWeights":[0.2,0.5,0.8],"subjectId":"A6Y7SZU9L301W","assignmentId":"3NC5L260MP8NECOK3IPEI08WS2JOFB","hitId":"3XUY87HIVP03YZXVLN9CW37DVI1MM2","url":"https://gershmanlab.com/experiments/alicia/teaching/experiment/?hitId=3XUY87HIVP03YZXVLN9CW37DVI1MM2&workerId=A6Y7SZU9L301W&assignmentId=3NC5L260MP8NECOK3IPEI08WS2JOFB&a=0LCN3&tp_a=0LCN3&b=3NC5L260MP8NECOK3IPEI08WS2JOFB&tp_b=3NC5L260MP8NECOK3IPEI08WS2JOFB&c=365633&tp_c=365633"},{"view_history":[{"page_index":0,"viewing_time":12249},{"page_index":1,"viewing_time":2197},{"page_index":2,"viewing_time":27801},{"page_index":3,"viewing_time":17306},{"page_index":4,"viewing_time":9903},{"page_index":5,"viewing_time":30971},{"page_index":6,"viewing_time":44708}],"rt":145136,"trial_type":"instructions","trial_index":2,"time_elapsed":159662,"internal_node_id":"0.0-2.0-0.0","params":{"nStudents":24,"maxFlips":25,"completionMinutes":45,"basePay":8,"maxBonus":9,"perTrialBonus":0.5,"perTrialBonusThreshold":0.05,"exampleCost":0.02},"classroomParams":{"A":{"a":1,"b":4},"B":{"a":4,"b":1},"C":{"a":2,"b":8},"D":{"a":8,"b":2}},"conditions":["nonSeqFull","nonSeqPartial","seqNoFeedback","seqFeedback"],"classroomPairings":[["A","B"],["C","D"]],"coinWeights":[0.2,0.5,0.8],"subjectId":"A6Y7SZU9L301W","assignmentId":"3NC5L260MP8NECOK3IPEI08WS2JOFB","hitId":"3XUY87HIVP03YZXVLN9CW37DVI1MM2","url":"https://gershmanlab.com/experiments/alicia/teaching/experiment/?hitId=3XUY87HIVP03YZXVLN9CW37DVI1MM2&workerId=A6Y7SZU9L301W&assignmentId=3NC5L260MP8NECOK3IPEI08WS2JOFB&a=0LCN3&tp_a=0LCN3&b=3NC5L260MP8NECOK3IPEI08WS2JOFB&tp_b=3NC5L260MP8NECOK3IPEI08WS2JOFB&c=365633&tp_c=365633"},{"rt":243683,"response":{"Q0":"Students in different classrooms will have seen a different number of heads and tails before seeing the examples you select for them.","Q1":"By <b>considering the student's classroom information</b> so that I can teach efficiently and accurately/helpfully at the same time (because each example I give to the student costs money!).","Q2":"The coin lands heads 90% of the time.","Q3":"Yes, I might encounter the same student twice.","Q4":"The students are also on the same alien planet as you, where coins can be unfair.","Q5":"Based on the student's second (and final) guess."},"question_order":[2,3,0,4,5,1],"trial_type":"survey-multi-choice","trial_index":3,"time_elapsed":403343,"internal_node_id":"0.0-2.0-1.0","params":{"nStudents":24,"maxFlips":25,"completionMinutes":45,"basePay":8,"maxBonus":9,"perTrialBonus":0.5,"perTrialBonusThreshold":0.05,"exampleCost":0.02},"classroomParams":{"A":{"a":1,"b":4},"B":{"a":4,"b":1},"C":{"a":2,"b":8},"D":{"a":8,"b":2}},"conditions":["nonSeqFull","nonSeqPartial","seqNoFeedback","seqFeedback"],"classroomPairings":[["A","B"],["C","D"]],"coinWeights":[0.2,0.5,0.8],"subjectId":"A6Y7SZU9L301W","assignmentId":"3NC5L260MP8NECOK3IPEI08WS2JOFB","hitId":"3XUY87HIVP03YZXVLN9CW37DVI1MM2","url":"https://gershmanlab.com/experiments/alicia/teaching/experiment/?hitId=3XUY87HIVP03YZXVLN9CW37DVI1MM2&workerId=A6Y7SZU9L301W&assignmentId=3NC5L260MP8NECOK3IPEI08WS2JOFB&a=0LCN3&tp_a=0LCN3&b=3NC5L260MP8NECOK3IPEI08WS2JOFB&tp_b=3NC5L260MP8NECOK3IPEI08WS2JOFB&c=365633&tp_c=365633","pass":false},{"rt":2421,"stimulus":"Oops, you have missed question(s) on the comprehension check! We'll show you the instructions again.","response":0,"trial_type":"html-button-response","trial_index":4,"time_elapsed":405768,"internal_node_id":"0.0-2.0-2.0-0.0","params":{"nStudents":24,"maxFlips":25,"completionMinutes":45,"basePay":8,"maxBonus":9,"perTrialBonus":0.5,"perTrialBonusThreshold":0.05,"exampleCost":0.02},"classroomParams":{"A":{"a":1,"b":4},"B":{"a":4,"b":1},"C":{"a":2,"b":8},"D":{"a":8,"b":2}},"conditions":["nonSeqFull","nonSeqPartial","seqNoFeedback","seqFeedback"],"classroomPairings":[["A","B"],["C","D"]],"coinWeights":[0.2,0.5,0.8],"subjectId":"A6Y7SZU9L301W","assignmentId":"3NC5L260MP8NECOK3IPEI08WS2JOFB","hitId":"3XUY87HIVP03YZXVLN9CW37DVI1MM2","url":"https://gershmanlab.com/experiments/alicia/teaching/experiment/?hitId=3XUY87HIVP03YZXVLN9CW37DVI1MM2&workerId=A6Y7SZU9L301W&assignmentId=3NC5L260MP8NECOK3IPEI08WS2JOFB&a=0LCN3&tp_a=0LCN3&b=3NC5L260MP8NECOK3IPEI08WS2JOFB&tp_b=3NC5L260MP8NECOK3IPEI08WS2JOFB&c=365633&tp_c=365633"},{"view_history":[{"page_index":0,"viewing_time":842},{"page_index":1,"viewing_time":177},{"page_index":2,"viewing_time":1075},{"page_index":3,"viewing_time":255},{"page_index":4,"viewing_time":925},{"page_index":5,"viewing_time":1072},{"page_index":6,"viewing_time":621}],"rt":4968,"trial_type":"instructions","trial_index":5,"time_elapsed":410736,"internal_node_id":"0.0-2.1-0.1","params":{"nStudents":24,"maxFlips":25,"completionMinutes":45,"basePay":8,"maxBonus":9,"perTrialBonus":0.5,"perTrialBonusThreshold":0.05,"exampleCost":0.02},"classroomParams":{"A":{"a":1,"b":4},"B":{"a":4,"b":1},"C":{"a":2,"b":8},"D":{"a":8,"b":2}},"conditions":["nonSeqFull","nonSeqPartial","seqNoFeedback","seqFeedback"],"classroomPairings":[["A","B"],["C","D"]],"coinWeights":[0.2,0.5,0.8],"subjectId":"A6Y7SZU9L301W","assignmentId":"3NC5L260MP8NECOK3IPEI08WS2JOFB","hitId":"3XUY87HIVP03YZXVLN9CW37DVI1MM2","url":"https://gershmanlab.com/experiments/alicia/teaching/experiment/?hitId=3XUY87HIVP03YZXVLN9CW37DVI1MM2&workerId=A6Y7SZU9L301W&assignmentId=3NC5L260MP8NECOK3IPEI08WS2JOFB&a=0LCN3&tp_a=0LCN3&b=3NC5L260MP8NECOK3IPEI08WS2JOFB&tp_b=3NC5L260MP8NECOK3IPEI08WS2JOFB&c=365633&tp_c=365633"},{"rt":97345,"response":{"Q0":"Students in different classrooms will have seen a different number of heads and tails before seeing the examples you select for them.","Q1":"By <b>considering the student's classroom information</b> so that I can teach efficiently and accurately/helpfully at the same time (because each example I give to the student costs money!).","Q2":"The coin lands heads 90% of the time.","Q3":"No, I will teach a <b>new</b> student each time.","Q4":"The students are also on the same alien planet as you, where coins can be unfair.","Q5":"Based on the student's second (and final) guess."},"question_order":[3,1,5,0,4,2],"trial_type":"survey-multi-choice","trial_index":6,"time_elapsed":508080,"internal_node_id":"0.0-2.1-1.1","params":{"nStudents":24,"maxFlips":25,"completionMinutes":45,"basePay":8,"maxBonus":9,"perTrialBonus":0.5,"perTrialBonusThreshold":0.05,"exampleCost":0.02},"classroomParams":{"A":{"a":1,"b":4},"B":{"a":4,"b":1},"C":{"a":2,"b":8},"D":{"a":8,"b":2}},"conditions":["nonSeqFull","nonSeqPartial","seqNoFeedback","seqFeedback"],"classroomPairings":[["A","B"],["C","D"]],"coinWeights":[0.2,0.5,0.8],"subjectId":"A6Y7SZU9L301W","assignmentId":"3NC5L260MP8NECOK3IPEI08WS2JOFB","hitId":"3XUY87HIVP03YZXVLN9CW37DVI1MM2","url":"https://gershmanlab.com/experiments/alicia/teaching/experiment/?hitId=3XUY87HIVP03YZXVLN9CW37DVI1MM2&workerId=A6Y7SZU9L301W&assignmentId=3NC5L260MP8NECOK3IPEI08WS2JOFB&a=0LCN3&tp_a=0LCN3&b=3NC5L260MP8NECOK3IPEI08WS2JOFB&tp_b=3NC5L260MP8NECOK3IPEI08WS2JOFB&c=365633&tp_c=365633","pass":true},{"rt":null,"stimulus":"<div style=\"font-size:30px;\">Congrats on passing the comprehension quiz! The experiment will begin in a few seconds.</div>","response":null,"trial_type":"html-keyboard-response","trial_index":7,"time_elapsed":511085,"internal_node_id":"0.0-3.0","params":{"nStudents":24,"maxFlips":25,"completionMinutes":45,"basePay":8,"maxBonus":9,"perTrialBonus":0.5,"perTrialBonusThreshold":0.05,"exampleCost":0.02},"classroomParams":{"A":{"a":1,"b":4},"B":{"a":4,"b":1},"C":{"a":2,"b":8},"D":{"a":8,"b":2}},"conditions":["nonSeqFull","nonSeqPartial","seqNoFeedback","seqFeedback"],"classroomPairings":[["A","B"],["C","D"]],"coinWeights":[0.2,0.5,0.8],"subjectId":"A6Y7SZU9L301W","assignmentId":"3NC5L260MP8NECOK3IPEI08WS2JOFB","hitId":"3XUY87HIVP03YZXVLN9CW37DVI1MM2","url":"https://gershmanlab.com/experiments/alicia/teaching/experiment/?hitId=3XUY87HIVP03YZXVLN9CW37DVI1MM2&workerId=A6Y7SZU9L301W&assignmentId=3NC5L260MP8NECOK3IPEI08WS2JOFB&a=0LCN3&tp_a=0LCN3&b=3NC5L260MP8NECOK3IPEI08WS2JOFB&tp_b=3NC5L260MP8NECOK3IPEI08WS2JOFB&c=365633&tp_c=365633"},{"rt":null,"stimulus":"<div style=\"font-size:50px;\">First student</div>","response":null,"trial_type":"html-keyboard-response","trial_index":8,"time_elapsed":514088,"internal_node_id":"0.0-4.0","params":{"nStudents":24,"maxFlips":25,"completionMinutes":45,"basePay":8,"maxBonus":9,"perTrialBonus":0.5,"perTrialBonusThreshold":0.05,"exampleCost":0.02},"classroomParams":{"A":{"a":1,"b":4},"B":{"a":4,"b":1},"C":{"a":2,"b":8},"D":{"a":8,"b":2}},"conditions":["nonSeqFull","nonSeqPartial","seqNoFeedback","seqFeedback"],"classroomPairings":[["A","B"],["C","D"]],"coinWeights":[0.2,0.5,0.8],"subjectId":"A6Y7SZU9L301W","assignmentId":"3NC5L260MP8NECOK3IPEI08WS2JOFB","hitId":"3XUY87HIVP03YZXVLN9CW37DVI1MM2","url":"https://gershmanlab.com/experiments/alicia/teaching/experiment/?hitId=3XUY87HIVP03YZXVLN9CW37DVI1MM2&workerId=A6Y7SZU9L301W&assignmentId=3NC5L260MP8NECOK3IPEI08WS2JOFB&a=0LCN3&tp_a=0LCN3&b=3NC5L260MP8NECOK3IPEI08WS2JOFB&tp_b=3NC5L260MP8NECOK3IPEI08WS2JOFB&c=365633&tp_c=365633"},{"rt":7172,"stimulus":"\n            <h4 style=\"color:Orange;\">Student 1</h4>\n            <h2>The weight of your coin is <b style=\"color:Tomato;\">0.5</b>.</h2>\n            <p>In this block, you will be giving <b>two</b> sets of examples to Student 1.</p>\n                <p>You will receive feedback at the end of the block.</p>\n            <p></p>","response":0,"trial_type":"html-button-response","trial_index":9,"time_elapsed":521261,"internal_node_id":"0.0-5.0","params":{"nStudents":24,"maxFlips":25,"completionMinutes":45,"basePay":8,"maxBonus":9,"perTrialBonus":0.5,"perTrialBonusThreshold":0.05,"exampleCost":0.02},"classroomParams":{"A":{"a":1,"b":4},"B":{"a":4,"b":1},"C":{"a":2,"b":8},"D":{"a":8,"b":2}},"conditions":["nonSeqFull","nonSeqPartial","seqNoFeedback","seqFeedback"],"classroomPairings":[["A","B"],["C","D"]],"coinWeights":[0.2,0.5,0.8],"subjectId":"A6Y7SZU9L301W","assignmentId":"3NC5L260MP8NECOK3IPEI08WS2JOFB","hitId":"3XUY87HIVP03YZXVLN9CW37DVI1MM2","url":"https://gershmanlab.com/experiments/alicia/teaching/experiment/?hitId=3XUY87HIVP03YZXVLN9CW37DVI1MM2&workerId=A6Y7SZU9L301W&assignmentId=3NC5L260MP8NECOK3IPEI08WS2JOFB&a=0LCN3&tp_a=0LCN3&b=3NC5L260MP8NECOK3IPEI08WS2JOFB&tp_b=3NC5L260MP8NECOK3IPEI08WS2JOFB&c=365633&tp_c=365633"},{"rt":26670,"response":{"heads":"0","tails":"0"},"type":"response","condition":"seqNoFeedback","trueTheta":0.5,"classrooms":["A","B"],"studentTrueClassroom":"B","exampleSet":"first","trial_type":"survey-html-form","trial_index":10,"time_elapsed":547931,"internal_node_id":"0.0-6.0-0.0","params":{"nStudents":24,"maxFlips":25,"completionMinutes":45,"basePay":8,"maxBonus":9,"perTrialBonus":0.5,"perTrialBonusThreshold":0.05,"exampleCost":0.02},"classroomParams":{"A":{"a":1,"b":4},"B":{"a":4,"b":1},"C":{"a":2,"b":8},"D":{"a":8,"b":2}},"conditions":["nonSeqFull","nonSeqPartial","seqNoFeedback","seqFeedback"],"classroomPairings":[["A","B"],["C","D"]],"coinWeights":[0.2,0.5,0.8],"subjectId":"A6Y7SZU9L301W","assignmentId":"3NC5L260MP8NECOK3IPEI08WS2JOFB","hitId":"3XUY87HIVP03YZXVLN9CW37DVI1MM2","url":"https://gershmanlab.com/experiments/alicia/teaching/experiment/?hitId=3XUY87HIVP03YZXVLN9CW37DVI1MM2&workerId=A6Y7SZU9L301W&assignmentId=3NC5L260MP8NECOK3IPEI08WS2JOFB&a=0LCN3&tp_a=0LCN3&b=3NC5L260MP8NECOK3IPEI08WS2JOFB&tp_b=3NC5L260MP8NECOK3IPEI08WS2JOFB&c=365633&tp_c=365633","heads":0,"tails":0,"studentIndex":0,"studentTrueHypers":{"a":4,"b":1},"studentGuess":0.8,"delta":0.30000000000000004,"totalExamples":0,"bonusSoFar":0},{"rt":4654,"response":{"heads":"0","tails":"0"},"type":"response","condition":"seqNoFeedback","trueTheta":0.5,"classrooms":["A","B"],"studentTrueClassroom":"B","exampleSet":"first","trial_type":"survey-html-form","trial_index":11,"time_elapsed":552587,"internal_node_id":"0.0-6.1-0.1","params":{"nStudents":24,"maxFlips":25,"completionMinutes":45,"basePay":8,"maxBonus":9,"perTrialBonus":0.5,"perTrialBonusThreshold":0.05,"exampleCost":0.02},"classroomParams":{"A":{"a":1,"b":4},"B":{"a":4,"b":1},"C":{"a":2,"b":8},"D":{"a":8,"b":2}},"conditions":["nonSeqFull","nonSeqPartial","seqNoFeedback","seqFeedback"],"classroomPairings":[["A","B"],["C","D"]],"coinWeights":[0.2,0.5,0.8],"subjectId":"A6Y7SZU9L301W","assignmentId":"3NC5L260MP8NECOK3IPEI08WS2JOFB","hitId":"3XUY87HIVP03YZXVLN9CW37DVI1MM2","url":"https://gershmanlab.com/experiments/alicia/teaching/experiment/?hitId=3XUY87HIVP03YZXVLN9CW37DVI1MM2&workerId=A6Y7SZU9L301W&assignmentId=3NC5L260MP8NECOK3IPEI08WS2JOFB&a=0LCN3&tp_a=0LCN3&b=3NC5L260MP8NECOK3IPEI08WS2JOFB&tp_b=3NC5L260MP8NECOK3IPEI08WS2JOFB&c=365633&tp_c=365633","heads":0,"tails":0,"studentIndex":0,"studentTrueHypers":{"a":4,"b":1},"studentGuess":0.8,"delta":0.30000000000000004,"totalExamples":0,"bonusSoFar":0},{"rt":3915,"response":{"heads":"0","tails":"0"},"type":"response","condition":"seqNoFeedback","trueTheta":0.5,"classrooms":["A","B"],"studentTrueClassroom":"B","exampleSet":"first","trial_type":"survey-html-form","trial_index":12,"time_elapsed":556503,"internal_node_id":"0.0-6.2-0.2","params":{"nStudents":24,"maxFlips":25,"completionMinutes":45,"basePay":8,"maxBonus":9,"perTrialBonus":0.5,"perTrialBonusThreshold":0.05,"exampleCost":0.02},"classroomParams":{"A":{"a":1,"b":4},"B":{"a":4,"b":1},"C":{"a":2,"b":8},"D":{"a":8,"b":2}},"conditions":["nonSeqFull","nonSeqPartial","seqNoFeedback","seqFeedback"],"classroomPairings":[["A","B"],["C","D"]],"coinWeights":[0.2,0.5,0.8],"subjectId":"A6Y7SZU9L301W","assignmentId":"3NC5L260MP8NECOK3IPEI08WS2JOFB","hitId":"3XUY87HIVP03YZXVLN9CW37DVI1MM2","url":"https://gershmanlab.com/experiments/alicia/teaching/experiment/?hitId=3XUY87HIVP03YZXVLN9CW37DVI1MM2&workerId=A6Y7SZU9L301W&assignmentId=3NC5L260MP8NECOK3IPEI08WS2JOFB&a=0LCN3&tp_a=0LCN3&b=3NC5L260MP8NECOK3IPEI08WS2JOFB&tp_b=3NC5L260MP8NECOK3IPEI08WS2JOFB&c=365633&tp_c=365633","heads":0,"tails":0,"studentIndex":0,"studentTrueHypers":{"a":4,"b":1},"studentGuess":0.8,"delta":0.30000000000000004,"totalExamples":0,"bonusSoFar":0},{"rt":10146,"response":{"heads":"1","tails":"0"},"type":"response","condition":"seqNoFeedback","trueTheta":0.5,"classrooms":["A","B"],"studentTrueClassroom":"B","exampleSet":"first","trial_type":"survey-html-form","trial_index":13,"time_elapsed":566650,"internal_node_id":"0.0-6.3-0.3","params":{"nStudents":24,"maxFlips":25,"completionMinutes":45,"basePay":8,"maxBonus":9,"perTrialBonus":0.5,"perTrialBonusThreshold":0.05,"exampleCost":0.02},"classroomParams":{"A":{"a":1,"b":4},"B":{"a":4,"b":1},"C":{"a":2,"b":8},"D":{"a":8,"b":2}},"conditions":["nonSeqFull","nonSeqPartial","seqNoFeedback","seqFeedback"],"classroomPairings":[["A","B"],["C","D"]],"coinWeights":[0.2,0.5,0.8],"subjectId":"A6Y7SZU9L301W","assignmentId":"3NC5L260MP8NECOK3IPEI08WS2JOFB","hitId":"3XUY87HIVP03YZXVLN9CW37DVI1MM2","url":"https://gershmanlab.com/experiments/alicia/teaching/experiment/?hitId=3XUY87HIVP03YZXVLN9CW37DVI1MM2&workerId=A6Y7SZU9L301W&assignmentId=3NC5L260MP8NECOK3IPEI08WS2JOFB&a=0LCN3&tp_a=0LCN3&b=3NC5L260MP8NECOK3IPEI08WS2JOFB&tp_b=3NC5L260MP8NECOK3IPEI08WS2JOFB&c=365633&tp_c=365633","heads":1,"tails":0,"studentIndex":0,"studentTrueHypers":{"a":4,"b":1},"studentGuess":0.8333333333333334,"delta":0.33333333333333337,"totalExamples":1,"bonusSoFar":0},{"rt":null,"stimulus":"Sending examples to student... ","response":null,"trial_type":"html-keyboard-response","trial_index":14,"time_elapsed":568152,"internal_node_id":"0.0-7.0","params":{"nStudents":24,"maxFlips":25,"completionMinutes":45,"basePay":8,"maxBonus":9,"perTrialBonus":0.5,"perTrialBonusThreshold":0.05,"exampleCost":0.02},"classroomParams":{"A":{"a":1,"b":4},"B":{"a":4,"b":1},"C":{"a":2,"b":8},"D":{"a":8,"b":2}},"conditions":["nonSeqFull","nonSeqPartial","seqNoFeedback","seqFeedback"],"classroomPairings":[["A","B"],["C","D"]],"coinWeights":[0.2,0.5,0.8],"subjectId":"A6Y7SZU9L301W","assignmentId":"3NC5L260MP8NECOK3IPEI08WS2JOFB","hitId":"3XUY87HIVP03YZXVLN9CW37DVI1MM2","url":"https://gershmanlab.com/experiments/alicia/teaching/experiment/?hitId=3XUY87HIVP03YZXVLN9CW37DVI1MM2&workerId=A6Y7SZU9L301W&assignmentId=3NC5L260MP8NECOK3IPEI08WS2JOFB&a=0LCN3&tp_a=0LCN3&b=3NC5L260MP8NECOK3IPEI08WS2JOFB&tp_b=3NC5L260MP8NECOK3IPEI08WS2JOFB&c=365633&tp_c=365633"},{"rt":null,"stimulus":"Examples sent to student! Waiting for student...","response":null,"trial_type":"html-keyboard-response","trial_index":15,"time_elapsed":573654,"internal_node_id":"0.0-8.0","params":{"nStudents":24,"maxFlips":25,"completionMinutes":45,"basePay":8,"maxBonus":9,"perTrialBonus":0.5,"perTrialBonusThreshold":0.05,"exampleCost":0.02},"classroomParams":{"A":{"a":1,"b":4},"B":{"a":4,"b":1},"C":{"a":2,"b":8},"D":{"a":8,"b":2}},"conditions":["nonSeqFull","nonSeqPartial","seqNoFeedback","seqFeedback"],"classroomPairings":[["A","B"],["C","D"]],"coinWeights":[0.2,0.5,0.8],"subjectId":"A6Y7SZU9L301W","assignmentId":"3NC5L260MP8NECOK3IPEI08WS2JOFB","hitId":"3XUY87HIVP03YZXVLN9CW37DVI1MM2","url":"https://gershmanlab.com/experiments/alicia/teaching/experiment/?hitId=3XUY87HIVP03YZXVLN9CW37DVI1MM2&workerId=A6Y7SZU9L301W&assignmentId=3NC5L260MP8NECOK3IPEI08WS2JOFB&a=0LCN3&tp_a=0LCN3&b=3NC5L260MP8NECOK3IPEI08WS2JOFB&tp_b=3NC5L260MP8NECOK3IPEI08WS2JOFB&c=365633&tp_c=365633"},{"rt":6414,"response":{"heads":"1","tails":"0"},"type":"response","condition":"seqNoFeedback","trueTheta":0.5,"classrooms":["A","B"],"studentTrueClassroom":"B","exampleSet":"second","trial_type":"survey-html-form","trial_index":16,"time_elapsed":580069,"internal_node_id":"0.0-9.0-0.0","params":{"nStudents":24,"maxFlips":25,"completionMinutes":45,"basePay":8,"maxBonus":9,"perTrialBonus":0.5,"perTrialBonusThreshold":0.05,"exampleCost":0.02},"classroomParams":{"A":{"a":1,"b":4},"B":{"a":4,"b":1},"C":{"a":2,"b":8},"D":{"a":8,"b":2}},"conditions":["nonSeqFull","nonSeqPartial","seqNoFeedback","seqFeedback"],"classroomPairings":[["A","B"],["C","D"]],"coinWeights":[0.2,0.5,0.8],"subjectId":"A6Y7SZU9L301W","assignmentId":"3NC5L260MP8NECOK3IPEI08WS2JOFB","hitId":"3XUY87HIVP03YZXVLN9CW37DVI1MM2","url":"https://gershmanlab.com/experiments/alicia/teaching/experiment/?hitId=3XUY87HIVP03YZXVLN9CW37DVI1MM2&workerId=A6Y7SZU9L301W&assignmentId=3NC5L260MP8NECOK3IPEI08WS2JOFB&a=0LCN3&tp_a=0LCN3&b=3NC5L260MP8NECOK3IPEI08WS2JOFB&tp_b=3NC5L260MP8NECOK3IPEI08WS2JOFB&c=365633&tp_c=365633","firstResponseHeads":0,"firstResponseTails":0,"secondResponseHeads":1,"secondResponseTails":0,"totalHeads":1,"totalTails":0,"studentIndex":0,"studentTrueHypers":{"a":4,"b":1},"studentGuess":0.8333333333333334,"delta":0.33333333333333337,"bonus":0,"bonusSoFar":0,"totalExamples":1},{"rt":null,"stimulus":"Sending examples to student... ","response":null,"trial_type":"html-keyboard-response","trial_index":17,"time_elapsed":581820,"internal_node_id":"0.0-10.0","params":{"nStudents":24,"maxFlips":25,"completionMinutes":45,"basePay":8,"maxBonus":9,"perTrialBonus":0.5,"perTrialBonusThreshold":0.05,"exampleCost":0.02},"classroomParams":{"A":{"a":1,"b":4},"B":{"a":4,"b":1},"C":{"a":2,"b":8},"D":{"a":8,"b":2}},"conditions":["nonSeqFull","nonSeqPartial","seqNoFeedback","seqFeedback"],"classroomPairings":[["A","B"],["C","D"]],"coinWeights":[0.2,0.5,0.8],"subjectId":"A6Y7SZU9L301W","assignmentId":"3NC5L260MP8NECOK3IPEI08WS2JOFB","hitId":"3XUY87HIVP03YZXVLN9CW37DVI1MM2","url":"https://gershmanlab.com/experiments/alicia/teaching/experiment/?hitId=3XUY87HIVP03YZXVLN9CW37DVI1MM2&workerId=A6Y7SZU9L301W&assignmentId=3NC5L260MP8NECOK3IPEI08WS2JOFB&a=0LCN3&tp_a=0LCN3&b=3NC5L260MP8NECOK3IPEI08WS2JOFB&tp_b=3NC5L260MP8NECOK3IPEI08WS2JOFB&c=365633&tp_c=365633"},{"rt":null,"stimulus":"Examples sent to student! Waiting for student...","response":null,"trial_type":"html-keyboard-response","trial_index":18,"time_elapsed":587322,"internal_node_id":"0.0-11.0","params":{"nStudents":24,"maxFlips":25,"completionMinutes":45,"basePay":8,"maxBonus":9,"perTrialBonus":0.5,"perTrialBonusThreshold":0.05,"exampleCost":0.02},"classroomParams":{"A":{"a":1,"b":4},"B":{"a":4,"b":1},"C":{"a":2,"b":8},"D":{"a":8,"b":2}},"conditions":["nonSeqFull","nonSeqPartial","seqNoFeedback","seqFeedback"],"classroomPairings":[["A","B"],["C","D"]],"coinWeights":[0.2,0.5,0.8],"subjectId":"A6Y7SZU9L301W","assignmentId":"3NC5L260MP8NECOK3IPEI08WS2JOFB","hitId":"3XUY87HIVP03YZXVLN9CW37DVI1MM2","url":"https://gershmanlab.com/experiments/alicia/teaching/experiment/?hitId=3XUY87HIVP03YZXVLN9CW37DVI1MM2&workerId=A6Y7SZU9L301W&assignmentId=3NC5L260MP8NECOK3IPEI08WS2JOFB&a=0LCN3&tp_a=0LCN3&b=3NC5L260MP8NECOK3IPEI08WS2JOFB&tp_b=3NC5L260MP8NECOK3IPEI08WS2JOFB&c=365633&tp_c=365633"},{"rt":6621,"stimulus":"\n                <p>Student 1's first guess for coin weight: <b style=\"color:Tomato\";>0.80</b></p>\n                <p>Student 1's second guess for coin weight: <b style=\"color:Tomato\";>0.83</b></p>\n                <p>You received a bonus of <b>$0.00</b> based on the student's second guess.</p>\n                <p>Total bonus so far: <b>$0.00</b></p>\n                <p>Press any key to continue.</p>\n                ","response":" ","trial_type":"html-keyboard-response","trial_index":19,"time_elapsed":593944,"internal_node_id":"0.0-12.0","params":{"nStudents":24,"maxFlips":25,"completionMinutes":45,"basePay":8,"maxBonus":9,"perTrialBonus":0.5,"perTrialBonusThreshold":0.05,"exampleCost":0.02},"classroomParams":{"A":{"a":1,"b":4},"B":{"a":4,"b":1},"C":{"a":2,"b":8},"D":{"a":8,"b":2}},"conditions":["nonSeqFull","nonSeqPartial","seqNoFeedback","seqFeedback"],"classroomPairings":[["A","B"],["C","D"]],"coinWeights":[0.2,0.5,0.8],"subjectId":"A6Y7SZU9L301W","assignmentId":"3NC5L260MP8NECOK3IPEI08WS2JOFB","hitId":"3XUY87HIVP03YZXVLN9CW37DVI1MM2","url":"https://gershmanlab.com/experiments/alicia/teaching/experiment/?hitId=3XUY87HIVP03YZXVLN9CW37DVI1MM2&workerId=A6Y7SZU9L301W&assignmentId=3NC5L260MP8NECOK3IPEI08WS2JOFB&a=0LCN3&tp_a=0LCN3&b=3NC5L260MP8NECOK3IPEI08WS2JOFB&tp_b=3NC5L260MP8NECOK3IPEI08WS2JOFB&c=365633&tp_c=365633"},{"rt":null,"stimulus":"<div style=\"font-size:60px;\">Next student</div>","response":null,"trial_type":"html-keyboard-response","trial_index":20,"time_elapsed":595947,"internal_node_id":"0.0-13.0-0.0","params":{"nStudents":24,"maxFlips":25,"completionMinutes":45,"basePay":8,"maxBonus":9,"perTrialBonus":0.5,"perTrialBonusThreshold":0.05,"exampleCost":0.02},"classroomParams":{"A":{"a":1,"b":4},"B":{"a":4,"b":1},"C":{"a":2,"b":8},"D":{"a":8,"b":2}},"conditions":["nonSeqFull","nonSeqPartial","seqNoFeedback","seqFeedback"],"classroomPairings":[["A","B"],["C","D"]],"coinWeights":[0.2,0.5,0.8],"subjectId":"A6Y7SZU9L301W","assignmentId":"3NC5L260MP8NECOK3IPEI08WS2JOFB","hitId":"3XUY87HIVP03YZXVLN9CW37DVI1MM2","url":"https://gershmanlab.com/experiments/alicia/teaching/experiment/?hitId=3XUY87HIVP03YZXVLN9CW37DVI1MM2&workerId=A6Y7SZU9L301W&assignmentId=3NC5L260MP8NECOK3IPEI08WS2JOFB&a=0LCN3&tp_a=0LCN3&b=3NC5L260MP8NECOK3IPEI08WS2JOFB&tp_b=3NC5L260MP8NECOK3IPEI08WS2JOFB&c=365633&tp_c=365633"},{"rt":4156,"stimulus":"\n            <h4 style=\"color:Orange;\">Student 2</h4>\n            <h2>The weight of your coin is <b style=\"color:Tomato;\">0.5</b>.</h2>\n            <p>In this block, you will be giving <b>one</b> set of examples to Student 2.</p>\n                <p>You will receive feedback at the end of the block.</p>\n            <p></p>","response":0,"trial_type":"html-button-response","trial_index":21,"time_elapsed":600107,"internal_node_id":"0.0-14.0","params":{"nStudents":24,"maxFlips":25,"completionMinutes":45,"basePay":8,"maxBonus":9,"perTrialBonus":0.5,"perTrialBonusThreshold":0.05,"exampleCost":0.02},"classroomParams":{"A":{"a":1,"b":4},"B":{"a":4,"b":1},"C":{"a":2,"b":8},"D":{"a":8,"b":2}},"conditions":["nonSeqFull","nonSeqPartial","seqNoFeedback","seqFeedback"],"classroomPairings":[["A","B"],["C","D"]],"coinWeights":[0.2,0.5,0.8],"subjectId":"A6Y7SZU9L301W","assignmentId":"3NC5L260MP8NECOK3IPEI08WS2JOFB","hitId":"3XUY87HIVP03YZXVLN9CW37DVI1MM2","url":"https://gershmanlab.com/experiments/alicia/teaching/experiment/?hitId=3XUY87HIVP03YZXVLN9CW37DVI1MM2&workerId=A6Y7SZU9L301W&assignmentId=3NC5L260MP8NECOK3IPEI08WS2JOFB&a=0LCN3&tp_a=0LCN3&b=3NC5L260MP8NECOK3IPEI08WS2JOFB&tp_b=3NC5L260MP8NECOK3IPEI08WS2JOFB&c=365633&tp_c=365633"},{"rt":7416,"response":{"heads":"1","tails":"1"},"type":"response","condition":"nonSeqPartial","trueTheta":0.5,"classrooms":["A","B"],"studentTrueClassroom":"B","exampleSet":"first","trial_type":"survey-html-form","trial_index":22,"time_elapsed":607523,"internal_node_id":"0.0-15.0-0.0","params":{"nStudents":24,"maxFlips":25,"completionMinutes":45,"basePay":8,"maxBonus":9,"perTrialBonus":0.5,"perTrialBonusThreshold":0.05,"exampleCost":0.02},"classroomParams":{"A":{"a":1,"b":4},"B":{"a":4,"b":1},"C":{"a":2,"b":8},"D":{"a":8,"b":2}},"conditions":["nonSeqFull","nonSeqPartial","seqNoFeedback","seqFeedback"],"classroomPairings":[["A","B"],["C","D"]],"coinWeights":[0.2,0.5,0.8],"subjectId":"A6Y7SZU9L301W","assignmentId":"3NC5L260MP8NECOK3IPEI08WS2JOFB","hitId":"3XUY87HIVP03YZXVLN9CW37DVI1MM2","url":"https://gershmanlab.com/experiments/alicia/teaching/experiment/?hitId=3XUY87HIVP03YZXVLN9CW37DVI1MM2&workerId=A6Y7SZU9L301W&assignmentId=3NC5L260MP8NECOK3IPEI08WS2JOFB&a=0LCN3&tp_a=0LCN3&b=3NC5L260MP8NECOK3IPEI08WS2JOFB&tp_b=3NC5L260MP8NECOK3IPEI08WS2JOFB&c=365633&tp_c=365633","heads":1,"tails":1,"studentIndex":1,"studentTrueHypers":{"a":4,"b":1},"studentGuess":0.7142857142857143,"delta":0.2142857142857143,"totalExamples":2,"bonus":0,"bonusSoFar":0},{"rt":null,"stimulus":"Sending examples to student... ","response":null,"trial_type":"html-keyboard-response","trial_index":23,"time_elapsed":609274,"internal_node_id":"0.0-16.0","params":{"nStudents":24,"maxFlips":25,"completionMinutes":45,"basePay":8,"maxBonus":9,"perTrialBonus":0.5,"perTrialBonusThreshold":0.05,"exampleCost":0.02},"classroomParams":{"A":{"a":1,"b":4},"B":{"a":4,"b":1},"C":{"a":2,"b":8},"D":{"a":8,"b":2}},"conditions":["nonSeqFull","nonSeqPartial","seqNoFeedback","seqFeedback"],"classroomPairings":[["A","B"],["C","D"]],"coinWeights":[0.2,0.5,0.8],"subjectId":"A6Y7SZU9L301W","assignmentId":"3NC5L260MP8NECOK3IPEI08WS2JOFB","hitId":"3XUY87HIVP03YZXVLN9CW37DVI1MM2","url":"https://gershmanlab.com/experiments/alicia/teaching/experiment/?hitId=3XUY87HIVP03YZXVLN9CW37DVI1MM2&workerId=A6Y7SZU9L301W&assignmentId=3NC5L260MP8NECOK3IPEI08WS2JOFB&a=0LCN3&tp_a=0LCN3&b=3NC5L260MP8NECOK3IPEI08WS2JOFB&tp_b=3NC5L260MP8NECOK3IPEI08WS2JOFB&c=365633&tp_c=365633"},{"rt":null,"stimulus":"Examples sent to student! Waiting for student...","response":null,"trial_type":"html-keyboard-response","trial_index":24,"time_elapsed":614276,"internal_node_id":"0.0-17.0","params":{"nStudents":24,"maxFlips":25,"completionMinutes":45,"basePay":8,"maxBonus":9,"perTrialBonus":0.5,"perTrialBonusThreshold":0.05,"exampleCost":0.02},"classroomParams":{"A":{"a":1,"b":4},"B":{"a":4,"b":1},"C":{"a":2,"b":8},"D":{"a":8,"b":2}},"conditions":["nonSeqFull","nonSeqPartial","seqNoFeedback","seqFeedback"],"classroomPairings":[["A","B"],["C","D"]],"coinWeights":[0.2,0.5,0.8],"subjectId":"A6Y7SZU9L301W","assignmentId":"3NC5L260MP8NECOK3IPEI08WS2JOFB","hitId":"3XUY87HIVP03YZXVLN9CW37DVI1MM2","url":"https://gershmanlab.com/experiments/alicia/teaching/experiment/?hitId=3XUY87HIVP03YZXVLN9CW37DVI1MM2&workerId=A6Y7SZU9L301W&assignmentId=3NC5L260MP8NECOK3IPEI08WS2JOFB&a=0LCN3&tp_a=0LCN3&b=3NC5L260MP8NECOK3IPEI08WS2JOFB&tp_b=3NC5L260MP8NECOK3IPEI08WS2JOFB&c=365633&tp_c=365633"},{"rt":3700,"stimulus":"\n                <p>Student's guess for coin weight: <b style=\"color:Tomato;\">0.71</b></p>\n                <p>You received a bonus of <b>$0</b>. Total bonus so far: <b>$0.00</b></b></p>\n                <p></p>\n                <p>Press any key to continue.</p>\n                ","response":" ","trial_type":"html-keyboard-response","trial_index":25,"time_elapsed":617977,"internal_node_id":"0.0-18.0","params":{"nStudents":24,"maxFlips":25,"completionMinutes":45,"basePay":8,"maxBonus":9,"perTrialBonus":0.5,"perTrialBonusThreshold":0.05,"exampleCost":0.02},"classroomParams":{"A":{"a":1,"b":4},"B":{"a":4,"b":1},"C":{"a":2,"b":8},"D":{"a":8,"b":2}},"conditions":["nonSeqFull","nonSeqPartial","seqNoFeedback","seqFeedback"],"classroomPairings":[["A","B"],["C","D"]],"coinWeights":[0.2,0.5,0.8],"subjectId":"A6Y7SZU9L301W","assignmentId":"3NC5L260MP8NECOK3IPEI08WS2JOFB","hitId":"3XUY87HIVP03YZXVLN9CW37DVI1MM2","url":"https://gershmanlab.com/experiments/alicia/teaching/experiment/?hitId=3XUY87HIVP03YZXVLN9CW37DVI1MM2&workerId=A6Y7SZU9L301W&assignmentId=3NC5L260MP8NECOK3IPEI08WS2JOFB&a=0LCN3&tp_a=0LCN3&b=3NC5L260MP8NECOK3IPEI08WS2JOFB&tp_b=3NC5L260MP8NECOK3IPEI08WS2JOFB&c=365633&tp_c=365633"},{"rt":null,"stimulus":"<div style=\"font-size:60px;\">Next student</div>","response":null,"trial_type":"html-keyboard-response","trial_index":26,"time_elapsed":620478,"internal_node_id":"0.0-19.0-0.0","params":{"nStudents":24,"maxFlips":25,"completionMinutes":45,"basePay":8,"maxBonus":9,"perTrialBonus":0.5,"perTrialBonusThreshold":0.05,"exampleCost":0.02},"classroomParams":{"A":{"a":1,"b":4},"B":{"a":4,"b":1},"C":{"a":2,"b":8},"D":{"a":8,"b":2}},"conditions":["nonSeqFull","nonSeqPartial","seqNoFeedback","seqFeedback"],"classroomPairings":[["A","B"],["C","D"]],"coinWeights":[0.2,0.5,0.8],"subjectId":"A6Y7SZU9L301W","assignmentId":"3NC5L260MP8NECOK3IPEI08WS2JOFB","hitId":"3XUY87HIVP03YZXVLN9CW37DVI1MM2","url":"https://gershmanlab.com/experiments/alicia/teaching/experiment/?hitId=3XUY87HIVP03YZXVLN9CW37DVI1MM2&workerId=A6Y7SZU9L301W&assignmentId=3NC5L260MP8NECOK3IPEI08WS2JOFB&a=0LCN3&tp_a=0LCN3&b=3NC5L260MP8NECOK3IPEI08WS2JOFB&tp_b=3NC5L260MP8NECOK3IPEI08WS2JOFB&c=365633&tp_c=365633"},{"rt":4063,"stimulus":"\n            <h4 style=\"color:Orange;\">Student 3</h4>\n            <h2>The weight of your coin is <b style=\"color:Tomato;\">0.2</b>.</h2>\n            <p>In this block, you will be giving <b>two</b> sets of examples to Student 3.</p>\n                <p>You will receive feedback at the end of the block.</p>\n            <p></p>","response":0,"trial_type":"html-button-response","trial_index":27,"time_elapsed":624542,"internal_node_id":"0.0-20.0","params":{"nStudents":24,"maxFlips":25,"completionMinutes":45,"basePay":8,"maxBonus":9,"perTrialBonus":0.5,"perTrialBonusThreshold":0.05,"exampleCost":0.02},"classroomParams":{"A":{"a":1,"b":4},"B":{"a":4,"b":1},"C":{"a":2,"b":8},"D":{"a":8,"b":2}},"conditions":["nonSeqFull","nonSeqPartial","seqNoFeedback","seqFeedback"],"classroomPairings":[["A","B"],["C","D"]],"coinWeights":[0.2,0.5,0.8],"subjectId":"A6Y7SZU9L301W","assignmentId":"3NC5L260MP8NECOK3IPEI08WS2JOFB","hitId":"3XUY87HIVP03YZXVLN9CW37DVI1MM2","url":"https://gershmanlab.com/experiments/alicia/teaching/experiment/?hitId=3XUY87HIVP03YZXVLN9CW37DVI1MM2&workerId=A6Y7SZU9L301W&assignmentId=3NC5L260MP8NECOK3IPEI08WS2JOFB&a=0LCN3&tp_a=0LCN3&b=3NC5L260MP8NECOK3IPEI08WS2JOFB&tp_b=3NC5L260MP8NECOK3IPEI08WS2JOFB&c=365633&tp_c=365633"},{"rt":11042,"response":{"heads":"0","tails":"5"},"type":"response","condition":"seqNoFeedback","trueTheta":0.2,"classrooms":["A","B"],"studentTrueClassroom":"A","exampleSet":"first","trial_type":"survey-html-form","trial_index":28,"time_elapsed":635585,"internal_node_id":"0.0-21.0-0.0","params":{"nStudents":24,"maxFlips":25,"completionMinutes":45,"basePay":8,"maxBonus":9,"perTrialBonus":0.5,"perTrialBonusThreshold":0.05,"exampleCost":0.02},"classroomParams":{"A":{"a":1,"b":4},"B":{"a":4,"b":1},"C":{"a":2,"b":8},"D":{"a":8,"b":2}},"conditions":["nonSeqFull","nonSeqPartial","seqNoFeedback","seqFeedback"],"classroomPairings":[["A","B"],["C","D"]],"coinWeights":[0.2,0.5,0.8],"subjectId":"A6Y7SZU9L301W","assignmentId":"3NC5L260MP8NECOK3IPEI08WS2JOFB","hitId":"3XUY87HIVP03YZXVLN9CW37DVI1MM2","url":"https://gershmanlab.com/experiments/alicia/teaching/experiment/?hitId=3XUY87HIVP03YZXVLN9CW37DVI1MM2&workerId=A6Y7SZU9L301W&assignmentId=3NC5L260MP8NECOK3IPEI08WS2JOFB&a=0LCN3&tp_a=0LCN3&b=3NC5L260MP8NECOK3IPEI08WS2JOFB&tp_b=3NC5L260MP8NECOK3IPEI08WS2JOFB&c=365633&tp_c=365633","heads":0,"tails":5,"studentIndex":2,"studentTrueHypers":{"a":1,"b":4},"studentGuess":0.1,"delta":0.1,"totalExamples":5,"bonusSoFar":0},{"rt":null,"stimulus":"Sending examples to student... ","response":null,"trial_type":"html-keyboard-response","trial_index":29,"time_elapsed":636837,"internal_node_id":"0.0-22.0","params":{"nStudents":24,"maxFlips":25,"completionMinutes":45,"basePay":8,"maxBonus":9,"perTrialBonus":0.5,"perTrialBonusThreshold":0.05,"exampleCost":0.02},"classroomParams":{"A":{"a":1,"b":4},"B":{"a":4,"b":1},"C":{"a":2,"b":8},"D":{"a":8,"b":2}},"conditions":["nonSeqFull","nonSeqPartial","seqNoFeedback","seqFeedback"],"classroomPairings":[["A","B"],["C","D"]],"coinWeights":[0.2,0.5,0.8],"subjectId":"A6Y7SZU9L301W","assignmentId":"3NC5L260MP8NECOK3IPEI08WS2JOFB","hitId":"3XUY87HIVP03YZXVLN9CW37DVI1MM2","url":"https://gershmanlab.com/experiments/alicia/teaching/experiment/?hitId=3XUY87HIVP03YZXVLN9CW37DVI1MM2&workerId=A6Y7SZU9L301W&assignmentId=3NC5L260MP8NECOK3IPEI08WS2JOFB&a=0LCN3&tp_a=0LCN3&b=3NC5L260MP8NECOK3IPEI08WS2JOFB&tp_b=3NC5L260MP8NECOK3IPEI08WS2JOFB&c=365633&tp_c=365633"},{"rt":null,"stimulus":"Examples sent to student! Waiting for student...","response":null,"trial_type":"html-keyboard-response","trial_index":30,"time_elapsed":642338,"internal_node_id":"0.0-23.0","params":{"nStudents":24,"maxFlips":25,"completionMinutes":45,"basePay":8,"maxBonus":9,"perTrialBonus":0.5,"perTrialBonusThreshold":0.05,"exampleCost":0.02},"classroomParams":{"A":{"a":1,"b":4},"B":{"a":4,"b":1},"C":{"a":2,"b":8},"D":{"a":8,"b":2}},"conditions":["nonSeqFull","nonSeqPartial","seqNoFeedback","seqFeedback"],"classroomPairings":[["A","B"],["C","D"]],"coinWeights":[0.2,0.5,0.8],"subjectId":"A6Y7SZU9L301W","assignmentId":"3NC5L260MP8NECOK3IPEI08WS2JOFB","hitId":"3XUY87HIVP03YZXVLN9CW37DVI1MM2","url":"https://gershmanlab.com/experiments/alicia/teaching/experiment/?hitId=3XUY87HIVP03YZXVLN9CW37DVI1MM2&workerId=A6Y7SZU9L301W&assignmentId=3NC5L260MP8NECOK3IPEI08WS2JOFB&a=0LCN3&tp_a=0LCN3&b=3NC5L260MP8NECOK3IPEI08WS2JOFB&tp_b=3NC5L260MP8NECOK3IPEI08WS2JOFB&c=365633&tp_c=365633"},{"rt":3737,"response":{"heads":"0","tails":"5"},"type":"response","condition":"seqNoFeedback","trueTheta":0.2,"classrooms":["A","B"],"studentTrueClassroom":"A","exampleSet":"second","trial_type":"survey-html-form","trial_index":31,"time_elapsed":646076,"internal_node_id":"0.0-24.0-0.0","params":{"nStudents":24,"maxFlips":25,"completionMinutes":45,"basePay":8,"maxBonus":9,"perTrialBonus":0.5,"perTrialBonusThreshold":0.05,"exampleCost":0.02},"classroomParams":{"A":{"a":1,"b":4},"B":{"a":4,"b":1},"C":{"a":2,"b":8},"D":{"a":8,"b":2}},"conditions":["nonSeqFull","nonSeqPartial","seqNoFeedback","seqFeedback"],"classroomPairings":[["A","B"],["C","D"]],"coinWeights":[0.2,0.5,0.8],"subjectId":"A6Y7SZU9L301W","assignmentId":"3NC5L260MP8NECOK3IPEI08WS2JOFB","hitId":"3XUY87HIVP03YZXVLN9CW37DVI1MM2","url":"https://gershmanlab.com/experiments/alicia/teaching/experiment/?hitId=3XUY87HIVP03YZXVLN9CW37DVI1MM2&workerId=A6Y7SZU9L301W&assignmentId=3NC5L260MP8NECOK3IPEI08WS2JOFB&a=0LCN3&tp_a=0LCN3&b=3NC5L260MP8NECOK3IPEI08WS2JOFB&tp_b=3NC5L260MP8NECOK3IPEI08WS2JOFB&c=365633&tp_c=365633","firstResponseHeads":0,"firstResponseTails":5,"secondResponseHeads":0,"secondResponseTails":5,"totalHeads":0,"totalTails":10,"studentIndex":2,"studentTrueHypers":{"a":1,"b":4},"studentGuess":0.06666666666666667,"delta":0.13333333333333336,"bonus":0,"bonusSoFar":0,"totalExamples":10},{"rt":null,"stimulus":"Sending examples to student... ","response":null,"trial_type":"html-keyboard-response","trial_index":32,"time_elapsed":648078,"internal_node_id":"0.0-25.0","params":{"nStudents":24,"maxFlips":25,"completionMinutes":45,"basePay":8,"maxBonus":9,"perTrialBonus":0.5,"perTrialBonusThreshold":0.05,"exampleCost":0.02},"classroomParams":{"A":{"a":1,"b":4},"B":{"a":4,"b":1},"C":{"a":2,"b":8},"D":{"a":8,"b":2}},"conditions":["nonSeqFull","nonSeqPartial","seqNoFeedback","seqFeedback"],"classroomPairings":[["A","B"],["C","D"]],"coinWeights":[0.2,0.5,0.8],"subjectId":"A6Y7SZU9L301W","assignmentId":"3NC5L260MP8NECOK3IPEI08WS2JOFB","hitId":"3XUY87HIVP03YZXVLN9CW37DVI1MM2","url":"https://gershmanlab.com/experiments/alicia/teaching/experiment/?hitId=3XUY87HIVP03YZXVLN9CW37DVI1MM2&workerId=A6Y7SZU9L301W&assignmentId=3NC5L260MP8NECOK3IPEI08WS2JOFB&a=0LCN3&tp_a=0LCN3&b=3NC5L260MP8NECOK3IPEI08WS2JOFB&tp_b=3NC5L260MP8NECOK3IPEI08WS2JOFB&c=365633&tp_c=365633"},{"rt":null,"stimulus":"Examples sent to student! Waiting for student...","response":null,"trial_type":"html-keyboard-response","trial_index":33,"time_elapsed":654080,"internal_node_id":"0.0-26.0","params":{"nStudents":24,"maxFlips":25,"completionMinutes":45,"basePay":8,"maxBonus":9,"perTrialBonus":0.5,"perTrialBonusThreshold":0.05,"exampleCost":0.02},"classroomParams":{"A":{"a":1,"b":4},"B":{"a":4,"b":1},"C":{"a":2,"b":8},"D":{"a":8,"b":2}},"conditions":["nonSeqFull","nonSeqPartial","seqNoFeedback","seqFeedback"],"classroomPairings":[["A","B"],["C","D"]],"coinWeights":[0.2,0.5,0.8],"subjectId":"A6Y7SZU9L301W","assignmentId":"3NC5L260MP8NECOK3IPEI08WS2JOFB","hitId":"3XUY87HIVP03YZXVLN9CW37DVI1MM2","url":"https://gershmanlab.com/experiments/alicia/teaching/experiment/?hitId=3XUY87HIVP03YZXVLN9CW37DVI1MM2&workerId=A6Y7SZU9L301W&assignmentId=3NC5L260MP8NECOK3IPEI08WS2JOFB&a=0LCN3&tp_a=0LCN3&b=3NC5L260MP8NECOK3IPEI08WS2JOFB&tp_b=3NC5L260MP8NECOK3IPEI08WS2JOFB&c=365633&tp_c=365633"},{"rt":11975,"stimulus":"\n                <p>Student 3's first guess for coin weight: <b style=\"color:Tomato\";>0.10</b></p>\n                <p>Student 3's second guess for coin weight: <b style=\"color:Tomato\";>0.07</b></p>\n                <p>You received a bonus of <b>$0.00</b> based on the student's second guess.</p>\n                <p>Total bonus so far: <b>$0.00</b></p>\n                <p>Press any key to continue.</p>\n                ","response":" ","trial_type":"html-keyboard-response","trial_index":34,"time_elapsed":666058,"internal_node_id":"0.0-27.0","params":{"nStudents":24,"maxFlips":25,"completionMinutes":45,"basePay":8,"maxBonus":9,"perTrialBonus":0.5,"perTrialBonusThreshold":0.05,"exampleCost":0.02},"classroomParams":{"A":{"a":1,"b":4},"B":{"a":4,"b":1},"C":{"a":2,"b":8},"D":{"a":8,"b":2}},"conditions":["nonSeqFull","nonSeqPartial","seqNoFeedback","seqFeedback"],"classroomPairings":[["A","B"],["C","D"]],"coinWeights":[0.2,0.5,0.8],"subjectId":"A6Y7SZU9L301W","assignmentId":"3NC5L260MP8NECOK3IPEI08WS2JOFB","hitId":"3XUY87HIVP03YZXVLN9CW37DVI1MM2","url":"https://gershmanlab.com/experiments/alicia/teaching/experiment/?hitId=3XUY87HIVP03YZXVLN9CW37DVI1MM2&workerId=A6Y7SZU9L301W&assignmentId=3NC5L260MP8NECOK3IPEI08WS2JOFB&a=0LCN3&tp_a=0LCN3&b=3NC5L260MP8NECOK3IPEI08WS2JOFB&tp_b=3NC5L260MP8NECOK3IPEI08WS2JOFB&c=365633&tp_c=365633"},{"rt":null,"stimulus":"<div style=\"font-size:60px;\">Next student</div>","response":null,"trial_type":"html-keyboard-response","trial_index":35,"time_elapsed":668559,"internal_node_id":"0.0-28.0-0.0","params":{"nStudents":24,"maxFlips":25,"completionMinutes":45,"basePay":8,"maxBonus":9,"perTrialBonus":0.5,"perTrialBonusThreshold":0.05,"exampleCost":0.02},"classroomParams":{"A":{"a":1,"b":4},"B":{"a":4,"b":1},"C":{"a":2,"b":8},"D":{"a":8,"b":2}},"conditions":["nonSeqFull","nonSeqPartial","seqNoFeedback","seqFeedback"],"classroomPairings":[["A","B"],["C","D"]],"coinWeights":[0.2,0.5,0.8],"subjectId":"A6Y7SZU9L301W","assignmentId":"3NC5L260MP8NECOK3IPEI08WS2JOFB","hitId":"3XUY87HIVP03YZXVLN9CW37DVI1MM2","url":"https://gershmanlab.com/experiments/alicia/teaching/experiment/?hitId=3XUY87HIVP03YZXVLN9CW37DVI1MM2&workerId=A6Y7SZU9L301W&assignmentId=3NC5L260MP8NECOK3IPEI08WS2JOFB&a=0LCN3&tp_a=0LCN3&b=3NC5L260MP8NECOK3IPEI08WS2JOFB&tp_b=3NC5L260MP8NECOK3IPEI08WS2JOFB&c=365633&tp_c=365633"},{"rt":2972,"stimulus":"\n            <h4 style=\"color:Orange;\">Student 4</h4>\n            <h2>The weight of your coin is <b style=\"color:Tomato;\">0.2</b>.</h2>\n            <p>In this block, you will be giving <b>one</b> set of examples to Student 4.</p>\n                <p>You will receive feedback at the end of the block.</p>\n            <p></p>","response":0,"trial_type":"html-button-response","trial_index":36,"time_elapsed":671532,"internal_node_id":"0.0-29.0","params":{"nStudents":24,"maxFlips":25,"completionMinutes":45,"basePay":8,"maxBonus":9,"perTrialBonus":0.5,"perTrialBonusThreshold":0.05,"exampleCost":0.02},"classroomParams":{"A":{"a":1,"b":4},"B":{"a":4,"b":1},"C":{"a":2,"b":8},"D":{"a":8,"b":2}},"conditions":["nonSeqFull","nonSeqPartial","seqNoFeedback","seqFeedback"],"classroomPairings":[["A","B"],["C","D"]],"coinWeights":[0.2,0.5,0.8],"subjectId":"A6Y7SZU9L301W","assignmentId":"3NC5L260MP8NECOK3IPEI08WS2JOFB","hitId":"3XUY87HIVP03YZXVLN9CW37DVI1MM2","url":"https://gershmanlab.com/experiments/alicia/teaching/experiment/?hitId=3XUY87HIVP03YZXVLN9CW37DVI1MM2&workerId=A6Y7SZU9L301W&assignmentId=3NC5L260MP8NECOK3IPEI08WS2JOFB&a=0LCN3&tp_a=0LCN3&b=3NC5L260MP8NECOK3IPEI08WS2JOFB&tp_b=3NC5L260MP8NECOK3IPEI08WS2JOFB&c=365633&tp_c=365633"},{"rt":8244,"response":{"heads":"0","tails":"5"},"type":"response","condition":"nonSeqPartial","trueTheta":0.2,"classrooms":["A","B"],"studentTrueClassroom":"A","exampleSet":"first","trial_type":"survey-html-form","trial_index":37,"time_elapsed":679777,"internal_node_id":"0.0-30.0-0.0","params":{"nStudents":24,"maxFlips":25,"completionMinutes":45,"basePay":8,"maxBonus":9,"perTrialBonus":0.5,"perTrialBonusThreshold":0.05,"exampleCost":0.02},"classroomParams":{"A":{"a":1,"b":4},"B":{"a":4,"b":1},"C":{"a":2,"b":8},"D":{"a":8,"b":2}},"conditions":["nonSeqFull","nonSeqPartial","seqNoFeedback","seqFeedback"],"classroomPairings":[["A","B"],["C","D"]],"coinWeights":[0.2,0.5,0.8],"subjectId":"A6Y7SZU9L301W","assignmentId":"3NC5L260MP8NECOK3IPEI08WS2JOFB","hitId":"3XUY87HIVP03YZXVLN9CW37DVI1MM2","url":"https://gershmanlab.com/experiments/alicia/teaching/experiment/?hitId=3XUY87HIVP03YZXVLN9CW37DVI1MM2&workerId=A6Y7SZU9L301W&assignmentId=3NC5L260MP8NECOK3IPEI08WS2JOFB&a=0LCN3&tp_a=0LCN3&b=3NC5L260MP8NECOK3IPEI08WS2JOFB&tp_b=3NC5L260MP8NECOK3IPEI08WS2JOFB&c=365633&tp_c=365633","heads":0,"tails":5,"studentIndex":3,"studentTrueHypers":{"a":1,"b":4},"studentGuess":0.1,"delta":0.1,"totalExamples":5,"bonus":0,"bonusSoFar":0},{"rt":null,"stimulus":"Sending examples to student... ","response":null,"trial_type":"html-keyboard-response","trial_index":38,"time_elapsed":681529,"internal_node_id":"0.0-31.0","params":{"nStudents":24,"maxFlips":25,"completionMinutes":45,"basePay":8,"maxBonus":9,"perTrialBonus":0.5,"perTrialBonusThreshold":0.05,"exampleCost":0.02},"classroomParams":{"A":{"a":1,"b":4},"B":{"a":4,"b":1},"C":{"a":2,"b":8},"D":{"a":8,"b":2}},"conditions":["nonSeqFull","nonSeqPartial","seqNoFeedback","seqFeedback"],"classroomPairings":[["A","B"],["C","D"]],"coinWeights":[0.2,0.5,0.8],"subjectId":"A6Y7SZU9L301W","assignmentId":"3NC5L260MP8NECOK3IPEI08WS2JOFB","hitId":"3XUY87HIVP03YZXVLN9CW37DVI1MM2","url":"https://gershmanlab.com/experiments/alicia/teaching/experiment/?hitId=3XUY87HIVP03YZXVLN9CW37DVI1MM2&workerId=A6Y7SZU9L301W&assignmentId=3NC5L260MP8NECOK3IPEI08WS2JOFB&a=0LCN3&tp_a=0LCN3&b=3NC5L260MP8NECOK3IPEI08WS2JOFB&tp_b=3NC5L260MP8NECOK3IPEI08WS2JOFB&c=365633&tp_c=365633"},{"rt":null,"stimulus":"Examples sent to student! Waiting for student...","response":null,"trial_type":"html-keyboard-response","trial_index":39,"time_elapsed":687032,"internal_node_id":"0.0-32.0","params":{"nStudents":24,"maxFlips":25,"completionMinutes":45,"basePay":8,"maxBonus":9,"perTrialBonus":0.5,"perTrialBonusThreshold":0.05,"exampleCost":0.02},"classroomParams":{"A":{"a":1,"b":4},"B":{"a":4,"b":1},"C":{"a":2,"b":8},"D":{"a":8,"b":2}},"conditions":["nonSeqFull","nonSeqPartial","seqNoFeedback","seqFeedback"],"classroomPairings":[["A","B"],["C","D"]],"coinWeights":[0.2,0.5,0.8],"subjectId":"A6Y7SZU9L301W","assignmentId":"3NC5L260MP8NECOK3IPEI08WS2JOFB","hitId":"3XUY87HIVP03YZXVLN9CW37DVI1MM2","url":"https://gershmanlab.com/experiments/alicia/teaching/experiment/?hitId=3XUY87HIVP03YZXVLN9CW37DVI1MM2&workerId=A6Y7SZU9L301W&assignmentId=3NC5L260MP8NECOK3IPEI08WS2JOFB&a=0LCN3&tp_a=0LCN3&b=3NC5L260MP8NECOK3IPEI08WS2JOFB&tp_b=3NC5L260MP8NECOK3IPEI08WS2JOFB&c=365633&tp_c=365633"},{"rt":4549,"stimulus":"\n                <p>Student's guess for coin weight: <b style=\"color:Tomato;\">0.10</b></p>\n                <p>You received a bonus of <b>$0</b>. Total bonus so far: <b>$0.00</b></b></p>\n                <p></p>\n                <p>Press any key to continue.</p>\n                ","response":" ","trial_type":"html-keyboard-response","trial_index":40,"time_elapsed":691584,"internal_node_id":"0.0-33.0","params":{"nStudents":24,"maxFlips":25,"completionMinutes":45,"basePay":8,"maxBonus":9,"perTrialBonus":0.5,"perTrialBonusThreshold":0.05,"exampleCost":0.02},"classroomParams":{"A":{"a":1,"b":4},"B":{"a":4,"b":1},"C":{"a":2,"b":8},"D":{"a":8,"b":2}},"conditions":["nonSeqFull","nonSeqPartial","seqNoFeedback","seqFeedback"],"classroomPairings":[["A","B"],["C","D"]],"coinWeights":[0.2,0.5,0.8],"subjectId":"A6Y7SZU9L301W","assignmentId":"3NC5L260MP8NECOK3IPEI08WS2JOFB","hitId":"3XUY87HIVP03YZXVLN9CW37DVI1MM2","url":"https://gershmanlab.com/experiments/alicia/teaching/experiment/?hitId=3XUY87HIVP03YZXVLN9CW37DVI1MM2&workerId=A6Y7SZU9L301W&assignmentId=3NC5L260MP8NECOK3IPEI08WS2JOFB&a=0LCN3&tp_a=0LCN3&b=3NC5L260MP8NECOK3IPEI08WS2JOFB&tp_b=3NC5L260MP8NECOK3IPEI08WS2JOFB&c=365633&tp_c=365633"},{"rt":null,"stimulus":"<div style=\"font-size:60px;\">Next student</div>","response":null,"trial_type":"html-keyboard-response","trial_index":41,"time_elapsed":694088,"internal_node_id":"0.0-34.0-0.0","params":{"nStudents":24,"maxFlips":25,"completionMinutes":45,"basePay":8,"maxBonus":9,"perTrialBonus":0.5,"perTrialBonusThreshold":0.05,"exampleCost":0.02},"classroomParams":{"A":{"a":1,"b":4},"B":{"a":4,"b":1},"C":{"a":2,"b":8},"D":{"a":8,"b":2}},"conditions":["nonSeqFull","nonSeqPartial","seqNoFeedback","seqFeedback"],"classroomPairings":[["A","B"],["C","D"]],"coinWeights":[0.2,0.5,0.8],"subjectId":"A6Y7SZU9L301W","assignmentId":"3NC5L260MP8NECOK3IPEI08WS2JOFB","hitId":"3XUY87HIVP03YZXVLN9CW37DVI1MM2","url":"https://gershmanlab.com/experiments/alicia/teaching/experiment/?hitId=3XUY87HIVP03YZXVLN9CW37DVI1MM2&workerId=A6Y7SZU9L301W&assignmentId=3NC5L260MP8NECOK3IPEI08WS2JOFB&a=0LCN3&tp_a=0LCN3&b=3NC5L260MP8NECOK3IPEI08WS2JOFB&tp_b=3NC5L260MP8NECOK3IPEI08WS2JOFB&c=365633&tp_c=365633"},{"rt":4541,"stimulus":"\n            <h4 style=\"color:Orange;\">Student 5</h4>\n            <h2>The weight of your coin is <b style=\"color:Tomato;\">0.5</b>.</h2>\n            <p>In this block, you will be giving <b>two</b> sets of examples to Student 5.</p>\n                <p>You will see the student's guess after the first set of examples. You will also receive feedback at the end of the block.</p>\n            <p>To earn the highest bonus, you will have to <b>take into consideration the student's guess</b> when you choose your second set of examples.</p>","response":0,"trial_type":"html-button-response","trial_index":42,"time_elapsed":698631,"internal_node_id":"0.0-35.0","params":{"nStudents":24,"maxFlips":25,"completionMinutes":45,"basePay":8,"maxBonus":9,"perTrialBonus":0.5,"perTrialBonusThreshold":0.05,"exampleCost":0.02},"classroomParams":{"A":{"a":1,"b":4},"B":{"a":4,"b":1},"C":{"a":2,"b":8},"D":{"a":8,"b":2}},"conditions":["nonSeqFull","nonSeqPartial","seqNoFeedback","seqFeedback"],"classroomPairings":[["A","B"],["C","D"]],"coinWeights":[0.2,0.5,0.8],"subjectId":"A6Y7SZU9L301W","assignmentId":"3NC5L260MP8NECOK3IPEI08WS2JOFB","hitId":"3XUY87HIVP03YZXVLN9CW37DVI1MM2","url":"https://gershmanlab.com/experiments/alicia/teaching/experiment/?hitId=3XUY87HIVP03YZXVLN9CW37DVI1MM2&workerId=A6Y7SZU9L301W&assignmentId=3NC5L260MP8NECOK3IPEI08WS2JOFB&a=0LCN3&tp_a=0LCN3&b=3NC5L260MP8NECOK3IPEI08WS2JOFB&tp_b=3NC5L260MP8NECOK3IPEI08WS2JOFB&c=365633&tp_c=365633"},{"rt":7839,"response":{"heads":"5","tails":"5"},"type":"response","condition":"seqFeedback","trueTheta":0.5,"classrooms":["A","B"],"studentTrueClassroom":"A","exampleSet":"first","trial_type":"survey-html-form","trial_index":43,"time_elapsed":706471,"internal_node_id":"0.0-36.0-0.0","params":{"nStudents":24,"maxFlips":25,"completionMinutes":45,"basePay":8,"maxBonus":9,"perTrialBonus":0.5,"perTrialBonusThreshold":0.05,"exampleCost":0.02},"classroomParams":{"A":{"a":1,"b":4},"B":{"a":4,"b":1},"C":{"a":2,"b":8},"D":{"a":8,"b":2}},"conditions":["nonSeqFull","nonSeqPartial","seqNoFeedback","seqFeedback"],"classroomPairings":[["A","B"],["C","D"]],"coinWeights":[0.2,0.5,0.8],"subjectId":"A6Y7SZU9L301W","assignmentId":"3NC5L260MP8NECOK3IPEI08WS2JOFB","hitId":"3XUY87HIVP03YZXVLN9CW37DVI1MM2","url":"https://gershmanlab.com/experiments/alicia/teaching/experiment/?hitId=3XUY87HIVP03YZXVLN9CW37DVI1MM2&workerId=A6Y7SZU9L301W&assignmentId=3NC5L260MP8NECOK3IPEI08WS2JOFB&a=0LCN3&tp_a=0LCN3&b=3NC5L260MP8NECOK3IPEI08WS2JOFB&tp_b=3NC5L260MP8NECOK3IPEI08WS2JOFB&c=365633&tp_c=365633","heads":5,"tails":5,"studentIndex":4,"studentTrueHypers":{"a":1,"b":4},"studentGuess":0.4,"delta":0.09999999999999998,"totalExamples":10,"bonusSoFar":0},{"rt":null,"stimulus":"Sending examples to student... ","response":null,"trial_type":"html-keyboard-response","trial_index":44,"time_elapsed":708472,"internal_node_id":"0.0-37.0","params":{"nStudents":24,"maxFlips":25,"completionMinutes":45,"basePay":8,"maxBonus":9,"perTrialBonus":0.5,"perTrialBonusThreshold":0.05,"exampleCost":0.02},"classroomParams":{"A":{"a":1,"b":4},"B":{"a":4,"b":1},"C":{"a":2,"b":8},"D":{"a":8,"b":2}},"conditions":["nonSeqFull","nonSeqPartial","seqNoFeedback","seqFeedback"],"classroomPairings":[["A","B"],["C","D"]],"coinWeights":[0.2,0.5,0.8],"subjectId":"A6Y7SZU9L301W","assignmentId":"3NC5L260MP8NECOK3IPEI08WS2JOFB","hitId":"3XUY87HIVP03YZXVLN9CW37DVI1MM2","url":"https://gershmanlab.com/experiments/alicia/teaching/experiment/?hitId=3XUY87HIVP03YZXVLN9CW37DVI1MM2&workerId=A6Y7SZU9L301W&assignmentId=3NC5L260MP8NECOK3IPEI08WS2JOFB&a=0LCN3&tp_a=0LCN3&b=3NC5L260MP8NECOK3IPEI08WS2JOFB&tp_b=3NC5L260MP8NECOK3IPEI08WS2JOFB&c=365633&tp_c=365633"},{"rt":null,"stimulus":"Examples sent to student! Waiting for student...","response":null,"trial_type":"html-keyboard-response","trial_index":45,"time_elapsed":713474,"internal_node_id":"0.0-38.0","params":{"nStudents":24,"maxFlips":25,"completionMinutes":45,"basePay":8,"maxBonus":9,"perTrialBonus":0.5,"perTrialBonusThreshold":0.05,"exampleCost":0.02},"classroomParams":{"A":{"a":1,"b":4},"B":{"a":4,"b":1},"C":{"a":2,"b":8},"D":{"a":8,"b":2}},"conditions":["nonSeqFull","nonSeqPartial","seqNoFeedback","seqFeedback"],"classroomPairings":[["A","B"],["C","D"]],"coinWeights":[0.2,0.5,0.8],"subjectId":"A6Y7SZU9L301W","assignmentId":"3NC5L260MP8NECOK3IPEI08WS2JOFB","hitId":"3XUY87HIVP03YZXVLN9CW37DVI1MM2","url":"https://gershmanlab.com/experiments/alicia/teaching/experiment/?hitId=3XUY87HIVP03YZXVLN9CW37DVI1MM2&workerId=A6Y7SZU9L301W&assignmentId=3NC5L260MP8NECOK3IPEI08WS2JOFB&a=0LCN3&tp_a=0LCN3&b=3NC5L260MP8NECOK3IPEI08WS2JOFB&tp_b=3NC5L260MP8NECOK3IPEI08WS2JOFB&c=365633&tp_c=365633"},{"rt":6634,"stimulus":"\n                <p>Student's guess for coin weight: <b style=\"color:Tomato;\">0.40</b></p>\n                <p></b></p>\n                <p>You will now send another set of examples to your student. <b>Remember to take your student's guess into consideration so that you can earn the highest bonus possible!</b> </p>\n                <p>Press any key to continue.</p>\n                ","response":" ","trial_type":"html-keyboard-response","trial_index":46,"time_elapsed":720109,"internal_node_id":"0.0-39.0","params":{"nStudents":24,"maxFlips":25,"completionMinutes":45,"basePay":8,"maxBonus":9,"perTrialBonus":0.5,"perTrialBonusThreshold":0.05,"exampleCost":0.02},"classroomParams":{"A":{"a":1,"b":4},"B":{"a":4,"b":1},"C":{"a":2,"b":8},"D":{"a":8,"b":2}},"conditions":["nonSeqFull","nonSeqPartial","seqNoFeedback","seqFeedback"],"classroomPairings":[["A","B"],["C","D"]],"coinWeights":[0.2,0.5,0.8],"subjectId":"A6Y7SZU9L301W","assignmentId":"3NC5L260MP8NECOK3IPEI08WS2JOFB","hitId":"3XUY87HIVP03YZXVLN9CW37DVI1MM2","url":"https://gershmanlab.com/experiments/alicia/teaching/experiment/?hitId=3XUY87HIVP03YZXVLN9CW37DVI1MM2&workerId=A6Y7SZU9L301W&assignmentId=3NC5L260MP8NECOK3IPEI08WS2JOFB&a=0LCN3&tp_a=0LCN3&b=3NC5L260MP8NECOK3IPEI08WS2JOFB&tp_b=3NC5L260MP8NECOK3IPEI08WS2JOFB&c=365633&tp_c=365633"},{"rt":8099,"response":{"heads":"6","tails":"5"},"type":"response","condition":"seqFeedback","trueTheta":0.5,"classrooms":["A","B"],"studentTrueClassroom":"A","exampleSet":"second","trial_type":"survey-html-form","trial_index":47,"time_elapsed":728209,"internal_node_id":"0.0-40.0-0.0","params":{"nStudents":24,"maxFlips":25,"completionMinutes":45,"basePay":8,"maxBonus":9,"perTrialBonus":0.5,"perTrialBonusThreshold":0.05,"exampleCost":0.02},"classroomParams":{"A":{"a":1,"b":4},"B":{"a":4,"b":1},"C":{"a":2,"b":8},"D":{"a":8,"b":2}},"conditions":["nonSeqFull","nonSeqPartial","seqNoFeedback","seqFeedback"],"classroomPairings":[["A","B"],["C","D"]],"coinWeights":[0.2,0.5,0.8],"subjectId":"A6Y7SZU9L301W","assignmentId":"3NC5L260MP8NECOK3IPEI08WS2JOFB","hitId":"3XUY87HIVP03YZXVLN9CW37DVI1MM2","url":"https://gershmanlab.com/experiments/alicia/teaching/experiment/?hitId=3XUY87HIVP03YZXVLN9CW37DVI1MM2&workerId=A6Y7SZU9L301W&assignmentId=3NC5L260MP8NECOK3IPEI08WS2JOFB&a=0LCN3&tp_a=0LCN3&b=3NC5L260MP8NECOK3IPEI08WS2JOFB&tp_b=3NC5L260MP8NECOK3IPEI08WS2JOFB&c=365633&tp_c=365633","firstResponseHeads":5,"firstResponseTails":5,"secondResponseHeads":6,"secondResponseTails":5,"totalHeads":11,"totalTails":10,"studentIndex":4,"studentTrueHypers":{"a":1,"b":4},"studentGuess":0.46153846153846156,"delta":0.038461538461538436,"bonus":0.08,"bonusSoFar":0.08,"totalExamples":21},{"rt":null,"stimulus":"Sending examples to student... ","response":null,"trial_type":"html-keyboard-response","trial_index":48,"time_elapsed":730212,"internal_node_id":"0.0-41.0","params":{"nStudents":24,"maxFlips":25,"completionMinutes":45,"basePay":8,"maxBonus":9,"perTrialBonus":0.5,"perTrialBonusThreshold":0.05,"exampleCost":0.02},"classroomParams":{"A":{"a":1,"b":4},"B":{"a":4,"b":1},"C":{"a":2,"b":8},"D":{"a":8,"b":2}},"conditions":["nonSeqFull","nonSeqPartial","seqNoFeedback","seqFeedback"],"classroomPairings":[["A","B"],["C","D"]],"coinWeights":[0.2,0.5,0.8],"subjectId":"A6Y7SZU9L301W","assignmentId":"3NC5L260MP8NECOK3IPEI08WS2JOFB","hitId":"3XUY87HIVP03YZXVLN9CW37DVI1MM2","url":"https://gershmanlab.com/experiments/alicia/teaching/experiment/?hitId=3XUY87HIVP03YZXVLN9CW37DVI1MM2&workerId=A6Y7SZU9L301W&assignmentId=3NC5L260MP8NECOK3IPEI08WS2JOFB&a=0LCN3&tp_a=0LCN3&b=3NC5L260MP8NECOK3IPEI08WS2JOFB&tp_b=3NC5L260MP8NECOK3IPEI08WS2JOFB&c=365633&tp_c=365633"},{"rt":null,"stimulus":"Examples sent to student! Waiting for student...","response":null,"trial_type":"html-keyboard-response","trial_index":49,"time_elapsed":734214,"internal_node_id":"0.0-42.0","params":{"nStudents":24,"maxFlips":25,"completionMinutes":45,"basePay":8,"maxBonus":9,"perTrialBonus":0.5,"perTrialBonusThreshold":0.05,"exampleCost":0.02},"classroomParams":{"A":{"a":1,"b":4},"B":{"a":4,"b":1},"C":{"a":2,"b":8},"D":{"a":8,"b":2}},"conditions":["nonSeqFull","nonSeqPartial","seqNoFeedback","seqFeedback"],"classroomPairings":[["A","B"],["C","D"]],"coinWeights":[0.2,0.5,0.8],"subjectId":"A6Y7SZU9L301W","assignmentId":"3NC5L260MP8NECOK3IPEI08WS2JOFB","hitId":"3XUY87HIVP03YZXVLN9CW37DVI1MM2","url":"https://gershmanlab.com/experiments/alicia/teaching/experiment/?hitId=3XUY87HIVP03YZXVLN9CW37DVI1MM2&workerId=A6Y7SZU9L301W&assignmentId=3NC5L260MP8NECOK3IPEI08WS2JOFB&a=0LCN3&tp_a=0LCN3&b=3NC5L260MP8NECOK3IPEI08WS2JOFB&tp_b=3NC5L260MP8NECOK3IPEI08WS2JOFB&c=365633&tp_c=365633"},{"rt":11487,"stimulus":"\n                <p>Student 5's first guess for coin weight: <b style=\"color:Tomato\";>0.40</b></p>\n                <p>Student 5's second guess for coin weight: <b style=\"color:Tomato\";>0.46</b></p>\n                <p>You received a bonus of <b>$0.08</b> based on the student's second guess.</p>\n                <p>Total bonus so far: <b>$0.08</b></p>\n                <p>Press any key to continue.</p>\n                ","response":" ","trial_type":"html-keyboard-response","trial_index":50,"time_elapsed":745702,"internal_node_id":"0.0-43.0","params":{"nStudents":24,"maxFlips":25,"completionMinutes":45,"basePay":8,"maxBonus":9,"perTrialBonus":0.5,"perTrialBonusThreshold":0.05,"exampleCost":0.02},"classroomParams":{"A":{"a":1,"b":4},"B":{"a":4,"b":1},"C":{"a":2,"b":8},"D":{"a":8,"b":2}},"conditions":["nonSeqFull","nonSeqPartial","seqNoFeedback","seqFeedback"],"classroomPairings":[["A","B"],["C","D"]],"coinWeights":[0.2,0.5,0.8],"subjectId":"A6Y7SZU9L301W","assignmentId":"3NC5L260MP8NECOK3IPEI08WS2JOFB","hitId":"3XUY87HIVP03YZXVLN9CW37DVI1MM2","url":"https://gershmanlab.com/experiments/alicia/teaching/experiment/?hitId=3XUY87HIVP03YZXVLN9CW37DVI1MM2&workerId=A6Y7SZU9L301W&assignmentId=3NC5L260MP8NECOK3IPEI08WS2JOFB&a=0LCN3&tp_a=0LCN3&b=3NC5L260MP8NECOK3IPEI08WS2JOFB&tp_b=3NC5L260MP8NECOK3IPEI08WS2JOFB&c=365633&tp_c=365633"},{"rt":null,"stimulus":"<div style=\"font-size:60px;\">Next student</div>","response":null,"trial_type":"html-keyboard-response","trial_index":51,"time_elapsed":747703,"internal_node_id":"0.0-44.0-0.0","params":{"nStudents":24,"maxFlips":25,"completionMinutes":45,"basePay":8,"maxBonus":9,"perTrialBonus":0.5,"perTrialBonusThreshold":0.05,"exampleCost":0.02},"classroomParams":{"A":{"a":1,"b":4},"B":{"a":4,"b":1},"C":{"a":2,"b":8},"D":{"a":8,"b":2}},"conditions":["nonSeqFull","nonSeqPartial","seqNoFeedback","seqFeedback"],"classroomPairings":[["A","B"],["C","D"]],"coinWeights":[0.2,0.5,0.8],"subjectId":"A6Y7SZU9L301W","assignmentId":"3NC5L260MP8NECOK3IPEI08WS2JOFB","hitId":"3XUY87HIVP03YZXVLN9CW37DVI1MM2","url":"https://gershmanlab.com/experiments/alicia/teaching/experiment/?hitId=3XUY87HIVP03YZXVLN9CW37DVI1MM2&workerId=A6Y7SZU9L301W&assignmentId=3NC5L260MP8NECOK3IPEI08WS2JOFB&a=0LCN3&tp_a=0LCN3&b=3NC5L260MP8NECOK3IPEI08WS2JOFB&tp_b=3NC5L260MP8NECOK3IPEI08WS2JOFB&c=365633&tp_c=365633"},{"rt":2797,"stimulus":"\n            <h4 style=\"color:Orange;\">Student 6</h4>\n            <h2>The weight of your coin is <b style=\"color:Tomato;\">0.2</b>.</h2>\n            <p>In this block, you will be giving <b>two</b> sets of examples to Student 6.</p>\n                <p>You will see the student's guess after the first set of examples. You will also receive feedback at the end of the block.</p>\n            <p>To earn the highest bonus, you will have to <b>take into consideration the student's guess</b> when you choose your second set of examples.</p>","response":0,"trial_type":"html-button-response","trial_index":52,"time_elapsed":750501,"internal_node_id":"0.0-45.0","params":{"nStudents":24,"maxFlips":25,"completionMinutes":45,"basePay":8,"maxBonus":9,"perTrialBonus":0.5,"perTrialBonusThreshold":0.05,"exampleCost":0.02},"classroomParams":{"A":{"a":1,"b":4},"B":{"a":4,"b":1},"C":{"a":2,"b":8},"D":{"a":8,"b":2}},"conditions":["nonSeqFull","nonSeqPartial","seqNoFeedback","seqFeedback"],"classroomPairings":[["A","B"],["C","D"]],"coinWeights":[0.2,0.5,0.8],"subjectId":"A6Y7SZU9L301W","assignmentId":"3NC5L260MP8NECOK3IPEI08WS2JOFB","hitId":"3XUY87HIVP03YZXVLN9CW37DVI1MM2","url":"https://gershmanlab.com/experiments/alicia/teaching/experiment/?hitId=3XUY87HIVP03YZXVLN9CW37DVI1MM2&workerId=A6Y7SZU9L301W&assignmentId=3NC5L260MP8NECOK3IPEI08WS2JOFB&a=0LCN3&tp_a=0LCN3&b=3NC5L260MP8NECOK3IPEI08WS2JOFB&tp_b=3NC5L260MP8NECOK3IPEI08WS2JOFB&c=365633&tp_c=365633"},{"rt":6651,"response":{"heads":"0","tails":"5"},"type":"response","condition":"seqFeedback","trueTheta":0.2,"classrooms":["C","D"],"studentTrueClassroom":"C","exampleSet":"first","trial_type":"survey-html-form","trial_index":53,"time_elapsed":757153,"internal_node_id":"0.0-46.0-0.0","params":{"nStudents":24,"maxFlips":25,"completionMinutes":45,"basePay":8,"maxBonus":9,"perTrialBonus":0.5,"perTrialBonusThreshold":0.05,"exampleCost":0.02},"classroomParams":{"A":{"a":1,"b":4},"B":{"a":4,"b":1},"C":{"a":2,"b":8},"D":{"a":8,"b":2}},"conditions":["nonSeqFull","nonSeqPartial","seqNoFeedback","seqFeedback"],"classroomPairings":[["A","B"],["C","D"]],"coinWeights":[0.2,0.5,0.8],"subjectId":"A6Y7SZU9L301W","assignmentId":"3NC5L260MP8NECOK3IPEI08WS2JOFB","hitId":"3XUY87HIVP03YZXVLN9CW37DVI1MM2","url":"https://gershmanlab.com/experiments/alicia/teaching/experiment/?hitId=3XUY87HIVP03YZXVLN9CW37DVI1MM2&workerId=A6Y7SZU9L301W&assignmentId=3NC5L260MP8NECOK3IPEI08WS2JOFB&a=0LCN3&tp_a=0LCN3&b=3NC5L260MP8NECOK3IPEI08WS2JOFB&tp_b=3NC5L260MP8NECOK3IPEI08WS2JOFB&c=365633&tp_c=365633","heads":0,"tails":5,"studentIndex":5,"studentTrueHypers":{"a":2,"b":8},"studentGuess":0.13333333333333333,"delta":0.06666666666666668,"totalExamples":5,"bonusSoFar":0.08},{"rt":null,"stimulus":"Sending examples to student... ","response":null,"trial_type":"html-keyboard-response","trial_index":54,"time_elapsed":758654,"internal_node_id":"0.0-47.0","params":{"nStudents":24,"maxFlips":25,"completionMinutes":45,"basePay":8,"maxBonus":9,"perTrialBonus":0.5,"perTrialBonusThreshold":0.05,"exampleCost":0.02},"classroomParams":{"A":{"a":1,"b":4},"B":{"a":4,"b":1},"C":{"a":2,"b":8},"D":{"a":8,"b":2}},"conditions":["nonSeqFull","nonSeqPartial","seqNoFeedback","seqFeedback"],"classroomPairings":[["A","B"],["C","D"]],"coinWeights":[0.2,0.5,0.8],"subjectId":"A6Y7SZU9L301W","assignmentId":"3NC5L260MP8NECOK3IPEI08WS2JOFB","hitId":"3XUY87HIVP03YZXVLN9CW37DVI1MM2","url":"https://gershmanlab.com/experiments/alicia/teaching/experiment/?hitId=3XUY87HIVP03YZXVLN9CW37DVI1MM2&workerId=A6Y7SZU9L301W&assignmentId=3NC5L260MP8NECOK3IPEI08WS2JOFB&a=0LCN3&tp_a=0LCN3&b=3NC5L260MP8NECOK3IPEI08WS2JOFB&tp_b=3NC5L260MP8NECOK3IPEI08WS2JOFB&c=365633&tp_c=365633"},{"rt":null,"stimulus":"Examples sent to student! Waiting for student...","response":null,"trial_type":"html-keyboard-response","trial_index":55,"time_elapsed":764155,"internal_node_id":"0.0-48.0","params":{"nStudents":24,"maxFlips":25,"completionMinutes":45,"basePay":8,"maxBonus":9,"perTrialBonus":0.5,"perTrialBonusThreshold":0.05,"exampleCost":0.02},"classroomParams":{"A":{"a":1,"b":4},"B":{"a":4,"b":1},"C":{"a":2,"b":8},"D":{"a":8,"b":2}},"conditions":["nonSeqFull","nonSeqPartial","seqNoFeedback","seqFeedback"],"classroomPairings":[["A","B"],["C","D"]],"coinWeights":[0.2,0.5,0.8],"subjectId":"A6Y7SZU9L301W","assignmentId":"3NC5L260MP8NECOK3IPEI08WS2JOFB","hitId":"3XUY87HIVP03YZXVLN9CW37DVI1MM2","url":"https://gershmanlab.com/experiments/alicia/teaching/experiment/?hitId=3XUY87HIVP03YZXVLN9CW37DVI1MM2&workerId=A6Y7SZU9L301W&assignmentId=3NC5L260MP8NECOK3IPEI08WS2JOFB&a=0LCN3&tp_a=0LCN3&b=3NC5L260MP8NECOK3IPEI08WS2JOFB&tp_b=3NC5L260MP8NECOK3IPEI08WS2JOFB&c=365633&tp_c=365633"},{"rt":5198,"stimulus":"\n                <p>Student's guess for coin weight: <b style=\"color:Tomato;\">0.13</b></p>\n                <p></b></p>\n                <p>You will now send another set of examples to your student. <b>Remember to take your student's guess into consideration so that you can earn the highest bonus possible!</b> </p>\n                <p>Press any key to continue.</p>\n                ","response":"enter","trial_type":"html-keyboard-response","trial_index":56,"time_elapsed":769355,"internal_node_id":"0.0-49.0","params":{"nStudents":24,"maxFlips":25,"completionMinutes":45,"basePay":8,"maxBonus":9,"perTrialBonus":0.5,"perTrialBonusThreshold":0.05,"exampleCost":0.02},"classroomParams":{"A":{"a":1,"b":4},"B":{"a":4,"b":1},"C":{"a":2,"b":8},"D":{"a":8,"b":2}},"conditions":["nonSeqFull","nonSeqPartial","seqNoFeedback","seqFeedback"],"classroomPairings":[["A","B"],["C","D"]],"coinWeights":[0.2,0.5,0.8],"subjectId":"A6Y7SZU9L301W","assignmentId":"3NC5L260MP8NECOK3IPEI08WS2JOFB","hitId":"3XUY87HIVP03YZXVLN9CW37DVI1MM2","url":"https://gershmanlab.com/experiments/alicia/teaching/experiment/?hitId=3XUY87HIVP03YZXVLN9CW37DVI1MM2&workerId=A6Y7SZU9L301W&assignmentId=3NC5L260MP8NECOK3IPEI08WS2JOFB&a=0LCN3&tp_a=0LCN3&b=3NC5L260MP8NECOK3IPEI08WS2JOFB&tp_b=3NC5L260MP8NECOK3IPEI08WS2JOFB&c=365633&tp_c=365633"},{"rt":5806,"response":{"heads":"0","tails":"2"},"type":"response","condition":"seqFeedback","trueTheta":0.2,"classrooms":["C","D"],"studentTrueClassroom":"C","exampleSet":"second","trial_type":"survey-html-form","trial_index":57,"time_elapsed":775161,"internal_node_id":"0.0-50.0-0.0","params":{"nStudents":24,"maxFlips":25,"completionMinutes":45,"basePay":8,"maxBonus":9,"perTrialBonus":0.5,"perTrialBonusThreshold":0.05,"exampleCost":0.02},"classroomParams":{"A":{"a":1,"b":4},"B":{"a":4,"b":1},"C":{"a":2,"b":8},"D":{"a":8,"b":2}},"conditions":["nonSeqFull","nonSeqPartial","seqNoFeedback","seqFeedback"],"classroomPairings":[["A","B"],["C","D"]],"coinWeights":[0.2,0.5,0.8],"subjectId":"A6Y7SZU9L301W","assignmentId":"3NC5L260MP8NECOK3IPEI08WS2JOFB","hitId":"3XUY87HIVP03YZXVLN9CW37DVI1MM2","url":"https://gershmanlab.com/experiments/alicia/teaching/experiment/?hitId=3XUY87HIVP03YZXVLN9CW37DVI1MM2&workerId=A6Y7SZU9L301W&assignmentId=3NC5L260MP8NECOK3IPEI08WS2JOFB&a=0LCN3&tp_a=0LCN3&b=3NC5L260MP8NECOK3IPEI08WS2JOFB&tp_b=3NC5L260MP8NECOK3IPEI08WS2JOFB&c=365633&tp_c=365633","firstResponseHeads":0,"firstResponseTails":5,"secondResponseHeads":0,"secondResponseTails":2,"totalHeads":0,"totalTails":7,"studentIndex":5,"studentTrueHypers":{"a":2,"b":8},"studentGuess":0.11764705882352941,"delta":0.0823529411764706,"bonus":0,"bonusSoFar":0.08,"totalExamples":7},{"rt":null,"stimulus":"Sending examples to student... ","response":null,"trial_type":"html-keyboard-response","trial_index":58,"time_elapsed":777163,"internal_node_id":"0.0-51.0","params":{"nStudents":24,"maxFlips":25,"completionMinutes":45,"basePay":8,"maxBonus":9,"perTrialBonus":0.5,"perTrialBonusThreshold":0.05,"exampleCost":0.02},"classroomParams":{"A":{"a":1,"b":4},"B":{"a":4,"b":1},"C":{"a":2,"b":8},"D":{"a":8,"b":2}},"conditions":["nonSeqFull","nonSeqPartial","seqNoFeedback","seqFeedback"],"classroomPairings":[["A","B"],["C","D"]],"coinWeights":[0.2,0.5,0.8],"subjectId":"A6Y7SZU9L301W","assignmentId":"3NC5L260MP8NECOK3IPEI08WS2JOFB","hitId":"3XUY87HIVP03YZXVLN9CW37DVI1MM2","url":"https://gershmanlab.com/experiments/alicia/teaching/experiment/?hitId=3XUY87HIVP03YZXVLN9CW37DVI1MM2&workerId=A6Y7SZU9L301W&assignmentId=3NC5L260MP8NECOK3IPEI08WS2JOFB&a=0LCN3&tp_a=0LCN3&b=3NC5L260MP8NECOK3IPEI08WS2JOFB&tp_b=3NC5L260MP8NECOK3IPEI08WS2JOFB&c=365633&tp_c=365633"},{"rt":null,"stimulus":"Examples sent to student! Waiting for student...","response":null,"trial_type":"html-keyboard-response","trial_index":59,"time_elapsed":781164,"internal_node_id":"0.0-52.0","params":{"nStudents":24,"maxFlips":25,"completionMinutes":45,"basePay":8,"maxBonus":9,"perTrialBonus":0.5,"perTrialBonusThreshold":0.05,"exampleCost":0.02},"classroomParams":{"A":{"a":1,"b":4},"B":{"a":4,"b":1},"C":{"a":2,"b":8},"D":{"a":8,"b":2}},"conditions":["nonSeqFull","nonSeqPartial","seqNoFeedback","seqFeedback"],"classroomPairings":[["A","B"],["C","D"]],"coinWeights":[0.2,0.5,0.8],"subjectId":"A6Y7SZU9L301W","assignmentId":"3NC5L260MP8NECOK3IPEI08WS2JOFB","hitId":"3XUY87HIVP03YZXVLN9CW37DVI1MM2","url":"https://gershmanlab.com/experiments/alicia/teaching/experiment/?hitId=3XUY87HIVP03YZXVLN9CW37DVI1MM2&workerId=A6Y7SZU9L301W&assignmentId=3NC5L260MP8NECOK3IPEI08WS2JOFB&a=0LCN3&tp_a=0LCN3&b=3NC5L260MP8NECOK3IPEI08WS2JOFB&tp_b=3NC5L260MP8NECOK3IPEI08WS2JOFB&c=365633&tp_c=365633"},{"rt":4451,"stimulus":"\n                <p>Student 6's first guess for coin weight: <b style=\"color:Tomato\";>0.13</b></p>\n                <p>Student 6's second guess for coin weight: <b style=\"color:Tomato\";>0.12</b></p>\n                <p>You received a bonus of <b>$0.00</b> based on the student's second guess.</p>\n                <p>Total bonus so far: <b>$0.08</b></p>\n                <p>Press any key to continue.</p>\n                ","response":" ","trial_type":"html-keyboard-response","trial_index":60,"time_elapsed":785617,"internal_node_id":"0.0-53.0","params":{"nStudents":24,"maxFlips":25,"completionMinutes":45,"basePay":8,"maxBonus":9,"perTrialBonus":0.5,"perTrialBonusThreshold":0.05,"exampleCost":0.02},"classroomParams":{"A":{"a":1,"b":4},"B":{"a":4,"b":1},"C":{"a":2,"b":8},"D":{"a":8,"b":2}},"conditions":["nonSeqFull","nonSeqPartial","seqNoFeedback","seqFeedback"],"classroomPairings":[["A","B"],["C","D"]],"coinWeights":[0.2,0.5,0.8],"subjectId":"A6Y7SZU9L301W","assignmentId":"3NC5L260MP8NECOK3IPEI08WS2JOFB","hitId":"3XUY87HIVP03YZXVLN9CW37DVI1MM2","url":"https://gershmanlab.com/experiments/alicia/teaching/experiment/?hitId=3XUY87HIVP03YZXVLN9CW37DVI1MM2&workerId=A6Y7SZU9L301W&assignmentId=3NC5L260MP8NECOK3IPEI08WS2JOFB&a=0LCN3&tp_a=0LCN3&b=3NC5L260MP8NECOK3IPEI08WS2JOFB&tp_b=3NC5L260MP8NECOK3IPEI08WS2JOFB&c=365633&tp_c=365633"},{"rt":null,"stimulus":"<div style=\"font-size:60px;\">Next student</div>","response":null,"trial_type":"html-keyboard-response","trial_index":61,"time_elapsed":788117,"internal_node_id":"0.0-54.0-0.0","params":{"nStudents":24,"maxFlips":25,"completionMinutes":45,"basePay":8,"maxBonus":9,"perTrialBonus":0.5,"perTrialBonusThreshold":0.05,"exampleCost":0.02},"classroomParams":{"A":{"a":1,"b":4},"B":{"a":4,"b":1},"C":{"a":2,"b":8},"D":{"a":8,"b":2}},"conditions":["nonSeqFull","nonSeqPartial","seqNoFeedback","seqFeedback"],"classroomPairings":[["A","B"],["C","D"]],"coinWeights":[0.2,0.5,0.8],"subjectId":"A6Y7SZU9L301W","assignmentId":"3NC5L260MP8NECOK3IPEI08WS2JOFB","hitId":"3XUY87HIVP03YZXVLN9CW37DVI1MM2","url":"https://gershmanlab.com/experiments/alicia/teaching/experiment/?hitId=3XUY87HIVP03YZXVLN9CW37DVI1MM2&workerId=A6Y7SZU9L301W&assignmentId=3NC5L260MP8NECOK3IPEI08WS2JOFB&a=0LCN3&tp_a=0LCN3&b=3NC5L260MP8NECOK3IPEI08WS2JOFB&tp_b=3NC5L260MP8NECOK3IPEI08WS2JOFB&c=365633&tp_c=365633"},{"rt":4292,"stimulus":"\n            <h4 style=\"color:Orange;\">Student 7</h4>\n            <h2>The weight of your coin is <b style=\"color:Tomato;\">0.8</b>.</h2>\n            <p>In this block, you will be giving <b>one</b> set of examples to Student 7.</p>\n                <p>You will receive feedback at the end of the block.</p>\n            <p></p>","response":0,"trial_type":"html-button-response","trial_index":62,"time_elapsed":792409,"internal_node_id":"0.0-55.0","params":{"nStudents":24,"maxFlips":25,"completionMinutes":45,"basePay":8,"maxBonus":9,"perTrialBonus":0.5,"perTrialBonusThreshold":0.05,"exampleCost":0.02},"classroomParams":{"A":{"a":1,"b":4},"B":{"a":4,"b":1},"C":{"a":2,"b":8},"D":{"a":8,"b":2}},"conditions":["nonSeqFull","nonSeqPartial","seqNoFeedback","seqFeedback"],"classroomPairings":[["A","B"],["C","D"]],"coinWeights":[0.2,0.5,0.8],"subjectId":"A6Y7SZU9L301W","assignmentId":"3NC5L260MP8NECOK3IPEI08WS2JOFB","hitId":"3XUY87HIVP03YZXVLN9CW37DVI1MM2","url":"https://gershmanlab.com/experiments/alicia/teaching/experiment/?hitId=3XUY87HIVP03YZXVLN9CW37DVI1MM2&workerId=A6Y7SZU9L301W&assignmentId=3NC5L260MP8NECOK3IPEI08WS2JOFB&a=0LCN3&tp_a=0LCN3&b=3NC5L260MP8NECOK3IPEI08WS2JOFB&tp_b=3NC5L260MP8NECOK3IPEI08WS2JOFB&c=365633&tp_c=365633"},{"rt":8455,"response":{"heads":"5","tails":"0"},"type":"response","condition":"nonSeqFull","trueTheta":0.8,"classrooms":["A","B"],"studentTrueClassroom":"A","exampleSet":"first","trial_type":"survey-html-form","trial_index":63,"time_elapsed":800865,"internal_node_id":"0.0-56.0-0.0","params":{"nStudents":24,"maxFlips":25,"completionMinutes":45,"basePay":8,"maxBonus":9,"perTrialBonus":0.5,"perTrialBonusThreshold":0.05,"exampleCost":0.02},"classroomParams":{"A":{"a":1,"b":4},"B":{"a":4,"b":1},"C":{"a":2,"b":8},"D":{"a":8,"b":2}},"conditions":["nonSeqFull","nonSeqPartial","seqNoFeedback","seqFeedback"],"classroomPairings":[["A","B"],["C","D"]],"coinWeights":[0.2,0.5,0.8],"subjectId":"A6Y7SZU9L301W","assignmentId":"3NC5L260MP8NECOK3IPEI08WS2JOFB","hitId":"3XUY87HIVP03YZXVLN9CW37DVI1MM2","url":"https://gershmanlab.com/experiments/alicia/teaching/experiment/?hitId=3XUY87HIVP03YZXVLN9CW37DVI1MM2&workerId=A6Y7SZU9L301W&assignmentId=3NC5L260MP8NECOK3IPEI08WS2JOFB&a=0LCN3&tp_a=0LCN3&b=3NC5L260MP8NECOK3IPEI08WS2JOFB&tp_b=3NC5L260MP8NECOK3IPEI08WS2JOFB&c=365633&tp_c=365633","heads":5,"tails":0,"studentIndex":6,"studentTrueHypers":{"a":1,"b":4},"studentGuess":0.6,"delta":0.20000000000000007,"totalExamples":5,"bonus":0,"bonusSoFar":0.08},{"rt":null,"stimulus":"Sending examples to student... ","response":null,"trial_type":"html-keyboard-response","trial_index":64,"time_elapsed":802617,"internal_node_id":"0.0-57.0","params":{"nStudents":24,"maxFlips":25,"completionMinutes":45,"basePay":8,"maxBonus":9,"perTrialBonus":0.5,"perTrialBonusThreshold":0.05,"exampleCost":0.02},"classroomParams":{"A":{"a":1,"b":4},"B":{"a":4,"b":1},"C":{"a":2,"b":8},"D":{"a":8,"b":2}},"conditions":["nonSeqFull","nonSeqPartial","seqNoFeedback","seqFeedback"],"classroomPairings":[["A","B"],["C","D"]],"coinWeights":[0.2,0.5,0.8],"subjectId":"A6Y7SZU9L301W","assignmentId":"3NC5L260MP8NECOK3IPEI08WS2JOFB","hitId":"3XUY87HIVP03YZXVLN9CW37DVI1MM2","url":"https://gershmanlab.com/experiments/alicia/teaching/experiment/?hitId=3XUY87HIVP03YZXVLN9CW37DVI1MM2&workerId=A6Y7SZU9L301W&assignmentId=3NC5L260MP8NECOK3IPEI08WS2JOFB&a=0LCN3&tp_a=0LCN3&b=3NC5L260MP8NECOK3IPEI08WS2JOFB&tp_b=3NC5L260MP8NECOK3IPEI08WS2JOFB&c=365633&tp_c=365633"},{"rt":null,"stimulus":"Examples sent to student! Waiting for student...","response":null,"trial_type":"html-keyboard-response","trial_index":65,"time_elapsed":808118,"internal_node_id":"0.0-58.0","params":{"nStudents":24,"maxFlips":25,"completionMinutes":45,"basePay":8,"maxBonus":9,"perTrialBonus":0.5,"perTrialBonusThreshold":0.05,"exampleCost":0.02},"classroomParams":{"A":{"a":1,"b":4},"B":{"a":4,"b":1},"C":{"a":2,"b":8},"D":{"a":8,"b":2}},"conditions":["nonSeqFull","nonSeqPartial","seqNoFeedback","seqFeedback"],"classroomPairings":[["A","B"],["C","D"]],"coinWeights":[0.2,0.5,0.8],"subjectId":"A6Y7SZU9L301W","assignmentId":"3NC5L260MP8NECOK3IPEI08WS2JOFB","hitId":"3XUY87HIVP03YZXVLN9CW37DVI1MM2","url":"https://gershmanlab.com/experiments/alicia/teaching/experiment/?hitId=3XUY87HIVP03YZXVLN9CW37DVI1MM2&workerId=A6Y7SZU9L301W&assignmentId=3NC5L260MP8NECOK3IPEI08WS2JOFB&a=0LCN3&tp_a=0LCN3&b=3NC5L260MP8NECOK3IPEI08WS2JOFB&tp_b=3NC5L260MP8NECOK3IPEI08WS2JOFB&c=365633&tp_c=365633"},{"rt":3993,"stimulus":"\n                <p>Student's guess for coin weight: <b style=\"color:Tomato;\">0.60</b></p>\n                <p>You received a bonus of <b>$0</b>. Total bonus so far: <b>$0.08</b></b></p>\n                <p></p>\n                <p>Press any key to continue.</p>\n                ","response":" ","trial_type":"html-keyboard-response","trial_index":66,"time_elapsed":812113,"internal_node_id":"0.0-59.0","params":{"nStudents":24,"maxFlips":25,"completionMinutes":45,"basePay":8,"maxBonus":9,"perTrialBonus":0.5,"perTrialBonusThreshold":0.05,"exampleCost":0.02},"classroomParams":{"A":{"a":1,"b":4},"B":{"a":4,"b":1},"C":{"a":2,"b":8},"D":{"a":8,"b":2}},"conditions":["nonSeqFull","nonSeqPartial","seqNoFeedback","seqFeedback"],"classroomPairings":[["A","B"],["C","D"]],"coinWeights":[0.2,0.5,0.8],"subjectId":"A6Y7SZU9L301W","assignmentId":"3NC5L260MP8NECOK3IPEI08WS2JOFB","hitId":"3XUY87HIVP03YZXVLN9CW37DVI1MM2","url":"https://gershmanlab.com/experiments/alicia/teaching/experiment/?hitId=3XUY87HIVP03YZXVLN9CW37DVI1MM2&workerId=A6Y7SZU9L301W&assignmentId=3NC5L260MP8NECOK3IPEI08WS2JOFB&a=0LCN3&tp_a=0LCN3&b=3NC5L260MP8NECOK3IPEI08WS2JOFB&tp_b=3NC5L260MP8NECOK3IPEI08WS2JOFB&c=365633&tp_c=365633"},{"rt":null,"stimulus":"<div style=\"font-size:60px;\">Next student</div>","response":null,"trial_type":"html-keyboard-response","trial_index":67,"time_elapsed":814113,"internal_node_id":"0.0-60.0-0.0","params":{"nStudents":24,"maxFlips":25,"completionMinutes":45,"basePay":8,"maxBonus":9,"perTrialBonus":0.5,"perTrialBonusThreshold":0.05,"exampleCost":0.02},"classroomParams":{"A":{"a":1,"b":4},"B":{"a":4,"b":1},"C":{"a":2,"b":8},"D":{"a":8,"b":2}},"conditions":["nonSeqFull","nonSeqPartial","seqNoFeedback","seqFeedback"],"classroomPairings":[["A","B"],["C","D"]],"coinWeights":[0.2,0.5,0.8],"subjectId":"A6Y7SZU9L301W","assignmentId":"3NC5L260MP8NECOK3IPEI08WS2JOFB","hitId":"3XUY87HIVP03YZXVLN9CW37DVI1MM2","url":"https://gershmanlab.com/experiments/alicia/teaching/experiment/?hitId=3XUY87HIVP03YZXVLN9CW37DVI1MM2&workerId=A6Y7SZU9L301W&assignmentId=3NC5L260MP8NECOK3IPEI08WS2JOFB&a=0LCN3&tp_a=0LCN3&b=3NC5L260MP8NECOK3IPEI08WS2JOFB&tp_b=3NC5L260MP8NECOK3IPEI08WS2JOFB&c=365633&tp_c=365633"},{"rt":4612,"stimulus":"\n            <h4 style=\"color:Orange;\">Student 8</h4>\n            <h2>The weight of your coin is <b style=\"color:Tomato;\">0.5</b>.</h2>\n            <p>In this block, you will be giving <b>one</b> set of examples to Student 8.</p>\n                <p>You will receive feedback at the end of the block.</p>\n            <p></p>","response":0,"trial_type":"html-button-response","trial_index":68,"time_elapsed":818726,"internal_node_id":"0.0-61.0","params":{"nStudents":24,"maxFlips":25,"completionMinutes":45,"basePay":8,"maxBonus":9,"perTrialBonus":0.5,"perTrialBonusThreshold":0.05,"exampleCost":0.02},"classroomParams":{"A":{"a":1,"b":4},"B":{"a":4,"b":1},"C":{"a":2,"b":8},"D":{"a":8,"b":2}},"conditions":["nonSeqFull","nonSeqPartial","seqNoFeedback","seqFeedback"],"classroomPairings":[["A","B"],["C","D"]],"coinWeights":[0.2,0.5,0.8],"subjectId":"A6Y7SZU9L301W","assignmentId":"3NC5L260MP8NECOK3IPEI08WS2JOFB","hitId":"3XUY87HIVP03YZXVLN9CW37DVI1MM2","url":"https://gershmanlab.com/experiments/alicia/teaching/experiment/?hitId=3XUY87HIVP03YZXVLN9CW37DVI1MM2&workerId=A6Y7SZU9L301W&assignmentId=3NC5L260MP8NECOK3IPEI08WS2JOFB&a=0LCN3&tp_a=0LCN3&b=3NC5L260MP8NECOK3IPEI08WS2JOFB&tp_b=3NC5L260MP8NECOK3IPEI08WS2JOFB&c=365633&tp_c=365633"},{"rt":42995,"response":{"heads":"5","tails":"2"},"type":"response","condition":"nonSeqFull","trueTheta":0.5,"classrooms":["C","D"],"studentTrueClassroom":"C","exampleSet":"first","trial_type":"survey-html-form","trial_index":69,"time_elapsed":861721,"internal_node_id":"0.0-62.0-0.0","params":{"nStudents":24,"maxFlips":25,"completionMinutes":45,"basePay":8,"maxBonus":9,"perTrialBonus":0.5,"perTrialBonusThreshold":0.05,"exampleCost":0.02},"classroomParams":{"A":{"a":1,"b":4},"B":{"a":4,"b":1},"C":{"a":2,"b":8},"D":{"a":8,"b":2}},"conditions":["nonSeqFull","nonSeqPartial","seqNoFeedback","seqFeedback"],"classroomPairings":[["A","B"],["C","D"]],"coinWeights":[0.2,0.5,0.8],"subjectId":"A6Y7SZU9L301W","assignmentId":"3NC5L260MP8NECOK3IPEI08WS2JOFB","hitId":"3XUY87HIVP03YZXVLN9CW37DVI1MM2","url":"https://gershmanlab.com/experiments/alicia/teaching/experiment/?hitId=3XUY87HIVP03YZXVLN9CW37DVI1MM2&workerId=A6Y7SZU9L301W&assignmentId=3NC5L260MP8NECOK3IPEI08WS2JOFB&a=0LCN3&tp_a=0LCN3&b=3NC5L260MP8NECOK3IPEI08WS2JOFB&tp_b=3NC5L260MP8NECOK3IPEI08WS2JOFB&c=365633&tp_c=365633","heads":5,"tails":2,"studentIndex":7,"studentTrueHypers":{"a":2,"b":8},"studentGuess":0.4117647058823529,"delta":0.08823529411764708,"totalExamples":7,"bonus":0,"bonusSoFar":0.08},{"rt":null,"stimulus":"Sending examples to student... ","response":null,"trial_type":"html-keyboard-response","trial_index":70,"time_elapsed":863473,"internal_node_id":"0.0-63.0","params":{"nStudents":24,"maxFlips":25,"completionMinutes":45,"basePay":8,"maxBonus":9,"perTrialBonus":0.5,"perTrialBonusThreshold":0.05,"exampleCost":0.02},"classroomParams":{"A":{"a":1,"b":4},"B":{"a":4,"b":1},"C":{"a":2,"b":8},"D":{"a":8,"b":2}},"conditions":["nonSeqFull","nonSeqPartial","seqNoFeedback","seqFeedback"],"classroomPairings":[["A","B"],["C","D"]],"coinWeights":[0.2,0.5,0.8],"subjectId":"A6Y7SZU9L301W","assignmentId":"3NC5L260MP8NECOK3IPEI08WS2JOFB","hitId":"3XUY87HIVP03YZXVLN9CW37DVI1MM2","url":"https://gershmanlab.com/experiments/alicia/teaching/experiment/?hitId=3XUY87HIVP03YZXVLN9CW37DVI1MM2&workerId=A6Y7SZU9L301W&assignmentId=3NC5L260MP8NECOK3IPEI08WS2JOFB&a=0LCN3&tp_a=0LCN3&b=3NC5L260MP8NECOK3IPEI08WS2JOFB&tp_b=3NC5L260MP8NECOK3IPEI08WS2JOFB&c=365633&tp_c=365633"},{"rt":null,"stimulus":"Examples sent to student! Waiting for student...","response":null,"trial_type":"html-keyboard-response","trial_index":71,"time_elapsed":868474,"internal_node_id":"0.0-64.0","params":{"nStudents":24,"maxFlips":25,"completionMinutes":45,"basePay":8,"maxBonus":9,"perTrialBonus":0.5,"perTrialBonusThreshold":0.05,"exampleCost":0.02},"classroomParams":{"A":{"a":1,"b":4},"B":{"a":4,"b":1},"C":{"a":2,"b":8},"D":{"a":8,"b":2}},"conditions":["nonSeqFull","nonSeqPartial","seqNoFeedback","seqFeedback"],"classroomPairings":[["A","B"],["C","D"]],"coinWeights":[0.2,0.5,0.8],"subjectId":"A6Y7SZU9L301W","assignmentId":"3NC5L260MP8NECOK3IPEI08WS2JOFB","hitId":"3XUY87HIVP03YZXVLN9CW37DVI1MM2","url":"https://gershmanlab.com/experiments/alicia/teaching/experiment/?hitId=3XUY87HIVP03YZXVLN9CW37DVI1MM2&workerId=A6Y7SZU9L301W&assignmentId=3NC5L260MP8NECOK3IPEI08WS2JOFB&a=0LCN3&tp_a=0LCN3&b=3NC5L260MP8NECOK3IPEI08WS2JOFB&tp_b=3NC5L260MP8NECOK3IPEI08WS2JOFB&c=365633&tp_c=365633"},{"rt":4441,"stimulus":"\n                <p>Student's guess for coin weight: <b style=\"color:Tomato;\">0.41</b></p>\n                <p>You received a bonus of <b>$0</b>. Total bonus so far: <b>$0.08</b></b></p>\n                <p></p>\n                <p>Press any key to continue.</p>\n                ","response":" ","trial_type":"html-keyboard-response","trial_index":72,"time_elapsed":872916,"internal_node_id":"0.0-65.0","params":{"nStudents":24,"maxFlips":25,"completionMinutes":45,"basePay":8,"maxBonus":9,"perTrialBonus":0.5,"perTrialBonusThreshold":0.05,"exampleCost":0.02},"classroomParams":{"A":{"a":1,"b":4},"B":{"a":4,"b":1},"C":{"a":2,"b":8},"D":{"a":8,"b":2}},"conditions":["nonSeqFull","nonSeqPartial","seqNoFeedback","seqFeedback"],"classroomPairings":[["A","B"],["C","D"]],"coinWeights":[0.2,0.5,0.8],"subjectId":"A6Y7SZU9L301W","assignmentId":"3NC5L260MP8NECOK3IPEI08WS2JOFB","hitId":"3XUY87HIVP03YZXVLN9CW37DVI1MM2","url":"https://gershmanlab.com/experiments/alicia/teaching/experiment/?hitId=3XUY87HIVP03YZXVLN9CW37DVI1MM2&workerId=A6Y7SZU9L301W&assignmentId=3NC5L260MP8NECOK3IPEI08WS2JOFB&a=0LCN3&tp_a=0LCN3&b=3NC5L260MP8NECOK3IPEI08WS2JOFB&tp_b=3NC5L260MP8NECOK3IPEI08WS2JOFB&c=365633&tp_c=365633"},{"rt":null,"stimulus":"<div style=\"font-size:60px;\">Next student</div>","response":null,"trial_type":"html-keyboard-response","trial_index":73,"time_elapsed":875917,"internal_node_id":"0.0-66.0-0.0","params":{"nStudents":24,"maxFlips":25,"completionMinutes":45,"basePay":8,"maxBonus":9,"perTrialBonus":0.5,"perTrialBonusThreshold":0.05,"exampleCost":0.02},"classroomParams":{"A":{"a":1,"b":4},"B":{"a":4,"b":1},"C":{"a":2,"b":8},"D":{"a":8,"b":2}},"conditions":["nonSeqFull","nonSeqPartial","seqNoFeedback","seqFeedback"],"classroomPairings":[["A","B"],["C","D"]],"coinWeights":[0.2,0.5,0.8],"subjectId":"A6Y7SZU9L301W","assignmentId":"3NC5L260MP8NECOK3IPEI08WS2JOFB","hitId":"3XUY87HIVP03YZXVLN9CW37DVI1MM2","url":"https://gershmanlab.com/experiments/alicia/teaching/experiment/?hitId=3XUY87HIVP03YZXVLN9CW37DVI1MM2&workerId=A6Y7SZU9L301W&assignmentId=3NC5L260MP8NECOK3IPEI08WS2JOFB&a=0LCN3&tp_a=0LCN3&b=3NC5L260MP8NECOK3IPEI08WS2JOFB&tp_b=3NC5L260MP8NECOK3IPEI08WS2JOFB&c=365633&tp_c=365633"},{"rt":4964,"stimulus":"\n            <h4 style=\"color:Orange;\">Student 9</h4>\n            <h2>The weight of your coin is <b style=\"color:Tomato;\">0.8</b>.</h2>\n            <p>In this block, you will be giving <b>one</b> set of examples to Student 9.</p>\n                <p>You will receive feedback at the end of the block.</p>\n            <p></p>","response":0,"trial_type":"html-button-response","trial_index":74,"time_elapsed":880882,"internal_node_id":"0.0-67.0","params":{"nStudents":24,"maxFlips":25,"completionMinutes":45,"basePay":8,"maxBonus":9,"perTrialBonus":0.5,"perTrialBonusThreshold":0.05,"exampleCost":0.02},"classroomParams":{"A":{"a":1,"b":4},"B":{"a":4,"b":1},"C":{"a":2,"b":8},"D":{"a":8,"b":2}},"conditions":["nonSeqFull","nonSeqPartial","seqNoFeedback","seqFeedback"],"classroomPairings":[["A","B"],["C","D"]],"coinWeights":[0.2,0.5,0.8],"subjectId":"A6Y7SZU9L301W","assignmentId":"3NC5L260MP8NECOK3IPEI08WS2JOFB","hitId":"3XUY87HIVP03YZXVLN9CW37DVI1MM2","url":"https://gershmanlab.com/experiments/alicia/teaching/experiment/?hitId=3XUY87HIVP03YZXVLN9CW37DVI1MM2&workerId=A6Y7SZU9L301W&assignmentId=3NC5L260MP8NECOK3IPEI08WS2JOFB&a=0LCN3&tp_a=0LCN3&b=3NC5L260MP8NECOK3IPEI08WS2JOFB&tp_b=3NC5L260MP8NECOK3IPEI08WS2JOFB&c=365633&tp_c=365633"},{"rt":10155,"response":{"heads":"8","tails":"1"},"type":"response","condition":"nonSeqPartial","trueTheta":0.8,"classrooms":["A","B"],"studentTrueClassroom":"B","exampleSet":"first","trial_type":"survey-html-form","trial_index":75,"time_elapsed":891038,"internal_node_id":"0.0-68.0-0.0","params":{"nStudents":24,"maxFlips":25,"completionMinutes":45,"basePay":8,"maxBonus":9,"perTrialBonus":0.5,"perTrialBonusThreshold":0.05,"exampleCost":0.02},"classroomParams":{"A":{"a":1,"b":4},"B":{"a":4,"b":1},"C":{"a":2,"b":8},"D":{"a":8,"b":2}},"conditions":["nonSeqFull","nonSeqPartial","seqNoFeedback","seqFeedback"],"classroomPairings":[["A","B"],["C","D"]],"coinWeights":[0.2,0.5,0.8],"subjectId":"A6Y7SZU9L301W","assignmentId":"3NC5L260MP8NECOK3IPEI08WS2JOFB","hitId":"3XUY87HIVP03YZXVLN9CW37DVI1MM2","url":"https://gershmanlab.com/experiments/alicia/teaching/experiment/?hitId=3XUY87HIVP03YZXVLN9CW37DVI1MM2&workerId=A6Y7SZU9L301W&assignmentId=3NC5L260MP8NECOK3IPEI08WS2JOFB&a=0LCN3&tp_a=0LCN3&b=3NC5L260MP8NECOK3IPEI08WS2JOFB&tp_b=3NC5L260MP8NECOK3IPEI08WS2JOFB&c=365633&tp_c=365633","heads":8,"tails":1,"studentIndex":8,"studentTrueHypers":{"a":4,"b":1},"studentGuess":0.8571428571428571,"delta":0.05714285714285705,"totalExamples":9,"bonus":0,"bonusSoFar":0.08},{"rt":null,"stimulus":"Sending examples to student... ","response":null,"trial_type":"html-keyboard-response","trial_index":76,"time_elapsed":892790,"internal_node_id":"0.0-69.0","params":{"nStudents":24,"maxFlips":25,"completionMinutes":45,"basePay":8,"maxBonus":9,"perTrialBonus":0.5,"perTrialBonusThreshold":0.05,"exampleCost":0.02},"classroomParams":{"A":{"a":1,"b":4},"B":{"a":4,"b":1},"C":{"a":2,"b":8},"D":{"a":8,"b":2}},"conditions":["nonSeqFull","nonSeqPartial","seqNoFeedback","seqFeedback"],"classroomPairings":[["A","B"],["C","D"]],"coinWeights":[0.2,0.5,0.8],"subjectId":"A6Y7SZU9L301W","assignmentId":"3NC5L260MP8NECOK3IPEI08WS2JOFB","hitId":"3XUY87HIVP03YZXVLN9CW37DVI1MM2","url":"https://gershmanlab.com/experiments/alicia/teaching/experiment/?hitId=3XUY87HIVP03YZXVLN9CW37DVI1MM2&workerId=A6Y7SZU9L301W&assignmentId=3NC5L260MP8NECOK3IPEI08WS2JOFB&a=0LCN3&tp_a=0LCN3&b=3NC5L260MP8NECOK3IPEI08WS2JOFB&tp_b=3NC5L260MP8NECOK3IPEI08WS2JOFB&c=365633&tp_c=365633"},{"rt":null,"stimulus":"Examples sent to student! Waiting for student...","response":null,"trial_type":"html-keyboard-response","trial_index":77,"time_elapsed":896792,"internal_node_id":"0.0-70.0","params":{"nStudents":24,"maxFlips":25,"completionMinutes":45,"basePay":8,"maxBonus":9,"perTrialBonus":0.5,"perTrialBonusThreshold":0.05,"exampleCost":0.02},"classroomParams":{"A":{"a":1,"b":4},"B":{"a":4,"b":1},"C":{"a":2,"b":8},"D":{"a":8,"b":2}},"conditions":["nonSeqFull","nonSeqPartial","seqNoFeedback","seqFeedback"],"classroomPairings":[["A","B"],["C","D"]],"coinWeights":[0.2,0.5,0.8],"subjectId":"A6Y7SZU9L301W","assignmentId":"3NC5L260MP8NECOK3IPEI08WS2JOFB","hitId":"3XUY87HIVP03YZXVLN9CW37DVI1MM2","url":"https://gershmanlab.com/experiments/alicia/teaching/experiment/?hitId=3XUY87HIVP03YZXVLN9CW37DVI1MM2&workerId=A6Y7SZU9L301W&assignmentId=3NC5L260MP8NECOK3IPEI08WS2JOFB&a=0LCN3&tp_a=0LCN3&b=3NC5L260MP8NECOK3IPEI08WS2JOFB&tp_b=3NC5L260MP8NECOK3IPEI08WS2JOFB&c=365633&tp_c=365633"},{"rt":3484,"stimulus":"\n                <p>Student's guess for coin weight: <b style=\"color:Tomato;\">0.86</b></p>\n                <p>You received a bonus of <b>$0</b>. Total bonus so far: <b>$0.08</b></b></p>\n                <p></p>\n                <p>Press any key to continue.</p>\n                ","response":" ","trial_type":"html-keyboard-response","trial_index":78,"time_elapsed":900276,"internal_node_id":"0.0-71.0","params":{"nStudents":24,"maxFlips":25,"completionMinutes":45,"basePay":8,"maxBonus":9,"perTrialBonus":0.5,"perTrialBonusThreshold":0.05,"exampleCost":0.02},"classroomParams":{"A":{"a":1,"b":4},"B":{"a":4,"b":1},"C":{"a":2,"b":8},"D":{"a":8,"b":2}},"conditions":["nonSeqFull","nonSeqPartial","seqNoFeedback","seqFeedback"],"classroomPairings":[["A","B"],["C","D"]],"coinWeights":[0.2,0.5,0.8],"subjectId":"A6Y7SZU9L301W","assignmentId":"3NC5L260MP8NECOK3IPEI08WS2JOFB","hitId":"3XUY87HIVP03YZXVLN9CW37DVI1MM2","url":"https://gershmanlab.com/experiments/alicia/teaching/experiment/?hitId=3XUY87HIVP03YZXVLN9CW37DVI1MM2&workerId=A6Y7SZU9L301W&assignmentId=3NC5L260MP8NECOK3IPEI08WS2JOFB&a=0LCN3&tp_a=0LCN3&b=3NC5L260MP8NECOK3IPEI08WS2JOFB&tp_b=3NC5L260MP8NECOK3IPEI08WS2JOFB&c=365633&tp_c=365633"},{"rt":null,"stimulus":"<div style=\"font-size:60px;\">Next student</div>","response":null,"trial_type":"html-keyboard-response","trial_index":79,"time_elapsed":902528,"internal_node_id":"0.0-72.0-0.0","params":{"nStudents":24,"maxFlips":25,"completionMinutes":45,"basePay":8,"maxBonus":9,"perTrialBonus":0.5,"perTrialBonusThreshold":0.05,"exampleCost":0.02},"classroomParams":{"A":{"a":1,"b":4},"B":{"a":4,"b":1},"C":{"a":2,"b":8},"D":{"a":8,"b":2}},"conditions":["nonSeqFull","nonSeqPartial","seqNoFeedback","seqFeedback"],"classroomPairings":[["A","B"],["C","D"]],"coinWeights":[0.2,0.5,0.8],"subjectId":"A6Y7SZU9L301W","assignmentId":"3NC5L260MP8NECOK3IPEI08WS2JOFB","hitId":"3XUY87HIVP03YZXVLN9CW37DVI1MM2","url":"https://gershmanlab.com/experiments/alicia/teaching/experiment/?hitId=3XUY87HIVP03YZXVLN9CW37DVI1MM2&workerId=A6Y7SZU9L301W&assignmentId=3NC5L260MP8NECOK3IPEI08WS2JOFB&a=0LCN3&tp_a=0LCN3&b=3NC5L260MP8NECOK3IPEI08WS2JOFB&tp_b=3NC5L260MP8NECOK3IPEI08WS2JOFB&c=365633&tp_c=365633"},{"rt":4725,"stimulus":"\n            <h4 style=\"color:Orange;\">Student 10</h4>\n            <h2>The weight of your coin is <b style=\"color:Tomato;\">0.8</b>.</h2>\n            <p>In this block, you will be giving <b>one</b> set of examples to Student 10.</p>\n                <p>You will receive feedback at the end of the block.</p>\n            <p></p>","response":0,"trial_type":"html-button-response","trial_index":80,"time_elapsed":907255,"internal_node_id":"0.0-73.0","params":{"nStudents":24,"maxFlips":25,"completionMinutes":45,"basePay":8,"maxBonus":9,"perTrialBonus":0.5,"perTrialBonusThreshold":0.05,"exampleCost":0.02},"classroomParams":{"A":{"a":1,"b":4},"B":{"a":4,"b":1},"C":{"a":2,"b":8},"D":{"a":8,"b":2}},"conditions":["nonSeqFull","nonSeqPartial","seqNoFeedback","seqFeedback"],"classroomPairings":[["A","B"],["C","D"]],"coinWeights":[0.2,0.5,0.8],"subjectId":"A6Y7SZU9L301W","assignmentId":"3NC5L260MP8NECOK3IPEI08WS2JOFB","hitId":"3XUY87HIVP03YZXVLN9CW37DVI1MM2","url":"https://gershmanlab.com/experiments/alicia/teaching/experiment/?hitId=3XUY87HIVP03YZXVLN9CW37DVI1MM2&workerId=A6Y7SZU9L301W&assignmentId=3NC5L260MP8NECOK3IPEI08WS2JOFB&a=0LCN3&tp_a=0LCN3&b=3NC5L260MP8NECOK3IPEI08WS2JOFB&tp_b=3NC5L260MP8NECOK3IPEI08WS2JOFB&c=365633&tp_c=365633"},{"rt":20115,"response":{"heads":"4","tails":"1"},"type":"response","condition":"nonSeqPartial","trueTheta":0.8,"classrooms":["C","D"],"studentTrueClassroom":"D","exampleSet":"first","trial_type":"survey-html-form","trial_index":81,"time_elapsed":927370,"internal_node_id":"0.0-74.0-0.0","params":{"nStudents":24,"maxFlips":25,"completionMinutes":45,"basePay":8,"maxBonus":9,"perTrialBonus":0.5,"perTrialBonusThreshold":0.05,"exampleCost":0.02},"classroomParams":{"A":{"a":1,"b":4},"B":{"a":4,"b":1},"C":{"a":2,"b":8},"D":{"a":8,"b":2}},"conditions":["nonSeqFull","nonSeqPartial","seqNoFeedback","seqFeedback"],"classroomPairings":[["A","B"],["C","D"]],"coinWeights":[0.2,0.5,0.8],"subjectId":"A6Y7SZU9L301W","assignmentId":"3NC5L260MP8NECOK3IPEI08WS2JOFB","hitId":"3XUY87HIVP03YZXVLN9CW37DVI1MM2","url":"https://gershmanlab.com/experiments/alicia/teaching/experiment/?hitId=3XUY87HIVP03YZXVLN9CW37DVI1MM2&workerId=A6Y7SZU9L301W&assignmentId=3NC5L260MP8NECOK3IPEI08WS2JOFB&a=0LCN3&tp_a=0LCN3&b=3NC5L260MP8NECOK3IPEI08WS2JOFB&tp_b=3NC5L260MP8NECOK3IPEI08WS2JOFB&c=365633&tp_c=365633","heads":4,"tails":1,"studentIndex":9,"studentTrueHypers":{"a":8,"b":2},"studentGuess":0.8,"delta":0,"totalExamples":5,"bonus":0.4,"bonusSoFar":0.48},{"rt":null,"stimulus":"Sending examples to student... ","response":null,"trial_type":"html-keyboard-response","trial_index":82,"time_elapsed":929371,"internal_node_id":"0.0-75.0","params":{"nStudents":24,"maxFlips":25,"completionMinutes":45,"basePay":8,"maxBonus":9,"perTrialBonus":0.5,"perTrialBonusThreshold":0.05,"exampleCost":0.02},"classroomParams":{"A":{"a":1,"b":4},"B":{"a":4,"b":1},"C":{"a":2,"b":8},"D":{"a":8,"b":2}},"conditions":["nonSeqFull","nonSeqPartial","seqNoFeedback","seqFeedback"],"classroomPairings":[["A","B"],["C","D"]],"coinWeights":[0.2,0.5,0.8],"subjectId":"A6Y7SZU9L301W","assignmentId":"3NC5L260MP8NECOK3IPEI08WS2JOFB","hitId":"3XUY87HIVP03YZXVLN9CW37DVI1MM2","url":"https://gershmanlab.com/experiments/alicia/teaching/experiment/?hitId=3XUY87HIVP03YZXVLN9CW37DVI1MM2&workerId=A6Y7SZU9L301W&assignmentId=3NC5L260MP8NECOK3IPEI08WS2JOFB&a=0LCN3&tp_a=0LCN3&b=3NC5L260MP8NECOK3IPEI08WS2JOFB&tp_b=3NC5L260MP8NECOK3IPEI08WS2JOFB&c=365633&tp_c=365633"},{"rt":null,"stimulus":"Examples sent to student! Waiting for student...","response":null,"trial_type":"html-keyboard-response","trial_index":83,"time_elapsed":934872,"internal_node_id":"0.0-76.0","params":{"nStudents":24,"maxFlips":25,"completionMinutes":45,"basePay":8,"maxBonus":9,"perTrialBonus":0.5,"perTrialBonusThreshold":0.05,"exampleCost":0.02},"classroomParams":{"A":{"a":1,"b":4},"B":{"a":4,"b":1},"C":{"a":2,"b":8},"D":{"a":8,"b":2}},"conditions":["nonSeqFull","nonSeqPartial","seqNoFeedback","seqFeedback"],"classroomPairings":[["A","B"],["C","D"]],"coinWeights":[0.2,0.5,0.8],"subjectId":"A6Y7SZU9L301W","assignmentId":"3NC5L260MP8NECOK3IPEI08WS2JOFB","hitId":"3XUY87HIVP03YZXVLN9CW37DVI1MM2","url":"https://gershmanlab.com/experiments/alicia/teaching/experiment/?hitId=3XUY87HIVP03YZXVLN9CW37DVI1MM2&workerId=A6Y7SZU9L301W&assignmentId=3NC5L260MP8NECOK3IPEI08WS2JOFB&a=0LCN3&tp_a=0LCN3&b=3NC5L260MP8NECOK3IPEI08WS2JOFB&tp_b=3NC5L260MP8NECOK3IPEI08WS2JOFB&c=365633&tp_c=365633"},{"rt":4875,"stimulus":"\n                <p>Student's guess for coin weight: <b style=\"color:Tomato;\">0.80</b></p>\n                <p>You received a bonus of <b>$0.4</b>. Total bonus so far: <b>$0.48</b></b></p>\n                <p></p>\n                <p>Press any key to continue.</p>\n                ","response":" ","trial_type":"html-keyboard-response","trial_index":84,"time_elapsed":939748,"internal_node_id":"0.0-77.0","params":{"nStudents":24,"maxFlips":25,"completionMinutes":45,"basePay":8,"maxBonus":9,"perTrialBonus":0.5,"perTrialBonusThreshold":0.05,"exampleCost":0.02},"classroomParams":{"A":{"a":1,"b":4},"B":{"a":4,"b":1},"C":{"a":2,"b":8},"D":{"a":8,"b":2}},"conditions":["nonSeqFull","nonSeqPartial","seqNoFeedback","seqFeedback"],"classroomPairings":[["A","B"],["C","D"]],"coinWeights":[0.2,0.5,0.8],"subjectId":"A6Y7SZU9L301W","assignmentId":"3NC5L260MP8NECOK3IPEI08WS2JOFB","hitId":"3XUY87HIVP03YZXVLN9CW37DVI1MM2","url":"https://gershmanlab.com/experiments/alicia/teaching/experiment/?hitId=3XUY87HIVP03YZXVLN9CW37DVI1MM2&workerId=A6Y7SZU9L301W&assignmentId=3NC5L260MP8NECOK3IPEI08WS2JOFB&a=0LCN3&tp_a=0LCN3&b=3NC5L260MP8NECOK3IPEI08WS2JOFB&tp_b=3NC5L260MP8NECOK3IPEI08WS2JOFB&c=365633&tp_c=365633"},{"rt":null,"stimulus":"<div style=\"font-size:60px;\">Next student</div>","response":null,"trial_type":"html-keyboard-response","trial_index":85,"time_elapsed":942750,"internal_node_id":"0.0-78.0-0.0","params":{"nStudents":24,"maxFlips":25,"completionMinutes":45,"basePay":8,"maxBonus":9,"perTrialBonus":0.5,"perTrialBonusThreshold":0.05,"exampleCost":0.02},"classroomParams":{"A":{"a":1,"b":4},"B":{"a":4,"b":1},"C":{"a":2,"b":8},"D":{"a":8,"b":2}},"conditions":["nonSeqFull","nonSeqPart