[{"rt":15996,"stimulus":"Welcome to the experiment. Press any key to begin.","response":" ","trial_type":"html-keyboard-response","trial_index":0,"time_elapsed":16008,"internal_node_id":"0.0-0.0","params":{"nStudents":24,"maxFlips":25,"completionMinutes":45,"basePay":8,"maxBonus":9,"perTrialBonus":0.5,"perTrialBonusThreshold":0.05,"exampleCost":0.02},"classroomParams":{"A":{"a":1,"b":4},"B":{"a":4,"b":1},"C":{"a":2,"b":8},"D":{"a":8,"b":2}},"conditions":["nonSeqFull","nonSeqPartial","seqNoFeedback","seqFeedback"],"classroomPairings":[["A","B"],["C","D"]],"coinWeights":[0.2,0.5,0.8],"subjectId":"AX27MR7AMU52H","assignmentId":"3KKG4CDWKJKA99NPHCADU6GG8DO94U","hitId":"3IH9TRB0FBLK6RLF7MSMKICTGYN1IU","url":"https://gershmanlab.com/experiments/alicia/teaching/experiment/?hitId=3IH9TRB0FBLK6RLF7MSMKICTGYN1IU&workerId=AX27MR7AMU52H&assignmentId=3KKG4CDWKJKA99NPHCADU6GG8DO94U&a=W4KK3&tp_a=W4KK3&b=3KKG4CDWKJKA99NPHCADU6GG8DO94U&tp_b=3KKG4CDWKJKA99NPHCADU6GG8DO94U&c=365633&tp_c=365633"},{"rt":20131,"stimulus":"\n        <h3>Please read this consent agreement carefully before deciding whether to participate in this experiment.</h3>\n        <p><b>Purpose of the research:</b> To examine how people teach effectively.</p>\n        <p><b>What you will do in this research:</b> You will teach students the weights of different coins.</p>\n        <p><b>Time required:</b> This experiment will take 45 minutes to complete.</p>\n        <p><b>Risks:</b> There are no anticipated risks associated with participating in this study.             The effects of participating should be comparable to those you would experience from viewing a computer monitor             and using a mouse and keyboard for the duration of the experiment.</p>\n        <p><b>Benefits:</b> The study provides important information about the nature of teaching.</p>\n        <p><b>Compensation:</b> You will receive <b>$8</b> for completing the experiment and a performance bonus of up to <b>$9</b>.</p>\n        <p><b>Confidentiality:</b> Your participation in this study will remain confidential.             No personally identifiable information will be associated with your data.             Your de-identified data may be shared with other researchers and used in future projects.</p>\n        <p><b>Participation and withdrawal:</b> Your participation in this study is completely voluntary and             you may refuse to participate or you may choose to withdraw at any time without penalty or loss of\n            benefits to which you are otherwise entitled.</p>\n        <p><b>How to contact the researcher:</b> If you have questions or concerns about your participation            or payment, or want to request a summary of research findings, please contact\n            Alicia Chen, aliciachen@college.harvard.edu.</p>\n        <p><b>Whom to contact about your rights in this research:</b> For questions, concerns, suggestions,             or complaints that have not been or cannot be addressed by the researcher, or to report             research-related harm, please contact the Committee on the Use of Human Subjects in Research at Harvard University,             1414 Massachusetts Avenue, Second Floor, Cambridge, MA 02138. Phone: 617-496-2847. Email: cuhs@fas.harvard.edu.</p>\n        ","response":0,"trial_type":"html-button-response","trial_index":1,"time_elapsed":36142,"internal_node_id":"0.0-1.0","params":{"nStudents":24,"maxFlips":25,"completionMinutes":45,"basePay":8,"maxBonus":9,"perTrialBonus":0.5,"perTrialBonusThreshold":0.05,"exampleCost":0.02},"classroomParams":{"A":{"a":1,"b":4},"B":{"a":4,"b":1},"C":{"a":2,"b":8},"D":{"a":8,"b":2}},"conditions":["nonSeqFull","nonSeqPartial","seqNoFeedback","seqFeedback"],"classroomPairings":[["A","B"],["C","D"]],"coinWeights":[0.2,0.5,0.8],"subjectId":"AX27MR7AMU52H","assignmentId":"3KKG4CDWKJKA99NPHCADU6GG8DO94U","hitId":"3IH9TRB0FBLK6RLF7MSMKICTGYN1IU","url":"https://gershmanlab.com/experiments/alicia/teaching/experiment/?hitId=3IH9TRB0FBLK6RLF7MSMKICTGYN1IU&workerId=AX27MR7AMU52H&assignmentId=3KKG4CDWKJKA99NPHCADU6GG8DO94U&a=W4KK3&tp_a=W4KK3&b=3KKG4CDWKJKA99NPHCADU6GG8DO94U&tp_b=3KKG4CDWKJKA99NPHCADU6GG8DO94U&c=365633&tp_c=365633"},{"view_history":[{"page_index":0,"viewing_time":7085},{"page_index":1,"viewing_time":3912},{"page_index":2,"viewing_time":84374},{"page_index":3,"viewing_time":18752},{"page_index":4,"viewing_time":24408},{"page_index":5,"viewing_time":21584},{"page_index":6,"viewing_time":114668}],"rt":274782,"trial_type":"instructions","trial_index":2,"time_elapsed":310931,"internal_node_id":"0.0-2.0-0.0","params":{"nStudents":24,"maxFlips":25,"completionMinutes":45,"basePay":8,"maxBonus":9,"perTrialBonus":0.5,"perTrialBonusThreshold":0.05,"exampleCost":0.02},"classroomParams":{"A":{"a":1,"b":4},"B":{"a":4,"b":1},"C":{"a":2,"b":8},"D":{"a":8,"b":2}},"conditions":["nonSeqFull","nonSeqPartial","seqNoFeedback","seqFeedback"],"classroomPairings":[["A","B"],["C","D"]],"coinWeights":[0.2,0.5,0.8],"subjectId":"AX27MR7AMU52H","assignmentId":"3KKG4CDWKJKA99NPHCADU6GG8DO94U","hitId":"3IH9TRB0FBLK6RLF7MSMKICTGYN1IU","url":"https://gershmanlab.com/experiments/alicia/teaching/experiment/?hitId=3IH9TRB0FBLK6RLF7MSMKICTGYN1IU&workerId=AX27MR7AMU52H&assignmentId=3KKG4CDWKJKA99NPHCADU6GG8DO94U&a=W4KK3&tp_a=W4KK3&b=3KKG4CDWKJKA99NPHCADU6GG8DO94U&tp_b=3KKG4CDWKJKA99NPHCADU6GG8DO94U&c=365633&tp_c=365633"},{"rt":82586,"response":{"Q0":"Students in different classrooms will have seen a different number of heads and tails before seeing the examples you select for them.","Q1":"By <b>considering the student's classroom information</b> so that I can teach efficiently and accurately/helpfully at the same time (because each example I give to the student costs money!).","Q2":"The coin lands heads 90% of the time.","Q3":"No, I will teach a <b>new</b> student each time.","Q4":"The students are also on the same alien planet as you, where coins can be unfair.","Q5":"Based on the student's second (and final) guess."},"question_order":[3,0,5,1,2,4],"trial_type":"survey-multi-choice","trial_index":3,"time_elapsed":393526,"internal_node_id":"0.0-2.0-1.0","params":{"nStudents":24,"maxFlips":25,"completionMinutes":45,"basePay":8,"maxBonus":9,"perTrialBonus":0.5,"perTrialBonusThreshold":0.05,"exampleCost":0.02},"classroomParams":{"A":{"a":1,"b":4},"B":{"a":4,"b":1},"C":{"a":2,"b":8},"D":{"a":8,"b":2}},"conditions":["nonSeqFull","nonSeqPartial","seqNoFeedback","seqFeedback"],"classroomPairings":[["A","B"],["C","D"]],"coinWeights":[0.2,0.5,0.8],"subjectId":"AX27MR7AMU52H","assignmentId":"3KKG4CDWKJKA99NPHCADU6GG8DO94U","hitId":"3IH9TRB0FBLK6RLF7MSMKICTGYN1IU","url":"https://gershmanlab.com/experiments/alicia/teaching/experiment/?hitId=3IH9TRB0FBLK6RLF7MSMKICTGYN1IU&workerId=AX27MR7AMU52H&assignmentId=3KKG4CDWKJKA99NPHCADU6GG8DO94U&a=W4KK3&tp_a=W4KK3&b=3KKG4CDWKJKA99NPHCADU6GG8DO94U&tp_b=3KKG4CDWKJKA99NPHCADU6GG8DO94U&c=365633&tp_c=365633","pass":true},{"rt":null,"stimulus":"<div style=\"font-size:30px;\">Congrats on passing the comprehension quiz! The experiment will begin in a few seconds.</div>","response":null,"trial_type":"html-keyboard-response","trial_index":4,"time_elapsed":396537,"internal_node_id":"0.0-3.0","params":{"nStudents":24,"maxFlips":25,"completionMinutes":45,"basePay":8,"maxBonus":9,"perTrialBonus":0.5,"perTrialBonusThreshold":0.05,"exampleCost":0.02},"classroomParams":{"A":{"a":1,"b":4},"B":{"a":4,"b":1},"C":{"a":2,"b":8},"D":{"a":8,"b":2}},"conditions":["nonSeqFull","nonSeqPartial","seqNoFeedback","seqFeedback"],"classroomPairings":[["A","B"],["C","D"]],"coinWeights":[0.2,0.5,0.8],"subjectId":"AX27MR7AMU52H","assignmentId":"3KKG4CDWKJKA99NPHCADU6GG8DO94U","hitId":"3IH9TRB0FBLK6RLF7MSMKICTGYN1IU","url":"https://gershmanlab.com/experiments/alicia/teaching/experiment/?hitId=3IH9TRB0FBLK6RLF7MSMKICTGYN1IU&workerId=AX27MR7AMU52H&assignmentId=3KKG4CDWKJKA99NPHCADU6GG8DO94U&a=W4KK3&tp_a=W4KK3&b=3KKG4CDWKJKA99NPHCADU6GG8DO94U&tp_b=3KKG4CDWKJKA99NPHCADU6GG8DO94U&c=365633&tp_c=365633"},{"rt":null,"stimulus":"<div style=\"font-size:50px;\">First student</div>","response":null,"trial_type":"html-keyboard-response","trial_index":5,"time_elapsed":399543,"internal_node_id":"0.0-4.0","params":{"nStudents":24,"maxFlips":25,"completionMinutes":45,"basePay":8,"maxBonus":9,"perTrialBonus":0.5,"perTrialBonusThreshold":0.05,"exampleCost":0.02},"classroomParams":{"A":{"a":1,"b":4},"B":{"a":4,"b":1},"C":{"a":2,"b":8},"D":{"a":8,"b":2}},"conditions":["nonSeqFull","nonSeqPartial","seqNoFeedback","seqFeedback"],"classroomPairings":[["A","B"],["C","D"]],"coinWeights":[0.2,0.5,0.8],"subjectId":"AX27MR7AMU52H","assignmentId":"3KKG4CDWKJKA99NPHCADU6GG8DO94U","hitId":"3IH9TRB0FBLK6RLF7MSMKICTGYN1IU","url":"https://gershmanlab.com/experiments/alicia/teaching/experiment/?hitId=3IH9TRB0FBLK6RLF7MSMKICTGYN1IU&workerId=AX27MR7AMU52H&assignmentId=3KKG4CDWKJKA99NPHCADU6GG8DO94U&a=W4KK3&tp_a=W4KK3&b=3KKG4CDWKJKA99NPHCADU6GG8DO94U&tp_b=3KKG4CDWKJKA99NPHCADU6GG8DO94U&c=365633&tp_c=365633"},{"rt":9627,"stimulus":"\n            <h4 style=\"color:Orange;\">Student 1</h4>\n            <h2>The weight of your coin is <b style=\"color:Tomato;\">0.2</b>.</h2>\n            <p>In this block, you will be giving <b>one</b> set of examples to Student 1.</p>\n                <p>You will receive feedback at the end of the block.</p>\n            <p></p>","response":0,"trial_type":"html-button-response","trial_index":6,"time_elapsed":409172,"internal_node_id":"0.0-5.0","params":{"nStudents":24,"maxFlips":25,"completionMinutes":45,"basePay":8,"maxBonus":9,"perTrialBonus":0.5,"perTrialBonusThreshold":0.05,"exampleCost":0.02},"classroomParams":{"A":{"a":1,"b":4},"B":{"a":4,"b":1},"C":{"a":2,"b":8},"D":{"a":8,"b":2}},"conditions":["nonSeqFull","nonSeqPartial","seqNoFeedback","seqFeedback"],"classroomPairings":[["A","B"],["C","D"]],"coinWeights":[0.2,0.5,0.8],"subjectId":"AX27MR7AMU52H","assignmentId":"3KKG4CDWKJKA99NPHCADU6GG8DO94U","hitId":"3IH9TRB0FBLK6RLF7MSMKICTGYN1IU","url":"https://gershmanlab.com/experiments/alicia/teaching/experiment/?hitId=3IH9TRB0FBLK6RLF7MSMKICTGYN1IU&workerId=AX27MR7AMU52H&assignmentId=3KKG4CDWKJKA99NPHCADU6GG8DO94U&a=W4KK3&tp_a=W4KK3&b=3KKG4CDWKJKA99NPHCADU6GG8DO94U&tp_b=3KKG4CDWKJKA99NPHCADU6GG8DO94U&c=365633&tp_c=365633"},{"rt":143410,"response":{"heads":"0","tails":"14"},"type":"response","condition":"nonSeqFull","trueTheta":0.2,"classrooms":["C","D"],"studentTrueClassroom":"D","exampleSet":"first","trial_type":"survey-html-form","trial_index":7,"time_elapsed":552582,"internal_node_id":"0.0-6.0-0.0","params":{"nStudents":24,"maxFlips":25,"completionMinutes":45,"basePay":8,"maxBonus":9,"perTrialBonus":0.5,"perTrialBonusThreshold":0.05,"exampleCost":0.02},"classroomParams":{"A":{"a":1,"b":4},"B":{"a":4,"b":1},"C":{"a":2,"b":8},"D":{"a":8,"b":2}},"conditions":["nonSeqFull","nonSeqPartial","seqNoFeedback","seqFeedback"],"classroomPairings":[["A","B"],["C","D"]],"coinWeights":[0.2,0.5,0.8],"subjectId":"AX27MR7AMU52H","assignmentId":"3KKG4CDWKJKA99NPHCADU6GG8DO94U","hitId":"3IH9TRB0FBLK6RLF7MSMKICTGYN1IU","url":"https://gershmanlab.com/experiments/alicia/teaching/experiment/?hitId=3IH9TRB0FBLK6RLF7MSMKICTGYN1IU&workerId=AX27MR7AMU52H&assignmentId=3KKG4CDWKJKA99NPHCADU6GG8DO94U&a=W4KK3&tp_a=W4KK3&b=3KKG4CDWKJKA99NPHCADU6GG8DO94U&tp_b=3KKG4CDWKJKA99NPHCADU6GG8DO94U&c=365633&tp_c=365633","heads":0,"tails":14,"studentIndex":0,"studentTrueHypers":{"a":8,"b":2},"studentGuess":0.3333333333333333,"delta":0.1333333333333333,"totalExamples":14,"bonus":0,"bonusSoFar":0},{"rt":null,"stimulus":"Sending examples to student... ","response":null,"trial_type":"html-keyboard-response","trial_index":8,"time_elapsed":554087,"internal_node_id":"0.0-7.0","params":{"nStudents":24,"maxFlips":25,"completionMinutes":45,"basePay":8,"maxBonus":9,"perTrialBonus":0.5,"perTrialBonusThreshold":0.05,"exampleCost":0.02},"classroomParams":{"A":{"a":1,"b":4},"B":{"a":4,"b":1},"C":{"a":2,"b":8},"D":{"a":8,"b":2}},"conditions":["nonSeqFull","nonSeqPartial","seqNoFeedback","seqFeedback"],"classroomPairings":[["A","B"],["C","D"]],"coinWeights":[0.2,0.5,0.8],"subjectId":"AX27MR7AMU52H","assignmentId":"3KKG4CDWKJKA99NPHCADU6GG8DO94U","hitId":"3IH9TRB0FBLK6RLF7MSMKICTGYN1IU","url":"https://gershmanlab.com/experiments/alicia/teaching/experiment/?hitId=3IH9TRB0FBLK6RLF7MSMKICTGYN1IU&workerId=AX27MR7AMU52H&assignmentId=3KKG4CDWKJKA99NPHCADU6GG8DO94U&a=W4KK3&tp_a=W4KK3&b=3KKG4CDWKJKA99NPHCADU6GG8DO94U&tp_b=3KKG4CDWKJKA99NPHCADU6GG8DO94U&c=365633&tp_c=365633"},{"rt":null,"stimulus":"Examples sent to student! Waiting for student...","response":null,"trial_type":"html-keyboard-response","trial_index":9,"time_elapsed":558594,"internal_node_id":"0.0-8.0","params":{"nStudents":24,"maxFlips":25,"completionMinutes":45,"basePay":8,"maxBonus":9,"perTrialBonus":0.5,"perTrialBonusThreshold":0.05,"exampleCost":0.02},"classroomParams":{"A":{"a":1,"b":4},"B":{"a":4,"b":1},"C":{"a":2,"b":8},"D":{"a":8,"b":2}},"conditions":["nonSeqFull","nonSeqPartial","seqNoFeedback","seqFeedback"],"classroomPairings":[["A","B"],["C","D"]],"coinWeights":[0.2,0.5,0.8],"subjectId":"AX27MR7AMU52H","assignmentId":"3KKG4CDWKJKA99NPHCADU6GG8DO94U","hitId":"3IH9TRB0FBLK6RLF7MSMKICTGYN1IU","url":"https://gershmanlab.com/experiments/alicia/teaching/experiment/?hitId=3IH9TRB0FBLK6RLF7MSMKICTGYN1IU&workerId=AX27MR7AMU52H&assignmentId=3KKG4CDWKJKA99NPHCADU6GG8DO94U&a=W4KK3&tp_a=W4KK3&b=3KKG4CDWKJKA99NPHCADU6GG8DO94U&tp_b=3KKG4CDWKJKA99NPHCADU6GG8DO94U&c=365633&tp_c=365633"},{"rt":11066,"stimulus":"\n                <p>Student's guess for coin weight: <b style=\"color:Tomato;\">0.33</b></p>\n                <p>You received a bonus of <b>$0</b>. Total bonus so far: <b>$0.00</b></b></p>\n                <p></p>\n                <p>Press any key to continue.</p>\n                ","response":" ","trial_type":"html-keyboard-response","trial_index":10,"time_elapsed":569662,"internal_node_id":"0.0-9.0","params":{"nStudents":24,"maxFlips":25,"completionMinutes":45,"basePay":8,"maxBonus":9,"perTrialBonus":0.5,"perTrialBonusThreshold":0.05,"exampleCost":0.02},"classroomParams":{"A":{"a":1,"b":4},"B":{"a":4,"b":1},"C":{"a":2,"b":8},"D":{"a":8,"b":2}},"conditions":["nonSeqFull","nonSeqPartial","seqNoFeedback","seqFeedback"],"classroomPairings":[["A","B"],["C","D"]],"coinWeights":[0.2,0.5,0.8],"subjectId":"AX27MR7AMU52H","assignmentId":"3KKG4CDWKJKA99NPHCADU6GG8DO94U","hitId":"3IH9TRB0FBLK6RLF7MSMKICTGYN1IU","url":"https://gershmanlab.com/experiments/alicia/teaching/experiment/?hitId=3IH9TRB0FBLK6RLF7MSMKICTGYN1IU&workerId=AX27MR7AMU52H&assignmentId=3KKG4CDWKJKA99NPHCADU6GG8DO94U&a=W4KK3&tp_a=W4KK3&b=3KKG4CDWKJKA99NPHCADU6GG8DO94U&tp_b=3KKG4CDWKJKA99NPHCADU6GG8DO94U&c=365633&tp_c=365633"},{"rt":null,"stimulus":"<div style=\"font-size:60px;\">Next student</div>","response":null,"trial_type":"html-keyboard-response","trial_index":11,"time_elapsed":571922,"internal_node_id":"0.0-10.0-0.0","params":{"nStudents":24,"maxFlips":25,"completionMinutes":45,"basePay":8,"maxBonus":9,"perTrialBonus":0.5,"perTrialBonusThreshold":0.05,"exampleCost":0.02},"classroomParams":{"A":{"a":1,"b":4},"B":{"a":4,"b":1},"C":{"a":2,"b":8},"D":{"a":8,"b":2}},"conditions":["nonSeqFull","nonSeqPartial","seqNoFeedback","seqFeedback"],"classroomPairings":[["A","B"],["C","D"]],"coinWeights":[0.2,0.5,0.8],"subjectId":"AX27MR7AMU52H","assignmentId":"3KKG4CDWKJKA99NPHCADU6GG8DO94U","hitId":"3IH9TRB0FBLK6RLF7MSMKICTGYN1IU","url":"https://gershmanlab.com/experiments/alicia/teaching/experiment/?hitId=3IH9TRB0FBLK6RLF7MSMKICTGYN1IU&workerId=AX27MR7AMU52H&assignmentId=3KKG4CDWKJKA99NPHCADU6GG8DO94U&a=W4KK3&tp_a=W4KK3&b=3KKG4CDWKJKA99NPHCADU6GG8DO94U&tp_b=3KKG4CDWKJKA99NPHCADU6GG8DO94U&c=365633&tp_c=365633"},{"rt":7936,"stimulus":"\n            <h4 style=\"color:Orange;\">Student 2</h4>\n            <h2>The weight of your coin is <b style=\"color:Tomato;\">0.2</b>.</h2>\n            <p>In this block, you will be giving <b>one</b> set of examples to Student 2.</p>\n                <p>You will receive feedback at the end of the block.</p>\n            <p></p>","response":0,"trial_type":"html-button-response","trial_index":12,"time_elapsed":579860,"internal_node_id":"0.0-11.0","params":{"nStudents":24,"maxFlips":25,"completionMinutes":45,"basePay":8,"maxBonus":9,"perTrialBonus":0.5,"perTrialBonusThreshold":0.05,"exampleCost":0.02},"classroomParams":{"A":{"a":1,"b":4},"B":{"a":4,"b":1},"C":{"a":2,"b":8},"D":{"a":8,"b":2}},"conditions":["nonSeqFull","nonSeqPartial","seqNoFeedback","seqFeedback"],"classroomPairings":[["A","B"],["C","D"]],"coinWeights":[0.2,0.5,0.8],"subjectId":"AX27MR7AMU52H","assignmentId":"3KKG4CDWKJKA99NPHCADU6GG8DO94U","hitId":"3IH9TRB0FBLK6RLF7MSMKICTGYN1IU","url":"https://gershmanlab.com/experiments/alicia/teaching/experiment/?hitId=3IH9TRB0FBLK6RLF7MSMKICTGYN1IU&workerId=AX27MR7AMU52H&assignmentId=3KKG4CDWKJKA99NPHCADU6GG8DO94U&a=W4KK3&tp_a=W4KK3&b=3KKG4CDWKJKA99NPHCADU6GG8DO94U&tp_b=3KKG4CDWKJKA99NPHCADU6GG8DO94U&c=365633&tp_c=365633"},{"rt":23206,"response":{"heads":"0","tails":"10"},"type":"response","condition":"nonSeqFull","trueTheta":0.2,"classrooms":["A","B"],"studentTrueClassroom":"B","exampleSet":"first","trial_type":"survey-html-form","trial_index":13,"time_elapsed":603071,"internal_node_id":"0.0-12.0-0.0","params":{"nStudents":24,"maxFlips":25,"completionMinutes":45,"basePay":8,"maxBonus":9,"perTrialBonus":0.5,"perTrialBonusThreshold":0.05,"exampleCost":0.02},"classroomParams":{"A":{"a":1,"b":4},"B":{"a":4,"b":1},"C":{"a":2,"b":8},"D":{"a":8,"b":2}},"conditions":["nonSeqFull","nonSeqPartial","seqNoFeedback","seqFeedback"],"classroomPairings":[["A","B"],["C","D"]],"coinWeights":[0.2,0.5,0.8],"subjectId":"AX27MR7AMU52H","assignmentId":"3KKG4CDWKJKA99NPHCADU6GG8DO94U","hitId":"3IH9TRB0FBLK6RLF7MSMKICTGYN1IU","url":"https://gershmanlab.com/experiments/alicia/teaching/experiment/?hitId=3IH9TRB0FBLK6RLF7MSMKICTGYN1IU&workerId=AX27MR7AMU52H&assignmentId=3KKG4CDWKJKA99NPHCADU6GG8DO94U&a=W4KK3&tp_a=W4KK3&b=3KKG4CDWKJKA99NPHCADU6GG8DO94U&tp_b=3KKG4CDWKJKA99NPHCADU6GG8DO94U&c=365633&tp_c=365633","heads":0,"tails":10,"studentIndex":1,"studentTrueHypers":{"a":4,"b":1},"studentGuess":0.26666666666666666,"delta":0.06666666666666665,"totalExamples":10,"bonus":0,"bonusSoFar":0},{"rt":null,"stimulus":"Sending examples to student... ","response":null,"trial_type":"html-keyboard-response","trial_index":14,"time_elapsed":604325,"internal_node_id":"0.0-13.0","params":{"nStudents":24,"maxFlips":25,"completionMinutes":45,"basePay":8,"maxBonus":9,"perTrialBonus":0.5,"perTrialBonusThreshold":0.05,"exampleCost":0.02},"classroomParams":{"A":{"a":1,"b":4},"B":{"a":4,"b":1},"C":{"a":2,"b":8},"D":{"a":8,"b":2}},"conditions":["nonSeqFull","nonSeqPartial","seqNoFeedback","seqFeedback"],"classroomPairings":[["A","B"],["C","D"]],"coinWeights":[0.2,0.5,0.8],"subjectId":"AX27MR7AMU52H","assignmentId":"3KKG4CDWKJKA99NPHCADU6GG8DO94U","hitId":"3IH9TRB0FBLK6RLF7MSMKICTGYN1IU","url":"https://gershmanlab.com/experiments/alicia/teaching/experiment/?hitId=3IH9TRB0FBLK6RLF7MSMKICTGYN1IU&workerId=AX27MR7AMU52H&assignmentId=3KKG4CDWKJKA99NPHCADU6GG8DO94U&a=W4KK3&tp_a=W4KK3&b=3KKG4CDWKJKA99NPHCADU6GG8DO94U&tp_b=3KKG4CDWKJKA99NPHCADU6GG8DO94U&c=365633&tp_c=365633"},{"rt":null,"stimulus":"Examples sent to student! Waiting for student...","response":null,"trial_type":"html-keyboard-response","trial_index":15,"time_elapsed":608831,"internal_node_id":"0.0-14.0","params":{"nStudents":24,"maxFlips":25,"completionMinutes":45,"basePay":8,"maxBonus":9,"perTrialBonus":0.5,"perTrialBonusThreshold":0.05,"exampleCost":0.02},"classroomParams":{"A":{"a":1,"b":4},"B":{"a":4,"b":1},"C":{"a":2,"b":8},"D":{"a":8,"b":2}},"conditions":["nonSeqFull","nonSeqPartial","seqNoFeedback","seqFeedback"],"classroomPairings":[["A","B"],["C","D"]],"coinWeights":[0.2,0.5,0.8],"subjectId":"AX27MR7AMU52H","assignmentId":"3KKG4CDWKJKA99NPHCADU6GG8DO94U","hitId":"3IH9TRB0FBLK6RLF7MSMKICTGYN1IU","url":"https://gershmanlab.com/experiments/alicia/teaching/experiment/?hitId=3IH9TRB0FBLK6RLF7MSMKICTGYN1IU&workerId=AX27MR7AMU52H&assignmentId=3KKG4CDWKJKA99NPHCADU6GG8DO94U&a=W4KK3&tp_a=W4KK3&b=3KKG4CDWKJKA99NPHCADU6GG8DO94U&tp_b=3KKG4CDWKJKA99NPHCADU6GG8DO94U&c=365633&tp_c=365633"},{"rt":8926,"stimulus":"\n                <p>Student's guess for coin weight: <b style=\"color:Tomato;\">0.27</b></p>\n                <p>You received a bonus of <b>$0</b>. Total bonus so far: <b>$0.00</b></b></p>\n                <p></p>\n                <p>Press any key to continue.</p>\n                ","response":" ","trial_type":"html-keyboard-response","trial_index":16,"time_elapsed":617759,"internal_node_id":"0.0-15.0","params":{"nStudents":24,"maxFlips":25,"completionMinutes":45,"basePay":8,"maxBonus":9,"perTrialBonus":0.5,"perTrialBonusThreshold":0.05,"exampleCost":0.02},"classroomParams":{"A":{"a":1,"b":4},"B":{"a":4,"b":1},"C":{"a":2,"b":8},"D":{"a":8,"b":2}},"conditions":["nonSeqFull","nonSeqPartial","seqNoFeedback","seqFeedback"],"classroomPairings":[["A","B"],["C","D"]],"coinWeights":[0.2,0.5,0.8],"subjectId":"AX27MR7AMU52H","assignmentId":"3KKG4CDWKJKA99NPHCADU6GG8DO94U","hitId":"3IH9TRB0FBLK6RLF7MSMKICTGYN1IU","url":"https://gershmanlab.com/experiments/alicia/teaching/experiment/?hitId=3IH9TRB0FBLK6RLF7MSMKICTGYN1IU&workerId=AX27MR7AMU52H&assignmentId=3KKG4CDWKJKA99NPHCADU6GG8DO94U&a=W4KK3&tp_a=W4KK3&b=3KKG4CDWKJKA99NPHCADU6GG8DO94U&tp_b=3KKG4CDWKJKA99NPHCADU6GG8DO94U&c=365633&tp_c=365633"},{"rt":null,"stimulus":"<div style=\"font-size:60px;\">Next student</div>","response":null,"trial_type":"html-keyboard-response","trial_index":17,"time_elapsed":620761,"internal_node_id":"0.0-16.0-0.0","params":{"nStudents":24,"maxFlips":25,"completionMinutes":45,"basePay":8,"maxBonus":9,"perTrialBonus":0.5,"perTrialBonusThreshold":0.05,"exampleCost":0.02},"classroomParams":{"A":{"a":1,"b":4},"B":{"a":4,"b":1},"C":{"a":2,"b":8},"D":{"a":8,"b":2}},"conditions":["nonSeqFull","nonSeqPartial","seqNoFeedback","seqFeedback"],"classroomPairings":[["A","B"],["C","D"]],"coinWeights":[0.2,0.5,0.8],"subjectId":"AX27MR7AMU52H","assignmentId":"3KKG4CDWKJKA99NPHCADU6GG8DO94U","hitId":"3IH9TRB0FBLK6RLF7MSMKICTGYN1IU","url":"https://gershmanlab.com/experiments/alicia/teaching/experiment/?hitId=3IH9TRB0FBLK6RLF7MSMKICTGYN1IU&workerId=AX27MR7AMU52H&assignmentId=3KKG4CDWKJKA99NPHCADU6GG8DO94U&a=W4KK3&tp_a=W4KK3&b=3KKG4CDWKJKA99NPHCADU6GG8DO94U&tp_b=3KKG4CDWKJKA99NPHCADU6GG8DO94U&c=365633&tp_c=365633"},{"rt":2251,"stimulus":"\n            <h4 style=\"color:Orange;\">Student 3</h4>\n            <h2>The weight of your coin is <b style=\"color:Tomato;\">0.5</b>.</h2>\n            <p>In this block, you will be giving <b>one</b> set of examples to Student 3.</p>\n                <p>You will receive feedback at the end of the block.</p>\n            <p></p>","response":0,"trial_type":"html-button-response","trial_index":18,"time_elapsed":623014,"internal_node_id":"0.0-17.0","params":{"nStudents":24,"maxFlips":25,"completionMinutes":45,"basePay":8,"maxBonus":9,"perTrialBonus":0.5,"perTrialBonusThreshold":0.05,"exampleCost":0.02},"classroomParams":{"A":{"a":1,"b":4},"B":{"a":4,"b":1},"C":{"a":2,"b":8},"D":{"a":8,"b":2}},"conditions":["nonSeqFull","nonSeqPartial","seqNoFeedback","seqFeedback"],"classroomPairings":[["A","B"],["C","D"]],"coinWeights":[0.2,0.5,0.8],"subjectId":"AX27MR7AMU52H","assignmentId":"3KKG4CDWKJKA99NPHCADU6GG8DO94U","hitId":"3IH9TRB0FBLK6RLF7MSMKICTGYN1IU","url":"https://gershmanlab.com/experiments/alicia/teaching/experiment/?hitId=3IH9TRB0FBLK6RLF7MSMKICTGYN1IU&workerId=AX27MR7AMU52H&assignmentId=3KKG4CDWKJKA99NPHCADU6GG8DO94U&a=W4KK3&tp_a=W4KK3&b=3KKG4CDWKJKA99NPHCADU6GG8DO94U&tp_b=3KKG4CDWKJKA99NPHCADU6GG8DO94U&c=365633&tp_c=365633"},{"rt":22286,"response":{"heads":"1","tails":"1"},"type":"response","condition":"nonSeqPartial","trueTheta":0.5,"classrooms":["A","B"],"studentTrueClassroom":"A","exampleSet":"first","trial_type":"survey-html-form","trial_index":19,"time_elapsed":645302,"internal_node_id":"0.0-18.0-0.0","params":{"nStudents":24,"maxFlips":25,"completionMinutes":45,"basePay":8,"maxBonus":9,"perTrialBonus":0.5,"perTrialBonusThreshold":0.05,"exampleCost":0.02},"classroomParams":{"A":{"a":1,"b":4},"B":{"a":4,"b":1},"C":{"a":2,"b":8},"D":{"a":8,"b":2}},"conditions":["nonSeqFull","nonSeqPartial","seqNoFeedback","seqFeedback"],"classroomPairings":[["A","B"],["C","D"]],"coinWeights":[0.2,0.5,0.8],"subjectId":"AX27MR7AMU52H","assignmentId":"3KKG4CDWKJKA99NPHCADU6GG8DO94U","hitId":"3IH9TRB0FBLK6RLF7MSMKICTGYN1IU","url":"https://gershmanlab.com/experiments/alicia/teaching/experiment/?hitId=3IH9TRB0FBLK6RLF7MSMKICTGYN1IU&workerId=AX27MR7AMU52H&assignmentId=3KKG4CDWKJKA99NPHCADU6GG8DO94U&a=W4KK3&tp_a=W4KK3&b=3KKG4CDWKJKA99NPHCADU6GG8DO94U&tp_b=3KKG4CDWKJKA99NPHCADU6GG8DO94U&c=365633&tp_c=365633","heads":1,"tails":1,"studentIndex":2,"studentTrueHypers":{"a":1,"b":4},"studentGuess":0.2857142857142857,"delta":0.2142857142857143,"totalExamples":2,"bonus":0,"bonusSoFar":0},{"rt":null,"stimulus":"Sending examples to student... ","response":null,"trial_type":"html-keyboard-response","trial_index":20,"time_elapsed":646812,"internal_node_id":"0.0-19.0","params":{"nStudents":24,"maxFlips":25,"completionMinutes":45,"basePay":8,"maxBonus":9,"perTrialBonus":0.5,"perTrialBonusThreshold":0.05,"exampleCost":0.02},"classroomParams":{"A":{"a":1,"b":4},"B":{"a":4,"b":1},"C":{"a":2,"b":8},"D":{"a":8,"b":2}},"conditions":["nonSeqFull","nonSeqPartial","seqNoFeedback","seqFeedback"],"classroomPairings":[["A","B"],["C","D"]],"coinWeights":[0.2,0.5,0.8],"subjectId":"AX27MR7AMU52H","assignmentId":"3KKG4CDWKJKA99NPHCADU6GG8DO94U","hitId":"3IH9TRB0FBLK6RLF7MSMKICTGYN1IU","url":"https://gershmanlab.com/experiments/alicia/teaching/experiment/?hitId=3IH9TRB0FBLK6RLF7MSMKICTGYN1IU&workerId=AX27MR7AMU52H&assignmentId=3KKG4CDWKJKA99NPHCADU6GG8DO94U&a=W4KK3&tp_a=W4KK3&b=3KKG4CDWKJKA99NPHCADU6GG8DO94U&tp_b=3KKG4CDWKJKA99NPHCADU6GG8DO94U&c=365633&tp_c=365633"},{"rt":null,"stimulus":"Examples sent to student! Waiting for student...","response":null,"trial_type":"html-keyboard-response","trial_index":21,"time_elapsed":652822,"internal_node_id":"0.0-20.0","params":{"nStudents":24,"maxFlips":25,"completionMinutes":45,"basePay":8,"maxBonus":9,"perTrialBonus":0.5,"perTrialBonusThreshold":0.05,"exampleCost":0.02},"classroomParams":{"A":{"a":1,"b":4},"B":{"a":4,"b":1},"C":{"a":2,"b":8},"D":{"a":8,"b":2}},"conditions":["nonSeqFull","nonSeqPartial","seqNoFeedback","seqFeedback"],"classroomPairings":[["A","B"],["C","D"]],"coinWeights":[0.2,0.5,0.8],"subjectId":"AX27MR7AMU52H","assignmentId":"3KKG4CDWKJKA99NPHCADU6GG8DO94U","hitId":"3IH9TRB0FBLK6RLF7MSMKICTGYN1IU","url":"https://gershmanlab.com/experiments/alicia/teaching/experiment/?hitId=3IH9TRB0FBLK6RLF7MSMKICTGYN1IU&workerId=AX27MR7AMU52H&assignmentId=3KKG4CDWKJKA99NPHCADU6GG8DO94U&a=W4KK3&tp_a=W4KK3&b=3KKG4CDWKJKA99NPHCADU6GG8DO94U&tp_b=3KKG4CDWKJKA99NPHCADU6GG8DO94U&c=365633&tp_c=365633"},{"rt":5430,"stimulus":"\n                <p>Student's guess for coin weight: <b style=\"color:Tomato;\">0.29</b></p>\n                <p>You received a bonus of <b>$0</b>. Total bonus so far: <b>$0.00</b></b></p>\n                <p></p>\n                <p>Press any key to continue.</p>\n                ","response":" ","trial_type":"html-keyboard-response","trial_index":22,"time_elapsed":658254,"internal_node_id":"0.0-21.0","params":{"nStudents":24,"maxFlips":25,"completionMinutes":45,"basePay":8,"maxBonus":9,"perTrialBonus":0.5,"perTrialBonusThreshold":0.05,"exampleCost":0.02},"classroomParams":{"A":{"a":1,"b":4},"B":{"a":4,"b":1},"C":{"a":2,"b":8},"D":{"a":8,"b":2}},"conditions":["nonSeqFull","nonSeqPartial","seqNoFeedback","seqFeedback"],"classroomPairings":[["A","B"],["C","D"]],"coinWeights":[0.2,0.5,0.8],"subjectId":"AX27MR7AMU52H","assignmentId":"3KKG4CDWKJKA99NPHCADU6GG8DO94U","hitId":"3IH9TRB0FBLK6RLF7MSMKICTGYN1IU","url":"https://gershmanlab.com/experiments/alicia/teaching/experiment/?hitId=3IH9TRB0FBLK6RLF7MSMKICTGYN1IU&workerId=AX27MR7AMU52H&assignmentId=3KKG4CDWKJKA99NPHCADU6GG8DO94U&a=W4KK3&tp_a=W4KK3&b=3KKG4CDWKJKA99NPHCADU6GG8DO94U&tp_b=3KKG4CDWKJKA99NPHCADU6GG8DO94U&c=365633&tp_c=365633"},{"rt":null,"stimulus":"<div style=\"font-size:60px;\">Next student</div>","response":null,"trial_type":"html-keyboard-response","trial_index":23,"time_elapsed":660264,"internal_node_id":"0.0-22.0-0.0","params":{"nStudents":24,"maxFlips":25,"completionMinutes":45,"basePay":8,"maxBonus":9,"perTrialBonus":0.5,"perTrialBonusThreshold":0.05,"exampleCost":0.02},"classroomParams":{"A":{"a":1,"b":4},"B":{"a":4,"b":1},"C":{"a":2,"b":8},"D":{"a":8,"b":2}},"conditions":["nonSeqFull","nonSeqPartial","seqNoFeedback","seqFeedback"],"classroomPairings":[["A","B"],["C","D"]],"coinWeights":[0.2,0.5,0.8],"subjectId":"AX27MR7AMU52H","assignmentId":"3KKG4CDWKJKA99NPHCADU6GG8DO94U","hitId":"3IH9TRB0FBLK6RLF7MSMKICTGYN1IU","url":"https://gershmanlab.com/experiments/alicia/teaching/experiment/?hitId=3IH9TRB0FBLK6RLF7MSMKICTGYN1IU&workerId=AX27MR7AMU52H&assignmentId=3KKG4CDWKJKA99NPHCADU6GG8DO94U&a=W4KK3&tp_a=W4KK3&b=3KKG4CDWKJKA99NPHCADU6GG8DO94U&tp_b=3KKG4CDWKJKA99NPHCADU6GG8DO94U&c=365633&tp_c=365633"},{"rt":12049,"stimulus":"\n            <h4 style=\"color:Orange;\">Student 4</h4>\n            <h2>The weight of your coin is <b style=\"color:Tomato;\">0.8</b>.</h2>\n            <p>In this block, you will be giving <b>two</b> sets of examples to Student 4.</p>\n                <p>You will see the student's guess after the first set of examples. You will also receive feedback at the end of the block.</p>\n            <p>To earn the highest bonus, you will have to <b>take into consideration the student's guess</b> when you choose your second set of examples.</p>","response":0,"trial_type":"html-button-response","trial_index":24,"time_elapsed":672315,"internal_node_id":"0.0-23.0","params":{"nStudents":24,"maxFlips":25,"completionMinutes":45,"basePay":8,"maxBonus":9,"perTrialBonus":0.5,"perTrialBonusThreshold":0.05,"exampleCost":0.02},"classroomParams":{"A":{"a":1,"b":4},"B":{"a":4,"b":1},"C":{"a":2,"b":8},"D":{"a":8,"b":2}},"conditions":["nonSeqFull","nonSeqPartial","seqNoFeedback","seqFeedback"],"classroomPairings":[["A","B"],["C","D"]],"coinWeights":[0.2,0.5,0.8],"subjectId":"AX27MR7AMU52H","assignmentId":"3KKG4CDWKJKA99NPHCADU6GG8DO94U","hitId":"3IH9TRB0FBLK6RLF7MSMKICTGYN1IU","url":"https://gershmanlab.com/experiments/alicia/teaching/experiment/?hitId=3IH9TRB0FBLK6RLF7MSMKICTGYN1IU&workerId=AX27MR7AMU52H&assignmentId=3KKG4CDWKJKA99NPHCADU6GG8DO94U&a=W4KK3&tp_a=W4KK3&b=3KKG4CDWKJKA99NPHCADU6GG8DO94U&tp_b=3KKG4CDWKJKA99NPHCADU6GG8DO94U&c=365633&tp_c=365633"},{"rt":16150,"response":{"heads":"10","tails":"0"},"type":"response","condition":"seqFeedback","trueTheta":0.8,"classrooms":["C","D"],"studentTrueClassroom":"D","exampleSet":"first","trial_type":"survey-html-form","trial_index":25,"time_elapsed":688467,"internal_node_id":"0.0-24.0-0.0","params":{"nStudents":24,"maxFlips":25,"completionMinutes":45,"basePay":8,"maxBonus":9,"perTrialBonus":0.5,"perTrialBonusThreshold":0.05,"exampleCost":0.02},"classroomParams":{"A":{"a":1,"b":4},"B":{"a":4,"b":1},"C":{"a":2,"b":8},"D":{"a":8,"b":2}},"conditions":["nonSeqFull","nonSeqPartial","seqNoFeedback","seqFeedback"],"classroomPairings":[["A","B"],["C","D"]],"coinWeights":[0.2,0.5,0.8],"subjectId":"AX27MR7AMU52H","assignmentId":"3KKG4CDWKJKA99NPHCADU6GG8DO94U","hitId":"3IH9TRB0FBLK6RLF7MSMKICTGYN1IU","url":"https://gershmanlab.com/experiments/alicia/teaching/experiment/?hitId=3IH9TRB0FBLK6RLF7MSMKICTGYN1IU&workerId=AX27MR7AMU52H&assignmentId=3KKG4CDWKJKA99NPHCADU6GG8DO94U&a=W4KK3&tp_a=W4KK3&b=3KKG4CDWKJKA99NPHCADU6GG8DO94U&tp_b=3KKG4CDWKJKA99NPHCADU6GG8DO94U&c=365633&tp_c=365633","heads":10,"tails":0,"studentIndex":3,"studentTrueHypers":{"a":8,"b":2},"studentGuess":0.9,"delta":0.09999999999999998,"totalExamples":10,"bonusSoFar":0},{"rt":null,"stimulus":"Sending examples to student... ","response":null,"trial_type":"html-keyboard-response","trial_index":26,"time_elapsed":690470,"internal_node_id":"0.0-25.0","params":{"nStudents":24,"maxFlips":25,"completionMinutes":45,"basePay":8,"maxBonus":9,"perTrialBonus":0.5,"perTrialBonusThreshold":0.05,"exampleCost":0.02},"classroomParams":{"A":{"a":1,"b":4},"B":{"a":4,"b":1},"C":{"a":2,"b":8},"D":{"a":8,"b":2}},"conditions":["nonSeqFull","nonSeqPartial","seqNoFeedback","seqFeedback"],"classroomPairings":[["A","B"],["C","D"]],"coinWeights":[0.2,0.5,0.8],"subjectId":"AX27MR7AMU52H","assignmentId":"3KKG4CDWKJKA99NPHCADU6GG8DO94U","hitId":"3IH9TRB0FBLK6RLF7MSMKICTGYN1IU","url":"https://gershmanlab.com/experiments/alicia/teaching/experiment/?hitId=3IH9TRB0FBLK6RLF7MSMKICTGYN1IU&workerId=AX27MR7AMU52H&assignmentId=3KKG4CDWKJKA99NPHCADU6GG8DO94U&a=W4KK3&tp_a=W4KK3&b=3KKG4CDWKJKA99NPHCADU6GG8DO94U&tp_b=3KKG4CDWKJKA99NPHCADU6GG8DO94U&c=365633&tp_c=365633"},{"rt":null,"stimulus":"Examples sent to student! Waiting for student...","response":null,"trial_type":"html-keyboard-response","trial_index":27,"time_elapsed":694477,"internal_node_id":"0.0-26.0","params":{"nStudents":24,"maxFlips":25,"completionMinutes":45,"basePay":8,"maxBonus":9,"perTrialBonus":0.5,"perTrialBonusThreshold":0.05,"exampleCost":0.02},"classroomParams":{"A":{"a":1,"b":4},"B":{"a":4,"b":1},"C":{"a":2,"b":8},"D":{"a":8,"b":2}},"conditions":["nonSeqFull","nonSeqPartial","seqNoFeedback","seqFeedback"],"classroomPairings":[["A","B"],["C","D"]],"coinWeights":[0.2,0.5,0.8],"subjectId":"AX27MR7AMU52H","assignmentId":"3KKG4CDWKJKA99NPHCADU6GG8DO94U","hitId":"3IH9TRB0FBLK6RLF7MSMKICTGYN1IU","url":"https://gershmanlab.com/experiments/alicia/teaching/experiment/?hitId=3IH9TRB0FBLK6RLF7MSMKICTGYN1IU&workerId=AX27MR7AMU52H&assignmentId=3KKG4CDWKJKA99NPHCADU6GG8DO94U&a=W4KK3&tp_a=W4KK3&b=3KKG4CDWKJKA99NPHCADU6GG8DO94U&tp_b=3KKG4CDWKJKA99NPHCADU6GG8DO94U&c=365633&tp_c=365633"},{"rt":6645,"stimulus":"\n                <p>Student's guess for coin weight: <b style=\"color:Tomato;\">0.90</b></p>\n                <p></b></p>\n                <p>You will now send another set of examples to your student. <b>Remember to take your student's guess into consideration so that you can earn the highest bonus possible!</b> </p>\n                <p>Press any key to continue.</p>\n                ","response":" ","trial_type":"html-keyboard-response","trial_index":28,"time_elapsed":701123,"internal_node_id":"0.0-27.0","params":{"nStudents":24,"maxFlips":25,"completionMinutes":45,"basePay":8,"maxBonus":9,"perTrialBonus":0.5,"perTrialBonusThreshold":0.05,"exampleCost":0.02},"classroomParams":{"A":{"a":1,"b":4},"B":{"a":4,"b":1},"C":{"a":2,"b":8},"D":{"a":8,"b":2}},"conditions":["nonSeqFull","nonSeqPartial","seqNoFeedback","seqFeedback"],"classroomPairings":[["A","B"],["C","D"]],"coinWeights":[0.2,0.5,0.8],"subjectId":"AX27MR7AMU52H","assignmentId":"3KKG4CDWKJKA99NPHCADU6GG8DO94U","hitId":"3IH9TRB0FBLK6RLF7MSMKICTGYN1IU","url":"https://gershmanlab.com/experiments/alicia/teaching/experiment/?hitId=3IH9TRB0FBLK6RLF7MSMKICTGYN1IU&workerId=AX27MR7AMU52H&assignmentId=3KKG4CDWKJKA99NPHCADU6GG8DO94U&a=W4KK3&tp_a=W4KK3&b=3KKG4CDWKJKA99NPHCADU6GG8DO94U&tp_b=3KKG4CDWKJKA99NPHCADU6GG8DO94U&c=365633&tp_c=365633"},{"rt":13621,"response":{"heads":"12","tails":"0"},"type":"response","condition":"seqFeedback","trueTheta":0.8,"classrooms":["C","D"],"studentTrueClassroom":"D","exampleSet":"second","trial_type":"survey-html-form","trial_index":29,"time_elapsed":714746,"internal_node_id":"0.0-28.0-0.0","params":{"nStudents":24,"maxFlips":25,"completionMinutes":45,"basePay":8,"maxBonus":9,"perTrialBonus":0.5,"perTrialBonusThreshold":0.05,"exampleCost":0.02},"classroomParams":{"A":{"a":1,"b":4},"B":{"a":4,"b":1},"C":{"a":2,"b":8},"D":{"a":8,"b":2}},"conditions":["nonSeqFull","nonSeqPartial","seqNoFeedback","seqFeedback"],"classroomPairings":[["A","B"],["C","D"]],"coinWeights":[0.2,0.5,0.8],"subjectId":"AX27MR7AMU52H","assignmentId":"3KKG4CDWKJKA99NPHCADU6GG8DO94U","hitId":"3IH9TRB0FBLK6RLF7MSMKICTGYN1IU","url":"https://gershmanlab.com/experiments/alicia/teaching/experiment/?hitId=3IH9TRB0FBLK6RLF7MSMKICTGYN1IU&workerId=AX27MR7AMU52H&assignmentId=3KKG4CDWKJKA99NPHCADU6GG8DO94U&a=W4KK3&tp_a=W4KK3&b=3KKG4CDWKJKA99NPHCADU6GG8DO94U&tp_b=3KKG4CDWKJKA99NPHCADU6GG8DO94U&c=365633&tp_c=365633","firstResponseHeads":10,"firstResponseTails":0,"secondResponseHeads":12,"secondResponseTails":0,"totalHeads":22,"totalTails":0,"studentIndex":3,"studentTrueHypers":{"a":8,"b":2},"studentGuess":0.9375,"delta":0.13749999999999996,"bonus":0,"bonusSoFar":0,"totalExamples":22},{"rt":null,"stimulus":"Sending examples to student... ","response":null,"trial_type":"html-keyboard-response","trial_index":30,"time_elapsed":716006,"internal_node_id":"0.0-29.0","params":{"nStudents":24,"maxFlips":25,"completionMinutes":45,"basePay":8,"maxBonus":9,"perTrialBonus":0.5,"perTrialBonusThreshold":0.05,"exampleCost":0.02},"classroomParams":{"A":{"a":1,"b":4},"B":{"a":4,"b":1},"C":{"a":2,"b":8},"D":{"a":8,"b":2}},"conditions":["nonSeqFull","nonSeqPartial","seqNoFeedback","seqFeedback"],"classroomPairings":[["A","B"],["C","D"]],"coinWeights":[0.2,0.5,0.8],"subjectId":"AX27MR7AMU52H","assignmentId":"3KKG4CDWKJKA99NPHCADU6GG8DO94U","hitId":"3IH9TRB0FBLK6RLF7MSMKICTGYN1IU","url":"https://gershmanlab.com/experiments/alicia/teaching/experiment/?hitId=3IH9TRB0FBLK6RLF7MSMKICTGYN1IU&workerId=AX27MR7AMU52H&assignmentId=3KKG4CDWKJKA99NPHCADU6GG8DO94U&a=W4KK3&tp_a=W4KK3&b=3KKG4CDWKJKA99NPHCADU6GG8DO94U&tp_b=3KKG4CDWKJKA99NPHCADU6GG8DO94U&c=365633&tp_c=365633"},{"rt":null,"stimulus":"Examples sent to student! Waiting for student...","response":null,"trial_type":"html-keyboard-response","trial_index":31,"time_elapsed":721510,"internal_node_id":"0.0-30.0","params":{"nStudents":24,"maxFlips":25,"completionMinutes":45,"basePay":8,"maxBonus":9,"perTrialBonus":0.5,"perTrialBonusThreshold":0.05,"exampleCost":0.02},"classroomParams":{"A":{"a":1,"b":4},"B":{"a":4,"b":1},"C":{"a":2,"b":8},"D":{"a":8,"b":2}},"conditions":["nonSeqFull","nonSeqPartial","seqNoFeedback","seqFeedback"],"classroomPairings":[["A","B"],["C","D"]],"coinWeights":[0.2,0.5,0.8],"subjectId":"AX27MR7AMU52H","assignmentId":"3KKG4CDWKJKA99NPHCADU6GG8DO94U","hitId":"3IH9TRB0FBLK6RLF7MSMKICTGYN1IU","url":"https://gershmanlab.com/experiments/alicia/teaching/experiment/?hitId=3IH9TRB0FBLK6RLF7MSMKICTGYN1IU&workerId=AX27MR7AMU52H&assignmentId=3KKG4CDWKJKA99NPHCADU6GG8DO94U&a=W4KK3&tp_a=W4KK3&b=3KKG4CDWKJKA99NPHCADU6GG8DO94U&tp_b=3KKG4CDWKJKA99NPHCADU6GG8DO94U&c=365633&tp_c=365633"},{"rt":5980,"stimulus":"\n                <p>Student 4's first guess for coin weight: <b style=\"color:Tomato\";>0.90</b></p>\n                <p>Student 4's second guess for coin weight: <b style=\"color:Tomato\";>0.94</b></p>\n                <p>You received a bonus of <b>$0.00</b> based on the student's second guess.</p>\n                <p>Total bonus so far: <b>$0.00</b></p>\n                <p>Press any key to continue.</p>\n                ","response":" ","trial_type":"html-keyboard-response","trial_index":32,"time_elapsed":727492,"internal_node_id":"0.0-31.0","params":{"nStudents":24,"maxFlips":25,"completionMinutes":45,"basePay":8,"maxBonus":9,"perTrialBonus":0.5,"perTrialBonusThreshold":0.05,"exampleCost":0.02},"classroomParams":{"A":{"a":1,"b":4},"B":{"a":4,"b":1},"C":{"a":2,"b":8},"D":{"a":8,"b":2}},"conditions":["nonSeqFull","nonSeqPartial","seqNoFeedback","seqFeedback"],"classroomPairings":[["A","B"],["C","D"]],"coinWeights":[0.2,0.5,0.8],"subjectId":"AX27MR7AMU52H","assignmentId":"3KKG4CDWKJKA99NPHCADU6GG8DO94U","hitId":"3IH9TRB0FBLK6RLF7MSMKICTGYN1IU","url":"https://gershmanlab.com/experiments/alicia/teaching/experiment/?hitId=3IH9TRB0FBLK6RLF7MSMKICTGYN1IU&workerId=AX27MR7AMU52H&assignmentId=3KKG4CDWKJKA99NPHCADU6GG8DO94U&a=W4KK3&tp_a=W4KK3&b=3KKG4CDWKJKA99NPHCADU6GG8DO94U&tp_b=3KKG4CDWKJKA99NPHCADU6GG8DO94U&c=365633&tp_c=365633"},{"rt":null,"stimulus":"<div style=\"font-size:60px;\">Next student</div>","response":null,"trial_type":"html-keyboard-response","trial_index":33,"time_elapsed":730500,"internal_node_id":"0.0-32.0-0.0","params":{"nStudents":24,"maxFlips":25,"completionMinutes":45,"basePay":8,"maxBonus":9,"perTrialBonus":0.5,"perTrialBonusThreshold":0.05,"exampleCost":0.02},"classroomParams":{"A":{"a":1,"b":4},"B":{"a":4,"b":1},"C":{"a":2,"b":8},"D":{"a":8,"b":2}},"conditions":["nonSeqFull","nonSeqPartial","seqNoFeedback","seqFeedback"],"classroomPairings":[["A","B"],["C","D"]],"coinWeights":[0.2,0.5,0.8],"subjectId":"AX27MR7AMU52H","assignmentId":"3KKG4CDWKJKA99NPHCADU6GG8DO94U","hitId":"3IH9TRB0FBLK6RLF7MSMKICTGYN1IU","url":"https://gershmanlab.com/experiments/alicia/teaching/experiment/?hitId=3IH9TRB0FBLK6RLF7MSMKICTGYN1IU&workerId=AX27MR7AMU52H&assignmentId=3KKG4CDWKJKA99NPHCADU6GG8DO94U&a=W4KK3&tp_a=W4KK3&b=3KKG4CDWKJKA99NPHCADU6GG8DO94U&tp_b=3KKG4CDWKJKA99NPHCADU6GG8DO94U&c=365633&tp_c=365633"},{"rt":5157,"stimulus":"\n            <h4 style=\"color:Orange;\">Student 5</h4>\n            <h2>The weight of your coin is <b style=\"color:Tomato;\">0.2</b>.</h2>\n            <p>In this block, you will be giving <b>two</b> sets of examples to Student 5.</p>\n                <p>You will receive feedback at the end of the block.</p>\n            <p></p>","response":0,"trial_type":"html-button-response","trial_index":34,"time_elapsed":735658,"internal_node_id":"0.0-33.0","params":{"nStudents":24,"maxFlips":25,"completionMinutes":45,"basePay":8,"maxBonus":9,"perTrialBonus":0.5,"perTrialBonusThreshold":0.05,"exampleCost":0.02},"classroomParams":{"A":{"a":1,"b":4},"B":{"a":4,"b":1},"C":{"a":2,"b":8},"D":{"a":8,"b":2}},"conditions":["nonSeqFull","nonSeqPartial","seqNoFeedback","seqFeedback"],"classroomPairings":[["A","B"],["C","D"]],"coinWeights":[0.2,0.5,0.8],"subjectId":"AX27MR7AMU52H","assignmentId":"3KKG4CDWKJKA99NPHCADU6GG8DO94U","hitId":"3IH9TRB0FBLK6RLF7MSMKICTGYN1IU","url":"https://gershmanlab.com/experiments/alicia/teaching/experiment/?hitId=3IH9TRB0FBLK6RLF7MSMKICTGYN1IU&workerId=AX27MR7AMU52H&assignmentId=3KKG4CDWKJKA99NPHCADU6GG8DO94U&a=W4KK3&tp_a=W4KK3&b=3KKG4CDWKJKA99NPHCADU6GG8DO94U&tp_b=3KKG4CDWKJKA99NPHCADU6GG8DO94U&c=365633&tp_c=365633"},{"rt":17958,"response":{"heads":"0","tails":"14"},"type":"response","condition":"seqNoFeedback","trueTheta":0.2,"classrooms":["C","D"],"studentTrueClassroom":"C","exampleSet":"first","trial_type":"survey-html-form","trial_index":35,"time_elapsed":753619,"internal_node_id":"0.0-34.0-0.0","params":{"nStudents":24,"maxFlips":25,"completionMinutes":45,"basePay":8,"maxBonus":9,"perTrialBonus":0.5,"perTrialBonusThreshold":0.05,"exampleCost":0.02},"classroomParams":{"A":{"a":1,"b":4},"B":{"a":4,"b":1},"C":{"a":2,"b":8},"D":{"a":8,"b":2}},"conditions":["nonSeqFull","nonSeqPartial","seqNoFeedback","seqFeedback"],"classroomPairings":[["A","B"],["C","D"]],"coinWeights":[0.2,0.5,0.8],"subjectId":"AX27MR7AMU52H","assignmentId":"3KKG4CDWKJKA99NPHCADU6GG8DO94U","hitId":"3IH9TRB0FBLK6RLF7MSMKICTGYN1IU","url":"https://gershmanlab.com/experiments/alicia/teaching/experiment/?hitId=3IH9TRB0FBLK6RLF7MSMKICTGYN1IU&workerId=AX27MR7AMU52H&assignmentId=3KKG4CDWKJKA99NPHCADU6GG8DO94U&a=W4KK3&tp_a=W4KK3&b=3KKG4CDWKJKA99NPHCADU6GG8DO94U&tp_b=3KKG4CDWKJKA99NPHCADU6GG8DO94U&c=365633&tp_c=365633","heads":0,"tails":14,"studentIndex":4,"studentTrueHypers":{"a":2,"b":8},"studentGuess":0.08333333333333333,"delta":0.11666666666666668,"totalExamples":14,"bonusSoFar":0},{"rt":null,"stimulus":"Sending examples to student... ","response":null,"trial_type":"html-keyboard-response","trial_index":36,"time_elapsed":754872,"internal_node_id":"0.0-35.0","params":{"nStudents":24,"maxFlips":25,"completionMinutes":45,"basePay":8,"maxBonus":9,"perTrialBonus":0.5,"perTrialBonusThreshold":0.05,"exampleCost":0.02},"classroomParams":{"A":{"a":1,"b":4},"B":{"a":4,"b":1},"C":{"a":2,"b":8},"D":{"a":8,"b":2}},"conditions":["nonSeqFull","nonSeqPartial","seqNoFeedback","seqFeedback"],"classroomPairings":[["A","B"],["C","D"]],"coinWeights":[0.2,0.5,0.8],"subjectId":"AX27MR7AMU52H","assignmentId":"3KKG4CDWKJKA99NPHCADU6GG8DO94U","hitId":"3IH9TRB0FBLK6RLF7MSMKICTGYN1IU","url":"https://gershmanlab.com/experiments/alicia/teaching/experiment/?hitId=3IH9TRB0FBLK6RLF7MSMKICTGYN1IU&workerId=AX27MR7AMU52H&assignmentId=3KKG4CDWKJKA99NPHCADU6GG8DO94U&a=W4KK3&tp_a=W4KK3&b=3KKG4CDWKJKA99NPHCADU6GG8DO94U&tp_b=3KKG4CDWKJKA99NPHCADU6GG8DO94U&c=365633&tp_c=365633"},{"rt":null,"stimulus":"Examples sent to student! Waiting for student...","response":null,"trial_type":"html-keyboard-response","trial_index":37,"time_elapsed":760879,"internal_node_id":"0.0-36.0","params":{"nStudents":24,"maxFlips":25,"completionMinutes":45,"basePay":8,"maxBonus":9,"perTrialBonus":0.5,"perTrialBonusThreshold":0.05,"exampleCost":0.02},"classroomParams":{"A":{"a":1,"b":4},"B":{"a":4,"b":1},"C":{"a":2,"b":8},"D":{"a":8,"b":2}},"conditions":["nonSeqFull","nonSeqPartial","seqNoFeedback","seqFeedback"],"classroomPairings":[["A","B"],["C","D"]],"coinWeights":[0.2,0.5,0.8],"subjectId":"AX27MR7AMU52H","assignmentId":"3KKG4CDWKJKA99NPHCADU6GG8DO94U","hitId":"3IH9TRB0FBLK6RLF7MSMKICTGYN1IU","url":"https://gershmanlab.com/experiments/alicia/teaching/experiment/?hitId=3IH9TRB0FBLK6RLF7MSMKICTGYN1IU&workerId=AX27MR7AMU52H&assignmentId=3KKG4CDWKJKA99NPHCADU6GG8DO94U&a=W4KK3&tp_a=W4KK3&b=3KKG4CDWKJKA99NPHCADU6GG8DO94U&tp_b=3KKG4CDWKJKA99NPHCADU6GG8DO94U&c=365633&tp_c=365633"},{"rt":10041,"response":{"heads":"0","tails":"14"},"type":"response","condition":"seqNoFeedback","trueTheta":0.2,"classrooms":["C","D"],"studentTrueClassroom":"C","exampleSet":"second","trial_type":"survey-html-form","trial_index":38,"time_elapsed":770922,"internal_node_id":"0.0-37.0-0.0","params":{"nStudents":24,"maxFlips":25,"completionMinutes":45,"basePay":8,"maxBonus":9,"perTrialBonus":0.5,"perTrialBonusThreshold":0.05,"exampleCost":0.02},"classroomParams":{"A":{"a":1,"b":4},"B":{"a":4,"b":1},"C":{"a":2,"b":8},"D":{"a":8,"b":2}},"conditions":["nonSeqFull","nonSeqPartial","seqNoFeedback","seqFeedback"],"classroomPairings":[["A","B"],["C","D"]],"coinWeights":[0.2,0.5,0.8],"subjectId":"AX27MR7AMU52H","assignmentId":"3KKG4CDWKJKA99NPHCADU6GG8DO94U","hitId":"3IH9TRB0FBLK6RLF7MSMKICTGYN1IU","url":"https://gershmanlab.com/experiments/alicia/teaching/experiment/?hitId=3IH9TRB0FBLK6RLF7MSMKICTGYN1IU&workerId=AX27MR7AMU52H&assignmentId=3KKG4CDWKJKA99NPHCADU6GG8DO94U&a=W4KK3&tp_a=W4KK3&b=3KKG4CDWKJKA99NPHCADU6GG8DO94U&tp_b=3KKG4CDWKJKA99NPHCADU6GG8DO94U&c=365633&tp_c=365633","firstResponseHeads":0,"firstResponseTails":14,"secondResponseHeads":0,"secondResponseTails":14,"totalHeads":0,"totalTails":28,"studentIndex":4,"studentTrueHypers":{"a":2,"b":8},"studentGuess":0.05263157894736842,"delta":0.1473684210526316,"bonus":0,"bonusSoFar":0,"totalExamples":28},{"rt":null,"stimulus":"Sending examples to student... ","response":null,"trial_type":"html-keyboard-response","trial_index":39,"time_elapsed":772678,"internal_node_id":"0.0-38.0","params":{"nStudents":24,"maxFlips":25,"completionMinutes":45,"basePay":8,"maxBonus":9,"perTrialBonus":0.5,"perTrialBonusThreshold":0.05,"exampleCost":0.02},"classroomParams":{"A":{"a":1,"b":4},"B":{"a":4,"b":1},"C":{"a":2,"b":8},"D":{"a":8,"b":2}},"conditions":["nonSeqFull","nonSeqPartial","seqNoFeedback","seqFeedback"],"classroomPairings":[["A","B"],["C","D"]],"coinWeights":[0.2,0.5,0.8],"subjectId":"AX27MR7AMU52H","assignmentId":"3KKG4CDWKJKA99NPHCADU6GG8DO94U","hitId":"3IH9TRB0FBLK6RLF7MSMKICTGYN1IU","url":"https://gershmanlab.com/experiments/alicia/teaching/experiment/?hitId=3IH9TRB0FBLK6RLF7MSMKICTGYN1IU&workerId=AX27MR7AMU52H&assignmentId=3KKG4CDWKJKA99NPHCADU6GG8DO94U&a=W4KK3&tp_a=W4KK3&b=3KKG4CDWKJKA99NPHCADU6GG8DO94U&tp_b=3KKG4CDWKJKA99NPHCADU6GG8DO94U&c=365633&tp_c=365633"},{"rt":null,"stimulus":"Examples sent to student! Waiting for student...","response":null,"trial_type":"html-keyboard-response","trial_index":40,"time_elapsed":777682,"internal_node_id":"0.0-39.0","params":{"nStudents":24,"maxFlips":25,"completionMinutes":45,"basePay":8,"maxBonus":9,"perTrialBonus":0.5,"perTrialBonusThreshold":0.05,"exampleCost":0.02},"classroomParams":{"A":{"a":1,"b":4},"B":{"a":4,"b":1},"C":{"a":2,"b":8},"D":{"a":8,"b":2}},"conditions":["nonSeqFull","nonSeqPartial","seqNoFeedback","seqFeedback"],"classroomPairings":[["A","B"],["C","D"]],"coinWeights":[0.2,0.5,0.8],"subjectId":"AX27MR7AMU52H","assignmentId":"3KKG4CDWKJKA99NPHCADU6GG8DO94U","hitId":"3IH9TRB0FBLK6RLF7MSMKICTGYN1IU","url":"https://gershmanlab.com/experiments/alicia/teaching/experiment/?hitId=3IH9TRB0FBLK6RLF7MSMKICTGYN1IU&workerId=AX27MR7AMU52H&assignmentId=3KKG4CDWKJKA99NPHCADU6GG8DO94U&a=W4KK3&tp_a=W4KK3&b=3KKG4CDWKJKA99NPHCADU6GG8DO94U&tp_b=3KKG4CDWKJKA99NPHCADU6GG8DO94U&c=365633&tp_c=365633"},{"rt":9743,"stimulus":"\n                <p>Student 5's first guess for coin weight: <b style=\"color:Tomato\";>0.08</b></p>\n                <p>Student 5's second guess for coin weight: <b style=\"color:Tomato\";>0.05</b></p>\n                <p>You received a bonus of <b>$0.00</b> based on the student's second guess.</p>\n                <p>Total bonus so far: <b>$0.00</b></p>\n                <p>Press any key to continue.</p>\n                ","response":" ","trial_type":"html-keyboard-response","trial_index":41,"time_elapsed":787424,"internal_node_id":"0.0-40.0","params":{"nStudents":24,"maxFlips":25,"completionMinutes":45,"basePay":8,"maxBonus":9,"perTrialBonus":0.5,"perTrialBonusThreshold":0.05,"exampleCost":0.02},"classroomParams":{"A":{"a":1,"b":4},"B":{"a":4,"b":1},"C":{"a":2,"b":8},"D":{"a":8,"b":2}},"conditions":["nonSeqFull","nonSeqPartial","seqNoFeedback","seqFeedback"],"classroomPairings":[["A","B"],["C","D"]],"coinWeights":[0.2,0.5,0.8],"subjectId":"AX27MR7AMU52H","assignmentId":"3KKG4CDWKJKA99NPHCADU6GG8DO94U","hitId":"3IH9TRB0FBLK6RLF7MSMKICTGYN1IU","url":"https://gershmanlab.com/experiments/alicia/teaching/experiment/?hitId=3IH9TRB0FBLK6RLF7MSMKICTGYN1IU&workerId=AX27MR7AMU52H&assignmentId=3KKG4CDWKJKA99NPHCADU6GG8DO94U&a=W4KK3&tp_a=W4KK3&b=3KKG4CDWKJKA99NPHCADU6GG8DO94U&tp_b=3KKG4CDWKJKA99NPHCADU6GG8DO94U&c=365633&tp_c=365633"},{"rt":null,"stimulus":"<div style=\"font-size:60px;\">Next student</div>","response":null,"trial_type":"html-keyboard-response","trial_index":42,"time_elapsed":790432,"internal_node_id":"0.0-41.0-0.0","params":{"nStudents":24,"maxFlips":25,"completionMinutes":45,"basePay":8,"maxBonus":9,"perTrialBonus":0.5,"perTrialBonusThreshold":0.05,"exampleCost":0.02},"classroomParams":{"A":{"a":1,"b":4},"B":{"a":4,"b":1},"C":{"a":2,"b":8},"D":{"a":8,"b":2}},"conditions":["nonSeqFull","nonSeqPartial","seqNoFeedback","seqFeedback"],"classroomPairings":[["A","B"],["C","D"]],"coinWeights":[0.2,0.5,0.8],"subjectId":"AX27MR7AMU52H","assignmentId":"3KKG4CDWKJKA99NPHCADU6GG8DO94U","hitId":"3IH9TRB0FBLK6RLF7MSMKICTGYN1IU","url":"https://gershmanlab.com/experiments/alicia/teaching/experiment/?hitId=3IH9TRB0FBLK6RLF7MSMKICTGYN1IU&workerId=AX27MR7AMU52H&assignmentId=3KKG4CDWKJKA99NPHCADU6GG8DO94U&a=W4KK3&tp_a=W4KK3&b=3KKG4CDWKJKA99NPHCADU6GG8DO94U&tp_b=3KKG4CDWKJKA99NPHCADU6GG8DO94U&c=365633&tp_c=365633"},{"rt":1996,"stimulus":"\n            <h4 style=\"color:Orange;\">Student 6</h4>\n            <h2>The weight of your coin is <b style=\"color:Tomato;\">0.8</b>.</h2>\n            <p>In this block, you will be giving <b>one</b> set of examples to Student 6.</p>\n                <p>You will receive feedback at the end of the block.</p>\n            <p></p>","response":0,"trial_type":"html-button-response","trial_index":43,"time_elapsed":792431,"internal_node_id":"0.0-42.0","params":{"nStudents":24,"maxFlips":25,"completionMinutes":45,"basePay":8,"maxBonus":9,"perTrialBonus":0.5,"perTrialBonusThreshold":0.05,"exampleCost":0.02},"classroomParams":{"A":{"a":1,"b":4},"B":{"a":4,"b":1},"C":{"a":2,"b":8},"D":{"a":8,"b":2}},"conditions":["nonSeqFull","nonSeqPartial","seqNoFeedback","seqFeedback"],"classroomPairings":[["A","B"],["C","D"]],"coinWeights":[0.2,0.5,0.8],"subjectId":"AX27MR7AMU52H","assignmentId":"3KKG4CDWKJKA99NPHCADU6GG8DO94U","hitId":"3IH9TRB0FBLK6RLF7MSMKICTGYN1IU","url":"https://gershmanlab.com/experiments/alicia/teaching/experiment/?hitId=3IH9TRB0FBLK6RLF7MSMKICTGYN1IU&workerId=AX27MR7AMU52H&assignmentId=3KKG4CDWKJKA99NPHCADU6GG8DO94U&a=W4KK3&tp_a=W4KK3&b=3KKG4CDWKJKA99NPHCADU6GG8DO94U&tp_b=3KKG4CDWKJKA99NPHCADU6GG8DO94U&c=365633&tp_c=365633"},{"rt":11742,"response":{"heads":"10","tails":"2"},"type":"response","condition":"nonSeqPartial","trueTheta":0.8,"classrooms":["A","B"],"studentTrueClassroom":"A","exampleSet":"first","trial_type":"survey-html-form","trial_index":44,"time_elapsed":804175,"internal_node_id":"0.0-43.0-0.0","params":{"nStudents":24,"maxFlips":25,"completionMinutes":45,"basePay":8,"maxBonus":9,"perTrialBonus":0.5,"perTrialBonusThreshold":0.05,"exampleCost":0.02},"classroomParams":{"A":{"a":1,"b":4},"B":{"a":4,"b":1},"C":{"a":2,"b":8},"D":{"a":8,"b":2}},"conditions":["nonSeqFull","nonSeqPartial","seqNoFeedback","seqFeedback"],"classroomPairings":[["A","B"],["C","D"]],"coinWeights":[0.2,0.5,0.8],"subjectId":"AX27MR7AMU52H","assignmentId":"3KKG4CDWKJKA99NPHCADU6GG8DO94U","hitId":"3IH9TRB0FBLK6RLF7MSMKICTGYN1IU","url":"https://gershmanlab.com/experiments/alicia/teaching/experiment/?hitId=3IH9TRB0FBLK6RLF7MSMKICTGYN1IU&workerId=AX27MR7AMU52H&assignmentId=3KKG4CDWKJKA99NPHCADU6GG8DO94U&a=W4KK3&tp_a=W4KK3&b=3KKG4CDWKJKA99NPHCADU6GG8DO94U&tp_b=3KKG4CDWKJKA99NPHCADU6GG8DO94U&c=365633&tp_c=365633","heads":10,"tails":2,"studentIndex":5,"studentTrueHypers":{"a":1,"b":4},"studentGuess":0.6470588235294118,"delta":0.15294117647058825,"totalExamples":12,"bonus":0,"bonusSoFar":0},{"rt":null,"stimulus":"Sending examples to student... ","response":null,"trial_type":"html-keyboard-response","trial_index":45,"time_elapsed":805432,"internal_node_id":"0.0-44.0","params":{"nStudents":24,"maxFlips":25,"completionMinutes":45,"basePay":8,"maxBonus":9,"perTrialBonus":0.5,"perTrialBonusThreshold":0.05,"exampleCost":0.02},"classroomParams":{"A":{"a":1,"b":4},"B":{"a":4,"b":1},"C":{"a":2,"b":8},"D":{"a":8,"b":2}},"conditions":["nonSeqFull","nonSeqPartial","seqNoFeedback","seqFeedback"],"classroomPairings":[["A","B"],["C","D"]],"coinWeights":[0.2,0.5,0.8],"subjectId":"AX27MR7AMU52H","assignmentId":"3KKG4CDWKJKA99NPHCADU6GG8DO94U","hitId":"3IH9TRB0FBLK6RLF7MSMKICTGYN1IU","url":"https://gershmanlab.com/experiments/alicia/teaching/experiment/?hitId=3IH9TRB0FBLK6RLF7MSMKICTGYN1IU&workerId=AX27MR7AMU52H&assignmentId=3KKG4CDWKJKA99NPHCADU6GG8DO94U&a=W4KK3&tp_a=W4KK3&b=3KKG4CDWKJKA99NPHCADU6GG8DO94U&tp_b=3KKG4CDWKJKA99NPHCADU6GG8DO94U&c=365633&tp_c=365633"},{"rt":null,"stimulus":"Examples sent to student! Waiting for student...","response":null,"trial_type":"html-keyboard-response","trial_index":46,"time_elapsed":810438,"internal_node_id":"0.0-45.0","params":{"nStudents":24,"maxFlips":25,"completionMinutes":45,"basePay":8,"maxBonus":9,"perTrialBonus":0.5,"perTrialBonusThreshold":0.05,"exampleCost":0.02},"classroomParams":{"A":{"a":1,"b":4},"B":{"a":4,"b":1},"C":{"a":2,"b":8},"D":{"a":8,"b":2}},"conditions":["nonSeqFull","nonSeqPartial","seqNoFeedback","seqFeedback"],"classroomPairings":[["A","B"],["C","D"]],"coinWeights":[0.2,0.5,0.8],"subjectId":"AX27MR7AMU52H","assignmentId":"3KKG4CDWKJKA99NPHCADU6GG8DO94U","hitId":"3IH9TRB0FBLK6RLF7MSMKICTGYN1IU","url":"https://gershmanlab.com/experiments/alicia/teaching/experiment/?hitId=3IH9TRB0FBLK6RLF7MSMKICTGYN1IU&workerId=AX27MR7AMU52H&assignmentId=3KKG4CDWKJKA99NPHCADU6GG8DO94U&a=W4KK3&tp_a=W4KK3&b=3KKG4CDWKJKA99NPHCADU6GG8DO94U&tp_b=3KKG4CDWKJKA99NPHCADU6GG8DO94U&c=365633&tp_c=365633"},{"rt":3943,"stimulus":"\n                <p>Student's guess for coin weight: <b style=\"color:Tomato;\">0.65</b></p>\n                <p>You received a bonus of <b>$0</b>. Total bonus so far: <b>$0.00</b></b></p>\n                <p></p>\n                <p>Press any key to continue.</p>\n                ","response":" ","trial_type":"html-keyboard-response","trial_index":47,"time_elapsed":814384,"internal_node_id":"0.0-46.0","params":{"nStudents":24,"maxFlips":25,"completionMinutes":45,"basePay":8,"maxBonus":9,"perTrialBonus":0.5,"perTrialBonusThreshold":0.05,"exampleCost":0.02},"classroomParams":{"A":{"a":1,"b":4},"B":{"a":4,"b":1},"C":{"a":2,"b":8},"D":{"a":8,"b":2}},"conditions":["nonSeqFull","nonSeqPartial","seqNoFeedback","seqFeedback"],"classroomPairings":[["A","B"],["C","D"]],"coinWeights":[0.2,0.5,0.8],"subjectId":"AX27MR7AMU52H","assignmentId":"3KKG4CDWKJKA99NPHCADU6GG8DO94U","hitId":"3IH9TRB0FBLK6RLF7MSMKICTGYN1IU","url":"https://gershmanlab.com/experiments/alicia/teaching/experiment/?hitId=3IH9TRB0FBLK6RLF7MSMKICTGYN1IU&workerId=AX27MR7AMU52H&assignmentId=3KKG4CDWKJKA99NPHCADU6GG8DO94U&a=W4KK3&tp_a=W4KK3&b=3KKG4CDWKJKA99NPHCADU6GG8DO94U&tp_b=3KKG4CDWKJKA99NPHCADU6GG8DO94U&c=365633&tp_c=365633"},{"rt":null,"stimulus":"<div style=\"font-size:60px;\">Next student</div>","response":null,"trial_type":"html-keyboard-response","trial_index":48,"time_elapsed":816391,"internal_node_id":"0.0-47.0-0.0","params":{"nStudents":24,"maxFlips":25,"completionMinutes":45,"basePay":8,"maxBonus":9,"perTrialBonus":0.5,"perTrialBonusThreshold":0.05,"exampleCost":0.02},"classroomParams":{"A":{"a":1,"b":4},"B":{"a":4,"b":1},"C":{"a":2,"b":8},"D":{"a":8,"b":2}},"conditions":["nonSeqFull","nonSeqPartial","seqNoFeedback","seqFeedback"],"classroomPairings":[["A","B"],["C","D"]],"coinWeights":[0.2,0.5,0.8],"subjectId":"AX27MR7AMU52H","assignmentId":"3KKG4CDWKJKA99NPHCADU6GG8DO94U","hitId":"3IH9TRB0FBLK6RLF7MSMKICTGYN1IU","url":"https://gershmanlab.com/experiments/alicia/teaching/experiment/?hitId=3IH9TRB0FBLK6RLF7MSMKICTGYN1IU&workerId=AX27MR7AMU52H&assignmentId=3KKG4CDWKJKA99NPHCADU6GG8DO94U&a=W4KK3&tp_a=W4KK3&b=3KKG4CDWKJKA99NPHCADU6GG8DO94U&tp_b=3KKG4CDWKJKA99NPHCADU6GG8DO94U&c=365633&tp_c=365633"},{"rt":1180,"stimulus":"\n            <h4 style=\"color:Orange;\">Student 7</h4>\n            <h2>The weight of your coin is <b style=\"color:Tomato;\">0.2</b>.</h2>\n            <p>In this block, you will be giving <b>two</b> sets of examples to Student 7.</p>\n                <p>You will receive feedback at the end of the block.</p>\n            <p></p>","response":0,"trial_type":"html-button-response","trial_index":49,"time_elapsed":817574,"internal_node_id":"0.0-48.0","params":{"nStudents":24,"maxFlips":25,"completionMinutes":45,"basePay":8,"maxBonus":9,"perTrialBonus":0.5,"perTrialBonusThreshold":0.05,"exampleCost":0.02},"classroomParams":{"A":{"a":1,"b":4},"B":{"a":4,"b":1},"C":{"a":2,"b":8},"D":{"a":8,"b":2}},"conditions":["nonSeqFull","nonSeqPartial","seqNoFeedback","seqFeedback"],"classroomPairings":[["A","B"],["C","D"]],"coinWeights":[0.2,0.5,0.8],"subjectId":"AX27MR7AMU52H","assignmentId":"3KKG4CDWKJKA99NPHCADU6GG8DO94U","hitId":"3IH9TRB0FBLK6RLF7MSMKICTGYN1IU","url":"https://gershmanlab.com/experiments/alicia/teaching/experiment/?hitId=3IH9TRB0FBLK6RLF7MSMKICTGYN1IU&workerId=AX27MR7AMU52H&assignmentId=3KKG4CDWKJKA99NPHCADU6GG8DO94U&a=W4KK3&tp_a=W4KK3&b=3KKG4CDWKJKA99NPHCADU6GG8DO94U&tp_b=3KKG4CDWKJKA99NPHCADU6GG8DO94U&c=365633&tp_c=365633"},{"rt":15239,"response":{"heads":"2","tails":"16"},"type":"response","condition":"seqNoFeedback","trueTheta":0.2,"classrooms":["A","B"],"studentTrueClassroom":"B","exampleSet":"first","trial_type":"survey-html-form","trial_index":50,"time_elapsed":832814,"internal_node_id":"0.0-49.0-0.0","params":{"nStudents":24,"maxFlips":25,"completionMinutes":45,"basePay":8,"maxBonus":9,"perTrialBonus":0.5,"perTrialBonusThreshold":0.05,"exampleCost":0.02},"classroomParams":{"A":{"a":1,"b":4},"B":{"a":4,"b":1},"C":{"a":2,"b":8},"D":{"a":8,"b":2}},"conditions":["nonSeqFull","nonSeqPartial","seqNoFeedback","seqFeedback"],"classroomPairings":[["A","B"],["C","D"]],"coinWeights":[0.2,0.5,0.8],"subjectId":"AX27MR7AMU52H","assignmentId":"3KKG4CDWKJKA99NPHCADU6GG8DO94U","hitId":"3IH9TRB0FBLK6RLF7MSMKICTGYN1IU","url":"https://gershmanlab.com/experiments/alicia/teaching/experiment/?hitId=3IH9TRB0FBLK6RLF7MSMKICTGYN1IU&workerId=AX27MR7AMU52H&assignmentId=3KKG4CDWKJKA99NPHCADU6GG8DO94U&a=W4KK3&tp_a=W4KK3&b=3KKG4CDWKJKA99NPHCADU6GG8DO94U&tp_b=3KKG4CDWKJKA99NPHCADU6GG8DO94U&c=365633&tp_c=365633","heads":2,"tails":16,"studentIndex":6,"studentTrueHypers":{"a":4,"b":1},"studentGuess":0.2608695652173913,"delta":0.060869565217391286,"totalExamples":18,"bonusSoFar":0},{"rt":null,"stimulus":"Sending examples to student... ","response":null,"trial_type":"html-keyboard-response","trial_index":51,"time_elapsed":834820,"internal_node_id":"0.0-50.0","params":{"nStudents":24,"maxFlips":25,"completionMinutes":45,"basePay":8,"maxBonus":9,"perTrialBonus":0.5,"perTrialBonusThreshold":0.05,"exampleCost":0.02},"classroomParams":{"A":{"a":1,"b":4},"B":{"a":4,"b":1},"C":{"a":2,"b":8},"D":{"a":8,"b":2}},"conditions":["nonSeqFull","nonSeqPartial","seqNoFeedback","seqFeedback"],"classroomPairings":[["A","B"],["C","D"]],"coinWeights":[0.2,0.5,0.8],"subjectId":"AX27MR7AMU52H","assignmentId":"3KKG4CDWKJKA99NPHCADU6GG8DO94U","hitId":"3IH9TRB0FBLK6RLF7MSMKICTGYN1IU","url":"https://gershmanlab.com/experiments/alicia/teaching/experiment/?hitId=3IH9TRB0FBLK6RLF7MSMKICTGYN1IU&workerId=AX27MR7AMU52H&assignmentId=3KKG4CDWKJKA99NPHCADU6GG8DO94U&a=W4KK3&tp_a=W4KK3&b=3KKG4CDWKJKA99NPHCADU6GG8DO94U&tp_b=3KKG4CDWKJKA99NPHCADU6GG8DO94U&c=365633&tp_c=365633"},{"rt":null,"stimulus":"Examples sent to student! Waiting for student...","response":null,"trial_type":"html-keyboard-response","trial_index":52,"time_elapsed":839831,"internal_node_id":"0.0-51.0","params":{"nStudents":24,"maxFlips":25,"completionMinutes":45,"basePay":8,"maxBonus":9,"perTrialBonus":0.5,"perTrialBonusThreshold":0.05,"exampleCost":0.02},"classroomParams":{"A":{"a":1,"b":4},"B":{"a":4,"b":1},"C":{"a":2,"b":8},"D":{"a":8,"b":2}},"conditions":["nonSeqFull","nonSeqPartial","seqNoFeedback","seqFeedback"],"classroomPairings":[["A","B"],["C","D"]],"coinWeights":[0.2,0.5,0.8],"subjectId":"AX27MR7AMU52H","assignmentId":"3KKG4CDWKJKA99NPHCADU6GG8DO94U","hitId":"3IH9TRB0FBLK6RLF7MSMKICTGYN1IU","url":"https://gershmanlab.com/experiments/alicia/teaching/experiment/?hitId=3IH9TRB0FBLK6RLF7MSMKICTGYN1IU&workerId=AX27MR7AMU52H&assignmentId=3KKG4CDWKJKA99NPHCADU6GG8DO94U&a=W4KK3&tp_a=W4KK3&b=3KKG4CDWKJKA99NPHCADU6GG8DO94U&tp_b=3KKG4CDWKJKA99NPHCADU6GG8DO94U&c=365633&tp_c=365633"},{"rt":17156,"response":{"heads":"2","tails":"16"},"type":"response","condition":"seqNoFeedback","trueTheta":0.2,"classrooms":["A","B"],"studentTrueClassroom":"B","exampleSet":"second","trial_type":"survey-html-form","trial_index":53,"time_elapsed":856986,"internal_node_id":"0.0-52.0-0.0","params":{"nStudents":24,"maxFlips":25,"completionMinutes":45,"basePay":8,"maxBonus":9,"perTrialBonus":0.5,"perTrialBonusThreshold":0.05,"exampleCost":0.02},"classroomParams":{"A":{"a":1,"b":4},"B":{"a":4,"b":1},"C":{"a":2,"b":8},"D":{"a":8,"b":2}},"conditions":["nonSeqFull","nonSeqPartial","seqNoFeedback","seqFeedback"],"classroomPairings":[["A","B"],["C","D"]],"coinWeights":[0.2,0.5,0.8],"subjectId":"AX27MR7AMU52H","assignmentId":"3KKG4CDWKJKA99NPHCADU6GG8DO94U","hitId":"3IH9TRB0FBLK6RLF7MSMKICTGYN1IU","url":"https://gershmanlab.com/experiments/alicia/teaching/experiment/?hitId=3IH9TRB0FBLK6RLF7MSMKICTGYN1IU&workerId=AX27MR7AMU52H&assignmentId=3KKG4CDWKJKA99NPHCADU6GG8DO94U&a=W4KK3&tp_a=W4KK3&b=3KKG4CDWKJKA99NPHCADU6GG8DO94U&tp_b=3KKG4CDWKJKA99NPHCADU6GG8DO94U&c=365633&tp_c=365633","firstResponseHeads":2,"firstResponseTails":16,"secondResponseHeads":2,"secondResponseTails":16,"totalHeads":4,"totalTails":32,"studentIndex":6,"studentTrueHypers":{"a":4,"b":1},"studentGuess":0.1951219512195122,"delta":0.004878048780487809,"bonus":0,"bonusSoFar":0,"totalExamples":36},{"rt":null,"stimulus":"Sending examples to student... ","response":null,"trial_type":"html-keyboard-response","trial_index":54,"time_elapsed":858242,"internal_node_id":"0.0-53.0","params":{"nStudents":24,"maxFlips":25,"completionMinutes":45,"basePay":8,"maxBonus":9,"perTrialBonus":0.5,"perTrialBonusThreshold":0.05,"exampleCost":0.02},"classroomParams":{"A":{"a":1,"b":4},"B":{"a":4,"b":1},"C":{"a":2,"b":8},"D":{"a":8,"b":2}},"conditions":["nonSeqFull","nonSeqPartial","seqNoFeedback","seqFeedback"],"classroomPairings":[["A","B"],["C","D"]],"coinWeights":[0.2,0.5,0.8],"subjectId":"AX27MR7AMU52H","assignmentId":"3KKG4CDWKJKA99NPHCADU6GG8DO94U","hitId":"3IH9TRB0FBLK6RLF7MSMKICTGYN1IU","url":"https://gershmanlab.com/experiments/alicia/teaching/experiment/?hitId=3IH9TRB0FBLK6RLF7MSMKICTGYN1IU&workerId=AX27MR7AMU52H&assignmentId=3KKG4CDWKJKA99NPHCADU6GG8DO94U&a=W4KK3&tp_a=W4KK3&b=3KKG4CDWKJKA99NPHCADU6GG8DO94U&tp_b=3KKG4CDWKJKA99NPHCADU6GG8DO94U&c=365633&tp_c=365633"},{"rt":null,"stimulus":"Examples sent to student! Waiting for student...","response":null,"trial_type":"html-keyboard-response","trial_index":55,"time_elapsed":862749,"internal_node_id":"0.0-54.0","params":{"nStudents":24,"maxFlips":25,"completionMinutes":45,"basePay":8,"maxBonus":9,"perTrialBonus":0.5,"perTrialBonusThreshold":0.05,"exampleCost":0.02},"classroomParams":{"A":{"a":1,"b":4},"B":{"a":4,"b":1},"C":{"a":2,"b":8},"D":{"a":8,"b":2}},"conditions":["nonSeqFull","nonSeqPartial","seqNoFeedback","seqFeedback"],"classroomPairings":[["A","B"],["C","D"]],"coinWeights":[0.2,0.5,0.8],"subjectId":"AX27MR7AMU52H","assignmentId":"3KKG4CDWKJKA99NPHCADU6GG8DO94U","hitId":"3IH9TRB0FBLK6RLF7MSMKICTGYN1IU","url":"https://gershmanlab.com/experiments/alicia/teaching/experiment/?hitId=3IH9TRB0FBLK6RLF7MSMKICTGYN1IU&workerId=AX27MR7AMU52H&assignmentId=3KKG4CDWKJKA99NPHCADU6GG8DO94U&a=W4KK3&tp_a=W4KK3&b=3KKG4CDWKJKA99NPHCADU6GG8DO94U&tp_b=3KKG4CDWKJKA99NPHCADU6GG8DO94U&c=365633&tp_c=365633"},{"rt":5852,"stimulus":"\n                <p>Student 7's first guess for coin weight: <b style=\"color:Tomato\";>0.26</b></p>\n                <p>Student 7's second guess for coin weight: <b style=\"color:Tomato\";>0.20</b></p>\n                <p>You received a bonus of <b>$0.00</b> based on the student's second guess.</p>\n                <p>Total bonus so far: <b>$0.00</b></p>\n                <p>Press any key to continue.</p>\n                ","response":" ","trial_type":"html-keyboard-response","trial_index":56,"time_elapsed":868602,"internal_node_id":"0.0-55.0","params":{"nStudents":24,"maxFlips":25,"completionMinutes":45,"basePay":8,"maxBonus":9,"perTrialBonus":0.5,"perTrialBonusThreshold":0.05,"exampleCost":0.02},"classroomParams":{"A":{"a":1,"b":4},"B":{"a":4,"b":1},"C":{"a":2,"b":8},"D":{"a":8,"b":2}},"conditions":["nonSeqFull","nonSeqPartial","seqNoFeedback","seqFeedback"],"classroomPairings":[["A","B"],["C","D"]],"coinWeights":[0.2,0.5,0.8],"subjectId":"AX27MR7AMU52H","assignmentId":"3KKG4CDWKJKA99NPHCADU6GG8DO94U","hitId":"3IH9TRB0FBLK6RLF7MSMKICTGYN1IU","url":"https://gershmanlab.com/experiments/alicia/teaching/experiment/?hitId=3IH9TRB0FBLK6RLF7MSMKICTGYN1IU&workerId=AX27MR7AMU52H&assignmentId=3KKG4CDWKJKA99NPHCADU6GG8DO94U&a=W4KK3&tp_a=W4KK3&b=3KKG4CDWKJKA99NPHCADU6GG8DO94U&tp_b=3KKG4CDWKJKA99NPHCADU6GG8DO94U&c=365633&tp_c=365633"},{"rt":null,"stimulus":"<div style=\"font-size:60px;\">Next student</div>","response":null,"trial_type":"html-keyboard-response","trial_index":57,"time_elapsed":871605,"internal_node_id":"0.0-56.0-0.0","params":{"nStudents":24,"maxFlips":25,"completionMinutes":45,"basePay":8,"maxBonus":9,"perTrialBonus":0.5,"perTrialBonusThreshold":0.05,"exampleCost":0.02},"classroomParams":{"A":{"a":1,"b":4},"B":{"a":4,"b":1},"C":{"a":2,"b":8},"D":{"a":8,"b":2}},"conditions":["nonSeqFull","nonSeqPartial","seqNoFeedback","seqFeedback"],"classroomPairings":[["A","B"],["C","D"]],"coinWeights":[0.2,0.5,0.8],"subjectId":"AX27MR7AMU52H","assignmentId":"3KKG4CDWKJKA99NPHCADU6GG8DO94U","hitId":"3IH9TRB0FBLK6RLF7MSMKICTGYN1IU","url":"https://gershmanlab.com/experiments/alicia/teaching/experiment/?hitId=3IH9TRB0FBLK6RLF7MSMKICTGYN1IU&workerId=AX27MR7AMU52H&assignmentId=3KKG4CDWKJKA99NPHCADU6GG8DO94U&a=W4KK3&tp_a=W4KK3&b=3KKG4CDWKJKA99NPHCADU6GG8DO94U&tp_b=3KKG4CDWKJKA99NPHCADU6GG8DO94U&c=365633&tp_c=365633"},{"rt":2610,"stimulus":"\n            <h4 style=\"color:Orange;\">Student 8</h4>\n            <h2>The weight of your coin is <b style=\"color:Tomato;\">0.5</b>.</h2>\n            <p>In this block, you will be giving <b>two</b> sets of examples to Student 8.</p>\n                <p>You will receive feedback at the end of the block.</p>\n            <p></p>","response":0,"trial_type":"html-button-response","trial_index":58,"time_elapsed":874217,"internal_node_id":"0.0-57.0","params":{"nStudents":24,"maxFlips":25,"completionMinutes":45,"basePay":8,"maxBonus":9,"perTrialBonus":0.5,"perTrialBonusThreshold":0.05,"exampleCost":0.02},"classroomParams":{"A":{"a":1,"b":4},"B":{"a":4,"b":1},"C":{"a":2,"b":8},"D":{"a":8,"b":2}},"conditions":["nonSeqFull","nonSeqPartial","seqNoFeedback","seqFeedback"],"classroomPairings":[["A","B"],["C","D"]],"coinWeights":[0.2,0.5,0.8],"subjectId":"AX27MR7AMU52H","assignmentId":"3KKG4CDWKJKA99NPHCADU6GG8DO94U","hitId":"3IH9TRB0FBLK6RLF7MSMKICTGYN1IU","url":"https://gershmanlab.com/experiments/alicia/teaching/experiment/?hitId=3IH9TRB0FBLK6RLF7MSMKICTGYN1IU&workerId=AX27MR7AMU52H&assignmentId=3KKG4CDWKJKA99NPHCADU6GG8DO94U&a=W4KK3&tp_a=W4KK3&b=3KKG4CDWKJKA99NPHCADU6GG8DO94U&tp_b=3KKG4CDWKJKA99NPHCADU6GG8DO94U&c=365633&tp_c=365633"},{"rt":9206,"response":{"heads":"5","tails":"5"},"type":"response","condition":"seqNoFeedback","trueTheta":0.5,"classrooms":["C","D"],"studentTrueClassroom":"C","exampleSet":"first","trial_type":"survey-html-form","trial_index":59,"time_elapsed":883425,"internal_node_id":"0.0-58.0-0.0","params":{"nStudents":24,"maxFlips":25,"completionMinutes":45,"basePay":8,"maxBonus":9,"perTrialBonus":0.5,"perTrialBonusThreshold":0.05,"exampleCost":0.02},"classroomParams":{"A":{"a":1,"b":4},"B":{"a":4,"b":1},"C":{"a":2,"b":8},"D":{"a":8,"b":2}},"conditions":["nonSeqFull","nonSeqPartial","seqNoFeedback","seqFeedback"],"classroomPairings":[["A","B"],["C","D"]],"coinWeights":[0.2,0.5,0.8],"subjectId":"AX27MR7AMU52H","assignmentId":"3KKG4CDWKJKA99NPHCADU6GG8DO94U","hitId":"3IH9TRB0FBLK6RLF7MSMKICTGYN1IU","url":"https://gershmanlab.com/experiments/alicia/teaching/experiment/?hitId=3IH9TRB0FBLK6RLF7MSMKICTGYN1IU&workerId=AX27MR7AMU52H&assignmentId=3KKG4CDWKJKA99NPHCADU6GG8DO94U&a=W4KK3&tp_a=W4KK3&b=3KKG4CDWKJKA99NPHCADU6GG8DO94U&tp_b=3KKG4CDWKJKA99NPHCADU6GG8DO94U&c=365633&tp_c=365633","heads":5,"tails":5,"studentIndex":7,"studentTrueHypers":{"a":2,"b":8},"studentGuess":0.35,"delta":0.15000000000000002,"totalExamples":10,"bonusSoFar":0},{"rt":null,"stimulus":"Sending examples to student... ","response":null,"trial_type":"html-keyboard-response","trial_index":60,"time_elapsed":884934,"internal_node_id":"0.0-59.0","params":{"nStudents":24,"maxFlips":25,"completionMinutes":45,"basePay":8,"maxBonus":9,"perTrialBonus":0.5,"perTrialBonusThreshold":0.05,"exampleCost":0.02},"classroomParams":{"A":{"a":1,"b":4},"B":{"a":4,"b":1},"C":{"a":2,"b":8},"D":{"a":8,"b":2}},"conditions":["nonSeqFull","nonSeqPartial","seqNoFeedback","seqFeedback"],"classroomPairings":[["A","B"],["C","D"]],"coinWeights":[0.2,0.5,0.8],"subjectId":"AX27MR7AMU52H","assignmentId":"3KKG4CDWKJKA99NPHCADU6GG8DO94U","hitId":"3IH9TRB0FBLK6RLF7MSMKICTGYN1IU","url":"https://gershmanlab.com/experiments/alicia/teaching/experiment/?hitId=3IH9TRB0FBLK6RLF7MSMKICTGYN1IU&workerId=AX27MR7AMU52H&assignmentId=3KKG4CDWKJKA99NPHCADU6GG8DO94U&a=W4KK3&tp_a=W4KK3&b=3KKG4CDWKJKA99NPHCADU6GG8DO94U&tp_b=3KKG4CDWKJKA99NPHCADU6GG8DO94U&c=365633&tp_c=365633"},{"rt":null,"stimulus":"Examples sent to student! Waiting for student...","response":null,"trial_type":"html-keyboard-response","trial_index":61,"time_elapsed":888941,"internal_node_id":"0.0-60.0","params":{"nStudents":24,"maxFlips":25,"completionMinutes":45,"basePay":8,"maxBonus":9,"perTrialBonus":0.5,"perTrialBonusThreshold":0.05,"exampleCost":0.02},"classroomParams":{"A":{"a":1,"b":4},"B":{"a":4,"b":1},"C":{"a":2,"b":8},"D":{"a":8,"b":2}},"conditions":["nonSeqFull","nonSeqPartial","seqNoFeedback","seqFeedback"],"classroomPairings":[["A","B"],["C","D"]],"coinWeights":[0.2,0.5,0.8],"subjectId":"AX27MR7AMU52H","assignmentId":"3KKG4CDWKJKA99NPHCADU6GG8DO94U","hitId":"3IH9TRB0FBLK6RLF7MSMKICTGYN1IU","url":"https://gershmanlab.com/experiments/alicia/teaching/experiment/?hitId=3IH9TRB0FBLK6RLF7MSMKICTGYN1IU&workerId=AX27MR7AMU52H&assignmentId=3KKG4CDWKJKA99NPHCADU6GG8DO94U&a=W4KK3&tp_a=W4KK3&b=3KKG4CDWKJKA99NPHCADU6GG8DO94U&tp_b=3KKG4CDWKJKA99NPHCADU6GG8DO94U&c=365633&tp_c=365633"},{"rt":11137,"response":{"heads":"5","tails":"5"},"type":"response","condition":"seqNoFeedback","trueTheta":0.5,"classrooms":["C","D"],"studentTrueClassroom":"C","exampleSet":"second","trial_type":"survey-html-form","trial_index":62,"time_elapsed":900082,"internal_node_id":"0.0-61.0-0.0","params":{"nStudents":24,"maxFlips":25,"completionMinutes":45,"basePay":8,"maxBonus":9,"perTrialBonus":0.5,"perTrialBonusThreshold":0.05,"exampleCost":0.02},"classroomParams":{"A":{"a":1,"b":4},"B":{"a":4,"b":1},"C":{"a":2,"b":8},"D":{"a":8,"b":2}},"conditions":["nonSeqFull","nonSeqPartial","seqNoFeedback","seqFeedback"],"classroomPairings":[["A","B"],["C","D"]],"coinWeights":[0.2,0.5,0.8],"subjectId":"AX27MR7AMU52H","assignmentId":"3KKG4CDWKJKA99NPHCADU6GG8DO94U","hitId":"3IH9TRB0FBLK6RLF7MSMKICTGYN1IU","url":"https://gershmanlab.com/experiments/alicia/teaching/experiment/?hitId=3IH9TRB0FBLK6RLF7MSMKICTGYN1IU&workerId=AX27MR7AMU52H&assignmentId=3KKG4CDWKJKA99NPHCADU6GG8DO94U&a=W4KK3&tp_a=W4KK3&b=3KKG4CDWKJKA99NPHCADU6GG8DO94U&tp_b=3KKG4CDWKJKA99NPHCADU6GG8DO94U&c=365633&tp_c=365633","firstResponseHeads":5,"firstResponseTails":5,"secondResponseHeads":5,"secondResponseTails":5,"totalHeads":10,"totalTails":10,"studentIndex":7,"studentTrueHypers":{"a":2,"b":8},"studentGuess":0.4,"delta":0.09999999999999998,"bonus":0,"bonusSoFar":0,"totalExamples":20},{"rt":null,"stimulus":"Sending examples to student... ","response":null,"trial_type":"html-keyboard-response","trial_index":63,"time_elapsed":902090,"internal_node_id":"0.0-62.0","params":{"nStudents":24,"maxFlips":25,"completionMinutes":45,"basePay":8,"maxBonus":9,"perTrialBonus":0.5,"perTrialBonusThreshold":0.05,"exampleCost":0.02},"classroomParams":{"A":{"a":1,"b":4},"B":{"a":4,"b":1},"C":{"a":2,"b":8},"D":{"a":8,"b":2}},"conditions":["nonSeqFull","nonSeqPartial","seqNoFeedback","seqFeedback"],"classroomPairings":[["A","B"],["C","D"]],"coinWeights":[0.2,0.5,0.8],"subjectId":"AX27MR7AMU52H","assignmentId":"3KKG4CDWKJKA99NPHCADU6GG8DO94U","hitId":"3IH9TRB0FBLK6RLF7MSMKICTGYN1IU","url":"https://gershmanlab.com/experiments/alicia/teaching/experiment/?hitId=3IH9TRB0FBLK6RLF7MSMKICTGYN1IU&workerId=AX27MR7AMU52H&assignmentId=3KKG4CDWKJKA99NPHCADU6GG8DO94U&a=W4KK3&tp_a=W4KK3&b=3KKG4CDWKJKA99NPHCADU6GG8DO94U&tp_b=3KKG4CDWKJKA99NPHCADU6GG8DO94U&c=365633&tp_c=365633"},{"rt":null,"stimulus":"Examples sent to student! Waiting for student...","response":null,"trial_type":"html-keyboard-response","trial_index":64,"time_elapsed":908106,"internal_node_id":"0.0-63.0","params":{"nStudents":24,"maxFlips":25,"completionMinutes":45,"basePay":8,"maxBonus":9,"perTrialBonus":0.5,"perTrialBonusThreshold":0.05,"exampleCost":0.02},"classroomParams":{"A":{"a":1,"b":4},"B":{"a":4,"b":1},"C":{"a":2,"b":8},"D":{"a":8,"b":2}},"conditions":["nonSeqFull","nonSeqPartial","seqNoFeedback","seqFeedback"],"classroomPairings":[["A","B"],["C","D"]],"coinWeights":[0.2,0.5,0.8],"subjectId":"AX27MR7AMU52H","assignmentId":"3KKG4CDWKJKA99NPHCADU6GG8DO94U","hitId":"3IH9TRB0FBLK6RLF7MSMKICTGYN1IU","url":"https://gershmanlab.com/experiments/alicia/teaching/experiment/?hitId=3IH9TRB0FBLK6RLF7MSMKICTGYN1IU&workerId=AX27MR7AMU52H&assignmentId=3KKG4CDWKJKA99NPHCADU6GG8DO94U&a=W4KK3&tp_a=W4KK3&b=3KKG4CDWKJKA99NPHCADU6GG8DO94U&tp_b=3KKG4CDWKJKA99NPHCADU6GG8DO94U&c=365633&tp_c=365633"},{"rt":6183,"stimulus":"\n                <p>Student 8's first guess for coin weight: <b style=\"color:Tomato\";>0.35</b></p>\n                <p>Student 8's second guess for coin weight: <b style=\"color:Tomato\";>0.40</b></p>\n                <p>You received a bonus of <b>$0.00</b> based on the student's second guess.</p>\n                <p>Total bonus so far: <b>$0.00</b></p>\n                <p>Press any key to continue.</p>\n                ","response":" ","trial_type":"html-keyboard-response","trial_index":65,"time_elapsed":914291,"internal_node_id":"0.0-64.0","params":{"nStudents":24,"maxFlips":25,"completionMinutes":45,"basePay":8,"maxBonus":9,"perTrialBonus":0.5,"perTrialBonusThreshold":0.05,"exampleCost":0.02},"classroomParams":{"A":{"a":1,"b":4},"B":{"a":4,"b":1},"C":{"a":2,"b":8},"D":{"a":8,"b":2}},"conditions":["nonSeqFull","nonSeqPartial","seqNoFeedback","seqFeedback"],"classroomPairings":[["A","B"],["C","D"]],"coinWeights":[0.2,0.5,0.8],"subjectId":"AX27MR7AMU52H","assignmentId":"3KKG4CDWKJKA99NPHCADU6GG8DO94U","hitId":"3IH9TRB0FBLK6RLF7MSMKICTGYN1IU","url":"https://gershmanlab.com/experiments/alicia/teaching/experiment/?hitId=3IH9TRB0FBLK6RLF7MSMKICTGYN1IU&workerId=AX27MR7AMU52H&assignmentId=3KKG4CDWKJKA99NPHCADU6GG8DO94U&a=W4KK3&tp_a=W4KK3&b=3KKG4CDWKJKA99NPHCADU6GG8DO94U&tp_b=3KKG4CDWKJKA99NPHCADU6GG8DO94U&c=365633&tp_c=365633"},{"rt":null,"stimulus":"<div style=\"font-size:60px;\">Next student</div>","response":null,"trial_type":"html-keyboard-response","trial_index":66,"time_elapsed":916292,"internal_node_id":"0.0-65.0-0.0","params":{"nStudents":24,"maxFlips":25,"completionMinutes":45,"basePay":8,"maxBonus":9,"perTrialBonus":0.5,"perTrialBonusThreshold":0.05,"exampleCost":0.02},"classroomParams":{"A":{"a":1,"b":4},"B":{"a":4,"b":1},"C":{"a":2,"b":8},"D":{"a":8,"b":2}},"conditions":["nonSeqFull","nonSeqPartial","seqNoFeedback","seqFeedback"],"classroomPairings":[["A","B"],["C","D"]],"coinWeights":[0.2,0.5,0.8],"subjectId":"AX27MR7AMU52H","assignmentId":"3KKG4CDWKJKA99NPHCADU6GG8DO94U","hitId":"3IH9TRB0FBLK6RLF7MSMKICTGYN1IU","url":"https://gershmanlab.com/experiments/alicia/teaching/experiment/?hitId=3IH9TRB0FBLK6RLF7MSMKICTGYN1IU&workerId=AX27MR7AMU52H&assignmentId=3KKG4CDWKJKA99NPHCADU6GG8DO94U&a=W4KK3&tp_a=W4KK3&b=3KKG4CDWKJKA99NPHCADU6GG8DO94U&tp_b=3KKG4CDWKJKA99NPHCADU6GG8DO94U&c=365633&tp_c=365633"},{"rt":2179,"stimulus":"\n            <h4 style=\"color:Orange;\">Student 9</h4>\n            <h2>The weight of your coin is <b style=\"color:Tomato;\">0.5</b>.</h2>\n            <p>In this block, you will be giving <b>two</b> sets of examples to Student 9.</p>\n                <p>You will see the student's guess after the first set of examples. You will also receive feedback at the end of the block.</p>\n            <p>To earn the highest bonus, you will have to <b>take into consideration the student's guess</b> when you choose your second set of examples.</p>","response":0,"trial_type":"html-button-response","trial_index":67,"time_elapsed":918473,"internal_node_id":"0.0-66.0","params":{"nStudents":24,"maxFlips":25,"completionMinutes":45,"basePay":8,"maxBonus":9,"perTrialBonus":0.5,"perTrialBonusThreshold":0.05,"exampleCost":0.02},"classroomParams":{"A":{"a":1,"b":4},"B":{"a":4,"b":1},"C":{"a":2,"b":8},"D":{"a":8,"b":2}},"conditions":["nonSeqFull","nonSeqPartial","seqNoFeedback","seqFeedback"],"classroomPairings":[["A","B"],["C","D"]],"coinWeights":[0.2,0.5,0.8],"subjectId":"AX27MR7AMU52H","assignmentId":"3KKG4CDWKJKA99NPHCADU6GG8DO94U","hitId":"3IH9TRB0FBLK6RLF7MSMKICTGYN1IU","url":"https://gershmanlab.com/experiments/alicia/teaching/experiment/?hitId=3IH9TRB0FBLK6RLF7MSMKICTGYN1IU&workerId=AX27MR7AMU52H&assignmentId=3KKG4CDWKJKA99NPHCADU6GG8DO94U&a=W4KK3&tp_a=W4KK3&b=3KKG4CDWKJKA99NPHCADU6GG8DO94U&tp_b=3KKG4CDWKJKA99NPHCADU6GG8DO94U&c=365633&tp_c=365633"},{"rt":8982,"response":{"heads":"10","tails":"10"},"type":"response","condition":"seqFeedback","trueTheta":0.5,"classrooms":["C","D"],"studentTrueClassroom":"C","exampleSet":"first","trial_type":"survey-html-form","trial_index":68,"time_elapsed":927457,"internal_node_id":"0.0-67.0-0.0","params":{"nStudents":24,"maxFlips":25,"completionMinutes":45,"basePay":8,"maxBonus":9,"perTrialBonus":0.5,"perTrialBonusThreshold":0.05,"exampleCost":0.02},"classroomParams":{"A":{"a":1,"b":4},"B":{"a":4,"b":1},"C":{"a":2,"b":8},"D":{"a":8,"b":2}},"conditions":["nonSeqFull","nonSeqPartial","seqNoFeedback","seqFeedback"],"classroomPairings":[["A","B"],["C","D"]],"coinWeights":[0.2,0.5,0.8],"subjectId":"AX27MR7AMU52H","assignmentId":"3KKG4CDWKJKA99NPHCADU6GG8DO94U","hitId":"3IH9TRB0FBLK6RLF7MSMKICTGYN1IU","url":"https://gershmanlab.com/experiments/alicia/teaching/experiment/?hitId=3IH9TRB0FBLK6RLF7MSMKICTGYN1IU&workerId=AX27MR7AMU52H&assignmentId=3KKG4CDWKJKA99NPHCADU6GG8DO94U&a=W4KK3&tp_a=W4KK3&b=3KKG4CDWKJKA99NPHCADU6GG8DO94U&tp_b=3KKG4CDWKJKA99NPHCADU6GG8DO94U&c=365633&tp_c=365633","heads":10,"tails":10,"studentIndex":8,"studentTrueHypers":{"a":2,"b":8},"studentGuess":0.4,"delta":0.09999999999999998,"totalExamples":20,"bonusSoFar":0},{"rt":null,"stimulus":"Sending examples to student... ","response":null,"trial_type":"html-keyboard-response","trial_index":69,"time_elapsed":928718,"internal_node_id":"0.0-68.0","params":{"nStudents":24,"maxFlips":25,"completionMinutes":45,"basePay":8,"maxBonus":9,"perTrialBonus":0.5,"perTrialBonusThreshold":0.05,"exampleCost":0.02},"classroomParams":{"A":{"a":1,"b":4},"B":{"a":4,"b":1},"C":{"a":2,"b":8},"D":{"a":8,"b":2}},"conditions":["nonSeqFull","nonSeqPartial","seqNoFeedback","seqFeedback"],"classroomPairings":[["A","B"],["C","D"]],"coinWeights":[0.2,0.5,0.8],"subjectId":"AX27MR7AMU52H","assignmentId":"3KKG4CDWKJKA99NPHCADU6GG8DO94U","hitId":"3IH9TRB0FBLK6RLF7MSMKICTGYN1IU","url":"https://gershmanlab.com/experiments/alicia/teaching/experiment/?hitId=3IH9TRB0FBLK6RLF7MSMKICTGYN1IU&workerId=AX27MR7AMU52H&assignmentId=3KKG4CDWKJKA99NPHCADU6GG8DO94U&a=W4KK3&tp_a=W4KK3&b=3KKG4CDWKJKA99NPHCADU6GG8DO94U&tp_b=3KKG4CDWKJKA99NPHCADU6GG8DO94U&c=365633&tp_c=365633"},{"rt":null,"stimulus":"Examples sent to student! Waiting for student...","response":null,"trial_type":"html-keyboard-response","trial_index":70,"time_elapsed":932720,"internal_node_id":"0.0-69.0","params":{"nStudents":24,"maxFlips":25,"completionMinutes":45,"basePay":8,"maxBonus":9,"perTrialBonus":0.5,"perTrialBonusThreshold":0.05,"exampleCost":0.02},"classroomParams":{"A":{"a":1,"b":4},"B":{"a":4,"b":1},"C":{"a":2,"b":8},"D":{"a":8,"b":2}},"conditions":["nonSeqFull","nonSeqPartial","seqNoFeedback","seqFeedback"],"classroomPairings":[["A","B"],["C","D"]],"coinWeights":[0.2,0.5,0.8],"subjectId":"AX27MR7AMU52H","assignmentId":"3KKG4CDWKJKA99NPHCADU6GG8DO94U","hitId":"3IH9TRB0FBLK6RLF7MSMKICTGYN1IU","url":"https://gershmanlab.com/experiments/alicia/teaching/experiment/?hitId=3IH9TRB0FBLK6RLF7MSMKICTGYN1IU&workerId=AX27MR7AMU52H&assignmentId=3KKG4CDWKJKA99NPHCADU6GG8DO94U&a=W4KK3&tp_a=W4KK3&b=3KKG4CDWKJKA99NPHCADU6GG8DO94U&tp_b=3KKG4CDWKJKA99NPHCADU6GG8DO94U&c=365633&tp_c=365633"},{"rt":3504,"stimulus":"\n                <p>Student's guess for coin weight: <b style=\"color:Tomato;\">0.40</b></p>\n                <p></b></p>\n                <p>You will now send another set of examples to your student. <b>Remember to take your student's guess into consideration so that you can earn the highest bonus possible!</b> </p>\n                <p>Press any key to continue.</p>\n                ","response":" ","trial_type":"html-keyboard-response","trial_index":71,"time_elapsed":936226,"internal_node_id":"0.0-70.0","params":{"nStudents":24,"maxFlips":25,"completionMinutes":45,"basePay":8,"maxBonus":9,"perTrialBonus":0.5,"perTrialBonusThreshold":0.05,"exampleCost":0.02},"classroomParams":{"A":{"a":1,"b":4},"B":{"a":4,"b":1},"C":{"a":2,"b":8},"D":{"a":8,"b":2}},"conditions":["nonSeqFull","nonSeqPartial","seqNoFeedback","seqFeedback"],"classroomPairings":[["A","B"],["C","D"]],"coinWeights":[0.2,0.5,0.8],"subjectId":"AX27MR7AMU52H","assignmentId":"3KKG4CDWKJKA99NPHCADU6GG8DO94U","hitId":"3IH9TRB0FBLK6RLF7MSMKICTGYN1IU","url":"https://gershmanlab.com/experiments/alicia/teaching/experiment/?hitId=3IH9TRB0FBLK6RLF7MSMKICTGYN1IU&workerId=AX27MR7AMU52H&assignmentId=3KKG4CDWKJKA99NPHCADU6GG8DO94U&a=W4KK3&tp_a=W4KK3&b=3KKG4CDWKJKA99NPHCADU6GG8DO94U&tp_b=3KKG4CDWKJKA99NPHCADU6GG8DO94U&c=365633&tp_c=365633"},{"rt":15061,"response":{"heads":"12","tails":"12"},"type":"response","condition":"seqFeedback","trueTheta":0.5,"classrooms":["C","D"],"studentTrueClassroom":"C","exampleSet":"second","trial_type":"survey-html-form","trial_index":72,"time_elapsed":951289,"internal_node_id":"0.0-71.0-0.0","params":{"nStudents":24,"maxFlips":25,"completionMinutes":45,"basePay":8,"maxBonus":9,"perTrialBonus":0.5,"perTrialBonusThreshold":0.05,"exampleCost":0.02},"classroomParams":{"A":{"a":1,"b":4},"B":{"a":4,"b":1},"C":{"a":2,"b":8},"D":{"a":8,"b":2}},"conditions":["nonSeqFull","nonSeqPartial","seqNoFeedback","seqFeedback"],"classroomPairings":[["A","B"],["C","D"]],"coinWeights":[0.2,0.5,0.8],"subjectId":"AX27MR7AMU52H","assignmentId":"3KKG4CDWKJKA99NPHCADU6GG8DO94U","hitId":"3IH9TRB0FBLK6RLF7MSMKICTGYN1IU","url":"https://gershmanlab.com/experiments/alicia/teaching/experiment/?hitId=3IH9TRB0FBLK6RLF7MSMKICTGYN1IU&workerId=AX27MR7AMU52H&assignmentId=3KKG4CDWKJKA99NPHCADU6GG8DO94U&a=W4KK3&tp_a=W4KK3&b=3KKG4CDWKJKA99NPHCADU6GG8DO94U&tp_b=3KKG4CDWKJKA99NPHCADU6GG8DO94U&c=365633&tp_c=365633","firstResponseHeads":10,"firstResponseTails":10,"secondResponseHeads":12,"secondResponseTails":12,"totalHeads":22,"totalTails":22,"studentIndex":8,"studentTrueHypers":{"a":2,"b":8},"studentGuess":0.4444444444444444,"delta":0.05555555555555558,"bonus":0,"bonusSoFar":0,"totalExamples":44},{"rt":null,"stimulus":"Sending examples to student... ","response":null,"trial_type":"html-keyboard-response","trial_index":73,"time_elapsed":953297,"internal_node_id":"0.0-72.0","params":{"nStudents":24,"maxFlips":25,"completionMinutes":45,"basePay":8,"maxBonus":9,"perTrialBonus":0.5,"perTrialBonusThreshold":0.05,"exampleCost":0.02},"classroomParams":{"A":{"a":1,"b":4},"B":{"a":4,"b":1},"C":{"a":2,"b":8},"D":{"a":8,"b":2}},"conditions":["nonSeqFull","nonSeqPartial","seqNoFeedback","seqFeedback"],"classroomPairings":[["A","B"],["C","D"]],"coinWeights":[0.2,0.5,0.8],"subjectId":"AX27MR7AMU52H","assignmentId":"3KKG4CDWKJKA99NPHCADU6GG8DO94U","hitId":"3IH9TRB0FBLK6RLF7MSMKICTGYN1IU","url":"https://gershmanlab.com/experiments/alicia/teaching/experiment/?hitId=3IH9TRB0FBLK6RLF7MSMKICTGYN1IU&workerId=AX27MR7AMU52H&assignmentId=3KKG4CDWKJKA99NPHCADU6GG8DO94U&a=W4KK3&tp_a=W4KK3&b=3KKG4CDWKJKA99NPHCADU6GG8DO94U&tp_b=3KKG4CDWKJKA99NPHCADU6GG8DO94U&c=365633&tp_c=365633"},{"rt":null,"stimulus":"Examples sent to student! Waiting for student...","response":null,"trial_type":"html-keyboard-response","trial_index":74,"time_elapsed":958804,"internal_node_id":"0.0-73.0","params":{"nStudents":24,"maxFlips":25,"completionMinutes":45,"basePay":8,"maxBonus":9,"perTrialBonus":0.5,"perTrialBonusThreshold":0.05,"exampleCost":0.02},"classroomParams":{"A":{"a":1,"b":4},"B":{"a":4,"b":1},"C":{"a":2,"b":8},"D":{"a":8,"b":2}},"conditions":["nonSeqFull","nonSeqPartial","seqNoFeedback","seqFeedback"],"classroomPairings":[["A","B"],["C","D"]],"coinWeights":[0.2,0.5,0.8],"subjectId":"AX27MR7AMU52H","assignmentId":"3KKG4CDWKJKA99NPHCADU6GG8DO94U","hitId":"3IH9TRB0FBLK6RLF7MSMKICTGYN1IU","url":"https://gershmanlab.com/experiments/alicia/teaching/experiment/?hitId=3IH9TRB0FBLK6RLF7MSMKICTGYN1IU&workerId=AX27MR7AMU52H&assignmentId=3KKG4CDWKJKA99NPHCADU6GG8DO94U&a=W4KK3&tp_a=W4KK3&b=3KKG4CDWKJKA99NPHCADU6GG8DO94U&tp_b=3KKG4CDWKJKA99NPHCADU6GG8DO94U&c=365633&tp_c=365633"},{"rt":9995,"stimulus":"\n                <p>Student 9's first guess for coin weight: <b style=\"color:Tomato\";>0.40</b></p>\n                <p>Student 9's second guess for coin weight: <b style=\"color:Tomato\";>0.44</b></p>\n                <p>You received a bonus of <b>$0.00</b> based on the student's second guess.</p>\n                <p>Total bonus so far: <b>$0.00</b></p>\n                <p>Press any key to continue.</p>\n                ","response":" ","trial_type":"html-keyboard-response","trial_index":75,"time_elapsed":968801,"internal_node_id":"0.0-74.0","params":{"nStudents":24,"maxFlips":25,"completionMinutes":45,"basePay":8,"maxBonus":9,"perTrialBonus":0.5,"perTrialBonusThreshold":0.05,"exampleCost":0.02},"classroomParams":{"A":{"a":1,"b":4},"B":{"a":4,"b":1},"C":{"a":2,"b":8},"D":{"a":8,"b":2}},"conditions":["nonSeqFull","nonSeqPartial","seqNoFeedback","seqFeedback"],"classroomPairings":[["A","B"],["C","D"]],"coinWeights":[0.2,0.5,0.8],"subjectId":"AX27MR7AMU52H","assignmentId":"3KKG4CDWKJKA99NPHCADU6GG8DO94U","hitId":"3IH9TRB0FBLK6RLF7MSMKICTGYN1IU","url":"https://gershmanlab.com/experiments/alicia/teaching/experiment/?hitId=3IH9TRB0FBLK6RLF7MSMKICTGYN1IU&workerId=AX27MR7AMU52H&assignmentId=3KKG4CDWKJKA99NPHCADU6GG8DO94U&a=W4KK3&tp_a=W4KK3&b=3KKG4CDWKJKA99NPHCADU6GG8DO94U&tp_b=3KKG4CDWKJKA99NPHCADU6GG8DO94U&c=365633&tp_c=365633"},{"rt":null,"stimulus":"<div style=\"font-size:60px;\">Next student</div>","response":null,"trial_type":"html-keyboard-response","trial_index":76,"time_elapsed":971311,"internal_node_id":"0.0-75.0-0.0","params":{"nStudents":24,"maxFlips":25,"completionMinutes":45,"basePay":8,"maxBonus":9,"perTrialBonus":0.5,"perTrialBonusThreshold":0.05,"exampleCost":0.02},"classroomParams":{"A":{"a":1,"b":4},"B":{"a":4,"b":1},"C":{"a":2,"b":8},"D":{"a":8,"b":2}},"conditions":["nonSeqFull","nonSeqPartial","seqNoFeedback","seqFeedback"],"classroomPairings":[["A","B"],["C","D"]],"coinWeights":[0.2,0.5,0.8],"subjectId":"AX27MR7AMU52H","assignmentId":"3KKG4CDWKJKA99NPHCADU6GG8DO94U","hitId":"3IH9TRB0FBLK6RLF7MSMKICTGYN1IU","url":"https://gershmanlab.com/experiments/alicia/teaching/experiment/?hitId=3IH9TRB0FBLK6RLF7MSMKICTGYN1IU&workerId=AX27MR7AMU52H&assignmentId=3KKG4CDWKJKA99NPHCADU6GG8DO94U&a=W4KK3&tp_a=W4KK3&b=3KKG4CDWKJKA99NPHCADU6GG8DO94U&tp_b=3KKG4CDWKJKA99NPHCADU6GG8DO94U&c=365633&tp_c=365633"},{"rt":2095,"stimulus":"\n            <h4 style=\"color:Orange;\">Student 10</h4>\n            <h2>The weight of your coin is <b style=\"color:Tomato;\">0.8</b>.</h2>\n            <p>In this block, you will be giving <b>two</b> sets of examples to Student 10.</p>\n                <p>You will receive feedback at the end of the block.</p>\n            <p></p>","response":0,"trial_type":"html-button-response","trial_index":77,"time_elapsed":973408,"internal_node_id":"0.0-76.0","params":{"nStudents":24,"maxFlips":25,"completionMinutes":45,"basePay":8,"maxBonus":9,"perTrialBonus":0.5,"perTrialBonusThreshold":0.05,"exampleCost":0.02},"classroomParams":{"A":{"a":1,"b":4},"B":{"a":4,"b":1},"C":{"a":2,"b":8},"D":{"a":8,"b":2}},"conditions":["nonSeqFull","nonSeqPartial","seqNoFeedback","seqFeedback"],"classroomPairings":[["A","B"],["C","D"]],"coinWeights":[0.2,0.5,0.8],"subjectId":"AX27MR7AMU52H","assignmentId":"3KKG4CDWKJKA99NPHCADU6GG8DO94U","hitId":"3IH9TRB0FBLK6RLF7MSMKICTGYN1IU","url":"https://gershmanlab.com/experiments/alicia/teaching/experiment/?hitId=3IH9TRB0FBLK6RLF7MSMKICTGYN1IU&workerId=AX27MR7AMU52H&assignmentId=3KKG4CDWKJKA99NPHCADU6GG8DO94U&a=W4KK3&tp_a=W4KK3&b=3KKG4CDWKJKA99NPHCADU6GG8DO94U&tp_b=3KKG4CDWKJKA99NPHCADU6GG8DO94U&c=365633&tp_c=365633"},{"rt":36582,"response":{"heads":"16","tails":"2"},"type":"response","condition":"seqNoFeedback","trueTheta":0.8,"classrooms":["C","D"],"studentTrueClassroom":"C","exampleSet":"first","trial_type":"survey-html-form","trial_index":78,"time_elapsed":1009992,"internal_node_id":"0.0-77.0-0.0","params":{"nStudents":24,"maxFlips":25,"completionMinutes":45,"basePay":8,"maxBonus":9,"perTrialBonus":0.5,"perTrialBonusThreshold":0.05,"exampleCost":0.02},"classroomParams":{"A":{"a":1,"b":4},"B":{"a":4,"b":1},"C":{"a":2,"b":8},"D":{"a":8,"b":2}},"conditions":["nonSeqFull","nonSeqPartial","seqNoFeedback","seqFeedback"],"classroomPairings":[["A","B"],["C","D"]],"coinWeights":[0.2,0.5,0.8],"subjectId":"AX27MR7AMU52H","assignmentId":"3KKG4CDWKJKA99NPHCADU6GG8DO94U","hitId":"3IH9TRB0FBLK6RLF7MSMKICTGYN1IU","url":"https://gershmanlab.com/experiments/alicia/teaching/experiment/?hitId=3IH9TRB0FBLK6RLF7MSMKICTGYN1IU&workerId=AX27MR7AMU52H&assignmentId=3KKG4CDWKJKA99NPHCADU6GG8DO94U&a=W4KK3&tp_a=W4KK3&b=3KKG4CDWKJKA99NPHCADU6GG8DO94U&tp_b=3KKG4CDWKJKA99NPHCADU6GG8DO94U&c=365633&tp_c=365633","heads":16,"tails":2,"studentIndex":9,"studentTrueHypers":{"a":2,"b":8},"studentGuess":0.6428571428571429,"delta":0.15714285714285714,"totalExamples":18,"bonusSoFar":0},{"rt":null,"stimulus":"Sending examples to student... ","response":null,"trial_type":"html-keyboard-response","trial_index":79,"time_elapsed":1011249,"internal_node_id":"0.0-78.0","params":{"nStudents":24,"maxFlips":25,"completionMinutes":45,"basePay":8,"maxBonus":9,"perTrialBonus":0.5,"perTrialBonusThreshold":0.05,"exampleCost":0.02},"classroomParams":{"A":{"a":1,"b":4},"B":{"a":4,"b":1},"C":{"a":2,"b":8},"D":{"a":8,"b":2}},"conditions":["nonSeqFull","nonSeqPartial","seqNoFeedback","seqFeedback"],"classroomPairings":[["A","B"],["C","D"]],"coinWeights":[0.2,0.5,0.8],"subjectId":"AX27MR7AMU52H","assignmentId":"3KKG4CDWKJKA99NPHCADU6GG8DO94U","hitId":"3IH9TRB0FBLK6RLF7MSMKICTGYN1IU","url":"https://gershmanlab.com/experiments/alicia/teaching/experiment/?hitId=3IH9TRB0FBLK6RLF7MSMKICTGYN1IU&workerId=AX27MR7AMU52H&assignmentId=3KKG4CDWKJKA99NPHCADU6GG8DO94U&a=W4KK3&tp_a=W4KK3&b=3KKG4CDWKJKA99NPHCADU6GG8DO94U&tp_b=3KKG4CDWKJKA99NPHCADU6GG8DO94U&c=365633&tp_c=365633"},{"rt":null,"stimulus":"Examples sent to student! Waiting for student...","response":null,"trial_type":"html-keyboard-response","trial_index":80,"time_elapsed":1016259,"internal_node_id":"0.0-79.0","params":{"nStudents":24,"maxFlips":25,"completionMinutes":45,"basePay":8,"maxBonus":9,"perTrialBonus":0.5,"perTrialBonusThreshold":0.05,"exampleCost":0.02},"classroomParams":{"A":{"a":1,"b":4},"B":{"a":4,"b":1},"C":{"a":2,"b":8},"D":{"a":8,"b":2}},"conditions":["nonSeqFull","nonSeqPartial","seqNoFeedback","seqFeedback"],"classroomPairings":[["A","B"],["C","D"]],"coinWeights":[0.2,0.5,0.8],"subjectId":"AX27MR7AMU52H","assignmentId":"3KKG4CDWKJKA99NPHCADU6GG8DO94U","hitId":"3IH9TRB0FBLK6RLF7MSMKICTGYN1IU","url":"https://gershmanlab.com/experiments/alicia/teaching/experiment/?hitId=3IH9TRB0FBLK6RLF7MSMKICTGYN1IU&workerId=AX27MR7AMU52H&assignmentId=3KKG4CDWKJKA99NPHCADU6GG8DO94U&a=W4KK3&tp_a=W4KK3&b=3KKG4CDWKJKA99NPHCADU6GG8DO94U&tp_b=3KKG4CDWKJKA99NPHCADU6GG8DO94U&c=365633&tp_c=365633"},{"rt":7899,"response":{"heads":"16","tails":"2"},"type":"response","condition":"seqNoFeedback","trueTheta":0.8,"classrooms":["C","D"],"studentTrueClassroom":"C","exampleSet":"second","trial_type":"survey-html-form","trial_index":81,"time_elapsed":1024159,"internal_node_id":"0.0-80.0-0.0","params":{"nStudents":24,"maxFlips":25,"completionMinutes":45,"basePay":8,"maxBonus":9,"perTrialBonus":0.5,"perTrialBonusThreshold":0.05,"exampleCost":0.02},"classroomParams":{"A":{"a":1,"b":4},"B":{"a":4,"b":1},"C":{"a":2,"b":8},"D":{"a":8,"b":2}},"conditions":["nonSeqFull","nonSeqPartial","seqNoFeedback","seqFeedback"],"classroomPairings":[["A","B"],["C","D"]],"coinWeights":[0.2,0.5,0.8],"subjectId":"AX27MR7AMU52H","assignmentId":"3KKG4CDWKJKA99NPHCADU6GG8DO94U","hitId":"3IH9TRB0FBLK6RLF7MSMKICTGYN1IU","url":"https://gershmanlab.com/experiments/alicia/teaching/experiment/?hitId=3IH9TRB0FBLK6RLF7MSMKICTGYN1IU&workerId=AX27MR7AMU52H&assignmentId=3KKG4CDWKJKA99NPHCADU6GG8DO94U&a=W4KK3&tp_a=W4KK3&b=3KKG4CDWKJKA99NPHCADU6GG8DO94U&tp_b=3KKG4CDWKJKA99NPHCADU6GG8DO94U&c=365633&tp_c=365633","firstResponseHeads":16,"firstResponseTails":2,"secondResponseHeads":16,"secondResponseTails":2,"totalHeads":32,"totalTails":4,"studentIndex":9,"studentTrueHypers":{"a":2,"b":8},"studentGuess":0.7391304347826086,"delta":0.0608695652173914,"bonus":0,"bonusSoFar":0,"totalExamples":36},{"rt":null,"stimulus":"Sending examples to student... ","response":null,"trial_type":"html-keyboard-response","trial_index":82,"time_elapsed":1025699,"internal_node_id":"0.0-81.0","params":{"nStudents":24,"maxFlips":25,"completionMinutes":45,"basePay":8,"maxBonus":9,"perTrialBonus":0.5,"perTrialBonusThreshold":0.05,"exampleCost":0.02},"classroomParams":{"A":{"a":1,"b":4},"B":{"a":4,"b":1},"C":{"a":2,"b":8},"D":{"a":8,"b":2}},"conditions":["nonSeqFull","nonSeqPartial","seqNoFeedback","seqFeedback"],"classroomPairings":[["A","B"],["C","D"]],"coinWeights":[0.2,0.5,0.8],"subjectId":"AX27MR7AMU52H","assignmentId":"3KKG4CDWKJKA99NPHCADU6GG8DO94U","hitId":"3IH9TRB0FBLK6RLF7MSMKICTGYN1IU","url":"https://gershmanlab.com/experiments/alicia/teaching/experiment/?hitId=3IH9TRB0FBLK6RLF7MSMKICTGYN1IU&workerId=AX27MR7AMU52H&assignmentId=3KKG4CDWKJKA99NPHCADU6GG8DO94U&a=W4KK3&tp_a=W4KK3&b=3KKG4CDWKJKA99NPHCADU6GG8DO94U&tp_b=3KKG4CDWKJKA99NPHCADU6GG8DO94U&c=365633&tp_c=365633"},{"rt":null,"stimulus":"Examples sent to student! Waiting for student...","response":null,"trial_type":"html-keyboard-response","trial_index":83,"time_elapsed":1031203,"internal_node_id":"0.0-82.0","params":{"nStudents":24,"maxFlips":25,"completionMinutes":45,"basePay":8,"maxBonus":9,"perTrialBonus":0.5,"perTrialBonusThreshold":0.05,"exampleCost":0.02},"classroomParams":{"A":{"a":1,"b":4},"B":{"a":4,"b":1},"C":{"a":2,"b":8},"D":{"a":8,"b":2}},"conditions":["nonSeqFull","nonSeqPartial","seqNoFeedback","seqFeedback"],"classroomPairings":[["A","B"],["C","D"]],"coinWeights":[0.2,0.5,0.8],"subjectId":"AX27MR7AMU52H","assignmentId":"3KKG4CDWKJKA99NPHCADU6GG8DO94U","hitId":"3IH9TRB0FBLK6RLF7MSMKICTGYN1IU","url":"https://gershmanlab.com/experiments/alicia/teaching/experiment/?hitId=3IH9TRB0FBLK6RLF7MSMKICTGYN1IU&workerId=AX27MR7AMU52H&assignmentId=3KKG4CDWKJKA99NPHCADU6GG8DO94U&a=W4KK3&tp_a=W4KK3&b=3KKG4CDWKJKA99NPHCADU6GG8DO94U&tp_b=3KKG4CDWKJKA99NPHCADU6GG8DO94U&c=365633&tp_c=365633"},{"rt":8796,"stimulus":"\n                <p>Student 10's first guess for coin weight: <b style=\"color:Tomato\";>0.64</b></p>\n                <p>Student 10's second guess for coin weight: <b style=\"color:Tomato\";>0.74</b></p>\n                <p>You received a bonus of <b>$0.00</b> based on the student's second guess.</p>\n                <p>Total bonus so far: <b>$0.00</b></p>\n                <p>Press any key to continue.</p>\n                ","response":" ","trial_type":"html-keyboard-response","trial_index":84,"time_elapsed":1040001,"internal_node_id":"0.0-83.0","params":{"nStudents":24,"maxFlips":25,"completionMinutes":45,"basePay":8,"maxBonus":9,"perTrialBonus":0.5,"perTrialBonusThreshold":0.05,"exampleCost":0.02},"classroomParams":{"A":{"a":1,"b":4},"B":{"a":4,"b":1},"C":{"a":2,"b":8},"D":{"a":8,"b":2}},"conditions":["nonSeqFull","nonSeqPartial","seqNoFeedback","seqFeedback"],"classroomPairings":[["A","B"],["C","D"]],"coinWeights":[0.2,0.5,0.8],"subjectId":"AX27MR7AMU52H","assignmentId":"3KKG4CDWKJKA99NPHCADU6GG8DO94U","hitId":"3IH9TRB0FBLK6RLF7MSMKICTGYN1IU","url":"https://gershmanlab.com/experiments/alicia/teaching/experiment/?hitId=3IH9TRB0FBLK6RLF7MSMKICTGYN1IU&workerId=AX27MR7AMU52H&assignmentId=3KKG4CDWKJKA99NPHCADU6GG8DO94U&a=W4KK3&tp_a=W4KK3&b=3KKG4CDWKJKA99NPHCADU6GG8DO94U&tp_b=3KKG4CDWKJKA99NPHCADU6GG8DO94U&c=365633&tp_c=365633"},{"rt":null,"stimulus":"<div style=\"font-size:60px;\">Next student</div>","response":null,"trial_type":"html-keyboard-response","trial_index":85,"time_elapsed":1043010,"internal_node_id":"0.0-84.0-0.0","params":{"nStudents":24,"maxFlips":25,"completionMinutes":45,"basePay":8,"maxBonus":9,"perTrialBonus":0.5,"perTrialBonusThreshold":0.05,"exampleCost":0.02},"classroomParams":{"A":{"a":1,"b":4},"B":{"a":4,"b":1},"C":{"a":2,"b":8},"D":{"a":8,"b":2}},"conditions":["nonSeqFull","nonSeqPartial","seqNoFeedback","seqFeedback"],"classroomPairings":[["A","B"],["C","D"]],"coinWeights":[0.2,0.5,0.8],"subjectId":"AX27MR7AMU52H","assignmentId":"3KKG4CDWKJKA99NPHCADU6GG8DO94U","hitId":"3IH9TRB0FBLK6RLF7MSMKICTGYN1IU","url":"https://gershmanlab.com/experiments/alicia/teaching/experiment/?hitId=3IH9TRB0FBLK6RLF7MSMKICTGYN1IU&workerId=AX27MR7AMU52H&assignmentId=3KKG4CDWKJKA99NPHCADU6GG8DO94U&a=W4KK3&tp_a=W4KK3&b=3KKG4CDWKJKA99NPHCADU6GG8DO94U&t