[{"rt":2059,"stimulus":"Welcome to the experiment. Press any key to begin.","response":"n","trial_type":"html-keyboard-response","trial_index":0,"time_elapsed":2116,"internal_node_id":"0.0-0.0","params":{"nStudents":8,"maxExamples":70,"completionMinutes":15,"basePay":3,"maxBonus":6,"perTrialBonus":0.7,"perTrialBonusThreshold":0.08,"exampleCost":0.01},"classroomParams":{"A":{"a":1,"b":9},"B":{"a":9,"b":1}},"conditions":["nonSeqFull","nonSeqPartial","seqNoFeedback","seqFeedback"],"classroomPairings":[["A","B"]],"coinWeights":[0.3,0.7],"subjectId":"A1TARNH07A75CG","assignmentId":"3DUZQ9U6SNAR8123AEBRKRLJF4USVO","hitId":"33KGGVH24U3HWMAA68SNNSZ85PBX13","url":"https://gershmanlab.com/experiments/alicia/teaching/experiment/?hitId=33KGGVH24U3HWMAA68SNNSZ85PBX13&workerId=A1TARNH07A75CG&assignmentId=3DUZQ9U6SNAR8123AEBRKRLJF4USVO&a=6QUD5&tp_a=6QUD5&b=3DUZQ9U6SNAR8123AEBRKRLJF4USVO&tp_b=3DUZQ9U6SNAR8123AEBRKRLJF4USVO&c=368485&tp_c=368485"},{"rt":17191,"stimulus":"\n        <h3>Please read this consent agreement carefully before deciding whether to participate in this experiment.</h3>\n        <p><b>Purpose of the research:</b> To examine how people teach effectively.</p>\n        <p><b>What you will do in this research:</b> You will teach students the turtle composition of different islands.</p>\n        <p><b>Time required:</b> This experiment will take 15 minutes to complete.</p>\n        <p><b>Risks:</b> There are no anticipated risks associated with participating in this study.             The effects of participating should be comparable to those you would experience from viewing a computer monitor             and using a mouse and keyboard for the duration of the experiment.</p>\n        <p><b>Benefits:</b> The study provides important information about the nature of teaching.</p>\n        <p><b>Compensation:</b> You will receive <b>$3</b> for completing the experiment and a performance bonus of up to <b>$6</b>.</p>\n        <p><b>Confidentiality:</b> Your participation in this study will remain confidential.             No personally identifiable information will be associated with your data.             Your de-identified data may be shared with other researchers and used in future projects.</p>\n        <p><b>Participation and withdrawal:</b> Your participation in this study is completely voluntary and             you may refuse to participate or you may choose to withdraw at any time without penalty or loss of\n            benefits to which you are otherwise entitled.</p>\n        <p><b>How to contact the researcher:</b> If you have questions or concerns about your participation            or payment, or want to request a summary of research findings, please contact\n            Alicia Chen, aliciachen@college.harvard.edu.</p>\n        <p><b>Whom to contact about your rights in this research:</b> For questions, concerns, suggestions,             or complaints that have not been or cannot be addressed by the researcher, or to report             research-related harm, please contact the Committee on the Use of Human Subjects in Research at Harvard University,             1414 Massachusetts Avenue, Second Floor, Cambridge, MA 02138. Phone: 617-496-2847. Email: cuhs@fas.harvard.edu.</p>\n        ","response":0,"trial_type":"html-button-response","trial_index":1,"time_elapsed":19309,"internal_node_id":"0.0-1.0","params":{"nStudents":8,"maxExamples":70,"completionMinutes":15,"basePay":3,"maxBonus":6,"perTrialBonus":0.7,"perTrialBonusThreshold":0.08,"exampleCost":0.01},"classroomParams":{"A":{"a":1,"b":9},"B":{"a":9,"b":1}},"conditions":["nonSeqFull","nonSeqPartial","seqNoFeedback","seqFeedback"],"classroomPairings":[["A","B"]],"coinWeights":[0.3,0.7],"subjectId":"A1TARNH07A75CG","assignmentId":"3DUZQ9U6SNAR8123AEBRKRLJF4USVO","hitId":"33KGGVH24U3HWMAA68SNNSZ85PBX13","url":"https://gershmanlab.com/experiments/alicia/teaching/experiment/?hitId=33KGGVH24U3HWMAA68SNNSZ85PBX13&workerId=A1TARNH07A75CG&assignmentId=3DUZQ9U6SNAR8123AEBRKRLJF4USVO&a=6QUD5&tp_a=6QUD5&b=3DUZQ9U6SNAR8123AEBRKRLJF4USVO&tp_b=3DUZQ9U6SNAR8123AEBRKRLJF4USVO&c=368485&tp_c=368485"},{"view_history":[{"page_index":0,"viewing_time":4806},{"page_index":1,"viewing_time":7552},{"page_index":2,"viewing_time":9384},{"page_index":3,"viewing_time":19363},{"page_index":4,"viewing_time":11792},{"page_index":5,"viewing_time":50366},{"page_index":6,"viewing_time":29647},{"page_index":7,"viewing_time":20033},{"page_index":8,"viewing_time":22496}],"rt":175440,"trial_type":"instructions","trial_index":2,"time_elapsed":194750,"internal_node_id":"0.0-2.0-0.0","params":{"nStudents":8,"maxExamples":70,"completionMinutes":15,"basePay":3,"maxBonus":6,"perTrialBonus":0.7,"perTrialBonusThreshold":0.08,"exampleCost":0.01},"classroomParams":{"A":{"a":1,"b":9},"B":{"a":9,"b":1}},"conditions":["nonSeqFull","nonSeqPartial","seqNoFeedback","seqFeedback"],"classroomPairings":[["A","B"]],"coinWeights":[0.3,0.7],"subjectId":"A1TARNH07A75CG","assignmentId":"3DUZQ9U6SNAR8123AEBRKRLJF4USVO","hitId":"33KGGVH24U3HWMAA68SNNSZ85PBX13","url":"https://gershmanlab.com/experiments/alicia/teaching/experiment/?hitId=33KGGVH24U3HWMAA68SNNSZ85PBX13&workerId=A1TARNH07A75CG&assignmentId=3DUZQ9U6SNAR8123AEBRKRLJF4USVO&a=6QUD5&tp_a=6QUD5&b=3DUZQ9U6SNAR8123AEBRKRLJF4USVO&tp_b=3DUZQ9U6SNAR8123AEBRKRLJF4USVO&c=368485&tp_c=368485"},{"rt":37373,"response":{"Q0":"Students will have seen a different number of orange and purple turtles before seeing the example turtles you select for them.","Q1":"By <b>considering the student's past experience</b> so that I can teach efficiently and accurately/helpfully at the same time (because each turtle I send to the student costs money!).","Q2":"No, I will teach a <b>new</b> student each time.","Q3":"Based on the student's second (and final) guess."},"question_order":[1,0,2,3],"trial_type":"survey-multi-choice","trial_index":3,"time_elapsed":232127,"internal_node_id":"0.0-2.0-1.0","params":{"nStudents":8,"maxExamples":70,"completionMinutes":15,"basePay":3,"maxBonus":6,"perTrialBonus":0.7,"perTrialBonusThreshold":0.08,"exampleCost":0.01},"classroomParams":{"A":{"a":1,"b":9},"B":{"a":9,"b":1}},"conditions":["nonSeqFull","nonSeqPartial","seqNoFeedback","seqFeedback"],"classroomPairings":[["A","B"]],"coinWeights":[0.3,0.7],"subjectId":"A1TARNH07A75CG","assignmentId":"3DUZQ9U6SNAR8123AEBRKRLJF4USVO","hitId":"33KGGVH24U3HWMAA68SNNSZ85PBX13","url":"https://gershmanlab.com/experiments/alicia/teaching/experiment/?hitId=33KGGVH24U3HWMAA68SNNSZ85PBX13&workerId=A1TARNH07A75CG&assignmentId=3DUZQ9U6SNAR8123AEBRKRLJF4USVO&a=6QUD5&tp_a=6QUD5&b=3DUZQ9U6SNAR8123AEBRKRLJF4USVO&tp_b=3DUZQ9U6SNAR8123AEBRKRLJF4USVO&c=368485&tp_c=368485","pass":true},{"rt":null,"stimulus":"<div style=\"font-size:30px;\">Congrats on passing the comprehension quiz! The experiment will begin in a few seconds.</div>","response":null,"trial_type":"html-keyboard-response","trial_index":4,"time_elapsed":235142,"internal_node_id":"0.0-3.0","params":{"nStudents":8,"maxExamples":70,"completionMinutes":15,"basePay":3,"maxBonus":6,"perTrialBonus":0.7,"perTrialBonusThreshold":0.08,"exampleCost":0.01},"classroomParams":{"A":{"a":1,"b":9},"B":{"a":9,"b":1}},"conditions":["nonSeqFull","nonSeqPartial","seqNoFeedback","seqFeedback"],"classroomPairings":[["A","B"]],"coinWeights":[0.3,0.7],"subjectId":"A1TARNH07A75CG","assignmentId":"3DUZQ9U6SNAR8123AEBRKRLJF4USVO","hitId":"33KGGVH24U3HWMAA68SNNSZ85PBX13","url":"https://gershmanlab.com/experiments/alicia/teaching/experiment/?hitId=33KGGVH24U3HWMAA68SNNSZ85PBX13&workerId=A1TARNH07A75CG&assignmentId=3DUZQ9U6SNAR8123AEBRKRLJF4USVO&a=6QUD5&tp_a=6QUD5&b=3DUZQ9U6SNAR8123AEBRKRLJF4USVO&tp_b=3DUZQ9U6SNAR8123AEBRKRLJF4USVO&c=368485&tp_c=368485"},{"rt":null,"stimulus":"<div style=\"font-size:50px;\">First student</div>","response":null,"trial_type":"html-keyboard-response","trial_index":5,"time_elapsed":238805,"internal_node_id":"0.0-4.0","params":{"nStudents":8,"maxExamples":70,"completionMinutes":15,"basePay":3,"maxBonus":6,"perTrialBonus":0.7,"perTrialBonusThreshold":0.08,"exampleCost":0.01},"classroomParams":{"A":{"a":1,"b":9},"B":{"a":9,"b":1}},"conditions":["nonSeqFull","nonSeqPartial","seqNoFeedback","seqFeedback"],"classroomPairings":[["A","B"]],"coinWeights":[0.3,0.7],"subjectId":"A1TARNH07A75CG","assignmentId":"3DUZQ9U6SNAR8123AEBRKRLJF4USVO","hitId":"33KGGVH24U3HWMAA68SNNSZ85PBX13","url":"https://gershmanlab.com/experiments/alicia/teaching/experiment/?hitId=33KGGVH24U3HWMAA68SNNSZ85PBX13&workerId=A1TARNH07A75CG&assignmentId=3DUZQ9U6SNAR8123AEBRKRLJF4USVO&a=6QUD5&tp_a=6QUD5&b=3DUZQ9U6SNAR8123AEBRKRLJF4USVO&tp_b=3DUZQ9U6SNAR8123AEBRKRLJF4USVO&c=368485&tp_c=368485"},{"rt":77045,"stimulus":"\n            <h4 style=\"color:Blue;\">Student 1</h4>\n            <h2>On this island, <b style=\"color:Orange;\">7</b> out of every 10 turtles are orange and <b style=\"color:Purple;\">3</b> out of every 10 turtles are purple.</h2>\n            <p>In this block, you will be teaching <b>one</b> lesson to Student 1.</p>\n            <p> </p>\n            <p>You will receive feedback when you are finished with teaching the student.</p>\n            <p></p>","response":0,"trial_type":"html-button-response","trial_index":6,"time_elapsed":315854,"internal_node_id":"0.0-5.0","params":{"nStudents":8,"maxExamples":70,"completionMinutes":15,"basePay":3,"maxBonus":6,"perTrialBonus":0.7,"perTrialBonusThreshold":0.08,"exampleCost":0.01},"classroomParams":{"A":{"a":1,"b":9},"B":{"a":9,"b":1}},"conditions":["nonSeqFull","nonSeqPartial","seqNoFeedback","seqFeedback"],"classroomPairings":[["A","B"]],"coinWeights":[0.3,0.7],"subjectId":"A1TARNH07A75CG","assignmentId":"3DUZQ9U6SNAR8123AEBRKRLJF4USVO","hitId":"33KGGVH24U3HWMAA68SNNSZ85PBX13","url":"https://gershmanlab.com/experiments/alicia/teaching/experiment/?hitId=33KGGVH24U3HWMAA68SNNSZ85PBX13&workerId=A1TARNH07A75CG&assignmentId=3DUZQ9U6SNAR8123AEBRKRLJF4USVO&a=6QUD5&tp_a=6QUD5&b=3DUZQ9U6SNAR8123AEBRKRLJF4USVO&tp_b=3DUZQ9U6SNAR8123AEBRKRLJF4USVO&c=368485&tp_c=368485"},{"rt":41326,"response":{"heads":"3","tails":"1"},"type":"response","condition":"nonSeqFull","trueTheta":0.7,"classrooms":["A","B"],"studentTrueClassroom":"A","exampleSet":"first","trial_type":"survey-html-form","trial_index":7,"time_elapsed":357182,"internal_node_id":"0.0-6.0-0.0","params":{"nStudents":8,"maxExamples":70,"completionMinutes":15,"basePay":3,"maxBonus":6,"perTrialBonus":0.7,"perTrialBonusThreshold":0.08,"exampleCost":0.01},"classroomParams":{"A":{"a":1,"b":9},"B":{"a":9,"b":1}},"conditions":["nonSeqFull","nonSeqPartial","seqNoFeedback","seqFeedback"],"classroomPairings":[["A","B"]],"coinWeights":[0.3,0.7],"subjectId":"A1TARNH07A75CG","assignmentId":"3DUZQ9U6SNAR8123AEBRKRLJF4USVO","hitId":"33KGGVH24U3HWMAA68SNNSZ85PBX13","url":"https://gershmanlab.com/experiments/alicia/teaching/experiment/?hitId=33KGGVH24U3HWMAA68SNNSZ85PBX13&workerId=A1TARNH07A75CG&assignmentId=3DUZQ9U6SNAR8123AEBRKRLJF4USVO&a=6QUD5&tp_a=6QUD5&b=3DUZQ9U6SNAR8123AEBRKRLJF4USVO&tp_b=3DUZQ9U6SNAR8123AEBRKRLJF4USVO&c=368485&tp_c=368485","heads":3,"tails":1,"studentIndex":0,"studentTrueHypers":{"a":1,"b":9},"studentGuess":"0.29","delta":0.41,"totalExamples":4,"bonus":0,"bonusSoFar":0},{"rt":null,"stimulus":"Sending turtles to student... ","response":null,"trial_type":"html-keyboard-response","trial_index":8,"time_elapsed":358694,"internal_node_id":"0.0-7.0","params":{"nStudents":8,"maxExamples":70,"completionMinutes":15,"basePay":3,"maxBonus":6,"perTrialBonus":0.7,"perTrialBonusThreshold":0.08,"exampleCost":0.01},"classroomParams":{"A":{"a":1,"b":9},"B":{"a":9,"b":1}},"conditions":["nonSeqFull","nonSeqPartial","seqNoFeedback","seqFeedback"],"classroomPairings":[["A","B"]],"coinWeights":[0.3,0.7],"subjectId":"A1TARNH07A75CG","assignmentId":"3DUZQ9U6SNAR8123AEBRKRLJF4USVO","hitId":"33KGGVH24U3HWMAA68SNNSZ85PBX13","url":"https://gershmanlab.com/experiments/alicia/teaching/experiment/?hitId=33KGGVH24U3HWMAA68SNNSZ85PBX13&workerId=A1TARNH07A75CG&assignmentId=3DUZQ9U6SNAR8123AEBRKRLJF4USVO&a=6QUD5&tp_a=6QUD5&b=3DUZQ9U6SNAR8123AEBRKRLJF4USVO&tp_b=3DUZQ9U6SNAR8123AEBRKRLJF4USVO&c=368485&tp_c=368485"},{"rt":null,"stimulus":"Turtles sent to student! Waiting for student...","response":null,"trial_type":"html-keyboard-response","trial_index":9,"time_elapsed":362823,"internal_node_id":"0.0-8.0","params":{"nStudents":8,"maxExamples":70,"completionMinutes":15,"basePay":3,"maxBonus":6,"perTrialBonus":0.7,"perTrialBonusThreshold":0.08,"exampleCost":0.01},"classroomParams":{"A":{"a":1,"b":9},"B":{"a":9,"b":1}},"conditions":["nonSeqFull","nonSeqPartial","seqNoFeedback","seqFeedback"],"classroomPairings":[["A","B"]],"coinWeights":[0.3,0.7],"subjectId":"A1TARNH07A75CG","assignmentId":"3DUZQ9U6SNAR8123AEBRKRLJF4USVO","hitId":"33KGGVH24U3HWMAA68SNNSZ85PBX13","url":"https://gershmanlab.com/experiments/alicia/teaching/experiment/?hitId=33KGGVH24U3HWMAA68SNNSZ85PBX13&workerId=A1TARNH07A75CG&assignmentId=3DUZQ9U6SNAR8123AEBRKRLJF4USVO&a=6QUD5&tp_a=6QUD5&b=3DUZQ9U6SNAR8123AEBRKRLJF4USVO&tp_b=3DUZQ9U6SNAR8123AEBRKRLJF4USVO&c=368485&tp_c=368485"},{"rt":null,"stimulus":"<h2>Student guess</h2>\n                <p>The student guessed that <b style=\"color:Orange;\">29</b> out of every 100 turtles are                     orange and <b style=\"color:Purple;\">71</b> out of every 100 turtles are purple.</p>\n                <p>You received a bonus of <b>$0</b>. Total bonus so far: <b>$0.00</b></b></p>\n                <p></p>\n                <p>Press any key to continue.</p>\n                ","response":null,"trial_type":"html-keyboard-response","trial_index":10,"time_elapsed":392826,"internal_node_id":"0.0-9.0","params":{"nStudents":8,"maxExamples":70,"completionMinutes":15,"basePay":3,"maxBonus":6,"perTrialBonus":0.7,"perTrialBonusThreshold":0.08,"exampleCost":0.01},"classroomParams":{"A":{"a":1,"b":9},"B":{"a":9,"b":1}},"conditions":["nonSeqFull","nonSeqPartial","seqNoFeedback","seqFeedback"],"classroomPairings":[["A","B"]],"coinWeights":[0.3,0.7],"subjectId":"A1TARNH07A75CG","assignmentId":"3DUZQ9U6SNAR8123AEBRKRLJF4USVO","hitId":"33KGGVH24U3HWMAA68SNNSZ85PBX13","url":"https://gershmanlab.com/experiments/alicia/teaching/experiment/?hitId=33KGGVH24U3HWMAA68SNNSZ85PBX13&workerId=A1TARNH07A75CG&assignmentId=3DUZQ9U6SNAR8123AEBRKRLJF4USVO&a=6QUD5&tp_a=6QUD5&b=3DUZQ9U6SNAR8123AEBRKRLJF4USVO&tp_b=3DUZQ9U6SNAR8123AEBRKRLJF4USVO&c=368485&tp_c=368485"},{"rt":null,"stimulus":"<div style=\"font-size:60px;\">Next student</div>","response":null,"trial_type":"html-keyboard-response","trial_index":11,"time_elapsed":395333,"internal_node_id":"0.0-10.0-0.0","params":{"nStudents":8,"maxExamples":70,"completionMinutes":15,"basePay":3,"maxBonus":6,"perTrialBonus":0.7,"perTrialBonusThreshold":0.08,"exampleCost":0.01},"classroomParams":{"A":{"a":1,"b":9},"B":{"a":9,"b":1}},"conditions":["nonSeqFull","nonSeqPartial","seqNoFeedback","seqFeedback"],"classroomPairings":[["A","B"]],"coinWeights":[0.3,0.7],"subjectId":"A1TARNH07A75CG","assignmentId":"3DUZQ9U6SNAR8123AEBRKRLJF4USVO","hitId":"33KGGVH24U3HWMAA68SNNSZ85PBX13","url":"https://gershmanlab.com/experiments/alicia/teaching/experiment/?hitId=33KGGVH24U3HWMAA68SNNSZ85PBX13&workerId=A1TARNH07A75CG&assignmentId=3DUZQ9U6SNAR8123AEBRKRLJF4USVO&a=6QUD5&tp_a=6QUD5&b=3DUZQ9U6SNAR8123AEBRKRLJF4USVO&tp_b=3DUZQ9U6SNAR8123AEBRKRLJF4USVO&c=368485&tp_c=368485"},{"rt":3815,"stimulus":"\n            <h4 style=\"color:Blue;\">Student 2</h4>\n            <h2>On this island, <b style=\"color:Orange;\">3</b> out of every 10 turtles are orange and <b style=\"color:Purple;\">7</b> out of every 10 turtles are purple.</h2>\n            <p>In this block, you will be teaching <b>one</b> lesson to Student 2.</p>\n            <p> </p>\n            <p>You will receive feedback when you are finished with teaching the student.</p>\n            <p></p>","response":0,"trial_type":"html-button-response","trial_index":12,"time_elapsed":399149,"internal_node_id":"0.0-11.0","params":{"nStudents":8,"maxExamples":70,"completionMinutes":15,"basePay":3,"maxBonus":6,"perTrialBonus":0.7,"perTrialBonusThreshold":0.08,"exampleCost":0.01},"classroomParams":{"A":{"a":1,"b":9},"B":{"a":9,"b":1}},"conditions":["nonSeqFull","nonSeqPartial","seqNoFeedback","seqFeedback"],"classroomPairings":[["A","B"]],"coinWeights":[0.3,0.7],"subjectId":"A1TARNH07A75CG","assignmentId":"3DUZQ9U6SNAR8123AEBRKRLJF4USVO","hitId":"33KGGVH24U3HWMAA68SNNSZ85PBX13","url":"https://gershmanlab.com/experiments/alicia/teaching/experiment/?hitId=33KGGVH24U3HWMAA68SNNSZ85PBX13&workerId=A1TARNH07A75CG&assignmentId=3DUZQ9U6SNAR8123AEBRKRLJF4USVO&a=6QUD5&tp_a=6QUD5&b=3DUZQ9U6SNAR8123AEBRKRLJF4USVO&tp_b=3DUZQ9U6SNAR8123AEBRKRLJF4USVO&c=368485&tp_c=368485"},{"rt":8919,"response":{"heads":"3","tails":"7"},"type":"response","condition":"nonSeqFull","trueTheta":0.3,"classrooms":["A","B"],"studentTrueClassroom":"B","exampleSet":"first","trial_type":"survey-html-form","trial_index":13,"time_elapsed":408070,"internal_node_id":"0.0-12.0-0.0","params":{"nStudents":8,"maxExamples":70,"completionMinutes":15,"basePay":3,"maxBonus":6,"perTrialBonus":0.7,"perTrialBonusThreshold":0.08,"exampleCost":0.01},"classroomParams":{"A":{"a":1,"b":9},"B":{"a":9,"b":1}},"conditions":["nonSeqFull","nonSeqPartial","seqNoFeedback","seqFeedback"],"classroomPairings":[["A","B"]],"coinWeights":[0.3,0.7],"subjectId":"A1TARNH07A75CG","assignmentId":"3DUZQ9U6SNAR8123AEBRKRLJF4USVO","hitId":"33KGGVH24U3HWMAA68SNNSZ85PBX13","url":"https://gershmanlab.com/experiments/alicia/teaching/experiment/?hitId=33KGGVH24U3HWMAA68SNNSZ85PBX13&workerId=A1TARNH07A75CG&assignmentId=3DUZQ9U6SNAR8123AEBRKRLJF4USVO&a=6QUD5&tp_a=6QUD5&b=3DUZQ9U6SNAR8123AEBRKRLJF4USVO&tp_b=3DUZQ9U6SNAR8123AEBRKRLJF4USVO&c=368485&tp_c=368485","heads":3,"tails":7,"studentIndex":1,"studentTrueHypers":{"a":9,"b":1},"studentGuess":"0.60","delta":0.3,"totalExamples":10,"bonus":0,"bonusSoFar":0},{"rt":null,"stimulus":"Sending turtles to student... ","response":null,"trial_type":"html-keyboard-response","trial_index":14,"time_elapsed":409834,"internal_node_id":"0.0-13.0","params":{"nStudents":8,"maxExamples":70,"completionMinutes":15,"basePay":3,"maxBonus":6,"perTrialBonus":0.7,"perTrialBonusThreshold":0.08,"exampleCost":0.01},"classroomParams":{"A":{"a":1,"b":9},"B":{"a":9,"b":1}},"conditions":["nonSeqFull","nonSeqPartial","seqNoFeedback","seqFeedback"],"classroomPairings":[["A","B"]],"coinWeights":[0.3,0.7],"subjectId":"A1TARNH07A75CG","assignmentId":"3DUZQ9U6SNAR8123AEBRKRLJF4USVO","hitId":"33KGGVH24U3HWMAA68SNNSZ85PBX13","url":"https://gershmanlab.com/experiments/alicia/teaching/experiment/?hitId=33KGGVH24U3HWMAA68SNNSZ85PBX13&workerId=A1TARNH07A75CG&assignmentId=3DUZQ9U6SNAR8123AEBRKRLJF4USVO&a=6QUD5&tp_a=6QUD5&b=3DUZQ9U6SNAR8123AEBRKRLJF4USVO&tp_b=3DUZQ9U6SNAR8123AEBRKRLJF4USVO&c=368485&tp_c=368485"},{"rt":null,"stimulus":"Turtles sent to student! Waiting for student...","response":null,"trial_type":"html-keyboard-response","trial_index":15,"time_elapsed":414346,"internal_node_id":"0.0-14.0","params":{"nStudents":8,"maxExamples":70,"completionMinutes":15,"basePay":3,"maxBonus":6,"perTrialBonus":0.7,"perTrialBonusThreshold":0.08,"exampleCost":0.01},"classroomParams":{"A":{"a":1,"b":9},"B":{"a":9,"b":1}},"conditions":["nonSeqFull","nonSeqPartial","seqNoFeedback","seqFeedback"],"classroomPairings":[["A","B"]],"coinWeights":[0.3,0.7],"subjectId":"A1TARNH07A75CG","assignmentId":"3DUZQ9U6SNAR8123AEBRKRLJF4USVO","hitId":"33KGGVH24U3HWMAA68SNNSZ85PBX13","url":"https://gershmanlab.com/experiments/alicia/teaching/experiment/?hitId=33KGGVH24U3HWMAA68SNNSZ85PBX13&workerId=A1TARNH07A75CG&assignmentId=3DUZQ9U6SNAR8123AEBRKRLJF4USVO&a=6QUD5&tp_a=6QUD5&b=3DUZQ9U6SNAR8123AEBRKRLJF4USVO&tp_b=3DUZQ9U6SNAR8123AEBRKRLJF4USVO&c=368485&tp_c=368485"},{"rt":8184,"stimulus":"<h2>Student guess</h2>\n                <p>The student guessed that <b style=\"color:Orange;\">60</b> out of every 100 turtles are                     orange and <b style=\"color:Purple;\">40</b> out of every 100 turtles are purple.</p>\n                <p>You received a bonus of <b>$0</b>. Total bonus so far: <b>$0.00</b></b></p>\n                <p></p>\n                <p>Press any key to continue.</p>\n                ","response":" ","trial_type":"html-keyboard-response","trial_index":16,"time_elapsed":422532,"internal_node_id":"0.0-15.0","params":{"nStudents":8,"maxExamples":70,"completionMinutes":15,"basePay":3,"maxBonus":6,"perTrialBonus":0.7,"perTrialBonusThreshold":0.08,"exampleCost":0.01},"classroomParams":{"A":{"a":1,"b":9},"B":{"a":9,"b":1}},"conditions":["nonSeqFull","nonSeqPartial","seqNoFeedback","seqFeedback"],"classroomPairings":[["A","B"]],"coinWeights":[0.3,0.7],"subjectId":"A1TARNH07A75CG","assignmentId":"3DUZQ9U6SNAR8123AEBRKRLJF4USVO","hitId":"33KGGVH24U3HWMAA68SNNSZ85PBX13","url":"https://gershmanlab.com/experiments/alicia/teaching/experiment/?hitId=33KGGVH24U3HWMAA68SNNSZ85PBX13&workerId=A1TARNH07A75CG&assignmentId=3DUZQ9U6SNAR8123AEBRKRLJF4USVO&a=6QUD5&tp_a=6QUD5&b=3DUZQ9U6SNAR8123AEBRKRLJF4USVO&tp_b=3DUZQ9U6SNAR8123AEBRKRLJF4USVO&c=368485&tp_c=368485"},{"rt":null,"stimulus":"<div style=\"font-size:60px;\">Next student</div>","response":null,"trial_type":"html-keyboard-response","trial_index":17,"time_elapsed":425040,"internal_node_id":"0.0-16.0-0.0","params":{"nStudents":8,"maxExamples":70,"completionMinutes":15,"basePay":3,"maxBonus":6,"perTrialBonus":0.7,"perTrialBonusThreshold":0.08,"exampleCost":0.01},"classroomParams":{"A":{"a":1,"b":9},"B":{"a":9,"b":1}},"conditions":["nonSeqFull","nonSeqPartial","seqNoFeedback","seqFeedback"],"classroomPairings":[["A","B"]],"coinWeights":[0.3,0.7],"subjectId":"A1TARNH07A75CG","assignmentId":"3DUZQ9U6SNAR8123AEBRKRLJF4USVO","hitId":"33KGGVH24U3HWMAA68SNNSZ85PBX13","url":"https://gershmanlab.com/experiments/alicia/teaching/experiment/?hitId=33KGGVH24U3HWMAA68SNNSZ85PBX13&workerId=A1TARNH07A75CG&assignmentId=3DUZQ9U6SNAR8123AEBRKRLJF4USVO&a=6QUD5&tp_a=6QUD5&b=3DUZQ9U6SNAR8123AEBRKRLJF4USVO&tp_b=3DUZQ9U6SNAR8123AEBRKRLJF4USVO&c=368485&tp_c=368485"},{"rt":19068,"stimulus":"\n            <h4 style=\"color:Blue;\">Student 3</h4>\n            <h2>On this island, <b style=\"color:Orange;\">7</b> out of every 10 turtles are orange and <b style=\"color:Purple;\">3</b> out of every 10 turtles are purple.</h2>\n            <p>In this block, you will be teaching <b>two</b> lessons to Student 3.</p>\n            <p> You will <b>not</b> see the student's guess after the first lesson.</p>\n            <p>You will receive feedback when you are finished with teaching the student.</p>\n            <p></p>","response":0,"trial_type":"html-button-response","trial_index":18,"time_elapsed":444109,"internal_node_id":"0.0-17.0","params":{"nStudents":8,"maxExamples":70,"completionMinutes":15,"basePay":3,"maxBonus":6,"perTrialBonus":0.7,"perTrialBonusThreshold":0.08,"exampleCost":0.01},"classroomParams":{"A":{"a":1,"b":9},"B":{"a":9,"b":1}},"conditions":["nonSeqFull","nonSeqPartial","seqNoFeedback","seqFeedback"],"classroomPairings":[["A","B"]],"coinWeights":[0.3,0.7],"subjectId":"A1TARNH07A75CG","assignmentId":"3DUZQ9U6SNAR8123AEBRKRLJF4USVO","hitId":"33KGGVH24U3HWMAA68SNNSZ85PBX13","url":"https://gershmanlab.com/experiments/alicia/teaching/experiment/?hitId=33KGGVH24U3HWMAA68SNNSZ85PBX13&workerId=A1TARNH07A75CG&assignmentId=3DUZQ9U6SNAR8123AEBRKRLJF4USVO&a=6QUD5&tp_a=6QUD5&b=3DUZQ9U6SNAR8123AEBRKRLJF4USVO&tp_b=3DUZQ9U6SNAR8123AEBRKRLJF4USVO&c=368485&tp_c=368485"},{"rt":19412,"response":{"heads":"70","tails":"30"},"type":"response","condition":"seqNoFeedback","trueTheta":0.7,"classrooms":["A","B"],"studentTrueClassroom":"B","exampleSet":"first","trial_type":"survey-html-form","trial_index":19,"time_elapsed":463524,"internal_node_id":"0.0-18.0-0.0","params":{"nStudents":8,"maxExamples":70,"completionMinutes":15,"basePay":3,"maxBonus":6,"perTrialBonus":0.7,"perTrialBonusThreshold":0.08,"exampleCost":0.01},"classroomParams":{"A":{"a":1,"b":9},"B":{"a":9,"b":1}},"conditions":["nonSeqFull","nonSeqPartial","seqNoFeedback","seqFeedback"],"classroomPairings":[["A","B"]],"coinWeights":[0.3,0.7],"subjectId":"A1TARNH07A75CG","assignmentId":"3DUZQ9U6SNAR8123AEBRKRLJF4USVO","hitId":"33KGGVH24U3HWMAA68SNNSZ85PBX13","url":"https://gershmanlab.com/experiments/alicia/teaching/experiment/?hitId=33KGGVH24U3HWMAA68SNNSZ85PBX13&workerId=A1TARNH07A75CG&assignmentId=3DUZQ9U6SNAR8123AEBRKRLJF4USVO&a=6QUD5&tp_a=6QUD5&b=3DUZQ9U6SNAR8123AEBRKRLJF4USVO&tp_b=3DUZQ9U6SNAR8123AEBRKRLJF4USVO&c=368485&tp_c=368485","heads":70,"tails":30,"studentIndex":2,"studentTrueHypers":{"a":9,"b":1},"studentGuess":"0.72","delta":0.020000000000000018,"totalExamples":100,"bonusSoFar":0},{"rt":34598,"response":{"heads":"70","tails":"30"},"type":"response","condition":"seqNoFeedback","trueTheta":0.7,"classrooms":["A","B"],"studentTrueClassroom":"B","exampleSet":"first","trial_type":"survey-html-form","trial_index":20,"time_elapsed":498126,"internal_node_id":"0.0-18.1-0.1","params":{"nStudents":8,"maxExamples":70,"completionMinutes":15,"basePay":3,"maxBonus":6,"perTrialBonus":0.7,"perTrialBonusThreshold":0.08,"exampleCost":0.01},"classroomParams":{"A":{"a":1,"b":9},"B":{"a":9,"b":1}},"conditions":["nonSeqFull","nonSeqPartial","seqNoFeedback","seqFeedback"],"classroomPairings":[["A","B"]],"coinWeights":[0.3,0.7],"subjectId":"A1TARNH07A75CG","assignmentId":"3DUZQ9U6SNAR8123AEBRKRLJF4USVO","hitId":"33KGGVH24U3HWMAA68SNNSZ85PBX13","url":"https://gershmanlab.com/experiments/alicia/teaching/experiment/?hitId=33KGGVH24U3HWMAA68SNNSZ85PBX13&workerId=A1TARNH07A75CG&assignmentId=3DUZQ9U6SNAR8123AEBRKRLJF4USVO&a=6QUD5&tp_a=6QUD5&b=3DUZQ9U6SNAR8123AEBRKRLJF4USVO&tp_b=3DUZQ9U6SNAR8123AEBRKRLJF4USVO&c=368485&tp_c=368485","heads":70,"tails":30,"studentIndex":2,"studentTrueHypers":{"a":9,"b":1},"studentGuess":"0.72","delta":0.020000000000000018,"totalExamples":100,"bonusSoFar":0},{"rt":13898,"response":{"heads":"20","tails":"8"},"type":"response","condition":"seqNoFeedback","trueTheta":0.7,"classrooms":["A","B"],"studentTrueClassroom":"B","exampleSet":"first","trial_type":"survey-html-form","trial_index":21,"time_elapsed":512030,"internal_node_id":"0.0-18.2-0.2","params":{"nStudents":8,"maxExamples":70,"completionMinutes":15,"basePay":3,"maxBonus":6,"perTrialBonus":0.7,"perTrialBonusThreshold":0.08,"exampleCost":0.01},"classroomParams":{"A":{"a":1,"b":9},"B":{"a":9,"b":1}},"conditions":["nonSeqFull","nonSeqPartial","seqNoFeedback","seqFeedback"],"classroomPairings":[["A","B"]],"coinWeights":[0.3,0.7],"subjectId":"A1TARNH07A75CG","assignmentId":"3DUZQ9U6SNAR8123AEBRKRLJF4USVO","hitId":"33KGGVH24U3HWMAA68SNNSZ85PBX13","url":"https://gershmanlab.com/experiments/alicia/teaching/experiment/?hitId=33KGGVH24U3HWMAA68SNNSZ85PBX13&workerId=A1TARNH07A75CG&assignmentId=3DUZQ9U6SNAR8123AEBRKRLJF4USVO&a=6QUD5&tp_a=6QUD5&b=3DUZQ9U6SNAR8123AEBRKRLJF4USVO&tp_b=3DUZQ9U6SNAR8123AEBRKRLJF4USVO&c=368485&tp_c=368485","heads":20,"tails":8,"studentIndex":2,"studentTrueHypers":{"a":9,"b":1},"studentGuess":"0.76","delta":0.06000000000000005,"totalExamples":28,"bonusSoFar":0},{"rt":null,"stimulus":"Sending turtles to student... ","response":null,"trial_type":"html-keyboard-response","trial_index":22,"time_elapsed":513791,"internal_node_id":"0.0-19.0","params":{"nStudents":8,"maxExamples":70,"completionMinutes":15,"basePay":3,"maxBonus":6,"perTrialBonus":0.7,"perTrialBonusThreshold":0.08,"exampleCost":0.01},"classroomParams":{"A":{"a":1,"b":9},"B":{"a":9,"b":1}},"conditions":["nonSeqFull","nonSeqPartial","seqNoFeedback","seqFeedback"],"classroomPairings":[["A","B"]],"coinWeights":[0.3,0.7],"subjectId":"A1TARNH07A75CG","assignmentId":"3DUZQ9U6SNAR8123AEBRKRLJF4USVO","hitId":"33KGGVH24U3HWMAA68SNNSZ85PBX13","url":"https://gershmanlab.com/experiments/alicia/teaching/experiment/?hitId=33KGGVH24U3HWMAA68SNNSZ85PBX13&workerId=A1TARNH07A75CG&assignmentId=3DUZQ9U6SNAR8123AEBRKRLJF4USVO&a=6QUD5&tp_a=6QUD5&b=3DUZQ9U6SNAR8123AEBRKRLJF4USVO&tp_b=3DUZQ9U6SNAR8123AEBRKRLJF4USVO&c=368485&tp_c=368485"},{"rt":null,"stimulus":"Turtles sent to student! Waiting for student...","response":null,"trial_type":"html-keyboard-response","trial_index":23,"time_elapsed":518292,"internal_node_id":"0.0-20.0","params":{"nStudents":8,"maxExamples":70,"completionMinutes":15,"basePay":3,"maxBonus":6,"perTrialBonus":0.7,"perTrialBonusThreshold":0.08,"exampleCost":0.01},"classroomParams":{"A":{"a":1,"b":9},"B":{"a":9,"b":1}},"conditions":["nonSeqFull","nonSeqPartial","seqNoFeedback","seqFeedback"],"classroomPairings":[["A","B"]],"coinWeights":[0.3,0.7],"subjectId":"A1TARNH07A75CG","assignmentId":"3DUZQ9U6SNAR8123AEBRKRLJF4USVO","hitId":"33KGGVH24U3HWMAA68SNNSZ85PBX13","url":"https://gershmanlab.com/experiments/alicia/teaching/experiment/?hitId=33KGGVH24U3HWMAA68SNNSZ85PBX13&workerId=A1TARNH07A75CG&assignmentId=3DUZQ9U6SNAR8123AEBRKRLJF4USVO&a=6QUD5&tp_a=6QUD5&b=3DUZQ9U6SNAR8123AEBRKRLJF4USVO&tp_b=3DUZQ9U6SNAR8123AEBRKRLJF4USVO&c=368485&tp_c=368485"},{"rt":20247,"response":{"heads":"20","tails":"8"},"type":"response","condition":"seqNoFeedback","trueTheta":0.7,"classrooms":["A","B"],"studentTrueClassroom":"B","exampleSet":"second","trial_type":"survey-html-form","trial_index":24,"time_elapsed":538542,"internal_node_id":"0.0-21.0-0.0","params":{"nStudents":8,"maxExamples":70,"completionMinutes":15,"basePay":3,"maxBonus":6,"perTrialBonus":0.7,"perTrialBonusThreshold":0.08,"exampleCost":0.01},"classroomParams":{"A":{"a":1,"b":9},"B":{"a":9,"b":1}},"conditions":["nonSeqFull","nonSeqPartial","seqNoFeedback","seqFeedback"],"classroomPairings":[["A","B"]],"coinWeights":[0.3,0.7],"subjectId":"A1TARNH07A75CG","assignmentId":"3DUZQ9U6SNAR8123AEBRKRLJF4USVO","hitId":"33KGGVH24U3HWMAA68SNNSZ85PBX13","url":"https://gershmanlab.com/experiments/alicia/teaching/experiment/?hitId=33KGGVH24U3HWMAA68SNNSZ85PBX13&workerId=A1TARNH07A75CG&assignmentId=3DUZQ9U6SNAR8123AEBRKRLJF4USVO&a=6QUD5&tp_a=6QUD5&b=3DUZQ9U6SNAR8123AEBRKRLJF4USVO&tp_b=3DUZQ9U6SNAR8123AEBRKRLJF4USVO&c=368485&tp_c=368485","firstResponseHeads":70,"firstResponseTails":30,"secondResponseHeads":20,"secondResponseTails":8,"totalHeads":90,"totalTails":38,"studentIndex":2,"studentTrueHypers":{"a":9,"b":1},"studentGuess":"0.72","delta":0.020000000000000018,"bonus":0,"bonusSoFar":0,"totalExamples":128},{"rt":null,"stimulus":"Sending turtles to student... ","response":null,"trial_type":"html-keyboard-response","trial_index":25,"time_elapsed":540045,"internal_node_id":"0.0-22.0","params":{"nStudents":8,"maxExamples":70,"completionMinutes":15,"basePay":3,"maxBonus":6,"perTrialBonus":0.7,"perTrialBonusThreshold":0.08,"exampleCost":0.01},"classroomParams":{"A":{"a":1,"b":9},"B":{"a":9,"b":1}},"conditions":["nonSeqFull","nonSeqPartial","seqNoFeedback","seqFeedback"],"classroomPairings":[["A","B"]],"coinWeights":[0.3,0.7],"subjectId":"A1TARNH07A75CG","assignmentId":"3DUZQ9U6SNAR8123AEBRKRLJF4USVO","hitId":"33KGGVH24U3HWMAA68SNNSZ85PBX13","url":"https://gershmanlab.com/experiments/alicia/teaching/experiment/?hitId=33KGGVH24U3HWMAA68SNNSZ85PBX13&workerId=A1TARNH07A75CG&assignmentId=3DUZQ9U6SNAR8123AEBRKRLJF4USVO&a=6QUD5&tp_a=6QUD5&b=3DUZQ9U6SNAR8123AEBRKRLJF4USVO&tp_b=3DUZQ9U6SNAR8123AEBRKRLJF4USVO&c=368485&tp_c=368485"},{"rt":null,"stimulus":"Turtles sent to student! Waiting for student...","response":null,"trial_type":"html-keyboard-response","trial_index":26,"time_elapsed":545053,"internal_node_id":"0.0-23.0","params":{"nStudents":8,"maxExamples":70,"completionMinutes":15,"basePay":3,"maxBonus":6,"perTrialBonus":0.7,"perTrialBonusThreshold":0.08,"exampleCost":0.01},"classroomParams":{"A":{"a":1,"b":9},"B":{"a":9,"b":1}},"conditions":["nonSeqFull","nonSeqPartial","seqNoFeedback","seqFeedback"],"classroomPairings":[["A","B"]],"coinWeights":[0.3,0.7],"subjectId":"A1TARNH07A75CG","assignmentId":"3DUZQ9U6SNAR8123AEBRKRLJF4USVO","hitId":"33KGGVH24U3HWMAA68SNNSZ85PBX13","url":"https://gershmanlab.com/experiments/alicia/teaching/experiment/?hitId=33KGGVH24U3HWMAA68SNNSZ85PBX13&workerId=A1TARNH07A75CG&assignmentId=3DUZQ9U6SNAR8123AEBRKRLJF4USVO&a=6QUD5&tp_a=6QUD5&b=3DUZQ9U6SNAR8123AEBRKRLJF4USVO&tp_b=3DUZQ9U6SNAR8123AEBRKRLJF4USVO&c=368485&tp_c=368485"},{"rt":8750,"stimulus":"\n                <h3>Student 3's first guess</h3>\n                <p>The student's first guess was that <b style=\"color:Orange;\">72</b> out of every 100 turtles are                     orange and <b style=\"color:Purple;\">28</b> out of every 100 turtles are purple.</p>\n                <h3>Student 3's second guess</h3>\n                <p>The student's second guess was that <b style=\"color:Orange;\">72</b> out of every 100 turtles are                     orange and <b style=\"color:Purple;\">28</b> out of every 100 turtles are purple.</p>\n                <p>You received a bonus of <b>$0.00</b> based on the student's second guess.</p>\n                <p>Total bonus so far: <b>$0.00</b></p>\n                <p>Press any key to continue.</p>\n                ","response":" ","trial_type":"html-keyboard-response","trial_index":27,"time_elapsed":553804,"internal_node_id":"0.0-24.0","params":{"nStudents":8,"maxExamples":70,"completionMinutes":15,"basePay":3,"maxBonus":6,"perTrialBonus":0.7,"perTrialBonusThreshold":0.08,"exampleCost":0.01},"classroomParams":{"A":{"a":1,"b":9},"B":{"a":9,"b":1}},"conditions":["nonSeqFull","nonSeqPartial","seqNoFeedback","seqFeedback"],"classroomPairings":[["A","B"]],"coinWeights":[0.3,0.7],"subjectId":"A1TARNH07A75CG","assignmentId":"3DUZQ9U6SNAR8123AEBRKRLJF4USVO","hitId":"33KGGVH24U3HWMAA68SNNSZ85PBX13","url":"https://gershmanlab.com/experiments/alicia/teaching/experiment/?hitId=33KGGVH24U3HWMAA68SNNSZ85PBX13&workerId=A1TARNH07A75CG&assignmentId=3DUZQ9U6SNAR8123AEBRKRLJF4USVO&a=6QUD5&tp_a=6QUD5&b=3DUZQ9U6SNAR8123AEBRKRLJF4USVO&tp_b=3DUZQ9U6SNAR8123AEBRKRLJF4USVO&c=368485&tp_c=368485"},{"rt":null,"stimulus":"<div style=\"font-size:60px;\">Next student</div>","response":null,"trial_type":"html-keyboard-response","trial_index":28,"time_elapsed":556806,"internal_node_id":"0.0-25.0-0.0","params":{"nStudents":8,"maxExamples":70,"completionMinutes":15,"basePay":3,"maxBonus":6,"perTrialBonus":0.7,"perTrialBonusThreshold":0.08,"exampleCost":0.01},"classroomParams":{"A":{"a":1,"b":9},"B":{"a":9,"b":1}},"conditions":["nonSeqFull","nonSeqPartial","seqNoFeedback","seqFeedback"],"classroomPairings":[["A","B"]],"coinWeights":[0.3,0.7],"subjectId":"A1TARNH07A75CG","assignmentId":"3DUZQ9U6SNAR8123AEBRKRLJF4USVO","hitId":"33KGGVH24U3HWMAA68SNNSZ85PBX13","url":"https://gershmanlab.com/experiments/alicia/teaching/experiment/?hitId=33KGGVH24U3HWMAA68SNNSZ85PBX13&workerId=A1TARNH07A75CG&assignmentId=3DUZQ9U6SNAR8123AEBRKRLJF4USVO&a=6QUD5&tp_a=6QUD5&b=3DUZQ9U6SNAR8123AEBRKRLJF4USVO&tp_b=3DUZQ9U6SNAR8123AEBRKRLJF4USVO&c=368485&tp_c=368485"},{"rt":2534,"stimulus":"\n            <h4 style=\"color:Blue;\">Student 4</h4>\n            <h2>On this island, <b style=\"color:Orange;\">3</b> out of every 10 turtles are orange and <b style=\"color:Purple;\">7</b> out of every 10 turtles are purple.</h2>\n            <p>In this block, you will be teaching <b>two</b> lessons to Student 4.</p>\n            <p><b>You will see the student's guess after the first lesson.</b> </p>\n            <p>You will receive feedback when you are finished with teaching the student.</p>\n            <p>To earn the highest bonus, you will have to <b>take into consideration the student's guess</b> when you choose your second set of turtles.</p>","response":0,"trial_type":"html-button-response","trial_index":29,"time_elapsed":559341,"internal_node_id":"0.0-26.0","params":{"nStudents":8,"maxExamples":70,"completionMinutes":15,"basePay":3,"maxBonus":6,"perTrialBonus":0.7,"perTrialBonusThreshold":0.08,"exampleCost":0.01},"classroomParams":{"A":{"a":1,"b":9},"B":{"a":9,"b":1}},"conditions":["nonSeqFull","nonSeqPartial","seqNoFeedback","seqFeedback"],"classroomPairings":[["A","B"]],"coinWeights":[0.3,0.7],"subjectId":"A1TARNH07A75CG","assignmentId":"3DUZQ9U6SNAR8123AEBRKRLJF4USVO","hitId":"33KGGVH24U3HWMAA68SNNSZ85PBX13","url":"https://gershmanlab.com/experiments/alicia/teaching/experiment/?hitId=33KGGVH24U3HWMAA68SNNSZ85PBX13&workerId=A1TARNH07A75CG&assignmentId=3DUZQ9U6SNAR8123AEBRKRLJF4USVO&a=6QUD5&tp_a=6QUD5&b=3DUZQ9U6SNAR8123AEBRKRLJF4USVO&tp_b=3DUZQ9U6SNAR8123AEBRKRLJF4USVO&c=368485&tp_c=368485"},{"rt":9175,"response":{"heads":"40","tails":"60"},"type":"response","condition":"seqFeedback","trueTheta":0.3,"classrooms":["A","B"],"studentTrueClassroom":"A","exampleSet":"first","trial_type":"survey-html-form","trial_index":30,"time_elapsed":568519,"internal_node_id":"0.0-27.0-0.0","params":{"nStudents":8,"maxExamples":70,"completionMinutes":15,"basePay":3,"maxBonus":6,"perTrialBonus":0.7,"perTrialBonusThreshold":0.08,"exampleCost":0.01},"classroomParams":{"A":{"a":1,"b":9},"B":{"a":9,"b":1}},"conditions":["nonSeqFull","nonSeqPartial","seqNoFeedback","seqFeedback"],"classroomPairings":[["A","B"]],"coinWeights":[0.3,0.7],"subjectId":"A1TARNH07A75CG","assignmentId":"3DUZQ9U6SNAR8123AEBRKRLJF4USVO","hitId":"33KGGVH24U3HWMAA68SNNSZ85PBX13","url":"https://gershmanlab.com/experiments/alicia/teaching/experiment/?hitId=33KGGVH24U3HWMAA68SNNSZ85PBX13&workerId=A1TARNH07A75CG&assignmentId=3DUZQ9U6SNAR8123AEBRKRLJF4USVO&a=6QUD5&tp_a=6QUD5&b=3DUZQ9U6SNAR8123AEBRKRLJF4USVO&tp_b=3DUZQ9U6SNAR8123AEBRKRLJF4USVO&c=368485&tp_c=368485","heads":40,"tails":60,"studentIndex":3,"studentTrueHypers":{"a":1,"b":9},"studentGuess":"0.37","delta":0.07,"totalExamples":100,"bonusSoFar":0},{"rt":7077,"response":{"heads":"40","tails":"60"},"type":"response","condition":"seqFeedback","trueTheta":0.3,"classrooms":["A","B"],"studentTrueClassroom":"A","exampleSet":"first","trial_type":"survey-html-form","trial_index":31,"time_elapsed":575600,"internal_node_id":"0.0-27.1-0.1","params":{"nStudents":8,"maxExamples":70,"completionMinutes":15,"basePay":3,"maxBonus":6,"perTrialBonus":0.7,"perTrialBonusThreshold":0.08,"exampleCost":0.01},"classroomParams":{"A":{"a":1,"b":9},"B":{"a":9,"b":1}},"conditions":["nonSeqFull","nonSeqPartial","seqNoFeedback","seqFeedback"],"classroomPairings":[["A","B"]],"coinWeights":[0.3,0.7],"subjectId":"A1TARNH07A75CG","assignmentId":"3DUZQ9U6SNAR8123AEBRKRLJF4USVO","hitId":"33KGGVH24U3HWMAA68SNNSZ85PBX13","url":"https://gershmanlab.com/experiments/alicia/teaching/experiment/?hitId=33KGGVH24U3HWMAA68SNNSZ85PBX13&workerId=A1TARNH07A75CG&assignmentId=3DUZQ9U6SNAR8123AEBRKRLJF4USVO&a=6QUD5&tp_a=6QUD5&b=3DUZQ9U6SNAR8123AEBRKRLJF4USVO&tp_b=3DUZQ9U6SNAR8123AEBRKRLJF4USVO&c=368485&tp_c=368485","heads":40,"tails":60,"studentIndex":3,"studentTrueHypers":{"a":1,"b":9},"studentGuess":"0.37","delta":0.07,"totalExamples":100,"bonusSoFar":0},{"rt":7461,"response":{"heads":"12","tails":"30"},"type":"response","condition":"seqFeedback","trueTheta":0.3,"classrooms":["A","B"],"studentTrueClassroom":"A","exampleSet":"first","trial_type":"survey-html-form","trial_index":32,"time_elapsed":583063,"internal_node_id":"0.0-27.2-0.2","params":{"nStudents":8,"maxExamples":70,"completionMinutes":15,"basePay":3,"maxBonus":6,"perTrialBonus":0.7,"perTrialBonusThreshold":0.08,"exampleCost":0.01},"classroomParams":{"A":{"a":1,"b":9},"B":{"a":9,"b":1}},"conditions":["nonSeqFull","nonSeqPartial","seqNoFeedback","seqFeedback"],"classroomPairings":[["A","B"]],"coinWeights":[0.3,0.7],"subjectId":"A1TARNH07A75CG","assignmentId":"3DUZQ9U6SNAR8123AEBRKRLJF4USVO","hitId":"33KGGVH24U3HWMAA68SNNSZ85PBX13","url":"https://gershmanlab.com/experiments/alicia/teaching/experiment/?hitId=33KGGVH24U3HWMAA68SNNSZ85PBX13&workerId=A1TARNH07A75CG&assignmentId=3DUZQ9U6SNAR8123AEBRKRLJF4USVO&a=6QUD5&tp_a=6QUD5&b=3DUZQ9U6SNAR8123AEBRKRLJF4USVO&tp_b=3DUZQ9U6SNAR8123AEBRKRLJF4USVO&c=368485&tp_c=368485","heads":12,"tails":30,"studentIndex":3,"studentTrueHypers":{"a":1,"b":9},"studentGuess":"0.25","delta":0.04999999999999999,"totalExamples":42,"bonusSoFar":0},{"rt":null,"stimulus":"Sending turtles to student... ","response":null,"trial_type":"html-keyboard-response","trial_index":33,"time_elapsed":585072,"internal_node_id":"0.0-28.0","params":{"nStudents":8,"maxExamples":70,"completionMinutes":15,"basePay":3,"maxBonus":6,"perTrialBonus":0.7,"perTrialBonusThreshold":0.08,"exampleCost":0.01},"classroomParams":{"A":{"a":1,"b":9},"B":{"a":9,"b":1}},"conditions":["nonSeqFull","nonSeqPartial","seqNoFeedback","seqFeedback"],"classroomPairings":[["A","B"]],"coinWeights":[0.3,0.7],"subjectId":"A1TARNH07A75CG","assignmentId":"3DUZQ9U6SNAR8123AEBRKRLJF4USVO","hitId":"33KGGVH24U3HWMAA68SNNSZ85PBX13","url":"https://gershmanlab.com/experiments/alicia/teaching/experiment/?hitId=33KGGVH24U3HWMAA68SNNSZ85PBX13&workerId=A1TARNH07A75CG&assignmentId=3DUZQ9U6SNAR8123AEBRKRLJF4USVO&a=6QUD5&tp_a=6QUD5&b=3DUZQ9U6SNAR8123AEBRKRLJF4USVO&tp_b=3DUZQ9U6SNAR8123AEBRKRLJF4USVO&c=368485&tp_c=368485"},{"rt":null,"stimulus":"Turtles sent to student! Waiting for student...","response":null,"trial_type":"html-keyboard-response","trial_index":34,"time_elapsed":589086,"internal_node_id":"0.0-29.0","params":{"nStudents":8,"maxExamples":70,"completionMinutes":15,"basePay":3,"maxBonus":6,"perTrialBonus":0.7,"perTrialBonusThreshold":0.08,"exampleCost":0.01},"classroomParams":{"A":{"a":1,"b":9},"B":{"a":9,"b":1}},"conditions":["nonSeqFull","nonSeqPartial","seqNoFeedback","seqFeedback"],"classroomPairings":[["A","B"]],"coinWeights":[0.3,0.7],"subjectId":"A1TARNH07A75CG","assignmentId":"3DUZQ9U6SNAR8123AEBRKRLJF4USVO","hitId":"33KGGVH24U3HWMAA68SNNSZ85PBX13","url":"https://gershmanlab.com/experiments/alicia/teaching/experiment/?hitId=33KGGVH24U3HWMAA68SNNSZ85PBX13&workerId=A1TARNH07A75CG&assignmentId=3DUZQ9U6SNAR8123AEBRKRLJF4USVO&a=6QUD5&tp_a=6QUD5&b=3DUZQ9U6SNAR8123AEBRKRLJF4USVO&tp_b=3DUZQ9U6SNAR8123AEBRKRLJF4USVO&c=368485&tp_c=368485"},{"rt":5703,"stimulus":"<h2>Student guess</h2>\n                <p>The student guessed that <b style=\"color:Orange;\">37</b> out of every 100 turtles are                     orange and <b style=\"color:Purple;\">63</b> out of every 100 turtles are purple.</p>\n                <p></b></p>\n                <p>You will now send another set of turtles to your student.</p>\n                <p>Press any key to continue.</p>\n                ","response":" ","trial_type":"html-keyboard-response","trial_index":35,"time_elapsed":594789,"internal_node_id":"0.0-30.0","params":{"nStudents":8,"maxExamples":70,"completionMinutes":15,"basePay":3,"maxBonus":6,"perTrialBonus":0.7,"perTrialBonusThreshold":0.08,"exampleCost":0.01},"classroomParams":{"A":{"a":1,"b":9},"B":{"a":9,"b":1}},"conditions":["nonSeqFull","nonSeqPartial","seqNoFeedback","seqFeedback"],"classroomPairings":[["A","B"]],"coinWeights":[0.3,0.7],"subjectId":"A1TARNH07A75CG","assignmentId":"3DUZQ9U6SNAR8123AEBRKRLJF4USVO","hitId":"33KGGVH24U3HWMAA68SNNSZ85PBX13","url":"https://gershmanlab.com/experiments/alicia/teaching/experiment/?hitId=33KGGVH24U3HWMAA68SNNSZ85PBX13&workerId=A1TARNH07A75CG&assignmentId=3DUZQ9U6SNAR8123AEBRKRLJF4USVO&a=6QUD5&tp_a=6QUD5&b=3DUZQ9U6SNAR8123AEBRKRLJF4USVO&tp_b=3DUZQ9U6SNAR8123AEBRKRLJF4USVO&c=368485&tp_c=368485"},{"rt":10268,"response":{"heads":"30","tails":"50"},"type":"response","condition":"seqFeedback","trueTheta":0.3,"classrooms":["A","B"],"studentTrueClassroom":"A","exampleSet":"second","trial_type":"survey-html-form","trial_index":36,"time_elapsed":605059,"internal_node_id":"0.0-31.0-0.0","params":{"nStudents":8,"maxExamples":70,"completionMinutes":15,"basePay":3,"maxBonus":6,"perTrialBonus":0.7,"perTrialBonusThreshold":0.08,"exampleCost":0.01},"classroomParams":{"A":{"a":1,"b":9},"B":{"a":9,"b":1}},"conditions":["nonSeqFull","nonSeqPartial","seqNoFeedback","seqFeedback"],"classroomPairings":[["A","B"]],"coinWeights":[0.3,0.7],"subjectId":"A1TARNH07A75CG","assignmentId":"3DUZQ9U6SNAR8123AEBRKRLJF4USVO","hitId":"33KGGVH24U3HWMAA68SNNSZ85PBX13","url":"https://gershmanlab.com/experiments/alicia/teaching/experiment/?hitId=33KGGVH24U3HWMAA68SNNSZ85PBX13&workerId=A1TARNH07A75CG&assignmentId=3DUZQ9U6SNAR8123AEBRKRLJF4USVO&a=6QUD5&tp_a=6QUD5&b=3DUZQ9U6SNAR8123AEBRKRLJF4USVO&tp_b=3DUZQ9U6SNAR8123AEBRKRLJF4USVO&c=368485&tp_c=368485","firstResponseHeads":40,"firstResponseTails":60,"secondResponseHeads":30,"secondResponseTails":50,"totalHeads":70,"totalTails":110,"studentIndex":3,"studentTrueHypers":{"a":1,"b":9},"studentGuess":"0.37","delta":0.07,"bonus":0,"bonusSoFar":0,"totalExamples":180},{"rt":5294,"response":{"heads":"15","tails":"40"},"type":"response","condition":"seqFeedback","trueTheta":0.3,"classrooms":["A","B"],"studentTrueClassroom":"A","exampleSet":"second","trial_type":"survey-html-form","trial_index":37,"time_elapsed":610355,"internal_node_id":"0.0-31.1-0.1","params":{"nStudents":8,"maxExamples":70,"completionMinutes":15,"basePay":3,"maxBonus":6,"perTrialBonus":0.7,"perTrialBonusThreshold":0.08,"exampleCost":0.01},"classroomParams":{"A":{"a":1,"b":9},"B":{"a":9,"b":1}},"conditions":["nonSeqFull","nonSeqPartial","seqNoFeedback","seqFeedback"],"classroomPairings":[["A","B"]],"coinWeights":[0.3,0.7],"subjectId":"A1TARNH07A75CG","assignmentId":"3DUZQ9U6SNAR8123AEBRKRLJF4USVO","hitId":"33KGGVH24U3HWMAA68SNNSZ85PBX13","url":"https://gershmanlab.com/experiments/alicia/teaching/experiment/?hitId=33KGGVH24U3HWMAA68SNNSZ85PBX13&workerId=A1TARNH07A75CG&assignmentId=3DUZQ9U6SNAR8123AEBRKRLJF4USVO&a=6QUD5&tp_a=6QUD5&b=3DUZQ9U6SNAR8123AEBRKRLJF4USVO&tp_b=3DUZQ9U6SNAR8123AEBRKRLJF4USVO&c=368485&tp_c=368485","firstResponseHeads":40,"firstResponseTails":60,"secondResponseHeads":15,"secondResponseTails":40,"totalHeads":55,"totalTails":100,"studentIndex":3,"studentTrueHypers":{"a":1,"b":9},"studentGuess":"0.34","delta":0.040000000000000036,"bonus":0,"bonusSoFar":0,"totalExamples":155},{"rt":null,"stimulus":"Sending turtles to student... ","response":null,"trial_type":"html-keyboard-response","trial_index":38,"time_elapsed":611609,"internal_node_id":"0.0-32.0","params":{"nStudents":8,"maxExamples":70,"completionMinutes":15,"basePay":3,"maxBonus":6,"perTrialBonus":0.7,"perTrialBonusThreshold":0.08,"exampleCost":0.01},"classroomParams":{"A":{"a":1,"b":9},"B":{"a":9,"b":1}},"conditions":["nonSeqFull","nonSeqPartial","seqNoFeedback","seqFeedback"],"classroomPairings":[["A","B"]],"coinWeights":[0.3,0.7],"subjectId":"A1TARNH07A75CG","assignmentId":"3DUZQ9U6SNAR8123AEBRKRLJF4USVO","hitId":"33KGGVH24U3HWMAA68SNNSZ85PBX13","url":"https://gershmanlab.com/experiments/alicia/teaching/experiment/?hitId=33KGGVH24U3HWMAA68SNNSZ85PBX13&workerId=A1TARNH07A75CG&assignmentId=3DUZQ9U6SNAR8123AEBRKRLJF4USVO&a=6QUD5&tp_a=6QUD5&b=3DUZQ9U6SNAR8123AEBRKRLJF4USVO&tp_b=3DUZQ9U6SNAR8123AEBRKRLJF4USVO&c=368485&tp_c=368485"},{"rt":null,"stimulus":"Turtles sent to student! Waiting for student...","response":null,"trial_type":"html-keyboard-response","trial_index":39,"time_elapsed":616610,"internal_node_id":"0.0-33.0","params":{"nStudents":8,"maxExamples":70,"completionMinutes":15,"basePay":3,"maxBonus":6,"perTrialBonus":0.7,"perTrialBonusThreshold":0.08,"exampleCost":0.01},"classroomParams":{"A":{"a":1,"b":9},"B":{"a":9,"b":1}},"conditions":["nonSeqFull","nonSeqPartial","seqNoFeedback","seqFeedback"],"classroomPairings":[["A","B"]],"coinWeights":[0.3,0.7],"subjectId":"A1TARNH07A75CG","assignmentId":"3DUZQ9U6SNAR8123AEBRKRLJF4USVO","hitId":"33KGGVH24U3HWMAA68SNNSZ85PBX13","url":"https://gershmanlab.com/experiments/alicia/teaching/experiment/?hitId=33KGGVH24U3HWMAA68SNNSZ85PBX13&workerId=A1TARNH07A75CG&assignmentId=3DUZQ9U6SNAR8123AEBRKRLJF4USVO&a=6QUD5&tp_a=6QUD5&b=3DUZQ9U6SNAR8123AEBRKRLJF4USVO&tp_b=3DUZQ9U6SNAR8123AEBRKRLJF4USVO&c=368485&tp_c=368485"},{"rt":null,"stimulus":"\n                <h3>Student 4's first guess</h3>\n                <p>The student's first guess was that <b style=\"color:Orange;\">37</b> out of every 100 turtles are                     orange and <b style=\"color:Purple;\">63</b> out of every 100 turtles are purple.</p>\n                <h3>Student 4's second guess</h3>\n                <p>The student's second guess was that <b style=\"color:Orange;\">37</b> out of every 100 turtles are                     orange and <b style=\"color:Purple;\">63</b> out of every 100 turtles are purple.</p>\n                <p>You received a bonus of <b>$0.00</b> based on the student's second guess.</p>\n                <p>Total bonus so far: <b>$0.00</b></p>\n                <p>Press any key to continue.</p>\n                ","response":null,"trial_type":"html-keyboard-response","trial_index":40,"time_elapsed":646797,"internal_node_id":"0.0-34.0","params":{"nStudents":8,"maxExamples":70,"completionMinutes":15,"basePay":3,"maxBonus":6,"perTrialBonus":0.7,"perTrialBonusThreshold":0.08,"exampleCost":0.01},"classroomParams":{"A":{"a":1,"b":9},"B":{"a":9,"b":1}},"conditions":["nonSeqFull","nonSeqPartial","seqNoFeedback","seqFeedback"],"classroomPairings":[["A","B"]],"coinWeights":[0.3,0.7],"subjectId":"A1TARNH07A75CG","assignmentId":"3DUZQ9U6SNAR8123AEBRKRLJF4USVO","hitId":"33KGGVH24U3HWMAA68SNNSZ85PBX13","url":"https://gershmanlab.com/experiments/alicia/teaching/experiment/?hitId=33KGGVH24U3HWMAA68SNNSZ85PBX13&workerId=A1TARNH07A75CG&assignmentId=3DUZQ9U6SNAR8123AEBRKRLJF4USVO&a=6QUD5&tp_a=6QUD5&b=3DUZQ9U6SNAR8123AEBRKRLJF4USVO&tp_b=3DUZQ9U6SNAR8123AEBRKRLJF4USVO&c=368485&tp_c=368485"},{"rt":null,"stimulus":"<div style=\"font-size:60px;\">Next student</div>","response":null,"trial_type":"html-keyboard-response","trial_index":41,"time_elapsed":649797,"internal_node_id":"0.0-35.0-0.0","params":{"nStudents":8,"maxExamples":70,"completionMinutes":15,"basePay":3,"maxBonus":6,"perTrialBonus":0.7,"perTrialBonusThreshold":0.08,"exampleCost":0.01},"classroomParams":{"A":{"a":1,"b":9},"B":{"a":9,"b":1}},"conditions":["nonSeqFull","nonSeqPartial","seqNoFeedback","seqFeedback"],"classroomPairings":[["A","B"]],"coinWeights":[0.3,0.7],"subjectId":"A1TARNH07A75CG","assignmentId":"3DUZQ9U6SNAR8123AEBRKRLJF4USVO","hitId":"33KGGVH24U3HWMAA68SNNSZ85PBX13","url":"https://gershmanlab.com/experiments/alicia/teaching/experiment/?hitId=33KGGVH24U3HWMAA68SNNSZ85PBX13&workerId=A1TARNH07A75CG&assignmentId=3DUZQ9U6SNAR8123AEBRKRLJF4USVO&a=6QUD5&tp_a=6QUD5&b=3DUZQ9U6SNAR8123AEBRKRLJF4USVO&tp_b=3DUZQ9U6SNAR8123AEBRKRLJF4USVO&c=368485&tp_c=368485"},{"rt":30857,"stimulus":"\n            <h4 style=\"color:Blue;\">Student 5</h4>\n            <h2>On this island, <b style=\"color:Orange;\">7</b> out of every 10 turtles are orange and <b style=\"color:Purple;\">3</b> out of every 10 turtles are purple.</h2>\n            <p>In this block, you will be teaching <b>two</b> lessons to Student 5.</p>\n            <p><b>You will see the student's guess after the first lesson.</b> </p>\n            <p>You will receive feedback when you are finished with teaching the student.</p>\n            <p>To earn the highest bonus, you will have to <b>take into consideration the student's guess</b> when you choose your second set of turtles.</p>","response":0,"trial_type":"html-button-response","trial_index":42,"time_elapsed":680655,"internal_node_id":"0.0-36.0","params":{"nStudents":8,"maxExamples":70,"completionMinutes":15,"basePay":3,"maxBonus":6,"perTrialBonus":0.7,"perTrialBonusThreshold":0.08,"exampleCost":0.01},"classroomParams":{"A":{"a":1,"b":9},"B":{"a":9,"b":1}},"conditions":["nonSeqFull","nonSeqPartial","seqNoFeedback","seqFeedback"],"classroomPairings":[["A","B"]],"coinWeights":[0.3,0.7],"subjectId":"A1TARNH07A75CG","assignmentId":"3DUZQ9U6SNAR8123AEBRKRLJF4USVO","hitId":"33KGGVH24U3HWMAA68SNNSZ85PBX13","url":"https://gershmanlab.com/experiments/alicia/teaching/experiment/?hitId=33KGGVH24U3HWMAA68SNNSZ85PBX13&workerId=A1TARNH07A75CG&assignmentId=3DUZQ9U6SNAR8123AEBRKRLJF4USVO&a=6QUD5&tp_a=6QUD5&b=3DUZQ9U6SNAR8123AEBRKRLJF4USVO&tp_b=3DUZQ9U6SNAR8123AEBRKRLJF4USVO&c=368485&tp_c=368485"},{"rt":8814,"response":{"heads":"40","tails":"5"},"type":"response","condition":"seqFeedback","trueTheta":0.7,"classrooms":["A","B"],"studentTrueClassroom":"B","exampleSet":"first","trial_type":"survey-html-form","trial_index":43,"time_elapsed":689471,"internal_node_id":"0.0-37.0-0.0","params":{"nStudents":8,"maxExamples":70,"completionMinutes":15,"basePay":3,"maxBonus":6,"perTrialBonus":0.7,"perTrialBonusThreshold":0.08,"exampleCost":0.01},"classroomParams":{"A":{"a":1,"b":9},"B":{"a":9,"b":1}},"conditions":["nonSeqFull","nonSeqPartial","seqNoFeedback","seqFeedback"],"classroomPairings":[["A","B"]],"coinWeights":[0.3,0.7],"subjectId":"A1TARNH07A75CG","assignmentId":"3DUZQ9U6SNAR8123AEBRKRLJF4USVO","hitId":"33KGGVH24U3HWMAA68SNNSZ85PBX13","url":"https://gershmanlab.com/experiments/alicia/teaching/experiment/?hitId=33KGGVH24U3HWMAA68SNNSZ85PBX13&workerId=A1TARNH07A75CG&assignmentId=3DUZQ9U6SNAR8123AEBRKRLJF4USVO&a=6QUD5&tp_a=6QUD5&b=3DUZQ9U6SNAR8123AEBRKRLJF4USVO&tp_b=3DUZQ9U6SNAR8123AEBRKRLJF4USVO&c=368485&tp_c=368485","heads":40,"tails":5,"studentIndex":4,"studentTrueHypers":{"a":9,"b":1},"studentGuess":"0.89","delta":0.19000000000000006,"totalExamples":45,"bonusSoFar":0},{"rt":null,"stimulus":"Sending turtles to student... ","response":null,"trial_type":"html-keyboard-response","trial_index":44,"time_elapsed":691483,"internal_node_id":"0.0-38.0","params":{"nStudents":8,"maxExamples":70,"completionMinutes":15,"basePay":3,"maxBonus":6,"perTrialBonus":0.7,"perTrialBonusThreshold":0.08,"exampleCost":0.01},"classroomParams":{"A":{"a":1,"b":9},"B":{"a":9,"b":1}},"conditions":["nonSeqFull","nonSeqPartial","seqNoFeedback","seqFeedback"],"classroomPairings":[["A","B"]],"coinWeights":[0.3,0.7],"subjectId":"A1TARNH07A75CG","assignmentId":"3DUZQ9U6SNAR8123AEBRKRLJF4USVO","hitId":"33KGGVH24U3HWMAA68SNNSZ85PBX13","url":"https://gershmanlab.com/experiments/alicia/teaching/experiment/?hitId=33KGGVH24U3HWMAA68SNNSZ85PBX13&workerId=A1TARNH07A75CG&assignmentId=3DUZQ9U6SNAR8123AEBRKRLJF4USVO&a=6QUD5&tp_a=6QUD5&b=3DUZQ9U6SNAR8123AEBRKRLJF4USVO&tp_b=3DUZQ9U6SNAR8123AEBRKRLJF4USVO&c=368485&tp_c=368485"},{"rt":null,"stimulus":"Turtles sent to student! Waiting for student...","response":null,"trial_type":"html-keyboard-response","trial_index":45,"time_elapsed":695493,"internal_node_id":"0.0-39.0","params":{"nStudents":8,"maxExamples":70,"completionMinutes":15,"basePay":3,"maxBonus":6,"perTrialBonus":0.7,"perTrialBonusThreshold":0.08,"exampleCost":0.01},"classroomParams":{"A":{"a":1,"b":9},"B":{"a":9,"b":1}},"conditions":["nonSeqFull","nonSeqPartial","seqNoFeedback","seqFeedback"],"classroomPairings":[["A","B"]],"coinWeights":[0.3,0.7],"subjectId":"A1TARNH07A75CG","assignmentId":"3DUZQ9U6SNAR8123AEBRKRLJF4USVO","hitId":"33KGGVH24U3HWMAA68SNNSZ85PBX13","url":"https://gershmanlab.com/experiments/alicia/teaching/experiment/?hitId=33KGGVH24U3HWMAA68SNNSZ85PBX13&workerId=A1TARNH07A75CG&assignmentId=3DUZQ9U6SNAR8123AEBRKRLJF4USVO&a=6QUD5&tp_a=6QUD5&b=3DUZQ9U6SNAR8123AEBRKRLJF4USVO&tp_b=3DUZQ9U6SNAR8123AEBRKRLJF4USVO&c=368485&tp_c=368485"},{"rt":2207,"stimulus":"<h2>Student guess</h2>\n                <p>The student guessed that <b style=\"color:Orange;\">89</b> out of every 100 turtles are                     orange and <b style=\"color:Purple;\">11</b> out of every 100 turtles are purple.</p>\n                <p></b></p>\n                <p>You will now send another set of turtles to your student.</p>\n                <p>Press any key to continue.</p>\n                ","response":" ","trial_type":"html-keyboard-response","trial_index":46,"time_elapsed":697701,"internal_node_id":"0.0-40.0","params":{"nStudents":8,"maxExamples":70,"completionMinutes":15,"basePay":3,"maxBonus":6,"perTrialBonus":0.7,"perTrialBonusThreshold":0.08,"exampleCost":0.01},"classroomParams":{"A":{"a":1,"b":9},"B":{"a":9,"b":1}},"conditions":["nonSeqFull","nonSeqPartial","seqNoFeedback","seqFeedback"],"classroomPairings":[["A","B"]],"coinWeights":[0.3,0.7],"subjectId":"A1TARNH07A75CG","assignmentId":"3DUZQ9U6SNAR8123AEBRKRLJF4USVO","hitId":"33KGGVH24U3HWMAA68SNNSZ85PBX13","url":"https://gershmanlab.com/experiments/alicia/teaching/experiment/?hitId=33KGGVH24U3HWMAA68SNNSZ85PBX13&workerId=A1TARNH07A75CG&assignmentId=3DUZQ9U6SNAR8123AEBRKRLJF4USVO&a=6QUD5&tp_a=6QUD5&b=3DUZQ9U6SNAR8123AEBRKRLJF4USVO&tp_b=3DUZQ9U6SNAR8123AEBRKRLJF4USVO&c=368485&tp_c=368485"},{"rt":18984,"response":{"heads":"50","tails":"5"},"type":"response","condition":"seqFeedback","trueTheta":0.7,"classrooms":["A","B"],"studentTrueClassroom":"B","exampleSet":"second","trial_type":"survey-html-form","trial_index":47,"time_elapsed":716686,"internal_node_id":"0.0-41.0-0.0","params":{"nStudents":8,"maxExamples":70,"completionMinutes":15,"basePay":3,"maxBonus":6,"perTrialBonus":0.7,"perTrialBonusThreshold":0.08,"exampleCost":0.01},"classroomParams":{"A":{"a":1,"b":9},"B":{"a":9,"b":1}},"conditions":["nonSeqFull","nonSeqPartial","seqNoFeedback","seqFeedback"],"classroomPairings":[["A","B"]],"coinWeights":[0.3,0.7],"subjectId":"A1TARNH07A75CG","assignmentId":"3DUZQ9U6SNAR8123AEBRKRLJF4USVO","hitId":"33KGGVH24U3HWMAA68SNNSZ85PBX13","url":"https://gershmanlab.com/experiments/alicia/teaching/experiment/?hitId=33KGGVH24U3HWMAA68SNNSZ85PBX13&workerId=A1TARNH07A75CG&assignmentId=3DUZQ9U6SNAR8123AEBRKRLJF4USVO&a=6QUD5&tp_a=6QUD5&b=3DUZQ9U6SNAR8123AEBRKRLJF4USVO&tp_b=3DUZQ9U6SNAR8123AEBRKRLJF4USVO&c=368485&tp_c=368485","firstResponseHeads":40,"firstResponseTails":5,"secondResponseHeads":50,"secondResponseTails":5,"totalHeads":90,"totalTails":10,"studentIndex":4,"studentTrueHypers":{"a":9,"b":1},"studentGuess":"0.90","delta":0.20000000000000007,"bonus":0,"bonusSoFar":0,"totalExamples":100},{"rt":null,"stimulus":"Sending turtles to student... ","response":null,"trial_type":"html-keyboard-response","trial_index":48,"time_elapsed":717940,"internal_node_id":"0.0-42.0","params":{"nStudents":8,"maxExamples":70,"completionMinutes":15,"basePay":3,"maxBonus":6,"perTrialBonus":0.7,"perTrialBonusThreshold":0.08,"exampleCost":0.01},"classroomParams":{"A":{"a":1,"b":9},"B":{"a":9,"b":1}},"conditions":["nonSeqFull","nonSeqPartial","seqNoFeedback","seqFeedback"],"classroomPairings":[["A","B"]],"coinWeights":[0.3,0.7],"subjectId":"A1TARNH07A75CG","assignmentId":"3DUZQ9U6SNAR8123AEBRKRLJF4USVO","hitId":"33KGGVH24U3HWMAA68SNNSZ85PBX13","url":"https://gershmanlab.com/experiments/alicia/teaching/experiment/?hitId=33KGGVH24U3HWMAA68SNNSZ85PBX13&workerId=A1TARNH07A75CG&assignmentId=3DUZQ9U6SNAR8123AEBRKRLJF4USVO&a=6QUD5&tp_a=6QUD5&b=3DUZQ9U6SNAR8123AEBRKRLJF4USVO&tp_b=3DUZQ9U6SNAR8123AEBRKRLJF4USVO&c=368485&tp_c=368485"},{"rt":null,"stimulus":"Turtles sent to student! Waiting for student...","response":null,"trial_type":"html-keyboard-response","trial_index":49,"time_elapsed":722450,"internal_node_id":"0.0-43.0","params":{"nStudents":8,"maxExamples":70,"completionMinutes":15,"basePay":3,"maxBonus":6,"perTrialBonus":0.7,"perTrialBonusThreshold":0.08,"exampleCost":0.01},"classroomParams":{"A":{"a":1,"b":9},"B":{"a":9,"b":1}},"conditions":["nonSeqFull","nonSeqPartial","seqNoFeedback","seqFeedback"],"classroomPairings":[["A","B"]],"coinWeights":[0.3,0.7],"subjectId":"A1TARNH07A75CG","assignmentId":"3DUZQ9U6SNAR8123AEBRKRLJF4USVO","hitId":"33KGGVH24U3HWMAA68SNNSZ85PBX13","url":"https://gershmanlab.com/experiments/alicia/teaching/experiment/?hitId=33KGGVH24U3HWMAA68SNNSZ85PBX13&workerId=A1TARNH07A75CG&assignmentId=3DUZQ9U6SNAR8123AEBRKRLJF4USVO&a=6QUD5&tp_a=6QUD5&b=3DUZQ9U6SNAR8123AEBRKRLJF4USVO&tp_b=3DUZQ9U6SNAR8123AEBRKRLJF4USVO&c=368485&tp_c=368485"},{"rt":8986,"stimulus":"\n                <h3>Student 5's first guess</h3>\n                <p>The student's first guess was that <b style=\"color:Orange;\">89</b> out of every 100 turtles are                     orange and <b style=\"color:Purple;\">11</b> out of every 100 turtles are purple.</p>\n                <h3>Student 5's second guess</h3>\n                <p>The student's second guess was that <b style=\"color:Orange;\">90</b> out of every 100 turtles are                     orange and <b style=\"color:Purple;\">10</b> out of every 100 turtles are purple.</p>\n                <p>You received a bonus of <b>$0.00</b> based on the student's second guess.</p>\n                <p>Total bonus so far: <b>$0.00</b></p>\n                <p>Press any key to continue.</p>\n                ","response":" ","trial_type":"html-keyboard-response","trial_index":50,"time_elapsed":731436,"internal_node_id":"0.0-44.0","params":{"nStudents":8,"maxExamples":70,"completionMinutes":15,"basePay":3,"maxBonus":6,"perTrialBonus":0.7,"perTrialBonusThreshold":0.08,"exampleCost":0.01},"classroomParams":{"A":{"a":1,"b":9},"B":{"a":9,"b":1}},"conditions":["nonSeqFull","nonSeqPartial","seqNoFeedback","seqFeedback"],"classroomPairings":[["A","B"]],"coinWeights":[0.3,0.7],"subjectId":"A1TARNH07A75CG","assignmentId":"3DUZQ9U6SNAR8123AEBRKRLJF4USVO","hitId":"33KGGVH24U3HWMAA68SNNSZ85PBX13","url":"https://gershmanlab.com/experiments/alicia/teaching/experiment/?hitId=33KGGVH24U3HWMAA68SNNSZ85PBX13&workerId=A1TARNH07A75CG&assignmentId=3DUZQ9U6SNAR8123AEBRKRLJF4USVO&a=6QUD5&tp_a=6QUD5&b=3DUZQ9U6SNAR8123AEBRKRLJF4USVO&tp_b=3DUZQ9U6SNAR8123AEBRKRLJF4USVO&c=368485&tp_c=368485"},{"rt":null,"stimulus":"<div style=\"font-size:60px;\">Next student</div>","response":null,"trial_type":"html-keyboard-response","trial_index":51,"time_elapsed":733949,"internal_node_id":"0.0-45.0-0.0","params":{"nStudents":8,"maxExamples":70,"completionMinutes":15,"basePay":3,"maxBonus":6,"perTrialBonus":0.7,"perTrialBonusThreshold":0.08,"exampleCost":0.01},"classroomParams":{"A":{"a":1,"b":9},"B":{"a":9,"b":1}},"conditions":["nonSeqFull","nonSeqPartial","seqNoFeedback","seqFeedback"],"classroomPairings":[["A","B"]],"coinWeights":[0.3,0.7],"subjectId":"A1TARNH07A75CG","assignmentId":"3DUZQ9U6SNAR8123AEBRKRLJF4USVO","hitId":"33KGGVH24U3HWMAA68SNNSZ85PBX13","url":"https://gershmanlab.com/experiments/alicia/teaching/experiment/?hitId=33KGGVH24U3HWMAA68SNNSZ85PBX13&workerId=A1TARNH07A75CG&assignmentId=3DUZQ9U6SNAR8123AEBRKRLJF4USVO&a=6QUD5&tp_a=6QUD5&b=3DUZQ9U6SNAR8123AEBRKRLJF4USVO&tp_b=3DUZQ9U6SNAR8123AEBRKRLJF4USVO&c=368485&tp_c=368485"},{"rt":1713,"stimulus":"\n            <h4 style=\"color:Blue;\">Student 6</h4>\n            <h2>On this island, <b style=\"color:Orange;\">3</b> out of every 10 turtles are orange and <b style=\"color:Purple;\">7</b> out of every 10 turtles are purple.</h2>\n            <p>In this block, you will be teaching <b>one</b> lesson to Student 6.</p>\n            <p> </p>\n            <p>You will receive feedback when you are finished with teaching the student.</p>\n            <p></p>","response":0,"trial_type":"html-button-response","trial_index":52,"time_elapsed":735662,"internal_node_id":"0.0-46.0","params":{"nStudents":8,"maxExamples":70,"completionMinutes":15,"basePay":3,"maxBonus":6,"perTrialBonus":0.7,"perTrialBonusThreshold":0.08,"exampleCost":0.01},"classroomParams":{"A":{"a":1,"b":9},"B":{"a":9,"b":1}},"conditions":["nonSeqFull","nonSeqPartial","seqNoFeedback","seqFeedback"],"classroomPairings":[["A","B"]],"coinWeights":[0.3,0.7],"subjectId":"A1TARNH07A75CG","assignmentId":"3DUZQ9U6SNAR8123AEBRKRLJF4USVO","hitId":"33KGGVH24U3HWMAA68SNNSZ85PBX13","url":"https://gershmanlab.com/experiments/alicia/teaching/experiment/?hitId=33KGGVH24U3HWMAA68SNNSZ85PBX13&workerId=A1TARNH07A75CG&assignmentId=3DUZQ9U6SNAR8123AEBRKRLJF4USVO&a=6QUD5&tp_a=6QUD5&b=3DUZQ9U6SNAR8123AEBRKRLJF4USVO&tp_b=3DUZQ9U6SNAR8123AEBRKRLJF4USVO&c=368485&tp_c=368485"},{"rt":7534,"response":{"heads":"10","tails":"40"},"type":"response","condition":"nonSeqPartial","trueTheta":0.3,"classrooms":["A","B"],"studentTrueClassroom":"A","exampleSet":"first","trial_type":"survey-html-form","trial_index":53,"time_elapsed":743204,"internal_node_id":"0.0-47.0-0.0","params":{"nStudents":8,"maxExamples":70,"completionMinutes":15,"basePay":3,"maxBonus":6,"perTrialBonus":0.7,"perTrialBonusThreshold":0.08,"exampleCost":0.01},"classroomParams":{"A":{"a":1,"b":9},"B":{"a":9,"b":1}},"conditions":["nonSeqFull","nonSeqPartial","seqNoFeedback","seqFeedback"],"classroomPairings":[["A","B"]],"coinWeights":[0.3,0.7],"subjectId":"A1TARNH07A75CG","assignmentId":"3DUZQ9U6SNAR8123AEBRKRLJF4USVO","hitId":"33KGGVH24U3HWMAA68SNNSZ85PBX13","url":"https://gershmanlab.com/experiments/alicia/teaching/experiment/?hitId=33KGGVH24U3HWMAA68SNNSZ85PBX13&workerId=A1TARNH07A75CG&assignmentId=3DUZQ9U6SNAR8123AEBRKRLJF4USVO&a=6QUD5&tp_a=6QUD5&b=3DUZQ9U6SNAR8123AEBRKRLJF4USVO&tp_b=3DUZQ9U6SNAR8123AEBRKRLJF4USVO&c=368485&tp_c=368485","heads":10,"tails":40,"studentIndex":5,"studentTrueHypers":{"a":1,"b":9},"studentGuess":"0.18","delta":0.12,"totalExamples":50,"bonus":0,"bonusSoFar":0},{"rt":null,"stimulus":"Sending turtles to student... ","response":null,"trial_type":"html-keyboard-response","trial_index":54,"time_elapsed":744459,"internal_node_id":"0.0-48.0","params":{"nStudents":8,"maxExamples":70,"completionMinutes":15,"basePay":3,"maxBonus":6,"perTrialBonus":0.7,"perTrialBonusThreshold":0.08,"exampleCost":0.01},"classroomParams":{"A":{"a":1,"b":9},"B":{"a":9,"b":1}},"conditions":["nonSeqFull","nonSeqPartial","seqNoFeedback","seqFeedback"],"classroomPairings":[["A","B"]],"coinWeights":[0.3,0.7],"subjectId":"A1TARNH07A75CG","assignmentId":"3DUZQ9U6SNAR8123AEBRKRLJF4USVO","hitId":"33KGGVH24U3HWMAA68SNNSZ85PBX13","url":"https://gershmanlab.com/experiments/alicia/teaching/experiment/?hitId=33KGGVH24U3HWMAA68SNNSZ85PBX13&workerId=A1TARNH07A75CG&assignmentId=3DUZQ9U6SNAR8123AEBRKRLJF4USVO&a=6QUD5&tp_a=6QUD5&b=3DUZQ9U6SNAR8123AEBRKRLJF4USVO&tp_b=3DUZQ9U6SNAR8123AEBRKRLJF4USVO&c=368485&tp_c=368485"},{"rt":null,"stimulus":"Turtles sent to student! Waiting for student...","response":null,"trial_type":"html-keyboard-response","trial_index":55,"time_elapsed":748460,"internal_node_id":"0.0-49.0","params":{"nStudents":8,"maxExamples":70,"completionMinutes":15,"basePay":3,"maxBonus":6,"perTrialBonus":0.7,"perTrialBonusThreshold":0.08,"exampleCost":0.01},"classroomParams":{"A":{"a":1,"b":9},"B":{"a":9,"b":1}},"conditions":["nonSeqFull","nonSeqPartial","seqNoFeedback","seqFeedback"],"classroomPairings":[["A","B"]],"coinWeights":[0.3,0.7],"subjectId":"A1TARNH07A75CG","assignmentId":"3DUZQ9U6SNAR8123AEBRKRLJF4USVO","hitId":"33KGGVH24U3HWMAA68SNNSZ85PBX13","url":"https://gershmanlab.com/experiments/alicia/teaching/experiment/?hitId=33KGGVH24U3HWMAA68SNNSZ85PBX13&workerId=A1TARNH07A75CG&assignmentId=3DUZQ9U6SNAR8123AEBRKRLJF4USVO&a=6QUD5&tp_a=6QUD5&b=3DUZQ9U6SNAR8123AEBRKRLJF4USVO&tp_b=3DUZQ9U6SNAR8123AEBRKRLJF4USVO&c=368485&tp_c=368485"},{"rt":1727,"stimulus":"<h2>Student guess</h2>\n                <p>The student guessed that <b style=\"color:Orange;\">18</b> out of every 100 turtles are                     orange and <b style=\"color:Purple;\">82</b> out of every 100 turtles are purple.</p>\n                <p>You received a bonus of <b>$0</b>. Total bonus so far: <b>$0.00</b></b></p>\n                <p></p>\n                <p>Press any key to continue.</p>\n                ","response":" ","trial_type":"html-keyboard-response","trial_index":56,"time_elapsed":750188,"internal_node_id":"0.0-50.0","params":{"nStudents":8,"maxExamples":70,"completionMinutes":15,"basePay":3,"maxBonus":6,"perTrialBonus":0.7,"perTrialBonusThreshold":0.08,"exampleCost":0.01},"classroomParams":{"A":{"a":1,"b":9},"B":{"a":9,"b":1}},"conditions":["nonSeqFull","nonSeqPartial","seqNoFeedback","seqFeedback"],"classroomPairings":[["A","B"]],"coinWeights":[0.3,0.7],"subjectId":"A1TARNH07A75CG","assignmentId":"3DUZQ9U6SNAR8123AEBRKRLJF4USVO","hitId":"33KGGVH24U3HWMAA68SNNSZ85PBX13","url":"https://gershmanlab.com/experiments/alicia/teaching/experiment/?hitId=33KGGVH24U3HWMAA68SNNSZ85PBX13&workerId=A1TARNH07A75CG&assignmentId=3DUZQ9U6SNAR8123AEBRKRLJF4USVO&a=6QUD5&tp_a=6QUD5&b=3DUZQ9U6SNAR8123AEBRKRLJF4USVO&tp_b=3DUZQ9U6SNAR8123AEBRKRLJF4USVO&c=368485&tp_c=368485"},{"rt":null,"stimulus":"<div style=\"font-size:60px;\">Next student</div>","response":null,"trial_type":"html-keyboard-response","trial_index":57,"time_elapsed":752442,"internal_node_id":"0.0-51.0-0.0","params":{"nStudents":8,"maxExamples":70,"completionMinutes":15,"basePay":3,"maxBonus":6,"perTrialBonus":0.7,"perTrialBonusThreshold":0.08,"exampleCost":0.01},"classroomParams":{"A":{"a":1,"b":9},"B":{"a":9,"b":1}},"conditions":["nonSeqFull","nonSeqPartial","seqNoFeedback","seqFeedback"],"classroomPairings":[["A","B"]],"coinWeights":[0.3,0.7],"subjectId":"A1TARNH07A75CG","assignmentId":"3DUZQ9U6SNAR8123AEBRKRLJF4USVO","hitId":"33KGGVH24U3HWMAA68SNNSZ85PBX13","url":"https://gershmanlab.com/experiments/alicia/teaching/experiment/?hitId=33KGGVH24U3HWMAA68SNNSZ85PBX13&workerId=A1TARNH07A75CG&assignmentId=3DUZQ9U6SNAR8123AEBRKRLJF4USVO&a=6QUD5&tp_a=6QUD5&b=3DUZQ9U6SNAR8123AEBRKRLJF4USVO&tp_b=3DUZQ9U6SNAR8123AEBRKRLJF4USVO&c=368485&tp_c=368485"},{"rt":1394,"stimulus":"\n            <h4 style=\"color:Blue;\">Student 7</h4>\n            <h2>On this island, <b style=\"color:Orange;\">7</b> out of every 10 turtles are orange and <b style=\"color:Purple;\">3</b> out of every 10 turtles are purple.</h2>\n            <p>In this block, you will be teaching <b>one</b> lesson to Student 7.</p>\n            <p> </p>\n            <p>You will receive feedback when you are finished with teaching the student.</p>\n            <p></p>","response":0,"trial_type":"html-button-response","trial_index":58,"time_elapsed":753838,"internal_node_id":"0.0-52.0","params":{"nStudents":8,"maxExamples":70,"completionMinutes":15,"basePay":3,"maxBonus":6,"perTrialBonus":0.7,"perTrialBonusThreshold":0.08,"exampleCost":0.01},"classroomParams":{"A":{"a":1,"b":9},"B":{"a":9,"b":1}},"conditions":["nonSeqFull","nonSeqPartial","seqNoFeedback","seqFeedback"],"classroomPairings":[["A","B"]],"coinWeights":[0.3,0.7],"subjectId":"A1TARNH07A75CG","assignmentId":"3DUZQ9U6SNAR8123AEBRKRLJF4USVO","hitId":"33KGGVH24U3HWMAA68SNNSZ85PBX13","url":"https://gershmanlab.com/experiments/alicia/teaching/experiment/?hitId=33KGGVH24U3HWMAA68SNNSZ85PBX13&workerId=A1TARNH07A75CG&assignmentId=3DUZQ9U6SNAR8123AEBRKRLJF4USVO&a=6QUD5&tp_a=6QUD5&b=3DUZQ9U6SNAR8123AEBRKRLJF4USVO&tp_b=3DUZQ9U6SNAR8123AEBRKRLJF4USVO&c=368485&tp_c=368485"},{"rt":6397,"response":{"heads":"10","tails":"3"},"type":"response","condition":"nonSeqPartial","trueTheta":0.7,"classrooms":["A","B"],"studentTrueClassroom":"A","exampleSet":"first","trial_type":"survey-html-form","trial_index":59,"time_elapsed":760238,"internal_node_id":"0.0-53.0-0.0","params":{"nStudents":8,"maxExamples":70,"completionMinutes":15,"basePay":3,"maxBonus":6,"perTrialBonus":0.7,"perTrialBonusThreshold":0.08,"exampleCost":0.01},"classroomParams":{"A":{"a":1,"b":9},"B":{"a":9,"b":1}},"conditions":["nonSeqFull","nonSeqPartial","seqNoFeedback","seqFeedback"],"classroomPairings":[["A","B"]],"coinWeights":[0.3,0.7],"subjectId":"A1TARNH07A75CG","assignmentId":"3DUZQ9U6SNAR8123AEBRKRLJF4USVO","hitId":"33KGGVH24U3HWMAA68SNNSZ85PBX13","url":"https://gershmanlab.com/experiments/alicia/teaching/experiment/?hitId=33KGGVH24U3HWMAA68SNNSZ85PBX13&workerId=A1TARNH07A75CG&assignmentId=3DUZQ9U6SNAR8123AEBRKRLJF4USVO&a=6QUD5&tp_a=6QUD5&b=3DUZQ9U6SNAR8123AEBRKRLJF4USVO&tp_b=3DUZQ9U6SNAR8123AEBRKRLJF4USVO&c=368485&tp_c=368485","heads":10,"tails":3,"studentIndex":6,"studentTrueHypers":{"a":1,"b":9},"studentGuess":"0.48","delta":0.21999999999999997,"totalExamples":13,"bonus":0,"bonusSoFar":0},{"rt":null,"stimulus":"Sending turtles to student... ","response":null,"trial_type":"html-keyboard-response","trial_index":60,"time_elapsed":762003,"internal_node_id":"0.0-54.0","params":{"nStudents":8,"maxExamples":70,"completionMinutes":15,"basePay":3,"maxBonus":6,"perTrialBonus":0.7,"perTrialBonusThreshold":0.08,"exampleCost":0.01},"classroomParams":{"A":{"a":1,"b":9},"B":{"a":9,"b":1}},"conditions":["nonSeqFull","nonSeqPartial","seqNoFeedback","seqFeedback"],"classroomPairings":[["A","B"]],"coinWeights":[0.3,0.7],"subjectId":"A1TARNH07A75CG","assignmentId":"3DUZQ9U6SNAR8123AEBRKRLJF4USVO","hitId":"33KGGVH24U3HWMAA68SNNSZ85PBX13","url":"https://gershmanlab.com/experiments/alicia/teaching/experiment/?hitId=33KGGVH24U3HWMAA68SNNSZ85PBX13&workerId=A1TARNH07A75CG&assignmentId=3DUZQ9U6SNAR8123AEBRKRLJF4USVO&a=6QUD5&tp_a=6QUD5&b=3DUZQ9U6SNAR8123AEBRKRLJF4USVO&tp_b=3DUZQ9U6SNAR8123AEBRKRLJF4USVO&c=368485&tp_c=368485"},{"rt":null,"stimulus":"Turtles sent to student! Waiting for student...","response":null,"trial_type":"html-keyboard-response","trial_index":61,"time_elapsed":766514,"internal_node_id":"0.0-55.0","params":{"nStudents":8,"maxExamples":70,"completionMinutes":15,"basePay":3,"maxBonus":6,"perTrialBonus":0.7,"perTrialBonusThreshold":0.08,"exampleCost":0.01},"classroomParams":{"A":{"a":1,"b":9},"B":{"a":9,"b":1}},"conditions":["nonSeqFull","nonSeqPartial","seqNoFeedback","seqFeedback"],"classroomPairings":[["A","B"]],"coinWeights":[0.3,0.7],"subjectId":"A1TARNH07A75CG","assignmentId":"3DUZQ9U6SNAR8123AEBRKRLJF4USVO","hitId":"33KGGVH24U3HWMAA68SNNSZ85PBX13","url":"https://gershmanlab.com/experiments/alicia/teaching/experiment/?hitId=33KGGVH24U3HWMAA68SNNSZ85PBX13&workerId=A1TARNH07A75CG&assignmentId=3DUZQ9U6SNAR8123AEBRKRLJF4USVO&a=6QUD5&tp_a=6QUD5&b=3DUZQ9U6SNAR8123AEBRKRLJF4USVO&tp_b=3DUZQ9U6SNAR8123AEBRKRLJF4USVO&c=368485&tp_c=368485"},{"rt":2529,"stimulus":"<h2>Student guess</h2>\n                <p>The student guessed that <b style=\"color:Orange;\">48</b> out of every 100 turtles are                     orange and <b style=\"color:Purple;\">52</b> out of every 100 turtles are purple.</p>\n                <p>You received a bonus of <b>$0</b>. Total bonus so far: <b>$0.00</b></b></p>\n                <p></p>\n                <p>Press any key to continue.</p>\n                ","response":" ","trial_type":"html-keyboard-response","trial_index":62,"time_elapsed":769045,"internal_node_id":"0.0-56.0","params":{"nStudents":8,"maxExamples":70,"completionMinutes":15,"basePay":3,"maxBonus":6,"perTrialBonus":0.7,"perTrialBonusThreshold":0.08,"exampleCost":0.01},"classroomParams":{"A":{"a":1,"b":9},"B":{"a":9,"b":1}},"conditions":["nonSeqFull","nonSeqPartial","seqNoFeedback","seqFeedback"],"classroomPairings":[["A","B"]],"coinWeights":[0.3,0.7],"subjectId":"A1TARNH07A75CG","assignmentId":"3DUZQ9U6SNAR8123AEBRKRLJF4USVO","hitId":"33KGGVH24U3HWMAA68SNNSZ85PBX13","url":"https://gershmanlab.com/experiments/alicia/teaching/experiment/?hitId=33KGGVH24U3HWMAA68SNNSZ85PBX13&workerId=A1TARNH07A75CG&assignmentId=3DUZQ9U6SNAR8123AEBRKRLJF4USVO&a=6QUD5&tp_a=6QUD5&b=3DUZQ9U6SNAR8123AEBRKRLJF4USVO&tp_b=3DUZQ9U6SNAR8123AEBRKRLJF4USVO&c=368485&tp_c=368485"},{"rt":null,"stimulus":"<div style=\"font-size:60px;\">Next student</div>","response":null,"trial_type":"html-keyboard-response","trial_index":63,"time_elapsed":771552,"internal_node_id":"0.0-57.0-0.0","params":{"nStudents":8,"maxExamples":70,"completionMinutes":15,"basePay":3,"maxBonus":6,"perTrialBonus":0.7,"perTrialBonusThreshold":0.08,"exampleCost":0.01},"classroomParams":{"A":{"a":1,"b":9},"B":{"a":9,"b":1}},"conditions":["nonSeqFull","nonSeqPartial","seqNoFeedback","seqFeedback"],"classroomPairings":[["A","B"]],"coinWeights":[0.3,0.7],"subjectId":"A1TARNH07A75CG","assignmentId":"3DUZQ9U6SNAR8123AEBRKRLJF4USVO","hitId":"33KGGVH24U3HWMAA68SNNSZ85PBX13","url":"https://gershmanlab.com/experiments/alicia/teaching/experiment/?hitId=33KGGVH24U3HWMAA68SNNSZ85PBX13&workerId=A1TARNH07A75CG&assignmentId=3DUZQ9U6SNAR8123AEBRKRLJF4USVO&a=6QUD5&tp_a=6QUD5&b=3DUZQ9U6SNAR8123AEBRKRLJF4USVO&tp_b=3DUZQ9U6SNAR8123AEBRKRLJF4USVO&c=368485&tp_c=368485"},{"rt":1461,"stimulus":"\n            <h4 style=\"color:Blue;\">Student 8</h4>\n            <h2>On this island, <b style=\"color:Orange;\">3</b> out of every 10 turtles are orange and <b style=\"color:Purple;\">7</b> out of every 10 turtles are purple.</h2>\n            <p>In this block, you will be teaching <b>two</b> lessons to Student 8.</p>\n            <p> You will <b>not</b> see the student's guess after the first lesson.</p>\n            <p>You will receive feedback when you are finished with teaching the student.</p>\n            <p></p>","response":0,"trial_type":"html-button-response","trial_index":64,"time_elapsed":773015,"internal_node_id":"0.0-58.0","params":{"nStudents":8,"maxExamples":70,"completionMinutes":15,"basePay":3,"maxBonus":6,"perTrialBonus":0.7,"perTrialBonusThreshold":0.08,"exampleCost":0.01},"classroomParams":{"A":{"a":1,"b":9},"B":{"a":9,"b":1}},"conditions":["nonSeqFull","nonSeqPartial","seqNoFeedback","seqFeedback"],"classroomPairings":[["A","B"]],"coinWeights":[0.3,0.7],"subjectId":"A1TARNH07A75CG","assignmentId":"3DUZQ9U6SNAR8123AEBRKRLJF4USVO","hitId":"33KGGVH24U3HWMAA68SNNSZ85PBX13","url":"https://gershmanlab.com/experiments/alicia/teaching/experiment/?hitId=33KGGVH24U3HWMAA68SNNSZ85PBX13&workerId=A1TARNH07A75CG&assignmentId=3DUZQ9U6SNAR8123AEBRKRLJF4USVO&a=6QUD5&tp_a=6QUD5&b=3DUZQ9U6SNAR8123AEBRKRLJF4USVO&tp_b=3DUZQ9U6SNAR8123AEBRKRLJF4USVO&c=368485&tp_c=368485"},{"rt":4942,"response":{"heads":"8","tails":"30"},"type":"response","condition":"seqNoFeedback","trueTheta":0.3,"classrooms":["A","B"],"studentTrueClassroom":"B","exampleSet":"first","trial_type":"survey-html-form","trial_index":65,"time_elapsed":777960,"internal_node_id":"0.0-59.0-0.0","params":{"nStudents":8,"maxExamples":70,"completionMinutes":15,"basePay":3,"maxBonus":6,"perTrialBonus":0.7,"perTrialBonusThreshold":0.08,"exampleCost":0.01},"classroomParams":{"A":{"a":1,"b":9},"B":{"a":9,"b":1}},"conditions":["nonSeqFull","nonSeqPartial","seqNoFeedback","seqFeedback"],"classroomPairings":[["A","B"]],"coinWeights":[0.3,0.7],"subjectId":"A1TARNH07A75CG","assignmentId":"3DUZQ9U6SNAR8123AEBRKRLJF4USVO","hitId":"33KGGVH24U3HWMAA68SNNSZ85PBX13","url":"https://gershmanlab.com/experiments/alicia/teaching/experiment/?hitId=33KGGVH24U3HWMAA68SNNSZ85PBX13&workerId=A1TARNH07A75CG&assignmentId=3DUZQ9U6SNAR8123AEBRKRLJF4USVO&a=6QUD5&tp_a=6QUD5&b=3DUZQ9U6SNAR8123AEBRKRLJF4USVO&tp_b=3DUZQ9U6SNAR8123AEBRKRLJF4USVO&c=368485&tp_c=368485","heads":8,"tails":30,"studentIndex":7,"studentTrueHypers":{"a":9,"b":1},"studentGuess":"0.35","delta":0.04999999999999999,"totalExamples":38,"bonusSoFar":0},{"rt":null,"stimulus":"Sending turtles to student... ","response":null,"trial_type":"html-keyboard-response","trial_index":66,"time_elapsed":779969,"internal_node_id":"0.0-60.0","params":{"nStudents":8,"maxExamples":70,"completionMinutes":15,"basePay":3,"maxBonus":6,"perTrialBonus":0.7,"perTrialBonusThreshold":0.08,"exampleCost":0.01},"classroomParams":{"A":{"a":1,"b":9},"B":{"a":9,"b":1}},"conditions":["nonSeqFull","nonSeqPartial","seqNoFeedback","seqFeedback"],"classroomPairings":[["A","B"]],"coinWeights":[0.3,0.7],"subjectId":"A1TARNH07A75CG","assignmentId":"3DUZQ9U6SNAR8123AEBRKRLJF4USVO","hitId":"33KGGVH24U3HWMAA68SNNSZ85PBX13","url":"https://gershmanlab.com/experiments/alicia/teaching/experiment/?hitId=33KGGVH24U3HWMAA68SNNSZ85PBX13&workerId=A1TARNH07A75CG&assignmentId=3DUZQ9U6SNAR8123AEBRKRLJF4USVO&a=6QUD5&tp_a=6QUD5&b=3DUZQ9U6SNAR8123AEBRKRLJF4USVO&tp_b=3DUZQ9U6SNAR8123AEBRKRLJF4USVO&c=368485&tp_c=368485"},{"rt":null,"stimulus":"Turtles sent to student! Waiting for student...","response":null,"trial_type":"html-keyboard-response","trial_index":67,"time_elapsed":783982,"internal_node_id":"0.0-61.0","params":{"nStudents":8,"maxExamples":70,"completionMinutes":15,"basePay":3,"maxBonus":6,"perTrialBonus":0.7,"perTrialBonusThreshold":0.08,"exampleCost":0.01},"classroomParams":{"A":{"a":1,"b":9},"B":{"a":9,"b":1}},"conditions":["nonSeqFull","nonSeqPartial","seqNoFeedback","seqFeedback"],"classroomPairings":[["A","B"]],"coinWeights":[0.3,0.7],"subjectId":"A1TARNH07A75CG","assignmentId":"3DUZQ9U6SNAR8123AEBRKRLJF4USVO","hitId":"33KGGVH24U3HWMAA68SNNSZ85PBX13","url":"https://gershmanlab.com/experiments/alicia/teaching/experiment/?hitId=33KGGVH24U3HWMAA68SNNSZ85PBX13&workerId=A1TARNH07A75CG&assignmentId=3DUZQ9U6SNAR8123AEBRKRLJF4USVO&a=6QUD5&tp_a=6QUD5&b=3DUZQ9U6SNAR8123AEBRKRLJF4USVO&tp_b=3DUZQ9U6SNAR8123AEBRKRLJF4USVO&c=368485&tp_c=368485"},{"rt":97407,"response":{"heads":"3","tails":"7"},"type":"response","condition":"seqNoFeedback","trueTheta":0.3,"classrooms":["A","B"],"studentTrueClassroom":"B","exampleSet":"second","trial_type":"survey-html-form","trial_index":68,"time_elapsed":881390,"internal_node_id":"0.0-62.0-0.0","params":{"nStudents":8,"maxExamples":70,"completionMinutes":15,"basePay":3,"maxBonus":6,"perTrialBonus":0.7,"perTrialBonusThreshold":0.08,"exampleCost":0.01},"classroomParams":{"A":{"a":1,"b":9},"B":{"a":9,"b":1}},"conditions":["nonSeqFull","nonSeqPartial","seqNoFeedback","seqFeedback"],"classroomPairings":[["A","B"]],"coinWeights":[0.3,0.7],"subjectId":"A1TARNH07A75CG","assignmentId":"3DUZQ9U6SNAR8123AEBRKRLJF4USVO","hitId":"33KGGVH24U3HWMAA68SNNSZ85PBX13","url":"https://gershmanlab.com/experiments/alicia/teaching/experiment/?hitId=33KGGVH24U3HWMAA68SNNSZ85PBX13&workerId=A1TARNH07A75CG&assignmentId=3DUZQ9U6SNAR8123AEBRKRLJF4USVO&a=6QUD5&tp_a=6QUD5&b=3DUZQ9U6SNAR8123AEBRKRLJF4USVO&tp_b=3DUZQ9U6SNAR8123AEBRKRLJF4USVO&c=368485&tp_c=368485","firstResponseHeads":8,"firstResponseTails":30,"secondResponseHeads":3,"secondResponseTails":7,"totalHeads":11,"totalTails":37,"studentIndex":7,"studentTrueHypers":{"a":9,"b":1},"studentGuess":"0.34","delta":0.040000000000000036,"bonus":0.22,"bonusSoFar":0.22,"totalExamples":48},{"rt":null,"stimulus":"Sending turtles to student... ","response":null,"trial_type":"html-keyboard-response","trial_index":69,"time_elapsed":882642,"internal_node_id":"0.0-63.0","params":{"nStudents":8,"maxExamples":70,"completionMinutes":15,"basePay":3,"maxBonus":6,"perTrialBonus":0.7,"perTrialBonusThreshold":0.08,"exampleCost":0.01},"classroomParams":{"A":{"a":1,"b":9},"B":{"a":9,"b":1}},"conditions":["nonSeqFull","nonSeqPartial","seqNoFeedback","seqFeedback"],"classroomPairings":[["A","B"]],"coinWeights":[0.3,0.7],"subjectId":"A1TARNH07A75CG","assignmentId":"3DUZQ9U6SNAR8123AEBRKRLJF4USVO","hitId":"33KGGVH24U3HWMAA68SNNSZ85PBX13","url":"https://gershmanlab.com/experiments/alicia/teaching/experiment/?hitId=33KGGVH24U3HWMAA68SNNSZ85PBX13&workerId=A1TARNH07A75CG&assignmentId=3DUZQ9U6SNAR8123AEBRKRLJF4USVO&a=6QUD5&tp_a=6QUD5&b=3DUZQ9U6SNAR8123AEBRKRLJF4USVO&tp_b=3DUZQ9U6SNAR8123AEBRKRLJF4USVO&c=368485&tp_c=368485"},{"rt":null,"stimulus":"Turtles sent to student! Waiting for student...","response":null,"trial_type":"html-keyboard-response","trial_index":70,"time_elapsed":886651,"internal_node_id":"0.0-64.0","params":{"nStudents":8,"maxExamples":70,"completionMinutes":15,"basePay":3,"maxBonus":6,"perTrialBonus":0.7,"perTrialBonusThreshold":0.08,"exampleCost":0.01},"classroomParams":{"A":{"a":1,"b":9},"B":{"a":9,"b":1}},"conditions":["nonSeqFull","nonSeqPartial","seqNoFeedback","seqFeedback"],"classroomPairings":[["A","B"]],"coinWeights":[0.3,0.7],"subjectId":"A1TARNH07A75CG","assignmentId":"3DUZQ9U6SNAR8123AEBRKRLJF4USVO","hitId":"33KGGVH24U3HWMAA68SNNSZ85PBX13","url":"https://gershmanlab.com/experiments/alicia/teaching/experiment/?hitId=33KGGVH24U3HWMAA68SNNSZ85PBX13&workerId=A1TARNH07A75CG&assignmentId=3DUZQ9U6SNAR8123AEBRKRLJF4USVO&a=6QUD5&tp_a=6QUD5&b=3DUZQ9U6SNAR8123AEBRKRLJF4USVO&tp_b=3DUZQ9U6SNAR8123AEBRKRLJF4USVO&c=368485&tp_c=368485"},{"rt":5792,"stimulus":"\n                <h3>Student 8's first guess</h3>\n                <p>The student's first guess was that <b style=\"color:Orange;\">35</b> out of every 100 turtles are                     orange and <b style=\"color:Purple;\">65</b> out of every 100 turtles are purple.</p>\n                <h3>Student 8's second guess</h3>\n                <p>The student's second guess was that <b style=\"color:Orange;\">34</b> out of every 100 turtles are                     orange and <b style=\"color:Purple;\">66</b> out of every 100 turtles are purple.</p>\n                <p>You received a bonus of <b>$0.22</b> based on the student's second guess.</p>\n                <p>Total bonus so far: <b>$0.22</b></p>\n                <p>Press any key to continue.</p>\n                ","response":" ","trial_type":"html-keyboard-response","trial_index":71,"time_elapsed":892444,"internal_node_id":"0.0-65.0","params":{"nStudents":8,"maxExamples":70,"completionMinutes":15,"basePay":3,"maxBonus":6,"perTrialBonus":0.7,"perTrialBonusThreshold":0.08,"exampleCost":0.01},"classroomParams":{"A":{"a":1,"b":9},"B":{"a":9,"b":1}},"conditions":["nonSeqFull","nonSeqPartial","seqNoFeedback","seqFeedback"],"classroomPairings":[["A","B"]],"coinWeights":[0.3,0.7],"subjectId":"A1TARNH07A75CG","assignmentId":"3DUZQ9U6SNAR8123AEBRKRLJF4USVO","hitId":"33KGGVH24U3HWMAA68SNNSZ85PBX13","url":"https://gershmanlab.com/experiments/alicia/teaching/experiment/?hitId=33KGGVH24U3HWMAA68SNNSZ85PBX13&workerId=A1TARNH07A75CG&assignmentId=3DUZQ9U6SNAR8123AEBRKRLJF4USVO&a=6QUD5&tp_a=6QUD5&b=3DUZQ9U6SNAR8123AEBRKRLJF4USVO&tp_b=3DUZQ9U6SNAR8123AEBRKRLJF4USVO&c=368485&tp_c=368485"},{"rt":87471,"response":{"gender":"male","age":"31","understood":"yes","strategy":"No particular strategy ","comments":"no"},"type":"response","trial_type":"survey-html-form","trial_index":72,"time_elapsed":979919,"internal_node_id":"0.0-67.0","params":{"nStudents":8,"maxExamples":70,"completionMinutes":15,"basePay":3,"maxBonus":6,"perTrialBonus":0.7,"perTrialBonusThreshold":0.08,"exampleCost":0.01},"classroomParams":{"A":{"a":1,"b":9},"B":{"a":9,"b":1}},"conditions":["nonSeqFull","nonSeqPartial","seqNoFeedback","seqFeedback"],"classroomPairings":[["A","B"]],"coinWeights":[0.3,0.7],"subjectId":"A1TARNH07A75CG","assignmentId":"3DUZQ9U6SNAR8123AEBRKRLJF4USVO","hitId":"33KGGVH24U3HWMAA68SNNSZ85PBX13","url":"https://gershmanlab.com/experiments/alicia/teaching/experiment/?hitId=33KGGVH24U3HWMAA68SNNSZ85PBX13&workerId=A1TARNH07A75CG&assignmentId=3DUZQ9U6SNAR8123AEBRKRLJF4USVO&a=6QUD5&tp_a=6QUD5&b=3DUZQ9U6SNAR8123AEBRKRLJF4USVO&tp_b=3DUZQ9U6SNAR8123AEBRKRLJF4USVO&c=368485&tp_c=368485","totalBonus":0.22}]