[{"rt":1682,"stimulus":"Welcome to the experiment. Press any key to begin.","response":" ","trial_type":"html-keyboard-response","trial_index":0,"time_elapsed":1713,"internal_node_id":"0.0-0.0","params":{"nStudents":8,"maxExamples":70,"completionMinutes":15,"basePay":3,"maxBonus":6,"perTrialBonus":0.7,"perTrialBonusThreshold":0.08,"exampleCost":0.01},"classroomParams":{"A":{"a":1,"b":9},"B":{"a":9,"b":1}},"conditions":["nonSeqFull","nonSeqPartial","seqNoFeedback","seqFeedback"],"classroomPairings":[["A","B"]],"coinWeights":[0.3,0.7],"subjectId":"A3CD3C99T8S6ON","assignmentId":"30BXRYBRP5JFXHOSPU4O2FXVD2GWHI","hitId":"391FPZIE4C80JT1T3SKLV8GBSWQUH7","url":"https://gershmanlab.com/experiments/alicia/teaching/experiment/?hitId=391FPZIE4C80JT1T3SKLV8GBSWQUH7&workerId=A3CD3C99T8S6ON&assignmentId=30BXRYBRP5JFXHOSPU4O2FXVD2GWHI&a=RRB05&tp_a=RRB05&b=30BXRYBRP5JFXHOSPU4O2FXVD2GWHI&tp_b=30BXRYBRP5JFXHOSPU4O2FXVD2GWHI&c=368485&tp_c=368485"},{"rt":4908,"stimulus":"\n        <h3>Please read this consent agreement carefully before deciding whether to participate in this experiment.</h3>\n        <p><b>Purpose of the research:</b> To examine how people teach effectively.</p>\n        <p><b>What you will do in this research:</b> You will teach students the turtle composition of different islands.</p>\n        <p><b>Time required:</b> This experiment will take 15 minutes to complete.</p>\n        <p><b>Risks:</b> There are no anticipated risks associated with participating in this study.             The effects of participating should be comparable to those you would experience from viewing a computer monitor             and using a mouse and keyboard for the duration of the experiment.</p>\n        <p><b>Benefits:</b> The study provides important information about the nature of teaching.</p>\n        <p><b>Compensation:</b> You will receive <b>$3</b> for completing the experiment and a performance bonus of up to <b>$6</b>.</p>\n        <p><b>Confidentiality:</b> Your participation in this study will remain confidential.             No personally identifiable information will be associated with your data.             Your de-identified data may be shared with other researchers and used in future projects.</p>\n        <p><b>Participation and withdrawal:</b> Your participation in this study is completely voluntary and             you may refuse to participate or you may choose to withdraw at any time without penalty or loss of\n            benefits to which you are otherwise entitled.</p>\n        <p><b>How to contact the researcher:</b> If you have questions or concerns about your participation            or payment, or want to request a summary of research findings, please contact\n            Alicia Chen, aliciachen@college.harvard.edu.</p>\n        <p><b>Whom to contact about your rights in this research:</b> For questions, concerns, suggestions,             or complaints that have not been or cannot be addressed by the researcher, or to report             research-related harm, please contact the Committee on the Use of Human Subjects in Research at Harvard University,             1414 Massachusetts Avenue, Second Floor, Cambridge, MA 02138. Phone: 617-496-2847. Email: cuhs@fas.harvard.edu.</p>\n        ","response":0,"trial_type":"html-button-response","trial_index":1,"time_elapsed":6624,"internal_node_id":"0.0-1.0","params":{"nStudents":8,"maxExamples":70,"completionMinutes":15,"basePay":3,"maxBonus":6,"perTrialBonus":0.7,"perTrialBonusThreshold":0.08,"exampleCost":0.01},"classroomParams":{"A":{"a":1,"b":9},"B":{"a":9,"b":1}},"conditions":["nonSeqFull","nonSeqPartial","seqNoFeedback","seqFeedback"],"classroomPairings":[["A","B"]],"coinWeights":[0.3,0.7],"subjectId":"A3CD3C99T8S6ON","assignmentId":"30BXRYBRP5JFXHOSPU4O2FXVD2GWHI","hitId":"391FPZIE4C80JT1T3SKLV8GBSWQUH7","url":"https://gershmanlab.com/experiments/alicia/teaching/experiment/?hitId=391FPZIE4C80JT1T3SKLV8GBSWQUH7&workerId=A3CD3C99T8S6ON&assignmentId=30BXRYBRP5JFXHOSPU4O2FXVD2GWHI&a=RRB05&tp_a=RRB05&b=30BXRYBRP5JFXHOSPU4O2FXVD2GWHI&tp_b=30BXRYBRP5JFXHOSPU4O2FXVD2GWHI&c=368485&tp_c=368485"},{"view_history":[{"page_index":0,"viewing_time":6013},{"page_index":1,"viewing_time":2385},{"page_index":2,"viewing_time":3439},{"page_index":3,"viewing_time":12153},{"page_index":4,"viewing_time":8760},{"page_index":5,"viewing_time":5663},{"page_index":6,"viewing_time":22088},{"page_index":7,"viewing_time":15128},{"page_index":8,"viewing_time":10071}],"rt":85702,"trial_type":"instructions","trial_index":2,"time_elapsed":92328,"internal_node_id":"0.0-2.0-0.0","params":{"nStudents":8,"maxExamples":70,"completionMinutes":15,"basePay":3,"maxBonus":6,"perTrialBonus":0.7,"perTrialBonusThreshold":0.08,"exampleCost":0.01},"classroomParams":{"A":{"a":1,"b":9},"B":{"a":9,"b":1}},"conditions":["nonSeqFull","nonSeqPartial","seqNoFeedback","seqFeedback"],"classroomPairings":[["A","B"]],"coinWeights":[0.3,0.7],"subjectId":"A3CD3C99T8S6ON","assignmentId":"30BXRYBRP5JFXHOSPU4O2FXVD2GWHI","hitId":"391FPZIE4C80JT1T3SKLV8GBSWQUH7","url":"https://gershmanlab.com/experiments/alicia/teaching/experiment/?hitId=391FPZIE4C80JT1T3SKLV8GBSWQUH7&workerId=A3CD3C99T8S6ON&assignmentId=30BXRYBRP5JFXHOSPU4O2FXVD2GWHI&a=RRB05&tp_a=RRB05&b=30BXRYBRP5JFXHOSPU4O2FXVD2GWHI&tp_b=30BXRYBRP5JFXHOSPU4O2FXVD2GWHI&c=368485&tp_c=368485"},{"rt":28023,"response":{"Q0":"Students will have seen a different number of orange and purple turtles before seeing the example turtles you select for them.","Q1":"By <b>considering the student's past experience</b> so that I can teach efficiently and accurately/helpfully at the same time (because each turtle I send to the student costs money!).","Q2":"No, I will teach a <b>new</b> student each time.","Q3":"Based on the student's second (and final) guess."},"question_order":[3,2,1,0],"trial_type":"survey-multi-choice","trial_index":3,"time_elapsed":120353,"internal_node_id":"0.0-2.0-1.0","params":{"nStudents":8,"maxExamples":70,"completionMinutes":15,"basePay":3,"maxBonus":6,"perTrialBonus":0.7,"perTrialBonusThreshold":0.08,"exampleCost":0.01},"classroomParams":{"A":{"a":1,"b":9},"B":{"a":9,"b":1}},"conditions":["nonSeqFull","nonSeqPartial","seqNoFeedback","seqFeedback"],"classroomPairings":[["A","B"]],"coinWeights":[0.3,0.7],"subjectId":"A3CD3C99T8S6ON","assignmentId":"30BXRYBRP5JFXHOSPU4O2FXVD2GWHI","hitId":"391FPZIE4C80JT1T3SKLV8GBSWQUH7","url":"https://gershmanlab.com/experiments/alicia/teaching/experiment/?hitId=391FPZIE4C80JT1T3SKLV8GBSWQUH7&workerId=A3CD3C99T8S6ON&assignmentId=30BXRYBRP5JFXHOSPU4O2FXVD2GWHI&a=RRB05&tp_a=RRB05&b=30BXRYBRP5JFXHOSPU4O2FXVD2GWHI&tp_b=30BXRYBRP5JFXHOSPU4O2FXVD2GWHI&c=368485&tp_c=368485","pass":true},{"rt":null,"stimulus":"<div style=\"font-size:30px;\">Congrats on passing the comprehension quiz! The experiment will begin in a few seconds.</div>","response":null,"trial_type":"html-keyboard-response","trial_index":4,"time_elapsed":123361,"internal_node_id":"0.0-3.0","params":{"nStudents":8,"maxExamples":70,"completionMinutes":15,"basePay":3,"maxBonus":6,"perTrialBonus":0.7,"perTrialBonusThreshold":0.08,"exampleCost":0.01},"classroomParams":{"A":{"a":1,"b":9},"B":{"a":9,"b":1}},"conditions":["nonSeqFull","nonSeqPartial","seqNoFeedback","seqFeedback"],"classroomPairings":[["A","B"]],"coinWeights":[0.3,0.7],"subjectId":"A3CD3C99T8S6ON","assignmentId":"30BXRYBRP5JFXHOSPU4O2FXVD2GWHI","hitId":"391FPZIE4C80JT1T3SKLV8GBSWQUH7","url":"https://gershmanlab.com/experiments/alicia/teaching/experiment/?hitId=391FPZIE4C80JT1T3SKLV8GBSWQUH7&workerId=A3CD3C99T8S6ON&assignmentId=30BXRYBRP5JFXHOSPU4O2FXVD2GWHI&a=RRB05&tp_a=RRB05&b=30BXRYBRP5JFXHOSPU4O2FXVD2GWHI&tp_b=30BXRYBRP5JFXHOSPU4O2FXVD2GWHI&c=368485&tp_c=368485"},{"rt":null,"stimulus":"<div style=\"font-size:50px;\">First student</div>","response":null,"trial_type":"html-keyboard-response","trial_index":5,"time_elapsed":126378,"internal_node_id":"0.0-4.0","params":{"nStudents":8,"maxExamples":70,"completionMinutes":15,"basePay":3,"maxBonus":6,"perTrialBonus":0.7,"perTrialBonusThreshold":0.08,"exampleCost":0.01},"classroomParams":{"A":{"a":1,"b":9},"B":{"a":9,"b":1}},"conditions":["nonSeqFull","nonSeqPartial","seqNoFeedback","seqFeedback"],"classroomPairings":[["A","B"]],"coinWeights":[0.3,0.7],"subjectId":"A3CD3C99T8S6ON","assignmentId":"30BXRYBRP5JFXHOSPU4O2FXVD2GWHI","hitId":"391FPZIE4C80JT1T3SKLV8GBSWQUH7","url":"https://gershmanlab.com/experiments/alicia/teaching/experiment/?hitId=391FPZIE4C80JT1T3SKLV8GBSWQUH7&workerId=A3CD3C99T8S6ON&assignmentId=30BXRYBRP5JFXHOSPU4O2FXVD2GWHI&a=RRB05&tp_a=RRB05&b=30BXRYBRP5JFXHOSPU4O2FXVD2GWHI&tp_b=30BXRYBRP5JFXHOSPU4O2FXVD2GWHI&c=368485&tp_c=368485"},{"rt":4643,"stimulus":"\n            <h4 style=\"color:Blue;\">Student 1</h4>\n            <h2>On this island, <b style=\"color:Orange;\">7</b> out of every 10 turtles are orange and <b style=\"color:Purple;\">3</b> out of every 10 turtles are purple.</h2>\n            <p>In this block, you will be teaching <b>one</b> lesson to Student 1.</p>\n            <p> </p>\n            <p>You will receive feedback when you are finished with teaching the student.</p>\n            <p></p>","response":0,"trial_type":"html-button-response","trial_index":6,"time_elapsed":131023,"internal_node_id":"0.0-5.0","params":{"nStudents":8,"maxExamples":70,"completionMinutes":15,"basePay":3,"maxBonus":6,"perTrialBonus":0.7,"perTrialBonusThreshold":0.08,"exampleCost":0.01},"classroomParams":{"A":{"a":1,"b":9},"B":{"a":9,"b":1}},"conditions":["nonSeqFull","nonSeqPartial","seqNoFeedback","seqFeedback"],"classroomPairings":[["A","B"]],"coinWeights":[0.3,0.7],"subjectId":"A3CD3C99T8S6ON","assignmentId":"30BXRYBRP5JFXHOSPU4O2FXVD2GWHI","hitId":"391FPZIE4C80JT1T3SKLV8GBSWQUH7","url":"https://gershmanlab.com/experiments/alicia/teaching/experiment/?hitId=391FPZIE4C80JT1T3SKLV8GBSWQUH7&workerId=A3CD3C99T8S6ON&assignmentId=30BXRYBRP5JFXHOSPU4O2FXVD2GWHI&a=RRB05&tp_a=RRB05&b=30BXRYBRP5JFXHOSPU4O2FXVD2GWHI&tp_b=30BXRYBRP5JFXHOSPU4O2FXVD2GWHI&c=368485&tp_c=368485"},{"rt":20207,"response":{"heads":"7","tails":"3"},"type":"response","condition":"nonSeqPartial","trueTheta":0.7,"classrooms":["A","B"],"studentTrueClassroom":"B","exampleSet":"first","trial_type":"survey-html-form","trial_index":7,"time_elapsed":151232,"internal_node_id":"0.0-6.0-0.0","params":{"nStudents":8,"maxExamples":70,"completionMinutes":15,"basePay":3,"maxBonus":6,"perTrialBonus":0.7,"perTrialBonusThreshold":0.08,"exampleCost":0.01},"classroomParams":{"A":{"a":1,"b":9},"B":{"a":9,"b":1}},"conditions":["nonSeqFull","nonSeqPartial","seqNoFeedback","seqFeedback"],"classroomPairings":[["A","B"]],"coinWeights":[0.3,0.7],"subjectId":"A3CD3C99T8S6ON","assignmentId":"30BXRYBRP5JFXHOSPU4O2FXVD2GWHI","hitId":"391FPZIE4C80JT1T3SKLV8GBSWQUH7","url":"https://gershmanlab.com/experiments/alicia/teaching/experiment/?hitId=391FPZIE4C80JT1T3SKLV8GBSWQUH7&workerId=A3CD3C99T8S6ON&assignmentId=30BXRYBRP5JFXHOSPU4O2FXVD2GWHI&a=RRB05&tp_a=RRB05&b=30BXRYBRP5JFXHOSPU4O2FXVD2GWHI&tp_b=30BXRYBRP5JFXHOSPU4O2FXVD2GWHI&c=368485&tp_c=368485","heads":7,"tails":3,"studentIndex":0,"studentTrueHypers":{"a":9,"b":1},"studentGuess":"0.80","delta":0.10000000000000009,"totalExamples":10,"bonus":0,"bonusSoFar":0},{"rt":null,"stimulus":"Sending turtles to student... ","response":null,"trial_type":"html-keyboard-response","trial_index":8,"time_elapsed":152735,"internal_node_id":"0.0-7.0","params":{"nStudents":8,"maxExamples":70,"completionMinutes":15,"basePay":3,"maxBonus":6,"perTrialBonus":0.7,"perTrialBonusThreshold":0.08,"exampleCost":0.01},"classroomParams":{"A":{"a":1,"b":9},"B":{"a":9,"b":1}},"conditions":["nonSeqFull","nonSeqPartial","seqNoFeedback","seqFeedback"],"classroomPairings":[["A","B"]],"coinWeights":[0.3,0.7],"subjectId":"A3CD3C99T8S6ON","assignmentId":"30BXRYBRP5JFXHOSPU4O2FXVD2GWHI","hitId":"391FPZIE4C80JT1T3SKLV8GBSWQUH7","url":"https://gershmanlab.com/experiments/alicia/teaching/experiment/?hitId=391FPZIE4C80JT1T3SKLV8GBSWQUH7&workerId=A3CD3C99T8S6ON&assignmentId=30BXRYBRP5JFXHOSPU4O2FXVD2GWHI&a=RRB05&tp_a=RRB05&b=30BXRYBRP5JFXHOSPU4O2FXVD2GWHI&tp_b=30BXRYBRP5JFXHOSPU4O2FXVD2GWHI&c=368485&tp_c=368485"},{"rt":null,"stimulus":"Turtles sent to student! Waiting for student...","response":null,"trial_type":"html-keyboard-response","trial_index":9,"time_elapsed":157242,"internal_node_id":"0.0-8.0","params":{"nStudents":8,"maxExamples":70,"completionMinutes":15,"basePay":3,"maxBonus":6,"perTrialBonus":0.7,"perTrialBonusThreshold":0.08,"exampleCost":0.01},"classroomParams":{"A":{"a":1,"b":9},"B":{"a":9,"b":1}},"conditions":["nonSeqFull","nonSeqPartial","seqNoFeedback","seqFeedback"],"classroomPairings":[["A","B"]],"coinWeights":[0.3,0.7],"subjectId":"A3CD3C99T8S6ON","assignmentId":"30BXRYBRP5JFXHOSPU4O2FXVD2GWHI","hitId":"391FPZIE4C80JT1T3SKLV8GBSWQUH7","url":"https://gershmanlab.com/experiments/alicia/teaching/experiment/?hitId=391FPZIE4C80JT1T3SKLV8GBSWQUH7&workerId=A3CD3C99T8S6ON&assignmentId=30BXRYBRP5JFXHOSPU4O2FXVD2GWHI&a=RRB05&tp_a=RRB05&b=30BXRYBRP5JFXHOSPU4O2FXVD2GWHI&tp_b=30BXRYBRP5JFXHOSPU4O2FXVD2GWHI&c=368485&tp_c=368485"},{"rt":7799,"stimulus":"<h2>Student guess</h2>\n                <p>The student guessed that <b style=\"color:Orange;\">80</b> out of every 100 turtles are                     orange and <b style=\"color:Purple;\">20</b> out of every 100 turtles are purple.</p>\n                <p>You received a bonus of <b>$0</b>. Total bonus so far: <b>$0.00</b></b></p>\n                <p></p>\n                <p>Press any key to continue.</p>\n                ","response":" ","trial_type":"html-keyboard-response","trial_index":10,"time_elapsed":165044,"internal_node_id":"0.0-9.0","params":{"nStudents":8,"maxExamples":70,"completionMinutes":15,"basePay":3,"maxBonus":6,"perTrialBonus":0.7,"perTrialBonusThreshold":0.08,"exampleCost":0.01},"classroomParams":{"A":{"a":1,"b":9},"B":{"a":9,"b":1}},"conditions":["nonSeqFull","nonSeqPartial","seqNoFeedback","seqFeedback"],"classroomPairings":[["A","B"]],"coinWeights":[0.3,0.7],"subjectId":"A3CD3C99T8S6ON","assignmentId":"30BXRYBRP5JFXHOSPU4O2FXVD2GWHI","hitId":"391FPZIE4C80JT1T3SKLV8GBSWQUH7","url":"https://gershmanlab.com/experiments/alicia/teaching/experiment/?hitId=391FPZIE4C80JT1T3SKLV8GBSWQUH7&workerId=A3CD3C99T8S6ON&assignmentId=30BXRYBRP5JFXHOSPU4O2FXVD2GWHI&a=RRB05&tp_a=RRB05&b=30BXRYBRP5JFXHOSPU4O2FXVD2GWHI&tp_b=30BXRYBRP5JFXHOSPU4O2FXVD2GWHI&c=368485&tp_c=368485"},{"rt":null,"stimulus":"<div style=\"font-size:60px;\">Next student</div>","response":null,"trial_type":"html-keyboard-response","trial_index":11,"time_elapsed":167057,"internal_node_id":"0.0-10.0-0.0","params":{"nStudents":8,"maxExamples":70,"completionMinutes":15,"basePay":3,"maxBonus":6,"perTrialBonus":0.7,"perTrialBonusThreshold":0.08,"exampleCost":0.01},"classroomParams":{"A":{"a":1,"b":9},"B":{"a":9,"b":1}},"conditions":["nonSeqFull","nonSeqPartial","seqNoFeedback","seqFeedback"],"classroomPairings":[["A","B"]],"coinWeights":[0.3,0.7],"subjectId":"A3CD3C99T8S6ON","assignmentId":"30BXRYBRP5JFXHOSPU4O2FXVD2GWHI","hitId":"391FPZIE4C80JT1T3SKLV8GBSWQUH7","url":"https://gershmanlab.com/experiments/alicia/teaching/experiment/?hitId=391FPZIE4C80JT1T3SKLV8GBSWQUH7&workerId=A3CD3C99T8S6ON&assignmentId=30BXRYBRP5JFXHOSPU4O2FXVD2GWHI&a=RRB05&tp_a=RRB05&b=30BXRYBRP5JFXHOSPU4O2FXVD2GWHI&tp_b=30BXRYBRP5JFXHOSPU4O2FXVD2GWHI&c=368485&tp_c=368485"},{"rt":5484,"stimulus":"\n            <h4 style=\"color:Blue;\">Student 2</h4>\n            <h2>On this island, <b style=\"color:Orange;\">7</b> out of every 10 turtles are orange and <b style=\"color:Purple;\">3</b> out of every 10 turtles are purple.</h2>\n            <p>In this block, you will be teaching <b>two</b> lessons to Student 2.</p>\n            <p> You will <b>not</b> see the student's guess after the first lesson.</p>\n            <p>You will receive feedback when you are finished with teaching the student.</p>\n            <p></p>","response":0,"trial_type":"html-button-response","trial_index":12,"time_elapsed":172543,"internal_node_id":"0.0-11.0","params":{"nStudents":8,"maxExamples":70,"completionMinutes":15,"basePay":3,"maxBonus":6,"perTrialBonus":0.7,"perTrialBonusThreshold":0.08,"exampleCost":0.01},"classroomParams":{"A":{"a":1,"b":9},"B":{"a":9,"b":1}},"conditions":["nonSeqFull","nonSeqPartial","seqNoFeedback","seqFeedback"],"classroomPairings":[["A","B"]],"coinWeights":[0.3,0.7],"subjectId":"A3CD3C99T8S6ON","assignmentId":"30BXRYBRP5JFXHOSPU4O2FXVD2GWHI","hitId":"391FPZIE4C80JT1T3SKLV8GBSWQUH7","url":"https://gershmanlab.com/experiments/alicia/teaching/experiment/?hitId=391FPZIE4C80JT1T3SKLV8GBSWQUH7&workerId=A3CD3C99T8S6ON&assignmentId=30BXRYBRP5JFXHOSPU4O2FXVD2GWHI&a=RRB05&tp_a=RRB05&b=30BXRYBRP5JFXHOSPU4O2FXVD2GWHI&tp_b=30BXRYBRP5JFXHOSPU4O2FXVD2GWHI&c=368485&tp_c=368485"},{"rt":11399,"response":{"heads":"14","tails":"6"},"type":"response","condition":"seqNoFeedback","trueTheta":0.7,"classrooms":["A","B"],"studentTrueClassroom":"A","exampleSet":"first","trial_type":"survey-html-form","trial_index":13,"time_elapsed":183944,"internal_node_id":"0.0-12.0-0.0","params":{"nStudents":8,"maxExamples":70,"completionMinutes":15,"basePay":3,"maxBonus":6,"perTrialBonus":0.7,"perTrialBonusThreshold":0.08,"exampleCost":0.01},"classroomParams":{"A":{"a":1,"b":9},"B":{"a":9,"b":1}},"conditions":["nonSeqFull","nonSeqPartial","seqNoFeedback","seqFeedback"],"classroomPairings":[["A","B"]],"coinWeights":[0.3,0.7],"subjectId":"A3CD3C99T8S6ON","assignmentId":"30BXRYBRP5JFXHOSPU4O2FXVD2GWHI","hitId":"391FPZIE4C80JT1T3SKLV8GBSWQUH7","url":"https://gershmanlab.com/experiments/alicia/teaching/experiment/?hitId=391FPZIE4C80JT1T3SKLV8GBSWQUH7&workerId=A3CD3C99T8S6ON&assignmentId=30BXRYBRP5JFXHOSPU4O2FXVD2GWHI&a=RRB05&tp_a=RRB05&b=30BXRYBRP5JFXHOSPU4O2FXVD2GWHI&tp_b=30BXRYBRP5JFXHOSPU4O2FXVD2GWHI&c=368485&tp_c=368485","heads":14,"tails":6,"studentIndex":1,"studentTrueHypers":{"a":1,"b":9},"studentGuess":"0.50","delta":0.19999999999999996,"totalExamples":20,"bonusSoFar":0},{"rt":null,"stimulus":"Sending turtles to student... ","response":null,"trial_type":"html-keyboard-response","trial_index":14,"time_elapsed":185203,"internal_node_id":"0.0-13.0","params":{"nStudents":8,"maxExamples":70,"completionMinutes":15,"basePay":3,"maxBonus":6,"perTrialBonus":0.7,"perTrialBonusThreshold":0.08,"exampleCost":0.01},"classroomParams":{"A":{"a":1,"b":9},"B":{"a":9,"b":1}},"conditions":["nonSeqFull","nonSeqPartial","seqNoFeedback","seqFeedback"],"classroomPairings":[["A","B"]],"coinWeights":[0.3,0.7],"subjectId":"A3CD3C99T8S6ON","assignmentId":"30BXRYBRP5JFXHOSPU4O2FXVD2GWHI","hitId":"391FPZIE4C80JT1T3SKLV8GBSWQUH7","url":"https://gershmanlab.com/experiments/alicia/teaching/experiment/?hitId=391FPZIE4C80JT1T3SKLV8GBSWQUH7&workerId=A3CD3C99T8S6ON&assignmentId=30BXRYBRP5JFXHOSPU4O2FXVD2GWHI&a=RRB05&tp_a=RRB05&b=30BXRYBRP5JFXHOSPU4O2FXVD2GWHI&tp_b=30BXRYBRP5JFXHOSPU4O2FXVD2GWHI&c=368485&tp_c=368485"},{"rt":null,"stimulus":"Turtles sent to student! Waiting for student...","response":null,"trial_type":"html-keyboard-response","trial_index":15,"time_elapsed":189211,"internal_node_id":"0.0-14.0","params":{"nStudents":8,"maxExamples":70,"completionMinutes":15,"basePay":3,"maxBonus":6,"perTrialBonus":0.7,"perTrialBonusThreshold":0.08,"exampleCost":0.01},"classroomParams":{"A":{"a":1,"b":9},"B":{"a":9,"b":1}},"conditions":["nonSeqFull","nonSeqPartial","seqNoFeedback","seqFeedback"],"classroomPairings":[["A","B"]],"coinWeights":[0.3,0.7],"subjectId":"A3CD3C99T8S6ON","assignmentId":"30BXRYBRP5JFXHOSPU4O2FXVD2GWHI","hitId":"391FPZIE4C80JT1T3SKLV8GBSWQUH7","url":"https://gershmanlab.com/experiments/alicia/teaching/experiment/?hitId=391FPZIE4C80JT1T3SKLV8GBSWQUH7&workerId=A3CD3C99T8S6ON&assignmentId=30BXRYBRP5JFXHOSPU4O2FXVD2GWHI&a=RRB05&tp_a=RRB05&b=30BXRYBRP5JFXHOSPU4O2FXVD2GWHI&tp_b=30BXRYBRP5JFXHOSPU4O2FXVD2GWHI&c=368485&tp_c=368485"},{"rt":24737,"response":{"heads":"14","tails":"6"},"type":"response","condition":"seqNoFeedback","trueTheta":0.7,"classrooms":["A","B"],"studentTrueClassroom":"A","exampleSet":"second","trial_type":"survey-html-form","trial_index":16,"time_elapsed":213952,"internal_node_id":"0.0-15.0-0.0","params":{"nStudents":8,"maxExamples":70,"completionMinutes":15,"basePay":3,"maxBonus":6,"perTrialBonus":0.7,"perTrialBonusThreshold":0.08,"exampleCost":0.01},"classroomParams":{"A":{"a":1,"b":9},"B":{"a":9,"b":1}},"conditions":["nonSeqFull","nonSeqPartial","seqNoFeedback","seqFeedback"],"classroomPairings":[["A","B"]],"coinWeights":[0.3,0.7],"subjectId":"A3CD3C99T8S6ON","assignmentId":"30BXRYBRP5JFXHOSPU4O2FXVD2GWHI","hitId":"391FPZIE4C80JT1T3SKLV8GBSWQUH7","url":"https://gershmanlab.com/experiments/alicia/teaching/experiment/?hitId=391FPZIE4C80JT1T3SKLV8GBSWQUH7&workerId=A3CD3C99T8S6ON&assignmentId=30BXRYBRP5JFXHOSPU4O2FXVD2GWHI&a=RRB05&tp_a=RRB05&b=30BXRYBRP5JFXHOSPU4O2FXVD2GWHI&tp_b=30BXRYBRP5JFXHOSPU4O2FXVD2GWHI&c=368485&tp_c=368485","firstResponseHeads":14,"firstResponseTails":6,"secondResponseHeads":14,"secondResponseTails":6,"totalHeads":28,"totalTails":12,"studentIndex":1,"studentTrueHypers":{"a":1,"b":9},"studentGuess":"0.58","delta":0.12,"bonus":0,"bonusSoFar":0,"totalExamples":40},{"rt":null,"stimulus":"Sending turtles to student... ","response":null,"trial_type":"html-keyboard-response","trial_index":17,"time_elapsed":215213,"internal_node_id":"0.0-16.0","params":{"nStudents":8,"maxExamples":70,"completionMinutes":15,"basePay":3,"maxBonus":6,"perTrialBonus":0.7,"perTrialBonusThreshold":0.08,"exampleCost":0.01},"classroomParams":{"A":{"a":1,"b":9},"B":{"a":9,"b":1}},"conditions":["nonSeqFull","nonSeqPartial","seqNoFeedback","seqFeedback"],"classroomPairings":[["A","B"]],"coinWeights":[0.3,0.7],"subjectId":"A3CD3C99T8S6ON","assignmentId":"30BXRYBRP5JFXHOSPU4O2FXVD2GWHI","hitId":"391FPZIE4C80JT1T3SKLV8GBSWQUH7","url":"https://gershmanlab.com/experiments/alicia/teaching/experiment/?hitId=391FPZIE4C80JT1T3SKLV8GBSWQUH7&workerId=A3CD3C99T8S6ON&assignmentId=30BXRYBRP5JFXHOSPU4O2FXVD2GWHI&a=RRB05&tp_a=RRB05&b=30BXRYBRP5JFXHOSPU4O2FXVD2GWHI&tp_b=30BXRYBRP5JFXHOSPU4O2FXVD2GWHI&c=368485&tp_c=368485"},{"rt":null,"stimulus":"Turtles sent to student! Waiting for student...","response":null,"trial_type":"html-keyboard-response","trial_index":18,"time_elapsed":219726,"internal_node_id":"0.0-17.0","params":{"nStudents":8,"maxExamples":70,"completionMinutes":15,"basePay":3,"maxBonus":6,"perTrialBonus":0.7,"perTrialBonusThreshold":0.08,"exampleCost":0.01},"classroomParams":{"A":{"a":1,"b":9},"B":{"a":9,"b":1}},"conditions":["nonSeqFull","nonSeqPartial","seqNoFeedback","seqFeedback"],"classroomPairings":[["A","B"]],"coinWeights":[0.3,0.7],"subjectId":"A3CD3C99T8S6ON","assignmentId":"30BXRYBRP5JFXHOSPU4O2FXVD2GWHI","hitId":"391FPZIE4C80JT1T3SKLV8GBSWQUH7","url":"https://gershmanlab.com/experiments/alicia/teaching/experiment/?hitId=391FPZIE4C80JT1T3SKLV8GBSWQUH7&workerId=A3CD3C99T8S6ON&assignmentId=30BXRYBRP5JFXHOSPU4O2FXVD2GWHI&a=RRB05&tp_a=RRB05&b=30BXRYBRP5JFXHOSPU4O2FXVD2GWHI&tp_b=30BXRYBRP5JFXHOSPU4O2FXVD2GWHI&c=368485&tp_c=368485"},{"rt":3968,"stimulus":"\n                <h3>Student 2's first guess</h3>\n                <p>The student's first guess was that <b style=\"color:Orange;\">50</b> out of every 100 turtles are                     orange and <b style=\"color:Purple;\">50</b> out of every 100 turtles are purple.</p>\n                <h3>Student 2's second guess</h3>\n                <p>The student's second guess was that <b style=\"color:Orange;\">58</b> out of every 100 turtles are                     orange and <b style=\"color:Purple;\">42</b> out of every 100 turtles are purple.</p>\n                <p>You received a bonus of <b>$0.00</b> based on the student's second guess.</p>\n                <p>Total bonus so far: <b>$0.00</b></p>\n                <p>Press any key to continue.</p>\n                ","response":" ","trial_type":"html-keyboard-response","trial_index":19,"time_elapsed":223698,"internal_node_id":"0.0-18.0","params":{"nStudents":8,"maxExamples":70,"completionMinutes":15,"basePay":3,"maxBonus":6,"perTrialBonus":0.7,"perTrialBonusThreshold":0.08,"exampleCost":0.01},"classroomParams":{"A":{"a":1,"b":9},"B":{"a":9,"b":1}},"conditions":["nonSeqFull","nonSeqPartial","seqNoFeedback","seqFeedback"],"classroomPairings":[["A","B"]],"coinWeights":[0.3,0.7],"subjectId":"A3CD3C99T8S6ON","assignmentId":"30BXRYBRP5JFXHOSPU4O2FXVD2GWHI","hitId":"391FPZIE4C80JT1T3SKLV8GBSWQUH7","url":"https://gershmanlab.com/experiments/alicia/teaching/experiment/?hitId=391FPZIE4C80JT1T3SKLV8GBSWQUH7&workerId=A3CD3C99T8S6ON&assignmentId=30BXRYBRP5JFXHOSPU4O2FXVD2GWHI&a=RRB05&tp_a=RRB05&b=30BXRYBRP5JFXHOSPU4O2FXVD2GWHI&tp_b=30BXRYBRP5JFXHOSPU4O2FXVD2GWHI&c=368485&tp_c=368485"},{"rt":null,"stimulus":"<div style=\"font-size:60px;\">Next student</div>","response":null,"trial_type":"html-keyboard-response","trial_index":20,"time_elapsed":225707,"internal_node_id":"0.0-19.0-0.0","params":{"nStudents":8,"maxExamples":70,"completionMinutes":15,"basePay":3,"maxBonus":6,"perTrialBonus":0.7,"perTrialBonusThreshold":0.08,"exampleCost":0.01},"classroomParams":{"A":{"a":1,"b":9},"B":{"a":9,"b":1}},"conditions":["nonSeqFull","nonSeqPartial","seqNoFeedback","seqFeedback"],"classroomPairings":[["A","B"]],"coinWeights":[0.3,0.7],"subjectId":"A3CD3C99T8S6ON","assignmentId":"30BXRYBRP5JFXHOSPU4O2FXVD2GWHI","hitId":"391FPZIE4C80JT1T3SKLV8GBSWQUH7","url":"https://gershmanlab.com/experiments/alicia/teaching/experiment/?hitId=391FPZIE4C80JT1T3SKLV8GBSWQUH7&workerId=A3CD3C99T8S6ON&assignmentId=30BXRYBRP5JFXHOSPU4O2FXVD2GWHI&a=RRB05&tp_a=RRB05&b=30BXRYBRP5JFXHOSPU4O2FXVD2GWHI&tp_b=30BXRYBRP5JFXHOSPU4O2FXVD2GWHI&c=368485&tp_c=368485"},{"rt":4338,"stimulus":"\n            <h4 style=\"color:Blue;\">Student 3</h4>\n            <h2>On this island, <b style=\"color:Orange;\">3</b> out of every 10 turtles are orange and <b style=\"color:Purple;\">7</b> out of every 10 turtles are purple.</h2>\n            <p>In this block, you will be teaching <b>two</b> lessons to Student 3.</p>\n            <p> You will <b>not</b> see the student's guess after the first lesson.</p>\n            <p>You will receive feedback when you are finished with teaching the student.</p>\n            <p></p>","response":0,"trial_type":"html-button-response","trial_index":21,"time_elapsed":230047,"internal_node_id":"0.0-20.0","params":{"nStudents":8,"maxExamples":70,"completionMinutes":15,"basePay":3,"maxBonus":6,"perTrialBonus":0.7,"perTrialBonusThreshold":0.08,"exampleCost":0.01},"classroomParams":{"A":{"a":1,"b":9},"B":{"a":9,"b":1}},"conditions":["nonSeqFull","nonSeqPartial","seqNoFeedback","seqFeedback"],"classroomPairings":[["A","B"]],"coinWeights":[0.3,0.7],"subjectId":"A3CD3C99T8S6ON","assignmentId":"30BXRYBRP5JFXHOSPU4O2FXVD2GWHI","hitId":"391FPZIE4C80JT1T3SKLV8GBSWQUH7","url":"https://gershmanlab.com/experiments/alicia/teaching/experiment/?hitId=391FPZIE4C80JT1T3SKLV8GBSWQUH7&workerId=A3CD3C99T8S6ON&assignmentId=30BXRYBRP5JFXHOSPU4O2FXVD2GWHI&a=RRB05&tp_a=RRB05&b=30BXRYBRP5JFXHOSPU4O2FXVD2GWHI&tp_b=30BXRYBRP5JFXHOSPU4O2FXVD2GWHI&c=368485&tp_c=368485"},{"rt":23695,"response":{"heads":"4","tails":"6"},"type":"response","condition":"seqNoFeedback","trueTheta":0.3,"classrooms":["A","B"],"studentTrueClassroom":"A","exampleSet":"first","trial_type":"survey-html-form","trial_index":22,"time_elapsed":253744,"internal_node_id":"0.0-21.0-0.0","params":{"nStudents":8,"maxExamples":70,"completionMinutes":15,"basePay":3,"maxBonus":6,"perTrialBonus":0.7,"perTrialBonusThreshold":0.08,"exampleCost":0.01},"classroomParams":{"A":{"a":1,"b":9},"B":{"a":9,"b":1}},"conditions":["nonSeqFull","nonSeqPartial","seqNoFeedback","seqFeedback"],"classroomPairings":[["A","B"]],"coinWeights":[0.3,0.7],"subjectId":"A3CD3C99T8S6ON","assignmentId":"30BXRYBRP5JFXHOSPU4O2FXVD2GWHI","hitId":"391FPZIE4C80JT1T3SKLV8GBSWQUH7","url":"https://gershmanlab.com/experiments/alicia/teaching/experiment/?hitId=391FPZIE4C80JT1T3SKLV8GBSWQUH7&workerId=A3CD3C99T8S6ON&assignmentId=30BXRYBRP5JFXHOSPU4O2FXVD2GWHI&a=RRB05&tp_a=RRB05&b=30BXRYBRP5JFXHOSPU4O2FXVD2GWHI&tp_b=30BXRYBRP5JFXHOSPU4O2FXVD2GWHI&c=368485&tp_c=368485","heads":4,"tails":6,"studentIndex":2,"studentTrueHypers":{"a":1,"b":9},"studentGuess":"0.25","delta":0.04999999999999999,"totalExamples":10,"bonusSoFar":0},{"rt":null,"stimulus":"Sending turtles to student... ","response":null,"trial_type":"html-keyboard-response","trial_index":23,"time_elapsed":255000,"internal_node_id":"0.0-22.0","params":{"nStudents":8,"maxExamples":70,"completionMinutes":15,"basePay":3,"maxBonus":6,"perTrialBonus":0.7,"perTrialBonusThreshold":0.08,"exampleCost":0.01},"classroomParams":{"A":{"a":1,"b":9},"B":{"a":9,"b":1}},"conditions":["nonSeqFull","nonSeqPartial","seqNoFeedback","seqFeedback"],"classroomPairings":[["A","B"]],"coinWeights":[0.3,0.7],"subjectId":"A3CD3C99T8S6ON","assignmentId":"30BXRYBRP5JFXHOSPU4O2FXVD2GWHI","hitId":"391FPZIE4C80JT1T3SKLV8GBSWQUH7","url":"https://gershmanlab.com/experiments/alicia/teaching/experiment/?hitId=391FPZIE4C80JT1T3SKLV8GBSWQUH7&workerId=A3CD3C99T8S6ON&assignmentId=30BXRYBRP5JFXHOSPU4O2FXVD2GWHI&a=RRB05&tp_a=RRB05&b=30BXRYBRP5JFXHOSPU4O2FXVD2GWHI&tp_b=30BXRYBRP5JFXHOSPU4O2FXVD2GWHI&c=368485&tp_c=368485"},{"rt":null,"stimulus":"Turtles sent to student! Waiting for student...","response":null,"trial_type":"html-keyboard-response","trial_index":24,"time_elapsed":260007,"internal_node_id":"0.0-23.0","params":{"nStudents":8,"maxExamples":70,"completionMinutes":15,"basePay":3,"maxBonus":6,"perTrialBonus":0.7,"perTrialBonusThreshold":0.08,"exampleCost":0.01},"classroomParams":{"A":{"a":1,"b":9},"B":{"a":9,"b":1}},"conditions":["nonSeqFull","nonSeqPartial","seqNoFeedback","seqFeedback"],"classroomPairings":[["A","B"]],"coinWeights":[0.3,0.7],"subjectId":"A3CD3C99T8S6ON","assignmentId":"30BXRYBRP5JFXHOSPU4O2FXVD2GWHI","hitId":"391FPZIE4C80JT1T3SKLV8GBSWQUH7","url":"https://gershmanlab.com/experiments/alicia/teaching/experiment/?hitId=391FPZIE4C80JT1T3SKLV8GBSWQUH7&workerId=A3CD3C99T8S6ON&assignmentId=30BXRYBRP5JFXHOSPU4O2FXVD2GWHI&a=RRB05&tp_a=RRB05&b=30BXRYBRP5JFXHOSPU4O2FXVD2GWHI&tp_b=30BXRYBRP5JFXHOSPU4O2FXVD2GWHI&c=368485&tp_c=368485"},{"rt":6174,"response":{"heads":"4","tails":"6"},"type":"response","condition":"seqNoFeedback","trueTheta":0.3,"classrooms":["A","B"],"studentTrueClassroom":"A","exampleSet":"second","trial_type":"survey-html-form","trial_index":25,"time_elapsed":266184,"internal_node_id":"0.0-24.0-0.0","params":{"nStudents":8,"maxExamples":70,"completionMinutes":15,"basePay":3,"maxBonus":6,"perTrialBonus":0.7,"perTrialBonusThreshold":0.08,"exampleCost":0.01},"classroomParams":{"A":{"a":1,"b":9},"B":{"a":9,"b":1}},"conditions":["nonSeqFull","nonSeqPartial","seqNoFeedback","seqFeedback"],"classroomPairings":[["A","B"]],"coinWeights":[0.3,0.7],"subjectId":"A3CD3C99T8S6ON","assignmentId":"30BXRYBRP5JFXHOSPU4O2FXVD2GWHI","hitId":"391FPZIE4C80JT1T3SKLV8GBSWQUH7","url":"https://gershmanlab.com/experiments/alicia/teaching/experiment/?hitId=391FPZIE4C80JT1T3SKLV8GBSWQUH7&workerId=A3CD3C99T8S6ON&assignmentId=30BXRYBRP5JFXHOSPU4O2FXVD2GWHI&a=RRB05&tp_a=RRB05&b=30BXRYBRP5JFXHOSPU4O2FXVD2GWHI&tp_b=30BXRYBRP5JFXHOSPU4O2FXVD2GWHI&c=368485&tp_c=368485","firstResponseHeads":4,"firstResponseTails":6,"secondResponseHeads":4,"secondResponseTails":6,"totalHeads":8,"totalTails":12,"studentIndex":2,"studentTrueHypers":{"a":1,"b":9},"studentGuess":"0.30","delta":0,"bonus":0.5,"bonusSoFar":0.5,"totalExamples":20},{"rt":null,"stimulus":"Sending turtles to student... ","response":null,"trial_type":"html-keyboard-response","trial_index":26,"time_elapsed":267439,"internal_node_id":"0.0-25.0","params":{"nStudents":8,"maxExamples":70,"completionMinutes":15,"basePay":3,"maxBonus":6,"perTrialBonus":0.7,"perTrialBonusThreshold":0.08,"exampleCost":0.01},"classroomParams":{"A":{"a":1,"b":9},"B":{"a":9,"b":1}},"conditions":["nonSeqFull","nonSeqPartial","seqNoFeedback","seqFeedback"],"classroomPairings":[["A","B"]],"coinWeights":[0.3,0.7],"subjectId":"A3CD3C99T8S6ON","assignmentId":"30BXRYBRP5JFXHOSPU4O2FXVD2GWHI","hitId":"391FPZIE4C80JT1T3SKLV8GBSWQUH7","url":"https://gershmanlab.com/experiments/alicia/teaching/experiment/?hitId=391FPZIE4C80JT1T3SKLV8GBSWQUH7&workerId=A3CD3C99T8S6ON&assignmentId=30BXRYBRP5JFXHOSPU4O2FXVD2GWHI&a=RRB05&tp_a=RRB05&b=30BXRYBRP5JFXHOSPU4O2FXVD2GWHI&tp_b=30BXRYBRP5JFXHOSPU4O2FXVD2GWHI&c=368485&tp_c=368485"},{"rt":null,"stimulus":"Turtles sent to student! Waiting for student...","response":null,"trial_type":"html-keyboard-response","trial_index":27,"time_elapsed":272451,"internal_node_id":"0.0-26.0","params":{"nStudents":8,"maxExamples":70,"completionMinutes":15,"basePay":3,"maxBonus":6,"perTrialBonus":0.7,"perTrialBonusThreshold":0.08,"exampleCost":0.01},"classroomParams":{"A":{"a":1,"b":9},"B":{"a":9,"b":1}},"conditions":["nonSeqFull","nonSeqPartial","seqNoFeedback","seqFeedback"],"classroomPairings":[["A","B"]],"coinWeights":[0.3,0.7],"subjectId":"A3CD3C99T8S6ON","assignmentId":"30BXRYBRP5JFXHOSPU4O2FXVD2GWHI","hitId":"391FPZIE4C80JT1T3SKLV8GBSWQUH7","url":"https://gershmanlab.com/experiments/alicia/teaching/experiment/?hitId=391FPZIE4C80JT1T3SKLV8GBSWQUH7&workerId=A3CD3C99T8S6ON&assignmentId=30BXRYBRP5JFXHOSPU4O2FXVD2GWHI&a=RRB05&tp_a=RRB05&b=30BXRYBRP5JFXHOSPU4O2FXVD2GWHI&tp_b=30BXRYBRP5JFXHOSPU4O2FXVD2GWHI&c=368485&tp_c=368485"},{"rt":5689,"stimulus":"\n                <h3>Student 3's first guess</h3>\n                <p>The student's first guess was that <b style=\"color:Orange;\">25</b> out of every 100 turtles are                     orange and <b style=\"color:Purple;\">75</b> out of every 100 turtles are purple.</p>\n                <h3>Student 3's second guess</h3>\n                <p>The student's second guess was that <b style=\"color:Orange;\">30</b> out of every 100 turtles are                     orange and <b style=\"color:Purple;\">70</b> out of every 100 turtles are purple.</p>\n                <p>You received a bonus of <b>$0.50</b> based on the student's second guess.</p>\n                <p>Total bonus so far: <b>$0.50</b></p>\n                <p>Press any key to continue.</p>\n                ","response":" ","trial_type":"html-keyboard-response","trial_index":28,"time_elapsed":278141,"internal_node_id":"0.0-27.0","params":{"nStudents":8,"maxExamples":70,"completionMinutes":15,"basePay":3,"maxBonus":6,"perTrialBonus":0.7,"perTrialBonusThreshold":0.08,"exampleCost":0.01},"classroomParams":{"A":{"a":1,"b":9},"B":{"a":9,"b":1}},"conditions":["nonSeqFull","nonSeqPartial","seqNoFeedback","seqFeedback"],"classroomPairings":[["A","B"]],"coinWeights":[0.3,0.7],"subjectId":"A3CD3C99T8S6ON","assignmentId":"30BXRYBRP5JFXHOSPU4O2FXVD2GWHI","hitId":"391FPZIE4C80JT1T3SKLV8GBSWQUH7","url":"https://gershmanlab.com/experiments/alicia/teaching/experiment/?hitId=391FPZIE4C80JT1T3SKLV8GBSWQUH7&workerId=A3CD3C99T8S6ON&assignmentId=30BXRYBRP5JFXHOSPU4O2FXVD2GWHI&a=RRB05&tp_a=RRB05&b=30BXRYBRP5JFXHOSPU4O2FXVD2GWHI&tp_b=30BXRYBRP5JFXHOSPU4O2FXVD2GWHI&c=368485&tp_c=368485"},{"rt":null,"stimulus":"<div style=\"font-size:60px;\">Next student</div>","response":null,"trial_type":"html-keyboard-response","trial_index":29,"time_elapsed":280647,"internal_node_id":"0.0-28.0-0.0","params":{"nStudents":8,"maxExamples":70,"completionMinutes":15,"basePay":3,"maxBonus":6,"perTrialBonus":0.7,"perTrialBonusThreshold":0.08,"exampleCost":0.01},"classroomParams":{"A":{"a":1,"b":9},"B":{"a":9,"b":1}},"conditions":["nonSeqFull","nonSeqPartial","seqNoFeedback","seqFeedback"],"classroomPairings":[["A","B"]],"coinWeights":[0.3,0.7],"subjectId":"A3CD3C99T8S6ON","assignmentId":"30BXRYBRP5JFXHOSPU4O2FXVD2GWHI","hitId":"391FPZIE4C80JT1T3SKLV8GBSWQUH7","url":"https://gershmanlab.com/experiments/alicia/teaching/experiment/?hitId=391FPZIE4C80JT1T3SKLV8GBSWQUH7&workerId=A3CD3C99T8S6ON&assignmentId=30BXRYBRP5JFXHOSPU4O2FXVD2GWHI&a=RRB05&tp_a=RRB05&b=30BXRYBRP5JFXHOSPU4O2FXVD2GWHI&tp_b=30BXRYBRP5JFXHOSPU4O2FXVD2GWHI&c=368485&tp_c=368485"},{"rt":4911,"stimulus":"\n            <h4 style=\"color:Blue;\">Student 4</h4>\n            <h2>On this island, <b style=\"color:Orange;\">3</b> out of every 10 turtles are orange and <b style=\"color:Purple;\">7</b> out of every 10 turtles are purple.</h2>\n            <p>In this block, you will be teaching <b>two</b> lessons to Student 4.</p>\n            <p><b>You will see the student's guess after the first lesson.</b> </p>\n            <p>You will receive feedback when you are finished with teaching the student.</p>\n            <p>To earn the highest bonus, you will have to <b>take into consideration the student's guess</b> when you choose your second set of turtles.</p>","response":0,"trial_type":"html-button-response","trial_index":30,"time_elapsed":285560,"internal_node_id":"0.0-29.0","params":{"nStudents":8,"maxExamples":70,"completionMinutes":15,"basePay":3,"maxBonus":6,"perTrialBonus":0.7,"perTrialBonusThreshold":0.08,"exampleCost":0.01},"classroomParams":{"A":{"a":1,"b":9},"B":{"a":9,"b":1}},"conditions":["nonSeqFull","nonSeqPartial","seqNoFeedback","seqFeedback"],"classroomPairings":[["A","B"]],"coinWeights":[0.3,0.7],"subjectId":"A3CD3C99T8S6ON","assignmentId":"30BXRYBRP5JFXHOSPU4O2FXVD2GWHI","hitId":"391FPZIE4C80JT1T3SKLV8GBSWQUH7","url":"https://gershmanlab.com/experiments/alicia/teaching/experiment/?hitId=391FPZIE4C80JT1T3SKLV8GBSWQUH7&workerId=A3CD3C99T8S6ON&assignmentId=30BXRYBRP5JFXHOSPU4O2FXVD2GWHI&a=RRB05&tp_a=RRB05&b=30BXRYBRP5JFXHOSPU4O2FXVD2GWHI&tp_b=30BXRYBRP5JFXHOSPU4O2FXVD2GWHI&c=368485&tp_c=368485"},{"rt":8790,"response":{"heads":"4","tails":"6"},"type":"response","condition":"seqFeedback","trueTheta":0.3,"classrooms":["A","B"],"studentTrueClassroom":"B","exampleSet":"first","trial_type":"survey-html-form","trial_index":31,"time_elapsed":294351,"internal_node_id":"0.0-30.0-0.0","params":{"nStudents":8,"maxExamples":70,"completionMinutes":15,"basePay":3,"maxBonus":6,"perTrialBonus":0.7,"perTrialBonusThreshold":0.08,"exampleCost":0.01},"classroomParams":{"A":{"a":1,"b":9},"B":{"a":9,"b":1}},"conditions":["nonSeqFull","nonSeqPartial","seqNoFeedback","seqFeedback"],"classroomPairings":[["A","B"]],"coinWeights":[0.3,0.7],"subjectId":"A3CD3C99T8S6ON","assignmentId":"30BXRYBRP5JFXHOSPU4O2FXVD2GWHI","hitId":"391FPZIE4C80JT1T3SKLV8GBSWQUH7","url":"https://gershmanlab.com/experiments/alicia/teaching/experiment/?hitId=391FPZIE4C80JT1T3SKLV8GBSWQUH7&workerId=A3CD3C99T8S6ON&assignmentId=30BXRYBRP5JFXHOSPU4O2FXVD2GWHI&a=RRB05&tp_a=RRB05&b=30BXRYBRP5JFXHOSPU4O2FXVD2GWHI&tp_b=30BXRYBRP5JFXHOSPU4O2FXVD2GWHI&c=368485&tp_c=368485","heads":4,"tails":6,"studentIndex":3,"studentTrueHypers":{"a":9,"b":1},"studentGuess":"0.65","delta":0.35000000000000003,"totalExamples":10,"bonusSoFar":0.5},{"rt":null,"stimulus":"Sending turtles to student... ","response":null,"trial_type":"html-keyboard-response","trial_index":32,"time_elapsed":296363,"internal_node_id":"0.0-31.0","params":{"nStudents":8,"maxExamples":70,"completionMinutes":15,"basePay":3,"maxBonus":6,"perTrialBonus":0.7,"perTrialBonusThreshold":0.08,"exampleCost":0.01},"classroomParams":{"A":{"a":1,"b":9},"B":{"a":9,"b":1}},"conditions":["nonSeqFull","nonSeqPartial","seqNoFeedback","seqFeedback"],"classroomPairings":[["A","B"]],"coinWeights":[0.3,0.7],"subjectId":"A3CD3C99T8S6ON","assignmentId":"30BXRYBRP5JFXHOSPU4O2FXVD2GWHI","hitId":"391FPZIE4C80JT1T3SKLV8GBSWQUH7","url":"https://gershmanlab.com/experiments/alicia/teaching/experiment/?hitId=391FPZIE4C80JT1T3SKLV8GBSWQUH7&workerId=A3CD3C99T8S6ON&assignmentId=30BXRYBRP5JFXHOSPU4O2FXVD2GWHI&a=RRB05&tp_a=RRB05&b=30BXRYBRP5JFXHOSPU4O2FXVD2GWHI&tp_b=30BXRYBRP5JFXHOSPU4O2FXVD2GWHI&c=368485&tp_c=368485"},{"rt":null,"stimulus":"Turtles sent to student! Waiting for student...","response":null,"trial_type":"html-keyboard-response","trial_index":33,"time_elapsed":300878,"internal_node_id":"0.0-32.0","params":{"nStudents":8,"maxExamples":70,"completionMinutes":15,"basePay":3,"maxBonus":6,"perTrialBonus":0.7,"perTrialBonusThreshold":0.08,"exampleCost":0.01},"classroomParams":{"A":{"a":1,"b":9},"B":{"a":9,"b":1}},"conditions":["nonSeqFull","nonSeqPartial","seqNoFeedback","seqFeedback"],"classroomPairings":[["A","B"]],"coinWeights":[0.3,0.7],"subjectId":"A3CD3C99T8S6ON","assignmentId":"30BXRYBRP5JFXHOSPU4O2FXVD2GWHI","hitId":"391FPZIE4C80JT1T3SKLV8GBSWQUH7","url":"https://gershmanlab.com/experiments/alicia/teaching/experiment/?hitId=391FPZIE4C80JT1T3SKLV8GBSWQUH7&workerId=A3CD3C99T8S6ON&assignmentId=30BXRYBRP5JFXHOSPU4O2FXVD2GWHI&a=RRB05&tp_a=RRB05&b=30BXRYBRP5JFXHOSPU4O2FXVD2GWHI&tp_b=30BXRYBRP5JFXHOSPU4O2FXVD2GWHI&c=368485&tp_c=368485"},{"rt":5606,"stimulus":"<h2>Student guess</h2>\n                <p>The student guessed that <b style=\"color:Orange;\">65</b> out of every 100 turtles are                     orange and <b style=\"color:Purple;\">35</b> out of every 100 turtles are purple.</p>\n                <p></b></p>\n                <p>You will now send another set of turtles to your student.</p>\n                <p>Press any key to continue.</p>\n                ","response":" ","trial_type":"html-keyboard-response","trial_index":34,"time_elapsed":306485,"internal_node_id":"0.0-33.0","params":{"nStudents":8,"maxExamples":70,"completionMinutes":15,"basePay":3,"maxBonus":6,"perTrialBonus":0.7,"perTrialBonusThreshold":0.08,"exampleCost":0.01},"classroomParams":{"A":{"a":1,"b":9},"B":{"a":9,"b":1}},"conditions":["nonSeqFull","nonSeqPartial","seqNoFeedback","seqFeedback"],"classroomPairings":[["A","B"]],"coinWeights":[0.3,0.7],"subjectId":"A3CD3C99T8S6ON","assignmentId":"30BXRYBRP5JFXHOSPU4O2FXVD2GWHI","hitId":"391FPZIE4C80JT1T3SKLV8GBSWQUH7","url":"https://gershmanlab.com/experiments/alicia/teaching/experiment/?hitId=391FPZIE4C80JT1T3SKLV8GBSWQUH7&workerId=A3CD3C99T8S6ON&assignmentId=30BXRYBRP5JFXHOSPU4O2FXVD2GWHI&a=RRB05&tp_a=RRB05&b=30BXRYBRP5JFXHOSPU4O2FXVD2GWHI&tp_b=30BXRYBRP5JFXHOSPU4O2FXVD2GWHI&c=368485&tp_c=368485"},{"rt":17642,"response":{"heads":"2","tails":"10"},"type":"response","condition":"seqFeedback","trueTheta":0.3,"classrooms":["A","B"],"studentTrueClassroom":"B","exampleSet":"second","trial_type":"survey-html-form","trial_index":35,"time_elapsed":324128,"internal_node_id":"0.0-34.0-0.0","params":{"nStudents":8,"maxExamples":70,"completionMinutes":15,"basePay":3,"maxBonus":6,"perTrialBonus":0.7,"perTrialBonusThreshold":0.08,"exampleCost":0.01},"classroomParams":{"A":{"a":1,"b":9},"B":{"a":9,"b":1}},"conditions":["nonSeqFull","nonSeqPartial","seqNoFeedback","seqFeedback"],"classroomPairings":[["A","B"]],"coinWeights":[0.3,0.7],"subjectId":"A3CD3C99T8S6ON","assignmentId":"30BXRYBRP5JFXHOSPU4O2FXVD2GWHI","hitId":"391FPZIE4C80JT1T3SKLV8GBSWQUH7","url":"https://gershmanlab.com/experiments/alicia/teaching/experiment/?hitId=391FPZIE4C80JT1T3SKLV8GBSWQUH7&workerId=A3CD3C99T8S6ON&assignmentId=30BXRYBRP5JFXHOSPU4O2FXVD2GWHI&a=RRB05&tp_a=RRB05&b=30BXRYBRP5JFXHOSPU4O2FXVD2GWHI&tp_b=30BXRYBRP5JFXHOSPU4O2FXVD2GWHI&c=368485&tp_c=368485","firstResponseHeads":4,"firstResponseTails":6,"secondResponseHeads":2,"secondResponseTails":10,"totalHeads":6,"totalTails":16,"studentIndex":3,"studentTrueHypers":{"a":9,"b":1},"studentGuess":"0.47","delta":0.16999999999999998,"bonus":0,"bonusSoFar":0.5,"totalExamples":22},{"rt":null,"stimulus":"Sending turtles to student... ","response":null,"trial_type":"html-keyboard-response","trial_index":36,"time_elapsed":326144,"internal_node_id":"0.0-35.0","params":{"nStudents":8,"maxExamples":70,"completionMinutes":15,"basePay":3,"maxBonus":6,"perTrialBonus":0.7,"perTrialBonusThreshold":0.08,"exampleCost":0.01},"classroomParams":{"A":{"a":1,"b":9},"B":{"a":9,"b":1}},"conditions":["nonSeqFull","nonSeqPartial","seqNoFeedback","seqFeedback"],"classroomPairings":[["A","B"]],"coinWeights":[0.3,0.7],"subjectId":"A3CD3C99T8S6ON","assignmentId":"30BXRYBRP5JFXHOSPU4O2FXVD2GWHI","hitId":"391FPZIE4C80JT1T3SKLV8GBSWQUH7","url":"https://gershmanlab.com/experiments/alicia/teaching/experiment/?hitId=391FPZIE4C80JT1T3SKLV8GBSWQUH7&workerId=A3CD3C99T8S6ON&assignmentId=30BXRYBRP5JFXHOSPU4O2FXVD2GWHI&a=RRB05&tp_a=RRB05&b=30BXRYBRP5JFXHOSPU4O2FXVD2GWHI&tp_b=30BXRYBRP5JFXHOSPU4O2FXVD2GWHI&c=368485&tp_c=368485"},{"rt":null,"stimulus":"Turtles sent to student! Waiting for student...","response":null,"trial_type":"html-keyboard-response","trial_index":37,"time_elapsed":331171,"internal_node_id":"0.0-36.0","params":{"nStudents":8,"maxExamples":70,"completionMinutes":15,"basePay":3,"maxBonus":6,"perTrialBonus":0.7,"perTrialBonusThreshold":0.08,"exampleCost":0.01},"classroomParams":{"A":{"a":1,"b":9},"B":{"a":9,"b":1}},"conditions":["nonSeqFull","nonSeqPartial","seqNoFeedback","seqFeedback"],"classroomPairings":[["A","B"]],"coinWeights":[0.3,0.7],"subjectId":"A3CD3C99T8S6ON","assignmentId":"30BXRYBRP5JFXHOSPU4O2FXVD2GWHI","hitId":"391FPZIE4C80JT1T3SKLV8GBSWQUH7","url":"https://gershmanlab.com/experiments/alicia/teaching/experiment/?hitId=391FPZIE4C80JT1T3SKLV8GBSWQUH7&workerId=A3CD3C99T8S6ON&assignmentId=30BXRYBRP5JFXHOSPU4O2FXVD2GWHI&a=RRB05&tp_a=RRB05&b=30BXRYBRP5JFXHOSPU4O2FXVD2GWHI&tp_b=30BXRYBRP5JFXHOSPU4O2FXVD2GWHI&c=368485&tp_c=368485"},{"rt":4179,"stimulus":"\n                <h3>Student 4's first guess</h3>\n                <p>The student's first guess was that <b style=\"color:Orange;\">65</b> out of every 100 turtles are                     orange and <b style=\"color:Purple;\">35</b> out of every 100 turtles are purple.</p>\n                <h3>Student 4's second guess</h3>\n                <p>The student's second guess was that <b style=\"color:Orange;\">47</b> out of every 100 turtles are                     orange and <b style=\"color:Purple;\">53</b> out of every 100 turtles are purple.</p>\n                <p>You received a bonus of <b>$0.00</b> based on the student's second guess.</p>\n                <p>Total bonus so far: <b>$0.50</b></p>\n                <p>Press any key to continue.</p>\n                ","response":" ","trial_type":"html-keyboard-response","trial_index":38,"time_elapsed":335352,"internal_node_id":"0.0-37.0","params":{"nStudents":8,"maxExamples":70,"completionMinutes":15,"basePay":3,"maxBonus":6,"perTrialBonus":0.7,"perTrialBonusThreshold":0.08,"exampleCost":0.01},"classroomParams":{"A":{"a":1,"b":9},"B":{"a":9,"b":1}},"conditions":["nonSeqFull","nonSeqPartial","seqNoFeedback","seqFeedback"],"classroomPairings":[["A","B"]],"coinWeights":[0.3,0.7],"subjectId":"A3CD3C99T8S6ON","assignmentId":"30BXRYBRP5JFXHOSPU4O2FXVD2GWHI","hitId":"391FPZIE4C80JT1T3SKLV8GBSWQUH7","url":"https://gershmanlab.com/experiments/alicia/teaching/experiment/?hitId=391FPZIE4C80JT1T3SKLV8GBSWQUH7&workerId=A3CD3C99T8S6ON&assignmentId=30BXRYBRP5JFXHOSPU4O2FXVD2GWHI&a=RRB05&tp_a=RRB05&b=30BXRYBRP5JFXHOSPU4O2FXVD2GWHI&tp_b=30BXRYBRP5JFXHOSPU4O2FXVD2GWHI&c=368485&tp_c=368485"},{"rt":null,"stimulus":"<div style=\"font-size:60px;\">Next student</div>","response":null,"trial_type":"html-keyboard-response","trial_index":39,"time_elapsed":337867,"internal_node_id":"0.0-38.0-0.0","params":{"nStudents":8,"maxExamples":70,"completionMinutes":15,"basePay":3,"maxBonus":6,"perTrialBonus":0.7,"perTrialBonusThreshold":0.08,"exampleCost":0.01},"classroomParams":{"A":{"a":1,"b":9},"B":{"a":9,"b":1}},"conditions":["nonSeqFull","nonSeqPartial","seqNoFeedback","seqFeedback"],"classroomPairings":[["A","B"]],"coinWeights":[0.3,0.7],"subjectId":"A3CD3C99T8S6ON","assignmentId":"30BXRYBRP5JFXHOSPU4O2FXVD2GWHI","hitId":"391FPZIE4C80JT1T3SKLV8GBSWQUH7","url":"https://gershmanlab.com/experiments/alicia/teaching/experiment/?hitId=391FPZIE4C80JT1T3SKLV8GBSWQUH7&workerId=A3CD3C99T8S6ON&assignmentId=30BXRYBRP5JFXHOSPU4O2FXVD2GWHI&a=RRB05&tp_a=RRB05&b=30BXRYBRP5JFXHOSPU4O2FXVD2GWHI&tp_b=30BXRYBRP5JFXHOSPU4O2FXVD2GWHI&c=368485&tp_c=368485"},{"rt":2681,"stimulus":"\n            <h4 style=\"color:Blue;\">Student 5</h4>\n            <h2>On this island, <b style=\"color:Orange;\">3</b> out of every 10 turtles are orange and <b style=\"color:Purple;\">7</b> out of every 10 turtles are purple.</h2>\n            <p>In this block, you will be teaching <b>one</b> lesson to Student 5.</p>\n            <p> </p>\n            <p>You will receive feedback when you are finished with teaching the student.</p>\n            <p></p>","response":0,"trial_type":"html-button-response","trial_index":40,"time_elapsed":340551,"internal_node_id":"0.0-39.0","params":{"nStudents":8,"maxExamples":70,"completionMinutes":15,"basePay":3,"maxBonus":6,"perTrialBonus":0.7,"perTrialBonusThreshold":0.08,"exampleCost":0.01},"classroomParams":{"A":{"a":1,"b":9},"B":{"a":9,"b":1}},"conditions":["nonSeqFull","nonSeqPartial","seqNoFeedback","seqFeedback"],"classroomPairings":[["A","B"]],"coinWeights":[0.3,0.7],"subjectId":"A3CD3C99T8S6ON","assignmentId":"30BXRYBRP5JFXHOSPU4O2FXVD2GWHI","hitId":"391FPZIE4C80JT1T3SKLV8GBSWQUH7","url":"https://gershmanlab.com/experiments/alicia/teaching/experiment/?hitId=391FPZIE4C80JT1T3SKLV8GBSWQUH7&workerId=A3CD3C99T8S6ON&assignmentId=30BXRYBRP5JFXHOSPU4O2FXVD2GWHI&a=RRB05&tp_a=RRB05&b=30BXRYBRP5JFXHOSPU4O2FXVD2GWHI&tp_b=30BXRYBRP5JFXHOSPU4O2FXVD2GWHI&c=368485&tp_c=368485"},{"rt":16039,"response":{"heads":"4","tails":"6"},"type":"response","condition":"nonSeqFull","trueTheta":0.3,"classrooms":["A","B"],"studentTrueClassroom":"A","exampleSet":"first","trial_type":"survey-html-form","trial_index":41,"time_elapsed":356591,"internal_node_id":"0.0-40.0-0.0","params":{"nStudents":8,"maxExamples":70,"completionMinutes":15,"basePay":3,"maxBonus":6,"perTrialBonus":0.7,"perTrialBonusThreshold":0.08,"exampleCost":0.01},"classroomParams":{"A":{"a":1,"b":9},"B":{"a":9,"b":1}},"conditions":["nonSeqFull","nonSeqPartial","seqNoFeedback","seqFeedback"],"classroomPairings":[["A","B"]],"coinWeights":[0.3,0.7],"subjectId":"A3CD3C99T8S6ON","assignmentId":"30BXRYBRP5JFXHOSPU4O2FXVD2GWHI","hitId":"391FPZIE4C80JT1T3SKLV8GBSWQUH7","url":"https://gershmanlab.com/experiments/alicia/teaching/experiment/?hitId=391FPZIE4C80JT1T3SKLV8GBSWQUH7&workerId=A3CD3C99T8S6ON&assignmentId=30BXRYBRP5JFXHOSPU4O2FXVD2GWHI&a=RRB05&tp_a=RRB05&b=30BXRYBRP5JFXHOSPU4O2FXVD2GWHI&tp_b=30BXRYBRP5JFXHOSPU4O2FXVD2GWHI&c=368485&tp_c=368485","heads":4,"tails":6,"studentIndex":4,"studentTrueHypers":{"a":1,"b":9},"studentGuess":"0.25","delta":0.04999999999999999,"totalExamples":10,"bonus":0.6,"bonusSoFar":1.1},{"rt":null,"stimulus":"Sending turtles to student... ","response":null,"trial_type":"html-keyboard-response","trial_index":42,"time_elapsed":358354,"internal_node_id":"0.0-41.0","params":{"nStudents":8,"maxExamples":70,"completionMinutes":15,"basePay":3,"maxBonus":6,"perTrialBonus":0.7,"perTrialBonusThreshold":0.08,"exampleCost":0.01},"classroomParams":{"A":{"a":1,"b":9},"B":{"a":9,"b":1}},"conditions":["nonSeqFull","nonSeqPartial","seqNoFeedback","seqFeedback"],"classroomPairings":[["A","B"]],"coinWeights":[0.3,0.7],"subjectId":"A3CD3C99T8S6ON","assignmentId":"30BXRYBRP5JFXHOSPU4O2FXVD2GWHI","hitId":"391FPZIE4C80JT1T3SKLV8GBSWQUH7","url":"https://gershmanlab.com/experiments/alicia/teaching/experiment/?hitId=391FPZIE4C80JT1T3SKLV8GBSWQUH7&workerId=A3CD3C99T8S6ON&assignmentId=30BXRYBRP5JFXHOSPU4O2FXVD2GWHI&a=RRB05&tp_a=RRB05&b=30BXRYBRP5JFXHOSPU4O2FXVD2GWHI&tp_b=30BXRYBRP5JFXHOSPU4O2FXVD2GWHI&c=368485&tp_c=368485"},{"rt":null,"stimulus":"Turtles sent to student! Waiting for student...","response":null,"trial_type":"html-keyboard-response","trial_index":43,"time_elapsed":362870,"internal_node_id":"0.0-42.0","params":{"nStudents":8,"maxExamples":70,"completionMinutes":15,"basePay":3,"maxBonus":6,"perTrialBonus":0.7,"perTrialBonusThreshold":0.08,"exampleCost":0.01},"classroomParams":{"A":{"a":1,"b":9},"B":{"a":9,"b":1}},"conditions":["nonSeqFull","nonSeqPartial","seqNoFeedback","seqFeedback"],"classroomPairings":[["A","B"]],"coinWeights":[0.3,0.7],"subjectId":"A3CD3C99T8S6ON","assignmentId":"30BXRYBRP5JFXHOSPU4O2FXVD2GWHI","hitId":"391FPZIE4C80JT1T3SKLV8GBSWQUH7","url":"https://gershmanlab.com/experiments/alicia/teaching/experiment/?hitId=391FPZIE4C80JT1T3SKLV8GBSWQUH7&workerId=A3CD3C99T8S6ON&assignmentId=30BXRYBRP5JFXHOSPU4O2FXVD2GWHI&a=RRB05&tp_a=RRB05&b=30BXRYBRP5JFXHOSPU4O2FXVD2GWHI&tp_b=30BXRYBRP5JFXHOSPU4O2FXVD2GWHI&c=368485&tp_c=368485"},{"rt":5789,"stimulus":"<h2>Student guess</h2>\n                <p>The student guessed that <b style=\"color:Orange;\">25</b> out of every 100 turtles are                     orange and <b style=\"color:Purple;\">75</b> out of every 100 turtles are purple.</p>\n                <p>You received a bonus of <b>$0.6</b>. Total bonus so far: <b>$1.10</b></b></p>\n                <p></p>\n                <p>Press any key to continue.</p>\n                ","response":" ","trial_type":"html-keyboard-response","trial_index":44,"time_elapsed":368661,"internal_node_id":"0.0-43.0","params":{"nStudents":8,"maxExamples":70,"completionMinutes":15,"basePay":3,"maxBonus":6,"perTrialBonus":0.7,"perTrialBonusThreshold":0.08,"exampleCost":0.01},"classroomParams":{"A":{"a":1,"b":9},"B":{"a":9,"b":1}},"conditions":["nonSeqFull","nonSeqPartial","seqNoFeedback","seqFeedback"],"classroomPairings":[["A","B"]],"coinWeights":[0.3,0.7],"subjectId":"A3CD3C99T8S6ON","assignmentId":"30BXRYBRP5JFXHOSPU4O2FXVD2GWHI","hitId":"391FPZIE4C80JT1T3SKLV8GBSWQUH7","url":"https://gershmanlab.com/experiments/alicia/teaching/experiment/?hitId=391FPZIE4C80JT1T3SKLV8GBSWQUH7&workerId=A3CD3C99T8S6ON&assignmentId=30BXRYBRP5JFXHOSPU4O2FXVD2GWHI&a=RRB05&tp_a=RRB05&b=30BXRYBRP5JFXHOSPU4O2FXVD2GWHI&tp_b=30BXRYBRP5JFXHOSPU4O2FXVD2GWHI&c=368485&tp_c=368485"},{"rt":null,"stimulus":"<div style=\"font-size:60px;\">Next student</div>","response":null,"trial_type":"html-keyboard-response","trial_index":45,"time_elapsed":370922,"internal_node_id":"0.0-44.0-0.0","params":{"nStudents":8,"maxExamples":70,"completionMinutes":15,"basePay":3,"maxBonus":6,"perTrialBonus":0.7,"perTrialBonusThreshold":0.08,"exampleCost":0.01},"classroomParams":{"A":{"a":1,"b":9},"B":{"a":9,"b":1}},"conditions":["nonSeqFull","nonSeqPartial","seqNoFeedback","seqFeedback"],"classroomPairings":[["A","B"]],"coinWeights":[0.3,0.7],"subjectId":"A3CD3C99T8S6ON","assignmentId":"30BXRYBRP5JFXHOSPU4O2FXVD2GWHI","hitId":"391FPZIE4C80JT1T3SKLV8GBSWQUH7","url":"https://gershmanlab.com/experiments/alicia/teaching/experiment/?hitId=391FPZIE4C80JT1T3SKLV8GBSWQUH7&workerId=A3CD3C99T8S6ON&assignmentId=30BXRYBRP5JFXHOSPU4O2FXVD2GWHI&a=RRB05&tp_a=RRB05&b=30BXRYBRP5JFXHOSPU4O2FXVD2GWHI&tp_b=30BXRYBRP5JFXHOSPU4O2FXVD2GWHI&c=368485&tp_c=368485"},{"rt":3611,"stimulus":"\n            <h4 style=\"color:Blue;\">Student 6</h4>\n            <h2>On this island, <b style=\"color:Orange;\">3</b> out of every 10 turtles are orange and <b style=\"color:Purple;\">7</b> out of every 10 turtles are purple.</h2>\n            <p>In this block, you will be teaching <b>one</b> lesson to Student 6.</p>\n            <p> </p>\n            <p>You will receive feedback when you are finished with teaching the student.</p>\n            <p></p>","response":0,"trial_type":"html-button-response","trial_index":46,"time_elapsed":374535,"internal_node_id":"0.0-45.0","params":{"nStudents":8,"maxExamples":70,"completionMinutes":15,"basePay":3,"maxBonus":6,"perTrialBonus":0.7,"perTrialBonusThreshold":0.08,"exampleCost":0.01},"classroomParams":{"A":{"a":1,"b":9},"B":{"a":9,"b":1}},"conditions":["nonSeqFull","nonSeqPartial","seqNoFeedback","seqFeedback"],"classroomPairings":[["A","B"]],"coinWeights":[0.3,0.7],"subjectId":"A3CD3C99T8S6ON","assignmentId":"30BXRYBRP5JFXHOSPU4O2FXVD2GWHI","hitId":"391FPZIE4C80JT1T3SKLV8GBSWQUH7","url":"https://gershmanlab.com/experiments/alicia/teaching/experiment/?hitId=391FPZIE4C80JT1T3SKLV8GBSWQUH7&workerId=A3CD3C99T8S6ON&assignmentId=30BXRYBRP5JFXHOSPU4O2FXVD2GWHI&a=RRB05&tp_a=RRB05&b=30BXRYBRP5JFXHOSPU4O2FXVD2GWHI&tp_b=30BXRYBRP5JFXHOSPU4O2FXVD2GWHI&c=368485&tp_c=368485"},{"rt":13422,"response":{"heads":"8","tails":"16"},"type":"response","condition":"nonSeqPartial","trueTheta":0.3,"classrooms":["A","B"],"studentTrueClassroom":"B","exampleSet":"first","trial_type":"survey-html-form","trial_index":47,"time_elapsed":387959,"internal_node_id":"0.0-46.0-0.0","params":{"nStudents":8,"maxExamples":70,"completionMinutes":15,"basePay":3,"maxBonus":6,"perTrialBonus":0.7,"perTrialBonusThreshold":0.08,"exampleCost":0.01},"classroomParams":{"A":{"a":1,"b":9},"B":{"a":9,"b":1}},"conditions":["nonSeqFull","nonSeqPartial","seqNoFeedback","seqFeedback"],"classroomPairings":[["A","B"]],"coinWeights":[0.3,0.7],"subjectId":"A3CD3C99T8S6ON","assignmentId":"30BXRYBRP5JFXHOSPU4O2FXVD2GWHI","hitId":"391FPZIE4C80JT1T3SKLV8GBSWQUH7","url":"https://gershmanlab.com/experiments/alicia/teaching/experiment/?hitId=391FPZIE4C80JT1T3SKLV8GBSWQUH7&workerId=A3CD3C99T8S6ON&assignmentId=30BXRYBRP5JFXHOSPU4O2FXVD2GWHI&a=RRB05&tp_a=RRB05&b=30BXRYBRP5JFXHOSPU4O2FXVD2GWHI&tp_b=30BXRYBRP5JFXHOSPU4O2FXVD2GWHI&c=368485&tp_c=368485","heads":8,"tails":16,"studentIndex":5,"studentTrueHypers":{"a":9,"b":1},"studentGuess":"0.50","delta":0.2,"totalExamples":24,"bonus":0,"bonusSoFar":1.1},{"rt":null,"stimulus":"Sending turtles to student... ","response":null,"trial_type":"html-keyboard-response","trial_index":48,"time_elapsed":389961,"internal_node_id":"0.0-47.0","params":{"nStudents":8,"maxExamples":70,"completionMinutes":15,"basePay":3,"maxBonus":6,"perTrialBonus":0.7,"perTrialBonusThreshold":0.08,"exampleCost":0.01},"classroomParams":{"A":{"a":1,"b":9},"B":{"a":9,"b":1}},"conditions":["nonSeqFull","nonSeqPartial","seqNoFeedback","seqFeedback"],"classroomPairings":[["A","B"]],"coinWeights":[0.3,0.7],"subjectId":"A3CD3C99T8S6ON","assignmentId":"30BXRYBRP5JFXHOSPU4O2FXVD2GWHI","hitId":"391FPZIE4C80JT1T3SKLV8GBSWQUH7","url":"https://gershmanlab.com/experiments/alicia/teaching/experiment/?hitId=391FPZIE4C80JT1T3SKLV8GBSWQUH7&workerId=A3CD3C99T8S6ON&assignmentId=30BXRYBRP5JFXHOSPU4O2FXVD2GWHI&a=RRB05&tp_a=RRB05&b=30BXRYBRP5JFXHOSPU4O2FXVD2GWHI&tp_b=30BXRYBRP5JFXHOSPU4O2FXVD2GWHI&c=368485&tp_c=368485"},{"rt":null,"stimulus":"Turtles sent to student! Waiting for student...","response":null,"trial_type":"html-keyboard-response","trial_index":49,"time_elapsed":394964,"internal_node_id":"0.0-48.0","params":{"nStudents":8,"maxExamples":70,"completionMinutes":15,"basePay":3,"maxBonus":6,"perTrialBonus":0.7,"perTrialBonusThreshold":0.08,"exampleCost":0.01},"classroomParams":{"A":{"a":1,"b":9},"B":{"a":9,"b":1}},"conditions":["nonSeqFull","nonSeqPartial","seqNoFeedback","seqFeedback"],"classroomPairings":[["A","B"]],"coinWeights":[0.3,0.7],"subjectId":"A3CD3C99T8S6ON","assignmentId":"30BXRYBRP5JFXHOSPU4O2FXVD2GWHI","hitId":"391FPZIE4C80JT1T3SKLV8GBSWQUH7","url":"https://gershmanlab.com/experiments/alicia/teaching/experiment/?hitId=391FPZIE4C80JT1T3SKLV8GBSWQUH7&workerId=A3CD3C99T8S6ON&assignmentId=30BXRYBRP5JFXHOSPU4O2FXVD2GWHI&a=RRB05&tp_a=RRB05&b=30BXRYBRP5JFXHOSPU4O2FXVD2GWHI&tp_b=30BXRYBRP5JFXHOSPU4O2FXVD2GWHI&c=368485&tp_c=368485"},{"rt":3794,"stimulus":"<h2>Student guess</h2>\n                <p>The student guessed that <b style=\"color:Orange;\">50</b> out of every 100 turtles are                     orange and <b style=\"color:Purple;\">50</b> out of every 100 turtles are purple.</p>\n                <p>You received a bonus of <b>$0</b>. Total bonus so far: <b>$1.10</b></b></p>\n                <p></p>\n                <p>Press any key to continue.</p>\n                ","response":" ","trial_type":"html-keyboard-response","trial_index":50,"time_elapsed":398761,"internal_node_id":"0.0-49.0","params":{"nStudents":8,"maxExamples":70,"completionMinutes":15,"basePay":3,"maxBonus":6,"perTrialBonus":0.7,"perTrialBonusThreshold":0.08,"exampleCost":0.01},"classroomParams":{"A":{"a":1,"b":9},"B":{"a":9,"b":1}},"conditions":["nonSeqFull","nonSeqPartial","seqNoFeedback","seqFeedback"],"classroomPairings":[["A","B"]],"coinWeights":[0.3,0.7],"subjectId":"A3CD3C99T8S6ON","assignmentId":"30BXRYBRP5JFXHOSPU4O2FXVD2GWHI","hitId":"391FPZIE4C80JT1T3SKLV8GBSWQUH7","url":"https://gershmanlab.com/experiments/alicia/teaching/experiment/?hitId=391FPZIE4C80JT1T3SKLV8GBSWQUH7&workerId=A3CD3C99T8S6ON&assignmentId=30BXRYBRP5JFXHOSPU4O2FXVD2GWHI&a=RRB05&tp_a=RRB05&b=30BXRYBRP5JFXHOSPU4O2FXVD2GWHI&tp_b=30BXRYBRP5JFXHOSPU4O2FXVD2GWHI&c=368485&tp_c=368485"},{"rt":null,"stimulus":"<div style=\"font-size:60px;\">Next student</div>","response":null,"trial_type":"html-keyboard-response","trial_index":51,"time_elapsed":401264,"internal_node_id":"0.0-50.0-0.0","params":{"nStudents":8,"maxExamples":70,"completionMinutes":15,"basePay":3,"maxBonus":6,"perTrialBonus":0.7,"perTrialBonusThreshold":0.08,"exampleCost":0.01},"classroomParams":{"A":{"a":1,"b":9},"B":{"a":9,"b":1}},"conditions":["nonSeqFull","nonSeqPartial","seqNoFeedback","seqFeedback"],"classroomPairings":[["A","B"]],"coinWeights":[0.3,0.7],"subjectId":"A3CD3C99T8S6ON","assignmentId":"30BXRYBRP5JFXHOSPU4O2FXVD2GWHI","hitId":"391FPZIE4C80JT1T3SKLV8GBSWQUH7","url":"https://gershmanlab.com/experiments/alicia/teaching/experiment/?hitId=391FPZIE4C80JT1T3SKLV8GBSWQUH7&workerId=A3CD3C99T8S6ON&assignmentId=30BXRYBRP5JFXHOSPU4O2FXVD2GWHI&a=RRB05&tp_a=RRB05&b=30BXRYBRP5JFXHOSPU4O2FXVD2GWHI&tp_b=30BXRYBRP5JFXHOSPU4O2FXVD2GWHI&c=368485&tp_c=368485"},{"rt":2685,"stimulus":"\n            <h4 style=\"color:Blue;\">Student 7</h4>\n            <h2>On this island, <b style=\"color:Orange;\">7</b> out of every 10 turtles are orange and <b style=\"color:Purple;\">3</b> out of every 10 turtles are purple.</h2>\n            <p>In this block, you will be teaching <b>one</b> lesson to Student 7.</p>\n            <p> </p>\n            <p>You will receive feedback when you are finished with teaching the student.</p>\n            <p></p>","response":0,"trial_type":"html-button-response","trial_index":52,"time_elapsed":403951,"internal_node_id":"0.0-51.0","params":{"nStudents":8,"maxExamples":70,"completionMinutes":15,"basePay":3,"maxBonus":6,"perTrialBonus":0.7,"perTrialBonusThreshold":0.08,"exampleCost":0.01},"classroomParams":{"A":{"a":1,"b":9},"B":{"a":9,"b":1}},"conditions":["nonSeqFull","nonSeqPartial","seqNoFeedback","seqFeedback"],"classroomPairings":[["A","B"]],"coinWeights":[0.3,0.7],"subjectId":"A3CD3C99T8S6ON","assignmentId":"30BXRYBRP5JFXHOSPU4O2FXVD2GWHI","hitId":"391FPZIE4C80JT1T3SKLV8GBSWQUH7","url":"https://gershmanlab.com/experiments/alicia/teaching/experiment/?hitId=391FPZIE4C80JT1T3SKLV8GBSWQUH7&workerId=A3CD3C99T8S6ON&assignmentId=30BXRYBRP5JFXHOSPU4O2FXVD2GWHI&a=RRB05&tp_a=RRB05&b=30BXRYBRP5JFXHOSPU4O2FXVD2GWHI&tp_b=30BXRYBRP5JFXHOSPU4O2FXVD2GWHI&c=368485&tp_c=368485"},{"rt":29887,"response":{"heads":"12","tails":"8"},"type":"response","condition":"nonSeqFull","trueTheta":0.7,"classrooms":["A","B"],"studentTrueClassroom":"B","exampleSet":"first","trial_type":"survey-html-form","trial_index":53,"time_elapsed":433839,"internal_node_id":"0.0-52.0-0.0","params":{"nStudents":8,"maxExamples":70,"completionMinutes":15,"basePay":3,"maxBonus":6,"perTrialBonus":0.7,"perTrialBonusThreshold":0.08,"exampleCost":0.01},"classroomParams":{"A":{"a":1,"b":9},"B":{"a":9,"b":1}},"conditions":["nonSeqFull","nonSeqPartial","seqNoFeedback","seqFeedback"],"classroomPairings":[["A","B"]],"coinWeights":[0.3,0.7],"subjectId":"A3CD3C99T8S6ON","assignmentId":"30BXRYBRP5JFXHOSPU4O2FXVD2GWHI","hitId":"391FPZIE4C80JT1T3SKLV8GBSWQUH7","url":"https://gershmanlab.com/experiments/alicia/teaching/experiment/?hitId=391FPZIE4C80JT1T3SKLV8GBSWQUH7&workerId=A3CD3C99T8S6ON&assignmentId=30BXRYBRP5JFXHOSPU4O2FXVD2GWHI&a=RRB05&tp_a=RRB05&b=30BXRYBRP5JFXHOSPU4O2FXVD2GWHI&tp_b=30BXRYBRP5JFXHOSPU4O2FXVD2GWHI&c=368485&tp_c=368485","heads":12,"tails":8,"studentIndex":6,"studentTrueHypers":{"a":9,"b":1},"studentGuess":"0.70","delta":0,"totalExamples":20,"bonus":0.5,"bonusSoFar":1.6},{"rt":null,"stimulus":"Sending turtles to student... ","response":null,"trial_type":"html-keyboard-response","trial_index":54,"time_elapsed":435341,"internal_node_id":"0.0-53.0","params":{"nStudents":8,"maxExamples":70,"completionMinutes":15,"basePay":3,"maxBonus":6,"perTrialBonus":0.7,"perTrialBonusThreshold":0.08,"exampleCost":0.01},"classroomParams":{"A":{"a":1,"b":9},"B":{"a":9,"b":1}},"conditions":["nonSeqFull","nonSeqPartial","seqNoFeedback","seqFeedback"],"classroomPairings":[["A","B"]],"coinWeights":[0.3,0.7],"subjectId":"A3CD3C99T8S6ON","assignmentId":"30BXRYBRP5JFXHOSPU4O2FXVD2GWHI","hitId":"391FPZIE4C80JT1T3SKLV8GBSWQUH7","url":"https://gershmanlab.com/experiments/alicia/teaching/experiment/?hitId=391FPZIE4C80JT1T3SKLV8GBSWQUH7&workerId=A3CD3C99T8S6ON&assignmentId=30BXRYBRP5JFXHOSPU4O2FXVD2GWHI&a=RRB05&tp_a=RRB05&b=30BXRYBRP5JFXHOSPU4O2FXVD2GWHI&tp_b=30BXRYBRP5JFXHOSPU4O2FXVD2GWHI&c=368485&tp_c=368485"},{"rt":null,"stimulus":"Turtles sent to student! Waiting for student...","response":null,"trial_type":"html-keyboard-response","trial_index":55,"time_elapsed":439345,"internal_node_id":"0.0-54.0","params":{"nStudents":8,"maxExamples":70,"completionMinutes":15,"basePay":3,"maxBonus":6,"perTrialBonus":0.7,"perTrialBonusThreshold":0.08,"exampleCost":0.01},"classroomParams":{"A":{"a":1,"b":9},"B":{"a":9,"b":1}},"conditions":["nonSeqFull","nonSeqPartial","seqNoFeedback","seqFeedback"],"classroomPairings":[["A","B"]],"coinWeights":[0.3,0.7],"subjectId":"A3CD3C99T8S6ON","assignmentId":"30BXRYBRP5JFXHOSPU4O2FXVD2GWHI","hitId":"391FPZIE4C80JT1T3SKLV8GBSWQUH7","url":"https://gershmanlab.com/experiments/alicia/teaching/experiment/?hitId=391FPZIE4C80JT1T3SKLV8GBSWQUH7&workerId=A3CD3C99T8S6ON&assignmentId=30BXRYBRP5JFXHOSPU4O2FXVD2GWHI&a=RRB05&tp_a=RRB05&b=30BXRYBRP5JFXHOSPU4O2FXVD2GWHI&tp_b=30BXRYBRP5JFXHOSPU4O2FXVD2GWHI&c=368485&tp_c=368485"},{"rt":4118,"stimulus":"<h2>Student guess</h2>\n                <p>The student guessed that <b style=\"color:Orange;\">70</b> out of every 100 turtles are                     orange and <b style=\"color:Purple;\">30</b> out of every 100 turtles are purple.</p>\n                <p>You received a bonus of <b>$0.5</b>. Total bonus so far: <b>$1.60</b></b></p>\n                <p></p>\n                <p>Press any key to continue.</p>\n                ","response":" ","trial_type":"html-keyboard-response","trial_index":56,"time_elapsed":443465,"internal_node_id":"0.0-55.0","params":{"nStudents":8,"maxExamples":70,"completionMinutes":15,"basePay":3,"maxBonus":6,"perTrialBonus":0.7,"perTrialBonusThreshold":0.08,"exampleCost":0.01},"classroomParams":{"A":{"a":1,"b":9},"B":{"a":9,"b":1}},"conditions":["nonSeqFull","nonSeqPartial","seqNoFeedback","seqFeedback"],"classroomPairings":[["A","B"]],"coinWeights":[0.3,0.7],"subjectId":"A3CD3C99T8S6ON","assignmentId":"30BXRYBRP5JFXHOSPU4O2FXVD2GWHI","hitId":"391FPZIE4C80JT1T3SKLV8GBSWQUH7","url":"https://gershmanlab.com/experiments/alicia/teaching/experiment/?hitId=391FPZIE4C80JT1T3SKLV8GBSWQUH7&workerId=A3CD3C99T8S6ON&assignmentId=30BXRYBRP5JFXHOSPU4O2FXVD2GWHI&a=RRB05&tp_a=RRB05&b=30BXRYBRP5JFXHOSPU4O2FXVD2GWHI&tp_b=30BXRYBRP5JFXHOSPU4O2FXVD2GWHI&c=368485&tp_c=368485"},{"rt":null,"stimulus":"<div style=\"font-size:60px;\">Next student</div>","response":null,"trial_type":"html-keyboard-response","trial_index":57,"time_elapsed":446472,"internal_node_id":"0.0-56.0-0.0","params":{"nStudents":8,"maxExamples":70,"completionMinutes":15,"basePay":3,"maxBonus":6,"perTrialBonus":0.7,"perTrialBonusThreshold":0.08,"exampleCost":0.01},"classroomParams":{"A":{"a":1,"b":9},"B":{"a":9,"b":1}},"conditions":["nonSeqFull","nonSeqPartial","seqNoFeedback","seqFeedback"],"classroomPairings":[["A","B"]],"coinWeights":[0.3,0.7],"subjectId":"A3CD3C99T8S6ON","assignmentId":"30BXRYBRP5JFXHOSPU4O2FXVD2GWHI","hitId":"391FPZIE4C80JT1T3SKLV8GBSWQUH7","url":"https://gershmanlab.com/experiments/alicia/teaching/experiment/?hitId=391FPZIE4C80JT1T3SKLV8GBSWQUH7&workerId=A3CD3C99T8S6ON&assignmentId=30BXRYBRP5JFXHOSPU4O2FXVD2GWHI&a=RRB05&tp_a=RRB05&b=30BXRYBRP5JFXHOSPU4O2FXVD2GWHI&tp_b=30BXRYBRP5JFXHOSPU4O2FXVD2GWHI&c=368485&tp_c=368485"},{"rt":4261,"stimulus":"\n            <h4 style=\"color:Blue;\">Student 8</h4>\n            <h2>On this island, <b style=\"color:Orange;\">7</b> out of every 10 turtles are orange and <b style=\"color:Purple;\">3</b> out of every 10 turtles are purple.</h2>\n            <p>In this block, you will be teaching <b>two</b> lessons to Student 8.</p>\n            <p><b>You will see the student's guess after the first lesson.</b> </p>\n            <p>You will receive feedback when you are finished with teaching the student.</p>\n            <p>To earn the highest bonus, you will have to <b>take into consideration the student's guess</b> when you choose your second set of turtles.</p>","response":0,"trial_type":"html-button-response","trial_index":58,"time_elapsed":450734,"internal_node_id":"0.0-57.0","params":{"nStudents":8,"maxExamples":70,"completionMinutes":15,"basePay":3,"maxBonus":6,"perTrialBonus":0.7,"perTrialBonusThreshold":0.08,"exampleCost":0.01},"classroomParams":{"A":{"a":1,"b":9},"B":{"a":9,"b":1}},"conditions":["nonSeqFull","nonSeqPartial","seqNoFeedback","seqFeedback"],"classroomPairings":[["A","B"]],"coinWeights":[0.3,0.7],"subjectId":"A3CD3C99T8S6ON","assignmentId":"30BXRYBRP5JFXHOSPU4O2FXVD2GWHI","hitId":"391FPZIE4C80JT1T3SKLV8GBSWQUH7","url":"https://gershmanlab.com/experiments/alicia/teaching/experiment/?hitId=391FPZIE4C80JT1T3SKLV8GBSWQUH7&workerId=A3CD3C99T8S6ON&assignmentId=30BXRYBRP5JFXHOSPU4O2FXVD2GWHI&a=RRB05&tp_a=RRB05&b=30BXRYBRP5JFXHOSPU4O2FXVD2GWHI&tp_b=30BXRYBRP5JFXHOSPU4O2FXVD2GWHI&c=368485&tp_c=368485"},{"rt":16031,"response":{"heads":"13","tails":"8"},"type":"response","condition":"seqFeedback","trueTheta":0.7,"classrooms":["A","B"],"studentTrueClassroom":"B","exampleSet":"first","trial_type":"survey-html-form","trial_index":59,"time_elapsed":466767,"internal_node_id":"0.0-58.0-0.0","params":{"nStudents":8,"maxExamples":70,"completionMinutes":15,"basePay":3,"maxBonus":6,"perTrialBonus":0.7,"perTrialBonusThreshold":0.08,"exampleCost":0.01},"classroomParams":{"A":{"a":1,"b":9},"B":{"a":9,"b":1}},"conditions":["nonSeqFull","nonSeqPartial","seqNoFeedback","seqFeedback"],"classroomPairings":[["A","B"]],"coinWeights":[0.3,0.7],"subjectId":"A3CD3C99T8S6ON","assignmentId":"30BXRYBRP5JFXHOSPU4O2FXVD2GWHI","hitId":"391FPZIE4C80JT1T3SKLV8GBSWQUH7","url":"https://gershmanlab.com/experiments/alicia/teaching/experiment/?hitId=391FPZIE4C80JT1T3SKLV8GBSWQUH7&workerId=A3CD3C99T8S6ON&assignmentId=30BXRYBRP5JFXHOSPU4O2FXVD2GWHI&a=RRB05&tp_a=RRB05&b=30BXRYBRP5JFXHOSPU4O2FXVD2GWHI&tp_b=30BXRYBRP5JFXHOSPU4O2FXVD2GWHI&c=368485&tp_c=368485","heads":13,"tails":8,"studentIndex":7,"studentTrueHypers":{"a":9,"b":1},"studentGuess":"0.71","delta":0.010000000000000009,"totalExamples":21,"bonusSoFar":1.6},{"rt":null,"stimulus":"Sending turtles to student... ","response":null,"trial_type":"html-keyboard-response","trial_index":60,"time_elapsed":468770,"internal_node_id":"0.0-59.0","params":{"nStudents":8,"maxExamples":70,"completionMinutes":15,"basePay":3,"maxBonus":6,"perTrialBonus":0.7,"perTrialBonusThreshold":0.08,"exampleCost":0.01},"classroomParams":{"A":{"a":1,"b":9},"B":{"a":9,"b":1}},"conditions":["nonSeqFull","nonSeqPartial","seqNoFeedback","seqFeedback"],"classroomPairings":[["A","B"]],"coinWeights":[0.3,0.7],"subjectId":"A3CD3C99T8S6ON","assignmentId":"30BXRYBRP5JFXHOSPU4O2FXVD2GWHI","hitId":"391FPZIE4C80JT1T3SKLV8GBSWQUH7","url":"https://gershmanlab.com/experiments/alicia/teaching/experiment/?hitId=391FPZIE4C80JT1T3SKLV8GBSWQUH7&workerId=A3CD3C99T8S6ON&assignmentId=30BXRYBRP5JFXHOSPU4O2FXVD2GWHI&a=RRB05&tp_a=RRB05&b=30BXRYBRP5JFXHOSPU4O2FXVD2GWHI&tp_b=30BXRYBRP5JFXHOSPU4O2FXVD2GWHI&c=368485&tp_c=368485"},{"rt":null,"stimulus":"Turtles sent to student! Waiting for student...","response":null,"trial_type":"html-keyboard-response","trial_index":61,"time_elapsed":473775,"internal_node_id":"0.0-60.0","params":{"nStudents":8,"maxExamples":70,"completionMinutes":15,"basePay":3,"maxBonus":6,"perTrialBonus":0.7,"perTrialBonusThreshold":0.08,"exampleCost":0.01},"classroomParams":{"A":{"a":1,"b":9},"B":{"a":9,"b":1}},"conditions":["nonSeqFull","nonSeqPartial","seqNoFeedback","seqFeedback"],"classroomPairings":[["A","B"]],"coinWeights":[0.3,0.7],"subjectId":"A3CD3C99T8S6ON","assignmentId":"30BXRYBRP5JFXHOSPU4O2FXVD2GWHI","hitId":"391FPZIE4C80JT1T3SKLV8GBSWQUH7","url":"https://gershmanlab.com/experiments/alicia/teaching/experiment/?hitId=391FPZIE4C80JT1T3SKLV8GBSWQUH7&workerId=A3CD3C99T8S6ON&assignmentId=30BXRYBRP5JFXHOSPU4O2FXVD2GWHI&a=RRB05&tp_a=RRB05&b=30BXRYBRP5JFXHOSPU4O2FXVD2GWHI&tp_b=30BXRYBRP5JFXHOSPU4O2FXVD2GWHI&c=368485&tp_c=368485"},{"rt":5205,"stimulus":"<h2>Student guess</h2>\n                <p>The student guessed that <b style=\"color:Orange;\">71</b> out of every 100 turtles are                     orange and <b style=\"color:Purple;\">29</b> out of every 100 turtles are purple.</p>\n                <p></b></p>\n                <p>You will now send another set of turtles to your student.</p>\n                <p>Press any key to continue.</p>\n                ","response":" ","trial_type":"html-keyboard-response","trial_index":62,"time_elapsed":478983,"internal_node_id":"0.0-61.0","params":{"nStudents":8,"maxExamples":70,"completionMinutes":15,"basePay":3,"maxBonus":6,"perTrialBonus":0.7,"perTrialBonusThreshold":0.08,"exampleCost":0.01},"classroomParams":{"A":{"a":1,"b":9},"B":{"a":9,"b":1}},"conditions":["nonSeqFull","nonSeqPartial","seqNoFeedback","seqFeedback"],"classroomPairings":[["A","B"]],"coinWeights":[0.3,0.7],"subjectId":"A3CD3C99T8S6ON","assignmentId":"30BXRYBRP5JFXHOSPU4O2FXVD2GWHI","hitId":"391FPZIE4C80JT1T3SKLV8GBSWQUH7","url":"https://gershmanlab.com/experiments/alicia/teaching/experiment/?hitId=391FPZIE4C80JT1T3SKLV8GBSWQUH7&workerId=A3CD3C99T8S6ON&assignmentId=30BXRYBRP5JFXHOSPU4O2FXVD2GWHI&a=RRB05&tp_a=RRB05&b=30BXRYBRP5JFXHOSPU4O2FXVD2GWHI&tp_b=30BXRYBRP5JFXHOSPU4O2FXVD2GWHI&c=368485&tp_c=368485"},{"rt":5678,"response":{"heads":"7","tails":"3"},"type":"response","condition":"seqFeedback","trueTheta":0.7,"classrooms":["A","B"],"studentTrueClassroom":"B","exampleSet":"second","trial_type":"survey-html-form","trial_index":63,"time_elapsed":484664,"internal_node_id":"0.0-62.0-0.0","params":{"nStudents":8,"maxExamples":70,"completionMinutes":15,"basePay":3,"maxBonus":6,"perTrialBonus":0.7,"perTrialBonusThreshold":0.08,"exampleCost":0.01},"classroomParams":{"A":{"a":1,"b":9},"B":{"a":9,"b":1}},"conditions":["nonSeqFull","nonSeqPartial","seqNoFeedback","seqFeedback"],"classroomPairings":[["A","B"]],"coinWeights":[0.3,0.7],"subjectId":"A3CD3C99T8S6ON","assignmentId":"30BXRYBRP5JFXHOSPU4O2FXVD2GWHI","hitId":"391FPZIE4C80JT1T3SKLV8GBSWQUH7","url":"https://gershmanlab.com/experiments/alicia/teaching/experiment/?hitId=391FPZIE4C80JT1T3SKLV8GBSWQUH7&workerId=A3CD3C99T8S6ON&assignmentId=30BXRYBRP5JFXHOSPU4O2FXVD2GWHI&a=RRB05&tp_a=RRB05&b=30BXRYBRP5JFXHOSPU4O2FXVD2GWHI&tp_b=30BXRYBRP5JFXHOSPU4O2FXVD2GWHI&c=368485&tp_c=368485","firstResponseHeads":13,"firstResponseTails":8,"secondResponseHeads":7,"secondResponseTails":3,"totalHeads":20,"totalTails":11,"studentIndex":7,"studentTrueHypers":{"a":9,"b":1},"studentGuess":"0.71","delta":0.010000000000000009,"bonus":0.39,"bonusSoFar":1.99,"totalExamples":31},{"rt":null,"stimulus":"Sending turtles to student... ","response":null,"trial_type":"html-keyboard-response","trial_index":64,"time_elapsed":486184,"internal_node_id":"0.0-63.0","params":{"nStudents":8,"maxExamples":70,"completionMinutes":15,"basePay":3,"maxBonus":6,"perTrialBonus":0.7,"perTrialBonusThreshold":0.08,"exampleCost":0.01},"classroomParams":{"A":{"a":1,"b":9},"B":{"a":9,"b":1}},"conditions":["nonSeqFull","nonSeqPartial","seqNoFeedback","seqFeedback"],"classroomPairings":[["A","B"]],"coinWeights":[0.3,0.7],"subjectId":"A3CD3C99T8S6ON","assignmentId":"30BXRYBRP5JFXHOSPU4O2FXVD2GWHI","hitId":"391FPZIE4C80JT1T3SKLV8GBSWQUH7","url":"https://gershmanlab.com/experiments/alicia/teaching/experiment/?hitId=391FPZIE4C80JT1T3SKLV8GBSWQUH7&workerId=A3CD3C99T8S6ON&assignmentId=30BXRYBRP5JFXHOSPU4O2FXVD2GWHI&a=RRB05&tp_a=RRB05&b=30BXRYBRP5JFXHOSPU4O2FXVD2GWHI&tp_b=30BXRYBRP5JFXHOSPU4O2FXVD2GWHI&c=368485&tp_c=368485"},{"rt":null,"stimulus":"Turtles sent to student! Waiting for student...","response":null,"trial_type":"html-keyboard-response","trial_index":65,"time_elapsed":490215,"internal_node_id":"0.0-64.0","params":{"nStudents":8,"maxExamples":70,"completionMinutes":15,"basePay":3,"maxBonus":6,"perTrialBonus":0.7,"perTrialBonusThreshold":0.08,"exampleCost":0.01},"classroomParams":{"A":{"a":1,"b":9},"B":{"a":9,"b":1}},"conditions":["nonSeqFull","nonSeqPartial","seqNoFeedback","seqFeedback"],"classroomPairings":[["A","B"]],"coinWeights":[0.3,0.7],"subjectId":"A3CD3C99T8S6ON","assignmentId":"30BXRYBRP5JFXHOSPU4O2FXVD2GWHI","hitId":"391FPZIE4C80JT1T3SKLV8GBSWQUH7","url":"https://gershmanlab.com/experiments/alicia/teaching/experiment/?hitId=391FPZIE4C80JT1T3SKLV8GBSWQUH7&workerId=A3CD3C99T8S6ON&assignmentId=30BXRYBRP5JFXHOSPU4O2FXVD2GWHI&a=RRB05&tp_a=RRB05&b=30BXRYBRP5JFXHOSPU4O2FXVD2GWHI&tp_b=30BXRYBRP5JFXHOSPU4O2FXVD2GWHI&c=368485&tp_c=368485"},{"rt":5966,"stimulus":"\n                <h3>Student 8's first guess</h3>\n                <p>The student's first guess was that <b style=\"color:Orange;\">71</b> out of every 100 turtles are                     orange and <b style=\"color:Purple;\">29</b> out of every 100 turtles are purple.</p>\n                <h3>Student 8's second guess</h3>\n                <p>The student's second guess was that <b style=\"color:Orange;\">71</b> out of every 100 turtles are                     orange and <b style=\"color:Purple;\">29</b> out of every 100 turtles are purple.</p>\n                <p>You received a bonus of <b>$0.39</b> based on the student's second guess.</p>\n                <p>Total bonus so far: <b>$1.99</b></p>\n                <p>Press any key to continue.</p>\n                ","response":" ","trial_type":"html-keyboard-response","trial_index":66,"time_elapsed":496182,"internal_node_id":"0.0-65.0","params":{"nStudents":8,"maxExamples":70,"completionMinutes":15,"basePay":3,"maxBonus":6,"perTrialBonus":0.7,"perTrialBonusThreshold":0.08,"exampleCost":0.01},"classroomParams":{"A":{"a":1,"b":9},"B":{"a":9,"b":1}},"conditions":["nonSeqFull","nonSeqPartial","seqNoFeedback","seqFeedback"],"classroomPairings":[["A","B"]],"coinWeights":[0.3,0.7],"subjectId":"A3CD3C99T8S6ON","assignmentId":"30BXRYBRP5JFXHOSPU4O2FXVD2GWHI","hitId":"391FPZIE4C80JT1T3SKLV8GBSWQUH7","url":"https://gershmanlab.com/experiments/alicia/teaching/experiment/?hitId=391FPZIE4C80JT1T3SKLV8GBSWQUH7&workerId=A3CD3C99T8S6ON&assignmentId=30BXRYBRP5JFXHOSPU4O2FXVD2GWHI&a=RRB05&tp_a=RRB05&b=30BXRYBRP5JFXHOSPU4O2FXVD2GWHI&tp_b=30BXRYBRP5JFXHOSPU4O2FXVD2GWHI&c=368485&tp_c=368485"},{"rt":46126,"response":{"gender":"male","age":"32","understood":"yes","strategy":"I tried to select compositions that nudge the student closer towards the correct composition. I also tried to use smaller numbers so as not to waste money.","comments":"This was a fun and engaging task!"},"type":"response","trial_type":"survey-html-form","trial_index":67,"time_elapsed":542311,"internal_node_id":"0.0-67.0","params":{"nStudents":8,"maxExamples":70,"completionMinutes":15,"basePay":3,"maxBonus":6,"perTrialBonus":0.7,"perTrialBonusThreshold":0.08,"exampleCost":0.01},"classroomParams":{"A":{"a":1,"b":9},"B":{"a":9,"b":1}},"conditions":["nonSeqFull","nonSeqPartial","seqNoFeedback","seqFeedback"],"classroomPairings":[["A","B"]],"coinWeights":[0.3,0.7],"subjectId":"A3CD3C99T8S6ON","assignmentId":"30BXRYBRP5JFXHOSPU4O2FXVD2GWHI","hitId":"391FPZIE4C80JT1T3SKLV8GBSWQUH7","url":"https://gershmanlab.com/experiments/alicia/teaching/experiment/?hitId=391FPZIE4C80JT1T3SKLV8GBSWQUH7&workerId=A3CD3C99T8S6ON&assignmentId=30BXRYBRP5JFXHOSPU4O2FXVD2GWHI&a=RRB05&tp_a=RRB05&b=30BXRYBRP5JFXHOSPU4O2FXVD2GWHI&tp_b=30BXRYBRP5JFXHOSPU4O2FXVD2GWHI&c=368485&tp_c=368485","totalBonus":1.99}]