[{"rt":38667,"response":{"heads":"3","tails":"1"},"type":"response","condition":"nonSeqFull","trueTheta":0.7,"classrooms":["A","B"],"studentTrueClassroom":"A","exampleSet":"first","trial_type":"survey-html-form","trial_index":7,"time_elapsed":824903,"internal_node_id":"0.0-6.0-0.0","params":{"nStudents":8,"maxExamples":70,"completionMinutes":15,"basePay":3,"maxBonus":6,"perTrialBonus":0.7,"perTrialBonusThreshold":0.08,"exampleCost":0.01},"classroomParams":{"A":{"a":1,"b":9},"B":{"a":9,"b":1}},"conditions":["nonSeqFull","nonSeqPartial","seqNoFeedback","seqFeedback"],"classroomPairings":[["A","B"]],"coinWeights":[0.3,0.7],"subjectId":"A10249252O9I20MRSOBVF","assignmentId":"3K4J6M3CXFF4Q8QE4JQEZQO36J0AGM","hitId":"3GL25Y6843GESBWZZUBL7KNB306MX0","url":"https://gershmanlab.com/experiments/alicia/teaching/experiment/?hitId=3GL25Y6843GESBWZZUBL7KNB306MX0&workerId=A10249252O9I20MRSOBVF&assignmentId=3K4J6M3CXFF4Q8QE4JQEZQO36J0AGM&a=C64K5&tp_a=C64K5&b=3K4J6M3CXFF4Q8QE4JQEZQO36J0AGM&tp_b=3K4J6M3CXFF4Q8QE4JQEZQO36J0AGM&c=368485&tp_c=368485","heads":3,"tails":1,"studentIndex":0,"studentTrueHypers":{"a":1,"b":9},"studentGuess":"0.29","delta":0.41,"totalExamples":4,"bonus":0,"bonusSoFar":0},{"rt":27118,"response":{"heads":"2","tails":"4"},"type":"response","condition":"nonSeqPartial","trueTheta":0.3,"classrooms":["A","B"],"studentTrueClassroom":"B","exampleSet":"first","trial_type":"survey-html-form","trial_index":13,"time_elapsed":878739,"internal_node_id":"0.0-12.0-0.0","params":{"nStudents":8,"maxExamples":70,"completionMinutes":15,"basePay":3,"maxBonus":6,"perTrialBonus":0.7,"perTrialBonusThreshold":0.08,"exampleCost":0.01},"classroomParams":{"A":{"a":1,"b":9},"B":{"a":9,"b":1}},"conditions":["nonSeqFull","nonSeqPartial","seqNoFeedback","seqFeedback"],"classroomPairings":[["A","B"]],"coinWeights":[0.3,0.7],"subjectId":"A10249252O9I20MRSOBVF","assignmentId":"3K4J6M3CXFF4Q8QE4JQEZQO36J0AGM","hitId":"3GL25Y6843GESBWZZUBL7KNB306MX0","url":"https://gershmanlab.com/experiments/alicia/teaching/experiment/?hitId=3GL25Y6843GESBWZZUBL7KNB306MX0&workerId=A10249252O9I20MRSOBVF&assignmentId=3K4J6M3CXFF4Q8QE4JQEZQO36J0AGM&a=C64K5&tp_a=C64K5&b=3K4J6M3CXFF4Q8QE4JQEZQO36J0AGM&tp_b=3K4J6M3CXFF4Q8QE4JQEZQO36J0AGM&c=368485&tp_c=368485","heads":2,"tails":4,"studentIndex":1,"studentTrueHypers":{"a":9,"b":1},"studentGuess":"0.69","delta":0.38999999999999996,"totalExamples":6,"bonus":0,"bonusSoFar":0},{"rt":23988,"response":{"heads":"5","tails":"1"},"type":"response","condition":"seqFeedback","trueTheta":0.7,"classrooms":["A","B"],"studentTrueClassroom":"A","exampleSet":"first","trial_type":"survey-html-form","trial_index":19,"time_elapsed":926851,"internal_node_id":"0.0-18.0-0.0","params":{"nStudents":8,"maxExamples":70,"completionMinutes":15,"basePay":3,"maxBonus":6,"perTrialBonus":0.7,"perTrialBonusThreshold":0.08,"exampleCost":0.01},"classroomParams":{"A":{"a":1,"b":9},"B":{"a":9,"b":1}},"conditions":["nonSeqFull","nonSeqPartial","seqNoFeedback","seqFeedback"],"classroomPairings":[["A","B"]],"coinWeights":[0.3,0.7],"subjectId":"A10249252O9I20MRSOBVF","assignmentId":"3K4J6M3CXFF4Q8QE4JQEZQO36J0AGM","hitId":"3GL25Y6843GESBWZZUBL7KNB306MX0","url":"https://gershmanlab.com/experiments/alicia/teaching/experiment/?hitId=3GL25Y6843GESBWZZUBL7KNB306MX0&workerId=A10249252O9I20MRSOBVF&assignmentId=3K4J6M3CXFF4Q8QE4JQEZQO36J0AGM&a=C64K5&tp_a=C64K5&b=3K4J6M3CXFF4Q8QE4JQEZQO36J0AGM&tp_b=3K4J6M3CXFF4Q8QE4JQEZQO36J0AGM&c=368485&tp_c=368485","heads":5,"tails":1,"studentIndex":2,"studentTrueHypers":{"a":1,"b":9},"studentGuess":"0.38","delta":0.31999999999999995,"totalExamples":6,"bonusSoFar":0},{"rt":26266,"response":{"heads":"4","tails":"0"},"type":"response","condition":"seqFeedback","trueTheta":0.7,"classrooms":["A","B"],"studentTrueClassroom":"A","exampleSet":"second","trial_type":"survey-html-form","trial_index":23,"time_elapsed":968430,"internal_node_id":"0.0-22.0-0.0","params":{"nStudents":8,"maxExamples":70,"completionMinutes":15,"basePay":3,"maxBonus":6,"perTrialBonus":0.7,"perTrialBonusThreshold":0.08,"exampleCost":0.01},"classroomParams":{"A":{"a":1,"b":9},"B":{"a":9,"b":1}},"conditions":["nonSeqFull","nonSeqPartial","seqNoFeedback","seqFeedback"],"classroomPairings":[["A","B"]],"coinWeights":[0.3,0.7],"subjectId":"A10249252O9I20MRSOBVF","assignmentId":"3K4J6M3CXFF4Q8QE4JQEZQO36J0AGM","hitId":"3GL25Y6843GESBWZZUBL7KNB306MX0","url":"https://gershmanlab.com/experiments/alicia/teaching/experiment/?hitId=3GL25Y6843GESBWZZUBL7KNB306MX0&workerId=A10249252O9I20MRSOBVF&assignmentId=3K4J6M3CXFF4Q8QE4JQEZQO36J0AGM&a=C64K5&tp_a=C64K5&b=3K4J6M3CXFF4Q8QE4JQEZQO36J0AGM&tp_b=3K4J6M3CXFF4Q8QE4JQEZQO36J0AGM&c=368485&tp_c=368485","firstResponseHeads":5,"firstResponseTails":1,"secondResponseHeads":4,"secondResponseTails":0,"totalHeads":9,"totalTails":1,"studentIndex":2,"studentTrueHypers":{"a":1,"b":9},"studentGuess":"0.50","delta":0.19999999999999996,"bonus":0,"bonusSoFar":0,"totalExamples":10},{"rt":17211,"response":{"heads":"1","tails":"3"},"type":"response","condition":"seqNoFeedback","trueTheta":0.3,"classrooms":["A","B"],"studentTrueClassroom":"B","exampleSet":"first","trial_type":"survey-html-form","trial_index":29,"time_elapsed":1004551,"internal_node_id":"0.0-28.0-0.0","params":{"nStudents":8,"maxExamples":70,"completionMinutes":15,"basePay":3,"maxBonus":6,"perTrialBonus":0.7,"perTrialBonusThreshold":0.08,"exampleCost":0.01},"classroomParams":{"A":{"a":1,"b":9},"B":{"a":9,"b":1}},"conditions":["nonSeqFull","nonSeqPartial","seqNoFeedback","seqFeedback"],"classroomPairings":[["A","B"]],"coinWeights":[0.3,0.7],"subjectId":"A10249252O9I20MRSOBVF","assignmentId":"3K4J6M3CXFF4Q8QE4JQEZQO36J0AGM","hitId":"3GL25Y6843GESBWZZUBL7KNB306MX0","url":"https://gershmanlab.com/experiments/alicia/teaching/experiment/?hitId=3GL25Y6843GESBWZZUBL7KNB306MX0&workerId=A10249252O9I20MRSOBVF&assignmentId=3K4J6M3CXFF4Q8QE4JQEZQO36J0AGM&a=C64K5&tp_a=C64K5&b=3K4J6M3CXFF4Q8QE4JQEZQO36J0AGM&tp_b=3K4J6M3CXFF4Q8QE4JQEZQO36J0AGM&c=368485&tp_c=368485","heads":1,"tails":3,"studentIndex":3,"studentTrueHypers":{"a":9,"b":1},"studentGuess":"0.71","delta":0.41,"totalExamples":4,"bonusSoFar":0},{"rt":20693,"response":{"heads":"1","tails":"4"},"type":"response","condition":"seqNoFeedback","trueTheta":0.3,"classrooms":["A","B"],"studentTrueClassroom":"B","exampleSet":"second","trial_type":"survey-html-form","trial_index":32,"time_elapsed":1031268,"internal_node_id":"0.0-31.0-0.0","params":{"nStudents":8,"maxExamples":70,"completionMinutes":15,"basePay":3,"maxBonus":6,"perTrialBonus":0.7,"perTrialBonusThreshold":0.08,"exampleCost":0.01},"classroomParams":{"A":{"a":1,"b":9},"B":{"a":9,"b":1}},"conditions":["nonSeqFull","nonSeqPartial","seqNoFeedback","seqFeedback"],"classroomPairings":[["A","B"]],"coinWeights":[0.3,0.7],"subjectId":"A10249252O9I20MRSOBVF","assignmentId":"3K4J6M3CXFF4Q8QE4JQEZQO36J0AGM","hitId":"3GL25Y6843GESBWZZUBL7KNB306MX0","url":"https://gershmanlab.com/experiments/alicia/teaching/experiment/?hitId=3GL25Y6843GESBWZZUBL7KNB306MX0&workerId=A10249252O9I20MRSOBVF&assignmentId=3K4J6M3CXFF4Q8QE4JQEZQO36J0AGM&a=C64K5&tp_a=C64K5&b=3K4J6M3CXFF4Q8QE4JQEZQO36J0AGM&tp_b=3K4J6M3CXFF4Q8QE4JQEZQO36J0AGM&c=368485&tp_c=368485","firstResponseHeads":1,"firstResponseTails":3,"secondResponseHeads":1,"secondResponseTails":4,"totalHeads":2,"totalTails":7,"studentIndex":3,"studentTrueHypers":{"a":9,"b":1},"studentGuess":"0.58","delta":0.27999999999999997,"bonus":0,"bonusSoFar":0,"totalExamples":9},{"rt":9053,"response":{"heads":"4","tails":"6"},"type":"response","condition":"nonSeqFull","trueTheta":0.3,"classrooms":["A","B"],"studentTrueClassroom":"B","exampleSet":"first","trial_type":"survey-html-form","trial_index":38,"time_elapsed":1061427,"internal_node_id":"0.0-37.0-0.0","params":{"nStudents":8,"maxExamples":70,"completionMinutes":15,"basePay":3,"maxBonus":6,"perTrialBonus":0.7,"perTrialBonusThreshold":0.08,"exampleCost":0.01},"classroomParams":{"A":{"a":1,"b":9},"B":{"a":9,"b":1}},"conditions":["nonSeqFull","nonSeqPartial","seqNoFeedback","seqFeedback"],"classroomPairings":[["A","B"]],"coinWeights":[0.3,0.7],"subjectId":"A10249252O9I20MRSOBVF","assignmentId":"3K4J6M3CXFF4Q8QE4JQEZQO36J0AGM","hitId":"3GL25Y6843GESBWZZUBL7KNB306MX0","url":"https://gershmanlab.com/experiments/alicia/teaching/experiment/?hitId=3GL25Y6843GESBWZZUBL7KNB306MX0&workerId=A10249252O9I20MRSOBVF&assignmentId=3K4J6M3CXFF4Q8QE4JQEZQO36J0AGM&a=C64K5&tp_a=C64K5&b=3K4J6M3CXFF4Q8QE4JQEZQO36J0AGM&tp_b=3K4J6M3CXFF4Q8QE4JQEZQO36J0AGM&c=368485&tp_c=368485","heads":4,"tails":6,"studentIndex":4,"studentTrueHypers":{"a":9,"b":1},"studentGuess":"0.65","delta":0.35000000000000003,"totalExamples":10,"bonus":0,"bonusSoFar":0},{"rt":8091,"response":{"heads":"3","tails":"7"},"type":"response","condition":"seqFeedback","trueTheta":0.3,"classrooms":["A","B"],"studentTrueClassroom":"A","exampleSet":"first","trial_type":"survey-html-form","trial_index":44,"time_elapsed":1086314,"internal_node_id":"0.0-43.0-0.0","params":{"nStudents":8,"maxExamples":70,"completionMinutes":15,"basePay":3,"maxBonus":6,"perTrialBonus":0.7,"perTrialBonusThreshold":0.08,"exampleCost":0.01},"classroomParams":{"A":{"a":1,"b":9},"B":{"a":9,"b":1}},"conditions":["nonSeqFull","nonSeqPartial","seqNoFeedback","seqFeedback"],"classroomPairings":[["A","B"]],"coinWeights":[0.3,0.7],"subjectId":"A10249252O9I20MRSOBVF","assignmentId":"3K4J6M3CXFF4Q8QE4JQEZQO36J0AGM","hitId":"3GL25Y6843GESBWZZUBL7KNB306MX0","url":"https://gershmanlab.com/experiments/alicia/teaching/experiment/?hitId=3GL25Y6843GESBWZZUBL7KNB306MX0&workerId=A10249252O9I20MRSOBVF&assignmentId=3K4J6M3CXFF4Q8QE4JQEZQO36J0AGM&a=C64K5&tp_a=C64K5&b=3K4J6M3CXFF4Q8QE4JQEZQO36J0AGM&tp_b=3K4J6M3CXFF4Q8QE4JQEZQO36J0AGM&c=368485&tp_c=368485","heads":3,"tails":7,"studentIndex":5,"studentTrueHypers":{"a":1,"b":9},"studentGuess":"0.20","delta":0.09999999999999998,"totalExamples":10,"bonusSoFar":0},{"rt":25936,"response":{"heads":"4","tails":"6"},"type":"response","condition":"seqFeedback","trueTheta":0.3,"classrooms":["A","B"],"studentTrueClassroom":"A","exampleSet":"second","trial_type":"survey-html-form","trial_index":48,"time_elapsed":1122727,"internal_node_id":"0.0-47.0-0.0","params":{"nStudents":8,"maxExamples":70,"completionMinutes":15,"basePay":3,"maxBonus":6,"perTrialBonus":0.7,"perTrialBonusThreshold":0.08,"exampleCost":0.01},"classroomParams":{"A":{"a":1,"b":9},"B":{"a":9,"b":1}},"conditions":["nonSeqFull","nonSeqPartial","seqNoFeedback","seqFeedback"],"classroomPairings":[["A","B"]],"coinWeights":[0.3,0.7],"subjectId":"A10249252O9I20MRSOBVF","assignmentId":"3K4J6M3CXFF4Q8QE4JQEZQO36J0AGM","hitId":"3GL25Y6843GESBWZZUBL7KNB306MX0","url":"https://gershmanlab.com/experiments/alicia/teaching/experiment/?hitId=3GL25Y6843GESBWZZUBL7KNB306MX0&workerId=A10249252O9I20MRSOBVF&assignmentId=3K4J6M3CXFF4Q8QE4JQEZQO36J0AGM&a=C64K5&tp_a=C64K5&b=3K4J6M3CXFF4Q8QE4JQEZQO36J0AGM&tp_b=3K4J6M3CXFF4Q8QE4JQEZQO36J0AGM&c=368485&tp_c=368485","firstResponseHeads":3,"firstResponseTails":7,"secondResponseHeads":4,"secondResponseTails":6,"totalHeads":7,"totalTails":13,"studentIndex":5,"studentTrueHypers":{"a":1,"b":9},"studentGuess":"0.27","delta":0.02999999999999997,"bonus":0.5,"bonusSoFar":0.5,"totalExamples":20},{"rt":4773,"response":{"heads":"6","tails":"3"},"type":"response","condition":"nonSeqPartial","trueTheta":0.7,"classrooms":["A","B"],"studentTrueClassroom":"B","exampleSet":"first","trial_type":"survey-html-form","trial_index":54,"time_elapsed":1140388,"internal_node_id":"0.0-53.0-0.0","params":{"nStudents":8,"maxExamples":70,"completionMinutes":15,"basePay":3,"maxBonus":6,"perTrialBonus":0.7,"perTrialBonusThreshold":0.08,"exampleCost":0.01},"classroomParams":{"A":{"a":1,"b":9},"B":{"a":9,"b":1}},"conditions":["nonSeqFull","nonSeqPartial","seqNoFeedback","seqFeedback"],"classroomPairings":[["A","B"]],"coinWeights":[0.3,0.7],"subjectId":"A10249252O9I20MRSOBVF","assignmentId":"3K4J6M3CXFF4Q8QE4JQEZQO36J0AGM","hitId":"3GL25Y6843GESBWZZUBL7KNB306MX0","url":"https://gershmanlab.com/experiments/alicia/teaching/experiment/?hitId=3GL25Y6843GESBWZZUBL7KNB306MX0&workerId=A10249252O9I20MRSOBVF&assignmentId=3K4J6M3CXFF4Q8QE4JQEZQO36J0AGM&a=C64K5&tp_a=C64K5&b=3K4J6M3CXFF4Q8QE4JQEZQO36J0AGM&tp_b=3K4J6M3CXFF4Q8QE4JQEZQO36J0AGM&c=368485&tp_c=368485","heads":6,"tails":3,"studentIndex":6,"studentTrueHypers":{"a":9,"b":1},"studentGuess":"0.79","delta":0.09000000000000008,"totalExamples":9,"bonus":0,"bonusSoFar":0.5},{"rt":11094,"response":{"heads":"8","tails":"3"},"type":"response","condition":"seqNoFeedback","trueTheta":0.7,"classrooms":["A","B"],"studentTrueClassroom":"B","exampleSet":"first","trial_type":"survey-html-form","trial_index":60,"time_elapsed":1164270,"internal_node_id":"0.0-59.0-0.0","params":{"nStudents":8,"maxExamples":70,"completionMinutes":15,"basePay":3,"maxBonus":6,"perTrialBonus":0.7,"perTrialBonusThreshold":0.08,"exampleCost":0.01},"classroomParams":{"A":{"a":1,"b":9},"B":{"a":9,"b":1}},"conditions":["nonSeqFull","nonSeqPartial","seqNoFeedback","seqFeedback"],"classroomPairings":[["A","B"]],"coinWeights":[0.3,0.7],"subjectId":"A10249252O9I20MRSOBVF","assignmentId":"3K4J6M3CXFF4Q8QE4JQEZQO36J0AGM","hitId":"3GL25Y6843GESBWZZUBL7KNB306MX0","url":"https://gershmanlab.com/experiments/alicia/teaching/experiment/?hitId=3GL25Y6843GESBWZZUBL7KNB306MX0&workerId=A10249252O9I20MRSOBVF&assignmentId=3K4J6M3CXFF4Q8QE4JQEZQO36J0AGM&a=C64K5&tp_a=C64K5&b=3K4J6M3CXFF4Q8QE4JQEZQO36J0AGM&tp_b=3K4J6M3CXFF4Q8QE4JQEZQO36J0AGM&c=368485&tp_c=368485","heads":8,"tails":3,"studentIndex":7,"studentTrueHypers":{"a":9,"b":1},"studentGuess":"0.81","delta":0.1100000000000001,"totalExamples":11,"bonusSoFar":0.5},{"rt":12639,"response":{"heads":"8","tails":"3"},"type":"response","condition":"seqNoFeedback","trueTheta":0.7,"classrooms":["A","B"],"studentTrueClassroom":"B","exampleSet":"second","trial_type":"survey-html-form","trial_index":63,"time_elapsed":1182937,"internal_node_id":"0.0-62.0-0.0","params":{"nStudents":8,"maxExamples":70,"completionMinutes":15,"basePay":3,"maxBonus":6,"perTrialBonus":0.7,"perTrialBonusThreshold":0.08,"exampleCost":0.01},"classroomParams":{"A":{"a":1,"b":9},"B":{"a":9,"b":1}},"conditions":["nonSeqFull","nonSeqPartial","seqNoFeedback","seqFeedback"],"classroomPairings":[["A","B"]],"coinWeights":[0.3,0.7],"subjectId":"A10249252O9I20MRSOBVF","assignmentId":"3K4J6M3CXFF4Q8QE4JQEZQO36J0AGM","hitId":"3GL25Y6843GESBWZZUBL7KNB306MX0","url":"https://gershmanlab.com/experiments/alicia/teaching/experiment/?hitId=3GL25Y6843GESBWZZUBL7KNB306MX0&workerId=A10249252O9I20MRSOBVF&assignmentId=3K4J6M3CXFF4Q8QE4JQEZQO36J0AGM&a=C64K5&tp_a=C64K5&b=3K4J6M3CXFF4Q8QE4JQEZQO36J0AGM&tp_b=3K4J6M3CXFF4Q8QE4JQEZQO36J0AGM&c=368485&tp_c=368485","firstResponseHeads":8,"firstResponseTails":3,"secondResponseHeads":8,"secondResponseTails":3,"totalHeads":16,"totalTails":6,"studentIndex":7,"studentTrueHypers":{"a":9,"b":1},"studentGuess":"0.78","delta":0.08000000000000007,"bonus":0.48,"bonusSoFar":0.98,"totalExamples":22},{"rt":26855,"response":{"gender":"female","age":"58","understood":"yes","strategy":"I tried  to get close to the first numbers","comments":""},"type":"response","trial_type":"survey-html-form","trial_index":67,"time_elapsed":1218333,"internal_node_id":"0.0-67.0","params":{"nStudents":8,"maxExamples":70,"completionMinutes":15,"basePay":3,"maxBonus":6,"perTrialBonus":0.7,"perTrialBonusThreshold":0.08,"exampleCost":0.01},"classroomParams":{"A":{"a":1,"b":9},"B":{"a":9,"b":1}},"conditions":["nonSeqFull","nonSeqPartial","seqNoFeedback","seqFeedback"],"classroomPairings":[["A","B"]],"coinWeights":[0.3,0.7],"subjectId":"A10249252O9I20MRSOBVF","assignmentId":"3K4J6M3CXFF4Q8QE4JQEZQO36J0AGM","hitId":"3GL25Y6843GESBWZZUBL7KNB306MX0","url":"https://gershmanlab.com/experiments/alicia/teaching/experiment/?hitId=3GL25Y6843GESBWZZUBL7KNB306MX0&workerId=A10249252O9I20MRSOBVF&assignmentId=3K4J6M3CXFF4Q8QE4JQEZQO36J0AGM&a=C64K5&tp_a=C64K5&b=3K4J6M3CXFF4Q8QE4JQEZQO36J0AGM&tp_b=3K4J6M3CXFF4Q8QE4JQEZQO36J0AGM&c=368485&tp_c=368485","totalBonus":0.98}]