[{"rt":64045,"response":{"heads":"4","tails":"1"},"type":"response","condition":"nonSeqPartial","trueTheta":0.7,"classrooms":["A","B"],"studentTrueClassroom":"A","exampleSet":"first","trial_type":"survey-html-form","trial_index":7,"time_elapsed":403595,"internal_node_id":"0.0-6.0-0.0","params":{"nStudents":8,"maxExamples":70,"completionMinutes":15,"basePay":3,"maxBonus":6,"perTrialBonus":0.7,"perTrialBonusThreshold":0.08,"exampleCost":0.01},"classroomParams":{"A":{"a":1,"b":9},"B":{"a":9,"b":1}},"conditions":["nonSeqFull","nonSeqPartial","seqNoFeedback","seqFeedback"],"classroomPairings":[["A","B"]],"coinWeights":[0.3,0.7],"subjectId":"A1AZTE5W2MF1TU","assignmentId":"3SB5N7Y3O4Q8PVSWCHTLAKCQXXO0GL","hitId":"3VEI3XUCZRJ0GI70IBXLZ6VI7OWRP5","url":"https://gershmanlab.com/experiments/alicia/teaching/experiment/?hitId=3VEI3XUCZRJ0GI70IBXLZ6VI7OWRP5&workerId=A1AZTE5W2MF1TU&assignmentId=3SB5N7Y3O4Q8PVSWCHTLAKCQXXO0GL&a=3NBS5&tp_a=3NBS5&b=3SB5N7Y3O4Q8PVSWCHTLAKCQXXO0GL&tp_b=3SB5N7Y3O4Q8PVSWCHTLAKCQXXO0GL&c=368485&tp_c=368485","heads":4,"tails":1,"studentIndex":0,"studentTrueHypers":{"a":1,"b":9},"studentGuess":"0.33","delta":0.36999999999999994,"totalExamples":5,"bonus":0,"bonusSoFar":0},{"rt":41124,"response":{"heads":"4","tails":"1"},"type":"response","condition":"seqFeedback","trueTheta":0.7,"classrooms":["A","B"],"studentTrueClassroom":"A","exampleSet":"first","trial_type":"survey-html-form","trial_index":13,"time_elapsed":474989,"internal_node_id":"0.0-12.0-0.0","params":{"nStudents":8,"maxExamples":70,"completionMinutes":15,"basePay":3,"maxBonus":6,"perTrialBonus":0.7,"perTrialBonusThreshold":0.08,"exampleCost":0.01},"classroomParams":{"A":{"a":1,"b":9},"B":{"a":9,"b":1}},"conditions":["nonSeqFull","nonSeqPartial","seqNoFeedback","seqFeedback"],"classroomPairings":[["A","B"]],"coinWeights":[0.3,0.7],"subjectId":"A1AZTE5W2MF1TU","assignmentId":"3SB5N7Y3O4Q8PVSWCHTLAKCQXXO0GL","hitId":"3VEI3XUCZRJ0GI70IBXLZ6VI7OWRP5","url":"https://gershmanlab.com/experiments/alicia/teaching/experiment/?hitId=3VEI3XUCZRJ0GI70IBXLZ6VI7OWRP5&workerId=A1AZTE5W2MF1TU&assignmentId=3SB5N7Y3O4Q8PVSWCHTLAKCQXXO0GL&a=3NBS5&tp_a=3NBS5&b=3SB5N7Y3O4Q8PVSWCHTLAKCQXXO0GL&tp_b=3SB5N7Y3O4Q8PVSWCHTLAKCQXXO0GL&c=368485&tp_c=368485","heads":4,"tails":1,"studentIndex":1,"studentTrueHypers":{"a":1,"b":9},"studentGuess":"0.33","delta":0.36999999999999994,"totalExamples":5,"bonusSoFar":0},{"rt":20348,"response":{"heads":"9","tails":"1"},"type":"response","condition":"seqFeedback","trueTheta":0.7,"classrooms":["A","B"],"studentTrueClassroom":"A","exampleSet":"second","trial_type":"survey-html-form","trial_index":17,"time_elapsed":510487,"internal_node_id":"0.0-16.0-0.0","params":{"nStudents":8,"maxExamples":70,"completionMinutes":15,"basePay":3,"maxBonus":6,"perTrialBonus":0.7,"perTrialBonusThreshold":0.08,"exampleCost":0.01},"classroomParams":{"A":{"a":1,"b":9},"B":{"a":9,"b":1}},"conditions":["nonSeqFull","nonSeqPartial","seqNoFeedback","seqFeedback"],"classroomPairings":[["A","B"]],"coinWeights":[0.3,0.7],"subjectId":"A1AZTE5W2MF1TU","assignmentId":"3SB5N7Y3O4Q8PVSWCHTLAKCQXXO0GL","hitId":"3VEI3XUCZRJ0GI70IBXLZ6VI7OWRP5","url":"https://gershmanlab.com/experiments/alicia/teaching/experiment/?hitId=3VEI3XUCZRJ0GI70IBXLZ6VI7OWRP5&workerId=A1AZTE5W2MF1TU&assignmentId=3SB5N7Y3O4Q8PVSWCHTLAKCQXXO0GL&a=3NBS5&tp_a=3NBS5&b=3SB5N7Y3O4Q8PVSWCHTLAKCQXXO0GL&tp_b=3SB5N7Y3O4Q8PVSWCHTLAKCQXXO0GL&c=368485&tp_c=368485","firstResponseHeads":4,"firstResponseTails":1,"secondResponseHeads":9,"secondResponseTails":1,"totalHeads":13,"totalTails":2,"studentIndex":1,"studentTrueHypers":{"a":1,"b":9},"studentGuess":"0.56","delta":0.1399999999999999,"bonus":0,"bonusSoFar":0,"totalExamples":15},{"rt":52270,"response":{"heads":"3","tails":"7"},"type":"response","condition":"seqFeedback","trueTheta":0.3,"classrooms":["A","B"],"studentTrueClassroom":"A","exampleSet":"first","trial_type":"survey-html-form","trial_index":23,"time_elapsed":586549,"internal_node_id":"0.0-22.0-0.0","params":{"nStudents":8,"maxExamples":70,"completionMinutes":15,"basePay":3,"maxBonus":6,"perTrialBonus":0.7,"perTrialBonusThreshold":0.08,"exampleCost":0.01},"classroomParams":{"A":{"a":1,"b":9},"B":{"a":9,"b":1}},"conditions":["nonSeqFull","nonSeqPartial","seqNoFeedback","seqFeedback"],"classroomPairings":[["A","B"]],"coinWeights":[0.3,0.7],"subjectId":"A1AZTE5W2MF1TU","assignmentId":"3SB5N7Y3O4Q8PVSWCHTLAKCQXXO0GL","hitId":"3VEI3XUCZRJ0GI70IBXLZ6VI7OWRP5","url":"https://gershmanlab.com/experiments/alicia/teaching/experiment/?hitId=3VEI3XUCZRJ0GI70IBXLZ6VI7OWRP5&workerId=A1AZTE5W2MF1TU&assignmentId=3SB5N7Y3O4Q8PVSWCHTLAKCQXXO0GL&a=3NBS5&tp_a=3NBS5&b=3SB5N7Y3O4Q8PVSWCHTLAKCQXXO0GL&tp_b=3SB5N7Y3O4Q8PVSWCHTLAKCQXXO0GL&c=368485&tp_c=368485","heads":3,"tails":7,"studentIndex":2,"studentTrueHypers":{"a":1,"b":9},"studentGuess":"0.20","delta":0.09999999999999998,"totalExamples":10,"bonusSoFar":0},{"rt":72229,"response":{"heads":"3","tails":"20"},"type":"response","condition":"seqFeedback","trueTheta":0.3,"classrooms":["A","B"],"studentTrueClassroom":"A","exampleSet":"second","trial_type":"survey-html-form","trial_index":27,"time_elapsed":670913,"internal_node_id":"0.0-26.0-0.0","params":{"nStudents":8,"maxExamples":70,"completionMinutes":15,"basePay":3,"maxBonus":6,"perTrialBonus":0.7,"perTrialBonusThreshold":0.08,"exampleCost":0.01},"classroomParams":{"A":{"a":1,"b":9},"B":{"a":9,"b":1}},"conditions":["nonSeqFull","nonSeqPartial","seqNoFeedback","seqFeedback"],"classroomPairings":[["A","B"]],"coinWeights":[0.3,0.7],"subjectId":"A1AZTE5W2MF1TU","assignmentId":"3SB5N7Y3O4Q8PVSWCHTLAKCQXXO0GL","hitId":"3VEI3XUCZRJ0GI70IBXLZ6VI7OWRP5","url":"https://gershmanlab.com/experiments/alicia/teaching/experiment/?hitId=3VEI3XUCZRJ0GI70IBXLZ6VI7OWRP5&workerId=A1AZTE5W2MF1TU&assignmentId=3SB5N7Y3O4Q8PVSWCHTLAKCQXXO0GL&a=3NBS5&tp_a=3NBS5&b=3SB5N7Y3O4Q8PVSWCHTLAKCQXXO0GL&tp_b=3SB5N7Y3O4Q8PVSWCHTLAKCQXXO0GL&c=368485&tp_c=368485","firstResponseHeads":3,"firstResponseTails":7,"secondResponseHeads":3,"secondResponseTails":20,"totalHeads":6,"totalTails":27,"studentIndex":2,"studentTrueHypers":{"a":1,"b":9},"studentGuess":"0.16","delta":0.13999999999999999,"bonus":0,"bonusSoFar":0,"totalExamples":33},{"rt":29955,"response":{"heads":"9","tails":"1"},"type":"response","condition":"nonSeqFull","trueTheta":0.7,"classrooms":["A","B"],"studentTrueClassroom":"A","exampleSet":"first","trial_type":"survey-html-form","trial_index":33,"time_elapsed":722258,"internal_node_id":"0.0-32.0-0.0","params":{"nStudents":8,"maxExamples":70,"completionMinutes":15,"basePay":3,"maxBonus":6,"perTrialBonus":0.7,"perTrialBonusThreshold":0.08,"exampleCost":0.01},"classroomParams":{"A":{"a":1,"b":9},"B":{"a":9,"b":1}},"conditions":["nonSeqFull","nonSeqPartial","seqNoFeedback","seqFeedback"],"classroomPairings":[["A","B"]],"coinWeights":[0.3,0.7],"subjectId":"A1AZTE5W2MF1TU","assignmentId":"3SB5N7Y3O4Q8PVSWCHTLAKCQXXO0GL","hitId":"3VEI3XUCZRJ0GI70IBXLZ6VI7OWRP5","url":"https://gershmanlab.com/experiments/alicia/teaching/experiment/?hitId=3VEI3XUCZRJ0GI70IBXLZ6VI7OWRP5&workerId=A1AZTE5W2MF1TU&assignmentId=3SB5N7Y3O4Q8PVSWCHTLAKCQXXO0GL&a=3NBS5&tp_a=3NBS5&b=3SB5N7Y3O4Q8PVSWCHTLAKCQXXO0GL&tp_b=3SB5N7Y3O4Q8PVSWCHTLAKCQXXO0GL&c=368485&tp_c=368485","heads":9,"tails":1,"studentIndex":3,"studentTrueHypers":{"a":1,"b":9},"studentGuess":"0.50","delta":0.19999999999999996,"totalExamples":10,"bonus":0,"bonusSoFar":0},{"rt":47952,"response":{"heads":"6","tails":"14"},"type":"response","condition":"nonSeqPartial","trueTheta":0.3,"classrooms":["A","B"],"studentTrueClassroom":"B","exampleSet":"first","trial_type":"survey-html-form","trial_index":39,"time_elapsed":787131,"internal_node_id":"0.0-38.0-0.0","params":{"nStudents":8,"maxExamples":70,"completionMinutes":15,"basePay":3,"maxBonus":6,"perTrialBonus":0.7,"perTrialBonusThreshold":0.08,"exampleCost":0.01},"classroomParams":{"A":{"a":1,"b":9},"B":{"a":9,"b":1}},"conditions":["nonSeqFull","nonSeqPartial","seqNoFeedback","seqFeedback"],"classroomPairings":[["A","B"]],"coinWeights":[0.3,0.7],"subjectId":"A1AZTE5W2MF1TU","assignmentId":"3SB5N7Y3O4Q8PVSWCHTLAKCQXXO0GL","hitId":"3VEI3XUCZRJ0GI70IBXLZ6VI7OWRP5","url":"https://gershmanlab.com/experiments/alicia/teaching/experiment/?hitId=3VEI3XUCZRJ0GI70IBXLZ6VI7OWRP5&workerId=A1AZTE5W2MF1TU&assignmentId=3SB5N7Y3O4Q8PVSWCHTLAKCQXXO0GL&a=3NBS5&tp_a=3NBS5&b=3SB5N7Y3O4Q8PVSWCHTLAKCQXXO0GL&tp_b=3SB5N7Y3O4Q8PVSWCHTLAKCQXXO0GL&c=368485&tp_c=368485","heads":6,"tails":14,"studentIndex":4,"studentTrueHypers":{"a":9,"b":1},"studentGuess":"0.50","delta":0.2,"totalExamples":20,"bonus":0,"bonusSoFar":0},{"rt":23451,"response":{"heads":"3","tails":"7"},"type":"response","condition":"seqNoFeedback","trueTheta":0.3,"classrooms":["A","B"],"studentTrueClassroom":"B","exampleSet":"first","trial_type":"survey-html-form","trial_index":45,"time_elapsed":831672,"internal_node_id":"0.0-44.0-0.0","params":{"nStudents":8,"maxExamples":70,"completionMinutes":15,"basePay":3,"maxBonus":6,"perTrialBonus":0.7,"perTrialBonusThreshold":0.08,"exampleCost":0.01},"classroomParams":{"A":{"a":1,"b":9},"B":{"a":9,"b":1}},"conditions":["nonSeqFull","nonSeqPartial","seqNoFeedback","seqFeedback"],"classroomPairings":[["A","B"]],"coinWeights":[0.3,0.7],"subjectId":"A1AZTE5W2MF1TU","assignmentId":"3SB5N7Y3O4Q8PVSWCHTLAKCQXXO0GL","hitId":"3VEI3XUCZRJ0GI70IBXLZ6VI7OWRP5","url":"https://gershmanlab.com/experiments/alicia/teaching/experiment/?hitId=3VEI3XUCZRJ0GI70IBXLZ6VI7OWRP5&workerId=A1AZTE5W2MF1TU&assignmentId=3SB5N7Y3O4Q8PVSWCHTLAKCQXXO0GL&a=3NBS5&tp_a=3NBS5&b=3SB5N7Y3O4Q8PVSWCHTLAKCQXXO0GL&tp_b=3SB5N7Y3O4Q8PVSWCHTLAKCQXXO0GL&c=368485&tp_c=368485","heads":3,"tails":7,"studentIndex":5,"studentTrueHypers":{"a":9,"b":1},"studentGuess":"0.60","delta":0.3,"totalExamples":10,"bonusSoFar":0},{"rt":38368,"response":{"heads":"1","tails":"9"},"type":"response","condition":"seqNoFeedback","trueTheta":0.3,"classrooms":["A","B"],"studentTrueClassroom":"B","exampleSet":"second","trial_type":"survey-html-form","trial_index":48,"time_elapsed":876064,"internal_node_id":"0.0-47.0-0.0","params":{"nStudents":8,"maxExamples":70,"completionMinutes":15,"basePay":3,"maxBonus":6,"perTrialBonus":0.7,"perTrialBonusThreshold":0.08,"exampleCost":0.01},"classroomParams":{"A":{"a":1,"b":9},"B":{"a":9,"b":1}},"conditions":["nonSeqFull","nonSeqPartial","seqNoFeedback","seqFeedback"],"classroomPairings":[["A","B"]],"coinWeights":[0.3,0.7],"subjectId":"A1AZTE5W2MF1TU","assignmentId":"3SB5N7Y3O4Q8PVSWCHTLAKCQXXO0GL","hitId":"3VEI3XUCZRJ0GI70IBXLZ6VI7OWRP5","url":"https://gershmanlab.com/experiments/alicia/teaching/experiment/?hitId=3VEI3XUCZRJ0GI70IBXLZ6VI7OWRP5&workerId=A1AZTE5W2MF1TU&assignmentId=3SB5N7Y3O4Q8PVSWCHTLAKCQXXO0GL&a=3NBS5&tp_a=3NBS5&b=3SB5N7Y3O4Q8PVSWCHTLAKCQXXO0GL&tp_b=3SB5N7Y3O4Q8PVSWCHTLAKCQXXO0GL&c=368485&tp_c=368485","firstResponseHeads":3,"firstResponseTails":7,"secondResponseHeads":1,"secondResponseTails":9,"totalHeads":4,"totalTails":16,"studentIndex":5,"studentTrueHypers":{"a":9,"b":1},"studentGuess":"0.43","delta":0.13,"bonus":0,"bonusSoFar":0,"totalExamples":20},{"rt":28241,"response":{"heads":"7","tails":"3"},"type":"response","condition":"seqNoFeedback","trueTheta":0.7,"classrooms":["A","B"],"studentTrueClassroom":"B","exampleSet":"first","trial_type":"survey-html-form","trial_index":54,"time_elapsed":932044,"internal_node_id":"0.0-53.0-0.0","params":{"nStudents":8,"maxExamples":70,"completionMinutes":15,"basePay":3,"maxBonus":6,"perTrialBonus":0.7,"perTrialBonusThreshold":0.08,"exampleCost":0.01},"classroomParams":{"A":{"a":1,"b":9},"B":{"a":9,"b":1}},"conditions":["nonSeqFull","nonSeqPartial","seqNoFeedback","seqFeedback"],"classroomPairings":[["A","B"]],"coinWeights":[0.3,0.7],"subjectId":"A1AZTE5W2MF1TU","assignmentId":"3SB5N7Y3O4Q8PVSWCHTLAKCQXXO0GL","hitId":"3VEI3XUCZRJ0GI70IBXLZ6VI7OWRP5","url":"https://gershmanlab.com/experiments/alicia/teaching/experiment/?hitId=3VEI3XUCZRJ0GI70IBXLZ6VI7OWRP5&workerId=A1AZTE5W2MF1TU&assignmentId=3SB5N7Y3O4Q8PVSWCHTLAKCQXXO0GL&a=3NBS5&tp_a=3NBS5&b=3SB5N7Y3O4Q8PVSWCHTLAKCQXXO0GL&tp_b=3SB5N7Y3O4Q8PVSWCHTLAKCQXXO0GL&c=368485&tp_c=368485","heads":7,"tails":3,"studentIndex":6,"studentTrueHypers":{"a":9,"b":1},"studentGuess":"0.80","delta":0.10000000000000009,"totalExamples":10,"bonusSoFar":0},{"rt":31785,"response":{"heads":"9","tails":"1"},"type":"response","condition":"seqNoFeedback","trueTheta":0.7,"classrooms":["A","B"],"studentTrueClassroom":"B","exampleSet":"second","trial_type":"survey-html-form","trial_index":57,"time_elapsed":969852,"internal_node_id":"0.0-56.0-0.0","params":{"nStudents":8,"maxExamples":70,"completionMinutes":15,"basePay":3,"maxBonus":6,"perTrialBonus":0.7,"perTrialBonusThreshold":0.08,"exampleCost":0.01},"classroomParams":{"A":{"a":1,"b":9},"B":{"a":9,"b":1}},"conditions":["nonSeqFull","nonSeqPartial","seqNoFeedback","seqFeedback"],"classroomPairings":[["A","B"]],"coinWeights":[0.3,0.7],"subjectId":"A1AZTE5W2MF1TU","assignmentId":"3SB5N7Y3O4Q8PVSWCHTLAKCQXXO0GL","hitId":"3VEI3XUCZRJ0GI70IBXLZ6VI7OWRP5","url":"https://gershmanlab.com/experiments/alicia/teaching/experiment/?hitId=3VEI3XUCZRJ0GI70IBXLZ6VI7OWRP5&workerId=A1AZTE5W2MF1TU&assignmentId=3SB5N7Y3O4Q8PVSWCHTLAKCQXXO0GL&a=3NBS5&tp_a=3NBS5&b=3SB5N7Y3O4Q8PVSWCHTLAKCQXXO0GL&tp_b=3SB5N7Y3O4Q8PVSWCHTLAKCQXXO0GL&c=368485&tp_c=368485","firstResponseHeads":7,"firstResponseTails":3,"secondResponseHeads":9,"secondResponseTails":1,"totalHeads":16,"totalTails":4,"studentIndex":6,"studentTrueHypers":{"a":9,"b":1},"studentGuess":"0.83","delta":0.13,"bonus":0,"bonusSoFar":0,"totalExamples":20},{"rt":22403,"response":{"heads":"1","tails":"9"},"type":"response","condition":"nonSeqFull","trueTheta":0.3,"classrooms":["A","B"],"studentTrueClassroom":"A","exampleSet":"first","trial_type":"survey-html-form","trial_index":63,"time_elapsed":1013838,"internal_node_id":"0.0-62.0-0.0","params":{"nStudents":8,"maxExamples":70,"completionMinutes":15,"basePay":3,"maxBonus":6,"perTrialBonus":0.7,"perTrialBonusThreshold":0.08,"exampleCost":0.01},"classroomParams":{"A":{"a":1,"b":9},"B":{"a":9,"b":1}},"conditions":["nonSeqFull","nonSeqPartial","seqNoFeedback","seqFeedback"],"classroomPairings":[["A","B"]],"coinWeights":[0.3,0.7],"subjectId":"A1AZTE5W2MF1TU","assignmentId":"3SB5N7Y3O4Q8PVSWCHTLAKCQXXO0GL","hitId":"3VEI3XUCZRJ0GI70IBXLZ6VI7OWRP5","url":"https://gershmanlab.com/experiments/alicia/teaching/experiment/?hitId=3VEI3XUCZRJ0GI70IBXLZ6VI7OWRP5&workerId=A1AZTE5W2MF1TU&assignmentId=3SB5N7Y3O4Q8PVSWCHTLAKCQXXO0GL&a=3NBS5&tp_a=3NBS5&b=3SB5N7Y3O4Q8PVSWCHTLAKCQXXO0GL&tp_b=3SB5N7Y3O4Q8PVSWCHTLAKCQXXO0GL&c=368485&tp_c=368485","heads":1,"tails":9,"studentIndex":7,"studentTrueHypers":{"a":1,"b":9},"studentGuess":"0.10","delta":0.19999999999999998,"totalExamples":10,"bonus":0,"bonusSoFar":0},{"rt":90342,"response":{"gender":"female","age":"74","understood":"yes","strategy":"Mostly I either used one of what they had seen previously OR doubled that number","comments":"If there is a way to \"teach\" rather than guess I totally missed it!"},"type":"response","trial_type":"survey-html-form","trial_index":67,"time_elapsed":1116795,"internal_node_id":"0.0-67.0","params":{"nStudents":8,"maxExamples":70,"completionMinutes":15,"basePay":3,"maxBonus":6,"perTrialBonus":0.7,"perTrialBonusThreshold":0.08,"exampleCost":0.01},"classroomParams":{"A":{"a":1,"b":9},"B":{"a":9,"b":1}},"conditions":["nonSeqFull","nonSeqPartial","seqNoFeedback","seqFeedback"],"classroomPairings":[["A","B"]],"coinWeights":[0.3,0.7],"subjectId":"A1AZTE5W2MF1TU","assignmentId":"3SB5N7Y3O4Q8PVSWCHTLAKCQXXO0GL","hitId":"3VEI3XUCZRJ0GI70IBXLZ6VI7OWRP5","url":"https://gershmanlab.com/experiments/alicia/teaching/experiment/?hitId=3VEI3XUCZRJ0GI70IBXLZ6VI7OWRP5&workerId=A1AZTE5W2MF1TU&assignmentId=3SB5N7Y3O4Q8PVSWCHTLAKCQXXO0GL&a=3NBS5&tp_a=3NBS5&b=3SB5N7Y3O4Q8PVSWCHTLAKCQXXO0GL&tp_b=3SB5N7Y3O4Q8PVSWCHTLAKCQXXO0GL&c=368485&tp_c=368485","totalBonus":0}]