[{"rt":110444,"response":{"heads":"6","tails":"2"},"type":"response","condition":"seqNoFeedback","trueTheta":0.7,"classrooms":["A","B"],"studentTrueClassroom":"B","exampleSet":"first","trial_type":"survey-html-form","trial_index":7,"time_elapsed":563432,"internal_node_id":"0.0-6.0-0.0","params":{"nStudents":8,"maxExamples":70,"completionMinutes":15,"basePay":3,"maxBonus":6,"perTrialBonus":0.7,"perTrialBonusThreshold":0.08,"exampleCost":0.01},"classroomParams":{"A":{"a":1,"b":9},"B":{"a":9,"b":1}},"conditions":["nonSeqFull","nonSeqPartial","seqNoFeedback","seqFeedback"],"classroomPairings":[["A","B"]],"coinWeights":[0.3,0.7],"subjectId":"A1FMVUYV72MUO3","assignmentId":"3VW04L3ZLUSR87TX43IW7KZWAU4XX4","hitId":"33KGGVH24U3HWMAA68SNNSZ85PBX13","url":"https://gershmanlab.com/experiments/alicia/teaching/experiment/?hitId=33KGGVH24U3HWMAA68SNNSZ85PBX13&workerId=A1FMVUYV72MUO3&assignmentId=3VW04L3ZLUSR87TX43IW7KZWAU4XX4&a=Z4WV5&tp_a=Z4WV5&b=3VW04L3ZLUSR87TX43IW7KZWAU4XX4&tp_b=3VW04L3ZLUSR87TX43IW7KZWAU4XX4&c=368485&tp_c=368485","heads":6,"tails":2,"studentIndex":0,"studentTrueHypers":{"a":9,"b":1},"studentGuess":"0.83","delta":0.13,"totalExamples":8,"bonusSoFar":0},{"rt":31758,"response":{"heads":"4","tails":"1"},"type":"response","condition":"seqNoFeedback","trueTheta":0.7,"classrooms":["A","B"],"studentTrueClassroom":"B","exampleSet":"second","trial_type":"survey-html-form","trial_index":10,"time_elapsed":600707,"internal_node_id":"0.0-9.0-0.0","params":{"nStudents":8,"maxExamples":70,"completionMinutes":15,"basePay":3,"maxBonus":6,"perTrialBonus":0.7,"perTrialBonusThreshold":0.08,"exampleCost":0.01},"classroomParams":{"A":{"a":1,"b":9},"B":{"a":9,"b":1}},"conditions":["nonSeqFull","nonSeqPartial","seqNoFeedback","seqFeedback"],"classroomPairings":[["A","B"]],"coinWeights":[0.3,0.7],"subjectId":"A1FMVUYV72MUO3","assignmentId":"3VW04L3ZLUSR87TX43IW7KZWAU4XX4","hitId":"33KGGVH24U3HWMAA68SNNSZ85PBX13","url":"https://gershmanlab.com/experiments/alicia/teaching/experiment/?hitId=33KGGVH24U3HWMAA68SNNSZ85PBX13&workerId=A1FMVUYV72MUO3&assignmentId=3VW04L3ZLUSR87TX43IW7KZWAU4XX4&a=Z4WV5&tp_a=Z4WV5&b=3VW04L3ZLUSR87TX43IW7KZWAU4XX4&tp_b=3VW04L3ZLUSR87TX43IW7KZWAU4XX4&c=368485&tp_c=368485","firstResponseHeads":6,"firstResponseTails":2,"secondResponseHeads":4,"secondResponseTails":1,"totalHeads":10,"totalTails":3,"studentIndex":0,"studentTrueHypers":{"a":9,"b":1},"studentGuess":"0.83","delta":0.13,"bonus":0,"bonusSoFar":0,"totalExamples":13},{"rt":37293,"response":{"heads":"3","tails":"7"},"type":"response","condition":"nonSeqFull","trueTheta":0.3,"classrooms":["A","B"],"studentTrueClassroom":"A","exampleSet":"first","trial_type":"survey-html-form","trial_index":16,"time_elapsed":679066,"internal_node_id":"0.0-15.0-0.0","params":{"nStudents":8,"maxExamples":70,"completionMinutes":15,"basePay":3,"maxBonus":6,"perTrialBonus":0.7,"perTrialBonusThreshold":0.08,"exampleCost":0.01},"classroomParams":{"A":{"a":1,"b":9},"B":{"a":9,"b":1}},"conditions":["nonSeqFull","nonSeqPartial","seqNoFeedback","seqFeedback"],"classroomPairings":[["A","B"]],"coinWeights":[0.3,0.7],"subjectId":"A1FMVUYV72MUO3","assignmentId":"3VW04L3ZLUSR87TX43IW7KZWAU4XX4","hitId":"33KGGVH24U3HWMAA68SNNSZ85PBX13","url":"https://gershmanlab.com/experiments/alicia/teaching/experiment/?hitId=33KGGVH24U3HWMAA68SNNSZ85PBX13&workerId=A1FMVUYV72MUO3&assignmentId=3VW04L3ZLUSR87TX43IW7KZWAU4XX4&a=Z4WV5&tp_a=Z4WV5&b=3VW04L3ZLUSR87TX43IW7KZWAU4XX4&tp_b=3VW04L3ZLUSR87TX43IW7KZWAU4XX4&c=368485&tp_c=368485","heads":3,"tails":7,"studentIndex":1,"studentTrueHypers":{"a":1,"b":9},"studentGuess":"0.20","delta":0.09999999999999998,"totalExamples":10,"bonus":0,"bonusSoFar":0},{"rt":59997,"response":{"heads":"6","tails":"3"},"type":"response","condition":"nonSeqFull","trueTheta":0.7,"classrooms":["A","B"],"studentTrueClassroom":"B","exampleSet":"first","trial_type":"survey-html-form","trial_index":22,"time_elapsed":775494,"internal_node_id":"0.0-21.0-0.0","params":{"nStudents":8,"maxExamples":70,"completionMinutes":15,"basePay":3,"maxBonus":6,"perTrialBonus":0.7,"perTrialBonusThreshold":0.08,"exampleCost":0.01},"classroomParams":{"A":{"a":1,"b":9},"B":{"a":9,"b":1}},"conditions":["nonSeqFull","nonSeqPartial","seqNoFeedback","seqFeedback"],"classroomPairings":[["A","B"]],"coinWeights":[0.3,0.7],"subjectId":"A1FMVUYV72MUO3","assignmentId":"3VW04L3ZLUSR87TX43IW7KZWAU4XX4","hitId":"33KGGVH24U3HWMAA68SNNSZ85PBX13","url":"https://gershmanlab.com/experiments/alicia/teaching/experiment/?hitId=33KGGVH24U3HWMAA68SNNSZ85PBX13&workerId=A1FMVUYV72MUO3&assignmentId=3VW04L3ZLUSR87TX43IW7KZWAU4XX4&a=Z4WV5&tp_a=Z4WV5&b=3VW04L3ZLUSR87TX43IW7KZWAU4XX4&tp_b=3VW04L3ZLUSR87TX43IW7KZWAU4XX4&c=368485&tp_c=368485","heads":6,"tails":3,"studentIndex":2,"studentTrueHypers":{"a":9,"b":1},"studentGuess":"0.79","delta":0.09000000000000008,"totalExamples":9,"bonus":0,"bonusSoFar":0},{"rt":38993,"response":{"heads":"3","tails":"1"},"type":"response","condition":"seqFeedback","trueTheta":0.7,"classrooms":["A","B"],"studentTrueClassroom":"A","exampleSet":"first","trial_type":"survey-html-form","trial_index":28,"time_elapsed":861351,"internal_node_id":"0.0-27.0-0.0","params":{"nStudents":8,"maxExamples":70,"completionMinutes":15,"basePay":3,"maxBonus":6,"perTrialBonus":0.7,"perTrialBonusThreshold":0.08,"exampleCost":0.01},"classroomParams":{"A":{"a":1,"b":9},"B":{"a":9,"b":1}},"conditions":["nonSeqFull","nonSeqPartial","seqNoFeedback","seqFeedback"],"classroomPairings":[["A","B"]],"coinWeights":[0.3,0.7],"subjectId":"A1FMVUYV72MUO3","assignmentId":"3VW04L3ZLUSR87TX43IW7KZWAU4XX4","hitId":"33KGGVH24U3HWMAA68SNNSZ85PBX13","url":"https://gershmanlab.com/experiments/alicia/teaching/experiment/?hitId=33KGGVH24U3HWMAA68SNNSZ85PBX13&workerId=A1FMVUYV72MUO3&assignmentId=3VW04L3ZLUSR87TX43IW7KZWAU4XX4&a=Z4WV5&tp_a=Z4WV5&b=3VW04L3ZLUSR87TX43IW7KZWAU4XX4&tp_b=3VW04L3ZLUSR87TX43IW7KZWAU4XX4&c=368485&tp_c=368485","heads":3,"tails":1,"studentIndex":3,"studentTrueHypers":{"a":1,"b":9},"studentGuess":"0.29","delta":0.41,"totalExamples":4,"bonusSoFar":0},{"rt":52455,"response":{"heads":"9","tails":"2"},"type":"response","condition":"seqFeedback","trueTheta":0.7,"classrooms":["A","B"],"studentTrueClassroom":"A","exampleSet":"second","trial_type":"survey-html-form","trial_index":32,"time_elapsed":932608,"internal_node_id":"0.0-31.0-0.0","params":{"nStudents":8,"maxExamples":70,"completionMinutes":15,"basePay":3,"maxBonus":6,"perTrialBonus":0.7,"perTrialBonusThreshold":0.08,"exampleCost":0.01},"classroomParams":{"A":{"a":1,"b":9},"B":{"a":9,"b":1}},"conditions":["nonSeqFull","nonSeqPartial","seqNoFeedback","seqFeedback"],"classroomPairings":[["A","B"]],"coinWeights":[0.3,0.7],"subjectId":"A1FMVUYV72MUO3","assignmentId":"3VW04L3ZLUSR87TX43IW7KZWAU4XX4","hitId":"33KGGVH24U3HWMAA68SNNSZ85PBX13","url":"https://gershmanlab.com/experiments/alicia/teaching/experiment/?hitId=33KGGVH24U3HWMAA68SNNSZ85PBX13&workerId=A1FMVUYV72MUO3&assignmentId=3VW04L3ZLUSR87TX43IW7KZWAU4XX4&a=Z4WV5&tp_a=Z4WV5&b=3VW04L3ZLUSR87TX43IW7KZWAU4XX4&tp_b=3VW04L3ZLUSR87TX43IW7KZWAU4XX4&c=368485&tp_c=368485","firstResponseHeads":3,"firstResponseTails":1,"secondResponseHeads":9,"secondResponseTails":2,"totalHeads":12,"totalTails":3,"studentIndex":3,"studentTrueHypers":{"a":1,"b":9},"studentGuess":"0.52","delta":0.17999999999999994,"bonus":0,"bonusSoFar":0,"totalExamples":15},{"rt":60603,"response":{"heads":"9","tails":"2"},"type":"response","condition":"nonSeqPartial","trueTheta":0.7,"classrooms":["A","B"],"studentTrueClassroom":"A","exampleSet":"first","trial_type":"survey-html-form","trial_index":38,"time_elapsed":1018985,"internal_node_id":"0.0-37.0-0.0","params":{"nStudents":8,"maxExamples":70,"completionMinutes":15,"basePay":3,"maxBonus":6,"perTrialBonus":0.7,"perTrialBonusThreshold":0.08,"exampleCost":0.01},"classroomParams":{"A":{"a":1,"b":9},"B":{"a":9,"b":1}},"conditions":["nonSeqFull","nonSeqPartial","seqNoFeedback","seqFeedback"],"classroomPairings":[["A","B"]],"coinWeights":[0.3,0.7],"subjectId":"A1FMVUYV72MUO3","assignmentId":"3VW04L3ZLUSR87TX43IW7KZWAU4XX4","hitId":"33KGGVH24U3HWMAA68SNNSZ85PBX13","url":"https://gershmanlab.com/experiments/alicia/teaching/experiment/?hitId=33KGGVH24U3HWMAA68SNNSZ85PBX13&workerId=A1FMVUYV72MUO3&assignmentId=3VW04L3ZLUSR87TX43IW7KZWAU4XX4&a=Z4WV5&tp_a=Z4WV5&b=3VW04L3ZLUSR87TX43IW7KZWAU4XX4&tp_b=3VW04L3ZLUSR87TX43IW7KZWAU4XX4&c=368485&tp_c=368485","heads":9,"tails":2,"studentIndex":4,"studentTrueHypers":{"a":1,"b":9},"studentGuess":"0.48","delta":0.21999999999999997,"totalExamples":11,"bonus":0,"bonusSoFar":0},{"rt":31167,"response":{"heads":"2","tails":"8"},"type":"response","condition":"seqNoFeedback","trueTheta":0.3,"classrooms":["A","B"],"studentTrueClassroom":"B","exampleSet":"first","trial_type":"survey-html-form","trial_index":44,"time_elapsed":1073168,"internal_node_id":"0.0-43.0-0.0","params":{"nStudents":8,"maxExamples":70,"completionMinutes":15,"basePay":3,"maxBonus":6,"perTrialBonus":0.7,"perTrialBonusThreshold":0.08,"exampleCost":0.01},"classroomParams":{"A":{"a":1,"b":9},"B":{"a":9,"b":1}},"conditions":["nonSeqFull","nonSeqPartial","seqNoFeedback","seqFeedback"],"classroomPairings":[["A","B"]],"coinWeights":[0.3,0.7],"subjectId":"A1FMVUYV72MUO3","assignmentId":"3VW04L3ZLUSR87TX43IW7KZWAU4XX4","hitId":"33KGGVH24U3HWMAA68SNNSZ85PBX13","url":"https://gershmanlab.com/experiments/alicia/teaching/experiment/?hitId=33KGGVH24U3HWMAA68SNNSZ85PBX13&workerId=A1FMVUYV72MUO3&assignmentId=3VW04L3ZLUSR87TX43IW7KZWAU4XX4&a=Z4WV5&tp_a=Z4WV5&b=3VW04L3ZLUSR87TX43IW7KZWAU4XX4&tp_b=3VW04L3ZLUSR87TX43IW7KZWAU4XX4&c=368485&tp_c=368485","heads":2,"tails":8,"studentIndex":5,"studentTrueHypers":{"a":9,"b":1},"studentGuess":"0.55","delta":0.25000000000000006,"totalExamples":10,"bonusSoFar":0},{"rt":32368,"response":{"heads":"2","tails":"8"},"type":"response","condition":"seqNoFeedback","trueTheta":0.3,"classrooms":["A","B"],"studentTrueClassroom":"B","exampleSet":"second","trial_type":"survey-html-form","trial_index":47,"time_elapsed":1111562,"internal_node_id":"0.0-46.0-0.0","params":{"nStudents":8,"maxExamples":70,"completionMinutes":15,"basePay":3,"maxBonus":6,"perTrialBonus":0.7,"perTrialBonusThreshold":0.08,"exampleCost":0.01},"classroomParams":{"A":{"a":1,"b":9},"B":{"a":9,"b":1}},"conditions":["nonSeqFull","nonSeqPartial","seqNoFeedback","seqFeedback"],"classroomPairings":[["A","B"]],"coinWeights":[0.3,0.7],"subjectId":"A1FMVUYV72MUO3","assignmentId":"3VW04L3ZLUSR87TX43IW7KZWAU4XX4","hitId":"33KGGVH24U3HWMAA68SNNSZ85PBX13","url":"https://gershmanlab.com/experiments/alicia/teaching/experiment/?hitId=33KGGVH24U3HWMAA68SNNSZ85PBX13&workerId=A1FMVUYV72MUO3&assignmentId=3VW04L3ZLUSR87TX43IW7KZWAU4XX4&a=Z4WV5&tp_a=Z4WV5&b=3VW04L3ZLUSR87TX43IW7KZWAU4XX4&tp_b=3VW04L3ZLUSR87TX43IW7KZWAU4XX4&c=368485&tp_c=368485","firstResponseHeads":2,"firstResponseTails":8,"secondResponseHeads":2,"secondResponseTails":8,"totalHeads":4,"totalTails":16,"studentIndex":5,"studentTrueHypers":{"a":9,"b":1},"studentGuess":"0.43","delta":0.13,"bonus":0,"bonusSoFar":0,"totalExamples":20},{"rt":80807,"response":{"heads":"0","tails":"5"},"type":"response","condition":"nonSeqPartial","trueTheta":0.3,"classrooms":["A","B"],"studentTrueClassroom":"B","exampleSet":"first","trial_type":"survey-html-form","trial_index":53,"time_elapsed":1215222,"internal_node_id":"0.0-52.0-0.0","params":{"nStudents":8,"maxExamples":70,"completionMinutes":15,"basePay":3,"maxBonus":6,"perTrialBonus":0.7,"perTrialBonusThreshold":0.08,"exampleCost":0.01},"classroomParams":{"A":{"a":1,"b":9},"B":{"a":9,"b":1}},"conditions":["nonSeqFull","nonSeqPartial","seqNoFeedback","seqFeedback"],"classroomPairings":[["A","B"]],"coinWeights":[0.3,0.7],"subjectId":"A1FMVUYV72MUO3","assignmentId":"3VW04L3ZLUSR87TX43IW7KZWAU4XX4","hitId":"33KGGVH24U3HWMAA68SNNSZ85PBX13","url":"https://gershmanlab.com/experiments/alicia/teaching/experiment/?hitId=33KGGVH24U3HWMAA68SNNSZ85PBX13&workerId=A1FMVUYV72MUO3&assignmentId=3VW04L3ZLUSR87TX43IW7KZWAU4XX4&a=Z4WV5&tp_a=Z4WV5&b=3VW04L3ZLUSR87TX43IW7KZWAU4XX4&tp_b=3VW04L3ZLUSR87TX43IW7KZWAU4XX4&c=368485&tp_c=368485","heads":0,"tails":5,"studentIndex":6,"studentTrueHypers":{"a":9,"b":1},"studentGuess":"0.60","delta":0.3,"totalExamples":5,"bonus":0,"bonusSoFar":0},{"rt":28399,"response":{"heads":"2","tails":"10"},"type":"response","condition":"seqFeedback","trueTheta":0.3,"classrooms":["A","B"],"studentTrueClassroom":"A","exampleSet":"first","trial_type":"survey-html-form","trial_index":59,"time_elapsed":1265586,"internal_node_id":"0.0-58.0-0.0","params":{"nStudents":8,"maxExamples":70,"completionMinutes":15,"basePay":3,"maxBonus":6,"perTrialBonus":0.7,"perTrialBonusThreshold":0.08,"exampleCost":0.01},"classroomParams":{"A":{"a":1,"b":9},"B":{"a":9,"b":1}},"conditions":["nonSeqFull","nonSeqPartial","seqNoFeedback","seqFeedback"],"classroomPairings":[["A","B"]],"coinWeights":[0.3,0.7],"subjectId":"A1FMVUYV72MUO3","assignmentId":"3VW04L3ZLUSR87TX43IW7KZWAU4XX4","hitId":"33KGGVH24U3HWMAA68SNNSZ85PBX13","url":"https://gershmanlab.com/experiments/alicia/teaching/experiment/?hitId=33KGGVH24U3HWMAA68SNNSZ85PBX13&workerId=A1FMVUYV72MUO3&assignmentId=3VW04L3ZLUSR87TX43IW7KZWAU4XX4&a=Z4WV5&tp_a=Z4WV5&b=3VW04L3ZLUSR87TX43IW7KZWAU4XX4&tp_b=3VW04L3ZLUSR87TX43IW7KZWAU4XX4&c=368485&tp_c=368485","heads":2,"tails":10,"studentIndex":7,"studentTrueHypers":{"a":1,"b":9},"studentGuess":"0.14","delta":0.15999999999999998,"totalExamples":12,"bonusSoFar":0},{"rt":67946,"response":{"heads":"4","tails":"6"},"type":"response","condition":"seqFeedback","trueTheta":0.3,"classrooms":["A","B"],"studentTrueClassroom":"A","exampleSet":"second","trial_type":"survey-html-form","trial_index":63,"time_elapsed":1357161,"internal_node_id":"0.0-62.0-0.0","params":{"nStudents":8,"maxExamples":70,"completionMinutes":15,"basePay":3,"maxBonus":6,"perTrialBonus":0.7,"perTrialBonusThreshold":0.08,"exampleCost":0.01},"classroomParams":{"A":{"a":1,"b":9},"B":{"a":9,"b":1}},"conditions":["nonSeqFull","nonSeqPartial","seqNoFeedback","seqFeedback"],"classroomPairings":[["A","B"]],"coinWeights":[0.3,0.7],"subjectId":"A1FMVUYV72MUO3","assignmentId":"3VW04L3ZLUSR87TX43IW7KZWAU4XX4","hitId":"33KGGVH24U3HWMAA68SNNSZ85PBX13","url":"https://gershmanlab.com/experiments/alicia/teaching/experiment/?hitId=33KGGVH24U3HWMAA68SNNSZ85PBX13&workerId=A1FMVUYV72MUO3&assignmentId=3VW04L3ZLUSR87TX43IW7KZWAU4XX4&a=Z4WV5&tp_a=Z4WV5&b=3VW04L3ZLUSR87TX43IW7KZWAU4XX4&tp_b=3VW04L3ZLUSR87TX43IW7KZWAU4XX4&c=368485&tp_c=368485","firstResponseHeads":2,"firstResponseTails":10,"secondResponseHeads":4,"secondResponseTails":6,"totalHeads":6,"totalTails":16,"studentIndex":7,"studentTrueHypers":{"a":1,"b":9},"studentGuess":"0.22","delta":0.07999999999999999,"bonus":0.48,"bonusSoFar":0.48,"totalExamples":22},{"rt":30462,"response":{"gender":"male","age":"40","understood":"yes","strategy":"trial and error","comments":"NA"},"type":"response","trial_type":"survey-html-form","trial_index":67,"time_elapsed":1403599,"internal_node_id":"0.0-67.0","params":{"nStudents":8,"maxExamples":70,"completionMinutes":15,"basePay":3,"maxBonus":6,"perTrialBonus":0.7,"perTrialBonusThreshold":0.08,"exampleCost":0.01},"classroomParams":{"A":{"a":1,"b":9},"B":{"a":9,"b":1}},"conditions":["nonSeqFull","nonSeqPartial","seqNoFeedback","seqFeedback"],"classroomPairings":[["A","B"]],"coinWeights":[0.3,0.7],"subjectId":"A1FMVUYV72MUO3","assignmentId":"3VW04L3ZLUSR87TX43IW7KZWAU4XX4","hitId":"33KGGVH24U3HWMAA68SNNSZ85PBX13","url":"https://gershmanlab.com/experiments/alicia/teaching/experiment/?hitId=33KGGVH24U3HWMAA68SNNSZ85PBX13&workerId=A1FMVUYV72MUO3&assignmentId=3VW04L3ZLUSR87TX43IW7KZWAU4XX4&a=Z4WV5&tp_a=Z4WV5&b=3VW04L3ZLUSR87TX43IW7KZWAU4XX4&tp_b=3VW04L3ZLUSR87TX43IW7KZWAU4XX4&c=368485&tp_c=368485","totalBonus":0.48}]