[{"rt":23002,"response":{"heads":"0","tails":"4"},"type":"response","condition":"nonSeqPartial","trueTheta":0.3,"classrooms":["A","B"],"studentTrueClassroom":"B","exampleSet":"first","trial_type":"survey-html-form","trial_index":13,"time_elapsed":482412,"internal_node_id":"0.0-6.0-0.0","params":{"nStudents":8,"maxExamples":70,"completionMinutes":15,"basePay":3,"maxBonus":6,"perTrialBonus":0.7,"perTrialBonusThreshold":0.08,"exampleCost":0.01},"classroomParams":{"A":{"a":1,"b":9},"B":{"a":9,"b":1}},"conditions":["nonSeqFull","nonSeqPartial","seqNoFeedback","seqFeedback"],"classroomPairings":[["A","B"]],"coinWeights":[0.3,0.7],"subjectId":"A1HKY2VIN9UFZN","assignmentId":"3P4MQ7TPPYYDI1NVUBYWTQHC8OTBB1","hitId":"391FPZIE4C80JT1T3SKLV8GBSWQUH7","url":"https://gershmanlab.com/experiments/alicia/teaching/experiment/?hitId=391FPZIE4C80JT1T3SKLV8GBSWQUH7&workerId=A1HKY2VIN9UFZN&assignmentId=3P4MQ7TPPYYDI1NVUBYWTQHC8OTBB1&a=PQ4P5&tp_a=PQ4P5&b=3P4MQ7TPPYYDI1NVUBYWTQHC8OTBB1&tp_b=3P4MQ7TPPYYDI1NVUBYWTQHC8OTBB1&c=368485&tp_c=368485","heads":0,"tails":4,"studentIndex":0,"studentTrueHypers":{"a":9,"b":1},"studentGuess":"0.64","delta":0.34,"totalExamples":4,"bonus":0,"bonusSoFar":0},{"rt":13881,"response":{"heads":"7","tails":"3"},"type":"response","condition":"nonSeqPartial","trueTheta":0.7,"classrooms":["A","B"],"studentTrueClassroom":"A","exampleSet":"first","trial_type":"survey-html-form","trial_index":19,"time_elapsed":527144,"internal_node_id":"0.0-12.0-0.0","params":{"nStudents":8,"maxExamples":70,"completionMinutes":15,"basePay":3,"maxBonus":6,"perTrialBonus":0.7,"perTrialBonusThreshold":0.08,"exampleCost":0.01},"classroomParams":{"A":{"a":1,"b":9},"B":{"a":9,"b":1}},"conditions":["nonSeqFull","nonSeqPartial","seqNoFeedback","seqFeedback"],"classroomPairings":[["A","B"]],"coinWeights":[0.3,0.7],"subjectId":"A1HKY2VIN9UFZN","assignmentId":"3P4MQ7TPPYYDI1NVUBYWTQHC8OTBB1","hitId":"391FPZIE4C80JT1T3SKLV8GBSWQUH7","url":"https://gershmanlab.com/experiments/alicia/teaching/experiment/?hitId=391FPZIE4C80JT1T3SKLV8GBSWQUH7&workerId=A1HKY2VIN9UFZN&assignmentId=3P4MQ7TPPYYDI1NVUBYWTQHC8OTBB1&a=PQ4P5&tp_a=PQ4P5&b=3P4MQ7TPPYYDI1NVUBYWTQHC8OTBB1&tp_b=3P4MQ7TPPYYDI1NVUBYWTQHC8OTBB1&c=368485&tp_c=368485","heads":7,"tails":3,"studentIndex":1,"studentTrueHypers":{"a":1,"b":9},"studentGuess":"0.40","delta":0.29999999999999993,"totalExamples":10,"bonus":0,"bonusSoFar":0},{"rt":10699,"response":{"heads":"3","tails":"7"},"type":"response","condition":"seqNoFeedback","trueTheta":0.3,"classrooms":["A","B"],"studentTrueClassroom":"B","exampleSet":"first","trial_type":"survey-html-form","trial_index":25,"time_elapsed":551480,"internal_node_id":"0.0-18.0-0.0","params":{"nStudents":8,"maxExamples":70,"completionMinutes":15,"basePay":3,"maxBonus":6,"perTrialBonus":0.7,"perTrialBonusThreshold":0.08,"exampleCost":0.01},"classroomParams":{"A":{"a":1,"b":9},"B":{"a":9,"b":1}},"conditions":["nonSeqFull","nonSeqPartial","seqNoFeedback","seqFeedback"],"classroomPairings":[["A","B"]],"coinWeights":[0.3,0.7],"subjectId":"A1HKY2VIN9UFZN","assignmentId":"3P4MQ7TPPYYDI1NVUBYWTQHC8OTBB1","hitId":"391FPZIE4C80JT1T3SKLV8GBSWQUH7","url":"https://gershmanlab.com/experiments/alicia/teaching/experiment/?hitId=391FPZIE4C80JT1T3SKLV8GBSWQUH7&workerId=A1HKY2VIN9UFZN&assignmentId=3P4MQ7TPPYYDI1NVUBYWTQHC8OTBB1&a=PQ4P5&tp_a=PQ4P5&b=3P4MQ7TPPYYDI1NVUBYWTQHC8OTBB1&tp_b=3P4MQ7TPPYYDI1NVUBYWTQHC8OTBB1&c=368485&tp_c=368485","heads":3,"tails":7,"studentIndex":2,"studentTrueHypers":{"a":9,"b":1},"studentGuess":"0.60","delta":0.3,"totalExamples":10,"bonusSoFar":0},{"rt":19773,"response":{"heads":"3","tails":"7"},"type":"response","condition":"seqNoFeedback","trueTheta":0.3,"classrooms":["A","B"],"studentTrueClassroom":"B","exampleSet":"second","trial_type":"survey-html-form","trial_index":28,"time_elapsed":576759,"internal_node_id":"0.0-21.0-0.0","params":{"nStudents":8,"maxExamples":70,"completionMinutes":15,"basePay":3,"maxBonus":6,"perTrialBonus":0.7,"perTrialBonusThreshold":0.08,"exampleCost":0.01},"classroomParams":{"A":{"a":1,"b":9},"B":{"a":9,"b":1}},"conditions":["nonSeqFull","nonSeqPartial","seqNoFeedback","seqFeedback"],"classroomPairings":[["A","B"]],"coinWeights":[0.3,0.7],"subjectId":"A1HKY2VIN9UFZN","assignmentId":"3P4MQ7TPPYYDI1NVUBYWTQHC8OTBB1","hitId":"391FPZIE4C80JT1T3SKLV8GBSWQUH7","url":"https://gershmanlab.com/experiments/alicia/teaching/experiment/?hitId=391FPZIE4C80JT1T3SKLV8GBSWQUH7&workerId=A1HKY2VIN9UFZN&assignmentId=3P4MQ7TPPYYDI1NVUBYWTQHC8OTBB1&a=PQ4P5&tp_a=PQ4P5&b=3P4MQ7TPPYYDI1NVUBYWTQHC8OTBB1&tp_b=3P4MQ7TPPYYDI1NVUBYWTQHC8OTBB1&c=368485&tp_c=368485","firstResponseHeads":3,"firstResponseTails":7,"secondResponseHeads":3,"secondResponseTails":7,"totalHeads":6,"totalTails":14,"studentIndex":2,"studentTrueHypers":{"a":9,"b":1},"studentGuess":"0.50","delta":0.2,"bonus":0,"bonusSoFar":0,"totalExamples":20},{"rt":9778,"response":{"heads":"20","tails":"60"},"type":"response","condition":"nonSeqFull","trueTheta":0.3,"classrooms":["A","B"],"studentTrueClassroom":"A","exampleSet":"first","trial_type":"survey-html-form","trial_index":34,"time_elapsed":600787,"internal_node_id":"0.0-27.0-0.0","params":{"nStudents":8,"maxExamples":70,"completionMinutes":15,"basePay":3,"maxBonus":6,"perTrialBonus":0.7,"perTrialBonusThreshold":0.08,"exampleCost":0.01},"classroomParams":{"A":{"a":1,"b":9},"B":{"a":9,"b":1}},"conditions":["nonSeqFull","nonSeqPartial","seqNoFeedback","seqFeedback"],"classroomPairings":[["A","B"]],"coinWeights":[0.3,0.7],"subjectId":"A1HKY2VIN9UFZN","assignmentId":"3P4MQ7TPPYYDI1NVUBYWTQHC8OTBB1","hitId":"391FPZIE4C80JT1T3SKLV8GBSWQUH7","url":"https://gershmanlab.com/experiments/alicia/teaching/experiment/?hitId=391FPZIE4C80JT1T3SKLV8GBSWQUH7&workerId=A1HKY2VIN9UFZN&assignmentId=3P4MQ7TPPYYDI1NVUBYWTQHC8OTBB1&a=PQ4P5&tp_a=PQ4P5&b=3P4MQ7TPPYYDI1NVUBYWTQHC8OTBB1&tp_b=3P4MQ7TPPYYDI1NVUBYWTQHC8OTBB1&c=368485&tp_c=368485","heads":20,"tails":60,"studentIndex":3,"studentTrueHypers":{"a":1,"b":9},"studentGuess":"0.23","delta":0.06999999999999998,"totalExamples":80,"bonus":0,"bonusSoFar":0},{"rt":11672,"response":{"heads":"10","tails":"50"},"type":"response","condition":"nonSeqFull","trueTheta":0.3,"classrooms":["A","B"],"studentTrueClassroom":"A","exampleSet":"first","trial_type":"survey-html-form","trial_index":35,"time_elapsed":612461,"internal_node_id":"0.0-27.1-0.1","params":{"nStudents":8,"maxExamples":70,"completionMinutes":15,"basePay":3,"maxBonus":6,"perTrialBonus":0.7,"perTrialBonusThreshold":0.08,"exampleCost":0.01},"classroomParams":{"A":{"a":1,"b":9},"B":{"a":9,"b":1}},"conditions":["nonSeqFull","nonSeqPartial","seqNoFeedback","seqFeedback"],"classroomPairings":[["A","B"]],"coinWeights":[0.3,0.7],"subjectId":"A1HKY2VIN9UFZN","assignmentId":"3P4MQ7TPPYYDI1NVUBYWTQHC8OTBB1","hitId":"391FPZIE4C80JT1T3SKLV8GBSWQUH7","url":"https://gershmanlab.com/experiments/alicia/teaching/experiment/?hitId=391FPZIE4C80JT1T3SKLV8GBSWQUH7&workerId=A1HKY2VIN9UFZN&assignmentId=3P4MQ7TPPYYDI1NVUBYWTQHC8OTBB1&a=PQ4P5&tp_a=PQ4P5&b=3P4MQ7TPPYYDI1NVUBYWTQHC8OTBB1&tp_b=3P4MQ7TPPYYDI1NVUBYWTQHC8OTBB1&c=368485&tp_c=368485","heads":10,"tails":50,"studentIndex":3,"studentTrueHypers":{"a":1,"b":9},"studentGuess":"0.16","delta":0.13999999999999999,"totalExamples":60,"bonus":0,"bonusSoFar":0},{"rt":8685,"response":{"heads":"50","tails":"10"},"type":"response","condition":"seqNoFeedback","trueTheta":0.7,"classrooms":["A","B"],"studentTrueClassroom":"B","exampleSet":"first","trial_type":"survey-html-form","trial_index":41,"time_elapsed":645899,"internal_node_id":"0.0-33.0-0.0","params":{"nStudents":8,"maxExamples":70,"completionMinutes":15,"basePay":3,"maxBonus":6,"perTrialBonus":0.7,"perTrialBonusThreshold":0.08,"exampleCost":0.01},"classroomParams":{"A":{"a":1,"b":9},"B":{"a":9,"b":1}},"conditions":["nonSeqFull","nonSeqPartial","seqNoFeedback","seqFeedback"],"classroomPairings":[["A","B"]],"coinWeights":[0.3,0.7],"subjectId":"A1HKY2VIN9UFZN","assignmentId":"3P4MQ7TPPYYDI1NVUBYWTQHC8OTBB1","hitId":"391FPZIE4C80JT1T3SKLV8GBSWQUH7","url":"https://gershmanlab.com/experiments/alicia/teaching/experiment/?hitId=391FPZIE4C80JT1T3SKLV8GBSWQUH7&workerId=A1HKY2VIN9UFZN&assignmentId=3P4MQ7TPPYYDI1NVUBYWTQHC8OTBB1&a=PQ4P5&tp_a=PQ4P5&b=3P4MQ7TPPYYDI1NVUBYWTQHC8OTBB1&tp_b=3P4MQ7TPPYYDI1NVUBYWTQHC8OTBB1&c=368485&tp_c=368485","heads":50,"tails":10,"studentIndex":4,"studentTrueHypers":{"a":9,"b":1},"studentGuess":"0.84","delta":0.14,"totalExamples":60,"bonusSoFar":0},{"rt":8233,"response":{"heads":"60","tails":"0"},"type":"response","condition":"seqNoFeedback","trueTheta":0.7,"classrooms":["A","B"],"studentTrueClassroom":"B","exampleSet":"second","trial_type":"survey-html-form","trial_index":44,"time_elapsed":660651,"internal_node_id":"0.0-36.0-0.0","params":{"nStudents":8,"maxExamples":70,"completionMinutes":15,"basePay":3,"maxBonus":6,"perTrialBonus":0.7,"perTrialBonusThreshold":0.08,"exampleCost":0.01},"classroomParams":{"A":{"a":1,"b":9},"B":{"a":9,"b":1}},"conditions":["nonSeqFull","nonSeqPartial","seqNoFeedback","seqFeedback"],"classroomPairings":[["A","B"]],"coinWeights":[0.3,0.7],"subjectId":"A1HKY2VIN9UFZN","assignmentId":"3P4MQ7TPPYYDI1NVUBYWTQHC8OTBB1","hitId":"391FPZIE4C80JT1T3SKLV8GBSWQUH7","url":"https://gershmanlab.com/experiments/alicia/teaching/experiment/?hitId=391FPZIE4C80JT1T3SKLV8GBSWQUH7&workerId=A1HKY2VIN9UFZN&assignmentId=3P4MQ7TPPYYDI1NVUBYWTQHC8OTBB1&a=PQ4P5&tp_a=PQ4P5&b=3P4MQ7TPPYYDI1NVUBYWTQHC8OTBB1&tp_b=3P4MQ7TPPYYDI1NVUBYWTQHC8OTBB1&c=368485&tp_c=368485","firstResponseHeads":50,"firstResponseTails":10,"secondResponseHeads":60,"secondResponseTails":0,"totalHeads":110,"totalTails":10,"studentIndex":4,"studentTrueHypers":{"a":9,"b":1},"studentGuess":"0.92","delta":0.22000000000000008,"bonus":0,"bonusSoFar":0,"totalExamples":120},{"rt":7894,"response":{"heads":"30","tails":"70"},"type":"response","condition":"seqFeedback","trueTheta":0.3,"classrooms":["A","B"],"studentTrueClassroom":"B","exampleSet":"first","trial_type":"survey-html-form","trial_index":50,"time_elapsed":682393,"internal_node_id":"0.0-42.0-0.0","params":{"nStudents":8,"maxExamples":70,"completionMinutes":15,"basePay":3,"maxBonus":6,"perTrialBonus":0.7,"perTrialBonusThreshold":0.08,"exampleCost":0.01},"classroomParams":{"A":{"a":1,"b":9},"B":{"a":9,"b":1}},"conditions":["nonSeqFull","nonSeqPartial","seqNoFeedback","seqFeedback"],"classroomPairings":[["A","B"]],"coinWeights":[0.3,0.7],"subjectId":"A1HKY2VIN9UFZN","assignmentId":"3P4MQ7TPPYYDI1NVUBYWTQHC8OTBB1","hitId":"391FPZIE4C80JT1T3SKLV8GBSWQUH7","url":"https://gershmanlab.com/experiments/alicia/teaching/experiment/?hitId=391FPZIE4C80JT1T3SKLV8GBSWQUH7&workerId=A1HKY2VIN9UFZN&assignmentId=3P4MQ7TPPYYDI1NVUBYWTQHC8OTBB1&a=PQ4P5&tp_a=PQ4P5&b=3P4MQ7TPPYYDI1NVUBYWTQHC8OTBB1&tp_b=3P4MQ7TPPYYDI1NVUBYWTQHC8OTBB1&c=368485&tp_c=368485","heads":30,"tails":70,"studentIndex":5,"studentTrueHypers":{"a":9,"b":1},"studentGuess":"0.35","delta":0.04999999999999999,"totalExamples":100,"bonusSoFar":0},{"rt":8084,"response":{"heads":"10","tails":"50"},"type":"response","condition":"seqFeedback","trueTheta":0.3,"classrooms":["A","B"],"studentTrueClassroom":"B","exampleSet":"first","trial_type":"survey-html-form","trial_index":51,"time_elapsed":690479,"internal_node_id":"0.0-42.1-0.1","params":{"nStudents":8,"maxExamples":70,"completionMinutes":15,"basePay":3,"maxBonus":6,"perTrialBonus":0.7,"perTrialBonusThreshold":0.08,"exampleCost":0.01},"classroomParams":{"A":{"a":1,"b":9},"B":{"a":9,"b":1}},"conditions":["nonSeqFull","nonSeqPartial","seqNoFeedback","seqFeedback"],"classroomPairings":[["A","B"]],"coinWeights":[0.3,0.7],"subjectId":"A1HKY2VIN9UFZN","assignmentId":"3P4MQ7TPPYYDI1NVUBYWTQHC8OTBB1","hitId":"391FPZIE4C80JT1T3SKLV8GBSWQUH7","url":"https://gershmanlab.com/experiments/alicia/teaching/experiment/?hitId=391FPZIE4C80JT1T3SKLV8GBSWQUH7&workerId=A1HKY2VIN9UFZN&assignmentId=3P4MQ7TPPYYDI1NVUBYWTQHC8OTBB1&a=PQ4P5&tp_a=PQ4P5&b=3P4MQ7TPPYYDI1NVUBYWTQHC8OTBB1&tp_b=3P4MQ7TPPYYDI1NVUBYWTQHC8OTBB1&c=368485&tp_c=368485","heads":10,"tails":50,"studentIndex":5,"studentTrueHypers":{"a":9,"b":1},"studentGuess":"0.27","delta":0.02999999999999997,"totalExamples":60,"bonusSoFar":0},{"rt":8107,"response":{"heads":"20","tails":"60"},"type":"response","condition":"seqFeedback","trueTheta":0.3,"classrooms":["A","B"],"studentTrueClassroom":"B","exampleSet":"second","trial_type":"survey-html-form","trial_index":55,"time_elapsed":710836,"internal_node_id":"0.0-46.0-0.0","params":{"nStudents":8,"maxExamples":70,"completionMinutes":15,"basePay":3,"maxBonus":6,"perTrialBonus":0.7,"perTrialBonusThreshold":0.08,"exampleCost":0.01},"classroomParams":{"A":{"a":1,"b":9},"B":{"a":9,"b":1}},"conditions":["nonSeqFull","nonSeqPartial","seqNoFeedback","seqFeedback"],"classroomPairings":[["A","B"]],"coinWeights":[0.3,0.7],"subjectId":"A1HKY2VIN9UFZN","assignmentId":"3P4MQ7TPPYYDI1NVUBYWTQHC8OTBB1","hitId":"391FPZIE4C80JT1T3SKLV8GBSWQUH7","url":"https://gershmanlab.com/experiments/alicia/teaching/experiment/?hitId=391FPZIE4C80JT1T3SKLV8GBSWQUH7&workerId=A1HKY2VIN9UFZN&assignmentId=3P4MQ7TPPYYDI1NVUBYWTQHC8OTBB1&a=PQ4P5&tp_a=PQ4P5&b=3P4MQ7TPPYYDI1NVUBYWTQHC8OTBB1&tp_b=3P4MQ7TPPYYDI1NVUBYWTQHC8OTBB1&c=368485&tp_c=368485","firstResponseHeads":30,"firstResponseTails":70,"secondResponseHeads":20,"secondResponseTails":60,"totalHeads":50,"totalTails":130,"studentIndex":5,"studentTrueHypers":{"a":9,"b":1},"studentGuess":"0.31","delta":0.010000000000000009,"bonus":0,"bonusSoFar":0,"totalExamples":180},{"rt":4874,"response":{"heads":"10","tails":"50"},"type":"response","condition":"seqFeedback","trueTheta":0.3,"classrooms":["A","B"],"studentTrueClassroom":"B","exampleSet":"second","trial_type":"survey-html-form","trial_index":56,"time_elapsed":715713,"internal_node_id":"0.0-46.1-0.1","params":{"nStudents":8,"maxExamples":70,"completionMinutes":15,"basePay":3,"maxBonus":6,"perTrialBonus":0.7,"perTrialBonusThreshold":0.08,"exampleCost":0.01},"classroomParams":{"A":{"a":1,"b":9},"B":{"a":9,"b":1}},"conditions":["nonSeqFull","nonSeqPartial","seqNoFeedback","seqFeedback"],"classroomPairings":[["A","B"]],"coinWeights":[0.3,0.7],"subjectId":"A1HKY2VIN9UFZN","assignmentId":"3P4MQ7TPPYYDI1NVUBYWTQHC8OTBB1","hitId":"391FPZIE4C80JT1T3SKLV8GBSWQUH7","url":"https://gershmanlab.com/experiments/alicia/teaching/experiment/?hitId=391FPZIE4C80JT1T3SKLV8GBSWQUH7&workerId=A1HKY2VIN9UFZN&assignmentId=3P4MQ7TPPYYDI1NVUBYWTQHC8OTBB1&a=PQ4P5&tp_a=PQ4P5&b=3P4MQ7TPPYYDI1NVUBYWTQHC8OTBB1&tp_b=3P4MQ7TPPYYDI1NVUBYWTQHC8OTBB1&c=368485&tp_c=368485","firstResponseHeads":30,"firstResponseTails":70,"secondResponseHeads":10,"secondResponseTails":50,"totalHeads":40,"totalTails":120,"studentIndex":5,"studentTrueHypers":{"a":9,"b":1},"studentGuess":"0.29","delta":0.010000000000000009,"bonus":0,"bonusSoFar":0,"totalExamples":160},{"rt":7162,"response":{"heads":"70","tails":"30"},"type":"response","condition":"seqFeedback","trueTheta":0.7,"classrooms":["A","B"],"studentTrueClassroom":"A","exampleSet":"first","trial_type":"survey-html-form","trial_index":62,"time_elapsed":739514,"internal_node_id":"0.0-52.0-0.0","params":{"nStudents":8,"maxExamples":70,"completionMinutes":15,"basePay":3,"maxBonus":6,"perTrialBonus":0.7,"perTrialBonusThreshold":0.08,"exampleCost":0.01},"classroomParams":{"A":{"a":1,"b":9},"B":{"a":9,"b":1}},"conditions":["nonSeqFull","nonSeqPartial","seqNoFeedback","seqFeedback"],"classroomPairings":[["A","B"]],"coinWeights":[0.3,0.7],"subjectId":"A1HKY2VIN9UFZN","assignmentId":"3P4MQ7TPPYYDI1NVUBYWTQHC8OTBB1","hitId":"391FPZIE4C80JT1T3SKLV8GBSWQUH7","url":"https://gershmanlab.com/experiments/alicia/teaching/experiment/?hitId=391FPZIE4C80JT1T3SKLV8GBSWQUH7&workerId=A1HKY2VIN9UFZN&assignmentId=3P4MQ7TPPYYDI1NVUBYWTQHC8OTBB1&a=PQ4P5&tp_a=PQ4P5&b=3P4MQ7TPPYYDI1NVUBYWTQHC8OTBB1&tp_b=3P4MQ7TPPYYDI1NVUBYWTQHC8OTBB1&c=368485&tp_c=368485","heads":70,"tails":30,"studentIndex":6,"studentTrueHypers":{"a":1,"b":9},"studentGuess":"0.65","delta":0.04999999999999993,"totalExamples":100,"bonusSoFar":0},{"rt":4200,"response":{"heads":"70","tails":"30"},"type":"response","condition":"seqFeedback","trueTheta":0.7,"classrooms":["A","B"],"studentTrueClassroom":"A","exampleSet":"first","trial_type":"survey-html-form","trial_index":63,"time_elapsed":743716,"internal_node_id":"0.0-52.1-0.1","params":{"nStudents":8,"maxExamples":70,"completionMinutes":15,"basePay":3,"maxBonus":6,"perTrialBonus":0.7,"perTrialBonusThreshold":0.08,"exampleCost":0.01},"classroomParams":{"A":{"a":1,"b":9},"B":{"a":9,"b":1}},"conditions":["nonSeqFull","nonSeqPartial","seqNoFeedback","seqFeedback"],"classroomPairings":[["A","B"]],"coinWeights":[0.3,0.7],"subjectId":"A1HKY2VIN9UFZN","assignmentId":"3P4MQ7TPPYYDI1NVUBYWTQHC8OTBB1","hitId":"391FPZIE4C80JT1T3SKLV8GBSWQUH7","url":"https://gershmanlab.com/experiments/alicia/teaching/experiment/?hitId=391FPZIE4C80JT1T3SKLV8GBSWQUH7&workerId=A1HKY2VIN9UFZN&assignmentId=3P4MQ7TPPYYDI1NVUBYWTQHC8OTBB1&a=PQ4P5&tp_a=PQ4P5&b=3P4MQ7TPPYYDI1NVUBYWTQHC8OTBB1&tp_b=3P4MQ7TPPYYDI1NVUBYWTQHC8OTBB1&c=368485&tp_c=368485","heads":70,"tails":30,"studentIndex":6,"studentTrueHypers":{"a":1,"b":9},"studentGuess":"0.65","delta":0.04999999999999993,"totalExamples":100,"bonusSoFar":0},{"rt":7344,"response":{"heads":"70","tails":"30"},"type":"response","condition":"seqFeedback","trueTheta":0.7,"classrooms":["A","B"],"studentTrueClassroom":"A","exampleSet":"first","trial_type":"survey-html-form","trial_index":64,"time_elapsed":751062,"internal_node_id":"0.0-52.2-0.2","params":{"nStudents":8,"maxExamples":70,"completionMinutes":15,"basePay":3,"maxBonus":6,"perTrialBonus":0.7,"perTrialBonusThreshold":0.08,"exampleCost":0.01},"classroomParams":{"A":{"a":1,"b":9},"B":{"a":9,"b":1}},"conditions":["nonSeqFull","nonSeqPartial","seqNoFeedback","seqFeedback"],"classroomPairings":[["A","B"]],"coinWeights":[0.3,0.7],"subjectId":"A1HKY2VIN9UFZN","assignmentId":"3P4MQ7TPPYYDI1NVUBYWTQHC8OTBB1","hitId":"391FPZIE4C80JT1T3SKLV8GBSWQUH7","url":"https://gershmanlab.com/experiments/alicia/teaching/experiment/?hitId=391FPZIE4C80JT1T3SKLV8GBSWQUH7&workerId=A1HKY2VIN9UFZN&assignmentId=3P4MQ7TPPYYDI1NVUBYWTQHC8OTBB1&a=PQ4P5&tp_a=PQ4P5&b=3P4MQ7TPPYYDI1NVUBYWTQHC8OTBB1&tp_b=3P4MQ7TPPYYDI1NVUBYWTQHC8OTBB1&c=368485&tp_c=368485","heads":70,"tails":30,"studentIndex":6,"studentTrueHypers":{"a":1,"b":9},"studentGuess":"0.65","delta":0.04999999999999993,"totalExamples":100,"bonusSoFar":0},{"rt":9561,"response":{"heads":"30","tails":"5"},"type":"response","condition":"seqFeedback","trueTheta":0.7,"classrooms":["A","B"],"studentTrueClassroom":"A","exampleSet":"first","trial_type":"survey-html-form","trial_index":65,"time_elapsed":760625,"internal_node_id":"0.0-52.3-0.3","params":{"nStudents":8,"maxExamples":70,"completionMinutes":15,"basePay":3,"maxBonus":6,"perTrialBonus":0.7,"perTrialBonusThreshold":0.08,"exampleCost":0.01},"classroomParams":{"A":{"a":1,"b":9},"B":{"a":9,"b":1}},"conditions":["nonSeqFull","nonSeqPartial","seqNoFeedback","seqFeedback"],"classroomPairings":[["A","B"]],"coinWeights":[0.3,0.7],"subjectId":"A1HKY2VIN9UFZN","assignmentId":"3P4MQ7TPPYYDI1NVUBYWTQHC8OTBB1","hitId":"391FPZIE4C80JT1T3SKLV8GBSWQUH7","url":"https://gershmanlab.com/experiments/alicia/teaching/experiment/?hitId=391FPZIE4C80JT1T3SKLV8GBSWQUH7&workerId=A1HKY2VIN9UFZN&assignmentId=3P4MQ7TPPYYDI1NVUBYWTQHC8OTBB1&a=PQ4P5&tp_a=PQ4P5&b=3P4MQ7TPPYYDI1NVUBYWTQHC8OTBB1&tp_b=3P4MQ7TPPYYDI1NVUBYWTQHC8OTBB1&c=368485&tp_c=368485","heads":30,"tails":5,"studentIndex":6,"studentTrueHypers":{"a":1,"b":9},"studentGuess":"0.69","delta":0.010000000000000009,"totalExamples":35,"bonusSoFar":0},{"rt":7829,"response":{"heads":"30","tails":"5"},"type":"response","condition":"seqFeedback","trueTheta":0.7,"classrooms":["A","B"],"studentTrueClassroom":"A","exampleSet":"second","trial_type":"survey-html-form","trial_index":69,"time_elapsed":778766,"internal_node_id":"0.0-56.0-0.0","params":{"nStudents":8,"maxExamples":70,"completionMinutes":15,"basePay":3,"maxBonus":6,"perTrialBonus":0.7,"perTrialBonusThreshold":0.08,"exampleCost":0.01},"classroomParams":{"A":{"a":1,"b":9},"B":{"a":9,"b":1}},"conditions":["nonSeqFull","nonSeqPartial","seqNoFeedback","seqFeedback"],"classroomPairings":[["A","B"]],"coinWeights":[0.3,0.7],"subjectId":"A1HKY2VIN9UFZN","assignmentId":"3P4MQ7TPPYYDI1NVUBYWTQHC8OTBB1","hitId":"391FPZIE4C80JT1T3SKLV8GBSWQUH7","url":"https://gershmanlab.com/experiments/alicia/teaching/experiment/?hitId=391FPZIE4C80JT1T3SKLV8GBSWQUH7&workerId=A1HKY2VIN9UFZN&assignmentId=3P4MQ7TPPYYDI1NVUBYWTQHC8OTBB1&a=PQ4P5&tp_a=PQ4P5&b=3P4MQ7TPPYYDI1NVUBYWTQHC8OTBB1&tp_b=3P4MQ7TPPYYDI1NVUBYWTQHC8OTBB1&c=368485&tp_c=368485","firstResponseHeads":70,"firstResponseTails":30,"secondResponseHeads":30,"secondResponseTails":5,"totalHeads":100,"totalTails":35,"studentIndex":6,"studentTrueHypers":{"a":1,"b":9},"studentGuess":"0.70","delta":0,"bonus":0,"bonusSoFar":0,"totalExamples":135},{"rt":5844,"response":{"heads":"20","tails":"5"},"type":"response","condition":"nonSeqFull","trueTheta":0.7,"classrooms":["A","B"],"studentTrueClassroom":"B","exampleSet":"first","trial_type":"survey-html-form","trial_index":75,"time_elapsed":863260,"internal_node_id":"0.0-62.0-0.0","params":{"nStudents":8,"maxExamples":70,"completionMinutes":15,"basePay":3,"maxBonus":6,"perTrialBonus":0.7,"perTrialBonusThreshold":0.08,"exampleCost":0.01},"classroomParams":{"A":{"a":1,"b":9},"B":{"a":9,"b":1}},"conditions":["nonSeqFull","nonSeqPartial","seqNoFeedback","seqFeedback"],"classroomPairings":[["A","B"]],"coinWeights":[0.3,0.7],"subjectId":"A1HKY2VIN9UFZN","assignmentId":"3P4MQ7TPPYYDI1NVUBYWTQHC8OTBB1","hitId":"391FPZIE4C80JT1T3SKLV8GBSWQUH7","url":"https://gershmanlab.com/experiments/alicia/teaching/experiment/?hitId=391FPZIE4C80JT1T3SKLV8GBSWQUH7&workerId=A1HKY2VIN9UFZN&assignmentId=3P4MQ7TPPYYDI1NVUBYWTQHC8OTBB1&a=PQ4P5&tp_a=PQ4P5&b=3P4MQ7TPPYYDI1NVUBYWTQHC8OTBB1&tp_b=3P4MQ7TPPYYDI1NVUBYWTQHC8OTBB1&c=368485&tp_c=368485","heads":20,"tails":5,"studentIndex":7,"studentTrueHypers":{"a":9,"b":1},"studentGuess":"0.83","delta":0.13,"totalExamples":25,"bonus":0,"bonusSoFar":0},{"rt":20897,"response":{"gender":"male","age":"34","understood":"yes","strategy":"i tried to use a percentage of the real number in the number that i sent","comments":""},"type":"response","trial_type":"survey-html-form","trial_index":79,"time_elapsed":892283,"internal_node_id":"0.0-67.0","params":{"nStudents":8,"maxExamples":70,"completionMinutes":15,"basePay":3,"maxBonus":6,"perTrialBonus":0.7,"perTrialBonusThreshold":0.08,"exampleCost":0.01},"classroomParams":{"A":{"a":1,"b":9},"B":{"a":9,"b":1}},"conditions":["nonSeqFull","nonSeqPartial","seqNoFeedback","seqFeedback"],"classroomPairings":[["A","B"]],"coinWeights":[0.3,0.7],"subjectId":"A1HKY2VIN9UFZN","assignmentId":"3P4MQ7TPPYYDI1NVUBYWTQHC8OTBB1","hitId":"391FPZIE4C80JT1T3SKLV8GBSWQUH7","url":"https://gershmanlab.com/experiments/alicia/teaching/experiment/?hitId=391FPZIE4C80JT1T3SKLV8GBSWQUH7&workerId=A1HKY2VIN9UFZN&assignmentId=3P4MQ7TPPYYDI1NVUBYWTQHC8OTBB1&a=PQ4P5&tp_a=PQ4P5&b=3P4MQ7TPPYYDI1NVUBYWTQHC8OTBB1&tp_b=3P4MQ7TPPYYDI1NVUBYWTQHC8OTBB1&c=368485&tp_c=368485","totalBonus":0}]