[{"rt":80509,"response":{"heads":"8","tails":"2"},"type":"response","condition":"nonSeqFull","trueTheta":0.7,"classrooms":["A","B"],"studentTrueClassroom":"A","exampleSet":"first","trial_type":"survey-html-form","trial_index":10,"time_elapsed":781871,"internal_node_id":"0.0-6.0-0.0","params":{"nStudents":8,"maxExamples":70,"completionMinutes":15,"basePay":3,"maxBonus":6,"perTrialBonus":0.7,"perTrialBonusThreshold":0.08,"exampleCost":0.01},"classroomParams":{"A":{"a":1,"b":9},"B":{"a":9,"b":1}},"conditions":["nonSeqFull","nonSeqPartial","seqNoFeedback","seqFeedback"],"classroomPairings":[["A","B"]],"coinWeights":[0.3,0.7],"subjectId":"A1I7H6RDJS4EKN","assignmentId":"3QEMNNSB2YLJVMIPVQDMJEJGSJED7O","hitId":"3VEI3XUCZRJ0GI70IBXLZ6VI7OWRP5","url":"https://gershmanlab.com/experiments/alicia/teaching/experiment/?hitId=3VEI3XUCZRJ0GI70IBXLZ6VI7OWRP5&workerId=A1I7H6RDJS4EKN&assignmentId=3QEMNNSB2YLJVMIPVQDMJEJGSJED7O&a=BNEQ5&tp_a=BNEQ5&b=3QEMNNSB2YLJVMIPVQDMJEJGSJED7O&tp_b=3QEMNNSB2YLJVMIPVQDMJEJGSJED7O&c=368485&tp_c=368485","heads":8,"tails":2,"studentIndex":0,"studentTrueHypers":{"a":1,"b":9},"studentGuess":"0.45","delta":0.24999999999999994,"totalExamples":10,"bonus":0,"bonusSoFar":0},{"rt":68471,"response":{"heads":"7","tails":"3"},"type":"response","condition":"seqFeedback","trueTheta":0.7,"classrooms":["A","B"],"studentTrueClassroom":"A","exampleSet":"first","trial_type":"survey-html-form","trial_index":16,"time_elapsed":891114,"internal_node_id":"0.0-12.0-0.0","params":{"nStudents":8,"maxExamples":70,"completionMinutes":15,"basePay":3,"maxBonus":6,"perTrialBonus":0.7,"perTrialBonusThreshold":0.08,"exampleCost":0.01},"classroomParams":{"A":{"a":1,"b":9},"B":{"a":9,"b":1}},"conditions":["nonSeqFull","nonSeqPartial","seqNoFeedback","seqFeedback"],"classroomPairings":[["A","B"]],"coinWeights":[0.3,0.7],"subjectId":"A1I7H6RDJS4EKN","assignmentId":"3QEMNNSB2YLJVMIPVQDMJEJGSJED7O","hitId":"3VEI3XUCZRJ0GI70IBXLZ6VI7OWRP5","url":"https://gershmanlab.com/experiments/alicia/teaching/experiment/?hitId=3VEI3XUCZRJ0GI70IBXLZ6VI7OWRP5&workerId=A1I7H6RDJS4EKN&assignmentId=3QEMNNSB2YLJVMIPVQDMJEJGSJED7O&a=BNEQ5&tp_a=BNEQ5&b=3QEMNNSB2YLJVMIPVQDMJEJGSJED7O&tp_b=3QEMNNSB2YLJVMIPVQDMJEJGSJED7O&c=368485&tp_c=368485","heads":7,"tails":3,"studentIndex":1,"studentTrueHypers":{"a":1,"b":9},"studentGuess":"0.40","delta":0.29999999999999993,"totalExamples":10,"bonusSoFar":0},{"rt":18249,"response":{"heads":"9","tails":"1"},"type":"response","condition":"seqFeedback","trueTheta":0.7,"classrooms":["A","B"],"studentTrueClassroom":"A","exampleSet":"second","trial_type":"survey-html-form","trial_index":20,"time_elapsed":934117,"internal_node_id":"0.0-16.0-0.0","params":{"nStudents":8,"maxExamples":70,"completionMinutes":15,"basePay":3,"maxBonus":6,"perTrialBonus":0.7,"perTrialBonusThreshold":0.08,"exampleCost":0.01},"classroomParams":{"A":{"a":1,"b":9},"B":{"a":9,"b":1}},"conditions":["nonSeqFull","nonSeqPartial","seqNoFeedback","seqFeedback"],"classroomPairings":[["A","B"]],"coinWeights":[0.3,0.7],"subjectId":"A1I7H6RDJS4EKN","assignmentId":"3QEMNNSB2YLJVMIPVQDMJEJGSJED7O","hitId":"3VEI3XUCZRJ0GI70IBXLZ6VI7OWRP5","url":"https://gershmanlab.com/experiments/alicia/teaching/experiment/?hitId=3VEI3XUCZRJ0GI70IBXLZ6VI7OWRP5&workerId=A1I7H6RDJS4EKN&assignmentId=3QEMNNSB2YLJVMIPVQDMJEJGSJED7O&a=BNEQ5&tp_a=BNEQ5&b=3QEMNNSB2YLJVMIPVQDMJEJGSJED7O&tp_b=3QEMNNSB2YLJVMIPVQDMJEJGSJED7O&c=368485&tp_c=368485","firstResponseHeads":7,"firstResponseTails":3,"secondResponseHeads":9,"secondResponseTails":1,"totalHeads":16,"totalTails":4,"studentIndex":1,"studentTrueHypers":{"a":1,"b":9},"studentGuess":"0.57","delta":0.13,"bonus":0,"bonusSoFar":0,"totalExamples":20},{"rt":108326,"response":{"heads":"10","tails":"0"},"type":"response","condition":"nonSeqPartial","trueTheta":0.7,"classrooms":["A","B"],"studentTrueClassroom":"B","exampleSet":"first","trial_type":"survey-html-form","trial_index":26,"time_elapsed":1076729,"internal_node_id":"0.0-22.0-0.0","params":{"nStudents":8,"maxExamples":70,"completionMinutes":15,"basePay":3,"maxBonus":6,"perTrialBonus":0.7,"perTrialBonusThreshold":0.08,"exampleCost":0.01},"classroomParams":{"A":{"a":1,"b":9},"B":{"a":9,"b":1}},"conditions":["nonSeqFull","nonSeqPartial","seqNoFeedback","seqFeedback"],"classroomPairings":[["A","B"]],"coinWeights":[0.3,0.7],"subjectId":"A1I7H6RDJS4EKN","assignmentId":"3QEMNNSB2YLJVMIPVQDMJEJGSJED7O","hitId":"3VEI3XUCZRJ0GI70IBXLZ6VI7OWRP5","url":"https://gershmanlab.com/experiments/alicia/teaching/experiment/?hitId=3VEI3XUCZRJ0GI70IBXLZ6VI7OWRP5&workerId=A1I7H6RDJS4EKN&assignmentId=3QEMNNSB2YLJVMIPVQDMJEJGSJED7O&a=BNEQ5&tp_a=BNEQ5&b=3QEMNNSB2YLJVMIPVQDMJEJGSJED7O&tp_b=3QEMNNSB2YLJVMIPVQDMJEJGSJED7O&c=368485&tp_c=368485","heads":10,"tails":0,"studentIndex":2,"studentTrueHypers":{"a":9,"b":1},"studentGuess":"0.95","delta":0.25,"totalExamples":10,"bonus":0,"bonusSoFar":0},{"rt":159277,"response":{"heads":"1","tails":"0"},"type":"response","condition":"seqFeedback","trueTheta":0.3,"classrooms":["A","B"],"studentTrueClassroom":"A","exampleSet":"first","trial_type":"survey-html-form","trial_index":32,"time_elapsed":1277321,"internal_node_id":"0.0-28.0-0.0","params":{"nStudents":8,"maxExamples":70,"completionMinutes":15,"basePay":3,"maxBonus":6,"perTrialBonus":0.7,"perTrialBonusThreshold":0.08,"exampleCost":0.01},"classroomParams":{"A":{"a":1,"b":9},"B":{"a":9,"b":1}},"conditions":["nonSeqFull","nonSeqPartial","seqNoFeedback","seqFeedback"],"classroomPairings":[["A","B"]],"coinWeights":[0.3,0.7],"subjectId":"A1I7H6RDJS4EKN","assignmentId":"3QEMNNSB2YLJVMIPVQDMJEJGSJED7O","hitId":"3VEI3XUCZRJ0GI70IBXLZ6VI7OWRP5","url":"https://gershmanlab.com/experiments/alicia/teaching/experiment/?hitId=3VEI3XUCZRJ0GI70IBXLZ6VI7OWRP5&workerId=A1I7H6RDJS4EKN&assignmentId=3QEMNNSB2YLJVMIPVQDMJEJGSJED7O&a=BNEQ5&tp_a=BNEQ5&b=3QEMNNSB2YLJVMIPVQDMJEJGSJED7O&tp_b=3QEMNNSB2YLJVMIPVQDMJEJGSJED7O&c=368485&tp_c=368485","heads":1,"tails":0,"studentIndex":3,"studentTrueHypers":{"a":1,"b":9},"studentGuess":"0.18","delta":0.12,"totalExamples":1,"bonusSoFar":0},{"rt":95399,"response":{"heads":"10","tails":"20"},"type":"response","condition":"seqFeedback","trueTheta":0.3,"classrooms":["A","B"],"studentTrueClassroom":"A","exampleSet":"second","trial_type":"survey-html-form","trial_index":36,"time_elapsed":1402313,"internal_node_id":"0.0-32.0-0.0","params":{"nStudents":8,"maxExamples":70,"completionMinutes":15,"basePay":3,"maxBonus":6,"perTrialBonus":0.7,"perTrialBonusThreshold":0.08,"exampleCost":0.01},"classroomParams":{"A":{"a":1,"b":9},"B":{"a":9,"b":1}},"conditions":["nonSeqFull","nonSeqPartial","seqNoFeedback","seqFeedback"],"classroomPairings":[["A","B"]],"coinWeights":[0.3,0.7],"subjectId":"A1I7H6RDJS4EKN","assignmentId":"3QEMNNSB2YLJVMIPVQDMJEJGSJED7O","hitId":"3VEI3XUCZRJ0GI70IBXLZ6VI7OWRP5","url":"https://gershmanlab.com/experiments/alicia/teaching/experiment/?hitId=3VEI3XUCZRJ0GI70IBXLZ6VI7OWRP5&workerId=A1I7H6RDJS4EKN&assignmentId=3QEMNNSB2YLJVMIPVQDMJEJGSJED7O&a=BNEQ5&tp_a=BNEQ5&b=3QEMNNSB2YLJVMIPVQDMJEJGSJED7O&tp_b=3QEMNNSB2YLJVMIPVQDMJEJGSJED7O&c=368485&tp_c=368485","firstResponseHeads":1,"firstResponseTails":0,"secondResponseHeads":10,"secondResponseTails":20,"totalHeads":11,"totalTails":20,"studentIndex":3,"studentTrueHypers":{"a":1,"b":9},"studentGuess":"0.29","delta":0.010000000000000009,"bonus":0.39,"bonusSoFar":0.39,"totalExamples":31},{"rt":37256,"response":{"heads":"15","tails":"20"},"type":"response","condition":"nonSeqFull","trueTheta":0.3,"classrooms":["A","B"],"studentTrueClassroom":"A","exampleSet":"first","trial_type":"survey-html-form","trial_index":42,"time_elapsed":1484976,"internal_node_id":"0.0-38.0-0.0","params":{"nStudents":8,"maxExamples":70,"completionMinutes":15,"basePay":3,"maxBonus":6,"perTrialBonus":0.7,"perTrialBonusThreshold":0.08,"exampleCost":0.01},"classroomParams":{"A":{"a":1,"b":9},"B":{"a":9,"b":1}},"conditions":["nonSeqFull","nonSeqPartial","seqNoFeedback","seqFeedback"],"classroomPairings":[["A","B"]],"coinWeights":[0.3,0.7],"subjectId":"A1I7H6RDJS4EKN","assignmentId":"3QEMNNSB2YLJVMIPVQDMJEJGSJED7O","hitId":"3VEI3XUCZRJ0GI70IBXLZ6VI7OWRP5","url":"https://gershmanlab.com/experiments/alicia/teaching/experiment/?hitId=3VEI3XUCZRJ0GI70IBXLZ6VI7OWRP5&workerId=A1I7H6RDJS4EKN&assignmentId=3QEMNNSB2YLJVMIPVQDMJEJGSJED7O&a=BNEQ5&tp_a=BNEQ5&b=3QEMNNSB2YLJVMIPVQDMJEJGSJED7O&tp_b=3QEMNNSB2YLJVMIPVQDMJEJGSJED7O&c=368485&tp_c=368485","heads":15,"tails":20,"studentIndex":4,"studentTrueHypers":{"a":1,"b":9},"studentGuess":"0.36","delta":0.06,"totalExamples":35,"bonus":0.35,"bonusSoFar":0.74},{"rt":32435,"response":{"heads":"7","tails":"3"},"type":"response","condition":"seqNoFeedback","trueTheta":0.7,"classrooms":["A","B"],"studentTrueClassroom":"B","exampleSet":"first","trial_type":"survey-html-form","trial_index":48,"time_elapsed":1576836,"internal_node_id":"0.0-44.0-0.0","params":{"nStudents":8,"maxExamples":70,"completionMinutes":15,"basePay":3,"maxBonus":6,"perTrialBonus":0.7,"perTrialBonusThreshold":0.08,"exampleCost":0.01},"classroomParams":{"A":{"a":1,"b":9},"B":{"a":9,"b":1}},"conditions":["nonSeqFull","nonSeqPartial","seqNoFeedback","seqFeedback"],"classroomPairings":[["A","B"]],"coinWeights":[0.3,0.7],"subjectId":"A1I7H6RDJS4EKN","assignmentId":"3QEMNNSB2YLJVMIPVQDMJEJGSJED7O","hitId":"3VEI3XUCZRJ0GI70IBXLZ6VI7OWRP5","url":"https://gershmanlab.com/experiments/alicia/teaching/experiment/?hitId=3VEI3XUCZRJ0GI70IBXLZ6VI7OWRP5&workerId=A1I7H6RDJS4EKN&assignmentId=3QEMNNSB2YLJVMIPVQDMJEJGSJED7O&a=BNEQ5&tp_a=BNEQ5&b=3QEMNNSB2YLJVMIPVQDMJEJGSJED7O&tp_b=3QEMNNSB2YLJVMIPVQDMJEJGSJED7O&c=368485&tp_c=368485","heads":7,"tails":3,"studentIndex":5,"studentTrueHypers":{"a":9,"b":1},"studentGuess":"0.80","delta":0.10000000000000009,"totalExamples":10,"bonusSoFar":0.74},{"rt":34123,"response":{"heads":"21","tails":"9"},"type":"response","condition":"seqNoFeedback","trueTheta":0.7,"classrooms":["A","B"],"studentTrueClassroom":"B","exampleSet":"second","trial_type":"survey-html-form","trial_index":51,"time_elapsed":1617471,"internal_node_id":"0.0-47.0-0.0","params":{"nStudents":8,"maxExamples":70,"completionMinutes":15,"basePay":3,"maxBonus":6,"perTrialBonus":0.7,"perTrialBonusThreshold":0.08,"exampleCost":0.01},"classroomParams":{"A":{"a":1,"b":9},"B":{"a":9,"b":1}},"conditions":["nonSeqFull","nonSeqPartial","seqNoFeedback","seqFeedback"],"classroomPairings":[["A","B"]],"coinWeights":[0.3,0.7],"subjectId":"A1I7H6RDJS4EKN","assignmentId":"3QEMNNSB2YLJVMIPVQDMJEJGSJED7O","hitId":"3VEI3XUCZRJ0GI70IBXLZ6VI7OWRP5","url":"https://gershmanlab.com/experiments/alicia/teaching/experiment/?hitId=3VEI3XUCZRJ0GI70IBXLZ6VI7OWRP5&workerId=A1I7H6RDJS4EKN&assignmentId=3QEMNNSB2YLJVMIPVQDMJEJGSJED7O&a=BNEQ5&tp_a=BNEQ5&b=3QEMNNSB2YLJVMIPVQDMJEJGSJED7O&tp_b=3QEMNNSB2YLJVMIPVQDMJEJGSJED7O&c=368485&tp_c=368485","firstResponseHeads":7,"firstResponseTails":3,"secondResponseHeads":21,"secondResponseTails":9,"totalHeads":28,"totalTails":12,"studentIndex":5,"studentTrueHypers":{"a":9,"b":1},"studentGuess":"0.74","delta":0.040000000000000036,"bonus":0.3,"bonusSoFar":1.04,"totalExamples":40},{"rt":17743,"response":{"heads":"3","tails":"7"},"type":"response","condition":"seqNoFeedback","trueTheta":0.3,"classrooms":["A","B"],"studentTrueClassroom":"A","exampleSet":"first","trial_type":"survey-html-form","trial_index":57,"time_elapsed":1687647,"internal_node_id":"0.0-53.0-0.0","params":{"nStudents":8,"maxExamples":70,"completionMinutes":15,"basePay":3,"maxBonus":6,"perTrialBonus":0.7,"perTrialBonusThreshold":0.08,"exampleCost":0.01},"classroomParams":{"A":{"a":1,"b":9},"B":{"a":9,"b":1}},"conditions":["nonSeqFull","nonSeqPartial","seqNoFeedback","seqFeedback"],"classroomPairings":[["A","B"]],"coinWeights":[0.3,0.7],"subjectId":"A1I7H6RDJS4EKN","assignmentId":"3QEMNNSB2YLJVMIPVQDMJEJGSJED7O","hitId":"3VEI3XUCZRJ0GI70IBXLZ6VI7OWRP5","url":"https://gershmanlab.com/experiments/alicia/teaching/experiment/?hitId=3VEI3XUCZRJ0GI70IBXLZ6VI7OWRP5&workerId=A1I7H6RDJS4EKN&assignmentId=3QEMNNSB2YLJVMIPVQDMJEJGSJED7O&a=BNEQ5&tp_a=BNEQ5&b=3QEMNNSB2YLJVMIPVQDMJEJGSJED7O&tp_b=3QEMNNSB2YLJVMIPVQDMJEJGSJED7O&c=368485&tp_c=368485","heads":3,"tails":7,"studentIndex":6,"studentTrueHypers":{"a":1,"b":9},"studentGuess":"0.20","delta":0.09999999999999998,"totalExamples":10,"bonusSoFar":1.04},{"rt":29629,"response":{"heads":"9","tails":"21"},"type":"response","condition":"seqNoFeedback","trueTheta":0.3,"classrooms":["A","B"],"studentTrueClassroom":"A","exampleSet":"second","trial_type":"survey-html-form","trial_index":60,"time_elapsed":1723533,"internal_node_id":"0.0-56.0-0.0","params":{"nStudents":8,"maxExamples":70,"completionMinutes":15,"basePay":3,"maxBonus":6,"perTrialBonus":0.7,"perTrialBonusThreshold":0.08,"exampleCost":0.01},"classroomParams":{"A":{"a":1,"b":9},"B":{"a":9,"b":1}},"conditions":["nonSeqFull","nonSeqPartial","seqNoFeedback","seqFeedback"],"classroomPairings":[["A","B"]],"coinWeights":[0.3,0.7],"subjectId":"A1I7H6RDJS4EKN","assignmentId":"3QEMNNSB2YLJVMIPVQDMJEJGSJED7O","hitId":"3VEI3XUCZRJ0GI70IBXLZ6VI7OWRP5","url":"https://gershmanlab.com/experiments/alicia/teaching/experiment/?hitId=3VEI3XUCZRJ0GI70IBXLZ6VI7OWRP5&workerId=A1I7H6RDJS4EKN&assignmentId=3QEMNNSB2YLJVMIPVQDMJEJGSJED7O&a=BNEQ5&tp_a=BNEQ5&b=3QEMNNSB2YLJVMIPVQDMJEJGSJED7O&tp_b=3QEMNNSB2YLJVMIPVQDMJEJGSJED7O&c=368485&tp_c=368485","firstResponseHeads":3,"firstResponseTails":7,"secondResponseHeads":9,"secondResponseTails":21,"totalHeads":12,"totalTails":28,"studentIndex":6,"studentTrueHypers":{"a":1,"b":9},"studentGuess":"0.26","delta":0.03999999999999998,"bonus":0.3,"bonusSoFar":1.34,"totalExamples":40},{"rt":104471,"response":{"heads":"15","tails":"35"},"type":"response","condition":"nonSeqPartial","trueTheta":0.3,"classrooms":["A","B"],"studentTrueClassroom":"B","exampleSet":"first","trial_type":"survey-html-form","trial_index":66,"time_elapsed":1860835,"internal_node_id":"0.0-62.0-0.0","params":{"nStudents":8,"maxExamples":70,"completionMinutes":15,"basePay":3,"maxBonus":6,"perTrialBonus":0.7,"perTrialBonusThreshold":0.08,"exampleCost":0.01},"classroomParams":{"A":{"a":1,"b":9},"B":{"a":9,"b":1}},"conditions":["nonSeqFull","nonSeqPartial","seqNoFeedback","seqFeedback"],"classroomPairings":[["A","B"]],"coinWeights":[0.3,0.7],"subjectId":"A1I7H6RDJS4EKN","assignmentId":"3QEMNNSB2YLJVMIPVQDMJEJGSJED7O","hitId":"3VEI3XUCZRJ0GI70IBXLZ6VI7OWRP5","url":"https://gershmanlab.com/experiments/alicia/teaching/experiment/?hitId=3VEI3XUCZRJ0GI70IBXLZ6VI7OWRP5&workerId=A1I7H6RDJS4EKN&assignmentId=3QEMNNSB2YLJVMIPVQDMJEJGSJED7O&a=BNEQ5&tp_a=BNEQ5&b=3QEMNNSB2YLJVMIPVQDMJEJGSJED7O&tp_b=3QEMNNSB2YLJVMIPVQDMJEJGSJED7O&c=368485&tp_c=368485","heads":15,"tails":35,"studentIndex":7,"studentTrueHypers":{"a":9,"b":1},"studentGuess":"0.40","delta":0.10000000000000003,"totalExamples":50,"bonus":0,"bonusSoFar":1.34},{"rt":399479,"response":{"gender":"male","age":"66","understood":"yes","strategy":"In the 2 guesses parts I used the exact proportions first in small numbers then tripling or quadrupling the numbers to rub it in. It worked. In the single chance parts it was a crap shoot. I","comments":"Maybe 3 trials before the actual game would have helped me perform better?"},"type":"response","trial_type":"survey-html-form","trial_index":70,"time_elapsed":2277471,"internal_node_id":"0.0-67.0","params":{"nStudents":8,"maxExamples":70,"completionMinutes":15,"basePay":3,"maxBonus":6,"perTrialBonus":0.7,"perTrialBonusThreshold":0.08,"exampleCost":0.01},"classroomParams":{"A":{"a":1,"b":9},"B":{"a":9,"b":1}},"conditions":["nonSeqFull","nonSeqPartial","seqNoFeedback","seqFeedback"],"classroomPairings":[["A","B"]],"coinWeights":[0.3,0.7],"subjectId":"A1I7H6RDJS4EKN","assignmentId":"3QEMNNSB2YLJVMIPVQDMJEJGSJED7O","hitId":"3VEI3XUCZRJ0GI70IBXLZ6VI7OWRP5","url":"https://gershmanlab.com/experiments/alicia/teaching/experiment/?hitId=3VEI3XUCZRJ0GI70IBXLZ6VI7OWRP5&workerId=A1I7H6RDJS4EKN&assignmentId=3QEMNNSB2YLJVMIPVQDMJEJGSJED7O&a=BNEQ5&tp_a=BNEQ5&b=3QEMNNSB2YLJVMIPVQDMJEJGSJED7O&tp_b=3QEMNNSB2YLJVMIPVQDMJEJGSJED7O&c=368485&tp_c=368485","totalBonus":1.34}]