[{"rt":18607,"response":{"heads":"7","tails":"3"},"type":"response","condition":"seqNoFeedback","trueTheta":0.7,"classrooms":["A","B"],"studentTrueClassroom":"B","exampleSet":"first","trial_type":"survey-html-form","trial_index":7,"time_elapsed":285608,"internal_node_id":"0.0-6.0-0.0","params":{"nStudents":8,"maxExamples":70,"completionMinutes":15,"basePay":3,"maxBonus":6,"perTrialBonus":0.7,"perTrialBonusThreshold":0.08,"exampleCost":0.01},"classroomParams":{"A":{"a":1,"b":9},"B":{"a":9,"b":1}},"conditions":["nonSeqFull","nonSeqPartial","seqNoFeedback","seqFeedback"],"classroomPairings":[["A","B"]],"coinWeights":[0.3,0.7],"subjectId":"A1PAY3X73PQ16S","assignmentId":"3DY4FPOOA2AF7M2QVPBMUHGNT2BVR3","hitId":"391FPZIE4C80JT1T3SKLV8GBSWQUH7","url":"https://gershmanlab.com/experiments/alicia/teaching/experiment/?hitId=391FPZIE4C80JT1T3SKLV8GBSWQUH7&workerId=A1PAY3X73PQ16S&assignmentId=3DY4FPOOA2AF7M2QVPBMUHGNT2BVR3&a=OFYD5&tp_a=OFYD5&b=3DY4FPOOA2AF7M2QVPBMUHGNT2BVR3&tp_b=3DY4FPOOA2AF7M2QVPBMUHGNT2BVR3&c=368485&tp_c=368485","heads":7,"tails":3,"studentIndex":0,"studentTrueHypers":{"a":9,"b":1},"studentGuess":"0.80","delta":0.10000000000000009,"totalExamples":10,"bonusSoFar":0},{"rt":14999,"response":{"heads":"7","tails":"3"},"type":"response","condition":"seqNoFeedback","trueTheta":0.7,"classrooms":["A","B"],"studentTrueClassroom":"B","exampleSet":"second","trial_type":"survey-html-form","trial_index":10,"time_elapsed":306864,"internal_node_id":"0.0-9.0-0.0","params":{"nStudents":8,"maxExamples":70,"completionMinutes":15,"basePay":3,"maxBonus":6,"perTrialBonus":0.7,"perTrialBonusThreshold":0.08,"exampleCost":0.01},"classroomParams":{"A":{"a":1,"b":9},"B":{"a":9,"b":1}},"conditions":["nonSeqFull","nonSeqPartial","seqNoFeedback","seqFeedback"],"classroomPairings":[["A","B"]],"coinWeights":[0.3,0.7],"subjectId":"A1PAY3X73PQ16S","assignmentId":"3DY4FPOOA2AF7M2QVPBMUHGNT2BVR3","hitId":"391FPZIE4C80JT1T3SKLV8GBSWQUH7","url":"https://gershmanlab.com/experiments/alicia/teaching/experiment/?hitId=391FPZIE4C80JT1T3SKLV8GBSWQUH7&workerId=A1PAY3X73PQ16S&assignmentId=3DY4FPOOA2AF7M2QVPBMUHGNT2BVR3&a=OFYD5&tp_a=OFYD5&b=3DY4FPOOA2AF7M2QVPBMUHGNT2BVR3&tp_b=3DY4FPOOA2AF7M2QVPBMUHGNT2BVR3&c=368485&tp_c=368485","firstResponseHeads":7,"firstResponseTails":3,"secondResponseHeads":7,"secondResponseTails":3,"totalHeads":14,"totalTails":6,"studentIndex":0,"studentTrueHypers":{"a":9,"b":1},"studentGuess":"0.77","delta":0.07000000000000006,"bonus":0.5,"bonusSoFar":0.5,"totalExamples":20},{"rt":10945,"response":{"heads":"3","tails":"7"},"type":"response","condition":"seqFeedback","trueTheta":0.3,"classrooms":["A","B"],"studentTrueClassroom":"B","exampleSet":"first","trial_type":"survey-html-form","trial_index":16,"time_elapsed":353593,"internal_node_id":"0.0-15.0-0.0","params":{"nStudents":8,"maxExamples":70,"completionMinutes":15,"basePay":3,"maxBonus":6,"perTrialBonus":0.7,"perTrialBonusThreshold":0.08,"exampleCost":0.01},"classroomParams":{"A":{"a":1,"b":9},"B":{"a":9,"b":1}},"conditions":["nonSeqFull","nonSeqPartial","seqNoFeedback","seqFeedback"],"classroomPairings":[["A","B"]],"coinWeights":[0.3,0.7],"subjectId":"A1PAY3X73PQ16S","assignmentId":"3DY4FPOOA2AF7M2QVPBMUHGNT2BVR3","hitId":"391FPZIE4C80JT1T3SKLV8GBSWQUH7","url":"https://gershmanlab.com/experiments/alicia/teaching/experiment/?hitId=391FPZIE4C80JT1T3SKLV8GBSWQUH7&workerId=A1PAY3X73PQ16S&assignmentId=3DY4FPOOA2AF7M2QVPBMUHGNT2BVR3&a=OFYD5&tp_a=OFYD5&b=3DY4FPOOA2AF7M2QVPBMUHGNT2BVR3&tp_b=3DY4FPOOA2AF7M2QVPBMUHGNT2BVR3&c=368485&tp_c=368485","heads":3,"tails":7,"studentIndex":1,"studentTrueHypers":{"a":9,"b":1},"studentGuess":"0.60","delta":0.3,"totalExamples":10,"bonusSoFar":0.5},{"rt":7411,"response":{"heads":"3","tails":"7"},"type":"response","condition":"seqFeedback","trueTheta":0.3,"classrooms":["A","B"],"studentTrueClassroom":"B","exampleSet":"second","trial_type":"survey-html-form","trial_index":20,"time_elapsed":376727,"internal_node_id":"0.0-19.0-0.0","params":{"nStudents":8,"maxExamples":70,"completionMinutes":15,"basePay":3,"maxBonus":6,"perTrialBonus":0.7,"perTrialBonusThreshold":0.08,"exampleCost":0.01},"classroomParams":{"A":{"a":1,"b":9},"B":{"a":9,"b":1}},"conditions":["nonSeqFull","nonSeqPartial","seqNoFeedback","seqFeedback"],"classroomPairings":[["A","B"]],"coinWeights":[0.3,0.7],"subjectId":"A1PAY3X73PQ16S","assignmentId":"3DY4FPOOA2AF7M2QVPBMUHGNT2BVR3","hitId":"391FPZIE4C80JT1T3SKLV8GBSWQUH7","url":"https://gershmanlab.com/experiments/alicia/teaching/experiment/?hitId=391FPZIE4C80JT1T3SKLV8GBSWQUH7&workerId=A1PAY3X73PQ16S&assignmentId=3DY4FPOOA2AF7M2QVPBMUHGNT2BVR3&a=OFYD5&tp_a=OFYD5&b=3DY4FPOOA2AF7M2QVPBMUHGNT2BVR3&tp_b=3DY4FPOOA2AF7M2QVPBMUHGNT2BVR3&c=368485&tp_c=368485","firstResponseHeads":3,"firstResponseTails":7,"secondResponseHeads":3,"secondResponseTails":7,"totalHeads":6,"totalTails":14,"studentIndex":1,"studentTrueHypers":{"a":9,"b":1},"studentGuess":"0.50","delta":0.2,"bonus":0,"bonusSoFar":0.5,"totalExamples":20},{"rt":7015,"response":{"heads":"3","tails":"7"},"type":"response","condition":"seqNoFeedback","trueTheta":0.3,"classrooms":["A","B"],"studentTrueClassroom":"B","exampleSet":"first","trial_type":"survey-html-form","trial_index":26,"time_elapsed":403487,"internal_node_id":"0.0-25.0-0.0","params":{"nStudents":8,"maxExamples":70,"completionMinutes":15,"basePay":3,"maxBonus":6,"perTrialBonus":0.7,"perTrialBonusThreshold":0.08,"exampleCost":0.01},"classroomParams":{"A":{"a":1,"b":9},"B":{"a":9,"b":1}},"conditions":["nonSeqFull","nonSeqPartial","seqNoFeedback","seqFeedback"],"classroomPairings":[["A","B"]],"coinWeights":[0.3,0.7],"subjectId":"A1PAY3X73PQ16S","assignmentId":"3DY4FPOOA2AF7M2QVPBMUHGNT2BVR3","hitId":"391FPZIE4C80JT1T3SKLV8GBSWQUH7","url":"https://gershmanlab.com/experiments/alicia/teaching/experiment/?hitId=391FPZIE4C80JT1T3SKLV8GBSWQUH7&workerId=A1PAY3X73PQ16S&assignmentId=3DY4FPOOA2AF7M2QVPBMUHGNT2BVR3&a=OFYD5&tp_a=OFYD5&b=3DY4FPOOA2AF7M2QVPBMUHGNT2BVR3&tp_b=3DY4FPOOA2AF7M2QVPBMUHGNT2BVR3&c=368485&tp_c=368485","heads":3,"tails":7,"studentIndex":2,"studentTrueHypers":{"a":9,"b":1},"studentGuess":"0.60","delta":0.3,"totalExamples":10,"bonusSoFar":0.5},{"rt":15935,"response":{"heads":"3","tails":"7"},"type":"response","condition":"seqNoFeedback","trueTheta":0.3,"classrooms":["A","B"],"studentTrueClassroom":"B","exampleSet":"second","trial_type":"survey-html-form","trial_index":29,"time_elapsed":424679,"internal_node_id":"0.0-28.0-0.0","params":{"nStudents":8,"maxExamples":70,"completionMinutes":15,"basePay":3,"maxBonus":6,"perTrialBonus":0.7,"perTrialBonusThreshold":0.08,"exampleCost":0.01},"classroomParams":{"A":{"a":1,"b":9},"B":{"a":9,"b":1}},"conditions":["nonSeqFull","nonSeqPartial","seqNoFeedback","seqFeedback"],"classroomPairings":[["A","B"]],"coinWeights":[0.3,0.7],"subjectId":"A1PAY3X73PQ16S","assignmentId":"3DY4FPOOA2AF7M2QVPBMUHGNT2BVR3","hitId":"391FPZIE4C80JT1T3SKLV8GBSWQUH7","url":"https://gershmanlab.com/experiments/alicia/teaching/experiment/?hitId=391FPZIE4C80JT1T3SKLV8GBSWQUH7&workerId=A1PAY3X73PQ16S&assignmentId=3DY4FPOOA2AF7M2QVPBMUHGNT2BVR3&a=OFYD5&tp_a=OFYD5&b=3DY4FPOOA2AF7M2QVPBMUHGNT2BVR3&tp_b=3DY4FPOOA2AF7M2QVPBMUHGNT2BVR3&c=368485&tp_c=368485","firstResponseHeads":3,"firstResponseTails":7,"secondResponseHeads":3,"secondResponseTails":7,"totalHeads":6,"totalTails":14,"studentIndex":2,"studentTrueHypers":{"a":9,"b":1},"studentGuess":"0.50","delta":0.2,"bonus":0,"bonusSoFar":0.5,"totalExamples":20},{"rt":9149,"response":{"heads":"7","tails":"3"},"type":"response","condition":"nonSeqPartial","trueTheta":0.7,"classrooms":["A","B"],"studentTrueClassroom":"B","exampleSet":"first","trial_type":"survey-html-form","trial_index":35,"time_elapsed":459140,"internal_node_id":"0.0-34.0-0.0","params":{"nStudents":8,"maxExamples":70,"completionMinutes":15,"basePay":3,"maxBonus":6,"perTrialBonus":0.7,"perTrialBonusThreshold":0.08,"exampleCost":0.01},"classroomParams":{"A":{"a":1,"b":9},"B":{"a":9,"b":1}},"conditions":["nonSeqFull","nonSeqPartial","seqNoFeedback","seqFeedback"],"classroomPairings":[["A","B"]],"coinWeights":[0.3,0.7],"subjectId":"A1PAY3X73PQ16S","assignmentId":"3DY4FPOOA2AF7M2QVPBMUHGNT2BVR3","hitId":"391FPZIE4C80JT1T3SKLV8GBSWQUH7","url":"https://gershmanlab.com/experiments/alicia/teaching/experiment/?hitId=391FPZIE4C80JT1T3SKLV8GBSWQUH7&workerId=A1PAY3X73PQ16S&assignmentId=3DY4FPOOA2AF7M2QVPBMUHGNT2BVR3&a=OFYD5&tp_a=OFYD5&b=3DY4FPOOA2AF7M2QVPBMUHGNT2BVR3&tp_b=3DY4FPOOA2AF7M2QVPBMUHGNT2BVR3&c=368485&tp_c=368485","heads":7,"tails":3,"studentIndex":3,"studentTrueHypers":{"a":9,"b":1},"studentGuess":"0.80","delta":0.10000000000000009,"totalExamples":10,"bonus":0,"bonusSoFar":0.5},{"rt":11021,"response":{"heads":"3","tails":"7"},"type":"response","condition":"nonSeqPartial","trueTheta":0.3,"classrooms":["A","B"],"studentTrueClassroom":"A","exampleSet":"first","trial_type":"survey-html-form","trial_index":41,"time_elapsed":487358,"internal_node_id":"0.0-40.0-0.0","params":{"nStudents":8,"maxExamples":70,"completionMinutes":15,"basePay":3,"maxBonus":6,"perTrialBonus":0.7,"perTrialBonusThreshold":0.08,"exampleCost":0.01},"classroomParams":{"A":{"a":1,"b":9},"B":{"a":9,"b":1}},"conditions":["nonSeqFull","nonSeqPartial","seqNoFeedback","seqFeedback"],"classroomPairings":[["A","B"]],"coinWeights":[0.3,0.7],"subjectId":"A1PAY3X73PQ16S","assignmentId":"3DY4FPOOA2AF7M2QVPBMUHGNT2BVR3","hitId":"391FPZIE4C80JT1T3SKLV8GBSWQUH7","url":"https://gershmanlab.com/experiments/alicia/teaching/experiment/?hitId=391FPZIE4C80JT1T3SKLV8GBSWQUH7&workerId=A1PAY3X73PQ16S&assignmentId=3DY4FPOOA2AF7M2QVPBMUHGNT2BVR3&a=OFYD5&tp_a=OFYD5&b=3DY4FPOOA2AF7M2QVPBMUHGNT2BVR3&tp_b=3DY4FPOOA2AF7M2QVPBMUHGNT2BVR3&c=368485&tp_c=368485","heads":3,"tails":7,"studentIndex":4,"studentTrueHypers":{"a":1,"b":9},"studentGuess":"0.20","delta":0.09999999999999998,"totalExamples":10,"bonus":0,"bonusSoFar":0.5},{"rt":9543,"response":{"heads":"9","tails":"1"},"type":"response","condition":"seqFeedback","trueTheta":0.7,"classrooms":["A","B"],"studentTrueClassroom":"A","exampleSet":"first","trial_type":"survey-html-form","trial_index":47,"time_elapsed":515086,"internal_node_id":"0.0-46.0-0.0","params":{"nStudents":8,"maxExamples":70,"completionMinutes":15,"basePay":3,"maxBonus":6,"perTrialBonus":0.7,"perTrialBonusThreshold":0.08,"exampleCost":0.01},"classroomParams":{"A":{"a":1,"b":9},"B":{"a":9,"b":1}},"conditions":["nonSeqFull","nonSeqPartial","seqNoFeedback","seqFeedback"],"classroomPairings":[["A","B"]],"coinWeights":[0.3,0.7],"subjectId":"A1PAY3X73PQ16S","assignmentId":"3DY4FPOOA2AF7M2QVPBMUHGNT2BVR3","hitId":"391FPZIE4C80JT1T3SKLV8GBSWQUH7","url":"https://gershmanlab.com/experiments/alicia/teaching/experiment/?hitId=391FPZIE4C80JT1T3SKLV8GBSWQUH7&workerId=A1PAY3X73PQ16S&assignmentId=3DY4FPOOA2AF7M2QVPBMUHGNT2BVR3&a=OFYD5&tp_a=OFYD5&b=3DY4FPOOA2AF7M2QVPBMUHGNT2BVR3&tp_b=3DY4FPOOA2AF7M2QVPBMUHGNT2BVR3&c=368485&tp_c=368485","heads":9,"tails":1,"studentIndex":5,"studentTrueHypers":{"a":1,"b":9},"studentGuess":"0.50","delta":0.19999999999999996,"totalExamples":10,"bonusSoFar":0.5},{"rt":14399,"response":{"heads":"9","tails":"1"},"type":"response","condition":"seqFeedback","trueTheta":0.7,"classrooms":["A","B"],"studentTrueClassroom":"A","exampleSet":"second","trial_type":"survey-html-form","trial_index":51,"time_elapsed":541030,"internal_node_id":"0.0-50.0-0.0","params":{"nStudents":8,"maxExamples":70,"completionMinutes":15,"basePay":3,"maxBonus":6,"perTrialBonus":0.7,"perTrialBonusThreshold":0.08,"exampleCost":0.01},"classroomParams":{"A":{"a":1,"b":9},"B":{"a":9,"b":1}},"conditions":["nonSeqFull","nonSeqPartial","seqNoFeedback","seqFeedback"],"classroomPairings":[["A","B"]],"coinWeights":[0.3,0.7],"subjectId":"A1PAY3X73PQ16S","assignmentId":"3DY4FPOOA2AF7M2QVPBMUHGNT2BVR3","hitId":"391FPZIE4C80JT1T3SKLV8GBSWQUH7","url":"https://gershmanlab.com/experiments/alicia/teaching/experiment/?hitId=391FPZIE4C80JT1T3SKLV8GBSWQUH7&workerId=A1PAY3X73PQ16S&assignmentId=3DY4FPOOA2AF7M2QVPBMUHGNT2BVR3&a=OFYD5&tp_a=OFYD5&b=3DY4FPOOA2AF7M2QVPBMUHGNT2BVR3&tp_b=3DY4FPOOA2AF7M2QVPBMUHGNT2BVR3&c=368485&tp_c=368485","firstResponseHeads":9,"firstResponseTails":1,"secondResponseHeads":9,"secondResponseTails":1,"totalHeads":18,"totalTails":2,"studentIndex":5,"studentTrueHypers":{"a":1,"b":9},"studentGuess":"0.63","delta":0.06999999999999995,"bonus":0.5,"bonusSoFar":1,"totalExamples":20},{"rt":11848,"response":{"heads":"3","tails":"7"},"type":"response","condition":"nonSeqFull","trueTheta":0.3,"classrooms":["A","B"],"studentTrueClassroom":"A","exampleSet":"first","trial_type":"survey-html-form","trial_index":57,"time_elapsed":571038,"internal_node_id":"0.0-56.0-0.0","params":{"nStudents":8,"maxExamples":70,"completionMinutes":15,"basePay":3,"maxBonus":6,"perTrialBonus":0.7,"perTrialBonusThreshold":0.08,"exampleCost":0.01},"classroomParams":{"A":{"a":1,"b":9},"B":{"a":9,"b":1}},"conditions":["nonSeqFull","nonSeqPartial","seqNoFeedback","seqFeedback"],"classroomPairings":[["A","B"]],"coinWeights":[0.3,0.7],"subjectId":"A1PAY3X73PQ16S","assignmentId":"3DY4FPOOA2AF7M2QVPBMUHGNT2BVR3","hitId":"391FPZIE4C80JT1T3SKLV8GBSWQUH7","url":"https://gershmanlab.com/experiments/alicia/teaching/experiment/?hitId=391FPZIE4C80JT1T3SKLV8GBSWQUH7&workerId=A1PAY3X73PQ16S&assignmentId=3DY4FPOOA2AF7M2QVPBMUHGNT2BVR3&a=OFYD5&tp_a=OFYD5&b=3DY4FPOOA2AF7M2QVPBMUHGNT2BVR3&tp_b=3DY4FPOOA2AF7M2QVPBMUHGNT2BVR3&c=368485&tp_c=368485","heads":3,"tails":7,"studentIndex":6,"studentTrueHypers":{"a":1,"b":9},"studentGuess":"0.20","delta":0.09999999999999998,"totalExamples":10,"bonus":0,"bonusSoFar":1},{"rt":12047,"response":{"heads":"10","tails":"1"},"type":"response","condition":"nonSeqFull","trueTheta":0.7,"classrooms":["A","B"],"studentTrueClassroom":"A","exampleSet":"first","trial_type":"survey-html-form","trial_index":63,"time_elapsed":598574,"internal_node_id":"0.0-62.0-0.0","params":{"nStudents":8,"maxExamples":70,"completionMinutes":15,"basePay":3,"maxBonus":6,"perTrialBonus":0.7,"perTrialBonusThreshold":0.08,"exampleCost":0.01},"classroomParams":{"A":{"a":1,"b":9},"B":{"a":9,"b":1}},"conditions":["nonSeqFull","nonSeqPartial","seqNoFeedback","seqFeedback"],"classroomPairings":[["A","B"]],"coinWeights":[0.3,0.7],"subjectId":"A1PAY3X73PQ16S","assignmentId":"3DY4FPOOA2AF7M2QVPBMUHGNT2BVR3","hitId":"391FPZIE4C80JT1T3SKLV8GBSWQUH7","url":"https://gershmanlab.com/experiments/alicia/teaching/experiment/?hitId=391FPZIE4C80JT1T3SKLV8GBSWQUH7&workerId=A1PAY3X73PQ16S&assignmentId=3DY4FPOOA2AF7M2QVPBMUHGNT2BVR3&a=OFYD5&tp_a=OFYD5&b=3DY4FPOOA2AF7M2QVPBMUHGNT2BVR3&tp_b=3DY4FPOOA2AF7M2QVPBMUHGNT2BVR3&c=368485&tp_c=368485","heads":10,"tails":1,"studentIndex":7,"studentTrueHypers":{"a":1,"b":9},"studentGuess":"0.52","delta":0.17999999999999994,"totalExamples":11,"bonus":0,"bonusSoFar":1},{"rt":26546,"response":{"gender":"female","age":"54","understood":"yes","strategy":"Signaling the answer, then compensating for experience","comments":"none"},"type":"response","trial_type":"survey-html-form","trial_index":67,"time_elapsed":634765,"internal_node_id":"0.0-67.0","params":{"nStudents":8,"maxExamples":70,"completionMinutes":15,"basePay":3,"maxBonus":6,"perTrialBonus":0.7,"perTrialBonusThreshold":0.08,"exampleCost":0.01},"classroomParams":{"A":{"a":1,"b":9},"B":{"a":9,"b":1}},"conditions":["nonSeqFull","nonSeqPartial","seqNoFeedback","seqFeedback"],"classroomPairings":[["A","B"]],"coinWeights":[0.3,0.7],"subjectId":"A1PAY3X73PQ16S","assignmentId":"3DY4FPOOA2AF7M2QVPBMUHGNT2BVR3","hitId":"391FPZIE4C80JT1T3SKLV8GBSWQUH7","url":"https://gershmanlab.com/experiments/alicia/teaching/experiment/?hitId=391FPZIE4C80JT1T3SKLV8GBSWQUH7&workerId=A1PAY3X73PQ16S&assignmentId=3DY4FPOOA2AF7M2QVPBMUHGNT2BVR3&a=OFYD5&tp_a=OFYD5&b=3DY4FPOOA2AF7M2QVPBMUHGNT2BVR3&tp_b=3DY4FPOOA2AF7M2QVPBMUHGNT2BVR3&c=368485&tp_c=368485","totalBonus":1}]