[{"rt":41326,"response":{"heads":"3","tails":"1"},"type":"response","condition":"nonSeqFull","trueTheta":0.7,"classrooms":["A","B"],"studentTrueClassroom":"A","exampleSet":"first","trial_type":"survey-html-form","trial_index":7,"time_elapsed":357182,"internal_node_id":"0.0-6.0-0.0","params":{"nStudents":8,"maxExamples":70,"completionMinutes":15,"basePay":3,"maxBonus":6,"perTrialBonus":0.7,"perTrialBonusThreshold":0.08,"exampleCost":0.01},"classroomParams":{"A":{"a":1,"b":9},"B":{"a":9,"b":1}},"conditions":["nonSeqFull","nonSeqPartial","seqNoFeedback","seqFeedback"],"classroomPairings":[["A","B"]],"coinWeights":[0.3,0.7],"subjectId":"A1TARNH07A75CG","assignmentId":"3DUZQ9U6SNAR8123AEBRKRLJF4USVO","hitId":"33KGGVH24U3HWMAA68SNNSZ85PBX13","url":"https://gershmanlab.com/experiments/alicia/teaching/experiment/?hitId=33KGGVH24U3HWMAA68SNNSZ85PBX13&workerId=A1TARNH07A75CG&assignmentId=3DUZQ9U6SNAR8123AEBRKRLJF4USVO&a=6QUD5&tp_a=6QUD5&b=3DUZQ9U6SNAR8123AEBRKRLJF4USVO&tp_b=3DUZQ9U6SNAR8123AEBRKRLJF4USVO&c=368485&tp_c=368485","heads":3,"tails":1,"studentIndex":0,"studentTrueHypers":{"a":1,"b":9},"studentGuess":"0.29","delta":0.41,"totalExamples":4,"bonus":0,"bonusSoFar":0},{"rt":8919,"response":{"heads":"3","tails":"7"},"type":"response","condition":"nonSeqFull","trueTheta":0.3,"classrooms":["A","B"],"studentTrueClassroom":"B","exampleSet":"first","trial_type":"survey-html-form","trial_index":13,"time_elapsed":408070,"internal_node_id":"0.0-12.0-0.0","params":{"nStudents":8,"maxExamples":70,"completionMinutes":15,"basePay":3,"maxBonus":6,"perTrialBonus":0.7,"perTrialBonusThreshold":0.08,"exampleCost":0.01},"classroomParams":{"A":{"a":1,"b":9},"B":{"a":9,"b":1}},"conditions":["nonSeqFull","nonSeqPartial","seqNoFeedback","seqFeedback"],"classroomPairings":[["A","B"]],"coinWeights":[0.3,0.7],"subjectId":"A1TARNH07A75CG","assignmentId":"3DUZQ9U6SNAR8123AEBRKRLJF4USVO","hitId":"33KGGVH24U3HWMAA68SNNSZ85PBX13","url":"https://gershmanlab.com/experiments/alicia/teaching/experiment/?hitId=33KGGVH24U3HWMAA68SNNSZ85PBX13&workerId=A1TARNH07A75CG&assignmentId=3DUZQ9U6SNAR8123AEBRKRLJF4USVO&a=6QUD5&tp_a=6QUD5&b=3DUZQ9U6SNAR8123AEBRKRLJF4USVO&tp_b=3DUZQ9U6SNAR8123AEBRKRLJF4USVO&c=368485&tp_c=368485","heads":3,"tails":7,"studentIndex":1,"studentTrueHypers":{"a":9,"b":1},"studentGuess":"0.60","delta":0.3,"totalExamples":10,"bonus":0,"bonusSoFar":0},{"rt":19412,"response":{"heads":"70","tails":"30"},"type":"response","condition":"seqNoFeedback","trueTheta":0.7,"classrooms":["A","B"],"studentTrueClassroom":"B","exampleSet":"first","trial_type":"survey-html-form","trial_index":19,"time_elapsed":463524,"internal_node_id":"0.0-18.0-0.0","params":{"nStudents":8,"maxExamples":70,"completionMinutes":15,"basePay":3,"maxBonus":6,"perTrialBonus":0.7,"perTrialBonusThreshold":0.08,"exampleCost":0.01},"classroomParams":{"A":{"a":1,"b":9},"B":{"a":9,"b":1}},"conditions":["nonSeqFull","nonSeqPartial","seqNoFeedback","seqFeedback"],"classroomPairings":[["A","B"]],"coinWeights":[0.3,0.7],"subjectId":"A1TARNH07A75CG","assignmentId":"3DUZQ9U6SNAR8123AEBRKRLJF4USVO","hitId":"33KGGVH24U3HWMAA68SNNSZ85PBX13","url":"https://gershmanlab.com/experiments/alicia/teaching/experiment/?hitId=33KGGVH24U3HWMAA68SNNSZ85PBX13&workerId=A1TARNH07A75CG&assignmentId=3DUZQ9U6SNAR8123AEBRKRLJF4USVO&a=6QUD5&tp_a=6QUD5&b=3DUZQ9U6SNAR8123AEBRKRLJF4USVO&tp_b=3DUZQ9U6SNAR8123AEBRKRLJF4USVO&c=368485&tp_c=368485","heads":70,"tails":30,"studentIndex":2,"studentTrueHypers":{"a":9,"b":1},"studentGuess":"0.72","delta":0.020000000000000018,"totalExamples":100,"bonusSoFar":0},{"rt":34598,"response":{"heads":"70","tails":"30"},"type":"response","condition":"seqNoFeedback","trueTheta":0.7,"classrooms":["A","B"],"studentTrueClassroom":"B","exampleSet":"first","trial_type":"survey-html-form","trial_index":20,"time_elapsed":498126,"internal_node_id":"0.0-18.1-0.1","params":{"nStudents":8,"maxExamples":70,"completionMinutes":15,"basePay":3,"maxBonus":6,"perTrialBonus":0.7,"perTrialBonusThreshold":0.08,"exampleCost":0.01},"classroomParams":{"A":{"a":1,"b":9},"B":{"a":9,"b":1}},"conditions":["nonSeqFull","nonSeqPartial","seqNoFeedback","seqFeedback"],"classroomPairings":[["A","B"]],"coinWeights":[0.3,0.7],"subjectId":"A1TARNH07A75CG","assignmentId":"3DUZQ9U6SNAR8123AEBRKRLJF4USVO","hitId":"33KGGVH24U3HWMAA68SNNSZ85PBX13","url":"https://gershmanlab.com/experiments/alicia/teaching/experiment/?hitId=33KGGVH24U3HWMAA68SNNSZ85PBX13&workerId=A1TARNH07A75CG&assignmentId=3DUZQ9U6SNAR8123AEBRKRLJF4USVO&a=6QUD5&tp_a=6QUD5&b=3DUZQ9U6SNAR8123AEBRKRLJF4USVO&tp_b=3DUZQ9U6SNAR8123AEBRKRLJF4USVO&c=368485&tp_c=368485","heads":70,"tails":30,"studentIndex":2,"studentTrueHypers":{"a":9,"b":1},"studentGuess":"0.72","delta":0.020000000000000018,"totalExamples":100,"bonusSoFar":0},{"rt":13898,"response":{"heads":"20","tails":"8"},"type":"response","condition":"seqNoFeedback","trueTheta":0.7,"classrooms":["A","B"],"studentTrueClassroom":"B","exampleSet":"first","trial_type":"survey-html-form","trial_index":21,"time_elapsed":512030,"internal_node_id":"0.0-18.2-0.2","params":{"nStudents":8,"maxExamples":70,"completionMinutes":15,"basePay":3,"maxBonus":6,"perTrialBonus":0.7,"perTrialBonusThreshold":0.08,"exampleCost":0.01},"classroomParams":{"A":{"a":1,"b":9},"B":{"a":9,"b":1}},"conditions":["nonSeqFull","nonSeqPartial","seqNoFeedback","seqFeedback"],"classroomPairings":[["A","B"]],"coinWeights":[0.3,0.7],"subjectId":"A1TARNH07A75CG","assignmentId":"3DUZQ9U6SNAR8123AEBRKRLJF4USVO","hitId":"33KGGVH24U3HWMAA68SNNSZ85PBX13","url":"https://gershmanlab.com/experiments/alicia/teaching/experiment/?hitId=33KGGVH24U3HWMAA68SNNSZ85PBX13&workerId=A1TARNH07A75CG&assignmentId=3DUZQ9U6SNAR8123AEBRKRLJF4USVO&a=6QUD5&tp_a=6QUD5&b=3DUZQ9U6SNAR8123AEBRKRLJF4USVO&tp_b=3DUZQ9U6SNAR8123AEBRKRLJF4USVO&c=368485&tp_c=368485","heads":20,"tails":8,"studentIndex":2,"studentTrueHypers":{"a":9,"b":1},"studentGuess":"0.76","delta":0.06000000000000005,"totalExamples":28,"bonusSoFar":0},{"rt":20247,"response":{"heads":"20","tails":"8"},"type":"response","condition":"seqNoFeedback","trueTheta":0.7,"classrooms":["A","B"],"studentTrueClassroom":"B","exampleSet":"second","trial_type":"survey-html-form","trial_index":24,"time_elapsed":538542,"internal_node_id":"0.0-21.0-0.0","params":{"nStudents":8,"maxExamples":70,"completionMinutes":15,"basePay":3,"maxBonus":6,"perTrialBonus":0.7,"perTrialBonusThreshold":0.08,"exampleCost":0.01},"classroomParams":{"A":{"a":1,"b":9},"B":{"a":9,"b":1}},"conditions":["nonSeqFull","nonSeqPartial","seqNoFeedback","seqFeedback"],"classroomPairings":[["A","B"]],"coinWeights":[0.3,0.7],"subjectId":"A1TARNH07A75CG","assignmentId":"3DUZQ9U6SNAR8123AEBRKRLJF4USVO","hitId":"33KGGVH24U3HWMAA68SNNSZ85PBX13","url":"https://gershmanlab.com/experiments/alicia/teaching/experiment/?hitId=33KGGVH24U3HWMAA68SNNSZ85PBX13&workerId=A1TARNH07A75CG&assignmentId=3DUZQ9U6SNAR8123AEBRKRLJF4USVO&a=6QUD5&tp_a=6QUD5&b=3DUZQ9U6SNAR8123AEBRKRLJF4USVO&tp_b=3DUZQ9U6SNAR8123AEBRKRLJF4USVO&c=368485&tp_c=368485","firstResponseHeads":70,"firstResponseTails":30,"secondResponseHeads":20,"secondResponseTails":8,"totalHeads":90,"totalTails":38,"studentIndex":2,"studentTrueHypers":{"a":9,"b":1},"studentGuess":"0.72","delta":0.020000000000000018,"bonus":0,"bonusSoFar":0,"totalExamples":128},{"rt":9175,"response":{"heads":"40","tails":"60"},"type":"response","condition":"seqFeedback","trueTheta":0.3,"classrooms":["A","B"],"studentTrueClassroom":"A","exampleSet":"first","trial_type":"survey-html-form","trial_index":30,"time_elapsed":568519,"internal_node_id":"0.0-27.0-0.0","params":{"nStudents":8,"maxExamples":70,"completionMinutes":15,"basePay":3,"maxBonus":6,"perTrialBonus":0.7,"perTrialBonusThreshold":0.08,"exampleCost":0.01},"classroomParams":{"A":{"a":1,"b":9},"B":{"a":9,"b":1}},"conditions":["nonSeqFull","nonSeqPartial","seqNoFeedback","seqFeedback"],"classroomPairings":[["A","B"]],"coinWeights":[0.3,0.7],"subjectId":"A1TARNH07A75CG","assignmentId":"3DUZQ9U6SNAR8123AEBRKRLJF4USVO","hitId":"33KGGVH24U3HWMAA68SNNSZ85PBX13","url":"https://gershmanlab.com/experiments/alicia/teaching/experiment/?hitId=33KGGVH24U3HWMAA68SNNSZ85PBX13&workerId=A1TARNH07A75CG&assignmentId=3DUZQ9U6SNAR8123AEBRKRLJF4USVO&a=6QUD5&tp_a=6QUD5&b=3DUZQ9U6SNAR8123AEBRKRLJF4USVO&tp_b=3DUZQ9U6SNAR8123AEBRKRLJF4USVO&c=368485&tp_c=368485","heads":40,"tails":60,"studentIndex":3,"studentTrueHypers":{"a":1,"b":9},"studentGuess":"0.37","delta":0.07,"totalExamples":100,"bonusSoFar":0},{"rt":7077,"response":{"heads":"40","tails":"60"},"type":"response","condition":"seqFeedback","trueTheta":0.3,"classrooms":["A","B"],"studentTrueClassroom":"A","exampleSet":"first","trial_type":"survey-html-form","trial_index":31,"time_elapsed":575600,"internal_node_id":"0.0-27.1-0.1","params":{"nStudents":8,"maxExamples":70,"completionMinutes":15,"basePay":3,"maxBonus":6,"perTrialBonus":0.7,"perTrialBonusThreshold":0.08,"exampleCost":0.01},"classroomParams":{"A":{"a":1,"b":9},"B":{"a":9,"b":1}},"conditions":["nonSeqFull","nonSeqPartial","seqNoFeedback","seqFeedback"],"classroomPairings":[["A","B"]],"coinWeights":[0.3,0.7],"subjectId":"A1TARNH07A75CG","assignmentId":"3DUZQ9U6SNAR8123AEBRKRLJF4USVO","hitId":"33KGGVH24U3HWMAA68SNNSZ85PBX13","url":"https://gershmanlab.com/experiments/alicia/teaching/experiment/?hitId=33KGGVH24U3HWMAA68SNNSZ85PBX13&workerId=A1TARNH07A75CG&assignmentId=3DUZQ9U6SNAR8123AEBRKRLJF4USVO&a=6QUD5&tp_a=6QUD5&b=3DUZQ9U6SNAR8123AEBRKRLJF4USVO&tp_b=3DUZQ9U6SNAR8123AEBRKRLJF4USVO&c=368485&tp_c=368485","heads":40,"tails":60,"studentIndex":3,"studentTrueHypers":{"a":1,"b":9},"studentGuess":"0.37","delta":0.07,"totalExamples":100,"bonusSoFar":0},{"rt":7461,"response":{"heads":"12","tails":"30"},"type":"response","condition":"seqFeedback","trueTheta":0.3,"classrooms":["A","B"],"studentTrueClassroom":"A","exampleSet":"first","trial_type":"survey-html-form","trial_index":32,"time_elapsed":583063,"internal_node_id":"0.0-27.2-0.2","params":{"nStudents":8,"maxExamples":70,"completionMinutes":15,"basePay":3,"maxBonus":6,"perTrialBonus":0.7,"perTrialBonusThreshold":0.08,"exampleCost":0.01},"classroomParams":{"A":{"a":1,"b":9},"B":{"a":9,"b":1}},"conditions":["nonSeqFull","nonSeqPartial","seqNoFeedback","seqFeedback"],"classroomPairings":[["A","B"]],"coinWeights":[0.3,0.7],"subjectId":"A1TARNH07A75CG","assignmentId":"3DUZQ9U6SNAR8123AEBRKRLJF4USVO","hitId":"33KGGVH24U3HWMAA68SNNSZ85PBX13","url":"https://gershmanlab.com/experiments/alicia/teaching/experiment/?hitId=33KGGVH24U3HWMAA68SNNSZ85PBX13&workerId=A1TARNH07A75CG&assignmentId=3DUZQ9U6SNAR8123AEBRKRLJF4USVO&a=6QUD5&tp_a=6QUD5&b=3DUZQ9U6SNAR8123AEBRKRLJF4USVO&tp_b=3DUZQ9U6SNAR8123AEBRKRLJF4USVO&c=368485&tp_c=368485","heads":12,"tails":30,"studentIndex":3,"studentTrueHypers":{"a":1,"b":9},"studentGuess":"0.25","delta":0.04999999999999999,"totalExamples":42,"bonusSoFar":0},{"rt":10268,"response":{"heads":"30","tails":"50"},"type":"response","condition":"seqFeedback","trueTheta":0.3,"classrooms":["A","B"],"studentTrueClassroom":"A","exampleSet":"second","trial_type":"survey-html-form","trial_index":36,"time_elapsed":605059,"internal_node_id":"0.0-31.0-0.0","params":{"nStudents":8,"maxExamples":70,"completionMinutes":15,"basePay":3,"maxBonus":6,"perTrialBonus":0.7,"perTrialBonusThreshold":0.08,"exampleCost":0.01},"classroomParams":{"A":{"a":1,"b":9},"B":{"a":9,"b":1}},"conditions":["nonSeqFull","nonSeqPartial","seqNoFeedback","seqFeedback"],"classroomPairings":[["A","B"]],"coinWeights":[0.3,0.7],"subjectId":"A1TARNH07A75CG","assignmentId":"3DUZQ9U6SNAR8123AEBRKRLJF4USVO","hitId":"33KGGVH24U3HWMAA68SNNSZ85PBX13","url":"https://gershmanlab.com/experiments/alicia/teaching/experiment/?hitId=33KGGVH24U3HWMAA68SNNSZ85PBX13&workerId=A1TARNH07A75CG&assignmentId=3DUZQ9U6SNAR8123AEBRKRLJF4USVO&a=6QUD5&tp_a=6QUD5&b=3DUZQ9U6SNAR8123AEBRKRLJF4USVO&tp_b=3DUZQ9U6SNAR8123AEBRKRLJF4USVO&c=368485&tp_c=368485","firstResponseHeads":40,"firstResponseTails":60,"secondResponseHeads":30,"secondResponseTails":50,"totalHeads":70,"totalTails":110,"studentIndex":3,"studentTrueHypers":{"a":1,"b":9},"studentGuess":"0.37","delta":0.07,"bonus":0,"bonusSoFar":0,"totalExamples":180},{"rt":5294,"response":{"heads":"15","tails":"40"},"type":"response","condition":"seqFeedback","trueTheta":0.3,"classrooms":["A","B"],"studentTrueClassroom":"A","exampleSet":"second","trial_type":"survey-html-form","trial_index":37,"time_elapsed":610355,"internal_node_id":"0.0-31.1-0.1","params":{"nStudents":8,"maxExamples":70,"completionMinutes":15,"basePay":3,"maxBonus":6,"perTrialBonus":0.7,"perTrialBonusThreshold":0.08,"exampleCost":0.01},"classroomParams":{"A":{"a":1,"b":9},"B":{"a":9,"b":1}},"conditions":["nonSeqFull","nonSeqPartial","seqNoFeedback","seqFeedback"],"classroomPairings":[["A","B"]],"coinWeights":[0.3,0.7],"subjectId":"A1TARNH07A75CG","assignmentId":"3DUZQ9U6SNAR8123AEBRKRLJF4USVO","hitId":"33KGGVH24U3HWMAA68SNNSZ85PBX13","url":"https://gershmanlab.com/experiments/alicia/teaching/experiment/?hitId=33KGGVH24U3HWMAA68SNNSZ85PBX13&workerId=A1TARNH07A75CG&assignmentId=3DUZQ9U6SNAR8123AEBRKRLJF4USVO&a=6QUD5&tp_a=6QUD5&b=3DUZQ9U6SNAR8123AEBRKRLJF4USVO&tp_b=3DUZQ9U6SNAR8123AEBRKRLJF4USVO&c=368485&tp_c=368485","firstResponseHeads":40,"firstResponseTails":60,"secondResponseHeads":15,"secondResponseTails":40,"totalHeads":55,"totalTails":100,"studentIndex":3,"studentTrueHypers":{"a":1,"b":9},"studentGuess":"0.34","delta":0.040000000000000036,"bonus":0,"bonusSoFar":0,"totalExamples":155},{"rt":8814,"response":{"heads":"40","tails":"5"},"type":"response","condition":"seqFeedback","trueTheta":0.7,"classrooms":["A","B"],"studentTrueClassroom":"B","exampleSet":"first","trial_type":"survey-html-form","trial_index":43,"time_elapsed":689471,"internal_node_id":"0.0-37.0-0.0","params":{"nStudents":8,"maxExamples":70,"completionMinutes":15,"basePay":3,"maxBonus":6,"perTrialBonus":0.7,"perTrialBonusThreshold":0.08,"exampleCost":0.01},"classroomParams":{"A":{"a":1,"b":9},"B":{"a":9,"b":1}},"conditions":["nonSeqFull","nonSeqPartial","seqNoFeedback","seqFeedback"],"classroomPairings":[["A","B"]],"coinWeights":[0.3,0.7],"subjectId":"A1TARNH07A75CG","assignmentId":"3DUZQ9U6SNAR8123AEBRKRLJF4USVO","hitId":"33KGGVH24U3HWMAA68SNNSZ85PBX13","url":"https://gershmanlab.com/experiments/alicia/teaching/experiment/?hitId=33KGGVH24U3HWMAA68SNNSZ85PBX13&workerId=A1TARNH07A75CG&assignmentId=3DUZQ9U6SNAR8123AEBRKRLJF4USVO&a=6QUD5&tp_a=6QUD5&b=3DUZQ9U6SNAR8123AEBRKRLJF4USVO&tp_b=3DUZQ9U6SNAR8123AEBRKRLJF4USVO&c=368485&tp_c=368485","heads":40,"tails":5,"studentIndex":4,"studentTrueHypers":{"a":9,"b":1},"studentGuess":"0.89","delta":0.19000000000000006,"totalExamples":45,"bonusSoFar":0},{"rt":18984,"response":{"heads":"50","tails":"5"},"type":"response","condition":"seqFeedback","trueTheta":0.7,"classrooms":["A","B"],"studentTrueClassroom":"B","exampleSet":"second","trial_type":"survey-html-form","trial_index":47,"time_elapsed":716686,"internal_node_id":"0.0-41.0-0.0","params":{"nStudents":8,"maxExamples":70,"completionMinutes":15,"basePay":3,"maxBonus":6,"perTrialBonus":0.7,"perTrialBonusThreshold":0.08,"exampleCost":0.01},"classroomParams":{"A":{"a":1,"b":9},"B":{"a":9,"b":1}},"conditions":["nonSeqFull","nonSeqPartial","seqNoFeedback","seqFeedback"],"classroomPairings":[["A","B"]],"coinWeights":[0.3,0.7],"subjectId":"A1TARNH07A75CG","assignmentId":"3DUZQ9U6SNAR8123AEBRKRLJF4USVO","hitId":"33KGGVH24U3HWMAA68SNNSZ85PBX13","url":"https://gershmanlab.com/experiments/alicia/teaching/experiment/?hitId=33KGGVH24U3HWMAA68SNNSZ85PBX13&workerId=A1TARNH07A75CG&assignmentId=3DUZQ9U6SNAR8123AEBRKRLJF4USVO&a=6QUD5&tp_a=6QUD5&b=3DUZQ9U6SNAR8123AEBRKRLJF4USVO&tp_b=3DUZQ9U6SNAR8123AEBRKRLJF4USVO&c=368485&tp_c=368485","firstResponseHeads":40,"firstResponseTails":5,"secondResponseHeads":50,"secondResponseTails":5,"totalHeads":90,"totalTails":10,"studentIndex":4,"studentTrueHypers":{"a":9,"b":1},"studentGuess":"0.90","delta":0.20000000000000007,"bonus":0,"bonusSoFar":0,"totalExamples":100},{"rt":7534,"response":{"heads":"10","tails":"40"},"type":"response","condition":"nonSeqPartial","trueTheta":0.3,"classrooms":["A","B"],"studentTrueClassroom":"A","exampleSet":"first","trial_type":"survey-html-form","trial_index":53,"time_elapsed":743204,"internal_node_id":"0.0-47.0-0.0","params":{"nStudents":8,"maxExamples":70,"completionMinutes":15,"basePay":3,"maxBonus":6,"perTrialBonus":0.7,"perTrialBonusThreshold":0.08,"exampleCost":0.01},"classroomParams":{"A":{"a":1,"b":9},"B":{"a":9,"b":1}},"conditions":["nonSeqFull","nonSeqPartial","seqNoFeedback","seqFeedback"],"classroomPairings":[["A","B"]],"coinWeights":[0.3,0.7],"subjectId":"A1TARNH07A75CG","assignmentId":"3DUZQ9U6SNAR8123AEBRKRLJF4USVO","hitId":"33KGGVH24U3HWMAA68SNNSZ85PBX13","url":"https://gershmanlab.com/experiments/alicia/teaching/experiment/?hitId=33KGGVH24U3HWMAA68SNNSZ85PBX13&workerId=A1TARNH07A75CG&assignmentId=3DUZQ9U6SNAR8123AEBRKRLJF4USVO&a=6QUD5&tp_a=6QUD5&b=3DUZQ9U6SNAR8123AEBRKRLJF4USVO&tp_b=3DUZQ9U6SNAR8123AEBRKRLJF4USVO&c=368485&tp_c=368485","heads":10,"tails":40,"studentIndex":5,"studentTrueHypers":{"a":1,"b":9},"studentGuess":"0.18","delta":0.12,"totalExamples":50,"bonus":0,"bonusSoFar":0},{"rt":6397,"response":{"heads":"10","tails":"3"},"type":"response","condition":"nonSeqPartial","trueTheta":0.7,"classrooms":["A","B"],"studentTrueClassroom":"A","exampleSet":"first","trial_type":"survey-html-form","trial_index":59,"time_elapsed":760238,"internal_node_id":"0.0-53.0-0.0","params":{"nStudents":8,"maxExamples":70,"completionMinutes":15,"basePay":3,"maxBonus":6,"perTrialBonus":0.7,"perTrialBonusThreshold":0.08,"exampleCost":0.01},"classroomParams":{"A":{"a":1,"b":9},"B":{"a":9,"b":1}},"conditions":["nonSeqFull","nonSeqPartial","seqNoFeedback","seqFeedback"],"classroomPairings":[["A","B"]],"coinWeights":[0.3,0.7],"subjectId":"A1TARNH07A75CG","assignmentId":"3DUZQ9U6SNAR8123AEBRKRLJF4USVO","hitId":"33KGGVH24U3HWMAA68SNNSZ85PBX13","url":"https://gershmanlab.com/experiments/alicia/teaching/experiment/?hitId=33KGGVH24U3HWMAA68SNNSZ85PBX13&workerId=A1TARNH07A75CG&assignmentId=3DUZQ9U6SNAR8123AEBRKRLJF4USVO&a=6QUD5&tp_a=6QUD5&b=3DUZQ9U6SNAR8123AEBRKRLJF4USVO&tp_b=3DUZQ9U6SNAR8123AEBRKRLJF4USVO&c=368485&tp_c=368485","heads":10,"tails":3,"studentIndex":6,"studentTrueHypers":{"a":1,"b":9},"studentGuess":"0.48","delta":0.21999999999999997,"totalExamples":13,"bonus":0,"bonusSoFar":0},{"rt":4942,"response":{"heads":"8","tails":"30"},"type":"response","condition":"seqNoFeedback","trueTheta":0.3,"classrooms":["A","B"],"studentTrueClassroom":"B","exampleSet":"first","trial_type":"survey-html-form","trial_index":65,"time_elapsed":777960,"internal_node_id":"0.0-59.0-0.0","params":{"nStudents":8,"maxExamples":70,"completionMinutes":15,"basePay":3,"maxBonus":6,"perTrialBonus":0.7,"perTrialBonusThreshold":0.08,"exampleCost":0.01},"classroomParams":{"A":{"a":1,"b":9},"B":{"a":9,"b":1}},"conditions":["nonSeqFull","nonSeqPartial","seqNoFeedback","seqFeedback"],"classroomPairings":[["A","B"]],"coinWeights":[0.3,0.7],"subjectId":"A1TARNH07A75CG","assignmentId":"3DUZQ9U6SNAR8123AEBRKRLJF4USVO","hitId":"33KGGVH24U3HWMAA68SNNSZ85PBX13","url":"https://gershmanlab.com/experiments/alicia/teaching/experiment/?hitId=33KGGVH24U3HWMAA68SNNSZ85PBX13&workerId=A1TARNH07A75CG&assignmentId=3DUZQ9U6SNAR8123AEBRKRLJF4USVO&a=6QUD5&tp_a=6QUD5&b=3DUZQ9U6SNAR8123AEBRKRLJF4USVO&tp_b=3DUZQ9U6SNAR8123AEBRKRLJF4USVO&c=368485&tp_c=368485","heads":8,"tails":30,"studentIndex":7,"studentTrueHypers":{"a":9,"b":1},"studentGuess":"0.35","delta":0.04999999999999999,"totalExamples":38,"bonusSoFar":0},{"rt":97407,"response":{"heads":"3","tails":"7"},"type":"response","condition":"seqNoFeedback","trueTheta":0.3,"classrooms":["A","B"],"studentTrueClassroom":"B","exampleSet":"second","trial_type":"survey-html-form","trial_index":68,"time_elapsed":881390,"internal_node_id":"0.0-62.0-0.0","params":{"nStudents":8,"maxExamples":70,"completionMinutes":15,"basePay":3,"maxBonus":6,"perTrialBonus":0.7,"perTrialBonusThreshold":0.08,"exampleCost":0.01},"classroomParams":{"A":{"a":1,"b":9},"B":{"a":9,"b":1}},"conditions":["nonSeqFull","nonSeqPartial","seqNoFeedback","seqFeedback"],"classroomPairings":[["A","B"]],"coinWeights":[0.3,0.7],"subjectId":"A1TARNH07A75CG","assignmentId":"3DUZQ9U6SNAR8123AEBRKRLJF4USVO","hitId":"33KGGVH24U3HWMAA68SNNSZ85PBX13","url":"https://gershmanlab.com/experiments/alicia/teaching/experiment/?hitId=33KGGVH24U3HWMAA68SNNSZ85PBX13&workerId=A1TARNH07A75CG&assignmentId=3DUZQ9U6SNAR8123AEBRKRLJF4USVO&a=6QUD5&tp_a=6QUD5&b=3DUZQ9U6SNAR8123AEBRKRLJF4USVO&tp_b=3DUZQ9U6SNAR8123AEBRKRLJF4USVO&c=368485&tp_c=368485","firstResponseHeads":8,"firstResponseTails":30,"secondResponseHeads":3,"secondResponseTails":7,"totalHeads":11,"totalTails":37,"studentIndex":7,"studentTrueHypers":{"a":9,"b":1},"studentGuess":"0.34","delta":0.040000000000000036,"bonus":0.22,"bonusSoFar":0.22,"totalExamples":48},{"rt":87471,"response":{"gender":"male","age":"31","understood":"yes","strategy":"No particular strategy ","comments":"no"},"type":"response","trial_type":"survey-html-form","trial_index":72,"time_elapsed":979919,"internal_node_id":"0.0-67.0","params":{"nStudents":8,"maxExamples":70,"completionMinutes":15,"basePay":3,"maxBonus":6,"perTrialBonus":0.7,"perTrialBonusThreshold":0.08,"exampleCost":0.01},"classroomParams":{"A":{"a":1,"b":9},"B":{"a":9,"b":1}},"conditions":["nonSeqFull","nonSeqPartial","seqNoFeedback","seqFeedback"],"classroomPairings":[["A","B"]],"coinWeights":[0.3,0.7],"subjectId":"A1TARNH07A75CG","assignmentId":"3DUZQ9U6SNAR8123AEBRKRLJF4USVO","hitId":"33KGGVH24U3HWMAA68SNNSZ85PBX13","url":"https://gershmanlab.com/experiments/alicia/teaching/experiment/?hitId=33KGGVH24U3HWMAA68SNNSZ85PBX13&workerId=A1TARNH07A75CG&assignmentId=3DUZQ9U6SNAR8123AEBRKRLJF4USVO&a=6QUD5&tp_a=6QUD5&b=3DUZQ9U6SNAR8123AEBRKRLJF4USVO&tp_b=3DUZQ9U6SNAR8123AEBRKRLJF4USVO&c=368485&tp_c=368485","totalBonus":0.22}]