[{"rt":19938,"response":{"heads":"1","tails":"3"},"type":"response","condition":"seqFeedback","trueTheta":0.3,"classrooms":["A","B"],"studentTrueClassroom":"A","exampleSet":"first","trial_type":"survey-html-form","trial_index":7,"time_elapsed":329413,"internal_node_id":"0.0-6.0-0.0","params":{"nStudents":8,"maxExamples":70,"completionMinutes":15,"basePay":3,"maxBonus":6,"perTrialBonus":0.7,"perTrialBonusThreshold":0.08,"exampleCost":0.01},"classroomParams":{"A":{"a":1,"b":9},"B":{"a":9,"b":1}},"conditions":["nonSeqFull","nonSeqPartial","seqNoFeedback","seqFeedback"],"classroomPairings":[["A","B"]],"coinWeights":[0.3,0.7],"subjectId":"A1WPGNK8Y65BV3","assignmentId":"3VA45EW49O9WOXUCWJATTY42TBM1OD","hitId":"3GL25Y6843GESBWZZUBL7KNB306MX0","url":"https://gershmanlab.com/experiments/alicia/teaching/experiment/?hitId=3GL25Y6843GESBWZZUBL7KNB306MX0&workerId=A1WPGNK8Y65BV3&assignmentId=3VA45EW49O9WOXUCWJATTY42TBM1OD&a=45AV5&tp_a=45AV5&b=3VA45EW49O9WOXUCWJATTY42TBM1OD&tp_b=3VA45EW49O9WOXUCWJATTY42TBM1OD&c=368485&tp_c=368485","heads":1,"tails":3,"studentIndex":0,"studentTrueHypers":{"a":1,"b":9},"studentGuess":"0.14","delta":0.15999999999999998,"totalExamples":4,"bonusSoFar":0},{"rt":34771,"response":{"heads":"3","tails":"7"},"type":"response","condition":"seqFeedback","trueTheta":0.3,"classrooms":["A","B"],"studentTrueClassroom":"A","exampleSet":"second","trial_type":"survey-html-form","trial_index":11,"time_elapsed":377318,"internal_node_id":"0.0-10.0-0.0","params":{"nStudents":8,"maxExamples":70,"completionMinutes":15,"basePay":3,"maxBonus":6,"perTrialBonus":0.7,"perTrialBonusThreshold":0.08,"exampleCost":0.01},"classroomParams":{"A":{"a":1,"b":9},"B":{"a":9,"b":1}},"conditions":["nonSeqFull","nonSeqPartial","seqNoFeedback","seqFeedback"],"classroomPairings":[["A","B"]],"coinWeights":[0.3,0.7],"subjectId":"A1WPGNK8Y65BV3","assignmentId":"3VA45EW49O9WOXUCWJATTY42TBM1OD","hitId":"3GL25Y6843GESBWZZUBL7KNB306MX0","url":"https://gershmanlab.com/experiments/alicia/teaching/experiment/?hitId=3GL25Y6843GESBWZZUBL7KNB306MX0&workerId=A1WPGNK8Y65BV3&assignmentId=3VA45EW49O9WOXUCWJATTY42TBM1OD&a=45AV5&tp_a=45AV5&b=3VA45EW49O9WOXUCWJATTY42TBM1OD&tp_b=3VA45EW49O9WOXUCWJATTY42TBM1OD&c=368485&tp_c=368485","firstResponseHeads":1,"firstResponseTails":3,"secondResponseHeads":3,"secondResponseTails":7,"totalHeads":4,"totalTails":10,"studentIndex":0,"studentTrueHypers":{"a":1,"b":9},"studentGuess":"0.21","delta":0.09,"bonus":0,"bonusSoFar":0,"totalExamples":14},{"rt":6713,"response":{"heads":"7","tails":"3"},"type":"response","condition":"seqFeedback","trueTheta":0.7,"classrooms":["A","B"],"studentTrueClassroom":"B","exampleSet":"first","trial_type":"survey-html-form","trial_index":17,"time_elapsed":404997,"internal_node_id":"0.0-16.0-0.0","params":{"nStudents":8,"maxExamples":70,"completionMinutes":15,"basePay":3,"maxBonus":6,"perTrialBonus":0.7,"perTrialBonusThreshold":0.08,"exampleCost":0.01},"classroomParams":{"A":{"a":1,"b":9},"B":{"a":9,"b":1}},"conditions":["nonSeqFull","nonSeqPartial","seqNoFeedback","seqFeedback"],"classroomPairings":[["A","B"]],"coinWeights":[0.3,0.7],"subjectId":"A1WPGNK8Y65BV3","assignmentId":"3VA45EW49O9WOXUCWJATTY42TBM1OD","hitId":"3GL25Y6843GESBWZZUBL7KNB306MX0","url":"https://gershmanlab.com/experiments/alicia/teaching/experiment/?hitId=3GL25Y6843GESBWZZUBL7KNB306MX0&workerId=A1WPGNK8Y65BV3&assignmentId=3VA45EW49O9WOXUCWJATTY42TBM1OD&a=45AV5&tp_a=45AV5&b=3VA45EW49O9WOXUCWJATTY42TBM1OD&tp_b=3VA45EW49O9WOXUCWJATTY42TBM1OD&c=368485&tp_c=368485","heads":7,"tails":3,"studentIndex":1,"studentTrueHypers":{"a":9,"b":1},"studentGuess":"0.80","delta":0.10000000000000009,"totalExamples":10,"bonusSoFar":0},{"rt":5732,"response":{"heads":"7","tails":"3"},"type":"response","condition":"seqFeedback","trueTheta":0.7,"classrooms":["A","B"],"studentTrueClassroom":"B","exampleSet":"second","trial_type":"survey-html-form","trial_index":21,"time_elapsed":420149,"internal_node_id":"0.0-20.0-0.0","params":{"nStudents":8,"maxExamples":70,"completionMinutes":15,"basePay":3,"maxBonus":6,"perTrialBonus":0.7,"perTrialBonusThreshold":0.08,"exampleCost":0.01},"classroomParams":{"A":{"a":1,"b":9},"B":{"a":9,"b":1}},"conditions":["nonSeqFull","nonSeqPartial","seqNoFeedback","seqFeedback"],"classroomPairings":[["A","B"]],"coinWeights":[0.3,0.7],"subjectId":"A1WPGNK8Y65BV3","assignmentId":"3VA45EW49O9WOXUCWJATTY42TBM1OD","hitId":"3GL25Y6843GESBWZZUBL7KNB306MX0","url":"https://gershmanlab.com/experiments/alicia/teaching/experiment/?hitId=3GL25Y6843GESBWZZUBL7KNB306MX0&workerId=A1WPGNK8Y65BV3&assignmentId=3VA45EW49O9WOXUCWJATTY42TBM1OD&a=45AV5&tp_a=45AV5&b=3VA45EW49O9WOXUCWJATTY42TBM1OD&tp_b=3VA45EW49O9WOXUCWJATTY42TBM1OD&c=368485&tp_c=368485","firstResponseHeads":7,"firstResponseTails":3,"secondResponseHeads":7,"secondResponseTails":3,"totalHeads":14,"totalTails":6,"studentIndex":1,"studentTrueHypers":{"a":9,"b":1},"studentGuess":"0.77","delta":0.07000000000000006,"bonus":0.5,"bonusSoFar":0.5,"totalExamples":20},{"rt":4883,"response":{"heads":"3","tails":"7"},"type":"response","condition":"seqNoFeedback","trueTheta":0.3,"classrooms":["A","B"],"studentTrueClassroom":"B","exampleSet":"first","trial_type":"survey-html-form","trial_index":27,"time_elapsed":441511,"internal_node_id":"0.0-26.0-0.0","params":{"nStudents":8,"maxExamples":70,"completionMinutes":15,"basePay":3,"maxBonus":6,"perTrialBonus":0.7,"perTrialBonusThreshold":0.08,"exampleCost":0.01},"classroomParams":{"A":{"a":1,"b":9},"B":{"a":9,"b":1}},"conditions":["nonSeqFull","nonSeqPartial","seqNoFeedback","seqFeedback"],"classroomPairings":[["A","B"]],"coinWeights":[0.3,0.7],"subjectId":"A1WPGNK8Y65BV3","assignmentId":"3VA45EW49O9WOXUCWJATTY42TBM1OD","hitId":"3GL25Y6843GESBWZZUBL7KNB306MX0","url":"https://gershmanlab.com/experiments/alicia/teaching/experiment/?hitId=3GL25Y6843GESBWZZUBL7KNB306MX0&workerId=A1WPGNK8Y65BV3&assignmentId=3VA45EW49O9WOXUCWJATTY42TBM1OD&a=45AV5&tp_a=45AV5&b=3VA45EW49O9WOXUCWJATTY42TBM1OD&tp_b=3VA45EW49O9WOXUCWJATTY42TBM1OD&c=368485&tp_c=368485","heads":3,"tails":7,"studentIndex":2,"studentTrueHypers":{"a":9,"b":1},"studentGuess":"0.60","delta":0.3,"totalExamples":10,"bonusSoFar":0.5},{"rt":8961,"response":{"heads":"3","tails":"7"},"type":"response","condition":"seqNoFeedback","trueTheta":0.3,"classrooms":["A","B"],"studentTrueClassroom":"B","exampleSet":"second","trial_type":"survey-html-form","trial_index":30,"time_elapsed":456988,"internal_node_id":"0.0-29.0-0.0","params":{"nStudents":8,"maxExamples":70,"completionMinutes":15,"basePay":3,"maxBonus":6,"perTrialBonus":0.7,"perTrialBonusThreshold":0.08,"exampleCost":0.01},"classroomParams":{"A":{"a":1,"b":9},"B":{"a":9,"b":1}},"conditions":["nonSeqFull","nonSeqPartial","seqNoFeedback","seqFeedback"],"classroomPairings":[["A","B"]],"coinWeights":[0.3,0.7],"subjectId":"A1WPGNK8Y65BV3","assignmentId":"3VA45EW49O9WOXUCWJATTY42TBM1OD","hitId":"3GL25Y6843GESBWZZUBL7KNB306MX0","url":"https://gershmanlab.com/experiments/alicia/teaching/experiment/?hitId=3GL25Y6843GESBWZZUBL7KNB306MX0&workerId=A1WPGNK8Y65BV3&assignmentId=3VA45EW49O9WOXUCWJATTY42TBM1OD&a=45AV5&tp_a=45AV5&b=3VA45EW49O9WOXUCWJATTY42TBM1OD&tp_b=3VA45EW49O9WOXUCWJATTY42TBM1OD&c=368485&tp_c=368485","firstResponseHeads":3,"firstResponseTails":7,"secondResponseHeads":3,"secondResponseTails":7,"totalHeads":6,"totalTails":14,"studentIndex":2,"studentTrueHypers":{"a":9,"b":1},"studentGuess":"0.50","delta":0.2,"bonus":0,"bonusSoFar":0.5,"totalExamples":20},{"rt":4360,"response":{"heads":"7","tails":"3"},"type":"response","condition":"nonSeqPartial","trueTheta":0.7,"classrooms":["A","B"],"studentTrueClassroom":"B","exampleSet":"first","trial_type":"survey-html-form","trial_index":36,"time_elapsed":500877,"internal_node_id":"0.0-35.0-0.0","params":{"nStudents":8,"maxExamples":70,"completionMinutes":15,"basePay":3,"maxBonus":6,"perTrialBonus":0.7,"perTrialBonusThreshold":0.08,"exampleCost":0.01},"classroomParams":{"A":{"a":1,"b":9},"B":{"a":9,"b":1}},"conditions":["nonSeqFull","nonSeqPartial","seqNoFeedback","seqFeedback"],"classroomPairings":[["A","B"]],"coinWeights":[0.3,0.7],"subjectId":"A1WPGNK8Y65BV3","assignmentId":"3VA45EW49O9WOXUCWJATTY42TBM1OD","hitId":"3GL25Y6843GESBWZZUBL7KNB306MX0","url":"https://gershmanlab.com/experiments/alicia/teaching/experiment/?hitId=3GL25Y6843GESBWZZUBL7KNB306MX0&workerId=A1WPGNK8Y65BV3&assignmentId=3VA45EW49O9WOXUCWJATTY42TBM1OD&a=45AV5&tp_a=45AV5&b=3VA45EW49O9WOXUCWJATTY42TBM1OD&tp_b=3VA45EW49O9WOXUCWJATTY42TBM1OD&c=368485&tp_c=368485","heads":7,"tails":3,"studentIndex":3,"studentTrueHypers":{"a":9,"b":1},"studentGuess":"0.80","delta":0.10000000000000009,"totalExamples":10,"bonus":0,"bonusSoFar":0.5},{"rt":4113,"response":{"heads":"3","tails":"7"},"type":"response","condition":"nonSeqFull","trueTheta":0.3,"classrooms":["A","B"],"studentTrueClassroom":"B","exampleSet":"first","trial_type":"survey-html-form","trial_index":42,"time_elapsed":524003,"internal_node_id":"0.0-41.0-0.0","params":{"nStudents":8,"maxExamples":70,"completionMinutes":15,"basePay":3,"maxBonus":6,"perTrialBonus":0.7,"perTrialBonusThreshold":0.08,"exampleCost":0.01},"classroomParams":{"A":{"a":1,"b":9},"B":{"a":9,"b":1}},"conditions":["nonSeqFull","nonSeqPartial","seqNoFeedback","seqFeedback"],"classroomPairings":[["A","B"]],"coinWeights":[0.3,0.7],"subjectId":"A1WPGNK8Y65BV3","assignmentId":"3VA45EW49O9WOXUCWJATTY42TBM1OD","hitId":"3GL25Y6843GESBWZZUBL7KNB306MX0","url":"https://gershmanlab.com/experiments/alicia/teaching/experiment/?hitId=3GL25Y6843GESBWZZUBL7KNB306MX0&workerId=A1WPGNK8Y65BV3&assignmentId=3VA45EW49O9WOXUCWJATTY42TBM1OD&a=45AV5&tp_a=45AV5&b=3VA45EW49O9WOXUCWJATTY42TBM1OD&tp_b=3VA45EW49O9WOXUCWJATTY42TBM1OD&c=368485&tp_c=368485","heads":3,"tails":7,"studentIndex":4,"studentTrueHypers":{"a":9,"b":1},"studentGuess":"0.60","delta":0.3,"totalExamples":10,"bonus":0,"bonusSoFar":0.5},{"rt":4887,"response":{"heads":"7","tails":"3"},"type":"response","condition":"seqNoFeedback","trueTheta":0.7,"classrooms":["A","B"],"studentTrueClassroom":"B","exampleSet":"first","trial_type":"survey-html-form","trial_index":48,"time_elapsed":545911,"internal_node_id":"0.0-47.0-0.0","params":{"nStudents":8,"maxExamples":70,"completionMinutes":15,"basePay":3,"maxBonus":6,"perTrialBonus":0.7,"perTrialBonusThreshold":0.08,"exampleCost":0.01},"classroomParams":{"A":{"a":1,"b":9},"B":{"a":9,"b":1}},"conditions":["nonSeqFull","nonSeqPartial","seqNoFeedback","seqFeedback"],"classroomPairings":[["A","B"]],"coinWeights":[0.3,0.7],"subjectId":"A1WPGNK8Y65BV3","assignmentId":"3VA45EW49O9WOXUCWJATTY42TBM1OD","hitId":"3GL25Y6843GESBWZZUBL7KNB306MX0","url":"https://gershmanlab.com/experiments/alicia/teaching/experiment/?hitId=3GL25Y6843GESBWZZUBL7KNB306MX0&workerId=A1WPGNK8Y65BV3&assignmentId=3VA45EW49O9WOXUCWJATTY42TBM1OD&a=45AV5&tp_a=45AV5&b=3VA45EW49O9WOXUCWJATTY42TBM1OD&tp_b=3VA45EW49O9WOXUCWJATTY42TBM1OD&c=368485&tp_c=368485","heads":7,"tails":3,"studentIndex":5,"studentTrueHypers":{"a":9,"b":1},"studentGuess":"0.80","delta":0.10000000000000009,"totalExamples":10,"bonusSoFar":0.5},{"rt":20838,"response":{"heads":"5","tails":"1"},"type":"response","condition":"seqNoFeedback","trueTheta":0.7,"classrooms":["A","B"],"studentTrueClassroom":"B","exampleSet":"second","trial_type":"survey-html-form","trial_index":51,"time_elapsed":572013,"internal_node_id":"0.0-50.0-0.0","params":{"nStudents":8,"maxExamples":70,"completionMinutes":15,"basePay":3,"maxBonus":6,"perTrialBonus":0.7,"perTrialBonusThreshold":0.08,"exampleCost":0.01},"classroomParams":{"A":{"a":1,"b":9},"B":{"a":9,"b":1}},"conditions":["nonSeqFull","nonSeqPartial","seqNoFeedback","seqFeedback"],"classroomPairings":[["A","B"]],"coinWeights":[0.3,0.7],"subjectId":"A1WPGNK8Y65BV3","assignmentId":"3VA45EW49O9WOXUCWJATTY42TBM1OD","hitId":"3GL25Y6843GESBWZZUBL7KNB306MX0","url":"https://gershmanlab.com/experiments/alicia/teaching/experiment/?hitId=3GL25Y6843GESBWZZUBL7KNB306MX0&workerId=A1WPGNK8Y65BV3&assignmentId=3VA45EW49O9WOXUCWJATTY42TBM1OD&a=45AV5&tp_a=45AV5&b=3VA45EW49O9WOXUCWJATTY42TBM1OD&tp_b=3VA45EW49O9WOXUCWJATTY42TBM1OD&c=368485&tp_c=368485","firstResponseHeads":7,"firstResponseTails":3,"secondResponseHeads":5,"secondResponseTails":1,"totalHeads":12,"totalTails":4,"studentIndex":5,"studentTrueHypers":{"a":9,"b":1},"studentGuess":"0.81","delta":0.1100000000000001,"bonus":0,"bonusSoFar":0.5,"totalExamples":16},{"rt":4980,"response":{"heads":"3","tails":"7"},"type":"response","condition":"nonSeqPartial","trueTheta":0.3,"classrooms":["A","B"],"studentTrueClassroom":"B","exampleSet":"first","trial_type":"survey-html-form","trial_index":57,"time_elapsed":596932,"internal_node_id":"0.0-56.0-0.0","params":{"nStudents":8,"maxExamples":70,"completionMinutes":15,"basePay":3,"maxBonus":6,"perTrialBonus":0.7,"perTrialBonusThreshold":0.08,"exampleCost":0.01},"classroomParams":{"A":{"a":1,"b":9},"B":{"a":9,"b":1}},"conditions":["nonSeqFull","nonSeqPartial","seqNoFeedback","seqFeedback"],"classroomPairings":[["A","B"]],"coinWeights":[0.3,0.7],"subjectId":"A1WPGNK8Y65BV3","assignmentId":"3VA45EW49O9WOXUCWJATTY42TBM1OD","hitId":"3GL25Y6843GESBWZZUBL7KNB306MX0","url":"https://gershmanlab.com/experiments/alicia/teaching/experiment/?hitId=3GL25Y6843GESBWZZUBL7KNB306MX0&workerId=A1WPGNK8Y65BV3&assignmentId=3VA45EW49O9WOXUCWJATTY42TBM1OD&a=45AV5&tp_a=45AV5&b=3VA45EW49O9WOXUCWJATTY42TBM1OD&tp_b=3VA45EW49O9WOXUCWJATTY42TBM1OD&c=368485&tp_c=368485","heads":3,"tails":7,"studentIndex":6,"studentTrueHypers":{"a":9,"b":1},"studentGuess":"0.60","delta":0.3,"totalExamples":10,"bonus":0,"bonusSoFar":0.5},{"rt":4650,"response":{"heads":"7","tails":"3"},"type":"response","condition":"nonSeqFull","trueTheta":0.7,"classrooms":["A","B"],"studentTrueClassroom":"A","exampleSet":"first","trial_type":"survey-html-form","trial_index":63,"time_elapsed":615618,"internal_node_id":"0.0-62.0-0.0","params":{"nStudents":8,"maxExamples":70,"completionMinutes":15,"basePay":3,"maxBonus":6,"perTrialBonus":0.7,"perTrialBonusThreshold":0.08,"exampleCost":0.01},"classroomParams":{"A":{"a":1,"b":9},"B":{"a":9,"b":1}},"conditions":["nonSeqFull","nonSeqPartial","seqNoFeedback","seqFeedback"],"classroomPairings":[["A","B"]],"coinWeights":[0.3,0.7],"subjectId":"A1WPGNK8Y65BV3","assignmentId":"3VA45EW49O9WOXUCWJATTY42TBM1OD","hitId":"3GL25Y6843GESBWZZUBL7KNB306MX0","url":"https://gershmanlab.com/experiments/alicia/teaching/experiment/?hitId=3GL25Y6843GESBWZZUBL7KNB306MX0&workerId=A1WPGNK8Y65BV3&assignmentId=3VA45EW49O9WOXUCWJATTY42TBM1OD&a=45AV5&tp_a=45AV5&b=3VA45EW49O9WOXUCWJATTY42TBM1OD&tp_b=3VA45EW49O9WOXUCWJATTY42TBM1OD&c=368485&tp_c=368485","heads":7,"tails":3,"studentIndex":7,"studentTrueHypers":{"a":1,"b":9},"studentGuess":"0.40","delta":0.29999999999999993,"totalExamples":10,"bonus":0,"bonusSoFar":0.5},{"rt":30350,"response":{"gender":"female","age":"29","understood":"yes","strategy":"I tried to put the amount and hoped they would choose based on the percentage out of 10","comments":"none!"},"type":"response","trial_type":"survey-html-form","trial_index":67,"time_elapsed":653918,"internal_node_id":"0.0-67.0","params":{"nStudents":8,"maxExamples":70,"completionMinutes":15,"basePay":3,"maxBonus":6,"perTrialBonus":0.7,"perTrialBonusThreshold":0.08,"exampleCost":0.01},"classroomParams":{"A":{"a":1,"b":9},"B":{"a":9,"b":1}},"conditions":["nonSeqFull","nonSeqPartial","seqNoFeedback","seqFeedback"],"classroomPairings":[["A","B"]],"coinWeights":[0.3,0.7],"subjectId":"A1WPGNK8Y65BV3","assignmentId":"3VA45EW49O9WOXUCWJATTY42TBM1OD","hitId":"3GL25Y6843GESBWZZUBL7KNB306MX0","url":"https://gershmanlab.com/experiments/alicia/teaching/experiment/?hitId=3GL25Y6843GESBWZZUBL7KNB306MX0&workerId=A1WPGNK8Y65BV3&assignmentId=3VA45EW49O9WOXUCWJATTY42TBM1OD&a=45AV5&tp_a=45AV5&b=3VA45EW49O9WOXUCWJATTY42TBM1OD&tp_b=3VA45EW49O9WOXUCWJATTY42TBM1OD&c=368485&tp_c=368485","totalBonus":0.5}]