[{"rt":57866,"response":{"heads":"2","tails":"12"},"type":"response","condition":"nonSeqFull","trueTheta":0.3,"classrooms":["A","B"],"studentTrueClassroom":"A","exampleSet":"first","trial_type":"survey-html-form","trial_index":7,"time_elapsed":335970,"internal_node_id":"0.0-6.0-0.0","params":{"nStudents":8,"maxExamples":70,"completionMinutes":15,"basePay":3,"maxBonus":6,"perTrialBonus":0.7,"perTrialBonusThreshold":0.08,"exampleCost":0.01},"classroomParams":{"A":{"a":1,"b":9},"B":{"a":9,"b":1}},"conditions":["nonSeqFull","nonSeqPartial","seqNoFeedback","seqFeedback"],"classroomPairings":[["A","B"]],"coinWeights":[0.3,0.7],"subjectId":"A1Y25W1Y7KDE5","assignmentId":"3GNCZX450J9A3LJD72G1TZ2V7ANAPQ","hitId":"391FPZIE4C80JT1T3SKLV8GBSWQUH7","url":"https://gershmanlab.com/experiments/alicia/teaching/experiment/?hitId=391FPZIE4C80JT1T3SKLV8GBSWQUH7&workerId=A1Y25W1Y7KDE5&assignmentId=3GNCZX450J9A3LJD72G1TZ2V7ANAPQ&a=5ZNG5&tp_a=5ZNG5&b=3GNCZX450J9A3LJD72G1TZ2V7ANAPQ&tp_b=3GNCZX450J9A3LJD72G1TZ2V7ANAPQ&c=368485&tp_c=368485","heads":2,"tails":12,"studentIndex":0,"studentTrueHypers":{"a":1,"b":9},"studentGuess":"0.13","delta":0.16999999999999998,"totalExamples":14,"bonus":0,"bonusSoFar":0},{"rt":33382,"response":{"heads":"3","tails":"7"},"type":"response","condition":"nonSeqPartial","trueTheta":0.3,"classrooms":["A","B"],"studentTrueClassroom":"A","exampleSet":"first","trial_type":"survey-html-form","trial_index":13,"time_elapsed":403889,"internal_node_id":"0.0-12.0-0.0","params":{"nStudents":8,"maxExamples":70,"completionMinutes":15,"basePay":3,"maxBonus":6,"perTrialBonus":0.7,"perTrialBonusThreshold":0.08,"exampleCost":0.01},"classroomParams":{"A":{"a":1,"b":9},"B":{"a":9,"b":1}},"conditions":["nonSeqFull","nonSeqPartial","seqNoFeedback","seqFeedback"],"classroomPairings":[["A","B"]],"coinWeights":[0.3,0.7],"subjectId":"A1Y25W1Y7KDE5","assignmentId":"3GNCZX450J9A3LJD72G1TZ2V7ANAPQ","hitId":"391FPZIE4C80JT1T3SKLV8GBSWQUH7","url":"https://gershmanlab.com/experiments/alicia/teaching/experiment/?hitId=391FPZIE4C80JT1T3SKLV8GBSWQUH7&workerId=A1Y25W1Y7KDE5&assignmentId=3GNCZX450J9A3LJD72G1TZ2V7ANAPQ&a=5ZNG5&tp_a=5ZNG5&b=3GNCZX450J9A3LJD72G1TZ2V7ANAPQ&tp_b=3GNCZX450J9A3LJD72G1TZ2V7ANAPQ&c=368485&tp_c=368485","heads":3,"tails":7,"studentIndex":1,"studentTrueHypers":{"a":1,"b":9},"studentGuess":"0.20","delta":0.09999999999999998,"totalExamples":10,"bonus":0,"bonusSoFar":0},{"rt":47853,"response":{"heads":"0","tails":"2"},"type":"response","condition":"nonSeqFull","trueTheta":0.7,"classrooms":["A","B"],"studentTrueClassroom":"B","exampleSet":"first","trial_type":"survey-html-form","trial_index":19,"time_elapsed":473817,"internal_node_id":"0.0-18.0-0.0","params":{"nStudents":8,"maxExamples":70,"completionMinutes":15,"basePay":3,"maxBonus":6,"perTrialBonus":0.7,"perTrialBonusThreshold":0.08,"exampleCost":0.01},"classroomParams":{"A":{"a":1,"b":9},"B":{"a":9,"b":1}},"conditions":["nonSeqFull","nonSeqPartial","seqNoFeedback","seqFeedback"],"classroomPairings":[["A","B"]],"coinWeights":[0.3,0.7],"subjectId":"A1Y25W1Y7KDE5","assignmentId":"3GNCZX450J9A3LJD72G1TZ2V7ANAPQ","hitId":"391FPZIE4C80JT1T3SKLV8GBSWQUH7","url":"https://gershmanlab.com/experiments/alicia/teaching/experiment/?hitId=391FPZIE4C80JT1T3SKLV8GBSWQUH7&workerId=A1Y25W1Y7KDE5&assignmentId=3GNCZX450J9A3LJD72G1TZ2V7ANAPQ&a=5ZNG5&tp_a=5ZNG5&b=3GNCZX450J9A3LJD72G1TZ2V7ANAPQ&tp_b=3GNCZX450J9A3LJD72G1TZ2V7ANAPQ&c=368485&tp_c=368485","heads":0,"tails":2,"studentIndex":2,"studentTrueHypers":{"a":9,"b":1},"studentGuess":"0.75","delta":0.050000000000000044,"totalExamples":2,"bonus":0.68,"bonusSoFar":0.68},{"rt":11797,"response":{"heads":"7","tails":"3"},"type":"response","condition":"seqFeedback","trueTheta":0.7,"classrooms":["A","B"],"studentTrueClassroom":"A","exampleSet":"first","trial_type":"survey-html-form","trial_index":25,"time_elapsed":514232,"internal_node_id":"0.0-24.0-0.0","params":{"nStudents":8,"maxExamples":70,"completionMinutes":15,"basePay":3,"maxBonus":6,"perTrialBonus":0.7,"perTrialBonusThreshold":0.08,"exampleCost":0.01},"classroomParams":{"A":{"a":1,"b":9},"B":{"a":9,"b":1}},"conditions":["nonSeqFull","nonSeqPartial","seqNoFeedback","seqFeedback"],"classroomPairings":[["A","B"]],"coinWeights":[0.3,0.7],"subjectId":"A1Y25W1Y7KDE5","assignmentId":"3GNCZX450J9A3LJD72G1TZ2V7ANAPQ","hitId":"391FPZIE4C80JT1T3SKLV8GBSWQUH7","url":"https://gershmanlab.com/experiments/alicia/teaching/experiment/?hitId=391FPZIE4C80JT1T3SKLV8GBSWQUH7&workerId=A1Y25W1Y7KDE5&assignmentId=3GNCZX450J9A3LJD72G1TZ2V7ANAPQ&a=5ZNG5&tp_a=5ZNG5&b=3GNCZX450J9A3LJD72G1TZ2V7ANAPQ&tp_b=3GNCZX450J9A3LJD72G1TZ2V7ANAPQ&c=368485&tp_c=368485","heads":7,"tails":3,"studentIndex":3,"studentTrueHypers":{"a":1,"b":9},"studentGuess":"0.40","delta":0.29999999999999993,"totalExamples":10,"bonusSoFar":0.68},{"rt":22431,"response":{"heads":"7","tails":"3"},"type":"response","condition":"seqFeedback","trueTheta":0.7,"classrooms":["A","B"],"studentTrueClassroom":"A","exampleSet":"second","trial_type":"survey-html-form","trial_index":29,"time_elapsed":548712,"internal_node_id":"0.0-28.0-0.0","params":{"nStudents":8,"maxExamples":70,"completionMinutes":15,"basePay":3,"maxBonus":6,"perTrialBonus":0.7,"perTrialBonusThreshold":0.08,"exampleCost":0.01},"classroomParams":{"A":{"a":1,"b":9},"B":{"a":9,"b":1}},"conditions":["nonSeqFull","nonSeqPartial","seqNoFeedback","seqFeedback"],"classroomPairings":[["A","B"]],"coinWeights":[0.3,0.7],"subjectId":"A1Y25W1Y7KDE5","assignmentId":"3GNCZX450J9A3LJD72G1TZ2V7ANAPQ","hitId":"391FPZIE4C80JT1T3SKLV8GBSWQUH7","url":"https://gershmanlab.com/experiments/alicia/teaching/experiment/?hitId=391FPZIE4C80JT1T3SKLV8GBSWQUH7&workerId=A1Y25W1Y7KDE5&assignmentId=3GNCZX450J9A3LJD72G1TZ2V7ANAPQ&a=5ZNG5&tp_a=5ZNG5&b=3GNCZX450J9A3LJD72G1TZ2V7ANAPQ&tp_b=3GNCZX450J9A3LJD72G1TZ2V7ANAPQ&c=368485&tp_c=368485","firstResponseHeads":7,"firstResponseTails":3,"secondResponseHeads":7,"secondResponseTails":3,"totalHeads":14,"totalTails":6,"studentIndex":3,"studentTrueHypers":{"a":1,"b":9},"studentGuess":"0.50","delta":0.19999999999999996,"bonus":0,"bonusSoFar":0.68,"totalExamples":20},{"rt":11285,"response":{"heads":"7","tails":"3"},"type":"response","condition":"seqNoFeedback","trueTheta":0.7,"classrooms":["A","B"],"studentTrueClassroom":"B","exampleSet":"first","trial_type":"survey-html-form","trial_index":35,"time_elapsed":584104,"internal_node_id":"0.0-34.0-0.0","params":{"nStudents":8,"maxExamples":70,"completionMinutes":15,"basePay":3,"maxBonus":6,"perTrialBonus":0.7,"perTrialBonusThreshold":0.08,"exampleCost":0.01},"classroomParams":{"A":{"a":1,"b":9},"B":{"a":9,"b":1}},"conditions":["nonSeqFull","nonSeqPartial","seqNoFeedback","seqFeedback"],"classroomPairings":[["A","B"]],"coinWeights":[0.3,0.7],"subjectId":"A1Y25W1Y7KDE5","assignmentId":"3GNCZX450J9A3LJD72G1TZ2V7ANAPQ","hitId":"391FPZIE4C80JT1T3SKLV8GBSWQUH7","url":"https://gershmanlab.com/experiments/alicia/teaching/experiment/?hitId=391FPZIE4C80JT1T3SKLV8GBSWQUH7&workerId=A1Y25W1Y7KDE5&assignmentId=3GNCZX450J9A3LJD72G1TZ2V7ANAPQ&a=5ZNG5&tp_a=5ZNG5&b=3GNCZX450J9A3LJD72G1TZ2V7ANAPQ&tp_b=3GNCZX450J9A3LJD72G1TZ2V7ANAPQ&c=368485&tp_c=368485","heads":7,"tails":3,"studentIndex":4,"studentTrueHypers":{"a":9,"b":1},"studentGuess":"0.80","delta":0.10000000000000009,"totalExamples":10,"bonusSoFar":0.68},{"rt":15355,"response":{"heads":"14","tails":"6"},"type":"response","condition":"seqNoFeedback","trueTheta":0.7,"classrooms":["A","B"],"studentTrueClassroom":"B","exampleSet":"second","trial_type":"survey-html-form","trial_index":38,"time_elapsed":606471,"internal_node_id":"0.0-37.0-0.0","params":{"nStudents":8,"maxExamples":70,"completionMinutes":15,"basePay":3,"maxBonus":6,"perTrialBonus":0.7,"perTrialBonusThreshold":0.08,"exampleCost":0.01},"classroomParams":{"A":{"a":1,"b":9},"B":{"a":9,"b":1}},"conditions":["nonSeqFull","nonSeqPartial","seqNoFeedback","seqFeedback"],"classroomPairings":[["A","B"]],"coinWeights":[0.3,0.7],"subjectId":"A1Y25W1Y7KDE5","assignmentId":"3GNCZX450J9A3LJD72G1TZ2V7ANAPQ","hitId":"391FPZIE4C80JT1T3SKLV8GBSWQUH7","url":"https://gershmanlab.com/experiments/alicia/teaching/experiment/?hitId=391FPZIE4C80JT1T3SKLV8GBSWQUH7&workerId=A1Y25W1Y7KDE5&assignmentId=3GNCZX450J9A3LJD72G1TZ2V7ANAPQ&a=5ZNG5&tp_a=5ZNG5&b=3GNCZX450J9A3LJD72G1TZ2V7ANAPQ&tp_b=3GNCZX450J9A3LJD72G1TZ2V7ANAPQ&c=368485&tp_c=368485","firstResponseHeads":7,"firstResponseTails":3,"secondResponseHeads":14,"secondResponseTails":6,"totalHeads":21,"totalTails":9,"studentIndex":4,"studentTrueHypers":{"a":9,"b":1},"studentGuess":"0.75","delta":0.050000000000000044,"bonus":0.4,"bonusSoFar":1.08,"totalExamples":30},{"rt":11438,"response":{"heads":"14","tails":"6"},"type":"response","condition":"nonSeqPartial","trueTheta":0.7,"classrooms":["A","B"],"studentTrueClassroom":"B","exampleSet":"first","trial_type":"survey-html-form","trial_index":44,"time_elapsed":635744,"internal_node_id":"0.0-43.0-0.0","params":{"nStudents":8,"maxExamples":70,"completionMinutes":15,"basePay":3,"maxBonus":6,"perTrialBonus":0.7,"perTrialBonusThreshold":0.08,"exampleCost":0.01},"classroomParams":{"A":{"a":1,"b":9},"B":{"a":9,"b":1}},"conditions":["nonSeqFull","nonSeqPartial","seqNoFeedback","seqFeedback"],"classroomPairings":[["A","B"]],"coinWeights":[0.3,0.7],"subjectId":"A1Y25W1Y7KDE5","assignmentId":"3GNCZX450J9A3LJD72G1TZ2V7ANAPQ","hitId":"391FPZIE4C80JT1T3SKLV8GBSWQUH7","url":"https://gershmanlab.com/experiments/alicia/teaching/experiment/?hitId=391FPZIE4C80JT1T3SKLV8GBSWQUH7&workerId=A1Y25W1Y7KDE5&assignmentId=3GNCZX450J9A3LJD72G1TZ2V7ANAPQ&a=5ZNG5&tp_a=5ZNG5&b=3GNCZX450J9A3LJD72G1TZ2V7ANAPQ&tp_b=3GNCZX450J9A3LJD72G1TZ2V7ANAPQ&c=368485&tp_c=368485","heads":14,"tails":6,"studentIndex":5,"studentTrueHypers":{"a":9,"b":1},"studentGuess":"0.77","delta":0.07000000000000006,"totalExamples":20,"bonus":0.5,"bonusSoFar":1.58},{"rt":12917,"response":{"heads":"6","tails":"14"},"type":"response","condition":"seqNoFeedback","trueTheta":0.3,"classrooms":["A","B"],"studentTrueClassroom":"A","exampleSet":"first","trial_type":"survey-html-form","trial_index":50,"time_elapsed":668247,"internal_node_id":"0.0-49.0-0.0","params":{"nStudents":8,"maxExamples":70,"completionMinutes":15,"basePay":3,"maxBonus":6,"perTrialBonus":0.7,"perTrialBonusThreshold":0.08,"exampleCost":0.01},"classroomParams":{"A":{"a":1,"b":9},"B":{"a":9,"b":1}},"conditions":["nonSeqFull","nonSeqPartial","seqNoFeedback","seqFeedback"],"classroomPairings":[["A","B"]],"coinWeights":[0.3,0.7],"subjectId":"A1Y25W1Y7KDE5","assignmentId":"3GNCZX450J9A3LJD72G1TZ2V7ANAPQ","hitId":"391FPZIE4C80JT1T3SKLV8GBSWQUH7","url":"https://gershmanlab.com/experiments/alicia/teaching/experiment/?hitId=391FPZIE4C80JT1T3SKLV8GBSWQUH7&workerId=A1Y25W1Y7KDE5&assignmentId=3GNCZX450J9A3LJD72G1TZ2V7ANAPQ&a=5ZNG5&tp_a=5ZNG5&b=3GNCZX450J9A3LJD72G1TZ2V7ANAPQ&tp_b=3GNCZX450J9A3LJD72G1TZ2V7ANAPQ&c=368485&tp_c=368485","heads":6,"tails":14,"studentIndex":6,"studentTrueHypers":{"a":1,"b":9},"studentGuess":"0.23","delta":0.06999999999999998,"totalExamples":20,"bonusSoFar":1.58},{"rt":12122,"response":{"heads":"3","tails":"14"},"type":"response","condition":"seqNoFeedback","trueTheta":0.3,"classrooms":["A","B"],"studentTrueClassroom":"A","exampleSet":"second","trial_type":"survey-html-form","trial_index":53,"time_elapsed":687127,"internal_node_id":"0.0-52.0-0.0","params":{"nStudents":8,"maxExamples":70,"completionMinutes":15,"basePay":3,"maxBonus":6,"perTrialBonus":0.7,"perTrialBonusThreshold":0.08,"exampleCost":0.01},"classroomParams":{"A":{"a":1,"b":9},"B":{"a":9,"b":1}},"conditions":["nonSeqFull","nonSeqPartial","seqNoFeedback","seqFeedback"],"classroomPairings":[["A","B"]],"coinWeights":[0.3,0.7],"subjectId":"A1Y25W1Y7KDE5","assignmentId":"3GNCZX450J9A3LJD72G1TZ2V7ANAPQ","hitId":"391FPZIE4C80JT1T3SKLV8GBSWQUH7","url":"https://gershmanlab.com/experiments/alicia/teaching/experiment/?hitId=391FPZIE4C80JT1T3SKLV8GBSWQUH7&workerId=A1Y25W1Y7KDE5&assignmentId=3GNCZX450J9A3LJD72G1TZ2V7ANAPQ&a=5ZNG5&tp_a=5ZNG5&b=3GNCZX450J9A3LJD72G1TZ2V7ANAPQ&tp_b=3GNCZX450J9A3LJD72G1TZ2V7ANAPQ&c=368485&tp_c=368485","firstResponseHeads":6,"firstResponseTails":14,"secondResponseHeads":3,"secondResponseTails":14,"totalHeads":9,"totalTails":28,"studentIndex":6,"studentTrueHypers":{"a":1,"b":9},"studentGuess":"0.21","delta":0.09,"bonus":0,"bonusSoFar":1.58,"totalExamples":37},{"rt":26789,"response":{"heads":"3","tails":"7"},"type":"response","condition":"seqFeedback","trueTheta":0.3,"classrooms":["A","B"],"studentTrueClassroom":"B","exampleSet":"first","trial_type":"survey-html-form","trial_index":59,"time_elapsed":730654,"internal_node_id":"0.0-58.0-0.0","params":{"nStudents":8,"maxExamples":70,"completionMinutes":15,"basePay":3,"maxBonus":6,"perTrialBonus":0.7,"perTrialBonusThreshold":0.08,"exampleCost":0.01},"classroomParams":{"A":{"a":1,"b":9},"B":{"a":9,"b":1}},"conditions":["nonSeqFull","nonSeqPartial","seqNoFeedback","seqFeedback"],"classroomPairings":[["A","B"]],"coinWeights":[0.3,0.7],"subjectId":"A1Y25W1Y7KDE5","assignmentId":"3GNCZX450J9A3LJD72G1TZ2V7ANAPQ","hitId":"391FPZIE4C80JT1T3SKLV8GBSWQUH7","url":"https://gershmanlab.com/experiments/alicia/teaching/experiment/?hitId=391FPZIE4C80JT1T3SKLV8GBSWQUH7&workerId=A1Y25W1Y7KDE5&assignmentId=3GNCZX450J9A3LJD72G1TZ2V7ANAPQ&a=5ZNG5&tp_a=5ZNG5&b=3GNCZX450J9A3LJD72G1TZ2V7ANAPQ&tp_b=3GNCZX450J9A3LJD72G1TZ2V7ANAPQ&c=368485&tp_c=368485","heads":3,"tails":7,"studentIndex":7,"studentTrueHypers":{"a":9,"b":1},"studentGuess":"0.60","delta":0.3,"totalExamples":10,"bonusSoFar":1.58},{"rt":10471,"response":{"heads":"6","tails":"14"},"type":"response","condition":"seqFeedback","trueTheta":0.3,"classrooms":["A","B"],"studentTrueClassroom":"B","exampleSet":"second","trial_type":"survey-html-form","trial_index":63,"time_elapsed":753095,"internal_node_id":"0.0-62.0-0.0","params":{"nStudents":8,"maxExamples":70,"completionMinutes":15,"basePay":3,"maxBonus":6,"perTrialBonus":0.7,"perTrialBonusThreshold":0.08,"exampleCost":0.01},"classroomParams":{"A":{"a":1,"b":9},"B":{"a":9,"b":1}},"conditions":["nonSeqFull","nonSeqPartial","seqNoFeedback","seqFeedback"],"classroomPairings":[["A","B"]],"coinWeights":[0.3,0.7],"subjectId":"A1Y25W1Y7KDE5","assignmentId":"3GNCZX450J9A3LJD72G1TZ2V7ANAPQ","hitId":"391FPZIE4C80JT1T3SKLV8GBSWQUH7","url":"https://gershmanlab.com/experiments/alicia/teaching/experiment/?hitId=391FPZIE4C80JT1T3SKLV8GBSWQUH7&workerId=A1Y25W1Y7KDE5&assignmentId=3GNCZX450J9A3LJD72G1TZ2V7ANAPQ&a=5ZNG5&tp_a=5ZNG5&b=3GNCZX450J9A3LJD72G1TZ2V7ANAPQ&tp_b=3GNCZX450J9A3LJD72G1TZ2V7ANAPQ&c=368485&tp_c=368485","firstResponseHeads":3,"firstResponseTails":7,"secondResponseHeads":6,"secondResponseTails":14,"totalHeads":9,"totalTails":21,"studentIndex":7,"studentTrueHypers":{"a":9,"b":1},"studentGuess":"0.45","delta":0.15000000000000002,"bonus":0,"bonusSoFar":1.58,"totalExamples":30},{"rt":43124,"response":{"gender":"male","age":"61","understood":"yes","strategy":"I tried to send an accurate aggregate of turtles to the student, but it didn't work.","comments":"n/a"},"type":"response","trial_type":"survey-html-form","trial_index":67,"time_elapsed":808205,"internal_node_id":"0.0-67.0","params":{"nStudents":8,"maxExamples":70,"completionMinutes":15,"basePay":3,"maxBonus":6,"perTrialBonus":0.7,"perTrialBonusThreshold":0.08,"exampleCost":0.01},"classroomParams":{"A":{"a":1,"b":9},"B":{"a":9,"b":1}},"conditions":["nonSeqFull","nonSeqPartial","seqNoFeedback","seqFeedback"],"classroomPairings":[["A","B"]],"coinWeights":[0.3,0.7],"subjectId":"A1Y25W1Y7KDE5","assignmentId":"3GNCZX450J9A3LJD72G1TZ2V7ANAPQ","hitId":"391FPZIE4C80JT1T3SKLV8GBSWQUH7","url":"https://gershmanlab.com/experiments/alicia/teaching/experiment/?hitId=391FPZIE4C80JT1T3SKLV8GBSWQUH7&workerId=A1Y25W1Y7KDE5&assignmentId=3GNCZX450J9A3LJD72G1TZ2V7ANAPQ&a=5ZNG5&tp_a=5ZNG5&b=3GNCZX450J9A3LJD72G1TZ2V7ANAPQ&tp_b=3GNCZX450J9A3LJD72G1TZ2V7ANAPQ&c=368485&tp_c=368485","totalBonus":1.58}]