[{"rt":38556,"response":{"heads":"10","tails":"5"},"type":"response","condition":"seqFeedback","trueTheta":0.7,"classrooms":["A","B"],"studentTrueClassroom":"B","exampleSet":"first","trial_type":"survey-html-form","trial_index":10,"time_elapsed":503609,"internal_node_id":"0.0-6.0-0.0","params":{"nStudents":8,"maxExamples":70,"completionMinutes":15,"basePay":3,"maxBonus":6,"perTrialBonus":0.7,"perTrialBonusThreshold":0.08,"exampleCost":0.01},"classroomParams":{"A":{"a":1,"b":9},"B":{"a":9,"b":1}},"conditions":["nonSeqFull","nonSeqPartial","seqNoFeedback","seqFeedback"],"classroomPairings":[["A","B"]],"coinWeights":[0.3,0.7],"subjectId":"A23OS0HQ12VVOR","assignmentId":"3MD9PLUKKJ0B18F83FJ863O9GGTZNK","hitId":"3VEI3XUCZRJ0GI70IBXLZ6VI7OWRP5","url":"https://gershmanlab.com/experiments/alicia/teaching/experiment/?hitId=3VEI3XUCZRJ0GI70IBXLZ6VI7OWRP5&workerId=A23OS0HQ12VVOR&assignmentId=3MD9PLUKKJ0B18F83FJ863O9GGTZNK&a=KPDM5&tp_a=KPDM5&b=3MD9PLUKKJ0B18F83FJ863O9GGTZNK&tp_b=3MD9PLUKKJ0B18F83FJ863O9GGTZNK&c=368485&tp_c=368485","heads":10,"tails":5,"studentIndex":0,"studentTrueHypers":{"a":9,"b":1},"studentGuess":"0.76","delta":0.06000000000000005,"totalExamples":15,"bonusSoFar":0},{"rt":99274,"response":{"heads":"8","tails":"4"},"type":"response","condition":"seqFeedback","trueTheta":0.7,"classrooms":["A","B"],"studentTrueClassroom":"B","exampleSet":"second","trial_type":"survey-html-form","trial_index":14,"time_elapsed":639531,"internal_node_id":"0.0-10.0-0.0","params":{"nStudents":8,"maxExamples":70,"completionMinutes":15,"basePay":3,"maxBonus":6,"perTrialBonus":0.7,"perTrialBonusThreshold":0.08,"exampleCost":0.01},"classroomParams":{"A":{"a":1,"b":9},"B":{"a":9,"b":1}},"conditions":["nonSeqFull","nonSeqPartial","seqNoFeedback","seqFeedback"],"classroomPairings":[["A","B"]],"coinWeights":[0.3,0.7],"subjectId":"A23OS0HQ12VVOR","assignmentId":"3MD9PLUKKJ0B18F83FJ863O9GGTZNK","hitId":"3VEI3XUCZRJ0GI70IBXLZ6VI7OWRP5","url":"https://gershmanlab.com/experiments/alicia/teaching/experiment/?hitId=3VEI3XUCZRJ0GI70IBXLZ6VI7OWRP5&workerId=A23OS0HQ12VVOR&assignmentId=3MD9PLUKKJ0B18F83FJ863O9GGTZNK&a=KPDM5&tp_a=KPDM5&b=3MD9PLUKKJ0B18F83FJ863O9GGTZNK&tp_b=3MD9PLUKKJ0B18F83FJ863O9GGTZNK&c=368485&tp_c=368485","firstResponseHeads":10,"firstResponseTails":5,"secondResponseHeads":8,"secondResponseTails":4,"totalHeads":18,"totalTails":9,"studentIndex":0,"studentTrueHypers":{"a":9,"b":1},"studentGuess":"0.73","delta":0.030000000000000027,"bonus":0.43,"bonusSoFar":0.43,"totalExamples":27},{"rt":13137,"response":{"heads":"4","tails":"6"},"type":"response","condition":"nonSeqFull","trueTheta":0.3,"classrooms":["A","B"],"studentTrueClassroom":"B","exampleSet":"first","trial_type":"survey-html-form","trial_index":20,"time_elapsed":719940,"internal_node_id":"0.0-16.0-0.0","params":{"nStudents":8,"maxExamples":70,"completionMinutes":15,"basePay":3,"maxBonus":6,"perTrialBonus":0.7,"perTrialBonusThreshold":0.08,"exampleCost":0.01},"classroomParams":{"A":{"a":1,"b":9},"B":{"a":9,"b":1}},"conditions":["nonSeqFull","nonSeqPartial","seqNoFeedback","seqFeedback"],"classroomPairings":[["A","B"]],"coinWeights":[0.3,0.7],"subjectId":"A23OS0HQ12VVOR","assignmentId":"3MD9PLUKKJ0B18F83FJ863O9GGTZNK","hitId":"3VEI3XUCZRJ0GI70IBXLZ6VI7OWRP5","url":"https://gershmanlab.com/experiments/alicia/teaching/experiment/?hitId=3VEI3XUCZRJ0GI70IBXLZ6VI7OWRP5&workerId=A23OS0HQ12VVOR&assignmentId=3MD9PLUKKJ0B18F83FJ863O9GGTZNK&a=KPDM5&tp_a=KPDM5&b=3MD9PLUKKJ0B18F83FJ863O9GGTZNK&tp_b=3MD9PLUKKJ0B18F83FJ863O9GGTZNK&c=368485&tp_c=368485","heads":4,"tails":6,"studentIndex":1,"studentTrueHypers":{"a":9,"b":1},"studentGuess":"0.65","delta":0.35000000000000003,"totalExamples":10,"bonus":0,"bonusSoFar":0.43},{"rt":9857,"response":{"heads":"15","tails":"5"},"type":"response","condition":"seqNoFeedback","trueTheta":0.7,"classrooms":["A","B"],"studentTrueClassroom":"A","exampleSet":"first","trial_type":"survey-html-form","trial_index":26,"time_elapsed":771530,"internal_node_id":"0.0-22.0-0.0","params":{"nStudents":8,"maxExamples":70,"completionMinutes":15,"basePay":3,"maxBonus":6,"perTrialBonus":0.7,"perTrialBonusThreshold":0.08,"exampleCost":0.01},"classroomParams":{"A":{"a":1,"b":9},"B":{"a":9,"b":1}},"conditions":["nonSeqFull","nonSeqPartial","seqNoFeedback","seqFeedback"],"classroomPairings":[["A","B"]],"coinWeights":[0.3,0.7],"subjectId":"A23OS0HQ12VVOR","assignmentId":"3MD9PLUKKJ0B18F83FJ863O9GGTZNK","hitId":"3VEI3XUCZRJ0GI70IBXLZ6VI7OWRP5","url":"https://gershmanlab.com/experiments/alicia/teaching/experiment/?hitId=3VEI3XUCZRJ0GI70IBXLZ6VI7OWRP5&workerId=A23OS0HQ12VVOR&assignmentId=3MD9PLUKKJ0B18F83FJ863O9GGTZNK&a=KPDM5&tp_a=KPDM5&b=3MD9PLUKKJ0B18F83FJ863O9GGTZNK&tp_b=3MD9PLUKKJ0B18F83FJ863O9GGTZNK&c=368485&tp_c=368485","heads":15,"tails":5,"studentIndex":2,"studentTrueHypers":{"a":1,"b":9},"studentGuess":"0.53","delta":0.16999999999999993,"totalExamples":20,"bonusSoFar":0.43},{"rt":23455,"response":{"heads":"8","tails":"6"},"type":"response","condition":"seqNoFeedback","trueTheta":0.7,"classrooms":["A","B"],"studentTrueClassroom":"A","exampleSet":"second","trial_type":"survey-html-form","trial_index":29,"time_elapsed":801275,"internal_node_id":"0.0-25.0-0.0","params":{"nStudents":8,"maxExamples":70,"completionMinutes":15,"basePay":3,"maxBonus":6,"perTrialBonus":0.7,"perTrialBonusThreshold":0.08,"exampleCost":0.01},"classroomParams":{"A":{"a":1,"b":9},"B":{"a":9,"b":1}},"conditions":["nonSeqFull","nonSeqPartial","seqNoFeedback","seqFeedback"],"classroomPairings":[["A","B"]],"coinWeights":[0.3,0.7],"subjectId":"A23OS0HQ12VVOR","assignmentId":"3MD9PLUKKJ0B18F83FJ863O9GGTZNK","hitId":"3VEI3XUCZRJ0GI70IBXLZ6VI7OWRP5","url":"https://gershmanlab.com/experiments/alicia/teaching/experiment/?hitId=3VEI3XUCZRJ0GI70IBXLZ6VI7OWRP5&workerId=A23OS0HQ12VVOR&assignmentId=3MD9PLUKKJ0B18F83FJ863O9GGTZNK&a=KPDM5&tp_a=KPDM5&b=3MD9PLUKKJ0B18F83FJ863O9GGTZNK&tp_b=3MD9PLUKKJ0B18F83FJ863O9GGTZNK&c=368485&tp_c=368485","firstResponseHeads":15,"firstResponseTails":5,"secondResponseHeads":8,"secondResponseTails":6,"totalHeads":23,"totalTails":11,"studentIndex":2,"studentTrueHypers":{"a":1,"b":9},"studentGuess":"0.55","delta":0.1499999999999999,"bonus":0,"bonusSoFar":0.43,"totalExamples":34},{"rt":8947,"response":{"heads":"10","tails":"10"},"type":"response","condition":"nonSeqFull","trueTheta":0.7,"classrooms":["A","B"],"studentTrueClassroom":"A","exampleSet":"first","trial_type":"survey-html-form","trial_index":35,"time_elapsed":856999,"internal_node_id":"0.0-31.0-0.0","params":{"nStudents":8,"maxExamples":70,"completionMinutes":15,"basePay":3,"maxBonus":6,"perTrialBonus":0.7,"perTrialBonusThreshold":0.08,"exampleCost":0.01},"classroomParams":{"A":{"a":1,"b":9},"B":{"a":9,"b":1}},"conditions":["nonSeqFull","nonSeqPartial","seqNoFeedback","seqFeedback"],"classroomPairings":[["A","B"]],"coinWeights":[0.3,0.7],"subjectId":"A23OS0HQ12VVOR","assignmentId":"3MD9PLUKKJ0B18F83FJ863O9GGTZNK","hitId":"3VEI3XUCZRJ0GI70IBXLZ6VI7OWRP5","url":"https://gershmanlab.com/experiments/alicia/teaching/experiment/?hitId=3VEI3XUCZRJ0GI70IBXLZ6VI7OWRP5&workerId=A23OS0HQ12VVOR&assignmentId=3MD9PLUKKJ0B18F83FJ863O9GGTZNK&a=KPDM5&tp_a=KPDM5&b=3MD9PLUKKJ0B18F83FJ863O9GGTZNK&tp_b=3MD9PLUKKJ0B18F83FJ863O9GGTZNK&c=368485&tp_c=368485","heads":10,"tails":10,"studentIndex":3,"studentTrueHypers":{"a":1,"b":9},"studentGuess":"0.37","delta":0.32999999999999996,"totalExamples":20,"bonus":0,"bonusSoFar":0.43},{"rt":9412,"response":{"heads":"6","tails":"4"},"type":"response","condition":"nonSeqPartial","trueTheta":0.7,"classrooms":["A","B"],"studentTrueClassroom":"B","exampleSet":"first","trial_type":"survey-html-form","trial_index":41,"time_elapsed":912815,"internal_node_id":"0.0-37.0-0.0","params":{"nStudents":8,"maxExamples":70,"completionMinutes":15,"basePay":3,"maxBonus":6,"perTrialBonus":0.7,"perTrialBonusThreshold":0.08,"exampleCost":0.01},"classroomParams":{"A":{"a":1,"b":9},"B":{"a":9,"b":1}},"conditions":["nonSeqFull","nonSeqPartial","seqNoFeedback","seqFeedback"],"classroomPairings":[["A","B"]],"coinWeights":[0.3,0.7],"subjectId":"A23OS0HQ12VVOR","assignmentId":"3MD9PLUKKJ0B18F83FJ863O9GGTZNK","hitId":"3VEI3XUCZRJ0GI70IBXLZ6VI7OWRP5","url":"https://gershmanlab.com/experiments/alicia/teaching/experiment/?hitId=3VEI3XUCZRJ0GI70IBXLZ6VI7OWRP5&workerId=A23OS0HQ12VVOR&assignmentId=3MD9PLUKKJ0B18F83FJ863O9GGTZNK&a=KPDM5&tp_a=KPDM5&b=3MD9PLUKKJ0B18F83FJ863O9GGTZNK&tp_b=3MD9PLUKKJ0B18F83FJ863O9GGTZNK&c=368485&tp_c=368485","heads":6,"tails":4,"studentIndex":4,"studentTrueHypers":{"a":9,"b":1},"studentGuess":"0.75","delta":0.050000000000000044,"totalExamples":10,"bonus":0.6,"bonusSoFar":1.03},{"rt":7929,"response":{"heads":"6","tails":"6"},"type":"response","condition":"seqFeedback","trueTheta":0.3,"classrooms":["A","B"],"studentTrueClassroom":"B","exampleSet":"first","trial_type":"survey-html-form","trial_index":47,"time_elapsed":962899,"internal_node_id":"0.0-43.0-0.0","params":{"nStudents":8,"maxExamples":70,"completionMinutes":15,"basePay":3,"maxBonus":6,"perTrialBonus":0.7,"perTrialBonusThreshold":0.08,"exampleCost":0.01},"classroomParams":{"A":{"a":1,"b":9},"B":{"a":9,"b":1}},"conditions":["nonSeqFull","nonSeqPartial","seqNoFeedback","seqFeedback"],"classroomPairings":[["A","B"]],"coinWeights":[0.3,0.7],"subjectId":"A23OS0HQ12VVOR","assignmentId":"3MD9PLUKKJ0B18F83FJ863O9GGTZNK","hitId":"3VEI3XUCZRJ0GI70IBXLZ6VI7OWRP5","url":"https://gershmanlab.com/experiments/alicia/teaching/experiment/?hitId=3VEI3XUCZRJ0GI70IBXLZ6VI7OWRP5&workerId=A23OS0HQ12VVOR&assignmentId=3MD9PLUKKJ0B18F83FJ863O9GGTZNK&a=KPDM5&tp_a=KPDM5&b=3MD9PLUKKJ0B18F83FJ863O9GGTZNK&tp_b=3MD9PLUKKJ0B18F83FJ863O9GGTZNK&c=368485&tp_c=368485","heads":6,"tails":6,"studentIndex":5,"studentTrueHypers":{"a":9,"b":1},"studentGuess":"0.68","delta":0.38000000000000006,"totalExamples":12,"bonusSoFar":1.03},{"rt":18139,"response":{"heads":"6","tails":"4"},"type":"response","condition":"seqFeedback","trueTheta":0.3,"classrooms":["A","B"],"studentTrueClassroom":"B","exampleSet":"second","trial_type":"survey-html-form","trial_index":51,"time_elapsed":1017480,"internal_node_id":"0.0-47.0-0.0","params":{"nStudents":8,"maxExamples":70,"completionMinutes":15,"basePay":3,"maxBonus":6,"perTrialBonus":0.7,"perTrialBonusThreshold":0.08,"exampleCost":0.01},"classroomParams":{"A":{"a":1,"b":9},"B":{"a":9,"b":1}},"conditions":["nonSeqFull","nonSeqPartial","seqNoFeedback","seqFeedback"],"classroomPairings":[["A","B"]],"coinWeights":[0.3,0.7],"subjectId":"A23OS0HQ12VVOR","assignmentId":"3MD9PLUKKJ0B18F83FJ863O9GGTZNK","hitId":"3VEI3XUCZRJ0GI70IBXLZ6VI7OWRP5","url":"https://gershmanlab.com/experiments/alicia/teaching/experiment/?hitId=3VEI3XUCZRJ0GI70IBXLZ6VI7OWRP5&workerId=A23OS0HQ12VVOR&assignmentId=3MD9PLUKKJ0B18F83FJ863O9GGTZNK&a=KPDM5&tp_a=KPDM5&b=3MD9PLUKKJ0B18F83FJ863O9GGTZNK&tp_b=3MD9PLUKKJ0B18F83FJ863O9GGTZNK&c=368485&tp_c=368485","firstResponseHeads":6,"firstResponseTails":6,"secondResponseHeads":6,"secondResponseTails":4,"totalHeads":12,"totalTails":10,"studentIndex":5,"studentTrueHypers":{"a":9,"b":1},"studentGuess":"0.66","delta":0.36000000000000004,"bonus":0,"bonusSoFar":1.03,"totalExamples":22},{"rt":9079,"response":{"heads":"8","tails":"10"},"type":"response","condition":"nonSeqPartial","trueTheta":0.3,"classrooms":["A","B"],"studentTrueClassroom":"A","exampleSet":"first","trial_type":"survey-html-form","trial_index":57,"time_elapsed":1068817,"internal_node_id":"0.0-53.0-0.0","params":{"nStudents":8,"maxExamples":70,"completionMinutes":15,"basePay":3,"maxBonus":6,"perTrialBonus":0.7,"perTrialBonusThreshold":0.08,"exampleCost":0.01},"classroomParams":{"A":{"a":1,"b":9},"B":{"a":9,"b":1}},"conditions":["nonSeqFull","nonSeqPartial","seqNoFeedback","seqFeedback"],"classroomPairings":[["A","B"]],"coinWeights":[0.3,0.7],"subjectId":"A23OS0HQ12VVOR","assignmentId":"3MD9PLUKKJ0B18F83FJ863O9GGTZNK","hitId":"3VEI3XUCZRJ0GI70IBXLZ6VI7OWRP5","url":"https://gershmanlab.com/experiments/alicia/teaching/experiment/?hitId=3VEI3XUCZRJ0GI70IBXLZ6VI7OWRP5&workerId=A23OS0HQ12VVOR&assignmentId=3MD9PLUKKJ0B18F83FJ863O9GGTZNK&a=KPDM5&tp_a=KPDM5&b=3MD9PLUKKJ0B18F83FJ863O9GGTZNK&tp_b=3MD9PLUKKJ0B18F83FJ863O9GGTZNK&c=368485&tp_c=368485","heads":8,"tails":10,"studentIndex":6,"studentTrueHypers":{"a":1,"b":9},"studentGuess":"0.32","delta":0.020000000000000018,"totalExamples":18,"bonus":0.52,"bonusSoFar":1.55},{"rt":13340,"response":{"heads":"10","tails":"10"},"type":"response","condition":"seqNoFeedback","trueTheta":0.3,"classrooms":["A","B"],"studentTrueClassroom":"B","exampleSet":"first","trial_type":"survey-html-form","trial_index":63,"time_elapsed":1123263,"internal_node_id":"0.0-59.0-0.0","params":{"nStudents":8,"maxExamples":70,"completionMinutes":15,"basePay":3,"maxBonus":6,"perTrialBonus":0.7,"perTrialBonusThreshold":0.08,"exampleCost":0.01},"classroomParams":{"A":{"a":1,"b":9},"B":{"a":9,"b":1}},"conditions":["nonSeqFull","nonSeqPartial","seqNoFeedback","seqFeedback"],"classroomPairings":[["A","B"]],"coinWeights":[0.3,0.7],"subjectId":"A23OS0HQ12VVOR","assignmentId":"3MD9PLUKKJ0B18F83FJ863O9GGTZNK","hitId":"3VEI3XUCZRJ0GI70IBXLZ6VI7OWRP5","url":"https://gershmanlab.com/experiments/alicia/teaching/experiment/?hitId=3VEI3XUCZRJ0GI70IBXLZ6VI7OWRP5&workerId=A23OS0HQ12VVOR&assignmentId=3MD9PLUKKJ0B18F83FJ863O9GGTZNK&a=KPDM5&tp_a=KPDM5&b=3MD9PLUKKJ0B18F83FJ863O9GGTZNK&tp_b=3MD9PLUKKJ0B18F83FJ863O9GGTZNK&c=368485&tp_c=368485","heads":10,"tails":10,"studentIndex":7,"studentTrueHypers":{"a":9,"b":1},"studentGuess":"0.63","delta":0.33,"totalExamples":20,"bonusSoFar":1.55},{"rt":16727,"response":{"heads":"10","tails":"12"},"type":"response","condition":"seqNoFeedback","trueTheta":0.3,"classrooms":["A","B"],"studentTrueClassroom":"B","exampleSet":"second","trial_type":"survey-html-form","trial_index":66,"time_elapsed":1146503,"internal_node_id":"0.0-62.0-0.0","params":{"nStudents":8,"maxExamples":70,"completionMinutes":15,"basePay":3,"maxBonus":6,"perTrialBonus":0.7,"perTrialBonusThreshold":0.08,"exampleCost":0.01},"classroomParams":{"A":{"a":1,"b":9},"B":{"a":9,"b":1}},"conditions":["nonSeqFull","nonSeqPartial","seqNoFeedback","seqFeedback"],"classroomPairings":[["A","B"]],"coinWeights":[0.3,0.7],"subjectId":"A23OS0HQ12VVOR","assignmentId":"3MD9PLUKKJ0B18F83FJ863O9GGTZNK","hitId":"3VEI3XUCZRJ0GI70IBXLZ6VI7OWRP5","url":"https://gershmanlab.com/experiments/alicia/teaching/experiment/?hitId=3VEI3XUCZRJ0GI70IBXLZ6VI7OWRP5&workerId=A23OS0HQ12VVOR&assignmentId=3MD9PLUKKJ0B18F83FJ863O9GGTZNK&a=KPDM5&tp_a=KPDM5&b=3MD9PLUKKJ0B18F83FJ863O9GGTZNK&tp_b=3MD9PLUKKJ0B18F83FJ863O9GGTZNK&c=368485&tp_c=368485","firstResponseHeads":10,"firstResponseTails":10,"secondResponseHeads":10,"secondResponseTails":12,"totalHeads":20,"totalTails":22,"studentIndex":7,"studentTrueHypers":{"a":9,"b":1},"studentGuess":"0.56","delta":0.26000000000000006,"bonus":0,"bonusSoFar":1.55,"totalExamples":42},{"rt":149715,"response":{"gender":"male","age":"35","understood":"yes","strategy":"I wanted to show the students a bit of the composition without sending too many turtles, the strategy didn’t work out as well as I wanted","comments":"None"},"type":"response","trial_type":"survey-html-form","trial_index":70,"time_elapsed":1331995,"internal_node_id":"0.0-67.0","params":{"nStudents":8,"maxExamples":70,"completionMinutes":15,"basePay":3,"maxBonus":6,"perTrialBonus":0.7,"perTrialBonusThreshold":0.08,"exampleCost":0.01},"classroomParams":{"A":{"a":1,"b":9},"B":{"a":9,"b":1}},"conditions":["nonSeqFull","nonSeqPartial","seqNoFeedback","seqFeedback"],"classroomPairings":[["A","B"]],"coinWeights":[0.3,0.7],"subjectId":"A23OS0HQ12VVOR","assignmentId":"3MD9PLUKKJ0B18F83FJ863O9GGTZNK","hitId":"3VEI3XUCZRJ0GI70IBXLZ6VI7OWRP5","url":"https://gershmanlab.com/experiments/alicia/teaching/experiment/?hitId=3VEI3XUCZRJ0GI70IBXLZ6VI7OWRP5&workerId=A23OS0HQ12VVOR&assignmentId=3MD9PLUKKJ0B18F83FJ863O9GGTZNK&a=KPDM5&tp_a=KPDM5&b=3MD9PLUKKJ0B18F83FJ863O9GGTZNK&tp_b=3MD9PLUKKJ0B18F83FJ863O9GGTZNK&c=368485&tp_c=368485","totalBonus":1.55}]