[{"rt":11889,"response":{"heads":"3","tails":"7"},"type":"response","condition":"seqNoFeedback","trueTheta":0.3,"classrooms":["A","B"],"studentTrueClassroom":"B","exampleSet":"first","trial_type":"survey-html-form","trial_index":7,"time_elapsed":270797,"internal_node_id":"0.0-6.0-0.0","params":{"nStudents":8,"maxExamples":70,"completionMinutes":15,"basePay":3,"maxBonus":6,"perTrialBonus":0.7,"perTrialBonusThreshold":0.08,"exampleCost":0.01},"classroomParams":{"A":{"a":1,"b":9},"B":{"a":9,"b":1}},"conditions":["nonSeqFull","nonSeqPartial","seqNoFeedback","seqFeedback"],"classroomPairings":[["A","B"]],"coinWeights":[0.3,0.7],"subjectId":"A2CK0OXMPOR9LE","assignmentId":"37Q970SNZFUBMPM530R2D3E3Q0OS10","hitId":"3GL25Y6843GESBWZZUBL7KNB306MX0","url":"https://gershmanlab.com/experiments/alicia/teaching/experiment/?hitId=3GL25Y6843GESBWZZUBL7KNB306MX0&workerId=A2CK0OXMPOR9LE&assignmentId=37Q970SNZFUBMPM530R2D3E3Q0OS10&a=N7Q75&tp_a=N7Q75&b=37Q970SNZFUBMPM530R2D3E3Q0OS10&tp_b=37Q970SNZFUBMPM530R2D3E3Q0OS10&c=368485&tp_c=368485","heads":3,"tails":7,"studentIndex":0,"studentTrueHypers":{"a":9,"b":1},"studentGuess":"0.60","delta":0.3,"totalExamples":10,"bonusSoFar":0},{"rt":15872,"response":{"heads":"3","tails":"7"},"type":"response","condition":"seqNoFeedback","trueTheta":0.3,"classrooms":["A","B"],"studentTrueClassroom":"B","exampleSet":"second","trial_type":"survey-html-form","trial_index":10,"time_elapsed":292677,"internal_node_id":"0.0-9.0-0.0","params":{"nStudents":8,"maxExamples":70,"completionMinutes":15,"basePay":3,"maxBonus":6,"perTrialBonus":0.7,"perTrialBonusThreshold":0.08,"exampleCost":0.01},"classroomParams":{"A":{"a":1,"b":9},"B":{"a":9,"b":1}},"conditions":["nonSeqFull","nonSeqPartial","seqNoFeedback","seqFeedback"],"classroomPairings":[["A","B"]],"coinWeights":[0.3,0.7],"subjectId":"A2CK0OXMPOR9LE","assignmentId":"37Q970SNZFUBMPM530R2D3E3Q0OS10","hitId":"3GL25Y6843GESBWZZUBL7KNB306MX0","url":"https://gershmanlab.com/experiments/alicia/teaching/experiment/?hitId=3GL25Y6843GESBWZZUBL7KNB306MX0&workerId=A2CK0OXMPOR9LE&assignmentId=37Q970SNZFUBMPM530R2D3E3Q0OS10&a=N7Q75&tp_a=N7Q75&b=37Q970SNZFUBMPM530R2D3E3Q0OS10&tp_b=37Q970SNZFUBMPM530R2D3E3Q0OS10&c=368485&tp_c=368485","firstResponseHeads":3,"firstResponseTails":7,"secondResponseHeads":3,"secondResponseTails":7,"totalHeads":6,"totalTails":14,"studentIndex":0,"studentTrueHypers":{"a":9,"b":1},"studentGuess":"0.50","delta":0.2,"bonus":0,"bonusSoFar":0,"totalExamples":20},{"rt":8464,"response":{"heads":"3","tails":"7"},"type":"response","condition":"seqFeedback","trueTheta":0.3,"classrooms":["A","B"],"studentTrueClassroom":"A","exampleSet":"first","trial_type":"survey-html-form","trial_index":16,"time_elapsed":325616,"internal_node_id":"0.0-15.0-0.0","params":{"nStudents":8,"maxExamples":70,"completionMinutes":15,"basePay":3,"maxBonus":6,"perTrialBonus":0.7,"perTrialBonusThreshold":0.08,"exampleCost":0.01},"classroomParams":{"A":{"a":1,"b":9},"B":{"a":9,"b":1}},"conditions":["nonSeqFull","nonSeqPartial","seqNoFeedback","seqFeedback"],"classroomPairings":[["A","B"]],"coinWeights":[0.3,0.7],"subjectId":"A2CK0OXMPOR9LE","assignmentId":"37Q970SNZFUBMPM530R2D3E3Q0OS10","hitId":"3GL25Y6843GESBWZZUBL7KNB306MX0","url":"https://gershmanlab.com/experiments/alicia/teaching/experiment/?hitId=3GL25Y6843GESBWZZUBL7KNB306MX0&workerId=A2CK0OXMPOR9LE&assignmentId=37Q970SNZFUBMPM530R2D3E3Q0OS10&a=N7Q75&tp_a=N7Q75&b=37Q970SNZFUBMPM530R2D3E3Q0OS10&tp_b=37Q970SNZFUBMPM530R2D3E3Q0OS10&c=368485&tp_c=368485","heads":3,"tails":7,"studentIndex":1,"studentTrueHypers":{"a":1,"b":9},"studentGuess":"0.20","delta":0.09999999999999998,"totalExamples":10,"bonusSoFar":0},{"rt":10432,"response":{"heads":"3","tails":"7"},"type":"response","condition":"seqFeedback","trueTheta":0.3,"classrooms":["A","B"],"studentTrueClassroom":"A","exampleSet":"second","trial_type":"survey-html-form","trial_index":20,"time_elapsed":347936,"internal_node_id":"0.0-19.0-0.0","params":{"nStudents":8,"maxExamples":70,"completionMinutes":15,"basePay":3,"maxBonus":6,"perTrialBonus":0.7,"perTrialBonusThreshold":0.08,"exampleCost":0.01},"classroomParams":{"A":{"a":1,"b":9},"B":{"a":9,"b":1}},"conditions":["nonSeqFull","nonSeqPartial","seqNoFeedback","seqFeedback"],"classroomPairings":[["A","B"]],"coinWeights":[0.3,0.7],"subjectId":"A2CK0OXMPOR9LE","assignmentId":"37Q970SNZFUBMPM530R2D3E3Q0OS10","hitId":"3GL25Y6843GESBWZZUBL7KNB306MX0","url":"https://gershmanlab.com/experiments/alicia/teaching/experiment/?hitId=3GL25Y6843GESBWZZUBL7KNB306MX0&workerId=A2CK0OXMPOR9LE&assignmentId=37Q970SNZFUBMPM530R2D3E3Q0OS10&a=N7Q75&tp_a=N7Q75&b=37Q970SNZFUBMPM530R2D3E3Q0OS10&tp_b=37Q970SNZFUBMPM530R2D3E3Q0OS10&c=368485&tp_c=368485","firstResponseHeads":3,"firstResponseTails":7,"secondResponseHeads":3,"secondResponseTails":7,"totalHeads":6,"totalTails":14,"studentIndex":1,"studentTrueHypers":{"a":1,"b":9},"studentGuess":"0.23","delta":0.06999999999999998,"bonus":0.5,"bonusSoFar":0.5,"totalExamples":20},{"rt":12255,"response":{"heads":"4","tails":"6"},"type":"response","condition":"nonSeqFull","trueTheta":0.3,"classrooms":["A","B"],"studentTrueClassroom":"A","exampleSet":"first","trial_type":"survey-html-form","trial_index":26,"time_elapsed":376604,"internal_node_id":"0.0-25.0-0.0","params":{"nStudents":8,"maxExamples":70,"completionMinutes":15,"basePay":3,"maxBonus":6,"perTrialBonus":0.7,"perTrialBonusThreshold":0.08,"exampleCost":0.01},"classroomParams":{"A":{"a":1,"b":9},"B":{"a":9,"b":1}},"conditions":["nonSeqFull","nonSeqPartial","seqNoFeedback","seqFeedback"],"classroomPairings":[["A","B"]],"coinWeights":[0.3,0.7],"subjectId":"A2CK0OXMPOR9LE","assignmentId":"37Q970SNZFUBMPM530R2D3E3Q0OS10","hitId":"3GL25Y6843GESBWZZUBL7KNB306MX0","url":"https://gershmanlab.com/experiments/alicia/teaching/experiment/?hitId=3GL25Y6843GESBWZZUBL7KNB306MX0&workerId=A2CK0OXMPOR9LE&assignmentId=37Q970SNZFUBMPM530R2D3E3Q0OS10&a=N7Q75&tp_a=N7Q75&b=37Q970SNZFUBMPM530R2D3E3Q0OS10&tp_b=37Q970SNZFUBMPM530R2D3E3Q0OS10&c=368485&tp_c=368485","heads":4,"tails":6,"studentIndex":2,"studentTrueHypers":{"a":1,"b":9},"studentGuess":"0.25","delta":0.04999999999999999,"totalExamples":10,"bonus":0.6,"bonusSoFar":1.1},{"rt":3402,"response":{"heads":"7","tails":"3"},"type":"response","condition":"seqFeedback","trueTheta":0.7,"classrooms":["A","B"],"studentTrueClassroom":"B","exampleSet":"first","trial_type":"survey-html-form","trial_index":32,"time_elapsed":397526,"internal_node_id":"0.0-31.0-0.0","params":{"nStudents":8,"maxExamples":70,"completionMinutes":15,"basePay":3,"maxBonus":6,"perTrialBonus":0.7,"perTrialBonusThreshold":0.08,"exampleCost":0.01},"classroomParams":{"A":{"a":1,"b":9},"B":{"a":9,"b":1}},"conditions":["nonSeqFull","nonSeqPartial","seqNoFeedback","seqFeedback"],"classroomPairings":[["A","B"]],"coinWeights":[0.3,0.7],"subjectId":"A2CK0OXMPOR9LE","assignmentId":"37Q970SNZFUBMPM530R2D3E3Q0OS10","hitId":"3GL25Y6843GESBWZZUBL7KNB306MX0","url":"https://gershmanlab.com/experiments/alicia/teaching/experiment/?hitId=3GL25Y6843GESBWZZUBL7KNB306MX0&workerId=A2CK0OXMPOR9LE&assignmentId=37Q970SNZFUBMPM530R2D3E3Q0OS10&a=N7Q75&tp_a=N7Q75&b=37Q970SNZFUBMPM530R2D3E3Q0OS10&tp_b=37Q970SNZFUBMPM530R2D3E3Q0OS10&c=368485&tp_c=368485","heads":7,"tails":3,"studentIndex":3,"studentTrueHypers":{"a":9,"b":1},"studentGuess":"0.80","delta":0.10000000000000009,"totalExamples":10,"bonusSoFar":1.1},{"rt":17456,"response":{"heads":"5","tails":"5"},"type":"response","condition":"seqFeedback","trueTheta":0.7,"classrooms":["A","B"],"studentTrueClassroom":"B","exampleSet":"second","trial_type":"survey-html-form","trial_index":36,"time_elapsed":425850,"internal_node_id":"0.0-35.0-0.0","params":{"nStudents":8,"maxExamples":70,"completionMinutes":15,"basePay":3,"maxBonus":6,"perTrialBonus":0.7,"perTrialBonusThreshold":0.08,"exampleCost":0.01},"classroomParams":{"A":{"a":1,"b":9},"B":{"a":9,"b":1}},"conditions":["nonSeqFull","nonSeqPartial","seqNoFeedback","seqFeedback"],"classroomPairings":[["A","B"]],"coinWeights":[0.3,0.7],"subjectId":"A2CK0OXMPOR9LE","assignmentId":"37Q970SNZFUBMPM530R2D3E3Q0OS10","hitId":"3GL25Y6843GESBWZZUBL7KNB306MX0","url":"https://gershmanlab.com/experiments/alicia/teaching/experiment/?hitId=3GL25Y6843GESBWZZUBL7KNB306MX0&workerId=A2CK0OXMPOR9LE&assignmentId=37Q970SNZFUBMPM530R2D3E3Q0OS10&a=N7Q75&tp_a=N7Q75&b=37Q970SNZFUBMPM530R2D3E3Q0OS10&tp_b=37Q970SNZFUBMPM530R2D3E3Q0OS10&c=368485&tp_c=368485","firstResponseHeads":7,"firstResponseTails":3,"secondResponseHeads":5,"secondResponseTails":5,"totalHeads":12,"totalTails":8,"studentIndex":3,"studentTrueHypers":{"a":9,"b":1},"studentGuess":"0.70","delta":0,"bonus":0.5,"bonusSoFar":1.6,"totalExamples":20},{"rt":5305,"response":{"heads":"7","tails":"3"},"type":"response","condition":"seqNoFeedback","trueTheta":0.7,"classrooms":["A","B"],"studentTrueClassroom":"A","exampleSet":"first","trial_type":"survey-html-form","trial_index":42,"time_elapsed":447855,"internal_node_id":"0.0-41.0-0.0","params":{"nStudents":8,"maxExamples":70,"completionMinutes":15,"basePay":3,"maxBonus":6,"perTrialBonus":0.7,"perTrialBonusThreshold":0.08,"exampleCost":0.01},"classroomParams":{"A":{"a":1,"b":9},"B":{"a":9,"b":1}},"conditions":["nonSeqFull","nonSeqPartial","seqNoFeedback","seqFeedback"],"classroomPairings":[["A","B"]],"coinWeights":[0.3,0.7],"subjectId":"A2CK0OXMPOR9LE","assignmentId":"37Q970SNZFUBMPM530R2D3E3Q0OS10","hitId":"3GL25Y6843GESBWZZUBL7KNB306MX0","url":"https://gershmanlab.com/experiments/alicia/teaching/experiment/?hitId=3GL25Y6843GESBWZZUBL7KNB306MX0&workerId=A2CK0OXMPOR9LE&assignmentId=37Q970SNZFUBMPM530R2D3E3Q0OS10&a=N7Q75&tp_a=N7Q75&b=37Q970SNZFUBMPM530R2D3E3Q0OS10&tp_b=37Q970SNZFUBMPM530R2D3E3Q0OS10&c=368485&tp_c=368485","heads":7,"tails":3,"studentIndex":4,"studentTrueHypers":{"a":1,"b":9},"studentGuess":"0.40","delta":0.29999999999999993,"totalExamples":10,"bonusSoFar":1.6},{"rt":10728,"response":{"heads":"7","tails":"3"},"type":"response","condition":"seqNoFeedback","trueTheta":0.7,"classrooms":["A","B"],"studentTrueClassroom":"A","exampleSet":"second","trial_type":"survey-html-form","trial_index":45,"time_elapsed":464838,"internal_node_id":"0.0-44.0-0.0","params":{"nStudents":8,"maxExamples":70,"completionMinutes":15,"basePay":3,"maxBonus":6,"perTrialBonus":0.7,"perTrialBonusThreshold":0.08,"exampleCost":0.01},"classroomParams":{"A":{"a":1,"b":9},"B":{"a":9,"b":1}},"conditions":["nonSeqFull","nonSeqPartial","seqNoFeedback","seqFeedback"],"classroomPairings":[["A","B"]],"coinWeights":[0.3,0.7],"subjectId":"A2CK0OXMPOR9LE","assignmentId":"37Q970SNZFUBMPM530R2D3E3Q0OS10","hitId":"3GL25Y6843GESBWZZUBL7KNB306MX0","url":"https://gershmanlab.com/experiments/alicia/teaching/experiment/?hitId=3GL25Y6843GESBWZZUBL7KNB306MX0&workerId=A2CK0OXMPOR9LE&assignmentId=37Q970SNZFUBMPM530R2D3E3Q0OS10&a=N7Q75&tp_a=N7Q75&b=37Q970SNZFUBMPM530R2D3E3Q0OS10&tp_b=37Q970SNZFUBMPM530R2D3E3Q0OS10&c=368485&tp_c=368485","firstResponseHeads":7,"firstResponseTails":3,"secondResponseHeads":7,"secondResponseTails":3,"totalHeads":14,"totalTails":6,"studentIndex":4,"studentTrueHypers":{"a":1,"b":9},"studentGuess":"0.50","delta":0.19999999999999996,"bonus":0,"bonusSoFar":1.6,"totalExamples":20},{"rt":4832,"response":{"heads":"7","tails":"3"},"type":"response","condition":"nonSeqPartial","trueTheta":0.7,"classrooms":["A","B"],"studentTrueClassroom":"B","exampleSet":"first","trial_type":"survey-html-form","trial_index":51,"time_elapsed":482578,"internal_node_id":"0.0-50.0-0.0","params":{"nStudents":8,"maxExamples":70,"completionMinutes":15,"basePay":3,"maxBonus":6,"perTrialBonus":0.7,"perTrialBonusThreshold":0.08,"exampleCost":0.01},"classroomParams":{"A":{"a":1,"b":9},"B":{"a":9,"b":1}},"conditions":["nonSeqFull","nonSeqPartial","seqNoFeedback","seqFeedback"],"classroomPairings":[["A","B"]],"coinWeights":[0.3,0.7],"subjectId":"A2CK0OXMPOR9LE","assignmentId":"37Q970SNZFUBMPM530R2D3E3Q0OS10","hitId":"3GL25Y6843GESBWZZUBL7KNB306MX0","url":"https://gershmanlab.com/experiments/alicia/teaching/experiment/?hitId=3GL25Y6843GESBWZZUBL7KNB306MX0&workerId=A2CK0OXMPOR9LE&assignmentId=37Q970SNZFUBMPM530R2D3E3Q0OS10&a=N7Q75&tp_a=N7Q75&b=37Q970SNZFUBMPM530R2D3E3Q0OS10&tp_b=37Q970SNZFUBMPM530R2D3E3Q0OS10&c=368485&tp_c=368485","heads":7,"tails":3,"studentIndex":5,"studentTrueHypers":{"a":9,"b":1},"studentGuess":"0.80","delta":0.10000000000000009,"totalExamples":10,"bonus":0,"bonusSoFar":1.6},{"rt":10392,"response":{"heads":"5","tails":"5"},"type":"response","condition":"nonSeqFull","trueTheta":0.7,"classrooms":["A","B"],"studentTrueClassroom":"B","exampleSet":"first","trial_type":"survey-html-form","trial_index":57,"time_elapsed":505875,"internal_node_id":"0.0-56.0-0.0","params":{"nStudents":8,"maxExamples":70,"completionMinutes":15,"basePay":3,"maxBonus":6,"perTrialBonus":0.7,"perTrialBonusThreshold":0.08,"exampleCost":0.01},"classroomParams":{"A":{"a":1,"b":9},"B":{"a":9,"b":1}},"conditions":["nonSeqFull","nonSeqPartial","seqNoFeedback","seqFeedback"],"classroomPairings":[["A","B"]],"coinWeights":[0.3,0.7],"subjectId":"A2CK0OXMPOR9LE","assignmentId":"37Q970SNZFUBMPM530R2D3E3Q0OS10","hitId":"3GL25Y6843GESBWZZUBL7KNB306MX0","url":"https://gershmanlab.com/experiments/alicia/teaching/experiment/?hitId=3GL25Y6843GESBWZZUBL7KNB306MX0&workerId=A2CK0OXMPOR9LE&assignmentId=37Q970SNZFUBMPM530R2D3E3Q0OS10&a=N7Q75&tp_a=N7Q75&b=37Q970SNZFUBMPM530R2D3E3Q0OS10&tp_b=37Q970SNZFUBMPM530R2D3E3Q0OS10&c=368485&tp_c=368485","heads":5,"tails":5,"studentIndex":6,"studentTrueHypers":{"a":9,"b":1},"studentGuess":"0.70","delta":0,"totalExamples":10,"bonus":0.6,"bonusSoFar":2.2},{"rt":4087,"response":{"heads":"3","tails":"7"},"type":"response","condition":"nonSeqPartial","trueTheta":0.3,"classrooms":["A","B"],"studentTrueClassroom":"B","exampleSet":"first","trial_type":"survey-html-form","trial_index":63,"time_elapsed":528151,"internal_node_id":"0.0-62.0-0.0","params":{"nStudents":8,"maxExamples":70,"completionMinutes":15,"basePay":3,"maxBonus":6,"perTrialBonus":0.7,"perTrialBonusThreshold":0.08,"exampleCost":0.01},"classroomParams":{"A":{"a":1,"b":9},"B":{"a":9,"b":1}},"conditions":["nonSeqFull","nonSeqPartial","seqNoFeedback","seqFeedback"],"classroomPairings":[["A","B"]],"coinWeights":[0.3,0.7],"subjectId":"A2CK0OXMPOR9LE","assignmentId":"37Q970SNZFUBMPM530R2D3E3Q0OS10","hitId":"3GL25Y6843GESBWZZUBL7KNB306MX0","url":"https://gershmanlab.com/experiments/alicia/teaching/experiment/?hitId=3GL25Y6843GESBWZZUBL7KNB306MX0&workerId=A2CK0OXMPOR9LE&assignmentId=37Q970SNZFUBMPM530R2D3E3Q0OS10&a=N7Q75&tp_a=N7Q75&b=37Q970SNZFUBMPM530R2D3E3Q0OS10&tp_b=37Q970SNZFUBMPM530R2D3E3Q0OS10&c=368485&tp_c=368485","heads":3,"tails":7,"studentIndex":7,"studentTrueHypers":{"a":9,"b":1},"studentGuess":"0.60","delta":0.3,"totalExamples":10,"bonus":0,"bonusSoFar":2.2},{"rt":59560,"response":{"gender":"male","age":"31","understood":"yes","strategy":"Tried to overcorrect on occasions where it was clear that the student saw an inaccurate proportion. If it was one lesson, and multiple possibilities, I went with just what I was given. Strategy evolved over time with the overcorrection..","comments":""},"type":"response","trial_type":"survey-html-form","trial_index":67,"time_elapsed":595887,"internal_node_id":"0.0-67.0","params":{"nStudents":8,"maxExamples":70,"completionMinutes":15,"basePay":3,"maxBonus":6,"perTrialBonus":0.7,"perTrialBonusThreshold":0.08,"exampleCost":0.01},"classroomParams":{"A":{"a":1,"b":9},"B":{"a":9,"b":1}},"conditions":["nonSeqFull","nonSeqPartial","seqNoFeedback","seqFeedback"],"classroomPairings":[["A","B"]],"coinWeights":[0.3,0.7],"subjectId":"A2CK0OXMPOR9LE","assignmentId":"37Q970SNZFUBMPM530R2D3E3Q0OS10","hitId":"3GL25Y6843GESBWZZUBL7KNB306MX0","url":"https://gershmanlab.com/experiments/alicia/teaching/experiment/?hitId=3GL25Y6843GESBWZZUBL7KNB306MX0&workerId=A2CK0OXMPOR9LE&assignmentId=37Q970SNZFUBMPM530R2D3E3Q0OS10&a=N7Q75&tp_a=N7Q75&b=37Q970SNZFUBMPM530R2D3E3Q0OS10&tp_b=37Q970SNZFUBMPM530R2D3E3Q0OS10&c=368485&tp_c=368485","totalBonus":2.2}]