[{"rt":22823,"response":{"heads":"6","tails":"4"},"type":"response","condition":"nonSeqPartial","trueTheta":0.7,"classrooms":["A","B"],"studentTrueClassroom":"A","exampleSet":"first","trial_type":"survey-html-form","trial_index":10,"time_elapsed":326395,"internal_node_id":"0.0-6.0-0.0","params":{"nStudents":8,"maxExamples":70,"completionMinutes":15,"basePay":3,"maxBonus":6,"perTrialBonus":0.7,"perTrialBonusThreshold":0.08,"exampleCost":0.01},"classroomParams":{"A":{"a":1,"b":9},"B":{"a":9,"b":1}},"conditions":["nonSeqFull","nonSeqPartial","seqNoFeedback","seqFeedback"],"classroomPairings":[["A","B"]],"coinWeights":[0.3,0.7],"subjectId":"A2P53AN2M8IWFP","assignmentId":"3LRKMWOKB63FCMQFHWLOEFLB5L22ZW","hitId":"3VEI3XUCZRJ0GI70IBXLZ6VI7OWRP5","url":"https://gershmanlab.com/experiments/alicia/teaching/experiment/?hitId=3VEI3XUCZRJ0GI70IBXLZ6VI7OWRP5&workerId=A2P53AN2M8IWFP&assignmentId=3LRKMWOKB63FCMQFHWLOEFLB5L22ZW&a=KMRL5&tp_a=KMRL5&b=3LRKMWOKB63FCMQFHWLOEFLB5L22ZW&tp_b=3LRKMWOKB63FCMQFHWLOEFLB5L22ZW&c=368485&tp_c=368485","heads":6,"tails":4,"studentIndex":0,"studentTrueHypers":{"a":1,"b":9},"studentGuess":"0.35","delta":0.35,"totalExamples":10,"bonus":0,"bonusSoFar":0},{"rt":9857,"response":{"heads":"20","tails":"20"},"type":"response","condition":"seqFeedback","trueTheta":0.3,"classrooms":["A","B"],"studentTrueClassroom":"B","exampleSet":"first","trial_type":"survey-html-form","trial_index":16,"time_elapsed":351932,"internal_node_id":"0.0-12.0-0.0","params":{"nStudents":8,"maxExamples":70,"completionMinutes":15,"basePay":3,"maxBonus":6,"perTrialBonus":0.7,"perTrialBonusThreshold":0.08,"exampleCost":0.01},"classroomParams":{"A":{"a":1,"b":9},"B":{"a":9,"b":1}},"conditions":["nonSeqFull","nonSeqPartial","seqNoFeedback","seqFeedback"],"classroomPairings":[["A","B"]],"coinWeights":[0.3,0.7],"subjectId":"A2P53AN2M8IWFP","assignmentId":"3LRKMWOKB63FCMQFHWLOEFLB5L22ZW","hitId":"3VEI3XUCZRJ0GI70IBXLZ6VI7OWRP5","url":"https://gershmanlab.com/experiments/alicia/teaching/experiment/?hitId=3VEI3XUCZRJ0GI70IBXLZ6VI7OWRP5&workerId=A2P53AN2M8IWFP&assignmentId=3LRKMWOKB63FCMQFHWLOEFLB5L22ZW&a=KMRL5&tp_a=KMRL5&b=3LRKMWOKB63FCMQFHWLOEFLB5L22ZW&tp_b=3LRKMWOKB63FCMQFHWLOEFLB5L22ZW&c=368485&tp_c=368485","heads":20,"tails":20,"studentIndex":1,"studentTrueHypers":{"a":9,"b":1},"studentGuess":"0.58","delta":0.27999999999999997,"totalExamples":40,"bonusSoFar":0},{"rt":13526,"response":{"heads":"25","tails":"25"},"type":"response","condition":"seqFeedback","trueTheta":0.3,"classrooms":["A","B"],"studentTrueClassroom":"B","exampleSet":"second","trial_type":"survey-html-form","trial_index":20,"time_elapsed":374504,"internal_node_id":"0.0-16.0-0.0","params":{"nStudents":8,"maxExamples":70,"completionMinutes":15,"basePay":3,"maxBonus":6,"perTrialBonus":0.7,"perTrialBonusThreshold":0.08,"exampleCost":0.01},"classroomParams":{"A":{"a":1,"b":9},"B":{"a":9,"b":1}},"conditions":["nonSeqFull","nonSeqPartial","seqNoFeedback","seqFeedback"],"classroomPairings":[["A","B"]],"coinWeights":[0.3,0.7],"subjectId":"A2P53AN2M8IWFP","assignmentId":"3LRKMWOKB63FCMQFHWLOEFLB5L22ZW","hitId":"3VEI3XUCZRJ0GI70IBXLZ6VI7OWRP5","url":"https://gershmanlab.com/experiments/alicia/teaching/experiment/?hitId=3VEI3XUCZRJ0GI70IBXLZ6VI7OWRP5&workerId=A2P53AN2M8IWFP&assignmentId=3LRKMWOKB63FCMQFHWLOEFLB5L22ZW&a=KMRL5&tp_a=KMRL5&b=3LRKMWOKB63FCMQFHWLOEFLB5L22ZW&tp_b=3LRKMWOKB63FCMQFHWLOEFLB5L22ZW&c=368485&tp_c=368485","firstResponseHeads":20,"firstResponseTails":20,"secondResponseHeads":25,"secondResponseTails":25,"totalHeads":45,"totalTails":45,"studentIndex":1,"studentTrueHypers":{"a":9,"b":1},"studentGuess":"0.54","delta":0.24000000000000005,"bonus":0,"bonusSoFar":0,"totalExamples":90},{"rt":4535,"response":{"heads":"20","tails":"20"},"type":"response","condition":"seqNoFeedback","trueTheta":0.7,"classrooms":["A","B"],"studentTrueClassroom":"B","exampleSet":"first","trial_type":"survey-html-form","trial_index":26,"time_elapsed":389526,"internal_node_id":"0.0-22.0-0.0","params":{"nStudents":8,"maxExamples":70,"completionMinutes":15,"basePay":3,"maxBonus":6,"perTrialBonus":0.7,"perTrialBonusThreshold":0.08,"exampleCost":0.01},"classroomParams":{"A":{"a":1,"b":9},"B":{"a":9,"b":1}},"conditions":["nonSeqFull","nonSeqPartial","seqNoFeedback","seqFeedback"],"classroomPairings":[["A","B"]],"coinWeights":[0.3,0.7],"subjectId":"A2P53AN2M8IWFP","assignmentId":"3LRKMWOKB63FCMQFHWLOEFLB5L22ZW","hitId":"3VEI3XUCZRJ0GI70IBXLZ6VI7OWRP5","url":"https://gershmanlab.com/experiments/alicia/teaching/experiment/?hitId=3VEI3XUCZRJ0GI70IBXLZ6VI7OWRP5&workerId=A2P53AN2M8IWFP&assignmentId=3LRKMWOKB63FCMQFHWLOEFLB5L22ZW&a=KMRL5&tp_a=KMRL5&b=3LRKMWOKB63FCMQFHWLOEFLB5L22ZW&tp_b=3LRKMWOKB63FCMQFHWLOEFLB5L22ZW&c=368485&tp_c=368485","heads":20,"tails":20,"studentIndex":2,"studentTrueHypers":{"a":9,"b":1},"studentGuess":"0.58","delta":0.12,"totalExamples":40,"bonusSoFar":0},{"rt":12306,"response":{"heads":"15","tails":"15"},"type":"response","condition":"seqNoFeedback","trueTheta":0.7,"classrooms":["A","B"],"studentTrueClassroom":"B","exampleSet":"second","trial_type":"survey-html-form","trial_index":29,"time_elapsed":407101,"internal_node_id":"0.0-25.0-0.0","params":{"nStudents":8,"maxExamples":70,"completionMinutes":15,"basePay":3,"maxBonus":6,"perTrialBonus":0.7,"perTrialBonusThreshold":0.08,"exampleCost":0.01},"classroomParams":{"A":{"a":1,"b":9},"B":{"a":9,"b":1}},"conditions":["nonSeqFull","nonSeqPartial","seqNoFeedback","seqFeedback"],"classroomPairings":[["A","B"]],"coinWeights":[0.3,0.7],"subjectId":"A2P53AN2M8IWFP","assignmentId":"3LRKMWOKB63FCMQFHWLOEFLB5L22ZW","hitId":"3VEI3XUCZRJ0GI70IBXLZ6VI7OWRP5","url":"https://gershmanlab.com/experiments/alicia/teaching/experiment/?hitId=3VEI3XUCZRJ0GI70IBXLZ6VI7OWRP5&workerId=A2P53AN2M8IWFP&assignmentId=3LRKMWOKB63FCMQFHWLOEFLB5L22ZW&a=KMRL5&tp_a=KMRL5&b=3LRKMWOKB63FCMQFHWLOEFLB5L22ZW&tp_b=3LRKMWOKB63FCMQFHWLOEFLB5L22ZW&c=368485&tp_c=368485","firstResponseHeads":20,"firstResponseTails":20,"secondResponseHeads":15,"secondResponseTails":15,"totalHeads":35,"totalTails":35,"studentIndex":2,"studentTrueHypers":{"a":9,"b":1},"studentGuess":"0.55","delta":0.1499999999999999,"bonus":0,"bonusSoFar":0,"totalExamples":70},{"rt":5311,"response":{"heads":"30","tails":"30"},"type":"response","condition":"seqNoFeedback","trueTheta":0.3,"classrooms":["A","B"],"studentTrueClassroom":"A","exampleSet":"first","trial_type":"survey-html-form","trial_index":35,"time_elapsed":423853,"internal_node_id":"0.0-31.0-0.0","params":{"nStudents":8,"maxExamples":70,"completionMinutes":15,"basePay":3,"maxBonus":6,"perTrialBonus":0.7,"perTrialBonusThreshold":0.08,"exampleCost":0.01},"classroomParams":{"A":{"a":1,"b":9},"B":{"a":9,"b":1}},"conditions":["nonSeqFull","nonSeqPartial","seqNoFeedback","seqFeedback"],"classroomPairings":[["A","B"]],"coinWeights":[0.3,0.7],"subjectId":"A2P53AN2M8IWFP","assignmentId":"3LRKMWOKB63FCMQFHWLOEFLB5L22ZW","hitId":"3VEI3XUCZRJ0GI70IBXLZ6VI7OWRP5","url":"https://gershmanlab.com/experiments/alicia/teaching/experiment/?hitId=3VEI3XUCZRJ0GI70IBXLZ6VI7OWRP5&workerId=A2P53AN2M8IWFP&assignmentId=3LRKMWOKB63FCMQFHWLOEFLB5L22ZW&a=KMRL5&tp_a=KMRL5&b=3LRKMWOKB63FCMQFHWLOEFLB5L22ZW&tp_b=3LRKMWOKB63FCMQFHWLOEFLB5L22ZW&c=368485&tp_c=368485","heads":30,"tails":30,"studentIndex":3,"studentTrueHypers":{"a":1,"b":9},"studentGuess":"0.44","delta":0.14,"totalExamples":60,"bonusSoFar":0},{"rt":5129,"response":{"heads":"30","tails":"30"},"type":"response","condition":"seqNoFeedback","trueTheta":0.3,"classrooms":["A","B"],"studentTrueClassroom":"A","exampleSet":"second","trial_type":"survey-html-form","trial_index":38,"time_elapsed":434248,"internal_node_id":"0.0-34.0-0.0","params":{"nStudents":8,"maxExamples":70,"completionMinutes":15,"basePay":3,"maxBonus":6,"perTrialBonus":0.7,"perTrialBonusThreshold":0.08,"exampleCost":0.01},"classroomParams":{"A":{"a":1,"b":9},"B":{"a":9,"b":1}},"conditions":["nonSeqFull","nonSeqPartial","seqNoFeedback","seqFeedback"],"classroomPairings":[["A","B"]],"coinWeights":[0.3,0.7],"subjectId":"A2P53AN2M8IWFP","assignmentId":"3LRKMWOKB63FCMQFHWLOEFLB5L22ZW","hitId":"3VEI3XUCZRJ0GI70IBXLZ6VI7OWRP5","url":"https://gershmanlab.com/experiments/alicia/teaching/experiment/?hitId=3VEI3XUCZRJ0GI70IBXLZ6VI7OWRP5&workerId=A2P53AN2M8IWFP&assignmentId=3LRKMWOKB63FCMQFHWLOEFLB5L22ZW&a=KMRL5&tp_a=KMRL5&b=3LRKMWOKB63FCMQFHWLOEFLB5L22ZW&tp_b=3LRKMWOKB63FCMQFHWLOEFLB5L22ZW&c=368485&tp_c=368485","firstResponseHeads":30,"firstResponseTails":30,"secondResponseHeads":30,"secondResponseTails":30,"totalHeads":60,"totalTails":60,"studentIndex":3,"studentTrueHypers":{"a":1,"b":9},"studentGuess":"0.47","delta":0.16999999999999998,"bonus":0,"bonusSoFar":0,"totalExamples":120},{"rt":6483,"response":{"heads":"0","tails":"0"},"type":"response","condition":"nonSeqFull","trueTheta":0.7,"classrooms":["A","B"],"studentTrueClassroom":"B","exampleSet":"first","trial_type":"survey-html-form","trial_index":44,"time_elapsed":451444,"internal_node_id":"0.0-40.0-0.0","params":{"nStudents":8,"maxExamples":70,"completionMinutes":15,"basePay":3,"maxBonus":6,"perTrialBonus":0.7,"perTrialBonusThreshold":0.08,"exampleCost":0.01},"classroomParams":{"A":{"a":1,"b":9},"B":{"a":9,"b":1}},"conditions":["nonSeqFull","nonSeqPartial","seqNoFeedback","seqFeedback"],"classroomPairings":[["A","B"]],"coinWeights":[0.3,0.7],"subjectId":"A2P53AN2M8IWFP","assignmentId":"3LRKMWOKB63FCMQFHWLOEFLB5L22ZW","hitId":"3VEI3XUCZRJ0GI70IBXLZ6VI7OWRP5","url":"https://gershmanlab.com/experiments/alicia/teaching/experiment/?hitId=3VEI3XUCZRJ0GI70IBXLZ6VI7OWRP5&workerId=A2P53AN2M8IWFP&assignmentId=3LRKMWOKB63FCMQFHWLOEFLB5L22ZW&a=KMRL5&tp_a=KMRL5&b=3LRKMWOKB63FCMQFHWLOEFLB5L22ZW&tp_b=3LRKMWOKB63FCMQFHWLOEFLB5L22ZW&c=368485&tp_c=368485","heads":0,"tails":0,"studentIndex":4,"studentTrueHypers":{"a":9,"b":1},"studentGuess":"0.90","delta":0.20000000000000007,"totalExamples":0,"bonus":0,"bonusSoFar":0},{"rt":1856,"response":{"heads":"0","tails":"0"},"type":"response","condition":"nonSeqFull","trueTheta":0.7,"classrooms":["A","B"],"studentTrueClassroom":"B","exampleSet":"first","trial_type":"survey-html-form","trial_index":45,"time_elapsed":453302,"internal_node_id":"0.0-40.1-0.1","params":{"nStudents":8,"maxExamples":70,"completionMinutes":15,"basePay":3,"maxBonus":6,"perTrialBonus":0.7,"perTrialBonusThreshold":0.08,"exampleCost":0.01},"classroomParams":{"A":{"a":1,"b":9},"B":{"a":9,"b":1}},"conditions":["nonSeqFull","nonSeqPartial","seqNoFeedback","seqFeedback"],"classroomPairings":[["A","B"]],"coinWeights":[0.3,0.7],"subjectId":"A2P53AN2M8IWFP","assignmentId":"3LRKMWOKB63FCMQFHWLOEFLB5L22ZW","hitId":"3VEI3XUCZRJ0GI70IBXLZ6VI7OWRP5","url":"https://gershmanlab.com/experiments/alicia/teaching/experiment/?hitId=3VEI3XUCZRJ0GI70IBXLZ6VI7OWRP5&workerId=A2P53AN2M8IWFP&assignmentId=3LRKMWOKB63FCMQFHWLOEFLB5L22ZW&a=KMRL5&tp_a=KMRL5&b=3LRKMWOKB63FCMQFHWLOEFLB5L22ZW&tp_b=3LRKMWOKB63FCMQFHWLOEFLB5L22ZW&c=368485&tp_c=368485","heads":0,"tails":0,"studentIndex":4,"studentTrueHypers":{"a":9,"b":1},"studentGuess":"0.90","delta":0.20000000000000007,"totalExamples":0,"bonus":0,"bonusSoFar":0},{"rt":4717,"response":{"heads":"1","tails":"1"},"type":"response","condition":"nonSeqFull","trueTheta":0.7,"classrooms":["A","B"],"studentTrueClassroom":"B","exampleSet":"first","trial_type":"survey-html-form","trial_index":46,"time_elapsed":458020,"internal_node_id":"0.0-40.2-0.2","params":{"nStudents":8,"maxExamples":70,"completionMinutes":15,"basePay":3,"maxBonus":6,"perTrialBonus":0.7,"perTrialBonusThreshold":0.08,"exampleCost":0.01},"classroomParams":{"A":{"a":1,"b":9},"B":{"a":9,"b":1}},"conditions":["nonSeqFull","nonSeqPartial","seqNoFeedback","seqFeedback"],"classroomPairings":[["A","B"]],"coinWeights":[0.3,0.7],"subjectId":"A2P53AN2M8IWFP","assignmentId":"3LRKMWOKB63FCMQFHWLOEFLB5L22ZW","hitId":"3VEI3XUCZRJ0GI70IBXLZ6VI7OWRP5","url":"https://gershmanlab.com/experiments/alicia/teaching/experiment/?hitId=3VEI3XUCZRJ0GI70IBXLZ6VI7OWRP5&workerId=A2P53AN2M8IWFP&assignmentId=3LRKMWOKB63FCMQFHWLOEFLB5L22ZW&a=KMRL5&tp_a=KMRL5&b=3LRKMWOKB63FCMQFHWLOEFLB5L22ZW&tp_b=3LRKMWOKB63FCMQFHWLOEFLB5L22ZW&c=368485&tp_c=368485","heads":1,"tails":1,"studentIndex":4,"studentTrueHypers":{"a":9,"b":1},"studentGuess":"0.83","delta":0.13,"totalExamples":2,"bonus":0,"bonusSoFar":0},{"rt":4959,"response":{"heads":"40","tails":"40"},"type":"response","condition":"nonSeqPartial","trueTheta":0.3,"classrooms":["A","B"],"studentTrueClassroom":"A","exampleSet":"first","trial_type":"survey-html-form","trial_index":52,"time_elapsed":473574,"internal_node_id":"0.0-46.0-0.0","params":{"nStudents":8,"maxExamples":70,"completionMinutes":15,"basePay":3,"maxBonus":6,"perTrialBonus":0.7,"perTrialBonusThreshold":0.08,"exampleCost":0.01},"classroomParams":{"A":{"a":1,"b":9},"B":{"a":9,"b":1}},"conditions":["nonSeqFull","nonSeqPartial","seqNoFeedback","seqFeedback"],"classroomPairings":[["A","B"]],"coinWeights":[0.3,0.7],"subjectId":"A2P53AN2M8IWFP","assignmentId":"3LRKMWOKB63FCMQFHWLOEFLB5L22ZW","hitId":"3VEI3XUCZRJ0GI70IBXLZ6VI7OWRP5","url":"https://gershmanlab.com/experiments/alicia/teaching/experiment/?hitId=3VEI3XUCZRJ0GI70IBXLZ6VI7OWRP5&workerId=A2P53AN2M8IWFP&assignmentId=3LRKMWOKB63FCMQFHWLOEFLB5L22ZW&a=KMRL5&tp_a=KMRL5&b=3LRKMWOKB63FCMQFHWLOEFLB5L22ZW&tp_b=3LRKMWOKB63FCMQFHWLOEFLB5L22ZW&c=368485&tp_c=368485","heads":40,"tails":40,"studentIndex":5,"studentTrueHypers":{"a":1,"b":9},"studentGuess":"0.46","delta":0.16000000000000003,"totalExamples":80,"bonus":0,"bonusSoFar":0},{"rt":8031,"response":{"heads":"35","tails":"10"},"type":"response","condition":"nonSeqPartial","trueTheta":0.3,"classrooms":["A","B"],"studentTrueClassroom":"A","exampleSet":"first","trial_type":"survey-html-form","trial_index":53,"time_elapsed":481606,"internal_node_id":"0.0-46.1-0.1","params":{"nStudents":8,"maxExamples":70,"completionMinutes":15,"basePay":3,"maxBonus":6,"perTrialBonus":0.7,"perTrialBonusThreshold":0.08,"exampleCost":0.01},"classroomParams":{"A":{"a":1,"b":9},"B":{"a":9,"b":1}},"conditions":["nonSeqFull","nonSeqPartial","seqNoFeedback","seqFeedback"],"classroomPairings":[["A","B"]],"coinWeights":[0.3,0.7],"subjectId":"A2P53AN2M8IWFP","assignmentId":"3LRKMWOKB63FCMQFHWLOEFLB5L22ZW","hitId":"3VEI3XUCZRJ0GI70IBXLZ6VI7OWRP5","url":"https://gershmanlab.com/experiments/alicia/teaching/experiment/?hitId=3VEI3XUCZRJ0GI70IBXLZ6VI7OWRP5&workerId=A2P53AN2M8IWFP&assignmentId=3LRKMWOKB63FCMQFHWLOEFLB5L22ZW&a=KMRL5&tp_a=KMRL5&b=3LRKMWOKB63FCMQFHWLOEFLB5L22ZW&tp_b=3LRKMWOKB63FCMQFHWLOEFLB5L22ZW&c=368485&tp_c=368485","heads":35,"tails":10,"studentIndex":5,"studentTrueHypers":{"a":1,"b":9},"studentGuess":"0.65","delta":0.35000000000000003,"totalExamples":45,"bonus":0,"bonusSoFar":0},{"rt":4597,"response":{"heads":"20","tails":"20"},"type":"response","condition":"seqFeedback","trueTheta":0.7,"classrooms":["A","B"],"studentTrueClassroom":"B","exampleSet":"first","trial_type":"survey-html-form","trial_index":59,"time_elapsed":497102,"internal_node_id":"0.0-52.0-0.0","params":{"nStudents":8,"maxExamples":70,"completionMinutes":15,"basePay":3,"maxBonus":6,"perTrialBonus":0.7,"perTrialBonusThreshold":0.08,"exampleCost":0.01},"classroomParams":{"A":{"a":1,"b":9},"B":{"a":9,"b":1}},"conditions":["nonSeqFull","nonSeqPartial","seqNoFeedback","seqFeedback"],"classroomPairings":[["A","B"]],"coinWeights":[0.3,0.7],"subjectId":"A2P53AN2M8IWFP","assignmentId":"3LRKMWOKB63FCMQFHWLOEFLB5L22ZW","hitId":"3VEI3XUCZRJ0GI70IBXLZ6VI7OWRP5","url":"https://gershmanlab.com/experiments/alicia/teaching/experiment/?hitId=3VEI3XUCZRJ0GI70IBXLZ6VI7OWRP5&workerId=A2P53AN2M8IWFP&assignmentId=3LRKMWOKB63FCMQFHWLOEFLB5L22ZW&a=KMRL5&tp_a=KMRL5&b=3LRKMWOKB63FCMQFHWLOEFLB5L22ZW&tp_b=3LRKMWOKB63FCMQFHWLOEFLB5L22ZW&c=368485&tp_c=368485","heads":20,"tails":20,"studentIndex":6,"studentTrueHypers":{"a":9,"b":1},"studentGuess":"0.58","delta":0.12,"totalExamples":40,"bonusSoFar":0},{"rt":3778,"response":{"heads":"20","tails":"20"},"type":"response","condition":"seqFeedback","trueTheta":0.7,"classrooms":["A","B"],"studentTrueClassroom":"B","exampleSet":"second","trial_type":"survey-html-form","trial_index":63,"time_elapsed":508690,"internal_node_id":"0.0-56.0-0.0","params":{"nStudents":8,"maxExamples":70,"completionMinutes":15,"basePay":3,"maxBonus":6,"perTrialBonus":0.7,"perTrialBonusThreshold":0.08,"exampleCost":0.01},"classroomParams":{"A":{"a":1,"b":9},"B":{"a":9,"b":1}},"conditions":["nonSeqFull","nonSeqPartial","seqNoFeedback","seqFeedback"],"classroomPairings":[["A","B"]],"coinWeights":[0.3,0.7],"subjectId":"A2P53AN2M8IWFP","assignmentId":"3LRKMWOKB63FCMQFHWLOEFLB5L22ZW","hitId":"3VEI3XUCZRJ0GI70IBXLZ6VI7OWRP5","url":"https://gershmanlab.com/experiments/alicia/teaching/experiment/?hitId=3VEI3XUCZRJ0GI70IBXLZ6VI7OWRP5&workerId=A2P53AN2M8IWFP&assignmentId=3LRKMWOKB63FCMQFHWLOEFLB5L22ZW&a=KMRL5&tp_a=KMRL5&b=3LRKMWOKB63FCMQFHWLOEFLB5L22ZW&tp_b=3LRKMWOKB63FCMQFHWLOEFLB5L22ZW&c=368485&tp_c=368485","firstResponseHeads":20,"firstResponseTails":20,"secondResponseHeads":20,"secondResponseTails":20,"totalHeads":40,"totalTails":40,"studentIndex":6,"studentTrueHypers":{"a":9,"b":1},"studentGuess":"0.54","delta":0.15999999999999992,"bonus":0,"bonusSoFar":0,"totalExamples":80},{"rt":4520,"response":{"heads":"15","tails":"10"},"type":"response","condition":"nonSeqFull","trueTheta":0.3,"classrooms":["A","B"],"studentTrueClassroom":"A","exampleSet":"first","trial_type":"survey-html-form","trial_index":69,"time_elapsed":524710,"internal_node_id":"0.0-62.0-0.0","params":{"nStudents":8,"maxExamples":70,"completionMinutes":15,"basePay":3,"maxBonus":6,"perTrialBonus":0.7,"perTrialBonusThreshold":0.08,"exampleCost":0.01},"classroomParams":{"A":{"a":1,"b":9},"B":{"a":9,"b":1}},"conditions":["nonSeqFull","nonSeqPartial","seqNoFeedback","seqFeedback"],"classroomPairings":[["A","B"]],"coinWeights":[0.3,0.7],"subjectId":"A2P53AN2M8IWFP","assignmentId":"3LRKMWOKB63FCMQFHWLOEFLB5L22ZW","hitId":"3VEI3XUCZRJ0GI70IBXLZ6VI7OWRP5","url":"https://gershmanlab.com/experiments/alicia/teaching/experiment/?hitId=3VEI3XUCZRJ0GI70IBXLZ6VI7OWRP5&workerId=A2P53AN2M8IWFP&assignmentId=3LRKMWOKB63FCMQFHWLOEFLB5L22ZW&a=KMRL5&tp_a=KMRL5&b=3LRKMWOKB63FCMQFHWLOEFLB5L22ZW&tp_b=3LRKMWOKB63FCMQFHWLOEFLB5L22ZW&c=368485&tp_c=368485","heads":15,"tails":10,"studentIndex":7,"studentTrueHypers":{"a":1,"b":9},"studentGuess":"0.46","delta":0.16000000000000003,"totalExamples":25,"bonus":0,"bonusSoFar":0},{"rt":29580,"response":{"gender":"male","age":"34","understood":"yes","strategy":"try to show them enough while saving some of the possible bonus. I was obviously very bad at it.","comments":"I answered thoughtfully, good luck!"},"type":"response","trial_type":"survey-html-form","trial_index":73,"time_elapsed":560942,"internal_node_id":"0.0-67.0","params":{"nStudents":8,"maxExamples":70,"completionMinutes":15,"basePay":3,"maxBonus":6,"perTrialBonus":0.7,"perTrialBonusThreshold":0.08,"exampleCost":0.01},"classroomParams":{"A":{"a":1,"b":9},"B":{"a":9,"b":1}},"conditions":["nonSeqFull","nonSeqPartial","seqNoFeedback","seqFeedback"],"classroomPairings":[["A","B"]],"coinWeights":[0.3,0.7],"subjectId":"A2P53AN2M8IWFP","assignmentId":"3LRKMWOKB63FCMQFHWLOEFLB5L22ZW","hitId":"3VEI3XUCZRJ0GI70IBXLZ6VI7OWRP5","url":"https://gershmanlab.com/experiments/alicia/teaching/experiment/?hitId=3VEI3XUCZRJ0GI70IBXLZ6VI7OWRP5&workerId=A2P53AN2M8IWFP&assignmentId=3LRKMWOKB63FCMQFHWLOEFLB5L22ZW&a=KMRL5&tp_a=KMRL5&b=3LRKMWOKB63FCMQFHWLOEFLB5L22ZW&tp_b=3LRKMWOKB63FCMQFHWLOEFLB5L22ZW&c=368485&tp_c=368485","totalBonus":0}]