[{"rt":67994,"response":{"heads":"10","tails":"20"},"type":"response","condition":"seqNoFeedback","trueTheta":0.3,"classrooms":["A","B"],"studentTrueClassroom":"A","exampleSet":"first","trial_type":"survey-html-form","trial_index":10,"time_elapsed":1036649,"internal_node_id":"0.0-6.0-0.0","params":{"nStudents":8,"maxExamples":70,"completionMinutes":15,"basePay":3,"maxBonus":6,"perTrialBonus":0.7,"perTrialBonusThreshold":0.08,"exampleCost":0.01},"classroomParams":{"A":{"a":1,"b":9},"B":{"a":9,"b":1}},"conditions":["nonSeqFull","nonSeqPartial","seqNoFeedback","seqFeedback"],"classroomPairings":[["A","B"]],"coinWeights":[0.3,0.7],"subjectId":"A2V6E7SGEU0EFD","assignmentId":"37FMASSAYDDN59110LQDFDLP3EDBIA","hitId":"391FPZIE4C80JT1T3SKLV8GBSWQUH7","url":"https://gershmanlab.com/experiments/alicia/teaching/experiment/?hitId=391FPZIE4C80JT1T3SKLV8GBSWQUH7&workerId=A2V6E7SGEU0EFD&assignmentId=37FMASSAYDDN59110LQDFDLP3EDBIA&a=AAF75&tp_a=AAF75&b=37FMASSAYDDN59110LQDFDLP3EDBIA&tp_b=37FMASSAYDDN59110LQDFDLP3EDBIA&c=368485&tp_c=368485","heads":10,"tails":20,"studentIndex":0,"studentTrueHypers":{"a":1,"b":9},"studentGuess":"0.28","delta":0.019999999999999962,"totalExamples":30,"bonusSoFar":0},{"rt":15865,"response":{"heads":"10","tails":"25"},"type":"response","condition":"seqNoFeedback","trueTheta":0.3,"classrooms":["A","B"],"studentTrueClassroom":"A","exampleSet":"second","trial_type":"survey-html-form","trial_index":13,"time_elapsed":1058773,"internal_node_id":"0.0-9.0-0.0","params":{"nStudents":8,"maxExamples":70,"completionMinutes":15,"basePay":3,"maxBonus":6,"perTrialBonus":0.7,"perTrialBonusThreshold":0.08,"exampleCost":0.01},"classroomParams":{"A":{"a":1,"b":9},"B":{"a":9,"b":1}},"conditions":["nonSeqFull","nonSeqPartial","seqNoFeedback","seqFeedback"],"classroomPairings":[["A","B"]],"coinWeights":[0.3,0.7],"subjectId":"A2V6E7SGEU0EFD","assignmentId":"37FMASSAYDDN59110LQDFDLP3EDBIA","hitId":"391FPZIE4C80JT1T3SKLV8GBSWQUH7","url":"https://gershmanlab.com/experiments/alicia/teaching/experiment/?hitId=391FPZIE4C80JT1T3SKLV8GBSWQUH7&workerId=A2V6E7SGEU0EFD&assignmentId=37FMASSAYDDN59110LQDFDLP3EDBIA&a=AAF75&tp_a=AAF75&b=37FMASSAYDDN59110LQDFDLP3EDBIA&tp_b=37FMASSAYDDN59110LQDFDLP3EDBIA&c=368485&tp_c=368485","firstResponseHeads":10,"firstResponseTails":20,"secondResponseHeads":10,"secondResponseTails":25,"totalHeads":20,"totalTails":45,"studentIndex":0,"studentTrueHypers":{"a":1,"b":9},"studentGuess":"0.28","delta":0.019999999999999962,"bonus":0.05,"bonusSoFar":0.05,"totalExamples":65},{"rt":17196,"response":{"heads":"3","tails":"7"},"type":"response","condition":"nonSeqFull","trueTheta":0.3,"classrooms":["A","B"],"studentTrueClassroom":"B","exampleSet":"first","trial_type":"survey-html-form","trial_index":19,"time_elapsed":1101411,"internal_node_id":"0.0-15.0-0.0","params":{"nStudents":8,"maxExamples":70,"completionMinutes":15,"basePay":3,"maxBonus":6,"perTrialBonus":0.7,"perTrialBonusThreshold":0.08,"exampleCost":0.01},"classroomParams":{"A":{"a":1,"b":9},"B":{"a":9,"b":1}},"conditions":["nonSeqFull","nonSeqPartial","seqNoFeedback","seqFeedback"],"classroomPairings":[["A","B"]],"coinWeights":[0.3,0.7],"subjectId":"A2V6E7SGEU0EFD","assignmentId":"37FMASSAYDDN59110LQDFDLP3EDBIA","hitId":"391FPZIE4C80JT1T3SKLV8GBSWQUH7","url":"https://gershmanlab.com/experiments/alicia/teaching/experiment/?hitId=391FPZIE4C80JT1T3SKLV8GBSWQUH7&workerId=A2V6E7SGEU0EFD&assignmentId=37FMASSAYDDN59110LQDFDLP3EDBIA&a=AAF75&tp_a=AAF75&b=37FMASSAYDDN59110LQDFDLP3EDBIA&tp_b=37FMASSAYDDN59110LQDFDLP3EDBIA&c=368485&tp_c=368485","heads":3,"tails":7,"studentIndex":1,"studentTrueHypers":{"a":9,"b":1},"studentGuess":"0.60","delta":0.3,"totalExamples":10,"bonus":0,"bonusSoFar":0.05},{"rt":16738,"response":{"heads":"20","tails":"10"},"type":"response","condition":"seqFeedback","trueTheta":0.7,"classrooms":["A","B"],"studentTrueClassroom":"A","exampleSet":"first","trial_type":"survey-html-form","trial_index":25,"time_elapsed":1139367,"internal_node_id":"0.0-21.0-0.0","params":{"nStudents":8,"maxExamples":70,"completionMinutes":15,"basePay":3,"maxBonus":6,"perTrialBonus":0.7,"perTrialBonusThreshold":0.08,"exampleCost":0.01},"classroomParams":{"A":{"a":1,"b":9},"B":{"a":9,"b":1}},"conditions":["nonSeqFull","nonSeqPartial","seqNoFeedback","seqFeedback"],"classroomPairings":[["A","B"]],"coinWeights":[0.3,0.7],"subjectId":"A2V6E7SGEU0EFD","assignmentId":"37FMASSAYDDN59110LQDFDLP3EDBIA","hitId":"391FPZIE4C80JT1T3SKLV8GBSWQUH7","url":"https://gershmanlab.com/experiments/alicia/teaching/experiment/?hitId=391FPZIE4C80JT1T3SKLV8GBSWQUH7&workerId=A2V6E7SGEU0EFD&assignmentId=37FMASSAYDDN59110LQDFDLP3EDBIA&a=AAF75&tp_a=AAF75&b=37FMASSAYDDN59110LQDFDLP3EDBIA&tp_b=37FMASSAYDDN59110LQDFDLP3EDBIA&c=368485&tp_c=368485","heads":20,"tails":10,"studentIndex":2,"studentTrueHypers":{"a":1,"b":9},"studentGuess":"0.53","delta":0.16999999999999993,"totalExamples":30,"bonusSoFar":0.05},{"rt":24493,"response":{"heads":"25","tails":"10"},"type":"response","condition":"seqFeedback","trueTheta":0.7,"classrooms":["A","B"],"studentTrueClassroom":"A","exampleSet":"second","trial_type":"survey-html-form","trial_index":29,"time_elapsed":1174941,"internal_node_id":"0.0-25.0-0.0","params":{"nStudents":8,"maxExamples":70,"completionMinutes":15,"basePay":3,"maxBonus":6,"perTrialBonus":0.7,"perTrialBonusThreshold":0.08,"exampleCost":0.01},"classroomParams":{"A":{"a":1,"b":9},"B":{"a":9,"b":1}},"conditions":["nonSeqFull","nonSeqPartial","seqNoFeedback","seqFeedback"],"classroomPairings":[["A","B"]],"coinWeights":[0.3,0.7],"subjectId":"A2V6E7SGEU0EFD","assignmentId":"37FMASSAYDDN59110LQDFDLP3EDBIA","hitId":"391FPZIE4C80JT1T3SKLV8GBSWQUH7","url":"https://gershmanlab.com/experiments/alicia/teaching/experiment/?hitId=391FPZIE4C80JT1T3SKLV8GBSWQUH7&workerId=A2V6E7SGEU0EFD&assignmentId=37FMASSAYDDN59110LQDFDLP3EDBIA&a=AAF75&tp_a=AAF75&b=37FMASSAYDDN59110LQDFDLP3EDBIA&tp_b=37FMASSAYDDN59110LQDFDLP3EDBIA&c=368485&tp_c=368485","firstResponseHeads":20,"firstResponseTails":10,"secondResponseHeads":25,"secondResponseTails":10,"totalHeads":45,"totalTails":20,"studentIndex":2,"studentTrueHypers":{"a":1,"b":9},"studentGuess":"0.61","delta":0.08999999999999997,"bonus":0,"bonusSoFar":0.05,"totalExamples":65},{"rt":9629,"response":{"heads":"10","tails":"20"},"type":"response","condition":"seqFeedback","trueTheta":0.3,"classrooms":["A","B"],"studentTrueClassroom":"B","exampleSet":"first","trial_type":"survey-html-form","trial_index":35,"time_elapsed":1202807,"internal_node_id":"0.0-31.0-0.0","params":{"nStudents":8,"maxExamples":70,"completionMinutes":15,"basePay":3,"maxBonus":6,"perTrialBonus":0.7,"perTrialBonusThreshold":0.08,"exampleCost":0.01},"classroomParams":{"A":{"a":1,"b":9},"B":{"a":9,"b":1}},"conditions":["nonSeqFull","nonSeqPartial","seqNoFeedback","seqFeedback"],"classroomPairings":[["A","B"]],"coinWeights":[0.3,0.7],"subjectId":"A2V6E7SGEU0EFD","assignmentId":"37FMASSAYDDN59110LQDFDLP3EDBIA","hitId":"391FPZIE4C80JT1T3SKLV8GBSWQUH7","url":"https://gershmanlab.com/experiments/alicia/teaching/experiment/?hitId=391FPZIE4C80JT1T3SKLV8GBSWQUH7&workerId=A2V6E7SGEU0EFD&assignmentId=37FMASSAYDDN59110LQDFDLP3EDBIA&a=AAF75&tp_a=AAF75&b=37FMASSAYDDN59110LQDFDLP3EDBIA&tp_b=37FMASSAYDDN59110LQDFDLP3EDBIA&c=368485&tp_c=368485","heads":10,"tails":20,"studentIndex":3,"studentTrueHypers":{"a":9,"b":1},"studentGuess":"0.47","delta":0.16999999999999998,"totalExamples":30,"bonusSoFar":0.05},{"rt":17001,"response":{"heads":"15","tails":"50"},"type":"response","condition":"seqFeedback","trueTheta":0.3,"classrooms":["A","B"],"studentTrueClassroom":"B","exampleSet":"second","trial_type":"survey-html-form","trial_index":39,"time_elapsed":1228908,"internal_node_id":"0.0-35.0-0.0","params":{"nStudents":8,"maxExamples":70,"completionMinutes":15,"basePay":3,"maxBonus":6,"perTrialBonus":0.7,"perTrialBonusThreshold":0.08,"exampleCost":0.01},"classroomParams":{"A":{"a":1,"b":9},"B":{"a":9,"b":1}},"conditions":["nonSeqFull","nonSeqPartial","seqNoFeedback","seqFeedback"],"classroomPairings":[["A","B"]],"coinWeights":[0.3,0.7],"subjectId":"A2V6E7SGEU0EFD","assignmentId":"37FMASSAYDDN59110LQDFDLP3EDBIA","hitId":"391FPZIE4C80JT1T3SKLV8GBSWQUH7","url":"https://gershmanlab.com/experiments/alicia/teaching/experiment/?hitId=391FPZIE4C80JT1T3SKLV8GBSWQUH7&workerId=A2V6E7SGEU0EFD&assignmentId=37FMASSAYDDN59110LQDFDLP3EDBIA&a=AAF75&tp_a=AAF75&b=37FMASSAYDDN59110LQDFDLP3EDBIA&tp_b=37FMASSAYDDN59110LQDFDLP3EDBIA&c=368485&tp_c=368485","firstResponseHeads":10,"firstResponseTails":20,"secondResponseHeads":15,"secondResponseTails":50,"totalHeads":25,"totalTails":70,"studentIndex":3,"studentTrueHypers":{"a":9,"b":1},"studentGuess":"0.32","delta":0.020000000000000018,"bonus":0,"bonusSoFar":0.05,"totalExamples":95},{"rt":19805,"response":{"heads":"20","tails":"8"},"type":"response","condition":"nonSeqFull","trueTheta":0.7,"classrooms":["A","B"],"studentTrueClassroom":"A","exampleSet":"first","trial_type":"survey-html-form","trial_index":45,"time_elapsed":1262501,"internal_node_id":"0.0-41.0-0.0","params":{"nStudents":8,"maxExamples":70,"completionMinutes":15,"basePay":3,"maxBonus":6,"perTrialBonus":0.7,"perTrialBonusThreshold":0.08,"exampleCost":0.01},"classroomParams":{"A":{"a":1,"b":9},"B":{"a":9,"b":1}},"conditions":["nonSeqFull","nonSeqPartial","seqNoFeedback","seqFeedback"],"classroomPairings":[["A","B"]],"coinWeights":[0.3,0.7],"subjectId":"A2V6E7SGEU0EFD","assignmentId":"37FMASSAYDDN59110LQDFDLP3EDBIA","hitId":"391FPZIE4C80JT1T3SKLV8GBSWQUH7","url":"https://gershmanlab.com/experiments/alicia/teaching/experiment/?hitId=391FPZIE4C80JT1T3SKLV8GBSWQUH7&workerId=A2V6E7SGEU0EFD&assignmentId=37FMASSAYDDN59110LQDFDLP3EDBIA&a=AAF75&tp_a=AAF75&b=37FMASSAYDDN59110LQDFDLP3EDBIA&tp_b=37FMASSAYDDN59110LQDFDLP3EDBIA&c=368485&tp_c=368485","heads":20,"tails":8,"studentIndex":4,"studentTrueHypers":{"a":1,"b":9},"studentGuess":"0.55","delta":0.1499999999999999,"totalExamples":28,"bonus":0,"bonusSoFar":0.05},{"rt":25560,"response":{"heads":"15","tails":"50"},"type":"response","condition":"seqNoFeedback","trueTheta":0.7,"classrooms":["A","B"],"studentTrueClassroom":"B","exampleSet":"first","trial_type":"survey-html-form","trial_index":51,"time_elapsed":1303407,"internal_node_id":"0.0-47.0-0.0","params":{"nStudents":8,"maxExamples":70,"completionMinutes":15,"basePay":3,"maxBonus":6,"perTrialBonus":0.7,"perTrialBonusThreshold":0.08,"exampleCost":0.01},"classroomParams":{"A":{"a":1,"b":9},"B":{"a":9,"b":1}},"conditions":["nonSeqFull","nonSeqPartial","seqNoFeedback","seqFeedback"],"classroomPairings":[["A","B"]],"coinWeights":[0.3,0.7],"subjectId":"A2V6E7SGEU0EFD","assignmentId":"37FMASSAYDDN59110LQDFDLP3EDBIA","hitId":"391FPZIE4C80JT1T3SKLV8GBSWQUH7","url":"https://gershmanlab.com/experiments/alicia/teaching/experiment/?hitId=391FPZIE4C80JT1T3SKLV8GBSWQUH7&workerId=A2V6E7SGEU0EFD&assignmentId=37FMASSAYDDN59110LQDFDLP3EDBIA&a=AAF75&tp_a=AAF75&b=37FMASSAYDDN59110LQDFDLP3EDBIA&tp_b=37FMASSAYDDN59110LQDFDLP3EDBIA&c=368485&tp_c=368485","heads":15,"tails":50,"studentIndex":5,"studentTrueHypers":{"a":9,"b":1},"studentGuess":"0.32","delta":0.37999999999999995,"totalExamples":65,"bonusSoFar":0.05},{"rt":11569,"response":{"heads":"10","tails":"25"},"type":"response","condition":"seqNoFeedback","trueTheta":0.7,"classrooms":["A","B"],"studentTrueClassroom":"B","exampleSet":"second","trial_type":"survey-html-form","trial_index":54,"time_elapsed":1320983,"internal_node_id":"0.0-50.0-0.0","params":{"nStudents":8,"maxExamples":70,"completionMinutes":15,"basePay":3,"maxBonus":6,"perTrialBonus":0.7,"perTrialBonusThreshold":0.08,"exampleCost":0.01},"classroomParams":{"A":{"a":1,"b":9},"B":{"a":9,"b":1}},"conditions":["nonSeqFull","nonSeqPartial","seqNoFeedback","seqFeedback"],"classroomPairings":[["A","B"]],"coinWeights":[0.3,0.7],"subjectId":"A2V6E7SGEU0EFD","assignmentId":"37FMASSAYDDN59110LQDFDLP3EDBIA","hitId":"391FPZIE4C80JT1T3SKLV8GBSWQUH7","url":"https://gershmanlab.com/experiments/alicia/teaching/experiment/?hitId=391FPZIE4C80JT1T3SKLV8GBSWQUH7&workerId=A2V6E7SGEU0EFD&assignmentId=37FMASSAYDDN59110LQDFDLP3EDBIA&a=AAF75&tp_a=AAF75&b=37FMASSAYDDN59110LQDFDLP3EDBIA&tp_b=37FMASSAYDDN59110LQDFDLP3EDBIA&c=368485&tp_c=368485","firstResponseHeads":15,"firstResponseTails":50,"secondResponseHeads":10,"secondResponseTails":25,"totalHeads":25,"totalTails":75,"studentIndex":5,"studentTrueHypers":{"a":9,"b":1},"studentGuess":"0.31","delta":0.38999999999999996,"bonus":0,"bonusSoFar":0.05,"totalExamples":100},{"rt":6523,"response":{"heads":"10","tails":"25"},"type":"response","condition":"nonSeqPartial","trueTheta":0.3,"classrooms":["A","B"],"studentTrueClassroom":"A","exampleSet":"first","trial_type":"survey-html-form","trial_index":60,"time_elapsed":1355790,"internal_node_id":"0.0-56.0-0.0","params":{"nStudents":8,"maxExamples":70,"completionMinutes":15,"basePay":3,"maxBonus":6,"perTrialBonus":0.7,"perTrialBonusThreshold":0.08,"exampleCost":0.01},"classroomParams":{"A":{"a":1,"b":9},"B":{"a":9,"b":1}},"conditions":["nonSeqFull","nonSeqPartial","seqNoFeedback","seqFeedback"],"classroomPairings":[["A","B"]],"coinWeights":[0.3,0.7],"subjectId":"A2V6E7SGEU0EFD","assignmentId":"37FMASSAYDDN59110LQDFDLP3EDBIA","hitId":"391FPZIE4C80JT1T3SKLV8GBSWQUH7","url":"https://gershmanlab.com/experiments/alicia/teaching/experiment/?hitId=391FPZIE4C80JT1T3SKLV8GBSWQUH7&workerId=A2V6E7SGEU0EFD&assignmentId=37FMASSAYDDN59110LQDFDLP3EDBIA&a=AAF75&tp_a=AAF75&b=37FMASSAYDDN59110LQDFDLP3EDBIA&tp_b=37FMASSAYDDN59110LQDFDLP3EDBIA&c=368485&tp_c=368485","heads":10,"tails":25,"studentIndex":6,"studentTrueHypers":{"a":1,"b":9},"studentGuess":"0.24","delta":0.06,"totalExamples":35,"bonus":0.35,"bonusSoFar":0.4},{"rt":14265,"response":{"heads":"50","tails":"16"},"type":"response","condition":"nonSeqPartial","trueTheta":0.7,"classrooms":["A","B"],"studentTrueClassroom":"A","exampleSet":"first","trial_type":"survey-html-form","trial_index":66,"time_elapsed":1387413,"internal_node_id":"0.0-62.0-0.0","params":{"nStudents":8,"maxExamples":70,"completionMinutes":15,"basePay":3,"maxBonus":6,"perTrialBonus":0.7,"perTrialBonusThreshold":0.08,"exampleCost":0.01},"classroomParams":{"A":{"a":1,"b":9},"B":{"a":9,"b":1}},"conditions":["nonSeqFull","nonSeqPartial","seqNoFeedback","seqFeedback"],"classroomPairings":[["A","B"]],"coinWeights":[0.3,0.7],"subjectId":"A2V6E7SGEU0EFD","assignmentId":"37FMASSAYDDN59110LQDFDLP3EDBIA","hitId":"391FPZIE4C80JT1T3SKLV8GBSWQUH7","url":"https://gershmanlab.com/experiments/alicia/teaching/experiment/?hitId=391FPZIE4C80JT1T3SKLV8GBSWQUH7&workerId=A2V6E7SGEU0EFD&assignmentId=37FMASSAYDDN59110LQDFDLP3EDBIA&a=AAF75&tp_a=AAF75&b=37FMASSAYDDN59110LQDFDLP3EDBIA&tp_b=37FMASSAYDDN59110LQDFDLP3EDBIA&c=368485&tp_c=368485","heads":50,"tails":16,"studentIndex":7,"studentTrueHypers":{"a":1,"b":9},"studentGuess":"0.67","delta":0.029999999999999916,"totalExamples":66,"bonus":0.04,"bonusSoFar":0.44},{"rt":34435,"response":{"gender":"male","age":"33","understood":"yes","strategy":"Eventually started using larger fractions like 15/50 instead of 10/24 ","comments":""},"type":"response","trial_type":"survey-html-form","trial_index":70,"time_elapsed":1429647,"internal_node_id":"0.0-67.0","params":{"nStudents":8,"maxExamples":70,"completionMinutes":15,"basePay":3,"maxBonus":6,"perTrialBonus":0.7,"perTrialBonusThreshold":0.08,"exampleCost":0.01},"classroomParams":{"A":{"a":1,"b":9},"B":{"a":9,"b":1}},"conditions":["nonSeqFull","nonSeqPartial","seqNoFeedback","seqFeedback"],"classroomPairings":[["A","B"]],"coinWeights":[0.3,0.7],"subjectId":"A2V6E7SGEU0EFD","assignmentId":"37FMASSAYDDN59110LQDFDLP3EDBIA","hitId":"391FPZIE4C80JT1T3SKLV8GBSWQUH7","url":"https://gershmanlab.com/experiments/alicia/teaching/experiment/?hitId=391FPZIE4C80JT1T3SKLV8GBSWQUH7&workerId=A2V6E7SGEU0EFD&assignmentId=37FMASSAYDDN59110LQDFDLP3EDBIA&a=AAF75&tp_a=AAF75&b=37FMASSAYDDN59110LQDFDLP3EDBIA&tp_b=37FMASSAYDDN59110LQDFDLP3EDBIA&c=368485&tp_c=368485","totalBonus":0.44}]