[{"rt":17712,"response":{"heads":"3","tails":"7"},"type":"response","condition":"seqFeedback","trueTheta":0.3,"classrooms":["A","B"],"studentTrueClassroom":"A","exampleSet":"first","trial_type":"survey-html-form","trial_index":7,"time_elapsed":195100,"internal_node_id":"0.0-6.0-0.0","params":{"nStudents":8,"maxExamples":70,"completionMinutes":15,"basePay":3,"maxBonus":6,"perTrialBonus":0.7,"perTrialBonusThreshold":0.08,"exampleCost":0.01},"classroomParams":{"A":{"a":1,"b":9},"B":{"a":9,"b":1}},"conditions":["nonSeqFull","nonSeqPartial","seqNoFeedback","seqFeedback"],"classroomPairings":[["A","B"]],"coinWeights":[0.3,0.7],"subjectId":"A2VRDE2FHCBMF8","assignmentId":"338JKRMM27LIQ4LPOP8WKQ04LJDAHL","hitId":"3GL25Y6843GESBWZZUBL7KNB306MX0","url":"https://gershmanlab.com/experiments/alicia/teaching/experiment/?hitId=3GL25Y6843GESBWZZUBL7KNB306MX0&workerId=A2VRDE2FHCBMF8&assignmentId=338JKRMM27LIQ4LPOP8WKQ04LJDAHL&a=MK835&tp_a=MK835&b=338JKRMM27LIQ4LPOP8WKQ04LJDAHL&tp_b=338JKRMM27LIQ4LPOP8WKQ04LJDAHL&c=368485&tp_c=368485","heads":3,"tails":7,"studentIndex":0,"studentTrueHypers":{"a":1,"b":9},"studentGuess":"0.20","delta":0.09999999999999998,"totalExamples":10,"bonusSoFar":0},{"rt":18296,"response":{"heads":"4","tails":"6"},"type":"response","condition":"seqFeedback","trueTheta":0.3,"classrooms":["A","B"],"studentTrueClassroom":"A","exampleSet":"second","trial_type":"survey-html-form","trial_index":11,"time_elapsed":229195,"internal_node_id":"0.0-10.0-0.0","params":{"nStudents":8,"maxExamples":70,"completionMinutes":15,"basePay":3,"maxBonus":6,"perTrialBonus":0.7,"perTrialBonusThreshold":0.08,"exampleCost":0.01},"classroomParams":{"A":{"a":1,"b":9},"B":{"a":9,"b":1}},"conditions":["nonSeqFull","nonSeqPartial","seqNoFeedback","seqFeedback"],"classroomPairings":[["A","B"]],"coinWeights":[0.3,0.7],"subjectId":"A2VRDE2FHCBMF8","assignmentId":"338JKRMM27LIQ4LPOP8WKQ04LJDAHL","hitId":"3GL25Y6843GESBWZZUBL7KNB306MX0","url":"https://gershmanlab.com/experiments/alicia/teaching/experiment/?hitId=3GL25Y6843GESBWZZUBL7KNB306MX0&workerId=A2VRDE2FHCBMF8&assignmentId=338JKRMM27LIQ4LPOP8WKQ04LJDAHL&a=MK835&tp_a=MK835&b=338JKRMM27LIQ4LPOP8WKQ04LJDAHL&tp_b=338JKRMM27LIQ4LPOP8WKQ04LJDAHL&c=368485&tp_c=368485","firstResponseHeads":3,"firstResponseTails":7,"secondResponseHeads":4,"secondResponseTails":6,"totalHeads":7,"totalTails":13,"studentIndex":0,"studentTrueHypers":{"a":1,"b":9},"studentGuess":"0.27","delta":0.02999999999999997,"bonus":0.5,"bonusSoFar":0.5,"totalExamples":20},{"rt":10679,"response":{"heads":"1","tails":"9"},"type":"response","condition":"nonSeqFull","trueTheta":0.3,"classrooms":["A","B"],"studentTrueClassroom":"B","exampleSet":"first","trial_type":"survey-html-form","trial_index":17,"time_elapsed":256796,"internal_node_id":"0.0-16.0-0.0","params":{"nStudents":8,"maxExamples":70,"completionMinutes":15,"basePay":3,"maxBonus":6,"perTrialBonus":0.7,"perTrialBonusThreshold":0.08,"exampleCost":0.01},"classroomParams":{"A":{"a":1,"b":9},"B":{"a":9,"b":1}},"conditions":["nonSeqFull","nonSeqPartial","seqNoFeedback","seqFeedback"],"classroomPairings":[["A","B"]],"coinWeights":[0.3,0.7],"subjectId":"A2VRDE2FHCBMF8","assignmentId":"338JKRMM27LIQ4LPOP8WKQ04LJDAHL","hitId":"3GL25Y6843GESBWZZUBL7KNB306MX0","url":"https://gershmanlab.com/experiments/alicia/teaching/experiment/?hitId=3GL25Y6843GESBWZZUBL7KNB306MX0&workerId=A2VRDE2FHCBMF8&assignmentId=338JKRMM27LIQ4LPOP8WKQ04LJDAHL&a=MK835&tp_a=MK835&b=338JKRMM27LIQ4LPOP8WKQ04LJDAHL&tp_b=338JKRMM27LIQ4LPOP8WKQ04LJDAHL&c=368485&tp_c=368485","heads":1,"tails":9,"studentIndex":1,"studentTrueHypers":{"a":9,"b":1},"studentGuess":"0.50","delta":0.2,"totalExamples":10,"bonus":0,"bonusSoFar":0.5},{"rt":9271,"response":{"heads":"7","tails":"3"},"type":"response","condition":"seqNoFeedback","trueTheta":0.7,"classrooms":["A","B"],"studentTrueClassroom":"B","exampleSet":"first","trial_type":"survey-html-form","trial_index":23,"time_elapsed":282227,"internal_node_id":"0.0-22.0-0.0","params":{"nStudents":8,"maxExamples":70,"completionMinutes":15,"basePay":3,"maxBonus":6,"perTrialBonus":0.7,"perTrialBonusThreshold":0.08,"exampleCost":0.01},"classroomParams":{"A":{"a":1,"b":9},"B":{"a":9,"b":1}},"conditions":["nonSeqFull","nonSeqPartial","seqNoFeedback","seqFeedback"],"classroomPairings":[["A","B"]],"coinWeights":[0.3,0.7],"subjectId":"A2VRDE2FHCBMF8","assignmentId":"338JKRMM27LIQ4LPOP8WKQ04LJDAHL","hitId":"3GL25Y6843GESBWZZUBL7KNB306MX0","url":"https://gershmanlab.com/experiments/alicia/teaching/experiment/?hitId=3GL25Y6843GESBWZZUBL7KNB306MX0&workerId=A2VRDE2FHCBMF8&assignmentId=338JKRMM27LIQ4LPOP8WKQ04LJDAHL&a=MK835&tp_a=MK835&b=338JKRMM27LIQ4LPOP8WKQ04LJDAHL&tp_b=338JKRMM27LIQ4LPOP8WKQ04LJDAHL&c=368485&tp_c=368485","heads":7,"tails":3,"studentIndex":2,"studentTrueHypers":{"a":9,"b":1},"studentGuess":"0.80","delta":0.10000000000000009,"totalExamples":10,"bonusSoFar":0.5},{"rt":8878,"response":{"heads":"7","tails":"3"},"type":"response","condition":"seqNoFeedback","trueTheta":0.7,"classrooms":["A","B"],"studentTrueClassroom":"B","exampleSet":"second","trial_type":"survey-html-form","trial_index":26,"time_elapsed":297131,"internal_node_id":"0.0-25.0-0.0","params":{"nStudents":8,"maxExamples":70,"completionMinutes":15,"basePay":3,"maxBonus":6,"perTrialBonus":0.7,"perTrialBonusThreshold":0.08,"exampleCost":0.01},"classroomParams":{"A":{"a":1,"b":9},"B":{"a":9,"b":1}},"conditions":["nonSeqFull","nonSeqPartial","seqNoFeedback","seqFeedback"],"classroomPairings":[["A","B"]],"coinWeights":[0.3,0.7],"subjectId":"A2VRDE2FHCBMF8","assignmentId":"338JKRMM27LIQ4LPOP8WKQ04LJDAHL","hitId":"3GL25Y6843GESBWZZUBL7KNB306MX0","url":"https://gershmanlab.com/experiments/alicia/teaching/experiment/?hitId=3GL25Y6843GESBWZZUBL7KNB306MX0&workerId=A2VRDE2FHCBMF8&assignmentId=338JKRMM27LIQ4LPOP8WKQ04LJDAHL&a=MK835&tp_a=MK835&b=338JKRMM27LIQ4LPOP8WKQ04LJDAHL&tp_b=338JKRMM27LIQ4LPOP8WKQ04LJDAHL&c=368485&tp_c=368485","firstResponseHeads":7,"firstResponseTails":3,"secondResponseHeads":7,"secondResponseTails":3,"totalHeads":14,"totalTails":6,"studentIndex":2,"studentTrueHypers":{"a":9,"b":1},"studentGuess":"0.77","delta":0.07000000000000006,"bonus":0.5,"bonusSoFar":1,"totalExamples":20},{"rt":11375,"response":{"heads":"8","tails":"2"},"type":"response","condition":"nonSeqPartial","trueTheta":0.7,"classrooms":["A","B"],"studentTrueClassroom":"A","exampleSet":"first","trial_type":"survey-html-form","trial_index":32,"time_elapsed":323915,"internal_node_id":"0.0-31.0-0.0","params":{"nStudents":8,"maxExamples":70,"completionMinutes":15,"basePay":3,"maxBonus":6,"perTrialBonus":0.7,"perTrialBonusThreshold":0.08,"exampleCost":0.01},"classroomParams":{"A":{"a":1,"b":9},"B":{"a":9,"b":1}},"conditions":["nonSeqFull","nonSeqPartial","seqNoFeedback","seqFeedback"],"classroomPairings":[["A","B"]],"coinWeights":[0.3,0.7],"subjectId":"A2VRDE2FHCBMF8","assignmentId":"338JKRMM27LIQ4LPOP8WKQ04LJDAHL","hitId":"3GL25Y6843GESBWZZUBL7KNB306MX0","url":"https://gershmanlab.com/experiments/alicia/teaching/experiment/?hitId=3GL25Y6843GESBWZZUBL7KNB306MX0&workerId=A2VRDE2FHCBMF8&assignmentId=338JKRMM27LIQ4LPOP8WKQ04LJDAHL&a=MK835&tp_a=MK835&b=338JKRMM27LIQ4LPOP8WKQ04LJDAHL&tp_b=338JKRMM27LIQ4LPOP8WKQ04LJDAHL&c=368485&tp_c=368485","heads":8,"tails":2,"studentIndex":3,"studentTrueHypers":{"a":1,"b":9},"studentGuess":"0.45","delta":0.24999999999999994,"totalExamples":10,"bonus":0,"bonusSoFar":1},{"rt":6647,"response":{"heads":"3","tails":"7"},"type":"response","condition":"seqNoFeedback","trueTheta":0.3,"classrooms":["A","B"],"studentTrueClassroom":"A","exampleSet":"first","trial_type":"survey-html-form","trial_index":38,"time_elapsed":343579,"internal_node_id":"0.0-37.0-0.0","params":{"nStudents":8,"maxExamples":70,"completionMinutes":15,"basePay":3,"maxBonus":6,"perTrialBonus":0.7,"perTrialBonusThreshold":0.08,"exampleCost":0.01},"classroomParams":{"A":{"a":1,"b":9},"B":{"a":9,"b":1}},"conditions":["nonSeqFull","nonSeqPartial","seqNoFeedback","seqFeedback"],"classroomPairings":[["A","B"]],"coinWeights":[0.3,0.7],"subjectId":"A2VRDE2FHCBMF8","assignmentId":"338JKRMM27LIQ4LPOP8WKQ04LJDAHL","hitId":"3GL25Y6843GESBWZZUBL7KNB306MX0","url":"https://gershmanlab.com/experiments/alicia/teaching/experiment/?hitId=3GL25Y6843GESBWZZUBL7KNB306MX0&workerId=A2VRDE2FHCBMF8&assignmentId=338JKRMM27LIQ4LPOP8WKQ04LJDAHL&a=MK835&tp_a=MK835&b=338JKRMM27LIQ4LPOP8WKQ04LJDAHL&tp_b=338JKRMM27LIQ4LPOP8WKQ04LJDAHL&c=368485&tp_c=368485","heads":3,"tails":7,"studentIndex":4,"studentTrueHypers":{"a":1,"b":9},"studentGuess":"0.20","delta":0.09999999999999998,"totalExamples":10,"bonusSoFar":1},{"rt":14140,"response":{"heads":"3","tails":"7"},"type":"response","condition":"seqNoFeedback","trueTheta":0.3,"classrooms":["A","B"],"studentTrueClassroom":"A","exampleSet":"second","trial_type":"survey-html-form","trial_index":41,"time_elapsed":363731,"internal_node_id":"0.0-40.0-0.0","params":{"nStudents":8,"maxExamples":70,"completionMinutes":15,"basePay":3,"maxBonus":6,"perTrialBonus":0.7,"perTrialBonusThreshold":0.08,"exampleCost":0.01},"classroomParams":{"A":{"a":1,"b":9},"B":{"a":9,"b":1}},"conditions":["nonSeqFull","nonSeqPartial","seqNoFeedback","seqFeedback"],"classroomPairings":[["A","B"]],"coinWeights":[0.3,0.7],"subjectId":"A2VRDE2FHCBMF8","assignmentId":"338JKRMM27LIQ4LPOP8WKQ04LJDAHL","hitId":"3GL25Y6843GESBWZZUBL7KNB306MX0","url":"https://gershmanlab.com/experiments/alicia/teaching/experiment/?hitId=3GL25Y6843GESBWZZUBL7KNB306MX0&workerId=A2VRDE2FHCBMF8&assignmentId=338JKRMM27LIQ4LPOP8WKQ04LJDAHL&a=MK835&tp_a=MK835&b=338JKRMM27LIQ4LPOP8WKQ04LJDAHL&tp_b=338JKRMM27LIQ4LPOP8WKQ04LJDAHL&c=368485&tp_c=368485","firstResponseHeads":3,"firstResponseTails":7,"secondResponseHeads":3,"secondResponseTails":7,"totalHeads":6,"totalTails":14,"studentIndex":4,"studentTrueHypers":{"a":1,"b":9},"studentGuess":"0.23","delta":0.06999999999999998,"bonus":0.5,"bonusSoFar":1.5,"totalExamples":20},{"rt":14300,"response":{"heads":"18","tails":"2"},"type":"response","condition":"nonSeqFull","trueTheta":0.7,"classrooms":["A","B"],"studentTrueClassroom":"A","exampleSet":"first","trial_type":"survey-html-form","trial_index":47,"time_elapsed":392153,"internal_node_id":"0.0-46.0-0.0","params":{"nStudents":8,"maxExamples":70,"completionMinutes":15,"basePay":3,"maxBonus":6,"perTrialBonus":0.7,"perTrialBonusThreshold":0.08,"exampleCost":0.01},"classroomParams":{"A":{"a":1,"b":9},"B":{"a":9,"b":1}},"conditions":["nonSeqFull","nonSeqPartial","seqNoFeedback","seqFeedback"],"classroomPairings":[["A","B"]],"coinWeights":[0.3,0.7],"subjectId":"A2VRDE2FHCBMF8","assignmentId":"338JKRMM27LIQ4LPOP8WKQ04LJDAHL","hitId":"3GL25Y6843GESBWZZUBL7KNB306MX0","url":"https://gershmanlab.com/experiments/alicia/teaching/experiment/?hitId=3GL25Y6843GESBWZZUBL7KNB306MX0&workerId=A2VRDE2FHCBMF8&assignmentId=338JKRMM27LIQ4LPOP8WKQ04LJDAHL&a=MK835&tp_a=MK835&b=338JKRMM27LIQ4LPOP8WKQ04LJDAHL&tp_b=338JKRMM27LIQ4LPOP8WKQ04LJDAHL&c=368485&tp_c=368485","heads":18,"tails":2,"studentIndex":5,"studentTrueHypers":{"a":1,"b":9},"studentGuess":"0.63","delta":0.06999999999999995,"totalExamples":20,"bonus":0.5,"bonusSoFar":2},{"rt":6460,"response":{"heads":"3","tails":"7"},"type":"response","condition":"nonSeqPartial","trueTheta":0.3,"classrooms":["A","B"],"studentTrueClassroom":"B","exampleSet":"first","trial_type":"survey-html-form","trial_index":53,"time_elapsed":411131,"internal_node_id":"0.0-52.0-0.0","params":{"nStudents":8,"maxExamples":70,"completionMinutes":15,"basePay":3,"maxBonus":6,"perTrialBonus":0.7,"perTrialBonusThreshold":0.08,"exampleCost":0.01},"classroomParams":{"A":{"a":1,"b":9},"B":{"a":9,"b":1}},"conditions":["nonSeqFull","nonSeqPartial","seqNoFeedback","seqFeedback"],"classroomPairings":[["A","B"]],"coinWeights":[0.3,0.7],"subjectId":"A2VRDE2FHCBMF8","assignmentId":"338JKRMM27LIQ4LPOP8WKQ04LJDAHL","hitId":"3GL25Y6843GESBWZZUBL7KNB306MX0","url":"https://gershmanlab.com/experiments/alicia/teaching/experiment/?hitId=3GL25Y6843GESBWZZUBL7KNB306MX0&workerId=A2VRDE2FHCBMF8&assignmentId=338JKRMM27LIQ4LPOP8WKQ04LJDAHL&a=MK835&tp_a=MK835&b=338JKRMM27LIQ4LPOP8WKQ04LJDAHL&tp_b=338JKRMM27LIQ4LPOP8WKQ04LJDAHL&c=368485&tp_c=368485","heads":3,"tails":7,"studentIndex":6,"studentTrueHypers":{"a":9,"b":1},"studentGuess":"0.60","delta":0.3,"totalExamples":10,"bonus":0,"bonusSoFar":2},{"rt":9495,"response":{"heads":"8","tails":"2"},"type":"response","condition":"seqFeedback","trueTheta":0.7,"classrooms":["A","B"],"studentTrueClassroom":"B","exampleSet":"first","trial_type":"survey-html-form","trial_index":59,"time_elapsed":437203,"internal_node_id":"0.0-58.0-0.0","params":{"nStudents":8,"maxExamples":70,"completionMinutes":15,"basePay":3,"maxBonus":6,"perTrialBonus":0.7,"perTrialBonusThreshold":0.08,"exampleCost":0.01},"classroomParams":{"A":{"a":1,"b":9},"B":{"a":9,"b":1}},"conditions":["nonSeqFull","nonSeqPartial","seqNoFeedback","seqFeedback"],"classroomPairings":[["A","B"]],"coinWeights":[0.3,0.7],"subjectId":"A2VRDE2FHCBMF8","assignmentId":"338JKRMM27LIQ4LPOP8WKQ04LJDAHL","hitId":"3GL25Y6843GESBWZZUBL7KNB306MX0","url":"https://gershmanlab.com/experiments/alicia/teaching/experiment/?hitId=3GL25Y6843GESBWZZUBL7KNB306MX0&workerId=A2VRDE2FHCBMF8&assignmentId=338JKRMM27LIQ4LPOP8WKQ04LJDAHL&a=MK835&tp_a=MK835&b=338JKRMM27LIQ4LPOP8WKQ04LJDAHL&tp_b=338JKRMM27LIQ4LPOP8WKQ04LJDAHL&c=368485&tp_c=368485","heads":8,"tails":2,"studentIndex":7,"studentTrueHypers":{"a":9,"b":1},"studentGuess":"0.85","delta":0.15000000000000002,"totalExamples":10,"bonusSoFar":2},{"rt":13967,"response":{"heads":"7","tails":"3"},"type":"response","condition":"seqFeedback","trueTheta":0.7,"classrooms":["A","B"],"studentTrueClassroom":"B","exampleSet":"second","trial_type":"survey-html-form","trial_index":63,"time_elapsed":460691,"internal_node_id":"0.0-62.0-0.0","params":{"nStudents":8,"maxExamples":70,"completionMinutes":15,"basePay":3,"maxBonus":6,"perTrialBonus":0.7,"perTrialBonusThreshold":0.08,"exampleCost":0.01},"classroomParams":{"A":{"a":1,"b":9},"B":{"a":9,"b":1}},"conditions":["nonSeqFull","nonSeqPartial","seqNoFeedback","seqFeedback"],"classroomPairings":[["A","B"]],"coinWeights":[0.3,0.7],"subjectId":"A2VRDE2FHCBMF8","assignmentId":"338JKRMM27LIQ4LPOP8WKQ04LJDAHL","hitId":"3GL25Y6843GESBWZZUBL7KNB306MX0","url":"https://gershmanlab.com/experiments/alicia/teaching/experiment/?hitId=3GL25Y6843GESBWZZUBL7KNB306MX0&workerId=A2VRDE2FHCBMF8&assignmentId=338JKRMM27LIQ4LPOP8WKQ04LJDAHL&a=MK835&tp_a=MK835&b=338JKRMM27LIQ4LPOP8WKQ04LJDAHL&tp_b=338JKRMM27LIQ4LPOP8WKQ04LJDAHL&c=368485&tp_c=368485","firstResponseHeads":8,"firstResponseTails":2,"secondResponseHeads":7,"secondResponseTails":3,"totalHeads":15,"totalTails":5,"studentIndex":7,"studentTrueHypers":{"a":9,"b":1},"studentGuess":"0.80","delta":0.10000000000000009,"bonus":0,"bonusSoFar":2,"totalExamples":20},{"rt":161331,"response":{"gender":"male","age":"43","understood":"yes","strategy":"I tried to provide the students number that would have guided them in following the \"right\" experience they already had with the population of turtles","comments":"Thank you very much for this HIT, and best of luck with your research!"},"type":"response","trial_type":"survey-html-form","trial_index":67,"time_elapsed":633091,"internal_node_id":"0.0-67.0","params":{"nStudents":8,"maxExamples":70,"completionMinutes":15,"basePay":3,"maxBonus":6,"perTrialBonus":0.7,"perTrialBonusThreshold":0.08,"exampleCost":0.01},"classroomParams":{"A":{"a":1,"b":9},"B":{"a":9,"b":1}},"conditions":["nonSeqFull","nonSeqPartial","seqNoFeedback","seqFeedback"],"classroomPairings":[["A","B"]],"coinWeights":[0.3,0.7],"subjectId":"A2VRDE2FHCBMF8","assignmentId":"338JKRMM27LIQ4LPOP8WKQ04LJDAHL","hitId":"3GL25Y6843GESBWZZUBL7KNB306MX0","url":"https://gershmanlab.com/experiments/alicia/teaching/experiment/?hitId=3GL25Y6843GESBWZZUBL7KNB306MX0&workerId=A2VRDE2FHCBMF8&assignmentId=338JKRMM27LIQ4LPOP8WKQ04LJDAHL&a=MK835&tp_a=MK835&b=338JKRMM27LIQ4LPOP8WKQ04LJDAHL&tp_b=338JKRMM27LIQ4LPOP8WKQ04LJDAHL&c=368485&tp_c=368485","totalBonus":2}]