[{"rt":25189,"response":{"heads":"7","tails":"3"},"type":"response","condition":"nonSeqPartial","trueTheta":0.7,"classrooms":["A","B"],"studentTrueClassroom":"A","exampleSet":"first","trial_type":"survey-html-form","trial_index":10,"time_elapsed":259784,"internal_node_id":"0.0-6.0-0.0","params":{"nStudents":8,"maxExamples":70,"completionMinutes":15,"basePay":3,"maxBonus":6,"perTrialBonus":0.7,"perTrialBonusThreshold":0.08,"exampleCost":0.01},"classroomParams":{"A":{"a":1,"b":9},"B":{"a":9,"b":1}},"conditions":["nonSeqFull","nonSeqPartial","seqNoFeedback","seqFeedback"],"classroomPairings":[["A","B"]],"coinWeights":[0.3,0.7],"subjectId":"A30HUZHJBOX1LK","assignmentId":"3FFJ6VRIL2AMLMYR25TOVWP6CAG0ID","hitId":"3VEI3XUCZRJ0GI70IBXLZ6VI7OWRP5","url":"https://gershmanlab.com/experiments/alicia/teaching/experiment/?hitId=3VEI3XUCZRJ0GI70IBXLZ6VI7OWRP5&workerId=A30HUZHJBOX1LK&assignmentId=3FFJ6VRIL2AMLMYR25TOVWP6CAG0ID&a=I6FF5&tp_a=I6FF5&b=3FFJ6VRIL2AMLMYR25TOVWP6CAG0ID&tp_b=3FFJ6VRIL2AMLMYR25TOVWP6CAG0ID&c=368485&tp_c=368485","heads":7,"tails":3,"studentIndex":0,"studentTrueHypers":{"a":1,"b":9},"studentGuess":"0.40","delta":0.29999999999999993,"totalExamples":10,"bonus":0,"bonusSoFar":0},{"rt":40423,"response":{"heads":"6","tails":"14"},"type":"response","condition":"nonSeqPartial","trueTheta":0.3,"classrooms":["A","B"],"studentTrueClassroom":"B","exampleSet":"first","trial_type":"survey-html-form","trial_index":16,"time_elapsed":320846,"internal_node_id":"0.0-12.0-0.0","params":{"nStudents":8,"maxExamples":70,"completionMinutes":15,"basePay":3,"maxBonus":6,"perTrialBonus":0.7,"perTrialBonusThreshold":0.08,"exampleCost":0.01},"classroomParams":{"A":{"a":1,"b":9},"B":{"a":9,"b":1}},"conditions":["nonSeqFull","nonSeqPartial","seqNoFeedback","seqFeedback"],"classroomPairings":[["A","B"]],"coinWeights":[0.3,0.7],"subjectId":"A30HUZHJBOX1LK","assignmentId":"3FFJ6VRIL2AMLMYR25TOVWP6CAG0ID","hitId":"3VEI3XUCZRJ0GI70IBXLZ6VI7OWRP5","url":"https://gershmanlab.com/experiments/alicia/teaching/experiment/?hitId=3VEI3XUCZRJ0GI70IBXLZ6VI7OWRP5&workerId=A30HUZHJBOX1LK&assignmentId=3FFJ6VRIL2AMLMYR25TOVWP6CAG0ID&a=I6FF5&tp_a=I6FF5&b=3FFJ6VRIL2AMLMYR25TOVWP6CAG0ID&tp_b=3FFJ6VRIL2AMLMYR25TOVWP6CAG0ID&c=368485&tp_c=368485","heads":6,"tails":14,"studentIndex":1,"studentTrueHypers":{"a":9,"b":1},"studentGuess":"0.50","delta":0.2,"totalExamples":20,"bonus":0,"bonusSoFar":0},{"rt":26695,"response":{"heads":"15","tails":"0"},"type":"response","condition":"seqFeedback","trueTheta":0.7,"classrooms":["A","B"],"studentTrueClassroom":"A","exampleSet":"first","trial_type":"survey-html-form","trial_index":22,"time_elapsed":368072,"internal_node_id":"0.0-18.0-0.0","params":{"nStudents":8,"maxExamples":70,"completionMinutes":15,"basePay":3,"maxBonus":6,"perTrialBonus":0.7,"perTrialBonusThreshold":0.08,"exampleCost":0.01},"classroomParams":{"A":{"a":1,"b":9},"B":{"a":9,"b":1}},"conditions":["nonSeqFull","nonSeqPartial","seqNoFeedback","seqFeedback"],"classroomPairings":[["A","B"]],"coinWeights":[0.3,0.7],"subjectId":"A30HUZHJBOX1LK","assignmentId":"3FFJ6VRIL2AMLMYR25TOVWP6CAG0ID","hitId":"3VEI3XUCZRJ0GI70IBXLZ6VI7OWRP5","url":"https://gershmanlab.com/experiments/alicia/teaching/experiment/?hitId=3VEI3XUCZRJ0GI70IBXLZ6VI7OWRP5&workerId=A30HUZHJBOX1LK&assignmentId=3FFJ6VRIL2AMLMYR25TOVWP6CAG0ID&a=I6FF5&tp_a=I6FF5&b=3FFJ6VRIL2AMLMYR25TOVWP6CAG0ID&tp_b=3FFJ6VRIL2AMLMYR25TOVWP6CAG0ID&c=368485&tp_c=368485","heads":15,"tails":0,"studentIndex":2,"studentTrueHypers":{"a":1,"b":9},"studentGuess":"0.64","delta":0.05999999999999994,"totalExamples":15,"bonusSoFar":0},{"rt":12344,"response":{"heads":"6","tails":"0"},"type":"response","condition":"seqFeedback","trueTheta":0.7,"classrooms":["A","B"],"studentTrueClassroom":"A","exampleSet":"second","trial_type":"survey-html-form","trial_index":26,"time_elapsed":392281,"internal_node_id":"0.0-22.0-0.0","params":{"nStudents":8,"maxExamples":70,"completionMinutes":15,"basePay":3,"maxBonus":6,"perTrialBonus":0.7,"perTrialBonusThreshold":0.08,"exampleCost":0.01},"classroomParams":{"A":{"a":1,"b":9},"B":{"a":9,"b":1}},"conditions":["nonSeqFull","nonSeqPartial","seqNoFeedback","seqFeedback"],"classroomPairings":[["A","B"]],"coinWeights":[0.3,0.7],"subjectId":"A30HUZHJBOX1LK","assignmentId":"3FFJ6VRIL2AMLMYR25TOVWP6CAG0ID","hitId":"3VEI3XUCZRJ0GI70IBXLZ6VI7OWRP5","url":"https://gershmanlab.com/experiments/alicia/teaching/experiment/?hitId=3VEI3XUCZRJ0GI70IBXLZ6VI7OWRP5&workerId=A30HUZHJBOX1LK&assignmentId=3FFJ6VRIL2AMLMYR25TOVWP6CAG0ID&a=I6FF5&tp_a=I6FF5&b=3FFJ6VRIL2AMLMYR25TOVWP6CAG0ID&tp_b=3FFJ6VRIL2AMLMYR25TOVWP6CAG0ID&c=368485&tp_c=368485","firstResponseHeads":15,"firstResponseTails":0,"secondResponseHeads":6,"secondResponseTails":0,"totalHeads":21,"totalTails":0,"studentIndex":2,"studentTrueHypers":{"a":1,"b":9},"studentGuess":"0.71","delta":0.010000000000000009,"bonus":0.49,"bonusSoFar":0.49,"totalExamples":21},{"rt":12612,"response":{"heads":"2","tails":"0"},"type":"response","condition":"nonSeqFull","trueTheta":0.3,"classrooms":["A","B"],"studentTrueClassroom":"A","exampleSet":"first","trial_type":"survey-html-form","trial_index":32,"time_elapsed":426056,"internal_node_id":"0.0-28.0-0.0","params":{"nStudents":8,"maxExamples":70,"completionMinutes":15,"basePay":3,"maxBonus":6,"perTrialBonus":0.7,"perTrialBonusThreshold":0.08,"exampleCost":0.01},"classroomParams":{"A":{"a":1,"b":9},"B":{"a":9,"b":1}},"conditions":["nonSeqFull","nonSeqPartial","seqNoFeedback","seqFeedback"],"classroomPairings":[["A","B"]],"coinWeights":[0.3,0.7],"subjectId":"A30HUZHJBOX1LK","assignmentId":"3FFJ6VRIL2AMLMYR25TOVWP6CAG0ID","hitId":"3VEI3XUCZRJ0GI70IBXLZ6VI7OWRP5","url":"https://gershmanlab.com/experiments/alicia/teaching/experiment/?hitId=3VEI3XUCZRJ0GI70IBXLZ6VI7OWRP5&workerId=A30HUZHJBOX1LK&assignmentId=3FFJ6VRIL2AMLMYR25TOVWP6CAG0ID&a=I6FF5&tp_a=I6FF5&b=3FFJ6VRIL2AMLMYR25TOVWP6CAG0ID&tp_b=3FFJ6VRIL2AMLMYR25TOVWP6CAG0ID&c=368485&tp_c=368485","heads":2,"tails":0,"studentIndex":3,"studentTrueHypers":{"a":1,"b":9},"studentGuess":"0.25","delta":0.04999999999999999,"totalExamples":2,"bonus":0.68,"bonusSoFar":1.17},{"rt":16323,"response":{"heads":"0","tails":"2"},"type":"response","condition":"nonSeqFull","trueTheta":0.7,"classrooms":["A","B"],"studentTrueClassroom":"B","exampleSet":"first","trial_type":"survey-html-form","trial_index":38,"time_elapsed":470513,"internal_node_id":"0.0-34.0-0.0","params":{"nStudents":8,"maxExamples":70,"completionMinutes":15,"basePay":3,"maxBonus":6,"perTrialBonus":0.7,"perTrialBonusThreshold":0.08,"exampleCost":0.01},"classroomParams":{"A":{"a":1,"b":9},"B":{"a":9,"b":1}},"conditions":["nonSeqFull","nonSeqPartial","seqNoFeedback","seqFeedback"],"classroomPairings":[["A","B"]],"coinWeights":[0.3,0.7],"subjectId":"A30HUZHJBOX1LK","assignmentId":"3FFJ6VRIL2AMLMYR25TOVWP6CAG0ID","hitId":"3VEI3XUCZRJ0GI70IBXLZ6VI7OWRP5","url":"https://gershmanlab.com/experiments/alicia/teaching/experiment/?hitId=3VEI3XUCZRJ0GI70IBXLZ6VI7OWRP5&workerId=A30HUZHJBOX1LK&assignmentId=3FFJ6VRIL2AMLMYR25TOVWP6CAG0ID&a=I6FF5&tp_a=I6FF5&b=3FFJ6VRIL2AMLMYR25TOVWP6CAG0ID&tp_b=3FFJ6VRIL2AMLMYR25TOVWP6CAG0ID&c=368485&tp_c=368485","heads":0,"tails":2,"studentIndex":4,"studentTrueHypers":{"a":9,"b":1},"studentGuess":"0.75","delta":0.050000000000000044,"totalExamples":2,"bonus":0.68,"bonusSoFar":1.85},{"rt":20029,"response":{"heads":"2","tails":"0"},"type":"response","condition":"seqNoFeedback","trueTheta":0.3,"classrooms":["A","B"],"studentTrueClassroom":"B","exampleSet":"first","trial_type":"survey-html-form","trial_index":44,"time_elapsed":512555,"internal_node_id":"0.0-40.0-0.0","params":{"nStudents":8,"maxExamples":70,"completionMinutes":15,"basePay":3,"maxBonus":6,"perTrialBonus":0.7,"perTrialBonusThreshold":0.08,"exampleCost":0.01},"classroomParams":{"A":{"a":1,"b":9},"B":{"a":9,"b":1}},"conditions":["nonSeqFull","nonSeqPartial","seqNoFeedback","seqFeedback"],"classroomPairings":[["A","B"]],"coinWeights":[0.3,0.7],"subjectId":"A30HUZHJBOX1LK","assignmentId":"3FFJ6VRIL2AMLMYR25TOVWP6CAG0ID","hitId":"3VEI3XUCZRJ0GI70IBXLZ6VI7OWRP5","url":"https://gershmanlab.com/experiments/alicia/teaching/experiment/?hitId=3VEI3XUCZRJ0GI70IBXLZ6VI7OWRP5&workerId=A30HUZHJBOX1LK&assignmentId=3FFJ6VRIL2AMLMYR25TOVWP6CAG0ID&a=I6FF5&tp_a=I6FF5&b=3FFJ6VRIL2AMLMYR25TOVWP6CAG0ID&tp_b=3FFJ6VRIL2AMLMYR25TOVWP6CAG0ID&c=368485&tp_c=368485","heads":2,"tails":0,"studentIndex":5,"studentTrueHypers":{"a":9,"b":1},"studentGuess":"0.92","delta":0.6200000000000001,"totalExamples":2,"bonusSoFar":1.85},{"rt":13438,"response":{"heads":"2","tails":"0"},"type":"response","condition":"seqNoFeedback","trueTheta":0.3,"classrooms":["A","B"],"studentTrueClassroom":"B","exampleSet":"second","trial_type":"survey-html-form","trial_index":47,"time_elapsed":532007,"internal_node_id":"0.0-43.0-0.0","params":{"nStudents":8,"maxExamples":70,"completionMinutes":15,"basePay":3,"maxBonus":6,"perTrialBonus":0.7,"perTrialBonusThreshold":0.08,"exampleCost":0.01},"classroomParams":{"A":{"a":1,"b":9},"B":{"a":9,"b":1}},"conditions":["nonSeqFull","nonSeqPartial","seqNoFeedback","seqFeedback"],"classroomPairings":[["A","B"]],"coinWeights":[0.3,0.7],"subjectId":"A30HUZHJBOX1LK","assignmentId":"3FFJ6VRIL2AMLMYR25TOVWP6CAG0ID","hitId":"3VEI3XUCZRJ0GI70IBXLZ6VI7OWRP5","url":"https://gershmanlab.com/experiments/alicia/teaching/experiment/?hitId=3VEI3XUCZRJ0GI70IBXLZ6VI7OWRP5&workerId=A30HUZHJBOX1LK&assignmentId=3FFJ6VRIL2AMLMYR25TOVWP6CAG0ID&a=I6FF5&tp_a=I6FF5&b=3FFJ6VRIL2AMLMYR25TOVWP6CAG0ID&tp_b=3FFJ6VRIL2AMLMYR25TOVWP6CAG0ID&c=368485&tp_c=368485","firstResponseHeads":2,"firstResponseTails":0,"secondResponseHeads":2,"secondResponseTails":0,"totalHeads":4,"totalTails":0,"studentIndex":5,"studentTrueHypers":{"a":9,"b":1},"studentGuess":"0.93","delta":0.6300000000000001,"bonus":0,"bonusSoFar":1.85,"totalExamples":4},{"rt":6457,"response":{"heads":"2","tails":"0"},"type":"response","condition":"seqFeedback","trueTheta":0.3,"classrooms":["A","B"],"studentTrueClassroom":"A","exampleSet":"first","trial_type":"survey-html-form","trial_index":53,"time_elapsed":561203,"internal_node_id":"0.0-49.0-0.0","params":{"nStudents":8,"maxExamples":70,"completionMinutes":15,"basePay":3,"maxBonus":6,"perTrialBonus":0.7,"perTrialBonusThreshold":0.08,"exampleCost":0.01},"classroomParams":{"A":{"a":1,"b":9},"B":{"a":9,"b":1}},"conditions":["nonSeqFull","nonSeqPartial","seqNoFeedback","seqFeedback"],"classroomPairings":[["A","B"]],"coinWeights":[0.3,0.7],"subjectId":"A30HUZHJBOX1LK","assignmentId":"3FFJ6VRIL2AMLMYR25TOVWP6CAG0ID","hitId":"3VEI3XUCZRJ0GI70IBXLZ6VI7OWRP5","url":"https://gershmanlab.com/experiments/alicia/teaching/experiment/?hitId=3VEI3XUCZRJ0GI70IBXLZ6VI7OWRP5&workerId=A30HUZHJBOX1LK&assignmentId=3FFJ6VRIL2AMLMYR25TOVWP6CAG0ID&a=I6FF5&tp_a=I6FF5&b=3FFJ6VRIL2AMLMYR25TOVWP6CAG0ID&tp_b=3FFJ6VRIL2AMLMYR25TOVWP6CAG0ID&c=368485&tp_c=368485","heads":2,"tails":0,"studentIndex":6,"studentTrueHypers":{"a":1,"b":9},"studentGuess":"0.25","delta":0.04999999999999999,"totalExamples":2,"bonusSoFar":1.85},{"rt":5917,"response":{"heads":"1","tails":"0"},"type":"response","condition":"seqFeedback","trueTheta":0.3,"classrooms":["A","B"],"studentTrueClassroom":"A","exampleSet":"second","trial_type":"survey-html-form","trial_index":57,"time_elapsed":579685,"internal_node_id":"0.0-53.0-0.0","params":{"nStudents":8,"maxExamples":70,"completionMinutes":15,"basePay":3,"maxBonus":6,"perTrialBonus":0.7,"perTrialBonusThreshold":0.08,"exampleCost":0.01},"classroomParams":{"A":{"a":1,"b":9},"B":{"a":9,"b":1}},"conditions":["nonSeqFull","nonSeqPartial","seqNoFeedback","seqFeedback"],"classroomPairings":[["A","B"]],"coinWeights":[0.3,0.7],"subjectId":"A30HUZHJBOX1LK","assignmentId":"3FFJ6VRIL2AMLMYR25TOVWP6CAG0ID","hitId":"3VEI3XUCZRJ0GI70IBXLZ6VI7OWRP5","url":"https://gershmanlab.com/experiments/alicia/teaching/experiment/?hitId=3VEI3XUCZRJ0GI70IBXLZ6VI7OWRP5&workerId=A30HUZHJBOX1LK&assignmentId=3FFJ6VRIL2AMLMYR25TOVWP6CAG0ID&a=I6FF5&tp_a=I6FF5&b=3FFJ6VRIL2AMLMYR25TOVWP6CAG0ID&tp_b=3FFJ6VRIL2AMLMYR25TOVWP6CAG0ID&c=368485&tp_c=368485","firstResponseHeads":2,"firstResponseTails":0,"secondResponseHeads":1,"secondResponseTails":0,"totalHeads":3,"totalTails":0,"studentIndex":6,"studentTrueHypers":{"a":1,"b":9},"studentGuess":"0.31","delta":0.010000000000000009,"bonus":0.67,"bonusSoFar":2.52,"totalExamples":3},{"rt":4607,"response":{"heads":"1","tails":"0"},"type":"response","condition":"seqNoFeedback","trueTheta":0.7,"classrooms":["A","B"],"studentTrueClassroom":"B","exampleSet":"first","trial_type":"survey-html-form","trial_index":63,"time_elapsed":604348,"internal_node_id":"0.0-59.0-0.0","params":{"nStudents":8,"maxExamples":70,"completionMinutes":15,"basePay":3,"maxBonus":6,"perTrialBonus":0.7,"perTrialBonusThreshold":0.08,"exampleCost":0.01},"classroomParams":{"A":{"a":1,"b":9},"B":{"a":9,"b":1}},"conditions":["nonSeqFull","nonSeqPartial","seqNoFeedback","seqFeedback"],"classroomPairings":[["A","B"]],"coinWeights":[0.3,0.7],"subjectId":"A30HUZHJBOX1LK","assignmentId":"3FFJ6VRIL2AMLMYR25TOVWP6CAG0ID","hitId":"3VEI3XUCZRJ0GI70IBXLZ6VI7OWRP5","url":"https://gershmanlab.com/experiments/alicia/teaching/experiment/?hitId=3VEI3XUCZRJ0GI70IBXLZ6VI7OWRP5&workerId=A30HUZHJBOX1LK&assignmentId=3FFJ6VRIL2AMLMYR25TOVWP6CAG0ID&a=I6FF5&tp_a=I6FF5&b=3FFJ6VRIL2AMLMYR25TOVWP6CAG0ID&tp_b=3FFJ6VRIL2AMLMYR25TOVWP6CAG0ID&c=368485&tp_c=368485","heads":1,"tails":0,"studentIndex":7,"studentTrueHypers":{"a":9,"b":1},"studentGuess":"0.91","delta":0.21000000000000008,"totalExamples":1,"bonusSoFar":2.52},{"rt":13311,"response":{"heads":"6","tails":"0"},"type":"response","condition":"seqNoFeedback","trueTheta":0.7,"classrooms":["A","B"],"studentTrueClassroom":"B","exampleSet":"second","trial_type":"survey-html-form","trial_index":66,"time_elapsed":623932,"internal_node_id":"0.0-62.0-0.0","params":{"nStudents":8,"maxExamples":70,"completionMinutes":15,"basePay":3,"maxBonus":6,"perTrialBonus":0.7,"perTrialBonusThreshold":0.08,"exampleCost":0.01},"classroomParams":{"A":{"a":1,"b":9},"B":{"a":9,"b":1}},"conditions":["nonSeqFull","nonSeqPartial","seqNoFeedback","seqFeedback"],"classroomPairings":[["A","B"]],"coinWeights":[0.3,0.7],"subjectId":"A30HUZHJBOX1LK","assignmentId":"3FFJ6VRIL2AMLMYR25TOVWP6CAG0ID","hitId":"3VEI3XUCZRJ0GI70IBXLZ6VI7OWRP5","url":"https://gershmanlab.com/experiments/alicia/teaching/experiment/?hitId=3VEI3XUCZRJ0GI70IBXLZ6VI7OWRP5&workerId=A30HUZHJBOX1LK&assignmentId=3FFJ6VRIL2AMLMYR25TOVWP6CAG0ID&a=I6FF5&tp_a=I6FF5&b=3FFJ6VRIL2AMLMYR25TOVWP6CAG0ID&tp_b=3FFJ6VRIL2AMLMYR25TOVWP6CAG0ID&c=368485&tp_c=368485","firstResponseHeads":1,"firstResponseTails":0,"secondResponseHeads":6,"secondResponseTails":0,"totalHeads":7,"totalTails":0,"studentIndex":7,"studentTrueHypers":{"a":9,"b":1},"studentGuess":"0.94","delta":0.24,"bonus":0,"bonusSoFar":2.52,"totalExamples":7},{"rt":20969,"response":{"gender":"male","age":"54","understood":"yes","strategy":"I just tried to add to what they saw to bring them up to the right number","comments":""},"type":"response","trial_type":"survey-html-form","trial_index":70,"time_elapsed":655499,"internal_node_id":"0.0-67.0","params":{"nStudents":8,"maxExamples":70,"completionMinutes":15,"basePay":3,"maxBonus":6,"perTrialBonus":0.7,"perTrialBonusThreshold":0.08,"exampleCost":0.01},"classroomParams":{"A":{"a":1,"b":9},"B":{"a":9,"b":1}},"conditions":["nonSeqFull","nonSeqPartial","seqNoFeedback","seqFeedback"],"classroomPairings":[["A","B"]],"coinWeights":[0.3,0.7],"subjectId":"A30HUZHJBOX1LK","assignmentId":"3FFJ6VRIL2AMLMYR25TOVWP6CAG0ID","hitId":"3VEI3XUCZRJ0GI70IBXLZ6VI7OWRP5","url":"https://gershmanlab.com/experiments/alicia/teaching/experiment/?hitId=3VEI3XUCZRJ0GI70IBXLZ6VI7OWRP5&workerId=A30HUZHJBOX1LK&assignmentId=3FFJ6VRIL2AMLMYR25TOVWP6CAG0ID&a=I6FF5&tp_a=I6FF5&b=3FFJ6VRIL2AMLMYR25TOVWP6CAG0ID&tp_b=3FFJ6VRIL2AMLMYR25TOVWP6CAG0ID&c=368485&tp_c=368485","totalBonus":2.52}]