[{"rt":48377,"response":{"heads":"3","tails":"7"},"type":"response","condition":"nonSeqPartial","trueTheta":0.3,"classrooms":["A","B"],"studentTrueClassroom":"B","exampleSet":"first","trial_type":"survey-html-form","trial_index":10,"time_elapsed":251015,"internal_node_id":"0.0-6.0-0.0","params":{"nStudents":8,"maxExamples":70,"completionMinutes":15,"basePay":3,"maxBonus":6,"perTrialBonus":0.7,"perTrialBonusThreshold":0.08,"exampleCost":0.01},"classroomParams":{"A":{"a":1,"b":9},"B":{"a":9,"b":1}},"conditions":["nonSeqFull","nonSeqPartial","seqNoFeedback","seqFeedback"],"classroomPairings":[["A","B"]],"coinWeights":[0.3,0.7],"subjectId":"A368366DSK3KW6","assignmentId":"3E7TUJ2EGD8N956IANB6XAAMN92D90","hitId":"391FPZIE4C80JT1T3SKLV8GBSWQUH7","url":"https://gershmanlab.com/experiments/alicia/teaching/experiment/?hitId=391FPZIE4C80JT1T3SKLV8GBSWQUH7&workerId=A368366DSK3KW6&assignmentId=3E7TUJ2EGD8N956IANB6XAAMN92D90&a=EU7E5&tp_a=EU7E5&b=3E7TUJ2EGD8N956IANB6XAAMN92D90&tp_b=3E7TUJ2EGD8N956IANB6XAAMN92D90&c=368485&tp_c=368485","heads":3,"tails":7,"studentIndex":0,"studentTrueHypers":{"a":9,"b":1},"studentGuess":"0.60","delta":0.3,"totalExamples":10,"bonus":0,"bonusSoFar":0},{"rt":20480,"response":{"heads":"7","tails":"3"},"type":"response","condition":"nonSeqPartial","trueTheta":0.7,"classrooms":["A","B"],"studentTrueClassroom":"B","exampleSet":"first","trial_type":"survey-html-form","trial_index":16,"time_elapsed":292781,"internal_node_id":"0.0-12.0-0.0","params":{"nStudents":8,"maxExamples":70,"completionMinutes":15,"basePay":3,"maxBonus":6,"perTrialBonus":0.7,"perTrialBonusThreshold":0.08,"exampleCost":0.01},"classroomParams":{"A":{"a":1,"b":9},"B":{"a":9,"b":1}},"conditions":["nonSeqFull","nonSeqPartial","seqNoFeedback","seqFeedback"],"classroomPairings":[["A","B"]],"coinWeights":[0.3,0.7],"subjectId":"A368366DSK3KW6","assignmentId":"3E7TUJ2EGD8N956IANB6XAAMN92D90","hitId":"391FPZIE4C80JT1T3SKLV8GBSWQUH7","url":"https://gershmanlab.com/experiments/alicia/teaching/experiment/?hitId=391FPZIE4C80JT1T3SKLV8GBSWQUH7&workerId=A368366DSK3KW6&assignmentId=3E7TUJ2EGD8N956IANB6XAAMN92D90&a=EU7E5&tp_a=EU7E5&b=3E7TUJ2EGD8N956IANB6XAAMN92D90&tp_b=3E7TUJ2EGD8N956IANB6XAAMN92D90&c=368485&tp_c=368485","heads":7,"tails":3,"studentIndex":1,"studentTrueHypers":{"a":9,"b":1},"studentGuess":"0.80","delta":0.10000000000000009,"totalExamples":10,"bonus":0,"bonusSoFar":0},{"rt":13212,"response":{"heads":"3","tails":"7"},"type":"response","condition":"seqNoFeedback","trueTheta":0.3,"classrooms":["A","B"],"studentTrueClassroom":"A","exampleSet":"first","trial_type":"survey-html-form","trial_index":22,"time_elapsed":326480,"internal_node_id":"0.0-18.0-0.0","params":{"nStudents":8,"maxExamples":70,"completionMinutes":15,"basePay":3,"maxBonus":6,"perTrialBonus":0.7,"perTrialBonusThreshold":0.08,"exampleCost":0.01},"classroomParams":{"A":{"a":1,"b":9},"B":{"a":9,"b":1}},"conditions":["nonSeqFull","nonSeqPartial","seqNoFeedback","seqFeedback"],"classroomPairings":[["A","B"]],"coinWeights":[0.3,0.7],"subjectId":"A368366DSK3KW6","assignmentId":"3E7TUJ2EGD8N956IANB6XAAMN92D90","hitId":"391FPZIE4C80JT1T3SKLV8GBSWQUH7","url":"https://gershmanlab.com/experiments/alicia/teaching/experiment/?hitId=391FPZIE4C80JT1T3SKLV8GBSWQUH7&workerId=A368366DSK3KW6&assignmentId=3E7TUJ2EGD8N956IANB6XAAMN92D90&a=EU7E5&tp_a=EU7E5&b=3E7TUJ2EGD8N956IANB6XAAMN92D90&tp_b=3E7TUJ2EGD8N956IANB6XAAMN92D90&c=368485&tp_c=368485","heads":3,"tails":7,"studentIndex":2,"studentTrueHypers":{"a":1,"b":9},"studentGuess":"0.20","delta":0.09999999999999998,"totalExamples":10,"bonusSoFar":0},{"rt":11626,"response":{"heads":"3","tails":"7"},"type":"response","condition":"seqNoFeedback","trueTheta":0.3,"classrooms":["A","B"],"studentTrueClassroom":"A","exampleSet":"second","trial_type":"survey-html-form","trial_index":25,"time_elapsed":343897,"internal_node_id":"0.0-21.0-0.0","params":{"nStudents":8,"maxExamples":70,"completionMinutes":15,"basePay":3,"maxBonus":6,"perTrialBonus":0.7,"perTrialBonusThreshold":0.08,"exampleCost":0.01},"classroomParams":{"A":{"a":1,"b":9},"B":{"a":9,"b":1}},"conditions":["nonSeqFull","nonSeqPartial","seqNoFeedback","seqFeedback"],"classroomPairings":[["A","B"]],"coinWeights":[0.3,0.7],"subjectId":"A368366DSK3KW6","assignmentId":"3E7TUJ2EGD8N956IANB6XAAMN92D90","hitId":"391FPZIE4C80JT1T3SKLV8GBSWQUH7","url":"https://gershmanlab.com/experiments/alicia/teaching/experiment/?hitId=391FPZIE4C80JT1T3SKLV8GBSWQUH7&workerId=A368366DSK3KW6&assignmentId=3E7TUJ2EGD8N956IANB6XAAMN92D90&a=EU7E5&tp_a=EU7E5&b=3E7TUJ2EGD8N956IANB6XAAMN92D90&tp_b=3E7TUJ2EGD8N956IANB6XAAMN92D90&c=368485&tp_c=368485","firstResponseHeads":3,"firstResponseTails":7,"secondResponseHeads":3,"secondResponseTails":7,"totalHeads":6,"totalTails":14,"studentIndex":2,"studentTrueHypers":{"a":1,"b":9},"studentGuess":"0.23","delta":0.06999999999999998,"bonus":0.5,"bonusSoFar":0.5,"totalExamples":20},{"rt":18944,"response":{"heads":"2","tails":"0"},"type":"response","condition":"nonSeqFull","trueTheta":0.3,"classrooms":["A","B"],"studentTrueClassroom":"A","exampleSet":"first","trial_type":"survey-html-form","trial_index":31,"time_elapsed":399832,"internal_node_id":"0.0-27.0-0.0","params":{"nStudents":8,"maxExamples":70,"completionMinutes":15,"basePay":3,"maxBonus":6,"perTrialBonus":0.7,"perTrialBonusThreshold":0.08,"exampleCost":0.01},"classroomParams":{"A":{"a":1,"b":9},"B":{"a":9,"b":1}},"conditions":["nonSeqFull","nonSeqPartial","seqNoFeedback","seqFeedback"],"classroomPairings":[["A","B"]],"coinWeights":[0.3,0.7],"subjectId":"A368366DSK3KW6","assignmentId":"3E7TUJ2EGD8N956IANB6XAAMN92D90","hitId":"391FPZIE4C80JT1T3SKLV8GBSWQUH7","url":"https://gershmanlab.com/experiments/alicia/teaching/experiment/?hitId=391FPZIE4C80JT1T3SKLV8GBSWQUH7&workerId=A368366DSK3KW6&assignmentId=3E7TUJ2EGD8N956IANB6XAAMN92D90&a=EU7E5&tp_a=EU7E5&b=3E7TUJ2EGD8N956IANB6XAAMN92D90&tp_b=3E7TUJ2EGD8N956IANB6XAAMN92D90&c=368485&tp_c=368485","heads":2,"tails":0,"studentIndex":3,"studentTrueHypers":{"a":1,"b":9},"studentGuess":"0.25","delta":0.04999999999999999,"totalExamples":2,"bonus":0.68,"bonusSoFar":1.18},{"rt":11831,"response":{"heads":"7","tails":"3"},"type":"response","condition":"seqNoFeedback","trueTheta":0.7,"classrooms":["A","B"],"studentTrueClassroom":"A","exampleSet":"first","trial_type":"survey-html-form","trial_index":37,"time_elapsed":434359,"internal_node_id":"0.0-33.0-0.0","params":{"nStudents":8,"maxExamples":70,"completionMinutes":15,"basePay":3,"maxBonus":6,"perTrialBonus":0.7,"perTrialBonusThreshold":0.08,"exampleCost":0.01},"classroomParams":{"A":{"a":1,"b":9},"B":{"a":9,"b":1}},"conditions":["nonSeqFull","nonSeqPartial","seqNoFeedback","seqFeedback"],"classroomPairings":[["A","B"]],"coinWeights":[0.3,0.7],"subjectId":"A368366DSK3KW6","assignmentId":"3E7TUJ2EGD8N956IANB6XAAMN92D90","hitId":"391FPZIE4C80JT1T3SKLV8GBSWQUH7","url":"https://gershmanlab.com/experiments/alicia/teaching/experiment/?hitId=391FPZIE4C80JT1T3SKLV8GBSWQUH7&workerId=A368366DSK3KW6&assignmentId=3E7TUJ2EGD8N956IANB6XAAMN92D90&a=EU7E5&tp_a=EU7E5&b=3E7TUJ2EGD8N956IANB6XAAMN92D90&tp_b=3E7TUJ2EGD8N956IANB6XAAMN92D90&c=368485&tp_c=368485","heads":7,"tails":3,"studentIndex":4,"studentTrueHypers":{"a":1,"b":9},"studentGuess":"0.40","delta":0.29999999999999993,"totalExamples":10,"bonusSoFar":1.18},{"rt":12717,"response":{"heads":"7","tails":"3"},"type":"response","condition":"seqNoFeedback","trueTheta":0.7,"classrooms":["A","B"],"studentTrueClassroom":"A","exampleSet":"second","trial_type":"survey-html-form","trial_index":40,"time_elapsed":452357,"internal_node_id":"0.0-36.0-0.0","params":{"nStudents":8,"maxExamples":70,"completionMinutes":15,"basePay":3,"maxBonus":6,"perTrialBonus":0.7,"perTrialBonusThreshold":0.08,"exampleCost":0.01},"classroomParams":{"A":{"a":1,"b":9},"B":{"a":9,"b":1}},"conditions":["nonSeqFull","nonSeqPartial","seqNoFeedback","seqFeedback"],"classroomPairings":[["A","B"]],"coinWeights":[0.3,0.7],"subjectId":"A368366DSK3KW6","assignmentId":"3E7TUJ2EGD8N956IANB6XAAMN92D90","hitId":"391FPZIE4C80JT1T3SKLV8GBSWQUH7","url":"https://gershmanlab.com/experiments/alicia/teaching/experiment/?hitId=391FPZIE4C80JT1T3SKLV8GBSWQUH7&workerId=A368366DSK3KW6&assignmentId=3E7TUJ2EGD8N956IANB6XAAMN92D90&a=EU7E5&tp_a=EU7E5&b=3E7TUJ2EGD8N956IANB6XAAMN92D90&tp_b=3E7TUJ2EGD8N956IANB6XAAMN92D90&c=368485&tp_c=368485","firstResponseHeads":7,"firstResponseTails":3,"secondResponseHeads":7,"secondResponseTails":3,"totalHeads":14,"totalTails":6,"studentIndex":4,"studentTrueHypers":{"a":1,"b":9},"studentGuess":"0.50","delta":0.19999999999999996,"bonus":0,"bonusSoFar":1.18,"totalExamples":20},{"rt":7679,"response":{"heads":"7","tails":"3"},"type":"response","condition":"seqFeedback","trueTheta":0.7,"classrooms":["A","B"],"studentTrueClassroom":"A","exampleSet":"first","trial_type":"survey-html-form","trial_index":46,"time_elapsed":480899,"internal_node_id":"0.0-42.0-0.0","params":{"nStudents":8,"maxExamples":70,"completionMinutes":15,"basePay":3,"maxBonus":6,"perTrialBonus":0.7,"perTrialBonusThreshold":0.08,"exampleCost":0.01},"classroomParams":{"A":{"a":1,"b":9},"B":{"a":9,"b":1}},"conditions":["nonSeqFull","nonSeqPartial","seqNoFeedback","seqFeedback"],"classroomPairings":[["A","B"]],"coinWeights":[0.3,0.7],"subjectId":"A368366DSK3KW6","assignmentId":"3E7TUJ2EGD8N956IANB6XAAMN92D90","hitId":"391FPZIE4C80JT1T3SKLV8GBSWQUH7","url":"https://gershmanlab.com/experiments/alicia/teaching/experiment/?hitId=391FPZIE4C80JT1T3SKLV8GBSWQUH7&workerId=A368366DSK3KW6&assignmentId=3E7TUJ2EGD8N956IANB6XAAMN92D90&a=EU7E5&tp_a=EU7E5&b=3E7TUJ2EGD8N956IANB6XAAMN92D90&tp_b=3E7TUJ2EGD8N956IANB6XAAMN92D90&c=368485&tp_c=368485","heads":7,"tails":3,"studentIndex":5,"studentTrueHypers":{"a":1,"b":9},"studentGuess":"0.40","delta":0.29999999999999993,"totalExamples":10,"bonusSoFar":1.18},{"rt":9198,"response":{"heads":"3","tails":"0"},"type":"response","condition":"seqFeedback","trueTheta":0.7,"classrooms":["A","B"],"studentTrueClassroom":"A","exampleSet":"second","trial_type":"survey-html-form","trial_index":50,"time_elapsed":503268,"internal_node_id":"0.0-46.0-0.0","params":{"nStudents":8,"maxExamples":70,"completionMinutes":15,"basePay":3,"maxBonus":6,"perTrialBonus":0.7,"perTrialBonusThreshold":0.08,"exampleCost":0.01},"classroomParams":{"A":{"a":1,"b":9},"B":{"a":9,"b":1}},"conditions":["nonSeqFull","nonSeqPartial","seqNoFeedback","seqFeedback"],"classroomPairings":[["A","B"]],"coinWeights":[0.3,0.7],"subjectId":"A368366DSK3KW6","assignmentId":"3E7TUJ2EGD8N956IANB6XAAMN92D90","hitId":"391FPZIE4C80JT1T3SKLV8GBSWQUH7","url":"https://gershmanlab.com/experiments/alicia/teaching/experiment/?hitId=391FPZIE4C80JT1T3SKLV8GBSWQUH7&workerId=A368366DSK3KW6&assignmentId=3E7TUJ2EGD8N956IANB6XAAMN92D90&a=EU7E5&tp_a=EU7E5&b=3E7TUJ2EGD8N956IANB6XAAMN92D90&tp_b=3E7TUJ2EGD8N956IANB6XAAMN92D90&c=368485&tp_c=368485","firstResponseHeads":7,"firstResponseTails":3,"secondResponseHeads":3,"secondResponseTails":0,"totalHeads":10,"totalTails":3,"studentIndex":5,"studentTrueHypers":{"a":1,"b":9},"studentGuess":"0.48","delta":0.21999999999999997,"bonus":0,"bonusSoFar":1.18,"totalExamples":13},{"rt":7802,"response":{"heads":"7","tails":"3"},"type":"response","condition":"nonSeqFull","trueTheta":0.7,"classrooms":["A","B"],"studentTrueClassroom":"B","exampleSet":"first","trial_type":"survey-html-form","trial_index":56,"time_elapsed":533307,"internal_node_id":"0.0-52.0-0.0","params":{"nStudents":8,"maxExamples":70,"completionMinutes":15,"basePay":3,"maxBonus":6,"perTrialBonus":0.7,"perTrialBonusThreshold":0.08,"exampleCost":0.01},"classroomParams":{"A":{"a":1,"b":9},"B":{"a":9,"b":1}},"conditions":["nonSeqFull","nonSeqPartial","seqNoFeedback","seqFeedback"],"classroomPairings":[["A","B"]],"coinWeights":[0.3,0.7],"subjectId":"A368366DSK3KW6","assignmentId":"3E7TUJ2EGD8N956IANB6XAAMN92D90","hitId":"391FPZIE4C80JT1T3SKLV8GBSWQUH7","url":"https://gershmanlab.com/experiments/alicia/teaching/experiment/?hitId=391FPZIE4C80JT1T3SKLV8GBSWQUH7&workerId=A368366DSK3KW6&assignmentId=3E7TUJ2EGD8N956IANB6XAAMN92D90&a=EU7E5&tp_a=EU7E5&b=3E7TUJ2EGD8N956IANB6XAAMN92D90&tp_b=3E7TUJ2EGD8N956IANB6XAAMN92D90&c=368485&tp_c=368485","heads":7,"tails":3,"studentIndex":6,"studentTrueHypers":{"a":9,"b":1},"studentGuess":"0.80","delta":0.10000000000000009,"totalExamples":10,"bonus":0,"bonusSoFar":1.18},{"rt":10067,"response":{"heads":"2","tails":"0"},"type":"response","condition":"seqFeedback","trueTheta":0.3,"classrooms":["A","B"],"studentTrueClassroom":"A","exampleSet":"first","trial_type":"survey-html-form","trial_index":62,"time_elapsed":561584,"internal_node_id":"0.0-58.0-0.0","params":{"nStudents":8,"maxExamples":70,"completionMinutes":15,"basePay":3,"maxBonus":6,"perTrialBonus":0.7,"perTrialBonusThreshold":0.08,"exampleCost":0.01},"classroomParams":{"A":{"a":1,"b":9},"B":{"a":9,"b":1}},"conditions":["nonSeqFull","nonSeqPartial","seqNoFeedback","seqFeedback"],"classroomPairings":[["A","B"]],"coinWeights":[0.3,0.7],"subjectId":"A368366DSK3KW6","assignmentId":"3E7TUJ2EGD8N956IANB6XAAMN92D90","hitId":"391FPZIE4C80JT1T3SKLV8GBSWQUH7","url":"https://gershmanlab.com/experiments/alicia/teaching/experiment/?hitId=391FPZIE4C80JT1T3SKLV8GBSWQUH7&workerId=A368366DSK3KW6&assignmentId=3E7TUJ2EGD8N956IANB6XAAMN92D90&a=EU7E5&tp_a=EU7E5&b=3E7TUJ2EGD8N956IANB6XAAMN92D90&tp_b=3E7TUJ2EGD8N956IANB6XAAMN92D90&c=368485&tp_c=368485","heads":2,"tails":0,"studentIndex":7,"studentTrueHypers":{"a":1,"b":9},"studentGuess":"0.25","delta":0.04999999999999999,"totalExamples":2,"bonusSoFar":1.18},{"rt":6480,"response":{"heads":"0","tails":"0"},"type":"response","condition":"seqFeedback","trueTheta":0.3,"classrooms":["A","B"],"studentTrueClassroom":"A","exampleSet":"second","trial_type":"survey-html-form","trial_index":66,"time_elapsed":577824,"internal_node_id":"0.0-62.0-0.0","params":{"nStudents":8,"maxExamples":70,"completionMinutes":15,"basePay":3,"maxBonus":6,"perTrialBonus":0.7,"perTrialBonusThreshold":0.08,"exampleCost":0.01},"classroomParams":{"A":{"a":1,"b":9},"B":{"a":9,"b":1}},"conditions":["nonSeqFull","nonSeqPartial","seqNoFeedback","seqFeedback"],"classroomPairings":[["A","B"]],"coinWeights":[0.3,0.7],"subjectId":"A368366DSK3KW6","assignmentId":"3E7TUJ2EGD8N956IANB6XAAMN92D90","hitId":"391FPZIE4C80JT1T3SKLV8GBSWQUH7","url":"https://gershmanlab.com/experiments/alicia/teaching/experiment/?hitId=391FPZIE4C80JT1T3SKLV8GBSWQUH7&workerId=A368366DSK3KW6&assignmentId=3E7TUJ2EGD8N956IANB6XAAMN92D90&a=EU7E5&tp_a=EU7E5&b=3E7TUJ2EGD8N956IANB6XAAMN92D90&tp_b=3E7TUJ2EGD8N956IANB6XAAMN92D90&c=368485&tp_c=368485","firstResponseHeads":2,"firstResponseTails":0,"secondResponseHeads":0,"secondResponseTails":0,"totalHeads":2,"totalTails":0,"studentIndex":7,"studentTrueHypers":{"a":1,"b":9},"studentGuess":"0.25","delta":0.04999999999999999,"bonus":0.68,"bonusSoFar":1.86,"totalExamples":2},{"rt":4051,"response":{"heads":"0","tails":"0"},"type":"response","condition":"seqFeedback","trueTheta":0.3,"classrooms":["A","B"],"studentTrueClassroom":"A","exampleSet":"second","trial_type":"survey-html-form","trial_index":67,"time_elapsed":581882,"internal_node_id":"0.0-62.1-0.1","params":{"nStudents":8,"maxExamples":70,"completionMinutes":15,"basePay":3,"maxBonus":6,"perTrialBonus":0.7,"perTrialBonusThreshold":0.08,"exampleCost":0.01},"classroomParams":{"A":{"a":1,"b":9},"B":{"a":9,"b":1}},"conditions":["nonSeqFull","nonSeqPartial","seqNoFeedback","seqFeedback"],"classroomPairings":[["A","B"]],"coinWeights":[0.3,0.7],"subjectId":"A368366DSK3KW6","assignmentId":"3E7TUJ2EGD8N956IANB6XAAMN92D90","hitId":"391FPZIE4C80JT1T3SKLV8GBSWQUH7","url":"https://gershmanlab.com/experiments/alicia/teaching/experiment/?hitId=391FPZIE4C80JT1T3SKLV8GBSWQUH7&workerId=A368366DSK3KW6&assignmentId=3E7TUJ2EGD8N956IANB6XAAMN92D90&a=EU7E5&tp_a=EU7E5&b=3E7TUJ2EGD8N956IANB6XAAMN92D90&tp_b=3E7TUJ2EGD8N956IANB6XAAMN92D90&c=368485&tp_c=368485","firstResponseHeads":2,"firstResponseTails":0,"secondResponseHeads":0,"secondResponseTails":0,"totalHeads":2,"totalTails":0,"studentIndex":7,"studentTrueHypers":{"a":1,"b":9},"studentGuess":"0.25","delta":0.04999999999999999,"bonus":0.68,"bonusSoFar":2.54,"totalExamples":2},{"rt":7921,"response":{"heads":"1","tails":"0"},"type":"response","condition":"seqFeedback","trueTheta":0.3,"classrooms":["A","B"],"studentTrueClassroom":"A","exampleSet":"second","trial_type":"survey-html-form","trial_index":68,"time_elapsed":589809,"internal_node_id":"0.0-62.2-0.2","params":{"nStudents":8,"maxExamples":70,"completionMinutes":15,"basePay":3,"maxBonus":6,"perTrialBonus":0.7,"perTrialBonusThreshold":0.08,"exampleCost":0.01},"classroomParams":{"A":{"a":1,"b":9},"B":{"a":9,"b":1}},"conditions":["nonSeqFull","nonSeqPartial","seqNoFeedback","seqFeedback"],"classroomPairings":[["A","B"]],"coinWeights":[0.3,0.7],"subjectId":"A368366DSK3KW6","assignmentId":"3E7TUJ2EGD8N956IANB6XAAMN92D90","hitId":"391FPZIE4C80JT1T3SKLV8GBSWQUH7","url":"https://gershmanlab.com/experiments/alicia/teaching/experiment/?hitId=391FPZIE4C80JT1T3SKLV8GBSWQUH7&workerId=A368366DSK3KW6&assignmentId=3E7TUJ2EGD8N956IANB6XAAMN92D90&a=EU7E5&tp_a=EU7E5&b=3E7TUJ2EGD8N956IANB6XAAMN92D90&tp_b=3E7TUJ2EGD8N956IANB6XAAMN92D90&c=368485&tp_c=368485","firstResponseHeads":2,"firstResponseTails":0,"secondResponseHeads":1,"secondResponseTails":0,"totalHeads":3,"totalTails":0,"studentIndex":7,"studentTrueHypers":{"a":1,"b":9},"studentGuess":"0.31","delta":0.010000000000000009,"bonus":0.67,"bonusSoFar":3.21,"totalExamples":3},{"rt":37799,"response":{"gender":"female","age":"43","understood":"yes","strategy":"One turtle for each set of ten","comments":"No, it was great!"},"type":"response","trial_type":"survey-html-form","trial_index":72,"time_elapsed":638555,"internal_node_id":"0.0-67.0","params":{"nStudents":8,"maxExamples":70,"completionMinutes":15,"basePay":3,"maxBonus":6,"perTrialBonus":0.7,"perTrialBonusThreshold":0.08,"exampleCost":0.01},"classroomParams":{"A":{"a":1,"b":9},"B":{"a":9,"b":1}},"conditions":["nonSeqFull","nonSeqPartial","seqNoFeedback","seqFeedback"],"classroomPairings":[["A","B"]],"coinWeights":[0.3,0.7],"subjectId":"A368366DSK3KW6","assignmentId":"3E7TUJ2EGD8N956IANB6XAAMN92D90","hitId":"391FPZIE4C80JT1T3SKLV8GBSWQUH7","url":"https://gershmanlab.com/experiments/alicia/teaching/experiment/?hitId=391FPZIE4C80JT1T3SKLV8GBSWQUH7&workerId=A368366DSK3KW6&assignmentId=3E7TUJ2EGD8N956IANB6XAAMN92D90&a=EU7E5&tp_a=EU7E5&b=3E7TUJ2EGD8N956IANB6XAAMN92D90&tp_b=3E7TUJ2EGD8N956IANB6XAAMN92D90&c=368485&tp_c=368485","totalBonus":3.21}]