[{"rt":65852,"response":{"heads":"12","tails":"3"},"type":"response","condition":"nonSeqFull","trueTheta":0.7,"classrooms":["A","B"],"studentTrueClassroom":"B","exampleSet":"first","trial_type":"survey-html-form","trial_index":7,"time_elapsed":519181,"internal_node_id":"0.0-6.0-0.0","params":{"nStudents":8,"maxExamples":70,"completionMinutes":15,"basePay":3,"maxBonus":6,"perTrialBonus":0.7,"perTrialBonusThreshold":0.08,"exampleCost":0.01},"classroomParams":{"A":{"a":1,"b":9},"B":{"a":9,"b":1}},"conditions":["nonSeqFull","nonSeqPartial","seqNoFeedback","seqFeedback"],"classroomPairings":[["A","B"]],"coinWeights":[0.3,0.7],"subjectId":"A3785TR8D5I81Q","assignmentId":"3ZY8KE4ISKPFVLNQIAMMPR6IXG9VQ2","hitId":"3VEI3XUCZRJ0GI70IBXLZ6VI7OWRP5","url":"https://gershmanlab.com/experiments/alicia/teaching/experiment/?hitId=3VEI3XUCZRJ0GI70IBXLZ6VI7OWRP5&workerId=A3785TR8D5I81Q&assignmentId=3ZY8KE4ISKPFVLNQIAMMPR6IXG9VQ2&a=IKYZ5&tp_a=IKYZ5&b=3ZY8KE4ISKPFVLNQIAMMPR6IXG9VQ2&tp_b=3ZY8KE4ISKPFVLNQIAMMPR6IXG9VQ2&c=368485&tp_c=368485","heads":12,"tails":3,"studentIndex":0,"studentTrueHypers":{"a":9,"b":1},"studentGuess":"0.84","delta":0.14,"totalExamples":15,"bonus":0,"bonusSoFar":0},{"rt":32957,"response":{"heads":"60","tails":"10"},"type":"response","condition":"seqFeedback","trueTheta":0.3,"classrooms":["A","B"],"studentTrueClassroom":"A","exampleSet":"first","trial_type":"survey-html-form","trial_index":13,"time_elapsed":585292,"internal_node_id":"0.0-12.0-0.0","params":{"nStudents":8,"maxExamples":70,"completionMinutes":15,"basePay":3,"maxBonus":6,"perTrialBonus":0.7,"perTrialBonusThreshold":0.08,"exampleCost":0.01},"classroomParams":{"A":{"a":1,"b":9},"B":{"a":9,"b":1}},"conditions":["nonSeqFull","nonSeqPartial","seqNoFeedback","seqFeedback"],"classroomPairings":[["A","B"]],"coinWeights":[0.3,0.7],"subjectId":"A3785TR8D5I81Q","assignmentId":"3ZY8KE4ISKPFVLNQIAMMPR6IXG9VQ2","hitId":"3VEI3XUCZRJ0GI70IBXLZ6VI7OWRP5","url":"https://gershmanlab.com/experiments/alicia/teaching/experiment/?hitId=3VEI3XUCZRJ0GI70IBXLZ6VI7OWRP5&workerId=A3785TR8D5I81Q&assignmentId=3ZY8KE4ISKPFVLNQIAMMPR6IXG9VQ2&a=IKYZ5&tp_a=IKYZ5&b=3ZY8KE4ISKPFVLNQIAMMPR6IXG9VQ2&tp_b=3ZY8KE4ISKPFVLNQIAMMPR6IXG9VQ2&c=368485&tp_c=368485","heads":60,"tails":10,"studentIndex":1,"studentTrueHypers":{"a":1,"b":9},"studentGuess":"0.76","delta":0.46,"totalExamples":70,"bonusSoFar":0},{"rt":15046,"response":{"heads":"62","tails":"8"},"type":"response","condition":"seqFeedback","trueTheta":0.3,"classrooms":["A","B"],"studentTrueClassroom":"A","exampleSet":"second","trial_type":"survey-html-form","trial_index":17,"time_elapsed":612012,"internal_node_id":"0.0-16.0-0.0","params":{"nStudents":8,"maxExamples":70,"completionMinutes":15,"basePay":3,"maxBonus":6,"perTrialBonus":0.7,"perTrialBonusThreshold":0.08,"exampleCost":0.01},"classroomParams":{"A":{"a":1,"b":9},"B":{"a":9,"b":1}},"conditions":["nonSeqFull","nonSeqPartial","seqNoFeedback","seqFeedback"],"classroomPairings":[["A","B"]],"coinWeights":[0.3,0.7],"subjectId":"A3785TR8D5I81Q","assignmentId":"3ZY8KE4ISKPFVLNQIAMMPR6IXG9VQ2","hitId":"3VEI3XUCZRJ0GI70IBXLZ6VI7OWRP5","url":"https://gershmanlab.com/experiments/alicia/teaching/experiment/?hitId=3VEI3XUCZRJ0GI70IBXLZ6VI7OWRP5&workerId=A3785TR8D5I81Q&assignmentId=3ZY8KE4ISKPFVLNQIAMMPR6IXG9VQ2&a=IKYZ5&tp_a=IKYZ5&b=3ZY8KE4ISKPFVLNQIAMMPR6IXG9VQ2&tp_b=3ZY8KE4ISKPFVLNQIAMMPR6IXG9VQ2&c=368485&tp_c=368485","firstResponseHeads":60,"firstResponseTails":10,"secondResponseHeads":62,"secondResponseTails":8,"totalHeads":122,"totalTails":18,"studentIndex":1,"studentTrueHypers":{"a":1,"b":9},"studentGuess":"0.82","delta":0.52,"bonus":0,"bonusSoFar":0,"totalExamples":140},{"rt":88101,"response":{"heads":"49","tails":"21"},"type":"response","condition":"seqFeedback","trueTheta":0.7,"classrooms":["A","B"],"studentTrueClassroom":"B","exampleSet":"first","trial_type":"survey-html-form","trial_index":23,"time_elapsed":722058,"internal_node_id":"0.0-22.0-0.0","params":{"nStudents":8,"maxExamples":70,"completionMinutes":15,"basePay":3,"maxBonus":6,"perTrialBonus":0.7,"perTrialBonusThreshold":0.08,"exampleCost":0.01},"classroomParams":{"A":{"a":1,"b":9},"B":{"a":9,"b":1}},"conditions":["nonSeqFull","nonSeqPartial","seqNoFeedback","seqFeedback"],"classroomPairings":[["A","B"]],"coinWeights":[0.3,0.7],"subjectId":"A3785TR8D5I81Q","assignmentId":"3ZY8KE4ISKPFVLNQIAMMPR6IXG9VQ2","hitId":"3VEI3XUCZRJ0GI70IBXLZ6VI7OWRP5","url":"https://gershmanlab.com/experiments/alicia/teaching/experiment/?hitId=3VEI3XUCZRJ0GI70IBXLZ6VI7OWRP5&workerId=A3785TR8D5I81Q&assignmentId=3ZY8KE4ISKPFVLNQIAMMPR6IXG9VQ2&a=IKYZ5&tp_a=IKYZ5&b=3ZY8KE4ISKPFVLNQIAMMPR6IXG9VQ2&tp_b=3ZY8KE4ISKPFVLNQIAMMPR6IXG9VQ2&c=368485&tp_c=368485","heads":49,"tails":21,"studentIndex":2,"studentTrueHypers":{"a":9,"b":1},"studentGuess":"0.72","delta":0.020000000000000018,"totalExamples":70,"bonusSoFar":0},{"rt":31187,"response":{"heads":"49","tails":"21"},"type":"response","condition":"seqFeedback","trueTheta":0.7,"classrooms":["A","B"],"studentTrueClassroom":"B","exampleSet":"second","trial_type":"survey-html-form","trial_index":27,"time_elapsed":789522,"internal_node_id":"0.0-26.0-0.0","params":{"nStudents":8,"maxExamples":70,"completionMinutes":15,"basePay":3,"maxBonus":6,"perTrialBonus":0.7,"perTrialBonusThreshold":0.08,"exampleCost":0.01},"classroomParams":{"A":{"a":1,"b":9},"B":{"a":9,"b":1}},"conditions":["nonSeqFull","nonSeqPartial","seqNoFeedback","seqFeedback"],"classroomPairings":[["A","B"]],"coinWeights":[0.3,0.7],"subjectId":"A3785TR8D5I81Q","assignmentId":"3ZY8KE4ISKPFVLNQIAMMPR6IXG9VQ2","hitId":"3VEI3XUCZRJ0GI70IBXLZ6VI7OWRP5","url":"https://gershmanlab.com/experiments/alicia/teaching/experiment/?hitId=3VEI3XUCZRJ0GI70IBXLZ6VI7OWRP5&workerId=A3785TR8D5I81Q&assignmentId=3ZY8KE4ISKPFVLNQIAMMPR6IXG9VQ2&a=IKYZ5&tp_a=IKYZ5&b=3ZY8KE4ISKPFVLNQIAMMPR6IXG9VQ2&tp_b=3ZY8KE4ISKPFVLNQIAMMPR6IXG9VQ2&c=368485&tp_c=368485","firstResponseHeads":49,"firstResponseTails":21,"secondResponseHeads":49,"secondResponseTails":21,"totalHeads":98,"totalTails":42,"studentIndex":2,"studentTrueHypers":{"a":9,"b":1},"studentGuess":"0.71","delta":0.010000000000000009,"bonus":0,"bonusSoFar":0,"totalExamples":140},{"rt":8870,"response":{"heads":"21","tails":"49"},"type":"response","condition":"nonSeqPartial","trueTheta":0.3,"classrooms":["A","B"],"studentTrueClassroom":"B","exampleSet":"first","trial_type":"survey-html-form","trial_index":33,"time_elapsed":825233,"internal_node_id":"0.0-32.0-0.0","params":{"nStudents":8,"maxExamples":70,"completionMinutes":15,"basePay":3,"maxBonus":6,"perTrialBonus":0.7,"perTrialBonusThreshold":0.08,"exampleCost":0.01},"classroomParams":{"A":{"a":1,"b":9},"B":{"a":9,"b":1}},"conditions":["nonSeqFull","nonSeqPartial","seqNoFeedback","seqFeedback"],"classroomPairings":[["A","B"]],"coinWeights":[0.3,0.7],"subjectId":"A3785TR8D5I81Q","assignmentId":"3ZY8KE4ISKPFVLNQIAMMPR6IXG9VQ2","hitId":"3VEI3XUCZRJ0GI70IBXLZ6VI7OWRP5","url":"https://gershmanlab.com/experiments/alicia/teaching/experiment/?hitId=3VEI3XUCZRJ0GI70IBXLZ6VI7OWRP5&workerId=A3785TR8D5I81Q&assignmentId=3ZY8KE4ISKPFVLNQIAMMPR6IXG9VQ2&a=IKYZ5&tp_a=IKYZ5&b=3ZY8KE4ISKPFVLNQIAMMPR6IXG9VQ2&tp_b=3ZY8KE4ISKPFVLNQIAMMPR6IXG9VQ2&c=368485&tp_c=368485","heads":21,"tails":49,"studentIndex":3,"studentTrueHypers":{"a":9,"b":1},"studentGuess":"0.38","delta":0.08000000000000002,"totalExamples":70,"bonus":0,"bonusSoFar":0},{"rt":6508,"response":{"heads":"21","tails":"49"},"type":"response","condition":"nonSeqFull","trueTheta":0.3,"classrooms":["A","B"],"studentTrueClassroom":"A","exampleSet":"first","trial_type":"survey-html-form","trial_index":39,"time_elapsed":876041,"internal_node_id":"0.0-38.0-0.0","params":{"nStudents":8,"maxExamples":70,"completionMinutes":15,"basePay":3,"maxBonus":6,"perTrialBonus":0.7,"perTrialBonusThreshold":0.08,"exampleCost":0.01},"classroomParams":{"A":{"a":1,"b":9},"B":{"a":9,"b":1}},"conditions":["nonSeqFull","nonSeqPartial","seqNoFeedback","seqFeedback"],"classroomPairings":[["A","B"]],"coinWeights":[0.3,0.7],"subjectId":"A3785TR8D5I81Q","assignmentId":"3ZY8KE4ISKPFVLNQIAMMPR6IXG9VQ2","hitId":"3VEI3XUCZRJ0GI70IBXLZ6VI7OWRP5","url":"https://gershmanlab.com/experiments/alicia/teaching/experiment/?hitId=3VEI3XUCZRJ0GI70IBXLZ6VI7OWRP5&workerId=A3785TR8D5I81Q&assignmentId=3ZY8KE4ISKPFVLNQIAMMPR6IXG9VQ2&a=IKYZ5&tp_a=IKYZ5&b=3ZY8KE4ISKPFVLNQIAMMPR6IXG9VQ2&tp_b=3ZY8KE4ISKPFVLNQIAMMPR6IXG9VQ2&c=368485&tp_c=368485","heads":21,"tails":49,"studentIndex":4,"studentTrueHypers":{"a":1,"b":9},"studentGuess":"0.28","delta":0.019999999999999962,"totalExamples":70,"bonus":0,"bonusSoFar":0},{"rt":21510,"response":{"heads":"24","tails":"46"},"type":"response","condition":"seqNoFeedback","trueTheta":0.3,"classrooms":["A","B"],"studentTrueClassroom":"B","exampleSet":"first","trial_type":"survey-html-form","trial_index":45,"time_elapsed":913057,"internal_node_id":"0.0-44.0-0.0","params":{"nStudents":8,"maxExamples":70,"completionMinutes":15,"basePay":3,"maxBonus":6,"perTrialBonus":0.7,"perTrialBonusThreshold":0.08,"exampleCost":0.01},"classroomParams":{"A":{"a":1,"b":9},"B":{"a":9,"b":1}},"conditions":["nonSeqFull","nonSeqPartial","seqNoFeedback","seqFeedback"],"classroomPairings":[["A","B"]],"coinWeights":[0.3,0.7],"subjectId":"A3785TR8D5I81Q","assignmentId":"3ZY8KE4ISKPFVLNQIAMMPR6IXG9VQ2","hitId":"3VEI3XUCZRJ0GI70IBXLZ6VI7OWRP5","url":"https://gershmanlab.com/experiments/alicia/teaching/experiment/?hitId=3VEI3XUCZRJ0GI70IBXLZ6VI7OWRP5&workerId=A3785TR8D5I81Q&assignmentId=3ZY8KE4ISKPFVLNQIAMMPR6IXG9VQ2&a=IKYZ5&tp_a=IKYZ5&b=3ZY8KE4ISKPFVLNQIAMMPR6IXG9VQ2&tp_b=3ZY8KE4ISKPFVLNQIAMMPR6IXG9VQ2&c=368485&tp_c=368485","heads":24,"tails":46,"studentIndex":5,"studentTrueHypers":{"a":9,"b":1},"studentGuess":"0.41","delta":0.10999999999999999,"totalExamples":70,"bonusSoFar":0},{"rt":12245,"response":{"heads":"24","tails":"46"},"type":"response","condition":"seqNoFeedback","trueTheta":0.3,"classrooms":["A","B"],"studentTrueClassroom":"B","exampleSet":"second","trial_type":"survey-html-form","trial_index":48,"time_elapsed":931329,"internal_node_id":"0.0-47.0-0.0","params":{"nStudents":8,"maxExamples":70,"completionMinutes":15,"basePay":3,"maxBonus":6,"perTrialBonus":0.7,"perTrialBonusThreshold":0.08,"exampleCost":0.01},"classroomParams":{"A":{"a":1,"b":9},"B":{"a":9,"b":1}},"conditions":["nonSeqFull","nonSeqPartial","seqNoFeedback","seqFeedback"],"classroomPairings":[["A","B"]],"coinWeights":[0.3,0.7],"subjectId":"A3785TR8D5I81Q","assignmentId":"3ZY8KE4ISKPFVLNQIAMMPR6IXG9VQ2","hitId":"3VEI3XUCZRJ0GI70IBXLZ6VI7OWRP5","url":"https://gershmanlab.com/experiments/alicia/teaching/experiment/?hitId=3VEI3XUCZRJ0GI70IBXLZ6VI7OWRP5&workerId=A3785TR8D5I81Q&assignmentId=3ZY8KE4ISKPFVLNQIAMMPR6IXG9VQ2&a=IKYZ5&tp_a=IKYZ5&b=3ZY8KE4ISKPFVLNQIAMMPR6IXG9VQ2&tp_b=3ZY8KE4ISKPFVLNQIAMMPR6IXG9VQ2&c=368485&tp_c=368485","firstResponseHeads":24,"firstResponseTails":46,"secondResponseHeads":24,"secondResponseTails":46,"totalHeads":48,"totalTails":92,"studentIndex":5,"studentTrueHypers":{"a":9,"b":1},"studentGuess":"0.38","delta":0.08000000000000002,"bonus":0,"bonusSoFar":0,"totalExamples":140},{"rt":7189,"response":{"heads":"46","tails":"24"},"type":"response","condition":"nonSeqPartial","trueTheta":0.7,"classrooms":["A","B"],"studentTrueClassroom":"A","exampleSet":"first","trial_type":"survey-html-form","trial_index":54,"time_elapsed":953546,"internal_node_id":"0.0-53.0-0.0","params":{"nStudents":8,"maxExamples":70,"completionMinutes":15,"basePay":3,"maxBonus":6,"perTrialBonus":0.7,"perTrialBonusThreshold":0.08,"exampleCost":0.01},"classroomParams":{"A":{"a":1,"b":9},"B":{"a":9,"b":1}},"conditions":["nonSeqFull","nonSeqPartial","seqNoFeedback","seqFeedback"],"classroomPairings":[["A","B"]],"coinWeights":[0.3,0.7],"subjectId":"A3785TR8D5I81Q","assignmentId":"3ZY8KE4ISKPFVLNQIAMMPR6IXG9VQ2","hitId":"3VEI3XUCZRJ0GI70IBXLZ6VI7OWRP5","url":"https://gershmanlab.com/experiments/alicia/teaching/experiment/?hitId=3VEI3XUCZRJ0GI70IBXLZ6VI7OWRP5&workerId=A3785TR8D5I81Q&assignmentId=3ZY8KE4ISKPFVLNQIAMMPR6IXG9VQ2&a=IKYZ5&tp_a=IKYZ5&b=3ZY8KE4ISKPFVLNQIAMMPR6IXG9VQ2&tp_b=3ZY8KE4ISKPFVLNQIAMMPR6IXG9VQ2&c=368485&tp_c=368485","heads":46,"tails":24,"studentIndex":6,"studentTrueHypers":{"a":1,"b":9},"studentGuess":"0.59","delta":0.10999999999999999,"totalExamples":70,"bonus":0,"bonusSoFar":0},{"rt":7733,"response":{"heads":"46","tails":"24"},"type":"response","condition":"seqNoFeedback","trueTheta":0.7,"classrooms":["A","B"],"studentTrueClassroom":"A","exampleSet":"first","trial_type":"survey-html-form","trial_index":60,"time_elapsed":974832,"internal_node_id":"0.0-59.0-0.0","params":{"nStudents":8,"maxExamples":70,"completionMinutes":15,"basePay":3,"maxBonus":6,"perTrialBonus":0.7,"perTrialBonusThreshold":0.08,"exampleCost":0.01},"classroomParams":{"A":{"a":1,"b":9},"B":{"a":9,"b":1}},"conditions":["nonSeqFull","nonSeqPartial","seqNoFeedback","seqFeedback"],"classroomPairings":[["A","B"]],"coinWeights":[0.3,0.7],"subjectId":"A3785TR8D5I81Q","assignmentId":"3ZY8KE4ISKPFVLNQIAMMPR6IXG9VQ2","hitId":"3VEI3XUCZRJ0GI70IBXLZ6VI7OWRP5","url":"https://gershmanlab.com/experiments/alicia/teaching/experiment/?hitId=3VEI3XUCZRJ0GI70IBXLZ6VI7OWRP5&workerId=A3785TR8D5I81Q&assignmentId=3ZY8KE4ISKPFVLNQIAMMPR6IXG9VQ2&a=IKYZ5&tp_a=IKYZ5&b=3ZY8KE4ISKPFVLNQIAMMPR6IXG9VQ2&tp_b=3ZY8KE4ISKPFVLNQIAMMPR6IXG9VQ2&c=368485&tp_c=368485","heads":46,"tails":24,"studentIndex":7,"studentTrueHypers":{"a":1,"b":9},"studentGuess":"0.59","delta":0.10999999999999999,"totalExamples":70,"bonusSoFar":0},{"rt":12278,"response":{"heads":"24","tails":"46"},"type":"response","condition":"seqNoFeedback","trueTheta":0.7,"classrooms":["A","B"],"studentTrueClassroom":"A","exampleSet":"second","trial_type":"survey-html-form","trial_index":63,"time_elapsed":993144,"internal_node_id":"0.0-62.0-0.0","params":{"nStudents":8,"maxExamples":70,"completionMinutes":15,"basePay":3,"maxBonus":6,"perTrialBonus":0.7,"perTrialBonusThreshold":0.08,"exampleCost":0.01},"classroomParams":{"A":{"a":1,"b":9},"B":{"a":9,"b":1}},"conditions":["nonSeqFull","nonSeqPartial","seqNoFeedback","seqFeedback"],"classroomPairings":[["A","B"]],"coinWeights":[0.3,0.7],"subjectId":"A3785TR8D5I81Q","assignmentId":"3ZY8KE4ISKPFVLNQIAMMPR6IXG9VQ2","hitId":"3VEI3XUCZRJ0GI70IBXLZ6VI7OWRP5","url":"https://gershmanlab.com/experiments/alicia/teaching/experiment/?hitId=3VEI3XUCZRJ0GI70IBXLZ6VI7OWRP5&workerId=A3785TR8D5I81Q&assignmentId=3ZY8KE4ISKPFVLNQIAMMPR6IXG9VQ2&a=IKYZ5&tp_a=IKYZ5&b=3ZY8KE4ISKPFVLNQIAMMPR6IXG9VQ2&tp_b=3ZY8KE4ISKPFVLNQIAMMPR6IXG9VQ2&c=368485&tp_c=368485","firstResponseHeads":46,"firstResponseTails":24,"secondResponseHeads":24,"secondResponseTails":46,"totalHeads":70,"totalTails":70,"studentIndex":7,"studentTrueHypers":{"a":1,"b":9},"studentGuess":"0.47","delta":0.22999999999999998,"bonus":0,"bonusSoFar":0,"totalExamples":140},{"rt":39923,"response":{"gender":"female","age":"30","understood":"yes","strategy":"Did percentages using the provided data","comments":"None"},"type":"response","trial_type":"survey-html-form","trial_index":67,"time_elapsed":1041488,"internal_node_id":"0.0-67.0","params":{"nStudents":8,"maxExamples":70,"completionMinutes":15,"basePay":3,"maxBonus":6,"perTrialBonus":0.7,"perTrialBonusThreshold":0.08,"exampleCost":0.01},"classroomParams":{"A":{"a":1,"b":9},"B":{"a":9,"b":1}},"conditions":["nonSeqFull","nonSeqPartial","seqNoFeedback","seqFeedback"],"classroomPairings":[["A","B"]],"coinWeights":[0.3,0.7],"subjectId":"A3785TR8D5I81Q","assignmentId":"3ZY8KE4ISKPFVLNQIAMMPR6IXG9VQ2","hitId":"3VEI3XUCZRJ0GI70IBXLZ6VI7OWRP5","url":"https://gershmanlab.com/experiments/alicia/teaching/experiment/?hitId=3VEI3XUCZRJ0GI70IBXLZ6VI7OWRP5&workerId=A3785TR8D5I81Q&assignmentId=3ZY8KE4ISKPFVLNQIAMMPR6IXG9VQ2&a=IKYZ5&tp_a=IKYZ5&b=3ZY8KE4ISKPFVLNQIAMMPR6IXG9VQ2&tp_b=3ZY8KE4ISKPFVLNQIAMMPR6IXG9VQ2&c=368485&tp_c=368485","totalBonus":0}]