[{"rt":8126,"response":{"heads":"3","tails":"7"},"type":"response","condition":"seqNoFeedback","trueTheta":0.3,"classrooms":["A","B"],"studentTrueClassroom":"A","exampleSet":"first","trial_type":"survey-html-form","trial_index":7,"time_elapsed":238455,"internal_node_id":"0.0-6.0-0.0","params":{"nStudents":8,"maxExamples":70,"completionMinutes":15,"basePay":3,"maxBonus":6,"perTrialBonus":0.7,"perTrialBonusThreshold":0.08,"exampleCost":0.01},"classroomParams":{"A":{"a":1,"b":9},"B":{"a":9,"b":1}},"conditions":["nonSeqFull","nonSeqPartial","seqNoFeedback","seqFeedback"],"classroomPairings":[["A","B"]],"coinWeights":[0.3,0.7],"subjectId":"A38OPVI04AH4JG","assignmentId":"3TOK3KHVJU4AZJ9ELZR2U8VFWXL7OF","hitId":"33KGGVH24U3HWMAA68SNNSZ85PBX13","url":"https://gershmanlab.com/experiments/alicia/teaching/experiment/?hitId=33KGGVH24U3HWMAA68SNNSZ85PBX13&workerId=A38OPVI04AH4JG&assignmentId=3TOK3KHVJU4AZJ9ELZR2U8VFWXL7OF&a=V3OT5&tp_a=V3OT5&b=3TOK3KHVJU4AZJ9ELZR2U8VFWXL7OF&tp_b=3TOK3KHVJU4AZJ9ELZR2U8VFWXL7OF&c=368485&tp_c=368485","heads":3,"tails":7,"studentIndex":0,"studentTrueHypers":{"a":1,"b":9},"studentGuess":"0.20","delta":0.09999999999999998,"totalExamples":10,"bonusSoFar":0},{"rt":11076,"response":{"heads":"3","tails":"7"},"type":"response","condition":"seqNoFeedback","trueTheta":0.3,"classrooms":["A","B"],"studentTrueClassroom":"A","exampleSet":"second","trial_type":"survey-html-form","trial_index":10,"time_elapsed":254793,"internal_node_id":"0.0-9.0-0.0","params":{"nStudents":8,"maxExamples":70,"completionMinutes":15,"basePay":3,"maxBonus":6,"perTrialBonus":0.7,"perTrialBonusThreshold":0.08,"exampleCost":0.01},"classroomParams":{"A":{"a":1,"b":9},"B":{"a":9,"b":1}},"conditions":["nonSeqFull","nonSeqPartial","seqNoFeedback","seqFeedback"],"classroomPairings":[["A","B"]],"coinWeights":[0.3,0.7],"subjectId":"A38OPVI04AH4JG","assignmentId":"3TOK3KHVJU4AZJ9ELZR2U8VFWXL7OF","hitId":"33KGGVH24U3HWMAA68SNNSZ85PBX13","url":"https://gershmanlab.com/experiments/alicia/teaching/experiment/?hitId=33KGGVH24U3HWMAA68SNNSZ85PBX13&workerId=A38OPVI04AH4JG&assignmentId=3TOK3KHVJU4AZJ9ELZR2U8VFWXL7OF&a=V3OT5&tp_a=V3OT5&b=3TOK3KHVJU4AZJ9ELZR2U8VFWXL7OF&tp_b=3TOK3KHVJU4AZJ9ELZR2U8VFWXL7OF&c=368485&tp_c=368485","firstResponseHeads":3,"firstResponseTails":7,"secondResponseHeads":3,"secondResponseTails":7,"totalHeads":6,"totalTails":14,"studentIndex":0,"studentTrueHypers":{"a":1,"b":9},"studentGuess":"0.23","delta":0.06999999999999998,"bonus":0.5,"bonusSoFar":0.5,"totalExamples":20},{"rt":4339,"response":{"heads":"7","tails":"3"},"type":"response","condition":"nonSeqPartial","trueTheta":0.7,"classrooms":["A","B"],"studentTrueClassroom":"A","exampleSet":"first","trial_type":"survey-html-form","trial_index":16,"time_elapsed":280153,"internal_node_id":"0.0-15.0-0.0","params":{"nStudents":8,"maxExamples":70,"completionMinutes":15,"basePay":3,"maxBonus":6,"perTrialBonus":0.7,"perTrialBonusThreshold":0.08,"exampleCost":0.01},"classroomParams":{"A":{"a":1,"b":9},"B":{"a":9,"b":1}},"conditions":["nonSeqFull","nonSeqPartial","seqNoFeedback","seqFeedback"],"classroomPairings":[["A","B"]],"coinWeights":[0.3,0.7],"subjectId":"A38OPVI04AH4JG","assignmentId":"3TOK3KHVJU4AZJ9ELZR2U8VFWXL7OF","hitId":"33KGGVH24U3HWMAA68SNNSZ85PBX13","url":"https://gershmanlab.com/experiments/alicia/teaching/experiment/?hitId=33KGGVH24U3HWMAA68SNNSZ85PBX13&workerId=A38OPVI04AH4JG&assignmentId=3TOK3KHVJU4AZJ9ELZR2U8VFWXL7OF&a=V3OT5&tp_a=V3OT5&b=3TOK3KHVJU4AZJ9ELZR2U8VFWXL7OF&tp_b=3TOK3KHVJU4AZJ9ELZR2U8VFWXL7OF&c=368485&tp_c=368485","heads":7,"tails":3,"studentIndex":1,"studentTrueHypers":{"a":1,"b":9},"studentGuess":"0.40","delta":0.29999999999999993,"totalExamples":10,"bonus":0,"bonusSoFar":0.5},{"rt":4888,"response":{"heads":"7","tails":"3"},"type":"response","condition":"seqFeedback","trueTheta":0.7,"classrooms":["A","B"],"studentTrueClassroom":"A","exampleSet":"first","trial_type":"survey-html-form","trial_index":22,"time_elapsed":300089,"internal_node_id":"0.0-21.0-0.0","params":{"nStudents":8,"maxExamples":70,"completionMinutes":15,"basePay":3,"maxBonus":6,"perTrialBonus":0.7,"perTrialBonusThreshold":0.08,"exampleCost":0.01},"classroomParams":{"A":{"a":1,"b":9},"B":{"a":9,"b":1}},"conditions":["nonSeqFull","nonSeqPartial","seqNoFeedback","seqFeedback"],"classroomPairings":[["A","B"]],"coinWeights":[0.3,0.7],"subjectId":"A38OPVI04AH4JG","assignmentId":"3TOK3KHVJU4AZJ9ELZR2U8VFWXL7OF","hitId":"33KGGVH24U3HWMAA68SNNSZ85PBX13","url":"https://gershmanlab.com/experiments/alicia/teaching/experiment/?hitId=33KGGVH24U3HWMAA68SNNSZ85PBX13&workerId=A38OPVI04AH4JG&assignmentId=3TOK3KHVJU4AZJ9ELZR2U8VFWXL7OF&a=V3OT5&tp_a=V3OT5&b=3TOK3KHVJU4AZJ9ELZR2U8VFWXL7OF&tp_b=3TOK3KHVJU4AZJ9ELZR2U8VFWXL7OF&c=368485&tp_c=368485","heads":7,"tails":3,"studentIndex":2,"studentTrueHypers":{"a":1,"b":9},"studentGuess":"0.40","delta":0.29999999999999993,"totalExamples":10,"bonusSoFar":0.5},{"rt":3727,"response":{"heads":"7","tails":"3"},"type":"response","condition":"seqFeedback","trueTheta":0.7,"classrooms":["A","B"],"studentTrueClassroom":"A","exampleSet":"second","trial_type":"survey-html-form","trial_index":26,"time_elapsed":314057,"internal_node_id":"0.0-25.0-0.0","params":{"nStudents":8,"maxExamples":70,"completionMinutes":15,"basePay":3,"maxBonus":6,"perTrialBonus":0.7,"perTrialBonusThreshold":0.08,"exampleCost":0.01},"classroomParams":{"A":{"a":1,"b":9},"B":{"a":9,"b":1}},"conditions":["nonSeqFull","nonSeqPartial","seqNoFeedback","seqFeedback"],"classroomPairings":[["A","B"]],"coinWeights":[0.3,0.7],"subjectId":"A38OPVI04AH4JG","assignmentId":"3TOK3KHVJU4AZJ9ELZR2U8VFWXL7OF","hitId":"33KGGVH24U3HWMAA68SNNSZ85PBX13","url":"https://gershmanlab.com/experiments/alicia/teaching/experiment/?hitId=33KGGVH24U3HWMAA68SNNSZ85PBX13&workerId=A38OPVI04AH4JG&assignmentId=3TOK3KHVJU4AZJ9ELZR2U8VFWXL7OF&a=V3OT5&tp_a=V3OT5&b=3TOK3KHVJU4AZJ9ELZR2U8VFWXL7OF&tp_b=3TOK3KHVJU4AZJ9ELZR2U8VFWXL7OF&c=368485&tp_c=368485","firstResponseHeads":7,"firstResponseTails":3,"secondResponseHeads":7,"secondResponseTails":3,"totalHeads":14,"totalTails":6,"studentIndex":2,"studentTrueHypers":{"a":1,"b":9},"studentGuess":"0.50","delta":0.19999999999999996,"bonus":0,"bonusSoFar":0.5,"totalExamples":20},{"rt":3200,"response":{"heads":"3","tails":"7"},"type":"response","condition":"nonSeqFull","trueTheta":0.3,"classrooms":["A","B"],"studentTrueClassroom":"B","exampleSet":"first","trial_type":"survey-html-form","trial_index":32,"time_elapsed":330201,"internal_node_id":"0.0-31.0-0.0","params":{"nStudents":8,"maxExamples":70,"completionMinutes":15,"basePay":3,"maxBonus":6,"perTrialBonus":0.7,"perTrialBonusThreshold":0.08,"exampleCost":0.01},"classroomParams":{"A":{"a":1,"b":9},"B":{"a":9,"b":1}},"conditions":["nonSeqFull","nonSeqPartial","seqNoFeedback","seqFeedback"],"classroomPairings":[["A","B"]],"coinWeights":[0.3,0.7],"subjectId":"A38OPVI04AH4JG","assignmentId":"3TOK3KHVJU4AZJ9ELZR2U8VFWXL7OF","hitId":"33KGGVH24U3HWMAA68SNNSZ85PBX13","url":"https://gershmanlab.com/experiments/alicia/teaching/experiment/?hitId=33KGGVH24U3HWMAA68SNNSZ85PBX13&workerId=A38OPVI04AH4JG&assignmentId=3TOK3KHVJU4AZJ9ELZR2U8VFWXL7OF&a=V3OT5&tp_a=V3OT5&b=3TOK3KHVJU4AZJ9ELZR2U8VFWXL7OF&tp_b=3TOK3KHVJU4AZJ9ELZR2U8VFWXL7OF&c=368485&tp_c=368485","heads":3,"tails":7,"studentIndex":3,"studentTrueHypers":{"a":9,"b":1},"studentGuess":"0.60","delta":0.3,"totalExamples":10,"bonus":0,"bonusSoFar":0.5},{"rt":2391,"response":{"heads":"7","tails":"3"},"type":"response","condition":"seqNoFeedback","trueTheta":0.7,"classrooms":["A","B"],"studentTrueClassroom":"A","exampleSet":"first","trial_type":"survey-html-form","trial_index":38,"time_elapsed":346377,"internal_node_id":"0.0-37.0-0.0","params":{"nStudents":8,"maxExamples":70,"completionMinutes":15,"basePay":3,"maxBonus":6,"perTrialBonus":0.7,"perTrialBonusThreshold":0.08,"exampleCost":0.01},"classroomParams":{"A":{"a":1,"b":9},"B":{"a":9,"b":1}},"conditions":["nonSeqFull","nonSeqPartial","seqNoFeedback","seqFeedback"],"classroomPairings":[["A","B"]],"coinWeights":[0.3,0.7],"subjectId":"A38OPVI04AH4JG","assignmentId":"3TOK3KHVJU4AZJ9ELZR2U8VFWXL7OF","hitId":"33KGGVH24U3HWMAA68SNNSZ85PBX13","url":"https://gershmanlab.com/experiments/alicia/teaching/experiment/?hitId=33KGGVH24U3HWMAA68SNNSZ85PBX13&workerId=A38OPVI04AH4JG&assignmentId=3TOK3KHVJU4AZJ9ELZR2U8VFWXL7OF&a=V3OT5&tp_a=V3OT5&b=3TOK3KHVJU4AZJ9ELZR2U8VFWXL7OF&tp_b=3TOK3KHVJU4AZJ9ELZR2U8VFWXL7OF&c=368485&tp_c=368485","heads":7,"tails":3,"studentIndex":4,"studentTrueHypers":{"a":1,"b":9},"studentGuess":"0.40","delta":0.29999999999999993,"totalExamples":10,"bonusSoFar":0.5},{"rt":5028,"response":{"heads":"7","tails":"3"},"type":"response","condition":"seqNoFeedback","trueTheta":0.7,"classrooms":["A","B"],"studentTrueClassroom":"A","exampleSet":"second","trial_type":"survey-html-form","trial_index":41,"time_elapsed":356913,"internal_node_id":"0.0-40.0-0.0","params":{"nStudents":8,"maxExamples":70,"completionMinutes":15,"basePay":3,"maxBonus":6,"perTrialBonus":0.7,"perTrialBonusThreshold":0.08,"exampleCost":0.01},"classroomParams":{"A":{"a":1,"b":9},"B":{"a":9,"b":1}},"conditions":["nonSeqFull","nonSeqPartial","seqNoFeedback","seqFeedback"],"classroomPairings":[["A","B"]],"coinWeights":[0.3,0.7],"subjectId":"A38OPVI04AH4JG","assignmentId":"3TOK3KHVJU4AZJ9ELZR2U8VFWXL7OF","hitId":"33KGGVH24U3HWMAA68SNNSZ85PBX13","url":"https://gershmanlab.com/experiments/alicia/teaching/experiment/?hitId=33KGGVH24U3HWMAA68SNNSZ85PBX13&workerId=A38OPVI04AH4JG&assignmentId=3TOK3KHVJU4AZJ9ELZR2U8VFWXL7OF&a=V3OT5&tp_a=V3OT5&b=3TOK3KHVJU4AZJ9ELZR2U8VFWXL7OF&tp_b=3TOK3KHVJU4AZJ9ELZR2U8VFWXL7OF&c=368485&tp_c=368485","firstResponseHeads":7,"firstResponseTails":3,"secondResponseHeads":7,"secondResponseTails":3,"totalHeads":14,"totalTails":6,"studentIndex":4,"studentTrueHypers":{"a":1,"b":9},"studentGuess":"0.50","delta":0.19999999999999996,"bonus":0,"bonusSoFar":0.5,"totalExamples":20},{"rt":3031,"response":{"heads":"3","tails":"7"},"type":"response","condition":"seqFeedback","trueTheta":0.3,"classrooms":["A","B"],"studentTrueClassroom":"A","exampleSet":"first","trial_type":"survey-html-form","trial_index":47,"time_elapsed":372833,"internal_node_id":"0.0-46.0-0.0","params":{"nStudents":8,"maxExamples":70,"completionMinutes":15,"basePay":3,"maxBonus":6,"perTrialBonus":0.7,"perTrialBonusThreshold":0.08,"exampleCost":0.01},"classroomParams":{"A":{"a":1,"b":9},"B":{"a":9,"b":1}},"conditions":["nonSeqFull","nonSeqPartial","seqNoFeedback","seqFeedback"],"classroomPairings":[["A","B"]],"coinWeights":[0.3,0.7],"subjectId":"A38OPVI04AH4JG","assignmentId":"3TOK3KHVJU4AZJ9ELZR2U8VFWXL7OF","hitId":"33KGGVH24U3HWMAA68SNNSZ85PBX13","url":"https://gershmanlab.com/experiments/alicia/teaching/experiment/?hitId=33KGGVH24U3HWMAA68SNNSZ85PBX13&workerId=A38OPVI04AH4JG&assignmentId=3TOK3KHVJU4AZJ9ELZR2U8VFWXL7OF&a=V3OT5&tp_a=V3OT5&b=3TOK3KHVJU4AZJ9ELZR2U8VFWXL7OF&tp_b=3TOK3KHVJU4AZJ9ELZR2U8VFWXL7OF&c=368485&tp_c=368485","heads":3,"tails":7,"studentIndex":5,"studentTrueHypers":{"a":1,"b":9},"studentGuess":"0.20","delta":0.09999999999999998,"totalExamples":10,"bonusSoFar":0.5},{"rt":4592,"response":{"heads":"3","tails":"7"},"type":"response","condition":"seqFeedback","trueTheta":0.3,"classrooms":["A","B"],"studentTrueClassroom":"A","exampleSet":"second","trial_type":"survey-html-form","trial_index":51,"time_elapsed":386841,"internal_node_id":"0.0-50.0-0.0","params":{"nStudents":8,"maxExamples":70,"completionMinutes":15,"basePay":3,"maxBonus":6,"perTrialBonus":0.7,"perTrialBonusThreshold":0.08,"exampleCost":0.01},"classroomParams":{"A":{"a":1,"b":9},"B":{"a":9,"b":1}},"conditions":["nonSeqFull","nonSeqPartial","seqNoFeedback","seqFeedback"],"classroomPairings":[["A","B"]],"coinWeights":[0.3,0.7],"subjectId":"A38OPVI04AH4JG","assignmentId":"3TOK3KHVJU4AZJ9ELZR2U8VFWXL7OF","hitId":"33KGGVH24U3HWMAA68SNNSZ85PBX13","url":"https://gershmanlab.com/experiments/alicia/teaching/experiment/?hitId=33KGGVH24U3HWMAA68SNNSZ85PBX13&workerId=A38OPVI04AH4JG&assignmentId=3TOK3KHVJU4AZJ9ELZR2U8VFWXL7OF&a=V3OT5&tp_a=V3OT5&b=3TOK3KHVJU4AZJ9ELZR2U8VFWXL7OF&tp_b=3TOK3KHVJU4AZJ9ELZR2U8VFWXL7OF&c=368485&tp_c=368485","firstResponseHeads":3,"firstResponseTails":7,"secondResponseHeads":3,"secondResponseTails":7,"totalHeads":6,"totalTails":14,"studentIndex":5,"studentTrueHypers":{"a":1,"b":9},"studentGuess":"0.23","delta":0.06999999999999998,"bonus":0.5,"bonusSoFar":1,"totalExamples":20},{"rt":2472,"response":{"heads":"7","tails":"3"},"type":"response","condition":"nonSeqFull","trueTheta":0.7,"classrooms":["A","B"],"studentTrueClassroom":"A","exampleSet":"first","trial_type":"survey-html-form","trial_index":57,"time_elapsed":404625,"internal_node_id":"0.0-56.0-0.0","params":{"nStudents":8,"maxExamples":70,"completionMinutes":15,"basePay":3,"maxBonus":6,"perTrialBonus":0.7,"perTrialBonusThreshold":0.08,"exampleCost":0.01},"classroomParams":{"A":{"a":1,"b":9},"B":{"a":9,"b":1}},"conditions":["nonSeqFull","nonSeqPartial","seqNoFeedback","seqFeedback"],"classroomPairings":[["A","B"]],"coinWeights":[0.3,0.7],"subjectId":"A38OPVI04AH4JG","assignmentId":"3TOK3KHVJU4AZJ9ELZR2U8VFWXL7OF","hitId":"33KGGVH24U3HWMAA68SNNSZ85PBX13","url":"https://gershmanlab.com/experiments/alicia/teaching/experiment/?hitId=33KGGVH24U3HWMAA68SNNSZ85PBX13&workerId=A38OPVI04AH4JG&assignmentId=3TOK3KHVJU4AZJ9ELZR2U8VFWXL7OF&a=V3OT5&tp_a=V3OT5&b=3TOK3KHVJU4AZJ9ELZR2U8VFWXL7OF&tp_b=3TOK3KHVJU4AZJ9ELZR2U8VFWXL7OF&c=368485&tp_c=368485","heads":7,"tails":3,"studentIndex":6,"studentTrueHypers":{"a":1,"b":9},"studentGuess":"0.40","delta":0.29999999999999993,"totalExamples":10,"bonus":0,"bonusSoFar":1},{"rt":2927,"response":{"heads":"3","tails":"7"},"type":"response","condition":"nonSeqPartial","trueTheta":0.3,"classrooms":["A","B"],"studentTrueClassroom":"B","exampleSet":"first","trial_type":"survey-html-form","trial_index":63,"time_elapsed":421585,"internal_node_id":"0.0-62.0-0.0","params":{"nStudents":8,"maxExamples":70,"completionMinutes":15,"basePay":3,"maxBonus":6,"perTrialBonus":0.7,"perTrialBonusThreshold":0.08,"exampleCost":0.01},"classroomParams":{"A":{"a":1,"b":9},"B":{"a":9,"b":1}},"conditions":["nonSeqFull","nonSeqPartial","seqNoFeedback","seqFeedback"],"classroomPairings":[["A","B"]],"coinWeights":[0.3,0.7],"subjectId":"A38OPVI04AH4JG","assignmentId":"3TOK3KHVJU4AZJ9ELZR2U8VFWXL7OF","hitId":"33KGGVH24U3HWMAA68SNNSZ85PBX13","url":"https://gershmanlab.com/experiments/alicia/teaching/experiment/?hitId=33KGGVH24U3HWMAA68SNNSZ85PBX13&workerId=A38OPVI04AH4JG&assignmentId=3TOK3KHVJU4AZJ9ELZR2U8VFWXL7OF&a=V3OT5&tp_a=V3OT5&b=3TOK3KHVJU4AZJ9ELZR2U8VFWXL7OF&tp_b=3TOK3KHVJU4AZJ9ELZR2U8VFWXL7OF&c=368485&tp_c=368485","heads":3,"tails":7,"studentIndex":7,"studentTrueHypers":{"a":9,"b":1},"studentGuess":"0.60","delta":0.3,"totalExamples":10,"bonus":0,"bonusSoFar":1},{"rt":11472,"response":{"gender":"male","age":"54","understood":"yes","strategy":"truth","comments":"none"},"type":"response","trial_type":"survey-html-form","trial_index":67,"time_elapsed":441169,"internal_node_id":"0.0-67.0","params":{"nStudents":8,"maxExamples":70,"completionMinutes":15,"basePay":3,"maxBonus":6,"perTrialBonus":0.7,"perTrialBonusThreshold":0.08,"exampleCost":0.01},"classroomParams":{"A":{"a":1,"b":9},"B":{"a":9,"b":1}},"conditions":["nonSeqFull","nonSeqPartial","seqNoFeedback","seqFeedback"],"classroomPairings":[["A","B"]],"coinWeights":[0.3,0.7],"subjectId":"A38OPVI04AH4JG","assignmentId":"3TOK3KHVJU4AZJ9ELZR2U8VFWXL7OF","hitId":"33KGGVH24U3HWMAA68SNNSZ85PBX13","url":"https://gershmanlab.com/experiments/alicia/teaching/experiment/?hitId=33KGGVH24U3HWMAA68SNNSZ85PBX13&workerId=A38OPVI04AH4JG&assignmentId=3TOK3KHVJU4AZJ9ELZR2U8VFWXL7OF&a=V3OT5&tp_a=V3OT5&b=3TOK3KHVJU4AZJ9ELZR2U8VFWXL7OF&tp_b=3TOK3KHVJU4AZJ9ELZR2U8VFWXL7OF&c=368485&tp_c=368485","totalBonus":1}]