[{"rt":24185,"response":{"heads":"3","tails":"7"},"type":"response","condition":"nonSeqFull","trueTheta":0.3,"classrooms":["A","B"],"studentTrueClassroom":"A","exampleSet":"first","trial_type":"survey-html-form","trial_index":10,"time_elapsed":414473,"internal_node_id":"0.0-6.0-0.0","params":{"nStudents":8,"maxExamples":70,"completionMinutes":15,"basePay":3,"maxBonus":6,"perTrialBonus":0.7,"perTrialBonusThreshold":0.08,"exampleCost":0.01},"classroomParams":{"A":{"a":1,"b":9},"B":{"a":9,"b":1}},"conditions":["nonSeqFull","nonSeqPartial","seqNoFeedback","seqFeedback"],"classroomPairings":[["A","B"]],"coinWeights":[0.3,0.7],"subjectId":"A3BLJ6QSDTZC9U","assignmentId":"3C8HJ7UOP8G5JQU8RE48TOZ9BQJZMK","hitId":"3VEI3XUCZRJ0GI70IBXLZ6VI7OWRP5","url":"https://gershmanlab.com/experiments/alicia/teaching/experiment/?hitId=3VEI3XUCZRJ0GI70IBXLZ6VI7OWRP5&workerId=A3BLJ6QSDTZC9U&assignmentId=3C8HJ7UOP8G5JQU8RE48TOZ9BQJZMK&a=OJ8C5&tp_a=OJ8C5&b=3C8HJ7UOP8G5JQU8RE48TOZ9BQJZMK&tp_b=3C8HJ7UOP8G5JQU8RE48TOZ9BQJZMK&c=368485&tp_c=368485","heads":3,"tails":7,"studentIndex":0,"studentTrueHypers":{"a":1,"b":9},"studentGuess":"0.20","delta":0.09999999999999998,"totalExamples":10,"bonus":0,"bonusSoFar":0},{"rt":23303,"response":{"heads":"7","tails":"3"},"type":"response","condition":"nonSeqPartial","trueTheta":0.7,"classrooms":["A","B"],"studentTrueClassroom":"B","exampleSet":"first","trial_type":"survey-html-form","trial_index":16,"time_elapsed":483493,"internal_node_id":"0.0-12.0-0.0","params":{"nStudents":8,"maxExamples":70,"completionMinutes":15,"basePay":3,"maxBonus":6,"perTrialBonus":0.7,"perTrialBonusThreshold":0.08,"exampleCost":0.01},"classroomParams":{"A":{"a":1,"b":9},"B":{"a":9,"b":1}},"conditions":["nonSeqFull","nonSeqPartial","seqNoFeedback","seqFeedback"],"classroomPairings":[["A","B"]],"coinWeights":[0.3,0.7],"subjectId":"A3BLJ6QSDTZC9U","assignmentId":"3C8HJ7UOP8G5JQU8RE48TOZ9BQJZMK","hitId":"3VEI3XUCZRJ0GI70IBXLZ6VI7OWRP5","url":"https://gershmanlab.com/experiments/alicia/teaching/experiment/?hitId=3VEI3XUCZRJ0GI70IBXLZ6VI7OWRP5&workerId=A3BLJ6QSDTZC9U&assignmentId=3C8HJ7UOP8G5JQU8RE48TOZ9BQJZMK&a=OJ8C5&tp_a=OJ8C5&b=3C8HJ7UOP8G5JQU8RE48TOZ9BQJZMK&tp_b=3C8HJ7UOP8G5JQU8RE48TOZ9BQJZMK&c=368485&tp_c=368485","heads":7,"tails":3,"studentIndex":1,"studentTrueHypers":{"a":9,"b":1},"studentGuess":"0.80","delta":0.10000000000000009,"totalExamples":10,"bonus":0,"bonusSoFar":0},{"rt":36826,"response":{"heads":"7","tails":"3"},"type":"response","condition":"seqNoFeedback","trueTheta":0.7,"classrooms":["A","B"],"studentTrueClassroom":"B","exampleSet":"first","trial_type":"survey-html-form","trial_index":22,"time_elapsed":562322,"internal_node_id":"0.0-18.0-0.0","params":{"nStudents":8,"maxExamples":70,"completionMinutes":15,"basePay":3,"maxBonus":6,"perTrialBonus":0.7,"perTrialBonusThreshold":0.08,"exampleCost":0.01},"classroomParams":{"A":{"a":1,"b":9},"B":{"a":9,"b":1}},"conditions":["nonSeqFull","nonSeqPartial","seqNoFeedback","seqFeedback"],"classroomPairings":[["A","B"]],"coinWeights":[0.3,0.7],"subjectId":"A3BLJ6QSDTZC9U","assignmentId":"3C8HJ7UOP8G5JQU8RE48TOZ9BQJZMK","hitId":"3VEI3XUCZRJ0GI70IBXLZ6VI7OWRP5","url":"https://gershmanlab.com/experiments/alicia/teaching/experiment/?hitId=3VEI3XUCZRJ0GI70IBXLZ6VI7OWRP5&workerId=A3BLJ6QSDTZC9U&assignmentId=3C8HJ7UOP8G5JQU8RE48TOZ9BQJZMK&a=OJ8C5&tp_a=OJ8C5&b=3C8HJ7UOP8G5JQU8RE48TOZ9BQJZMK&tp_b=3C8HJ7UOP8G5JQU8RE48TOZ9BQJZMK&c=368485&tp_c=368485","heads":7,"tails":3,"studentIndex":2,"studentTrueHypers":{"a":9,"b":1},"studentGuess":"0.80","delta":0.10000000000000009,"totalExamples":10,"bonusSoFar":0},{"rt":13722,"response":{"heads":"7","tails":"3"},"type":"response","condition":"seqNoFeedback","trueTheta":0.7,"classrooms":["A","B"],"studentTrueClassroom":"B","exampleSet":"second","trial_type":"survey-html-form","trial_index":25,"time_elapsed":582821,"internal_node_id":"0.0-21.0-0.0","params":{"nStudents":8,"maxExamples":70,"completionMinutes":15,"basePay":3,"maxBonus":6,"perTrialBonus":0.7,"perTrialBonusThreshold":0.08,"exampleCost":0.01},"classroomParams":{"A":{"a":1,"b":9},"B":{"a":9,"b":1}},"conditions":["nonSeqFull","nonSeqPartial","seqNoFeedback","seqFeedback"],"classroomPairings":[["A","B"]],"coinWeights":[0.3,0.7],"subjectId":"A3BLJ6QSDTZC9U","assignmentId":"3C8HJ7UOP8G5JQU8RE48TOZ9BQJZMK","hitId":"3VEI3XUCZRJ0GI70IBXLZ6VI7OWRP5","url":"https://gershmanlab.com/experiments/alicia/teaching/experiment/?hitId=3VEI3XUCZRJ0GI70IBXLZ6VI7OWRP5&workerId=A3BLJ6QSDTZC9U&assignmentId=3C8HJ7UOP8G5JQU8RE48TOZ9BQJZMK&a=OJ8C5&tp_a=OJ8C5&b=3C8HJ7UOP8G5JQU8RE48TOZ9BQJZMK&tp_b=3C8HJ7UOP8G5JQU8RE48TOZ9BQJZMK&c=368485&tp_c=368485","firstResponseHeads":7,"firstResponseTails":3,"secondResponseHeads":7,"secondResponseTails":3,"totalHeads":14,"totalTails":6,"studentIndex":2,"studentTrueHypers":{"a":9,"b":1},"studentGuess":"0.77","delta":0.07000000000000006,"bonus":0.5,"bonusSoFar":0.5,"totalExamples":20},{"rt":15759,"response":{"heads":"3","tails":"7"},"type":"response","condition":"nonSeqPartial","trueTheta":0.3,"classrooms":["A","B"],"studentTrueClassroom":"A","exampleSet":"first","trial_type":"survey-html-form","trial_index":31,"time_elapsed":622614,"internal_node_id":"0.0-27.0-0.0","params":{"nStudents":8,"maxExamples":70,"completionMinutes":15,"basePay":3,"maxBonus":6,"perTrialBonus":0.7,"perTrialBonusThreshold":0.08,"exampleCost":0.01},"classroomParams":{"A":{"a":1,"b":9},"B":{"a":9,"b":1}},"conditions":["nonSeqFull","nonSeqPartial","seqNoFeedback","seqFeedback"],"classroomPairings":[["A","B"]],"coinWeights":[0.3,0.7],"subjectId":"A3BLJ6QSDTZC9U","assignmentId":"3C8HJ7UOP8G5JQU8RE48TOZ9BQJZMK","hitId":"3VEI3XUCZRJ0GI70IBXLZ6VI7OWRP5","url":"https://gershmanlab.com/experiments/alicia/teaching/experiment/?hitId=3VEI3XUCZRJ0GI70IBXLZ6VI7OWRP5&workerId=A3BLJ6QSDTZC9U&assignmentId=3C8HJ7UOP8G5JQU8RE48TOZ9BQJZMK&a=OJ8C5&tp_a=OJ8C5&b=3C8HJ7UOP8G5JQU8RE48TOZ9BQJZMK&tp_b=3C8HJ7UOP8G5JQU8RE48TOZ9BQJZMK&c=368485&tp_c=368485","heads":3,"tails":7,"studentIndex":3,"studentTrueHypers":{"a":1,"b":9},"studentGuess":"0.20","delta":0.09999999999999998,"totalExamples":10,"bonus":0,"bonusSoFar":0.5},{"rt":34167,"response":{"heads":"7","tails":"3"},"type":"response","condition":"seqFeedback","trueTheta":0.7,"classrooms":["A","B"],"studentTrueClassroom":"B","exampleSet":"first","trial_type":"survey-html-form","trial_index":37,"time_elapsed":680925,"internal_node_id":"0.0-33.0-0.0","params":{"nStudents":8,"maxExamples":70,"completionMinutes":15,"basePay":3,"maxBonus":6,"perTrialBonus":0.7,"perTrialBonusThreshold":0.08,"exampleCost":0.01},"classroomParams":{"A":{"a":1,"b":9},"B":{"a":9,"b":1}},"conditions":["nonSeqFull","nonSeqPartial","seqNoFeedback","seqFeedback"],"classroomPairings":[["A","B"]],"coinWeights":[0.3,0.7],"subjectId":"A3BLJ6QSDTZC9U","assignmentId":"3C8HJ7UOP8G5JQU8RE48TOZ9BQJZMK","hitId":"3VEI3XUCZRJ0GI70IBXLZ6VI7OWRP5","url":"https://gershmanlab.com/experiments/alicia/teaching/experiment/?hitId=3VEI3XUCZRJ0GI70IBXLZ6VI7OWRP5&workerId=A3BLJ6QSDTZC9U&assignmentId=3C8HJ7UOP8G5JQU8RE48TOZ9BQJZMK&a=OJ8C5&tp_a=OJ8C5&b=3C8HJ7UOP8G5JQU8RE48TOZ9BQJZMK&tp_b=3C8HJ7UOP8G5JQU8RE48TOZ9BQJZMK&c=368485&tp_c=368485","heads":7,"tails":3,"studentIndex":4,"studentTrueHypers":{"a":9,"b":1},"studentGuess":"0.80","delta":0.10000000000000009,"totalExamples":10,"bonusSoFar":0.5},{"rt":29646,"response":{"heads":"0","tails":"10"},"type":"response","condition":"seqFeedback","trueTheta":0.7,"classrooms":["A","B"],"studentTrueClassroom":"B","exampleSet":"second","trial_type":"survey-html-form","trial_index":41,"time_elapsed":724655,"internal_node_id":"0.0-37.0-0.0","params":{"nStudents":8,"maxExamples":70,"completionMinutes":15,"basePay":3,"maxBonus":6,"perTrialBonus":0.7,"perTrialBonusThreshold":0.08,"exampleCost":0.01},"classroomParams":{"A":{"a":1,"b":9},"B":{"a":9,"b":1}},"conditions":["nonSeqFull","nonSeqPartial","seqNoFeedback","seqFeedback"],"classroomPairings":[["A","B"]],"coinWeights":[0.3,0.7],"subjectId":"A3BLJ6QSDTZC9U","assignmentId":"3C8HJ7UOP8G5JQU8RE48TOZ9BQJZMK","hitId":"3VEI3XUCZRJ0GI70IBXLZ6VI7OWRP5","url":"https://gershmanlab.com/experiments/alicia/teaching/experiment/?hitId=3VEI3XUCZRJ0GI70IBXLZ6VI7OWRP5&workerId=A3BLJ6QSDTZC9U&assignmentId=3C8HJ7UOP8G5JQU8RE48TOZ9BQJZMK&a=OJ8C5&tp_a=OJ8C5&b=3C8HJ7UOP8G5JQU8RE48TOZ9BQJZMK&tp_b=3C8HJ7UOP8G5JQU8RE48TOZ9BQJZMK&c=368485&tp_c=368485","firstResponseHeads":7,"firstResponseTails":3,"secondResponseHeads":0,"secondResponseTails":10,"totalHeads":7,"totalTails":13,"studentIndex":4,"studentTrueHypers":{"a":9,"b":1},"studentGuess":"0.53","delta":0.16999999999999993,"bonus":0,"bonusSoFar":0.5,"totalExamples":20},{"rt":12687,"response":{"heads":"3","tails":"7"},"type":"response","condition":"seqFeedback","trueTheta":0.3,"classrooms":["A","B"],"studentTrueClassroom":"B","exampleSet":"first","trial_type":"survey-html-form","trial_index":47,"time_elapsed":755397,"internal_node_id":"0.0-43.0-0.0","params":{"nStudents":8,"maxExamples":70,"completionMinutes":15,"basePay":3,"maxBonus":6,"perTrialBonus":0.7,"perTrialBonusThreshold":0.08,"exampleCost":0.01},"classroomParams":{"A":{"a":1,"b":9},"B":{"a":9,"b":1}},"conditions":["nonSeqFull","nonSeqPartial","seqNoFeedback","seqFeedback"],"classroomPairings":[["A","B"]],"coinWeights":[0.3,0.7],"subjectId":"A3BLJ6QSDTZC9U","assignmentId":"3C8HJ7UOP8G5JQU8RE48TOZ9BQJZMK","hitId":"3VEI3XUCZRJ0GI70IBXLZ6VI7OWRP5","url":"https://gershmanlab.com/experiments/alicia/teaching/experiment/?hitId=3VEI3XUCZRJ0GI70IBXLZ6VI7OWRP5&workerId=A3BLJ6QSDTZC9U&assignmentId=3C8HJ7UOP8G5JQU8RE48TOZ9BQJZMK&a=OJ8C5&tp_a=OJ8C5&b=3C8HJ7UOP8G5JQU8RE48TOZ9BQJZMK&tp_b=3C8HJ7UOP8G5JQU8RE48TOZ9BQJZMK&c=368485&tp_c=368485","heads":3,"tails":7,"studentIndex":5,"studentTrueHypers":{"a":9,"b":1},"studentGuess":"0.60","delta":0.3,"totalExamples":10,"bonusSoFar":0.5},{"rt":19277,"response":{"heads":"0","tails":"30"},"type":"response","condition":"seqFeedback","trueTheta":0.3,"classrooms":["A","B"],"studentTrueClassroom":"B","exampleSet":"second","trial_type":"survey-html-form","trial_index":51,"time_elapsed":784861,"internal_node_id":"0.0-47.0-0.0","params":{"nStudents":8,"maxExamples":70,"completionMinutes":15,"basePay":3,"maxBonus":6,"perTrialBonus":0.7,"perTrialBonusThreshold":0.08,"exampleCost":0.01},"classroomParams":{"A":{"a":1,"b":9},"B":{"a":9,"b":1}},"conditions":["nonSeqFull","nonSeqPartial","seqNoFeedback","seqFeedback"],"classroomPairings":[["A","B"]],"coinWeights":[0.3,0.7],"subjectId":"A3BLJ6QSDTZC9U","assignmentId":"3C8HJ7UOP8G5JQU8RE48TOZ9BQJZMK","hitId":"3VEI3XUCZRJ0GI70IBXLZ6VI7OWRP5","url":"https://gershmanlab.com/experiments/alicia/teaching/experiment/?hitId=3VEI3XUCZRJ0GI70IBXLZ6VI7OWRP5&workerId=A3BLJ6QSDTZC9U&assignmentId=3C8HJ7UOP8G5JQU8RE48TOZ9BQJZMK&a=OJ8C5&tp_a=OJ8C5&b=3C8HJ7UOP8G5JQU8RE48TOZ9BQJZMK&tp_b=3C8HJ7UOP8G5JQU8RE48TOZ9BQJZMK&c=368485&tp_c=368485","firstResponseHeads":3,"firstResponseTails":7,"secondResponseHeads":0,"secondResponseTails":30,"totalHeads":3,"totalTails":37,"studentIndex":5,"studentTrueHypers":{"a":9,"b":1},"studentGuess":"0.24","delta":0.06,"bonus":0.3,"bonusSoFar":0.8,"totalExamples":40},{"rt":58234,"response":{"heads":"0","tails":"23"},"type":"response","condition":"nonSeqFull","trueTheta":0.7,"classrooms":["A","B"],"studentTrueClassroom":"A","exampleSet":"first","trial_type":"survey-html-form","trial_index":57,"time_elapsed":862824,"internal_node_id":"0.0-53.0-0.0","params":{"nStudents":8,"maxExamples":70,"completionMinutes":15,"basePay":3,"maxBonus":6,"perTrialBonus":0.7,"perTrialBonusThreshold":0.08,"exampleCost":0.01},"classroomParams":{"A":{"a":1,"b":9},"B":{"a":9,"b":1}},"conditions":["nonSeqFull","nonSeqPartial","seqNoFeedback","seqFeedback"],"classroomPairings":[["A","B"]],"coinWeights":[0.3,0.7],"subjectId":"A3BLJ6QSDTZC9U","assignmentId":"3C8HJ7UOP8G5JQU8RE48TOZ9BQJZMK","hitId":"3VEI3XUCZRJ0GI70IBXLZ6VI7OWRP5","url":"https://gershmanlab.com/experiments/alicia/teaching/experiment/?hitId=3VEI3XUCZRJ0GI70IBXLZ6VI7OWRP5&workerId=A3BLJ6QSDTZC9U&assignmentId=3C8HJ7UOP8G5JQU8RE48TOZ9BQJZMK&a=OJ8C5&tp_a=OJ8C5&b=3C8HJ7UOP8G5JQU8RE48TOZ9BQJZMK&tp_b=3C8HJ7UOP8G5JQU8RE48TOZ9BQJZMK&c=368485&tp_c=368485","heads":0,"tails":23,"studentIndex":6,"studentTrueHypers":{"a":1,"b":9},"studentGuess":"0.03","delta":0.6699999999999999,"totalExamples":23,"bonus":0,"bonusSoFar":0.8},{"rt":9726,"response":{"heads":"3","tails":"7"},"type":"response","condition":"seqNoFeedback","trueTheta":0.3,"classrooms":["A","B"],"studentTrueClassroom":"A","exampleSet":"first","trial_type":"survey-html-form","trial_index":63,"time_elapsed":888349,"internal_node_id":"0.0-59.0-0.0","params":{"nStudents":8,"maxExamples":70,"completionMinutes":15,"basePay":3,"maxBonus":6,"perTrialBonus":0.7,"perTrialBonusThreshold":0.08,"exampleCost":0.01},"classroomParams":{"A":{"a":1,"b":9},"B":{"a":9,"b":1}},"conditions":["nonSeqFull","nonSeqPartial","seqNoFeedback","seqFeedback"],"classroomPairings":[["A","B"]],"coinWeights":[0.3,0.7],"subjectId":"A3BLJ6QSDTZC9U","assignmentId":"3C8HJ7UOP8G5JQU8RE48TOZ9BQJZMK","hitId":"3VEI3XUCZRJ0GI70IBXLZ6VI7OWRP5","url":"https://gershmanlab.com/experiments/alicia/teaching/experiment/?hitId=3VEI3XUCZRJ0GI70IBXLZ6VI7OWRP5&workerId=A3BLJ6QSDTZC9U&assignmentId=3C8HJ7UOP8G5JQU8RE48TOZ9BQJZMK&a=OJ8C5&tp_a=OJ8C5&b=3C8HJ7UOP8G5JQU8RE48TOZ9BQJZMK&tp_b=3C8HJ7UOP8G5JQU8RE48TOZ9BQJZMK&c=368485&tp_c=368485","heads":3,"tails":7,"studentIndex":7,"studentTrueHypers":{"a":1,"b":9},"studentGuess":"0.20","delta":0.09999999999999998,"totalExamples":10,"bonusSoFar":0.8},{"rt":10870,"response":{"heads":"3","tails":"7"},"type":"response","condition":"seqNoFeedback","trueTheta":0.3,"classrooms":["A","B"],"studentTrueClassroom":"A","exampleSet":"second","trial_type":"survey-html-form","trial_index":66,"time_elapsed":904501,"internal_node_id":"0.0-62.0-0.0","params":{"nStudents":8,"maxExamples":70,"completionMinutes":15,"basePay":3,"maxBonus":6,"perTrialBonus":0.7,"perTrialBonusThreshold":0.08,"exampleCost":0.01},"classroomParams":{"A":{"a":1,"b":9},"B":{"a":9,"b":1}},"conditions":["nonSeqFull","nonSeqPartial","seqNoFeedback","seqFeedback"],"classroomPairings":[["A","B"]],"coinWeights":[0.3,0.7],"subjectId":"A3BLJ6QSDTZC9U","assignmentId":"3C8HJ7UOP8G5JQU8RE48TOZ9BQJZMK","hitId":"3VEI3XUCZRJ0GI70IBXLZ6VI7OWRP5","url":"https://gershmanlab.com/experiments/alicia/teaching/experiment/?hitId=3VEI3XUCZRJ0GI70IBXLZ6VI7OWRP5&workerId=A3BLJ6QSDTZC9U&assignmentId=3C8HJ7UOP8G5JQU8RE48TOZ9BQJZMK&a=OJ8C5&tp_a=OJ8C5&b=3C8HJ7UOP8G5JQU8RE48TOZ9BQJZMK&tp_b=3C8HJ7UOP8G5JQU8RE48TOZ9BQJZMK&c=368485&tp_c=368485","firstResponseHeads":3,"firstResponseTails":7,"secondResponseHeads":3,"secondResponseTails":7,"totalHeads":6,"totalTails":14,"studentIndex":7,"studentTrueHypers":{"a":1,"b":9},"studentGuess":"0.23","delta":0.06999999999999998,"bonus":0.5,"bonusSoFar":1.3,"totalExamples":20},{"rt":46606,"response":{"gender":"female","age":"37","understood":"yes","strategy":"This was hard.  I tried to just send the information I had.  I tried adjusting to what they had seen. I couldn't figure it out.","comments":""},"type":"response","trial_type":"survey-html-form","trial_index":70,"time_elapsed":964053,"internal_node_id":"0.0-67.0","params":{"nStudents":8,"maxExamples":70,"completionMinutes":15,"basePay":3,"maxBonus":6,"perTrialBonus":0.7,"perTrialBonusThreshold":0.08,"exampleCost":0.01},"classroomParams":{"A":{"a":1,"b":9},"B":{"a":9,"b":1}},"conditions":["nonSeqFull","nonSeqPartial","seqNoFeedback","seqFeedback"],"classroomPairings":[["A","B"]],"coinWeights":[0.3,0.7],"subjectId":"A3BLJ6QSDTZC9U","assignmentId":"3C8HJ7UOP8G5JQU8RE48TOZ9BQJZMK","hitId":"3VEI3XUCZRJ0GI70IBXLZ6VI7OWRP5","url":"https://gershmanlab.com/experiments/alicia/teaching/experiment/?hitId=3VEI3XUCZRJ0GI70IBXLZ6VI7OWRP5&workerId=A3BLJ6QSDTZC9U&assignmentId=3C8HJ7UOP8G5JQU8RE48TOZ9BQJZMK&a=OJ8C5&tp_a=OJ8C5&b=3C8HJ7UOP8G5JQU8RE48TOZ9BQJZMK&tp_b=3C8HJ7UOP8G5JQU8RE48TOZ9BQJZMK&c=368485&tp_c=368485","totalBonus":1.3}]