[{"rt":20207,"response":{"heads":"7","tails":"3"},"type":"response","condition":"nonSeqPartial","trueTheta":0.7,"classrooms":["A","B"],"studentTrueClassroom":"B","exampleSet":"first","trial_type":"survey-html-form","trial_index":7,"time_elapsed":151232,"internal_node_id":"0.0-6.0-0.0","params":{"nStudents":8,"maxExamples":70,"completionMinutes":15,"basePay":3,"maxBonus":6,"perTrialBonus":0.7,"perTrialBonusThreshold":0.08,"exampleCost":0.01},"classroomParams":{"A":{"a":1,"b":9},"B":{"a":9,"b":1}},"conditions":["nonSeqFull","nonSeqPartial","seqNoFeedback","seqFeedback"],"classroomPairings":[["A","B"]],"coinWeights":[0.3,0.7],"subjectId":"A3CD3C99T8S6ON","assignmentId":"30BXRYBRP5JFXHOSPU4O2FXVD2GWHI","hitId":"391FPZIE4C80JT1T3SKLV8GBSWQUH7","url":"https://gershmanlab.com/experiments/alicia/teaching/experiment/?hitId=391FPZIE4C80JT1T3SKLV8GBSWQUH7&workerId=A3CD3C99T8S6ON&assignmentId=30BXRYBRP5JFXHOSPU4O2FXVD2GWHI&a=RRB05&tp_a=RRB05&b=30BXRYBRP5JFXHOSPU4O2FXVD2GWHI&tp_b=30BXRYBRP5JFXHOSPU4O2FXVD2GWHI&c=368485&tp_c=368485","heads":7,"tails":3,"studentIndex":0,"studentTrueHypers":{"a":9,"b":1},"studentGuess":"0.80","delta":0.10000000000000009,"totalExamples":10,"bonus":0,"bonusSoFar":0},{"rt":11399,"response":{"heads":"14","tails":"6"},"type":"response","condition":"seqNoFeedback","trueTheta":0.7,"classrooms":["A","B"],"studentTrueClassroom":"A","exampleSet":"first","trial_type":"survey-html-form","trial_index":13,"time_elapsed":183944,"internal_node_id":"0.0-12.0-0.0","params":{"nStudents":8,"maxExamples":70,"completionMinutes":15,"basePay":3,"maxBonus":6,"perTrialBonus":0.7,"perTrialBonusThreshold":0.08,"exampleCost":0.01},"classroomParams":{"A":{"a":1,"b":9},"B":{"a":9,"b":1}},"conditions":["nonSeqFull","nonSeqPartial","seqNoFeedback","seqFeedback"],"classroomPairings":[["A","B"]],"coinWeights":[0.3,0.7],"subjectId":"A3CD3C99T8S6ON","assignmentId":"30BXRYBRP5JFXHOSPU4O2FXVD2GWHI","hitId":"391FPZIE4C80JT1T3SKLV8GBSWQUH7","url":"https://gershmanlab.com/experiments/alicia/teaching/experiment/?hitId=391FPZIE4C80JT1T3SKLV8GBSWQUH7&workerId=A3CD3C99T8S6ON&assignmentId=30BXRYBRP5JFXHOSPU4O2FXVD2GWHI&a=RRB05&tp_a=RRB05&b=30BXRYBRP5JFXHOSPU4O2FXVD2GWHI&tp_b=30BXRYBRP5JFXHOSPU4O2FXVD2GWHI&c=368485&tp_c=368485","heads":14,"tails":6,"studentIndex":1,"studentTrueHypers":{"a":1,"b":9},"studentGuess":"0.50","delta":0.19999999999999996,"totalExamples":20,"bonusSoFar":0},{"rt":24737,"response":{"heads":"14","tails":"6"},"type":"response","condition":"seqNoFeedback","trueTheta":0.7,"classrooms":["A","B"],"studentTrueClassroom":"A","exampleSet":"second","trial_type":"survey-html-form","trial_index":16,"time_elapsed":213952,"internal_node_id":"0.0-15.0-0.0","params":{"nStudents":8,"maxExamples":70,"completionMinutes":15,"basePay":3,"maxBonus":6,"perTrialBonus":0.7,"perTrialBonusThreshold":0.08,"exampleCost":0.01},"classroomParams":{"A":{"a":1,"b":9},"B":{"a":9,"b":1}},"conditions":["nonSeqFull","nonSeqPartial","seqNoFeedback","seqFeedback"],"classroomPairings":[["A","B"]],"coinWeights":[0.3,0.7],"subjectId":"A3CD3C99T8S6ON","assignmentId":"30BXRYBRP5JFXHOSPU4O2FXVD2GWHI","hitId":"391FPZIE4C80JT1T3SKLV8GBSWQUH7","url":"https://gershmanlab.com/experiments/alicia/teaching/experiment/?hitId=391FPZIE4C80JT1T3SKLV8GBSWQUH7&workerId=A3CD3C99T8S6ON&assignmentId=30BXRYBRP5JFXHOSPU4O2FXVD2GWHI&a=RRB05&tp_a=RRB05&b=30BXRYBRP5JFXHOSPU4O2FXVD2GWHI&tp_b=30BXRYBRP5JFXHOSPU4O2FXVD2GWHI&c=368485&tp_c=368485","firstResponseHeads":14,"firstResponseTails":6,"secondResponseHeads":14,"secondResponseTails":6,"totalHeads":28,"totalTails":12,"studentIndex":1,"studentTrueHypers":{"a":1,"b":9},"studentGuess":"0.58","delta":0.12,"bonus":0,"bonusSoFar":0,"totalExamples":40},{"rt":23695,"response":{"heads":"4","tails":"6"},"type":"response","condition":"seqNoFeedback","trueTheta":0.3,"classrooms":["A","B"],"studentTrueClassroom":"A","exampleSet":"first","trial_type":"survey-html-form","trial_index":22,"time_elapsed":253744,"internal_node_id":"0.0-21.0-0.0","params":{"nStudents":8,"maxExamples":70,"completionMinutes":15,"basePay":3,"maxBonus":6,"perTrialBonus":0.7,"perTrialBonusThreshold":0.08,"exampleCost":0.01},"classroomParams":{"A":{"a":1,"b":9},"B":{"a":9,"b":1}},"conditions":["nonSeqFull","nonSeqPartial","seqNoFeedback","seqFeedback"],"classroomPairings":[["A","B"]],"coinWeights":[0.3,0.7],"subjectId":"A3CD3C99T8S6ON","assignmentId":"30BXRYBRP5JFXHOSPU4O2FXVD2GWHI","hitId":"391FPZIE4C80JT1T3SKLV8GBSWQUH7","url":"https://gershmanlab.com/experiments/alicia/teaching/experiment/?hitId=391FPZIE4C80JT1T3SKLV8GBSWQUH7&workerId=A3CD3C99T8S6ON&assignmentId=30BXRYBRP5JFXHOSPU4O2FXVD2GWHI&a=RRB05&tp_a=RRB05&b=30BXRYBRP5JFXHOSPU4O2FXVD2GWHI&tp_b=30BXRYBRP5JFXHOSPU4O2FXVD2GWHI&c=368485&tp_c=368485","heads":4,"tails":6,"studentIndex":2,"studentTrueHypers":{"a":1,"b":9},"studentGuess":"0.25","delta":0.04999999999999999,"totalExamples":10,"bonusSoFar":0},{"rt":6174,"response":{"heads":"4","tails":"6"},"type":"response","condition":"seqNoFeedback","trueTheta":0.3,"classrooms":["A","B"],"studentTrueClassroom":"A","exampleSet":"second","trial_type":"survey-html-form","trial_index":25,"time_elapsed":266184,"internal_node_id":"0.0-24.0-0.0","params":{"nStudents":8,"maxExamples":70,"completionMinutes":15,"basePay":3,"maxBonus":6,"perTrialBonus":0.7,"perTrialBonusThreshold":0.08,"exampleCost":0.01},"classroomParams":{"A":{"a":1,"b":9},"B":{"a":9,"b":1}},"conditions":["nonSeqFull","nonSeqPartial","seqNoFeedback","seqFeedback"],"classroomPairings":[["A","B"]],"coinWeights":[0.3,0.7],"subjectId":"A3CD3C99T8S6ON","assignmentId":"30BXRYBRP5JFXHOSPU4O2FXVD2GWHI","hitId":"391FPZIE4C80JT1T3SKLV8GBSWQUH7","url":"https://gershmanlab.com/experiments/alicia/teaching/experiment/?hitId=391FPZIE4C80JT1T3SKLV8GBSWQUH7&workerId=A3CD3C99T8S6ON&assignmentId=30BXRYBRP5JFXHOSPU4O2FXVD2GWHI&a=RRB05&tp_a=RRB05&b=30BXRYBRP5JFXHOSPU4O2FXVD2GWHI&tp_b=30BXRYBRP5JFXHOSPU4O2FXVD2GWHI&c=368485&tp_c=368485","firstResponseHeads":4,"firstResponseTails":6,"secondResponseHeads":4,"secondResponseTails":6,"totalHeads":8,"totalTails":12,"studentIndex":2,"studentTrueHypers":{"a":1,"b":9},"studentGuess":"0.30","delta":0,"bonus":0.5,"bonusSoFar":0.5,"totalExamples":20},{"rt":8790,"response":{"heads":"4","tails":"6"},"type":"response","condition":"seqFeedback","trueTheta":0.3,"classrooms":["A","B"],"studentTrueClassroom":"B","exampleSet":"first","trial_type":"survey-html-form","trial_index":31,"time_elapsed":294351,"internal_node_id":"0.0-30.0-0.0","params":{"nStudents":8,"maxExamples":70,"completionMinutes":15,"basePay":3,"maxBonus":6,"perTrialBonus":0.7,"perTrialBonusThreshold":0.08,"exampleCost":0.01},"classroomParams":{"A":{"a":1,"b":9},"B":{"a":9,"b":1}},"conditions":["nonSeqFull","nonSeqPartial","seqNoFeedback","seqFeedback"],"classroomPairings":[["A","B"]],"coinWeights":[0.3,0.7],"subjectId":"A3CD3C99T8S6ON","assignmentId":"30BXRYBRP5JFXHOSPU4O2FXVD2GWHI","hitId":"391FPZIE4C80JT1T3SKLV8GBSWQUH7","url":"https://gershmanlab.com/experiments/alicia/teaching/experiment/?hitId=391FPZIE4C80JT1T3SKLV8GBSWQUH7&workerId=A3CD3C99T8S6ON&assignmentId=30BXRYBRP5JFXHOSPU4O2FXVD2GWHI&a=RRB05&tp_a=RRB05&b=30BXRYBRP5JFXHOSPU4O2FXVD2GWHI&tp_b=30BXRYBRP5JFXHOSPU4O2FXVD2GWHI&c=368485&tp_c=368485","heads":4,"tails":6,"studentIndex":3,"studentTrueHypers":{"a":9,"b":1},"studentGuess":"0.65","delta":0.35000000000000003,"totalExamples":10,"bonusSoFar":0.5},{"rt":17642,"response":{"heads":"2","tails":"10"},"type":"response","condition":"seqFeedback","trueTheta":0.3,"classrooms":["A","B"],"studentTrueClassroom":"B","exampleSet":"second","trial_type":"survey-html-form","trial_index":35,"time_elapsed":324128,"internal_node_id":"0.0-34.0-0.0","params":{"nStudents":8,"maxExamples":70,"completionMinutes":15,"basePay":3,"maxBonus":6,"perTrialBonus":0.7,"perTrialBonusThreshold":0.08,"exampleCost":0.01},"classroomParams":{"A":{"a":1,"b":9},"B":{"a":9,"b":1}},"conditions":["nonSeqFull","nonSeqPartial","seqNoFeedback","seqFeedback"],"classroomPairings":[["A","B"]],"coinWeights":[0.3,0.7],"subjectId":"A3CD3C99T8S6ON","assignmentId":"30BXRYBRP5JFXHOSPU4O2FXVD2GWHI","hitId":"391FPZIE4C80JT1T3SKLV8GBSWQUH7","url":"https://gershmanlab.com/experiments/alicia/teaching/experiment/?hitId=391FPZIE4C80JT1T3SKLV8GBSWQUH7&workerId=A3CD3C99T8S6ON&assignmentId=30BXRYBRP5JFXHOSPU4O2FXVD2GWHI&a=RRB05&tp_a=RRB05&b=30BXRYBRP5JFXHOSPU4O2FXVD2GWHI&tp_b=30BXRYBRP5JFXHOSPU4O2FXVD2GWHI&c=368485&tp_c=368485","firstResponseHeads":4,"firstResponseTails":6,"secondResponseHeads":2,"secondResponseTails":10,"totalHeads":6,"totalTails":16,"studentIndex":3,"studentTrueHypers":{"a":9,"b":1},"studentGuess":"0.47","delta":0.16999999999999998,"bonus":0,"bonusSoFar":0.5,"totalExamples":22},{"rt":16039,"response":{"heads":"4","tails":"6"},"type":"response","condition":"nonSeqFull","trueTheta":0.3,"classrooms":["A","B"],"studentTrueClassroom":"A","exampleSet":"first","trial_type":"survey-html-form","trial_index":41,"time_elapsed":356591,"internal_node_id":"0.0-40.0-0.0","params":{"nStudents":8,"maxExamples":70,"completionMinutes":15,"basePay":3,"maxBonus":6,"perTrialBonus":0.7,"perTrialBonusThreshold":0.08,"exampleCost":0.01},"classroomParams":{"A":{"a":1,"b":9},"B":{"a":9,"b":1}},"conditions":["nonSeqFull","nonSeqPartial","seqNoFeedback","seqFeedback"],"classroomPairings":[["A","B"]],"coinWeights":[0.3,0.7],"subjectId":"A3CD3C99T8S6ON","assignmentId":"30BXRYBRP5JFXHOSPU4O2FXVD2GWHI","hitId":"391FPZIE4C80JT1T3SKLV8GBSWQUH7","url":"https://gershmanlab.com/experiments/alicia/teaching/experiment/?hitId=391FPZIE4C80JT1T3SKLV8GBSWQUH7&workerId=A3CD3C99T8S6ON&assignmentId=30BXRYBRP5JFXHOSPU4O2FXVD2GWHI&a=RRB05&tp_a=RRB05&b=30BXRYBRP5JFXHOSPU4O2FXVD2GWHI&tp_b=30BXRYBRP5JFXHOSPU4O2FXVD2GWHI&c=368485&tp_c=368485","heads":4,"tails":6,"studentIndex":4,"studentTrueHypers":{"a":1,"b":9},"studentGuess":"0.25","delta":0.04999999999999999,"totalExamples":10,"bonus":0.6,"bonusSoFar":1.1},{"rt":13422,"response":{"heads":"8","tails":"16"},"type":"response","condition":"nonSeqPartial","trueTheta":0.3,"classrooms":["A","B"],"studentTrueClassroom":"B","exampleSet":"first","trial_type":"survey-html-form","trial_index":47,"time_elapsed":387959,"internal_node_id":"0.0-46.0-0.0","params":{"nStudents":8,"maxExamples":70,"completionMinutes":15,"basePay":3,"maxBonus":6,"perTrialBonus":0.7,"perTrialBonusThreshold":0.08,"exampleCost":0.01},"classroomParams":{"A":{"a":1,"b":9},"B":{"a":9,"b":1}},"conditions":["nonSeqFull","nonSeqPartial","seqNoFeedback","seqFeedback"],"classroomPairings":[["A","B"]],"coinWeights":[0.3,0.7],"subjectId":"A3CD3C99T8S6ON","assignmentId":"30BXRYBRP5JFXHOSPU4O2FXVD2GWHI","hitId":"391FPZIE4C80JT1T3SKLV8GBSWQUH7","url":"https://gershmanlab.com/experiments/alicia/teaching/experiment/?hitId=391FPZIE4C80JT1T3SKLV8GBSWQUH7&workerId=A3CD3C99T8S6ON&assignmentId=30BXRYBRP5JFXHOSPU4O2FXVD2GWHI&a=RRB05&tp_a=RRB05&b=30BXRYBRP5JFXHOSPU4O2FXVD2GWHI&tp_b=30BXRYBRP5JFXHOSPU4O2FXVD2GWHI&c=368485&tp_c=368485","heads":8,"tails":16,"studentIndex":5,"studentTrueHypers":{"a":9,"b":1},"studentGuess":"0.50","delta":0.2,"totalExamples":24,"bonus":0,"bonusSoFar":1.1},{"rt":29887,"response":{"heads":"12","tails":"8"},"type":"response","condition":"nonSeqFull","trueTheta":0.7,"classrooms":["A","B"],"studentTrueClassroom":"B","exampleSet":"first","trial_type":"survey-html-form","trial_index":53,"time_elapsed":433839,"internal_node_id":"0.0-52.0-0.0","params":{"nStudents":8,"maxExamples":70,"completionMinutes":15,"basePay":3,"maxBonus":6,"perTrialBonus":0.7,"perTrialBonusThreshold":0.08,"exampleCost":0.01},"classroomParams":{"A":{"a":1,"b":9},"B":{"a":9,"b":1}},"conditions":["nonSeqFull","nonSeqPartial","seqNoFeedback","seqFeedback"],"classroomPairings":[["A","B"]],"coinWeights":[0.3,0.7],"subjectId":"A3CD3C99T8S6ON","assignmentId":"30BXRYBRP5JFXHOSPU4O2FXVD2GWHI","hitId":"391FPZIE4C80JT1T3SKLV8GBSWQUH7","url":"https://gershmanlab.com/experiments/alicia/teaching/experiment/?hitId=391FPZIE4C80JT1T3SKLV8GBSWQUH7&workerId=A3CD3C99T8S6ON&assignmentId=30BXRYBRP5JFXHOSPU4O2FXVD2GWHI&a=RRB05&tp_a=RRB05&b=30BXRYBRP5JFXHOSPU4O2FXVD2GWHI&tp_b=30BXRYBRP5JFXHOSPU4O2FXVD2GWHI&c=368485&tp_c=368485","heads":12,"tails":8,"studentIndex":6,"studentTrueHypers":{"a":9,"b":1},"studentGuess":"0.70","delta":0,"totalExamples":20,"bonus":0.5,"bonusSoFar":1.6},{"rt":16031,"response":{"heads":"13","tails":"8"},"type":"response","condition":"seqFeedback","trueTheta":0.7,"classrooms":["A","B"],"studentTrueClassroom":"B","exampleSet":"first","trial_type":"survey-html-form","trial_index":59,"time_elapsed":466767,"internal_node_id":"0.0-58.0-0.0","params":{"nStudents":8,"maxExamples":70,"completionMinutes":15,"basePay":3,"maxBonus":6,"perTrialBonus":0.7,"perTrialBonusThreshold":0.08,"exampleCost":0.01},"classroomParams":{"A":{"a":1,"b":9},"B":{"a":9,"b":1}},"conditions":["nonSeqFull","nonSeqPartial","seqNoFeedback","seqFeedback"],"classroomPairings":[["A","B"]],"coinWeights":[0.3,0.7],"subjectId":"A3CD3C99T8S6ON","assignmentId":"30BXRYBRP5JFXHOSPU4O2FXVD2GWHI","hitId":"391FPZIE4C80JT1T3SKLV8GBSWQUH7","url":"https://gershmanlab.com/experiments/alicia/teaching/experiment/?hitId=391FPZIE4C80JT1T3SKLV8GBSWQUH7&workerId=A3CD3C99T8S6ON&assignmentId=30BXRYBRP5JFXHOSPU4O2FXVD2GWHI&a=RRB05&tp_a=RRB05&b=30BXRYBRP5JFXHOSPU4O2FXVD2GWHI&tp_b=30BXRYBRP5JFXHOSPU4O2FXVD2GWHI&c=368485&tp_c=368485","heads":13,"tails":8,"studentIndex":7,"studentTrueHypers":{"a":9,"b":1},"studentGuess":"0.71","delta":0.010000000000000009,"totalExamples":21,"bonusSoFar":1.6},{"rt":5678,"response":{"heads":"7","tails":"3"},"type":"response","condition":"seqFeedback","trueTheta":0.7,"classrooms":["A","B"],"studentTrueClassroom":"B","exampleSet":"second","trial_type":"survey-html-form","trial_index":63,"time_elapsed":484664,"internal_node_id":"0.0-62.0-0.0","params":{"nStudents":8,"maxExamples":70,"completionMinutes":15,"basePay":3,"maxBonus":6,"perTrialBonus":0.7,"perTrialBonusThreshold":0.08,"exampleCost":0.01},"classroomParams":{"A":{"a":1,"b":9},"B":{"a":9,"b":1}},"conditions":["nonSeqFull","nonSeqPartial","seqNoFeedback","seqFeedback"],"classroomPairings":[["A","B"]],"coinWeights":[0.3,0.7],"subjectId":"A3CD3C99T8S6ON","assignmentId":"30BXRYBRP5JFXHOSPU4O2FXVD2GWHI","hitId":"391FPZIE4C80JT1T3SKLV8GBSWQUH7","url":"https://gershmanlab.com/experiments/alicia/teaching/experiment/?hitId=391FPZIE4C80JT1T3SKLV8GBSWQUH7&workerId=A3CD3C99T8S6ON&assignmentId=30BXRYBRP5JFXHOSPU4O2FXVD2GWHI&a=RRB05&tp_a=RRB05&b=30BXRYBRP5JFXHOSPU4O2FXVD2GWHI&tp_b=30BXRYBRP5JFXHOSPU4O2FXVD2GWHI&c=368485&tp_c=368485","firstResponseHeads":13,"firstResponseTails":8,"secondResponseHeads":7,"secondResponseTails":3,"totalHeads":20,"totalTails":11,"studentIndex":7,"studentTrueHypers":{"a":9,"b":1},"studentGuess":"0.71","delta":0.010000000000000009,"bonus":0.39,"bonusSoFar":1.99,"totalExamples":31},{"rt":46126,"response":{"gender":"male","age":"32","understood":"yes","strategy":"I tried to select compositions that nudge the student closer towards the correct composition. I also tried to use smaller numbers so as not to waste money.","comments":"This was a fun and engaging task!"},"type":"response","trial_type":"survey-html-form","trial_index":67,"time_elapsed":542311,"internal_node_id":"0.0-67.0","params":{"nStudents":8,"maxExamples":70,"completionMinutes":15,"basePay":3,"maxBonus":6,"perTrialBonus":0.7,"perTrialBonusThreshold":0.08,"exampleCost":0.01},"classroomParams":{"A":{"a":1,"b":9},"B":{"a":9,"b":1}},"conditions":["nonSeqFull","nonSeqPartial","seqNoFeedback","seqFeedback"],"classroomPairings":[["A","B"]],"coinWeights":[0.3,0.7],"subjectId":"A3CD3C99T8S6ON","assignmentId":"30BXRYBRP5JFXHOSPU4O2FXVD2GWHI","hitId":"391FPZIE4C80JT1T3SKLV8GBSWQUH7","url":"https://gershmanlab.com/experiments/alicia/teaching/experiment/?hitId=391FPZIE4C80JT1T3SKLV8GBSWQUH7&workerId=A3CD3C99T8S6ON&assignmentId=30BXRYBRP5JFXHOSPU4O2FXVD2GWHI&a=RRB05&tp_a=RRB05&b=30BXRYBRP5JFXHOSPU4O2FXVD2GWHI&tp_b=30BXRYBRP5JFXHOSPU4O2FXVD2GWHI&c=368485&tp_c=368485","totalBonus":1.99}]