[{"rt":17296,"response":{"heads":"7","tails":"3"},"type":"response","condition":"nonSeqPartial","trueTheta":0.7,"classrooms":["A","B"],"studentTrueClassroom":"A","exampleSet":"first","trial_type":"survey-html-form","trial_index":10,"time_elapsed":274249,"internal_node_id":"0.0-6.0-0.0","params":{"nStudents":8,"maxExamples":70,"completionMinutes":15,"basePay":3,"maxBonus":6,"perTrialBonus":0.7,"perTrialBonusThreshold":0.08,"exampleCost":0.01},"classroomParams":{"A":{"a":1,"b":9},"B":{"a":9,"b":1}},"conditions":["nonSeqFull","nonSeqPartial","seqNoFeedback","seqFeedback"],"classroomPairings":[["A","B"]],"coinWeights":[0.3,0.7],"subjectId":"A3F90N8YVKJ4I7","assignmentId":"3GDTJDAPVVXQZUTLIO4VG425CHCM82","hitId":"3GL25Y6843GESBWZZUBL7KNB306MX0","url":"https://gershmanlab.com/experiments/alicia/teaching/experiment/?hitId=3GL25Y6843GESBWZZUBL7KNB306MX0&workerId=A3F90N8YVKJ4I7&assignmentId=3GDTJDAPVVXQZUTLIO4VG425CHCM82&a=PJDG5&tp_a=PJDG5&b=3GDTJDAPVVXQZUTLIO4VG425CHCM82&tp_b=3GDTJDAPVVXQZUTLIO4VG425CHCM82&c=368485&tp_c=368485","heads":7,"tails":3,"studentIndex":0,"studentTrueHypers":{"a":1,"b":9},"studentGuess":"0.40","delta":0.29999999999999993,"totalExamples":10,"bonus":0,"bonusSoFar":0},{"rt":15597,"response":{"heads":"7","tails":"3"},"type":"response","condition":"nonSeqFull","trueTheta":0.7,"classrooms":["A","B"],"studentTrueClassroom":"B","exampleSet":"first","trial_type":"survey-html-form","trial_index":16,"time_elapsed":308486,"internal_node_id":"0.0-12.0-0.0","params":{"nStudents":8,"maxExamples":70,"completionMinutes":15,"basePay":3,"maxBonus":6,"perTrialBonus":0.7,"perTrialBonusThreshold":0.08,"exampleCost":0.01},"classroomParams":{"A":{"a":1,"b":9},"B":{"a":9,"b":1}},"conditions":["nonSeqFull","nonSeqPartial","seqNoFeedback","seqFeedback"],"classroomPairings":[["A","B"]],"coinWeights":[0.3,0.7],"subjectId":"A3F90N8YVKJ4I7","assignmentId":"3GDTJDAPVVXQZUTLIO4VG425CHCM82","hitId":"3GL25Y6843GESBWZZUBL7KNB306MX0","url":"https://gershmanlab.com/experiments/alicia/teaching/experiment/?hitId=3GL25Y6843GESBWZZUBL7KNB306MX0&workerId=A3F90N8YVKJ4I7&assignmentId=3GDTJDAPVVXQZUTLIO4VG425CHCM82&a=PJDG5&tp_a=PJDG5&b=3GDTJDAPVVXQZUTLIO4VG425CHCM82&tp_b=3GDTJDAPVVXQZUTLIO4VG425CHCM82&c=368485&tp_c=368485","heads":7,"tails":3,"studentIndex":1,"studentTrueHypers":{"a":9,"b":1},"studentGuess":"0.80","delta":0.10000000000000009,"totalExamples":10,"bonus":0,"bonusSoFar":0},{"rt":12558,"response":{"heads":"3","tails":"7"},"type":"response","condition":"seqNoFeedback","trueTheta":0.3,"classrooms":["A","B"],"studentTrueClassroom":"A","exampleSet":"first","trial_type":"survey-html-form","trial_index":22,"time_elapsed":340239,"internal_node_id":"0.0-18.0-0.0","params":{"nStudents":8,"maxExamples":70,"completionMinutes":15,"basePay":3,"maxBonus":6,"perTrialBonus":0.7,"perTrialBonusThreshold":0.08,"exampleCost":0.01},"classroomParams":{"A":{"a":1,"b":9},"B":{"a":9,"b":1}},"conditions":["nonSeqFull","nonSeqPartial","seqNoFeedback","seqFeedback"],"classroomPairings":[["A","B"]],"coinWeights":[0.3,0.7],"subjectId":"A3F90N8YVKJ4I7","assignmentId":"3GDTJDAPVVXQZUTLIO4VG425CHCM82","hitId":"3GL25Y6843GESBWZZUBL7KNB306MX0","url":"https://gershmanlab.com/experiments/alicia/teaching/experiment/?hitId=3GL25Y6843GESBWZZUBL7KNB306MX0&workerId=A3F90N8YVKJ4I7&assignmentId=3GDTJDAPVVXQZUTLIO4VG425CHCM82&a=PJDG5&tp_a=PJDG5&b=3GDTJDAPVVXQZUTLIO4VG425CHCM82&tp_b=3GDTJDAPVVXQZUTLIO4VG425CHCM82&c=368485&tp_c=368485","heads":3,"tails":7,"studentIndex":2,"studentTrueHypers":{"a":1,"b":9},"studentGuess":"0.20","delta":0.09999999999999998,"totalExamples":10,"bonusSoFar":0},{"rt":11882,"response":{"heads":"3","tails":"7"},"type":"response","condition":"seqNoFeedback","trueTheta":0.3,"classrooms":["A","B"],"studentTrueClassroom":"A","exampleSet":"second","trial_type":"survey-html-form","trial_index":25,"time_elapsed":358893,"internal_node_id":"0.0-21.0-0.0","params":{"nStudents":8,"maxExamples":70,"completionMinutes":15,"basePay":3,"maxBonus":6,"perTrialBonus":0.7,"perTrialBonusThreshold":0.08,"exampleCost":0.01},"classroomParams":{"A":{"a":1,"b":9},"B":{"a":9,"b":1}},"conditions":["nonSeqFull","nonSeqPartial","seqNoFeedback","seqFeedback"],"classroomPairings":[["A","B"]],"coinWeights":[0.3,0.7],"subjectId":"A3F90N8YVKJ4I7","assignmentId":"3GDTJDAPVVXQZUTLIO4VG425CHCM82","hitId":"3GL25Y6843GESBWZZUBL7KNB306MX0","url":"https://gershmanlab.com/experiments/alicia/teaching/experiment/?hitId=3GL25Y6843GESBWZZUBL7KNB306MX0&workerId=A3F90N8YVKJ4I7&assignmentId=3GDTJDAPVVXQZUTLIO4VG425CHCM82&a=PJDG5&tp_a=PJDG5&b=3GDTJDAPVVXQZUTLIO4VG425CHCM82&tp_b=3GDTJDAPVVXQZUTLIO4VG425CHCM82&c=368485&tp_c=368485","firstResponseHeads":3,"firstResponseTails":7,"secondResponseHeads":3,"secondResponseTails":7,"totalHeads":6,"totalTails":14,"studentIndex":2,"studentTrueHypers":{"a":1,"b":9},"studentGuess":"0.23","delta":0.06999999999999998,"bonus":0.5,"bonusSoFar":0.5,"totalExamples":20},{"rt":14780,"response":{"heads":"7","tails":"3"},"type":"response","condition":"seqFeedback","trueTheta":0.7,"classrooms":["A","B"],"studentTrueClassroom":"B","exampleSet":"first","trial_type":"survey-html-form","trial_index":31,"time_elapsed":392683,"internal_node_id":"0.0-27.0-0.0","params":{"nStudents":8,"maxExamples":70,"completionMinutes":15,"basePay":3,"maxBonus":6,"perTrialBonus":0.7,"perTrialBonusThreshold":0.08,"exampleCost":0.01},"classroomParams":{"A":{"a":1,"b":9},"B":{"a":9,"b":1}},"conditions":["nonSeqFull","nonSeqPartial","seqNoFeedback","seqFeedback"],"classroomPairings":[["A","B"]],"coinWeights":[0.3,0.7],"subjectId":"A3F90N8YVKJ4I7","assignmentId":"3GDTJDAPVVXQZUTLIO4VG425CHCM82","hitId":"3GL25Y6843GESBWZZUBL7KNB306MX0","url":"https://gershmanlab.com/experiments/alicia/teaching/experiment/?hitId=3GL25Y6843GESBWZZUBL7KNB306MX0&workerId=A3F90N8YVKJ4I7&assignmentId=3GDTJDAPVVXQZUTLIO4VG425CHCM82&a=PJDG5&tp_a=PJDG5&b=3GDTJDAPVVXQZUTLIO4VG425CHCM82&tp_b=3GDTJDAPVVXQZUTLIO4VG425CHCM82&c=368485&tp_c=368485","heads":7,"tails":3,"studentIndex":3,"studentTrueHypers":{"a":9,"b":1},"studentGuess":"0.80","delta":0.10000000000000009,"totalExamples":10,"bonusSoFar":0.5},{"rt":5706,"response":{"heads":"7","tails":"3"},"type":"response","condition":"seqFeedback","trueTheta":0.7,"classrooms":["A","B"],"studentTrueClassroom":"B","exampleSet":"second","trial_type":"survey-html-form","trial_index":35,"time_elapsed":407308,"internal_node_id":"0.0-31.0-0.0","params":{"nStudents":8,"maxExamples":70,"completionMinutes":15,"basePay":3,"maxBonus":6,"perTrialBonus":0.7,"perTrialBonusThreshold":0.08,"exampleCost":0.01},"classroomParams":{"A":{"a":1,"b":9},"B":{"a":9,"b":1}},"conditions":["nonSeqFull","nonSeqPartial","seqNoFeedback","seqFeedback"],"classroomPairings":[["A","B"]],"coinWeights":[0.3,0.7],"subjectId":"A3F90N8YVKJ4I7","assignmentId":"3GDTJDAPVVXQZUTLIO4VG425CHCM82","hitId":"3GL25Y6843GESBWZZUBL7KNB306MX0","url":"https://gershmanlab.com/experiments/alicia/teaching/experiment/?hitId=3GL25Y6843GESBWZZUBL7KNB306MX0&workerId=A3F90N8YVKJ4I7&assignmentId=3GDTJDAPVVXQZUTLIO4VG425CHCM82&a=PJDG5&tp_a=PJDG5&b=3GDTJDAPVVXQZUTLIO4VG425CHCM82&tp_b=3GDTJDAPVVXQZUTLIO4VG425CHCM82&c=368485&tp_c=368485","firstResponseHeads":7,"firstResponseTails":3,"secondResponseHeads":7,"secondResponseTails":3,"totalHeads":14,"totalTails":6,"studentIndex":3,"studentTrueHypers":{"a":9,"b":1},"studentGuess":"0.77","delta":0.07000000000000006,"bonus":0.5,"bonusSoFar":1,"totalExamples":20},{"rt":7063,"response":{"heads":"7","tails":"3"},"type":"response","condition":"seqNoFeedback","trueTheta":0.7,"classrooms":["A","B"],"studentTrueClassroom":"A","exampleSet":"first","trial_type":"survey-html-form","trial_index":41,"time_elapsed":428960,"internal_node_id":"0.0-37.0-0.0","params":{"nStudents":8,"maxExamples":70,"completionMinutes":15,"basePay":3,"maxBonus":6,"perTrialBonus":0.7,"perTrialBonusThreshold":0.08,"exampleCost":0.01},"classroomParams":{"A":{"a":1,"b":9},"B":{"a":9,"b":1}},"conditions":["nonSeqFull","nonSeqPartial","seqNoFeedback","seqFeedback"],"classroomPairings":[["A","B"]],"coinWeights":[0.3,0.7],"subjectId":"A3F90N8YVKJ4I7","assignmentId":"3GDTJDAPVVXQZUTLIO4VG425CHCM82","hitId":"3GL25Y6843GESBWZZUBL7KNB306MX0","url":"https://gershmanlab.com/experiments/alicia/teaching/experiment/?hitId=3GL25Y6843GESBWZZUBL7KNB306MX0&workerId=A3F90N8YVKJ4I7&assignmentId=3GDTJDAPVVXQZUTLIO4VG425CHCM82&a=PJDG5&tp_a=PJDG5&b=3GDTJDAPVVXQZUTLIO4VG425CHCM82&tp_b=3GDTJDAPVVXQZUTLIO4VG425CHCM82&c=368485&tp_c=368485","heads":7,"tails":3,"studentIndex":4,"studentTrueHypers":{"a":1,"b":9},"studentGuess":"0.40","delta":0.29999999999999993,"totalExamples":10,"bonusSoFar":1},{"rt":6511,"response":{"heads":"7","tails":"3"},"type":"response","condition":"seqNoFeedback","trueTheta":0.7,"classrooms":["A","B"],"studentTrueClassroom":"A","exampleSet":"second","trial_type":"survey-html-form","trial_index":44,"time_elapsed":441236,"internal_node_id":"0.0-40.0-0.0","params":{"nStudents":8,"maxExamples":70,"completionMinutes":15,"basePay":3,"maxBonus":6,"perTrialBonus":0.7,"perTrialBonusThreshold":0.08,"exampleCost":0.01},"classroomParams":{"A":{"a":1,"b":9},"B":{"a":9,"b":1}},"conditions":["nonSeqFull","nonSeqPartial","seqNoFeedback","seqFeedback"],"classroomPairings":[["A","B"]],"coinWeights":[0.3,0.7],"subjectId":"A3F90N8YVKJ4I7","assignmentId":"3GDTJDAPVVXQZUTLIO4VG425CHCM82","hitId":"3GL25Y6843GESBWZZUBL7KNB306MX0","url":"https://gershmanlab.com/experiments/alicia/teaching/experiment/?hitId=3GL25Y6843GESBWZZUBL7KNB306MX0&workerId=A3F90N8YVKJ4I7&assignmentId=3GDTJDAPVVXQZUTLIO4VG425CHCM82&a=PJDG5&tp_a=PJDG5&b=3GDTJDAPVVXQZUTLIO4VG425CHCM82&tp_b=3GDTJDAPVVXQZUTLIO4VG425CHCM82&c=368485&tp_c=368485","firstResponseHeads":7,"firstResponseTails":3,"secondResponseHeads":7,"secondResponseTails":3,"totalHeads":14,"totalTails":6,"studentIndex":4,"studentTrueHypers":{"a":1,"b":9},"studentGuess":"0.50","delta":0.19999999999999996,"bonus":0,"bonusSoFar":1,"totalExamples":20},{"rt":5618,"response":{"heads":"3","tails":"7"},"type":"response","condition":"nonSeqPartial","trueTheta":0.3,"classrooms":["A","B"],"studentTrueClassroom":"A","exampleSet":"first","trial_type":"survey-html-form","trial_index":50,"time_elapsed":458839,"internal_node_id":"0.0-46.0-0.0","params":{"nStudents":8,"maxExamples":70,"completionMinutes":15,"basePay":3,"maxBonus":6,"perTrialBonus":0.7,"perTrialBonusThreshold":0.08,"exampleCost":0.01},"classroomParams":{"A":{"a":1,"b":9},"B":{"a":9,"b":1}},"conditions":["nonSeqFull","nonSeqPartial","seqNoFeedback","seqFeedback"],"classroomPairings":[["A","B"]],"coinWeights":[0.3,0.7],"subjectId":"A3F90N8YVKJ4I7","assignmentId":"3GDTJDAPVVXQZUTLIO4VG425CHCM82","hitId":"3GL25Y6843GESBWZZUBL7KNB306MX0","url":"https://gershmanlab.com/experiments/alicia/teaching/experiment/?hitId=3GL25Y6843GESBWZZUBL7KNB306MX0&workerId=A3F90N8YVKJ4I7&assignmentId=3GDTJDAPVVXQZUTLIO4VG425CHCM82&a=PJDG5&tp_a=PJDG5&b=3GDTJDAPVVXQZUTLIO4VG425CHCM82&tp_b=3GDTJDAPVVXQZUTLIO4VG425CHCM82&c=368485&tp_c=368485","heads":3,"tails":7,"studentIndex":5,"studentTrueHypers":{"a":1,"b":9},"studentGuess":"0.20","delta":0.09999999999999998,"totalExamples":10,"bonus":0,"bonusSoFar":1},{"rt":13304,"response":{"heads":"3","tails":"20"},"type":"response","condition":"nonSeqFull","trueTheta":0.3,"classrooms":["A","B"],"studentTrueClassroom":"B","exampleSet":"first","trial_type":"survey-html-form","trial_index":56,"time_elapsed":483639,"internal_node_id":"0.0-52.0-0.0","params":{"nStudents":8,"maxExamples":70,"completionMinutes":15,"basePay":3,"maxBonus":6,"perTrialBonus":0.7,"perTrialBonusThreshold":0.08,"exampleCost":0.01},"classroomParams":{"A":{"a":1,"b":9},"B":{"a":9,"b":1}},"conditions":["nonSeqFull","nonSeqPartial","seqNoFeedback","seqFeedback"],"classroomPairings":[["A","B"]],"coinWeights":[0.3,0.7],"subjectId":"A3F90N8YVKJ4I7","assignmentId":"3GDTJDAPVVXQZUTLIO4VG425CHCM82","hitId":"3GL25Y6843GESBWZZUBL7KNB306MX0","url":"https://gershmanlab.com/experiments/alicia/teaching/experiment/?hitId=3GL25Y6843GESBWZZUBL7KNB306MX0&workerId=A3F90N8YVKJ4I7&assignmentId=3GDTJDAPVVXQZUTLIO4VG425CHCM82&a=PJDG5&tp_a=PJDG5&b=3GDTJDAPVVXQZUTLIO4VG425CHCM82&tp_b=3GDTJDAPVVXQZUTLIO4VG425CHCM82&c=368485&tp_c=368485","heads":3,"tails":20,"studentIndex":6,"studentTrueHypers":{"a":9,"b":1},"studentGuess":"0.36","delta":0.06,"totalExamples":23,"bonus":0.47,"bonusSoFar":1.47},{"rt":13280,"response":{"heads":"3","tails":"10"},"type":"response","condition":"seqFeedback","trueTheta":0.3,"classrooms":["A","B"],"studentTrueClassroom":"B","exampleSet":"first","trial_type":"survey-html-form","trial_index":62,"time_elapsed":512333,"internal_node_id":"0.0-58.0-0.0","params":{"nStudents":8,"maxExamples":70,"completionMinutes":15,"basePay":3,"maxBonus":6,"perTrialBonus":0.7,"perTrialBonusThreshold":0.08,"exampleCost":0.01},"classroomParams":{"A":{"a":1,"b":9},"B":{"a":9,"b":1}},"conditions":["nonSeqFull","nonSeqPartial","seqNoFeedback","seqFeedback"],"classroomPairings":[["A","B"]],"coinWeights":[0.3,0.7],"subjectId":"A3F90N8YVKJ4I7","assignmentId":"3GDTJDAPVVXQZUTLIO4VG425CHCM82","hitId":"3GL25Y6843GESBWZZUBL7KNB306MX0","url":"https://gershmanlab.com/experiments/alicia/teaching/experiment/?hitId=3GL25Y6843GESBWZZUBL7KNB306MX0&workerId=A3F90N8YVKJ4I7&assignmentId=3GDTJDAPVVXQZUTLIO4VG425CHCM82&a=PJDG5&tp_a=PJDG5&b=3GDTJDAPVVXQZUTLIO4VG425CHCM82&tp_b=3GDTJDAPVVXQZUTLIO4VG425CHCM82&c=368485&tp_c=368485","heads":3,"tails":10,"studentIndex":7,"studentTrueHypers":{"a":9,"b":1},"studentGuess":"0.52","delta":0.22000000000000003,"totalExamples":13,"bonusSoFar":1.47},{"rt":10781,"response":{"heads":"3","tails":"7"},"type":"response","condition":"seqFeedback","trueTheta":0.3,"classrooms":["A","B"],"studentTrueClassroom":"B","exampleSet":"second","trial_type":"survey-html-form","trial_index":66,"time_elapsed":530783,"internal_node_id":"0.0-62.0-0.0","params":{"nStudents":8,"maxExamples":70,"completionMinutes":15,"basePay":3,"maxBonus":6,"perTrialBonus":0.7,"perTrialBonusThreshold":0.08,"exampleCost":0.01},"classroomParams":{"A":{"a":1,"b":9},"B":{"a":9,"b":1}},"conditions":["nonSeqFull","nonSeqPartial","seqNoFeedback","seqFeedback"],"classroomPairings":[["A","B"]],"coinWeights":[0.3,0.7],"subjectId":"A3F90N8YVKJ4I7","assignmentId":"3GDTJDAPVVXQZUTLIO4VG425CHCM82","hitId":"3GL25Y6843GESBWZZUBL7KNB306MX0","url":"https://gershmanlab.com/experiments/alicia/teaching/experiment/?hitId=3GL25Y6843GESBWZZUBL7KNB306MX0&workerId=A3F90N8YVKJ4I7&assignmentId=3GDTJDAPVVXQZUTLIO4VG425CHCM82&a=PJDG5&tp_a=PJDG5&b=3GDTJDAPVVXQZUTLIO4VG425CHCM82&tp_b=3GDTJDAPVVXQZUTLIO4VG425CHCM82&c=368485&tp_c=368485","firstResponseHeads":3,"firstResponseTails":10,"secondResponseHeads":3,"secondResponseTails":7,"totalHeads":6,"totalTails":17,"studentIndex":7,"studentTrueHypers":{"a":9,"b":1},"studentGuess":"0.45","delta":0.15000000000000002,"bonus":0,"bonusSoFar":1.47,"totalExamples":23},{"rt":23740,"response":{"gender":"male","age":"44","understood":"yes","strategy":"I sent the turtles in the correct ratio.","comments":""},"type":"response","trial_type":"survey-html-form","trial_index":70,"time_elapsed":562312,"internal_node_id":"0.0-67.0","params":{"nStudents":8,"maxExamples":70,"completionMinutes":15,"basePay":3,"maxBonus":6,"perTrialBonus":0.7,"perTrialBonusThreshold":0.08,"exampleCost":0.01},"classroomParams":{"A":{"a":1,"b":9},"B":{"a":9,"b":1}},"conditions":["nonSeqFull","nonSeqPartial","seqNoFeedback","seqFeedback"],"classroomPairings":[["A","B"]],"coinWeights":[0.3,0.7],"subjectId":"A3F90N8YVKJ4I7","assignmentId":"3GDTJDAPVVXQZUTLIO4VG425CHCM82","hitId":"3GL25Y6843GESBWZZUBL7KNB306MX0","url":"https://gershmanlab.com/experiments/alicia/teaching/experiment/?hitId=3GL25Y6843GESBWZZUBL7KNB306MX0&workerId=A3F90N8YVKJ4I7&assignmentId=3GDTJDAPVVXQZUTLIO4VG425CHCM82&a=PJDG5&tp_a=PJDG5&b=3GDTJDAPVVXQZUTLIO4VG425CHCM82&tp_b=3GDTJDAPVVXQZUTLIO4VG425CHCM82&c=368485&tp_c=368485","totalBonus":1.47}]