[{"rt":21857,"response":{"heads":"7","tails":"3"},"type":"response","condition":"nonSeqFull","trueTheta":0.7,"classrooms":["A","B"],"studentTrueClassroom":"B","exampleSet":"first","trial_type":"survey-html-form","trial_index":7,"time_elapsed":251347,"internal_node_id":"0.0-6.0-0.0","params":{"nStudents":8,"maxExamples":70,"completionMinutes":15,"basePay":3,"maxBonus":6,"perTrialBonus":0.7,"perTrialBonusThreshold":0.08,"exampleCost":0.01},"classroomParams":{"A":{"a":1,"b":9},"B":{"a":9,"b":1}},"conditions":["nonSeqFull","nonSeqPartial","seqNoFeedback","seqFeedback"],"classroomPairings":[["A","B"]],"coinWeights":[0.3,0.7],"subjectId":"A3OZ8KF0HWSVWK","assignmentId":"3FTOP5WARGAIGXIXKNEO7X46PP50JP","hitId":"3VEI3XUCZRJ0GI70IBXLZ6VI7OWRP5","url":"https://gershmanlab.com/experiments/alicia/teaching/experiment/?hitId=3VEI3XUCZRJ0GI70IBXLZ6VI7OWRP5&workerId=A3OZ8KF0HWSVWK&assignmentId=3FTOP5WARGAIGXIXKNEO7X46PP50JP&a=APTF5&tp_a=APTF5&b=3FTOP5WARGAIGXIXKNEO7X46PP50JP&tp_b=3FTOP5WARGAIGXIXKNEO7X46PP50JP&c=368485&tp_c=368485","heads":7,"tails":3,"studentIndex":0,"studentTrueHypers":{"a":9,"b":1},"studentGuess":"0.80","delta":0.10000000000000009,"totalExamples":10,"bonus":0,"bonusSoFar":0},{"rt":28422,"response":{"heads":"7","tails":"3"},"type":"response","condition":"seqFeedback","trueTheta":0.7,"classrooms":["A","B"],"studentTrueClassroom":"B","exampleSet":"first","trial_type":"survey-html-form","trial_index":13,"time_elapsed":310904,"internal_node_id":"0.0-12.0-0.0","params":{"nStudents":8,"maxExamples":70,"completionMinutes":15,"basePay":3,"maxBonus":6,"perTrialBonus":0.7,"perTrialBonusThreshold":0.08,"exampleCost":0.01},"classroomParams":{"A":{"a":1,"b":9},"B":{"a":9,"b":1}},"conditions":["nonSeqFull","nonSeqPartial","seqNoFeedback","seqFeedback"],"classroomPairings":[["A","B"]],"coinWeights":[0.3,0.7],"subjectId":"A3OZ8KF0HWSVWK","assignmentId":"3FTOP5WARGAIGXIXKNEO7X46PP50JP","hitId":"3VEI3XUCZRJ0GI70IBXLZ6VI7OWRP5","url":"https://gershmanlab.com/experiments/alicia/teaching/experiment/?hitId=3VEI3XUCZRJ0GI70IBXLZ6VI7OWRP5&workerId=A3OZ8KF0HWSVWK&assignmentId=3FTOP5WARGAIGXIXKNEO7X46PP50JP&a=APTF5&tp_a=APTF5&b=3FTOP5WARGAIGXIXKNEO7X46PP50JP&tp_b=3FTOP5WARGAIGXIXKNEO7X46PP50JP&c=368485&tp_c=368485","heads":7,"tails":3,"studentIndex":1,"studentTrueHypers":{"a":9,"b":1},"studentGuess":"0.80","delta":0.10000000000000009,"totalExamples":10,"bonusSoFar":0},{"rt":13759,"response":{"heads":"7","tails":"3"},"type":"response","condition":"seqFeedback","trueTheta":0.7,"classrooms":["A","B"],"studentTrueClassroom":"B","exampleSet":"second","trial_type":"survey-html-form","trial_index":17,"time_elapsed":336837,"internal_node_id":"0.0-16.0-0.0","params":{"nStudents":8,"maxExamples":70,"completionMinutes":15,"basePay":3,"maxBonus":6,"perTrialBonus":0.7,"perTrialBonusThreshold":0.08,"exampleCost":0.01},"classroomParams":{"A":{"a":1,"b":9},"B":{"a":9,"b":1}},"conditions":["nonSeqFull","nonSeqPartial","seqNoFeedback","seqFeedback"],"classroomPairings":[["A","B"]],"coinWeights":[0.3,0.7],"subjectId":"A3OZ8KF0HWSVWK","assignmentId":"3FTOP5WARGAIGXIXKNEO7X46PP50JP","hitId":"3VEI3XUCZRJ0GI70IBXLZ6VI7OWRP5","url":"https://gershmanlab.com/experiments/alicia/teaching/experiment/?hitId=3VEI3XUCZRJ0GI70IBXLZ6VI7OWRP5&workerId=A3OZ8KF0HWSVWK&assignmentId=3FTOP5WARGAIGXIXKNEO7X46PP50JP&a=APTF5&tp_a=APTF5&b=3FTOP5WARGAIGXIXKNEO7X46PP50JP&tp_b=3FTOP5WARGAIGXIXKNEO7X46PP50JP&c=368485&tp_c=368485","firstResponseHeads":7,"firstResponseTails":3,"secondResponseHeads":7,"secondResponseTails":3,"totalHeads":14,"totalTails":6,"studentIndex":1,"studentTrueHypers":{"a":9,"b":1},"studentGuess":"0.77","delta":0.07000000000000006,"bonus":0.5,"bonusSoFar":0.5,"totalExamples":20},{"rt":17081,"response":{"heads":"3","tails":"7"},"type":"response","condition":"seqFeedback","trueTheta":0.3,"classrooms":["A","B"],"studentTrueClassroom":"B","exampleSet":"first","trial_type":"survey-html-form","trial_index":23,"time_elapsed":374243,"internal_node_id":"0.0-22.0-0.0","params":{"nStudents":8,"maxExamples":70,"completionMinutes":15,"basePay":3,"maxBonus":6,"perTrialBonus":0.7,"perTrialBonusThreshold":0.08,"exampleCost":0.01},"classroomParams":{"A":{"a":1,"b":9},"B":{"a":9,"b":1}},"conditions":["nonSeqFull","nonSeqPartial","seqNoFeedback","seqFeedback"],"classroomPairings":[["A","B"]],"coinWeights":[0.3,0.7],"subjectId":"A3OZ8KF0HWSVWK","assignmentId":"3FTOP5WARGAIGXIXKNEO7X46PP50JP","hitId":"3VEI3XUCZRJ0GI70IBXLZ6VI7OWRP5","url":"https://gershmanlab.com/experiments/alicia/teaching/experiment/?hitId=3VEI3XUCZRJ0GI70IBXLZ6VI7OWRP5&workerId=A3OZ8KF0HWSVWK&assignmentId=3FTOP5WARGAIGXIXKNEO7X46PP50JP&a=APTF5&tp_a=APTF5&b=3FTOP5WARGAIGXIXKNEO7X46PP50JP&tp_b=3FTOP5WARGAIGXIXKNEO7X46PP50JP&c=368485&tp_c=368485","heads":3,"tails":7,"studentIndex":2,"studentTrueHypers":{"a":9,"b":1},"studentGuess":"0.60","delta":0.3,"totalExamples":10,"bonusSoFar":0.5},{"rt":23715,"response":{"heads":"2","tails":"8"},"type":"response","condition":"seqFeedback","trueTheta":0.3,"classrooms":["A","B"],"studentTrueClassroom":"B","exampleSet":"second","trial_type":"survey-html-form","trial_index":27,"time_elapsed":409234,"internal_node_id":"0.0-26.0-0.0","params":{"nStudents":8,"maxExamples":70,"completionMinutes":15,"basePay":3,"maxBonus":6,"perTrialBonus":0.7,"perTrialBonusThreshold":0.08,"exampleCost":0.01},"classroomParams":{"A":{"a":1,"b":9},"B":{"a":9,"b":1}},"conditions":["nonSeqFull","nonSeqPartial","seqNoFeedback","seqFeedback"],"classroomPairings":[["A","B"]],"coinWeights":[0.3,0.7],"subjectId":"A3OZ8KF0HWSVWK","assignmentId":"3FTOP5WARGAIGXIXKNEO7X46PP50JP","hitId":"3VEI3XUCZRJ0GI70IBXLZ6VI7OWRP5","url":"https://gershmanlab.com/experiments/alicia/teaching/experiment/?hitId=3VEI3XUCZRJ0GI70IBXLZ6VI7OWRP5&workerId=A3OZ8KF0HWSVWK&assignmentId=3FTOP5WARGAIGXIXKNEO7X46PP50JP&a=APTF5&tp_a=APTF5&b=3FTOP5WARGAIGXIXKNEO7X46PP50JP&tp_b=3FTOP5WARGAIGXIXKNEO7X46PP50JP&c=368485&tp_c=368485","firstResponseHeads":3,"firstResponseTails":7,"secondResponseHeads":2,"secondResponseTails":8,"totalHeads":5,"totalTails":15,"studentIndex":2,"studentTrueHypers":{"a":9,"b":1},"studentGuess":"0.47","delta":0.16999999999999998,"bonus":0,"bonusSoFar":0.5,"totalExamples":20},{"rt":12806,"response":{"heads":"7","tails":"3"},"type":"response","condition":"seqNoFeedback","trueTheta":0.7,"classrooms":["A","B"],"studentTrueClassroom":"B","exampleSet":"first","trial_type":"survey-html-form","trial_index":33,"time_elapsed":445308,"internal_node_id":"0.0-32.0-0.0","params":{"nStudents":8,"maxExamples":70,"completionMinutes":15,"basePay":3,"maxBonus":6,"perTrialBonus":0.7,"perTrialBonusThreshold":0.08,"exampleCost":0.01},"classroomParams":{"A":{"a":1,"b":9},"B":{"a":9,"b":1}},"conditions":["nonSeqFull","nonSeqPartial","seqNoFeedback","seqFeedback"],"classroomPairings":[["A","B"]],"coinWeights":[0.3,0.7],"subjectId":"A3OZ8KF0HWSVWK","assignmentId":"3FTOP5WARGAIGXIXKNEO7X46PP50JP","hitId":"3VEI3XUCZRJ0GI70IBXLZ6VI7OWRP5","url":"https://gershmanlab.com/experiments/alicia/teaching/experiment/?hitId=3VEI3XUCZRJ0GI70IBXLZ6VI7OWRP5&workerId=A3OZ8KF0HWSVWK&assignmentId=3FTOP5WARGAIGXIXKNEO7X46PP50JP&a=APTF5&tp_a=APTF5&b=3FTOP5WARGAIGXIXKNEO7X46PP50JP&tp_b=3FTOP5WARGAIGXIXKNEO7X46PP50JP&c=368485&tp_c=368485","heads":7,"tails":3,"studentIndex":3,"studentTrueHypers":{"a":9,"b":1},"studentGuess":"0.80","delta":0.10000000000000009,"totalExamples":10,"bonusSoFar":0.5},{"rt":21972,"response":{"heads":"7","tails":"3"},"type":"response","condition":"seqNoFeedback","trueTheta":0.7,"classrooms":["A","B"],"studentTrueClassroom":"B","exampleSet":"second","trial_type":"survey-html-form","trial_index":36,"time_elapsed":474051,"internal_node_id":"0.0-35.0-0.0","params":{"nStudents":8,"maxExamples":70,"completionMinutes":15,"basePay":3,"maxBonus":6,"perTrialBonus":0.7,"perTrialBonusThreshold":0.08,"exampleCost":0.01},"classroomParams":{"A":{"a":1,"b":9},"B":{"a":9,"b":1}},"conditions":["nonSeqFull","nonSeqPartial","seqNoFeedback","seqFeedback"],"classroomPairings":[["A","B"]],"coinWeights":[0.3,0.7],"subjectId":"A3OZ8KF0HWSVWK","assignmentId":"3FTOP5WARGAIGXIXKNEO7X46PP50JP","hitId":"3VEI3XUCZRJ0GI70IBXLZ6VI7OWRP5","url":"https://gershmanlab.com/experiments/alicia/teaching/experiment/?hitId=3VEI3XUCZRJ0GI70IBXLZ6VI7OWRP5&workerId=A3OZ8KF0HWSVWK&assignmentId=3FTOP5WARGAIGXIXKNEO7X46PP50JP&a=APTF5&tp_a=APTF5&b=3FTOP5WARGAIGXIXKNEO7X46PP50JP&tp_b=3FTOP5WARGAIGXIXKNEO7X46PP50JP&c=368485&tp_c=368485","firstResponseHeads":7,"firstResponseTails":3,"secondResponseHeads":7,"secondResponseTails":3,"totalHeads":14,"totalTails":6,"studentIndex":3,"studentTrueHypers":{"a":9,"b":1},"studentGuess":"0.77","delta":0.07000000000000006,"bonus":0.5,"bonusSoFar":1,"totalExamples":20},{"rt":23860,"response":{"heads":"2","tails":"8"},"type":"response","condition":"nonSeqPartial","trueTheta":0.3,"classrooms":["A","B"],"studentTrueClassroom":"B","exampleSet":"first","trial_type":"survey-html-form","trial_index":42,"time_elapsed":518309,"internal_node_id":"0.0-41.0-0.0","params":{"nStudents":8,"maxExamples":70,"completionMinutes":15,"basePay":3,"maxBonus":6,"perTrialBonus":0.7,"perTrialBonusThreshold":0.08,"exampleCost":0.01},"classroomParams":{"A":{"a":1,"b":9},"B":{"a":9,"b":1}},"conditions":["nonSeqFull","nonSeqPartial","seqNoFeedback","seqFeedback"],"classroomPairings":[["A","B"]],"coinWeights":[0.3,0.7],"subjectId":"A3OZ8KF0HWSVWK","assignmentId":"3FTOP5WARGAIGXIXKNEO7X46PP50JP","hitId":"3VEI3XUCZRJ0GI70IBXLZ6VI7OWRP5","url":"https://gershmanlab.com/experiments/alicia/teaching/experiment/?hitId=3VEI3XUCZRJ0GI70IBXLZ6VI7OWRP5&workerId=A3OZ8KF0HWSVWK&assignmentId=3FTOP5WARGAIGXIXKNEO7X46PP50JP&a=APTF5&tp_a=APTF5&b=3FTOP5WARGAIGXIXKNEO7X46PP50JP&tp_b=3FTOP5WARGAIGXIXKNEO7X46PP50JP&c=368485&tp_c=368485","heads":2,"tails":8,"studentIndex":4,"studentTrueHypers":{"a":9,"b":1},"studentGuess":"0.55","delta":0.25000000000000006,"totalExamples":10,"bonus":0,"bonusSoFar":1},{"rt":28852,"response":{"heads":"2","tails":"8"},"type":"response","condition":"seqNoFeedback","trueTheta":0.3,"classrooms":["A","B"],"studentTrueClassroom":"B","exampleSet":"first","trial_type":"survey-html-form","trial_index":48,"time_elapsed":566009,"internal_node_id":"0.0-47.0-0.0","params":{"nStudents":8,"maxExamples":70,"completionMinutes":15,"basePay":3,"maxBonus":6,"perTrialBonus":0.7,"perTrialBonusThreshold":0.08,"exampleCost":0.01},"classroomParams":{"A":{"a":1,"b":9},"B":{"a":9,"b":1}},"conditions":["nonSeqFull","nonSeqPartial","seqNoFeedback","seqFeedback"],"classroomPairings":[["A","B"]],"coinWeights":[0.3,0.7],"subjectId":"A3OZ8KF0HWSVWK","assignmentId":"3FTOP5WARGAIGXIXKNEO7X46PP50JP","hitId":"3VEI3XUCZRJ0GI70IBXLZ6VI7OWRP5","url":"https://gershmanlab.com/experiments/alicia/teaching/experiment/?hitId=3VEI3XUCZRJ0GI70IBXLZ6VI7OWRP5&workerId=A3OZ8KF0HWSVWK&assignmentId=3FTOP5WARGAIGXIXKNEO7X46PP50JP&a=APTF5&tp_a=APTF5&b=3FTOP5WARGAIGXIXKNEO7X46PP50JP&tp_b=3FTOP5WARGAIGXIXKNEO7X46PP50JP&c=368485&tp_c=368485","heads":2,"tails":8,"studentIndex":5,"studentTrueHypers":{"a":9,"b":1},"studentGuess":"0.55","delta":0.25000000000000006,"totalExamples":10,"bonusSoFar":1},{"rt":22450,"response":{"heads":"2","tails":"8"},"type":"response","condition":"seqNoFeedback","trueTheta":0.3,"classrooms":["A","B"],"studentTrueClassroom":"B","exampleSet":"second","trial_type":"survey-html-form","trial_index":51,"time_elapsed":593731,"internal_node_id":"0.0-50.0-0.0","params":{"nStudents":8,"maxExamples":70,"completionMinutes":15,"basePay":3,"maxBonus":6,"perTrialBonus":0.7,"perTrialBonusThreshold":0.08,"exampleCost":0.01},"classroomParams":{"A":{"a":1,"b":9},"B":{"a":9,"b":1}},"conditions":["nonSeqFull","nonSeqPartial","seqNoFeedback","seqFeedback"],"classroomPairings":[["A","B"]],"coinWeights":[0.3,0.7],"subjectId":"A3OZ8KF0HWSVWK","assignmentId":"3FTOP5WARGAIGXIXKNEO7X46PP50JP","hitId":"3VEI3XUCZRJ0GI70IBXLZ6VI7OWRP5","url":"https://gershmanlab.com/experiments/alicia/teaching/experiment/?hitId=3VEI3XUCZRJ0GI70IBXLZ6VI7OWRP5&workerId=A3OZ8KF0HWSVWK&assignmentId=3FTOP5WARGAIGXIXKNEO7X46PP50JP&a=APTF5&tp_a=APTF5&b=3FTOP5WARGAIGXIXKNEO7X46PP50JP&tp_b=3FTOP5WARGAIGXIXKNEO7X46PP50JP&c=368485&tp_c=368485","firstResponseHeads":2,"firstResponseTails":8,"secondResponseHeads":2,"secondResponseTails":8,"totalHeads":4,"totalTails":16,"studentIndex":5,"studentTrueHypers":{"a":9,"b":1},"studentGuess":"0.43","delta":0.13,"bonus":0,"bonusSoFar":1,"totalExamples":20},{"rt":12585,"response":{"heads":"4","tails":"6"},"type":"response","condition":"nonSeqFull","trueTheta":0.3,"classrooms":["A","B"],"studentTrueClassroom":"A","exampleSet":"first","trial_type":"survey-html-form","trial_index":57,"time_elapsed":622467,"internal_node_id":"0.0-56.0-0.0","params":{"nStudents":8,"maxExamples":70,"completionMinutes":15,"basePay":3,"maxBonus":6,"perTrialBonus":0.7,"perTrialBonusThreshold":0.08,"exampleCost":0.01},"classroomParams":{"A":{"a":1,"b":9},"B":{"a":9,"b":1}},"conditions":["nonSeqFull","nonSeqPartial","seqNoFeedback","seqFeedback"],"classroomPairings":[["A","B"]],"coinWeights":[0.3,0.7],"subjectId":"A3OZ8KF0HWSVWK","assignmentId":"3FTOP5WARGAIGXIXKNEO7X46PP50JP","hitId":"3VEI3XUCZRJ0GI70IBXLZ6VI7OWRP5","url":"https://gershmanlab.com/experiments/alicia/teaching/experiment/?hitId=3VEI3XUCZRJ0GI70IBXLZ6VI7OWRP5&workerId=A3OZ8KF0HWSVWK&assignmentId=3FTOP5WARGAIGXIXKNEO7X46PP50JP&a=APTF5&tp_a=APTF5&b=3FTOP5WARGAIGXIXKNEO7X46PP50JP&tp_b=3FTOP5WARGAIGXIXKNEO7X46PP50JP&c=368485&tp_c=368485","heads":4,"tails":6,"studentIndex":6,"studentTrueHypers":{"a":1,"b":9},"studentGuess":"0.25","delta":0.04999999999999999,"totalExamples":10,"bonus":0.6,"bonusSoFar":1.6},{"rt":11459,"response":{"heads":"8","tails":"2"},"type":"response","condition":"nonSeqPartial","trueTheta":0.7,"classrooms":["A","B"],"studentTrueClassroom":"B","exampleSet":"first","trial_type":"survey-html-form","trial_index":63,"time_elapsed":658371,"internal_node_id":"0.0-62.0-0.0","params":{"nStudents":8,"maxExamples":70,"completionMinutes":15,"basePay":3,"maxBonus":6,"perTrialBonus":0.7,"perTrialBonusThreshold":0.08,"exampleCost":0.01},"classroomParams":{"A":{"a":1,"b":9},"B":{"a":9,"b":1}},"conditions":["nonSeqFull","nonSeqPartial","seqNoFeedback","seqFeedback"],"classroomPairings":[["A","B"]],"coinWeights":[0.3,0.7],"subjectId":"A3OZ8KF0HWSVWK","assignmentId":"3FTOP5WARGAIGXIXKNEO7X46PP50JP","hitId":"3VEI3XUCZRJ0GI70IBXLZ6VI7OWRP5","url":"https://gershmanlab.com/experiments/alicia/teaching/experiment/?hitId=3VEI3XUCZRJ0GI70IBXLZ6VI7OWRP5&workerId=A3OZ8KF0HWSVWK&assignmentId=3FTOP5WARGAIGXIXKNEO7X46PP50JP&a=APTF5&tp_a=APTF5&b=3FTOP5WARGAIGXIXKNEO7X46PP50JP&tp_b=3FTOP5WARGAIGXIXKNEO7X46PP50JP&c=368485&tp_c=368485","heads":8,"tails":2,"studentIndex":7,"studentTrueHypers":{"a":9,"b":1},"studentGuess":"0.85","delta":0.15000000000000002,"totalExamples":10,"bonus":0,"bonusSoFar":1.6},{"rt":37938,"response":{"gender":"male","age":"56","understood":"yes","strategy":"Itried to reflect exactly the raio with my picks","comments":""},"type":"response","trial_type":"survey-html-form","trial_index":67,"time_elapsed":709982,"internal_node_id":"0.0-67.0","params":{"nStudents":8,"maxExamples":70,"completionMinutes":15,"basePay":3,"maxBonus":6,"perTrialBonus":0.7,"perTrialBonusThreshold":0.08,"exampleCost":0.01},"classroomParams":{"A":{"a":1,"b":9},"B":{"a":9,"b":1}},"conditions":["nonSeqFull","nonSeqPartial","seqNoFeedback","seqFeedback"],"classroomPairings":[["A","B"]],"coinWeights":[0.3,0.7],"subjectId":"A3OZ8KF0HWSVWK","assignmentId":"3FTOP5WARGAIGXIXKNEO7X46PP50JP","hitId":"3VEI3XUCZRJ0GI70IBXLZ6VI7OWRP5","url":"https://gershmanlab.com/experiments/alicia/teaching/experiment/?hitId=3VEI3XUCZRJ0GI70IBXLZ6VI7OWRP5&workerId=A3OZ8KF0HWSVWK&assignmentId=3FTOP5WARGAIGXIXKNEO7X46PP50JP&a=APTF5&tp_a=APTF5&b=3FTOP5WARGAIGXIXKNEO7X46PP50JP&tp_b=3FTOP5WARGAIGXIXKNEO7X46PP50JP&c=368485&tp_c=368485","totalBonus":1.6}]