[{"rt":23014,"response":{"heads":"3","tails":"7"},"type":"response","condition":"nonSeqPartial","trueTheta":0.3,"classrooms":["A","B"],"studentTrueClassroom":"B","exampleSet":"first","trial_type":"survey-html-form","trial_index":7,"time_elapsed":205894,"internal_node_id":"0.0-6.0-0.0","params":{"nStudents":8,"maxExamples":70,"completionMinutes":15,"basePay":3,"maxBonus":6,"perTrialBonus":0.7,"perTrialBonusThreshold":0.08,"exampleCost":0.01},"classroomParams":{"A":{"a":1,"b":9},"B":{"a":9,"b":1}},"conditions":["nonSeqFull","nonSeqPartial","seqNoFeedback","seqFeedback"],"classroomPairings":[["A","B"]],"coinWeights":[0.3,0.7],"subjectId":"A3U21PUMQ6NGT2","assignmentId":"34V1S5K3GTNOOWR3003SR40U6NF964","hitId":"391FPZIE4C80JT1T3SKLV8GBSWQUH7","url":"https://gershmanlab.com/experiments/alicia/teaching/experiment/?hitId=391FPZIE4C80JT1T3SKLV8GBSWQUH7&workerId=A3U21PUMQ6NGT2&assignmentId=34V1S5K3GTNOOWR3003SR40U6NF964&a=3SV45&tp_a=3SV45&b=34V1S5K3GTNOOWR3003SR40U6NF964&tp_b=34V1S5K3GTNOOWR3003SR40U6NF964&c=368485&tp_c=368485","heads":3,"tails":7,"studentIndex":0,"studentTrueHypers":{"a":9,"b":1},"studentGuess":"0.60","delta":0.3,"totalExamples":10,"bonus":0,"bonusSoFar":0},{"rt":8600,"response":{"heads":"7","tails":"0"},"type":"response","condition":"nonSeqPartial","trueTheta":0.7,"classrooms":["A","B"],"studentTrueClassroom":"B","exampleSet":"first","trial_type":"survey-html-form","trial_index":13,"time_elapsed":235065,"internal_node_id":"0.0-12.0-0.0","params":{"nStudents":8,"maxExamples":70,"completionMinutes":15,"basePay":3,"maxBonus":6,"perTrialBonus":0.7,"perTrialBonusThreshold":0.08,"exampleCost":0.01},"classroomParams":{"A":{"a":1,"b":9},"B":{"a":9,"b":1}},"conditions":["nonSeqFull","nonSeqPartial","seqNoFeedback","seqFeedback"],"classroomPairings":[["A","B"]],"coinWeights":[0.3,0.7],"subjectId":"A3U21PUMQ6NGT2","assignmentId":"34V1S5K3GTNOOWR3003SR40U6NF964","hitId":"391FPZIE4C80JT1T3SKLV8GBSWQUH7","url":"https://gershmanlab.com/experiments/alicia/teaching/experiment/?hitId=391FPZIE4C80JT1T3SKLV8GBSWQUH7&workerId=A3U21PUMQ6NGT2&assignmentId=34V1S5K3GTNOOWR3003SR40U6NF964&a=3SV45&tp_a=3SV45&b=34V1S5K3GTNOOWR3003SR40U6NF964&tp_b=34V1S5K3GTNOOWR3003SR40U6NF964&c=368485&tp_c=368485","heads":7,"tails":0,"studentIndex":1,"studentTrueHypers":{"a":9,"b":1},"studentGuess":"0.94","delta":0.24,"totalExamples":7,"bonus":0,"bonusSoFar":0},{"rt":13061,"response":{"heads":"6","tails":"1"},"type":"response","condition":"seqFeedback","trueTheta":0.7,"classrooms":["A","B"],"studentTrueClassroom":"A","exampleSet":"first","trial_type":"survey-html-form","trial_index":19,"time_elapsed":275690,"internal_node_id":"0.0-18.0-0.0","params":{"nStudents":8,"maxExamples":70,"completionMinutes":15,"basePay":3,"maxBonus":6,"perTrialBonus":0.7,"perTrialBonusThreshold":0.08,"exampleCost":0.01},"classroomParams":{"A":{"a":1,"b":9},"B":{"a":9,"b":1}},"conditions":["nonSeqFull","nonSeqPartial","seqNoFeedback","seqFeedback"],"classroomPairings":[["A","B"]],"coinWeights":[0.3,0.7],"subjectId":"A3U21PUMQ6NGT2","assignmentId":"34V1S5K3GTNOOWR3003SR40U6NF964","hitId":"391FPZIE4C80JT1T3SKLV8GBSWQUH7","url":"https://gershmanlab.com/experiments/alicia/teaching/experiment/?hitId=391FPZIE4C80JT1T3SKLV8GBSWQUH7&workerId=A3U21PUMQ6NGT2&assignmentId=34V1S5K3GTNOOWR3003SR40U6NF964&a=3SV45&tp_a=3SV45&b=34V1S5K3GTNOOWR3003SR40U6NF964&tp_b=34V1S5K3GTNOOWR3003SR40U6NF964&c=368485&tp_c=368485","heads":6,"tails":1,"studentIndex":2,"studentTrueHypers":{"a":1,"b":9},"studentGuess":"0.41","delta":0.29,"totalExamples":7,"bonusSoFar":0},{"rt":11668,"response":{"heads":"7","tails":"3"},"type":"response","condition":"seqFeedback","trueTheta":0.7,"classrooms":["A","B"],"studentTrueClassroom":"A","exampleSet":"second","trial_type":"survey-html-form","trial_index":23,"time_elapsed":297785,"internal_node_id":"0.0-22.0-0.0","params":{"nStudents":8,"maxExamples":70,"completionMinutes":15,"basePay":3,"maxBonus":6,"perTrialBonus":0.7,"perTrialBonusThreshold":0.08,"exampleCost":0.01},"classroomParams":{"A":{"a":1,"b":9},"B":{"a":9,"b":1}},"conditions":["nonSeqFull","nonSeqPartial","seqNoFeedback","seqFeedback"],"classroomPairings":[["A","B"]],"coinWeights":[0.3,0.7],"subjectId":"A3U21PUMQ6NGT2","assignmentId":"34V1S5K3GTNOOWR3003SR40U6NF964","hitId":"391FPZIE4C80JT1T3SKLV8GBSWQUH7","url":"https://gershmanlab.com/experiments/alicia/teaching/experiment/?hitId=391FPZIE4C80JT1T3SKLV8GBSWQUH7&workerId=A3U21PUMQ6NGT2&assignmentId=34V1S5K3GTNOOWR3003SR40U6NF964&a=3SV45&tp_a=3SV45&b=34V1S5K3GTNOOWR3003SR40U6NF964&tp_b=34V1S5K3GTNOOWR3003SR40U6NF964&c=368485&tp_c=368485","firstResponseHeads":6,"firstResponseTails":1,"secondResponseHeads":7,"secondResponseTails":3,"totalHeads":13,"totalTails":4,"studentIndex":2,"studentTrueHypers":{"a":1,"b":9},"studentGuess":"0.52","delta":0.17999999999999994,"bonus":0,"bonusSoFar":0,"totalExamples":17},{"rt":22116,"response":{"heads":"8","tails":"2"},"type":"response","condition":"seqNoFeedback","trueTheta":0.3,"classrooms":["A","B"],"studentTrueClassroom":"A","exampleSet":"first","trial_type":"survey-html-form","trial_index":29,"time_elapsed":341185,"internal_node_id":"0.0-28.0-0.0","params":{"nStudents":8,"maxExamples":70,"completionMinutes":15,"basePay":3,"maxBonus":6,"perTrialBonus":0.7,"perTrialBonusThreshold":0.08,"exampleCost":0.01},"classroomParams":{"A":{"a":1,"b":9},"B":{"a":9,"b":1}},"conditions":["nonSeqFull","nonSeqPartial","seqNoFeedback","seqFeedback"],"classroomPairings":[["A","B"]],"coinWeights":[0.3,0.7],"subjectId":"A3U21PUMQ6NGT2","assignmentId":"34V1S5K3GTNOOWR3003SR40U6NF964","hitId":"391FPZIE4C80JT1T3SKLV8GBSWQUH7","url":"https://gershmanlab.com/experiments/alicia/teaching/experiment/?hitId=391FPZIE4C80JT1T3SKLV8GBSWQUH7&workerId=A3U21PUMQ6NGT2&assignmentId=34V1S5K3GTNOOWR3003SR40U6NF964&a=3SV45&tp_a=3SV45&b=34V1S5K3GTNOOWR3003SR40U6NF964&tp_b=34V1S5K3GTNOOWR3003SR40U6NF964&c=368485&tp_c=368485","heads":8,"tails":2,"studentIndex":3,"studentTrueHypers":{"a":1,"b":9},"studentGuess":"0.45","delta":0.15000000000000002,"totalExamples":10,"bonusSoFar":0},{"rt":9532,"response":{"heads":"10","tails":"2"},"type":"response","condition":"seqNoFeedback","trueTheta":0.3,"classrooms":["A","B"],"studentTrueClassroom":"A","exampleSet":"second","trial_type":"survey-html-form","trial_index":32,"time_elapsed":357231,"internal_node_id":"0.0-31.0-0.0","params":{"nStudents":8,"maxExamples":70,"completionMinutes":15,"basePay":3,"maxBonus":6,"perTrialBonus":0.7,"perTrialBonusThreshold":0.08,"exampleCost":0.01},"classroomParams":{"A":{"a":1,"b":9},"B":{"a":9,"b":1}},"conditions":["nonSeqFull","nonSeqPartial","seqNoFeedback","seqFeedback"],"classroomPairings":[["A","B"]],"coinWeights":[0.3,0.7],"subjectId":"A3U21PUMQ6NGT2","assignmentId":"34V1S5K3GTNOOWR3003SR40U6NF964","hitId":"391FPZIE4C80JT1T3SKLV8GBSWQUH7","url":"https://gershmanlab.com/experiments/alicia/teaching/experiment/?hitId=391FPZIE4C80JT1T3SKLV8GBSWQUH7&workerId=A3U21PUMQ6NGT2&assignmentId=34V1S5K3GTNOOWR3003SR40U6NF964&a=3SV45&tp_a=3SV45&b=34V1S5K3GTNOOWR3003SR40U6NF964&tp_b=34V1S5K3GTNOOWR3003SR40U6NF964&c=368485&tp_c=368485","firstResponseHeads":8,"firstResponseTails":2,"secondResponseHeads":10,"secondResponseTails":2,"totalHeads":18,"totalTails":4,"studentIndex":3,"studentTrueHypers":{"a":1,"b":9},"studentGuess":"0.59","delta":0.29,"bonus":0,"bonusSoFar":0,"totalExamples":22},{"rt":18213,"response":{"heads":"0","tails":"2"},"type":"response","condition":"nonSeqFull","trueTheta":0.7,"classrooms":["A","B"],"studentTrueClassroom":"B","exampleSet":"first","trial_type":"survey-html-form","trial_index":38,"time_elapsed":390735,"internal_node_id":"0.0-37.0-0.0","params":{"nStudents":8,"maxExamples":70,"completionMinutes":15,"basePay":3,"maxBonus":6,"perTrialBonus":0.7,"perTrialBonusThreshold":0.08,"exampleCost":0.01},"classroomParams":{"A":{"a":1,"b":9},"B":{"a":9,"b":1}},"conditions":["nonSeqFull","nonSeqPartial","seqNoFeedback","seqFeedback"],"classroomPairings":[["A","B"]],"coinWeights":[0.3,0.7],"subjectId":"A3U21PUMQ6NGT2","assignmentId":"34V1S5K3GTNOOWR3003SR40U6NF964","hitId":"391FPZIE4C80JT1T3SKLV8GBSWQUH7","url":"https://gershmanlab.com/experiments/alicia/teaching/experiment/?hitId=391FPZIE4C80JT1T3SKLV8GBSWQUH7&workerId=A3U21PUMQ6NGT2&assignmentId=34V1S5K3GTNOOWR3003SR40U6NF964&a=3SV45&tp_a=3SV45&b=34V1S5K3GTNOOWR3003SR40U6NF964&tp_b=34V1S5K3GTNOOWR3003SR40U6NF964&c=368485&tp_c=368485","heads":0,"tails":2,"studentIndex":4,"studentTrueHypers":{"a":9,"b":1},"studentGuess":"0.75","delta":0.050000000000000044,"totalExamples":2,"bonus":0.68,"bonusSoFar":0.68},{"rt":11993,"response":{"heads":"1","tails":"7"},"type":"response","condition":"seqFeedback","trueTheta":0.3,"classrooms":["A","B"],"studentTrueClassroom":"A","exampleSet":"first","trial_type":"survey-html-form","trial_index":44,"time_elapsed":420759,"internal_node_id":"0.0-43.0-0.0","params":{"nStudents":8,"maxExamples":70,"completionMinutes":15,"basePay":3,"maxBonus":6,"perTrialBonus":0.7,"perTrialBonusThreshold":0.08,"exampleCost":0.01},"classroomParams":{"A":{"a":1,"b":9},"B":{"a":9,"b":1}},"conditions":["nonSeqFull","nonSeqPartial","seqNoFeedback","seqFeedback"],"classroomPairings":[["A","B"]],"coinWeights":[0.3,0.7],"subjectId":"A3U21PUMQ6NGT2","assignmentId":"34V1S5K3GTNOOWR3003SR40U6NF964","hitId":"391FPZIE4C80JT1T3SKLV8GBSWQUH7","url":"https://gershmanlab.com/experiments/alicia/teaching/experiment/?hitId=391FPZIE4C80JT1T3SKLV8GBSWQUH7&workerId=A3U21PUMQ6NGT2&assignmentId=34V1S5K3GTNOOWR3003SR40U6NF964&a=3SV45&tp_a=3SV45&b=34V1S5K3GTNOOWR3003SR40U6NF964&tp_b=34V1S5K3GTNOOWR3003SR40U6NF964&c=368485&tp_c=368485","heads":1,"tails":7,"studentIndex":5,"studentTrueHypers":{"a":1,"b":9},"studentGuess":"0.11","delta":0.19,"totalExamples":8,"bonusSoFar":0.68},{"rt":18833,"response":{"heads":"3","tails":"10"},"type":"response","condition":"seqFeedback","trueTheta":0.3,"classrooms":["A","B"],"studentTrueClassroom":"A","exampleSet":"second","trial_type":"survey-html-form","trial_index":48,"time_elapsed":454066,"internal_node_id":"0.0-47.0-0.0","params":{"nStudents":8,"maxExamples":70,"completionMinutes":15,"basePay":3,"maxBonus":6,"perTrialBonus":0.7,"perTrialBonusThreshold":0.08,"exampleCost":0.01},"classroomParams":{"A":{"a":1,"b":9},"B":{"a":9,"b":1}},"conditions":["nonSeqFull","nonSeqPartial","seqNoFeedback","seqFeedback"],"classroomPairings":[["A","B"]],"coinWeights":[0.3,0.7],"subjectId":"A3U21PUMQ6NGT2","assignmentId":"34V1S5K3GTNOOWR3003SR40U6NF964","hitId":"391FPZIE4C80JT1T3SKLV8GBSWQUH7","url":"https://gershmanlab.com/experiments/alicia/teaching/experiment/?hitId=391FPZIE4C80JT1T3SKLV8GBSWQUH7&workerId=A3U21PUMQ6NGT2&assignmentId=34V1S5K3GTNOOWR3003SR40U6NF964&a=3SV45&tp_a=3SV45&b=34V1S5K3GTNOOWR3003SR40U6NF964&tp_b=34V1S5K3GTNOOWR3003SR40U6NF964&c=368485&tp_c=368485","firstResponseHeads":1,"firstResponseTails":7,"secondResponseHeads":3,"secondResponseTails":10,"totalHeads":4,"totalTails":17,"studentIndex":5,"studentTrueHypers":{"a":1,"b":9},"studentGuess":"0.16","delta":0.13999999999999999,"bonus":0,"bonusSoFar":0.68,"totalExamples":21},{"rt":8704,"response":{"heads":"0","tails":"7"},"type":"response","condition":"nonSeqFull","trueTheta":0.3,"classrooms":["A","B"],"studentTrueClassroom":"B","exampleSet":"first","trial_type":"survey-html-form","trial_index":54,"time_elapsed":477711,"internal_node_id":"0.0-53.0-0.0","params":{"nStudents":8,"maxExamples":70,"completionMinutes":15,"basePay":3,"maxBonus":6,"perTrialBonus":0.7,"perTrialBonusThreshold":0.08,"exampleCost":0.01},"classroomParams":{"A":{"a":1,"b":9},"B":{"a":9,"b":1}},"conditions":["nonSeqFull","nonSeqPartial","seqNoFeedback","seqFeedback"],"classroomPairings":[["A","B"]],"coinWeights":[0.3,0.7],"subjectId":"A3U21PUMQ6NGT2","assignmentId":"34V1S5K3GTNOOWR3003SR40U6NF964","hitId":"391FPZIE4C80JT1T3SKLV8GBSWQUH7","url":"https://gershmanlab.com/experiments/alicia/teaching/experiment/?hitId=391FPZIE4C80JT1T3SKLV8GBSWQUH7&workerId=A3U21PUMQ6NGT2&assignmentId=34V1S5K3GTNOOWR3003SR40U6NF964&a=3SV45&tp_a=3SV45&b=34V1S5K3GTNOOWR3003SR40U6NF964&tp_b=34V1S5K3GTNOOWR3003SR40U6NF964&c=368485&tp_c=368485","heads":0,"tails":7,"studentIndex":6,"studentTrueHypers":{"a":9,"b":1},"studentGuess":"0.53","delta":0.23000000000000004,"totalExamples":7,"bonus":0,"bonusSoFar":0.68},{"rt":19385,"response":{"heads":"8","tails":"2"},"type":"response","condition":"seqNoFeedback","trueTheta":0.7,"classrooms":["A","B"],"studentTrueClassroom":"B","exampleSet":"first","trial_type":"survey-html-form","trial_index":60,"time_elapsed":512534,"internal_node_id":"0.0-59.0-0.0","params":{"nStudents":8,"maxExamples":70,"completionMinutes":15,"basePay":3,"maxBonus":6,"perTrialBonus":0.7,"perTrialBonusThreshold":0.08,"exampleCost":0.01},"classroomParams":{"A":{"a":1,"b":9},"B":{"a":9,"b":1}},"conditions":["nonSeqFull","nonSeqPartial","seqNoFeedback","seqFeedback"],"classroomPairings":[["A","B"]],"coinWeights":[0.3,0.7],"subjectId":"A3U21PUMQ6NGT2","assignmentId":"34V1S5K3GTNOOWR3003SR40U6NF964","hitId":"391FPZIE4C80JT1T3SKLV8GBSWQUH7","url":"https://gershmanlab.com/experiments/alicia/teaching/experiment/?hitId=391FPZIE4C80JT1T3SKLV8GBSWQUH7&workerId=A3U21PUMQ6NGT2&assignmentId=34V1S5K3GTNOOWR3003SR40U6NF964&a=3SV45&tp_a=3SV45&b=34V1S5K3GTNOOWR3003SR40U6NF964&tp_b=34V1S5K3GTNOOWR3003SR40U6NF964&c=368485&tp_c=368485","heads":8,"tails":2,"studentIndex":7,"studentTrueHypers":{"a":9,"b":1},"studentGuess":"0.85","delta":0.15000000000000002,"totalExamples":10,"bonusSoFar":0.68},{"rt":17315,"response":{"heads":"8","tails":"3"},"type":"response","condition":"seqNoFeedback","trueTheta":0.7,"classrooms":["A","B"],"studentTrueClassroom":"B","exampleSet":"second","trial_type":"survey-html-form","trial_index":63,"time_elapsed":536358,"internal_node_id":"0.0-62.0-0.0","params":{"nStudents":8,"maxExamples":70,"completionMinutes":15,"basePay":3,"maxBonus":6,"perTrialBonus":0.7,"perTrialBonusThreshold":0.08,"exampleCost":0.01},"classroomParams":{"A":{"a":1,"b":9},"B":{"a":9,"b":1}},"conditions":["nonSeqFull","nonSeqPartial","seqNoFeedback","seqFeedback"],"classroomPairings":[["A","B"]],"coinWeights":[0.3,0.7],"subjectId":"A3U21PUMQ6NGT2","assignmentId":"34V1S5K3GTNOOWR3003SR40U6NF964","hitId":"391FPZIE4C80JT1T3SKLV8GBSWQUH7","url":"https://gershmanlab.com/experiments/alicia/teaching/experiment/?hitId=391FPZIE4C80JT1T3SKLV8GBSWQUH7&workerId=A3U21PUMQ6NGT2&assignmentId=34V1S5K3GTNOOWR3003SR40U6NF964&a=3SV45&tp_a=3SV45&b=34V1S5K3GTNOOWR3003SR40U6NF964&tp_b=34V1S5K3GTNOOWR3003SR40U6NF964&c=368485&tp_c=368485","firstResponseHeads":8,"firstResponseTails":2,"secondResponseHeads":8,"secondResponseTails":3,"totalHeads":16,"totalTails":5,"studentIndex":7,"studentTrueHypers":{"a":9,"b":1},"studentGuess":"0.81","delta":0.1100000000000001,"bonus":0,"bonusSoFar":0.68,"totalExamples":21},{"rt":27923,"response":{"gender":"female","age":"40","understood":"yes","strategy":"I tried to send an amount that would suggest the turtle color that is the most prevalent","comments":""},"type":"response","trial_type":"survey-html-form","trial_index":67,"time_elapsed":573651,"internal_node_id":"0.0-67.0","params":{"nStudents":8,"maxExamples":70,"completionMinutes":15,"basePay":3,"maxBonus":6,"perTrialBonus":0.7,"perTrialBonusThreshold":0.08,"exampleCost":0.01},"classroomParams":{"A":{"a":1,"b":9},"B":{"a":9,"b":1}},"conditions":["nonSeqFull","nonSeqPartial","seqNoFeedback","seqFeedback"],"classroomPairings":[["A","B"]],"coinWeights":[0.3,0.7],"subjectId":"A3U21PUMQ6NGT2","assignmentId":"34V1S5K3GTNOOWR3003SR40U6NF964","hitId":"391FPZIE4C80JT1T3SKLV8GBSWQUH7","url":"https://gershmanlab.com/experiments/alicia/teaching/experiment/?hitId=391FPZIE4C80JT1T3SKLV8GBSWQUH7&workerId=A3U21PUMQ6NGT2&assignmentId=34V1S5K3GTNOOWR3003SR40U6NF964&a=3SV45&tp_a=3SV45&b=34V1S5K3GTNOOWR3003SR40U6NF964&tp_b=34V1S5K3GTNOOWR3003SR40U6NF964&c=368485&tp_c=368485","totalBonus":0.68}]