[{"rt":29875,"response":{"heads":"1","tails":"5"},"type":"response","condition":"nonSeqFull","trueTheta":0.3,"classrooms":["A","B"],"studentTrueClassroom":"A","exampleSet":"first","trial_type":"survey-html-form","trial_index":7,"time_elapsed":247012,"internal_node_id":"0.0-6.0-0.0","params":{"nStudents":8,"maxExamples":70,"completionMinutes":15,"basePay":3,"maxBonus":6,"perTrialBonus":0.7,"perTrialBonusThreshold":0.08,"exampleCost":0.01},"classroomParams":{"A":{"a":1,"b":9},"B":{"a":9,"b":1}},"conditions":["nonSeqFull","nonSeqPartial","seqNoFeedback","seqFeedback"],"classroomPairings":[["A","B"]],"coinWeights":[0.3,0.7],"subjectId":"AIEKCWYZTS41V","assignmentId":"3LEP4MGT3HM6XYLF87P2OG5CB95BD8","hitId":"3GL25Y6843GESBWZZUBL7KNB306MX0","url":"https://gershmanlab.com/experiments/alicia/teaching/experiment/?hitId=3GL25Y6843GESBWZZUBL7KNB306MX0&workerId=AIEKCWYZTS41V&assignmentId=3LEP4MGT3HM6XYLF87P2OG5CB95BD8&a=T4EL5&tp_a=T4EL5&b=3LEP4MGT3HM6XYLF87P2OG5CB95BD8&tp_b=3LEP4MGT3HM6XYLF87P2OG5CB95BD8&c=368485&tp_c=368485","heads":1,"tails":5,"studentIndex":0,"studentTrueHypers":{"a":1,"b":9},"studentGuess":"0.13","delta":0.16999999999999998,"totalExamples":6,"bonus":0,"bonusSoFar":0},{"rt":13329,"response":{"heads":"3","tails":"7"},"type":"response","condition":"seqFeedback","trueTheta":0.3,"classrooms":["A","B"],"studentTrueClassroom":"A","exampleSet":"first","trial_type":"survey-html-form","trial_index":13,"time_elapsed":301169,"internal_node_id":"0.0-12.0-0.0","params":{"nStudents":8,"maxExamples":70,"completionMinutes":15,"basePay":3,"maxBonus":6,"perTrialBonus":0.7,"perTrialBonusThreshold":0.08,"exampleCost":0.01},"classroomParams":{"A":{"a":1,"b":9},"B":{"a":9,"b":1}},"conditions":["nonSeqFull","nonSeqPartial","seqNoFeedback","seqFeedback"],"classroomPairings":[["A","B"]],"coinWeights":[0.3,0.7],"subjectId":"AIEKCWYZTS41V","assignmentId":"3LEP4MGT3HM6XYLF87P2OG5CB95BD8","hitId":"3GL25Y6843GESBWZZUBL7KNB306MX0","url":"https://gershmanlab.com/experiments/alicia/teaching/experiment/?hitId=3GL25Y6843GESBWZZUBL7KNB306MX0&workerId=AIEKCWYZTS41V&assignmentId=3LEP4MGT3HM6XYLF87P2OG5CB95BD8&a=T4EL5&tp_a=T4EL5&b=3LEP4MGT3HM6XYLF87P2OG5CB95BD8&tp_b=3LEP4MGT3HM6XYLF87P2OG5CB95BD8&c=368485&tp_c=368485","heads":3,"tails":7,"studentIndex":1,"studentTrueHypers":{"a":1,"b":9},"studentGuess":"0.20","delta":0.09999999999999998,"totalExamples":10,"bonusSoFar":0},{"rt":22076,"response":{"heads":"3","tails":"6"},"type":"response","condition":"seqFeedback","trueTheta":0.3,"classrooms":["A","B"],"studentTrueClassroom":"A","exampleSet":"second","trial_type":"survey-html-form","trial_index":17,"time_elapsed":335511,"internal_node_id":"0.0-16.0-0.0","params":{"nStudents":8,"maxExamples":70,"completionMinutes":15,"basePay":3,"maxBonus":6,"perTrialBonus":0.7,"perTrialBonusThreshold":0.08,"exampleCost":0.01},"classroomParams":{"A":{"a":1,"b":9},"B":{"a":9,"b":1}},"conditions":["nonSeqFull","nonSeqPartial","seqNoFeedback","seqFeedback"],"classroomPairings":[["A","B"]],"coinWeights":[0.3,0.7],"subjectId":"AIEKCWYZTS41V","assignmentId":"3LEP4MGT3HM6XYLF87P2OG5CB95BD8","hitId":"3GL25Y6843GESBWZZUBL7KNB306MX0","url":"https://gershmanlab.com/experiments/alicia/teaching/experiment/?hitId=3GL25Y6843GESBWZZUBL7KNB306MX0&workerId=AIEKCWYZTS41V&assignmentId=3LEP4MGT3HM6XYLF87P2OG5CB95BD8&a=T4EL5&tp_a=T4EL5&b=3LEP4MGT3HM6XYLF87P2OG5CB95BD8&tp_b=3LEP4MGT3HM6XYLF87P2OG5CB95BD8&c=368485&tp_c=368485","firstResponseHeads":3,"firstResponseTails":7,"secondResponseHeads":3,"secondResponseTails":6,"totalHeads":6,"totalTails":13,"studentIndex":1,"studentTrueHypers":{"a":1,"b":9},"studentGuess":"0.24","delta":0.06,"bonus":0.51,"bonusSoFar":0.51,"totalExamples":19},{"rt":11231,"response":{"heads":"2","tails":"5"},"type":"response","condition":"seqNoFeedback","trueTheta":0.3,"classrooms":["A","B"],"studentTrueClassroom":"A","exampleSet":"first","trial_type":"survey-html-form","trial_index":23,"time_elapsed":367193,"internal_node_id":"0.0-22.0-0.0","params":{"nStudents":8,"maxExamples":70,"completionMinutes":15,"basePay":3,"maxBonus":6,"perTrialBonus":0.7,"perTrialBonusThreshold":0.08,"exampleCost":0.01},"classroomParams":{"A":{"a":1,"b":9},"B":{"a":9,"b":1}},"conditions":["nonSeqFull","nonSeqPartial","seqNoFeedback","seqFeedback"],"classroomPairings":[["A","B"]],"coinWeights":[0.3,0.7],"subjectId":"AIEKCWYZTS41V","assignmentId":"3LEP4MGT3HM6XYLF87P2OG5CB95BD8","hitId":"3GL25Y6843GESBWZZUBL7KNB306MX0","url":"https://gershmanlab.com/experiments/alicia/teaching/experiment/?hitId=3GL25Y6843GESBWZZUBL7KNB306MX0&workerId=AIEKCWYZTS41V&assignmentId=3LEP4MGT3HM6XYLF87P2OG5CB95BD8&a=T4EL5&tp_a=T4EL5&b=3LEP4MGT3HM6XYLF87P2OG5CB95BD8&tp_b=3LEP4MGT3HM6XYLF87P2OG5CB95BD8&c=368485&tp_c=368485","heads":2,"tails":5,"studentIndex":2,"studentTrueHypers":{"a":1,"b":9},"studentGuess":"0.18","delta":0.12,"totalExamples":7,"bonusSoFar":0.51},{"rt":9371,"response":{"heads":"2","tails":"5"},"type":"response","condition":"seqNoFeedback","trueTheta":0.3,"classrooms":["A","B"],"studentTrueClassroom":"A","exampleSet":"second","trial_type":"survey-html-form","trial_index":26,"time_elapsed":382825,"internal_node_id":"0.0-25.0-0.0","params":{"nStudents":8,"maxExamples":70,"completionMinutes":15,"basePay":3,"maxBonus":6,"perTrialBonus":0.7,"perTrialBonusThreshold":0.08,"exampleCost":0.01},"classroomParams":{"A":{"a":1,"b":9},"B":{"a":9,"b":1}},"conditions":["nonSeqFull","nonSeqPartial","seqNoFeedback","seqFeedback"],"classroomPairings":[["A","B"]],"coinWeights":[0.3,0.7],"subjectId":"AIEKCWYZTS41V","assignmentId":"3LEP4MGT3HM6XYLF87P2OG5CB95BD8","hitId":"3GL25Y6843GESBWZZUBL7KNB306MX0","url":"https://gershmanlab.com/experiments/alicia/teaching/experiment/?hitId=3GL25Y6843GESBWZZUBL7KNB306MX0&workerId=AIEKCWYZTS41V&assignmentId=3LEP4MGT3HM6XYLF87P2OG5CB95BD8&a=T4EL5&tp_a=T4EL5&b=3LEP4MGT3HM6XYLF87P2OG5CB95BD8&tp_b=3LEP4MGT3HM6XYLF87P2OG5CB95BD8&c=368485&tp_c=368485","firstResponseHeads":2,"firstResponseTails":5,"secondResponseHeads":2,"secondResponseTails":5,"totalHeads":4,"totalTails":10,"studentIndex":2,"studentTrueHypers":{"a":1,"b":9},"studentGuess":"0.21","delta":0.09,"bonus":0,"bonusSoFar":0.51,"totalExamples":14},{"rt":17411,"response":{"heads":"6","tails":"2"},"type":"response","condition":"nonSeqFull","trueTheta":0.7,"classrooms":["A","B"],"studentTrueClassroom":"B","exampleSet":"first","trial_type":"survey-html-form","trial_index":32,"time_elapsed":421209,"internal_node_id":"0.0-31.0-0.0","params":{"nStudents":8,"maxExamples":70,"completionMinutes":15,"basePay":3,"maxBonus":6,"perTrialBonus":0.7,"perTrialBonusThreshold":0.08,"exampleCost":0.01},"classroomParams":{"A":{"a":1,"b":9},"B":{"a":9,"b":1}},"conditions":["nonSeqFull","nonSeqPartial","seqNoFeedback","seqFeedback"],"classroomPairings":[["A","B"]],"coinWeights":[0.3,0.7],"subjectId":"AIEKCWYZTS41V","assignmentId":"3LEP4MGT3HM6XYLF87P2OG5CB95BD8","hitId":"3GL25Y6843GESBWZZUBL7KNB306MX0","url":"https://gershmanlab.com/experiments/alicia/teaching/experiment/?hitId=3GL25Y6843GESBWZZUBL7KNB306MX0&workerId=AIEKCWYZTS41V&assignmentId=3LEP4MGT3HM6XYLF87P2OG5CB95BD8&a=T4EL5&tp_a=T4EL5&b=3LEP4MGT3HM6XYLF87P2OG5CB95BD8&tp_b=3LEP4MGT3HM6XYLF87P2OG5CB95BD8&c=368485&tp_c=368485","heads":6,"tails":2,"studentIndex":3,"studentTrueHypers":{"a":9,"b":1},"studentGuess":"0.83","delta":0.13,"totalExamples":8,"bonus":0,"bonusSoFar":0.51},{"rt":8200,"response":{"heads":"7","tails":"3"},"type":"response","condition":"seqFeedback","trueTheta":0.7,"classrooms":["A","B"],"studentTrueClassroom":"B","exampleSet":"first","trial_type":"survey-html-form","trial_index":38,"time_elapsed":451333,"internal_node_id":"0.0-37.0-0.0","params":{"nStudents":8,"maxExamples":70,"completionMinutes":15,"basePay":3,"maxBonus":6,"perTrialBonus":0.7,"perTrialBonusThreshold":0.08,"exampleCost":0.01},"classroomParams":{"A":{"a":1,"b":9},"B":{"a":9,"b":1}},"conditions":["nonSeqFull","nonSeqPartial","seqNoFeedback","seqFeedback"],"classroomPairings":[["A","B"]],"coinWeights":[0.3,0.7],"subjectId":"AIEKCWYZTS41V","assignmentId":"3LEP4MGT3HM6XYLF87P2OG5CB95BD8","hitId":"3GL25Y6843GESBWZZUBL7KNB306MX0","url":"https://gershmanlab.com/experiments/alicia/teaching/experiment/?hitId=3GL25Y6843GESBWZZUBL7KNB306MX0&workerId=AIEKCWYZTS41V&assignmentId=3LEP4MGT3HM6XYLF87P2OG5CB95BD8&a=T4EL5&tp_a=T4EL5&b=3LEP4MGT3HM6XYLF87P2OG5CB95BD8&tp_b=3LEP4MGT3HM6XYLF87P2OG5CB95BD8&c=368485&tp_c=368485","heads":7,"tails":3,"studentIndex":4,"studentTrueHypers":{"a":9,"b":1},"studentGuess":"0.80","delta":0.10000000000000009,"totalExamples":10,"bonusSoFar":0.51},{"rt":5171,"response":{"heads":"7","tails":"3"},"type":"response","condition":"seqFeedback","trueTheta":0.7,"classrooms":["A","B"],"studentTrueClassroom":"B","exampleSet":"second","trial_type":"survey-html-form","trial_index":42,"time_elapsed":466017,"internal_node_id":"0.0-41.0-0.0","params":{"nStudents":8,"maxExamples":70,"completionMinutes":15,"basePay":3,"maxBonus":6,"perTrialBonus":0.7,"perTrialBonusThreshold":0.08,"exampleCost":0.01},"classroomParams":{"A":{"a":1,"b":9},"B":{"a":9,"b":1}},"conditions":["nonSeqFull","nonSeqPartial","seqNoFeedback","seqFeedback"],"classroomPairings":[["A","B"]],"coinWeights":[0.3,0.7],"subjectId":"AIEKCWYZTS41V","assignmentId":"3LEP4MGT3HM6XYLF87P2OG5CB95BD8","hitId":"3GL25Y6843GESBWZZUBL7KNB306MX0","url":"https://gershmanlab.com/experiments/alicia/teaching/experiment/?hitId=3GL25Y6843GESBWZZUBL7KNB306MX0&workerId=AIEKCWYZTS41V&assignmentId=3LEP4MGT3HM6XYLF87P2OG5CB95BD8&a=T4EL5&tp_a=T4EL5&b=3LEP4MGT3HM6XYLF87P2OG5CB95BD8&tp_b=3LEP4MGT3HM6XYLF87P2OG5CB95BD8&c=368485&tp_c=368485","firstResponseHeads":7,"firstResponseTails":3,"secondResponseHeads":7,"secondResponseTails":3,"totalHeads":14,"totalTails":6,"studentIndex":4,"studentTrueHypers":{"a":9,"b":1},"studentGuess":"0.77","delta":0.07000000000000006,"bonus":0.5,"bonusSoFar":1.01,"totalExamples":20},{"rt":4977,"response":{"heads":"7","tails":"3"},"type":"response","condition":"seqNoFeedback","trueTheta":0.7,"classrooms":["A","B"],"studentTrueClassroom":"A","exampleSet":"first","trial_type":"survey-html-form","trial_index":48,"time_elapsed":484002,"internal_node_id":"0.0-47.0-0.0","params":{"nStudents":8,"maxExamples":70,"completionMinutes":15,"basePay":3,"maxBonus":6,"perTrialBonus":0.7,"perTrialBonusThreshold":0.08,"exampleCost":0.01},"classroomParams":{"A":{"a":1,"b":9},"B":{"a":9,"b":1}},"conditions":["nonSeqFull","nonSeqPartial","seqNoFeedback","seqFeedback"],"classroomPairings":[["A","B"]],"coinWeights":[0.3,0.7],"subjectId":"AIEKCWYZTS41V","assignmentId":"3LEP4MGT3HM6XYLF87P2OG5CB95BD8","hitId":"3GL25Y6843GESBWZZUBL7KNB306MX0","url":"https://gershmanlab.com/experiments/alicia/teaching/experiment/?hitId=3GL25Y6843GESBWZZUBL7KNB306MX0&workerId=AIEKCWYZTS41V&assignmentId=3LEP4MGT3HM6XYLF87P2OG5CB95BD8&a=T4EL5&tp_a=T4EL5&b=3LEP4MGT3HM6XYLF87P2OG5CB95BD8&tp_b=3LEP4MGT3HM6XYLF87P2OG5CB95BD8&c=368485&tp_c=368485","heads":7,"tails":3,"studentIndex":5,"studentTrueHypers":{"a":1,"b":9},"studentGuess":"0.40","delta":0.29999999999999993,"totalExamples":10,"bonusSoFar":1.01},{"rt":8778,"response":{"heads":"7","tails":"3"},"type":"response","condition":"seqNoFeedback","trueTheta":0.7,"classrooms":["A","B"],"studentTrueClassroom":"A","exampleSet":"second","trial_type":"survey-html-form","trial_index":51,"time_elapsed":498547,"internal_node_id":"0.0-50.0-0.0","params":{"nStudents":8,"maxExamples":70,"completionMinutes":15,"basePay":3,"maxBonus":6,"perTrialBonus":0.7,"perTrialBonusThreshold":0.08,"exampleCost":0.01},"classroomParams":{"A":{"a":1,"b":9},"B":{"a":9,"b":1}},"conditions":["nonSeqFull","nonSeqPartial","seqNoFeedback","seqFeedback"],"classroomPairings":[["A","B"]],"coinWeights":[0.3,0.7],"subjectId":"AIEKCWYZTS41V","assignmentId":"3LEP4MGT3HM6XYLF87P2OG5CB95BD8","hitId":"3GL25Y6843GESBWZZUBL7KNB306MX0","url":"https://gershmanlab.com/experiments/alicia/teaching/experiment/?hitId=3GL25Y6843GESBWZZUBL7KNB306MX0&workerId=AIEKCWYZTS41V&assignmentId=3LEP4MGT3HM6XYLF87P2OG5CB95BD8&a=T4EL5&tp_a=T4EL5&b=3LEP4MGT3HM6XYLF87P2OG5CB95BD8&tp_b=3LEP4MGT3HM6XYLF87P2OG5CB95BD8&c=368485&tp_c=368485","firstResponseHeads":7,"firstResponseTails":3,"secondResponseHeads":7,"secondResponseTails":3,"totalHeads":14,"totalTails":6,"studentIndex":5,"studentTrueHypers":{"a":1,"b":9},"studentGuess":"0.50","delta":0.19999999999999996,"bonus":0,"bonusSoFar":1.01,"totalExamples":20},{"rt":6903,"response":{"heads":"6","tails":"4"},"type":"response","condition":"nonSeqPartial","trueTheta":0.7,"classrooms":["A","B"],"studentTrueClassroom":"B","exampleSet":"first","trial_type":"survey-html-form","trial_index":57,"time_elapsed":517489,"internal_node_id":"0.0-56.0-0.0","params":{"nStudents":8,"maxExamples":70,"completionMinutes":15,"basePay":3,"maxBonus":6,"perTrialBonus":0.7,"perTrialBonusThreshold":0.08,"exampleCost":0.01},"classroomParams":{"A":{"a":1,"b":9},"B":{"a":9,"b":1}},"conditions":["nonSeqFull","nonSeqPartial","seqNoFeedback","seqFeedback"],"classroomPairings":[["A","B"]],"coinWeights":[0.3,0.7],"subjectId":"AIEKCWYZTS41V","assignmentId":"3LEP4MGT3HM6XYLF87P2OG5CB95BD8","hitId":"3GL25Y6843GESBWZZUBL7KNB306MX0","url":"https://gershmanlab.com/experiments/alicia/teaching/experiment/?hitId=3GL25Y6843GESBWZZUBL7KNB306MX0&workerId=AIEKCWYZTS41V&assignmentId=3LEP4MGT3HM6XYLF87P2OG5CB95BD8&a=T4EL5&tp_a=T4EL5&b=3LEP4MGT3HM6XYLF87P2OG5CB95BD8&tp_b=3LEP4MGT3HM6XYLF87P2OG5CB95BD8&c=368485&tp_c=368485","heads":6,"tails":4,"studentIndex":6,"studentTrueHypers":{"a":9,"b":1},"studentGuess":"0.75","delta":0.050000000000000044,"totalExamples":10,"bonus":0.6,"bonusSoFar":1.61},{"rt":7876,"response":{"heads":"4","tails":"8"},"type":"response","condition":"nonSeqPartial","trueTheta":0.3,"classrooms":["A","B"],"studentTrueClassroom":"B","exampleSet":"first","trial_type":"survey-html-form","trial_index":63,"time_elapsed":538950,"internal_node_id":"0.0-62.0-0.0","params":{"nStudents":8,"maxExamples":70,"completionMinutes":15,"basePay":3,"maxBonus":6,"perTrialBonus":0.7,"perTrialBonusThreshold":0.08,"exampleCost":0.01},"classroomParams":{"A":{"a":1,"b":9},"B":{"a":9,"b":1}},"conditions":["nonSeqFull","nonSeqPartial","seqNoFeedback","seqFeedback"],"classroomPairings":[["A","B"]],"coinWeights":[0.3,0.7],"subjectId":"AIEKCWYZTS41V","assignmentId":"3LEP4MGT3HM6XYLF87P2OG5CB95BD8","hitId":"3GL25Y6843GESBWZZUBL7KNB306MX0","url":"https://gershmanlab.com/experiments/alicia/teaching/experiment/?hitId=3GL25Y6843GESBWZZUBL7KNB306MX0&workerId=AIEKCWYZTS41V&assignmentId=3LEP4MGT3HM6XYLF87P2OG5CB95BD8&a=T4EL5&tp_a=T4EL5&b=3LEP4MGT3HM6XYLF87P2OG5CB95BD8&tp_b=3LEP4MGT3HM6XYLF87P2OG5CB95BD8&c=368485&tp_c=368485","heads":4,"tails":8,"studentIndex":7,"studentTrueHypers":{"a":9,"b":1},"studentGuess":"0.59","delta":0.29,"totalExamples":12,"bonus":0,"bonusSoFar":1.61},{"rt":31581,"response":{"gender":"male","age":"37","understood":"yes","strategy":"None, I could not figure out one to use. So, I just guessed mostly.","comments":""},"type":"response","trial_type":"survey-html-form","trial_index":67,"time_elapsed":578385,"internal_node_id":"0.0-67.0","params":{"nStudents":8,"maxExamples":70,"completionMinutes":15,"basePay":3,"maxBonus":6,"perTrialBonus":0.7,"perTrialBonusThreshold":0.08,"exampleCost":0.01},"classroomParams":{"A":{"a":1,"b":9},"B":{"a":9,"b":1}},"conditions":["nonSeqFull","nonSeqPartial","seqNoFeedback","seqFeedback"],"classroomPairings":[["A","B"]],"coinWeights":[0.3,0.7],"subjectId":"AIEKCWYZTS41V","assignmentId":"3LEP4MGT3HM6XYLF87P2OG5CB95BD8","hitId":"3GL25Y6843GESBWZZUBL7KNB306MX0","url":"https://gershmanlab.com/experiments/alicia/teaching/experiment/?hitId=3GL25Y6843GESBWZZUBL7KNB306MX0&workerId=AIEKCWYZTS41V&assignmentId=3LEP4MGT3HM6XYLF87P2OG5CB95BD8&a=T4EL5&tp_a=T4EL5&b=3LEP4MGT3HM6XYLF87P2OG5CB95BD8&tp_b=3LEP4MGT3HM6XYLF87P2OG5CB95BD8&c=368485&tp_c=368485","totalBonus":1.61}]