[{"rt":26363,"response":{"heads":"3","tails":"7"},"type":"response","condition":"nonSeqPartial","trueTheta":0.3,"classrooms":["A","B"],"studentTrueClassroom":"A","exampleSet":"first","trial_type":"survey-html-form","trial_index":19,"time_elapsed":361109,"internal_node_id":"0.0-6.0-0.0","params":{"nStudents":8,"maxExamples":70,"completionMinutes":15,"basePay":3,"maxBonus":6,"perTrialBonus":0.7,"perTrialBonusThreshold":0.08,"exampleCost":0.01},"classroomParams":{"A":{"a":1,"b":9},"B":{"a":9,"b":1}},"conditions":["nonSeqFull","nonSeqPartial","seqNoFeedback","seqFeedback"],"classroomPairings":[["A","B"]],"coinWeights":[0.3,0.7],"subjectId":"AL4G180SOE4E6","assignmentId":"3AZHRG4CU567VJG8H2M1RQNHTSJ30G","hitId":"391FPZIE4C80JT1T3SKLV8GBSWQUH7","url":"https://gershmanlab.com/experiments/alicia/teaching/experiment/?hitId=391FPZIE4C80JT1T3SKLV8GBSWQUH7&workerId=AL4G180SOE4E6&assignmentId=3AZHRG4CU567VJG8H2M1RQNHTSJ30G&a=CRZA5&tp_a=CRZA5&b=3AZHRG4CU567VJG8H2M1RQNHTSJ30G&tp_b=3AZHRG4CU567VJG8H2M1RQNHTSJ30G&c=368485&tp_c=368485","heads":3,"tails":7,"studentIndex":0,"studentTrueHypers":{"a":1,"b":9},"studentGuess":"0.20","delta":0.09999999999999998,"totalExamples":10,"bonus":0,"bonusSoFar":0},{"rt":10580,"response":{"heads":"7","tails":"3"},"type":"response","condition":"nonSeqFull","trueTheta":0.7,"classrooms":["A","B"],"studentTrueClassroom":"B","exampleSet":"first","trial_type":"survey-html-form","trial_index":25,"time_elapsed":400675,"internal_node_id":"0.0-12.0-0.0","params":{"nStudents":8,"maxExamples":70,"completionMinutes":15,"basePay":3,"maxBonus":6,"perTrialBonus":0.7,"perTrialBonusThreshold":0.08,"exampleCost":0.01},"classroomParams":{"A":{"a":1,"b":9},"B":{"a":9,"b":1}},"conditions":["nonSeqFull","nonSeqPartial","seqNoFeedback","seqFeedback"],"classroomPairings":[["A","B"]],"coinWeights":[0.3,0.7],"subjectId":"AL4G180SOE4E6","assignmentId":"3AZHRG4CU567VJG8H2M1RQNHTSJ30G","hitId":"391FPZIE4C80JT1T3SKLV8GBSWQUH7","url":"https://gershmanlab.com/experiments/alicia/teaching/experiment/?hitId=391FPZIE4C80JT1T3SKLV8GBSWQUH7&workerId=AL4G180SOE4E6&assignmentId=3AZHRG4CU567VJG8H2M1RQNHTSJ30G&a=CRZA5&tp_a=CRZA5&b=3AZHRG4CU567VJG8H2M1RQNHTSJ30G&tp_b=3AZHRG4CU567VJG8H2M1RQNHTSJ30G&c=368485&tp_c=368485","heads":7,"tails":3,"studentIndex":1,"studentTrueHypers":{"a":9,"b":1},"studentGuess":"0.80","delta":0.10000000000000009,"totalExamples":10,"bonus":0,"bonusSoFar":0},{"rt":33986,"response":{"heads":"3","tails":"7"},"type":"response","condition":"nonSeqFull","trueTheta":0.3,"classrooms":["A","B"],"studentTrueClassroom":"A","exampleSet":"first","trial_type":"survey-html-form","trial_index":31,"time_elapsed":460644,"internal_node_id":"0.0-18.0-0.0","params":{"nStudents":8,"maxExamples":70,"completionMinutes":15,"basePay":3,"maxBonus":6,"perTrialBonus":0.7,"perTrialBonusThreshold":0.08,"exampleCost":0.01},"classroomParams":{"A":{"a":1,"b":9},"B":{"a":9,"b":1}},"conditions":["nonSeqFull","nonSeqPartial","seqNoFeedback","seqFeedback"],"classroomPairings":[["A","B"]],"coinWeights":[0.3,0.7],"subjectId":"AL4G180SOE4E6","assignmentId":"3AZHRG4CU567VJG8H2M1RQNHTSJ30G","hitId":"391FPZIE4C80JT1T3SKLV8GBSWQUH7","url":"https://gershmanlab.com/experiments/alicia/teaching/experiment/?hitId=391FPZIE4C80JT1T3SKLV8GBSWQUH7&workerId=AL4G180SOE4E6&assignmentId=3AZHRG4CU567VJG8H2M1RQNHTSJ30G&a=CRZA5&tp_a=CRZA5&b=3AZHRG4CU567VJG8H2M1RQNHTSJ30G&tp_b=3AZHRG4CU567VJG8H2M1RQNHTSJ30G&c=368485&tp_c=368485","heads":3,"tails":7,"studentIndex":2,"studentTrueHypers":{"a":1,"b":9},"studentGuess":"0.20","delta":0.09999999999999998,"totalExamples":10,"bonus":0,"bonusSoFar":0},{"rt":15017,"response":{"heads":"7","tails":"3"},"type":"response","condition":"seqNoFeedback","trueTheta":0.7,"classrooms":["A","B"],"studentTrueClassroom":"B","exampleSet":"first","trial_type":"survey-html-form","trial_index":37,"time_elapsed":504908,"internal_node_id":"0.0-24.0-0.0","params":{"nStudents":8,"maxExamples":70,"completionMinutes":15,"basePay":3,"maxBonus":6,"perTrialBonus":0.7,"perTrialBonusThreshold":0.08,"exampleCost":0.01},"classroomParams":{"A":{"a":1,"b":9},"B":{"a":9,"b":1}},"conditions":["nonSeqFull","nonSeqPartial","seqNoFeedback","seqFeedback"],"classroomPairings":[["A","B"]],"coinWeights":[0.3,0.7],"subjectId":"AL4G180SOE4E6","assignmentId":"3AZHRG4CU567VJG8H2M1RQNHTSJ30G","hitId":"391FPZIE4C80JT1T3SKLV8GBSWQUH7","url":"https://gershmanlab.com/experiments/alicia/teaching/experiment/?hitId=391FPZIE4C80JT1T3SKLV8GBSWQUH7&workerId=AL4G180SOE4E6&assignmentId=3AZHRG4CU567VJG8H2M1RQNHTSJ30G&a=CRZA5&tp_a=CRZA5&b=3AZHRG4CU567VJG8H2M1RQNHTSJ30G&tp_b=3AZHRG4CU567VJG8H2M1RQNHTSJ30G&c=368485&tp_c=368485","heads":7,"tails":3,"studentIndex":3,"studentTrueHypers":{"a":9,"b":1},"studentGuess":"0.80","delta":0.10000000000000009,"totalExamples":10,"bonusSoFar":0},{"rt":14744,"response":{"heads":"7","tails":"3"},"type":"response","condition":"seqNoFeedback","trueTheta":0.7,"classrooms":["A","B"],"studentTrueClassroom":"B","exampleSet":"second","trial_type":"survey-html-form","trial_index":40,"time_elapsed":526156,"internal_node_id":"0.0-27.0-0.0","params":{"nStudents":8,"maxExamples":70,"completionMinutes":15,"basePay":3,"maxBonus":6,"perTrialBonus":0.7,"perTrialBonusThreshold":0.08,"exampleCost":0.01},"classroomParams":{"A":{"a":1,"b":9},"B":{"a":9,"b":1}},"conditions":["nonSeqFull","nonSeqPartial","seqNoFeedback","seqFeedback"],"classroomPairings":[["A","B"]],"coinWeights":[0.3,0.7],"subjectId":"AL4G180SOE4E6","assignmentId":"3AZHRG4CU567VJG8H2M1RQNHTSJ30G","hitId":"391FPZIE4C80JT1T3SKLV8GBSWQUH7","url":"https://gershmanlab.com/experiments/alicia/teaching/experiment/?hitId=391FPZIE4C80JT1T3SKLV8GBSWQUH7&workerId=AL4G180SOE4E6&assignmentId=3AZHRG4CU567VJG8H2M1RQNHTSJ30G&a=CRZA5&tp_a=CRZA5&b=3AZHRG4CU567VJG8H2M1RQNHTSJ30G&tp_b=3AZHRG4CU567VJG8H2M1RQNHTSJ30G&c=368485&tp_c=368485","firstResponseHeads":7,"firstResponseTails":3,"secondResponseHeads":7,"secondResponseTails":3,"totalHeads":14,"totalTails":6,"studentIndex":3,"studentTrueHypers":{"a":9,"b":1},"studentGuess":"0.77","delta":0.07000000000000006,"bonus":0.5,"bonusSoFar":0.5,"totalExamples":20},{"rt":8769,"response":{"heads":"3","tails":"7"},"type":"response","condition":"seqFeedback","trueTheta":0.3,"classrooms":["A","B"],"studentTrueClassroom":"B","exampleSet":"first","trial_type":"survey-html-form","trial_index":46,"time_elapsed":550811,"internal_node_id":"0.0-33.0-0.0","params":{"nStudents":8,"maxExamples":70,"completionMinutes":15,"basePay":3,"maxBonus":6,"perTrialBonus":0.7,"perTrialBonusThreshold":0.08,"exampleCost":0.01},"classroomParams":{"A":{"a":1,"b":9},"B":{"a":9,"b":1}},"conditions":["nonSeqFull","nonSeqPartial","seqNoFeedback","seqFeedback"],"classroomPairings":[["A","B"]],"coinWeights":[0.3,0.7],"subjectId":"AL4G180SOE4E6","assignmentId":"3AZHRG4CU567VJG8H2M1RQNHTSJ30G","hitId":"391FPZIE4C80JT1T3SKLV8GBSWQUH7","url":"https://gershmanlab.com/experiments/alicia/teaching/experiment/?hitId=391FPZIE4C80JT1T3SKLV8GBSWQUH7&workerId=AL4G180SOE4E6&assignmentId=3AZHRG4CU567VJG8H2M1RQNHTSJ30G&a=CRZA5&tp_a=CRZA5&b=3AZHRG4CU567VJG8H2M1RQNHTSJ30G&tp_b=3AZHRG4CU567VJG8H2M1RQNHTSJ30G&c=368485&tp_c=368485","heads":3,"tails":7,"studentIndex":4,"studentTrueHypers":{"a":9,"b":1},"studentGuess":"0.60","delta":0.3,"totalExamples":10,"bonusSoFar":0.5},{"rt":10205,"response":{"heads":"3","tails":"7"},"type":"response","condition":"seqFeedback","trueTheta":0.3,"classrooms":["A","B"],"studentTrueClassroom":"B","exampleSet":"second","trial_type":"survey-html-form","trial_index":50,"time_elapsed":572644,"internal_node_id":"0.0-37.0-0.0","params":{"nStudents":8,"maxExamples":70,"completionMinutes":15,"basePay":3,"maxBonus":6,"perTrialBonus":0.7,"perTrialBonusThreshold":0.08,"exampleCost":0.01},"classroomParams":{"A":{"a":1,"b":9},"B":{"a":9,"b":1}},"conditions":["nonSeqFull","nonSeqPartial","seqNoFeedback","seqFeedback"],"classroomPairings":[["A","B"]],"coinWeights":[0.3,0.7],"subjectId":"AL4G180SOE4E6","assignmentId":"3AZHRG4CU567VJG8H2M1RQNHTSJ30G","hitId":"391FPZIE4C80JT1T3SKLV8GBSWQUH7","url":"https://gershmanlab.com/experiments/alicia/teaching/experiment/?hitId=391FPZIE4C80JT1T3SKLV8GBSWQUH7&workerId=AL4G180SOE4E6&assignmentId=3AZHRG4CU567VJG8H2M1RQNHTSJ30G&a=CRZA5&tp_a=CRZA5&b=3AZHRG4CU567VJG8H2M1RQNHTSJ30G&tp_b=3AZHRG4CU567VJG8H2M1RQNHTSJ30G&c=368485&tp_c=368485","firstResponseHeads":3,"firstResponseTails":7,"secondResponseHeads":3,"secondResponseTails":7,"totalHeads":6,"totalTails":14,"studentIndex":4,"studentTrueHypers":{"a":9,"b":1},"studentGuess":"0.50","delta":0.2,"bonus":0,"bonusSoFar":0.5,"totalExamples":20},{"rt":7185,"response":{"heads":"3","tails":"7"},"type":"response","condition":"seqNoFeedback","trueTheta":0.3,"classrooms":["A","B"],"studentTrueClassroom":"A","exampleSet":"first","trial_type":"survey-html-form","trial_index":56,"time_elapsed":599167,"internal_node_id":"0.0-43.0-0.0","params":{"nStudents":8,"maxExamples":70,"completionMinutes":15,"basePay":3,"maxBonus":6,"perTrialBonus":0.7,"perTrialBonusThreshold":0.08,"exampleCost":0.01},"classroomParams":{"A":{"a":1,"b":9},"B":{"a":9,"b":1}},"conditions":["nonSeqFull","nonSeqPartial","seqNoFeedback","seqFeedback"],"classroomPairings":[["A","B"]],"coinWeights":[0.3,0.7],"subjectId":"AL4G180SOE4E6","assignmentId":"3AZHRG4CU567VJG8H2M1RQNHTSJ30G","hitId":"391FPZIE4C80JT1T3SKLV8GBSWQUH7","url":"https://gershmanlab.com/experiments/alicia/teaching/experiment/?hitId=391FPZIE4C80JT1T3SKLV8GBSWQUH7&workerId=AL4G180SOE4E6&assignmentId=3AZHRG4CU567VJG8H2M1RQNHTSJ30G&a=CRZA5&tp_a=CRZA5&b=3AZHRG4CU567VJG8H2M1RQNHTSJ30G&tp_b=3AZHRG4CU567VJG8H2M1RQNHTSJ30G&c=368485&tp_c=368485","heads":3,"tails":7,"studentIndex":5,"studentTrueHypers":{"a":1,"b":9},"studentGuess":"0.20","delta":0.09999999999999998,"totalExamples":10,"bonusSoFar":0.5},{"rt":8176,"response":{"heads":"3","tails":"7"},"type":"response","condition":"seqNoFeedback","trueTheta":0.3,"classrooms":["A","B"],"studentTrueClassroom":"A","exampleSet":"second","trial_type":"survey-html-form","trial_index":59,"time_elapsed":614095,"internal_node_id":"0.0-46.0-0.0","params":{"nStudents":8,"maxExamples":70,"completionMinutes":15,"basePay":3,"maxBonus":6,"perTrialBonus":0.7,"perTrialBonusThreshold":0.08,"exampleCost":0.01},"classroomParams":{"A":{"a":1,"b":9},"B":{"a":9,"b":1}},"conditions":["nonSeqFull","nonSeqPartial","seqNoFeedback","seqFeedback"],"classroomPairings":[["A","B"]],"coinWeights":[0.3,0.7],"subjectId":"AL4G180SOE4E6","assignmentId":"3AZHRG4CU567VJG8H2M1RQNHTSJ30G","hitId":"391FPZIE4C80JT1T3SKLV8GBSWQUH7","url":"https://gershmanlab.com/experiments/alicia/teaching/experiment/?hitId=391FPZIE4C80JT1T3SKLV8GBSWQUH7&workerId=AL4G180SOE4E6&assignmentId=3AZHRG4CU567VJG8H2M1RQNHTSJ30G&a=CRZA5&tp_a=CRZA5&b=3AZHRG4CU567VJG8H2M1RQNHTSJ30G&tp_b=3AZHRG4CU567VJG8H2M1RQNHTSJ30G&c=368485&tp_c=368485","firstResponseHeads":3,"firstResponseTails":7,"secondResponseHeads":3,"secondResponseTails":7,"totalHeads":6,"totalTails":14,"studentIndex":5,"studentTrueHypers":{"a":1,"b":9},"studentGuess":"0.23","delta":0.06999999999999998,"bonus":0.5,"bonusSoFar":1,"totalExamples":20},{"rt":11050,"response":{"heads":"8","tails":"2"},"type":"response","condition":"seqFeedback","trueTheta":0.7,"classrooms":["A","B"],"studentTrueClassroom":"B","exampleSet":"first","trial_type":"survey-html-form","trial_index":65,"time_elapsed":640798,"internal_node_id":"0.0-52.0-0.0","params":{"nStudents":8,"maxExamples":70,"completionMinutes":15,"basePay":3,"maxBonus":6,"perTrialBonus":0.7,"perTrialBonusThreshold":0.08,"exampleCost":0.01},"classroomParams":{"A":{"a":1,"b":9},"B":{"a":9,"b":1}},"conditions":["nonSeqFull","nonSeqPartial","seqNoFeedback","seqFeedback"],"classroomPairings":[["A","B"]],"coinWeights":[0.3,0.7],"subjectId":"AL4G180SOE4E6","assignmentId":"3AZHRG4CU567VJG8H2M1RQNHTSJ30G","hitId":"391FPZIE4C80JT1T3SKLV8GBSWQUH7","url":"https://gershmanlab.com/experiments/alicia/teaching/experiment/?hitId=391FPZIE4C80JT1T3SKLV8GBSWQUH7&workerId=AL4G180SOE4E6&assignmentId=3AZHRG4CU567VJG8H2M1RQNHTSJ30G&a=CRZA5&tp_a=CRZA5&b=3AZHRG4CU567VJG8H2M1RQNHTSJ30G&tp_b=3AZHRG4CU567VJG8H2M1RQNHTSJ30G&c=368485&tp_c=368485","heads":8,"tails":2,"studentIndex":6,"studentTrueHypers":{"a":9,"b":1},"studentGuess":"0.85","delta":0.15000000000000002,"totalExamples":10,"bonusSoFar":1},{"rt":12845,"response":{"heads":"6","tails":"2"},"type":"response","condition":"seqFeedback","trueTheta":0.7,"classrooms":["A","B"],"studentTrueClassroom":"B","exampleSet":"second","trial_type":"survey-html-form","trial_index":69,"time_elapsed":663356,"internal_node_id":"0.0-56.0-0.0","params":{"nStudents":8,"maxExamples":70,"completionMinutes":15,"basePay":3,"maxBonus":6,"perTrialBonus":0.7,"perTrialBonusThreshold":0.08,"exampleCost":0.01},"classroomParams":{"A":{"a":1,"b":9},"B":{"a":9,"b":1}},"conditions":["nonSeqFull","nonSeqPartial","seqNoFeedback","seqFeedback"],"classroomPairings":[["A","B"]],"coinWeights":[0.3,0.7],"subjectId":"AL4G180SOE4E6","assignmentId":"3AZHRG4CU567VJG8H2M1RQNHTSJ30G","hitId":"391FPZIE4C80JT1T3SKLV8GBSWQUH7","url":"https://gershmanlab.com/experiments/alicia/teaching/experiment/?hitId=391FPZIE4C80JT1T3SKLV8GBSWQUH7&workerId=AL4G180SOE4E6&assignmentId=3AZHRG4CU567VJG8H2M1RQNHTSJ30G&a=CRZA5&tp_a=CRZA5&b=3AZHRG4CU567VJG8H2M1RQNHTSJ30G&tp_b=3AZHRG4CU567VJG8H2M1RQNHTSJ30G&c=368485&tp_c=368485","firstResponseHeads":8,"firstResponseTails":2,"secondResponseHeads":6,"secondResponseTails":2,"totalHeads":14,"totalTails":4,"studentIndex":6,"studentTrueHypers":{"a":9,"b":1},"studentGuess":"0.82","delta":0.12,"bonus":0,"bonusSoFar":1,"totalExamples":18},{"rt":9454,"response":{"heads":"10","tails":"0"},"type":"response","condition":"nonSeqPartial","trueTheta":0.7,"classrooms":["A","B"],"studentTrueClassroom":"A","exampleSet":"first","trial_type":"survey-html-form","trial_index":75,"time_elapsed":689400,"internal_node_id":"0.0-62.0-0.0","params":{"nStudents":8,"maxExamples":70,"completionMinutes":15,"basePay":3,"maxBonus":6,"perTrialBonus":0.7,"perTrialBonusThreshold":0.08,"exampleCost":0.01},"classroomParams":{"A":{"a":1,"b":9},"B":{"a":9,"b":1}},"conditions":["nonSeqFull","nonSeqPartial","seqNoFeedback","seqFeedback"],"classroomPairings":[["A","B"]],"coinWeights":[0.3,0.7],"subjectId":"AL4G180SOE4E6","assignmentId":"3AZHRG4CU567VJG8H2M1RQNHTSJ30G","hitId":"391FPZIE4C80JT1T3SKLV8GBSWQUH7","url":"https://gershmanlab.com/experiments/alicia/teaching/experiment/?hitId=391FPZIE4C80JT1T3SKLV8GBSWQUH7&workerId=AL4G180SOE4E6&assignmentId=3AZHRG4CU567VJG8H2M1RQNHTSJ30G&a=CRZA5&tp_a=CRZA5&b=3AZHRG4CU567VJG8H2M1RQNHTSJ30G&tp_b=3AZHRG4CU567VJG8H2M1RQNHTSJ30G&c=368485&tp_c=368485","heads":10,"tails":0,"studentIndex":7,"studentTrueHypers":{"a":1,"b":9},"studentGuess":"0.55","delta":0.1499999999999999,"totalExamples":10,"bonus":0,"bonusSoFar":1},{"rt":86613,"response":{"gender":"male","age":"32","understood":"yes","strategy":"I tried sending the appropriate amount out of 10. Given that the amount of turtles seen was random and I had no baseline of prior information, it was useless and I felt I had no control over what was happening.","comments":"The comprehension questions are poorly worded I feel."},"type":"response","trial_type":"survey-html-form","trial_index":79,"time_elapsed":784597,"internal_node_id":"0.0-67.0","params":{"nStudents":8,"maxExamples":70,"completionMinutes":15,"basePay":3,"maxBonus":6,"perTrialBonus":0.7,"perTrialBonusThreshold":0.08,"exampleCost":0.01},"classroomParams":{"A":{"a":1,"b":9},"B":{"a":9,"b":1}},"conditions":["nonSeqFull","nonSeqPartial","seqNoFeedback","seqFeedback"],"classroomPairings":[["A","B"]],"coinWeights":[0.3,0.7],"subjectId":"AL4G180SOE4E6","assignmentId":"3AZHRG4CU567VJG8H2M1RQNHTSJ30G","hitId":"391FPZIE4C80JT1T3SKLV8GBSWQUH7","url":"https://gershmanlab.com/experiments/alicia/teaching/experiment/?hitId=391FPZIE4C80JT1T3SKLV8GBSWQUH7&workerId=AL4G180SOE4E6&assignmentId=3AZHRG4CU567VJG8H2M1RQNHTSJ30G&a=CRZA5&tp_a=CRZA5&b=3AZHRG4CU567VJG8H2M1RQNHTSJ30G&tp_b=3AZHRG4CU567VJG8H2M1RQNHTSJ30G&c=368485&tp_c=368485","totalBonus":1}]