[{"rt":39324,"response":{"heads":"0","tails":"3"},"type":"response","condition":"nonSeqPartial","trueTheta":0.7,"classrooms":["A","B"],"studentTrueClassroom":"A","exampleSet":"first","trial_type":"survey-html-form","trial_index":10,"time_elapsed":533166,"internal_node_id":"0.0-6.0-0.0","params":{"nStudents":8,"maxExamples":70,"completionMinutes":15,"basePay":3,"maxBonus":6,"perTrialBonus":0.7,"perTrialBonusThreshold":0.08,"exampleCost":0.01},"classroomParams":{"A":{"a":1,"b":9},"B":{"a":9,"b":1}},"conditions":["nonSeqFull","nonSeqPartial","seqNoFeedback","seqFeedback"],"classroomPairings":[["A","B"]],"coinWeights":[0.3,0.7],"subjectId":"AXTZU0PO55S3S","assignmentId":"378XPAWRUDZIMZW9U7QHK21JLWSAIE","hitId":"3GL25Y6843GESBWZZUBL7KNB306MX0","url":"https://gershmanlab.com/experiments/alicia/teaching/experiment/?hitId=3GL25Y6843GESBWZZUBL7KNB306MX0&workerId=AXTZU0PO55S3S&assignmentId=378XPAWRUDZIMZW9U7QHK21JLWSAIE&a=RP875&tp_a=RP875&b=378XPAWRUDZIMZW9U7QHK21JLWSAIE&tp_b=378XPAWRUDZIMZW9U7QHK21JLWSAIE&c=368485&tp_c=368485","heads":0,"tails":3,"studentIndex":0,"studentTrueHypers":{"a":1,"b":9},"studentGuess":"0.08","delta":0.62,"totalExamples":3,"bonus":0,"bonusSoFar":0},{"rt":43435,"response":{"heads":"2","tails":"0"},"type":"response","condition":"seqNoFeedback","trueTheta":0.3,"classrooms":["A","B"],"studentTrueClassroom":"B","exampleSet":"first","trial_type":"survey-html-form","trial_index":16,"time_elapsed":625437,"internal_node_id":"0.0-12.0-0.0","params":{"nStudents":8,"maxExamples":70,"completionMinutes":15,"basePay":3,"maxBonus":6,"perTrialBonus":0.7,"perTrialBonusThreshold":0.08,"exampleCost":0.01},"classroomParams":{"A":{"a":1,"b":9},"B":{"a":9,"b":1}},"conditions":["nonSeqFull","nonSeqPartial","seqNoFeedback","seqFeedback"],"classroomPairings":[["A","B"]],"coinWeights":[0.3,0.7],"subjectId":"AXTZU0PO55S3S","assignmentId":"378XPAWRUDZIMZW9U7QHK21JLWSAIE","hitId":"3GL25Y6843GESBWZZUBL7KNB306MX0","url":"https://gershmanlab.com/experiments/alicia/teaching/experiment/?hitId=3GL25Y6843GESBWZZUBL7KNB306MX0&workerId=AXTZU0PO55S3S&assignmentId=378XPAWRUDZIMZW9U7QHK21JLWSAIE&a=RP875&tp_a=RP875&b=378XPAWRUDZIMZW9U7QHK21JLWSAIE&tp_b=378XPAWRUDZIMZW9U7QHK21JLWSAIE&c=368485&tp_c=368485","heads":2,"tails":0,"studentIndex":1,"studentTrueHypers":{"a":9,"b":1},"studentGuess":"0.92","delta":0.6200000000000001,"totalExamples":2,"bonusSoFar":0},{"rt":14338,"response":{"heads":"0","tails":"6"},"type":"response","condition":"seqNoFeedback","trueTheta":0.3,"classrooms":["A","B"],"studentTrueClassroom":"B","exampleSet":"second","trial_type":"survey-html-form","trial_index":19,"time_elapsed":645535,"internal_node_id":"0.0-15.0-0.0","params":{"nStudents":8,"maxExamples":70,"completionMinutes":15,"basePay":3,"maxBonus":6,"perTrialBonus":0.7,"perTrialBonusThreshold":0.08,"exampleCost":0.01},"classroomParams":{"A":{"a":1,"b":9},"B":{"a":9,"b":1}},"conditions":["nonSeqFull","nonSeqPartial","seqNoFeedback","seqFeedback"],"classroomPairings":[["A","B"]],"coinWeights":[0.3,0.7],"subjectId":"AXTZU0PO55S3S","assignmentId":"378XPAWRUDZIMZW9U7QHK21JLWSAIE","hitId":"3GL25Y6843GESBWZZUBL7KNB306MX0","url":"https://gershmanlab.com/experiments/alicia/teaching/experiment/?hitId=3GL25Y6843GESBWZZUBL7KNB306MX0&workerId=AXTZU0PO55S3S&assignmentId=378XPAWRUDZIMZW9U7QHK21JLWSAIE&a=RP875&tp_a=RP875&b=378XPAWRUDZIMZW9U7QHK21JLWSAIE&tp_b=378XPAWRUDZIMZW9U7QHK21JLWSAIE&c=368485&tp_c=368485","firstResponseHeads":2,"firstResponseTails":0,"secondResponseHeads":0,"secondResponseTails":6,"totalHeads":2,"totalTails":6,"studentIndex":1,"studentTrueHypers":{"a":9,"b":1},"studentGuess":"0.61","delta":0.31,"bonus":0,"bonusSoFar":0,"totalExamples":8},{"rt":47987,"response":{"heads":"0","tails":"4"},"type":"response","condition":"seqFeedback","trueTheta":0.3,"classrooms":["A","B"],"studentTrueClassroom":"A","exampleSet":"first","trial_type":"survey-html-form","trial_index":25,"time_elapsed":732352,"internal_node_id":"0.0-21.0-0.0","params":{"nStudents":8,"maxExamples":70,"completionMinutes":15,"basePay":3,"maxBonus":6,"perTrialBonus":0.7,"perTrialBonusThreshold":0.08,"exampleCost":0.01},"classroomParams":{"A":{"a":1,"b":9},"B":{"a":9,"b":1}},"conditions":["nonSeqFull","nonSeqPartial","seqNoFeedback","seqFeedback"],"classroomPairings":[["A","B"]],"coinWeights":[0.3,0.7],"subjectId":"AXTZU0PO55S3S","assignmentId":"378XPAWRUDZIMZW9U7QHK21JLWSAIE","hitId":"3GL25Y6843GESBWZZUBL7KNB306MX0","url":"https://gershmanlab.com/experiments/alicia/teaching/experiment/?hitId=3GL25Y6843GESBWZZUBL7KNB306MX0&workerId=AXTZU0PO55S3S&assignmentId=378XPAWRUDZIMZW9U7QHK21JLWSAIE&a=RP875&tp_a=RP875&b=378XPAWRUDZIMZW9U7QHK21JLWSAIE&tp_b=378XPAWRUDZIMZW9U7QHK21JLWSAIE&c=368485&tp_c=368485","heads":0,"tails":4,"studentIndex":2,"studentTrueHypers":{"a":1,"b":9},"studentGuess":"0.07","delta":0.22999999999999998,"totalExamples":4,"bonusSoFar":0},{"rt":52122,"response":{"heads":"1","tails":"3"},"type":"response","condition":"seqFeedback","trueTheta":0.3,"classrooms":["A","B"],"studentTrueClassroom":"A","exampleSet":"second","trial_type":"survey-html-form","trial_index":29,"time_elapsed":801744,"internal_node_id":"0.0-25.0-0.0","params":{"nStudents":8,"maxExamples":70,"completionMinutes":15,"basePay":3,"maxBonus":6,"perTrialBonus":0.7,"perTrialBonusThreshold":0.08,"exampleCost":0.01},"classroomParams":{"A":{"a":1,"b":9},"B":{"a":9,"b":1}},"conditions":["nonSeqFull","nonSeqPartial","seqNoFeedback","seqFeedback"],"classroomPairings":[["A","B"]],"coinWeights":[0.3,0.7],"subjectId":"AXTZU0PO55S3S","assignmentId":"378XPAWRUDZIMZW9U7QHK21JLWSAIE","hitId":"3GL25Y6843GESBWZZUBL7KNB306MX0","url":"https://gershmanlab.com/experiments/alicia/teaching/experiment/?hitId=3GL25Y6843GESBWZZUBL7KNB306MX0&workerId=AXTZU0PO55S3S&assignmentId=378XPAWRUDZIMZW9U7QHK21JLWSAIE&a=RP875&tp_a=RP875&b=378XPAWRUDZIMZW9U7QHK21JLWSAIE&tp_b=378XPAWRUDZIMZW9U7QHK21JLWSAIE&c=368485&tp_c=368485","firstResponseHeads":0,"firstResponseTails":4,"secondResponseHeads":1,"secondResponseTails":3,"totalHeads":1,"totalTails":7,"studentIndex":2,"studentTrueHypers":{"a":1,"b":9},"studentGuess":"0.11","delta":0.19,"bonus":0,"bonusSoFar":0,"totalExamples":8},{"rt":19259,"response":{"heads":"2","tails":"1"},"type":"response","condition":"nonSeqFull","trueTheta":0.7,"classrooms":["A","B"],"studentTrueClassroom":"A","exampleSet":"first","trial_type":"survey-html-form","trial_index":35,"time_elapsed":857128,"internal_node_id":"0.0-31.0-0.0","params":{"nStudents":8,"maxExamples":70,"completionMinutes":15,"basePay":3,"maxBonus":6,"perTrialBonus":0.7,"perTrialBonusThreshold":0.08,"exampleCost":0.01},"classroomParams":{"A":{"a":1,"b":9},"B":{"a":9,"b":1}},"conditions":["nonSeqFull","nonSeqPartial","seqNoFeedback","seqFeedback"],"classroomPairings":[["A","B"]],"coinWeights":[0.3,0.7],"subjectId":"AXTZU0PO55S3S","assignmentId":"378XPAWRUDZIMZW9U7QHK21JLWSAIE","hitId":"3GL25Y6843GESBWZZUBL7KNB306MX0","url":"https://gershmanlab.com/experiments/alicia/teaching/experiment/?hitId=3GL25Y6843GESBWZZUBL7KNB306MX0&workerId=AXTZU0PO55S3S&assignmentId=378XPAWRUDZIMZW9U7QHK21JLWSAIE&a=RP875&tp_a=RP875&b=378XPAWRUDZIMZW9U7QHK21JLWSAIE&tp_b=378XPAWRUDZIMZW9U7QHK21JLWSAIE&c=368485&tp_c=368485","heads":2,"tails":1,"studentIndex":3,"studentTrueHypers":{"a":1,"b":9},"studentGuess":"0.23","delta":0.47,"totalExamples":3,"bonus":0,"bonusSoFar":0},{"rt":35029,"response":{"heads":"3","tails":"2"},"type":"response","condition":"seqFeedback","trueTheta":0.7,"classrooms":["A","B"],"studentTrueClassroom":"B","exampleSet":"first","trial_type":"survey-html-form","trial_index":41,"time_elapsed":918529,"internal_node_id":"0.0-37.0-0.0","params":{"nStudents":8,"maxExamples":70,"completionMinutes":15,"basePay":3,"maxBonus":6,"perTrialBonus":0.7,"perTrialBonusThreshold":0.08,"exampleCost":0.01},"classroomParams":{"A":{"a":1,"b":9},"B":{"a":9,"b":1}},"conditions":["nonSeqFull","nonSeqPartial","seqNoFeedback","seqFeedback"],"classroomPairings":[["A","B"]],"coinWeights":[0.3,0.7],"subjectId":"AXTZU0PO55S3S","assignmentId":"378XPAWRUDZIMZW9U7QHK21JLWSAIE","hitId":"3GL25Y6843GESBWZZUBL7KNB306MX0","url":"https://gershmanlab.com/experiments/alicia/teaching/experiment/?hitId=3GL25Y6843GESBWZZUBL7KNB306MX0&workerId=AXTZU0PO55S3S&assignmentId=378XPAWRUDZIMZW9U7QHK21JLWSAIE&a=RP875&tp_a=RP875&b=378XPAWRUDZIMZW9U7QHK21JLWSAIE&tp_b=378XPAWRUDZIMZW9U7QHK21JLWSAIE&c=368485&tp_c=368485","heads":3,"tails":2,"studentIndex":4,"studentTrueHypers":{"a":9,"b":1},"studentGuess":"0.80","delta":0.10000000000000009,"totalExamples":5,"bonusSoFar":0},{"rt":39315,"response":{"heads":"2","tails":"3"},"type":"response","condition":"seqFeedback","trueTheta":0.7,"classrooms":["A","B"],"studentTrueClassroom":"B","exampleSet":"second","trial_type":"survey-html-form","trial_index":45,"time_elapsed":968594,"internal_node_id":"0.0-41.0-0.0","params":{"nStudents":8,"maxExamples":70,"completionMinutes":15,"basePay":3,"maxBonus":6,"perTrialBonus":0.7,"perTrialBonusThreshold":0.08,"exampleCost":0.01},"classroomParams":{"A":{"a":1,"b":9},"B":{"a":9,"b":1}},"conditions":["nonSeqFull","nonSeqPartial","seqNoFeedback","seqFeedback"],"classroomPairings":[["A","B"]],"coinWeights":[0.3,0.7],"subjectId":"AXTZU0PO55S3S","assignmentId":"378XPAWRUDZIMZW9U7QHK21JLWSAIE","hitId":"3GL25Y6843GESBWZZUBL7KNB306MX0","url":"https://gershmanlab.com/experiments/alicia/teaching/experiment/?hitId=3GL25Y6843GESBWZZUBL7KNB306MX0&workerId=AXTZU0PO55S3S&assignmentId=378XPAWRUDZIMZW9U7QHK21JLWSAIE&a=RP875&tp_a=RP875&b=378XPAWRUDZIMZW9U7QHK21JLWSAIE&tp_b=378XPAWRUDZIMZW9U7QHK21JLWSAIE&c=368485&tp_c=368485","firstResponseHeads":3,"firstResponseTails":2,"secondResponseHeads":2,"secondResponseTails":3,"totalHeads":5,"totalTails":5,"studentIndex":4,"studentTrueHypers":{"a":9,"b":1},"studentGuess":"0.70","delta":0,"bonus":0.6,"bonusSoFar":0.6,"totalExamples":10},{"rt":16921,"response":{"heads":"2","tails":"3"},"type":"response","condition":"nonSeqFull","trueTheta":0.3,"classrooms":["A","B"],"studentTrueClassroom":"A","exampleSet":"first","trial_type":"survey-html-form","trial_index":51,"time_elapsed":1009652,"internal_node_id":"0.0-47.0-0.0","params":{"nStudents":8,"maxExamples":70,"completionMinutes":15,"basePay":3,"maxBonus":6,"perTrialBonus":0.7,"perTrialBonusThreshold":0.08,"exampleCost":0.01},"classroomParams":{"A":{"a":1,"b":9},"B":{"a":9,"b":1}},"conditions":["nonSeqFull","nonSeqPartial","seqNoFeedback","seqFeedback"],"classroomPairings":[["A","B"]],"coinWeights":[0.3,0.7],"subjectId":"AXTZU0PO55S3S","assignmentId":"378XPAWRUDZIMZW9U7QHK21JLWSAIE","hitId":"3GL25Y6843GESBWZZUBL7KNB306MX0","url":"https://gershmanlab.com/experiments/alicia/teaching/experiment/?hitId=3GL25Y6843GESBWZZUBL7KNB306MX0&workerId=AXTZU0PO55S3S&assignmentId=378XPAWRUDZIMZW9U7QHK21JLWSAIE&a=RP875&tp_a=RP875&b=378XPAWRUDZIMZW9U7QHK21JLWSAIE&tp_b=378XPAWRUDZIMZW9U7QHK21JLWSAIE&c=368485&tp_c=368485","heads":2,"tails":3,"studentIndex":5,"studentTrueHypers":{"a":1,"b":9},"studentGuess":"0.20","delta":0.09999999999999998,"totalExamples":5,"bonus":0,"bonusSoFar":0.6},{"rt":12721,"response":{"heads":"3","tails":"2"},"type":"response","condition":"seqNoFeedback","trueTheta":0.7,"classrooms":["A","B"],"studentTrueClassroom":"B","exampleSet":"first","trial_type":"survey-html-form","trial_index":57,"time_elapsed":1050925,"internal_node_id":"0.0-53.0-0.0","params":{"nStudents":8,"maxExamples":70,"completionMinutes":15,"basePay":3,"maxBonus":6,"perTrialBonus":0.7,"perTrialBonusThreshold":0.08,"exampleCost":0.01},"classroomParams":{"A":{"a":1,"b":9},"B":{"a":9,"b":1}},"conditions":["nonSeqFull","nonSeqPartial","seqNoFeedback","seqFeedback"],"classroomPairings":[["A","B"]],"coinWeights":[0.3,0.7],"subjectId":"AXTZU0PO55S3S","assignmentId":"378XPAWRUDZIMZW9U7QHK21JLWSAIE","hitId":"3GL25Y6843GESBWZZUBL7KNB306MX0","url":"https://gershmanlab.com/experiments/alicia/teaching/experiment/?hitId=3GL25Y6843GESBWZZUBL7KNB306MX0&workerId=AXTZU0PO55S3S&assignmentId=378XPAWRUDZIMZW9U7QHK21JLWSAIE&a=RP875&tp_a=RP875&b=378XPAWRUDZIMZW9U7QHK21JLWSAIE&tp_b=378XPAWRUDZIMZW9U7QHK21JLWSAIE&c=368485&tp_c=368485","heads":3,"tails":2,"studentIndex":6,"studentTrueHypers":{"a":9,"b":1},"studentGuess":"0.80","delta":0.10000000000000009,"totalExamples":5,"bonusSoFar":0.6},{"rt":24840,"response":{"heads":"2","tails":"1"},"type":"response","condition":"seqNoFeedback","trueTheta":0.7,"classrooms":["A","B"],"studentTrueClassroom":"B","exampleSet":"second","trial_type":"survey-html-form","trial_index":60,"time_elapsed":1081029,"internal_node_id":"0.0-56.0-0.0","params":{"nStudents":8,"maxExamples":70,"completionMinutes":15,"basePay":3,"maxBonus":6,"perTrialBonus":0.7,"perTrialBonusThreshold":0.08,"exampleCost":0.01},"classroomParams":{"A":{"a":1,"b":9},"B":{"a":9,"b":1}},"conditions":["nonSeqFull","nonSeqPartial","seqNoFeedback","seqFeedback"],"classroomPairings":[["A","B"]],"coinWeights":[0.3,0.7],"subjectId":"AXTZU0PO55S3S","assignmentId":"378XPAWRUDZIMZW9U7QHK21JLWSAIE","hitId":"3GL25Y6843GESBWZZUBL7KNB306MX0","url":"https://gershmanlab.com/experiments/alicia/teaching/experiment/?hitId=3GL25Y6843GESBWZZUBL7KNB306MX0&workerId=AXTZU0PO55S3S&assignmentId=378XPAWRUDZIMZW9U7QHK21JLWSAIE&a=RP875&tp_a=RP875&b=378XPAWRUDZIMZW9U7QHK21JLWSAIE&tp_b=378XPAWRUDZIMZW9U7QHK21JLWSAIE&c=368485&tp_c=368485","firstResponseHeads":3,"firstResponseTails":2,"secondResponseHeads":2,"secondResponseTails":1,"totalHeads":5,"totalTails":3,"studentIndex":6,"studentTrueHypers":{"a":9,"b":1},"studentGuess":"0.78","delta":0.08000000000000007,"bonus":0.62,"bonusSoFar":1.22,"totalExamples":8},{"rt":16693,"response":{"heads":"1","tails":"2"},"type":"response","condition":"nonSeqPartial","trueTheta":0.3,"classrooms":["A","B"],"studentTrueClassroom":"B","exampleSet":"first","trial_type":"survey-html-form","trial_index":66,"time_elapsed":1123076,"internal_node_id":"0.0-62.0-0.0","params":{"nStudents":8,"maxExamples":70,"completionMinutes":15,"basePay":3,"maxBonus":6,"perTrialBonus":0.7,"perTrialBonusThreshold":0.08,"exampleCost":0.01},"classroomParams":{"A":{"a":1,"b":9},"B":{"a":9,"b":1}},"conditions":["nonSeqFull","nonSeqPartial","seqNoFeedback","seqFeedback"],"classroomPairings":[["A","B"]],"coinWeights":[0.3,0.7],"subjectId":"AXTZU0PO55S3S","assignmentId":"378XPAWRUDZIMZW9U7QHK21JLWSAIE","hitId":"3GL25Y6843GESBWZZUBL7KNB306MX0","url":"https://gershmanlab.com/experiments/alicia/teaching/experiment/?hitId=3GL25Y6843GESBWZZUBL7KNB306MX0&workerId=AXTZU0PO55S3S&assignmentId=378XPAWRUDZIMZW9U7QHK21JLWSAIE&a=RP875&tp_a=RP875&b=378XPAWRUDZIMZW9U7QHK21JLWSAIE&tp_b=378XPAWRUDZIMZW9U7QHK21JLWSAIE&c=368485&tp_c=368485","heads":1,"tails":2,"studentIndex":7,"studentTrueHypers":{"a":9,"b":1},"studentGuess":"0.77","delta":0.47000000000000003,"totalExamples":3,"bonus":0,"bonusSoFar":1.22},{"rt":40135,"response":{"gender":"female","age":"39","understood":"yes","strategy":"I would lower or make higher the number of turtles depending on the students answer","comments":""},"type":"response","trial_type":"survey-html-form","trial_index":70,"time_elapsed":1172512,"internal_node_id":"0.0-67.0","params":{"nStudents":8,"maxExamples":70,"completionMinutes":15,"basePay":3,"maxBonus":6,"perTrialBonus":0.7,"perTrialBonusThreshold":0.08,"exampleCost":0.01},"classroomParams":{"A":{"a":1,"b":9},"B":{"a":9,"b":1}},"conditions":["nonSeqFull","nonSeqPartial","seqNoFeedback","seqFeedback"],"classroomPairings":[["A","B"]],"coinWeights":[0.3,0.7],"subjectId":"AXTZU0PO55S3S","assignmentId":"378XPAWRUDZIMZW9U7QHK21JLWSAIE","hitId":"3GL25Y6843GESBWZZUBL7KNB306MX0","url":"https://gershmanlab.com/experiments/alicia/teaching/experiment/?hitId=3GL25Y6843GESBWZZUBL7KNB306MX0&workerId=AXTZU0PO55S3S&assignmentId=378XPAWRUDZIMZW9U7QHK21JLWSAIE&a=RP875&tp_a=RP875&b=378XPAWRUDZIMZW9U7QHK21JLWSAIE&tp_b=378XPAWRUDZIMZW9U7QHK21JLWSAIE&c=368485&tp_c=368485","totalBonus":1.22}]