[{"rt":44403,"response":{"heads":"5","tails":"5"},"type":"response","condition":"nonSeqPartial","trueTheta":0.5,"classrooms":["C","D"],"studentTrueClassroom":"D","exampleSet":"first","trial_type":"survey-html-form","trial_index":7,"time_elapsed":460526,"internal_node_id":"0.0-6.0-0.0","params":{"nStudents":24,"maxFlips":30,"completionMinutes":45,"basePay":8,"maxBonus":9,"perTrialBonus":0.5,"perTrialBonusThreshold":0.1,"exampleCost":0.01},"classroomParams":{"A":{"a":1,"b":4},"B":{"a":4,"b":1},"C":{"a":2,"b":8},"D":{"a":8,"b":2}},"conditions":["nonSeqFull","nonSeqPartial","seqNoFeedback","seqFeedback"],"classroomPairings":[["A","B"],["C","D"]],"coinWeights":[0.2,0.5,0.8],"subjectId":"A10BH9PYCYUKDJ","assignmentId":"32XVDSJFP0JFDFRW27VU6DP2NJPM25","hitId":"3YGE63DIN8J20XK20KS1742RQF60WK","url":"https://gershmanlab.com/experiments/alicia/teaching/experiment/?hitId=3YGE63DIN8J20XK20KS1742RQF60WK&workerId=A10BH9PYCYUKDJ&assignmentId=32XVDSJFP0JFDFRW27VU6DP2NJPM25&a=FDX28&tp_a=FDX28&b=32XVDSJFP0JFDFRW27VU6DP2NJPM25&tp_b=32XVDSJFP0JFDFRW27VU6DP2NJPM25&c=365198&tp_c=365198","heads":5,"tails":5,"studentIndex":0,"studentTrueHypers":{"a":8,"b":2},"studentGuess":0.65,"delta":0.15000000000000002,"totalExamples":10,"bonus":0,"bonusSoFar":0},{"rt":15631,"response":{"heads":"0","tails":"1"},"type":"response","condition":"nonSeqPartial","trueTheta":0.2,"classrooms":["C","D"],"studentTrueClassroom":"D","exampleSet":"first","trial_type":"survey-html-form","trial_index":13,"time_elapsed":528790,"internal_node_id":"0.0-12.0-0.0","params":{"nStudents":24,"maxFlips":30,"completionMinutes":45,"basePay":8,"maxBonus":9,"perTrialBonus":0.5,"perTrialBonusThreshold":0.1,"exampleCost":0.01},"classroomParams":{"A":{"a":1,"b":4},"B":{"a":4,"b":1},"C":{"a":2,"b":8},"D":{"a":8,"b":2}},"conditions":["nonSeqFull","nonSeqPartial","seqNoFeedback","seqFeedback"],"classroomPairings":[["A","B"],["C","D"]],"coinWeights":[0.2,0.5,0.8],"subjectId":"A10BH9PYCYUKDJ","assignmentId":"32XVDSJFP0JFDFRW27VU6DP2NJPM25","hitId":"3YGE63DIN8J20XK20KS1742RQF60WK","url":"https://gershmanlab.com/experiments/alicia/teaching/experiment/?hitId=3YGE63DIN8J20XK20KS1742RQF60WK&workerId=A10BH9PYCYUKDJ&assignmentId=32XVDSJFP0JFDFRW27VU6DP2NJPM25&a=FDX28&tp_a=FDX28&b=32XVDSJFP0JFDFRW27VU6DP2NJPM25&tp_b=32XVDSJFP0JFDFRW27VU6DP2NJPM25&c=365198&tp_c=365198","heads":0,"tails":1,"studentIndex":1,"studentTrueHypers":{"a":8,"b":2},"studentGuess":0.7272727272727273,"delta":0.5272727272727273,"totalExamples":1,"bonus":0,"bonusSoFar":0},{"rt":30004,"response":{"heads":"3","tails":"1"},"type":"response","condition":"nonSeqFull","trueTheta":0.2,"classrooms":["C","D"],"studentTrueClassroom":"D","exampleSet":"first","trial_type":"survey-html-form","trial_index":19,"time_elapsed":585369,"internal_node_id":"0.0-18.0-0.0","params":{"nStudents":24,"maxFlips":30,"completionMinutes":45,"basePay":8,"maxBonus":9,"perTrialBonus":0.5,"perTrialBonusThreshold":0.1,"exampleCost":0.01},"classroomParams":{"A":{"a":1,"b":4},"B":{"a":4,"b":1},"C":{"a":2,"b":8},"D":{"a":8,"b":2}},"conditions":["nonSeqFull","nonSeqPartial","seqNoFeedback","seqFeedback"],"classroomPairings":[["A","B"],["C","D"]],"coinWeights":[0.2,0.5,0.8],"subjectId":"A10BH9PYCYUKDJ","assignmentId":"32XVDSJFP0JFDFRW27VU6DP2NJPM25","hitId":"3YGE63DIN8J20XK20KS1742RQF60WK","url":"https://gershmanlab.com/experiments/alicia/teaching/experiment/?hitId=3YGE63DIN8J20XK20KS1742RQF60WK&workerId=A10BH9PYCYUKDJ&assignmentId=32XVDSJFP0JFDFRW27VU6DP2NJPM25&a=FDX28&tp_a=FDX28&b=32XVDSJFP0JFDFRW27VU6DP2NJPM25&tp_b=32XVDSJFP0JFDFRW27VU6DP2NJPM25&c=365198&tp_c=365198","heads":3,"tails":1,"studentIndex":2,"studentTrueHypers":{"a":8,"b":2},"studentGuess":0.7857142857142857,"delta":0.5857142857142856,"totalExamples":4,"bonus":0,"bonusSoFar":0},{"rt":41613,"response":{"heads":"15","tails":"15"},"type":"response","condition":"nonSeqFull","trueTheta":0.5,"classrooms":["A","B"],"studentTrueClassroom":"B","exampleSet":"first","trial_type":"survey-html-form","trial_index":25,"time_elapsed":655439,"internal_node_id":"0.0-24.0-0.0","params":{"nStudents":24,"maxFlips":30,"completionMinutes":45,"basePay":8,"maxBonus":9,"perTrialBonus":0.5,"perTrialBonusThreshold":0.1,"exampleCost":0.01},"classroomParams":{"A":{"a":1,"b":4},"B":{"a":4,"b":1},"C":{"a":2,"b":8},"D":{"a":8,"b":2}},"conditions":["nonSeqFull","nonSeqPartial","seqNoFeedback","seqFeedback"],"classroomPairings":[["A","B"],["C","D"]],"coinWeights":[0.2,0.5,0.8],"subjectId":"A10BH9PYCYUKDJ","assignmentId":"32XVDSJFP0JFDFRW27VU6DP2NJPM25","hitId":"3YGE63DIN8J20XK20KS1742RQF60WK","url":"https://gershmanlab.com/experiments/alicia/teaching/experiment/?hitId=3YGE63DIN8J20XK20KS1742RQF60WK&workerId=A10BH9PYCYUKDJ&assignmentId=32XVDSJFP0JFDFRW27VU6DP2NJPM25&a=FDX28&tp_a=FDX28&b=32XVDSJFP0JFDFRW27VU6DP2NJPM25&tp_b=32XVDSJFP0JFDFRW27VU6DP2NJPM25&c=365198&tp_c=365198","heads":15,"tails":15,"studentIndex":3,"studentTrueHypers":{"a":4,"b":1},"studentGuess":0.5428571428571428,"delta":0.042857142857142816,"totalExamples":30,"bonus":0.2,"bonusSoFar":0.2},{"rt":26471,"response":{"heads":"20","tails":"10"},"type":"response","condition":"seqNoFeedback","trueTheta":0.8,"classrooms":["C","D"],"studentTrueClassroom":"D","exampleSet":"first","trial_type":"survey-html-form","trial_index":31,"time_elapsed":700699,"internal_node_id":"0.0-30.0-0.0","params":{"nStudents":24,"maxFlips":30,"completionMinutes":45,"basePay":8,"maxBonus":9,"perTrialBonus":0.5,"perTrialBonusThreshold":0.1,"exampleCost":0.01},"classroomParams":{"A":{"a":1,"b":4},"B":{"a":4,"b":1},"C":{"a":2,"b":8},"D":{"a":8,"b":2}},"conditions":["nonSeqFull","nonSeqPartial","seqNoFeedback","seqFeedback"],"classroomPairings":[["A","B"],["C","D"]],"coinWeights":[0.2,0.5,0.8],"subjectId":"A10BH9PYCYUKDJ","assignmentId":"32XVDSJFP0JFDFRW27VU6DP2NJPM25","hitId":"3YGE63DIN8J20XK20KS1742RQF60WK","url":"https://gershmanlab.com/experiments/alicia/teaching/experiment/?hitId=3YGE63DIN8J20XK20KS1742RQF60WK&workerId=A10BH9PYCYUKDJ&assignmentId=32XVDSJFP0JFDFRW27VU6DP2NJPM25&a=FDX28&tp_a=FDX28&b=32XVDSJFP0JFDFRW27VU6DP2NJPM25&tp_b=32XVDSJFP0JFDFRW27VU6DP2NJPM25&c=365198&tp_c=365198","heads":20,"tails":10,"studentIndex":4,"studentTrueHypers":{"a":8,"b":2},"studentGuess":0.7,"delta":0.10000000000000009,"totalExamples":30,"bonusSoFar":0.2},{"rt":31058,"response":{"heads":"30","tails":"0"},"type":"response","condition":"seqNoFeedback","trueTheta":0.8,"classrooms":["C","D"],"studentTrueClassroom":"D","exampleSet":"second","trial_type":"survey-html-form","trial_index":34,"time_elapsed":738763,"internal_node_id":"0.0-33.0-0.0","params":{"nStudents":24,"maxFlips":30,"completionMinutes":45,"basePay":8,"maxBonus":9,"perTrialBonus":0.5,"perTrialBonusThreshold":0.1,"exampleCost":0.01},"classroomParams":{"A":{"a":1,"b":4},"B":{"a":4,"b":1},"C":{"a":2,"b":8},"D":{"a":8,"b":2}},"conditions":["nonSeqFull","nonSeqPartial","seqNoFeedback","seqFeedback"],"classroomPairings":[["A","B"],["C","D"]],"coinWeights":[0.2,0.5,0.8],"subjectId":"A10BH9PYCYUKDJ","assignmentId":"32XVDSJFP0JFDFRW27VU6DP2NJPM25","hitId":"3YGE63DIN8J20XK20KS1742RQF60WK","url":"https://gershmanlab.com/experiments/alicia/teaching/experiment/?hitId=3YGE63DIN8J20XK20KS1742RQF60WK&workerId=A10BH9PYCYUKDJ&assignmentId=32XVDSJFP0JFDFRW27VU6DP2NJPM25&a=FDX28&tp_a=FDX28&b=32XVDSJFP0JFDFRW27VU6DP2NJPM25&tp_b=32XVDSJFP0JFDFRW27VU6DP2NJPM25&c=365198&tp_c=365198","firstResponseHeads":20,"firstResponseTails":10,"secondResponseHeads":30,"secondResponseTails":0,"studentIndex":4,"studentTrueHypers":{"a":8,"b":2},"studentGuess":0.8285714285714286,"delta":0.02857142857142858,"bonus":0,"bonusSoFar":0.2,"totalExamples":60},{"rt":11833,"response":{"heads":"20","tails":"10"},"type":"response","condition":"seqFeedback","trueTheta":0.8,"classrooms":["C","D"],"studentTrueClassroom":"C","exampleSet":"first","trial_type":"survey-html-form","trial_index":40,"time_elapsed":767200,"internal_node_id":"0.0-39.0-0.0","params":{"nStudents":24,"maxFlips":30,"completionMinutes":45,"basePay":8,"maxBonus":9,"perTrialBonus":0.5,"perTrialBonusThreshold":0.1,"exampleCost":0.01},"classroomParams":{"A":{"a":1,"b":4},"B":{"a":4,"b":1},"C":{"a":2,"b":8},"D":{"a":8,"b":2}},"conditions":["nonSeqFull","nonSeqPartial","seqNoFeedback","seqFeedback"],"classroomPairings":[["A","B"],["C","D"]],"coinWeights":[0.2,0.5,0.8],"subjectId":"A10BH9PYCYUKDJ","assignmentId":"32XVDSJFP0JFDFRW27VU6DP2NJPM25","hitId":"3YGE63DIN8J20XK20KS1742RQF60WK","url":"https://gershmanlab.com/experiments/alicia/teaching/experiment/?hitId=3YGE63DIN8J20XK20KS1742RQF60WK&workerId=A10BH9PYCYUKDJ&assignmentId=32XVDSJFP0JFDFRW27VU6DP2NJPM25&a=FDX28&tp_a=FDX28&b=32XVDSJFP0JFDFRW27VU6DP2NJPM25&tp_b=32XVDSJFP0JFDFRW27VU6DP2NJPM25&c=365198&tp_c=365198","heads":20,"tails":10,"studentIndex":5,"studentTrueHypers":{"a":2,"b":8},"studentGuess":0.55,"delta":0.25,"totalExamples":30,"bonusSoFar":0.2},{"rt":28553,"response":{"heads":"25","tails":"5"},"type":"response","condition":"seqFeedback","trueTheta":0.8,"classrooms":["C","D"],"studentTrueClassroom":"C","exampleSet":"second","trial_type":"survey-html-form","trial_index":44,"time_elapsed":807105,"internal_node_id":"0.0-43.0-0.0","params":{"nStudents":24,"maxFlips":30,"completionMinutes":45,"basePay":8,"maxBonus":9,"perTrialBonus":0.5,"perTrialBonusThreshold":0.1,"exampleCost":0.01},"classroomParams":{"A":{"a":1,"b":4},"B":{"a":4,"b":1},"C":{"a":2,"b":8},"D":{"a":8,"b":2}},"conditions":["nonSeqFull","nonSeqPartial","seqNoFeedback","seqFeedback"],"classroomPairings":[["A","B"],["C","D"]],"coinWeights":[0.2,0.5,0.8],"subjectId":"A10BH9PYCYUKDJ","assignmentId":"32XVDSJFP0JFDFRW27VU6DP2NJPM25","hitId":"3YGE63DIN8J20XK20KS1742RQF60WK","url":"https://gershmanlab.com/experiments/alicia/teaching/experiment/?hitId=3YGE63DIN8J20XK20KS1742RQF60WK&workerId=A10BH9PYCYUKDJ&assignmentId=32XVDSJFP0JFDFRW27VU6DP2NJPM25&a=FDX28&tp_a=FDX28&b=32XVDSJFP0JFDFRW27VU6DP2NJPM25&tp_b=32XVDSJFP0JFDFRW27VU6DP2NJPM25&c=365198&tp_c=365198","firstResponseHeads":20,"firstResponseTails":10,"secondResponseHeads":25,"secondResponseTails":5,"studentIndex":5,"studentTrueHypers":{"a":2,"b":8},"studentGuess":0.6714285714285714,"delta":0.12857142857142867,"bonus":0,"bonusSoFar":0.2,"totalExamples":60},{"rt":13437,"response":{"heads":"5","tails":"25"},"type":"response","condition":"seqFeedback","trueTheta":0.2,"classrooms":["A","B"],"studentTrueClassroom":"A","exampleSet":"first","trial_type":"survey-html-form","trial_index":50,"time_elapsed":840729,"internal_node_id":"0.0-49.0-0.0","params":{"nStudents":24,"maxFlips":30,"completionMinutes":45,"basePay":8,"maxBonus":9,"perTrialBonus":0.5,"perTrialBonusThreshold":0.1,"exampleCost":0.01},"classroomParams":{"A":{"a":1,"b":4},"B":{"a":4,"b":1},"C":{"a":2,"b":8},"D":{"a":8,"b":2}},"conditions":["nonSeqFull","nonSeqPartial","seqNoFeedback","seqFeedback"],"classroomPairings":[["A","B"],["C","D"]],"coinWeights":[0.2,0.5,0.8],"subjectId":"A10BH9PYCYUKDJ","assignmentId":"32XVDSJFP0JFDFRW27VU6DP2NJPM25","hitId":"3YGE63DIN8J20XK20KS1742RQF60WK","url":"https://gershmanlab.com/experiments/alicia/teaching/experiment/?hitId=3YGE63DIN8J20XK20KS1742RQF60WK&workerId=A10BH9PYCYUKDJ&assignmentId=32XVDSJFP0JFDFRW27VU6DP2NJPM25&a=FDX28&tp_a=FDX28&b=32XVDSJFP0JFDFRW27VU6DP2NJPM25&tp_b=32XVDSJFP0JFDFRW27VU6DP2NJPM25&c=365198&tp_c=365198","heads":5,"tails":25,"studentIndex":6,"studentTrueHypers":{"a":1,"b":4},"studentGuess":0.17142857142857143,"delta":0.02857142857142858,"totalExamples":30,"bonusSoFar":0.2},{"rt":18541,"response":{"heads":"1","tails":"29"},"type":"response","condition":"seqFeedback","trueTheta":0.2,"classrooms":["A","B"],"studentTrueClassroom":"A","exampleSet":"second","trial_type":"survey-html-form","trial_index":54,"time_elapsed":867888,"internal_node_id":"0.0-53.0-0.0","params":{"nStudents":24,"maxFlips":30,"completionMinutes":45,"basePay":8,"maxBonus":9,"perTrialBonus":0.5,"perTrialBonusThreshold":0.1,"exampleCost":0.01},"classroomParams":{"A":{"a":1,"b":4},"B":{"a":4,"b":1},"C":{"a":2,"b":8},"D":{"a":8,"b":2}},"conditions":["nonSeqFull","nonSeqPartial","seqNoFeedback","seqFeedback"],"classroomPairings":[["A","B"],["C","D"]],"coinWeights":[0.2,0.5,0.8],"subjectId":"A10BH9PYCYUKDJ","assignmentId":"32XVDSJFP0JFDFRW27VU6DP2NJPM25","hitId":"3YGE63DIN8J20XK20KS1742RQF60WK","url":"https://gershmanlab.com/experiments/alicia/teaching/experiment/?hitId=3YGE63DIN8J20XK20KS1742RQF60WK&workerId=A10BH9PYCYUKDJ&assignmentId=32XVDSJFP0JFDFRW27VU6DP2NJPM25&a=FDX28&tp_a=FDX28&b=32XVDSJFP0JFDFRW27VU6DP2NJPM25&tp_b=32XVDSJFP0JFDFRW27VU6DP2NJPM25&c=365198&tp_c=365198","firstResponseHeads":5,"firstResponseTails":25,"secondResponseHeads":1,"secondResponseTails":29,"studentIndex":6,"studentTrueHypers":{"a":1,"b":4},"studentGuess":0.1076923076923077,"delta":0.09230769230769231,"bonus":0,"bonusSoFar":0.2,"totalExamples":60},{"rt":11318,"response":{"heads":"2","tails":"10"},"type":"response","condition":"seqNoFeedback","trueTheta":0.2,"classrooms":["C","D"],"studentTrueClassroom":"D","exampleSet":"first","trial_type":"survey-html-form","trial_index":60,"time_elapsed":898413,"internal_node_id":"0.0-59.0-0.0","params":{"nStudents":24,"maxFlips":30,"completionMinutes":45,"basePay":8,"maxBonus":9,"perTrialBonus":0.5,"perTrialBonusThreshold":0.1,"exampleCost":0.01},"classroomParams":{"A":{"a":1,"b":4},"B":{"a":4,"b":1},"C":{"a":2,"b":8},"D":{"a":8,"b":2}},"conditions":["nonSeqFull","nonSeqPartial","seqNoFeedback","seqFeedback"],"classroomPairings":[["A","B"],["C","D"]],"coinWeights":[0.2,0.5,0.8],"subjectId":"A10BH9PYCYUKDJ","assignmentId":"32XVDSJFP0JFDFRW27VU6DP2NJPM25","hitId":"3YGE63DIN8J20XK20KS1742RQF60WK","url":"https://gershmanlab.com/experiments/alicia/teaching/experiment/?hitId=3YGE63DIN8J20XK20KS1742RQF60WK&workerId=A10BH9PYCYUKDJ&assignmentId=32XVDSJFP0JFDFRW27VU6DP2NJPM25&a=FDX28&tp_a=FDX28&b=32XVDSJFP0JFDFRW27VU6DP2NJPM25&tp_b=32XVDSJFP0JFDFRW27VU6DP2NJPM25&c=365198&tp_c=365198","heads":2,"tails":10,"studentIndex":7,"studentTrueHypers":{"a":8,"b":2},"studentGuess":0.45454545454545453,"delta":0.2545454545454545,"totalExamples":12,"bonusSoFar":0.2},{"rt":7953,"response":{"heads":"1","tails":"2"},"type":"response","condition":"seqNoFeedback","trueTheta":0.2,"classrooms":["C","D"],"studentTrueClassroom":"D","exampleSet":"second","trial_type":"survey-html-form","trial_index":63,"time_elapsed":913627,"internal_node_id":"0.0-62.0-0.0","params":{"nStudents":24,"maxFlips":30,"completionMinutes":45,"basePay":8,"maxBonus":9,"perTrialBonus":0.5,"perTrialBonusThreshold":0.1,"exampleCost":0.01},"classroomParams":{"A":{"a":1,"b":4},"B":{"a":4,"b":1},"C":{"a":2,"b":8},"D":{"a":8,"b":2}},"conditions":["nonSeqFull","nonSeqPartial","seqNoFeedback","seqFeedback"],"classroomPairings":[["A","B"],["C","D"]],"coinWeights":[0.2,0.5,0.8],"subjectId":"A10BH9PYCYUKDJ","assignmentId":"32XVDSJFP0JFDFRW27VU6DP2NJPM25","hitId":"3YGE63DIN8J20XK20KS1742RQF60WK","url":"https://gershmanlab.com/experiments/alicia/teaching/experiment/?hitId=3YGE63DIN8J20XK20KS1742RQF60WK&workerId=A10BH9PYCYUKDJ&assignmentId=32XVDSJFP0JFDFRW27VU6DP2NJPM25&a=FDX28&tp_a=FDX28&b=32XVDSJFP0JFDFRW27VU6DP2NJPM25&tp_b=32XVDSJFP0JFDFRW27VU6DP2NJPM25&c=365198&tp_c=365198","firstResponseHeads":2,"firstResponseTails":10,"secondResponseHeads":1,"secondResponseTails":2,"studentIndex":7,"studentTrueHypers":{"a":8,"b":2},"studentGuess":0.44,"delta":0.24,"bonus":0,"bonusSoFar":0.2,"totalExamples":15},{"rt":4208,"response":{"heads":"1","tails":"1"},"type":"response","condition":"seqFeedback","trueTheta":0.5,"classrooms":["C","D"],"studentTrueClassroom":"C","exampleSet":"first","trial_type":"survey-html-form","trial_index":69,"time_elapsed":937869,"internal_node_id":"0.0-68.0-0.0","params":{"nStudents":24,"maxFlips":30,"completionMinutes":45,"basePay":8,"maxBonus":9,"perTrialBonus":0.5,"perTrialBonusThreshold":0.1,"exampleCost":0.01},"classroomParams":{"A":{"a":1,"b":4},"B":{"a":4,"b":1},"C":{"a":2,"b":8},"D":{"a":8,"b":2}},"conditions":["nonSeqFull","nonSeqPartial","seqNoFeedback","seqFeedback"],"classroomPairings":[["A","B"],["C","D"]],"coinWeights":[0.2,0.5,0.8],"subjectId":"A10BH9PYCYUKDJ","assignmentId":"32XVDSJFP0JFDFRW27VU6DP2NJPM25","hitId":"3YGE63DIN8J20XK20KS1742RQF60WK","url":"https://gershmanlab.com/experiments/alicia/teaching/experiment/?hitId=3YGE63DIN8J20XK20KS1742RQF60WK&workerId=A10BH9PYCYUKDJ&assignmentId=32XVDSJFP0JFDFRW27VU6DP2NJPM25&a=FDX28&tp_a=FDX28&b=32XVDSJFP0JFDFRW27VU6DP2NJPM25&tp_b=32XVDSJFP0JFDFRW27VU6DP2NJPM25&c=365198&tp_c=365198","heads":1,"tails":1,"studentIndex":8,"studentTrueHypers":{"a":2,"b":8},"studentGuess":0.25,"delta":0.25,"totalExamples":2,"bonusSoFar":0.2},{"rt":5115,"response":{"heads":"1","tails":"1"},"type":"response","condition":"seqFeedback","trueTheta":0.5,"classrooms":["C","D"],"studentTrueClassroom":"C","exampleSet":"second","trial_type":"survey-html-form","trial_index":73,"time_elapsed":951985,"internal_node_id":"0.0-72.0-0.0","params":{"nStudents":24,"maxFlips":30,"completionMinutes":45,"basePay":8,"maxBonus":9,"perTrialBonus":0.5,"perTrialBonusThreshold":0.1,"exampleCost":0.01},"classroomParams":{"A":{"a":1,"b":4},"B":{"a":4,"b":1},"C":{"a":2,"b":8},"D":{"a":8,"b":2}},"conditions":["nonSeqFull","nonSeqPartial","seqNoFeedback","seqFeedback"],"classroomPairings":[["A","B"],["C","D"]],"coinWeights":[0.2,0.5,0.8],"subjectId":"A10BH9PYCYUKDJ","assignmentId":"32XVDSJFP0JFDFRW27VU6DP2NJPM25","hitId":"3YGE63DIN8J20XK20KS1742RQF60WK","url":"https://gershmanlab.com/experiments/alicia/teaching/experiment/?hitId=3YGE63DIN8J20XK20KS1742RQF60WK&workerId=A10BH9PYCYUKDJ&assignmentId=32XVDSJFP0JFDFRW27VU6DP2NJPM25&a=FDX28&tp_a=FDX28&b=32XVDSJFP0JFDFRW27VU6DP2NJPM25&tp_b=32XVDSJFP0JFDFRW27VU6DP2NJPM25&c=365198&tp_c=365198","firstResponseHeads":1,"firstResponseTails":1,"secondResponseHeads":1,"secondResponseTails":1,"studentIndex":8,"studentTrueHypers":{"a":2,"b":8},"studentGuess":0.2857142857142857,"delta":0.2142857142857143,"bonus":0,"bonusSoFar":0.2,"totalExamples":4},{"rt":4821,"response":{"heads":"30","tails":"0"},"type":"response","condition":"nonSeqPartial","trueTheta":0.8,"classrooms":["A","B"],"studentTrueClassroom":"B","exampleSet":"first","trial_type":"survey-html-form","trial_index":79,"time_elapsed":970951,"internal_node_id":"0.0-78.0-0.0","params":{"nStudents":24,"maxFlips":30,"completionMinutes":45,"basePay":8,"maxBonus":9,"perTrialBonus":0.5,"perTrialBonusThreshold":0.1,"exampleCost":0.01},"classroomParams":{"A":{"a":1,"b":4},"B":{"a":4,"b":1},"C":{"a":2,"b":8},"D":{"a":8,"b":2}},"conditions":["nonSeqFull","nonSeqPartial","seqNoFeedback","seqFeedback"],"classroomPairings":[["A","B"],["C","D"]],"coinWeights":[0.2,0.5,0.8],"subjectId":"A10BH9PYCYUKDJ","assignmentId":"32XVDSJFP0JFDFRW27VU6DP2NJPM25","hitId":"3YGE63DIN8J20XK20KS1742RQF60WK","url":"https://gershmanlab.com/experiments/alicia/teaching/experiment/?hitId=3YGE63DIN8J20XK20KS1742RQF60WK&workerId=A10BH9PYCYUKDJ&assignmentId=32XVDSJFP0JFDFRW27VU6DP2NJPM25&a=FDX28&tp_a=FDX28&b=32XVDSJFP0JFDFRW27VU6DP2NJPM25&tp_b=32XVDSJFP0JFDFRW27VU6DP2NJPM25&c=365198&tp_c=365198","heads":30,"tails":0,"studentIndex":9,"studentTrueHypers":{"a":4,"b":1},"studentGuess":0.9714285714285714,"delta":0.17142857142857137,"totalExamples":30,"bonus":0,"bonusSoFar":0.2},{"rt":6749,"response":{"heads":"10","tails":"1"},"type":"response","condition":"nonSeqFull","trueTheta":0.8,"classrooms":["A","B"],"studentTrueClassroom":"B","exampleSet":"first","trial_type":"survey-html-form","trial_index":85,"time_elapsed":993136,"internal_node_id":"0.0-84.0-0.0","params":{"nStudents":24,"maxFlips":30,"completionMinutes":45,"basePay":8,"maxBonus":9,"perTrialBonus":0.5,"perTrialBonusThreshold":0.1,"exampleCost":0.01},"classroomParams":{"A":{"a":1,"b":4},"B":{"a":4,"b":1},"C":{"a":2,"b":8},"D":{"a":8,"b":2}},"conditions":["nonSeqFull","nonSeqPartial","seqNoFeedback","seqFeedback"],"classroomPairings":[["A","B"],["C","D"]],"coinWeights":[0.2,0.5,0.8],"subjectId":"A10BH9PYCYUKDJ","assignmentId":"32XVDSJFP0JFDFRW27VU6DP2NJPM25","hitId":"3YGE63DIN8J20XK20KS1742RQF60WK","url":"https://gershmanlab.com/experiments/alicia/teaching/experiment/?hitId=3YGE63DIN8J20XK20KS1742RQF60WK&workerId=A10BH9PYCYUKDJ&assignmentId=32XVDSJFP0JFDFRW27VU6DP2NJPM25&a=FDX28&tp_a=FDX28&b=32XVDSJFP0JFDFRW27VU6DP2NJPM25&tp_b=32XVDSJFP0JFDFRW27VU6DP2NJPM25&c=365198&tp_c=365198","heads":10,"tails":1,"studentIndex":10,"studentTrueHypers":{"a":4,"b":1},"studentGuess":0.875,"delta":0.07499999999999996,"totalExamples":11,"bonus":0.39,"bonusSoFar":0.59},{"rt":7511,"response":{"heads":"10","tails":"10"},"type":"response","condition":"seqNoFeedback","trueTheta":0.5,"classrooms":["C","D"],"studentTrueClassroom":"C","exampleSet":"first","trial_type":"survey-html-form","trial_index":91,"time_elapsed":1020600,"internal_node_id":"0.0-90.0-0.0","params":{"nStudents":24,"maxFlips":30,"completionMinutes":45,"basePay":8,"maxBonus":9,"perTrialBonus":0.5,"perTrialBonusThreshold":0.1,"exampleCost":0.01},"classroomParams":{"A":{"a":1,"b":4},"B":{"a":4,"b":1},"C":{"a":2,"b":8},"D":{"a":8,"b":2}},"conditions":["nonSeqFull","nonSeqPartial","seqNoFeedback","seqFeedback"],"classroomPairings":[["A","B"],["C","D"]],"coinWeights":[0.2,0.5,0.8],"subjectId":"A10BH9PYCYUKDJ","assignmentId":"32XVDSJFP0JFDFRW27VU6DP2NJPM25","hitId":"3YGE63DIN8J20XK20KS1742RQF60WK","url":"https://gershmanlab.com/experiments/alicia/teaching/experiment/?hitId=3YGE63DIN8J20XK20KS1742RQF60WK&workerId=A10BH9PYCYUKDJ&assignmentId=32XVDSJFP0JFDFRW27VU6DP2NJPM25&a=FDX28&tp_a=FDX28&b=32XVDSJFP0JFDFRW27VU6DP2NJPM25&tp_b=32XVDSJFP0JFDFRW27VU6DP2NJPM25&c=365198&tp_c=365198","heads":10,"tails":10,"studentIndex":11,"studentTrueHypers":{"a":2,"b":8},"studentGuess":0.4,"delta":0.09999999999999998,"totalExamples":20,"bonusSoFar":0.59},{"rt":5101,"response":{"heads":"10","tails":"10"},"type":"response","condition":"seqNoFeedback","trueTheta":0.5,"classrooms":["C","D"],"studentTrueClassroom":"C","exampleSet":"second","trial_type":"survey-html-form","trial_index":94,"time_elapsed":1032461,"internal_node_id":"0.0-93.0-0.0","params":{"nStudents":24,"maxFlips":30,"completionMinutes":45,"basePay":8,"maxBonus":9,"perTrialBonus":0.5,"perTrialBonusThreshold":0.1,"exampleCost":0.01},"classroomParams":{"A":{"a":1,"b":4},"B":{"a":4,"b":1},"C":{"a":2,"b":8},"D":{"a":8,"b":2}},"conditions":["nonSeqFull","nonSeqPartial","seqNoFeedback","seqFeedback"],"classroomPairings":[["A","B"],["C","D"]],"coinWeights":[0.2,0.5,0.8],"subjectId":"A10BH9PYCYUKDJ","assignmentId":"32XVDSJFP0JFDFRW27VU6DP2NJPM25","hitId":"3YGE63DIN8J20XK20KS1742RQF60WK","url":"https://gershmanlab.com/experiments/alicia/teaching/experiment/?hitId=3YGE63DIN8J20XK20KS1742RQF60WK&workerId=A10BH9PYCYUKDJ&assignmentId=32XVDSJFP0JFDFRW27VU6DP2NJPM25&a=FDX28&tp_a=FDX28&b=32XVDSJFP0JFDFRW27VU6DP2NJPM25&tp_b=32XVDSJFP0JFDFRW27VU6DP2NJPM25&c=365198&tp_c=365198","firstResponseHeads":10,"firstResponseTails":10,"secondResponseHeads":10,"secondResponseTails":10,"studentIndex":11,"studentTrueHypers":{"a":2,"b":8},"studentGuess":0.44,"delta":0.06,"bonus":0.1,"bonusSoFar":0.69,"totalExamples":40},{"rt":5750,"response":{"heads":"0","tails":"2"},"type":"response","condition":"seqFeedback","trueTheta":0.2,"classrooms":["C","D"],"studentTrueClassroom":"C","exampleSet":"first","trial_type":"survey-html-form","trial_index":100,"time_elapsed":1058830,"internal_node_id":"0.0-99.0-0.0","params":{"nStudents":24,"maxFlips":30,"completionMinutes":45,"basePay":8,"maxBonus":9,"perTrialBonus":0.5,"perTrialBonusThreshold":0.1,"exampleCost":0.01},"classroomParams":{"A":{"a":1,"b":4},"B":{"a":4,"b":1},"C":{"a":2,"b":8},"D":{"a":8,"b":2}},"conditions":["nonSeqFull","nonSeqPartial","seqNoFeedback","seqFeedback"],"classroomPairings":[["A","B"],["C","D"]],"coinWeights":[0.2,0.5,0.8],"subjectId":"A10BH9PYCYUKDJ","assignmentId":"32XVDSJFP0JFDFRW27VU6DP2NJPM25","hitId":"3YGE63DIN8J20XK20KS1742RQF60WK","url":"https://gershmanlab.com/experiments/alicia/teaching/experiment/?hitId=3YGE63DIN8J20XK20KS1742RQF60WK&workerId=A10BH9PYCYUKDJ&assignmentId=32XVDSJFP0JFDFRW27VU6DP2NJPM25&a=FDX28&tp_a=FDX28&b=32XVDSJFP0JFDFRW27VU6DP2NJPM25&tp_b=32XVDSJFP0JFDFRW27VU6DP2NJPM25&c=365198&tp_c=365198","heads":0,"tails":2,"studentIndex":12,"studentTrueHypers":{"a":2,"b":8},"studentGuess":0.16666666666666666,"delta":0.033333333333333354,"totalExamples":2,"bonusSoFar":0.69},{"rt":4866,"response":{"heads":"0","tails":"2"},"type":"response","condition":"seqFeedback","trueTheta":0.2,"classrooms":["C","D"],"studentTrueClassroom":"C","exampleSet":"second","trial_type":"survey-html-form","trial_index":104,"time_elapsed":1071598,"internal_node_id":"0.0-103.0-0.0","params":{"nStudents":24,"maxFlips":30,"completionMinutes":45,"basePay":8,"maxBonus":9,"perTrialBonus":0.5,"perTrialBonusThreshold":0.1,"exampleCost":0.01},"classroomParams":{"A":{"a":1,"b":4},"B":{"a":4,"b":1},"C":{"a":2,"b":8},"D":{"a":8,"b":2}},"conditions":["nonSeqFull","nonSeqPartial","seqNoFeedback","seqFeedback"],"classroomPairings":[["A","B"],["C","D"]],"coinWeights":[0.2,0.5,0.8],"subjectId":"A10BH9PYCYUKDJ","assignmentId":"32XVDSJFP0JFDFRW27VU6DP2NJPM25","hitId":"3YGE63DIN8J20XK20KS1742RQF60WK","url":"https://gershmanlab.com/experiments/alicia/teaching/experiment/?hitId=3YGE63DIN8J20XK20KS1742RQF60WK&workerId=A10BH9PYCYUKDJ&assignmentId=32XVDSJFP0JFDFRW27VU6DP2NJPM25&a=FDX28&tp_a=FDX28&b=32XVDSJFP0JFDFRW27VU6DP2NJPM25&tp_b=32XVDSJFP0JFDFRW27VU6DP2NJPM25&c=365198&tp_c=365198","firstResponseHeads":0,"firstResponseTails":2,"secondResponseHeads":0,"secondResponseTails":2,"studentIndex":12,"studentTrueHypers":{"a":2,"b":8},"studentGuess":0.14285714285714285,"delta":0.05714285714285716,"bonus":0.46,"bonusSoFar":1.15,"totalExamples":4},{"rt":4851,"response":{"heads":"10","tails":"10"},"type":"response","condition":"nonSeqPartial","trueTheta":0.5,"classrooms":["A","B"],"studentTrueClassroom":"A","exampleSet":"first","trial_type":"survey-html-form","trial_index":110,"time_elapsed":1089979,"internal_node_id":"0.0-109.0-0.0","params":{"nStudents":24,"maxFlips":30,"completionMinutes":45,"basePay":8,"maxBonus":9,"perTrialBonus":0.5,"perTrialBonusThreshold":0.1,"exampleCost":0.01},"classroomParams":{"A":{"a":1,"b":4},"B":{"a":4,"b":1},"C":{"a":2,"b":8},"D":{"a":8,"b":2}},"conditions":["nonSeqFull","nonSeqPartial","seqNoFeedback","seqFeedback"],"classroomPairings":[["A","B"],["C","D"]],"coinWeights":[0.2,0.5,0.8],"subjectId":"A10BH9PYCYUKDJ","assignmentId":"32XVDSJFP0JFDFRW27VU6DP2NJPM25","hitId":"3YGE63DIN8J20XK20KS1742RQF60WK","url":"https://gershmanlab.com/experiments/alicia/teaching/experiment/?hitId=3YGE63DIN8J20XK20KS1742RQF60WK&workerId=A10BH9PYCYUKDJ&assignmentId=32XVDSJFP0JFDFRW27VU6DP2NJPM25&a=FDX28&tp_a=FDX28&b=32XVDSJFP0JFDFRW27VU6DP2NJPM25&tp_b=32XVDSJFP0JFDFRW27VU6DP2NJPM25&c=365198&tp_c=365198","heads":10,"tails":10,"studentIndex":13,"studentTrueHypers":{"a":1,"b":4},"studentGuess":0.44,"delta":0.06,"totalExamples":20,"bonus":0.3,"bonusSoFar":1.45},{"rt":6479,"response":{"heads":"1","tails":"3"},"type":"response","condition":"nonSeqPartial","trueTheta":0.2,"classrooms":["A","B"],"studentTrueClassroom":"A","exampleSet":"first","trial_type":"survey-html-form","trial_index":116,"time_elapsed":1111320,"internal_node_id":"0.0-115.0-0.0","params":{"nStudents":24,"maxFlips":30,"completionMinutes":45,"basePay":8,"maxBonus":9,"perTrialBonus":0.5,"perTrialBonusThreshold":0.1,"exampleCost":0.01},"classroomParams":{"A":{"a":1,"b":4},"B":{"a":4,"b":1},"C":{"a":2,"b":8},"D":{"a":8,"b":2}},"conditions":["nonSeqFull","nonSeqPartial","seqNoFeedback","seqFeedback"],"classroomPairings":[["A","B"],["C","D"]],"coinWeights":[0.2,0.5,0.8],"subjectId":"A10BH9PYCYUKDJ","assignmentId":"32XVDSJFP0JFDFRW27VU6DP2NJPM25","hitId":"3YGE63DIN8J20XK20KS1742RQF60WK","url":"https://gershmanlab.com/experiments/alicia/teaching/experiment/?hitId=3YGE63DIN8J20XK20KS1742RQF60WK&workerId=A10BH9PYCYUKDJ&assignmentId=32XVDSJFP0JFDFRW27VU6DP2NJPM25&a=FDX28&tp_a=FDX28&b=32XVDSJFP0JFDFRW27VU6DP2NJPM25&tp_b=32XVDSJFP0JFDFRW27VU6DP2NJPM25&c=365198&tp_c=365198","heads":1,"tails":3,"studentIndex":14,"studentTrueHypers":{"a":1,"b":4},"studentGuess":0.2222222222222222,"delta":0.0222222222222222,"totalExamples":4,"bonus":0.46,"bonusSoFar":1.91},{"rt":4658,"response":{"heads":"10","tails":"1"},"type":"response","condition":"seqFeedback","trueTheta":0.8,"classrooms":["A","B"],"studentTrueClassroom":"A","exampleSet":"first","trial_type":"survey-html-form","trial_index":122,"time_elapsed":1130528,"internal_node_id":"0.0-121.0-0.0","params":{"nStudents":24,"maxFlips":30,"completionMinutes":45,"basePay":8,"maxBonus":9,"perTrialBonus":0.5,"perTrialBonusThreshold":0.1,"exampleCost":0.01},"classroomParams":{"A":{"a":1,"b":4},"B":{"a":4,"b":1},"C":{"a":2,"b":8},"D":{"a":8,"b":2}},"conditions":["nonSeqFull","nonSeqPartial","seqNoFeedback","seqFeedback"],"classroomPairings":[["A","B"],["C","D"]],"coinWeights":[0.2,0.5,0.8],"subjectId":"A10BH9PYCYUKDJ","assignmentId":"32XVDSJFP0JFDFRW27VU6DP2NJPM25","hitId":"3YGE63DIN8J20XK20KS1742RQF60WK","url":"https://gershmanlab.com/experiments/alicia/teaching/experiment/?hitId=3YGE63DIN8J20XK20KS1742RQF60WK&workerId=A10BH9PYCYUKDJ&assignmentId=32XVDSJFP0JFDFRW27VU6DP2NJPM25&a=FDX28&tp_a=FDX28&b=32XVDSJFP0JFDFRW27VU6DP2NJPM25&tp_b=32XVDSJFP0JFDFRW27VU6DP2NJPM25&c=365198&tp_c=365198","heads":10,"tails":1,"studentIndex":15,"studentTrueHypers":{"a":1,"b":4},"studentGuess":0.6875,"delta":0.11250000000000004,"totalExamples":11,"bonusSoFar":1.91},{"rt":5952,"response":{"heads":"20","tails":"1"},"type":"response","condition":"seqFeedback","trueTheta":0.8,"classrooms":["A","B"],"studentTrueClassroom":"A","exampleSet":"second","trial_type":"survey-html-form","trial_index":126,"time_elapsed":1143556,"internal_node_id":"0.0-125.0-0.0","params":{"nStudents":24,"maxFlips":30,"completionMinutes":45,"basePay":8,"maxBonus":9,"perTrialBonus":0.5,"perTrialBonusThreshold":0.1,"exampleCost":0.01},"classroomParams":{"A":{"a":1,"b":4},"B":{"a":4,"b":1},"C":{"a":2,"b":8},"D":{"a":8,"b":2}},"conditions":["nonSeqFull","nonSeqPartial","seqNoFeedback","seqFeedback"],"classroomPairings":[["A","B"],["C","D"]],"coinWeights":[0.2,0.5,0.8],"subjectId":"A10BH9PYCYUKDJ","assignmentId":"32XVDSJFP0JFDFRW27VU6DP2NJPM25","hitId":"3YGE63DIN8J20XK20KS1742RQF60WK","url":"https://gershmanlab.com/experiments/alicia/teaching/experiment/?hitId=3YGE63DIN8J20XK20KS1742RQF60WK&workerId=A10BH9PYCYUKDJ&assignmentId=32XVDSJFP0JFDFRW27VU6DP2NJPM25&a=FDX28&tp_a=FDX28&b=32XVDSJFP0JFDFRW27VU6DP2NJPM25&tp_b=32XVDSJFP0JFDFRW27VU6DP2NJPM25&c=365198&tp_c=365198","firstResponseHeads":10,"firstResponseTails":1,"secondResponseHeads":20,"secondResponseTails":1,"studentIndex":15,"studentTrueHypers":{"a":1,"b":4},"studentGuess":0.8378378378378378,"delta":0.037837837837837784,"bonus":0.18,"bonusSoFar":2.09,"totalExamples":32},{"rt":3146,"response":{"heads":"10","tails":"1"},"type":"response","condition":"nonSeqFull","trueTheta":0.8,"classrooms":["C","D"],"studentTrueClassroom":"D","exampleSet":"first","trial_type":"survey-html-form","trial_index":132,"time_elapsed":1161100,"internal_node_id":"0.0-131.0-0.0","params":{"nStudents":24,"maxFlips":30,"completionMinutes":45,"basePay":8,"maxBonus":9,"perTrialBonus":0.5,"perTrialBonusThreshold":0.1,"exampleCost":0.01},"classroomParams":{"A":{"a":1,"b":4},"B":{"a":4,"b":1},"C":{"a":2,"b":8},"D":{"a":8,"b":2}},"conditions":["nonSeqFull","nonSeqPartial","seqNoFeedback","seqFeedback"],"classroomPairings":[["A","B"],["C","D"]],"coinWeights":[0.2,0.5,0.8],"subjectId":"A10BH9PYCYUKDJ","assignmentId":"32XVDSJFP0JFDFRW27VU6DP2NJPM25","hitId":"3YGE63DIN8J20XK20KS1742RQF60WK","url":"https://gershmanlab.com/experiments/alicia/teaching/experiment/?hitId=3YGE63DIN8J20XK20KS1742RQF60WK&workerId=A10BH9PYCYUKDJ&assignmentId=32XVDSJFP0JFDFRW27VU6DP2NJPM25&a=FDX28&tp_a=FDX28&b=32XVDSJFP0JFDFRW27VU6DP2NJPM25&tp_b=32XVDSJFP0JFDFRW27VU6DP2NJPM25&c=365198&tp_c=365198","heads":10,"tails":1,"studentIndex":16,"studentTrueHypers":{"a":8,"b":2},"studentGuess":0.8571428571428571,"delta":0.05714285714285705,"totalExamples":11,"bonus":0.39,"bonusSoFar":2.48},{"rt":4991,"response":{"heads":"0","tails":"2"},"type":"response","condition":"nonSeqFull","trueTheta":0.2,"classrooms":["A","B"],"studentTrueClassroom":"B","exampleSet":"first","trial_type":"survey-html-form","trial_index":138,"time_elapsed":1181312,"internal_node_id":"0.0-137.0-0.0","params":{"nStudents":24,"maxFlips":30,"completionMinutes":45,"basePay":8,"maxBonus":9,"perTrialBonus":0.5,"perTrialBonusThreshold":0.1,"exampleCost":0.01},"classroomParams":{"A":{"a":1,"b":4},"B":{"a":4,"b":1},"C":{"a":2,"b":8},"D":{"a":8,"b":2}},"conditions":["nonSeqFull","nonSeqPartial","seqNoFeedback","seqFeedback"],"classroomPairings":[["A","B"],["C","D"]],"coinWeights":[0.2,0.5,0.8],"subjectId":"A10BH9PYCYUKDJ","assignmentId":"32XVDSJFP0JFDFRW27VU6DP2NJPM25","hitId":"3YGE63DIN8J20XK20KS1742RQF60WK","url":"https://gershmanlab.com/experiments/alicia/teaching/experiment/?hitId=3YGE63DIN8J20XK20KS1742RQF60WK&workerId=A10BH9PYCYUKDJ&assignmentId=32XVDSJFP0JFDFRW27VU6DP2NJPM25&a=FDX28&tp_a=FDX28&b=32XVDSJFP0JFDFRW27VU6DP2NJPM25&tp_b=32XVDSJFP0JFDFRW27VU6DP2NJPM25&c=365198&tp_c=365198","heads":0,"tails":2,"studentIndex":17,"studentTrueHypers":{"a":4,"b":1},"studentGuess":0.5714285714285714,"delta":0.3714285714285714,"totalExamples":2,"bonus":0,"bonusSoFar":2.48},{"rt":4099,"response":{"heads":"10","tails":"1"},"type":"response","condition":"nonSeqPartial","trueTheta":0.8,"classrooms":["C","D"],"studentTrueClassroom":"D","exampleSet":"first","trial_type":"survey-html-form","trial_index":144,"time_elapsed":1198093,"internal_node_id":"0.0-143.0-0.0","params":{"nStudents":24,"maxFlips":30,"completionMinutes":45,"basePay":8,"maxBonus":9,"perTrialBonus":0.5,"perTrialBonusThreshold":0.1,"exampleCost":0.01},"classroomParams":{"A":{"a":1,"b":4},"B":{"a":4,"b":1},"C":{"a":2,"b":8},"D":{"a":8,"b":2}},"conditions":["nonSeqFull","nonSeqPartial","seqNoFeedback","seqFeedback"],"classroomPairings":[["A","B"],["C","D"]],"coinWeights":[0.2,0.5,0.8],"subjectId":"A10BH9PYCYUKDJ","assignmentId":"32XVDSJFP0JFDFRW27VU6DP2NJPM25","hitId":"3YGE63DIN8J20XK20KS1742RQF60WK","url":"https://gershmanlab.com/experiments/alicia/teaching/experiment/?hitId=3YGE63DIN8J20XK20KS1742RQF60WK&workerId=A10BH9PYCYUKDJ&assignmentId=32XVDSJFP0JFDFRW27VU6DP2NJPM25&a=FDX28&tp_a=FDX28&b=32XVDSJFP0JFDFRW27VU6DP2NJPM25&tp_b=32XVDSJFP0JFDFRW27VU6DP2NJPM25&c=365198&tp_c=365198","heads":10,"tails":1,"studentIndex":18,"studentTrueHypers":{"a":8,"b":2},"studentGuess":0.8571428571428571,"delta":0.05714285714285705,"totalExamples":11,"bonus":0.39,"bonusSoFar":2.87},{"rt":3061,"response":{"heads":"10","tails":"10"},"type":"response","condition":"seqNoFeedback","trueTheta":0.5,"classrooms":["A","B"],"studentTrueClassroom":"A","exampleSet":"first","trial_type":"survey-html-form","trial_index":150,"time_elapsed":1212687,"internal_node_id":"0.0-149.0-0.0","params":{"nStudents":24,"maxFlips":30,"completionMinutes":45,"basePay":8,"maxBonus":9,"perTrialBonus":0.5,"perTrialBonusThreshold":0.1,"exampleCost":0.01},"classroomParams":{"A":{"a":1,"b":4},"B":{"a":4,"b":1},"C":{"a":2,"b":8},"D":{"a":8,"b":2}},"conditions":["nonSeqFull","nonSeqPartial","seqNoFeedback","seqFeedback"],"classroomPairings":[["A","B"],["C","D"]],"coinWeights":[0.2,0.5,0.8],"subjectId":"A10BH9PYCYUKDJ","assignmentId":"32XVDSJFP0JFDFRW27VU6DP2NJPM25","hitId":"3YGE63DIN8J20XK20KS1742RQF60WK","url":"https://gershmanlab.com/experiments/alicia/teaching/experiment/?hitId=3YGE63DIN8J20XK20KS1742RQF60WK&workerId=A10BH9PYCYUKDJ&assignmentId=32XVDSJFP0JFDFRW27VU6DP2NJPM25&a=FDX28&tp_a=FDX28&b=32XVDSJFP0JFDFRW27VU6DP2NJPM25&tp_b=32XVDSJFP0JFDFRW27VU6DP2NJPM25&c=365198&tp_c=365198","heads":10,"tails":10,"studentIndex":19,"studentTrueHypers":{"a":1,"b":4},"studentGuess":0.44,"delta":0.06,"totalExamples":20,"bonusSoFar":2.87},{"rt":3213,"response":{"heads":"10","tails":"10"},"type":"response","condition":"seqNoFeedback","trueTheta":0.5,"classrooms":["A","B"],"studentTrueClassroom":"A","exampleSet":"second","trial_type":"survey-html-form","trial_index":153,"time_elapsed":1222159,"internal_node_id":"0.0-152.0-0.0","params":{"nStudents":24,"maxFlips":30,"completionMinutes":45,"basePay":8,"maxBonus":9,"perTrialBonus":0.5,"perTrialBonusThreshold":0.1,"exampleCost":0.01},"classroomParams":{"A":{"a":1,"b":4},"B":{"a":4,"b":1},"C":{"a":2,"b":8},"D":{"a":8,"b":2}},"conditions":["nonSeqFull","nonSeqPartial","seqNoFeedback","seqFeedback"],"classroomPairings":[["A","B"],["C","D"]],"coinWeights":[0.2,0.5,0.8],"subjectId":"A10BH9PYCYUKDJ","assignmentId":"32XVDSJFP0JFDFRW27VU6DP2NJPM25","hitId":"3YGE63DIN8J20XK20KS1742RQF60WK","url":"https://gershmanlab.com/experiments/alicia/teaching/experiment/?hitId=3YGE63DIN8J20XK20KS1742RQF60WK&workerId=A10BH9PYCYUKDJ&assignmentId=32XVDSJFP0JFDFRW27VU6DP2NJPM25&a=FDX28&tp_a=FDX28&b=32XVDSJFP0JFDFRW27VU6DP2NJPM25&tp_b=32XVDSJFP0JFDFRW27VU6DP2NJPM25&c=365198&tp_c=365198","firstResponseHeads":10,"firstResponseTails":10,"secondResponseHeads":10,"secondResponseTails":10,"studentIndex":19,"studentTrueHypers":{"a":1,"b":4},"studentGuess":0.4666666666666667,"delta":0.033333333333333326,"bonus":0.1,"bonusSoFar":2.97,"totalExamples":40},{"rt":6898,"response":{"heads":"15","tails":"15"},"type":"response","condition":"seqFeedback","trueTheta":0.5,"classrooms":["A","B"],"studentTrueClassroom":"A","exampleSet":"first","trial_type":"survey-html-form","trial_index":159,"time_elapsed":1244353,"internal_node_id":"0.0-158.0-0.0","params":{"nStudents":24,"maxFlips":30,"completionMinutes":45,"basePay":8,"maxBonus":9,"perTrialBonus":0.5,"perTrialBonusThreshold":0.1,"exampleCost":0.01},"classroomParams":{"A":{"a":1,"b":4},"B":{"a":4,"b":1},"C":{"a":2,"b":8},"D":{"a":8,"b":2}},"conditions":["nonSeqFull","nonSeqPartial","seqNoFeedback","seqFeedback"],"classroomPairings":[["A","B"],["C","D"]],"coinWeights":[0.2,0.5,0.8],"subjectId":"A10BH9PYCYUKDJ","assignmentId":"32XVDSJFP0JFDFRW27VU6DP2NJPM25","hitId":"3YGE63DIN8J20XK20KS1742RQF60WK","url":"https://gershmanlab.com/experiments/alicia/teaching/experiment/?hitId=3YGE63DIN8J20XK20KS1742RQF60WK&workerId=A10BH9PYCYUKDJ&assignmentId=32XVDSJFP0JFDFRW27VU6DP2NJPM25&a=FDX28&tp_a=FDX28&b=32XVDSJFP0JFDFRW27VU6DP2NJPM25&tp_b=32XVDSJFP0JFDFRW27VU6DP2NJPM25&c=365198&tp_c=365198","heads":15,"tails":15,"studentIndex":20,"studentTrueHypers":{"a":1,"b":4},"studentGuess":0.45714285714285713,"delta":0.04285714285714287,"totalExamples":30,"bonusSoFar":2.97},{"rt":7330,"response":{"heads":"10","tails":"10"},"type":"response","condition":"seqFeedback","trueTheta":0.5,"classrooms":["A","B"],"studentTrueClassroom":"A","exampleSet":"second","trial_type":"survey-html-form","trial_index":163,"time_elapsed":1260635,"internal_node_id":"0.0-162.0-0.0","params":{"nStudents":24,"maxFlips":30,"completionMinutes":45,"basePay":8,"maxBonus":9,"perTrialBonus":0.5,"perTrialBonusThreshold":0.1,"exampleCost":0.01},"classroomParams":{"A":{"a":1,"b":4},"B":{"a":4,"b":1},"C":{"a":2,"b":8},"D":{"a":8,"b":2}},"conditions":["nonSeqFull","nonSeqPartial","seqNoFeedback","seqFeedback"],"classroomPairings":[["A","B"],["C","D"]],"coinWeights":[0.2,0.5,0.8],"subjectId":"A10BH9PYCYUKDJ","assignmentId":"32XVDSJFP0JFDFRW27VU6DP2NJPM25","hitId":"3YGE63DIN8J20XK20KS1742RQF60WK","url":"https://gershmanlab.com/experiments/alicia/teaching/experiment/?hitId=3YGE63DIN8J20XK20KS1742RQF60WK&workerId=A10BH9PYCYUKDJ&assignmentId=32XVDSJFP0JFDFRW27VU6DP2NJPM25&a=FDX28&tp_a=FDX28&b=32XVDSJFP0JFDFRW27VU6DP2NJPM25&tp_b=32XVDSJFP0JFDFRW27VU6DP2NJPM25&c=365198&tp_c=365198","firstResponseHeads":15,"firstResponseTails":15,"secondResponseHeads":10,"secondResponseTails":10,"studentIndex":20,"studentTrueHypers":{"a":1,"b":4},"studentGuess":0.4727272727272727,"delta":0.027272727272727282,"bonus":0,"bonusSoFar":2.97,"totalExamples":50},{"rt":5802,"response":{"heads":"10","tails":"1"},"type":"response","condition":"seqNoFeedback","trueTheta":0.8,"classrooms":["A","B"],"studentTrueClassroom":"A","exampleSet":"first","trial_type":"survey-html-form","trial_index":169,"time_elapsed":1283695,"internal_node_id":"0.0-168.0-0.0","params":{"nStudents":24,"maxFlips":30,"completionMinutes":45,"basePay":8,"maxBonus":9,"perTrialBonus":0.5,"perTrialBonusThreshold":0.1,"exampleCost":0.01},"classroomParams":{"A":{"a":1,"b":4},"B":{"a":4,"b":1},"C":{"a":2,"b":8},"D":{"a":8,"b":2}},"conditions":["nonSeqFull","nonSeqPartial","seqNoFeedback","seqFeedback"],"classroomPairings":[["A","B"],["C","D"]],"coinWeights":[0.2,0.5,0.8],"subjectId":"A10BH9PYCYUKDJ","assignmentId":"32XVDSJFP0JFDFRW27VU6DP2NJPM25","hitId":"3YGE63DIN8J20XK20KS1742RQF60WK","url":"https://gershmanlab.com/experiments/alicia/teaching/experiment/?hitId=3YGE63DIN8J20XK20KS1742RQF60WK&workerId=A10BH9PYCYUKDJ&assignmentId=32XVDSJFP0JFDFRW27VU6DP2NJPM25&a=FDX28&tp_a=FDX28&b=32XVDSJFP0JFDFRW27VU6DP2NJPM25&tp_b=32XVDSJFP0JFDFRW27VU6DP2NJPM25&c=365198&tp_c=365198","heads":10,"tails":1,"studentIndex":21,"studentTrueHypers":{"a":1,"b":4},"studentGuess":0.6875,"delta":0.11250000000000004,"totalExamples":11,"bonusSoFar":2.97},{"rt":9068,"response":{"heads":"20","tails":"1"},"type":"response","condition":"seqNoFeedback","trueTheta":0.8,"classrooms":["A","B"],"studentTrueClassroom":"A","exampleSet":"second","trial_type":"survey-html-form","trial_index":172,"time_elapsed":1300019,"internal_node_id":"0.0-171.0-0.0","params":{"nStudents":24,"maxFlips":30,"completionMinutes":45,"basePay":8,"maxBonus":9,"perTrialBonus":0.5,"perTrialBonusThreshold":0.1,"exampleCost":0.01},"classroomParams":{"A":{"a":1,"b":4},"B":{"a":4,"b":1},"C":{"a":2,"b":8},"D":{"a":8,"b":2}},"conditions":["nonSeqFull","nonSeqPartial","seqNoFeedback","seqFeedback"],"classroomPairings":[["A","B"],["C","D"]],"coinWeights":[0.2,0.5,0.8],"subjectId":"A10BH9PYCYUKDJ","assignmentId":"32XVDSJFP0JFDFRW27VU6DP2NJPM25","hitId":"3YGE63DIN8J20XK20KS1742RQF60WK","url":"https://gershmanlab.com/experiments/alicia/teaching/experiment/?hitId=3YGE63DIN8J20XK20KS1742RQF60WK&workerId=A10BH9PYCYUKDJ&assignmentId=32XVDSJFP0JFDFRW27VU6DP2NJPM25&a=FDX28&tp_a=FDX28&b=32XVDSJFP0JFDFRW27VU6DP2NJPM25&tp_b=32XVDSJFP0JFDFRW27VU6DP2NJPM25&c=365198&tp_c=365198","firstResponseHeads":10,"firstResponseTails":1,"secondResponseHeads":20,"secondResponseTails":1,"studentIndex":21,"studentTrueHypers":{"a":1,"b":4},"studentGuess":0.8378378378378378,"delta":0.037837837837837784,"bonus":0.18,"bonusSoFar":3.15,"totalExamples":32},{"rt":2671,"response":{"heads":"10","tails":"10"},"type":"response","condition":"nonSeqFull","trueTheta":0.5,"classrooms":["C","D"],"studentTrueClassroom":"C","exampleSet":"first","trial_type":"survey-html-form","trial_index":178,"time_elapsed":1317026,"internal_node_id":"0.0-177.0-0.0","params":{"nStudents":24,"maxFlips":30,"completionMinutes":45,"basePay":8,"maxBonus":9,"perTrialBonus":0.5,"perTrialBonusThreshold":0.1,"exampleCost":0.01},"classroomParams":{"A":{"a":1,"b":4},"B":{"a":4,"b":1},"C":{"a":2,"b":8},"D":{"a":8,"b":2}},"conditions":["nonSeqFull","nonSeqPartial","seqNoFeedback","seqFeedback"],"classroomPairings":[["A","B"],["C","D"]],"coinWeights":[0.2,0.5,0.8],"subjectId":"A10BH9PYCYUKDJ","assignmentId":"32XVDSJFP0JFDFRW27VU6DP2NJPM25","hitId":"3YGE63DIN8J20XK20KS1742RQF60WK","url":"https://gershmanlab.com/experiments/alicia/teaching/experiment/?hitId=3YGE63DIN8J20XK20KS1742RQF60WK&workerId=A10BH9PYCYUKDJ&assignmentId=32XVDSJFP0JFDFRW27VU6DP2NJPM25&a=FDX28&tp_a=FDX28&b=32XVDSJFP0JFDFRW27VU6DP2NJPM25&tp_b=32XVDSJFP0JFDFRW27VU6DP2NJPM25&c=365198&tp_c=365198","heads":10,"tails":10,"studentIndex":22,"studentTrueHypers":{"a":2,"b":8},"studentGuess":0.4,"delta":0.09999999999999998,"totalExamples":20,"bonus":0.3,"bonusSoFar":3.45},{"rt":3191,"response":{"heads":"0","tails":"2"},"type":"response","condition":"seqNoFeedback","trueTheta":0.2,"classrooms":["A","B"],"studentTrueClassroom":"A","exampleSet":"first","trial_type":"survey-html-form","trial_index":184,"time_elapsed":1333647,"internal_node_id":"0.0-183.0-0.0","params":{"nStudents":24,"maxFlips":30,"completionMinutes":45,"basePay":8,"maxBonus":9,"perTrialBonus":0.5,"perTrialBonusThreshold":0.1,"exampleCost":0.01},"classroomParams":{"A":{"a":1,"b":4},"B":{"a":4,"b":1},"C":{"a":2,"b":8},"D":{"a":8,"b":2}},"conditions":["nonSeqFull","nonSeqPartial","seqNoFeedback","seqFeedback"],"classroomPairings":[["A","B"],["C","D"]],"coinWeights":[0.2,0.5,0.8],"subjectId":"A10BH9PYCYUKDJ","assignmentId":"32XVDSJFP0JFDFRW27VU6DP2NJPM25","hitId":"3YGE63DIN8J20XK20KS1742RQF60WK","url":"https://gershmanlab.com/experiments/alicia/teaching/experiment/?hitId=3YGE63DIN8J20XK20KS1742RQF60WK&workerId=A10BH9PYCYUKDJ&assignmentId=32XVDSJFP0JFDFRW27VU6DP2NJPM25&a=FDX28&tp_a=FDX28&b=32XVDSJFP0JFDFRW27VU6DP2NJPM25&tp_b=32XVDSJFP0JFDFRW27VU6DP2NJPM25&c=365198&tp_c=365198","heads":0,"tails":2,"studentIndex":23,"studentTrueHypers":{"a":1,"b":4},"studentGuess":0.14285714285714285,"delta":0.05714285714285716,"totalExamples":2,"bonusSoFar":3.45},{"rt":12403,"response":{"heads":"1","tails":"10"},"type":"response","condition":"seqNoFeedback","trueTheta":0.2,"classrooms":["A","B"],"studentTrueClassroom":"A","exampleSet":"second","trial_type":"survey-html-form","trial_index":187,"time_elapsed":1353559,"internal_node_id":"0.0-186.0-0.0","params":{"nStudents":24,"maxFlips":30,"completionMinutes":45,"basePay":8,"maxBonus":9,"perTrialBonus":0.5,"perTrialBonusThreshold":0.1,"exampleCost":0.01},"classroomParams":{"A":{"a":1,"b":4},"B":{"a":4,"b":1},"C":{"a":2,"b":8},"D":{"a":8,"b":2}},"conditions":["nonSeqFull","nonSeqPartial","seqNoFeedback","seqFeedback"],"classroomPairings":[["A","B"],["C","D"]],"coinWeights":[0.2,0.5,0.8],"subjectId":"A10BH9PYCYUKDJ","assignmentId":"32XVDSJFP0JFDFRW27VU6DP2NJPM25","hitId":"3YGE63DIN8J20XK20KS1742RQF60WK","url":"https://gershmanlab.com/experiments/alicia/teaching/experiment/?hitId=3YGE63DIN8J20XK20KS1742RQF60WK&workerId=A10BH9PYCYUKDJ&assignmentId=32XVDSJFP0JFDFRW27VU6DP2NJPM25&a=FDX28&tp_a=FDX28&b=32XVDSJFP0JFDFRW27VU6DP2NJPM25&tp_b=32XVDSJFP0JFDFRW27VU6DP2NJPM25&c=365198&tp_c=365198","firstResponseHeads":0,"firstResponseTails":2,"secondResponseHeads":1,"secondResponseTails":10,"studentIndex":23,"studentTrueHypers":{"a":1,"b":4},"studentGuess":0.1111111111111111,"delta":0.0888888888888889,"bonus":0.37,"bonusSoFar":3.82,"totalExamples":13},{"rt":34180,"response":{"gender":"female","age":"41","understood":"yes","comments":"Started out rough but I think I got the hang of it a little at the end."},"type":"response","trial_type":"survey-html-form","trial_index":191,"time_elapsed":1395592,"internal_node_id":"0.0-191.0","params":{"nStudents":24,"maxFlips":30,"completionMinutes":45,"basePay":8,"maxBonus":9,"perTrialBonus":0.5,"perTrialBonusThreshold":0.1,"exampleCost":0.01},"classroomParams":{"A":{"a":1,"b":4},"B":{"a":4,"b":1},"C":{"a":2,"b":8},"D":{"a":8,"b":2}},"conditions":["nonSeqFull","nonSeqPartial","seqNoFeedback","seqFeedback"],"classroomPairings":[["A","B"],["C","D"]],"coinWeights":[0.2,0.5,0.8],"subjectId":"A10BH9PYCYUKDJ","assignmentId":"32XVDSJFP0JFDFRW27VU6DP2NJPM25","hitId":"3YGE63DIN8J20XK20KS1742RQF60WK","url":"https://gershmanlab.com/experiments/alicia/teaching/experiment/?hitId=3YGE63DIN8J20XK20KS1742RQF60WK&workerId=A10BH9PYCYUKDJ&assignmentId=32XVDSJFP0JFDFRW27VU6DP2NJPM25&a=FDX28&tp_a=FDX28&b=32XVDSJFP0JFDFRW27VU6DP2NJPM25&tp_b=32XVDSJFP0JFDFRW27VU6DP2NJPM25&c=365198&tp_c=365198","totalBonus":3.82}]