[{"rt":155732,"response":{"heads":"1","tails":"4"},"type":"response","condition":"nonSeqFull","trueTheta":0.2,"classrooms":["A","B"],"studentTrueClassroom":"B","exampleSet":"first","trial_type":"survey-html-form","trial_index":13,"time_elapsed":1001497,"internal_node_id":"0.0-6.0-0.0","params":{"nStudents":24,"maxFlips":30,"completionMinutes":45,"basePay":8,"maxBonus":9,"perTrialBonus":0.5,"perTrialBonusThreshold":0.1,"exampleCost":0.01},"classroomParams":{"A":{"a":1,"b":4},"B":{"a":4,"b":1},"C":{"a":2,"b":8},"D":{"a":8,"b":2}},"conditions":["nonSeqFull","nonSeqPartial","seqNoFeedback","seqFeedback"],"classroomPairings":[["A","B"],["C","D"]],"coinWeights":[0.2,0.5,0.8],"subjectId":"A10HW8JXM17XLD","assignmentId":"3T3IWE1XG790ITJ1DFM7O9IXXXZQTO","hitId":"341H3G5YF006USP7B7C868W97H9Z08","url":"https://gershmanlab.com/experiments/alicia/teaching/experiment/?hitId=341H3G5YF006USP7B7C868W97H9Z08&workerId=A10HW8JXM17XLD&assignmentId=3T3IWE1XG790ITJ1DFM7O9IXXXZQTO&a=XW3T8&tp_a=XW3T8&b=3T3IWE1XG790ITJ1DFM7O9IXXXZQTO&tp_b=3T3IWE1XG790ITJ1DFM7O9IXXXZQTO&c=365198&tp_c=365198","heads":1,"tails":4,"studentIndex":0,"studentTrueHypers":{"a":4,"b":1},"studentGuess":0.5,"delta":0.3,"totalExamples":5,"bonus":0,"bonusSoFar":0},{"rt":144382,"response":{"heads":"8","tails":"2"},"type":"response","condition":"seqNoFeedback","trueTheta":0.5,"classrooms":["C","D"],"studentTrueClassroom":"D","exampleSet":"first","trial_type":"survey-html-form","trial_index":19,"time_elapsed":1185098,"internal_node_id":"0.0-12.0-0.0","params":{"nStudents":24,"maxFlips":30,"completionMinutes":45,"basePay":8,"maxBonus":9,"perTrialBonus":0.5,"perTrialBonusThreshold":0.1,"exampleCost":0.01},"classroomParams":{"A":{"a":1,"b":4},"B":{"a":4,"b":1},"C":{"a":2,"b":8},"D":{"a":8,"b":2}},"conditions":["nonSeqFull","nonSeqPartial","seqNoFeedback","seqFeedback"],"classroomPairings":[["A","B"],["C","D"]],"coinWeights":[0.2,0.5,0.8],"subjectId":"A10HW8JXM17XLD","assignmentId":"3T3IWE1XG790ITJ1DFM7O9IXXXZQTO","hitId":"341H3G5YF006USP7B7C868W97H9Z08","url":"https://gershmanlab.com/experiments/alicia/teaching/experiment/?hitId=341H3G5YF006USP7B7C868W97H9Z08&workerId=A10HW8JXM17XLD&assignmentId=3T3IWE1XG790ITJ1DFM7O9IXXXZQTO&a=XW3T8&tp_a=XW3T8&b=3T3IWE1XG790ITJ1DFM7O9IXXXZQTO&tp_b=3T3IWE1XG790ITJ1DFM7O9IXXXZQTO&c=365198&tp_c=365198","heads":8,"tails":2,"studentIndex":1,"studentTrueHypers":{"a":8,"b":2},"studentGuess":0.8,"delta":0.30000000000000004,"totalExamples":10,"bonusSoFar":0},{"rt":16899,"response":{"heads":"2","tails":"8"},"type":"response","condition":"seqNoFeedback","trueTheta":0.5,"classrooms":["C","D"],"studentTrueClassroom":"D","exampleSet":"second","trial_type":"survey-html-form","trial_index":22,"time_elapsed":1210025,"internal_node_id":"0.0-15.0-0.0","params":{"nStudents":24,"maxFlips":30,"completionMinutes":45,"basePay":8,"maxBonus":9,"perTrialBonus":0.5,"perTrialBonusThreshold":0.1,"exampleCost":0.01},"classroomParams":{"A":{"a":1,"b":4},"B":{"a":4,"b":1},"C":{"a":2,"b":8},"D":{"a":8,"b":2}},"conditions":["nonSeqFull","nonSeqPartial","seqNoFeedback","seqFeedback"],"classroomPairings":[["A","B"],["C","D"]],"coinWeights":[0.2,0.5,0.8],"subjectId":"A10HW8JXM17XLD","assignmentId":"3T3IWE1XG790ITJ1DFM7O9IXXXZQTO","hitId":"341H3G5YF006USP7B7C868W97H9Z08","url":"https://gershmanlab.com/experiments/alicia/teaching/experiment/?hitId=341H3G5YF006USP7B7C868W97H9Z08&workerId=A10HW8JXM17XLD&assignmentId=3T3IWE1XG790ITJ1DFM7O9IXXXZQTO&a=XW3T8&tp_a=XW3T8&b=3T3IWE1XG790ITJ1DFM7O9IXXXZQTO&tp_b=3T3IWE1XG790ITJ1DFM7O9IXXXZQTO&c=365198&tp_c=365198","firstResponseHeads":8,"firstResponseTails":2,"secondResponseHeads":2,"secondResponseTails":8,"studentIndex":1,"studentTrueHypers":{"a":8,"b":2},"studentGuess":0.6,"delta":0.09999999999999998,"bonus":0.3,"bonusSoFar":0.3,"totalExamples":20},{"rt":87158,"response":{"heads":"1","tails":"4"},"type":"response","condition":"seqFeedback","trueTheta":0.2,"classrooms":["A","B"],"studentTrueClassroom":"B","exampleSet":"first","trial_type":"survey-html-form","trial_index":28,"time_elapsed":1333799,"internal_node_id":"0.0-21.0-0.0","params":{"nStudents":24,"maxFlips":30,"completionMinutes":45,"basePay":8,"maxBonus":9,"perTrialBonus":0.5,"perTrialBonusThreshold":0.1,"exampleCost":0.01},"classroomParams":{"A":{"a":1,"b":4},"B":{"a":4,"b":1},"C":{"a":2,"b":8},"D":{"a":8,"b":2}},"conditions":["nonSeqFull","nonSeqPartial","seqNoFeedback","seqFeedback"],"classroomPairings":[["A","B"],["C","D"]],"coinWeights":[0.2,0.5,0.8],"subjectId":"A10HW8JXM17XLD","assignmentId":"3T3IWE1XG790ITJ1DFM7O9IXXXZQTO","hitId":"341H3G5YF006USP7B7C868W97H9Z08","url":"https://gershmanlab.com/experiments/alicia/teaching/experiment/?hitId=341H3G5YF006USP7B7C868W97H9Z08&workerId=A10HW8JXM17XLD&assignmentId=3T3IWE1XG790ITJ1DFM7O9IXXXZQTO&a=XW3T8&tp_a=XW3T8&b=3T3IWE1XG790ITJ1DFM7O9IXXXZQTO&tp_b=3T3IWE1XG790ITJ1DFM7O9IXXXZQTO&c=365198&tp_c=365198","heads":1,"tails":4,"studentIndex":2,"studentTrueHypers":{"a":4,"b":1},"studentGuess":0.5,"delta":0.3,"totalExamples":5,"bonusSoFar":0.3},{"rt":62564,"response":{"heads":"1","tails":"4"},"type":"response","condition":"seqFeedback","trueTheta":0.2,"classrooms":["A","B"],"studentTrueClassroom":"B","exampleSet":"second","trial_type":"survey-html-form","trial_index":32,"time_elapsed":1422928,"internal_node_id":"0.0-25.0-0.0","params":{"nStudents":24,"maxFlips":30,"completionMinutes":45,"basePay":8,"maxBonus":9,"perTrialBonus":0.5,"perTrialBonusThreshold":0.1,"exampleCost":0.01},"classroomParams":{"A":{"a":1,"b":4},"B":{"a":4,"b":1},"C":{"a":2,"b":8},"D":{"a":8,"b":2}},"conditions":["nonSeqFull","nonSeqPartial","seqNoFeedback","seqFeedback"],"classroomPairings":[["A","B"],["C","D"]],"coinWeights":[0.2,0.5,0.8],"subjectId":"A10HW8JXM17XLD","assignmentId":"3T3IWE1XG790ITJ1DFM7O9IXXXZQTO","hitId":"341H3G5YF006USP7B7C868W97H9Z08","url":"https://gershmanlab.com/experiments/alicia/teaching/experiment/?hitId=341H3G5YF006USP7B7C868W97H9Z08&workerId=A10HW8JXM17XLD&assignmentId=3T3IWE1XG790ITJ1DFM7O9IXXXZQTO&a=XW3T8&tp_a=XW3T8&b=3T3IWE1XG790ITJ1DFM7O9IXXXZQTO&tp_b=3T3IWE1XG790ITJ1DFM7O9IXXXZQTO&c=365198&tp_c=365198","firstResponseHeads":1,"firstResponseTails":4,"secondResponseHeads":1,"secondResponseTails":4,"studentIndex":2,"studentTrueHypers":{"a":4,"b":1},"studentGuess":0.4,"delta":0.2,"bonus":0,"bonusSoFar":0.3,"totalExamples":10},{"rt":62600,"response":{"heads":"4","tails":"1"},"type":"response","condition":"seqNoFeedback","trueTheta":0.8,"classrooms":["A","B"],"studentTrueClassroom":"A","exampleSet":"first","trial_type":"survey-html-form","trial_index":38,"time_elapsed":1508012,"internal_node_id":"0.0-31.0-0.0","params":{"nStudents":24,"maxFlips":30,"completionMinutes":45,"basePay":8,"maxBonus":9,"perTrialBonus":0.5,"perTrialBonusThreshold":0.1,"exampleCost":0.01},"classroomParams":{"A":{"a":1,"b":4},"B":{"a":4,"b":1},"C":{"a":2,"b":8},"D":{"a":8,"b":2}},"conditions":["nonSeqFull","nonSeqPartial","seqNoFeedback","seqFeedback"],"classroomPairings":[["A","B"],["C","D"]],"coinWeights":[0.2,0.5,0.8],"subjectId":"A10HW8JXM17XLD","assignmentId":"3T3IWE1XG790ITJ1DFM7O9IXXXZQTO","hitId":"341H3G5YF006USP7B7C868W97H9Z08","url":"https://gershmanlab.com/experiments/alicia/teaching/experiment/?hitId=341H3G5YF006USP7B7C868W97H9Z08&workerId=A10HW8JXM17XLD&assignmentId=3T3IWE1XG790ITJ1DFM7O9IXXXZQTO&a=XW3T8&tp_a=XW3T8&b=3T3IWE1XG790ITJ1DFM7O9IXXXZQTO&tp_b=3T3IWE1XG790ITJ1DFM7O9IXXXZQTO&c=365198&tp_c=365198","heads":4,"tails":1,"studentIndex":3,"studentTrueHypers":{"a":1,"b":4},"studentGuess":0.5,"delta":0.30000000000000004,"totalExamples":5,"bonusSoFar":0.3},{"rt":15358,"response":{"heads":"4","tails":"1"},"type":"response","condition":"seqNoFeedback","trueTheta":0.8,"classrooms":["A","B"],"studentTrueClassroom":"A","exampleSet":"second","trial_type":"survey-html-form","trial_index":41,"time_elapsed":1529150,"internal_node_id":"0.0-34.0-0.0","params":{"nStudents":24,"maxFlips":30,"completionMinutes":45,"basePay":8,"maxBonus":9,"perTrialBonus":0.5,"perTrialBonusThreshold":0.1,"exampleCost":0.01},"classroomParams":{"A":{"a":1,"b":4},"B":{"a":4,"b":1},"C":{"a":2,"b":8},"D":{"a":8,"b":2}},"conditions":["nonSeqFull","nonSeqPartial","seqNoFeedback","seqFeedback"],"classroomPairings":[["A","B"],["C","D"]],"coinWeights":[0.2,0.5,0.8],"subjectId":"A10HW8JXM17XLD","assignmentId":"3T3IWE1XG790ITJ1DFM7O9IXXXZQTO","hitId":"341H3G5YF006USP7B7C868W97H9Z08","url":"https://gershmanlab.com/experiments/alicia/teaching/experiment/?hitId=341H3G5YF006USP7B7C868W97H9Z08&workerId=A10HW8JXM17XLD&assignmentId=3T3IWE1XG790ITJ1DFM7O9IXXXZQTO&a=XW3T8&tp_a=XW3T8&b=3T3IWE1XG790ITJ1DFM7O9IXXXZQTO&tp_b=3T3IWE1XG790ITJ1DFM7O9IXXXZQTO&c=365198&tp_c=365198","firstResponseHeads":4,"firstResponseTails":1,"secondResponseHeads":4,"secondResponseTails":1,"studentIndex":3,"studentTrueHypers":{"a":1,"b":4},"studentGuess":0.6,"delta":0.20000000000000007,"bonus":0,"bonusSoFar":0.3,"totalExamples":10},{"rt":18045,"response":{"heads":"4","tails":"1"},"type":"response","condition":"nonSeqFull","trueTheta":0.8,"classrooms":["A","B"],"studentTrueClassroom":"B","exampleSet":"first","trial_type":"survey-html-form","trial_index":47,"time_elapsed":1574102,"internal_node_id":"0.0-40.0-0.0","params":{"nStudents":24,"maxFlips":30,"completionMinutes":45,"basePay":8,"maxBonus":9,"perTrialBonus":0.5,"perTrialBonusThreshold":0.1,"exampleCost":0.01},"classroomParams":{"A":{"a":1,"b":4},"B":{"a":4,"b":1},"C":{"a":2,"b":8},"D":{"a":8,"b":2}},"conditions":["nonSeqFull","nonSeqPartial","seqNoFeedback","seqFeedback"],"classroomPairings":[["A","B"],["C","D"]],"coinWeights":[0.2,0.5,0.8],"subjectId":"A10HW8JXM17XLD","assignmentId":"3T3IWE1XG790ITJ1DFM7O9IXXXZQTO","hitId":"341H3G5YF006USP7B7C868W97H9Z08","url":"https://gershmanlab.com/experiments/alicia/teaching/experiment/?hitId=341H3G5YF006USP7B7C868W97H9Z08&workerId=A10HW8JXM17XLD&assignmentId=3T3IWE1XG790ITJ1DFM7O9IXXXZQTO&a=XW3T8&tp_a=XW3T8&b=3T3IWE1XG790ITJ1DFM7O9IXXXZQTO&tp_b=3T3IWE1XG790ITJ1DFM7O9IXXXZQTO&c=365198&tp_c=365198","heads":4,"tails":1,"studentIndex":4,"studentTrueHypers":{"a":4,"b":1},"studentGuess":0.8,"delta":0,"totalExamples":5,"bonus":0.45,"bonusSoFar":0.75},{"rt":128430,"response":{"heads":"6","tails":"4"},"type":"response","condition":"nonSeqPartial","trueTheta":0.5,"classrooms":["C","D"],"studentTrueClassroom":"D","exampleSet":"first","trial_type":"survey-html-form","trial_index":53,"time_elapsed":1724089,"internal_node_id":"0.0-46.0-0.0","params":{"nStudents":24,"maxFlips":30,"completionMinutes":45,"basePay":8,"maxBonus":9,"perTrialBonus":0.5,"perTrialBonusThreshold":0.1,"exampleCost":0.01},"classroomParams":{"A":{"a":1,"b":4},"B":{"a":4,"b":1},"C":{"a":2,"b":8},"D":{"a":8,"b":2}},"conditions":["nonSeqFull","nonSeqPartial","seqNoFeedback","seqFeedback"],"classroomPairings":[["A","B"],["C","D"]],"coinWeights":[0.2,0.5,0.8],"subjectId":"A10HW8JXM17XLD","assignmentId":"3T3IWE1XG790ITJ1DFM7O9IXXXZQTO","hitId":"341H3G5YF006USP7B7C868W97H9Z08","url":"https://gershmanlab.com/experiments/alicia/teaching/experiment/?hitId=341H3G5YF006USP7B7C868W97H9Z08&workerId=A10HW8JXM17XLD&assignmentId=3T3IWE1XG790ITJ1DFM7O9IXXXZQTO&a=XW3T8&tp_a=XW3T8&b=3T3IWE1XG790ITJ1DFM7O9IXXXZQTO&tp_b=3T3IWE1XG790ITJ1DFM7O9IXXXZQTO&c=365198&tp_c=365198","heads":6,"tails":4,"studentIndex":5,"studentTrueHypers":{"a":8,"b":2},"studentGuess":0.7,"delta":0.19999999999999996,"totalExamples":10,"bonus":0,"bonusSoFar":0.75},{"rt":43887,"response":{"heads":"4","tails":"1"},"type":"response","condition":"seqFeedback","trueTheta":0.8,"classrooms":["A","B"],"studentTrueClassroom":"A","exampleSet":"first","trial_type":"survey-html-form","trial_index":59,"time_elapsed":1797143,"internal_node_id":"0.0-52.0-0.0","params":{"nStudents":24,"maxFlips":30,"completionMinutes":45,"basePay":8,"maxBonus":9,"perTrialBonus":0.5,"perTrialBonusThreshold":0.1,"exampleCost":0.01},"classroomParams":{"A":{"a":1,"b":4},"B":{"a":4,"b":1},"C":{"a":2,"b":8},"D":{"a":8,"b":2}},"conditions":["nonSeqFull","nonSeqPartial","seqNoFeedback","seqFeedback"],"classroomPairings":[["A","B"],["C","D"]],"coinWeights":[0.2,0.5,0.8],"subjectId":"A10HW8JXM17XLD","assignmentId":"3T3IWE1XG790ITJ1DFM7O9IXXXZQTO","hitId":"341H3G5YF006USP7B7C868W97H9Z08","url":"https://gershmanlab.com/experiments/alicia/teaching/experiment/?hitId=341H3G5YF006USP7B7C868W97H9Z08&workerId=A10HW8JXM17XLD&assignmentId=3T3IWE1XG790ITJ1DFM7O9IXXXZQTO&a=XW3T8&tp_a=XW3T8&b=3T3IWE1XG790ITJ1DFM7O9IXXXZQTO&tp_b=3T3IWE1XG790ITJ1DFM7O9IXXXZQTO&c=365198&tp_c=365198","heads":4,"tails":1,"studentIndex":6,"studentTrueHypers":{"a":1,"b":4},"studentGuess":0.5,"delta":0.30000000000000004,"totalExamples":5,"bonusSoFar":0.75},{"rt":262674,"response":{"heads":"1","tails":"4"},"type":"response","condition":"seqFeedback","trueTheta":0.8,"classrooms":["A","B"],"studentTrueClassroom":"A","exampleSet":"second","trial_type":"survey-html-form","trial_index":63,"time_elapsed":2090462,"internal_node_id":"0.0-56.0-0.0","params":{"nStudents":24,"maxFlips":30,"completionMinutes":45,"basePay":8,"maxBonus":9,"perTrialBonus":0.5,"perTrialBonusThreshold":0.1,"exampleCost":0.01},"classroomParams":{"A":{"a":1,"b":4},"B":{"a":4,"b":1},"C":{"a":2,"b":8},"D":{"a":8,"b":2}},"conditions":["nonSeqFull","nonSeqPartial","seqNoFeedback","seqFeedback"],"classroomPairings":[["A","B"],["C","D"]],"coinWeights":[0.2,0.5,0.8],"subjectId":"A10HW8JXM17XLD","assignmentId":"3T3IWE1XG790ITJ1DFM7O9IXXXZQTO","hitId":"341H3G5YF006USP7B7C868W97H9Z08","url":"https://gershmanlab.com/experiments/alicia/teaching/experiment/?hitId=341H3G5YF006USP7B7C868W97H9Z08&workerId=A10HW8JXM17XLD&assignmentId=3T3IWE1XG790ITJ1DFM7O9IXXXZQTO&a=XW3T8&tp_a=XW3T8&b=3T3IWE1XG790ITJ1DFM7O9IXXXZQTO&tp_b=3T3IWE1XG790ITJ1DFM7O9IXXXZQTO&c=365198&tp_c=365198","firstResponseHeads":4,"firstResponseTails":1,"secondResponseHeads":1,"secondResponseTails":4,"studentIndex":6,"studentTrueHypers":{"a":1,"b":4},"studentGuess":0.4,"delta":0.4,"bonus":0,"bonusSoFar":0.75,"totalExamples":10},{"rt":20838,"response":{"heads":"2","tails":"8"},"type":"response","condition":"seqNoFeedback","trueTheta":0.2,"classrooms":["C","D"],"studentTrueClassroom":"D","exampleSet":"first","trial_type":"survey-html-form","trial_index":69,"time_elapsed":2141676,"internal_node_id":"0.0-62.0-0.0","params":{"nStudents":24,"maxFlips":30,"completionMinutes":45,"basePay":8,"maxBonus":9,"perTrialBonus":0.5,"perTrialBonusThreshold":0.1,"exampleCost":0.01},"classroomParams":{"A":{"a":1,"b":4},"B":{"a":4,"b":1},"C":{"a":2,"b":8},"D":{"a":8,"b":2}},"conditions":["nonSeqFull","nonSeqPartial","seqNoFeedback","seqFeedback"],"classroomPairings":[["A","B"],["C","D"]],"coinWeights":[0.2,0.5,0.8],"subjectId":"A10HW8JXM17XLD","assignmentId":"3T3IWE1XG790ITJ1DFM7O9IXXXZQTO","hitId":"341H3G5YF006USP7B7C868W97H9Z08","url":"https://gershmanlab.com/experiments/alicia/teaching/experiment/?hitId=341H3G5YF006USP7B7C868W97H9Z08&workerId=A10HW8JXM17XLD&assignmentId=3T3IWE1XG790ITJ1DFM7O9IXXXZQTO&a=XW3T8&tp_a=XW3T8&b=3T3IWE1XG790ITJ1DFM7O9IXXXZQTO&tp_b=3T3IWE1XG790ITJ1DFM7O9IXXXZQTO&c=365198&tp_c=365198","heads":2,"tails":8,"studentIndex":7,"studentTrueHypers":{"a":8,"b":2},"studentGuess":0.5,"delta":0.3,"totalExamples":10,"bonusSoFar":0.75},{"rt":61907,"response":{"heads":"4","tails":"16"},"type":"response","condition":"seqNoFeedback","trueTheta":0.2,"classrooms":["C","D"],"studentTrueClassroom":"D","exampleSet":"second","trial_type":"survey-html-form","trial_index":72,"time_elapsed":2210603,"internal_node_id":"0.0-65.0-0.0","params":{"nStudents":24,"maxFlips":30,"completionMinutes":45,"basePay":8,"maxBonus":9,"perTrialBonus":0.5,"perTrialBonusThreshold":0.1,"exampleCost":0.01},"classroomParams":{"A":{"a":1,"b":4},"B":{"a":4,"b":1},"C":{"a":2,"b":8},"D":{"a":8,"b":2}},"conditions":["nonSeqFull","nonSeqPartial","seqNoFeedback","seqFeedback"],"classroomPairings":[["A","B"],["C","D"]],"coinWeights":[0.2,0.5,0.8],"subjectId":"A10HW8JXM17XLD","assignmentId":"3T3IWE1XG790ITJ1DFM7O9IXXXZQTO","hitId":"341H3G5YF006USP7B7C868W97H9Z08","url":"https://gershmanlab.com/experiments/alicia/teaching/experiment/?hitId=341H3G5YF006USP7B7C868W97H9Z08&workerId=A10HW8JXM17XLD&assignmentId=3T3IWE1XG790ITJ1DFM7O9IXXXZQTO&a=XW3T8&tp_a=XW3T8&b=3T3IWE1XG790ITJ1DFM7O9IXXXZQTO&tp_b=3T3IWE1XG790ITJ1DFM7O9IXXXZQTO&c=365198&tp_c=365198","firstResponseHeads":2,"firstResponseTails":8,"secondResponseHeads":4,"secondResponseTails":16,"studentIndex":7,"studentTrueHypers":{"a":8,"b":2},"studentGuess":0.35,"delta":0.14999999999999997,"bonus":0,"bonusSoFar":0.75,"totalExamples":30},{"rt":116013,"response":{"heads":"6","tails":"4"},"type":"response","condition":"seqFeedback","trueTheta":0.5,"classrooms":["A","B"],"studentTrueClassroom":"B","exampleSet":"first","trial_type":"survey-html-form","trial_index":78,"time_elapsed":2352089,"internal_node_id":"0.0-71.0-0.0","params":{"nStudents":24,"maxFlips":30,"completionMinutes":45,"basePay":8,"maxBonus":9,"perTrialBonus":0.5,"perTrialBonusThreshold":0.1,"exampleCost":0.01},"classroomParams":{"A":{"a":1,"b":4},"B":{"a":4,"b":1},"C":{"a":2,"b":8},"D":{"a":8,"b":2}},"conditions":["nonSeqFull","nonSeqPartial","seqNoFeedback","seqFeedback"],"classroomPairings":[["A","B"],["C","D"]],"coinWeights":[0.2,0.5,0.8],"subjectId":"A10HW8JXM17XLD","assignmentId":"3T3IWE1XG790ITJ1DFM7O9IXXXZQTO","hitId":"341H3G5YF006USP7B7C868W97H9Z08","url":"https://gershmanlab.com/experiments/alicia/teaching/experiment/?hitId=341H3G5YF006USP7B7C868W97H9Z08&workerId=A10HW8JXM17XLD&assignmentId=3T3IWE1XG790ITJ1DFM7O9IXXXZQTO&a=XW3T8&tp_a=XW3T8&b=3T3IWE1XG790ITJ1DFM7O9IXXXZQTO&tp_b=3T3IWE1XG790ITJ1DFM7O9IXXXZQTO&c=365198&tp_c=365198","heads":6,"tails":4,"studentIndex":8,"studentTrueHypers":{"a":4,"b":1},"studentGuess":0.6666666666666666,"delta":0.16666666666666663,"totalExamples":10,"bonusSoFar":0.75},{"rt":113031,"response":{"heads":"1","tails":"10"},"type":"response","condition":"seqFeedback","trueTheta":0.5,"classrooms":["A","B"],"studentTrueClassroom":"B","exampleSet":"second","trial_type":"survey-html-form","trial_index":82,"time_elapsed":2481434,"internal_node_id":"0.0-75.0-0.0","params":{"nStudents":24,"maxFlips":30,"completionMinutes":45,"basePay":8,"maxBonus":9,"perTrialBonus":0.5,"perTrialBonusThreshold":0.1,"exampleCost":0.01},"classroomParams":{"A":{"a":1,"b":4},"B":{"a":4,"b":1},"C":{"a":2,"b":8},"D":{"a":8,"b":2}},"conditions":["nonSeqFull","nonSeqPartial","seqNoFeedback","seqFeedback"],"classroomPairings":[["A","B"],["C","D"]],"coinWeights":[0.2,0.5,0.8],"subjectId":"A10HW8JXM17XLD","assignmentId":"3T3IWE1XG790ITJ1DFM7O9IXXXZQTO","hitId":"341H3G5YF006USP7B7C868W97H9Z08","url":"https://gershmanlab.com/experiments/alicia/teaching/experiment/?hitId=341H3G5YF006USP7B7C868W97H9Z08&workerId=A10HW8JXM17XLD&assignmentId=3T3IWE1XG790ITJ1DFM7O9IXXXZQTO&a=XW3T8&tp_a=XW3T8&b=3T3IWE1XG790ITJ1DFM7O9IXXXZQTO&tp_b=3T3IWE1XG790ITJ1DFM7O9IXXXZQTO&c=365198&tp_c=365198","firstResponseHeads":6,"firstResponseTails":4,"secondResponseHeads":1,"secondResponseTails":10,"studentIndex":8,"studentTrueHypers":{"a":4,"b":1},"studentGuess":0.4230769230769231,"delta":0.07692307692307693,"bonus":0.29,"bonusSoFar":1.04,"totalExamples":21},{"rt":32989,"response":{"heads":"8","tails":"2"},"type":"response","condition":"seqNoFeedback","trueTheta":0.8,"classrooms":["C","D"],"studentTrueClassroom":"C","exampleSet":"first","trial_type":"survey-html-form","trial_index":88,"time_elapsed":2536830,"internal_node_id":"0.0-81.0-0.0","params":{"nStudents":24,"maxFlips":30,"completionMinutes":45,"basePay":8,"maxBonus":9,"perTrialBonus":0.5,"perTrialBonusThreshold":0.1,"exampleCost":0.01},"classroomParams":{"A":{"a":1,"b":4},"B":{"a":4,"b":1},"C":{"a":2,"b":8},"D":{"a":8,"b":2}},"conditions":["nonSeqFull","nonSeqPartial","seqNoFeedback","seqFeedback"],"classroomPairings":[["A","B"],["C","D"]],"coinWeights":[0.2,0.5,0.8],"subjectId":"A10HW8JXM17XLD","assignmentId":"3T3IWE1XG790ITJ1DFM7O9IXXXZQTO","hitId":"341H3G5YF006USP7B7C868W97H9Z08","url":"https://gershmanlab.com/experiments/alicia/teaching/experiment/?hitId=341H3G5YF006USP7B7C868W97H9Z08&workerId=A10HW8JXM17XLD&assignmentId=3T3IWE1XG790ITJ1DFM7O9IXXXZQTO&a=XW3T8&tp_a=XW3T8&b=3T3IWE1XG790ITJ1DFM7O9IXXXZQTO&tp_b=3T3IWE1XG790ITJ1DFM7O9IXXXZQTO&c=365198&tp_c=365198","heads":8,"tails":2,"studentIndex":9,"studentTrueHypers":{"a":2,"b":8},"studentGuess":0.5,"delta":0.30000000000000004,"totalExamples":10,"bonusSoFar":1.04},{"rt":19303,"response":{"heads":"8","tails":"2"},"type":"response","condition":"seqNoFeedback","trueTheta":0.8,"classrooms":["C","D"],"studentTrueClassroom":"C","exampleSet":"second","trial_type":"survey-html-form","trial_index":91,"time_elapsed":2563904,"internal_node_id":"0.0-84.0-0.0","params":{"nStudents":24,"maxFlips":30,"completionMinutes":45,"basePay":8,"maxBonus":9,"perTrialBonus":0.5,"perTrialBonusThreshold":0.1,"exampleCost":0.01},"classroomParams":{"A":{"a":1,"b":4},"B":{"a":4,"b":1},"C":{"a":2,"b":8},"D":{"a":8,"b":2}},"conditions":["nonSeqFull","nonSeqPartial","seqNoFeedback","seqFeedback"],"classroomPairings":[["A","B"],["C","D"]],"coinWeights":[0.2,0.5,0.8],"subjectId":"A10HW8JXM17XLD","assignmentId":"3T3IWE1XG790ITJ1DFM7O9IXXXZQTO","hitId":"341H3G5YF006USP7B7C868W97H9Z08","url":"https://gershmanlab.com/experiments/alicia/teaching/experiment/?hitId=341H3G5YF006USP7B7C868W97H9Z08&workerId=A10HW8JXM17XLD&assignmentId=3T3IWE1XG790ITJ1DFM7O9IXXXZQTO&a=XW3T8&tp_a=XW3T8&b=3T3IWE1XG790ITJ1DFM7O9IXXXZQTO&tp_b=3T3IWE1XG790ITJ1DFM7O9IXXXZQTO&c=365198&tp_c=365198","firstResponseHeads":8,"firstResponseTails":2,"secondResponseHeads":8,"secondResponseTails":2,"studentIndex":9,"studentTrueHypers":{"a":2,"b":8},"studentGuess":0.6,"delta":0.20000000000000007,"bonus":0,"bonusSoFar":1.04,"totalExamples":20},{"rt":250815,"response":{"heads":"15","tails":"15"},"type":"response","condition":"nonSeqPartial","trueTheta":0.5,"classrooms":["A","B"],"studentTrueClassroom":"A","exampleSet":"first","trial_type":"survey-html-form","trial_index":97,"time_elapsed":2836878,"internal_node_id":"0.0-90.0-0.0","params":{"nStudents":24,"maxFlips":30,"completionMinutes":45,"basePay":8,"maxBonus":9,"perTrialBonus":0.5,"perTrialBonusThreshold":0.1,"exampleCost":0.01},"classroomParams":{"A":{"a":1,"b":4},"B":{"a":4,"b":1},"C":{"a":2,"b":8},"D":{"a":8,"b":2}},"conditions":["nonSeqFull","nonSeqPartial","seqNoFeedback","seqFeedback"],"classroomPairings":[["A","B"],["C","D"]],"coinWeights":[0.2,0.5,0.8],"subjectId":"A10HW8JXM17XLD","assignmentId":"3T3IWE1XG790ITJ1DFM7O9IXXXZQTO","hitId":"341H3G5YF006USP7B7C868W97H9Z08","url":"https://gershmanlab.com/experiments/alicia/teaching/experiment/?hitId=341H3G5YF006USP7B7C868W97H9Z08&workerId=A10HW8JXM17XLD&assignmentId=3T3IWE1XG790ITJ1DFM7O9IXXXZQTO&a=XW3T8&tp_a=XW3T8&b=3T3IWE1XG790ITJ1DFM7O9IXXXZQTO&tp_b=3T3IWE1XG790ITJ1DFM7O9IXXXZQTO&c=365198&tp_c=365198","heads":15,"tails":15,"studentIndex":10,"studentTrueHypers":{"a":1,"b":4},"studentGuess":0.45714285714285713,"delta":0.04285714285714287,"totalExamples":30,"bonus":0.2,"bonusSoFar":1.24},{"rt":139483,"response":{"heads":"2","tails":"13"},"type":"response","condition":"nonSeqFull","trueTheta":0.8,"classrooms":["C","D"],"studentTrueClassroom":"C","exampleSet":"first","trial_type":"survey-html-form","trial_index":103,"time_elapsed":2995311,"internal_node_id":"0.0-96.0-0.0","params":{"nStudents":24,"maxFlips":30,"completionMinutes":45,"basePay":8,"maxBonus":9,"perTrialBonus":0.5,"perTrialBonusThreshold":0.1,"exampleCost":0.01},"classroomParams":{"A":{"a":1,"b":4},"B":{"a":4,"b":1},"C":{"a":2,"b":8},"D":{"a":8,"b":2}},"conditions":["nonSeqFull","nonSeqPartial","seqNoFeedback","seqFeedback"],"classroomPairings":[["A","B"],["C","D"]],"coinWeights":[0.2,0.5,0.8],"subjectId":"A10HW8JXM17XLD","assignmentId":"3T3IWE1XG790ITJ1DFM7O9IXXXZQTO","hitId":"341H3G5YF006USP7B7C868W97H9Z08","url":"https://gershmanlab.com/experiments/alicia/teaching/experiment/?hitId=341H3G5YF006USP7B7C868W97H9Z08&workerId=A10HW8JXM17XLD&assignmentId=3T3IWE1XG790ITJ1DFM7O9IXXXZQTO&a=XW3T8&tp_a=XW3T8&b=3T3IWE1XG790ITJ1DFM7O9IXXXZQTO&tp_b=3T3IWE1XG790ITJ1DFM7O9IXXXZQTO&c=365198&tp_c=365198","heads":2,"tails":13,"studentIndex":11,"studentTrueHypers":{"a":2,"b":8},"studentGuess":0.16,"delta":0.64,"totalExamples":15,"bonus":0,"bonusSoFar":1.24},{"rt":159815,"response":{"heads":"7","tails":"3"},"type":"response","condition":"seqNoFeedback","trueTheta":0.5,"classrooms":["A","B"],"studentTrueClassroom":"A","exampleSet":"first","trial_type":"survey-html-form","trial_index":109,"time_elapsed":3173875,"internal_node_id":"0.0-102.0-0.0","params":{"nStudents":24,"maxFlips":30,"completionMinutes":45,"basePay":8,"maxBonus":9,"perTrialBonus":0.5,"perTrialBonusThreshold":0.1,"exampleCost":0.01},"classroomParams":{"A":{"a":1,"b":4},"B":{"a":4,"b":1},"C":{"a":2,"b":8},"D":{"a":8,"b":2}},"conditions":["nonSeqFull","nonSeqPartial","seqNoFeedback","seqFeedback"],"classroomPairings":[["A","B"],["C","D"]],"coinWeights":[0.2,0.5,0.8],"subjectId":"A10HW8JXM17XLD","assignmentId":"3T3IWE1XG790ITJ1DFM7O9IXXXZQTO","hitId":"341H3G5YF006USP7B7C868W97H9Z08","url":"https://gershmanlab.com/experiments/alicia/teaching/experiment/?hitId=341H3G5YF006USP7B7C868W97H9Z08&workerId=A10HW8JXM17XLD&assignmentId=3T3IWE1XG790ITJ1DFM7O9IXXXZQTO&a=XW3T8&tp_a=XW3T8&b=3T3IWE1XG790ITJ1DFM7O9IXXXZQTO&tp_b=3T3IWE1XG790ITJ1DFM7O9IXXXZQTO&c=365198&tp_c=365198","heads":7,"tails":3,"studentIndex":12,"studentTrueHypers":{"a":1,"b":4},"studentGuess":0.5333333333333333,"delta":0.033333333333333326,"totalExamples":10,"bonusSoFar":1.24},{"rt":27606,"response":{"heads":"7","tails":"10"},"type":"response","condition":"seqNoFeedback","trueTheta":0.5,"classrooms":["A","B"],"studentTrueClassroom":"A","exampleSet":"second","trial_type":"survey-html-form","trial_index":112,"time_elapsed":3209001,"internal_node_id":"0.0-105.0-0.0","params":{"nStudents":24,"maxFlips":30,"completionMinutes":45,"basePay":8,"maxBonus":9,"perTrialBonus":0.5,"perTrialBonusThreshold":0.1,"exampleCost":0.01},"classroomParams":{"A":{"a":1,"b":4},"B":{"a":4,"b":1},"C":{"a":2,"b":8},"D":{"a":8,"b":2}},"conditions":["nonSeqFull","nonSeqPartial","seqNoFeedback","seqFeedback"],"classroomPairings":[["A","B"],["C","D"]],"coinWeights":[0.2,0.5,0.8],"subjectId":"A10HW8JXM17XLD","assignmentId":"3T3IWE1XG790ITJ1DFM7O9IXXXZQTO","hitId":"341H3G5YF006USP7B7C868W97H9Z08","url":"https://gershmanlab.com/experiments/alicia/teaching/experiment/?hitId=341H3G5YF006USP7B7C868W97H9Z08&workerId=A10HW8JXM17XLD&assignmentId=3T3IWE1XG790ITJ1DFM7O9IXXXZQTO&a=XW3T8&tp_a=XW3T8&b=3T3IWE1XG790ITJ1DFM7O9IXXXZQTO&tp_b=3T3IWE1XG790ITJ1DFM7O9IXXXZQTO&c=365198&tp_c=365198","firstResponseHeads":7,"firstResponseTails":3,"secondResponseHeads":7,"secondResponseTails":10,"studentIndex":12,"studentTrueHypers":{"a":1,"b":4},"studentGuess":0.46875,"delta":0.03125,"bonus":0.23,"bonusSoFar":1.47,"totalExamples":27},{"rt":30062,"response":{"heads":"4","tails":"1"},"type":"response","condition":"nonSeqFull","trueTheta":0.5,"classrooms":["A","B"],"studentTrueClassroom":"A","exampleSet":"first","trial_type":"survey-html-form","trial_index":118,"time_elapsed":3254455,"internal_node_id":"0.0-111.0-0.0","params":{"nStudents":24,"maxFlips":30,"completionMinutes":45,"basePay":8,"maxBonus":9,"perTrialBonus":0.5,"perTrialBonusThreshold":0.1,"exampleCost":0.01},"classroomParams":{"A":{"a":1,"b":4},"B":{"a":4,"b":1},"C":{"a":2,"b":8},"D":{"a":8,"b":2}},"conditions":["nonSeqFull","nonSeqPartial","seqNoFeedback","seqFeedback"],"classroomPairings":[["A","B"],["C","D"]],"coinWeights":[0.2,0.5,0.8],"subjectId":"A10HW8JXM17XLD","assignmentId":"3T3IWE1XG790ITJ1DFM7O9IXXXZQTO","hitId":"341H3G5YF006USP7B7C868W97H9Z08","url":"https://gershmanlab.com/experiments/alicia/teaching/experiment/?hitId=341H3G5YF006USP7B7C868W97H9Z08&workerId=A10HW8JXM17XLD&assignmentId=3T3IWE1XG790ITJ1DFM7O9IXXXZQTO&a=XW3T8&tp_a=XW3T8&b=3T3IWE1XG790ITJ1DFM7O9IXXXZQTO&tp_b=3T3IWE1XG790ITJ1DFM7O9IXXXZQTO&c=365198&tp_c=365198","heads":4,"tails":1,"studentIndex":13,"studentTrueHypers":{"a":1,"b":4},"studentGuess":0.5,"delta":0,"totalExamples":5,"bonus":0.45,"bonusSoFar":1.92},{"rt":24802,"response":{"heads":"4","tails":"1"},"type":"response","condition":"nonSeqPartial","trueTheta":0.8,"classrooms":["A","B"],"studentTrueClassroom":"A","exampleSet":"first","trial_type":"survey-html-form","trial_index":124,"time_elapsed":3293476,"internal_node_id":"0.0-117.0-0.0","params":{"nStudents":24,"maxFlips":30,"completionMinutes":45,"basePay":8,"maxBonus":9,"perTrialBonus":0.5,"perTrialBonusThreshold":0.1,"exampleCost":0.01},"classroomParams":{"A":{"a":1,"b":4},"B":{"a":4,"b":1},"C":{"a":2,"b":8},"D":{"a":8,"b":2}},"conditions":["nonSeqFull","nonSeqPartial","seqNoFeedback","seqFeedback"],"classroomPairings":[["A","B"],["C","D"]],"coinWeights":[0.2,0.5,0.8],"subjectId":"A10HW8JXM17XLD","assignmentId":"3T3IWE1XG790ITJ1DFM7O9IXXXZQTO","hitId":"341H3G5YF006USP7B7C868W97H9Z08","url":"https://gershmanlab.com/experiments/alicia/teaching/experiment/?hitId=341H3G5YF006USP7B7C868W97H9Z08&workerId=A10HW8JXM17XLD&assignmentId=3T3IWE1XG790ITJ1DFM7O9IXXXZQTO&a=XW3T8&tp_a=XW3T8&b=3T3IWE1XG790ITJ1DFM7O9IXXXZQTO&tp_b=3T3IWE1XG790ITJ1DFM7O9IXXXZQTO&c=365198&tp_c=365198","heads":4,"tails":1,"studentIndex":14,"studentTrueHypers":{"a":1,"b":4},"studentGuess":0.5,"delta":0.30000000000000004,"totalExamples":5,"bonus":0,"bonusSoFar":1.92},{"rt":48308,"response":{"heads":"6","tails":"24"},"type":"response","condition":"nonSeqPartial","trueTheta":0.2,"classrooms":["A","B"],"studentTrueClassroom":"B","exampleSet":"first","trial_type":"survey-html-form","trial_index":130,"time_elapsed":3357594,"internal_node_id":"0.0-123.0-0.0","params":{"nStudents":24,"maxFlips":30,"completionMinutes":45,"basePay":8,"maxBonus":9,"perTrialBonus":0.5,"perTrialBonusThreshold":0.1,"exampleCost":0.01},"classroomParams":{"A":{"a":1,"b":4},"B":{"a":4,"b":1},"C":{"a":2,"b":8},"D":{"a":8,"b":2}},"conditions":["nonSeqFull","nonSeqPartial","seqNoFeedback","seqFeedback"],"classroomPairings":[["A","B"],["C","D"]],"coinWeights":[0.2,0.5,0.8],"subjectId":"A10HW8JXM17XLD","assignmentId":"3T3IWE1XG790ITJ1DFM7O9IXXXZQTO","hitId":"341H3G5YF006USP7B7C868W97H9Z08","url":"https://gershmanlab.com/experiments/alicia/teaching/experiment/?hitId=341H3G5YF006USP7B7C868W97H9Z08&workerId=A10HW8JXM17XLD&assignmentId=3T3IWE1XG790ITJ1DFM7O9IXXXZQTO&a=XW3T8&tp_a=XW3T8&b=3T3IWE1XG790ITJ1DFM7O9IXXXZQTO&tp_b=3T3IWE1XG790ITJ1DFM7O9IXXXZQTO&c=365198&tp_c=365198","heads":6,"tails":24,"studentIndex":15,"studentTrueHypers":{"a":4,"b":1},"studentGuess":0.2857142857142857,"delta":0.08571428571428569,"totalExamples":30,"bonus":0.2,"bonusSoFar":2.12},{"rt":26533,"response":{"heads":"1","tails":"4"},"type":"response","condition":"nonSeqFull","trueTheta":0.2,"classrooms":["C","D"],"studentTrueClassroom":"C","exampleSet":"first","trial_type":"survey-html-form","trial_index":136,"time_elapsed":3398283,"internal_node_id":"0.0-129.0-0.0","params":{"nStudents":24,"maxFlips":30,"completionMinutes":45,"basePay":8,"maxBonus":9,"perTrialBonus":0.5,"perTrialBonusThreshold":0.1,"exampleCost":0.01},"classroomParams":{"A":{"a":1,"b":4},"B":{"a":4,"b":1},"C":{"a":2,"b":8},"D":{"a":8,"b":2}},"conditions":["nonSeqFull","nonSeqPartial","seqNoFeedback","seqFeedback"],"classroomPairings":[["A","B"],["C","D"]],"coinWeights":[0.2,0.5,0.8],"subjectId":"A10HW8JXM17XLD","assignmentId":"3T3IWE1XG790ITJ1DFM7O9IXXXZQTO","hitId":"341H3G5YF006USP7B7C868W97H9Z08","url":"https://gershmanlab.com/experiments/alicia/teaching/experiment/?hitId=341H3G5YF006USP7B7C868W97H9Z08&workerId=A10HW8JXM17XLD&assignmentId=3T3IWE1XG790ITJ1DFM7O9IXXXZQTO&a=XW3T8&tp_a=XW3T8&b=3T3IWE1XG790ITJ1DFM7O9IXXXZQTO&tp_b=3T3IWE1XG790ITJ1DFM7O9IXXXZQTO&c=365198&tp_c=365198","heads":1,"tails":4,"studentIndex":16,"studentTrueHypers":{"a":2,"b":8},"studentGuess":0.2,"delta":0,"totalExamples":5,"bonus":0.45,"bonusSoFar":2.57},{"rt":98608,"response":{"heads":"3","tails":"12"},"type":"response","condition":"seqNoFeedback","trueTheta":0.2,"classrooms":["A","B"],"studentTrueClassroom":"A","exampleSet":"first","trial_type":"survey-html-form","trial_index":142,"time_elapsed":3512876,"internal_node_id":"0.0-135.0-0.0","params":{"nStudents":24,"maxFlips":30,"completionMinutes":45,"basePay":8,"maxBonus":9,"perTrialBonus":0.5,"perTrialBonusThreshold":0.1,"exampleCost":0.01},"classroomParams":{"A":{"a":1,"b":4},"B":{"a":4,"b":1},"C":{"a":2,"b":8},"D":{"a":8,"b":2}},"conditions":["nonSeqFull","nonSeqPartial","seqNoFeedback","seqFeedback"],"classroomPairings":[["A","B"],["C","D"]],"coinWeights":[0.2,0.5,0.8],"subjectId":"A10HW8JXM17XLD","assignmentId":"3T3IWE1XG790ITJ1DFM7O9IXXXZQTO","hitId":"341H3G5YF006USP7B7C868W97H9Z08","url":"https://gershmanlab.com/experiments/alicia/teaching/experiment/?hitId=341H3G5YF006USP7B7C868W97H9Z08&workerId=A10HW8JXM17XLD&assignmentId=3T3IWE1XG790ITJ1DFM7O9IXXXZQTO&a=XW3T8&tp_a=XW3T8&b=3T3IWE1XG790ITJ1DFM7O9IXXXZQTO&tp_b=3T3IWE1XG790ITJ1DFM7O9IXXXZQTO&c=365198&tp_c=365198","heads":3,"tails":12,"studentIndex":17,"studentTrueHypers":{"a":1,"b":4},"studentGuess":0.2,"delta":0,"totalExamples":15,"bonusSoFar":2.57},{"rt":17195,"response":{"heads":"3","tails":"12"},"type":"response","condition":"seqNoFeedback","trueTheta":0.2,"classrooms":["A","B"],"studentTrueClassroom":"A","exampleSet":"second","trial_type":"survey-html-form","trial_index":145,"time_elapsed":3535841,"internal_node_id":"0.0-138.0-0.0","params":{"nStudents":24,"maxFlips":30,"completionMinutes":45,"basePay":8,"maxBonus":9,"perTrialBonus":0.5,"perTrialBonusThreshold":0.1,"exampleCost":0.01},"classroomParams":{"A":{"a":1,"b":4},"B":{"a":4,"b":1},"C":{"a":2,"b":8},"D":{"a":8,"b":2}},"conditions":["nonSeqFull","nonSeqPartial","seqNoFeedback","seqFeedback"],"classroomPairings":[["A","B"],["C","D"]],"coinWeights":[0.2,0.5,0.8],"subjectId":"A10HW8JXM17XLD","assignmentId":"3T3IWE1XG790ITJ1DFM7O9IXXXZQTO","hitId":"341H3G5YF006USP7B7C868W97H9Z08","url":"https://gershmanlab.com/experiments/alicia/teaching/experiment/?hitId=341H3G5YF006USP7B7C868W97H9Z08&workerId=A10HW8JXM17XLD&assignmentId=3T3IWE1XG790ITJ1DFM7O9IXXXZQTO&a=XW3T8&tp_a=XW3T8&b=3T3IWE1XG790ITJ1DFM7O9IXXXZQTO&tp_b=3T3IWE1XG790ITJ1DFM7O9IXXXZQTO&c=365198&tp_c=365198","firstResponseHeads":3,"firstResponseTails":12,"secondResponseHeads":3,"secondResponseTails":12,"studentIndex":17,"studentTrueHypers":{"a":1,"b":4},"studentGuess":0.2,"delta":0,"bonus":0.2,"bonusSoFar":2.77,"totalExamples":30},{"rt":21062,"response":{"heads":"4","tails":"1"},"type":"response","condition":"nonSeqFull","trueTheta":0.5,"classrooms":["C","D"],"studentTrueClassroom":"C","exampleSet":"first","trial_type":"survey-html-form","trial_index":151,"time_elapsed":3571677,"internal_node_id":"0.0-144.0-0.0","params":{"nStudents":24,"maxFlips":30,"completionMinutes":45,"basePay":8,"maxBonus":9,"perTrialBonus":0.5,"perTrialBonusThreshold":0.1,"exampleCost":0.01},"classroomParams":{"A":{"a":1,"b":4},"B":{"a":4,"b":1},"C":{"a":2,"b":8},"D":{"a":8,"b":2}},"conditions":["nonSeqFull","nonSeqPartial","seqNoFeedback","seqFeedback"],"classroomPairings":[["A","B"],["C","D"]],"coinWeights":[0.2,0.5,0.8],"subjectId":"A10HW8JXM17XLD","assignmentId":"3T3IWE1XG790ITJ1DFM7O9IXXXZQTO","hitId":"341H3G5YF006USP7B7C868W97H9Z08","url":"https://gershmanlab.com/experiments/alicia/teaching/experiment/?hitId=341H3G5YF006USP7B7C868W97H9Z08&workerId=A10HW8JXM17XLD&assignmentId=3T3IWE1XG790ITJ1DFM7O9IXXXZQTO&a=XW3T8&tp_a=XW3T8&b=3T3IWE1XG790ITJ1DFM7O9IXXXZQTO&tp_b=3T3IWE1XG790ITJ1DFM7O9IXXXZQTO&c=365198&tp_c=365198","heads":4,"tails":1,"studentIndex":18,"studentTrueHypers":{"a":2,"b":8},"studentGuess":0.4,"delta":0.09999999999999998,"totalExamples":5,"bonus":0.45,"bonusSoFar":3.22},{"rt":92842,"response":{"heads":"24","tails":"6"},"type":"response","condition":"seqFeedback","trueTheta":0.8,"classrooms":["C","D"],"studentTrueClassroom":"D","exampleSet":"first","trial_type":"survey-html-form","trial_index":157,"time_elapsed":3678146,"internal_node_id":"0.0-150.0-0.0","params":{"nStudents":24,"maxFlips":30,"completionMinutes":45,"basePay":8,"maxBonus":9,"perTrialBonus":0.5,"perTrialBonusThreshold":0.1,"exampleCost":0.01},"classroomParams":{"A":{"a":1,"b":4},"B":{"a":4,"b":1},"C":{"a":2,"b":8},"D":{"a":8,"b":2}},"conditions":["nonSeqFull","nonSeqPartial","seqNoFeedback","seqFeedback"],"classroomPairings":[["A","B"],["C","D"]],"coinWeights":[0.2,0.5,0.8],"subjectId":"A10HW8JXM17XLD","assignmentId":"3T3IWE1XG790ITJ1DFM7O9IXXXZQTO","hitId":"341H3G5YF006USP7B7C868W97H9Z08","url":"https://gershmanlab.com/experiments/alicia/teaching/experiment/?hitId=341H3G5YF006USP7B7C868W97H9Z08&workerId=A10HW8JXM17XLD&assignmentId=3T3IWE1XG790ITJ1DFM7O9IXXXZQTO&a=XW3T8&tp_a=XW3T8&b=3T3IWE1XG790ITJ1DFM7O9IXXXZQTO&tp_b=3T3IWE1XG790ITJ1DFM7O9IXXXZQTO&c=365198&tp_c=365198","heads":24,"tails":6,"studentIndex":19,"studentTrueHypers":{"a":8,"b":2},"studentGuess":0.8,"delta":0,"totalExamples":30,"bonusSoFar":3.22},{"rt":14503,"response":{"heads":"8","tails":"2"},"type":"response","condition":"seqFeedback","trueTheta":0.8,"classrooms":["C","D"],"studentTrueClassroom":"D","exampleSet":"second","trial_type":"survey-html-form","trial_index":161,"time_elapsed":3707086,"internal_node_id":"0.0-154.0-0.0","params":{"nStudents":24,"maxFlips":30,"completionMinutes":45,"basePay":8,"maxBonus":9,"perTrialBonus":0.5,"perTrialBonusThreshold":0.1,"exampleCost":0.01},"classroomParams":{"A":{"a":1,"b":4},"B":{"a":4,"b":1},"C":{"a":2,"b":8},"D":{"a":8,"b":2}},"conditions":["nonSeqFull","nonSeqPartial","seqNoFeedback","seqFeedback"],"classroomPairings":[["A","B"],["C","D"]],"coinWeights":[0.2,0.5,0.8],"subjectId":"A10HW8JXM17XLD","assignmentId":"3T3IWE1XG790ITJ1DFM7O9IXXXZQTO","hitId":"341H3G5YF006USP7B7C868W97H9Z08","url":"https://gershmanlab.com/experiments/alicia/teaching/experiment/?hitId=341H3G5YF006USP7B7C868W97H9Z08&workerId=A10HW8JXM17XLD&assignmentId=3T3IWE1XG790ITJ1DFM7O9IXXXZQTO&a=XW3T8&tp_a=XW3T8&b=3T3IWE1XG790ITJ1DFM7O9IXXXZQTO&tp_b=3T3IWE1XG790ITJ1DFM7O9IXXXZQTO&c=365198&tp_c=365198","firstResponseHeads":24,"firstResponseTails":6,"secondResponseHeads":8,"secondResponseTails":2,"studentIndex":19,"studentTrueHypers":{"a":8,"b":2},"studentGuess":0.8,"delta":0,"bonus":0.1,"bonusSoFar":3.32,"totalExamples":40},{"rt":62516,"response":{"heads":"15","tails":"15"},"type":"response","condition":"seqFeedback","trueTheta":0.5,"classrooms":["C","D"],"studentTrueClassroom":"C","exampleSet":"first","trial_type":"survey-html-form","trial_index":167,"time_elapsed":3788701,"internal_node_id":"0.0-160.0-0.0","params":{"nStudents":24,"maxFlips":30,"completionMinutes":45,"basePay":8,"maxBonus":9,"perTrialBonus":0.5,"perTrialBonusThreshold":0.1,"exampleCost":0.01},"classroomParams":{"A":{"a":1,"b":4},"B":{"a":4,"b":1},"C":{"a":2,"b":8},"D":{"a":8,"b":2}},"conditions":["nonSeqFull","nonSeqPartial","seqNoFeedback","seqFeedback"],"classroomPairings":[["A","B"],["C","D"]],"coinWeights":[0.2,0.5,0.8],"subjectId":"A10HW8JXM17XLD","assignmentId":"3T3IWE1XG790ITJ1DFM7O9IXXXZQTO","hitId":"341H3G5YF006USP7B7C868W97H9Z08","url":"https://gershmanlab.com/experiments/alicia/teaching/experiment/?hitId=341H3G5YF006USP7B7C868W97H9Z08&workerId=A10HW8JXM17XLD&assignmentId=3T3IWE1XG790ITJ1DFM7O9IXXXZQTO&a=XW3T8&tp_a=XW3T8&b=3T3IWE1XG790ITJ1DFM7O9IXXXZQTO&tp_b=3T3IWE1XG790ITJ1DFM7O9IXXXZQTO&c=365198&tp_c=365198","heads":15,"tails":15,"studentIndex":20,"studentTrueHypers":{"a":2,"b":8},"studentGuess":0.425,"delta":0.07500000000000001,"totalExamples":30,"bonusSoFar":3.32},{"rt":62322,"response":{"heads":"8","tails":"2"},"type":"response","condition":"seqFeedback","trueTheta":0.5,"classrooms":["C","D"],"studentTrueClassroom":"C","exampleSet":"second","trial_type":"survey-html-form","trial_index":171,"time_elapsed":3863774,"internal_node_id":"0.0-164.0-0.0","params":{"nStudents":24,"maxFlips":30,"completionMinutes":45,"basePay":8,"maxBonus":9,"perTrialBonus":0.5,"perTrialBonusThreshold":0.1,"exampleCost":0.01},"classroomParams":{"A":{"a":1,"b":4},"B":{"a":4,"b":1},"C":{"a":2,"b":8},"D":{"a":8,"b":2}},"conditions":["nonSeqFull","nonSeqPartial","seqNoFeedback","seqFeedback"],"classroomPairings":[["A","B"],["C","D"]],"coinWeights":[0.2,0.5,0.8],"subjectId":"A10HW8JXM17XLD","assignmentId":"3T3IWE1XG790ITJ1DFM7O9IXXXZQTO","hitId":"341H3G5YF006USP7B7C868W97H9Z08","url":"https://gershmanlab.com/experiments/alicia/teaching/experiment/?hitId=341H3G5YF006USP7B7C868W97H9Z08&workerId=A10HW8JXM17XLD&assignmentId=3T3IWE1XG790ITJ1DFM7O9IXXXZQTO&a=XW3T8&tp_a=XW3T8&b=3T3IWE1XG790ITJ1DFM7O9IXXXZQTO&tp_b=3T3IWE1XG790ITJ1DFM7O9IXXXZQTO&c=365198&tp_c=365198","firstResponseHeads":15,"firstResponseTails":15,"secondResponseHeads":8,"secondResponseTails":2,"studentIndex":20,"studentTrueHypers":{"a":2,"b":8},"studentGuess":0.5,"delta":0,"bonus":0.1,"bonusSoFar":3.42,"totalExamples":40},{"rt":51059,"response":{"heads":"3","tails":"12"},"type":"response","condition":"seqFeedback","trueTheta":0.2,"classrooms":["C","D"],"studentTrueClassroom":"D","exampleSet":"first","trial_type":"survey-html-form","trial_index":177,"time_elapsed":3931285,"internal_node_id":"0.0-170.0-0.0","params":{"nStudents":24,"maxFlips":30,"completionMinutes":45,"basePay":8,"maxBonus":9,"perTrialBonus":0.5,"perTrialBonusThreshold":0.1,"exampleCost":0.01},"classroomParams":{"A":{"a":1,"b":4},"B":{"a":4,"b":1},"C":{"a":2,"b":8},"D":{"a":8,"b":2}},"conditions":["nonSeqFull","nonSeqPartial","seqNoFeedback","seqFeedback"],"classroomPairings":[["A","B"],["C","D"]],"coinWeights":[0.2,0.5,0.8],"subjectId":"A10HW8JXM17XLD","assignmentId":"3T3IWE1XG790ITJ1DFM7O9IXXXZQTO","hitId":"341H3G5YF006USP7B7C868W97H9Z08","url":"https://gershmanlab.com/experiments/alicia/teaching/experiment/?hitId=341H3G5YF006USP7B7C868W97H9Z08&workerId=A10HW8JXM17XLD&assignmentId=3T3IWE1XG790ITJ1DFM7O9IXXXZQTO&a=XW3T8&tp_a=XW3T8&b=3T3IWE1XG790ITJ1DFM7O9IXXXZQTO&tp_b=3T3IWE1XG790ITJ1DFM7O9IXXXZQTO&c=365198&tp_c=365198","heads":3,"tails":12,"studentIndex":21,"studentTrueHypers":{"a":8,"b":2},"studentGuess":0.44,"delta":0.24,"totalExamples":15,"bonusSoFar":3.42},{"rt":114176,"response":{"heads":"6","tails":"24"},"type":"response","condition":"seqFeedback","trueTheta":0.2,"classrooms":["C","D"],"studentTrueClassroom":"D","exampleSet":"second","trial_type":"survey-html-form","trial_index":181,"time_elapsed":4059928,"internal_node_id":"0.0-174.0-0.0","params":{"nStudents":24,"maxFlips":30,"completionMinutes":45,"basePay":8,"maxBonus":9,"perTrialBonus":0.5,"perTrialBonusThreshold":0.1,"exampleCost":0.01},"classroomParams":{"A":{"a":1,"b":4},"B":{"a":4,"b":1},"C":{"a":2,"b":8},"D":{"a":8,"b":2}},"conditions":["nonSeqFull","nonSeqPartial","seqNoFeedback","seqFeedback"],"classroomPairings":[["A","B"],["C","D"]],"coinWeights":[0.2,0.5,0.8],"subjectId":"A10HW8JXM17XLD","assignmentId":"3T3IWE1XG790ITJ1DFM7O9IXXXZQTO","hitId":"341H3G5YF006USP7B7C868W97H9Z08","url":"https://gershmanlab.com/experiments/alicia/teaching/experiment/?hitId=341H3G5YF006USP7B7C868W97H9Z08&workerId=A10HW8JXM17XLD&assignmentId=3T3IWE1XG790ITJ1DFM7O9IXXXZQTO&a=XW3T8&tp_a=XW3T8&b=3T3IWE1XG790ITJ1DFM7O9IXXXZQTO&tp_b=3T3IWE1XG790ITJ1DFM7O9IXXXZQTO&c=365198&tp_c=365198","firstResponseHeads":3,"firstResponseTails":12,"secondResponseHeads":6,"secondResponseTails":24,"studentIndex":21,"studentTrueHypers":{"a":8,"b":2},"studentGuess":0.3090909090909091,"delta":0.10909090909090907,"bonus":0,"bonusSoFar":3.42,"totalExamples":45},{"rt":62138,"response":{"heads":"18","tails":"12"},"type":"response","condition":"nonSeqPartial","trueTheta":0.8,"classrooms":["C","D"],"studentTrueClassroom":"D","exampleSet":"first","trial_type":"survey-html-form","trial_index":187,"time_elapsed":4139903,"internal_node_id":"0.0-180.0-0.0","params":{"nStudents":24,"maxFlips":30,"completionMinutes":45,"basePay":8,"maxBonus":9,"perTrialBonus":0.5,"perTrialBonusThreshold":0.1,"exampleCost":0.01},"classroomParams":{"A":{"a":1,"b":4},"B":{"a":4,"b":1},"C":{"a":2,"b":8},"D":{"a":8,"b":2}},"conditions":["nonSeqFull","nonSeqPartial","seqNoFeedback","seqFeedback"],"classroomPairings":[["A","B"],["C","D"]],"coinWeights":[0.2,0.5,0.8],"subjectId":"A10HW8JXM17XLD","assignmentId":"3T3IWE1XG790ITJ1DFM7O9IXXXZQTO","hitId":"341H3G5YF006USP7B7C868W97H9Z08","url":"https://gershmanlab.com/experiments/alicia/teaching/experiment/?hitId=341H3G5YF006USP7B7C868W97H9Z08&workerId=A10HW8JXM17XLD&assignmentId=3T3IWE1XG790ITJ1DFM7O9IXXXZQTO&a=XW3T8&tp_a=XW3T8&b=3T3IWE1XG790ITJ1DFM7O9IXXXZQTO&tp_b=3T3IWE1XG790ITJ1DFM7O9IXXXZQTO&c=365198&tp_c=365198","heads":18,"tails":12,"studentIndex":22,"studentTrueHypers":{"a":8,"b":2},"studentGuess":0.65,"delta":0.15000000000000002,"totalExamples":30,"bonus":0,"bonusSoFar":3.42},{"rt":32863,"response":{"heads":"6","tails":"24"},"type":"response","condition":"nonSeqPartial","trueTheta":0.2,"classrooms":["C","D"],"studentTrueClassroom":"D","exampleSet":"first","trial_type":"survey-html-form","trial_index":193,"time_elapsed":4188236,"internal_node_id":"0.0-186.0-0.0","params":{"nStudents":24,"maxFlips":30,"completionMinutes":45,"basePay":8,"maxBonus":9,"perTrialBonus":0.5,"perTrialBonusThreshold":0.1,"exampleCost":0.01},"classroomParams":{"A":{"a":1,"b":4},"B":{"a":4,"b":1},"C":{"a":2,"b":8},"D":{"a":8,"b":2}},"conditions":["nonSeqFull","nonSeqPartial","seqNoFeedback","seqFeedback"],"classroomPairings":[["A","B"],["C","D"]],"coinWeights":[0.2,0.5,0.8],"subjectId":"A10HW8JXM17XLD","assignmentId":"3T3IWE1XG790ITJ1DFM7O9IXXXZQTO","hitId":"341H3G5YF006USP7B7C868W97H9Z08","url":"https://gershmanlab.com/experiments/alicia/teaching/experiment/?hitId=341H3G5YF006USP7B7C868W97H9Z08&workerId=A10HW8JXM17XLD&assignmentId=3T3IWE1XG790ITJ1DFM7O9IXXXZQTO&a=XW3T8&tp_a=XW3T8&b=3T3IWE1XG790ITJ1DFM7O9IXXXZQTO&tp_b=3T3IWE1XG790ITJ1DFM7O9IXXXZQTO&c=365198&tp_c=365198","heads":6,"tails":24,"studentIndex":23,"studentTrueHypers":{"a":8,"b":2},"studentGuess":0.35,"delta":0.14999999999999997,"totalExamples":30,"bonus":0,"bonusSoFar":3.42},{"rt":38178,"response":{"gender":"female","age":"42","understood":"yes","comments":"This task was very challenging but also fun and engaging. Thanks for the opportunity to participate. "},"type":"response","trial_type":"survey-html-form","trial_index":197,"time_elapsed":4235989,"internal_node_id":"0.0-191.0","params":{"nStudents":24,"maxFlips":30,"completionMinutes":45,"basePay":8,"maxBonus":9,"perTrialBonus":0.5,"perTrialBonusThreshold":0.1,"exampleCost":0.01},"classroomParams":{"A":{"a":1,"b":4},"B":{"a":4,"b":1},"C":{"a":2,"b":8},"D":{"a":8,"b":2}},"conditions":["nonSeqFull","nonSeqPartial","seqNoFeedback","seqFeedback"],"classroomPairings":[["A","B"],["C","D"]],"coinWeights":[0.2,0.5,0.8],"subjectId":"A10HW8JXM17XLD","assignmentId":"3T3IWE1XG790ITJ1DFM7O9IXXXZQTO","hitId":"341H3G5YF006USP7B7C868W97H9Z08","url":"https://gershmanlab.com/experiments/alicia/teaching/experiment/?hitId=341H3G5YF006USP7B7C868W97H9Z08&workerId=A10HW8JXM17XLD&assignmentId=3T3IWE1XG790ITJ1DFM7O9IXXXZQTO&a=XW3T8&tp_a=XW3T8&b=3T3IWE1XG790ITJ1DFM7O9IXXXZQTO&tp_b=3T3IWE1XG790ITJ1DFM7O9IXXXZQTO&c=365198&tp_c=365198","totalBonus":3.42}]