[{"rt":19604,"response":{"heads":"3","tails":"2"},"type":"response","condition":"nonSeqFull","trueTheta":0.8,"classrooms":["C","D"],"studentTrueClassroom":"D","exampleSet":"first","trial_type":"survey-html-form","trial_index":7,"time_elapsed":530205,"internal_node_id":"0.0-6.0-0.0","params":{"nStudents":24,"maxFlips":30,"completionMinutes":45,"basePay":8,"maxBonus":9,"perTrialBonus":0.5,"perTrialBonusThreshold":0.1,"exampleCost":0.01},"classroomParams":{"A":{"a":1,"b":4},"B":{"a":4,"b":1},"C":{"a":2,"b":8},"D":{"a":8,"b":2}},"conditions":["nonSeqFull","nonSeqPartial","seqNoFeedback","seqFeedback"],"classroomPairings":[["A","B"],["C","D"]],"coinWeights":[0.2,0.5,0.8],"subjectId":"A12FTSX85NQ8N9","assignmentId":"3VJ40NV2QJ9XXH6LY2U3Z4NXIWHTOJ","hitId":"3H6W48L9F4B5OEOMH57RM53ZYNHWPM","url":"https://gershmanlab.com/experiments/alicia/teaching/experiment/?hitId=3H6W48L9F4B5OEOMH57RM53ZYNHWPM&workerId=A12FTSX85NQ8N9&assignmentId=3VJ40NV2QJ9XXH6LY2U3Z4NXIWHTOJ&a=20JV8&tp_a=20JV8&b=3VJ40NV2QJ9XXH6LY2U3Z4NXIWHTOJ&tp_b=3VJ40NV2QJ9XXH6LY2U3Z4NXIWHTOJ&c=365198&tp_c=365198","heads":3,"tails":2,"studentIndex":0,"studentTrueHypers":{"a":8,"b":2},"studentGuess":0.7333333333333333,"delta":0.06666666666666676,"totalExamples":5,"bonus":0.45,"bonusSoFar":0.45},{"rt":17663,"response":{"heads":"5","tails":"5"},"type":"response","condition":"nonSeqPartial","trueTheta":0.5,"classrooms":["A","B"],"studentTrueClassroom":"A","exampleSet":"first","trial_type":"survey-html-form","trial_index":13,"time_elapsed":565904,"internal_node_id":"0.0-12.0-0.0","params":{"nStudents":24,"maxFlips":30,"completionMinutes":45,"basePay":8,"maxBonus":9,"perTrialBonus":0.5,"perTrialBonusThreshold":0.1,"exampleCost":0.01},"classroomParams":{"A":{"a":1,"b":4},"B":{"a":4,"b":1},"C":{"a":2,"b":8},"D":{"a":8,"b":2}},"conditions":["nonSeqFull","nonSeqPartial","seqNoFeedback","seqFeedback"],"classroomPairings":[["A","B"],["C","D"]],"coinWeights":[0.2,0.5,0.8],"subjectId":"A12FTSX85NQ8N9","assignmentId":"3VJ40NV2QJ9XXH6LY2U3Z4NXIWHTOJ","hitId":"3H6W48L9F4B5OEOMH57RM53ZYNHWPM","url":"https://gershmanlab.com/experiments/alicia/teaching/experiment/?hitId=3H6W48L9F4B5OEOMH57RM53ZYNHWPM&workerId=A12FTSX85NQ8N9&assignmentId=3VJ40NV2QJ9XXH6LY2U3Z4NXIWHTOJ&a=20JV8&tp_a=20JV8&b=3VJ40NV2QJ9XXH6LY2U3Z4NXIWHTOJ&tp_b=3VJ40NV2QJ9XXH6LY2U3Z4NXIWHTOJ&c=365198&tp_c=365198","heads":5,"tails":5,"studentIndex":1,"studentTrueHypers":{"a":1,"b":4},"studentGuess":0.4,"delta":0.09999999999999998,"totalExamples":10,"bonus":0.4,"bonusSoFar":0.85},{"rt":13038,"response":{"heads":"3","tails":"2"},"type":"response","condition":"seqFeedback","trueTheta":0.8,"classrooms":["A","B"],"studentTrueClassroom":"B","exampleSet":"first","trial_type":"survey-html-form","trial_index":19,"time_elapsed":594856,"internal_node_id":"0.0-18.0-0.0","params":{"nStudents":24,"maxFlips":30,"completionMinutes":45,"basePay":8,"maxBonus":9,"perTrialBonus":0.5,"perTrialBonusThreshold":0.1,"exampleCost":0.01},"classroomParams":{"A":{"a":1,"b":4},"B":{"a":4,"b":1},"C":{"a":2,"b":8},"D":{"a":8,"b":2}},"conditions":["nonSeqFull","nonSeqPartial","seqNoFeedback","seqFeedback"],"classroomPairings":[["A","B"],["C","D"]],"coinWeights":[0.2,0.5,0.8],"subjectId":"A12FTSX85NQ8N9","assignmentId":"3VJ40NV2QJ9XXH6LY2U3Z4NXIWHTOJ","hitId":"3H6W48L9F4B5OEOMH57RM53ZYNHWPM","url":"https://gershmanlab.com/experiments/alicia/teaching/experiment/?hitId=3H6W48L9F4B5OEOMH57RM53ZYNHWPM&workerId=A12FTSX85NQ8N9&assignmentId=3VJ40NV2QJ9XXH6LY2U3Z4NXIWHTOJ&a=20JV8&tp_a=20JV8&b=3VJ40NV2QJ9XXH6LY2U3Z4NXIWHTOJ&tp_b=3VJ40NV2QJ9XXH6LY2U3Z4NXIWHTOJ&c=365198&tp_c=365198","heads":3,"tails":2,"studentIndex":2,"studentTrueHypers":{"a":4,"b":1},"studentGuess":0.7,"delta":0.10000000000000009,"totalExamples":5,"bonusSoFar":0.85},{"rt":7674,"response":{"heads":"3","tails":"2"},"type":"response","condition":"seqFeedback","trueTheta":0.8,"classrooms":["A","B"],"studentTrueClassroom":"B","exampleSet":"second","trial_type":"survey-html-form","trial_index":23,"time_elapsed":611200,"internal_node_id":"0.0-22.0-0.0","params":{"nStudents":24,"maxFlips":30,"completionMinutes":45,"basePay":8,"maxBonus":9,"perTrialBonus":0.5,"perTrialBonusThreshold":0.1,"exampleCost":0.01},"classroomParams":{"A":{"a":1,"b":4},"B":{"a":4,"b":1},"C":{"a":2,"b":8},"D":{"a":8,"b":2}},"conditions":["nonSeqFull","nonSeqPartial","seqNoFeedback","seqFeedback"],"classroomPairings":[["A","B"],["C","D"]],"coinWeights":[0.2,0.5,0.8],"subjectId":"A12FTSX85NQ8N9","assignmentId":"3VJ40NV2QJ9XXH6LY2U3Z4NXIWHTOJ","hitId":"3H6W48L9F4B5OEOMH57RM53ZYNHWPM","url":"https://gershmanlab.com/experiments/alicia/teaching/experiment/?hitId=3H6W48L9F4B5OEOMH57RM53ZYNHWPM&workerId=A12FTSX85NQ8N9&assignmentId=3VJ40NV2QJ9XXH6LY2U3Z4NXIWHTOJ&a=20JV8&tp_a=20JV8&b=3VJ40NV2QJ9XXH6LY2U3Z4NXIWHTOJ&tp_b=3VJ40NV2QJ9XXH6LY2U3Z4NXIWHTOJ&c=365198&tp_c=365198","firstResponseHeads":3,"firstResponseTails":2,"secondResponseHeads":3,"secondResponseTails":2,"studentIndex":2,"studentTrueHypers":{"a":4,"b":1},"studentGuess":0.6666666666666666,"delta":0.13333333333333341,"bonus":0,"bonusSoFar":0.85,"totalExamples":10},{"rt":6408,"response":{"heads":"5","tails":"5"},"type":"response","condition":"nonSeqPartial","trueTheta":0.5,"classrooms":["C","D"],"studentTrueClassroom":"C","exampleSet":"first","trial_type":"survey-html-form","trial_index":29,"time_elapsed":631925,"internal_node_id":"0.0-28.0-0.0","params":{"nStudents":24,"maxFlips":30,"completionMinutes":45,"basePay":8,"maxBonus":9,"perTrialBonus":0.5,"perTrialBonusThreshold":0.1,"exampleCost":0.01},"classroomParams":{"A":{"a":1,"b":4},"B":{"a":4,"b":1},"C":{"a":2,"b":8},"D":{"a":8,"b":2}},"conditions":["nonSeqFull","nonSeqPartial","seqNoFeedback","seqFeedback"],"classroomPairings":[["A","B"],["C","D"]],"coinWeights":[0.2,0.5,0.8],"subjectId":"A12FTSX85NQ8N9","assignmentId":"3VJ40NV2QJ9XXH6LY2U3Z4NXIWHTOJ","hitId":"3H6W48L9F4B5OEOMH57RM53ZYNHWPM","url":"https://gershmanlab.com/experiments/alicia/teaching/experiment/?hitId=3H6W48L9F4B5OEOMH57RM53ZYNHWPM&workerId=A12FTSX85NQ8N9&assignmentId=3VJ40NV2QJ9XXH6LY2U3Z4NXIWHTOJ&a=20JV8&tp_a=20JV8&b=3VJ40NV2QJ9XXH6LY2U3Z4NXIWHTOJ&tp_b=3VJ40NV2QJ9XXH6LY2U3Z4NXIWHTOJ&c=365198&tp_c=365198","heads":5,"tails":5,"studentIndex":3,"studentTrueHypers":{"a":2,"b":8},"studentGuess":0.35,"delta":0.15000000000000002,"totalExamples":10,"bonus":0,"bonusSoFar":0.85},{"rt":8458,"response":{"heads":"5","tails":"5"},"type":"response","condition":"seqFeedback","trueTheta":0.5,"classrooms":["C","D"],"studentTrueClassroom":"D","exampleSet":"first","trial_type":"survey-html-form","trial_index":35,"time_elapsed":654755,"internal_node_id":"0.0-34.0-0.0","params":{"nStudents":24,"maxFlips":30,"completionMinutes":45,"basePay":8,"maxBonus":9,"perTrialBonus":0.5,"perTrialBonusThreshold":0.1,"exampleCost":0.01},"classroomParams":{"A":{"a":1,"b":4},"B":{"a":4,"b":1},"C":{"a":2,"b":8},"D":{"a":8,"b":2}},"conditions":["nonSeqFull","nonSeqPartial","seqNoFeedback","seqFeedback"],"classroomPairings":[["A","B"],["C","D"]],"coinWeights":[0.2,0.5,0.8],"subjectId":"A12FTSX85NQ8N9","assignmentId":"3VJ40NV2QJ9XXH6LY2U3Z4NXIWHTOJ","hitId":"3H6W48L9F4B5OEOMH57RM53ZYNHWPM","url":"https://gershmanlab.com/experiments/alicia/teaching/experiment/?hitId=3H6W48L9F4B5OEOMH57RM53ZYNHWPM&workerId=A12FTSX85NQ8N9&assignmentId=3VJ40NV2QJ9XXH6LY2U3Z4NXIWHTOJ&a=20JV8&tp_a=20JV8&b=3VJ40NV2QJ9XXH6LY2U3Z4NXIWHTOJ&tp_b=3VJ40NV2QJ9XXH6LY2U3Z4NXIWHTOJ&c=365198&tp_c=365198","heads":5,"tails":5,"studentIndex":4,"studentTrueHypers":{"a":8,"b":2},"studentGuess":0.65,"delta":0.15000000000000002,"totalExamples":10,"bonusSoFar":0.85},{"rt":3204,"response":{"heads":"5","tails":"5"},"type":"response","condition":"seqFeedback","trueTheta":0.5,"classrooms":["C","D"],"studentTrueClassroom":"D","exampleSet":"second","trial_type":"survey-html-form","trial_index":39,"time_elapsed":667242,"internal_node_id":"0.0-38.0-0.0","params":{"nStudents":24,"maxFlips":30,"completionMinutes":45,"basePay":8,"maxBonus":9,"perTrialBonus":0.5,"perTrialBonusThreshold":0.1,"exampleCost":0.01},"classroomParams":{"A":{"a":1,"b":4},"B":{"a":4,"b":1},"C":{"a":2,"b":8},"D":{"a":8,"b":2}},"conditions":["nonSeqFull","nonSeqPartial","seqNoFeedback","seqFeedback"],"classroomPairings":[["A","B"],["C","D"]],"coinWeights":[0.2,0.5,0.8],"subjectId":"A12FTSX85NQ8N9","assignmentId":"3VJ40NV2QJ9XXH6LY2U3Z4NXIWHTOJ","hitId":"3H6W48L9F4B5OEOMH57RM53ZYNHWPM","url":"https://gershmanlab.com/experiments/alicia/teaching/experiment/?hitId=3H6W48L9F4B5OEOMH57RM53ZYNHWPM&workerId=A12FTSX85NQ8N9&assignmentId=3VJ40NV2QJ9XXH6LY2U3Z4NXIWHTOJ&a=20JV8&tp_a=20JV8&b=3VJ40NV2QJ9XXH6LY2U3Z4NXIWHTOJ&tp_b=3VJ40NV2QJ9XXH6LY2U3Z4NXIWHTOJ&c=365198&tp_c=365198","firstResponseHeads":5,"firstResponseTails":5,"secondResponseHeads":5,"secondResponseTails":5,"studentIndex":4,"studentTrueHypers":{"a":8,"b":2},"studentGuess":0.6,"delta":0.09999999999999998,"bonus":0.3,"bonusSoFar":1.15,"totalExamples":20},{"rt":13010,"response":{"heads":"2","tails":"8"},"type":"response","condition":"nonSeqPartial","trueTheta":0.2,"classrooms":["A","B"],"studentTrueClassroom":"A","exampleSet":"first","trial_type":"survey-html-form","trial_index":45,"time_elapsed":698799,"internal_node_id":"0.0-44.0-0.0","params":{"nStudents":24,"maxFlips":30,"completionMinutes":45,"basePay":8,"maxBonus":9,"perTrialBonus":0.5,"perTrialBonusThreshold":0.1,"exampleCost":0.01},"classroomParams":{"A":{"a":1,"b":4},"B":{"a":4,"b":1},"C":{"a":2,"b":8},"D":{"a":8,"b":2}},"conditions":["nonSeqFull","nonSeqPartial","seqNoFeedback","seqFeedback"],"classroomPairings":[["A","B"],["C","D"]],"coinWeights":[0.2,0.5,0.8],"subjectId":"A12FTSX85NQ8N9","assignmentId":"3VJ40NV2QJ9XXH6LY2U3Z4NXIWHTOJ","hitId":"3H6W48L9F4B5OEOMH57RM53ZYNHWPM","url":"https://gershmanlab.com/experiments/alicia/teaching/experiment/?hitId=3H6W48L9F4B5OEOMH57RM53ZYNHWPM&workerId=A12FTSX85NQ8N9&assignmentId=3VJ40NV2QJ9XXH6LY2U3Z4NXIWHTOJ&a=20JV8&tp_a=20JV8&b=3VJ40NV2QJ9XXH6LY2U3Z4NXIWHTOJ&tp_b=3VJ40NV2QJ9XXH6LY2U3Z4NXIWHTOJ&c=365198&tp_c=365198","heads":2,"tails":8,"studentIndex":5,"studentTrueHypers":{"a":1,"b":4},"studentGuess":0.2,"delta":0,"totalExamples":10,"bonus":0.4,"bonusSoFar":1.55},{"rt":15764,"response":{"heads":"8","tails":"2"},"type":"response","condition":"seqNoFeedback","trueTheta":0.8,"classrooms":["C","D"],"studentTrueClassroom":"D","exampleSet":"first","trial_type":"survey-html-form","trial_index":51,"time_elapsed":730041,"internal_node_id":"0.0-50.0-0.0","params":{"nStudents":24,"maxFlips":30,"completionMinutes":45,"basePay":8,"maxBonus":9,"perTrialBonus":0.5,"perTrialBonusThreshold":0.1,"exampleCost":0.01},"classroomParams":{"A":{"a":1,"b":4},"B":{"a":4,"b":1},"C":{"a":2,"b":8},"D":{"a":8,"b":2}},"conditions":["nonSeqFull","nonSeqPartial","seqNoFeedback","seqFeedback"],"classroomPairings":[["A","B"],["C","D"]],"coinWeights":[0.2,0.5,0.8],"subjectId":"A12FTSX85NQ8N9","assignmentId":"3VJ40NV2QJ9XXH6LY2U3Z4NXIWHTOJ","hitId":"3H6W48L9F4B5OEOMH57RM53ZYNHWPM","url":"https://gershmanlab.com/experiments/alicia/teaching/experiment/?hitId=3H6W48L9F4B5OEOMH57RM53ZYNHWPM&workerId=A12FTSX85NQ8N9&assignmentId=3VJ40NV2QJ9XXH6LY2U3Z4NXIWHTOJ&a=20JV8&tp_a=20JV8&b=3VJ40NV2QJ9XXH6LY2U3Z4NXIWHTOJ&tp_b=3VJ40NV2QJ9XXH6LY2U3Z4NXIWHTOJ&c=365198&tp_c=365198","heads":8,"tails":2,"studentIndex":6,"studentTrueHypers":{"a":8,"b":2},"studentGuess":0.8,"delta":0,"totalExamples":10,"bonusSoFar":1.55},{"rt":12289,"response":{"heads":"3","tails":"2"},"type":"response","condition":"seqNoFeedback","trueTheta":0.8,"classrooms":["C","D"],"studentTrueClassroom":"D","exampleSet":"second","trial_type":"survey-html-form","trial_index":54,"time_elapsed":748601,"internal_node_id":"0.0-53.0-0.0","params":{"nStudents":24,"maxFlips":30,"completionMinutes":45,"basePay":8,"maxBonus":9,"perTrialBonus":0.5,"perTrialBonusThreshold":0.1,"exampleCost":0.01},"classroomParams":{"A":{"a":1,"b":4},"B":{"a":4,"b":1},"C":{"a":2,"b":8},"D":{"a":8,"b":2}},"conditions":["nonSeqFull","nonSeqPartial","seqNoFeedback","seqFeedback"],"classroomPairings":[["A","B"],["C","D"]],"coinWeights":[0.2,0.5,0.8],"subjectId":"A12FTSX85NQ8N9","assignmentId":"3VJ40NV2QJ9XXH6LY2U3Z4NXIWHTOJ","hitId":"3H6W48L9F4B5OEOMH57RM53ZYNHWPM","url":"https://gershmanlab.com/experiments/alicia/teaching/experiment/?hitId=3H6W48L9F4B5OEOMH57RM53ZYNHWPM&workerId=A12FTSX85NQ8N9&assignmentId=3VJ40NV2QJ9XXH6LY2U3Z4NXIWHTOJ&a=20JV8&tp_a=20JV8&b=3VJ40NV2QJ9XXH6LY2U3Z4NXIWHTOJ&tp_b=3VJ40NV2QJ9XXH6LY2U3Z4NXIWHTOJ&c=365198&tp_c=365198","firstResponseHeads":8,"firstResponseTails":2,"secondResponseHeads":3,"secondResponseTails":2,"studentIndex":6,"studentTrueHypers":{"a":8,"b":2},"studentGuess":0.76,"delta":0.040000000000000036,"bonus":0.35,"bonusSoFar":1.9,"totalExamples":15},{"rt":4009,"response":{"heads":"2","tails":"8"},"type":"response","condition":"seqNoFeedback","trueTheta":0.2,"classrooms":["C","D"],"studentTrueClassroom":"D","exampleSet":"first","trial_type":"survey-html-form","trial_index":60,"time_elapsed":768851,"internal_node_id":"0.0-59.0-0.0","params":{"nStudents":24,"maxFlips":30,"completionMinutes":45,"basePay":8,"maxBonus":9,"perTrialBonus":0.5,"perTrialBonusThreshold":0.1,"exampleCost":0.01},"classroomParams":{"A":{"a":1,"b":4},"B":{"a":4,"b":1},"C":{"a":2,"b":8},"D":{"a":8,"b":2}},"conditions":["nonSeqFull","nonSeqPartial","seqNoFeedback","seqFeedback"],"classroomPairings":[["A","B"],["C","D"]],"coinWeights":[0.2,0.5,0.8],"subjectId":"A12FTSX85NQ8N9","assignmentId":"3VJ40NV2QJ9XXH6LY2U3Z4NXIWHTOJ","hitId":"3H6W48L9F4B5OEOMH57RM53ZYNHWPM","url":"https://gershmanlab.com/experiments/alicia/teaching/experiment/?hitId=3H6W48L9F4B5OEOMH57RM53ZYNHWPM&workerId=A12FTSX85NQ8N9&assignmentId=3VJ40NV2QJ9XXH6LY2U3Z4NXIWHTOJ&a=20JV8&tp_a=20JV8&b=3VJ40NV2QJ9XXH6LY2U3Z4NXIWHTOJ&tp_b=3VJ40NV2QJ9XXH6LY2U3Z4NXIWHTOJ&c=365198&tp_c=365198","heads":2,"tails":8,"studentIndex":7,"studentTrueHypers":{"a":8,"b":2},"studentGuess":0.5,"delta":0.3,"totalExamples":10,"bonusSoFar":1.9},{"rt":6012,"response":{"heads":"2","tails":"8"},"type":"response","condition":"seqNoFeedback","trueTheta":0.2,"classrooms":["C","D"],"studentTrueClassroom":"D","exampleSet":"second","trial_type":"survey-html-form","trial_index":63,"time_elapsed":781379,"internal_node_id":"0.0-62.0-0.0","params":{"nStudents":24,"maxFlips":30,"completionMinutes":45,"basePay":8,"maxBonus":9,"perTrialBonus":0.5,"perTrialBonusThreshold":0.1,"exampleCost":0.01},"classroomParams":{"A":{"a":1,"b":4},"B":{"a":4,"b":1},"C":{"a":2,"b":8},"D":{"a":8,"b":2}},"conditions":["nonSeqFull","nonSeqPartial","seqNoFeedback","seqFeedback"],"classroomPairings":[["A","B"],["C","D"]],"coinWeights":[0.2,0.5,0.8],"subjectId":"A12FTSX85NQ8N9","assignmentId":"3VJ40NV2QJ9XXH6LY2U3Z4NXIWHTOJ","hitId":"3H6W48L9F4B5OEOMH57RM53ZYNHWPM","url":"https://gershmanlab.com/experiments/alicia/teaching/experiment/?hitId=3H6W48L9F4B5OEOMH57RM53ZYNHWPM&workerId=A12FTSX85NQ8N9&assignmentId=3VJ40NV2QJ9XXH6LY2U3Z4NXIWHTOJ&a=20JV8&tp_a=20JV8&b=3VJ40NV2QJ9XXH6LY2U3Z4NXIWHTOJ&tp_b=3VJ40NV2QJ9XXH6LY2U3Z4NXIWHTOJ&c=365198&tp_c=365198","firstResponseHeads":2,"firstResponseTails":8,"secondResponseHeads":2,"secondResponseTails":8,"studentIndex":7,"studentTrueHypers":{"a":8,"b":2},"studentGuess":0.4,"delta":0.2,"bonus":0,"bonusSoFar":1.9,"totalExamples":20},{"rt":5199,"response":{"heads":"8","tails":"2"},"type":"response","condition":"nonSeqPartial","trueTheta":0.8,"classrooms":["C","D"],"studentTrueClassroom":"D","exampleSet":"first","trial_type":"survey-html-form","trial_index":69,"time_elapsed":799308,"internal_node_id":"0.0-68.0-0.0","params":{"nStudents":24,"maxFlips":30,"completionMinutes":45,"basePay":8,"maxBonus":9,"perTrialBonus":0.5,"perTrialBonusThreshold":0.1,"exampleCost":0.01},"classroomParams":{"A":{"a":1,"b":4},"B":{"a":4,"b":1},"C":{"a":2,"b":8},"D":{"a":8,"b":2}},"conditions":["nonSeqFull","nonSeqPartial","seqNoFeedback","seqFeedback"],"classroomPairings":[["A","B"],["C","D"]],"coinWeights":[0.2,0.5,0.8],"subjectId":"A12FTSX85NQ8N9","assignmentId":"3VJ40NV2QJ9XXH6LY2U3Z4NXIWHTOJ","hitId":"3H6W48L9F4B5OEOMH57RM53ZYNHWPM","url":"https://gershmanlab.com/experiments/alicia/teaching/experiment/?hitId=3H6W48L9F4B5OEOMH57RM53ZYNHWPM&workerId=A12FTSX85NQ8N9&assignmentId=3VJ40NV2QJ9XXH6LY2U3Z4NXIWHTOJ&a=20JV8&tp_a=20JV8&b=3VJ40NV2QJ9XXH6LY2U3Z4NXIWHTOJ&tp_b=3VJ40NV2QJ9XXH6LY2U3Z4NXIWHTOJ&c=365198&tp_c=365198","heads":8,"tails":2,"studentIndex":8,"studentTrueHypers":{"a":8,"b":2},"studentGuess":0.8,"delta":0,"totalExamples":10,"bonus":0.4,"bonusSoFar":2.3},{"rt":6410,"response":{"heads":"8","tails":"2"},"type":"response","condition":"nonSeqPartial","trueTheta":0.8,"classrooms":["A","B"],"studentTrueClassroom":"B","exampleSet":"first","trial_type":"survey-html-form","trial_index":75,"time_elapsed":822985,"internal_node_id":"0.0-74.0-0.0","params":{"nStudents":24,"maxFlips":30,"completionMinutes":45,"basePay":8,"maxBonus":9,"perTrialBonus":0.5,"perTrialBonusThreshold":0.1,"exampleCost":0.01},"classroomParams":{"A":{"a":1,"b":4},"B":{"a":4,"b":1},"C":{"a":2,"b":8},"D":{"a":8,"b":2}},"conditions":["nonSeqFull","nonSeqPartial","seqNoFeedback","seqFeedback"],"classroomPairings":[["A","B"],["C","D"]],"coinWeights":[0.2,0.5,0.8],"subjectId":"A12FTSX85NQ8N9","assignmentId":"3VJ40NV2QJ9XXH6LY2U3Z4NXIWHTOJ","hitId":"3H6W48L9F4B5OEOMH57RM53ZYNHWPM","url":"https://gershmanlab.com/experiments/alicia/teaching/experiment/?hitId=3H6W48L9F4B5OEOMH57RM53ZYNHWPM&workerId=A12FTSX85NQ8N9&assignmentId=3VJ40NV2QJ9XXH6LY2U3Z4NXIWHTOJ&a=20JV8&tp_a=20JV8&b=3VJ40NV2QJ9XXH6LY2U3Z4NXIWHTOJ&tp_b=3VJ40NV2QJ9XXH6LY2U3Z4NXIWHTOJ&c=365198&tp_c=365198","heads":8,"tails":2,"studentIndex":9,"studentTrueHypers":{"a":4,"b":1},"studentGuess":0.8,"delta":0,"totalExamples":10,"bonus":0.4,"bonusSoFar":2.7},{"rt":12169,"response":{"heads":"8","tails":"2"},"type":"response","condition":"nonSeqFull","trueTheta":0.8,"classrooms":["A","B"],"studentTrueClassroom":"B","exampleSet":"first","trial_type":"survey-html-form","trial_index":81,"time_elapsed":849998,"internal_node_id":"0.0-80.0-0.0","params":{"nStudents":24,"maxFlips":30,"completionMinutes":45,"basePay":8,"maxBonus":9,"perTrialBonus":0.5,"perTrialBonusThreshold":0.1,"exampleCost":0.01},"classroomParams":{"A":{"a":1,"b":4},"B":{"a":4,"b":1},"C":{"a":2,"b":8},"D":{"a":8,"b":2}},"conditions":["nonSeqFull","nonSeqPartial","seqNoFeedback","seqFeedback"],"classroomPairings":[["A","B"],["C","D"]],"coinWeights":[0.2,0.5,0.8],"subjectId":"A12FTSX85NQ8N9","assignmentId":"3VJ40NV2QJ9XXH6LY2U3Z4NXIWHTOJ","hitId":"3H6W48L9F4B5OEOMH57RM53ZYNHWPM","url":"https://gershmanlab.com/experiments/alicia/teaching/experiment/?hitId=3H6W48L9F4B5OEOMH57RM53ZYNHWPM&workerId=A12FTSX85NQ8N9&assignmentId=3VJ40NV2QJ9XXH6LY2U3Z4NXIWHTOJ&a=20JV8&tp_a=20JV8&b=3VJ40NV2QJ9XXH6LY2U3Z4NXIWHTOJ&tp_b=3VJ40NV2QJ9XXH6LY2U3Z4NXIWHTOJ&c=365198&tp_c=365198","heads":8,"tails":2,"studentIndex":10,"studentTrueHypers":{"a":4,"b":1},"studentGuess":0.8,"delta":0,"totalExamples":10,"bonus":0.4,"bonusSoFar":3.1},{"rt":5559,"response":{"heads":"2","tails":"8"},"type":"response","condition":"seqNoFeedback","trueTheta":0.2,"classrooms":["A","B"],"studentTrueClassroom":"B","exampleSet":"first","trial_type":"survey-html-form","trial_index":87,"time_elapsed":867729,"internal_node_id":"0.0-86.0-0.0","params":{"nStudents":24,"maxFlips":30,"completionMinutes":45,"basePay":8,"maxBonus":9,"perTrialBonus":0.5,"perTrialBonusThreshold":0.1,"exampleCost":0.01},"classroomParams":{"A":{"a":1,"b":4},"B":{"a":4,"b":1},"C":{"a":2,"b":8},"D":{"a":8,"b":2}},"conditions":["nonSeqFull","nonSeqPartial","seqNoFeedback","seqFeedback"],"classroomPairings":[["A","B"],["C","D"]],"coinWeights":[0.2,0.5,0.8],"subjectId":"A12FTSX85NQ8N9","assignmentId":"3VJ40NV2QJ9XXH6LY2U3Z4NXIWHTOJ","hitId":"3H6W48L9F4B5OEOMH57RM53ZYNHWPM","url":"https://gershmanlab.com/experiments/alicia/teaching/experiment/?hitId=3H6W48L9F4B5OEOMH57RM53ZYNHWPM&workerId=A12FTSX85NQ8N9&assignmentId=3VJ40NV2QJ9XXH6LY2U3Z4NXIWHTOJ&a=20JV8&tp_a=20JV8&b=3VJ40NV2QJ9XXH6LY2U3Z4NXIWHTOJ&tp_b=3VJ40NV2QJ9XXH6LY2U3Z4NXIWHTOJ&c=365198&tp_c=365198","heads":2,"tails":8,"studentIndex":11,"studentTrueHypers":{"a":4,"b":1},"studentGuess":0.4,"delta":0.2,"totalExamples":10,"bonusSoFar":3.1},{"rt":8396,"response":{"heads":"2","tails":"8"},"type":"response","condition":"seqNoFeedback","trueTheta":0.2,"classrooms":["A","B"],"studentTrueClassroom":"B","exampleSet":"second","trial_type":"survey-html-form","trial_index":90,"time_elapsed":883238,"internal_node_id":"0.0-89.0-0.0","params":{"nStudents":24,"maxFlips":30,"completionMinutes":45,"basePay":8,"maxBonus":9,"perTrialBonus":0.5,"perTrialBonusThreshold":0.1,"exampleCost":0.01},"classroomParams":{"A":{"a":1,"b":4},"B":{"a":4,"b":1},"C":{"a":2,"b":8},"D":{"a":8,"b":2}},"conditions":["nonSeqFull","nonSeqPartial","seqNoFeedback","seqFeedback"],"classroomPairings":[["A","B"],["C","D"]],"coinWeights":[0.2,0.5,0.8],"subjectId":"A12FTSX85NQ8N9","assignmentId":"3VJ40NV2QJ9XXH6LY2U3Z4NXIWHTOJ","hitId":"3H6W48L9F4B5OEOMH57RM53ZYNHWPM","url":"https://gershmanlab.com/experiments/alicia/teaching/experiment/?hitId=3H6W48L9F4B5OEOMH57RM53ZYNHWPM&workerId=A12FTSX85NQ8N9&assignmentId=3VJ40NV2QJ9XXH6LY2U3Z4NXIWHTOJ&a=20JV8&tp_a=20JV8&b=3VJ40NV2QJ9XXH6LY2U3Z4NXIWHTOJ&tp_b=3VJ40NV2QJ9XXH6LY2U3Z4NXIWHTOJ&c=365198&tp_c=365198","firstResponseHeads":2,"firstResponseTails":8,"secondResponseHeads":2,"secondResponseTails":8,"studentIndex":11,"studentTrueHypers":{"a":4,"b":1},"studentGuess":0.32,"delta":0.12,"bonus":0,"bonusSoFar":3.1,"totalExamples":20},{"rt":9291,"response":{"heads":"10","tails":"10"},"type":"response","condition":"nonSeqFull","trueTheta":0.5,"classrooms":["C","D"],"studentTrueClassroom":"C","exampleSet":"first","trial_type":"survey-html-form","trial_index":96,"time_elapsed":908919,"internal_node_id":"0.0-95.0-0.0","params":{"nStudents":24,"maxFlips":30,"completionMinutes":45,"basePay":8,"maxBonus":9,"perTrialBonus":0.5,"perTrialBonusThreshold":0.1,"exampleCost":0.01},"classroomParams":{"A":{"a":1,"b":4},"B":{"a":4,"b":1},"C":{"a":2,"b":8},"D":{"a":8,"b":2}},"conditions":["nonSeqFull","nonSeqPartial","seqNoFeedback","seqFeedback"],"classroomPairings":[["A","B"],["C","D"]],"coinWeights":[0.2,0.5,0.8],"subjectId":"A12FTSX85NQ8N9","assignmentId":"3VJ40NV2QJ9XXH6LY2U3Z4NXIWHTOJ","hitId":"3H6W48L9F4B5OEOMH57RM53ZYNHWPM","url":"https://gershmanlab.com/experiments/alicia/teaching/experiment/?hitId=3H6W48L9F4B5OEOMH57RM53ZYNHWPM&workerId=A12FTSX85NQ8N9&assignmentId=3VJ40NV2QJ9XXH6LY2U3Z4NXIWHTOJ&a=20JV8&tp_a=20JV8&b=3VJ40NV2QJ9XXH6LY2U3Z4NXIWHTOJ&tp_b=3VJ40NV2QJ9XXH6LY2U3Z4NXIWHTOJ&c=365198&tp_c=365198","heads":10,"tails":10,"studentIndex":12,"studentTrueHypers":{"a":2,"b":8},"studentGuess":0.4,"delta":0.09999999999999998,"totalExamples":20,"bonus":0.3,"bonusSoFar":3.4},{"rt":6772,"response":{"heads":"6","tails":"6"},"type":"response","condition":"nonSeqFull","trueTheta":0.5,"classrooms":["A","B"],"studentTrueClassroom":"A","exampleSet":"first","trial_type":"survey-html-form","trial_index":102,"time_elapsed":929412,"internal_node_id":"0.0-101.0-0.0","params":{"nStudents":24,"maxFlips":30,"completionMinutes":45,"basePay":8,"maxBonus":9,"perTrialBonus":0.5,"perTrialBonusThreshold":0.1,"exampleCost":0.01},"classroomParams":{"A":{"a":1,"b":4},"B":{"a":4,"b":1},"C":{"a":2,"b":8},"D":{"a":8,"b":2}},"conditions":["nonSeqFull","nonSeqPartial","seqNoFeedback","seqFeedback"],"classroomPairings":[["A","B"],["C","D"]],"coinWeights":[0.2,0.5,0.8],"subjectId":"A12FTSX85NQ8N9","assignmentId":"3VJ40NV2QJ9XXH6LY2U3Z4NXIWHTOJ","hitId":"3H6W48L9F4B5OEOMH57RM53ZYNHWPM","url":"https://gershmanlab.com/experiments/alicia/teaching/experiment/?hitId=3H6W48L9F4B5OEOMH57RM53ZYNHWPM&workerId=A12FTSX85NQ8N9&assignmentId=3VJ40NV2QJ9XXH6LY2U3Z4NXIWHTOJ&a=20JV8&tp_a=20JV8&b=3VJ40NV2QJ9XXH6LY2U3Z4NXIWHTOJ&tp_b=3VJ40NV2QJ9XXH6LY2U3Z4NXIWHTOJ&c=365198&tp_c=365198","heads":6,"tails":6,"studentIndex":13,"studentTrueHypers":{"a":1,"b":4},"studentGuess":0.4117647058823529,"delta":0.08823529411764708,"totalExamples":12,"bonus":0.38,"bonusSoFar":3.78},{"rt":3207,"response":{"heads":"5","tails":"5"},"type":"response","condition":"seqNoFeedback","trueTheta":0.5,"classrooms":["A","B"],"studentTrueClassroom":"A","exampleSet":"first","trial_type":"survey-html-form","trial_index":108,"time_elapsed":948791,"internal_node_id":"0.0-107.0-0.0","params":{"nStudents":24,"maxFlips":30,"completionMinutes":45,"basePay":8,"maxBonus":9,"perTrialBonus":0.5,"perTrialBonusThreshold":0.1,"exampleCost":0.01},"classroomParams":{"A":{"a":1,"b":4},"B":{"a":4,"b":1},"C":{"a":2,"b":8},"D":{"a":8,"b":2}},"conditions":["nonSeqFull","nonSeqPartial","seqNoFeedback","seqFeedback"],"classroomPairings":[["A","B"],["C","D"]],"coinWeights":[0.2,0.5,0.8],"subjectId":"A12FTSX85NQ8N9","assignmentId":"3VJ40NV2QJ9XXH6LY2U3Z4NXIWHTOJ","hitId":"3H6W48L9F4B5OEOMH57RM53ZYNHWPM","url":"https://gershmanlab.com/experiments/alicia/teaching/experiment/?hitId=3H6W48L9F4B5OEOMH57RM53ZYNHWPM&workerId=A12FTSX85NQ8N9&assignmentId=3VJ40NV2QJ9XXH6LY2U3Z4NXIWHTOJ&a=20JV8&tp_a=20JV8&b=3VJ40NV2QJ9XXH6LY2U3Z4NXIWHTOJ&tp_b=3VJ40NV2QJ9XXH6LY2U3Z4NXIWHTOJ&c=365198&tp_c=365198","heads":5,"tails":5,"studentIndex":14,"studentTrueHypers":{"a":1,"b":4},"studentGuess":0.4,"delta":0.09999999999999998,"totalExamples":10,"bonusSoFar":3.78},{"rt":3042,"response":{"heads":"5","tails":"5"},"type":"response","condition":"seqNoFeedback","trueTheta":0.5,"classrooms":["A","B"],"studentTrueClassroom":"A","exampleSet":"second","trial_type":"survey-html-form","trial_index":111,"time_elapsed":959596,"internal_node_id":"0.0-110.0-0.0","params":{"nStudents":24,"maxFlips":30,"completionMinutes":45,"basePay":8,"maxBonus":9,"perTrialBonus":0.5,"perTrialBonusThreshold":0.1,"exampleCost":0.01},"classroomParams":{"A":{"a":1,"b":4},"B":{"a":4,"b":1},"C":{"a":2,"b":8},"D":{"a":8,"b":2}},"conditions":["nonSeqFull","nonSeqPartial","seqNoFeedback","seqFeedback"],"classroomPairings":[["A","B"],["C","D"]],"coinWeights":[0.2,0.5,0.8],"subjectId":"A12FTSX85NQ8N9","assignmentId":"3VJ40NV2QJ9XXH6LY2U3Z4NXIWHTOJ","hitId":"3H6W48L9F4B5OEOMH57RM53ZYNHWPM","url":"https://gershmanlab.com/experiments/alicia/teaching/experiment/?hitId=3H6W48L9F4B5OEOMH57RM53ZYNHWPM&workerId=A12FTSX85NQ8N9&assignmentId=3VJ40NV2QJ9XXH6LY2U3Z4NXIWHTOJ&a=20JV8&tp_a=20JV8&b=3VJ40NV2QJ9XXH6LY2U3Z4NXIWHTOJ&tp_b=3VJ40NV2QJ9XXH6LY2U3Z4NXIWHTOJ&c=365198&tp_c=365198","firstResponseHeads":5,"firstResponseTails":5,"secondResponseHeads":5,"secondResponseTails":5,"studentIndex":14,"studentTrueHypers":{"a":1,"b":4},"studentGuess":0.44,"delta":0.06,"bonus":0.3,"bonusSoFar":4.08,"totalExamples":20},{"rt":6947,"response":{"heads":"2","tails":"8"},"type":"response","condition":"nonSeqFull","trueTheta":0.2,"classrooms":["A","B"],"studentTrueClassroom":"A","exampleSet":"first","trial_type":"survey-html-form","trial_index":117,"time_elapsed":979444,"internal_node_id":"0.0-116.0-0.0","params":{"nStudents":24,"maxFlips":30,"completionMinutes":45,"basePay":8,"maxBonus":9,"perTrialBonus":0.5,"perTrialBonusThreshold":0.1,"exampleCost":0.01},"classroomParams":{"A":{"a":1,"b":4},"B":{"a":4,"b":1},"C":{"a":2,"b":8},"D":{"a":8,"b":2}},"conditions":["nonSeqFull","nonSeqPartial","seqNoFeedback","seqFeedback"],"classroomPairings":[["A","B"],["C","D"]],"coinWeights":[0.2,0.5,0.8],"subjectId":"A12FTSX85NQ8N9","assignmentId":"3VJ40NV2QJ9XXH6LY2U3Z4NXIWHTOJ","hitId":"3H6W48L9F4B5OEOMH57RM53ZYNHWPM","url":"https://gershmanlab.com/experiments/alicia/teaching/experiment/?hitId=3H6W48L9F4B5OEOMH57RM53ZYNHWPM&workerId=A12FTSX85NQ8N9&assignmentId=3VJ40NV2QJ9XXH6LY2U3Z4NXIWHTOJ&a=20JV8&tp_a=20JV8&b=3VJ40NV2QJ9XXH6LY2U3Z4NXIWHTOJ&tp_b=3VJ40NV2QJ9XXH6LY2U3Z4NXIWHTOJ&c=365198&tp_c=365198","heads":2,"tails":8,"studentIndex":15,"studentTrueHypers":{"a":1,"b":4},"studentGuess":0.2,"delta":0,"totalExamples":10,"bonus":0.4,"bonusSoFar":4.48},{"rt":11752,"response":{"heads":"2","tails":"8"},"type":"response","condition":"seqFeedback","trueTheta":0.2,"classrooms":["C","D"],"studentTrueClassroom":"C","exampleSet":"first","trial_type":"survey-html-form","trial_index":123,"time_elapsed":1005661,"internal_node_id":"0.0-122.0-0.0","params":{"nStudents":24,"maxFlips":30,"completionMinutes":45,"basePay":8,"maxBonus":9,"perTrialBonus":0.5,"perTrialBonusThreshold":0.1,"exampleCost":0.01},"classroomParams":{"A":{"a":1,"b":4},"B":{"a":4,"b":1},"C":{"a":2,"b":8},"D":{"a":8,"b":2}},"conditions":["nonSeqFull","nonSeqPartial","seqNoFeedback","seqFeedback"],"classroomPairings":[["A","B"],["C","D"]],"coinWeights":[0.2,0.5,0.8],"subjectId":"A12FTSX85NQ8N9","assignmentId":"3VJ40NV2QJ9XXH6LY2U3Z4NXIWHTOJ","hitId":"3H6W48L9F4B5OEOMH57RM53ZYNHWPM","url":"https://gershmanlab.com/experiments/alicia/teaching/experiment/?hitId=3H6W48L9F4B5OEOMH57RM53ZYNHWPM&workerId=A12FTSX85NQ8N9&assignmentId=3VJ40NV2QJ9XXH6LY2U3Z4NXIWHTOJ&a=20JV8&tp_a=20JV8&b=3VJ40NV2QJ9XXH6LY2U3Z4NXIWHTOJ&tp_b=3VJ40NV2QJ9XXH6LY2U3Z4NXIWHTOJ&c=365198&tp_c=365198","heads":2,"tails":8,"studentIndex":16,"studentTrueHypers":{"a":2,"b":8},"studentGuess":0.2,"delta":0,"totalExamples":10,"bonusSoFar":4.48},{"rt":5940,"response":{"heads":"2","tails":"8"},"type":"response","condition":"seqFeedback","trueTheta":0.2,"classrooms":["C","D"],"studentTrueClassroom":"C","exampleSet":"second","trial_type":"survey-html-form","trial_index":127,"time_elapsed":1021773,"internal_node_id":"0.0-126.0-0.0","params":{"nStudents":24,"maxFlips":30,"completionMinutes":45,"basePay":8,"maxBonus":9,"perTrialBonus":0.5,"perTrialBonusThreshold":0.1,"exampleCost":0.01},"classroomParams":{"A":{"a":1,"b":4},"B":{"a":4,"b":1},"C":{"a":2,"b":8},"D":{"a":8,"b":2}},"conditions":["nonSeqFull","nonSeqPartial","seqNoFeedback","seqFeedback"],"classroomPairings":[["A","B"],["C","D"]],"coinWeights":[0.2,0.5,0.8],"subjectId":"A12FTSX85NQ8N9","assignmentId":"3VJ40NV2QJ9XXH6LY2U3Z4NXIWHTOJ","hitId":"3H6W48L9F4B5OEOMH57RM53ZYNHWPM","url":"https://gershmanlab.com/experiments/alicia/teaching/experiment/?hitId=3H6W48L9F4B5OEOMH57RM53ZYNHWPM&workerId=A12FTSX85NQ8N9&assignmentId=3VJ40NV2QJ9XXH6LY2U3Z4NXIWHTOJ&a=20JV8&tp_a=20JV8&b=3VJ40NV2QJ9XXH6LY2U3Z4NXIWHTOJ&tp_b=3VJ40NV2QJ9XXH6LY2U3Z4NXIWHTOJ&c=365198&tp_c=365198","firstResponseHeads":2,"firstResponseTails":8,"secondResponseHeads":2,"secondResponseTails":8,"studentIndex":16,"studentTrueHypers":{"a":2,"b":8},"studentGuess":0.2,"delta":0,"bonus":0.3,"bonusSoFar":4.78,"totalExamples":20},{"rt":24505,"response":{"heads":"4","tails":"1"},"type":"response","condition":"seqFeedback","trueTheta":0.8,"classrooms":["C","D"],"studentTrueClassroom":"D","exampleSet":"first","trial_type":"survey-html-form","trial_index":133,"time_elapsed":1061216,"internal_node_id":"0.0-132.0-0.0","params":{"nStudents":24,"maxFlips":30,"completionMinutes":45,"basePay":8,"maxBonus":9,"perTrialBonus":0.5,"perTrialBonusThreshold":0.1,"exampleCost":0.01},"classroomParams":{"A":{"a":1,"b":4},"B":{"a":4,"b":1},"C":{"a":2,"b":8},"D":{"a":8,"b":2}},"conditions":["nonSeqFull","nonSeqPartial","seqNoFeedback","seqFeedback"],"classroomPairings":[["A","B"],["C","D"]],"coinWeights":[0.2,0.5,0.8],"subjectId":"A12FTSX85NQ8N9","assignmentId":"3VJ40NV2QJ9XXH6LY2U3Z4NXIWHTOJ","hitId":"3H6W48L9F4B5OEOMH57RM53ZYNHWPM","url":"https://gershmanlab.com/experiments/alicia/teaching/experiment/?hitId=3H6W48L9F4B5OEOMH57RM53ZYNHWPM&workerId=A12FTSX85NQ8N9&assignmentId=3VJ40NV2QJ9XXH6LY2U3Z4NXIWHTOJ&a=20JV8&tp_a=20JV8&b=3VJ40NV2QJ9XXH6LY2U3Z4NXIWHTOJ&tp_b=3VJ40NV2QJ9XXH6LY2U3Z4NXIWHTOJ&c=365198&tp_c=365198","heads":4,"tails":1,"studentIndex":17,"studentTrueHypers":{"a":8,"b":2},"studentGuess":0.8,"delta":0,"totalExamples":5,"bonusSoFar":4.78},{"rt":3642,"response":{"heads":"4","tails":"1"},"type":"response","condition":"seqFeedback","trueTheta":0.8,"classrooms":["C","D"],"studentTrueClassroom":"D","exampleSet":"second","trial_type":"survey-html-form","trial_index":137,"time_elapsed":1072791,"internal_node_id":"0.0-136.0-0.0","params":{"nStudents":24,"maxFlips":30,"completionMinutes":45,"basePay":8,"maxBonus":9,"perTrialBonus":0.5,"perTrialBonusThreshold":0.1,"exampleCost":0.01},"classroomParams":{"A":{"a":1,"b":4},"B":{"a":4,"b":1},"C":{"a":2,"b":8},"D":{"a":8,"b":2}},"conditions":["nonSeqFull","nonSeqPartial","seqNoFeedback","seqFeedback"],"classroomPairings":[["A","B"],["C","D"]],"coinWeights":[0.2,0.5,0.8],"subjectId":"A12FTSX85NQ8N9","assignmentId":"3VJ40NV2QJ9XXH6LY2U3Z4NXIWHTOJ","hitId":"3H6W48L9F4B5OEOMH57RM53ZYNHWPM","url":"https://gershmanlab.com/experiments/alicia/teaching/experiment/?hitId=3H6W48L9F4B5OEOMH57RM53ZYNHWPM&workerId=A12FTSX85NQ8N9&assignmentId=3VJ40NV2QJ9XXH6LY2U3Z4NXIWHTOJ&a=20JV8&tp_a=20JV8&b=3VJ40NV2QJ9XXH6LY2U3Z4NXIWHTOJ&tp_b=3VJ40NV2QJ9XXH6LY2U3Z4NXIWHTOJ&c=365198&tp_c=365198","firstResponseHeads":4,"firstResponseTails":1,"secondResponseHeads":4,"secondResponseTails":1,"studentIndex":17,"studentTrueHypers":{"a":8,"b":2},"studentGuess":0.8,"delta":0,"bonus":0.4,"bonusSoFar":5.18,"totalExamples":10},{"rt":5857,"response":{"heads":"3","tails":"3"},"type":"response","condition":"seqFeedback","trueTheta":0.5,"classrooms":["A","B"],"studentTrueClassroom":"B","exampleSet":"first","trial_type":"survey-html-form","trial_index":143,"time_elapsed":1092317,"internal_node_id":"0.0-142.0-0.0","params":{"nStudents":24,"maxFlips":30,"completionMinutes":45,"basePay":8,"maxBonus":9,"perTrialBonus":0.5,"perTrialBonusThreshold":0.1,"exampleCost":0.01},"classroomParams":{"A":{"a":1,"b":4},"B":{"a":4,"b":1},"C":{"a":2,"b":8},"D":{"a":8,"b":2}},"conditions":["nonSeqFull","nonSeqPartial","seqNoFeedback","seqFeedback"],"classroomPairings":[["A","B"],["C","D"]],"coinWeights":[0.2,0.5,0.8],"subjectId":"A12FTSX85NQ8N9","assignmentId":"3VJ40NV2QJ9XXH6LY2U3Z4NXIWHTOJ","hitId":"3H6W48L9F4B5OEOMH57RM53ZYNHWPM","url":"https://gershmanlab.com/experiments/alicia/teaching/experiment/?hitId=3H6W48L9F4B5OEOMH57RM53ZYNHWPM&workerId=A12FTSX85NQ8N9&assignmentId=3VJ40NV2QJ9XXH6LY2U3Z4NXIWHTOJ&a=20JV8&tp_a=20JV8&b=3VJ40NV2QJ9XXH6LY2U3Z4NXIWHTOJ&tp_b=3VJ40NV2QJ9XXH6LY2U3Z4NXIWHTOJ&c=365198&tp_c=365198","heads":3,"tails":3,"studentIndex":18,"studentTrueHypers":{"a":4,"b":1},"studentGuess":0.6363636363636364,"delta":0.13636363636363635,"totalExamples":6,"bonusSoFar":5.18},{"rt":5784,"response":{"heads":"4","tails":"4"},"type":"response","condition":"seqFeedback","trueTheta":0.5,"classrooms":["A","B"],"studentTrueClassroom":"B","exampleSet":"second","trial_type":"survey-html-form","trial_index":147,"time_elapsed":1107205,"internal_node_id":"0.0-146.0-0.0","params":{"nStudents":24,"maxFlips":30,"completionMinutes":45,"basePay":8,"maxBonus":9,"perTrialBonus":0.5,"perTrialBonusThreshold":0.1,"exampleCost":0.01},"classroomParams":{"A":{"a":1,"b":4},"B":{"a":4,"b":1},"C":{"a":2,"b":8},"D":{"a":8,"b":2}},"conditions":["nonSeqFull","nonSeqPartial","seqNoFeedback","seqFeedback"],"classroomPairings":[["A","B"],["C","D"]],"coinWeights":[0.2,0.5,0.8],"subjectId":"A12FTSX85NQ8N9","assignmentId":"3VJ40NV2QJ9XXH6LY2U3Z4NXIWHTOJ","hitId":"3H6W48L9F4B5OEOMH57RM53ZYNHWPM","url":"https://gershmanlab.com/experiments/alicia/teaching/experiment/?hitId=3H6W48L9F4B5OEOMH57RM53ZYNHWPM&workerId=A12FTSX85NQ8N9&assignmentId=3VJ40NV2QJ9XXH6LY2U3Z4NXIWHTOJ&a=20JV8&tp_a=20JV8&b=3VJ40NV2QJ9XXH6LY2U3Z4NXIWHTOJ&tp_b=3VJ40NV2QJ9XXH6LY2U3Z4NXIWHTOJ&c=365198&tp_c=365198","firstResponseHeads":3,"firstResponseTails":3,"secondResponseHeads":4,"secondResponseTails":4,"studentIndex":18,"studentTrueHypers":{"a":4,"b":1},"studentGuess":0.5789473684210527,"delta":0.07894736842105265,"bonus":0.36,"bonusSoFar":5.54,"totalExamples":14},{"rt":54577,"response":{"heads":"4","tails":"16"},"type":"response","condition":"nonSeqFull","trueTheta":0.2,"classrooms":["C","D"],"studentTrueClassroom":"D","exampleSet":"first","trial_type":"survey-html-form","trial_index":153,"time_elapsed":1205306,"internal_node_id":"0.0-152.0-0.0","params":{"nStudents":24,"maxFlips":30,"completionMinutes":45,"basePay":8,"maxBonus":9,"perTrialBonus":0.5,"perTrialBonusThreshold":0.1,"exampleCost":0.01},"classroomParams":{"A":{"a":1,"b":4},"B":{"a":4,"b":1},"C":{"a":2,"b":8},"D":{"a":8,"b":2}},"conditions":["nonSeqFull","nonSeqPartial","seqNoFeedback","seqFeedback"],"classroomPairings":[["A","B"],["C","D"]],"coinWeights":[0.2,0.5,0.8],"subjectId":"A12FTSX85NQ8N9","assignmentId":"3VJ40NV2QJ9XXH6LY2U3Z4NXIWHTOJ","hitId":"3H6W48L9F4B5OEOMH57RM53ZYNHWPM","url":"https://gershmanlab.com/experiments/alicia/teaching/experiment/?hitId=3H6W48L9F4B5OEOMH57RM53ZYNHWPM&workerId=A12FTSX85NQ8N9&assignmentId=3VJ40NV2QJ9XXH6LY2U3Z4NXIWHTOJ&a=20JV8&tp_a=20JV8&b=3VJ40NV2QJ9XXH6LY2U3Z4NXIWHTOJ&tp_b=3VJ40NV2QJ9XXH6LY2U3Z4NXIWHTOJ&c=365198&tp_c=365198","heads":4,"tails":16,"studentIndex":19,"studentTrueHypers":{"a":8,"b":2},"studentGuess":0.4,"delta":0.2,"totalExamples":20,"bonus":0,"bonusSoFar":5.54},{"rt":29709,"response":{"heads":"5","tails":"5"},"type":"response","condition":"seqNoFeedback","trueTheta":0.5,"classrooms":["C","D"],"studentTrueClassroom":"D","exampleSet":"first","trial_type":"survey-html-form","trial_index":159,"time_elapsed":1249133,"internal_node_id":"0.0-158.0-0.0","params":{"nStudents":24,"maxFlips":30,"completionMinutes":45,"basePay":8,"maxBonus":9,"perTrialBonus":0.5,"perTrialBonusThreshold":0.1,"exampleCost":0.01},"classroomParams":{"A":{"a":1,"b":4},"B":{"a":4,"b":1},"C":{"a":2,"b":8},"D":{"a":8,"b":2}},"conditions":["nonSeqFull","nonSeqPartial","seqNoFeedback","seqFeedback"],"classroomPairings":[["A","B"],["C","D"]],"coinWeights":[0.2,0.5,0.8],"subjectId":"A12FTSX85NQ8N9","assignmentId":"3VJ40NV2QJ9XXH6LY2U3Z4NXIWHTOJ","hitId":"3H6W48L9F4B5OEOMH57RM53ZYNHWPM","url":"https://gershmanlab.com/experiments/alicia/teaching/experiment/?hitId=3H6W48L9F4B5OEOMH57RM53ZYNHWPM&workerId=A12FTSX85NQ8N9&assignmentId=3VJ40NV2QJ9XXH6LY2U3Z4NXIWHTOJ&a=20JV8&tp_a=20JV8&b=3VJ40NV2QJ9XXH6LY2U3Z4NXIWHTOJ&tp_b=3VJ40NV2QJ9XXH6LY2U3Z4NXIWHTOJ&c=365198&tp_c=365198","heads":5,"tails":5,"studentIndex":20,"studentTrueHypers":{"a":8,"b":2},"studentGuess":0.65,"delta":0.15000000000000002,"totalExamples":10,"bonusSoFar":5.54},{"rt":64383,"response":{"heads":"3","tails":"3"},"type":"response","condition":"seqNoFeedback","trueTheta":0.5,"classrooms":["C","D"],"studentTrueClassroom":"D","exampleSet":"second","trial_type":"survey-html-form","trial_index":162,"time_elapsed":1320021,"internal_node_id":"0.0-161.0-0.0","params":{"nStudents":24,"maxFlips":30,"completionMinutes":45,"basePay":8,"maxBonus":9,"perTrialBonus":0.5,"perTrialBonusThreshold":0.1,"exampleCost":0.01},"classroomParams":{"A":{"a":1,"b":4},"B":{"a":4,"b":1},"C":{"a":2,"b":8},"D":{"a":8,"b":2}},"conditions":["nonSeqFull","nonSeqPartial","seqNoFeedback","seqFeedback"],"classroomPairings":[["A","B"],["C","D"]],"coinWeights":[0.2,0.5,0.8],"subjectId":"A12FTSX85NQ8N9","assignmentId":"3VJ40NV2QJ9XXH6LY2U3Z4NXIWHTOJ","hitId":"3H6W48L9F4B5OEOMH57RM53ZYNHWPM","url":"https://gershmanlab.com/experiments/alicia/teaching/experiment/?hitId=3H6W48L9F4B5OEOMH57RM53ZYNHWPM&workerId=A12FTSX85NQ8N9&assignmentId=3VJ40NV2QJ9XXH6LY2U3Z4NXIWHTOJ&a=20JV8&tp_a=20JV8&b=3VJ40NV2QJ9XXH6LY2U3Z4NXIWHTOJ&tp_b=3VJ40NV2QJ9XXH6LY2U3Z4NXIWHTOJ&c=365198&tp_c=365198","firstResponseHeads":5,"firstResponseTails":5,"secondResponseHeads":3,"secondResponseTails":3,"studentIndex":20,"studentTrueHypers":{"a":8,"b":2},"studentGuess":0.6153846153846154,"delta":0.11538461538461542,"bonus":0,"bonusSoFar":5.54,"totalExamples":16},{"rt":4005,"response":{"heads":"4","tails":"1"},"type":"response","condition":"seqNoFeedback","trueTheta":0.8,"classrooms":["A","B"],"studentTrueClassroom":"A","exampleSet":"first","trial_type":"survey-html-form","trial_index":168,"time_elapsed":1340628,"internal_node_id":"0.0-167.0-0.0","params":{"nStudents":24,"maxFlips":30,"completionMinutes":45,"basePay":8,"maxBonus":9,"perTrialBonus":0.5,"perTrialBonusThreshold":0.1,"exampleCost":0.01},"classroomParams":{"A":{"a":1,"b":4},"B":{"a":4,"b":1},"C":{"a":2,"b":8},"D":{"a":8,"b":2}},"conditions":["nonSeqFull","nonSeqPartial","seqNoFeedback","seqFeedback"],"classroomPairings":[["A","B"],["C","D"]],"coinWeights":[0.2,0.5,0.8],"subjectId":"A12FTSX85NQ8N9","assignmentId":"3VJ40NV2QJ9XXH6LY2U3Z4NXIWHTOJ","hitId":"3H6W48L9F4B5OEOMH57RM53ZYNHWPM","url":"https://gershmanlab.com/experiments/alicia/teaching/experiment/?hitId=3H6W48L9F4B5OEOMH57RM53ZYNHWPM&workerId=A12FTSX85NQ8N9&assignmentId=3VJ40NV2QJ9XXH6LY2U3Z4NXIWHTOJ&a=20JV8&tp_a=20JV8&b=3VJ40NV2QJ9XXH6LY2U3Z4NXIWHTOJ&tp_b=3VJ40NV2QJ9XXH6LY2U3Z4NXIWHTOJ&c=365198&tp_c=365198","heads":4,"tails":1,"studentIndex":21,"studentTrueHypers":{"a":1,"b":4},"studentGuess":0.5,"delta":0.30000000000000004,"totalExamples":5,"bonusSoFar":5.54},{"rt":112469,"response":{"heads":"4","tails":"1"},"type":"response","condition":"seqNoFeedback","trueTheta":0.8,"classrooms":["A","B"],"studentTrueClassroom":"A","exampleSet":"second","trial_type":"survey-html-form","trial_index":171,"time_elapsed":1458853,"internal_node_id":"0.0-170.0-0.0","params":{"nStudents":24,"maxFlips":30,"completionMinutes":45,"basePay":8,"maxBonus":9,"perTrialBonus":0.5,"perTrialBonusThreshold":0.1,"exampleCost":0.01},"classroomParams":{"A":{"a":1,"b":4},"B":{"a":4,"b":1},"C":{"a":2,"b":8},"D":{"a":8,"b":2}},"conditions":["nonSeqFull","nonSeqPartial","seqNoFeedback","seqFeedback"],"classroomPairings":[["A","B"],["C","D"]],"coinWeights":[0.2,0.5,0.8],"subjectId":"A12FTSX85NQ8N9","assignmentId":"3VJ40NV2QJ9XXH6LY2U3Z4NXIWHTOJ","hitId":"3H6W48L9F4B5OEOMH57RM53ZYNHWPM","url":"https://gershmanlab.com/experiments/alicia/teaching/experiment/?hitId=3H6W48L9F4B5OEOMH57RM53ZYNHWPM&workerId=A12FTSX85NQ8N9&assignmentId=3VJ40NV2QJ9XXH6LY2U3Z4NXIWHTOJ&a=20JV8&tp_a=20JV8&b=3VJ40NV2QJ9XXH6LY2U3Z4NXIWHTOJ&tp_b=3VJ40NV2QJ9XXH6LY2U3Z4NXIWHTOJ&c=365198&tp_c=365198","firstResponseHeads":4,"firstResponseTails":1,"secondResponseHeads":4,"secondResponseTails":1,"studentIndex":21,"studentTrueHypers":{"a":1,"b":4},"studentGuess":0.6,"delta":0.20000000000000007,"bonus":0,"bonusSoFar":5.54,"totalExamples":10},{"rt":8167,"response":{"heads":"2","tails":"8"},"type":"response","condition":"seqFeedback","trueTheta":0.2,"classrooms":["A","B"],"studentTrueClassroom":"A","exampleSet":"first","trial_type":"survey-html-form","trial_index":177,"time_elapsed":1479156,"internal_node_id":"0.0-176.0-0.0","params":{"nStudents":24,"maxFlips":30,"completionMinutes":45,"basePay":8,"maxBonus":9,"perTrialBonus":0.5,"perTrialBonusThreshold":0.1,"exampleCost":0.01},"classroomParams":{"A":{"a":1,"b":4},"B":{"a":4,"b":1},"C":{"a":2,"b":8},"D":{"a":8,"b":2}},"conditions":["nonSeqFull","nonSeqPartial","seqNoFeedback","seqFeedback"],"classroomPairings":[["A","B"],["C","D"]],"coinWeights":[0.2,0.5,0.8],"subjectId":"A12FTSX85NQ8N9","assignmentId":"3VJ40NV2QJ9XXH6LY2U3Z4NXIWHTOJ","hitId":"3H6W48L9F4B5OEOMH57RM53ZYNHWPM","url":"https://gershmanlab.com/experiments/alicia/teaching/experiment/?hitId=3H6W48L9F4B5OEOMH57RM53ZYNHWPM&workerId=A12FTSX85NQ8N9&assignmentId=3VJ40NV2QJ9XXH6LY2U3Z4NXIWHTOJ&a=20JV8&tp_a=20JV8&b=3VJ40NV2QJ9XXH6LY2U3Z4NXIWHTOJ&tp_b=3VJ40NV2QJ9XXH6LY2U3Z4NXIWHTOJ&c=365198&tp_c=365198","heads":2,"tails":8,"studentIndex":22,"studentTrueHypers":{"a":1,"b":4},"studentGuess":0.2,"delta":0,"totalExamples":10,"bonusSoFar":5.54},{"rt":7132,"response":{"heads":"2","tails":"8"},"type":"response","condition":"seqFeedback","trueTheta":0.2,"classrooms":["A","B"],"studentTrueClassroom":"A","exampleSet":"second","trial_type":"survey-html-form","trial_index":181,"time_elapsed":1494748,"internal_node_id":"0.0-180.0-0.0","params":{"nStudents":24,"maxFlips":30,"completionMinutes":45,"basePay":8,"maxBonus":9,"perTrialBonus":0.5,"perTrialBonusThreshold":0.1,"exampleCost":0.01},"classroomParams":{"A":{"a":1,"b":4},"B":{"a":4,"b":1},"C":{"a":2,"b":8},"D":{"a":8,"b":2}},"conditions":["nonSeqFull","nonSeqPartial","seqNoFeedback","seqFeedback"],"classroomPairings":[["A","B"],["C","D"]],"coinWeights":[0.2,0.5,0.8],"subjectId":"A12FTSX85NQ8N9","assignmentId":"3VJ40NV2QJ9XXH6LY2U3Z4NXIWHTOJ","hitId":"3H6W48L9F4B5OEOMH57RM53ZYNHWPM","url":"https://gershmanlab.com/experiments/alicia/teaching/experiment/?hitId=3H6W48L9F4B5OEOMH57RM53ZYNHWPM&workerId=A12FTSX85NQ8N9&assignmentId=3VJ40NV2QJ9XXH6LY2U3Z4NXIWHTOJ&a=20JV8&tp_a=20JV8&b=3VJ40NV2QJ9XXH6LY2U3Z4NXIWHTOJ&tp_b=3VJ40NV2QJ9XXH6LY2U3Z4NXIWHTOJ&c=365198&tp_c=365198","firstResponseHeads":2,"firstResponseTails":8,"secondResponseHeads":2,"secondResponseTails":8,"studentIndex":22,"studentTrueHypers":{"a":1,"b":4},"studentGuess":0.2,"delta":0,"bonus":0.3,"bonusSoFar":5.84,"totalExamples":20},{"rt":3526,"response":{"heads":"2","tails":"8"},"type":"response","condition":"nonSeqPartial","trueTheta":0.2,"classrooms":["C","D"],"studentTrueClassroom":"C","exampleSet":"first","trial_type":"survey-html-form","trial_index":187,"time_elapsed":1512828,"internal_node_id":"0.0-186.0-0.0","params":{"nStudents":24,"maxFlips":30,"completionMinutes":45,"basePay":8,"maxBonus":9,"perTrialBonus":0.5,"perTrialBonusThreshold":0.1,"exampleCost":0.01},"classroomParams":{"A":{"a":1,"b":4},"B":{"a":4,"b":1},"C":{"a":2,"b":8},"D":{"a":8,"b":2}},"conditions":["nonSeqFull","nonSeqPartial","seqNoFeedback","seqFeedback"],"classroomPairings":[["A","B"],["C","D"]],"coinWeights":[0.2,0.5,0.8],"subjectId":"A12FTSX85NQ8N9","assignmentId":"3VJ40NV2QJ9XXH6LY2U3Z4NXIWHTOJ","hitId":"3H6W48L9F4B5OEOMH57RM53ZYNHWPM","url":"https://gershmanlab.com/experiments/alicia/teaching/experiment/?hitId=3H6W48L9F4B5OEOMH57RM53ZYNHWPM&workerId=A12FTSX85NQ8N9&assignmentId=3VJ40NV2QJ9XXH6LY2U3Z4NXIWHTOJ&a=20JV8&tp_a=20JV8&b=3VJ40NV2QJ9XXH6LY2U3Z4NXIWHTOJ&tp_b=3VJ40NV2QJ9XXH6LY2U3Z4NXIWHTOJ&c=365198&tp_c=365198","heads":2,"tails":8,"studentIndex":23,"studentTrueHypers":{"a":2,"b":8},"studentGuess":0.2,"delta":0,"totalExamples":10,"bonus":0.4,"bonusSoFar":6.24},{"rt":15302,"response":{"gender":"male","age":"29","understood":"yes","comments":"No comments :)"},"type":"response","trial_type":"survey-html-form","trial_index":191,"time_elapsed":1536294,"internal_node_id":"0.0-191.0","params":{"nStudents":24,"maxFlips":30,"completionMinutes":45,"basePay":8,"maxBonus":9,"perTrialBonus":0.5,"perTrialBonusThreshold":0.1,"exampleCost":0.01},"classroomParams":{"A":{"a":1,"b":4},"B":{"a":4,"b":1},"C":{"a":2,"b":8},"D":{"a":8,"b":2}},"conditions":["nonSeqFull","nonSeqPartial","seqNoFeedback","seqFeedback"],"classroomPairings":[["A","B"],["C","D"]],"coinWeights":[0.2,0.5,0.8],"subjectId":"A12FTSX85NQ8N9","assignmentId":"3VJ40NV2QJ9XXH6LY2U3Z4NXIWHTOJ","hitId":"3H6W48L9F4B5OEOMH57RM53ZYNHWPM","url":"https://gershmanlab.com/experiments/alicia/teaching/experiment/?hitId=3H6W48L9F4B5OEOMH57RM53ZYNHWPM&workerId=A12FTSX85NQ8N9&assignmentId=3VJ40NV2QJ9XXH6LY2U3Z4NXIWHTOJ&a=20JV8&tp_a=20JV8&b=3VJ40NV2QJ9XXH6LY2U3Z4NXIWHTOJ&tp_b=3VJ40NV2QJ9XXH6LY2U3Z4NXIWHTOJ&c=365198&tp_c=365198","totalBonus":6.24}]