[{"rt":39005,"response":{"heads":"2","tails":"2"},"type":"response","condition":"seqNoFeedback","trueTheta":0.5,"classrooms":["A","B"],"studentTrueClassroom":"B","exampleSet":"first","trial_type":"survey-html-form","trial_index":10,"time_elapsed":433468,"internal_node_id":"0.0-6.0-0.0","params":{"nStudents":24,"maxFlips":30,"completionMinutes":45,"basePay":8,"maxBonus":9,"perTrialBonus":0.5,"perTrialBonusThreshold":0.1,"exampleCost":0.01},"classroomParams":{"A":{"a":1,"b":4},"B":{"a":4,"b":1},"C":{"a":2,"b":8},"D":{"a":8,"b":2}},"conditions":["nonSeqFull","nonSeqPartial","seqNoFeedback","seqFeedback"],"classroomPairings":[["A","B"],["C","D"]],"coinWeights":[0.2,0.5,0.8],"subjectId":"A163XFZG5BI0XU","assignmentId":"39U1BHVTDMD8BSDZF4ABB1PMN5M3TZ","hitId":"3QGHA0EA0JM3KKNCY0PQRLYAHJ3BWH","url":"https://gershmanlab.com/experiments/alicia/teaching/experiment/?hitId=3QGHA0EA0JM3KKNCY0PQRLYAHJ3BWH&workerId=A163XFZG5BI0XU&assignmentId=39U1BHVTDMD8BSDZF4ABB1PMN5M3TZ&a=TBU98&tp_a=TBU98&b=39U1BHVTDMD8BSDZF4ABB1PMN5M3TZ&tp_b=39U1BHVTDMD8BSDZF4ABB1PMN5M3TZ&c=365198&tp_c=365198","heads":2,"tails":2,"studentIndex":0,"studentTrueHypers":{"a":4,"b":1},"studentGuess":0.6666666666666666,"delta":0.16666666666666663,"totalExamples":4,"bonusSoFar":0},{"rt":28508,"response":{"heads":"2","tails":"2"},"type":"response","condition":"seqNoFeedback","trueTheta":0.5,"classrooms":["A","B"],"studentTrueClassroom":"B","exampleSet":"second","trial_type":"survey-html-form","trial_index":13,"time_elapsed":469231,"internal_node_id":"0.0-9.0-0.0","params":{"nStudents":24,"maxFlips":30,"completionMinutes":45,"basePay":8,"maxBonus":9,"perTrialBonus":0.5,"perTrialBonusThreshold":0.1,"exampleCost":0.01},"classroomParams":{"A":{"a":1,"b":4},"B":{"a":4,"b":1},"C":{"a":2,"b":8},"D":{"a":8,"b":2}},"conditions":["nonSeqFull","nonSeqPartial","seqNoFeedback","seqFeedback"],"classroomPairings":[["A","B"],["C","D"]],"coinWeights":[0.2,0.5,0.8],"subjectId":"A163XFZG5BI0XU","assignmentId":"39U1BHVTDMD8BSDZF4ABB1PMN5M3TZ","hitId":"3QGHA0EA0JM3KKNCY0PQRLYAHJ3BWH","url":"https://gershmanlab.com/experiments/alicia/teaching/experiment/?hitId=3QGHA0EA0JM3KKNCY0PQRLYAHJ3BWH&workerId=A163XFZG5BI0XU&assignmentId=39U1BHVTDMD8BSDZF4ABB1PMN5M3TZ&a=TBU98&tp_a=TBU98&b=39U1BHVTDMD8BSDZF4ABB1PMN5M3TZ&tp_b=39U1BHVTDMD8BSDZF4ABB1PMN5M3TZ&c=365198&tp_c=365198","firstResponseHeads":2,"firstResponseTails":2,"secondResponseHeads":2,"secondResponseTails":2,"studentIndex":0,"studentTrueHypers":{"a":4,"b":1},"studentGuess":0.6153846153846154,"delta":0.11538461538461542,"bonus":0,"bonusSoFar":0,"totalExamples":8},{"rt":13840,"response":{"heads":"5","tails":"5"},"type":"response","condition":"seqNoFeedback","trueTheta":0.5,"classrooms":["C","D"],"studentTrueClassroom":"D","exampleSet":"first","trial_type":"survey-html-form","trial_index":19,"time_elapsed":508785,"internal_node_id":"0.0-15.0-0.0","params":{"nStudents":24,"maxFlips":30,"completionMinutes":45,"basePay":8,"maxBonus":9,"perTrialBonus":0.5,"perTrialBonusThreshold":0.1,"exampleCost":0.01},"classroomParams":{"A":{"a":1,"b":4},"B":{"a":4,"b":1},"C":{"a":2,"b":8},"D":{"a":8,"b":2}},"conditions":["nonSeqFull","nonSeqPartial","seqNoFeedback","seqFeedback"],"classroomPairings":[["A","B"],["C","D"]],"coinWeights":[0.2,0.5,0.8],"subjectId":"A163XFZG5BI0XU","assignmentId":"39U1BHVTDMD8BSDZF4ABB1PMN5M3TZ","hitId":"3QGHA0EA0JM3KKNCY0PQRLYAHJ3BWH","url":"https://gershmanlab.com/experiments/alicia/teaching/experiment/?hitId=3QGHA0EA0JM3KKNCY0PQRLYAHJ3BWH&workerId=A163XFZG5BI0XU&assignmentId=39U1BHVTDMD8BSDZF4ABB1PMN5M3TZ&a=TBU98&tp_a=TBU98&b=39U1BHVTDMD8BSDZF4ABB1PMN5M3TZ&tp_b=39U1BHVTDMD8BSDZF4ABB1PMN5M3TZ&c=365198&tp_c=365198","heads":5,"tails":5,"studentIndex":1,"studentTrueHypers":{"a":8,"b":2},"studentGuess":0.65,"delta":0.15000000000000002,"totalExamples":10,"bonusSoFar":0},{"rt":8732,"response":{"heads":"7","tails":"7"},"type":"response","condition":"seqNoFeedback","trueTheta":0.5,"classrooms":["C","D"],"studentTrueClassroom":"D","exampleSet":"second","trial_type":"survey-html-form","trial_index":22,"time_elapsed":525271,"internal_node_id":"0.0-18.0-0.0","params":{"nStudents":24,"maxFlips":30,"completionMinutes":45,"basePay":8,"maxBonus":9,"perTrialBonus":0.5,"perTrialBonusThreshold":0.1,"exampleCost":0.01},"classroomParams":{"A":{"a":1,"b":4},"B":{"a":4,"b":1},"C":{"a":2,"b":8},"D":{"a":8,"b":2}},"conditions":["nonSeqFull","nonSeqPartial","seqNoFeedback","seqFeedback"],"classroomPairings":[["A","B"],["C","D"]],"coinWeights":[0.2,0.5,0.8],"subjectId":"A163XFZG5BI0XU","assignmentId":"39U1BHVTDMD8BSDZF4ABB1PMN5M3TZ","hitId":"3QGHA0EA0JM3KKNCY0PQRLYAHJ3BWH","url":"https://gershmanlab.com/experiments/alicia/teaching/experiment/?hitId=3QGHA0EA0JM3KKNCY0PQRLYAHJ3BWH&workerId=A163XFZG5BI0XU&assignmentId=39U1BHVTDMD8BSDZF4ABB1PMN5M3TZ&a=TBU98&tp_a=TBU98&b=39U1BHVTDMD8BSDZF4ABB1PMN5M3TZ&tp_b=39U1BHVTDMD8BSDZF4ABB1PMN5M3TZ&c=365198&tp_c=365198","firstResponseHeads":5,"firstResponseTails":5,"secondResponseHeads":7,"secondResponseTails":7,"studentIndex":1,"studentTrueHypers":{"a":8,"b":2},"studentGuess":0.5882352941176471,"delta":0.08823529411764708,"bonus":0.26,"bonusSoFar":0.26,"totalExamples":24},{"rt":16694,"response":{"heads":"8","tails":"2"},"type":"response","condition":"nonSeqPartial","trueTheta":0.8,"classrooms":["A","B"],"studentTrueClassroom":"B","exampleSet":"first","trial_type":"survey-html-form","trial_index":28,"time_elapsed":566269,"internal_node_id":"0.0-24.0-0.0","params":{"nStudents":24,"maxFlips":30,"completionMinutes":45,"basePay":8,"maxBonus":9,"perTrialBonus":0.5,"perTrialBonusThreshold":0.1,"exampleCost":0.01},"classroomParams":{"A":{"a":1,"b":4},"B":{"a":4,"b":1},"C":{"a":2,"b":8},"D":{"a":8,"b":2}},"conditions":["nonSeqFull","nonSeqPartial","seqNoFeedback","seqFeedback"],"classroomPairings":[["A","B"],["C","D"]],"coinWeights":[0.2,0.5,0.8],"subjectId":"A163XFZG5BI0XU","assignmentId":"39U1BHVTDMD8BSDZF4ABB1PMN5M3TZ","hitId":"3QGHA0EA0JM3KKNCY0PQRLYAHJ3BWH","url":"https://gershmanlab.com/experiments/alicia/teaching/experiment/?hitId=3QGHA0EA0JM3KKNCY0PQRLYAHJ3BWH&workerId=A163XFZG5BI0XU&assignmentId=39U1BHVTDMD8BSDZF4ABB1PMN5M3TZ&a=TBU98&tp_a=TBU98&b=39U1BHVTDMD8BSDZF4ABB1PMN5M3TZ&tp_b=39U1BHVTDMD8BSDZF4ABB1PMN5M3TZ&c=365198&tp_c=365198","heads":8,"tails":2,"studentIndex":2,"studentTrueHypers":{"a":4,"b":1},"studentGuess":0.8,"delta":0,"totalExamples":10,"bonus":0.4,"bonusSoFar":0.66},{"rt":7305,"response":{"heads":"8","tails":"2"},"type":"response","condition":"seqFeedback","trueTheta":0.8,"classrooms":["A","B"],"studentTrueClassroom":"B","exampleSet":"first","trial_type":"survey-html-form","trial_index":34,"time_elapsed":594179,"internal_node_id":"0.0-30.0-0.0","params":{"nStudents":24,"maxFlips":30,"completionMinutes":45,"basePay":8,"maxBonus":9,"perTrialBonus":0.5,"perTrialBonusThreshold":0.1,"exampleCost":0.01},"classroomParams":{"A":{"a":1,"b":4},"B":{"a":4,"b":1},"C":{"a":2,"b":8},"D":{"a":8,"b":2}},"conditions":["nonSeqFull","nonSeqPartial","seqNoFeedback","seqFeedback"],"classroomPairings":[["A","B"],["C","D"]],"coinWeights":[0.2,0.5,0.8],"subjectId":"A163XFZG5BI0XU","assignmentId":"39U1BHVTDMD8BSDZF4ABB1PMN5M3TZ","hitId":"3QGHA0EA0JM3KKNCY0PQRLYAHJ3BWH","url":"https://gershmanlab.com/experiments/alicia/teaching/experiment/?hitId=3QGHA0EA0JM3KKNCY0PQRLYAHJ3BWH&workerId=A163XFZG5BI0XU&assignmentId=39U1BHVTDMD8BSDZF4ABB1PMN5M3TZ&a=TBU98&tp_a=TBU98&b=39U1BHVTDMD8BSDZF4ABB1PMN5M3TZ&tp_b=39U1BHVTDMD8BSDZF4ABB1PMN5M3TZ&c=365198&tp_c=365198","heads":8,"tails":2,"studentIndex":3,"studentTrueHypers":{"a":4,"b":1},"studentGuess":0.8,"delta":0,"totalExamples":10,"bonusSoFar":0.66},{"rt":7653,"response":{"heads":"8","tails":"2"},"type":"response","condition":"seqFeedback","trueTheta":0.8,"classrooms":["A","B"],"studentTrueClassroom":"B","exampleSet":"second","trial_type":"survey-html-form","trial_index":38,"time_elapsed":613593,"internal_node_id":"0.0-34.0-0.0","params":{"nStudents":24,"maxFlips":30,"completionMinutes":45,"basePay":8,"maxBonus":9,"perTrialBonus":0.5,"perTrialBonusThreshold":0.1,"exampleCost":0.01},"classroomParams":{"A":{"a":1,"b":4},"B":{"a":4,"b":1},"C":{"a":2,"b":8},"D":{"a":8,"b":2}},"conditions":["nonSeqFull","nonSeqPartial","seqNoFeedback","seqFeedback"],"classroomPairings":[["A","B"],["C","D"]],"coinWeights":[0.2,0.5,0.8],"subjectId":"A163XFZG5BI0XU","assignmentId":"39U1BHVTDMD8BSDZF4ABB1PMN5M3TZ","hitId":"3QGHA0EA0JM3KKNCY0PQRLYAHJ3BWH","url":"https://gershmanlab.com/experiments/alicia/teaching/experiment/?hitId=3QGHA0EA0JM3KKNCY0PQRLYAHJ3BWH&workerId=A163XFZG5BI0XU&assignmentId=39U1BHVTDMD8BSDZF4ABB1PMN5M3TZ&a=TBU98&tp_a=TBU98&b=39U1BHVTDMD8BSDZF4ABB1PMN5M3TZ&tp_b=39U1BHVTDMD8BSDZF4ABB1PMN5M3TZ&c=365198&tp_c=365198","firstResponseHeads":8,"firstResponseTails":2,"secondResponseHeads":8,"secondResponseTails":2,"studentIndex":3,"studentTrueHypers":{"a":4,"b":1},"studentGuess":0.8,"delta":0,"bonus":0.3,"bonusSoFar":0.96,"totalExamples":20},{"rt":5122,"response":{"heads":"5","tails":"5"},"type":"response","condition":"seqFeedback","trueTheta":0.5,"classrooms":["C","D"],"studentTrueClassroom":"D","exampleSet":"first","trial_type":"survey-html-form","trial_index":44,"time_elapsed":646792,"internal_node_id":"0.0-40.0-0.0","params":{"nStudents":24,"maxFlips":30,"completionMinutes":45,"basePay":8,"maxBonus":9,"perTrialBonus":0.5,"perTrialBonusThreshold":0.1,"exampleCost":0.01},"classroomParams":{"A":{"a":1,"b":4},"B":{"a":4,"b":1},"C":{"a":2,"b":8},"D":{"a":8,"b":2}},"conditions":["nonSeqFull","nonSeqPartial","seqNoFeedback","seqFeedback"],"classroomPairings":[["A","B"],["C","D"]],"coinWeights":[0.2,0.5,0.8],"subjectId":"A163XFZG5BI0XU","assignmentId":"39U1BHVTDMD8BSDZF4ABB1PMN5M3TZ","hitId":"3QGHA0EA0JM3KKNCY0PQRLYAHJ3BWH","url":"https://gershmanlab.com/experiments/alicia/teaching/experiment/?hitId=3QGHA0EA0JM3KKNCY0PQRLYAHJ3BWH&workerId=A163XFZG5BI0XU&assignmentId=39U1BHVTDMD8BSDZF4ABB1PMN5M3TZ&a=TBU98&tp_a=TBU98&b=39U1BHVTDMD8BSDZF4ABB1PMN5M3TZ&tp_b=39U1BHVTDMD8BSDZF4ABB1PMN5M3TZ&c=365198&tp_c=365198","heads":5,"tails":5,"studentIndex":4,"studentTrueHypers":{"a":8,"b":2},"studentGuess":0.65,"delta":0.15000000000000002,"totalExamples":10,"bonusSoFar":0.96},{"rt":12393,"response":{"heads":"4","tails":"5"},"type":"response","condition":"seqFeedback","trueTheta":0.5,"classrooms":["C","D"],"studentTrueClassroom":"D","exampleSet":"second","trial_type":"survey-html-form","trial_index":48,"time_elapsed":677128,"internal_node_id":"0.0-44.0-0.0","params":{"nStudents":24,"maxFlips":30,"completionMinutes":45,"basePay":8,"maxBonus":9,"perTrialBonus":0.5,"perTrialBonusThreshold":0.1,"exampleCost":0.01},"classroomParams":{"A":{"a":1,"b":4},"B":{"a":4,"b":1},"C":{"a":2,"b":8},"D":{"a":8,"b":2}},"conditions":["nonSeqFull","nonSeqPartial","seqNoFeedback","seqFeedback"],"classroomPairings":[["A","B"],["C","D"]],"coinWeights":[0.2,0.5,0.8],"subjectId":"A163XFZG5BI0XU","assignmentId":"39U1BHVTDMD8BSDZF4ABB1PMN5M3TZ","hitId":"3QGHA0EA0JM3KKNCY0PQRLYAHJ3BWH","url":"https://gershmanlab.com/experiments/alicia/teaching/experiment/?hitId=3QGHA0EA0JM3KKNCY0PQRLYAHJ3BWH&workerId=A163XFZG5BI0XU&assignmentId=39U1BHVTDMD8BSDZF4ABB1PMN5M3TZ&a=TBU98&tp_a=TBU98&b=39U1BHVTDMD8BSDZF4ABB1PMN5M3TZ&tp_b=39U1BHVTDMD8BSDZF4ABB1PMN5M3TZ&c=365198&tp_c=365198","firstResponseHeads":5,"firstResponseTails":5,"secondResponseHeads":4,"secondResponseTails":5,"studentIndex":4,"studentTrueHypers":{"a":8,"b":2},"studentGuess":0.5862068965517241,"delta":0.08620689655172409,"bonus":0.31,"bonusSoFar":1.27,"totalExamples":19},{"rt":4649,"response":{"heads":"8","tails":"2"},"type":"response","condition":"nonSeqPartial","trueTheta":0.8,"classrooms":["C","D"],"studentTrueClassroom":"D","exampleSet":"first","trial_type":"survey-html-form","trial_index":54,"time_elapsed":702516,"internal_node_id":"0.0-50.0-0.0","params":{"nStudents":24,"maxFlips":30,"completionMinutes":45,"basePay":8,"maxBonus":9,"perTrialBonus":0.5,"perTrialBonusThreshold":0.1,"exampleCost":0.01},"classroomParams":{"A":{"a":1,"b":4},"B":{"a":4,"b":1},"C":{"a":2,"b":8},"D":{"a":8,"b":2}},"conditions":["nonSeqFull","nonSeqPartial","seqNoFeedback","seqFeedback"],"classroomPairings":[["A","B"],["C","D"]],"coinWeights":[0.2,0.5,0.8],"subjectId":"A163XFZG5BI0XU","assignmentId":"39U1BHVTDMD8BSDZF4ABB1PMN5M3TZ","hitId":"3QGHA0EA0JM3KKNCY0PQRLYAHJ3BWH","url":"https://gershmanlab.com/experiments/alicia/teaching/experiment/?hitId=3QGHA0EA0JM3KKNCY0PQRLYAHJ3BWH&workerId=A163XFZG5BI0XU&assignmentId=39U1BHVTDMD8BSDZF4ABB1PMN5M3TZ&a=TBU98&tp_a=TBU98&b=39U1BHVTDMD8BSDZF4ABB1PMN5M3TZ&tp_b=39U1BHVTDMD8BSDZF4ABB1PMN5M3TZ&c=365198&tp_c=365198","heads":8,"tails":2,"studentIndex":5,"studentTrueHypers":{"a":8,"b":2},"studentGuess":0.8,"delta":0,"totalExamples":10,"bonus":0.4,"bonusSoFar":1.67},{"rt":5595,"response":{"heads":"5","tails":"5"},"type":"response","condition":"nonSeqPartial","trueTheta":0.5,"classrooms":["C","D"],"studentTrueClassroom":"D","exampleSet":"first","trial_type":"survey-html-form","trial_index":60,"time_elapsed":723728,"internal_node_id":"0.0-56.0-0.0","params":{"nStudents":24,"maxFlips":30,"completionMinutes":45,"basePay":8,"maxBonus":9,"perTrialBonus":0.5,"perTrialBonusThreshold":0.1,"exampleCost":0.01},"classroomParams":{"A":{"a":1,"b":4},"B":{"a":4,"b":1},"C":{"a":2,"b":8},"D":{"a":8,"b":2}},"conditions":["nonSeqFull","nonSeqPartial","seqNoFeedback","seqFeedback"],"classroomPairings":[["A","B"],["C","D"]],"coinWeights":[0.2,0.5,0.8],"subjectId":"A163XFZG5BI0XU","assignmentId":"39U1BHVTDMD8BSDZF4ABB1PMN5M3TZ","hitId":"3QGHA0EA0JM3KKNCY0PQRLYAHJ3BWH","url":"https://gershmanlab.com/experiments/alicia/teaching/experiment/?hitId=3QGHA0EA0JM3KKNCY0PQRLYAHJ3BWH&workerId=A163XFZG5BI0XU&assignmentId=39U1BHVTDMD8BSDZF4ABB1PMN5M3TZ&a=TBU98&tp_a=TBU98&b=39U1BHVTDMD8BSDZF4ABB1PMN5M3TZ&tp_b=39U1BHVTDMD8BSDZF4ABB1PMN5M3TZ&c=365198&tp_c=365198","heads":5,"tails":5,"studentIndex":6,"studentTrueHypers":{"a":8,"b":2},"studentGuess":0.65,"delta":0.15000000000000002,"totalExamples":10,"bonus":0,"bonusSoFar":1.67},{"rt":13618,"response":{"heads":"5","tails":"5"},"type":"response","condition":"nonSeqFull","trueTheta":0.5,"classrooms":["A","B"],"studentTrueClassroom":"A","exampleSet":"first","trial_type":"survey-html-form","trial_index":66,"time_elapsed":758434,"internal_node_id":"0.0-62.0-0.0","params":{"nStudents":24,"maxFlips":30,"completionMinutes":45,"basePay":8,"maxBonus":9,"perTrialBonus":0.5,"perTrialBonusThreshold":0.1,"exampleCost":0.01},"classroomParams":{"A":{"a":1,"b":4},"B":{"a":4,"b":1},"C":{"a":2,"b":8},"D":{"a":8,"b":2}},"conditions":["nonSeqFull","nonSeqPartial","seqNoFeedback","seqFeedback"],"classroomPairings":[["A","B"],["C","D"]],"coinWeights":[0.2,0.5,0.8],"subjectId":"A163XFZG5BI0XU","assignmentId":"39U1BHVTDMD8BSDZF4ABB1PMN5M3TZ","hitId":"3QGHA0EA0JM3KKNCY0PQRLYAHJ3BWH","url":"https://gershmanlab.com/experiments/alicia/teaching/experiment/?hitId=3QGHA0EA0JM3KKNCY0PQRLYAHJ3BWH&workerId=A163XFZG5BI0XU&assignmentId=39U1BHVTDMD8BSDZF4ABB1PMN5M3TZ&a=TBU98&tp_a=TBU98&b=39U1BHVTDMD8BSDZF4ABB1PMN5M3TZ&tp_b=39U1BHVTDMD8BSDZF4ABB1PMN5M3TZ&c=365198&tp_c=365198","heads":5,"tails":5,"studentIndex":7,"studentTrueHypers":{"a":1,"b":4},"studentGuess":0.4,"delta":0.09999999999999998,"totalExamples":10,"bonus":0.4,"bonusSoFar":2.07},{"rt":18766,"response":{"heads":"8","tails":"2"},"type":"response","condition":"nonSeqFull","trueTheta":0.5,"classrooms":["C","D"],"studentTrueClassroom":"C","exampleSet":"first","trial_type":"survey-html-form","trial_index":72,"time_elapsed":795511,"internal_node_id":"0.0-68.0-0.0","params":{"nStudents":24,"maxFlips":30,"completionMinutes":45,"basePay":8,"maxBonus":9,"perTrialBonus":0.5,"perTrialBonusThreshold":0.1,"exampleCost":0.01},"classroomParams":{"A":{"a":1,"b":4},"B":{"a":4,"b":1},"C":{"a":2,"b":8},"D":{"a":8,"b":2}},"conditions":["nonSeqFull","nonSeqPartial","seqNoFeedback","seqFeedback"],"classroomPairings":[["A","B"],["C","D"]],"coinWeights":[0.2,0.5,0.8],"subjectId":"A163XFZG5BI0XU","assignmentId":"39U1BHVTDMD8BSDZF4ABB1PMN5M3TZ","hitId":"3QGHA0EA0JM3KKNCY0PQRLYAHJ3BWH","url":"https://gershmanlab.com/experiments/alicia/teaching/experiment/?hitId=3QGHA0EA0JM3KKNCY0PQRLYAHJ3BWH&workerId=A163XFZG5BI0XU&assignmentId=39U1BHVTDMD8BSDZF4ABB1PMN5M3TZ&a=TBU98&tp_a=TBU98&b=39U1BHVTDMD8BSDZF4ABB1PMN5M3TZ&tp_b=39U1BHVTDMD8BSDZF4ABB1PMN5M3TZ&c=365198&tp_c=365198","heads":8,"tails":2,"studentIndex":8,"studentTrueHypers":{"a":2,"b":8},"studentGuess":0.5,"delta":0,"totalExamples":10,"bonus":0.4,"bonusSoFar":2.47},{"rt":7676,"response":{"heads":"2","tails":"8"},"type":"response","condition":"nonSeqFull","trueTheta":0.2,"classrooms":["C","D"],"studentTrueClassroom":"C","exampleSet":"first","trial_type":"survey-html-form","trial_index":78,"time_elapsed":827745,"internal_node_id":"0.0-74.0-0.0","params":{"nStudents":24,"maxFlips":30,"completionMinutes":45,"basePay":8,"maxBonus":9,"perTrialBonus":0.5,"perTrialBonusThreshold":0.1,"exampleCost":0.01},"classroomParams":{"A":{"a":1,"b":4},"B":{"a":4,"b":1},"C":{"a":2,"b":8},"D":{"a":8,"b":2}},"conditions":["nonSeqFull","nonSeqPartial","seqNoFeedback","seqFeedback"],"classroomPairings":[["A","B"],["C","D"]],"coinWeights":[0.2,0.5,0.8],"subjectId":"A163XFZG5BI0XU","assignmentId":"39U1BHVTDMD8BSDZF4ABB1PMN5M3TZ","hitId":"3QGHA0EA0JM3KKNCY0PQRLYAHJ3BWH","url":"https://gershmanlab.com/experiments/alicia/teaching/experiment/?hitId=3QGHA0EA0JM3KKNCY0PQRLYAHJ3BWH&workerId=A163XFZG5BI0XU&assignmentId=39U1BHVTDMD8BSDZF4ABB1PMN5M3TZ&a=TBU98&tp_a=TBU98&b=39U1BHVTDMD8BSDZF4ABB1PMN5M3TZ&tp_b=39U1BHVTDMD8BSDZF4ABB1PMN5M3TZ&c=365198&tp_c=365198","heads":2,"tails":8,"studentIndex":9,"studentTrueHypers":{"a":2,"b":8},"studentGuess":0.2,"delta":0,"totalExamples":10,"bonus":0.4,"bonusSoFar":2.87},{"rt":5992,"response":{"heads":"8","tails":"2"},"type":"response","condition":"nonSeqFull","trueTheta":0.8,"classrooms":["C","D"],"studentTrueClassroom":"D","exampleSet":"first","trial_type":"survey-html-form","trial_index":84,"time_elapsed":845427,"internal_node_id":"0.0-80.0-0.0","params":{"nStudents":24,"maxFlips":30,"completionMinutes":45,"basePay":8,"maxBonus":9,"perTrialBonus":0.5,"perTrialBonusThreshold":0.1,"exampleCost":0.01},"classroomParams":{"A":{"a":1,"b":4},"B":{"a":4,"b":1},"C":{"a":2,"b":8},"D":{"a":8,"b":2}},"conditions":["nonSeqFull","nonSeqPartial","seqNoFeedback","seqFeedback"],"classroomPairings":[["A","B"],["C","D"]],"coinWeights":[0.2,0.5,0.8],"subjectId":"A163XFZG5BI0XU","assignmentId":"39U1BHVTDMD8BSDZF4ABB1PMN5M3TZ","hitId":"3QGHA0EA0JM3KKNCY0PQRLYAHJ3BWH","url":"https://gershmanlab.com/experiments/alicia/teaching/experiment/?hitId=3QGHA0EA0JM3KKNCY0PQRLYAHJ3BWH&workerId=A163XFZG5BI0XU&assignmentId=39U1BHVTDMD8BSDZF4ABB1PMN5M3TZ&a=TBU98&tp_a=TBU98&b=39U1BHVTDMD8BSDZF4ABB1PMN5M3TZ&tp_b=39U1BHVTDMD8BSDZF4ABB1PMN5M3TZ&c=365198&tp_c=365198","heads":8,"tails":2,"studentIndex":10,"studentTrueHypers":{"a":8,"b":2},"studentGuess":0.8,"delta":0,"totalExamples":10,"bonus":0.4,"bonusSoFar":3.27},{"rt":11892,"response":{"heads":"2","tails":"8"},"type":"response","condition":"nonSeqPartial","trueTheta":0.2,"classrooms":["A","B"],"studentTrueClassroom":"A","exampleSet":"first","trial_type":"survey-html-form","trial_index":90,"time_elapsed":871480,"internal_node_id":"0.0-86.0-0.0","params":{"nStudents":24,"maxFlips":30,"completionMinutes":45,"basePay":8,"maxBonus":9,"perTrialBonus":0.5,"perTrialBonusThreshold":0.1,"exampleCost":0.01},"classroomParams":{"A":{"a":1,"b":4},"B":{"a":4,"b":1},"C":{"a":2,"b":8},"D":{"a":8,"b":2}},"conditions":["nonSeqFull","nonSeqPartial","seqNoFeedback","seqFeedback"],"classroomPairings":[["A","B"],["C","D"]],"coinWeights":[0.2,0.5,0.8],"subjectId":"A163XFZG5BI0XU","assignmentId":"39U1BHVTDMD8BSDZF4ABB1PMN5M3TZ","hitId":"3QGHA0EA0JM3KKNCY0PQRLYAHJ3BWH","url":"https://gershmanlab.com/experiments/alicia/teaching/experiment/?hitId=3QGHA0EA0JM3KKNCY0PQRLYAHJ3BWH&workerId=A163XFZG5BI0XU&assignmentId=39U1BHVTDMD8BSDZF4ABB1PMN5M3TZ&a=TBU98&tp_a=TBU98&b=39U1BHVTDMD8BSDZF4ABB1PMN5M3TZ&tp_b=39U1BHVTDMD8BSDZF4ABB1PMN5M3TZ&c=365198&tp_c=365198","heads":2,"tails":8,"studentIndex":11,"studentTrueHypers":{"a":1,"b":4},"studentGuess":0.2,"delta":0,"totalExamples":10,"bonus":0.4,"bonusSoFar":3.67},{"rt":6511,"response":{"heads":"5","tails":"5"},"type":"response","condition":"seqFeedback","trueTheta":0.5,"classrooms":["A","B"],"studentTrueClassroom":"A","exampleSet":"first","trial_type":"survey-html-form","trial_index":96,"time_elapsed":888822,"internal_node_id":"0.0-92.0-0.0","params":{"nStudents":24,"maxFlips":30,"completionMinutes":45,"basePay":8,"maxBonus":9,"perTrialBonus":0.5,"perTrialBonusThreshold":0.1,"exampleCost":0.01},"classroomParams":{"A":{"a":1,"b":4},"B":{"a":4,"b":1},"C":{"a":2,"b":8},"D":{"a":8,"b":2}},"conditions":["nonSeqFull","nonSeqPartial","seqNoFeedback","seqFeedback"],"classroomPairings":[["A","B"],["C","D"]],"coinWeights":[0.2,0.5,0.8],"subjectId":"A163XFZG5BI0XU","assignmentId":"39U1BHVTDMD8BSDZF4ABB1PMN5M3TZ","hitId":"3QGHA0EA0JM3KKNCY0PQRLYAHJ3BWH","url":"https://gershmanlab.com/experiments/alicia/teaching/experiment/?hitId=3QGHA0EA0JM3KKNCY0PQRLYAHJ3BWH&workerId=A163XFZG5BI0XU&assignmentId=39U1BHVTDMD8BSDZF4ABB1PMN5M3TZ&a=TBU98&tp_a=TBU98&b=39U1BHVTDMD8BSDZF4ABB1PMN5M3TZ&tp_b=39U1BHVTDMD8BSDZF4ABB1PMN5M3TZ&c=365198&tp_c=365198","heads":5,"tails":5,"studentIndex":12,"studentTrueHypers":{"a":1,"b":4},"studentGuess":0.4,"delta":0.09999999999999998,"totalExamples":10,"bonusSoFar":3.67},{"rt":3172,"response":{"heads":"5","tails":"5"},"type":"response","condition":"seqFeedback","trueTheta":0.5,"classrooms":["A","B"],"studentTrueClassroom":"A","exampleSet":"second","trial_type":"survey-html-form","trial_index":100,"time_elapsed":904099,"internal_node_id":"0.0-96.0-0.0","params":{"nStudents":24,"maxFlips":30,"completionMinutes":45,"basePay":8,"maxBonus":9,"perTrialBonus":0.5,"perTrialBonusThreshold":0.1,"exampleCost":0.01},"classroomParams":{"A":{"a":1,"b":4},"B":{"a":4,"b":1},"C":{"a":2,"b":8},"D":{"a":8,"b":2}},"conditions":["nonSeqFull","nonSeqPartial","seqNoFeedback","seqFeedback"],"classroomPairings":[["A","B"],["C","D"]],"coinWeights":[0.2,0.5,0.8],"subjectId":"A163XFZG5BI0XU","assignmentId":"39U1BHVTDMD8BSDZF4ABB1PMN5M3TZ","hitId":"3QGHA0EA0JM3KKNCY0PQRLYAHJ3BWH","url":"https://gershmanlab.com/experiments/alicia/teaching/experiment/?hitId=3QGHA0EA0JM3KKNCY0PQRLYAHJ3BWH&workerId=A163XFZG5BI0XU&assignmentId=39U1BHVTDMD8BSDZF4ABB1PMN5M3TZ&a=TBU98&tp_a=TBU98&b=39U1BHVTDMD8BSDZF4ABB1PMN5M3TZ&tp_b=39U1BHVTDMD8BSDZF4ABB1PMN5M3TZ&c=365198&tp_c=365198","firstResponseHeads":5,"firstResponseTails":5,"secondResponseHeads":5,"secondResponseTails":5,"studentIndex":12,"studentTrueHypers":{"a":1,"b":4},"studentGuess":0.44,"delta":0.06,"bonus":0.3,"bonusSoFar":3.97,"totalExamples":20},{"rt":12960,"response":{"heads":"1","tails":"9"},"type":"response","condition":"nonSeqFull","trueTheta":0.2,"classrooms":["A","B"],"studentTrueClassroom":"B","exampleSet":"first","trial_type":"survey-html-form","trial_index":106,"time_elapsed":931767,"internal_node_id":"0.0-102.0-0.0","params":{"nStudents":24,"maxFlips":30,"completionMinutes":45,"basePay":8,"maxBonus":9,"perTrialBonus":0.5,"perTrialBonusThreshold":0.1,"exampleCost":0.01},"classroomParams":{"A":{"a":1,"b":4},"B":{"a":4,"b":1},"C":{"a":2,"b":8},"D":{"a":8,"b":2}},"conditions":["nonSeqFull","nonSeqPartial","seqNoFeedback","seqFeedback"],"classroomPairings":[["A","B"],["C","D"]],"coinWeights":[0.2,0.5,0.8],"subjectId":"A163XFZG5BI0XU","assignmentId":"39U1BHVTDMD8BSDZF4ABB1PMN5M3TZ","hitId":"3QGHA0EA0JM3KKNCY0PQRLYAHJ3BWH","url":"https://gershmanlab.com/experiments/alicia/teaching/experiment/?hitId=3QGHA0EA0JM3KKNCY0PQRLYAHJ3BWH&workerId=A163XFZG5BI0XU&assignmentId=39U1BHVTDMD8BSDZF4ABB1PMN5M3TZ&a=TBU98&tp_a=TBU98&b=39U1BHVTDMD8BSDZF4ABB1PMN5M3TZ&tp_b=39U1BHVTDMD8BSDZF4ABB1PMN5M3TZ&c=365198&tp_c=365198","heads":1,"tails":9,"studentIndex":13,"studentTrueHypers":{"a":4,"b":1},"studentGuess":0.3333333333333333,"delta":0.1333333333333333,"totalExamples":10,"bonus":0,"bonusSoFar":3.97},{"rt":5152,"response":{"heads":"2","tails":"8"},"type":"response","condition":"nonSeqPartial","trueTheta":0.2,"classrooms":["C","D"],"studentTrueClassroom":"C","exampleSet":"first","trial_type":"survey-html-form","trial_index":112,"time_elapsed":951248,"internal_node_id":"0.0-108.0-0.0","params":{"nStudents":24,"maxFlips":30,"completionMinutes":45,"basePay":8,"maxBonus":9,"perTrialBonus":0.5,"perTrialBonusThreshold":0.1,"exampleCost":0.01},"classroomParams":{"A":{"a":1,"b":4},"B":{"a":4,"b":1},"C":{"a":2,"b":8},"D":{"a":8,"b":2}},"conditions":["nonSeqFull","nonSeqPartial","seqNoFeedback","seqFeedback"],"classroomPairings":[["A","B"],["C","D"]],"coinWeights":[0.2,0.5,0.8],"subjectId":"A163XFZG5BI0XU","assignmentId":"39U1BHVTDMD8BSDZF4ABB1PMN5M3TZ","hitId":"3QGHA0EA0JM3KKNCY0PQRLYAHJ3BWH","url":"https://gershmanlab.com/experiments/alicia/teaching/experiment/?hitId=3QGHA0EA0JM3KKNCY0PQRLYAHJ3BWH&workerId=A163XFZG5BI0XU&assignmentId=39U1BHVTDMD8BSDZF4ABB1PMN5M3TZ&a=TBU98&tp_a=TBU98&b=39U1BHVTDMD8BSDZF4ABB1PMN5M3TZ&tp_b=39U1BHVTDMD8BSDZF4ABB1PMN5M3TZ&c=365198&tp_c=365198","heads":2,"tails":8,"studentIndex":14,"studentTrueHypers":{"a":2,"b":8},"studentGuess":0.2,"delta":0,"totalExamples":10,"bonus":0.4,"bonusSoFar":4.37},{"rt":6968,"response":{"heads":"5","tails":"5"},"type":"response","condition":"nonSeqPartial","trueTheta":0.5,"classrooms":["A","B"],"studentTrueClassroom":"A","exampleSet":"first","trial_type":"survey-html-form","trial_index":118,"time_elapsed":974077,"internal_node_id":"0.0-114.0-0.0","params":{"nStudents":24,"maxFlips":30,"completionMinutes":45,"basePay":8,"maxBonus":9,"perTrialBonus":0.5,"perTrialBonusThreshold":0.1,"exampleCost":0.01},"classroomParams":{"A":{"a":1,"b":4},"B":{"a":4,"b":1},"C":{"a":2,"b":8},"D":{"a":8,"b":2}},"conditions":["nonSeqFull","nonSeqPartial","seqNoFeedback","seqFeedback"],"classroomPairings":[["A","B"],["C","D"]],"coinWeights":[0.2,0.5,0.8],"subjectId":"A163XFZG5BI0XU","assignmentId":"39U1BHVTDMD8BSDZF4ABB1PMN5M3TZ","hitId":"3QGHA0EA0JM3KKNCY0PQRLYAHJ3BWH","url":"https://gershmanlab.com/experiments/alicia/teaching/experiment/?hitId=3QGHA0EA0JM3KKNCY0PQRLYAHJ3BWH&workerId=A163XFZG5BI0XU&assignmentId=39U1BHVTDMD8BSDZF4ABB1PMN5M3TZ&a=TBU98&tp_a=TBU98&b=39U1BHVTDMD8BSDZF4ABB1PMN5M3TZ&tp_b=39U1BHVTDMD8BSDZF4ABB1PMN5M3TZ&c=365198&tp_c=365198","heads":5,"tails":5,"studentIndex":15,"studentTrueHypers":{"a":1,"b":4},"studentGuess":0.4,"delta":0.09999999999999998,"totalExamples":10,"bonus":0.4,"bonusSoFar":4.77},{"rt":5707,"response":{"heads":"8","tails":"2"},"type":"response","condition":"nonSeqFull","trueTheta":0.8,"classrooms":["A","B"],"studentTrueClassroom":"B","exampleSet":"first","trial_type":"survey-html-form","trial_index":124,"time_elapsed":993606,"internal_node_id":"0.0-120.0-0.0","params":{"nStudents":24,"maxFlips":30,"completionMinutes":45,"basePay":8,"maxBonus":9,"perTrialBonus":0.5,"perTrialBonusThreshold":0.1,"exampleCost":0.01},"classroomParams":{"A":{"a":1,"b":4},"B":{"a":4,"b":1},"C":{"a":2,"b":8},"D":{"a":8,"b":2}},"conditions":["nonSeqFull","nonSeqPartial","seqNoFeedback","seqFeedback"],"classroomPairings":[["A","B"],["C","D"]],"coinWeights":[0.2,0.5,0.8],"subjectId":"A163XFZG5BI0XU","assignmentId":"39U1BHVTDMD8BSDZF4ABB1PMN5M3TZ","hitId":"3QGHA0EA0JM3KKNCY0PQRLYAHJ3BWH","url":"https://gershmanlab.com/experiments/alicia/teaching/experiment/?hitId=3QGHA0EA0JM3KKNCY0PQRLYAHJ3BWH&workerId=A163XFZG5BI0XU&assignmentId=39U1BHVTDMD8BSDZF4ABB1PMN5M3TZ&a=TBU98&tp_a=TBU98&b=39U1BHVTDMD8BSDZF4ABB1PMN5M3TZ&tp_b=39U1BHVTDMD8BSDZF4ABB1PMN5M3TZ&c=365198&tp_c=365198","heads":8,"tails":2,"studentIndex":16,"studentTrueHypers":{"a":4,"b":1},"studentGuess":0.8,"delta":0,"totalExamples":10,"bonus":0.4,"bonusSoFar":5.17},{"rt":4534,"response":{"heads":"2","tails":"8"},"type":"response","condition":"seqFeedback","trueTheta":0.2,"classrooms":["C","D"],"studentTrueClassroom":"D","exampleSet":"first","trial_type":"survey-html-form","trial_index":130,"time_elapsed":1012533,"internal_node_id":"0.0-126.0-0.0","params":{"nStudents":24,"maxFlips":30,"completionMinutes":45,"basePay":8,"maxBonus":9,"perTrialBonus":0.5,"perTrialBonusThreshold":0.1,"exampleCost":0.01},"classroomParams":{"A":{"a":1,"b":4},"B":{"a":4,"b":1},"C":{"a":2,"b":8},"D":{"a":8,"b":2}},"conditions":["nonSeqFull","nonSeqPartial","seqNoFeedback","seqFeedback"],"classroomPairings":[["A","B"],["C","D"]],"coinWeights":[0.2,0.5,0.8],"subjectId":"A163XFZG5BI0XU","assignmentId":"39U1BHVTDMD8BSDZF4ABB1PMN5M3TZ","hitId":"3QGHA0EA0JM3KKNCY0PQRLYAHJ3BWH","url":"https://gershmanlab.com/experiments/alicia/teaching/experiment/?hitId=3QGHA0EA0JM3KKNCY0PQRLYAHJ3BWH&workerId=A163XFZG5BI0XU&assignmentId=39U1BHVTDMD8BSDZF4ABB1PMN5M3TZ&a=TBU98&tp_a=TBU98&b=39U1BHVTDMD8BSDZF4ABB1PMN5M3TZ&tp_b=39U1BHVTDMD8BSDZF4ABB1PMN5M3TZ&c=365198&tp_c=365198","heads":2,"tails":8,"studentIndex":17,"studentTrueHypers":{"a":8,"b":2},"studentGuess":0.5,"delta":0.3,"totalExamples":10,"bonusSoFar":5.17},{"rt":8092,"response":{"heads":"1","tails":"12"},"type":"response","condition":"seqFeedback","trueTheta":0.2,"classrooms":["C","D"],"studentTrueClassroom":"D","exampleSet":"second","trial_type":"survey-html-form","trial_index":134,"time_elapsed":1033308,"internal_node_id":"0.0-130.0-0.0","params":{"nStudents":24,"maxFlips":30,"completionMinutes":45,"basePay":8,"maxBonus":9,"perTrialBonus":0.5,"perTrialBonusThreshold":0.1,"exampleCost":0.01},"classroomParams":{"A":{"a":1,"b":4},"B":{"a":4,"b":1},"C":{"a":2,"b":8},"D":{"a":8,"b":2}},"conditions":["nonSeqFull","nonSeqPartial","seqNoFeedback","seqFeedback"],"classroomPairings":[["A","B"],["C","D"]],"coinWeights":[0.2,0.5,0.8],"subjectId":"A163XFZG5BI0XU","assignmentId":"39U1BHVTDMD8BSDZF4ABB1PMN5M3TZ","hitId":"3QGHA0EA0JM3KKNCY0PQRLYAHJ3BWH","url":"https://gershmanlab.com/experiments/alicia/teaching/experiment/?hitId=3QGHA0EA0JM3KKNCY0PQRLYAHJ3BWH&workerId=A163XFZG5BI0XU&assignmentId=39U1BHVTDMD8BSDZF4ABB1PMN5M3TZ&a=TBU98&tp_a=TBU98&b=39U1BHVTDMD8BSDZF4ABB1PMN5M3TZ&tp_b=39U1BHVTDMD8BSDZF4ABB1PMN5M3TZ&c=365198&tp_c=365198","firstResponseHeads":2,"firstResponseTails":8,"secondResponseHeads":1,"secondResponseTails":12,"studentIndex":17,"studentTrueHypers":{"a":8,"b":2},"studentGuess":0.3333333333333333,"delta":0.1333333333333333,"bonus":0,"bonusSoFar":5.17,"totalExamples":23},{"rt":5581,"response":{"heads":"8","tails":"2"},"type":"response","condition":"seqNoFeedback","trueTheta":0.8,"classrooms":["A","B"],"studentTrueClassroom":"A","exampleSet":"first","trial_type":"survey-html-form","trial_index":140,"time_elapsed":1055735,"internal_node_id":"0.0-136.0-0.0","params":{"nStudents":24,"maxFlips":30,"completionMinutes":45,"basePay":8,"maxBonus":9,"perTrialBonus":0.5,"perTrialBonusThreshold":0.1,"exampleCost":0.01},"classroomParams":{"A":{"a":1,"b":4},"B":{"a":4,"b":1},"C":{"a":2,"b":8},"D":{"a":8,"b":2}},"conditions":["nonSeqFull","nonSeqPartial","seqNoFeedback","seqFeedback"],"classroomPairings":[["A","B"],["C","D"]],"coinWeights":[0.2,0.5,0.8],"subjectId":"A163XFZG5BI0XU","assignmentId":"39U1BHVTDMD8BSDZF4ABB1PMN5M3TZ","hitId":"3QGHA0EA0JM3KKNCY0PQRLYAHJ3BWH","url":"https://gershmanlab.com/experiments/alicia/teaching/experiment/?hitId=3QGHA0EA0JM3KKNCY0PQRLYAHJ3BWH&workerId=A163XFZG5BI0XU&assignmentId=39U1BHVTDMD8BSDZF4ABB1PMN5M3TZ&a=TBU98&tp_a=TBU98&b=39U1BHVTDMD8BSDZF4ABB1PMN5M3TZ&tp_b=39U1BHVTDMD8BSDZF4ABB1PMN5M3TZ&c=365198&tp_c=365198","heads":8,"tails":2,"studentIndex":18,"studentTrueHypers":{"a":1,"b":4},"studentGuess":0.6,"delta":0.20000000000000007,"totalExamples":10,"bonusSoFar":5.17},{"rt":5648,"response":{"heads":"8","tails":"2"},"type":"response","condition":"seqNoFeedback","trueTheta":0.8,"classrooms":["A","B"],"studentTrueClassroom":"A","exampleSet":"second","trial_type":"survey-html-form","trial_index":143,"time_elapsed":1067137,"internal_node_id":"0.0-139.0-0.0","params":{"nStudents":24,"maxFlips":30,"completionMinutes":45,"basePay":8,"maxBonus":9,"perTrialBonus":0.5,"perTrialBonusThreshold":0.1,"exampleCost":0.01},"classroomParams":{"A":{"a":1,"b":4},"B":{"a":4,"b":1},"C":{"a":2,"b":8},"D":{"a":8,"b":2}},"conditions":["nonSeqFull","nonSeqPartial","seqNoFeedback","seqFeedback"],"classroomPairings":[["A","B"],["C","D"]],"coinWeights":[0.2,0.5,0.8],"subjectId":"A163XFZG5BI0XU","assignmentId":"39U1BHVTDMD8BSDZF4ABB1PMN5M3TZ","hitId":"3QGHA0EA0JM3KKNCY0PQRLYAHJ3BWH","url":"https://gershmanlab.com/experiments/alicia/teaching/experiment/?hitId=3QGHA0EA0JM3KKNCY0PQRLYAHJ3BWH&workerId=A163XFZG5BI0XU&assignmentId=39U1BHVTDMD8BSDZF4ABB1PMN5M3TZ&a=TBU98&tp_a=TBU98&b=39U1BHVTDMD8BSDZF4ABB1PMN5M3TZ&tp_b=39U1BHVTDMD8BSDZF4ABB1PMN5M3TZ&c=365198&tp_c=365198","firstResponseHeads":8,"firstResponseTails":2,"secondResponseHeads":8,"secondResponseTails":2,"studentIndex":18,"studentTrueHypers":{"a":1,"b":4},"studentGuess":0.68,"delta":0.12,"bonus":0,"bonusSoFar":5.17,"totalExamples":20},{"rt":5888,"response":{"heads":"2","tails":"8"},"type":"response","condition":"seqFeedback","trueTheta":0.2,"classrooms":["A","B"],"studentTrueClassroom":"A","exampleSet":"first","trial_type":"survey-html-form","trial_index":149,"time_elapsed":1090501,"internal_node_id":"0.0-145.0-0.0","params":{"nStudents":24,"maxFlips":30,"completionMinutes":45,"basePay":8,"maxBonus":9,"perTrialBonus":0.5,"perTrialBonusThreshold":0.1,"exampleCost":0.01},"classroomParams":{"A":{"a":1,"b":4},"B":{"a":4,"b":1},"C":{"a":2,"b":8},"D":{"a":8,"b":2}},"conditions":["nonSeqFull","nonSeqPartial","seqNoFeedback","seqFeedback"],"classroomPairings":[["A","B"],["C","D"]],"coinWeights":[0.2,0.5,0.8],"subjectId":"A163XFZG5BI0XU","assignmentId":"39U1BHVTDMD8BSDZF4ABB1PMN5M3TZ","hitId":"3QGHA0EA0JM3KKNCY0PQRLYAHJ3BWH","url":"https://gershmanlab.com/experiments/alicia/teaching/experiment/?hitId=3QGHA0EA0JM3KKNCY0PQRLYAHJ3BWH&workerId=A163XFZG5BI0XU&assignmentId=39U1BHVTDMD8BSDZF4ABB1PMN5M3TZ&a=TBU98&tp_a=TBU98&b=39U1BHVTDMD8BSDZF4ABB1PMN5M3TZ&tp_b=39U1BHVTDMD8BSDZF4ABB1PMN5M3TZ&c=365198&tp_c=365198","heads":2,"tails":8,"studentIndex":19,"studentTrueHypers":{"a":1,"b":4},"studentGuess":0.2,"delta":0,"totalExamples":10,"bonusSoFar":5.17},{"rt":3881,"response":{"heads":"2","tails":"8"},"type":"response","condition":"seqFeedback","trueTheta":0.2,"classrooms":["A","B"],"studentTrueClassroom":"A","exampleSet":"second","trial_type":"survey-html-form","trial_index":153,"time_elapsed":1103047,"internal_node_id":"0.0-149.0-0.0","params":{"nStudents":24,"maxFlips":30,"completionMinutes":45,"basePay":8,"maxBonus":9,"perTrialBonus":0.5,"perTrialBonusThreshold":0.1,"exampleCost":0.01},"classroomParams":{"A":{"a":1,"b":4},"B":{"a":4,"b":1},"C":{"a":2,"b":8},"D":{"a":8,"b":2}},"conditions":["nonSeqFull","nonSeqPartial","seqNoFeedback","seqFeedback"],"classroomPairings":[["A","B"],["C","D"]],"coinWeights":[0.2,0.5,0.8],"subjectId":"A163XFZG5BI0XU","assignmentId":"39U1BHVTDMD8BSDZF4ABB1PMN5M3TZ","hitId":"3QGHA0EA0JM3KKNCY0PQRLYAHJ3BWH","url":"https://gershmanlab.com/experiments/alicia/teaching/experiment/?hitId=3QGHA0EA0JM3KKNCY0PQRLYAHJ3BWH&workerId=A163XFZG5BI0XU&assignmentId=39U1BHVTDMD8BSDZF4ABB1PMN5M3TZ&a=TBU98&tp_a=TBU98&b=39U1BHVTDMD8BSDZF4ABB1PMN5M3TZ&tp_b=39U1BHVTDMD8BSDZF4ABB1PMN5M3TZ&c=365198&tp_c=365198","firstResponseHeads":2,"firstResponseTails":8,"secondResponseHeads":2,"secondResponseTails":8,"studentIndex":19,"studentTrueHypers":{"a":1,"b":4},"studentGuess":0.2,"delta":0,"bonus":0.3,"bonusSoFar":5.47,"totalExamples":20},{"rt":5211,"response":{"heads":"8","tails":"2"},"type":"response","condition":"seqFeedback","trueTheta":0.8,"classrooms":["C","D"],"studentTrueClassroom":"D","exampleSet":"first","trial_type":"survey-html-form","trial_index":159,"time_elapsed":1120398,"internal_node_id":"0.0-155.0-0.0","params":{"nStudents":24,"maxFlips":30,"completionMinutes":45,"basePay":8,"maxBonus":9,"perTrialBonus":0.5,"perTrialBonusThreshold":0.1,"exampleCost":0.01},"classroomParams":{"A":{"a":1,"b":4},"B":{"a":4,"b":1},"C":{"a":2,"b":8},"D":{"a":8,"b":2}},"conditions":["nonSeqFull","nonSeqPartial","seqNoFeedback","seqFeedback"],"classroomPairings":[["A","B"],["C","D"]],"coinWeights":[0.2,0.5,0.8],"subjectId":"A163XFZG5BI0XU","assignmentId":"39U1BHVTDMD8BSDZF4ABB1PMN5M3TZ","hitId":"3QGHA0EA0JM3KKNCY0PQRLYAHJ3BWH","url":"https://gershmanlab.com/experiments/alicia/teaching/experiment/?hitId=3QGHA0EA0JM3KKNCY0PQRLYAHJ3BWH&workerId=A163XFZG5BI0XU&assignmentId=39U1BHVTDMD8BSDZF4ABB1PMN5M3TZ&a=TBU98&tp_a=TBU98&b=39U1BHVTDMD8BSDZF4ABB1PMN5M3TZ&tp_b=39U1BHVTDMD8BSDZF4ABB1PMN5M3TZ&c=365198&tp_c=365198","heads":8,"tails":2,"studentIndex":20,"studentTrueHypers":{"a":8,"b":2},"studentGuess":0.8,"delta":0,"totalExamples":10,"bonusSoFar":5.47},{"rt":2421,"response":{"heads":"8","tails":"2"},"type":"response","condition":"seqFeedback","trueTheta":0.8,"classrooms":["C","D"],"studentTrueClassroom":"D","exampleSet":"second","trial_type":"survey-html-form","trial_index":163,"time_elapsed":1129805,"internal_node_id":"0.0-159.0-0.0","params":{"nStudents":24,"maxFlips":30,"completionMinutes":45,"basePay":8,"maxBonus":9,"perTrialBonus":0.5,"perTrialBonusThreshold":0.1,"exampleCost":0.01},"classroomParams":{"A":{"a":1,"b":4},"B":{"a":4,"b":1},"C":{"a":2,"b":8},"D":{"a":8,"b":2}},"conditions":["nonSeqFull","nonSeqPartial","seqNoFeedback","seqFeedback"],"classroomPairings":[["A","B"],["C","D"]],"coinWeights":[0.2,0.5,0.8],"subjectId":"A163XFZG5BI0XU","assignmentId":"39U1BHVTDMD8BSDZF4ABB1PMN5M3TZ","hitId":"3QGHA0EA0JM3KKNCY0PQRLYAHJ3BWH","url":"https://gershmanlab.com/experiments/alicia/teaching/experiment/?hitId=3QGHA0EA0JM3KKNCY0PQRLYAHJ3BWH&workerId=A163XFZG5BI0XU&assignmentId=39U1BHVTDMD8BSDZF4ABB1PMN5M3TZ&a=TBU98&tp_a=TBU98&b=39U1BHVTDMD8BSDZF4ABB1PMN5M3TZ&tp_b=39U1BHVTDMD8BSDZF4ABB1PMN5M3TZ&c=365198&tp_c=365198","firstResponseHeads":8,"firstResponseTails":2,"secondResponseHeads":8,"secondResponseTails":2,"studentIndex":20,"studentTrueHypers":{"a":8,"b":2},"studentGuess":0.8,"delta":0,"bonus":0.3,"bonusSoFar":5.77,"totalExamples":20},{"rt":4722,"response":{"heads":"2","tails":"8"},"type":"response","condition":"seqNoFeedback","trueTheta":0.2,"classrooms":["A","B"],"studentTrueClassroom":"B","exampleSet":"first","trial_type":"survey-html-form","trial_index":169,"time_elapsed":1146873,"internal_node_id":"0.0-165.0-0.0","params":{"nStudents":24,"maxFlips":30,"completionMinutes":45,"basePay":8,"maxBonus":9,"perTrialBonus":0.5,"perTrialBonusThreshold":0.1,"exampleCost":0.01},"classroomParams":{"A":{"a":1,"b":4},"B":{"a":4,"b":1},"C":{"a":2,"b":8},"D":{"a":8,"b":2}},"conditions":["nonSeqFull","nonSeqPartial","seqNoFeedback","seqFeedback"],"classroomPairings":[["A","B"],["C","D"]],"coinWeights":[0.2,0.5,0.8],"subjectId":"A163XFZG5BI0XU","assignmentId":"39U1BHVTDMD8BSDZF4ABB1PMN5M3TZ","hitId":"3QGHA0EA0JM3KKNCY0PQRLYAHJ3BWH","url":"https://gershmanlab.com/experiments/alicia/teaching/experiment/?hitId=3QGHA0EA0JM3KKNCY0PQRLYAHJ3BWH&workerId=A163XFZG5BI0XU&assignmentId=39U1BHVTDMD8BSDZF4ABB1PMN5M3TZ&a=TBU98&tp_a=TBU98&b=39U1BHVTDMD8BSDZF4ABB1PMN5M3TZ&tp_b=39U1BHVTDMD8BSDZF4ABB1PMN5M3TZ&c=365198&tp_c=365198","heads":2,"tails":8,"studentIndex":21,"studentTrueHypers":{"a":4,"b":1},"studentGuess":0.4,"delta":0.2,"totalExamples":10,"bonusSoFar":5.77},{"rt":3498,"response":{"heads":"2","tails":"8"},"type":"response","condition":"seqNoFeedback","trueTheta":0.2,"classrooms":["A","B"],"studentTrueClassroom":"B","exampleSet":"second","trial_type":"survey-html-form","trial_index":172,"time_elapsed":1157125,"internal_node_id":"0.0-168.0-0.0","params":{"nStudents":24,"maxFlips":30,"completionMinutes":45,"basePay":8,"maxBonus":9,"perTrialBonus":0.5,"perTrialBonusThreshold":0.1,"exampleCost":0.01},"classroomParams":{"A":{"a":1,"b":4},"B":{"a":4,"b":1},"C":{"a":2,"b":8},"D":{"a":8,"b":2}},"conditions":["nonSeqFull","nonSeqPartial","seqNoFeedback","seqFeedback"],"classroomPairings":[["A","B"],["C","D"]],"coinWeights":[0.2,0.5,0.8],"subjectId":"A163XFZG5BI0XU","assignmentId":"39U1BHVTDMD8BSDZF4ABB1PMN5M3TZ","hitId":"3QGHA0EA0JM3KKNCY0PQRLYAHJ3BWH","url":"https://gershmanlab.com/experiments/alicia/teaching/experiment/?hitId=3QGHA0EA0JM3KKNCY0PQRLYAHJ3BWH&workerId=A163XFZG5BI0XU&assignmentId=39U1BHVTDMD8BSDZF4ABB1PMN5M3TZ&a=TBU98&tp_a=TBU98&b=39U1BHVTDMD8BSDZF4ABB1PMN5M3TZ&tp_b=39U1BHVTDMD8BSDZF4ABB1PMN5M3TZ&c=365198&tp_c=365198","firstResponseHeads":2,"firstResponseTails":8,"secondResponseHeads":2,"secondResponseTails":8,"studentIndex":21,"studentTrueHypers":{"a":4,"b":1},"studentGuess":0.32,"delta":0.12,"bonus":0,"bonusSoFar":5.77,"totalExamples":20},{"rt":6902,"response":{"heads":"2","tails":"8"},"type":"response","condition":"seqNoFeedback","trueTheta":0.2,"classrooms":["C","D"],"studentTrueClassroom":"D","exampleSet":"first","trial_type":"survey-html-form","trial_index":178,"time_elapsed":1179154,"internal_node_id":"0.0-174.0-0.0","params":{"nStudents":24,"maxFlips":30,"completionMinutes":45,"basePay":8,"maxBonus":9,"perTrialBonus":0.5,"perTrialBonusThreshold":0.1,"exampleCost":0.01},"classroomParams":{"A":{"a":1,"b":4},"B":{"a":4,"b":1},"C":{"a":2,"b":8},"D":{"a":8,"b":2}},"conditions":["nonSeqFull","nonSeqPartial","seqNoFeedback","seqFeedback"],"classroomPairings":[["A","B"],["C","D"]],"coinWeights":[0.2,0.5,0.8],"subjectId":"A163XFZG5BI0XU","assignmentId":"39U1BHVTDMD8BSDZF4ABB1PMN5M3TZ","hitId":"3QGHA0EA0JM3KKNCY0PQRLYAHJ3BWH","url":"https://gershmanlab.com/experiments/alicia/teaching/experiment/?hitId=3QGHA0EA0JM3KKNCY0PQRLYAHJ3BWH&workerId=A163XFZG5BI0XU&assignmentId=39U1BHVTDMD8BSDZF4ABB1PMN5M3TZ&a=TBU98&tp_a=TBU98&b=39U1BHVTDMD8BSDZF4ABB1PMN5M3TZ&tp_b=39U1BHVTDMD8BSDZF4ABB1PMN5M3TZ&c=365198&tp_c=365198","heads":2,"tails":8,"studentIndex":22,"studentTrueHypers":{"a":8,"b":2},"studentGuess":0.5,"delta":0.3,"totalExamples":10,"bonusSoFar":5.77},{"rt":5117,"response":{"heads":"1","tails":"12"},"type":"response","condition":"seqNoFeedback","trueTheta":0.2,"classrooms":["C","D"],"studentTrueClassroom":"D","exampleSet":"second","trial_type":"survey-html-form","trial_index":181,"time_elapsed":1191776,"internal_node_id":"0.0-177.0-0.0","params":{"nStudents":24,"maxFlips":30,"completionMinutes":45,"basePay":8,"maxBonus":9,"perTrialBonus":0.5,"perTrialBonusThreshold":0.1,"exampleCost":0.01},"classroomParams":{"A":{"a":1,"b":4},"B":{"a":4,"b":1},"C":{"a":2,"b":8},"D":{"a":8,"b":2}},"conditions":["nonSeqFull","nonSeqPartial","seqNoFeedback","seqFeedback"],"classroomPairings":[["A","B"],["C","D"]],"coinWeights":[0.2,0.5,0.8],"subjectId":"A163XFZG5BI0XU","assignmentId":"39U1BHVTDMD8BSDZF4ABB1PMN5M3TZ","hitId":"3QGHA0EA0JM3KKNCY0PQRLYAHJ3BWH","url":"https://gershmanlab.com/experiments/alicia/teaching/experiment/?hitId=3QGHA0EA0JM3KKNCY0PQRLYAHJ3BWH&workerId=A163XFZG5BI0XU&assignmentId=39U1BHVTDMD8BSDZF4ABB1PMN5M3TZ&a=TBU98&tp_a=TBU98&b=39U1BHVTDMD8BSDZF4ABB1PMN5M3TZ&tp_b=39U1BHVTDMD8BSDZF4ABB1PMN5M3TZ&c=365198&tp_c=365198","firstResponseHeads":2,"firstResponseTails":8,"secondResponseHeads":1,"secondResponseTails":12,"studentIndex":22,"studentTrueHypers":{"a":8,"b":2},"studentGuess":0.3333333333333333,"delta":0.1333333333333333,"bonus":0,"bonusSoFar":5.77,"totalExamples":23},{"rt":2747,"response":{"heads":"8","tails":"2"},"type":"response","condition":"seqNoFeedback","trueTheta":0.8,"classrooms":["C","D"],"studentTrueClassroom":"C","exampleSet":"first","trial_type":"survey-html-form","trial_index":187,"time_elapsed":1210314,"internal_node_id":"0.0-183.0-0.0","params":{"nStudents":24,"maxFlips":30,"completionMinutes":45,"basePay":8,"maxBonus":9,"perTrialBonus":0.5,"perTrialBonusThreshold":0.1,"exampleCost":0.01},"classroomParams":{"A":{"a":1,"b":4},"B":{"a":4,"b":1},"C":{"a":2,"b":8},"D":{"a":8,"b":2}},"conditions":["nonSeqFull","nonSeqPartial","seqNoFeedback","seqFeedback"],"classroomPairings":[["A","B"],["C","D"]],"coinWeights":[0.2,0.5,0.8],"subjectId":"A163XFZG5BI0XU","assignmentId":"39U1BHVTDMD8BSDZF4ABB1PMN5M3TZ","hitId":"3QGHA0EA0JM3KKNCY0PQRLYAHJ3BWH","url":"https://gershmanlab.com/experiments/alicia/teaching/experiment/?hitId=3QGHA0EA0JM3KKNCY0PQRLYAHJ3BWH&workerId=A163XFZG5BI0XU&assignmentId=39U1BHVTDMD8BSDZF4ABB1PMN5M3TZ&a=TBU98&tp_a=TBU98&b=39U1BHVTDMD8BSDZF4ABB1PMN5M3TZ&tp_b=39U1BHVTDMD8BSDZF4ABB1PMN5M3TZ&c=365198&tp_c=365198","heads":8,"tails":2,"studentIndex":23,"studentTrueHypers":{"a":2,"b":8},"studentGuess":0.5,"delta":0.30000000000000004,"totalExamples":10,"bonusSoFar":5.77},{"rt":2835,"response":{"heads":"8","tails":"2"},"type":"response","condition":"seqNoFeedback","trueTheta":0.8,"classrooms":["C","D"],"studentTrueClassroom":"C","exampleSet":"second","trial_type":"survey-html-form","trial_index":190,"time_elapsed":1220404,"internal_node_id":"0.0-186.0-0.0","params":{"nStudents":24,"maxFlips":30,"completionMinutes":45,"basePay":8,"maxBonus":9,"perTrialBonus":0.5,"perTrialBonusThreshold":0.1,"exampleCost":0.01},"classroomParams":{"A":{"a":1,"b":4},"B":{"a":4,"b":1},"C":{"a":2,"b":8},"D":{"a":8,"b":2}},"conditions":["nonSeqFull","nonSeqPartial","seqNoFeedback","seqFeedback"],"classroomPairings":[["A","B"],["C","D"]],"coinWeights":[0.2,0.5,0.8],"subjectId":"A163XFZG5BI0XU","assignmentId":"39U1BHVTDMD8BSDZF4ABB1PMN5M3TZ","hitId":"3QGHA0EA0JM3KKNCY0PQRLYAHJ3BWH","url":"https://gershmanlab.com/experiments/alicia/teaching/experiment/?hitId=3QGHA0EA0JM3KKNCY0PQRLYAHJ3BWH&workerId=A163XFZG5BI0XU&assignmentId=39U1BHVTDMD8BSDZF4ABB1PMN5M3TZ&a=TBU98&tp_a=TBU98&b=39U1BHVTDMD8BSDZF4ABB1PMN5M3TZ&tp_b=39U1BHVTDMD8BSDZF4ABB1PMN5M3TZ&c=365198&tp_c=365198","firstResponseHeads":8,"firstResponseTails":2,"secondResponseHeads":8,"secondResponseTails":2,"studentIndex":23,"studentTrueHypers":{"a":2,"b":8},"studentGuess":0.6,"delta":0.20000000000000007,"bonus":0,"bonusSoFar":5.77,"totalExamples":20},{"rt":12348,"response":{"gender":"male","age":"40","understood":"yes","comments":"none"},"type":"response","trial_type":"survey-html-form","trial_index":194,"time_elapsed":1242010,"internal_node_id":"0.0-191.0","params":{"nStudents":24,"maxFlips":30,"completionMinutes":45,"basePay":8,"maxBonus":9,"perTrialBonus":0.5,"perTrialBonusThreshold":0.1,"exampleCost":0.01},"classroomParams":{"A":{"a":1,"b":4},"B":{"a":4,"b":1},"C":{"a":2,"b":8},"D":{"a":8,"b":2}},"conditions":["nonSeqFull","nonSeqPartial","seqNoFeedback","seqFeedback"],"classroomPairings":[["A","B"],["C","D"]],"coinWeights":[0.2,0.5,0.8],"subjectId":"A163XFZG5BI0XU","assignmentId":"39U1BHVTDMD8BSDZF4ABB1PMN5M3TZ","hitId":"3QGHA0EA0JM3KKNCY0PQRLYAHJ3BWH","url":"https://gershmanlab.com/experiments/alicia/teaching/experiment/?hitId=3QGHA0EA0JM3KKNCY0PQRLYAHJ3BWH&workerId=A163XFZG5BI0XU&assignmentId=39U1BHVTDMD8BSDZF4ABB1PMN5M3TZ&a=TBU98&tp_a=TBU98&b=39U1BHVTDMD8BSDZF4ABB1PMN5M3TZ&tp_b=39U1BHVTDMD8BSDZF4ABB1PMN5M3TZ&c=365198&tp_c=365198","totalBonus":5.77}]