[{"rt":42513,"response":{"heads":"2","tails":"8"},"type":"response","condition":"seqFeedback","trueTheta":0.2,"classrooms":["C","D"],"studentTrueClassroom":"D","exampleSet":"first","trial_type":"survey-html-form","trial_index":7,"time_elapsed":350475,"internal_node_id":"0.0-6.0-0.0","params":{"nStudents":24,"maxFlips":30,"completionMinutes":45,"basePay":8,"maxBonus":9,"perTrialBonus":0.5,"perTrialBonusThreshold":0.1,"exampleCost":0.01},"classroomParams":{"A":{"a":1,"b":4},"B":{"a":4,"b":1},"C":{"a":2,"b":8},"D":{"a":8,"b":2}},"conditions":["nonSeqFull","nonSeqPartial","seqNoFeedback","seqFeedback"],"classroomPairings":[["A","B"],["C","D"]],"coinWeights":[0.2,0.5,0.8],"subjectId":"A19WXS1CLVLEEX","assignmentId":"3OE22WJIGJAFI6YQDKCHT54ZGB6QUF","hitId":"3QGHA0EA0JM3KKNCY0PQRLYAHJ3BWH","url":"https://gershmanlab.com/experiments/alicia/teaching/experiment/?hitId=3QGHA0EA0JM3KKNCY0PQRLYAHJ3BWH&workerId=A19WXS1CLVLEEX&assignmentId=3OE22WJIGJAFI6YQDKCHT54ZGB6QUF&a=I2EO8&tp_a=I2EO8&b=3OE22WJIGJAFI6YQDKCHT54ZGB6QUF&tp_b=3OE22WJIGJAFI6YQDKCHT54ZGB6QUF&c=365198&tp_c=365198","heads":2,"tails":8,"studentIndex":0,"studentTrueHypers":{"a":8,"b":2},"studentGuess":0.5,"delta":0.3,"totalExamples":10,"bonusSoFar":0},{"rt":14173,"response":{"heads":"2","tails":"10"},"type":"response","condition":"seqFeedback","trueTheta":0.2,"classrooms":["C","D"],"studentTrueClassroom":"D","exampleSet":"second","trial_type":"survey-html-form","trial_index":11,"time_elapsed":377110,"internal_node_id":"0.0-10.0-0.0","params":{"nStudents":24,"maxFlips":30,"completionMinutes":45,"basePay":8,"maxBonus":9,"perTrialBonus":0.5,"perTrialBonusThreshold":0.1,"exampleCost":0.01},"classroomParams":{"A":{"a":1,"b":4},"B":{"a":4,"b":1},"C":{"a":2,"b":8},"D":{"a":8,"b":2}},"conditions":["nonSeqFull","nonSeqPartial","seqNoFeedback","seqFeedback"],"classroomPairings":[["A","B"],["C","D"]],"coinWeights":[0.2,0.5,0.8],"subjectId":"A19WXS1CLVLEEX","assignmentId":"3OE22WJIGJAFI6YQDKCHT54ZGB6QUF","hitId":"3QGHA0EA0JM3KKNCY0PQRLYAHJ3BWH","url":"https://gershmanlab.com/experiments/alicia/teaching/experiment/?hitId=3QGHA0EA0JM3KKNCY0PQRLYAHJ3BWH&workerId=A19WXS1CLVLEEX&assignmentId=3OE22WJIGJAFI6YQDKCHT54ZGB6QUF&a=I2EO8&tp_a=I2EO8&b=3OE22WJIGJAFI6YQDKCHT54ZGB6QUF&tp_b=3OE22WJIGJAFI6YQDKCHT54ZGB6QUF&c=365198&tp_c=365198","firstResponseHeads":2,"firstResponseTails":8,"secondResponseHeads":2,"secondResponseTails":10,"studentIndex":0,"studentTrueHypers":{"a":8,"b":2},"studentGuess":0.375,"delta":0.175,"bonus":0,"bonusSoFar":0,"totalExamples":22},{"rt":13410,"response":{"heads":"2","tails":"20"},"type":"response","condition":"seqNoFeedback","trueTheta":0.2,"classrooms":["C","D"],"studentTrueClassroom":"C","exampleSet":"first","trial_type":"survey-html-form","trial_index":17,"time_elapsed":412285,"internal_node_id":"0.0-16.0-0.0","params":{"nStudents":24,"maxFlips":30,"completionMinutes":45,"basePay":8,"maxBonus":9,"perTrialBonus":0.5,"perTrialBonusThreshold":0.1,"exampleCost":0.01},"classroomParams":{"A":{"a":1,"b":4},"B":{"a":4,"b":1},"C":{"a":2,"b":8},"D":{"a":8,"b":2}},"conditions":["nonSeqFull","nonSeqPartial","seqNoFeedback","seqFeedback"],"classroomPairings":[["A","B"],["C","D"]],"coinWeights":[0.2,0.5,0.8],"subjectId":"A19WXS1CLVLEEX","assignmentId":"3OE22WJIGJAFI6YQDKCHT54ZGB6QUF","hitId":"3QGHA0EA0JM3KKNCY0PQRLYAHJ3BWH","url":"https://gershmanlab.com/experiments/alicia/teaching/experiment/?hitId=3QGHA0EA0JM3KKNCY0PQRLYAHJ3BWH&workerId=A19WXS1CLVLEEX&assignmentId=3OE22WJIGJAFI6YQDKCHT54ZGB6QUF&a=I2EO8&tp_a=I2EO8&b=3OE22WJIGJAFI6YQDKCHT54ZGB6QUF&tp_b=3OE22WJIGJAFI6YQDKCHT54ZGB6QUF&c=365198&tp_c=365198","heads":2,"tails":20,"studentIndex":1,"studentTrueHypers":{"a":2,"b":8},"studentGuess":0.125,"delta":0.07500000000000001,"totalExamples":22,"bonusSoFar":0},{"rt":14009,"response":{"heads":"2","tails":"20"},"type":"response","condition":"seqNoFeedback","trueTheta":0.2,"classrooms":["C","D"],"studentTrueClassroom":"C","exampleSet":"second","trial_type":"survey-html-form","trial_index":20,"time_elapsed":433317,"internal_node_id":"0.0-19.0-0.0","params":{"nStudents":24,"maxFlips":30,"completionMinutes":45,"basePay":8,"maxBonus":9,"perTrialBonus":0.5,"perTrialBonusThreshold":0.1,"exampleCost":0.01},"classroomParams":{"A":{"a":1,"b":4},"B":{"a":4,"b":1},"C":{"a":2,"b":8},"D":{"a":8,"b":2}},"conditions":["nonSeqFull","nonSeqPartial","seqNoFeedback","seqFeedback"],"classroomPairings":[["A","B"],["C","D"]],"coinWeights":[0.2,0.5,0.8],"subjectId":"A19WXS1CLVLEEX","assignmentId":"3OE22WJIGJAFI6YQDKCHT54ZGB6QUF","hitId":"3QGHA0EA0JM3KKNCY0PQRLYAHJ3BWH","url":"https://gershmanlab.com/experiments/alicia/teaching/experiment/?hitId=3QGHA0EA0JM3KKNCY0PQRLYAHJ3BWH&workerId=A19WXS1CLVLEEX&assignmentId=3OE22WJIGJAFI6YQDKCHT54ZGB6QUF&a=I2EO8&tp_a=I2EO8&b=3OE22WJIGJAFI6YQDKCHT54ZGB6QUF&tp_b=3OE22WJIGJAFI6YQDKCHT54ZGB6QUF&c=365198&tp_c=365198","firstResponseHeads":2,"firstResponseTails":20,"secondResponseHeads":2,"secondResponseTails":20,"studentIndex":1,"studentTrueHypers":{"a":2,"b":8},"studentGuess":0.1111111111111111,"delta":0.0888888888888889,"bonus":0.06,"bonusSoFar":0.06,"totalExamples":44},{"rt":8939,"response":{"heads":"2","tails":"16"},"type":"response","condition":"nonSeqFull","trueTheta":0.2,"classrooms":["C","D"],"studentTrueClassroom":"C","exampleSet":"first","trial_type":"survey-html-form","trial_index":26,"time_elapsed":463969,"internal_node_id":"0.0-25.0-0.0","params":{"nStudents":24,"maxFlips":30,"completionMinutes":45,"basePay":8,"maxBonus":9,"perTrialBonus":0.5,"perTrialBonusThreshold":0.1,"exampleCost":0.01},"classroomParams":{"A":{"a":1,"b":4},"B":{"a":4,"b":1},"C":{"a":2,"b":8},"D":{"a":8,"b":2}},"conditions":["nonSeqFull","nonSeqPartial","seqNoFeedback","seqFeedback"],"classroomPairings":[["A","B"],["C","D"]],"coinWeights":[0.2,0.5,0.8],"subjectId":"A19WXS1CLVLEEX","assignmentId":"3OE22WJIGJAFI6YQDKCHT54ZGB6QUF","hitId":"3QGHA0EA0JM3KKNCY0PQRLYAHJ3BWH","url":"https://gershmanlab.com/experiments/alicia/teaching/experiment/?hitId=3QGHA0EA0JM3KKNCY0PQRLYAHJ3BWH&workerId=A19WXS1CLVLEEX&assignmentId=3OE22WJIGJAFI6YQDKCHT54ZGB6QUF&a=I2EO8&tp_a=I2EO8&b=3OE22WJIGJAFI6YQDKCHT54ZGB6QUF&tp_b=3OE22WJIGJAFI6YQDKCHT54ZGB6QUF&c=365198&tp_c=365198","heads":2,"tails":16,"studentIndex":2,"studentTrueHypers":{"a":2,"b":8},"studentGuess":0.14285714285714285,"delta":0.05714285714285716,"totalExamples":18,"bonus":0.32,"bonusSoFar":0.38},{"rt":15931,"response":{"heads":"12","tails":"2"},"type":"response","condition":"nonSeqPartial","trueTheta":0.8,"classrooms":["A","B"],"studentTrueClassroom":"B","exampleSet":"first","trial_type":"survey-html-form","trial_index":32,"time_elapsed":497041,"internal_node_id":"0.0-31.0-0.0","params":{"nStudents":24,"maxFlips":30,"completionMinutes":45,"basePay":8,"maxBonus":9,"perTrialBonus":0.5,"perTrialBonusThreshold":0.1,"exampleCost":0.01},"classroomParams":{"A":{"a":1,"b":4},"B":{"a":4,"b":1},"C":{"a":2,"b":8},"D":{"a":8,"b":2}},"conditions":["nonSeqFull","nonSeqPartial","seqNoFeedback","seqFeedback"],"classroomPairings":[["A","B"],["C","D"]],"coinWeights":[0.2,0.5,0.8],"subjectId":"A19WXS1CLVLEEX","assignmentId":"3OE22WJIGJAFI6YQDKCHT54ZGB6QUF","hitId":"3QGHA0EA0JM3KKNCY0PQRLYAHJ3BWH","url":"https://gershmanlab.com/experiments/alicia/teaching/experiment/?hitId=3QGHA0EA0JM3KKNCY0PQRLYAHJ3BWH&workerId=A19WXS1CLVLEEX&assignmentId=3OE22WJIGJAFI6YQDKCHT54ZGB6QUF&a=I2EO8&tp_a=I2EO8&b=3OE22WJIGJAFI6YQDKCHT54ZGB6QUF&tp_b=3OE22WJIGJAFI6YQDKCHT54ZGB6QUF&c=365198&tp_c=365198","heads":12,"tails":2,"studentIndex":3,"studentTrueHypers":{"a":4,"b":1},"studentGuess":0.8421052631578947,"delta":0.042105263157894646,"totalExamples":14,"bonus":0.36,"bonusSoFar":0.74},{"rt":7686,"response":{"heads":"4","tails":"4"},"type":"response","condition":"seqFeedback","trueTheta":0.5,"classrooms":["A","B"],"studentTrueClassroom":"A","exampleSet":"first","trial_type":"survey-html-form","trial_index":38,"time_elapsed":521681,"internal_node_id":"0.0-37.0-0.0","params":{"nStudents":24,"maxFlips":30,"completionMinutes":45,"basePay":8,"maxBonus":9,"perTrialBonus":0.5,"perTrialBonusThreshold":0.1,"exampleCost":0.01},"classroomParams":{"A":{"a":1,"b":4},"B":{"a":4,"b":1},"C":{"a":2,"b":8},"D":{"a":8,"b":2}},"conditions":["nonSeqFull","nonSeqPartial","seqNoFeedback","seqFeedback"],"classroomPairings":[["A","B"],["C","D"]],"coinWeights":[0.2,0.5,0.8],"subjectId":"A19WXS1CLVLEEX","assignmentId":"3OE22WJIGJAFI6YQDKCHT54ZGB6QUF","hitId":"3QGHA0EA0JM3KKNCY0PQRLYAHJ3BWH","url":"https://gershmanlab.com/experiments/alicia/teaching/experiment/?hitId=3QGHA0EA0JM3KKNCY0PQRLYAHJ3BWH&workerId=A19WXS1CLVLEEX&assignmentId=3OE22WJIGJAFI6YQDKCHT54ZGB6QUF&a=I2EO8&tp_a=I2EO8&b=3OE22WJIGJAFI6YQDKCHT54ZGB6QUF&tp_b=3OE22WJIGJAFI6YQDKCHT54ZGB6QUF&c=365198&tp_c=365198","heads":4,"tails":4,"studentIndex":4,"studentTrueHypers":{"a":1,"b":4},"studentGuess":0.38461538461538464,"delta":0.11538461538461536,"totalExamples":8,"bonusSoFar":0.74},{"rt":7594,"response":{"heads":"8","tails":"8"},"type":"response","condition":"seqFeedback","trueTheta":0.5,"classrooms":["A","B"],"studentTrueClassroom":"A","exampleSet":"second","trial_type":"survey-html-form","trial_index":42,"time_elapsed":538754,"internal_node_id":"0.0-41.0-0.0","params":{"nStudents":24,"maxFlips":30,"completionMinutes":45,"basePay":8,"maxBonus":9,"perTrialBonus":0.5,"perTrialBonusThreshold":0.1,"exampleCost":0.01},"classroomParams":{"A":{"a":1,"b":4},"B":{"a":4,"b":1},"C":{"a":2,"b":8},"D":{"a":8,"b":2}},"conditions":["nonSeqFull","nonSeqPartial","seqNoFeedback","seqFeedback"],"classroomPairings":[["A","B"],["C","D"]],"coinWeights":[0.2,0.5,0.8],"subjectId":"A19WXS1CLVLEEX","assignmentId":"3OE22WJIGJAFI6YQDKCHT54ZGB6QUF","hitId":"3QGHA0EA0JM3KKNCY0PQRLYAHJ3BWH","url":"https://gershmanlab.com/experiments/alicia/teaching/experiment/?hitId=3QGHA0EA0JM3KKNCY0PQRLYAHJ3BWH&workerId=A19WXS1CLVLEEX&assignmentId=3OE22WJIGJAFI6YQDKCHT54ZGB6QUF&a=I2EO8&tp_a=I2EO8&b=3OE22WJIGJAFI6YQDKCHT54ZGB6QUF&tp_b=3OE22WJIGJAFI6YQDKCHT54ZGB6QUF&c=365198&tp_c=365198","firstResponseHeads":4,"firstResponseTails":4,"secondResponseHeads":8,"secondResponseTails":8,"studentIndex":4,"studentTrueHypers":{"a":1,"b":4},"studentGuess":0.4482758620689655,"delta":0.051724137931034475,"bonus":0.26,"bonusSoFar":1,"totalExamples":24},{"rt":11376,"response":{"heads":"12","tails":"2"},"type":"response","condition":"nonSeqFull","trueTheta":0.8,"classrooms":["A","B"],"studentTrueClassroom":"B","exampleSet":"first","trial_type":"survey-html-form","trial_index":48,"time_elapsed":565390,"internal_node_id":"0.0-47.0-0.0","params":{"nStudents":24,"maxFlips":30,"completionMinutes":45,"basePay":8,"maxBonus":9,"perTrialBonus":0.5,"perTrialBonusThreshold":0.1,"exampleCost":0.01},"classroomParams":{"A":{"a":1,"b":4},"B":{"a":4,"b":1},"C":{"a":2,"b":8},"D":{"a":8,"b":2}},"conditions":["nonSeqFull","nonSeqPartial","seqNoFeedback","seqFeedback"],"classroomPairings":[["A","B"],["C","D"]],"coinWeights":[0.2,0.5,0.8],"subjectId":"A19WXS1CLVLEEX","assignmentId":"3OE22WJIGJAFI6YQDKCHT54ZGB6QUF","hitId":"3QGHA0EA0JM3KKNCY0PQRLYAHJ3BWH","url":"https://gershmanlab.com/experiments/alicia/teaching/experiment/?hitId=3QGHA0EA0JM3KKNCY0PQRLYAHJ3BWH&workerId=A19WXS1CLVLEEX&assignmentId=3OE22WJIGJAFI6YQDKCHT54ZGB6QUF&a=I2EO8&tp_a=I2EO8&b=3OE22WJIGJAFI6YQDKCHT54ZGB6QUF&tp_b=3OE22WJIGJAFI6YQDKCHT54ZGB6QUF&c=365198&tp_c=365198","heads":12,"tails":2,"studentIndex":5,"studentTrueHypers":{"a":4,"b":1},"studentGuess":0.8421052631578947,"delta":0.042105263157894646,"totalExamples":14,"bonus":0.36,"bonusSoFar":1.36},{"rt":14021,"response":{"heads":"11","tails":"2"},"type":"response","condition":"seqFeedback","trueTheta":0.8,"classrooms":["C","D"],"studentTrueClassroom":"D","exampleSet":"first","trial_type":"survey-html-form","trial_index":54,"time_elapsed":593215,"internal_node_id":"0.0-53.0-0.0","params":{"nStudents":24,"maxFlips":30,"completionMinutes":45,"basePay":8,"maxBonus":9,"perTrialBonus":0.5,"perTrialBonusThreshold":0.1,"exampleCost":0.01},"classroomParams":{"A":{"a":1,"b":4},"B":{"a":4,"b":1},"C":{"a":2,"b":8},"D":{"a":8,"b":2}},"conditions":["nonSeqFull","nonSeqPartial","seqNoFeedback","seqFeedback"],"classroomPairings":[["A","B"],["C","D"]],"coinWeights":[0.2,0.5,0.8],"subjectId":"A19WXS1CLVLEEX","assignmentId":"3OE22WJIGJAFI6YQDKCHT54ZGB6QUF","hitId":"3QGHA0EA0JM3KKNCY0PQRLYAHJ3BWH","url":"https://gershmanlab.com/experiments/alicia/teaching/experiment/?hitId=3QGHA0EA0JM3KKNCY0PQRLYAHJ3BWH&workerId=A19WXS1CLVLEEX&assignmentId=3OE22WJIGJAFI6YQDKCHT54ZGB6QUF&a=I2EO8&tp_a=I2EO8&b=3OE22WJIGJAFI6YQDKCHT54ZGB6QUF&tp_b=3OE22WJIGJAFI6YQDKCHT54ZGB6QUF&c=365198&tp_c=365198","heads":11,"tails":2,"studentIndex":6,"studentTrueHypers":{"a":8,"b":2},"studentGuess":0.8260869565217391,"delta":0.02608695652173909,"totalExamples":13,"bonusSoFar":1.36},{"rt":7736,"response":{"heads":"11","tails":"2"},"type":"response","condition":"seqFeedback","trueTheta":0.8,"classrooms":["C","D"],"studentTrueClassroom":"D","exampleSet":"second","trial_type":"survey-html-form","trial_index":58,"time_elapsed":613199,"internal_node_id":"0.0-57.0-0.0","params":{"nStudents":24,"maxFlips":30,"completionMinutes":45,"basePay":8,"maxBonus":9,"perTrialBonus":0.5,"perTrialBonusThreshold":0.1,"exampleCost":0.01},"classroomParams":{"A":{"a":1,"b":4},"B":{"a":4,"b":1},"C":{"a":2,"b":8},"D":{"a":8,"b":2}},"conditions":["nonSeqFull","nonSeqPartial","seqNoFeedback","seqFeedback"],"classroomPairings":[["A","B"],["C","D"]],"coinWeights":[0.2,0.5,0.8],"subjectId":"A19WXS1CLVLEEX","assignmentId":"3OE22WJIGJAFI6YQDKCHT54ZGB6QUF","hitId":"3QGHA0EA0JM3KKNCY0PQRLYAHJ3BWH","url":"https://gershmanlab.com/experiments/alicia/teaching/experiment/?hitId=3QGHA0EA0JM3KKNCY0PQRLYAHJ3BWH&workerId=A19WXS1CLVLEEX&assignmentId=3OE22WJIGJAFI6YQDKCHT54ZGB6QUF&a=I2EO8&tp_a=I2EO8&b=3OE22WJIGJAFI6YQDKCHT54ZGB6QUF&tp_b=3OE22WJIGJAFI6YQDKCHT54ZGB6QUF&c=365198&tp_c=365198","firstResponseHeads":11,"firstResponseTails":2,"secondResponseHeads":11,"secondResponseTails":2,"studentIndex":6,"studentTrueHypers":{"a":8,"b":2},"studentGuess":0.8333333333333334,"delta":0.033333333333333326,"bonus":0.24,"bonusSoFar":1.6,"totalExamples":26},{"rt":9854,"response":{"heads":"2","tails":"12"},"type":"response","condition":"seqNoFeedback","trueTheta":0.2,"classrooms":["A","B"],"studentTrueClassroom":"B","exampleSet":"first","trial_type":"survey-html-form","trial_index":64,"time_elapsed":638923,"internal_node_id":"0.0-63.0-0.0","params":{"nStudents":24,"maxFlips":30,"completionMinutes":45,"basePay":8,"maxBonus":9,"perTrialBonus":0.5,"perTrialBonusThreshold":0.1,"exampleCost":0.01},"classroomParams":{"A":{"a":1,"b":4},"B":{"a":4,"b":1},"C":{"a":2,"b":8},"D":{"a":8,"b":2}},"conditions":["nonSeqFull","nonSeqPartial","seqNoFeedback","seqFeedback"],"classroomPairings":[["A","B"],["C","D"]],"coinWeights":[0.2,0.5,0.8],"subjectId":"A19WXS1CLVLEEX","assignmentId":"3OE22WJIGJAFI6YQDKCHT54ZGB6QUF","hitId":"3QGHA0EA0JM3KKNCY0PQRLYAHJ3BWH","url":"https://gershmanlab.com/experiments/alicia/teaching/experiment/?hitId=3QGHA0EA0JM3KKNCY0PQRLYAHJ3BWH&workerId=A19WXS1CLVLEEX&assignmentId=3OE22WJIGJAFI6YQDKCHT54ZGB6QUF&a=I2EO8&tp_a=I2EO8&b=3OE22WJIGJAFI6YQDKCHT54ZGB6QUF&tp_b=3OE22WJIGJAFI6YQDKCHT54ZGB6QUF&c=365198&tp_c=365198","heads":2,"tails":12,"studentIndex":7,"studentTrueHypers":{"a":4,"b":1},"studentGuess":0.3157894736842105,"delta":0.1157894736842105,"totalExamples":14,"bonusSoFar":1.6},{"rt":8039,"response":{"heads":"2","tails":"12"},"type":"response","condition":"seqNoFeedback","trueTheta":0.2,"classrooms":["A","B"],"studentTrueClassroom":"B","exampleSet":"second","trial_type":"survey-html-form","trial_index":67,"time_elapsed":652483,"internal_node_id":"0.0-66.0-0.0","params":{"nStudents":24,"maxFlips":30,"completionMinutes":45,"basePay":8,"maxBonus":9,"perTrialBonus":0.5,"perTrialBonusThreshold":0.1,"exampleCost":0.01},"classroomParams":{"A":{"a":1,"b":4},"B":{"a":4,"b":1},"C":{"a":2,"b":8},"D":{"a":8,"b":2}},"conditions":["nonSeqFull","nonSeqPartial","seqNoFeedback","seqFeedback"],"classroomPairings":[["A","B"],["C","D"]],"coinWeights":[0.2,0.5,0.8],"subjectId":"A19WXS1CLVLEEX","assignmentId":"3OE22WJIGJAFI6YQDKCHT54ZGB6QUF","hitId":"3QGHA0EA0JM3KKNCY0PQRLYAHJ3BWH","url":"https://gershmanlab.com/experiments/alicia/teaching/experiment/?hitId=3QGHA0EA0JM3KKNCY0PQRLYAHJ3BWH&workerId=A19WXS1CLVLEEX&assignmentId=3OE22WJIGJAFI6YQDKCHT54ZGB6QUF&a=I2EO8&tp_a=I2EO8&b=3OE22WJIGJAFI6YQDKCHT54ZGB6QUF&tp_b=3OE22WJIGJAFI6YQDKCHT54ZGB6QUF&c=365198&tp_c=365198","firstResponseHeads":2,"firstResponseTails":12,"secondResponseHeads":2,"secondResponseTails":12,"studentIndex":7,"studentTrueHypers":{"a":4,"b":1},"studentGuess":0.24242424242424243,"delta":0.04242424242424242,"bonus":0.22,"bonusSoFar":1.82,"totalExamples":28},{"rt":7687,"response":{"heads":"2","tails":"13"},"type":"response","condition":"nonSeqPartial","trueTheta":0.2,"classrooms":["C","D"],"studentTrueClassroom":"C","exampleSet":"first","trial_type":"survey-html-form","trial_index":73,"time_elapsed":675367,"internal_node_id":"0.0-72.0-0.0","params":{"nStudents":24,"maxFlips":30,"completionMinutes":45,"basePay":8,"maxBonus":9,"perTrialBonus":0.5,"perTrialBonusThreshold":0.1,"exampleCost":0.01},"classroomParams":{"A":{"a":1,"b":4},"B":{"a":4,"b":1},"C":{"a":2,"b":8},"D":{"a":8,"b":2}},"conditions":["nonSeqFull","nonSeqPartial","seqNoFeedback","seqFeedback"],"classroomPairings":[["A","B"],["C","D"]],"coinWeights":[0.2,0.5,0.8],"subjectId":"A19WXS1CLVLEEX","assignmentId":"3OE22WJIGJAFI6YQDKCHT54ZGB6QUF","hitId":"3QGHA0EA0JM3KKNCY0PQRLYAHJ3BWH","url":"https://gershmanlab.com/experiments/alicia/teaching/experiment/?hitId=3QGHA0EA0JM3KKNCY0PQRLYAHJ3BWH&workerId=A19WXS1CLVLEEX&assignmentId=3OE22WJIGJAFI6YQDKCHT54ZGB6QUF&a=I2EO8&tp_a=I2EO8&b=3OE22WJIGJAFI6YQDKCHT54ZGB6QUF&tp_b=3OE22WJIGJAFI6YQDKCHT54ZGB6QUF&c=365198&tp_c=365198","heads":2,"tails":13,"studentIndex":8,"studentTrueHypers":{"a":2,"b":8},"studentGuess":0.16,"delta":0.04000000000000001,"totalExamples":15,"bonus":0.35,"bonusSoFar":2.17},{"rt":9930,"response":{"heads":"15","tails":"15"},"type":"response","condition":"seqNoFeedback","trueTheta":0.5,"classrooms":["C","D"],"studentTrueClassroom":"C","exampleSet":"first","trial_type":"survey-html-form","trial_index":79,"time_elapsed":698908,"internal_node_id":"0.0-78.0-0.0","params":{"nStudents":24,"maxFlips":30,"completionMinutes":45,"basePay":8,"maxBonus":9,"perTrialBonus":0.5,"perTrialBonusThreshold":0.1,"exampleCost":0.01},"classroomParams":{"A":{"a":1,"b":4},"B":{"a":4,"b":1},"C":{"a":2,"b":8},"D":{"a":8,"b":2}},"conditions":["nonSeqFull","nonSeqPartial","seqNoFeedback","seqFeedback"],"classroomPairings":[["A","B"],["C","D"]],"coinWeights":[0.2,0.5,0.8],"subjectId":"A19WXS1CLVLEEX","assignmentId":"3OE22WJIGJAFI6YQDKCHT54ZGB6QUF","hitId":"3QGHA0EA0JM3KKNCY0PQRLYAHJ3BWH","url":"https://gershmanlab.com/experiments/alicia/teaching/experiment/?hitId=3QGHA0EA0JM3KKNCY0PQRLYAHJ3BWH&workerId=A19WXS1CLVLEEX&assignmentId=3OE22WJIGJAFI6YQDKCHT54ZGB6QUF&a=I2EO8&tp_a=I2EO8&b=3OE22WJIGJAFI6YQDKCHT54ZGB6QUF&tp_b=3OE22WJIGJAFI6YQDKCHT54ZGB6QUF&c=365198&tp_c=365198","heads":15,"tails":15,"studentIndex":9,"studentTrueHypers":{"a":2,"b":8},"studentGuess":0.425,"delta":0.07500000000000001,"totalExamples":30,"bonusSoFar":2.17},{"rt":10128,"response":{"heads":"15","tails":"15"},"type":"response","condition":"seqNoFeedback","trueTheta":0.5,"classrooms":["C","D"],"studentTrueClassroom":"C","exampleSet":"second","trial_type":"survey-html-form","trial_index":82,"time_elapsed":715791,"internal_node_id":"0.0-81.0-0.0","params":{"nStudents":24,"maxFlips":30,"completionMinutes":45,"basePay":8,"maxBonus":9,"perTrialBonus":0.5,"perTrialBonusThreshold":0.1,"exampleCost":0.01},"classroomParams":{"A":{"a":1,"b":4},"B":{"a":4,"b":1},"C":{"a":2,"b":8},"D":{"a":8,"b":2}},"conditions":["nonSeqFull","nonSeqPartial","seqNoFeedback","seqFeedback"],"classroomPairings":[["A","B"],["C","D"]],"coinWeights":[0.2,0.5,0.8],"subjectId":"A19WXS1CLVLEEX","assignmentId":"3OE22WJIGJAFI6YQDKCHT54ZGB6QUF","hitId":"3QGHA0EA0JM3KKNCY0PQRLYAHJ3BWH","url":"https://gershmanlab.com/experiments/alicia/teaching/experiment/?hitId=3QGHA0EA0JM3KKNCY0PQRLYAHJ3BWH&workerId=A19WXS1CLVLEEX&assignmentId=3OE22WJIGJAFI6YQDKCHT54ZGB6QUF&a=I2EO8&tp_a=I2EO8&b=3OE22WJIGJAFI6YQDKCHT54ZGB6QUF&tp_b=3OE22WJIGJAFI6YQDKCHT54ZGB6QUF&c=365198&tp_c=365198","firstResponseHeads":15,"firstResponseTails":15,"secondResponseHeads":15,"secondResponseTails":15,"studentIndex":9,"studentTrueHypers":{"a":2,"b":8},"studentGuess":0.45714285714285713,"delta":0.04285714285714287,"bonus":0,"bonusSoFar":2.17,"totalExamples":60},{"rt":10861,"response":{"heads":"7","tails":"7"},"type":"response","condition":"seqFeedback","trueTheta":0.5,"classrooms":["C","D"],"studentTrueClassroom":"C","exampleSet":"first","trial_type":"survey-html-form","trial_index":88,"time_elapsed":745994,"internal_node_id":"0.0-87.0-0.0","params":{"nStudents":24,"maxFlips":30,"completionMinutes":45,"basePay":8,"maxBonus":9,"perTrialBonus":0.5,"perTrialBonusThreshold":0.1,"exampleCost":0.01},"classroomParams":{"A":{"a":1,"b":4},"B":{"a":4,"b":1},"C":{"a":2,"b":8},"D":{"a":8,"b":2}},"conditions":["nonSeqFull","nonSeqPartial","seqNoFeedback","seqFeedback"],"classroomPairings":[["A","B"],["C","D"]],"coinWeights":[0.2,0.5,0.8],"subjectId":"A19WXS1CLVLEEX","assignmentId":"3OE22WJIGJAFI6YQDKCHT54ZGB6QUF","hitId":"3QGHA0EA0JM3KKNCY0PQRLYAHJ3BWH","url":"https://gershmanlab.com/experiments/alicia/teaching/experiment/?hitId=3QGHA0EA0JM3KKNCY0PQRLYAHJ3BWH&workerId=A19WXS1CLVLEEX&assignmentId=3OE22WJIGJAFI6YQDKCHT54ZGB6QUF&a=I2EO8&tp_a=I2EO8&b=3OE22WJIGJAFI6YQDKCHT54ZGB6QUF&tp_b=3OE22WJIGJAFI6YQDKCHT54ZGB6QUF&c=365198&tp_c=365198","heads":7,"tails":7,"studentIndex":10,"studentTrueHypers":{"a":2,"b":8},"studentGuess":0.375,"delta":0.125,"totalExamples":14,"bonusSoFar":2.17},{"rt":11364,"response":{"heads":"5","tails":"5"},"type":"response","condition":"seqFeedback","trueTheta":0.5,"classrooms":["C","D"],"studentTrueClassroom":"C","exampleSet":"second","trial_type":"survey-html-form","trial_index":92,"time_elapsed":769626,"internal_node_id":"0.0-91.0-0.0","params":{"nStudents":24,"maxFlips":30,"completionMinutes":45,"basePay":8,"maxBonus":9,"perTrialBonus":0.5,"perTrialBonusThreshold":0.1,"exampleCost":0.01},"classroomParams":{"A":{"a":1,"b":4},"B":{"a":4,"b":1},"C":{"a":2,"b":8},"D":{"a":8,"b":2}},"conditions":["nonSeqFull","nonSeqPartial","seqNoFeedback","seqFeedback"],"classroomPairings":[["A","B"],["C","D"]],"coinWeights":[0.2,0.5,0.8],"subjectId":"A19WXS1CLVLEEX","assignmentId":"3OE22WJIGJAFI6YQDKCHT54ZGB6QUF","hitId":"3QGHA0EA0JM3KKNCY0PQRLYAHJ3BWH","url":"https://gershmanlab.com/experiments/alicia/teaching/experiment/?hitId=3QGHA0EA0JM3KKNCY0PQRLYAHJ3BWH&workerId=A19WXS1CLVLEEX&assignmentId=3OE22WJIGJAFI6YQDKCHT54ZGB6QUF&a=I2EO8&tp_a=I2EO8&b=3OE22WJIGJAFI6YQDKCHT54ZGB6QUF&tp_b=3OE22WJIGJAFI6YQDKCHT54ZGB6QUF&c=365198&tp_c=365198","firstResponseHeads":7,"firstResponseTails":7,"secondResponseHeads":5,"secondResponseTails":5,"studentIndex":10,"studentTrueHypers":{"a":2,"b":8},"studentGuess":0.4117647058823529,"delta":0.08823529411764708,"bonus":0.26,"bonusSoFar":2.43,"totalExamples":24},{"rt":18312,"response":{"heads":"1","tails":"10"},"type":"response","condition":"nonSeqFull","trueTheta":0.2,"classrooms":["A","B"],"studentTrueClassroom":"A","exampleSet":"first","trial_type":"survey-html-form","trial_index":98,"time_elapsed":800628,"internal_node_id":"0.0-97.0-0.0","params":{"nStudents":24,"maxFlips":30,"completionMinutes":45,"basePay":8,"maxBonus":9,"perTrialBonus":0.5,"perTrialBonusThreshold":0.1,"exampleCost":0.01},"classroomParams":{"A":{"a":1,"b":4},"B":{"a":4,"b":1},"C":{"a":2,"b":8},"D":{"a":8,"b":2}},"conditions":["nonSeqFull","nonSeqPartial","seqNoFeedback","seqFeedback"],"classroomPairings":[["A","B"],["C","D"]],"coinWeights":[0.2,0.5,0.8],"subjectId":"A19WXS1CLVLEEX","assignmentId":"3OE22WJIGJAFI6YQDKCHT54ZGB6QUF","hitId":"3QGHA0EA0JM3KKNCY0PQRLYAHJ3BWH","url":"https://gershmanlab.com/experiments/alicia/teaching/experiment/?hitId=3QGHA0EA0JM3KKNCY0PQRLYAHJ3BWH&workerId=A19WXS1CLVLEEX&assignmentId=3OE22WJIGJAFI6YQDKCHT54ZGB6QUF&a=I2EO8&tp_a=I2EO8&b=3OE22WJIGJAFI6YQDKCHT54ZGB6QUF&tp_b=3OE22WJIGJAFI6YQDKCHT54ZGB6QUF&c=365198&tp_c=365198","heads":1,"tails":10,"studentIndex":11,"studentTrueHypers":{"a":1,"b":4},"studentGuess":0.125,"delta":0.07500000000000001,"totalExamples":11,"bonus":0.39,"bonusSoFar":2.82},{"rt":10016,"response":{"heads":"9","tails":"1"},"type":"response","condition":"seqNoFeedback","trueTheta":0.8,"classrooms":["A","B"],"studentTrueClassroom":"B","exampleSet":"first","trial_type":"survey-html-form","trial_index":104,"time_elapsed":827811,"internal_node_id":"0.0-103.0-0.0","params":{"nStudents":24,"maxFlips":30,"completionMinutes":45,"basePay":8,"maxBonus":9,"perTrialBonus":0.5,"perTrialBonusThreshold":0.1,"exampleCost":0.01},"classroomParams":{"A":{"a":1,"b":4},"B":{"a":4,"b":1},"C":{"a":2,"b":8},"D":{"a":8,"b":2}},"conditions":["nonSeqFull","nonSeqPartial","seqNoFeedback","seqFeedback"],"classroomPairings":[["A","B"],["C","D"]],"coinWeights":[0.2,0.5,0.8],"subjectId":"A19WXS1CLVLEEX","assignmentId":"3OE22WJIGJAFI6YQDKCHT54ZGB6QUF","hitId":"3QGHA0EA0JM3KKNCY0PQRLYAHJ3BWH","url":"https://gershmanlab.com/experiments/alicia/teaching/experiment/?hitId=3QGHA0EA0JM3KKNCY0PQRLYAHJ3BWH&workerId=A19WXS1CLVLEEX&assignmentId=3OE22WJIGJAFI6YQDKCHT54ZGB6QUF&a=I2EO8&tp_a=I2EO8&b=3OE22WJIGJAFI6YQDKCHT54ZGB6QUF&tp_b=3OE22WJIGJAFI6YQDKCHT54ZGB6QUF&c=365198&tp_c=365198","heads":9,"tails":1,"studentIndex":12,"studentTrueHypers":{"a":4,"b":1},"studentGuess":0.8666666666666667,"delta":0.06666666666666665,"totalExamples":10,"bonusSoFar":2.82},{"rt":12321,"response":{"heads":"9","tails":"1"},"type":"response","condition":"seqNoFeedback","trueTheta":0.8,"classrooms":["A","B"],"studentTrueClassroom":"B","exampleSet":"second","trial_type":"survey-html-form","trial_index":107,"time_elapsed":847393,"internal_node_id":"0.0-106.0-0.0","params":{"nStudents":24,"maxFlips":30,"completionMinutes":45,"basePay":8,"maxBonus":9,"perTrialBonus":0.5,"perTrialBonusThreshold":0.1,"exampleCost":0.01},"classroomParams":{"A":{"a":1,"b":4},"B":{"a":4,"b":1},"C":{"a":2,"b":8},"D":{"a":8,"b":2}},"conditions":["nonSeqFull","nonSeqPartial","seqNoFeedback","seqFeedback"],"classroomPairings":[["A","B"],["C","D"]],"coinWeights":[0.2,0.5,0.8],"subjectId":"A19WXS1CLVLEEX","assignmentId":"3OE22WJIGJAFI6YQDKCHT54ZGB6QUF","hitId":"3QGHA0EA0JM3KKNCY0PQRLYAHJ3BWH","url":"https://gershmanlab.com/experiments/alicia/teaching/experiment/?hitId=3QGHA0EA0JM3KKNCY0PQRLYAHJ3BWH&workerId=A19WXS1CLVLEEX&assignmentId=3OE22WJIGJAFI6YQDKCHT54ZGB6QUF&a=I2EO8&tp_a=I2EO8&b=3OE22WJIGJAFI6YQDKCHT54ZGB6QUF&tp_b=3OE22WJIGJAFI6YQDKCHT54ZGB6QUF&c=365198&tp_c=365198","firstResponseHeads":9,"firstResponseTails":1,"secondResponseHeads":9,"secondResponseTails":1,"studentIndex":12,"studentTrueHypers":{"a":4,"b":1},"studentGuess":0.88,"delta":0.07999999999999996,"bonus":0.3,"bonusSoFar":3.12,"totalExamples":20},{"rt":7385,"response":{"heads":"9","tails":"2"},"type":"response","condition":"nonSeqFull","trueTheta":0.8,"classrooms":["C","D"],"studentTrueClassroom":"D","exampleSet":"first","trial_type":"survey-html-form","trial_index":113,"time_elapsed":869717,"internal_node_id":"0.0-112.0-0.0","params":{"nStudents":24,"maxFlips":30,"completionMinutes":45,"basePay":8,"maxBonus":9,"perTrialBonus":0.5,"perTrialBonusThreshold":0.1,"exampleCost":0.01},"classroomParams":{"A":{"a":1,"b":4},"B":{"a":4,"b":1},"C":{"a":2,"b":8},"D":{"a":8,"b":2}},"conditions":["nonSeqFull","nonSeqPartial","seqNoFeedback","seqFeedback"],"classroomPairings":[["A","B"],["C","D"]],"coinWeights":[0.2,0.5,0.8],"subjectId":"A19WXS1CLVLEEX","assignmentId":"3OE22WJIGJAFI6YQDKCHT54ZGB6QUF","hitId":"3QGHA0EA0JM3KKNCY0PQRLYAHJ3BWH","url":"https://gershmanlab.com/experiments/alicia/teaching/experiment/?hitId=3QGHA0EA0JM3KKNCY0PQRLYAHJ3BWH&workerId=A19WXS1CLVLEEX&assignmentId=3OE22WJIGJAFI6YQDKCHT54ZGB6QUF&a=I2EO8&tp_a=I2EO8&b=3OE22WJIGJAFI6YQDKCHT54ZGB6QUF&tp_b=3OE22WJIGJAFI6YQDKCHT54ZGB6QUF&c=365198&tp_c=365198","heads":9,"tails":2,"studentIndex":13,"studentTrueHypers":{"a":8,"b":2},"studentGuess":0.8095238095238095,"delta":0.00952380952380949,"totalExamples":11,"bonus":0.39,"bonusSoFar":3.51},{"rt":4962,"response":{"heads":"1","tails":"1"},"type":"response","condition":"seqNoFeedback","trueTheta":0.5,"classrooms":["A","B"],"studentTrueClassroom":"B","exampleSet":"first","trial_type":"survey-html-form","trial_index":119,"time_elapsed":888999,"internal_node_id":"0.0-118.0-0.0","params":{"nStudents":24,"maxFlips":30,"completionMinutes":45,"basePay":8,"maxBonus":9,"perTrialBonus":0.5,"perTrialBonusThreshold":0.1,"exampleCost":0.01},"classroomParams":{"A":{"a":1,"b":4},"B":{"a":4,"b":1},"C":{"a":2,"b":8},"D":{"a":8,"b":2}},"conditions":["nonSeqFull","nonSeqPartial","seqNoFeedback","seqFeedback"],"classroomPairings":[["A","B"],["C","D"]],"coinWeights":[0.2,0.5,0.8],"subjectId":"A19WXS1CLVLEEX","assignmentId":"3OE22WJIGJAFI6YQDKCHT54ZGB6QUF","hitId":"3QGHA0EA0JM3KKNCY0PQRLYAHJ3BWH","url":"https://gershmanlab.com/experiments/alicia/teaching/experiment/?hitId=3QGHA0EA0JM3KKNCY0PQRLYAHJ3BWH&workerId=A19WXS1CLVLEEX&assignmentId=3OE22WJIGJAFI6YQDKCHT54ZGB6QUF&a=I2EO8&tp_a=I2EO8&b=3OE22WJIGJAFI6YQDKCHT54ZGB6QUF&tp_b=3OE22WJIGJAFI6YQDKCHT54ZGB6QUF&c=365198&tp_c=365198","heads":1,"tails":1,"studentIndex":14,"studentTrueHypers":{"a":4,"b":1},"studentGuess":0.7142857142857143,"delta":0.2142857142857143,"totalExamples":2,"bonusSoFar":3.51},{"rt":3870,"response":{"heads":"1","tails":"1"},"type":"response","condition":"seqNoFeedback","trueTheta":0.5,"classrooms":["A","B"],"studentTrueClassroom":"B","exampleSet":"second","trial_type":"survey-html-form","trial_index":122,"time_elapsed":899136,"internal_node_id":"0.0-121.0-0.0","params":{"nStudents":24,"maxFlips":30,"completionMinutes":45,"basePay":8,"maxBonus":9,"perTrialBonus":0.5,"perTrialBonusThreshold":0.1,"exampleCost":0.01},"classroomParams":{"A":{"a":1,"b":4},"B":{"a":4,"b":1},"C":{"a":2,"b":8},"D":{"a":8,"b":2}},"conditions":["nonSeqFull","nonSeqPartial","seqNoFeedback","seqFeedback"],"classroomPairings":[["A","B"],["C","D"]],"coinWeights":[0.2,0.5,0.8],"subjectId":"A19WXS1CLVLEEX","assignmentId":"3OE22WJIGJAFI6YQDKCHT54ZGB6QUF","hitId":"3QGHA0EA0JM3KKNCY0PQRLYAHJ3BWH","url":"https://gershmanlab.com/experiments/alicia/teaching/experiment/?hitId=3QGHA0EA0JM3KKNCY0PQRLYAHJ3BWH&workerId=A19WXS1CLVLEEX&assignmentId=3OE22WJIGJAFI6YQDKCHT54ZGB6QUF&a=I2EO8&tp_a=I2EO8&b=3OE22WJIGJAFI6YQDKCHT54ZGB6QUF&tp_b=3OE22WJIGJAFI6YQDKCHT54ZGB6QUF&c=365198&tp_c=365198","firstResponseHeads":1,"firstResponseTails":1,"secondResponseHeads":1,"secondResponseTails":1,"studentIndex":14,"studentTrueHypers":{"a":4,"b":1},"studentGuess":0.6666666666666666,"delta":0.16666666666666663,"bonus":0,"bonusSoFar":3.51,"totalExamples":4},{"rt":4944,"response":{"heads":"4","tails":"4"},"type":"response","condition":"nonSeqFull","trueTheta":0.5,"classrooms":["A","B"],"studentTrueClassroom":"A","exampleSet":"first","trial_type":"survey-html-form","trial_index":128,"time_elapsed":919204,"internal_node_id":"0.0-127.0-0.0","params":{"nStudents":24,"maxFlips":30,"completionMinutes":45,"basePay":8,"maxBonus":9,"perTrialBonus":0.5,"perTrialBonusThreshold":0.1,"exampleCost":0.01},"classroomParams":{"A":{"a":1,"b":4},"B":{"a":4,"b":1},"C":{"a":2,"b":8},"D":{"a":8,"b":2}},"conditions":["nonSeqFull","nonSeqPartial","seqNoFeedback","seqFeedback"],"classroomPairings":[["A","B"],["C","D"]],"coinWeights":[0.2,0.5,0.8],"subjectId":"A19WXS1CLVLEEX","assignmentId":"3OE22WJIGJAFI6YQDKCHT54ZGB6QUF","hitId":"3QGHA0EA0JM3KKNCY0PQRLYAHJ3BWH","url":"https://gershmanlab.com/experiments/alicia/teaching/experiment/?hitId=3QGHA0EA0JM3KKNCY0PQRLYAHJ3BWH&workerId=A19WXS1CLVLEEX&assignmentId=3OE22WJIGJAFI6YQDKCHT54ZGB6QUF&a=I2EO8&tp_a=I2EO8&b=3OE22WJIGJAFI6YQDKCHT54ZGB6QUF&tp_b=3OE22WJIGJAFI6YQDKCHT54ZGB6QUF&c=365198&tp_c=365198","heads":4,"tails":4,"studentIndex":15,"studentTrueHypers":{"a":1,"b":4},"studentGuess":0.38461538461538464,"delta":0.11538461538461536,"totalExamples":8,"bonus":0,"bonusSoFar":3.51},{"rt":8236,"response":{"heads":"10","tails":"10"},"type":"response","condition":"nonSeqFull","trueTheta":0.5,"classrooms":["C","D"],"studentTrueClassroom":"D","exampleSet":"first","trial_type":"survey-html-form","trial_index":134,"time_elapsed":940282,"internal_node_id":"0.0-133.0-0.0","params":{"nStudents":24,"maxFlips":30,"completionMinutes":45,"basePay":8,"maxBonus":9,"perTrialBonus":0.5,"perTrialBonusThreshold":0.1,"exampleCost":0.01},"classroomParams":{"A":{"a":1,"b":4},"B":{"a":4,"b":1},"C":{"a":2,"b":8},"D":{"a":8,"b":2}},"conditions":["nonSeqFull","nonSeqPartial","seqNoFeedback","seqFeedback"],"classroomPairings":[["A","B"],["C","D"]],"coinWeights":[0.2,0.5,0.8],"subjectId":"A19WXS1CLVLEEX","assignmentId":"3OE22WJIGJAFI6YQDKCHT54ZGB6QUF","hitId":"3QGHA0EA0JM3KKNCY0PQRLYAHJ3BWH","url":"https://gershmanlab.com/experiments/alicia/teaching/experiment/?hitId=3QGHA0EA0JM3KKNCY0PQRLYAHJ3BWH&workerId=A19WXS1CLVLEEX&assignmentId=3OE22WJIGJAFI6YQDKCHT54ZGB6QUF&a=I2EO8&tp_a=I2EO8&b=3OE22WJIGJAFI6YQDKCHT54ZGB6QUF&tp_b=3OE22WJIGJAFI6YQDKCHT54ZGB6QUF&c=365198&tp_c=365198","heads":10,"tails":10,"studentIndex":16,"studentTrueHypers":{"a":8,"b":2},"studentGuess":0.6,"delta":0.09999999999999998,"totalExamples":20,"bonus":0.3,"bonusSoFar":3.81},{"rt":7000,"response":{"heads":"10","tails":"2"},"type":"response","condition":"seqFeedback","trueTheta":0.8,"classrooms":["A","B"],"studentTrueClassroom":"B","exampleSet":"first","trial_type":"survey-html-form","trial_index":140,"time_elapsed":960909,"internal_node_id":"0.0-139.0-0.0","params":{"nStudents":24,"maxFlips":30,"completionMinutes":45,"basePay":8,"maxBonus":9,"perTrialBonus":0.5,"perTrialBonusThreshold":0.1,"exampleCost":0.01},"classroomParams":{"A":{"a":1,"b":4},"B":{"a":4,"b":1},"C":{"a":2,"b":8},"D":{"a":8,"b":2}},"conditions":["nonSeqFull","nonSeqPartial","seqNoFeedback","seqFeedback"],"classroomPairings":[["A","B"],["C","D"]],"coinWeights":[0.2,0.5,0.8],"subjectId":"A19WXS1CLVLEEX","assignmentId":"3OE22WJIGJAFI6YQDKCHT54ZGB6QUF","hitId":"3QGHA0EA0JM3KKNCY0PQRLYAHJ3BWH","url":"https://gershmanlab.com/experiments/alicia/teaching/experiment/?hitId=3QGHA0EA0JM3KKNCY0PQRLYAHJ3BWH&workerId=A19WXS1CLVLEEX&assignmentId=3OE22WJIGJAFI6YQDKCHT54ZGB6QUF&a=I2EO8&tp_a=I2EO8&b=3OE22WJIGJAFI6YQDKCHT54ZGB6QUF&tp_b=3OE22WJIGJAFI6YQDKCHT54ZGB6QUF&c=365198&tp_c=365198","heads":10,"tails":2,"studentIndex":17,"studentTrueHypers":{"a":4,"b":1},"studentGuess":0.8235294117647058,"delta":0.0235294117647058,"totalExamples":12,"bonusSoFar":3.81},{"rt":6368,"response":{"heads":"10","tails":"2"},"type":"response","condition":"seqFeedback","trueTheta":0.8,"classrooms":["A","B"],"studentTrueClassroom":"B","exampleSet":"second","trial_type":"survey-html-form","trial_index":144,"time_elapsed":977069,"internal_node_id":"0.0-143.0-0.0","params":{"nStudents":24,"maxFlips":30,"completionMinutes":45,"basePay":8,"maxBonus":9,"perTrialBonus":0.5,"perTrialBonusThreshold":0.1,"exampleCost":0.01},"classroomParams":{"A":{"a":1,"b":4},"B":{"a":4,"b":1},"C":{"a":2,"b":8},"D":{"a":8,"b":2}},"conditions":["nonSeqFull","nonSeqPartial","seqNoFeedback","seqFeedback"],"classroomPairings":[["A","B"],["C","D"]],"coinWeights":[0.2,0.5,0.8],"subjectId":"A19WXS1CLVLEEX","assignmentId":"3OE22WJIGJAFI6YQDKCHT54ZGB6QUF","hitId":"3QGHA0EA0JM3KKNCY0PQRLYAHJ3BWH","url":"https://gershmanlab.com/experiments/alicia/teaching/experiment/?hitId=3QGHA0EA0JM3KKNCY0PQRLYAHJ3BWH&workerId=A19WXS1CLVLEEX&assignmentId=3OE22WJIGJAFI6YQDKCHT54ZGB6QUF&a=I2EO8&tp_a=I2EO8&b=3OE22WJIGJAFI6YQDKCHT54ZGB6QUF&tp_b=3OE22WJIGJAFI6YQDKCHT54ZGB6QUF&c=365198&tp_c=365198","firstResponseHeads":10,"firstResponseTails":2,"secondResponseHeads":10,"secondResponseTails":2,"studentIndex":17,"studentTrueHypers":{"a":4,"b":1},"studentGuess":0.8275862068965517,"delta":0.027586206896551668,"bonus":0.26,"bonusSoFar":4.07,"totalExamples":24},{"rt":6005,"response":{"heads":"10","tails":"2"},"type":"response","condition":"seqNoFeedback","trueTheta":0.8,"classrooms":["C","D"],"studentTrueClassroom":"C","exampleSet":"first","trial_type":"survey-html-form","trial_index":150,"time_elapsed":995251,"internal_node_id":"0.0-149.0-0.0","params":{"nStudents":24,"maxFlips":30,"completionMinutes":45,"basePay":8,"maxBonus":9,"perTrialBonus":0.5,"perTrialBonusThreshold":0.1,"exampleCost":0.01},"classroomParams":{"A":{"a":1,"b":4},"B":{"a":4,"b":1},"C":{"a":2,"b":8},"D":{"a":8,"b":2}},"conditions":["nonSeqFull","nonSeqPartial","seqNoFeedback","seqFeedback"],"classroomPairings":[["A","B"],["C","D"]],"coinWeights":[0.2,0.5,0.8],"subjectId":"A19WXS1CLVLEEX","assignmentId":"3OE22WJIGJAFI6YQDKCHT54ZGB6QUF","hitId":"3QGHA0EA0JM3KKNCY0PQRLYAHJ3BWH","url":"https://gershmanlab.com/experiments/alicia/teaching/experiment/?hitId=3QGHA0EA0JM3KKNCY0PQRLYAHJ3BWH&workerId=A19WXS1CLVLEEX&assignmentId=3OE22WJIGJAFI6YQDKCHT54ZGB6QUF&a=I2EO8&tp_a=I2EO8&b=3OE22WJIGJAFI6YQDKCHT54ZGB6QUF&tp_b=3OE22WJIGJAFI6YQDKCHT54ZGB6QUF&c=365198&tp_c=365198","heads":10,"tails":2,"studentIndex":18,"studentTrueHypers":{"a":2,"b":8},"studentGuess":0.5454545454545454,"delta":0.25454545454545463,"totalExamples":12,"bonusSoFar":4.07},{"rt":6393,"response":{"heads":"10","tails":"2"},"type":"response","condition":"seqNoFeedback","trueTheta":0.8,"classrooms":["C","D"],"studentTrueClassroom":"C","exampleSet":"second","trial_type":"survey-html-form","trial_index":153,"time_elapsed":1007152,"internal_node_id":"0.0-152.0-0.0","params":{"nStudents":24,"maxFlips":30,"completionMinutes":45,"basePay":8,"maxBonus":9,"perTrialBonus":0.5,"perTrialBonusThreshold":0.1,"exampleCost":0.01},"classroomParams":{"A":{"a":1,"b":4},"B":{"a":4,"b":1},"C":{"a":2,"b":8},"D":{"a":8,"b":2}},"conditions":["nonSeqFull","nonSeqPartial","seqNoFeedback","seqFeedback"],"classroomPairings":[["A","B"],["C","D"]],"coinWeights":[0.2,0.5,0.8],"subjectId":"A19WXS1CLVLEEX","assignmentId":"3OE22WJIGJAFI6YQDKCHT54ZGB6QUF","hitId":"3QGHA0EA0JM3KKNCY0PQRLYAHJ3BWH","url":"https://gershmanlab.com/experiments/alicia/teaching/experiment/?hitId=3QGHA0EA0JM3KKNCY0PQRLYAHJ3BWH&workerId=A19WXS1CLVLEEX&assignmentId=3OE22WJIGJAFI6YQDKCHT54ZGB6QUF&a=I2EO8&tp_a=I2EO8&b=3OE22WJIGJAFI6YQDKCHT54ZGB6QUF&tp_b=3OE22WJIGJAFI6YQDKCHT54ZGB6QUF&c=365198&tp_c=365198","firstResponseHeads":10,"firstResponseTails":2,"secondResponseHeads":10,"secondResponseTails":2,"studentIndex":18,"studentTrueHypers":{"a":2,"b":8},"studentGuess":0.6470588235294118,"delta":0.15294117647058825,"bonus":0,"bonusSoFar":4.07,"totalExamples":24},{"rt":11172,"response":{"heads":"12","tails":"2"},"type":"response","condition":"nonSeqPartial","trueTheta":0.8,"classrooms":["C","D"],"studentTrueClassroom":"C","exampleSet":"first","trial_type":"survey-html-form","trial_index":159,"time_elapsed":1032340,"internal_node_id":"0.0-158.0-0.0","params":{"nStudents":24,"maxFlips":30,"completionMinutes":45,"basePay":8,"maxBonus":9,"perTrialBonus":0.5,"perTrialBonusThreshold":0.1,"exampleCost":0.01},"classroomParams":{"A":{"a":1,"b":4},"B":{"a":4,"b":1},"C":{"a":2,"b":8},"D":{"a":8,"b":2}},"conditions":["nonSeqFull","nonSeqPartial","seqNoFeedback","seqFeedback"],"classroomPairings":[["A","B"],["C","D"]],"coinWeights":[0.2,0.5,0.8],"subjectId":"A19WXS1CLVLEEX","assignmentId":"3OE22WJIGJAFI6YQDKCHT54ZGB6QUF","hitId":"3QGHA0EA0JM3KKNCY0PQRLYAHJ3BWH","url":"https://gershmanlab.com/experiments/alicia/teaching/experiment/?hitId=3QGHA0EA0JM3KKNCY0PQRLYAHJ3BWH&workerId=A19WXS1CLVLEEX&assignmentId=3OE22WJIGJAFI6YQDKCHT54ZGB6QUF&a=I2EO8&tp_a=I2EO8&b=3OE22WJIGJAFI6YQDKCHT54ZGB6QUF&tp_b=3OE22WJIGJAFI6YQDKCHT54ZGB6QUF&c=365198&tp_c=365198","heads":12,"tails":2,"studentIndex":19,"studentTrueHypers":{"a":2,"b":8},"studentGuess":0.5833333333333334,"delta":0.21666666666666667,"totalExamples":14,"bonus":0,"bonusSoFar":4.07},{"rt":8727,"response":{"heads":"10","tails":"10"},"type":"response","condition":"nonSeqPartial","trueTheta":0.5,"classrooms":["A","B"],"studentTrueClassroom":"A","exampleSet":"first","trial_type":"survey-html-form","trial_index":165,"time_elapsed":1057463,"internal_node_id":"0.0-164.0-0.0","params":{"nStudents":24,"maxFlips":30,"completionMinutes":45,"basePay":8,"maxBonus":9,"perTrialBonus":0.5,"perTrialBonusThreshold":0.1,"exampleCost":0.01},"classroomParams":{"A":{"a":1,"b":4},"B":{"a":4,"b":1},"C":{"a":2,"b":8},"D":{"a":8,"b":2}},"conditions":["nonSeqFull","nonSeqPartial","seqNoFeedback","seqFeedback"],"classroomPairings":[["A","B"],["C","D"]],"coinWeights":[0.2,0.5,0.8],"subjectId":"A19WXS1CLVLEEX","assignmentId":"3OE22WJIGJAFI6YQDKCHT54ZGB6QUF","hitId":"3QGHA0EA0JM3KKNCY0PQRLYAHJ3BWH","url":"https://gershmanlab.com/experiments/alicia/teaching/experiment/?hitId=3QGHA0EA0JM3KKNCY0PQRLYAHJ3BWH&workerId=A19WXS1CLVLEEX&assignmentId=3OE22WJIGJAFI6YQDKCHT54ZGB6QUF&a=I2EO8&tp_a=I2EO8&b=3OE22WJIGJAFI6YQDKCHT54ZGB6QUF&tp_b=3OE22WJIGJAFI6YQDKCHT54ZGB6QUF&c=365198&tp_c=365198","heads":10,"tails":10,"studentIndex":20,"studentTrueHypers":{"a":1,"b":4},"studentGuess":0.44,"delta":0.06,"totalExamples":20,"bonus":0.3,"bonusSoFar":4.37},{"rt":7461,"response":{"heads":"6","tails":"6"},"type":"response","condition":"nonSeqPartial","trueTheta":0.5,"classrooms":["C","D"],"studentTrueClassroom":"D","exampleSet":"first","trial_type":"survey-html-form","trial_index":171,"time_elapsed":1076873,"internal_node_id":"0.0-170.0-0.0","params":{"nStudents":24,"maxFlips":30,"completionMinutes":45,"basePay":8,"maxBonus":9,"perTrialBonus":0.5,"perTrialBonusThreshold":0.1,"exampleCost":0.01},"classroomParams":{"A":{"a":1,"b":4},"B":{"a":4,"b":1},"C":{"a":2,"b":8},"D":{"a":8,"b":2}},"conditions":["nonSeqFull","nonSeqPartial","seqNoFeedback","seqFeedback"],"classroomPairings":[["A","B"],["C","D"]],"coinWeights":[0.2,0.5,0.8],"subjectId":"A19WXS1CLVLEEX","assignmentId":"3OE22WJIGJAFI6YQDKCHT54ZGB6QUF","hitId":"3QGHA0EA0JM3KKNCY0PQRLYAHJ3BWH","url":"https://gershmanlab.com/experiments/alicia/teaching/experiment/?hitId=3QGHA0EA0JM3KKNCY0PQRLYAHJ3BWH&workerId=A19WXS1CLVLEEX&assignmentId=3OE22WJIGJAFI6YQDKCHT54ZGB6QUF&a=I2EO8&tp_a=I2EO8&b=3OE22WJIGJAFI6YQDKCHT54ZGB6QUF&tp_b=3OE22WJIGJAFI6YQDKCHT54ZGB6QUF&c=365198&tp_c=365198","heads":6,"tails":6,"studentIndex":21,"studentTrueHypers":{"a":8,"b":2},"studentGuess":0.6363636363636364,"delta":0.13636363636363635,"totalExamples":12,"bonus":0,"bonusSoFar":4.37},{"rt":9259,"response":{"heads":"2","tails":"12"},"type":"response","condition":"nonSeqPartial","trueTheta":0.2,"classrooms":["A","B"],"studentTrueClassroom":"B","exampleSet":"first","trial_type":"survey-html-form","trial_index":177,"time_elapsed":1100158,"internal_node_id":"0.0-176.0-0.0","params":{"nStudents":24,"maxFlips":30,"completionMinutes":45,"basePay":8,"maxBonus":9,"perTrialBonus":0.5,"perTrialBonusThreshold":0.1,"exampleCost":0.01},"classroomParams":{"A":{"a":1,"b":4},"B":{"a":4,"b":1},"C":{"a":2,"b":8},"D":{"a":8,"b":2}},"conditions":["nonSeqFull","nonSeqPartial","seqNoFeedback","seqFeedback"],"classroomPairings":[["A","B"],["C","D"]],"coinWeights":[0.2,0.5,0.8],"subjectId":"A19WXS1CLVLEEX","assignmentId":"3OE22WJIGJAFI6YQDKCHT54ZGB6QUF","hitId":"3QGHA0EA0JM3KKNCY0PQRLYAHJ3BWH","url":"https://gershmanlab.com/experiments/alicia/teaching/experiment/?hitId=3QGHA0EA0JM3KKNCY0PQRLYAHJ3BWH&workerId=A19WXS1CLVLEEX&assignmentId=3OE22WJIGJAFI6YQDKCHT54ZGB6QUF&a=I2EO8&tp_a=I2EO8&b=3OE22WJIGJAFI6YQDKCHT54ZGB6QUF&tp_b=3OE22WJIGJAFI6YQDKCHT54ZGB6QUF&c=365198&tp_c=365198","heads":2,"tails":12,"studentIndex":22,"studentTrueHypers":{"a":4,"b":1},"studentGuess":0.3157894736842105,"delta":0.1157894736842105,"totalExamples":14,"bonus":0,"bonusSoFar":4.37},{"rt":11152,"response":{"heads":"2","tails":"15"},"type":"response","condition":"seqFeedback","trueTheta":0.2,"classrooms":["A","B"],"studentTrueClassroom":"B","exampleSet":"first","trial_type":"survey-html-form","trial_index":183,"time_elapsed":1123760,"internal_node_id":"0.0-182.0-0.0","params":{"nStudents":24,"maxFlips":30,"completionMinutes":45,"basePay":8,"maxBonus":9,"perTrialBonus":0.5,"perTrialBonusThreshold":0.1,"exampleCost":0.01},"classroomParams":{"A":{"a":1,"b":4},"B":{"a":4,"b":1},"C":{"a":2,"b":8},"D":{"a":8,"b":2}},"conditions":["nonSeqFull","nonSeqPartial","seqNoFeedback","seqFeedback"],"classroomPairings":[["A","B"],["C","D"]],"coinWeights":[0.2,0.5,0.8],"subjectId":"A19WXS1CLVLEEX","assignmentId":"3OE22WJIGJAFI6YQDKCHT54ZGB6QUF","hitId":"3QGHA0EA0JM3KKNCY0PQRLYAHJ3BWH","url":"https://gershmanlab.com/experiments/alicia/teaching/experiment/?hitId=3QGHA0EA0JM3KKNCY0PQRLYAHJ3BWH&workerId=A19WXS1CLVLEEX&assignmentId=3OE22WJIGJAFI6YQDKCHT54ZGB6QUF&a=I2EO8&tp_a=I2EO8&b=3OE22WJIGJAFI6YQDKCHT54ZGB6QUF&tp_b=3OE22WJIGJAFI6YQDKCHT54ZGB6QUF&c=365198&tp_c=365198","heads":2,"tails":15,"studentIndex":23,"studentTrueHypers":{"a":4,"b":1},"studentGuess":0.2727272727272727,"delta":0.0727272727272727,"totalExamples":17,"bonusSoFar":4.37},{"rt":5866,"response":{"heads":"2","tails":"16"},"type":"response","condition":"seqFeedback","trueTheta":0.2,"classrooms":["A","B"],"studentTrueClassroom":"B","exampleSet":"second","trial_type":"survey-html-form","trial_index":187,"time_elapsed":1137732,"internal_node_id":"0.0-186.0-0.0","params":{"nStudents":24,"maxFlips":30,"completionMinutes":45,"basePay":8,"maxBonus":9,"perTrialBonus":0.5,"perTrialBonusThreshold":0.1,"exampleCost":0.01},"classroomParams":{"A":{"a":1,"b":4},"B":{"a":4,"b":1},"C":{"a":2,"b":8},"D":{"a":8,"b":2}},"conditions":["nonSeqFull","nonSeqPartial","seqNoFeedback","seqFeedback"],"classroomPairings":[["A","B"],["C","D"]],"coinWeights":[0.2,0.5,0.8],"subjectId":"A19WXS1CLVLEEX","assignmentId":"3OE22WJIGJAFI6YQDKCHT54ZGB6QUF","hitId":"3QGHA0EA0JM3KKNCY0PQRLYAHJ3BWH","url":"https://gershmanlab.com/experiments/alicia/teaching/experiment/?hitId=3QGHA0EA0JM3KKNCY0PQRLYAHJ3BWH&workerId=A19WXS1CLVLEEX&assignmentId=3OE22WJIGJAFI6YQDKCHT54ZGB6QUF&a=I2EO8&tp_a=I2EO8&b=3OE22WJIGJAFI6YQDKCHT54ZGB6QUF&tp_b=3OE22WJIGJAFI6YQDKCHT54ZGB6QUF&c=365198&tp_c=365198","firstResponseHeads":2,"firstResponseTails":15,"secondResponseHeads":2,"secondResponseTails":16,"studentIndex":23,"studentTrueHypers":{"a":4,"b":1},"studentGuess":0.2,"delta":0,"bonus":0.15,"bonusSoFar":4.52,"totalExamples":35},{"rt":9896,"response":{"gender":"male","age":"68","understood":"yes","comments":"no"},"type":"response","trial_type":"survey-html-form","trial_index":191,"time_elapsed":1156888,"internal_node_id":"0.0-191.0","params":{"nStudents":24,"maxFlips":30,"completionMinutes":45,"basePay":8,"maxBonus":9,"perTrialBonus":0.5,"perTrialBonusThreshold":0.1,"exampleCost":0.01},"classroomParams":{"A":{"a":1,"b":4},"B":{"a":4,"b":1},"C":{"a":2,"b":8},"D":{"a":8,"b":2}},"conditions":["nonSeqFull","nonSeqPartial","seqNoFeedback","seqFeedback"],"classroomPairings":[["A","B"],["C","D"]],"coinWeights":[0.2,0.5,0.8],"subjectId":"A19WXS1CLVLEEX","assignmentId":"3OE22WJIGJAFI6YQDKCHT54ZGB6QUF","hitId":"3QGHA0EA0JM3KKNCY0PQRLYAHJ3BWH","url":"https://gershmanlab.com/experiments/alicia/teaching/experiment/?hitId=3QGHA0EA0JM3KKNCY0PQRLYAHJ3BWH&workerId=A19WXS1CLVLEEX&assignmentId=3OE22WJIGJAFI6YQDKCHT54ZGB6QUF&a=I2EO8&tp_a=I2EO8&b=3OE22WJIGJAFI6YQDKCHT54ZGB6QUF&tp_b=3OE22WJIGJAFI6YQDKCHT54ZGB6QUF&c=365198&tp_c=365198","totalBonus":4.52}]