[{"rt":45240,"response":{"heads":"5","tails":"5"},"type":"response","condition":"seqNoFeedback","trueTheta":0.5,"classrooms":["C","D"],"studentTrueClassroom":"C","exampleSet":"first","trial_type":"survey-html-form","trial_index":10,"time_elapsed":727918,"internal_node_id":"0.0-6.0-0.0","params":{"nStudents":24,"maxFlips":30,"completionMinutes":45,"basePay":8,"maxBonus":9,"perTrialBonus":0.5,"perTrialBonusThreshold":0.1,"exampleCost":0.01},"classroomParams":{"A":{"a":1,"b":4},"B":{"a":4,"b":1},"C":{"a":2,"b":8},"D":{"a":8,"b":2}},"conditions":["nonSeqFull","nonSeqPartial","seqNoFeedback","seqFeedback"],"classroomPairings":[["A","B"],["C","D"]],"coinWeights":[0.2,0.5,0.8],"subjectId":"A1DZMZTXWOM9MR","assignmentId":"373ERPL3YPU0UUY1QUB7TZS2TJ1TRS","hitId":"3H6W48L9F4B5OEOMH57RM53ZYNHWPM","url":"https://gershmanlab.com/experiments/alicia/teaching/experiment/?hitId=3H6W48L9F4B5OEOMH57RM53ZYNHWPM&workerId=A1DZMZTXWOM9MR&assignmentId=373ERPL3YPU0UUY1QUB7TZS2TJ1TRS&a=3R378&tp_a=3R378&b=373ERPL3YPU0UUY1QUB7TZS2TJ1TRS&tp_b=373ERPL3YPU0UUY1QUB7TZS2TJ1TRS&c=365198&tp_c=365198","heads":5,"tails":5,"studentIndex":0,"studentTrueHypers":{"a":2,"b":8},"studentGuess":0.35,"delta":0.15000000000000002,"totalExamples":10,"bonusSoFar":0},{"rt":18143,"response":{"heads":"3","tails":"3"},"type":"response","condition":"seqNoFeedback","trueTheta":0.5,"classrooms":["C","D"],"studentTrueClassroom":"C","exampleSet":"second","trial_type":"survey-html-form","trial_index":13,"time_elapsed":753566,"internal_node_id":"0.0-9.0-0.0","params":{"nStudents":24,"maxFlips":30,"completionMinutes":45,"basePay":8,"maxBonus":9,"perTrialBonus":0.5,"perTrialBonusThreshold":0.1,"exampleCost":0.01},"classroomParams":{"A":{"a":1,"b":4},"B":{"a":4,"b":1},"C":{"a":2,"b":8},"D":{"a":8,"b":2}},"conditions":["nonSeqFull","nonSeqPartial","seqNoFeedback","seqFeedback"],"classroomPairings":[["A","B"],["C","D"]],"coinWeights":[0.2,0.5,0.8],"subjectId":"A1DZMZTXWOM9MR","assignmentId":"373ERPL3YPU0UUY1QUB7TZS2TJ1TRS","hitId":"3H6W48L9F4B5OEOMH57RM53ZYNHWPM","url":"https://gershmanlab.com/experiments/alicia/teaching/experiment/?hitId=3H6W48L9F4B5OEOMH57RM53ZYNHWPM&workerId=A1DZMZTXWOM9MR&assignmentId=373ERPL3YPU0UUY1QUB7TZS2TJ1TRS&a=3R378&tp_a=3R378&b=373ERPL3YPU0UUY1QUB7TZS2TJ1TRS&tp_b=373ERPL3YPU0UUY1QUB7TZS2TJ1TRS&c=365198&tp_c=365198","firstResponseHeads":5,"firstResponseTails":5,"secondResponseHeads":3,"secondResponseTails":3,"studentIndex":0,"studentTrueHypers":{"a":2,"b":8},"studentGuess":0.38461538461538464,"delta":0.11538461538461536,"bonus":0,"bonusSoFar":0,"totalExamples":16},{"rt":22136,"response":{"heads":"8","tails":"2"},"type":"response","condition":"nonSeqFull","trueTheta":0.8,"classrooms":["A","B"],"studentTrueClassroom":"A","exampleSet":"first","trial_type":"survey-html-form","trial_index":19,"time_elapsed":800749,"internal_node_id":"0.0-15.0-0.0","params":{"nStudents":24,"maxFlips":30,"completionMinutes":45,"basePay":8,"maxBonus":9,"perTrialBonus":0.5,"perTrialBonusThreshold":0.1,"exampleCost":0.01},"classroomParams":{"A":{"a":1,"b":4},"B":{"a":4,"b":1},"C":{"a":2,"b":8},"D":{"a":8,"b":2}},"conditions":["nonSeqFull","nonSeqPartial","seqNoFeedback","seqFeedback"],"classroomPairings":[["A","B"],["C","D"]],"coinWeights":[0.2,0.5,0.8],"subjectId":"A1DZMZTXWOM9MR","assignmentId":"373ERPL3YPU0UUY1QUB7TZS2TJ1TRS","hitId":"3H6W48L9F4B5OEOMH57RM53ZYNHWPM","url":"https://gershmanlab.com/experiments/alicia/teaching/experiment/?hitId=3H6W48L9F4B5OEOMH57RM53ZYNHWPM&workerId=A1DZMZTXWOM9MR&assignmentId=373ERPL3YPU0UUY1QUB7TZS2TJ1TRS&a=3R378&tp_a=3R378&b=373ERPL3YPU0UUY1QUB7TZS2TJ1TRS&tp_b=373ERPL3YPU0UUY1QUB7TZS2TJ1TRS&c=365198&tp_c=365198","heads":8,"tails":2,"studentIndex":1,"studentTrueHypers":{"a":1,"b":4},"studentGuess":0.6,"delta":0.20000000000000007,"totalExamples":10,"bonus":0,"bonusSoFar":0},{"rt":22584,"response":{"heads":"2","tails":"8"},"type":"response","condition":"nonSeqPartial","trueTheta":0.2,"classrooms":["C","D"],"studentTrueClassroom":"C","exampleSet":"first","trial_type":"survey-html-form","trial_index":25,"time_elapsed":844765,"internal_node_id":"0.0-21.0-0.0","params":{"nStudents":24,"maxFlips":30,"completionMinutes":45,"basePay":8,"maxBonus":9,"perTrialBonus":0.5,"perTrialBonusThreshold":0.1,"exampleCost":0.01},"classroomParams":{"A":{"a":1,"b":4},"B":{"a":4,"b":1},"C":{"a":2,"b":8},"D":{"a":8,"b":2}},"conditions":["nonSeqFull","nonSeqPartial","seqNoFeedback","seqFeedback"],"classroomPairings":[["A","B"],["C","D"]],"coinWeights":[0.2,0.5,0.8],"subjectId":"A1DZMZTXWOM9MR","assignmentId":"373ERPL3YPU0UUY1QUB7TZS2TJ1TRS","hitId":"3H6W48L9F4B5OEOMH57RM53ZYNHWPM","url":"https://gershmanlab.com/experiments/alicia/teaching/experiment/?hitId=3H6W48L9F4B5OEOMH57RM53ZYNHWPM&workerId=A1DZMZTXWOM9MR&assignmentId=373ERPL3YPU0UUY1QUB7TZS2TJ1TRS&a=3R378&tp_a=3R378&b=373ERPL3YPU0UUY1QUB7TZS2TJ1TRS&tp_b=373ERPL3YPU0UUY1QUB7TZS2TJ1TRS&c=365198&tp_c=365198","heads":2,"tails":8,"studentIndex":2,"studentTrueHypers":{"a":2,"b":8},"studentGuess":0.2,"delta":0,"totalExamples":10,"bonus":0.4,"bonusSoFar":0.4},{"rt":19088,"response":{"heads":"3","tails":"9"},"type":"response","condition":"nonSeqPartial","trueTheta":0.2,"classrooms":["A","B"],"studentTrueClassroom":"A","exampleSet":"first","trial_type":"survey-html-form","trial_index":31,"time_elapsed":884421,"internal_node_id":"0.0-27.0-0.0","params":{"nStudents":24,"maxFlips":30,"completionMinutes":45,"basePay":8,"maxBonus":9,"perTrialBonus":0.5,"perTrialBonusThreshold":0.1,"exampleCost":0.01},"classroomParams":{"A":{"a":1,"b":4},"B":{"a":4,"b":1},"C":{"a":2,"b":8},"D":{"a":8,"b":2}},"conditions":["nonSeqFull","nonSeqPartial","seqNoFeedback","seqFeedback"],"classroomPairings":[["A","B"],["C","D"]],"coinWeights":[0.2,0.5,0.8],"subjectId":"A1DZMZTXWOM9MR","assignmentId":"373ERPL3YPU0UUY1QUB7TZS2TJ1TRS","hitId":"3H6W48L9F4B5OEOMH57RM53ZYNHWPM","url":"https://gershmanlab.com/experiments/alicia/teaching/experiment/?hitId=3H6W48L9F4B5OEOMH57RM53ZYNHWPM&workerId=A1DZMZTXWOM9MR&assignmentId=373ERPL3YPU0UUY1QUB7TZS2TJ1TRS&a=3R378&tp_a=3R378&b=373ERPL3YPU0UUY1QUB7TZS2TJ1TRS&tp_b=373ERPL3YPU0UUY1QUB7TZS2TJ1TRS&c=365198&tp_c=365198","heads":3,"tails":9,"studentIndex":3,"studentTrueHypers":{"a":1,"b":4},"studentGuess":0.23529411764705882,"delta":0.03529411764705881,"totalExamples":12,"bonus":0.38,"bonusSoFar":0.78},{"rt":11535,"response":{"heads":"2","tails":"8"},"type":"response","condition":"nonSeqFull","trueTheta":0.2,"classrooms":["A","B"],"studentTrueClassroom":"A","exampleSet":"first","trial_type":"survey-html-form","trial_index":37,"time_elapsed":913758,"internal_node_id":"0.0-33.0-0.0","params":{"nStudents":24,"maxFlips":30,"completionMinutes":45,"basePay":8,"maxBonus":9,"perTrialBonus":0.5,"perTrialBonusThreshold":0.1,"exampleCost":0.01},"classroomParams":{"A":{"a":1,"b":4},"B":{"a":4,"b":1},"C":{"a":2,"b":8},"D":{"a":8,"b":2}},"conditions":["nonSeqFull","nonSeqPartial","seqNoFeedback","seqFeedback"],"classroomPairings":[["A","B"],["C","D"]],"coinWeights":[0.2,0.5,0.8],"subjectId":"A1DZMZTXWOM9MR","assignmentId":"373ERPL3YPU0UUY1QUB7TZS2TJ1TRS","hitId":"3H6W48L9F4B5OEOMH57RM53ZYNHWPM","url":"https://gershmanlab.com/experiments/alicia/teaching/experiment/?hitId=3H6W48L9F4B5OEOMH57RM53ZYNHWPM&workerId=A1DZMZTXWOM9MR&assignmentId=373ERPL3YPU0UUY1QUB7TZS2TJ1TRS&a=3R378&tp_a=3R378&b=373ERPL3YPU0UUY1QUB7TZS2TJ1TRS&tp_b=373ERPL3YPU0UUY1QUB7TZS2TJ1TRS&c=365198&tp_c=365198","heads":2,"tails":8,"studentIndex":4,"studentTrueHypers":{"a":1,"b":4},"studentGuess":0.2,"delta":0,"totalExamples":10,"bonus":0.4,"bonusSoFar":1.18},{"rt":11824,"response":{"heads":"8","tails":"2"},"type":"response","condition":"seqFeedback","trueTheta":0.8,"classrooms":["C","D"],"studentTrueClassroom":"D","exampleSet":"first","trial_type":"survey-html-form","trial_index":43,"time_elapsed":940023,"internal_node_id":"0.0-39.0-0.0","params":{"nStudents":24,"maxFlips":30,"completionMinutes":45,"basePay":8,"maxBonus":9,"perTrialBonus":0.5,"perTrialBonusThreshold":0.1,"exampleCost":0.01},"classroomParams":{"A":{"a":1,"b":4},"B":{"a":4,"b":1},"C":{"a":2,"b":8},"D":{"a":8,"b":2}},"conditions":["nonSeqFull","nonSeqPartial","seqNoFeedback","seqFeedback"],"classroomPairings":[["A","B"],["C","D"]],"coinWeights":[0.2,0.5,0.8],"subjectId":"A1DZMZTXWOM9MR","assignmentId":"373ERPL3YPU0UUY1QUB7TZS2TJ1TRS","hitId":"3H6W48L9F4B5OEOMH57RM53ZYNHWPM","url":"https://gershmanlab.com/experiments/alicia/teaching/experiment/?hitId=3H6W48L9F4B5OEOMH57RM53ZYNHWPM&workerId=A1DZMZTXWOM9MR&assignmentId=373ERPL3YPU0UUY1QUB7TZS2TJ1TRS&a=3R378&tp_a=3R378&b=373ERPL3YPU0UUY1QUB7TZS2TJ1TRS&tp_b=373ERPL3YPU0UUY1QUB7TZS2TJ1TRS&c=365198&tp_c=365198","heads":8,"tails":2,"studentIndex":5,"studentTrueHypers":{"a":8,"b":2},"studentGuess":0.8,"delta":0,"totalExamples":10,"bonusSoFar":1.18},{"rt":13041,"response":{"heads":"8","tails":"2"},"type":"response","condition":"seqFeedback","trueTheta":0.8,"classrooms":["C","D"],"studentTrueClassroom":"D","exampleSet":"second","trial_type":"survey-html-form","trial_index":47,"time_elapsed":960630,"internal_node_id":"0.0-43.0-0.0","params":{"nStudents":24,"maxFlips":30,"completionMinutes":45,"basePay":8,"maxBonus":9,"perTrialBonus":0.5,"perTrialBonusThreshold":0.1,"exampleCost":0.01},"classroomParams":{"A":{"a":1,"b":4},"B":{"a":4,"b":1},"C":{"a":2,"b":8},"D":{"a":8,"b":2}},"conditions":["nonSeqFull","nonSeqPartial","seqNoFeedback","seqFeedback"],"classroomPairings":[["A","B"],["C","D"]],"coinWeights":[0.2,0.5,0.8],"subjectId":"A1DZMZTXWOM9MR","assignmentId":"373ERPL3YPU0UUY1QUB7TZS2TJ1TRS","hitId":"3H6W48L9F4B5OEOMH57RM53ZYNHWPM","url":"https://gershmanlab.com/experiments/alicia/teaching/experiment/?hitId=3H6W48L9F4B5OEOMH57RM53ZYNHWPM&workerId=A1DZMZTXWOM9MR&assignmentId=373ERPL3YPU0UUY1QUB7TZS2TJ1TRS&a=3R378&tp_a=3R378&b=373ERPL3YPU0UUY1QUB7TZS2TJ1TRS&tp_b=373ERPL3YPU0UUY1QUB7TZS2TJ1TRS&c=365198&tp_c=365198","firstResponseHeads":8,"firstResponseTails":2,"secondResponseHeads":8,"secondResponseTails":2,"studentIndex":5,"studentTrueHypers":{"a":8,"b":2},"studentGuess":0.8,"delta":0,"bonus":0.3,"bonusSoFar":1.48,"totalExamples":20},{"rt":23735,"response":{"heads":"3","tails":"7"},"type":"response","condition":"seqNoFeedback","trueTheta":0.2,"classrooms":["A","B"],"studentTrueClassroom":"B","exampleSet":"first","trial_type":"survey-html-form","trial_index":53,"time_elapsed":1007054,"internal_node_id":"0.0-49.0-0.0","params":{"nStudents":24,"maxFlips":30,"completionMinutes":45,"basePay":8,"maxBonus":9,"perTrialBonus":0.5,"perTrialBonusThreshold":0.1,"exampleCost":0.01},"classroomParams":{"A":{"a":1,"b":4},"B":{"a":4,"b":1},"C":{"a":2,"b":8},"D":{"a":8,"b":2}},"conditions":["nonSeqFull","nonSeqPartial","seqNoFeedback","seqFeedback"],"classroomPairings":[["A","B"],["C","D"]],"coinWeights":[0.2,0.5,0.8],"subjectId":"A1DZMZTXWOM9MR","assignmentId":"373ERPL3YPU0UUY1QUB7TZS2TJ1TRS","hitId":"3H6W48L9F4B5OEOMH57RM53ZYNHWPM","url":"https://gershmanlab.com/experiments/alicia/teaching/experiment/?hitId=3H6W48L9F4B5OEOMH57RM53ZYNHWPM&workerId=A1DZMZTXWOM9MR&assignmentId=373ERPL3YPU0UUY1QUB7TZS2TJ1TRS&a=3R378&tp_a=3R378&b=373ERPL3YPU0UUY1QUB7TZS2TJ1TRS&tp_b=373ERPL3YPU0UUY1QUB7TZS2TJ1TRS&c=365198&tp_c=365198","heads":3,"tails":7,"studentIndex":6,"studentTrueHypers":{"a":4,"b":1},"studentGuess":0.4666666666666667,"delta":0.26666666666666666,"totalExamples":10,"bonusSoFar":1.48},{"rt":11996,"response":{"heads":"2","tails":"7"},"type":"response","condition":"seqNoFeedback","trueTheta":0.2,"classrooms":["A","B"],"studentTrueClassroom":"B","exampleSet":"second","trial_type":"survey-html-form","trial_index":56,"time_elapsed":1026054,"internal_node_id":"0.0-52.0-0.0","params":{"nStudents":24,"maxFlips":30,"completionMinutes":45,"basePay":8,"maxBonus":9,"perTrialBonus":0.5,"perTrialBonusThreshold":0.1,"exampleCost":0.01},"classroomParams":{"A":{"a":1,"b":4},"B":{"a":4,"b":1},"C":{"a":2,"b":8},"D":{"a":8,"b":2}},"conditions":["nonSeqFull","nonSeqPartial","seqNoFeedback","seqFeedback"],"classroomPairings":[["A","B"],["C","D"]],"coinWeights":[0.2,0.5,0.8],"subjectId":"A1DZMZTXWOM9MR","assignmentId":"373ERPL3YPU0UUY1QUB7TZS2TJ1TRS","hitId":"3H6W48L9F4B5OEOMH57RM53ZYNHWPM","url":"https://gershmanlab.com/experiments/alicia/teaching/experiment/?hitId=3H6W48L9F4B5OEOMH57RM53ZYNHWPM&workerId=A1DZMZTXWOM9MR&assignmentId=373ERPL3YPU0UUY1QUB7TZS2TJ1TRS&a=3R378&tp_a=3R378&b=373ERPL3YPU0UUY1QUB7TZS2TJ1TRS&tp_b=373ERPL3YPU0UUY1QUB7TZS2TJ1TRS&c=365198&tp_c=365198","firstResponseHeads":3,"firstResponseTails":7,"secondResponseHeads":2,"secondResponseTails":7,"studentIndex":6,"studentTrueHypers":{"a":4,"b":1},"studentGuess":0.375,"delta":0.175,"bonus":0,"bonusSoFar":1.48,"totalExamples":19},{"rt":13264,"response":{"heads":"8","tails":"2"},"type":"response","condition":"seqNoFeedback","trueTheta":0.8,"classrooms":["C","D"],"studentTrueClassroom":"C","exampleSet":"first","trial_type":"survey-html-form","trial_index":62,"time_elapsed":1057815,"internal_node_id":"0.0-58.0-0.0","params":{"nStudents":24,"maxFlips":30,"completionMinutes":45,"basePay":8,"maxBonus":9,"perTrialBonus":0.5,"perTrialBonusThreshold":0.1,"exampleCost":0.01},"classroomParams":{"A":{"a":1,"b":4},"B":{"a":4,"b":1},"C":{"a":2,"b":8},"D":{"a":8,"b":2}},"conditions":["nonSeqFull","nonSeqPartial","seqNoFeedback","seqFeedback"],"classroomPairings":[["A","B"],["C","D"]],"coinWeights":[0.2,0.5,0.8],"subjectId":"A1DZMZTXWOM9MR","assignmentId":"373ERPL3YPU0UUY1QUB7TZS2TJ1TRS","hitId":"3H6W48L9F4B5OEOMH57RM53ZYNHWPM","url":"https://gershmanlab.com/experiments/alicia/teaching/experiment/?hitId=3H6W48L9F4B5OEOMH57RM53ZYNHWPM&workerId=A1DZMZTXWOM9MR&assignmentId=373ERPL3YPU0UUY1QUB7TZS2TJ1TRS&a=3R378&tp_a=3R378&b=373ERPL3YPU0UUY1QUB7TZS2TJ1TRS&tp_b=373ERPL3YPU0UUY1QUB7TZS2TJ1TRS&c=365198&tp_c=365198","heads":8,"tails":2,"studentIndex":7,"studentTrueHypers":{"a":2,"b":8},"studentGuess":0.5,"delta":0.30000000000000004,"totalExamples":10,"bonusSoFar":1.48},{"rt":6977,"response":{"heads":"8","tails":"2"},"type":"response","condition":"seqNoFeedback","trueTheta":0.8,"classrooms":["C","D"],"studentTrueClassroom":"C","exampleSet":"second","trial_type":"survey-html-form","trial_index":65,"time_elapsed":1071295,"internal_node_id":"0.0-61.0-0.0","params":{"nStudents":24,"maxFlips":30,"completionMinutes":45,"basePay":8,"maxBonus":9,"perTrialBonus":0.5,"perTrialBonusThreshold":0.1,"exampleCost":0.01},"classroomParams":{"A":{"a":1,"b":4},"B":{"a":4,"b":1},"C":{"a":2,"b":8},"D":{"a":8,"b":2}},"conditions":["nonSeqFull","nonSeqPartial","seqNoFeedback","seqFeedback"],"classroomPairings":[["A","B"],["C","D"]],"coinWeights":[0.2,0.5,0.8],"subjectId":"A1DZMZTXWOM9MR","assignmentId":"373ERPL3YPU0UUY1QUB7TZS2TJ1TRS","hitId":"3H6W48L9F4B5OEOMH57RM53ZYNHWPM","url":"https://gershmanlab.com/experiments/alicia/teaching/experiment/?hitId=3H6W48L9F4B5OEOMH57RM53ZYNHWPM&workerId=A1DZMZTXWOM9MR&assignmentId=373ERPL3YPU0UUY1QUB7TZS2TJ1TRS&a=3R378&tp_a=3R378&b=373ERPL3YPU0UUY1QUB7TZS2TJ1TRS&tp_b=373ERPL3YPU0UUY1QUB7TZS2TJ1TRS&c=365198&tp_c=365198","firstResponseHeads":8,"firstResponseTails":2,"secondResponseHeads":8,"secondResponseTails":2,"studentIndex":7,"studentTrueHypers":{"a":2,"b":8},"studentGuess":0.6,"delta":0.20000000000000007,"bonus":0,"bonusSoFar":1.48,"totalExamples":20},{"rt":12967,"response":{"heads":"3","tails":"2"},"type":"response","condition":"seqNoFeedback","trueTheta":0.5,"classrooms":["A","B"],"studentTrueClassroom":"A","exampleSet":"first","trial_type":"survey-html-form","trial_index":71,"time_elapsed":1100222,"internal_node_id":"0.0-67.0-0.0","params":{"nStudents":24,"maxFlips":30,"completionMinutes":45,"basePay":8,"maxBonus":9,"perTrialBonus":0.5,"perTrialBonusThreshold":0.1,"exampleCost":0.01},"classroomParams":{"A":{"a":1,"b":4},"B":{"a":4,"b":1},"C":{"a":2,"b":8},"D":{"a":8,"b":2}},"conditions":["nonSeqFull","nonSeqPartial","seqNoFeedback","seqFeedback"],"classroomPairings":[["A","B"],["C","D"]],"coinWeights":[0.2,0.5,0.8],"subjectId":"A1DZMZTXWOM9MR","assignmentId":"373ERPL3YPU0UUY1QUB7TZS2TJ1TRS","hitId":"3H6W48L9F4B5OEOMH57RM53ZYNHWPM","url":"https://gershmanlab.com/experiments/alicia/teaching/experiment/?hitId=3H6W48L9F4B5OEOMH57RM53ZYNHWPM&workerId=A1DZMZTXWOM9MR&assignmentId=373ERPL3YPU0UUY1QUB7TZS2TJ1TRS&a=3R378&tp_a=3R378&b=373ERPL3YPU0UUY1QUB7TZS2TJ1TRS&tp_b=373ERPL3YPU0UUY1QUB7TZS2TJ1TRS&c=365198&tp_c=365198","heads":3,"tails":2,"studentIndex":8,"studentTrueHypers":{"a":1,"b":4},"studentGuess":0.4,"delta":0.09999999999999998,"totalExamples":5,"bonusSoFar":1.48},{"rt":3593,"response":{"heads":"3","tails":"2"},"type":"response","condition":"seqNoFeedback","trueTheta":0.5,"classrooms":["A","B"],"studentTrueClassroom":"A","exampleSet":"second","trial_type":"survey-html-form","trial_index":74,"time_elapsed":1111318,"internal_node_id":"0.0-70.0-0.0","params":{"nStudents":24,"maxFlips":30,"completionMinutes":45,"basePay":8,"maxBonus":9,"perTrialBonus":0.5,"perTrialBonusThreshold":0.1,"exampleCost":0.01},"classroomParams":{"A":{"a":1,"b":4},"B":{"a":4,"b":1},"C":{"a":2,"b":8},"D":{"a":8,"b":2}},"conditions":["nonSeqFull","nonSeqPartial","seqNoFeedback","seqFeedback"],"classroomPairings":[["A","B"],["C","D"]],"coinWeights":[0.2,0.5,0.8],"subjectId":"A1DZMZTXWOM9MR","assignmentId":"373ERPL3YPU0UUY1QUB7TZS2TJ1TRS","hitId":"3H6W48L9F4B5OEOMH57RM53ZYNHWPM","url":"https://gershmanlab.com/experiments/alicia/teaching/experiment/?hitId=3H6W48L9F4B5OEOMH57RM53ZYNHWPM&workerId=A1DZMZTXWOM9MR&assignmentId=373ERPL3YPU0UUY1QUB7TZS2TJ1TRS&a=3R378&tp_a=3R378&b=373ERPL3YPU0UUY1QUB7TZS2TJ1TRS&tp_b=373ERPL3YPU0UUY1QUB7TZS2TJ1TRS&c=365198&tp_c=365198","firstResponseHeads":3,"firstResponseTails":2,"secondResponseHeads":3,"secondResponseTails":2,"studentIndex":8,"studentTrueHypers":{"a":1,"b":4},"studentGuess":0.4666666666666667,"delta":0.033333333333333326,"bonus":0.4,"bonusSoFar":1.88,"totalExamples":10},{"rt":8399,"response":{"heads":"4","tails":"1"},"type":"response","condition":"nonSeqPartial","trueTheta":0.8,"classrooms":["A","B"],"studentTrueClassroom":"B","exampleSet":"first","trial_type":"survey-html-form","trial_index":80,"time_elapsed":1137622,"internal_node_id":"0.0-76.0-0.0","params":{"nStudents":24,"maxFlips":30,"completionMinutes":45,"basePay":8,"maxBonus":9,"perTrialBonus":0.5,"perTrialBonusThreshold":0.1,"exampleCost":0.01},"classroomParams":{"A":{"a":1,"b":4},"B":{"a":4,"b":1},"C":{"a":2,"b":8},"D":{"a":8,"b":2}},"conditions":["nonSeqFull","nonSeqPartial","seqNoFeedback","seqFeedback"],"classroomPairings":[["A","B"],["C","D"]],"coinWeights":[0.2,0.5,0.8],"subjectId":"A1DZMZTXWOM9MR","assignmentId":"373ERPL3YPU0UUY1QUB7TZS2TJ1TRS","hitId":"3H6W48L9F4B5OEOMH57RM53ZYNHWPM","url":"https://gershmanlab.com/experiments/alicia/teaching/experiment/?hitId=3H6W48L9F4B5OEOMH57RM53ZYNHWPM&workerId=A1DZMZTXWOM9MR&assignmentId=373ERPL3YPU0UUY1QUB7TZS2TJ1TRS&a=3R378&tp_a=3R378&b=373ERPL3YPU0UUY1QUB7TZS2TJ1TRS&tp_b=373ERPL3YPU0UUY1QUB7TZS2TJ1TRS&c=365198&tp_c=365198","heads":4,"tails":1,"studentIndex":9,"studentTrueHypers":{"a":4,"b":1},"studentGuess":0.8,"delta":0,"totalExamples":5,"bonus":0.45,"bonusSoFar":2.33},{"rt":4328,"response":{"heads":"4","tails":"1"},"type":"response","condition":"seqFeedback","trueTheta":0.8,"classrooms":["A","B"],"studentTrueClassroom":"A","exampleSet":"first","trial_type":"survey-html-form","trial_index":86,"time_elapsed":1157199,"internal_node_id":"0.0-82.0-0.0","params":{"nStudents":24,"maxFlips":30,"completionMinutes":45,"basePay":8,"maxBonus":9,"perTrialBonus":0.5,"perTrialBonusThreshold":0.1,"exampleCost":0.01},"classroomParams":{"A":{"a":1,"b":4},"B":{"a":4,"b":1},"C":{"a":2,"b":8},"D":{"a":8,"b":2}},"conditions":["nonSeqFull","nonSeqPartial","seqNoFeedback","seqFeedback"],"classroomPairings":[["A","B"],["C","D"]],"coinWeights":[0.2,0.5,0.8],"subjectId":"A1DZMZTXWOM9MR","assignmentId":"373ERPL3YPU0UUY1QUB7TZS2TJ1TRS","hitId":"3H6W48L9F4B5OEOMH57RM53ZYNHWPM","url":"https://gershmanlab.com/experiments/alicia/teaching/experiment/?hitId=3H6W48L9F4B5OEOMH57RM53ZYNHWPM&workerId=A1DZMZTXWOM9MR&assignmentId=373ERPL3YPU0UUY1QUB7TZS2TJ1TRS&a=3R378&tp_a=3R378&b=373ERPL3YPU0UUY1QUB7TZS2TJ1TRS&tp_b=373ERPL3YPU0UUY1QUB7TZS2TJ1TRS&c=365198&tp_c=365198","heads":4,"tails":1,"studentIndex":10,"studentTrueHypers":{"a":1,"b":4},"studentGuess":0.5,"delta":0.30000000000000004,"totalExamples":5,"bonusSoFar":2.33},{"rt":11657,"response":{"heads":"8","tails":"1"},"type":"response","condition":"seqFeedback","trueTheta":0.8,"classrooms":["A","B"],"studentTrueClassroom":"A","exampleSet":"second","trial_type":"survey-html-form","trial_index":90,"time_elapsed":1180543,"internal_node_id":"0.0-86.0-0.0","params":{"nStudents":24,"maxFlips":30,"completionMinutes":45,"basePay":8,"maxBonus":9,"perTrialBonus":0.5,"perTrialBonusThreshold":0.1,"exampleCost":0.01},"classroomParams":{"A":{"a":1,"b":4},"B":{"a":4,"b":1},"C":{"a":2,"b":8},"D":{"a":8,"b":2}},"conditions":["nonSeqFull","nonSeqPartial","seqNoFeedback","seqFeedback"],"classroomPairings":[["A","B"],["C","D"]],"coinWeights":[0.2,0.5,0.8],"subjectId":"A1DZMZTXWOM9MR","assignmentId":"373ERPL3YPU0UUY1QUB7TZS2TJ1TRS","hitId":"3H6W48L9F4B5OEOMH57RM53ZYNHWPM","url":"https://gershmanlab.com/experiments/alicia/teaching/experiment/?hitId=3H6W48L9F4B5OEOMH57RM53ZYNHWPM&workerId=A1DZMZTXWOM9MR&assignmentId=373ERPL3YPU0UUY1QUB7TZS2TJ1TRS&a=3R378&tp_a=3R378&b=373ERPL3YPU0UUY1QUB7TZS2TJ1TRS&tp_b=373ERPL3YPU0UUY1QUB7TZS2TJ1TRS&c=365198&tp_c=365198","firstResponseHeads":4,"firstResponseTails":1,"secondResponseHeads":8,"secondResponseTails":1,"studentIndex":10,"studentTrueHypers":{"a":1,"b":4},"studentGuess":0.6842105263157895,"delta":0.11578947368421055,"bonus":0,"bonusSoFar":2.33,"totalExamples":14},{"rt":12800,"response":{"heads":"4","tails":"4"},"type":"response","condition":"nonSeqFull","trueTheta":0.8,"classrooms":["C","D"],"studentTrueClassroom":"C","exampleSet":"first","trial_type":"survey-html-form","trial_index":96,"time_elapsed":1207223,"internal_node_id":"0.0-92.0-0.0","params":{"nStudents":24,"maxFlips":30,"completionMinutes":45,"basePay":8,"maxBonus":9,"perTrialBonus":0.5,"perTrialBonusThreshold":0.1,"exampleCost":0.01},"classroomParams":{"A":{"a":1,"b":4},"B":{"a":4,"b":1},"C":{"a":2,"b":8},"D":{"a":8,"b":2}},"conditions":["nonSeqFull","nonSeqPartial","seqNoFeedback","seqFeedback"],"classroomPairings":[["A","B"],["C","D"]],"coinWeights":[0.2,0.5,0.8],"subjectId":"A1DZMZTXWOM9MR","assignmentId":"373ERPL3YPU0UUY1QUB7TZS2TJ1TRS","hitId":"3H6W48L9F4B5OEOMH57RM53ZYNHWPM","url":"https://gershmanlab.com/experiments/alicia/teaching/experiment/?hitId=3H6W48L9F4B5OEOMH57RM53ZYNHWPM&workerId=A1DZMZTXWOM9MR&assignmentId=373ERPL3YPU0UUY1QUB7TZS2TJ1TRS&a=3R378&tp_a=3R378&b=373ERPL3YPU0UUY1QUB7TZS2TJ1TRS&tp_b=373ERPL3YPU0UUY1QUB7TZS2TJ1TRS&c=365198&tp_c=365198","heads":4,"tails":4,"studentIndex":11,"studentTrueHypers":{"a":2,"b":8},"studentGuess":0.3333333333333333,"delta":0.46666666666666673,"totalExamples":8,"bonus":0,"bonusSoFar":2.33},{"rt":9023,"response":{"heads":"2","tails":"5"},"type":"response","condition":"seqFeedback","trueTheta":0.2,"classrooms":["C","D"],"studentTrueClassroom":"D","exampleSet":"first","trial_type":"survey-html-form","trial_index":102,"time_elapsed":1230695,"internal_node_id":"0.0-98.0-0.0","params":{"nStudents":24,"maxFlips":30,"completionMinutes":45,"basePay":8,"maxBonus":9,"perTrialBonus":0.5,"perTrialBonusThreshold":0.1,"exampleCost":0.01},"classroomParams":{"A":{"a":1,"b":4},"B":{"a":4,"b":1},"C":{"a":2,"b":8},"D":{"a":8,"b":2}},"conditions":["nonSeqFull","nonSeqPartial","seqNoFeedback","seqFeedback"],"classroomPairings":[["A","B"],["C","D"]],"coinWeights":[0.2,0.5,0.8],"subjectId":"A1DZMZTXWOM9MR","assignmentId":"373ERPL3YPU0UUY1QUB7TZS2TJ1TRS","hitId":"3H6W48L9F4B5OEOMH57RM53ZYNHWPM","url":"https://gershmanlab.com/experiments/alicia/teaching/experiment/?hitId=3H6W48L9F4B5OEOMH57RM53ZYNHWPM&workerId=A1DZMZTXWOM9MR&assignmentId=373ERPL3YPU0UUY1QUB7TZS2TJ1TRS&a=3R378&tp_a=3R378&b=373ERPL3YPU0UUY1QUB7TZS2TJ1TRS&tp_b=373ERPL3YPU0UUY1QUB7TZS2TJ1TRS&c=365198&tp_c=365198","heads":2,"tails":5,"studentIndex":12,"studentTrueHypers":{"a":8,"b":2},"studentGuess":0.5882352941176471,"delta":0.38823529411764707,"totalExamples":7,"bonusSoFar":2.33},{"rt":8889,"response":{"heads":"1","tails":"7"},"type":"response","condition":"seqFeedback","trueTheta":0.2,"classrooms":["C","D"],"studentTrueClassroom":"D","exampleSet":"second","trial_type":"survey-html-form","trial_index":106,"time_elapsed":1249983,"internal_node_id":"0.0-102.0-0.0","params":{"nStudents":24,"maxFlips":30,"completionMinutes":45,"basePay":8,"maxBonus":9,"perTrialBonus":0.5,"perTrialBonusThreshold":0.1,"exampleCost":0.01},"classroomParams":{"A":{"a":1,"b":4},"B":{"a":4,"b":1},"C":{"a":2,"b":8},"D":{"a":8,"b":2}},"conditions":["nonSeqFull","nonSeqPartial","seqNoFeedback","seqFeedback"],"classroomPairings":[["A","B"],["C","D"]],"coinWeights":[0.2,0.5,0.8],"subjectId":"A1DZMZTXWOM9MR","assignmentId":"373ERPL3YPU0UUY1QUB7TZS2TJ1TRS","hitId":"3H6W48L9F4B5OEOMH57RM53ZYNHWPM","url":"https://gershmanlab.com/experiments/alicia/teaching/experiment/?hitId=3H6W48L9F4B5OEOMH57RM53ZYNHWPM&workerId=A1DZMZTXWOM9MR&assignmentId=373ERPL3YPU0UUY1QUB7TZS2TJ1TRS&a=3R378&tp_a=3R378&b=373ERPL3YPU0UUY1QUB7TZS2TJ1TRS&tp_b=373ERPL3YPU0UUY1QUB7TZS2TJ1TRS&c=365198&tp_c=365198","firstResponseHeads":2,"firstResponseTails":5,"secondResponseHeads":1,"secondResponseTails":7,"studentIndex":12,"studentTrueHypers":{"a":8,"b":2},"studentGuess":0.44,"delta":0.24,"bonus":0,"bonusSoFar":2.33,"totalExamples":15},{"rt":6095,"response":{"heads":"4","tails":"4"},"type":"response","condition":"nonSeqFull","trueTheta":0.5,"classrooms":["C","D"],"studentTrueClassroom":"C","exampleSet":"first","trial_type":"survey-html-form","trial_index":112,"time_elapsed":1271447,"internal_node_id":"0.0-108.0-0.0","params":{"nStudents":24,"maxFlips":30,"completionMinutes":45,"basePay":8,"maxBonus":9,"perTrialBonus":0.5,"perTrialBonusThreshold":0.1,"exampleCost":0.01},"classroomParams":{"A":{"a":1,"b":4},"B":{"a":4,"b":1},"C":{"a":2,"b":8},"D":{"a":8,"b":2}},"conditions":["nonSeqFull","nonSeqPartial","seqNoFeedback","seqFeedback"],"classroomPairings":[["A","B"],["C","D"]],"coinWeights":[0.2,0.5,0.8],"subjectId":"A1DZMZTXWOM9MR","assignmentId":"373ERPL3YPU0UUY1QUB7TZS2TJ1TRS","hitId":"3H6W48L9F4B5OEOMH57RM53ZYNHWPM","url":"https://gershmanlab.com/experiments/alicia/teaching/experiment/?hitId=3H6W48L9F4B5OEOMH57RM53ZYNHWPM&workerId=A1DZMZTXWOM9MR&assignmentId=373ERPL3YPU0UUY1QUB7TZS2TJ1TRS&a=3R378&tp_a=3R378&b=373ERPL3YPU0UUY1QUB7TZS2TJ1TRS&tp_b=373ERPL3YPU0UUY1QUB7TZS2TJ1TRS&c=365198&tp_c=365198","heads":4,"tails":4,"studentIndex":13,"studentTrueHypers":{"a":2,"b":8},"studentGuess":0.3333333333333333,"delta":0.16666666666666669,"totalExamples":8,"bonus":0,"bonusSoFar":2.33},{"rt":10327,"response":{"heads":"3","tails":"5"},"type":"response","condition":"seqNoFeedback","trueTheta":0.2,"classrooms":["C","D"],"studentTrueClassroom":"C","exampleSet":"first","trial_type":"survey-html-form","trial_index":118,"time_elapsed":1294415,"internal_node_id":"0.0-114.0-0.0","params":{"nStudents":24,"maxFlips":30,"completionMinutes":45,"basePay":8,"maxBonus":9,"perTrialBonus":0.5,"perTrialBonusThreshold":0.1,"exampleCost":0.01},"classroomParams":{"A":{"a":1,"b":4},"B":{"a":4,"b":1},"C":{"a":2,"b":8},"D":{"a":8,"b":2}},"conditions":["nonSeqFull","nonSeqPartial","seqNoFeedback","seqFeedback"],"classroomPairings":[["A","B"],["C","D"]],"coinWeights":[0.2,0.5,0.8],"subjectId":"A1DZMZTXWOM9MR","assignmentId":"373ERPL3YPU0UUY1QUB7TZS2TJ1TRS","hitId":"3H6W48L9F4B5OEOMH57RM53ZYNHWPM","url":"https://gershmanlab.com/experiments/alicia/teaching/experiment/?hitId=3H6W48L9F4B5OEOMH57RM53ZYNHWPM&workerId=A1DZMZTXWOM9MR&assignmentId=373ERPL3YPU0UUY1QUB7TZS2TJ1TRS&a=3R378&tp_a=3R378&b=373ERPL3YPU0UUY1QUB7TZS2TJ1TRS&tp_b=373ERPL3YPU0UUY1QUB7TZS2TJ1TRS&c=365198&tp_c=365198","heads":3,"tails":5,"studentIndex":14,"studentTrueHypers":{"a":2,"b":8},"studentGuess":0.2777777777777778,"delta":0.07777777777777778,"totalExamples":8,"bonusSoFar":2.33},{"rt":28628,"response":{"heads":"3","tails":"5"},"type":"response","condition":"seqNoFeedback","trueTheta":0.2,"classrooms":["C","D"],"studentTrueClassroom":"C","exampleSet":"second","trial_type":"survey-html-form","trial_index":121,"time_elapsed":1330567,"internal_node_id":"0.0-117.0-0.0","params":{"nStudents":24,"maxFlips":30,"completionMinutes":45,"basePay":8,"maxBonus":9,"perTrialBonus":0.5,"perTrialBonusThreshold":0.1,"exampleCost":0.01},"classroomParams":{"A":{"a":1,"b":4},"B":{"a":4,"b":1},"C":{"a":2,"b":8},"D":{"a":8,"b":2}},"conditions":["nonSeqFull","nonSeqPartial","seqNoFeedback","seqFeedback"],"classroomPairings":[["A","B"],["C","D"]],"coinWeights":[0.2,0.5,0.8],"subjectId":"A1DZMZTXWOM9MR","assignmentId":"373ERPL3YPU0UUY1QUB7TZS2TJ1TRS","hitId":"3H6W48L9F4B5OEOMH57RM53ZYNHWPM","url":"https://gershmanlab.com/experiments/alicia/teaching/experiment/?hitId=3H6W48L9F4B5OEOMH57RM53ZYNHWPM&workerId=A1DZMZTXWOM9MR&assignmentId=373ERPL3YPU0UUY1QUB7TZS2TJ1TRS&a=3R378&tp_a=3R378&b=373ERPL3YPU0UUY1QUB7TZS2TJ1TRS&tp_b=373ERPL3YPU0UUY1QUB7TZS2TJ1TRS&c=365198&tp_c=365198","firstResponseHeads":3,"firstResponseTails":5,"secondResponseHeads":3,"secondResponseTails":5,"studentIndex":14,"studentTrueHypers":{"a":2,"b":8},"studentGuess":0.3076923076923077,"delta":0.1076923076923077,"bonus":0,"bonusSoFar":2.33,"totalExamples":16},{"rt":8535,"response":{"heads":"3","tails":"7"},"type":"response","condition":"seqFeedback","trueTheta":0.2,"classrooms":["A","B"],"studentTrueClassroom":"A","exampleSet":"first","trial_type":"survey-html-form","trial_index":127,"time_elapsed":1358703,"internal_node_id":"0.0-123.0-0.0","params":{"nStudents":24,"maxFlips":30,"completionMinutes":45,"basePay":8,"maxBonus":9,"perTrialBonus":0.5,"perTrialBonusThreshold":0.1,"exampleCost":0.01},"classroomParams":{"A":{"a":1,"b":4},"B":{"a":4,"b":1},"C":{"a":2,"b":8},"D":{"a":8,"b":2}},"conditions":["nonSeqFull","nonSeqPartial","seqNoFeedback","seqFeedback"],"classroomPairings":[["A","B"],["C","D"]],"coinWeights":[0.2,0.5,0.8],"subjectId":"A1DZMZTXWOM9MR","assignmentId":"373ERPL3YPU0UUY1QUB7TZS2TJ1TRS","hitId":"3H6W48L9F4B5OEOMH57RM53ZYNHWPM","url":"https://gershmanlab.com/experiments/alicia/teaching/experiment/?hitId=3H6W48L9F4B5OEOMH57RM53ZYNHWPM&workerId=A1DZMZTXWOM9MR&assignmentId=373ERPL3YPU0UUY1QUB7TZS2TJ1TRS&a=3R378&tp_a=3R378&b=373ERPL3YPU0UUY1QUB7TZS2TJ1TRS&tp_b=373ERPL3YPU0UUY1QUB7TZS2TJ1TRS&c=365198&tp_c=365198","heads":3,"tails":7,"studentIndex":15,"studentTrueHypers":{"a":1,"b":4},"studentGuess":0.26666666666666666,"delta":0.06666666666666665,"totalExamples":10,"bonusSoFar":2.33},{"rt":9673,"response":{"heads":"2","tails":"8"},"type":"response","condition":"seqFeedback","trueTheta":0.2,"classrooms":["A","B"],"studentTrueClassroom":"A","exampleSet":"second","trial_type":"survey-html-form","trial_index":131,"time_elapsed":1376758,"internal_node_id":"0.0-127.0-0.0","params":{"nStudents":24,"maxFlips":30,"completionMinutes":45,"basePay":8,"maxBonus":9,"perTrialBonus":0.5,"perTrialBonusThreshold":0.1,"exampleCost":0.01},"classroomParams":{"A":{"a":1,"b":4},"B":{"a":4,"b":1},"C":{"a":2,"b":8},"D":{"a":8,"b":2}},"conditions":["nonSeqFull","nonSeqPartial","seqNoFeedback","seqFeedback"],"classroomPairings":[["A","B"],["C","D"]],"coinWeights":[0.2,0.5,0.8],"subjectId":"A1DZMZTXWOM9MR","assignmentId":"373ERPL3YPU0UUY1QUB7TZS2TJ1TRS","hitId":"3H6W48L9F4B5OEOMH57RM53ZYNHWPM","url":"https://gershmanlab.com/experiments/alicia/teaching/experiment/?hitId=3H6W48L9F4B5OEOMH57RM53ZYNHWPM&workerId=A1DZMZTXWOM9MR&assignmentId=373ERPL3YPU0UUY1QUB7TZS2TJ1TRS&a=3R378&tp_a=3R378&b=373ERPL3YPU0UUY1QUB7TZS2TJ1TRS&tp_b=373ERPL3YPU0UUY1QUB7TZS2TJ1TRS&c=365198&tp_c=365198","firstResponseHeads":3,"firstResponseTails":7,"secondResponseHeads":2,"secondResponseTails":8,"studentIndex":15,"studentTrueHypers":{"a":1,"b":4},"studentGuess":0.24,"delta":0.03999999999999998,"bonus":0.3,"bonusSoFar":2.63,"totalExamples":20},{"rt":4904,"response":{"heads":"3","tails":"3"},"type":"response","condition":"nonSeqPartial","trueTheta":0.5,"classrooms":["A","B"],"studentTrueClassroom":"B","exampleSet":"first","trial_type":"survey-html-form","trial_index":137,"time_elapsed":1400615,"internal_node_id":"0.0-133.0-0.0","params":{"nStudents":24,"maxFlips":30,"completionMinutes":45,"basePay":8,"maxBonus":9,"perTrialBonus":0.5,"perTrialBonusThreshold":0.1,"exampleCost":0.01},"classroomParams":{"A":{"a":1,"b":4},"B":{"a":4,"b":1},"C":{"a":2,"b":8},"D":{"a":8,"b":2}},"conditions":["nonSeqFull","nonSeqPartial","seqNoFeedback","seqFeedback"],"classroomPairings":[["A","B"],["C","D"]],"coinWeights":[0.2,0.5,0.8],"subjectId":"A1DZMZTXWOM9MR","assignmentId":"373ERPL3YPU0UUY1QUB7TZS2TJ1TRS","hitId":"3H6W48L9F4B5OEOMH57RM53ZYNHWPM","url":"https://gershmanlab.com/experiments/alicia/teaching/experiment/?hitId=3H6W48L9F4B5OEOMH57RM53ZYNHWPM&workerId=A1DZMZTXWOM9MR&assignmentId=373ERPL3YPU0UUY1QUB7TZS2TJ1TRS&a=3R378&tp_a=3R378&b=373ERPL3YPU0UUY1QUB7TZS2TJ1TRS&tp_b=373ERPL3YPU0UUY1QUB7TZS2TJ1TRS&c=365198&tp_c=365198","heads":3,"tails":3,"studentIndex":16,"studentTrueHypers":{"a":4,"b":1},"studentGuess":0.6363636363636364,"delta":0.13636363636363635,"totalExamples":6,"bonus":0,"bonusSoFar":2.63},{"rt":5495,"response":{"heads":"8","tails":"2"},"type":"response","condition":"seqNoFeedback","trueTheta":0.8,"classrooms":["A","B"],"studentTrueClassroom":"B","exampleSet":"first","trial_type":"survey-html-form","trial_index":143,"time_elapsed":1420327,"internal_node_id":"0.0-139.0-0.0","params":{"nStudents":24,"maxFlips":30,"completionMinutes":45,"basePay":8,"maxBonus":9,"perTrialBonus":0.5,"perTrialBonusThreshold":0.1,"exampleCost":0.01},"classroomParams":{"A":{"a":1,"b":4},"B":{"a":4,"b":1},"C":{"a":2,"b":8},"D":{"a":8,"b":2}},"conditions":["nonSeqFull","nonSeqPartial","seqNoFeedback","seqFeedback"],"classroomPairings":[["A","B"],["C","D"]],"coinWeights":[0.2,0.5,0.8],"subjectId":"A1DZMZTXWOM9MR","assignmentId":"373ERPL3YPU0UUY1QUB7TZS2TJ1TRS","hitId":"3H6W48L9F4B5OEOMH57RM53ZYNHWPM","url":"https://gershmanlab.com/experiments/alicia/teaching/experiment/?hitId=3H6W48L9F4B5OEOMH57RM53ZYNHWPM&workerId=A1DZMZTXWOM9MR&assignmentId=373ERPL3YPU0UUY1QUB7TZS2TJ1TRS&a=3R378&tp_a=3R378&b=373ERPL3YPU0UUY1QUB7TZS2TJ1TRS&tp_b=373ERPL3YPU0UUY1QUB7TZS2TJ1TRS&c=365198&tp_c=365198","heads":8,"tails":2,"studentIndex":17,"studentTrueHypers":{"a":4,"b":1},"studentGuess":0.8,"delta":0,"totalExamples":10,"bonusSoFar":2.63},{"rt":4447,"response":{"heads":"12","tails":"3"},"type":"response","condition":"seqNoFeedback","trueTheta":0.8,"classrooms":["A","B"],"studentTrueClassroom":"B","exampleSet":"second","trial_type":"survey-html-form","trial_index":146,"time_elapsed":1431792,"internal_node_id":"0.0-142.0-0.0","params":{"nStudents":24,"maxFlips":30,"completionMinutes":45,"basePay":8,"maxBonus":9,"perTrialBonus":0.5,"perTrialBonusThreshold":0.1,"exampleCost":0.01},"classroomParams":{"A":{"a":1,"b":4},"B":{"a":4,"b":1},"C":{"a":2,"b":8},"D":{"a":8,"b":2}},"conditions":["nonSeqFull","nonSeqPartial","seqNoFeedback","seqFeedback"],"classroomPairings":[["A","B"],["C","D"]],"coinWeights":[0.2,0.5,0.8],"subjectId":"A1DZMZTXWOM9MR","assignmentId":"373ERPL3YPU0UUY1QUB7TZS2TJ1TRS","hitId":"3H6W48L9F4B5OEOMH57RM53ZYNHWPM","url":"https://gershmanlab.com/experiments/alicia/teaching/experiment/?hitId=3H6W48L9F4B5OEOMH57RM53ZYNHWPM&workerId=A1DZMZTXWOM9MR&assignmentId=373ERPL3YPU0UUY1QUB7TZS2TJ1TRS&a=3R378&tp_a=3R378&b=373ERPL3YPU0UUY1QUB7TZS2TJ1TRS&tp_b=373ERPL3YPU0UUY1QUB7TZS2TJ1TRS&c=365198&tp_c=365198","firstResponseHeads":8,"firstResponseTails":2,"secondResponseHeads":12,"secondResponseTails":3,"studentIndex":17,"studentTrueHypers":{"a":4,"b":1},"studentGuess":0.8,"delta":0,"bonus":0.25,"bonusSoFar":2.88,"totalExamples":25},{"rt":10760,"response":{"heads":"2","tails":"8"},"type":"response","condition":"nonSeqFull","trueTheta":0.2,"classrooms":["C","D"],"studentTrueClassroom":"D","exampleSet":"first","trial_type":"survey-html-form","trial_index":152,"time_elapsed":1458199,"internal_node_id":"0.0-148.0-0.0","params":{"nStudents":24,"maxFlips":30,"completionMinutes":45,"basePay":8,"maxBonus":9,"perTrialBonus":0.5,"perTrialBonusThreshold":0.1,"exampleCost":0.01},"classroomParams":{"A":{"a":1,"b":4},"B":{"a":4,"b":1},"C":{"a":2,"b":8},"D":{"a":8,"b":2}},"conditions":["nonSeqFull","nonSeqPartial","seqNoFeedback","seqFeedback"],"classroomPairings":[["A","B"],["C","D"]],"coinWeights":[0.2,0.5,0.8],"subjectId":"A1DZMZTXWOM9MR","assignmentId":"373ERPL3YPU0UUY1QUB7TZS2TJ1TRS","hitId":"3H6W48L9F4B5OEOMH57RM53ZYNHWPM","url":"https://gershmanlab.com/experiments/alicia/teaching/experiment/?hitId=3H6W48L9F4B5OEOMH57RM53ZYNHWPM&workerId=A1DZMZTXWOM9MR&assignmentId=373ERPL3YPU0UUY1QUB7TZS2TJ1TRS&a=3R378&tp_a=3R378&b=373ERPL3YPU0UUY1QUB7TZS2TJ1TRS&tp_b=373ERPL3YPU0UUY1QUB7TZS2TJ1TRS&c=365198&tp_c=365198","heads":2,"tails":8,"studentIndex":18,"studentTrueHypers":{"a":8,"b":2},"studentGuess":0.5,"delta":0.3,"totalExamples":10,"bonus":0,"bonusSoFar":2.88},{"rt":7127,"response":{"heads":"2","tails":"8"},"type":"response","condition":"nonSeqFull","trueTheta":0.5,"classrooms":["A","B"],"studentTrueClassroom":"A","exampleSet":"first","trial_type":"survey-html-form","trial_index":158,"time_elapsed":1478375,"internal_node_id":"0.0-154.0-0.0","params":{"nStudents":24,"maxFlips":30,"completionMinutes":45,"basePay":8,"maxBonus":9,"perTrialBonus":0.5,"perTrialBonusThreshold":0.1,"exampleCost":0.01},"classroomParams":{"A":{"a":1,"b":4},"B":{"a":4,"b":1},"C":{"a":2,"b":8},"D":{"a":8,"b":2}},"conditions":["nonSeqFull","nonSeqPartial","seqNoFeedback","seqFeedback"],"classroomPairings":[["A","B"],["C","D"]],"coinWeights":[0.2,0.5,0.8],"subjectId":"A1DZMZTXWOM9MR","assignmentId":"373ERPL3YPU0UUY1QUB7TZS2TJ1TRS","hitId":"3H6W48L9F4B5OEOMH57RM53ZYNHWPM","url":"https://gershmanlab.com/experiments/alicia/teaching/experiment/?hitId=3H6W48L9F4B5OEOMH57RM53ZYNHWPM&workerId=A1DZMZTXWOM9MR&assignmentId=373ERPL3YPU0UUY1QUB7TZS2TJ1TRS&a=3R378&tp_a=3R378&b=373ERPL3YPU0UUY1QUB7TZS2TJ1TRS&tp_b=373ERPL3YPU0UUY1QUB7TZS2TJ1TRS&c=365198&tp_c=365198","heads":2,"tails":8,"studentIndex":19,"studentTrueHypers":{"a":1,"b":4},"studentGuess":0.2,"delta":0.3,"totalExamples":10,"bonus":0,"bonusSoFar":2.88},{"rt":5248,"response":{"heads":"5","tails":"5"},"type":"response","condition":"seqFeedback","trueTheta":0.5,"classrooms":["A","B"],"studentTrueClassroom":"A","exampleSet":"first","trial_type":"survey-html-form","trial_index":164,"time_elapsed":1498031,"internal_node_id":"0.0-160.0-0.0","params":{"nStudents":24,"maxFlips":30,"completionMinutes":45,"basePay":8,"maxBonus":9,"perTrialBonus":0.5,"perTrialBonusThreshold":0.1,"exampleCost":0.01},"classroomParams":{"A":{"a":1,"b":4},"B":{"a":4,"b":1},"C":{"a":2,"b":8},"D":{"a":8,"b":2}},"conditions":["nonSeqFull","nonSeqPartial","seqNoFeedback","seqFeedback"],"classroomPairings":[["A","B"],["C","D"]],"coinWeights":[0.2,0.5,0.8],"subjectId":"A1DZMZTXWOM9MR","assignmentId":"373ERPL3YPU0UUY1QUB7TZS2TJ1TRS","hitId":"3H6W48L9F4B5OEOMH57RM53ZYNHWPM","url":"https://gershmanlab.com/experiments/alicia/teaching/experiment/?hitId=3H6W48L9F4B5OEOMH57RM53ZYNHWPM&workerId=A1DZMZTXWOM9MR&assignmentId=373ERPL3YPU0UUY1QUB7TZS2TJ1TRS&a=3R378&tp_a=3R378&b=373ERPL3YPU0UUY1QUB7TZS2TJ1TRS&tp_b=373ERPL3YPU0UUY1QUB7TZS2TJ1TRS&c=365198&tp_c=365198","heads":5,"tails":5,"studentIndex":20,"studentTrueHypers":{"a":1,"b":4},"studentGuess":0.4,"delta":0.09999999999999998,"totalExamples":10,"bonusSoFar":2.88},{"rt":7308,"response":{"heads":"4","tails":"6"},"type":"response","condition":"seqFeedback","trueTheta":0.5,"classrooms":["A","B"],"studentTrueClassroom":"A","exampleSet":"second","trial_type":"survey-html-form","trial_index":168,"time_elapsed":1518127,"internal_node_id":"0.0-164.0-0.0","params":{"nStudents":24,"maxFlips":30,"completionMinutes":45,"basePay":8,"maxBonus":9,"perTrialBonus":0.5,"perTrialBonusThreshold":0.1,"exampleCost":0.01},"classroomParams":{"A":{"a":1,"b":4},"B":{"a":4,"b":1},"C":{"a":2,"b":8},"D":{"a":8,"b":2}},"conditions":["nonSeqFull","nonSeqPartial","seqNoFeedback","seqFeedback"],"classroomPairings":[["A","B"],["C","D"]],"coinWeights":[0.2,0.5,0.8],"subjectId":"A1DZMZTXWOM9MR","assignmentId":"373ERPL3YPU0UUY1QUB7TZS2TJ1TRS","hitId":"3H6W48L9F4B5OEOMH57RM53ZYNHWPM","url":"https://gershmanlab.com/experiments/alicia/teaching/experiment/?hitId=3H6W48L9F4B5OEOMH57RM53ZYNHWPM&workerId=A1DZMZTXWOM9MR&assignmentId=373ERPL3YPU0UUY1QUB7TZS2TJ1TRS&a=3R378&tp_a=3R378&b=373ERPL3YPU0UUY1QUB7TZS2TJ1TRS&tp_b=373ERPL3YPU0UUY1QUB7TZS2TJ1TRS&c=365198&tp_c=365198","firstResponseHeads":5,"firstResponseTails":5,"secondResponseHeads":4,"secondResponseTails":6,"studentIndex":20,"studentTrueHypers":{"a":1,"b":4},"studentGuess":0.4,"delta":0.09999999999999998,"bonus":0.3,"bonusSoFar":3.18,"totalExamples":20},{"rt":11904,"response":{"heads":"12","tails":"3"},"type":"response","condition":"nonSeqPartial","trueTheta":0.8,"classrooms":["C","D"],"studentTrueClassroom":"D","exampleSet":"first","trial_type":"survey-html-form","trial_index":174,"time_elapsed":1560287,"internal_node_id":"0.0-170.0-0.0","params":{"nStudents":24,"maxFlips":30,"completionMinutes":45,"basePay":8,"maxBonus":9,"perTrialBonus":0.5,"perTrialBonusThreshold":0.1,"exampleCost":0.01},"classroomParams":{"A":{"a":1,"b":4},"B":{"a":4,"b":1},"C":{"a":2,"b":8},"D":{"a":8,"b":2}},"conditions":["nonSeqFull","nonSeqPartial","seqNoFeedback","seqFeedback"],"classroomPairings":[["A","B"],["C","D"]],"coinWeights":[0.2,0.5,0.8],"subjectId":"A1DZMZTXWOM9MR","assignmentId":"373ERPL3YPU0UUY1QUB7TZS2TJ1TRS","hitId":"3H6W48L9F4B5OEOMH57RM53ZYNHWPM","url":"https://gershmanlab.com/experiments/alicia/teaching/experiment/?hitId=3H6W48L9F4B5OEOMH57RM53ZYNHWPM&workerId=A1DZMZTXWOM9MR&assignmentId=373ERPL3YPU0UUY1QUB7TZS2TJ1TRS&a=3R378&tp_a=3R378&b=373ERPL3YPU0UUY1QUB7TZS2TJ1TRS&tp_b=373ERPL3YPU0UUY1QUB7TZS2TJ1TRS&c=365198&tp_c=365198","heads":12,"tails":3,"studentIndex":21,"studentTrueHypers":{"a":8,"b":2},"studentGuess":0.8,"delta":0,"totalExamples":15,"bonus":0.35,"bonusSoFar":3.53},{"rt":4392,"response":{"heads":"4","tails":"4"},"type":"response","condition":"nonSeqPartial","trueTheta":0.5,"classrooms":["C","D"],"studentTrueClassroom":"D","exampleSet":"first","trial_type":"survey-html-form","trial_index":180,"time_elapsed":1585359,"internal_node_id":"0.0-176.0-0.0","params":{"nStudents":24,"maxFlips":30,"completionMinutes":45,"basePay":8,"maxBonus":9,"perTrialBonus":0.5,"perTrialBonusThreshold":0.1,"exampleCost":0.01},"classroomParams":{"A":{"a":1,"b":4},"B":{"a":4,"b":1},"C":{"a":2,"b":8},"D":{"a":8,"b":2}},"conditions":["nonSeqFull","nonSeqPartial","seqNoFeedback","seqFeedback"],"classroomPairings":[["A","B"],["C","D"]],"coinWeights":[0.2,0.5,0.8],"subjectId":"A1DZMZTXWOM9MR","assignmentId":"373ERPL3YPU0UUY1QUB7TZS2TJ1TRS","hitId":"3H6W48L9F4B5OEOMH57RM53ZYNHWPM","url":"https://gershmanlab.com/experiments/alicia/teaching/experiment/?hitId=3H6W48L9F4B5OEOMH57RM53ZYNHWPM&workerId=A1DZMZTXWOM9MR&assignmentId=373ERPL3YPU0UUY1QUB7TZS2TJ1TRS&a=3R378&tp_a=3R378&b=373ERPL3YPU0UUY1QUB7TZS2TJ1TRS&tp_b=373ERPL3YPU0UUY1QUB7TZS2TJ1TRS&c=365198&tp_c=365198","heads":4,"tails":4,"studentIndex":22,"studentTrueHypers":{"a":8,"b":2},"studentGuess":0.6666666666666666,"delta":0.16666666666666663,"totalExamples":8,"bonus":0,"bonusSoFar":3.53},{"rt":17048,"response":{"heads":"7","tails":"5"},"type":"response","condition":"seqFeedback","trueTheta":0.5,"classrooms":["C","D"],"studentTrueClassroom":"D","exampleSet":"first","trial_type":"survey-html-form","trial_index":186,"time_elapsed":1622583,"internal_node_id":"0.0-182.0-0.0","params":{"nStudents":24,"maxFlips":30,"completionMinutes":45,"basePay":8,"maxBonus":9,"perTrialBonus":0.5,"perTrialBonusThreshold":0.1,"exampleCost":0.01},"classroomParams":{"A":{"a":1,"b":4},"B":{"a":4,"b":1},"C":{"a":2,"b":8},"D":{"a":8,"b":2}},"conditions":["nonSeqFull","nonSeqPartial","seqNoFeedback","seqFeedback"],"classroomPairings":[["A","B"],["C","D"]],"coinWeights":[0.2,0.5,0.8],"subjectId":"A1DZMZTXWOM9MR","assignmentId":"373ERPL3YPU0UUY1QUB7TZS2TJ1TRS","hitId":"3H6W48L9F4B5OEOMH57RM53ZYNHWPM","url":"https://gershmanlab.com/experiments/alicia/teaching/experiment/?hitId=3H6W48L9F4B5OEOMH57RM53ZYNHWPM&workerId=A1DZMZTXWOM9MR&assignmentId=373ERPL3YPU0UUY1QUB7TZS2TJ1TRS&a=3R378&tp_a=3R378&b=373ERPL3YPU0UUY1QUB7TZS2TJ1TRS&tp_b=373ERPL3YPU0UUY1QUB7TZS2TJ1TRS&c=365198&tp_c=365198","heads":7,"tails":5,"studentIndex":23,"studentTrueHypers":{"a":8,"b":2},"studentGuess":0.6818181818181818,"delta":0.18181818181818177,"totalExamples":12,"bonusSoFar":3.53},{"rt":17413,"response":{"heads":"7","tails":"7"},"type":"response","condition":"seqFeedback","trueTheta":0.5,"classrooms":["C","D"],"studentTrueClassroom":"D","exampleSet":"second","trial_type":"survey-html-form","trial_index":190,"time_elapsed":1649135,"internal_node_id":"0.0-186.0-0.0","params":{"nStudents":24,"maxFlips":30,"completionMinutes":45,"basePay":8,"maxBonus":9,"perTrialBonus":0.5,"perTrialBonusThreshold":0.1,"exampleCost":0.01},"classroomParams":{"A":{"a":1,"b":4},"B":{"a":4,"b":1},"C":{"a":2,"b":8},"D":{"a":8,"b":2}},"conditions":["nonSeqFull","nonSeqPartial","seqNoFeedback","seqFeedback"],"classroomPairings":[["A","B"],["C","D"]],"coinWeights":[0.2,0.5,0.8],"subjectId":"A1DZMZTXWOM9MR","assignmentId":"373ERPL3YPU0UUY1QUB7TZS2TJ1TRS","hitId":"3H6W48L9F4B5OEOMH57RM53ZYNHWPM","url":"https://gershmanlab.com/experiments/alicia/teaching/experiment/?hitId=3H6W48L9F4B5OEOMH57RM53ZYNHWPM&workerId=A1DZMZTXWOM9MR&assignmentId=373ERPL3YPU0UUY1QUB7TZS2TJ1TRS&a=3R378&tp_a=3R378&b=373ERPL3YPU0UUY1QUB7TZS2TJ1TRS&tp_b=373ERPL3YPU0UUY1QUB7TZS2TJ1TRS&c=365198&tp_c=365198","firstResponseHeads":7,"firstResponseTails":5,"secondResponseHeads":7,"secondResponseTails":7,"studentIndex":23,"studentTrueHypers":{"a":8,"b":2},"studentGuess":0.6111111111111112,"delta":0.11111111111111116,"bonus":0,"bonusSoFar":3.53,"totalExamples":26},{"rt":21292,"response":{"gender":"male","age":"39","understood":"yes","comments":"n/a"},"type":"response","trial_type":"survey-html-form","trial_index":194,"time_elapsed":1681799,"internal_node_id":"0.0-191.0","params":{"nStudents":24,"maxFlips":30,"completionMinutes":45,"basePay":8,"maxBonus":9,"perTrialBonus":0.5,"perTrialBonusThreshold":0.1,"exampleCost":0.01},"classroomParams":{"A":{"a":1,"b":4},"B":{"a":4,"b":1},"C":{"a":2,"b":8},"D":{"a":8,"b":2}},"conditions":["nonSeqFull","nonSeqPartial","seqNoFeedback","seqFeedback"],"classroomPairings":[["A","B"],["C","D"]],"coinWeights":[0.2,0.5,0.8],"subjectId":"A1DZMZTXWOM9MR","assignmentId":"373ERPL3YPU0UUY1QUB7TZS2TJ1TRS","hitId":"3H6W48L9F4B5OEOMH57RM53ZYNHWPM","url":"https://gershmanlab.com/experiments/alicia/teaching/experiment/?hitId=3H6W48L9F4B5OEOMH57RM53ZYNHWPM&workerId=A1DZMZTXWOM9MR&assignmentId=373ERPL3YPU0UUY1QUB7TZS2TJ1TRS&a=3R378&tp_a=3R378&b=373ERPL3YPU0UUY1QUB7TZS2TJ1TRS&tp_b=373ERPL3YPU0UUY1QUB7TZS2TJ1TRS&c=365198&tp_c=365198","totalBonus":3.53}]