[{"rt":37827,"response":{"heads":"6","tails":"6"},"type":"response","condition":"seqFeedback","trueTheta":0.5,"classrooms":["C","D"],"studentTrueClassroom":"C","exampleSet":"first","trial_type":"survey-html-form","trial_index":7,"time_elapsed":501251,"internal_node_id":"0.0-6.0-0.0","params":{"nStudents":24,"maxFlips":30,"completionMinutes":45,"basePay":8,"maxBonus":9,"perTrialBonus":0.5,"perTrialBonusThreshold":0.1,"exampleCost":0.01},"classroomParams":{"A":{"a":1,"b":4},"B":{"a":4,"b":1},"C":{"a":2,"b":8},"D":{"a":8,"b":2}},"conditions":["nonSeqFull","nonSeqPartial","seqNoFeedback","seqFeedback"],"classroomPairings":[["A","B"],["C","D"]],"coinWeights":[0.2,0.5,0.8],"subjectId":"A248QG4DPULP46","assignmentId":"336YQZE83W07CCAJKQXS4KSE7TGM56","hitId":"3YGE63DIN8J20XK20KS1742RQF60WK","url":"https://gershmanlab.com/experiments/alicia/teaching/experiment/?hitId=3YGE63DIN8J20XK20KS1742RQF60WK&workerId=A248QG4DPULP46&assignmentId=336YQZE83W07CCAJKQXS4KSE7TGM56&a=8Q638&tp_a=8Q638&b=336YQZE83W07CCAJKQXS4KSE7TGM56&tp_b=336YQZE83W07CCAJKQXS4KSE7TGM56&c=365198&tp_c=365198","heads":6,"tails":6,"studentIndex":0,"studentTrueHypers":{"a":2,"b":8},"studentGuess":0.36363636363636365,"delta":0.13636363636363635,"totalExamples":12,"bonusSoFar":0},{"rt":20081,"response":{"heads":"10","tails":"10"},"type":"response","condition":"seqFeedback","trueTheta":0.5,"classrooms":["C","D"],"studentTrueClassroom":"C","exampleSet":"second","trial_type":"survey-html-form","trial_index":11,"time_elapsed":531884,"internal_node_id":"0.0-10.0-0.0","params":{"nStudents":24,"maxFlips":30,"completionMinutes":45,"basePay":8,"maxBonus":9,"perTrialBonus":0.5,"perTrialBonusThreshold":0.1,"exampleCost":0.01},"classroomParams":{"A":{"a":1,"b":4},"B":{"a":4,"b":1},"C":{"a":2,"b":8},"D":{"a":8,"b":2}},"conditions":["nonSeqFull","nonSeqPartial","seqNoFeedback","seqFeedback"],"classroomPairings":[["A","B"],["C","D"]],"coinWeights":[0.2,0.5,0.8],"subjectId":"A248QG4DPULP46","assignmentId":"336YQZE83W07CCAJKQXS4KSE7TGM56","hitId":"3YGE63DIN8J20XK20KS1742RQF60WK","url":"https://gershmanlab.com/experiments/alicia/teaching/experiment/?hitId=3YGE63DIN8J20XK20KS1742RQF60WK&workerId=A248QG4DPULP46&assignmentId=336YQZE83W07CCAJKQXS4KSE7TGM56&a=8Q638&tp_a=8Q638&b=336YQZE83W07CCAJKQXS4KSE7TGM56&tp_b=336YQZE83W07CCAJKQXS4KSE7TGM56&c=365198&tp_c=365198","firstResponseHeads":6,"firstResponseTails":6,"secondResponseHeads":10,"secondResponseTails":10,"studentIndex":0,"studentTrueHypers":{"a":2,"b":8},"studentGuess":0.42857142857142855,"delta":0.07142857142857145,"bonus":0.18,"bonusSoFar":0.18,"totalExamples":32},{"rt":16616,"response":{"heads":"15","tails":"15"},"type":"response","condition":"nonSeqFull","trueTheta":0.5,"classrooms":["C","D"],"studentTrueClassroom":"C","exampleSet":"first","trial_type":"survey-html-form","trial_index":17,"time_elapsed":594814,"internal_node_id":"0.0-16.0-0.0","params":{"nStudents":24,"maxFlips":30,"completionMinutes":45,"basePay":8,"maxBonus":9,"perTrialBonus":0.5,"perTrialBonusThreshold":0.1,"exampleCost":0.01},"classroomParams":{"A":{"a":1,"b":4},"B":{"a":4,"b":1},"C":{"a":2,"b":8},"D":{"a":8,"b":2}},"conditions":["nonSeqFull","nonSeqPartial","seqNoFeedback","seqFeedback"],"classroomPairings":[["A","B"],["C","D"]],"coinWeights":[0.2,0.5,0.8],"subjectId":"A248QG4DPULP46","assignmentId":"336YQZE83W07CCAJKQXS4KSE7TGM56","hitId":"3YGE63DIN8J20XK20KS1742RQF60WK","url":"https://gershmanlab.com/experiments/alicia/teaching/experiment/?hitId=3YGE63DIN8J20XK20KS1742RQF60WK&workerId=A248QG4DPULP46&assignmentId=336YQZE83W07CCAJKQXS4KSE7TGM56&a=8Q638&tp_a=8Q638&b=336YQZE83W07CCAJKQXS4KSE7TGM56&tp_b=336YQZE83W07CCAJKQXS4KSE7TGM56&c=365198&tp_c=365198","heads":15,"tails":15,"studentIndex":1,"studentTrueHypers":{"a":2,"b":8},"studentGuess":0.425,"delta":0.07500000000000001,"totalExamples":30,"bonus":0.2,"bonusSoFar":0.38},{"rt":29879,"response":{"heads":"5","tails":"15"},"type":"response","condition":"seqNoFeedback","trueTheta":0.2,"classrooms":["C","D"],"studentTrueClassroom":"D","exampleSet":"first","trial_type":"survey-html-form","trial_index":23,"time_elapsed":642357,"internal_node_id":"0.0-22.0-0.0","params":{"nStudents":24,"maxFlips":30,"completionMinutes":45,"basePay":8,"maxBonus":9,"perTrialBonus":0.5,"perTrialBonusThreshold":0.1,"exampleCost":0.01},"classroomParams":{"A":{"a":1,"b":4},"B":{"a":4,"b":1},"C":{"a":2,"b":8},"D":{"a":8,"b":2}},"conditions":["nonSeqFull","nonSeqPartial","seqNoFeedback","seqFeedback"],"classroomPairings":[["A","B"],["C","D"]],"coinWeights":[0.2,0.5,0.8],"subjectId":"A248QG4DPULP46","assignmentId":"336YQZE83W07CCAJKQXS4KSE7TGM56","hitId":"3YGE63DIN8J20XK20KS1742RQF60WK","url":"https://gershmanlab.com/experiments/alicia/teaching/experiment/?hitId=3YGE63DIN8J20XK20KS1742RQF60WK&workerId=A248QG4DPULP46&assignmentId=336YQZE83W07CCAJKQXS4KSE7TGM56&a=8Q638&tp_a=8Q638&b=336YQZE83W07CCAJKQXS4KSE7TGM56&tp_b=336YQZE83W07CCAJKQXS4KSE7TGM56&c=365198&tp_c=365198","heads":5,"tails":15,"studentIndex":2,"studentTrueHypers":{"a":8,"b":2},"studentGuess":0.43333333333333335,"delta":0.23333333333333334,"totalExamples":20,"bonusSoFar":0.38},{"rt":21522,"response":{"heads":"3","tails":"20"},"type":"response","condition":"seqNoFeedback","trueTheta":0.2,"classrooms":["C","D"],"studentTrueClassroom":"D","exampleSet":"second","trial_type":"survey-html-form","trial_index":26,"time_elapsed":671156,"internal_node_id":"0.0-25.0-0.0","params":{"nStudents":24,"maxFlips":30,"completionMinutes":45,"basePay":8,"maxBonus":9,"perTrialBonus":0.5,"perTrialBonusThreshold":0.1,"exampleCost":0.01},"classroomParams":{"A":{"a":1,"b":4},"B":{"a":4,"b":1},"C":{"a":2,"b":8},"D":{"a":8,"b":2}},"conditions":["nonSeqFull","nonSeqPartial","seqNoFeedback","seqFeedback"],"classroomPairings":[["A","B"],["C","D"]],"coinWeights":[0.2,0.5,0.8],"subjectId":"A248QG4DPULP46","assignmentId":"336YQZE83W07CCAJKQXS4KSE7TGM56","hitId":"3YGE63DIN8J20XK20KS1742RQF60WK","url":"https://gershmanlab.com/experiments/alicia/teaching/experiment/?hitId=3YGE63DIN8J20XK20KS1742RQF60WK&workerId=A248QG4DPULP46&assignmentId=336YQZE83W07CCAJKQXS4KSE7TGM56&a=8Q638&tp_a=8Q638&b=336YQZE83W07CCAJKQXS4KSE7TGM56&tp_b=336YQZE83W07CCAJKQXS4KSE7TGM56&c=365198&tp_c=365198","firstResponseHeads":5,"firstResponseTails":15,"secondResponseHeads":3,"secondResponseTails":20,"studentIndex":2,"studentTrueHypers":{"a":8,"b":2},"studentGuess":0.3018867924528302,"delta":0.10188679245283017,"bonus":0,"bonusSoFar":0.38,"totalExamples":43},{"rt":13651,"response":{"heads":"10","tails":"2"},"type":"response","condition":"nonSeqFull","trueTheta":0.8,"classrooms":["A","B"],"studentTrueClassroom":"B","exampleSet":"first","trial_type":"survey-html-form","trial_index":32,"time_elapsed":711467,"internal_node_id":"0.0-31.0-0.0","params":{"nStudents":24,"maxFlips":30,"completionMinutes":45,"basePay":8,"maxBonus":9,"perTrialBonus":0.5,"perTrialBonusThreshold":0.1,"exampleCost":0.01},"classroomParams":{"A":{"a":1,"b":4},"B":{"a":4,"b":1},"C":{"a":2,"b":8},"D":{"a":8,"b":2}},"conditions":["nonSeqFull","nonSeqPartial","seqNoFeedback","seqFeedback"],"classroomPairings":[["A","B"],["C","D"]],"coinWeights":[0.2,0.5,0.8],"subjectId":"A248QG4DPULP46","assignmentId":"336YQZE83W07CCAJKQXS4KSE7TGM56","hitId":"3YGE63DIN8J20XK20KS1742RQF60WK","url":"https://gershmanlab.com/experiments/alicia/teaching/experiment/?hitId=3YGE63DIN8J20XK20KS1742RQF60WK&workerId=A248QG4DPULP46&assignmentId=336YQZE83W07CCAJKQXS4KSE7TGM56&a=8Q638&tp_a=8Q638&b=336YQZE83W07CCAJKQXS4KSE7TGM56&tp_b=336YQZE83W07CCAJKQXS4KSE7TGM56&c=365198&tp_c=365198","heads":10,"tails":2,"studentIndex":3,"studentTrueHypers":{"a":4,"b":1},"studentGuess":0.8235294117647058,"delta":0.0235294117647058,"totalExamples":12,"bonus":0.38,"bonusSoFar":0.76},{"rt":14132,"response":{"heads":"15","tails":"15"},"type":"response","condition":"nonSeqPartial","trueTheta":0.5,"classrooms":["C","D"],"studentTrueClassroom":"D","exampleSet":"first","trial_type":"survey-html-form","trial_index":38,"time_elapsed":744615,"internal_node_id":"0.0-37.0-0.0","params":{"nStudents":24,"maxFlips":30,"completionMinutes":45,"basePay":8,"maxBonus":9,"perTrialBonus":0.5,"perTrialBonusThreshold":0.1,"exampleCost":0.01},"classroomParams":{"A":{"a":1,"b":4},"B":{"a":4,"b":1},"C":{"a":2,"b":8},"D":{"a":8,"b":2}},"conditions":["nonSeqFull","nonSeqPartial","seqNoFeedback","seqFeedback"],"classroomPairings":[["A","B"],["C","D"]],"coinWeights":[0.2,0.5,0.8],"subjectId":"A248QG4DPULP46","assignmentId":"336YQZE83W07CCAJKQXS4KSE7TGM56","hitId":"3YGE63DIN8J20XK20KS1742RQF60WK","url":"https://gershmanlab.com/experiments/alicia/teaching/experiment/?hitId=3YGE63DIN8J20XK20KS1742RQF60WK&workerId=A248QG4DPULP46&assignmentId=336YQZE83W07CCAJKQXS4KSE7TGM56&a=8Q638&tp_a=8Q638&b=336YQZE83W07CCAJKQXS4KSE7TGM56&tp_b=336YQZE83W07CCAJKQXS4KSE7TGM56&c=365198&tp_c=365198","heads":15,"tails":15,"studentIndex":4,"studentTrueHypers":{"a":8,"b":2},"studentGuess":0.575,"delta":0.07499999999999996,"totalExamples":30,"bonus":0.2,"bonusSoFar":0.96},{"rt":15498,"response":{"heads":"15","tails":"2"},"type":"response","condition":"seqFeedback","trueTheta":0.8,"classrooms":["C","D"],"studentTrueClassroom":"D","exampleSet":"first","trial_type":"survey-html-form","trial_index":44,"time_elapsed":775010,"internal_node_id":"0.0-43.0-0.0","params":{"nStudents":24,"maxFlips":30,"completionMinutes":45,"basePay":8,"maxBonus":9,"perTrialBonus":0.5,"perTrialBonusThreshold":0.1,"exampleCost":0.01},"classroomParams":{"A":{"a":1,"b":4},"B":{"a":4,"b":1},"C":{"a":2,"b":8},"D":{"a":8,"b":2}},"conditions":["nonSeqFull","nonSeqPartial","seqNoFeedback","seqFeedback"],"classroomPairings":[["A","B"],["C","D"]],"coinWeights":[0.2,0.5,0.8],"subjectId":"A248QG4DPULP46","assignmentId":"336YQZE83W07CCAJKQXS4KSE7TGM56","hitId":"3YGE63DIN8J20XK20KS1742RQF60WK","url":"https://gershmanlab.com/experiments/alicia/teaching/experiment/?hitId=3YGE63DIN8J20XK20KS1742RQF60WK&workerId=A248QG4DPULP46&assignmentId=336YQZE83W07CCAJKQXS4KSE7TGM56&a=8Q638&tp_a=8Q638&b=336YQZE83W07CCAJKQXS4KSE7TGM56&tp_b=336YQZE83W07CCAJKQXS4KSE7TGM56&c=365198&tp_c=365198","heads":15,"tails":2,"studentIndex":5,"studentTrueHypers":{"a":8,"b":2},"studentGuess":0.8518518518518519,"delta":0.051851851851851816,"totalExamples":17,"bonusSoFar":0.96},{"rt":12969,"response":{"heads":"2","tails":"15"},"type":"response","condition":"seqFeedback","trueTheta":0.8,"classrooms":["C","D"],"studentTrueClassroom":"D","exampleSet":"second","trial_type":"survey-html-form","trial_index":48,"time_elapsed":797724,"internal_node_id":"0.0-47.0-0.0","params":{"nStudents":24,"maxFlips":30,"completionMinutes":45,"basePay":8,"maxBonus":9,"perTrialBonus":0.5,"perTrialBonusThreshold":0.1,"exampleCost":0.01},"classroomParams":{"A":{"a":1,"b":4},"B":{"a":4,"b":1},"C":{"a":2,"b":8},"D":{"a":8,"b":2}},"conditions":["nonSeqFull","nonSeqPartial","seqNoFeedback","seqFeedback"],"classroomPairings":[["A","B"],["C","D"]],"coinWeights":[0.2,0.5,0.8],"subjectId":"A248QG4DPULP46","assignmentId":"336YQZE83W07CCAJKQXS4KSE7TGM56","hitId":"3YGE63DIN8J20XK20KS1742RQF60WK","url":"https://gershmanlab.com/experiments/alicia/teaching/experiment/?hitId=3YGE63DIN8J20XK20KS1742RQF60WK&workerId=A248QG4DPULP46&assignmentId=336YQZE83W07CCAJKQXS4KSE7TGM56&a=8Q638&tp_a=8Q638&b=336YQZE83W07CCAJKQXS4KSE7TGM56&tp_b=336YQZE83W07CCAJKQXS4KSE7TGM56&c=365198&tp_c=365198","firstResponseHeads":15,"firstResponseTails":2,"secondResponseHeads":2,"secondResponseTails":15,"studentIndex":5,"studentTrueHypers":{"a":8,"b":2},"studentGuess":0.5681818181818182,"delta":0.2318181818181818,"bonus":0,"bonusSoFar":0.96,"totalExamples":34},{"rt":11024,"response":{"heads":"2","tails":"15"},"type":"response","condition":"nonSeqPartial","trueTheta":0.2,"classrooms":["C","D"],"studentTrueClassroom":"C","exampleSet":"first","trial_type":"survey-html-form","trial_index":54,"time_elapsed":826250,"internal_node_id":"0.0-53.0-0.0","params":{"nStudents":24,"maxFlips":30,"completionMinutes":45,"basePay":8,"maxBonus":9,"perTrialBonus":0.5,"perTrialBonusThreshold":0.1,"exampleCost":0.01},"classroomParams":{"A":{"a":1,"b":4},"B":{"a":4,"b":1},"C":{"a":2,"b":8},"D":{"a":8,"b":2}},"conditions":["nonSeqFull","nonSeqPartial","seqNoFeedback","seqFeedback"],"classroomPairings":[["A","B"],["C","D"]],"coinWeights":[0.2,0.5,0.8],"subjectId":"A248QG4DPULP46","assignmentId":"336YQZE83W07CCAJKQXS4KSE7TGM56","hitId":"3YGE63DIN8J20XK20KS1742RQF60WK","url":"https://gershmanlab.com/experiments/alicia/teaching/experiment/?hitId=3YGE63DIN8J20XK20KS1742RQF60WK&workerId=A248QG4DPULP46&assignmentId=336YQZE83W07CCAJKQXS4KSE7TGM56&a=8Q638&tp_a=8Q638&b=336YQZE83W07CCAJKQXS4KSE7TGM56&tp_b=336YQZE83W07CCAJKQXS4KSE7TGM56&c=365198&tp_c=365198","heads":2,"tails":15,"studentIndex":6,"studentTrueHypers":{"a":2,"b":8},"studentGuess":0.14814814814814814,"delta":0.05185185185185187,"totalExamples":17,"bonus":0.33,"bonusSoFar":1.29},{"rt":23494,"response":{"heads":"16","tails":"3"},"type":"response","condition":"nonSeqPartial","trueTheta":0.8,"classrooms":["A","B"],"studentTrueClassroom":"A","exampleSet":"first","trial_type":"survey-html-form","trial_index":60,"time_elapsed":872792,"internal_node_id":"0.0-59.0-0.0","params":{"nStudents":24,"maxFlips":30,"completionMinutes":45,"basePay":8,"maxBonus":9,"perTrialBonus":0.5,"perTrialBonusThreshold":0.1,"exampleCost":0.01},"classroomParams":{"A":{"a":1,"b":4},"B":{"a":4,"b":1},"C":{"a":2,"b":8},"D":{"a":8,"b":2}},"conditions":["nonSeqFull","nonSeqPartial","seqNoFeedback","seqFeedback"],"classroomPairings":[["A","B"],["C","D"]],"coinWeights":[0.2,0.5,0.8],"subjectId":"A248QG4DPULP46","assignmentId":"336YQZE83W07CCAJKQXS4KSE7TGM56","hitId":"3YGE63DIN8J20XK20KS1742RQF60WK","url":"https://gershmanlab.com/experiments/alicia/teaching/experiment/?hitId=3YGE63DIN8J20XK20KS1742RQF60WK&workerId=A248QG4DPULP46&assignmentId=336YQZE83W07CCAJKQXS4KSE7TGM56&a=8Q638&tp_a=8Q638&b=336YQZE83W07CCAJKQXS4KSE7TGM56&tp_b=336YQZE83W07CCAJKQXS4KSE7TGM56&c=365198&tp_c=365198","heads":16,"tails":3,"studentIndex":7,"studentTrueHypers":{"a":1,"b":4},"studentGuess":0.7083333333333334,"delta":0.09166666666666667,"totalExamples":19,"bonus":0.31,"bonusSoFar":1.6},{"rt":11443,"response":{"heads":"8","tails":"8"},"type":"response","condition":"seqFeedback","trueTheta":0.5,"classrooms":["A","B"],"studentTrueClassroom":"B","exampleSet":"first","trial_type":"survey-html-form","trial_index":66,"time_elapsed":904530,"internal_node_id":"0.0-65.0-0.0","params":{"nStudents":24,"maxFlips":30,"completionMinutes":45,"basePay":8,"maxBonus":9,"perTrialBonus":0.5,"perTrialBonusThreshold":0.1,"exampleCost":0.01},"classroomParams":{"A":{"a":1,"b":4},"B":{"a":4,"b":1},"C":{"a":2,"b":8},"D":{"a":8,"b":2}},"conditions":["nonSeqFull","nonSeqPartial","seqNoFeedback","seqFeedback"],"classroomPairings":[["A","B"],["C","D"]],"coinWeights":[0.2,0.5,0.8],"subjectId":"A248QG4DPULP46","assignmentId":"336YQZE83W07CCAJKQXS4KSE7TGM56","hitId":"3YGE63DIN8J20XK20KS1742RQF60WK","url":"https://gershmanlab.com/experiments/alicia/teaching/experiment/?hitId=3YGE63DIN8J20XK20KS1742RQF60WK&workerId=A248QG4DPULP46&assignmentId=336YQZE83W07CCAJKQXS4KSE7TGM56&a=8Q638&tp_a=8Q638&b=336YQZE83W07CCAJKQXS4KSE7TGM56&tp_b=336YQZE83W07CCAJKQXS4KSE7TGM56&c=365198&tp_c=365198","heads":8,"tails":8,"studentIndex":8,"studentTrueHypers":{"a":4,"b":1},"studentGuess":0.5714285714285714,"delta":0.0714285714285714,"totalExamples":16,"bonusSoFar":1.6},{"rt":15938,"response":{"heads":"15","tails":"15"},"type":"response","condition":"seqFeedback","trueTheta":0.5,"classrooms":["A","B"],"studentTrueClassroom":"B","exampleSet":"second","trial_type":"survey-html-form","trial_index":70,"time_elapsed":933512,"internal_node_id":"0.0-69.0-0.0","params":{"nStudents":24,"maxFlips":30,"completionMinutes":45,"basePay":8,"maxBonus":9,"perTrialBonus":0.5,"perTrialBonusThreshold":0.1,"exampleCost":0.01},"classroomParams":{"A":{"a":1,"b":4},"B":{"a":4,"b":1},"C":{"a":2,"b":8},"D":{"a":8,"b":2}},"conditions":["nonSeqFull","nonSeqPartial","seqNoFeedback","seqFeedback"],"classroomPairings":[["A","B"],["C","D"]],"coinWeights":[0.2,0.5,0.8],"subjectId":"A248QG4DPULP46","assignmentId":"336YQZE83W07CCAJKQXS4KSE7TGM56","hitId":"3YGE63DIN8J20XK20KS1742RQF60WK","url":"https://gershmanlab.com/experiments/alicia/teaching/experiment/?hitId=3YGE63DIN8J20XK20KS1742RQF60WK&workerId=A248QG4DPULP46&assignmentId=336YQZE83W07CCAJKQXS4KSE7TGM56&a=8Q638&tp_a=8Q638&b=336YQZE83W07CCAJKQXS4KSE7TGM56&tp_b=336YQZE83W07CCAJKQXS4KSE7TGM56&c=365198&tp_c=365198","firstResponseHeads":8,"firstResponseTails":8,"secondResponseHeads":15,"secondResponseTails":15,"studentIndex":8,"studentTrueHypers":{"a":4,"b":1},"studentGuess":0.5294117647058824,"delta":0.02941176470588236,"bonus":0.04,"bonusSoFar":1.64,"totalExamples":46},{"rt":15178,"response":{"heads":"2","tails":"8"},"type":"response","condition":"nonSeqFull","trueTheta":0.5,"classrooms":["A","B"],"studentTrueClassroom":"B","exampleSet":"first","trial_type":"survey-html-form","trial_index":76,"time_elapsed":968072,"internal_node_id":"0.0-75.0-0.0","params":{"nStudents":24,"maxFlips":30,"completionMinutes":45,"basePay":8,"maxBonus":9,"perTrialBonus":0.5,"perTrialBonusThreshold":0.1,"exampleCost":0.01},"classroomParams":{"A":{"a":1,"b":4},"B":{"a":4,"b":1},"C":{"a":2,"b":8},"D":{"a":8,"b":2}},"conditions":["nonSeqFull","nonSeqPartial","seqNoFeedback","seqFeedback"],"classroomPairings":[["A","B"],["C","D"]],"coinWeights":[0.2,0.5,0.8],"subjectId":"A248QG4DPULP46","assignmentId":"336YQZE83W07CCAJKQXS4KSE7TGM56","hitId":"3YGE63DIN8J20XK20KS1742RQF60WK","url":"https://gershmanlab.com/experiments/alicia/teaching/experiment/?hitId=3YGE63DIN8J20XK20KS1742RQF60WK&workerId=A248QG4DPULP46&assignmentId=336YQZE83W07CCAJKQXS4KSE7TGM56&a=8Q638&tp_a=8Q638&b=336YQZE83W07CCAJKQXS4KSE7TGM56&tp_b=336YQZE83W07CCAJKQXS4KSE7TGM56&c=365198&tp_c=365198","heads":2,"tails":8,"studentIndex":9,"studentTrueHypers":{"a":4,"b":1},"studentGuess":0.4,"delta":0.09999999999999998,"totalExamples":10,"bonus":0.4,"bonusSoFar":2.04},{"rt":12005,"response":{"heads":"14","tails":"0"},"type":"response","condition":"seqNoFeedback","trueTheta":0.8,"classrooms":["C","D"],"studentTrueClassroom":"D","exampleSet":"first","trial_type":"survey-html-form","trial_index":82,"time_elapsed":996059,"internal_node_id":"0.0-81.0-0.0","params":{"nStudents":24,"maxFlips":30,"completionMinutes":45,"basePay":8,"maxBonus":9,"perTrialBonus":0.5,"perTrialBonusThreshold":0.1,"exampleCost":0.01},"classroomParams":{"A":{"a":1,"b":4},"B":{"a":4,"b":1},"C":{"a":2,"b":8},"D":{"a":8,"b":2}},"conditions":["nonSeqFull","nonSeqPartial","seqNoFeedback","seqFeedback"],"classroomPairings":[["A","B"],["C","D"]],"coinWeights":[0.2,0.5,0.8],"subjectId":"A248QG4DPULP46","assignmentId":"336YQZE83W07CCAJKQXS4KSE7TGM56","hitId":"3YGE63DIN8J20XK20KS1742RQF60WK","url":"https://gershmanlab.com/experiments/alicia/teaching/experiment/?hitId=3YGE63DIN8J20XK20KS1742RQF60WK&workerId=A248QG4DPULP46&assignmentId=336YQZE83W07CCAJKQXS4KSE7TGM56&a=8Q638&tp_a=8Q638&b=336YQZE83W07CCAJKQXS4KSE7TGM56&tp_b=336YQZE83W07CCAJKQXS4KSE7TGM56&c=365198&tp_c=365198","heads":14,"tails":0,"studentIndex":10,"studentTrueHypers":{"a":8,"b":2},"studentGuess":0.9166666666666666,"delta":0.11666666666666659,"totalExamples":14,"bonusSoFar":2.04},{"rt":20270,"response":{"heads":"16","tails":"4"},"type":"response","condition":"seqNoFeedback","trueTheta":0.8,"classrooms":["C","D"],"studentTrueClassroom":"D","exampleSet":"second","trial_type":"survey-html-form","trial_index":85,"time_elapsed":1023855,"internal_node_id":"0.0-84.0-0.0","params":{"nStudents":24,"maxFlips":30,"completionMinutes":45,"basePay":8,"maxBonus":9,"perTrialBonus":0.5,"perTrialBonusThreshold":0.1,"exampleCost":0.01},"classroomParams":{"A":{"a":1,"b":4},"B":{"a":4,"b":1},"C":{"a":2,"b":8},"D":{"a":8,"b":2}},"conditions":["nonSeqFull","nonSeqPartial","seqNoFeedback","seqFeedback"],"classroomPairings":[["A","B"],["C","D"]],"coinWeights":[0.2,0.5,0.8],"subjectId":"A248QG4DPULP46","assignmentId":"336YQZE83W07CCAJKQXS4KSE7TGM56","hitId":"3YGE63DIN8J20XK20KS1742RQF60WK","url":"https://gershmanlab.com/experiments/alicia/teaching/experiment/?hitId=3YGE63DIN8J20XK20KS1742RQF60WK&workerId=A248QG4DPULP46&assignmentId=336YQZE83W07CCAJKQXS4KSE7TGM56&a=8Q638&tp_a=8Q638&b=336YQZE83W07CCAJKQXS4KSE7TGM56&tp_b=336YQZE83W07CCAJKQXS4KSE7TGM56&c=365198&tp_c=365198","firstResponseHeads":14,"firstResponseTails":0,"secondResponseHeads":16,"secondResponseTails":4,"studentIndex":10,"studentTrueHypers":{"a":8,"b":2},"studentGuess":0.8636363636363636,"delta":0.0636363636363636,"bonus":0.16,"bonusSoFar":2.2,"totalExamples":34},{"rt":10012,"response":{"heads":"2","tails":"10"},"type":"response","condition":"seqFeedback","trueTheta":0.2,"classrooms":["C","D"],"studentTrueClassroom":"D","exampleSet":"first","trial_type":"survey-html-form","trial_index":91,"time_elapsed":1051035,"internal_node_id":"0.0-90.0-0.0","params":{"nStudents":24,"maxFlips":30,"completionMinutes":45,"basePay":8,"maxBonus":9,"perTrialBonus":0.5,"perTrialBonusThreshold":0.1,"exampleCost":0.01},"classroomParams":{"A":{"a":1,"b":4},"B":{"a":4,"b":1},"C":{"a":2,"b":8},"D":{"a":8,"b":2}},"conditions":["nonSeqFull","nonSeqPartial","seqNoFeedback","seqFeedback"],"classroomPairings":[["A","B"],["C","D"]],"coinWeights":[0.2,0.5,0.8],"subjectId":"A248QG4DPULP46","assignmentId":"336YQZE83W07CCAJKQXS4KSE7TGM56","hitId":"3YGE63DIN8J20XK20KS1742RQF60WK","url":"https://gershmanlab.com/experiments/alicia/teaching/experiment/?hitId=3YGE63DIN8J20XK20KS1742RQF60WK&workerId=A248QG4DPULP46&assignmentId=336YQZE83W07CCAJKQXS4KSE7TGM56&a=8Q638&tp_a=8Q638&b=336YQZE83W07CCAJKQXS4KSE7TGM56&tp_b=336YQZE83W07CCAJKQXS4KSE7TGM56&c=365198&tp_c=365198","heads":2,"tails":10,"studentIndex":11,"studentTrueHypers":{"a":8,"b":2},"studentGuess":0.45454545454545453,"delta":0.2545454545454545,"totalExamples":12,"bonusSoFar":2.2},{"rt":12695,"response":{"heads":"10","tails":"10"},"type":"response","condition":"seqFeedback","trueTheta":0.2,"classrooms":["C","D"],"studentTrueClassroom":"D","exampleSet":"second","trial_type":"survey-html-form","trial_index":95,"time_elapsed":1077585,"internal_node_id":"0.0-94.0-0.0","params":{"nStudents":24,"maxFlips":30,"completionMinutes":45,"basePay":8,"maxBonus":9,"perTrialBonus":0.5,"perTrialBonusThreshold":0.1,"exampleCost":0.01},"classroomParams":{"A":{"a":1,"b":4},"B":{"a":4,"b":1},"C":{"a":2,"b":8},"D":{"a":8,"b":2}},"conditions":["nonSeqFull","nonSeqPartial","seqNoFeedback","seqFeedback"],"classroomPairings":[["A","B"],["C","D"]],"coinWeights":[0.2,0.5,0.8],"subjectId":"A248QG4DPULP46","assignmentId":"336YQZE83W07CCAJKQXS4KSE7TGM56","hitId":"3YGE63DIN8J20XK20KS1742RQF60WK","url":"https://gershmanlab.com/experiments/alicia/teaching/experiment/?hitId=3YGE63DIN8J20XK20KS1742RQF60WK&workerId=A248QG4DPULP46&assignmentId=336YQZE83W07CCAJKQXS4KSE7TGM56&a=8Q638&tp_a=8Q638&b=336YQZE83W07CCAJKQXS4KSE7TGM56&tp_b=336YQZE83W07CCAJKQXS4KSE7TGM56&c=365198&tp_c=365198","firstResponseHeads":2,"firstResponseTails":10,"secondResponseHeads":10,"secondResponseTails":10,"studentIndex":11,"studentTrueHypers":{"a":8,"b":2},"studentGuess":0.47619047619047616,"delta":0.27619047619047615,"bonus":0,"bonusSoFar":2.2,"totalExamples":32},{"rt":17305,"response":{"heads":"15","tails":"15"},"type":"response","condition":"seqNoFeedback","trueTheta":0.5,"classrooms":["C","D"],"studentTrueClassroom":"D","exampleSet":"first","trial_type":"survey-html-form","trial_index":101,"time_elapsed":1112021,"internal_node_id":"0.0-100.0-0.0","params":{"nStudents":24,"maxFlips":30,"completionMinutes":45,"basePay":8,"maxBonus":9,"perTrialBonus":0.5,"perTrialBonusThreshold":0.1,"exampleCost":0.01},"classroomParams":{"A":{"a":1,"b":4},"B":{"a":4,"b":1},"C":{"a":2,"b":8},"D":{"a":8,"b":2}},"conditions":["nonSeqFull","nonSeqPartial","seqNoFeedback","seqFeedback"],"classroomPairings":[["A","B"],["C","D"]],"coinWeights":[0.2,0.5,0.8],"subjectId":"A248QG4DPULP46","assignmentId":"336YQZE83W07CCAJKQXS4KSE7TGM56","hitId":"3YGE63DIN8J20XK20KS1742RQF60WK","url":"https://gershmanlab.com/experiments/alicia/teaching/experiment/?hitId=3YGE63DIN8J20XK20KS1742RQF60WK&workerId=A248QG4DPULP46&assignmentId=336YQZE83W07CCAJKQXS4KSE7TGM56&a=8Q638&tp_a=8Q638&b=336YQZE83W07CCAJKQXS4KSE7TGM56&tp_b=336YQZE83W07CCAJKQXS4KSE7TGM56&c=365198&tp_c=365198","heads":15,"tails":15,"studentIndex":12,"studentTrueHypers":{"a":8,"b":2},"studentGuess":0.575,"delta":0.07499999999999996,"totalExamples":30,"bonusSoFar":2.2},{"rt":23313,"response":{"heads":"3","tails":"12"},"type":"response","condition":"seqNoFeedback","trueTheta":0.5,"classrooms":["C","D"],"studentTrueClassroom":"D","exampleSet":"second","trial_type":"survey-html-form","trial_index":104,"time_elapsed":1142357,"internal_node_id":"0.0-103.0-0.0","params":{"nStudents":24,"maxFlips":30,"completionMinutes":45,"basePay":8,"maxBonus":9,"perTrialBonus":0.5,"perTrialBonusThreshold":0.1,"exampleCost":0.01},"classroomParams":{"A":{"a":1,"b":4},"B":{"a":4,"b":1},"C":{"a":2,"b":8},"D":{"a":8,"b":2}},"conditions":["nonSeqFull","nonSeqPartial","seqNoFeedback","seqFeedback"],"classroomPairings":[["A","B"],["C","D"]],"coinWeights":[0.2,0.5,0.8],"subjectId":"A248QG4DPULP46","assignmentId":"336YQZE83W07CCAJKQXS4KSE7TGM56","hitId":"3YGE63DIN8J20XK20KS1742RQF60WK","url":"https://gershmanlab.com/experiments/alicia/teaching/experiment/?hitId=3YGE63DIN8J20XK20KS1742RQF60WK&workerId=A248QG4DPULP46&assignmentId=336YQZE83W07CCAJKQXS4KSE7TGM56&a=8Q638&tp_a=8Q638&b=336YQZE83W07CCAJKQXS4KSE7TGM56&tp_b=336YQZE83W07CCAJKQXS4KSE7TGM56&c=365198&tp_c=365198","firstResponseHeads":15,"firstResponseTails":15,"secondResponseHeads":3,"secondResponseTails":12,"studentIndex":12,"studentTrueHypers":{"a":8,"b":2},"studentGuess":0.4727272727272727,"delta":0.027272727272727282,"bonus":0.05,"bonusSoFar":2.25,"totalExamples":45},{"rt":15849,"response":{"heads":"1","tails":"6"},"type":"response","condition":"seqNoFeedback","trueTheta":0.2,"classrooms":["A","B"],"studentTrueClassroom":"A","exampleSet":"first","trial_type":"survey-html-form","trial_index":110,"time_elapsed":1175012,"internal_node_id":"0.0-109.0-0.0","params":{"nStudents":24,"maxFlips":30,"completionMinutes":45,"basePay":8,"maxBonus":9,"perTrialBonus":0.5,"perTrialBonusThreshold":0.1,"exampleCost":0.01},"classroomParams":{"A":{"a":1,"b":4},"B":{"a":4,"b":1},"C":{"a":2,"b":8},"D":{"a":8,"b":2}},"conditions":["nonSeqFull","nonSeqPartial","seqNoFeedback","seqFeedback"],"classroomPairings":[["A","B"],["C","D"]],"coinWeights":[0.2,0.5,0.8],"subjectId":"A248QG4DPULP46","assignmentId":"336YQZE83W07CCAJKQXS4KSE7TGM56","hitId":"3YGE63DIN8J20XK20KS1742RQF60WK","url":"https://gershmanlab.com/experiments/alicia/teaching/experiment/?hitId=3YGE63DIN8J20XK20KS1742RQF60WK&workerId=A248QG4DPULP46&assignmentId=336YQZE83W07CCAJKQXS4KSE7TGM56&a=8Q638&tp_a=8Q638&b=336YQZE83W07CCAJKQXS4KSE7TGM56&tp_b=336YQZE83W07CCAJKQXS4KSE7TGM56&c=365198&tp_c=365198","heads":1,"tails":6,"studentIndex":13,"studentTrueHypers":{"a":1,"b":4},"studentGuess":0.16666666666666666,"delta":0.033333333333333354,"totalExamples":7,"bonusSoFar":2.25},{"rt":13162,"response":{"heads":"2","tails":"8"},"type":"response","condition":"seqNoFeedback","trueTheta":0.2,"classrooms":["A","B"],"studentTrueClassroom":"A","exampleSet":"second","trial_type":"survey-html-form","trial_index":113,"time_elapsed":1193942,"internal_node_id":"0.0-112.0-0.0","params":{"nStudents":24,"maxFlips":30,"completionMinutes":45,"basePay":8,"maxBonus":9,"perTrialBonus":0.5,"perTrialBonusThreshold":0.1,"exampleCost":0.01},"classroomParams":{"A":{"a":1,"b":4},"B":{"a":4,"b":1},"C":{"a":2,"b":8},"D":{"a":8,"b":2}},"conditions":["nonSeqFull","nonSeqPartial","seqNoFeedback","seqFeedback"],"classroomPairings":[["A","B"],["C","D"]],"coinWeights":[0.2,0.5,0.8],"subjectId":"A248QG4DPULP46","assignmentId":"336YQZE83W07CCAJKQXS4KSE7TGM56","hitId":"3YGE63DIN8J20XK20KS1742RQF60WK","url":"https://gershmanlab.com/experiments/alicia/teaching/experiment/?hitId=3YGE63DIN8J20XK20KS1742RQF60WK&workerId=A248QG4DPULP46&assignmentId=336YQZE83W07CCAJKQXS4KSE7TGM56&a=8Q638&tp_a=8Q638&b=336YQZE83W07CCAJKQXS4KSE7TGM56&tp_b=336YQZE83W07CCAJKQXS4KSE7TGM56&c=365198&tp_c=365198","firstResponseHeads":1,"firstResponseTails":6,"secondResponseHeads":2,"secondResponseTails":8,"studentIndex":13,"studentTrueHypers":{"a":1,"b":4},"studentGuess":0.18181818181818182,"delta":0.018181818181818188,"bonus":0.33,"bonusSoFar":2.58,"totalExamples":17},{"rt":8934,"response":{"heads":"2","tails":"12"},"type":"response","condition":"nonSeqPartial","trueTheta":0.2,"classrooms":["A","B"],"studentTrueClassroom":"A","exampleSet":"first","trial_type":"survey-html-form","trial_index":119,"time_elapsed":1221668,"internal_node_id":"0.0-118.0-0.0","params":{"nStudents":24,"maxFlips":30,"completionMinutes":45,"basePay":8,"maxBonus":9,"perTrialBonus":0.5,"perTrialBonusThreshold":0.1,"exampleCost":0.01},"classroomParams":{"A":{"a":1,"b":4},"B":{"a":4,"b":1},"C":{"a":2,"b":8},"D":{"a":8,"b":2}},"conditions":["nonSeqFull","nonSeqPartial","seqNoFeedback","seqFeedback"],"classroomPairings":[["A","B"],["C","D"]],"coinWeights":[0.2,0.5,0.8],"subjectId":"A248QG4DPULP46","assignmentId":"336YQZE83W07CCAJKQXS4KSE7TGM56","hitId":"3YGE63DIN8J20XK20KS1742RQF60WK","url":"https://gershmanlab.com/experiments/alicia/teaching/experiment/?hitId=3YGE63DIN8J20XK20KS1742RQF60WK&workerId=A248QG4DPULP46&assignmentId=336YQZE83W07CCAJKQXS4KSE7TGM56&a=8Q638&tp_a=8Q638&b=336YQZE83W07CCAJKQXS4KSE7TGM56&tp_b=336YQZE83W07CCAJKQXS4KSE7TGM56&c=365198&tp_c=365198","heads":2,"tails":12,"studentIndex":14,"studentTrueHypers":{"a":1,"b":4},"studentGuess":0.15789473684210525,"delta":0.04210526315789476,"totalExamples":14,"bonus":0.36,"bonusSoFar":2.94},{"rt":18768,"response":{"heads":"2","tails":"15"},"type":"response","condition":"nonSeqFull","trueTheta":0.2,"classrooms":["C","D"],"studentTrueClassroom":"D","exampleSet":"first","trial_type":"survey-html-form","trial_index":125,"time_elapsed":1265065,"internal_node_id":"0.0-124.0-0.0","params":{"nStudents":24,"maxFlips":30,"completionMinutes":45,"basePay":8,"maxBonus":9,"perTrialBonus":0.5,"perTrialBonusThreshold":0.1,"exampleCost":0.01},"classroomParams":{"A":{"a":1,"b":4},"B":{"a":4,"b":1},"C":{"a":2,"b":8},"D":{"a":8,"b":2}},"conditions":["nonSeqFull","nonSeqPartial","seqNoFeedback","seqFeedback"],"classroomPairings":[["A","B"],["C","D"]],"coinWeights":[0.2,0.5,0.8],"subjectId":"A248QG4DPULP46","assignmentId":"336YQZE83W07CCAJKQXS4KSE7TGM56","hitId":"3YGE63DIN8J20XK20KS1742RQF60WK","url":"https://gershmanlab.com/experiments/alicia/teaching/experiment/?hitId=3YGE63DIN8J20XK20KS1742RQF60WK&workerId=A248QG4DPULP46&assignmentId=336YQZE83W07CCAJKQXS4KSE7TGM56&a=8Q638&tp_a=8Q638&b=336YQZE83W07CCAJKQXS4KSE7TGM56&tp_b=336YQZE83W07CCAJKQXS4KSE7TGM56&c=365198&tp_c=365198","heads":2,"tails":15,"studentIndex":15,"studentTrueHypers":{"a":8,"b":2},"studentGuess":0.37037037037037035,"delta":0.17037037037037034,"totalExamples":17,"bonus":0,"bonusSoFar":2.94},{"rt":8361,"response":{"heads":"12","tails":"0"},"type":"response","condition":"nonSeqPartial","trueTheta":0.8,"classrooms":["C","D"],"studentTrueClassroom":"C","exampleSet":"first","trial_type":"survey-html-form","trial_index":131,"time_elapsed":1290292,"internal_node_id":"0.0-130.0-0.0","params":{"nStudents":24,"maxFlips":30,"completionMinutes":45,"basePay":8,"maxBonus":9,"perTrialBonus":0.5,"perTrialBonusThreshold":0.1,"exampleCost":0.01},"classroomParams":{"A":{"a":1,"b":4},"B":{"a":4,"b":1},"C":{"a":2,"b":8},"D":{"a":8,"b":2}},"conditions":["nonSeqFull","nonSeqPartial","seqNoFeedback","seqFeedback"],"classroomPairings":[["A","B"],["C","D"]],"coinWeights":[0.2,0.5,0.8],"subjectId":"A248QG4DPULP46","assignmentId":"336YQZE83W07CCAJKQXS4KSE7TGM56","hitId":"3YGE63DIN8J20XK20KS1742RQF60WK","url":"https://gershmanlab.com/experiments/alicia/teaching/experiment/?hitId=3YGE63DIN8J20XK20KS1742RQF60WK&workerId=A248QG4DPULP46&assignmentId=336YQZE83W07CCAJKQXS4KSE7TGM56&a=8Q638&tp_a=8Q638&b=336YQZE83W07CCAJKQXS4KSE7TGM56&tp_b=336YQZE83W07CCAJKQXS4KSE7TGM56&c=365198&tp_c=365198","heads":12,"tails":0,"studentIndex":16,"studentTrueHypers":{"a":2,"b":8},"studentGuess":0.6363636363636364,"delta":0.1636363636363637,"totalExamples":12,"bonus":0,"bonusSoFar":2.94},{"rt":10534,"response":{"heads":"10","tails":"2"},"type":"response","condition":"nonSeqFull","trueTheta":0.8,"classrooms":["C","D"],"studentTrueClassroom":"D","exampleSet":"first","trial_type":"survey-html-form","trial_index":137,"time_elapsed":1317258,"internal_node_id":"0.0-136.0-0.0","params":{"nStudents":24,"maxFlips":30,"completionMinutes":45,"basePay":8,"maxBonus":9,"perTrialBonus":0.5,"perTrialBonusThreshold":0.1,"exampleCost":0.01},"classroomParams":{"A":{"a":1,"b":4},"B":{"a":4,"b":1},"C":{"a":2,"b":8},"D":{"a":8,"b":2}},"conditions":["nonSeqFull","nonSeqPartial","seqNoFeedback","seqFeedback"],"classroomPairings":[["A","B"],["C","D"]],"coinWeights":[0.2,0.5,0.8],"subjectId":"A248QG4DPULP46","assignmentId":"336YQZE83W07CCAJKQXS4KSE7TGM56","hitId":"3YGE63DIN8J20XK20KS1742RQF60WK","url":"https://gershmanlab.com/experiments/alicia/teaching/experiment/?hitId=3YGE63DIN8J20XK20KS1742RQF60WK&workerId=A248QG4DPULP46&assignmentId=336YQZE83W07CCAJKQXS4KSE7TGM56&a=8Q638&tp_a=8Q638&b=336YQZE83W07CCAJKQXS4KSE7TGM56&tp_b=336YQZE83W07CCAJKQXS4KSE7TGM56&c=365198&tp_c=365198","heads":10,"tails":2,"studentIndex":17,"studentTrueHypers":{"a":8,"b":2},"studentGuess":0.8181818181818182,"delta":0.018181818181818188,"totalExamples":12,"bonus":0.38,"bonusSoFar":3.32},{"rt":9141,"response":{"heads":"4","tails":"4"},"type":"response","condition":"seqNoFeedback","trueTheta":0.5,"classrooms":["A","B"],"studentTrueClassroom":"B","exampleSet":"first","trial_type":"survey-html-form","trial_index":143,"time_elapsed":1340273,"internal_node_id":"0.0-142.0-0.0","params":{"nStudents":24,"maxFlips":30,"completionMinutes":45,"basePay":8,"maxBonus":9,"perTrialBonus":0.5,"perTrialBonusThreshold":0.1,"exampleCost":0.01},"classroomParams":{"A":{"a":1,"b":4},"B":{"a":4,"b":1},"C":{"a":2,"b":8},"D":{"a":8,"b":2}},"conditions":["nonSeqFull","nonSeqPartial","seqNoFeedback","seqFeedback"],"classroomPairings":[["A","B"],["C","D"]],"coinWeights":[0.2,0.5,0.8],"subjectId":"A248QG4DPULP46","assignmentId":"336YQZE83W07CCAJKQXS4KSE7TGM56","hitId":"3YGE63DIN8J20XK20KS1742RQF60WK","url":"https://gershmanlab.com/experiments/alicia/teaching/experiment/?hitId=3YGE63DIN8J20XK20KS1742RQF60WK&workerId=A248QG4DPULP46&assignmentId=336YQZE83W07CCAJKQXS4KSE7TGM56&a=8Q638&tp_a=8Q638&b=336YQZE83W07CCAJKQXS4KSE7TGM56&tp_b=336YQZE83W07CCAJKQXS4KSE7TGM56&c=365198&tp_c=365198","heads":4,"tails":4,"studentIndex":18,"studentTrueHypers":{"a":4,"b":1},"studentGuess":0.6153846153846154,"delta":0.11538461538461542,"totalExamples":8,"bonusSoFar":3.32},{"rt":11556,"response":{"heads":"8","tails":"8"},"type":"response","condition":"seqNoFeedback","trueTheta":0.5,"classrooms":["A","B"],"studentTrueClassroom":"B","exampleSet":"second","trial_type":"survey-html-form","trial_index":146,"time_elapsed":1359356,"internal_node_id":"0.0-145.0-0.0","params":{"nStudents":24,"maxFlips":30,"completionMinutes":45,"basePay":8,"maxBonus":9,"perTrialBonus":0.5,"perTrialBonusThreshold":0.1,"exampleCost":0.01},"classroomParams":{"A":{"a":1,"b":4},"B":{"a":4,"b":1},"C":{"a":2,"b":8},"D":{"a":8,"b":2}},"conditions":["nonSeqFull","nonSeqPartial","seqNoFeedback","seqFeedback"],"classroomPairings":[["A","B"],["C","D"]],"coinWeights":[0.2,0.5,0.8],"subjectId":"A248QG4DPULP46","assignmentId":"336YQZE83W07CCAJKQXS4KSE7TGM56","hitId":"3YGE63DIN8J20XK20KS1742RQF60WK","url":"https://gershmanlab.com/experiments/alicia/teaching/experiment/?hitId=3YGE63DIN8J20XK20KS1742RQF60WK&workerId=A248QG4DPULP46&assignmentId=336YQZE83W07CCAJKQXS4KSE7TGM56&a=8Q638&tp_a=8Q638&b=336YQZE83W07CCAJKQXS4KSE7TGM56&tp_b=336YQZE83W07CCAJKQXS4KSE7TGM56&c=365198&tp_c=365198","firstResponseHeads":4,"firstResponseTails":4,"secondResponseHeads":8,"secondResponseTails":8,"studentIndex":18,"studentTrueHypers":{"a":4,"b":1},"studentGuess":0.5517241379310345,"delta":0.051724137931034475,"bonus":0.26,"bonusSoFar":3.58,"totalExamples":24},{"rt":10732,"response":{"heads":"1","tails":"8"},"type":"response","condition":"nonSeqFull","trueTheta":0.2,"classrooms":["A","B"],"studentTrueClassroom":"A","exampleSet":"first","trial_type":"survey-html-form","trial_index":152,"time_elapsed":1387555,"internal_node_id":"0.0-151.0-0.0","params":{"nStudents":24,"maxFlips":30,"completionMinutes":45,"basePay":8,"maxBonus":9,"perTrialBonus":0.5,"perTrialBonusThreshold":0.1,"exampleCost":0.01},"classroomParams":{"A":{"a":1,"b":4},"B":{"a":4,"b":1},"C":{"a":2,"b":8},"D":{"a":8,"b":2}},"conditions":["nonSeqFull","nonSeqPartial","seqNoFeedback","seqFeedback"],"classroomPairings":[["A","B"],["C","D"]],"coinWeights":[0.2,0.5,0.8],"subjectId":"A248QG4DPULP46","assignmentId":"336YQZE83W07CCAJKQXS4KSE7TGM56","hitId":"3YGE63DIN8J20XK20KS1742RQF60WK","url":"https://gershmanlab.com/experiments/alicia/teaching/experiment/?hitId=3YGE63DIN8J20XK20KS1742RQF60WK&workerId=A248QG4DPULP46&assignmentId=336YQZE83W07CCAJKQXS4KSE7TGM56&a=8Q638&tp_a=8Q638&b=336YQZE83W07CCAJKQXS4KSE7TGM56&tp_b=336YQZE83W07CCAJKQXS4KSE7TGM56&c=365198&tp_c=365198","heads":1,"tails":8,"studentIndex":19,"studentTrueHypers":{"a":1,"b":4},"studentGuess":0.14285714285714285,"delta":0.05714285714285716,"totalExamples":9,"bonus":0.41,"bonusSoFar":3.99},{"rt":9584,"response":{"heads":"10","tails":"1"},"type":"response","condition":"seqNoFeedback","trueTheta":0.8,"classrooms":["A","B"],"studentTrueClassroom":"A","exampleSet":"first","trial_type":"survey-html-form","trial_index":158,"time_elapsed":1412877,"internal_node_id":"0.0-157.0-0.0","params":{"nStudents":24,"maxFlips":30,"completionMinutes":45,"basePay":8,"maxBonus":9,"perTrialBonus":0.5,"perTrialBonusThreshold":0.1,"exampleCost":0.01},"classroomParams":{"A":{"a":1,"b":4},"B":{"a":4,"b":1},"C":{"a":2,"b":8},"D":{"a":8,"b":2}},"conditions":["nonSeqFull","nonSeqPartial","seqNoFeedback","seqFeedback"],"classroomPairings":[["A","B"],["C","D"]],"coinWeights":[0.2,0.5,0.8],"subjectId":"A248QG4DPULP46","assignmentId":"336YQZE83W07CCAJKQXS4KSE7TGM56","hitId":"3YGE63DIN8J20XK20KS1742RQF60WK","url":"https://gershmanlab.com/experiments/alicia/teaching/experiment/?hitId=3YGE63DIN8J20XK20KS1742RQF60WK&workerId=A248QG4DPULP46&assignmentId=336YQZE83W07CCAJKQXS4KSE7TGM56&a=8Q638&tp_a=8Q638&b=336YQZE83W07CCAJKQXS4KSE7TGM56&tp_b=336YQZE83W07CCAJKQXS4KSE7TGM56&c=365198&tp_c=365198","heads":10,"tails":1,"studentIndex":20,"studentTrueHypers":{"a":1,"b":4},"studentGuess":0.6875,"delta":0.11250000000000004,"totalExamples":11,"bonusSoFar":3.99},{"rt":11749,"response":{"heads":"10","tails":"1"},"type":"response","condition":"seqNoFeedback","trueTheta":0.8,"classrooms":["A","B"],"studentTrueClassroom":"A","exampleSet":"second","trial_type":"survey-html-form","trial_index":161,"time_elapsed":1431902,"internal_node_id":"0.0-160.0-0.0","params":{"nStudents":24,"maxFlips":30,"completionMinutes":45,"basePay":8,"maxBonus":9,"perTrialBonus":0.5,"perTrialBonusThreshold":0.1,"exampleCost":0.01},"classroomParams":{"A":{"a":1,"b":4},"B":{"a":4,"b":1},"C":{"a":2,"b":8},"D":{"a":8,"b":2}},"conditions":["nonSeqFull","nonSeqPartial","seqNoFeedback","seqFeedback"],"classroomPairings":[["A","B"],["C","D"]],"coinWeights":[0.2,0.5,0.8],"subjectId":"A248QG4DPULP46","assignmentId":"336YQZE83W07CCAJKQXS4KSE7TGM56","hitId":"3YGE63DIN8J20XK20KS1742RQF60WK","url":"https://gershmanlab.com/experiments/alicia/teaching/experiment/?hitId=3YGE63DIN8J20XK20KS1742RQF60WK&workerId=A248QG4DPULP46&assignmentId=336YQZE83W07CCAJKQXS4KSE7TGM56&a=8Q638&tp_a=8Q638&b=336YQZE83W07CCAJKQXS4KSE7TGM56&tp_b=336YQZE83W07CCAJKQXS4KSE7TGM56&c=365198&tp_c=365198","firstResponseHeads":10,"firstResponseTails":1,"secondResponseHeads":10,"secondResponseTails":1,"studentIndex":20,"studentTrueHypers":{"a":1,"b":4},"studentGuess":0.7777777777777778,"delta":0.022222222222222254,"bonus":0.28,"bonusSoFar":4.27,"totalExamples":22},{"rt":11490,"response":{"heads":"10","tails":"10"},"type":"response","condition":"nonSeqPartial","trueTheta":0.5,"classrooms":["A","B"],"studentTrueClassroom":"A","exampleSet":"first","trial_type":"survey-html-form","trial_index":167,"time_elapsed":1458639,"internal_node_id":"0.0-166.0-0.0","params":{"nStudents":24,"maxFlips":30,"completionMinutes":45,"basePay":8,"maxBonus":9,"perTrialBonus":0.5,"perTrialBonusThreshold":0.1,"exampleCost":0.01},"classroomParams":{"A":{"a":1,"b":4},"B":{"a":4,"b":1},"C":{"a":2,"b":8},"D":{"a":8,"b":2}},"conditions":["nonSeqFull","nonSeqPartial","seqNoFeedback","seqFeedback"],"classroomPairings":[["A","B"],["C","D"]],"coinWeights":[0.2,0.5,0.8],"subjectId":"A248QG4DPULP46","assignmentId":"336YQZE83W07CCAJKQXS4KSE7TGM56","hitId":"3YGE63DIN8J20XK20KS1742RQF60WK","url":"https://gershmanlab.com/experiments/alicia/teaching/experiment/?hitId=3YGE63DIN8J20XK20KS1742RQF60WK&workerId=A248QG4DPULP46&assignmentId=336YQZE83W07CCAJKQXS4KSE7TGM56&a=8Q638&tp_a=8Q638&b=336YQZE83W07CCAJKQXS4KSE7TGM56&tp_b=336YQZE83W07CCAJKQXS4KSE7TGM56&c=365198&tp_c=365198","heads":10,"tails":10,"studentIndex":21,"studentTrueHypers":{"a":1,"b":4},"studentGuess":0.44,"delta":0.06,"totalExamples":20,"bonus":0.3,"bonusSoFar":4.57},{"rt":6917,"response":{"heads":"8","tails":"1"},"type":"response","condition":"seqFeedback","trueTheta":0.8,"classrooms":["A","B"],"studentTrueClassroom":"A","exampleSet":"first","trial_type":"survey-html-form","trial_index":173,"time_elapsed":1478670,"internal_node_id":"0.0-172.0-0.0","params":{"nStudents":24,"maxFlips":30,"completionMinutes":45,"basePay":8,"maxBonus":9,"perTrialBonus":0.5,"perTrialBonusThreshold":0.1,"exampleCost":0.01},"classroomParams":{"A":{"a":1,"b":4},"B":{"a":4,"b":1},"C":{"a":2,"b":8},"D":{"a":8,"b":2}},"conditions":["nonSeqFull","nonSeqPartial","seqNoFeedback","seqFeedback"],"classroomPairings":[["A","B"],["C","D"]],"coinWeights":[0.2,0.5,0.8],"subjectId":"A248QG4DPULP46","assignmentId":"336YQZE83W07CCAJKQXS4KSE7TGM56","hitId":"3YGE63DIN8J20XK20KS1742RQF60WK","url":"https://gershmanlab.com/experiments/alicia/teaching/experiment/?hitId=3YGE63DIN8J20XK20KS1742RQF60WK&workerId=A248QG4DPULP46&assignmentId=336YQZE83W07CCAJKQXS4KSE7TGM56&a=8Q638&tp_a=8Q638&b=336YQZE83W07CCAJKQXS4KSE7TGM56&tp_b=336YQZE83W07CCAJKQXS4KSE7TGM56&c=365198&tp_c=365198","heads":8,"tails":1,"studentIndex":22,"studentTrueHypers":{"a":1,"b":4},"studentGuess":0.6428571428571429,"delta":0.15714285714285714,"totalExamples":9,"bonusSoFar":4.57},{"rt":7713,"response":{"heads":"12","tails":"1"},"type":"response","condition":"seqFeedback","trueTheta":0.8,"classrooms":["A","B"],"studentTrueClassroom":"A","exampleSet":"second","trial_type":"survey-html-form","trial_index":177,"time_elapsed":1496145,"internal_node_id":"0.0-176.0-0.0","params":{"nStudents":24,"maxFlips":30,"completionMinutes":45,"basePay":8,"maxBonus":9,"perTrialBonus":0.5,"perTrialBonusThreshold":0.1,"exampleCost":0.01},"classroomParams":{"A":{"a":1,"b":4},"B":{"a":4,"b":1},"C":{"a":2,"b":8},"D":{"a":8,"b":2}},"conditions":["nonSeqFull","nonSeqPartial","seqNoFeedback","seqFeedback"],"classroomPairings":[["A","B"],["C","D"]],"coinWeights":[0.2,0.5,0.8],"subjectId":"A248QG4DPULP46","assignmentId":"336YQZE83W07CCAJKQXS4KSE7TGM56","hitId":"3YGE63DIN8J20XK20KS1742RQF60WK","url":"https://gershmanlab.com/experiments/alicia/teaching/experiment/?hitId=3YGE63DIN8J20XK20KS1742RQF60WK&workerId=A248QG4DPULP46&assignmentId=336YQZE83W07CCAJKQXS4KSE7TGM56&a=8Q638&tp_a=8Q638&b=336YQZE83W07CCAJKQXS4KSE7TGM56&tp_b=336YQZE83W07CCAJKQXS4KSE7TGM56&c=365198&tp_c=365198","firstResponseHeads":8,"firstResponseTails":1,"secondResponseHeads":12,"secondResponseTails":1,"studentIndex":22,"studentTrueHypers":{"a":1,"b":4},"studentGuess":0.7777777777777778,"delta":0.022222222222222254,"bonus":0.28,"bonusSoFar":4.85,"totalExamples":22},{"rt":11589,"response":{"heads":"2","tails":"14"},"type":"response","condition":"seqFeedback","trueTheta":0.2,"classrooms":["A","B"],"studentTrueClassroom":"A","exampleSet":"first","trial_type":"survey-html-form","trial_index":183,"time_elapsed":1523398,"internal_node_id":"0.0-182.0-0.0","params":{"nStudents":24,"maxFlips":30,"completionMinutes":45,"basePay":8,"maxBonus":9,"perTrialBonus":0.5,"perTrialBonusThreshold":0.1,"exampleCost":0.01},"classroomParams":{"A":{"a":1,"b":4},"B":{"a":4,"b":1},"C":{"a":2,"b":8},"D":{"a":8,"b":2}},"conditions":["nonSeqFull","nonSeqPartial","seqNoFeedback","seqFeedback"],"classroomPairings":[["A","B"],["C","D"]],"coinWeights":[0.2,0.5,0.8],"subjectId":"A248QG4DPULP46","assignmentId":"336YQZE83W07CCAJKQXS4KSE7TGM56","hitId":"3YGE63DIN8J20XK20KS1742RQF60WK","url":"https://gershmanlab.com/experiments/alicia/teaching/experiment/?hitId=3YGE63DIN8J20XK20KS1742RQF60WK&workerId=A248QG4DPULP46&assignmentId=336YQZE83W07CCAJKQXS4KSE7TGM56&a=8Q638&tp_a=8Q638&b=336YQZE83W07CCAJKQXS4KSE7TGM56&tp_b=336YQZE83W07CCAJKQXS4KSE7TGM56&c=365198&tp_c=365198","heads":2,"tails":14,"studentIndex":23,"studentTrueHypers":{"a":1,"b":4},"studentGuess":0.14285714285714285,"delta":0.05714285714285716,"totalExamples":16,"bonusSoFar":4.85},{"rt":17477,"response":{"heads":"2","tails":"10"},"type":"response","condition":"seqFeedback","trueTheta":0.2,"classrooms":["A","B"],"studentTrueClassroom":"A","exampleSet":"second","trial_type":"survey-html-form","trial_index":187,"time_elapsed":1548821,"internal_node_id":"0.0-186.0-0.0","params":{"nStudents":24,"maxFlips":30,"completionMinutes":45,"basePay":8,"maxBonus":9,"perTrialBonus":0.5,"perTrialBonusThreshold":0.1,"exampleCost":0.01},"classroomParams":{"A":{"a":1,"b":4},"B":{"a":4,"b":1},"C":{"a":2,"b":8},"D":{"a":8,"b":2}},"conditions":["nonSeqFull","nonSeqPartial","seqNoFeedback","seqFeedback"],"classroomPairings":[["A","B"],["C","D"]],"coinWeights":[0.2,0.5,0.8],"subjectId":"A248QG4DPULP46","assignmentId":"336YQZE83W07CCAJKQXS4KSE7TGM56","hitId":"3YGE63DIN8J20XK20KS1742RQF60WK","url":"https://gershmanlab.com/experiments/alicia/teaching/experiment/?hitId=3YGE63DIN8J20XK20KS1742RQF60WK&workerId=A248QG4DPULP46&assignmentId=336YQZE83W07CCAJKQXS4KSE7TGM56&a=8Q638&tp_a=8Q638&b=336YQZE83W07CCAJKQXS4KSE7TGM56&tp_b=336YQZE83W07CCAJKQXS4KSE7TGM56&c=365198&tp_c=365198","firstResponseHeads":2,"firstResponseTails":14,"secondResponseHeads":2,"secondResponseTails":10,"studentIndex":23,"studentTrueHypers":{"a":1,"b":4},"studentGuess":0.15151515151515152,"delta":0.04848484848484849,"bonus":0.22,"bonusSoFar":5.07,"totalExamples":28},{"rt":10745,"response":{"gender":"female","age":"66","understood":"yes","comments":""},"type":"response","trial_type":"survey-html-form","trial_index":191,"time_elapsed":1568271,"internal_node_id":"0.0-191.0","params":{"nStudents":24,"maxFlips":30,"completionMinutes":45,"basePay":8,"maxBonus":9,"perTrialBonus":0.5,"perTrialBonusThreshold":0.1,"exampleCost":0.01},"classroomParams":{"A":{"a":1,"b":4},"B":{"a":4,"b":1},"C":{"a":2,"b":8},"D":{"a":8,"b":2}},"conditions":["nonSeqFull","nonSeqPartial","seqNoFeedback","seqFeedback"],"classroomPairings":[["A","B"],["C","D"]],"coinWeights":[0.2,0.5,0.8],"subjectId":"A248QG4DPULP46","assignmentId":"336YQZE83W07CCAJKQXS4KSE7TGM56","hitId":"3YGE63DIN8J20XK20KS1742RQF60WK","url":"https://gershmanlab.com/experiments/alicia/teaching/experiment/?hitId=3YGE63DIN8J20XK20KS1742RQF60WK&workerId=A248QG4DPULP46&assignmentId=336YQZE83W07CCAJKQXS4KSE7TGM56&a=8Q638&tp_a=8Q638&b=336YQZE83W07CCAJKQXS4KSE7TGM56&tp_b=336YQZE83W07CCAJKQXS4KSE7TGM56&c=365198&tp_c=365198","totalBonus":5.07}]