[{"rt":33271,"response":{"heads":"4","tails":"1"},"type":"response","condition":"seqNoFeedback","trueTheta":0.8,"classrooms":["C","D"],"studentTrueClassroom":"C","exampleSet":"first","trial_type":"survey-html-form","trial_index":7,"time_elapsed":740669,"internal_node_id":"0.0-6.0-0.0","params":{"nStudents":24,"maxFlips":30,"completionMinutes":45,"basePay":8,"maxBonus":9,"perTrialBonus":0.5,"perTrialBonusThreshold":0.1,"exampleCost":0.01},"classroomParams":{"A":{"a":1,"b":4},"B":{"a":4,"b":1},"C":{"a":2,"b":8},"D":{"a":8,"b":2}},"conditions":["nonSeqFull","nonSeqPartial","seqNoFeedback","seqFeedback"],"classroomPairings":[["A","B"],["C","D"]],"coinWeights":[0.2,0.5,0.8],"subjectId":"A2615YW1YERQBO","assignmentId":"3NPI0JQDAPRFIHIMD27IO4SNS1DTP0","hitId":"341H3G5YF006USP7B7C868W97H9Z08","url":"https://gershmanlab.com/experiments/alicia/teaching/experiment/?hitId=341H3G5YF006USP7B7C868W97H9Z08&workerId=A2615YW1YERQBO&assignmentId=3NPI0JQDAPRFIHIMD27IO4SNS1DTP0&a=D0PN8&tp_a=D0PN8&b=3NPI0JQDAPRFIHIMD27IO4SNS1DTP0&tp_b=3NPI0JQDAPRFIHIMD27IO4SNS1DTP0&c=365198&tp_c=365198","heads":4,"tails":1,"studentIndex":0,"studentTrueHypers":{"a":2,"b":8},"studentGuess":0.4,"delta":0.4,"totalExamples":5,"bonusSoFar":0},{"rt":25446,"response":{"heads":"4","tails":"1"},"type":"response","condition":"seqNoFeedback","trueTheta":0.8,"classrooms":["C","D"],"studentTrueClassroom":"C","exampleSet":"second","trial_type":"survey-html-form","trial_index":10,"time_elapsed":773389,"internal_node_id":"0.0-9.0-0.0","params":{"nStudents":24,"maxFlips":30,"completionMinutes":45,"basePay":8,"maxBonus":9,"perTrialBonus":0.5,"perTrialBonusThreshold":0.1,"exampleCost":0.01},"classroomParams":{"A":{"a":1,"b":4},"B":{"a":4,"b":1},"C":{"a":2,"b":8},"D":{"a":8,"b":2}},"conditions":["nonSeqFull","nonSeqPartial","seqNoFeedback","seqFeedback"],"classroomPairings":[["A","B"],["C","D"]],"coinWeights":[0.2,0.5,0.8],"subjectId":"A2615YW1YERQBO","assignmentId":"3NPI0JQDAPRFIHIMD27IO4SNS1DTP0","hitId":"341H3G5YF006USP7B7C868W97H9Z08","url":"https://gershmanlab.com/experiments/alicia/teaching/experiment/?hitId=341H3G5YF006USP7B7C868W97H9Z08&workerId=A2615YW1YERQBO&assignmentId=3NPI0JQDAPRFIHIMD27IO4SNS1DTP0&a=D0PN8&tp_a=D0PN8&b=3NPI0JQDAPRFIHIMD27IO4SNS1DTP0&tp_b=3NPI0JQDAPRFIHIMD27IO4SNS1DTP0&c=365198&tp_c=365198","firstResponseHeads":4,"firstResponseTails":1,"secondResponseHeads":4,"secondResponseTails":1,"studentIndex":0,"studentTrueHypers":{"a":2,"b":8},"studentGuess":0.5,"delta":0.30000000000000004,"bonus":0,"bonusSoFar":0,"totalExamples":10},{"rt":13799,"response":{"heads":"2","tails":"2"},"type":"response","condition":"seqFeedback","trueTheta":0.5,"classrooms":["A","B"],"studentTrueClassroom":"A","exampleSet":"first","trial_type":"survey-html-form","trial_index":16,"time_elapsed":821412,"internal_node_id":"0.0-15.0-0.0","params":{"nStudents":24,"maxFlips":30,"completionMinutes":45,"basePay":8,"maxBonus":9,"perTrialBonus":0.5,"perTrialBonusThreshold":0.1,"exampleCost":0.01},"classroomParams":{"A":{"a":1,"b":4},"B":{"a":4,"b":1},"C":{"a":2,"b":8},"D":{"a":8,"b":2}},"conditions":["nonSeqFull","nonSeqPartial","seqNoFeedback","seqFeedback"],"classroomPairings":[["A","B"],["C","D"]],"coinWeights":[0.2,0.5,0.8],"subjectId":"A2615YW1YERQBO","assignmentId":"3NPI0JQDAPRFIHIMD27IO4SNS1DTP0","hitId":"341H3G5YF006USP7B7C868W97H9Z08","url":"https://gershmanlab.com/experiments/alicia/teaching/experiment/?hitId=341H3G5YF006USP7B7C868W97H9Z08&workerId=A2615YW1YERQBO&assignmentId=3NPI0JQDAPRFIHIMD27IO4SNS1DTP0&a=D0PN8&tp_a=D0PN8&b=3NPI0JQDAPRFIHIMD27IO4SNS1DTP0&tp_b=3NPI0JQDAPRFIHIMD27IO4SNS1DTP0&c=365198&tp_c=365198","heads":2,"tails":2,"studentIndex":1,"studentTrueHypers":{"a":1,"b":4},"studentGuess":0.3333333333333333,"delta":0.16666666666666669,"totalExamples":4,"bonusSoFar":0},{"rt":40335,"response":{"heads":"7","tails":"3"},"type":"response","condition":"seqFeedback","trueTheta":0.5,"classrooms":["A","B"],"studentTrueClassroom":"A","exampleSet":"second","trial_type":"survey-html-form","trial_index":20,"time_elapsed":870907,"internal_node_id":"0.0-19.0-0.0","params":{"nStudents":24,"maxFlips":30,"completionMinutes":45,"basePay":8,"maxBonus":9,"perTrialBonus":0.5,"perTrialBonusThreshold":0.1,"exampleCost":0.01},"classroomParams":{"A":{"a":1,"b":4},"B":{"a":4,"b":1},"C":{"a":2,"b":8},"D":{"a":8,"b":2}},"conditions":["nonSeqFull","nonSeqPartial","seqNoFeedback","seqFeedback"],"classroomPairings":[["A","B"],["C","D"]],"coinWeights":[0.2,0.5,0.8],"subjectId":"A2615YW1YERQBO","assignmentId":"3NPI0JQDAPRFIHIMD27IO4SNS1DTP0","hitId":"341H3G5YF006USP7B7C868W97H9Z08","url":"https://gershmanlab.com/experiments/alicia/teaching/experiment/?hitId=341H3G5YF006USP7B7C868W97H9Z08&workerId=A2615YW1YERQBO&assignmentId=3NPI0JQDAPRFIHIMD27IO4SNS1DTP0&a=D0PN8&tp_a=D0PN8&b=3NPI0JQDAPRFIHIMD27IO4SNS1DTP0&tp_b=3NPI0JQDAPRFIHIMD27IO4SNS1DTP0&c=365198&tp_c=365198","firstResponseHeads":2,"firstResponseTails":2,"secondResponseHeads":7,"secondResponseTails":3,"studentIndex":1,"studentTrueHypers":{"a":1,"b":4},"studentGuess":0.5263157894736842,"delta":0.02631578947368418,"bonus":0.36,"bonusSoFar":0.36,"totalExamples":14},{"rt":27247,"response":{"heads":"9","tails":"9"},"type":"response","condition":"nonSeqPartial","trueTheta":0.5,"classrooms":["C","D"],"studentTrueClassroom":"C","exampleSet":"first","trial_type":"survey-html-form","trial_index":26,"time_elapsed":920331,"internal_node_id":"0.0-25.0-0.0","params":{"nStudents":24,"maxFlips":30,"completionMinutes":45,"basePay":8,"maxBonus":9,"perTrialBonus":0.5,"perTrialBonusThreshold":0.1,"exampleCost":0.01},"classroomParams":{"A":{"a":1,"b":4},"B":{"a":4,"b":1},"C":{"a":2,"b":8},"D":{"a":8,"b":2}},"conditions":["nonSeqFull","nonSeqPartial","seqNoFeedback","seqFeedback"],"classroomPairings":[["A","B"],["C","D"]],"coinWeights":[0.2,0.5,0.8],"subjectId":"A2615YW1YERQBO","assignmentId":"3NPI0JQDAPRFIHIMD27IO4SNS1DTP0","hitId":"341H3G5YF006USP7B7C868W97H9Z08","url":"https://gershmanlab.com/experiments/alicia/teaching/experiment/?hitId=341H3G5YF006USP7B7C868W97H9Z08&workerId=A2615YW1YERQBO&assignmentId=3NPI0JQDAPRFIHIMD27IO4SNS1DTP0&a=D0PN8&tp_a=D0PN8&b=3NPI0JQDAPRFIHIMD27IO4SNS1DTP0&tp_b=3NPI0JQDAPRFIHIMD27IO4SNS1DTP0&c=365198&tp_c=365198","heads":9,"tails":9,"studentIndex":2,"studentTrueHypers":{"a":2,"b":8},"studentGuess":0.39285714285714285,"delta":0.10714285714285715,"totalExamples":18,"bonus":0,"bonusSoFar":0.36},{"rt":55671,"response":{"heads":"20","tails":"4"},"type":"response","condition":"seqNoFeedback","trueTheta":0.8,"classrooms":["A","B"],"studentTrueClassroom":"A","exampleSet":"first","trial_type":"survey-html-form","trial_index":32,"time_elapsed":994538,"internal_node_id":"0.0-31.0-0.0","params":{"nStudents":24,"maxFlips":30,"completionMinutes":45,"basePay":8,"maxBonus":9,"perTrialBonus":0.5,"perTrialBonusThreshold":0.1,"exampleCost":0.01},"classroomParams":{"A":{"a":1,"b":4},"B":{"a":4,"b":1},"C":{"a":2,"b":8},"D":{"a":8,"b":2}},"conditions":["nonSeqFull","nonSeqPartial","seqNoFeedback","seqFeedback"],"classroomPairings":[["A","B"],["C","D"]],"coinWeights":[0.2,0.5,0.8],"subjectId":"A2615YW1YERQBO","assignmentId":"3NPI0JQDAPRFIHIMD27IO4SNS1DTP0","hitId":"341H3G5YF006USP7B7C868W97H9Z08","url":"https://gershmanlab.com/experiments/alicia/teaching/experiment/?hitId=341H3G5YF006USP7B7C868W97H9Z08&workerId=A2615YW1YERQBO&assignmentId=3NPI0JQDAPRFIHIMD27IO4SNS1DTP0&a=D0PN8&tp_a=D0PN8&b=3NPI0JQDAPRFIHIMD27IO4SNS1DTP0&tp_b=3NPI0JQDAPRFIHIMD27IO4SNS1DTP0&c=365198&tp_c=365198","heads":20,"tails":4,"studentIndex":3,"studentTrueHypers":{"a":1,"b":4},"studentGuess":0.7241379310344828,"delta":0.07586206896551728,"totalExamples":24,"bonusSoFar":0.36},{"rt":18048,"response":{"heads":"6","tails":"1"},"type":"response","condition":"seqNoFeedback","trueTheta":0.8,"classrooms":["A","B"],"studentTrueClassroom":"A","exampleSet":"second","trial_type":"survey-html-form","trial_index":35,"time_elapsed":1020362,"internal_node_id":"0.0-34.0-0.0","params":{"nStudents":24,"maxFlips":30,"completionMinutes":45,"basePay":8,"maxBonus":9,"perTrialBonus":0.5,"perTrialBonusThreshold":0.1,"exampleCost":0.01},"classroomParams":{"A":{"a":1,"b":4},"B":{"a":4,"b":1},"C":{"a":2,"b":8},"D":{"a":8,"b":2}},"conditions":["nonSeqFull","nonSeqPartial","seqNoFeedback","seqFeedback"],"classroomPairings":[["A","B"],["C","D"]],"coinWeights":[0.2,0.5,0.8],"subjectId":"A2615YW1YERQBO","assignmentId":"3NPI0JQDAPRFIHIMD27IO4SNS1DTP0","hitId":"341H3G5YF006USP7B7C868W97H9Z08","url":"https://gershmanlab.com/experiments/alicia/teaching/experiment/?hitId=341H3G5YF006USP7B7C868W97H9Z08&workerId=A2615YW1YERQBO&assignmentId=3NPI0JQDAPRFIHIMD27IO4SNS1DTP0&a=D0PN8&tp_a=D0PN8&b=3NPI0JQDAPRFIHIMD27IO4SNS1DTP0&tp_b=3NPI0JQDAPRFIHIMD27IO4SNS1DTP0&c=365198&tp_c=365198","firstResponseHeads":20,"firstResponseTails":4,"secondResponseHeads":6,"secondResponseTails":1,"studentIndex":3,"studentTrueHypers":{"a":1,"b":4},"studentGuess":0.75,"delta":0.050000000000000044,"bonus":0.19,"bonusSoFar":0.55,"totalExamples":31},{"rt":20935,"response":{"heads":"11","tails":"11"},"type":"response","condition":"seqNoFeedback","trueTheta":0.5,"classrooms":["A","B"],"studentTrueClassroom":"A","exampleSet":"first","trial_type":"survey-html-form","trial_index":41,"time_elapsed":1064697,"internal_node_id":"0.0-40.0-0.0","params":{"nStudents":24,"maxFlips":30,"completionMinutes":45,"basePay":8,"maxBonus":9,"perTrialBonus":0.5,"perTrialBonusThreshold":0.1,"exampleCost":0.01},"classroomParams":{"A":{"a":1,"b":4},"B":{"a":4,"b":1},"C":{"a":2,"b":8},"D":{"a":8,"b":2}},"conditions":["nonSeqFull","nonSeqPartial","seqNoFeedback","seqFeedback"],"classroomPairings":[["A","B"],["C","D"]],"coinWeights":[0.2,0.5,0.8],"subjectId":"A2615YW1YERQBO","assignmentId":"3NPI0JQDAPRFIHIMD27IO4SNS1DTP0","hitId":"341H3G5YF006USP7B7C868W97H9Z08","url":"https://gershmanlab.com/experiments/alicia/teaching/experiment/?hitId=341H3G5YF006USP7B7C868W97H9Z08&workerId=A2615YW1YERQBO&assignmentId=3NPI0JQDAPRFIHIMD27IO4SNS1DTP0&a=D0PN8&tp_a=D0PN8&b=3NPI0JQDAPRFIHIMD27IO4SNS1DTP0&tp_b=3NPI0JQDAPRFIHIMD27IO4SNS1DTP0&c=365198&tp_c=365198","heads":11,"tails":11,"studentIndex":4,"studentTrueHypers":{"a":1,"b":4},"studentGuess":0.4444444444444444,"delta":0.05555555555555558,"totalExamples":22,"bonusSoFar":0.55},{"rt":5820,"response":{"heads":"2","tails":"2"},"type":"response","condition":"seqNoFeedback","trueTheta":0.5,"classrooms":["A","B"],"studentTrueClassroom":"A","exampleSet":"second","trial_type":"survey-html-form","trial_index":44,"time_elapsed":1076536,"internal_node_id":"0.0-43.0-0.0","params":{"nStudents":24,"maxFlips":30,"completionMinutes":45,"basePay":8,"maxBonus":9,"perTrialBonus":0.5,"perTrialBonusThreshold":0.1,"exampleCost":0.01},"classroomParams":{"A":{"a":1,"b":4},"B":{"a":4,"b":1},"C":{"a":2,"b":8},"D":{"a":8,"b":2}},"conditions":["nonSeqFull","nonSeqPartial","seqNoFeedback","seqFeedback"],"classroomPairings":[["A","B"],["C","D"]],"coinWeights":[0.2,0.5,0.8],"subjectId":"A2615YW1YERQBO","assignmentId":"3NPI0JQDAPRFIHIMD27IO4SNS1DTP0","hitId":"341H3G5YF006USP7B7C868W97H9Z08","url":"https://gershmanlab.com/experiments/alicia/teaching/experiment/?hitId=341H3G5YF006USP7B7C868W97H9Z08&workerId=A2615YW1YERQBO&assignmentId=3NPI0JQDAPRFIHIMD27IO4SNS1DTP0&a=D0PN8&tp_a=D0PN8&b=3NPI0JQDAPRFIHIMD27IO4SNS1DTP0&tp_b=3NPI0JQDAPRFIHIMD27IO4SNS1DTP0&c=365198&tp_c=365198","firstResponseHeads":11,"firstResponseTails":11,"secondResponseHeads":2,"secondResponseTails":2,"studentIndex":4,"studentTrueHypers":{"a":1,"b":4},"studentGuess":0.45161290322580644,"delta":0.04838709677419356,"bonus":0.24,"bonusSoFar":0.79,"totalExamples":26},{"rt":19079,"response":{"heads":"12","tails":"3"},"type":"response","condition":"seqFeedback","trueTheta":0.8,"classrooms":["A","B"],"studentTrueClassroom":"A","exampleSet":"first","trial_type":"survey-html-form","trial_index":50,"time_elapsed":1116712,"internal_node_id":"0.0-49.0-0.0","params":{"nStudents":24,"maxFlips":30,"completionMinutes":45,"basePay":8,"maxBonus":9,"perTrialBonus":0.5,"perTrialBonusThreshold":0.1,"exampleCost":0.01},"classroomParams":{"A":{"a":1,"b":4},"B":{"a":4,"b":1},"C":{"a":2,"b":8},"D":{"a":8,"b":2}},"conditions":["nonSeqFull","nonSeqPartial","seqNoFeedback","seqFeedback"],"classroomPairings":[["A","B"],["C","D"]],"coinWeights":[0.2,0.5,0.8],"subjectId":"A2615YW1YERQBO","assignmentId":"3NPI0JQDAPRFIHIMD27IO4SNS1DTP0","hitId":"341H3G5YF006USP7B7C868W97H9Z08","url":"https://gershmanlab.com/experiments/alicia/teaching/experiment/?hitId=341H3G5YF006USP7B7C868W97H9Z08&workerId=A2615YW1YERQBO&assignmentId=3NPI0JQDAPRFIHIMD27IO4SNS1DTP0&a=D0PN8&tp_a=D0PN8&b=3NPI0JQDAPRFIHIMD27IO4SNS1DTP0&tp_b=3NPI0JQDAPRFIHIMD27IO4SNS1DTP0&c=365198&tp_c=365198","heads":12,"tails":3,"studentIndex":5,"studentTrueHypers":{"a":1,"b":4},"studentGuess":0.65,"delta":0.15000000000000002,"totalExamples":15,"bonusSoFar":0.79},{"rt":41448,"response":{"heads":"10","tails":"1"},"type":"response","condition":"seqFeedback","trueTheta":0.8,"classrooms":["A","B"],"studentTrueClassroom":"A","exampleSet":"second","trial_type":"survey-html-form","trial_index":54,"time_elapsed":1170799,"internal_node_id":"0.0-53.0-0.0","params":{"nStudents":24,"maxFlips":30,"completionMinutes":45,"basePay":8,"maxBonus":9,"perTrialBonus":0.5,"perTrialBonusThreshold":0.1,"exampleCost":0.01},"classroomParams":{"A":{"a":1,"b":4},"B":{"a":4,"b":1},"C":{"a":2,"b":8},"D":{"a":8,"b":2}},"conditions":["nonSeqFull","nonSeqPartial","seqNoFeedback","seqFeedback"],"classroomPairings":[["A","B"],["C","D"]],"coinWeights":[0.2,0.5,0.8],"subjectId":"A2615YW1YERQBO","assignmentId":"3NPI0JQDAPRFIHIMD27IO4SNS1DTP0","hitId":"341H3G5YF006USP7B7C868W97H9Z08","url":"https://gershmanlab.com/experiments/alicia/teaching/experiment/?hitId=341H3G5YF006USP7B7C868W97H9Z08&workerId=A2615YW1YERQBO&assignmentId=3NPI0JQDAPRFIHIMD27IO4SNS1DTP0&a=D0PN8&tp_a=D0PN8&b=3NPI0JQDAPRFIHIMD27IO4SNS1DTP0&tp_b=3NPI0JQDAPRFIHIMD27IO4SNS1DTP0&c=365198&tp_c=365198","firstResponseHeads":12,"firstResponseTails":3,"secondResponseHeads":10,"secondResponseTails":1,"studentIndex":5,"studentTrueHypers":{"a":1,"b":4},"studentGuess":0.7419354838709677,"delta":0.058064516129032295,"bonus":0.24,"bonusSoFar":1.03,"totalExamples":26},{"rt":36055,"response":{"heads":"20","tails":"2"},"type":"response","condition":"nonSeqPartial","trueTheta":0.8,"classrooms":["A","B"],"studentTrueClassroom":"B","exampleSet":"first","trial_type":"survey-html-form","trial_index":60,"time_elapsed":1223262,"internal_node_id":"0.0-59.0-0.0","params":{"nStudents":24,"maxFlips":30,"completionMinutes":45,"basePay":8,"maxBonus":9,"perTrialBonus":0.5,"perTrialBonusThreshold":0.1,"exampleCost":0.01},"classroomParams":{"A":{"a":1,"b":4},"B":{"a":4,"b":1},"C":{"a":2,"b":8},"D":{"a":8,"b":2}},"conditions":["nonSeqFull","nonSeqPartial","seqNoFeedback","seqFeedback"],"classroomPairings":[["A","B"],["C","D"]],"coinWeights":[0.2,0.5,0.8],"subjectId":"A2615YW1YERQBO","assignmentId":"3NPI0JQDAPRFIHIMD27IO4SNS1DTP0","hitId":"341H3G5YF006USP7B7C868W97H9Z08","url":"https://gershmanlab.com/experiments/alicia/teaching/experiment/?hitId=341H3G5YF006USP7B7C868W97H9Z08&workerId=A2615YW1YERQBO&assignmentId=3NPI0JQDAPRFIHIMD27IO4SNS1DTP0&a=D0PN8&tp_a=D0PN8&b=3NPI0JQDAPRFIHIMD27IO4SNS1DTP0&tp_b=3NPI0JQDAPRFIHIMD27IO4SNS1DTP0&c=365198&tp_c=365198","heads":20,"tails":2,"studentIndex":6,"studentTrueHypers":{"a":4,"b":1},"studentGuess":0.8888888888888888,"delta":0.0888888888888888,"totalExamples":22,"bonus":0.28,"bonusSoFar":1.31},{"rt":25631,"response":{"heads":"4","tails":"20"},"type":"response","condition":"seqFeedback","trueTheta":0.2,"classrooms":["C","D"],"studentTrueClassroom":"C","exampleSet":"first","trial_type":"survey-html-form","trial_index":66,"time_elapsed":1266079,"internal_node_id":"0.0-65.0-0.0","params":{"nStudents":24,"maxFlips":30,"completionMinutes":45,"basePay":8,"maxBonus":9,"perTrialBonus":0.5,"perTrialBonusThreshold":0.1,"exampleCost":0.01},"classroomParams":{"A":{"a":1,"b":4},"B":{"a":4,"b":1},"C":{"a":2,"b":8},"D":{"a":8,"b":2}},"conditions":["nonSeqFull","nonSeqPartial","seqNoFeedback","seqFeedback"],"classroomPairings":[["A","B"],["C","D"]],"coinWeights":[0.2,0.5,0.8],"subjectId":"A2615YW1YERQBO","assignmentId":"3NPI0JQDAPRFIHIMD27IO4SNS1DTP0","hitId":"341H3G5YF006USP7B7C868W97H9Z08","url":"https://gershmanlab.com/experiments/alicia/teaching/experiment/?hitId=341H3G5YF006USP7B7C868W97H9Z08&workerId=A2615YW1YERQBO&assignmentId=3NPI0JQDAPRFIHIMD27IO4SNS1DTP0&a=D0PN8&tp_a=D0PN8&b=3NPI0JQDAPRFIHIMD27IO4SNS1DTP0&tp_b=3NPI0JQDAPRFIHIMD27IO4SNS1DTP0&c=365198&tp_c=365198","heads":4,"tails":20,"studentIndex":7,"studentTrueHypers":{"a":2,"b":8},"studentGuess":0.17647058823529413,"delta":0.023529411764705882,"totalExamples":24,"bonusSoFar":1.31},{"rt":17878,"response":{"heads":"0","tails":"1"},"type":"response","condition":"seqFeedback","trueTheta":0.2,"classrooms":["C","D"],"studentTrueClassroom":"C","exampleSet":"second","trial_type":"survey-html-form","trial_index":70,"time_elapsed":1295741,"internal_node_id":"0.0-69.0-0.0","params":{"nStudents":24,"maxFlips":30,"completionMinutes":45,"basePay":8,"maxBonus":9,"perTrialBonus":0.5,"perTrialBonusThreshold":0.1,"exampleCost":0.01},"classroomParams":{"A":{"a":1,"b":4},"B":{"a":4,"b":1},"C":{"a":2,"b":8},"D":{"a":8,"b":2}},"conditions":["nonSeqFull","nonSeqPartial","seqNoFeedback","seqFeedback"],"classroomPairings":[["A","B"],["C","D"]],"coinWeights":[0.2,0.5,0.8],"subjectId":"A2615YW1YERQBO","assignmentId":"3NPI0JQDAPRFIHIMD27IO4SNS1DTP0","hitId":"341H3G5YF006USP7B7C868W97H9Z08","url":"https://gershmanlab.com/experiments/alicia/teaching/experiment/?hitId=341H3G5YF006USP7B7C868W97H9Z08&workerId=A2615YW1YERQBO&assignmentId=3NPI0JQDAPRFIHIMD27IO4SNS1DTP0&a=D0PN8&tp_a=D0PN8&b=3NPI0JQDAPRFIHIMD27IO4SNS1DTP0&tp_b=3NPI0JQDAPRFIHIMD27IO4SNS1DTP0&c=365198&tp_c=365198","firstResponseHeads":4,"firstResponseTails":20,"secondResponseHeads":0,"secondResponseTails":1,"studentIndex":7,"studentTrueHypers":{"a":2,"b":8},"studentGuess":0.17142857142857143,"delta":0.02857142857142858,"bonus":0.25,"bonusSoFar":1.56,"totalExamples":25},{"rt":21423,"response":{"heads":"2","tails":"8"},"type":"response","condition":"nonSeqFull","trueTheta":0.5,"classrooms":["C","D"],"studentTrueClassroom":"D","exampleSet":"first","trial_type":"survey-html-form","trial_index":76,"time_elapsed":1338501,"internal_node_id":"0.0-75.0-0.0","params":{"nStudents":24,"maxFlips":30,"completionMinutes":45,"basePay":8,"maxBonus":9,"perTrialBonus":0.5,"perTrialBonusThreshold":0.1,"exampleCost":0.01},"classroomParams":{"A":{"a":1,"b":4},"B":{"a":4,"b":1},"C":{"a":2,"b":8},"D":{"a":8,"b":2}},"conditions":["nonSeqFull","nonSeqPartial","seqNoFeedback","seqFeedback"],"classroomPairings":[["A","B"],["C","D"]],"coinWeights":[0.2,0.5,0.8],"subjectId":"A2615YW1YERQBO","assignmentId":"3NPI0JQDAPRFIHIMD27IO4SNS1DTP0","hitId":"341H3G5YF006USP7B7C868W97H9Z08","url":"https://gershmanlab.com/experiments/alicia/teaching/experiment/?hitId=341H3G5YF006USP7B7C868W97H9Z08&workerId=A2615YW1YERQBO&assignmentId=3NPI0JQDAPRFIHIMD27IO4SNS1DTP0&a=D0PN8&tp_a=D0PN8&b=3NPI0JQDAPRFIHIMD27IO4SNS1DTP0&tp_b=3NPI0JQDAPRFIHIMD27IO4SNS1DTP0&c=365198&tp_c=365198","heads":2,"tails":8,"studentIndex":8,"studentTrueHypers":{"a":8,"b":2},"studentGuess":0.5,"delta":0,"totalExamples":10,"bonus":0.4,"bonusSoFar":1.96},{"rt":39112,"response":{"heads":"1","tails":"11"},"type":"response","condition":"seqFeedback","trueTheta":0.2,"classrooms":["A","B"],"studentTrueClassroom":"B","exampleSet":"first","trial_type":"survey-html-form","trial_index":82,"time_elapsed":1400153,"internal_node_id":"0.0-81.0-0.0","params":{"nStudents":24,"maxFlips":30,"completionMinutes":45,"basePay":8,"maxBonus":9,"perTrialBonus":0.5,"perTrialBonusThreshold":0.1,"exampleCost":0.01},"classroomParams":{"A":{"a":1,"b":4},"B":{"a":4,"b":1},"C":{"a":2,"b":8},"D":{"a":8,"b":2}},"conditions":["nonSeqFull","nonSeqPartial","seqNoFeedback","seqFeedback"],"classroomPairings":[["A","B"],["C","D"]],"coinWeights":[0.2,0.5,0.8],"subjectId":"A2615YW1YERQBO","assignmentId":"3NPI0JQDAPRFIHIMD27IO4SNS1DTP0","hitId":"341H3G5YF006USP7B7C868W97H9Z08","url":"https://gershmanlab.com/experiments/alicia/teaching/experiment/?hitId=341H3G5YF006USP7B7C868W97H9Z08&workerId=A2615YW1YERQBO&assignmentId=3NPI0JQDAPRFIHIMD27IO4SNS1DTP0&a=D0PN8&tp_a=D0PN8&b=3NPI0JQDAPRFIHIMD27IO4SNS1DTP0&tp_b=3NPI0JQDAPRFIHIMD27IO4SNS1DTP0&c=365198&tp_c=365198","heads":1,"tails":11,"studentIndex":9,"studentTrueHypers":{"a":4,"b":1},"studentGuess":0.29411764705882354,"delta":0.09411764705882353,"totalExamples":12,"bonusSoFar":1.96},{"rt":7262,"response":{"heads":"0","tails":"1"},"type":"response","condition":"seqFeedback","trueTheta":0.2,"classrooms":["A","B"],"studentTrueClassroom":"B","exampleSet":"second","trial_type":"survey-html-form","trial_index":86,"time_elapsed":1418421,"internal_node_id":"0.0-85.0-0.0","params":{"nStudents":24,"maxFlips":30,"completionMinutes":45,"basePay":8,"maxBonus":9,"perTrialBonus":0.5,"perTrialBonusThreshold":0.1,"exampleCost":0.01},"classroomParams":{"A":{"a":1,"b":4},"B":{"a":4,"b":1},"C":{"a":2,"b":8},"D":{"a":8,"b":2}},"conditions":["nonSeqFull","nonSeqPartial","seqNoFeedback","seqFeedback"],"classroomPairings":[["A","B"],["C","D"]],"coinWeights":[0.2,0.5,0.8],"subjectId":"A2615YW1YERQBO","assignmentId":"3NPI0JQDAPRFIHIMD27IO4SNS1DTP0","hitId":"341H3G5YF006USP7B7C868W97H9Z08","url":"https://gershmanlab.com/experiments/alicia/teaching/experiment/?hitId=341H3G5YF006USP7B7C868W97H9Z08&workerId=A2615YW1YERQBO&assignmentId=3NPI0JQDAPRFIHIMD27IO4SNS1DTP0&a=D0PN8&tp_a=D0PN8&b=3NPI0JQDAPRFIHIMD27IO4SNS1DTP0&tp_b=3NPI0JQDAPRFIHIMD27IO4SNS1DTP0&c=365198&tp_c=365198","firstResponseHeads":1,"firstResponseTails":11,"secondResponseHeads":0,"secondResponseTails":1,"studentIndex":9,"studentTrueHypers":{"a":4,"b":1},"studentGuess":0.2777777777777778,"delta":0.07777777777777778,"bonus":0.37,"bonusSoFar":2.33,"totalExamples":13},{"rt":22839,"response":{"heads":"14","tails":"14"},"type":"response","condition":"seqFeedback","trueTheta":0.5,"classrooms":["C","D"],"studentTrueClassroom":"C","exampleSet":"first","trial_type":"survey-html-form","trial_index":92,"time_elapsed":1465925,"internal_node_id":"0.0-91.0-0.0","params":{"nStudents":24,"maxFlips":30,"completionMinutes":45,"basePay":8,"maxBonus":9,"perTrialBonus":0.5,"perTrialBonusThreshold":0.1,"exampleCost":0.01},"classroomParams":{"A":{"a":1,"b":4},"B":{"a":4,"b":1},"C":{"a":2,"b":8},"D":{"a":8,"b":2}},"conditions":["nonSeqFull","nonSeqPartial","seqNoFeedback","seqFeedback"],"classroomPairings":[["A","B"],["C","D"]],"coinWeights":[0.2,0.5,0.8],"subjectId":"A2615YW1YERQBO","assignmentId":"3NPI0JQDAPRFIHIMD27IO4SNS1DTP0","hitId":"341H3G5YF006USP7B7C868W97H9Z08","url":"https://gershmanlab.com/experiments/alicia/teaching/experiment/?hitId=341H3G5YF006USP7B7C868W97H9Z08&workerId=A2615YW1YERQBO&assignmentId=3NPI0JQDAPRFIHIMD27IO4SNS1DTP0&a=D0PN8&tp_a=D0PN8&b=3NPI0JQDAPRFIHIMD27IO4SNS1DTP0&tp_b=3NPI0JQDAPRFIHIMD27IO4SNS1DTP0&c=365198&tp_c=365198","heads":14,"tails":14,"studentIndex":10,"studentTrueHypers":{"a":2,"b":8},"studentGuess":0.42105263157894735,"delta":0.07894736842105265,"totalExamples":28,"bonusSoFar":2.33},{"rt":7624,"response":{"heads":"1","tails":"0"},"type":"response","condition":"seqFeedback","trueTheta":0.5,"classrooms":["C","D"],"studentTrueClassroom":"C","exampleSet":"second","trial_type":"survey-html-form","trial_index":96,"time_elapsed":1482876,"internal_node_id":"0.0-95.0-0.0","params":{"nStudents":24,"maxFlips":30,"completionMinutes":45,"basePay":8,"maxBonus":9,"perTrialBonus":0.5,"perTrialBonusThreshold":0.1,"exampleCost":0.01},"classroomParams":{"A":{"a":1,"b":4},"B":{"a":4,"b":1},"C":{"a":2,"b":8},"D":{"a":8,"b":2}},"conditions":["nonSeqFull","nonSeqPartial","seqNoFeedback","seqFeedback"],"classroomPairings":[["A","B"],["C","D"]],"coinWeights":[0.2,0.5,0.8],"subjectId":"A2615YW1YERQBO","assignmentId":"3NPI0JQDAPRFIHIMD27IO4SNS1DTP0","hitId":"341H3G5YF006USP7B7C868W97H9Z08","url":"https://gershmanlab.com/experiments/alicia/teaching/experiment/?hitId=341H3G5YF006USP7B7C868W97H9Z08&workerId=A2615YW1YERQBO&assignmentId=3NPI0JQDAPRFIHIMD27IO4SNS1DTP0&a=D0PN8&tp_a=D0PN8&b=3NPI0JQDAPRFIHIMD27IO4SNS1DTP0&tp_b=3NPI0JQDAPRFIHIMD27IO4SNS1DTP0&c=365198&tp_c=365198","firstResponseHeads":14,"firstResponseTails":14,"secondResponseHeads":1,"secondResponseTails":0,"studentIndex":10,"studentTrueHypers":{"a":2,"b":8},"studentGuess":0.4358974358974359,"delta":0.0641025641025641,"bonus":0.21,"bonusSoFar":2.54,"totalExamples":29},{"rt":26711,"response":{"heads":"9","tails":"9"},"type":"response","condition":"nonSeqPartial","trueTheta":0.5,"classrooms":["A","B"],"studentTrueClassroom":"B","exampleSet":"first","trial_type":"survey-html-form","trial_index":102,"time_elapsed":1523188,"internal_node_id":"0.0-101.0-0.0","params":{"nStudents":24,"maxFlips":30,"completionMinutes":45,"basePay":8,"maxBonus":9,"perTrialBonus":0.5,"perTrialBonusThreshold":0.1,"exampleCost":0.01},"classroomParams":{"A":{"a":1,"b":4},"B":{"a":4,"b":1},"C":{"a":2,"b":8},"D":{"a":8,"b":2}},"conditions":["nonSeqFull","nonSeqPartial","seqNoFeedback","seqFeedback"],"classroomPairings":[["A","B"],["C","D"]],"coinWeights":[0.2,0.5,0.8],"subjectId":"A2615YW1YERQBO","assignmentId":"3NPI0JQDAPRFIHIMD27IO4SNS1DTP0","hitId":"341H3G5YF006USP7B7C868W97H9Z08","url":"https://gershmanlab.com/experiments/alicia/teaching/experiment/?hitId=341H3G5YF006USP7B7C868W97H9Z08&workerId=A2615YW1YERQBO&assignmentId=3NPI0JQDAPRFIHIMD27IO4SNS1DTP0&a=D0PN8&tp_a=D0PN8&b=3NPI0JQDAPRFIHIMD27IO4SNS1DTP0&tp_b=3NPI0JQDAPRFIHIMD27IO4SNS1DTP0&c=365198&tp_c=365198","heads":9,"tails":9,"studentIndex":11,"studentTrueHypers":{"a":4,"b":1},"studentGuess":0.5652173913043478,"delta":0.06521739130434778,"totalExamples":18,"bonus":0.32,"bonusSoFar":2.86},{"rt":38711,"response":{"heads":"0","tails":"14"},"type":"response","condition":"nonSeqFull","trueTheta":0.2,"classrooms":["A","B"],"studentTrueClassroom":"B","exampleSet":"first","trial_type":"survey-html-form","trial_index":108,"time_elapsed":1577972,"internal_node_id":"0.0-107.0-0.0","params":{"nStudents":24,"maxFlips":30,"completionMinutes":45,"basePay":8,"maxBonus":9,"perTrialBonus":0.5,"perTrialBonusThreshold":0.1,"exampleCost":0.01},"classroomParams":{"A":{"a":1,"b":4},"B":{"a":4,"b":1},"C":{"a":2,"b":8},"D":{"a":8,"b":2}},"conditions":["nonSeqFull","nonSeqPartial","seqNoFeedback","seqFeedback"],"classroomPairings":[["A","B"],["C","D"]],"coinWeights":[0.2,0.5,0.8],"subjectId":"A2615YW1YERQBO","assignmentId":"3NPI0JQDAPRFIHIMD27IO4SNS1DTP0","hitId":"341H3G5YF006USP7B7C868W97H9Z08","url":"https://gershmanlab.com/experiments/alicia/teaching/experiment/?hitId=341H3G5YF006USP7B7C868W97H9Z08&workerId=A2615YW1YERQBO&assignmentId=3NPI0JQDAPRFIHIMD27IO4SNS1DTP0&a=D0PN8&tp_a=D0PN8&b=3NPI0JQDAPRFIHIMD27IO4SNS1DTP0&tp_b=3NPI0JQDAPRFIHIMD27IO4SNS1DTP0&c=365198&tp_c=365198","heads":0,"tails":14,"studentIndex":12,"studentTrueHypers":{"a":4,"b":1},"studentGuess":0.21052631578947367,"delta":0.010526315789473661,"totalExamples":14,"bonus":0.36,"bonusSoFar":3.22},{"rt":8783,"response":{"heads":"0","tails":"0"},"type":"response","condition":"nonSeqFull","trueTheta":0.8,"classrooms":["C","D"],"studentTrueClassroom":"D","exampleSet":"first","trial_type":"survey-html-form","trial_index":114,"time_elapsed":1601347,"internal_node_id":"0.0-113.0-0.0","params":{"nStudents":24,"maxFlips":30,"completionMinutes":45,"basePay":8,"maxBonus":9,"perTrialBonus":0.5,"perTrialBonusThreshold":0.1,"exampleCost":0.01},"classroomParams":{"A":{"a":1,"b":4},"B":{"a":4,"b":1},"C":{"a":2,"b":8},"D":{"a":8,"b":2}},"conditions":["nonSeqFull","nonSeqPartial","seqNoFeedback","seqFeedback"],"classroomPairings":[["A","B"],["C","D"]],"coinWeights":[0.2,0.5,0.8],"subjectId":"A2615YW1YERQBO","assignmentId":"3NPI0JQDAPRFIHIMD27IO4SNS1DTP0","hitId":"341H3G5YF006USP7B7C868W97H9Z08","url":"https://gershmanlab.com/experiments/alicia/teaching/experiment/?hitId=341H3G5YF006USP7B7C868W97H9Z08&workerId=A2615YW1YERQBO&assignmentId=3NPI0JQDAPRFIHIMD27IO4SNS1DTP0&a=D0PN8&tp_a=D0PN8&b=3NPI0JQDAPRFIHIMD27IO4SNS1DTP0&tp_b=3NPI0JQDAPRFIHIMD27IO4SNS1DTP0&c=365198&tp_c=365198","heads":0,"tails":0,"studentIndex":13,"studentTrueHypers":{"a":8,"b":2},"studentGuess":0.8,"delta":0,"totalExamples":0,"bonus":0.5,"bonusSoFar":3.72},{"rt":13054,"response":{"heads":"0","tails":"0"},"type":"response","condition":"nonSeqFull","trueTheta":0.8,"classrooms":["C","D"],"studentTrueClassroom":"D","exampleSet":"first","trial_type":"survey-html-form","trial_index":115,"time_elapsed":1614403,"internal_node_id":"0.0-113.1-0.1","params":{"nStudents":24,"maxFlips":30,"completionMinutes":45,"basePay":8,"maxBonus":9,"perTrialBonus":0.5,"perTrialBonusThreshold":0.1,"exampleCost":0.01},"classroomParams":{"A":{"a":1,"b":4},"B":{"a":4,"b":1},"C":{"a":2,"b":8},"D":{"a":8,"b":2}},"conditions":["nonSeqFull","nonSeqPartial","seqNoFeedback","seqFeedback"],"classroomPairings":[["A","B"],["C","D"]],"coinWeights":[0.2,0.5,0.8],"subjectId":"A2615YW1YERQBO","assignmentId":"3NPI0JQDAPRFIHIMD27IO4SNS1DTP0","hitId":"341H3G5YF006USP7B7C868W97H9Z08","url":"https://gershmanlab.com/experiments/alicia/teaching/experiment/?hitId=341H3G5YF006USP7B7C868W97H9Z08&workerId=A2615YW1YERQBO&assignmentId=3NPI0JQDAPRFIHIMD27IO4SNS1DTP0&a=D0PN8&tp_a=D0PN8&b=3NPI0JQDAPRFIHIMD27IO4SNS1DTP0&tp_b=3NPI0JQDAPRFIHIMD27IO4SNS1DTP0&c=365198&tp_c=365198","heads":0,"tails":0,"studentIndex":13,"studentTrueHypers":{"a":8,"b":2},"studentGuess":0.8,"delta":0,"totalExamples":0,"bonus":0.5,"bonusSoFar":4.22},{"rt":14767,"response":{"heads":"2","tails":"1"},"type":"response","condition":"nonSeqFull","trueTheta":0.8,"classrooms":["C","D"],"studentTrueClassroom":"D","exampleSet":"first","trial_type":"survey-html-form","trial_index":116,"time_elapsed":1629172,"internal_node_id":"0.0-113.2-0.2","params":{"nStudents":24,"maxFlips":30,"completionMinutes":45,"basePay":8,"maxBonus":9,"perTrialBonus":0.5,"perTrialBonusThreshold":0.1,"exampleCost":0.01},"classroomParams":{"A":{"a":1,"b":4},"B":{"a":4,"b":1},"C":{"a":2,"b":8},"D":{"a":8,"b":2}},"conditions":["nonSeqFull","nonSeqPartial","seqNoFeedback","seqFeedback"],"classroomPairings":[["A","B"],["C","D"]],"coinWeights":[0.2,0.5,0.8],"subjectId":"A2615YW1YERQBO","assignmentId":"3NPI0JQDAPRFIHIMD27IO4SNS1DTP0","hitId":"341H3G5YF006USP7B7C868W97H9Z08","url":"https://gershmanlab.com/experiments/alicia/teaching/experiment/?hitId=341H3G5YF006USP7B7C868W97H9Z08&workerId=A2615YW1YERQBO&assignmentId=3NPI0JQDAPRFIHIMD27IO4SNS1DTP0&a=D0PN8&tp_a=D0PN8&b=3NPI0JQDAPRFIHIMD27IO4SNS1DTP0&tp_b=3NPI0JQDAPRFIHIMD27IO4SNS1DTP0&c=365198&tp_c=365198","heads":2,"tails":1,"studentIndex":13,"studentTrueHypers":{"a":8,"b":2},"studentGuess":0.7692307692307693,"delta":0.03076923076923077,"totalExamples":3,"bonus":0.47,"bonusSoFar":4.69},{"rt":19655,"response":{"heads":"12","tails":"12"},"type":"response","condition":"seqNoFeedback","trueTheta":0.5,"classrooms":["C","D"],"studentTrueClassroom":"C","exampleSet":"first","trial_type":"survey-html-form","trial_index":122,"time_elapsed":1664515,"internal_node_id":"0.0-119.0-0.0","params":{"nStudents":24,"maxFlips":30,"completionMinutes":45,"basePay":8,"maxBonus":9,"perTrialBonus":0.5,"perTrialBonusThreshold":0.1,"exampleCost":0.01},"classroomParams":{"A":{"a":1,"b":4},"B":{"a":4,"b":1},"C":{"a":2,"b":8},"D":{"a":8,"b":2}},"conditions":["nonSeqFull","nonSeqPartial","seqNoFeedback","seqFeedback"],"classroomPairings":[["A","B"],["C","D"]],"coinWeights":[0.2,0.5,0.8],"subjectId":"A2615YW1YERQBO","assignmentId":"3NPI0JQDAPRFIHIMD27IO4SNS1DTP0","hitId":"341H3G5YF006USP7B7C868W97H9Z08","url":"https://gershmanlab.com/experiments/alicia/teaching/experiment/?hitId=341H3G5YF006USP7B7C868W97H9Z08&workerId=A2615YW1YERQBO&assignmentId=3NPI0JQDAPRFIHIMD27IO4SNS1DTP0&a=D0PN8&tp_a=D0PN8&b=3NPI0JQDAPRFIHIMD27IO4SNS1DTP0&tp_b=3NPI0JQDAPRFIHIMD27IO4SNS1DTP0&c=365198&tp_c=365198","heads":12,"tails":12,"studentIndex":14,"studentTrueHypers":{"a":2,"b":8},"studentGuess":0.4117647058823529,"delta":0.08823529411764708,"totalExamples":24,"bonusSoFar":4.69},{"rt":19188,"response":{"heads":"7","tails":"7"},"type":"response","condition":"seqNoFeedback","trueTheta":0.5,"classrooms":["C","D"],"studentTrueClassroom":"C","exampleSet":"second","trial_type":"survey-html-form","trial_index":125,"time_elapsed":1690235,"internal_node_id":"0.0-122.0-0.0","params":{"nStudents":24,"maxFlips":30,"completionMinutes":45,"basePay":8,"maxBonus":9,"perTrialBonus":0.5,"perTrialBonusThreshold":0.1,"exampleCost":0.01},"classroomParams":{"A":{"a":1,"b":4},"B":{"a":4,"b":1},"C":{"a":2,"b":8},"D":{"a":8,"b":2}},"conditions":["nonSeqFull","nonSeqPartial","seqNoFeedback","seqFeedback"],"classroomPairings":[["A","B"],["C","D"]],"coinWeights":[0.2,0.5,0.8],"subjectId":"A2615YW1YERQBO","assignmentId":"3NPI0JQDAPRFIHIMD27IO4SNS1DTP0","hitId":"341H3G5YF006USP7B7C868W97H9Z08","url":"https://gershmanlab.com/experiments/alicia/teaching/experiment/?hitId=341H3G5YF006USP7B7C868W97H9Z08&workerId=A2615YW1YERQBO&assignmentId=3NPI0JQDAPRFIHIMD27IO4SNS1DTP0&a=D0PN8&tp_a=D0PN8&b=3NPI0JQDAPRFIHIMD27IO4SNS1DTP0&tp_b=3NPI0JQDAPRFIHIMD27IO4SNS1DTP0&c=365198&tp_c=365198","firstResponseHeads":12,"firstResponseTails":12,"secondResponseHeads":7,"secondResponseTails":7,"studentIndex":14,"studentTrueHypers":{"a":2,"b":8},"studentGuess":0.4375,"delta":0.0625,"bonus":0.12,"bonusSoFar":4.81,"totalExamples":38},{"rt":16975,"response":{"heads":"1","tails":"11"},"type":"response","condition":"seqNoFeedback","trueTheta":0.2,"classrooms":["A","B"],"studentTrueClassroom":"B","exampleSet":"first","trial_type":"survey-html-form","trial_index":131,"time_elapsed":1726179,"internal_node_id":"0.0-128.0-0.0","params":{"nStudents":24,"maxFlips":30,"completionMinutes":45,"basePay":8,"maxBonus":9,"perTrialBonus":0.5,"perTrialBonusThreshold":0.1,"exampleCost":0.01},"classroomParams":{"A":{"a":1,"b":4},"B":{"a":4,"b":1},"C":{"a":2,"b":8},"D":{"a":8,"b":2}},"conditions":["nonSeqFull","nonSeqPartial","seqNoFeedback","seqFeedback"],"classroomPairings":[["A","B"],["C","D"]],"coinWeights":[0.2,0.5,0.8],"subjectId":"A2615YW1YERQBO","assignmentId":"3NPI0JQDAPRFIHIMD27IO4SNS1DTP0","hitId":"341H3G5YF006USP7B7C868W97H9Z08","url":"https://gershmanlab.com/experiments/alicia/teaching/experiment/?hitId=341H3G5YF006USP7B7C868W97H9Z08&workerId=A2615YW1YERQBO&assignmentId=3NPI0JQDAPRFIHIMD27IO4SNS1DTP0&a=D0PN8&tp_a=D0PN8&b=3NPI0JQDAPRFIHIMD27IO4SNS1DTP0&tp_b=3NPI0JQDAPRFIHIMD27IO4SNS1DTP0&c=365198&tp_c=365198","heads":1,"tails":11,"studentIndex":15,"studentTrueHypers":{"a":4,"b":1},"studentGuess":0.29411764705882354,"delta":0.09411764705882353,"totalExamples":12,"bonusSoFar":4.81},{"rt":13752,"response":{"heads":"2","tails":"6"},"type":"response","condition":"seqNoFeedback","trueTheta":0.2,"classrooms":["A","B"],"studentTrueClassroom":"B","exampleSet":"second","trial_type":"survey-html-form","trial_index":134,"time_elapsed":1746691,"internal_node_id":"0.0-131.0-0.0","params":{"nStudents":24,"maxFlips":30,"completionMinutes":45,"basePay":8,"maxBonus":9,"perTrialBonus":0.5,"perTrialBonusThreshold":0.1,"exampleCost":0.01},"classroomParams":{"A":{"a":1,"b":4},"B":{"a":4,"b":1},"C":{"a":2,"b":8},"D":{"a":8,"b":2}},"conditions":["nonSeqFull","nonSeqPartial","seqNoFeedback","seqFeedback"],"classroomPairings":[["A","B"],["C","D"]],"coinWeights":[0.2,0.5,0.8],"subjectId":"A2615YW1YERQBO","assignmentId":"3NPI0JQDAPRFIHIMD27IO4SNS1DTP0","hitId":"341H3G5YF006USP7B7C868W97H9Z08","url":"https://gershmanlab.com/experiments/alicia/teaching/experiment/?hitId=341H3G5YF006USP7B7C868W97H9Z08&workerId=A2615YW1YERQBO&assignmentId=3NPI0JQDAPRFIHIMD27IO4SNS1DTP0&a=D0PN8&tp_a=D0PN8&b=3NPI0JQDAPRFIHIMD27IO4SNS1DTP0&tp_b=3NPI0JQDAPRFIHIMD27IO4SNS1DTP0&c=365198&tp_c=365198","firstResponseHeads":1,"firstResponseTails":11,"secondResponseHeads":2,"secondResponseTails":6,"studentIndex":15,"studentTrueHypers":{"a":4,"b":1},"studentGuess":0.28,"delta":0.08000000000000002,"bonus":0.3,"bonusSoFar":5.11,"totalExamples":20},{"rt":8871,"response":{"heads":"11","tails":"2"},"type":"response","condition":"seqFeedback","trueTheta":0.8,"classrooms":["C","D"],"studentTrueClassroom":"D","exampleSet":"first","trial_type":"survey-html-form","trial_index":140,"time_elapsed":1770731,"internal_node_id":"0.0-137.0-0.0","params":{"nStudents":24,"maxFlips":30,"completionMinutes":45,"basePay":8,"maxBonus":9,"perTrialBonus":0.5,"perTrialBonusThreshold":0.1,"exampleCost":0.01},"classroomParams":{"A":{"a":1,"b":4},"B":{"a":4,"b":1},"C":{"a":2,"b":8},"D":{"a":8,"b":2}},"conditions":["nonSeqFull","nonSeqPartial","seqNoFeedback","seqFeedback"],"classroomPairings":[["A","B"],["C","D"]],"coinWeights":[0.2,0.5,0.8],"subjectId":"A2615YW1YERQBO","assignmentId":"3NPI0JQDAPRFIHIMD27IO4SNS1DTP0","hitId":"341H3G5YF006USP7B7C868W97H9Z08","url":"https://gershmanlab.com/experiments/alicia/teaching/experiment/?hitId=341H3G5YF006USP7B7C868W97H9Z08&workerId=A2615YW1YERQBO&assignmentId=3NPI0JQDAPRFIHIMD27IO4SNS1DTP0&a=D0PN8&tp_a=D0PN8&b=3NPI0JQDAPRFIHIMD27IO4SNS1DTP0&tp_b=3NPI0JQDAPRFIHIMD27IO4SNS1DTP0&c=365198&tp_c=365198","heads":11,"tails":2,"studentIndex":16,"studentTrueHypers":{"a":8,"b":2},"studentGuess":0.8260869565217391,"delta":0.02608695652173909,"totalExamples":13,"bonusSoFar":5.11},{"rt":9582,"response":{"heads":"0","tails":"1"},"type":"response","condition":"seqFeedback","trueTheta":0.8,"classrooms":["C","D"],"studentTrueClassroom":"D","exampleSet":"second","trial_type":"survey-html-form","trial_index":144,"time_elapsed":1792227,"internal_node_id":"0.0-141.0-0.0","params":{"nStudents":24,"maxFlips":30,"completionMinutes":45,"basePay":8,"maxBonus":9,"perTrialBonus":0.5,"perTrialBonusThreshold":0.1,"exampleCost":0.01},"classroomParams":{"A":{"a":1,"b":4},"B":{"a":4,"b":1},"C":{"a":2,"b":8},"D":{"a":8,"b":2}},"conditions":["nonSeqFull","nonSeqPartial","seqNoFeedback","seqFeedback"],"classroomPairings":[["A","B"],["C","D"]],"coinWeights":[0.2,0.5,0.8],"subjectId":"A2615YW1YERQBO","assignmentId":"3NPI0JQDAPRFIHIMD27IO4SNS1DTP0","hitId":"341H3G5YF006USP7B7C868W97H9Z08","url":"https://gershmanlab.com/experiments/alicia/teaching/experiment/?hitId=341H3G5YF006USP7B7C868W97H9Z08&workerId=A2615YW1YERQBO&assignmentId=3NPI0JQDAPRFIHIMD27IO4SNS1DTP0&a=D0PN8&tp_a=D0PN8&b=3NPI0JQDAPRFIHIMD27IO4SNS1DTP0&tp_b=3NPI0JQDAPRFIHIMD27IO4SNS1DTP0&c=365198&tp_c=365198","firstResponseHeads":11,"firstResponseTails":2,"secondResponseHeads":0,"secondResponseTails":1,"studentIndex":16,"studentTrueHypers":{"a":8,"b":2},"studentGuess":0.7916666666666666,"delta":0.008333333333333415,"bonus":0.36,"bonusSoFar":5.47,"totalExamples":14},{"rt":7943,"response":{"heads":"1","tails":"9"},"type":"response","condition":"nonSeqPartial","trueTheta":0.2,"classrooms":["C","D"],"studentTrueClassroom":"C","exampleSet":"first","trial_type":"survey-html-form","trial_index":150,"time_elapsed":1816115,"internal_node_id":"0.0-147.0-0.0","params":{"nStudents":24,"maxFlips":30,"completionMinutes":45,"basePay":8,"maxBonus":9,"perTrialBonus":0.5,"perTrialBonusThreshold":0.1,"exampleCost":0.01},"classroomParams":{"A":{"a":1,"b":4},"B":{"a":4,"b":1},"C":{"a":2,"b":8},"D":{"a":8,"b":2}},"conditions":["nonSeqFull","nonSeqPartial","seqNoFeedback","seqFeedback"],"classroomPairings":[["A","B"],["C","D"]],"coinWeights":[0.2,0.5,0.8],"subjectId":"A2615YW1YERQBO","assignmentId":"3NPI0JQDAPRFIHIMD27IO4SNS1DTP0","hitId":"341H3G5YF006USP7B7C868W97H9Z08","url":"https://gershmanlab.com/experiments/alicia/teaching/experiment/?hitId=341H3G5YF006USP7B7C868W97H9Z08&workerId=A2615YW1YERQBO&assignmentId=3NPI0JQDAPRFIHIMD27IO4SNS1DTP0&a=D0PN8&tp_a=D0PN8&b=3NPI0JQDAPRFIHIMD27IO4SNS1DTP0&tp_b=3NPI0JQDAPRFIHIMD27IO4SNS1DTP0&c=365198&tp_c=365198","heads":1,"tails":9,"studentIndex":17,"studentTrueHypers":{"a":2,"b":8},"studentGuess":0.15,"delta":0.05000000000000002,"totalExamples":10,"bonus":0.4,"bonusSoFar":5.87},{"rt":13839,"response":{"heads":"4","tails":"1"},"type":"response","condition":"nonSeqFull","trueTheta":0.5,"classrooms":["A","B"],"studentTrueClassroom":"A","exampleSet":"first","trial_type":"survey-html-form","trial_index":156,"time_elapsed":1846554,"internal_node_id":"0.0-153.0-0.0","params":{"nStudents":24,"maxFlips":30,"completionMinutes":45,"basePay":8,"maxBonus":9,"perTrialBonus":0.5,"perTrialBonusThreshold":0.1,"exampleCost":0.01},"classroomParams":{"A":{"a":1,"b":4},"B":{"a":4,"b":1},"C":{"a":2,"b":8},"D":{"a":8,"b":2}},"conditions":["nonSeqFull","nonSeqPartial","seqNoFeedback","seqFeedback"],"classroomPairings":[["A","B"],["C","D"]],"coinWeights":[0.2,0.5,0.8],"subjectId":"A2615YW1YERQBO","assignmentId":"3NPI0JQDAPRFIHIMD27IO4SNS1DTP0","hitId":"341H3G5YF006USP7B7C868W97H9Z08","url":"https://gershmanlab.com/experiments/alicia/teaching/experiment/?hitId=341H3G5YF006USP7B7C868W97H9Z08&workerId=A2615YW1YERQBO&assignmentId=3NPI0JQDAPRFIHIMD27IO4SNS1DTP0&a=D0PN8&tp_a=D0PN8&b=3NPI0JQDAPRFIHIMD27IO4SNS1DTP0&tp_b=3NPI0JQDAPRFIHIMD27IO4SNS1DTP0&c=365198&tp_c=365198","heads":4,"tails":1,"studentIndex":18,"studentTrueHypers":{"a":1,"b":4},"studentGuess":0.5,"delta":0,"totalExamples":5,"bonus":0.45,"bonusSoFar":6.32},{"rt":14191,"response":{"heads":"1","tails":"9"},"type":"response","condition":"nonSeqPartial","trueTheta":0.2,"classrooms":["A","B"],"studentTrueClassroom":"A","exampleSet":"first","trial_type":"survey-html-form","trial_index":162,"time_elapsed":1874723,"internal_node_id":"0.0-159.0-0.0","params":{"nStudents":24,"maxFlips":30,"completionMinutes":45,"basePay":8,"maxBonus":9,"perTrialBonus":0.5,"perTrialBonusThreshold":0.1,"exampleCost":0.01},"classroomParams":{"A":{"a":1,"b":4},"B":{"a":4,"b":1},"C":{"a":2,"b":8},"D":{"a":8,"b":2}},"conditions":["nonSeqFull","nonSeqPartial","seqNoFeedback","seqFeedback"],"classroomPairings":[["A","B"],["C","D"]],"coinWeights":[0.2,0.5,0.8],"subjectId":"A2615YW1YERQBO","assignmentId":"3NPI0JQDAPRFIHIMD27IO4SNS1DTP0","hitId":"341H3G5YF006USP7B7C868W97H9Z08","url":"https://gershmanlab.com/experiments/alicia/teaching/experiment/?hitId=341H3G5YF006USP7B7C868W97H9Z08&workerId=A2615YW1YERQBO&assignmentId=3NPI0JQDAPRFIHIMD27IO4SNS1DTP0&a=D0PN8&tp_a=D0PN8&b=3NPI0JQDAPRFIHIMD27IO4SNS1DTP0&tp_b=3NPI0JQDAPRFIHIMD27IO4SNS1DTP0&c=365198&tp_c=365198","heads":1,"tails":9,"studentIndex":19,"studentTrueHypers":{"a":1,"b":4},"studentGuess":0.13333333333333333,"delta":0.06666666666666668,"totalExamples":10,"bonus":0.4,"bonusSoFar":6.72},{"rt":22727,"response":{"heads":"15","tails":"0"},"type":"response","condition":"nonSeqFull","trueTheta":0.8,"classrooms":["A","B"],"studentTrueClassroom":"A","exampleSet":"first","trial_type":"survey-html-form","trial_index":168,"time_elapsed":1912354,"internal_node_id":"0.0-165.0-0.0","params":{"nStudents":24,"maxFlips":30,"completionMinutes":45,"basePay":8,"maxBonus":9,"perTrialBonus":0.5,"perTrialBonusThreshold":0.1,"exampleCost":0.01},"classroomParams":{"A":{"a":1,"b":4},"B":{"a":4,"b":1},"C":{"a":2,"b":8},"D":{"a":8,"b":2}},"conditions":["nonSeqFull","nonSeqPartial","seqNoFeedback","seqFeedback"],"classroomPairings":[["A","B"],["C","D"]],"coinWeights":[0.2,0.5,0.8],"subjectId":"A2615YW1YERQBO","assignmentId":"3NPI0JQDAPRFIHIMD27IO4SNS1DTP0","hitId":"341H3G5YF006USP7B7C868W97H9Z08","url":"https://gershmanlab.com/experiments/alicia/teaching/experiment/?hitId=341H3G5YF006USP7B7C868W97H9Z08&workerId=A2615YW1YERQBO&assignmentId=3NPI0JQDAPRFIHIMD27IO4SNS1DTP0&a=D0PN8&tp_a=D0PN8&b=3NPI0JQDAPRFIHIMD27IO4SNS1DTP0&tp_b=3NPI0JQDAPRFIHIMD27IO4SNS1DTP0&c=365198&tp_c=365198","heads":15,"tails":0,"studentIndex":20,"studentTrueHypers":{"a":1,"b":4},"studentGuess":0.8,"delta":0,"totalExamples":15,"bonus":0.35,"bonusSoFar":7.07},{"rt":24967,"response":{"heads":"11","tails":"1"},"type":"response","condition":"nonSeqPartial","trueTheta":0.8,"classrooms":["C","D"],"studentTrueClassroom":"C","exampleSet":"first","trial_type":"survey-html-form","trial_index":174,"time_elapsed":1953482,"internal_node_id":"0.0-171.0-0.0","params":{"nStudents":24,"maxFlips":30,"completionMinutes":45,"basePay":8,"maxBonus":9,"perTrialBonus":0.5,"perTrialBonusThreshold":0.1,"exampleCost":0.01},"classroomParams":{"A":{"a":1,"b":4},"B":{"a":4,"b":1},"C":{"a":2,"b":8},"D":{"a":8,"b":2}},"conditions":["nonSeqFull","nonSeqPartial","seqNoFeedback","seqFeedback"],"classroomPairings":[["A","B"],["C","D"]],"coinWeights":[0.2,0.5,0.8],"subjectId":"A2615YW1YERQBO","assignmentId":"3NPI0JQDAPRFIHIMD27IO4SNS1DTP0","hitId":"341H3G5YF006USP7B7C868W97H9Z08","url":"https://gershmanlab.com/experiments/alicia/teaching/experiment/?hitId=341H3G5YF006USP7B7C868W97H9Z08&workerId=A2615YW1YERQBO&assignmentId=3NPI0JQDAPRFIHIMD27IO4SNS1DTP0&a=D0PN8&tp_a=D0PN8&b=3NPI0JQDAPRFIHIMD27IO4SNS1DTP0&tp_b=3NPI0JQDAPRFIHIMD27IO4SNS1DTP0&c=365198&tp_c=365198","heads":11,"tails":1,"studentIndex":21,"studentTrueHypers":{"a":2,"b":8},"studentGuess":0.5909090909090909,"delta":0.2090909090909091,"totalExamples":12,"bonus":0,"bonusSoFar":7.07},{"rt":22583,"response":{"heads":"0","tails":"28"},"type":"response","condition":"nonSeqFull","trueTheta":0.2,"classrooms":["C","D"],"studentTrueClassroom":"D","exampleSet":"first","trial_type":"survey-html-form","trial_index":180,"time_elapsed":1991162,"internal_node_id":"0.0-177.0-0.0","params":{"nStudents":24,"maxFlips":30,"completionMinutes":45,"basePay":8,"maxBonus":9,"perTrialBonus":0.5,"perTrialBonusThreshold":0.1,"exampleCost":0.01},"classroomParams":{"A":{"a":1,"b":4},"B":{"a":4,"b":1},"C":{"a":2,"b":8},"D":{"a":8,"b":2}},"conditions":["nonSeqFull","nonSeqPartial","seqNoFeedback","seqFeedback"],"classroomPairings":[["A","B"],["C","D"]],"coinWeights":[0.2,0.5,0.8],"subjectId":"A2615YW1YERQBO","assignmentId":"3NPI0JQDAPRFIHIMD27IO4SNS1DTP0","hitId":"341H3G5YF006USP7B7C868W97H9Z08","url":"https://gershmanlab.com/experiments/alicia/teaching/experiment/?hitId=341H3G5YF006USP7B7C868W97H9Z08&workerId=A2615YW1YERQBO&assignmentId=3NPI0JQDAPRFIHIMD27IO4SNS1DTP0&a=D0PN8&tp_a=D0PN8&b=3NPI0JQDAPRFIHIMD27IO4SNS1DTP0&tp_b=3NPI0JQDAPRFIHIMD27IO4SNS1DTP0&c=365198&tp_c=365198","heads":0,"tails":28,"studentIndex":22,"studentTrueHypers":{"a":8,"b":2},"studentGuess":0.21052631578947367,"delta":0.010526315789473661,"totalExamples":28,"bonus":0.22,"bonusSoFar":7.29},{"rt":14135,"response":{"heads":"0","tails":"9"},"type":"response","condition":"seqNoFeedback","trueTheta":0.2,"classrooms":["C","D"],"studentTrueClassroom":"C","exampleSet":"first","trial_type":"survey-html-form","trial_index":186,"time_elapsed":2020889,"internal_node_id":"0.0-183.0-0.0","params":{"nStudents":24,"maxFlips":30,"completionMinutes":45,"basePay":8,"maxBonus":9,"perTrialBonus":0.5,"perTrialBonusThreshold":0.1,"exampleCost":0.01},"classroomParams":{"A":{"a":1,"b":4},"B":{"a":4,"b":1},"C":{"a":2,"b":8},"D":{"a":8,"b":2}},"conditions":["nonSeqFull","nonSeqPartial","seqNoFeedback","seqFeedback"],"classroomPairings":[["A","B"],["C","D"]],"coinWeights":[0.2,0.5,0.8],"subjectId":"A2615YW1YERQBO","assignmentId":"3NPI0JQDAPRFIHIMD27IO4SNS1DTP0","hitId":"341H3G5YF006USP7B7C868W97H9Z08","url":"https://gershmanlab.com/experiments/alicia/teaching/experiment/?hitId=341H3G5YF006USP7B7C868W97H9Z08&workerId=A2615YW1YERQBO&assignmentId=3NPI0JQDAPRFIHIMD27IO4SNS1DTP0&a=D0PN8&tp_a=D0PN8&b=3NPI0JQDAPRFIHIMD27IO4SNS1DTP0&tp_b=3NPI0JQDAPRFIHIMD27IO4SNS1DTP0&c=365198&tp_c=365198","heads":0,"tails":9,"studentIndex":23,"studentTrueHypers":{"a":2,"b":8},"studentGuess":0.10526315789473684,"delta":0.09473684210526317,"totalExamples":9,"bonusSoFar":7.29},{"rt":15549,"response":{"heads":"1","tails":"4"},"type":"response","condition":"seqNoFeedback","trueTheta":0.2,"classrooms":["C","D"],"studentTrueClassroom":"C","exampleSet":"second","trial_type":"survey-html-form","trial_index":189,"time_elapsed":2043217,"internal_node_id":"0.0-186.0-0.0","params":{"nStudents":24,"maxFlips":30,"completionMinutes":45,"basePay":8,"maxBonus":9,"perTrialBonus":0.5,"perTrialBonusThreshold":0.1,"exampleCost":0.01},"classroomParams":{"A":{"a":1,"b":4},"B":{"a":4,"b":1},"C":{"a":2,"b":8},"D":{"a":8,"b":2}},"conditions":["nonSeqFull","nonSeqPartial","seqNoFeedback","seqFeedback"],"classroomPairings":[["A","B"],["C","D"]],"coinWeights":[0.2,0.5,0.8],"subjectId":"A2615YW1YERQBO","assignmentId":"3NPI0JQDAPRFIHIMD27IO4SNS1DTP0","hitId":"341H3G5YF006USP7B7C868W97H9Z08","url":"https://gershmanlab.com/experiments/alicia/teaching/experiment/?hitId=341H3G5YF006USP7B7C868W97H9Z08&workerId=A2615YW1YERQBO&assignmentId=3NPI0JQDAPRFIHIMD27IO4SNS1DTP0&a=D0PN8&tp_a=D0PN8&b=3NPI0JQDAPRFIHIMD27IO4SNS1DTP0&tp_b=3NPI0JQDAPRFIHIMD27IO4SNS1DTP0&c=365198&tp_c=365198","firstResponseHeads":0,"firstResponseTails":9,"secondResponseHeads":1,"secondResponseTails":4,"studentIndex":23,"studentTrueHypers":{"a":2,"b":8},"studentGuess":0.125,"delta":0.07500000000000001,"bonus":0.36,"bonusSoFar":7.65,"totalExamples":14},{"rt":23404,"response":{"gender":"male","age":"56","understood":"yes","comments":"none"},"type":"response","trial_type":"survey-html-form","trial_index":193,"time_elapsed":2080449,"internal_node_id":"0.0-191.0","params":{"nStudents":24,"maxFlips":30,"completionMinutes":45,"basePay":8,"maxBonus":9,"perTrialBonus":0.5,"perTrialBonusThreshold":0.1,"exampleCost":0.01},"classroomParams":{"A":{"a":1,"b":4},"B":{"a":4,"b":1},"C":{"a":2,"b":8},"D":{"a":8,"b":2}},"conditions":["nonSeqFull","nonSeqPartial","seqNoFeedback","seqFeedback"],"classroomPairings":[["A","B"],["C","D"]],"coinWeights":[0.2,0.5,0.8],"subjectId":"A2615YW1YERQBO","assignmentId":"3NPI0JQDAPRFIHIMD27IO4SNS1DTP0","hitId":"341H3G5YF006USP7B7C868W97H9Z08","url":"https://gershmanlab.com/experiments/alicia/teaching/experiment/?hitId=341H3G5YF006USP7B7C868W97H9Z08&workerId=A2615YW1YERQBO&assignmentId=3NPI0JQDAPRFIHIMD27IO4SNS1DTP0&a=D0PN8&tp_a=D0PN8&b=3NPI0JQDAPRFIHIMD27IO4SNS1DTP0&tp_b=3NPI0JQDAPRFIHIMD27IO4SNS1DTP0&c=365198&tp_c=365198","totalBonus":7.65}]