[{"rt":35025,"response":{"heads":"0","tails":"2"},"type":"response","condition":"seqFeedback","trueTheta":0.8,"classrooms":["C","D"],"studentTrueClassroom":"C","exampleSet":"first","trial_type":"survey-html-form","trial_index":7,"time_elapsed":313330,"internal_node_id":"0.0-6.0-0.0","params":{"nStudents":24,"maxFlips":30,"completionMinutes":45,"basePay":8,"maxBonus":9,"perTrialBonus":0.5,"perTrialBonusThreshold":0.1,"exampleCost":0.01},"classroomParams":{"A":{"a":1,"b":4},"B":{"a":4,"b":1},"C":{"a":2,"b":8},"D":{"a":8,"b":2}},"conditions":["nonSeqFull","nonSeqPartial","seqNoFeedback","seqFeedback"],"classroomPairings":[["A","B"],["C","D"]],"coinWeights":[0.2,0.5,0.8],"subjectId":"A2FGKKWP33DFWS","assignmentId":"3ZDAD0O1T2ZKRQKDZTHZIHEQU0MXTS","hitId":"3YGE63DIN8J20XK20KS1742RQF60WK","url":"https://gershmanlab.com/experiments/alicia/teaching/experiment/?hitId=3YGE63DIN8J20XK20KS1742RQF60WK&workerId=A2FGKKWP33DFWS&assignmentId=3ZDAD0O1T2ZKRQKDZTHZIHEQU0MXTS&a=1DDZ8&tp_a=1DDZ8&b=3ZDAD0O1T2ZKRQKDZTHZIHEQU0MXTS&tp_b=3ZDAD0O1T2ZKRQKDZTHZIHEQU0MXTS&c=365198&tp_c=365198","heads":0,"tails":2,"studentIndex":0,"studentTrueHypers":{"a":2,"b":8},"studentGuess":0.16666666666666666,"delta":0.6333333333333334,"totalExamples":2,"bonusSoFar":0},{"rt":10080,"response":{"heads":"8","tails":"2"},"type":"response","condition":"seqFeedback","trueTheta":0.8,"classrooms":["C","D"],"studentTrueClassroom":"C","exampleSet":"second","trial_type":"survey-html-form","trial_index":11,"time_elapsed":336205,"internal_node_id":"0.0-10.0-0.0","params":{"nStudents":24,"maxFlips":30,"completionMinutes":45,"basePay":8,"maxBonus":9,"perTrialBonus":0.5,"perTrialBonusThreshold":0.1,"exampleCost":0.01},"classroomParams":{"A":{"a":1,"b":4},"B":{"a":4,"b":1},"C":{"a":2,"b":8},"D":{"a":8,"b":2}},"conditions":["nonSeqFull","nonSeqPartial","seqNoFeedback","seqFeedback"],"classroomPairings":[["A","B"],["C","D"]],"coinWeights":[0.2,0.5,0.8],"subjectId":"A2FGKKWP33DFWS","assignmentId":"3ZDAD0O1T2ZKRQKDZTHZIHEQU0MXTS","hitId":"3YGE63DIN8J20XK20KS1742RQF60WK","url":"https://gershmanlab.com/experiments/alicia/teaching/experiment/?hitId=3YGE63DIN8J20XK20KS1742RQF60WK&workerId=A2FGKKWP33DFWS&assignmentId=3ZDAD0O1T2ZKRQKDZTHZIHEQU0MXTS&a=1DDZ8&tp_a=1DDZ8&b=3ZDAD0O1T2ZKRQKDZTHZIHEQU0MXTS&tp_b=3ZDAD0O1T2ZKRQKDZTHZIHEQU0MXTS&c=365198&tp_c=365198","firstResponseHeads":0,"firstResponseTails":2,"secondResponseHeads":8,"secondResponseTails":2,"studentIndex":0,"studentTrueHypers":{"a":2,"b":8},"studentGuess":0.45454545454545453,"delta":0.3454545454545455,"bonus":0,"bonusSoFar":0,"totalExamples":12},{"rt":30250,"response":{"heads":"2","tails":"0"},"type":"response","condition":"seqNoFeedback","trueTheta":0.2,"classrooms":["A","B"],"studentTrueClassroom":"B","exampleSet":"first","trial_type":"survey-html-form","trial_index":17,"time_elapsed":388434,"internal_node_id":"0.0-16.0-0.0","params":{"nStudents":24,"maxFlips":30,"completionMinutes":45,"basePay":8,"maxBonus":9,"perTrialBonus":0.5,"perTrialBonusThreshold":0.1,"exampleCost":0.01},"classroomParams":{"A":{"a":1,"b":4},"B":{"a":4,"b":1},"C":{"a":2,"b":8},"D":{"a":8,"b":2}},"conditions":["nonSeqFull","nonSeqPartial","seqNoFeedback","seqFeedback"],"classroomPairings":[["A","B"],["C","D"]],"coinWeights":[0.2,0.5,0.8],"subjectId":"A2FGKKWP33DFWS","assignmentId":"3ZDAD0O1T2ZKRQKDZTHZIHEQU0MXTS","hitId":"3YGE63DIN8J20XK20KS1742RQF60WK","url":"https://gershmanlab.com/experiments/alicia/teaching/experiment/?hitId=3YGE63DIN8J20XK20KS1742RQF60WK&workerId=A2FGKKWP33DFWS&assignmentId=3ZDAD0O1T2ZKRQKDZTHZIHEQU0MXTS&a=1DDZ8&tp_a=1DDZ8&b=3ZDAD0O1T2ZKRQKDZTHZIHEQU0MXTS&tp_b=3ZDAD0O1T2ZKRQKDZTHZIHEQU0MXTS&c=365198&tp_c=365198","heads":2,"tails":0,"studentIndex":1,"studentTrueHypers":{"a":4,"b":1},"studentGuess":0.8571428571428571,"delta":0.657142857142857,"totalExamples":2,"bonusSoFar":0},{"rt":25748,"response":{"heads":"2","tails":"0"},"type":"response","condition":"seqNoFeedback","trueTheta":0.2,"classrooms":["A","B"],"studentTrueClassroom":"B","exampleSet":"second","trial_type":"survey-html-form","trial_index":20,"time_elapsed":420713,"internal_node_id":"0.0-19.0-0.0","params":{"nStudents":24,"maxFlips":30,"completionMinutes":45,"basePay":8,"maxBonus":9,"perTrialBonus":0.5,"perTrialBonusThreshold":0.1,"exampleCost":0.01},"classroomParams":{"A":{"a":1,"b":4},"B":{"a":4,"b":1},"C":{"a":2,"b":8},"D":{"a":8,"b":2}},"conditions":["nonSeqFull","nonSeqPartial","seqNoFeedback","seqFeedback"],"classroomPairings":[["A","B"],["C","D"]],"coinWeights":[0.2,0.5,0.8],"subjectId":"A2FGKKWP33DFWS","assignmentId":"3ZDAD0O1T2ZKRQKDZTHZIHEQU0MXTS","hitId":"3YGE63DIN8J20XK20KS1742RQF60WK","url":"https://gershmanlab.com/experiments/alicia/teaching/experiment/?hitId=3YGE63DIN8J20XK20KS1742RQF60WK&workerId=A2FGKKWP33DFWS&assignmentId=3ZDAD0O1T2ZKRQKDZTHZIHEQU0MXTS&a=1DDZ8&tp_a=1DDZ8&b=3ZDAD0O1T2ZKRQKDZTHZIHEQU0MXTS&tp_b=3ZDAD0O1T2ZKRQKDZTHZIHEQU0MXTS&c=365198&tp_c=365198","firstResponseHeads":2,"firstResponseTails":0,"secondResponseHeads":2,"secondResponseTails":0,"studentIndex":1,"studentTrueHypers":{"a":4,"b":1},"studentGuess":0.8888888888888888,"delta":0.6888888888888889,"bonus":0,"bonusSoFar":0,"totalExamples":4},{"rt":16705,"response":{"heads":"2","tails":"8"},"type":"response","condition":"nonSeqPartial","trueTheta":0.2,"classrooms":["A","B"],"studentTrueClassroom":"A","exampleSet":"first","trial_type":"survey-html-form","trial_index":26,"time_elapsed":456339,"internal_node_id":"0.0-25.0-0.0","params":{"nStudents":24,"maxFlips":30,"completionMinutes":45,"basePay":8,"maxBonus":9,"perTrialBonus":0.5,"perTrialBonusThreshold":0.1,"exampleCost":0.01},"classroomParams":{"A":{"a":1,"b":4},"B":{"a":4,"b":1},"C":{"a":2,"b":8},"D":{"a":8,"b":2}},"conditions":["nonSeqFull","nonSeqPartial","seqNoFeedback","seqFeedback"],"classroomPairings":[["A","B"],["C","D"]],"coinWeights":[0.2,0.5,0.8],"subjectId":"A2FGKKWP33DFWS","assignmentId":"3ZDAD0O1T2ZKRQKDZTHZIHEQU0MXTS","hitId":"3YGE63DIN8J20XK20KS1742RQF60WK","url":"https://gershmanlab.com/experiments/alicia/teaching/experiment/?hitId=3YGE63DIN8J20XK20KS1742RQF60WK&workerId=A2FGKKWP33DFWS&assignmentId=3ZDAD0O1T2ZKRQKDZTHZIHEQU0MXTS&a=1DDZ8&tp_a=1DDZ8&b=3ZDAD0O1T2ZKRQKDZTHZIHEQU0MXTS&tp_b=3ZDAD0O1T2ZKRQKDZTHZIHEQU0MXTS&c=365198&tp_c=365198","heads":2,"tails":8,"studentIndex":2,"studentTrueHypers":{"a":1,"b":4},"studentGuess":0.2,"delta":0,"totalExamples":10,"bonus":0.4,"bonusSoFar":0.4},{"rt":14745,"response":{"heads":"10","tails":"2"},"type":"response","condition":"seqNoFeedback","trueTheta":0.8,"classrooms":["C","D"],"studentTrueClassroom":"D","exampleSet":"first","trial_type":"survey-html-form","trial_index":32,"time_elapsed":490624,"internal_node_id":"0.0-31.0-0.0","params":{"nStudents":24,"maxFlips":30,"completionMinutes":45,"basePay":8,"maxBonus":9,"perTrialBonus":0.5,"perTrialBonusThreshold":0.1,"exampleCost":0.01},"classroomParams":{"A":{"a":1,"b":4},"B":{"a":4,"b":1},"C":{"a":2,"b":8},"D":{"a":8,"b":2}},"conditions":["nonSeqFull","nonSeqPartial","seqNoFeedback","seqFeedback"],"classroomPairings":[["A","B"],["C","D"]],"coinWeights":[0.2,0.5,0.8],"subjectId":"A2FGKKWP33DFWS","assignmentId":"3ZDAD0O1T2ZKRQKDZTHZIHEQU0MXTS","hitId":"3YGE63DIN8J20XK20KS1742RQF60WK","url":"https://gershmanlab.com/experiments/alicia/teaching/experiment/?hitId=3YGE63DIN8J20XK20KS1742RQF60WK&workerId=A2FGKKWP33DFWS&assignmentId=3ZDAD0O1T2ZKRQKDZTHZIHEQU0MXTS&a=1DDZ8&tp_a=1DDZ8&b=3ZDAD0O1T2ZKRQKDZTHZIHEQU0MXTS&tp_b=3ZDAD0O1T2ZKRQKDZTHZIHEQU0MXTS&c=365198&tp_c=365198","heads":10,"tails":2,"studentIndex":3,"studentTrueHypers":{"a":8,"b":2},"studentGuess":0.8181818181818182,"delta":0.018181818181818188,"totalExamples":12,"bonusSoFar":0.4},{"rt":14901,"response":{"heads":"8","tails":"2"},"type":"response","condition":"seqNoFeedback","trueTheta":0.8,"classrooms":["C","D"],"studentTrueClassroom":"D","exampleSet":"second","trial_type":"survey-html-form","trial_index":35,"time_elapsed":513300,"internal_node_id":"0.0-34.0-0.0","params":{"nStudents":24,"maxFlips":30,"completionMinutes":45,"basePay":8,"maxBonus":9,"perTrialBonus":0.5,"perTrialBonusThreshold":0.1,"exampleCost":0.01},"classroomParams":{"A":{"a":1,"b":4},"B":{"a":4,"b":1},"C":{"a":2,"b":8},"D":{"a":8,"b":2}},"conditions":["nonSeqFull","nonSeqPartial","seqNoFeedback","seqFeedback"],"classroomPairings":[["A","B"],["C","D"]],"coinWeights":[0.2,0.5,0.8],"subjectId":"A2FGKKWP33DFWS","assignmentId":"3ZDAD0O1T2ZKRQKDZTHZIHEQU0MXTS","hitId":"3YGE63DIN8J20XK20KS1742RQF60WK","url":"https://gershmanlab.com/experiments/alicia/teaching/experiment/?hitId=3YGE63DIN8J20XK20KS1742RQF60WK&workerId=A2FGKKWP33DFWS&assignmentId=3ZDAD0O1T2ZKRQKDZTHZIHEQU0MXTS&a=1DDZ8&tp_a=1DDZ8&b=3ZDAD0O1T2ZKRQKDZTHZIHEQU0MXTS&tp_b=3ZDAD0O1T2ZKRQKDZTHZIHEQU0MXTS&c=365198&tp_c=365198","firstResponseHeads":10,"firstResponseTails":2,"secondResponseHeads":8,"secondResponseTails":2,"studentIndex":3,"studentTrueHypers":{"a":8,"b":2},"studentGuess":0.8125,"delta":0.012499999999999956,"bonus":0.28,"bonusSoFar":0.68,"totalExamples":22},{"rt":7819,"response":{"heads":"5","tails":"5"},"type":"response","condition":"nonSeqPartial","trueTheta":0.5,"classrooms":["A","B"],"studentTrueClassroom":"A","exampleSet":"first","trial_type":"survey-html-form","trial_index":41,"time_elapsed":543953,"internal_node_id":"0.0-40.0-0.0","params":{"nStudents":24,"maxFlips":30,"completionMinutes":45,"basePay":8,"maxBonus":9,"perTrialBonus":0.5,"perTrialBonusThreshold":0.1,"exampleCost":0.01},"classroomParams":{"A":{"a":1,"b":4},"B":{"a":4,"b":1},"C":{"a":2,"b":8},"D":{"a":8,"b":2}},"conditions":["nonSeqFull","nonSeqPartial","seqNoFeedback","seqFeedback"],"classroomPairings":[["A","B"],["C","D"]],"coinWeights":[0.2,0.5,0.8],"subjectId":"A2FGKKWP33DFWS","assignmentId":"3ZDAD0O1T2ZKRQKDZTHZIHEQU0MXTS","hitId":"3YGE63DIN8J20XK20KS1742RQF60WK","url":"https://gershmanlab.com/experiments/alicia/teaching/experiment/?hitId=3YGE63DIN8J20XK20KS1742RQF60WK&workerId=A2FGKKWP33DFWS&assignmentId=3ZDAD0O1T2ZKRQKDZTHZIHEQU0MXTS&a=1DDZ8&tp_a=1DDZ8&b=3ZDAD0O1T2ZKRQKDZTHZIHEQU0MXTS&tp_b=3ZDAD0O1T2ZKRQKDZTHZIHEQU0MXTS&c=365198&tp_c=365198","heads":5,"tails":5,"studentIndex":4,"studentTrueHypers":{"a":1,"b":4},"studentGuess":0.4,"delta":0.09999999999999998,"totalExamples":10,"bonus":0.4,"bonusSoFar":1.08},{"rt":7807,"response":{"heads":"8","tails":"2"},"type":"response","condition":"seqFeedback","trueTheta":0.2,"classrooms":["A","B"],"studentTrueClassroom":"B","exampleSet":"first","trial_type":"survey-html-form","trial_index":47,"time_elapsed":572641,"internal_node_id":"0.0-46.0-0.0","params":{"nStudents":24,"maxFlips":30,"completionMinutes":45,"basePay":8,"maxBonus":9,"perTrialBonus":0.5,"perTrialBonusThreshold":0.1,"exampleCost":0.01},"classroomParams":{"A":{"a":1,"b":4},"B":{"a":4,"b":1},"C":{"a":2,"b":8},"D":{"a":8,"b":2}},"conditions":["nonSeqFull","nonSeqPartial","seqNoFeedback","seqFeedback"],"classroomPairings":[["A","B"],["C","D"]],"coinWeights":[0.2,0.5,0.8],"subjectId":"A2FGKKWP33DFWS","assignmentId":"3ZDAD0O1T2ZKRQKDZTHZIHEQU0MXTS","hitId":"3YGE63DIN8J20XK20KS1742RQF60WK","url":"https://gershmanlab.com/experiments/alicia/teaching/experiment/?hitId=3YGE63DIN8J20XK20KS1742RQF60WK&workerId=A2FGKKWP33DFWS&assignmentId=3ZDAD0O1T2ZKRQKDZTHZIHEQU0MXTS&a=1DDZ8&tp_a=1DDZ8&b=3ZDAD0O1T2ZKRQKDZTHZIHEQU0MXTS&tp_b=3ZDAD0O1T2ZKRQKDZTHZIHEQU0MXTS&c=365198&tp_c=365198","heads":8,"tails":2,"studentIndex":5,"studentTrueHypers":{"a":4,"b":1},"studentGuess":0.8,"delta":0.6000000000000001,"totalExamples":10,"bonusSoFar":1.08},{"rt":16915,"response":{"heads":"2","tails":"8"},"type":"response","condition":"seqFeedback","trueTheta":0.2,"classrooms":["A","B"],"studentTrueClassroom":"B","exampleSet":"second","trial_type":"survey-html-form","trial_index":51,"time_elapsed":604622,"internal_node_id":"0.0-50.0-0.0","params":{"nStudents":24,"maxFlips":30,"completionMinutes":45,"basePay":8,"maxBonus":9,"perTrialBonus":0.5,"perTrialBonusThreshold":0.1,"exampleCost":0.01},"classroomParams":{"A":{"a":1,"b":4},"B":{"a":4,"b":1},"C":{"a":2,"b":8},"D":{"a":8,"b":2}},"conditions":["nonSeqFull","nonSeqPartial","seqNoFeedback","seqFeedback"],"classroomPairings":[["A","B"],["C","D"]],"coinWeights":[0.2,0.5,0.8],"subjectId":"A2FGKKWP33DFWS","assignmentId":"3ZDAD0O1T2ZKRQKDZTHZIHEQU0MXTS","hitId":"3YGE63DIN8J20XK20KS1742RQF60WK","url":"https://gershmanlab.com/experiments/alicia/teaching/experiment/?hitId=3YGE63DIN8J20XK20KS1742RQF60WK&workerId=A2FGKKWP33DFWS&assignmentId=3ZDAD0O1T2ZKRQKDZTHZIHEQU0MXTS&a=1DDZ8&tp_a=1DDZ8&b=3ZDAD0O1T2ZKRQKDZTHZIHEQU0MXTS&tp_b=3ZDAD0O1T2ZKRQKDZTHZIHEQU0MXTS&c=365198&tp_c=365198","firstResponseHeads":8,"firstResponseTails":2,"secondResponseHeads":2,"secondResponseTails":8,"studentIndex":5,"studentTrueHypers":{"a":4,"b":1},"studentGuess":0.56,"delta":0.36000000000000004,"bonus":0,"bonusSoFar":1.08,"totalExamples":20},{"rt":6691,"response":{"heads":"5","tails":"5"},"type":"response","condition":"seqFeedback","trueTheta":0.5,"classrooms":["A","B"],"studentTrueClassroom":"A","exampleSet":"first","trial_type":"survey-html-form","trial_index":57,"time_elapsed":630309,"internal_node_id":"0.0-56.0-0.0","params":{"nStudents":24,"maxFlips":30,"completionMinutes":45,"basePay":8,"maxBonus":9,"perTrialBonus":0.5,"perTrialBonusThreshold":0.1,"exampleCost":0.01},"classroomParams":{"A":{"a":1,"b":4},"B":{"a":4,"b":1},"C":{"a":2,"b":8},"D":{"a":8,"b":2}},"conditions":["nonSeqFull","nonSeqPartial","seqNoFeedback","seqFeedback"],"classroomPairings":[["A","B"],["C","D"]],"coinWeights":[0.2,0.5,0.8],"subjectId":"A2FGKKWP33DFWS","assignmentId":"3ZDAD0O1T2ZKRQKDZTHZIHEQU0MXTS","hitId":"3YGE63DIN8J20XK20KS1742RQF60WK","url":"https://gershmanlab.com/experiments/alicia/teaching/experiment/?hitId=3YGE63DIN8J20XK20KS1742RQF60WK&workerId=A2FGKKWP33DFWS&assignmentId=3ZDAD0O1T2ZKRQKDZTHZIHEQU0MXTS&a=1DDZ8&tp_a=1DDZ8&b=3ZDAD0O1T2ZKRQKDZTHZIHEQU0MXTS&tp_b=3ZDAD0O1T2ZKRQKDZTHZIHEQU0MXTS&c=365198&tp_c=365198","heads":5,"tails":5,"studentIndex":6,"studentTrueHypers":{"a":1,"b":4},"studentGuess":0.4,"delta":0.09999999999999998,"totalExamples":10,"bonusSoFar":1.08},{"rt":8909,"response":{"heads":"5","tails":"5"},"type":"response","condition":"seqFeedback","trueTheta":0.5,"classrooms":["A","B"],"studentTrueClassroom":"A","exampleSet":"second","trial_type":"survey-html-form","trial_index":61,"time_elapsed":652264,"internal_node_id":"0.0-60.0-0.0","params":{"nStudents":24,"maxFlips":30,"completionMinutes":45,"basePay":8,"maxBonus":9,"perTrialBonus":0.5,"perTrialBonusThreshold":0.1,"exampleCost":0.01},"classroomParams":{"A":{"a":1,"b":4},"B":{"a":4,"b":1},"C":{"a":2,"b":8},"D":{"a":8,"b":2}},"conditions":["nonSeqFull","nonSeqPartial","seqNoFeedback","seqFeedback"],"classroomPairings":[["A","B"],["C","D"]],"coinWeights":[0.2,0.5,0.8],"subjectId":"A2FGKKWP33DFWS","assignmentId":"3ZDAD0O1T2ZKRQKDZTHZIHEQU0MXTS","hitId":"3YGE63DIN8J20XK20KS1742RQF60WK","url":"https://gershmanlab.com/experiments/alicia/teaching/experiment/?hitId=3YGE63DIN8J20XK20KS1742RQF60WK&workerId=A2FGKKWP33DFWS&assignmentId=3ZDAD0O1T2ZKRQKDZTHZIHEQU0MXTS&a=1DDZ8&tp_a=1DDZ8&b=3ZDAD0O1T2ZKRQKDZTHZIHEQU0MXTS&tp_b=3ZDAD0O1T2ZKRQKDZTHZIHEQU0MXTS&c=365198&tp_c=365198","firstResponseHeads":5,"firstResponseTails":5,"secondResponseHeads":5,"secondResponseTails":5,"studentIndex":6,"studentTrueHypers":{"a":1,"b":4},"studentGuess":0.44,"delta":0.06,"bonus":0.3,"bonusSoFar":1.38,"totalExamples":20},{"rt":7665,"response":{"heads":"5","tails":"5"},"type":"response","condition":"seqNoFeedback","trueTheta":0.5,"classrooms":["C","D"],"studentTrueClassroom":"D","exampleSet":"first","trial_type":"survey-html-form","trial_index":67,"time_elapsed":677217,"internal_node_id":"0.0-66.0-0.0","params":{"nStudents":24,"maxFlips":30,"completionMinutes":45,"basePay":8,"maxBonus":9,"perTrialBonus":0.5,"perTrialBonusThreshold":0.1,"exampleCost":0.01},"classroomParams":{"A":{"a":1,"b":4},"B":{"a":4,"b":1},"C":{"a":2,"b":8},"D":{"a":8,"b":2}},"conditions":["nonSeqFull","nonSeqPartial","seqNoFeedback","seqFeedback"],"classroomPairings":[["A","B"],["C","D"]],"coinWeights":[0.2,0.5,0.8],"subjectId":"A2FGKKWP33DFWS","assignmentId":"3ZDAD0O1T2ZKRQKDZTHZIHEQU0MXTS","hitId":"3YGE63DIN8J20XK20KS1742RQF60WK","url":"https://gershmanlab.com/experiments/alicia/teaching/experiment/?hitId=3YGE63DIN8J20XK20KS1742RQF60WK&workerId=A2FGKKWP33DFWS&assignmentId=3ZDAD0O1T2ZKRQKDZTHZIHEQU0MXTS&a=1DDZ8&tp_a=1DDZ8&b=3ZDAD0O1T2ZKRQKDZTHZIHEQU0MXTS&tp_b=3ZDAD0O1T2ZKRQKDZTHZIHEQU0MXTS&c=365198&tp_c=365198","heads":5,"tails":5,"studentIndex":7,"studentTrueHypers":{"a":8,"b":2},"studentGuess":0.65,"delta":0.15000000000000002,"totalExamples":10,"bonusSoFar":1.38},{"rt":12805,"response":{"heads":"5","tails":"5"},"type":"response","condition":"seqNoFeedback","trueTheta":0.5,"classrooms":["C","D"],"studentTrueClassroom":"D","exampleSet":"second","trial_type":"survey-html-form","trial_index":70,"time_elapsed":695283,"internal_node_id":"0.0-69.0-0.0","params":{"nStudents":24,"maxFlips":30,"completionMinutes":45,"basePay":8,"maxBonus":9,"perTrialBonus":0.5,"perTrialBonusThreshold":0.1,"exampleCost":0.01},"classroomParams":{"A":{"a":1,"b":4},"B":{"a":4,"b":1},"C":{"a":2,"b":8},"D":{"a":8,"b":2}},"conditions":["nonSeqFull","nonSeqPartial","seqNoFeedback","seqFeedback"],"classroomPairings":[["A","B"],["C","D"]],"coinWeights":[0.2,0.5,0.8],"subjectId":"A2FGKKWP33DFWS","assignmentId":"3ZDAD0O1T2ZKRQKDZTHZIHEQU0MXTS","hitId":"3YGE63DIN8J20XK20KS1742RQF60WK","url":"https://gershmanlab.com/experiments/alicia/teaching/experiment/?hitId=3YGE63DIN8J20XK20KS1742RQF60WK&workerId=A2FGKKWP33DFWS&assignmentId=3ZDAD0O1T2ZKRQKDZTHZIHEQU0MXTS&a=1DDZ8&tp_a=1DDZ8&b=3ZDAD0O1T2ZKRQKDZTHZIHEQU0MXTS&tp_b=3ZDAD0O1T2ZKRQKDZTHZIHEQU0MXTS&c=365198&tp_c=365198","firstResponseHeads":5,"firstResponseTails":5,"secondResponseHeads":5,"secondResponseTails":5,"studentIndex":7,"studentTrueHypers":{"a":8,"b":2},"studentGuess":0.6,"delta":0.09999999999999998,"bonus":0.3,"bonusSoFar":1.68,"totalExamples":20},{"rt":14562,"response":{"heads":"8","tails":"2"},"type":"response","condition":"nonSeqPartial","trueTheta":0.8,"classrooms":["C","D"],"studentTrueClassroom":"D","exampleSet":"first","trial_type":"survey-html-form","trial_index":76,"time_elapsed":727337,"internal_node_id":"0.0-75.0-0.0","params":{"nStudents":24,"maxFlips":30,"completionMinutes":45,"basePay":8,"maxBonus":9,"perTrialBonus":0.5,"perTrialBonusThreshold":0.1,"exampleCost":0.01},"classroomParams":{"A":{"a":1,"b":4},"B":{"a":4,"b":1},"C":{"a":2,"b":8},"D":{"a":8,"b":2}},"conditions":["nonSeqFull","nonSeqPartial","seqNoFeedback","seqFeedback"],"classroomPairings":[["A","B"],["C","D"]],"coinWeights":[0.2,0.5,0.8],"subjectId":"A2FGKKWP33DFWS","assignmentId":"3ZDAD0O1T2ZKRQKDZTHZIHEQU0MXTS","hitId":"3YGE63DIN8J20XK20KS1742RQF60WK","url":"https://gershmanlab.com/experiments/alicia/teaching/experiment/?hitId=3YGE63DIN8J20XK20KS1742RQF60WK&workerId=A2FGKKWP33DFWS&assignmentId=3ZDAD0O1T2ZKRQKDZTHZIHEQU0MXTS&a=1DDZ8&tp_a=1DDZ8&b=3ZDAD0O1T2ZKRQKDZTHZIHEQU0MXTS&tp_b=3ZDAD0O1T2ZKRQKDZTHZIHEQU0MXTS&c=365198&tp_c=365198","heads":8,"tails":2,"studentIndex":8,"studentTrueHypers":{"a":8,"b":2},"studentGuess":0.8,"delta":0,"totalExamples":10,"bonus":0.4,"bonusSoFar":2.08},{"rt":10005,"response":{"heads":"2","tails":"8"},"type":"response","condition":"nonSeqFull","trueTheta":0.2,"classrooms":["C","D"],"studentTrueClassroom":"C","exampleSet":"first","trial_type":"survey-html-form","trial_index":82,"time_elapsed":756319,"internal_node_id":"0.0-81.0-0.0","params":{"nStudents":24,"maxFlips":30,"completionMinutes":45,"basePay":8,"maxBonus":9,"perTrialBonus":0.5,"perTrialBonusThreshold":0.1,"exampleCost":0.01},"classroomParams":{"A":{"a":1,"b":4},"B":{"a":4,"b":1},"C":{"a":2,"b":8},"D":{"a":8,"b":2}},"conditions":["nonSeqFull","nonSeqPartial","seqNoFeedback","seqFeedback"],"classroomPairings":[["A","B"],["C","D"]],"coinWeights":[0.2,0.5,0.8],"subjectId":"A2FGKKWP33DFWS","assignmentId":"3ZDAD0O1T2ZKRQKDZTHZIHEQU0MXTS","hitId":"3YGE63DIN8J20XK20KS1742RQF60WK","url":"https://gershmanlab.com/experiments/alicia/teaching/experiment/?hitId=3YGE63DIN8J20XK20KS1742RQF60WK&workerId=A2FGKKWP33DFWS&assignmentId=3ZDAD0O1T2ZKRQKDZTHZIHEQU0MXTS&a=1DDZ8&tp_a=1DDZ8&b=3ZDAD0O1T2ZKRQKDZTHZIHEQU0MXTS&tp_b=3ZDAD0O1T2ZKRQKDZTHZIHEQU0MXTS&c=365198&tp_c=365198","heads":2,"tails":8,"studentIndex":9,"studentTrueHypers":{"a":2,"b":8},"studentGuess":0.2,"delta":0,"totalExamples":10,"bonus":0.4,"bonusSoFar":2.48},{"rt":9135,"response":{"heads":"5","tails":"5"},"type":"response","condition":"seqNoFeedback","trueTheta":0.5,"classrooms":["A","B"],"studentTrueClassroom":"B","exampleSet":"first","trial_type":"survey-html-form","trial_index":88,"time_elapsed":781925,"internal_node_id":"0.0-87.0-0.0","params":{"nStudents":24,"maxFlips":30,"completionMinutes":45,"basePay":8,"maxBonus":9,"perTrialBonus":0.5,"perTrialBonusThreshold":0.1,"exampleCost":0.01},"classroomParams":{"A":{"a":1,"b":4},"B":{"a":4,"b":1},"C":{"a":2,"b":8},"D":{"a":8,"b":2}},"conditions":["nonSeqFull","nonSeqPartial","seqNoFeedback","seqFeedback"],"classroomPairings":[["A","B"],["C","D"]],"coinWeights":[0.2,0.5,0.8],"subjectId":"A2FGKKWP33DFWS","assignmentId":"3ZDAD0O1T2ZKRQKDZTHZIHEQU0MXTS","hitId":"3YGE63DIN8J20XK20KS1742RQF60WK","url":"https://gershmanlab.com/experiments/alicia/teaching/experiment/?hitId=3YGE63DIN8J20XK20KS1742RQF60WK&workerId=A2FGKKWP33DFWS&assignmentId=3ZDAD0O1T2ZKRQKDZTHZIHEQU0MXTS&a=1DDZ8&tp_a=1DDZ8&b=3ZDAD0O1T2ZKRQKDZTHZIHEQU0MXTS&tp_b=3ZDAD0O1T2ZKRQKDZTHZIHEQU0MXTS&c=365198&tp_c=365198","heads":5,"tails":5,"studentIndex":10,"studentTrueHypers":{"a":4,"b":1},"studentGuess":0.6,"delta":0.09999999999999998,"totalExamples":10,"bonusSoFar":2.48},{"rt":5139,"response":{"heads":"0","tails":"0"},"type":"response","condition":"seqNoFeedback","trueTheta":0.5,"classrooms":["A","B"],"studentTrueClassroom":"B","exampleSet":"second","trial_type":"survey-html-form","trial_index":91,"time_elapsed":794323,"internal_node_id":"0.0-90.0-0.0","params":{"nStudents":24,"maxFlips":30,"completionMinutes":45,"basePay":8,"maxBonus":9,"perTrialBonus":0.5,"perTrialBonusThreshold":0.1,"exampleCost":0.01},"classroomParams":{"A":{"a":1,"b":4},"B":{"a":4,"b":1},"C":{"a":2,"b":8},"D":{"a":8,"b":2}},"conditions":["nonSeqFull","nonSeqPartial","seqNoFeedback","seqFeedback"],"classroomPairings":[["A","B"],["C","D"]],"coinWeights":[0.2,0.5,0.8],"subjectId":"A2FGKKWP33DFWS","assignmentId":"3ZDAD0O1T2ZKRQKDZTHZIHEQU0MXTS","hitId":"3YGE63DIN8J20XK20KS1742RQF60WK","url":"https://gershmanlab.com/experiments/alicia/teaching/experiment/?hitId=3YGE63DIN8J20XK20KS1742RQF60WK&workerId=A2FGKKWP33DFWS&assignmentId=3ZDAD0O1T2ZKRQKDZTHZIHEQU0MXTS&a=1DDZ8&tp_a=1DDZ8&b=3ZDAD0O1T2ZKRQKDZTHZIHEQU0MXTS&tp_b=3ZDAD0O1T2ZKRQKDZTHZIHEQU0MXTS&c=365198&tp_c=365198","firstResponseHeads":5,"firstResponseTails":5,"secondResponseHeads":0,"secondResponseTails":0,"studentIndex":10,"studentTrueHypers":{"a":4,"b":1},"studentGuess":0.6,"delta":0.09999999999999998,"bonus":0.4,"bonusSoFar":2.88,"totalExamples":10},{"rt":1777,"response":{"heads":"0","tails":"0"},"type":"response","condition":"seqNoFeedback","trueTheta":0.5,"classrooms":["A","B"],"studentTrueClassroom":"B","exampleSet":"second","trial_type":"survey-html-form","trial_index":92,"time_elapsed":796101,"internal_node_id":"0.0-90.1-0.1","params":{"nStudents":24,"maxFlips":30,"completionMinutes":45,"basePay":8,"maxBonus":9,"perTrialBonus":0.5,"perTrialBonusThreshold":0.1,"exampleCost":0.01},"classroomParams":{"A":{"a":1,"b":4},"B":{"a":4,"b":1},"C":{"a":2,"b":8},"D":{"a":8,"b":2}},"conditions":["nonSeqFull","nonSeqPartial","seqNoFeedback","seqFeedback"],"classroomPairings":[["A","B"],["C","D"]],"coinWeights":[0.2,0.5,0.8],"subjectId":"A2FGKKWP33DFWS","assignmentId":"3ZDAD0O1T2ZKRQKDZTHZIHEQU0MXTS","hitId":"3YGE63DIN8J20XK20KS1742RQF60WK","url":"https://gershmanlab.com/experiments/alicia/teaching/experiment/?hitId=3YGE63DIN8J20XK20KS1742RQF60WK&workerId=A2FGKKWP33DFWS&assignmentId=3ZDAD0O1T2ZKRQKDZTHZIHEQU0MXTS&a=1DDZ8&tp_a=1DDZ8&b=3ZDAD0O1T2ZKRQKDZTHZIHEQU0MXTS&tp_b=3ZDAD0O1T2ZKRQKDZTHZIHEQU0MXTS&c=365198&tp_c=365198","firstResponseHeads":5,"firstResponseTails":5,"secondResponseHeads":0,"secondResponseTails":0,"studentIndex":10,"studentTrueHypers":{"a":4,"b":1},"studentGuess":0.6,"delta":0.09999999999999998,"bonus":0.4,"bonusSoFar":3.28,"totalExamples":10},{"rt":8025,"response":{"heads":"5","tails":"5"},"type":"response","condition":"seqNoFeedback","trueTheta":0.5,"classrooms":["A","B"],"studentTrueClassroom":"B","exampleSet":"second","trial_type":"survey-html-form","trial_index":93,"time_elapsed":804127,"internal_node_id":"0.0-90.2-0.2","params":{"nStudents":24,"maxFlips":30,"completionMinutes":45,"basePay":8,"maxBonus":9,"perTrialBonus":0.5,"perTrialBonusThreshold":0.1,"exampleCost":0.01},"classroomParams":{"A":{"a":1,"b":4},"B":{"a":4,"b":1},"C":{"a":2,"b":8},"D":{"a":8,"b":2}},"conditions":["nonSeqFull","nonSeqPartial","seqNoFeedback","seqFeedback"],"classroomPairings":[["A","B"],["C","D"]],"coinWeights":[0.2,0.5,0.8],"subjectId":"A2FGKKWP33DFWS","assignmentId":"3ZDAD0O1T2ZKRQKDZTHZIHEQU0MXTS","hitId":"3YGE63DIN8J20XK20KS1742RQF60WK","url":"https://gershmanlab.com/experiments/alicia/teaching/experiment/?hitId=3YGE63DIN8J20XK20KS1742RQF60WK&workerId=A2FGKKWP33DFWS&assignmentId=3ZDAD0O1T2ZKRQKDZTHZIHEQU0MXTS&a=1DDZ8&tp_a=1DDZ8&b=3ZDAD0O1T2ZKRQKDZTHZIHEQU0MXTS&tp_b=3ZDAD0O1T2ZKRQKDZTHZIHEQU0MXTS&c=365198&tp_c=365198","firstResponseHeads":5,"firstResponseTails":5,"secondResponseHeads":5,"secondResponseTails":5,"studentIndex":10,"studentTrueHypers":{"a":4,"b":1},"studentGuess":0.56,"delta":0.06000000000000005,"bonus":0.3,"bonusSoFar":3.58,"totalExamples":20},{"rt":10857,"response":{"heads":"2","tails":"8"},"type":"response","condition":"nonSeqFull","trueTheta":0.2,"classrooms":["A","B"],"studentTrueClassroom":"B","exampleSet":"first","trial_type":"survey-html-form","trial_index":99,"time_elapsed":838435,"internal_node_id":"0.0-96.0-0.0","params":{"nStudents":24,"maxFlips":30,"completionMinutes":45,"basePay":8,"maxBonus":9,"perTrialBonus":0.5,"perTrialBonusThreshold":0.1,"exampleCost":0.01},"classroomParams":{"A":{"a":1,"b":4},"B":{"a":4,"b":1},"C":{"a":2,"b":8},"D":{"a":8,"b":2}},"conditions":["nonSeqFull","nonSeqPartial","seqNoFeedback","seqFeedback"],"classroomPairings":[["A","B"],["C","D"]],"coinWeights":[0.2,0.5,0.8],"subjectId":"A2FGKKWP33DFWS","assignmentId":"3ZDAD0O1T2ZKRQKDZTHZIHEQU0MXTS","hitId":"3YGE63DIN8J20XK20KS1742RQF60WK","url":"https://gershmanlab.com/experiments/alicia/teaching/experiment/?hitId=3YGE63DIN8J20XK20KS1742RQF60WK&workerId=A2FGKKWP33DFWS&assignmentId=3ZDAD0O1T2ZKRQKDZTHZIHEQU0MXTS&a=1DDZ8&tp_a=1DDZ8&b=3ZDAD0O1T2ZKRQKDZTHZIHEQU0MXTS&tp_b=3ZDAD0O1T2ZKRQKDZTHZIHEQU0MXTS&c=365198&tp_c=365198","heads":2,"tails":8,"studentIndex":11,"studentTrueHypers":{"a":4,"b":1},"studentGuess":0.4,"delta":0.2,"totalExamples":10,"bonus":0,"bonusSoFar":3.58},{"rt":9143,"response":{"heads":"8","tails":"2"},"type":"response","condition":"nonSeqPartial","trueTheta":0.8,"classrooms":["A","B"],"studentTrueClassroom":"B","exampleSet":"first","trial_type":"survey-html-form","trial_index":105,"time_elapsed":863282,"internal_node_id":"0.0-102.0-0.0","params":{"nStudents":24,"maxFlips":30,"completionMinutes":45,"basePay":8,"maxBonus":9,"perTrialBonus":0.5,"perTrialBonusThreshold":0.1,"exampleCost":0.01},"classroomParams":{"A":{"a":1,"b":4},"B":{"a":4,"b":1},"C":{"a":2,"b":8},"D":{"a":8,"b":2}},"conditions":["nonSeqFull","nonSeqPartial","seqNoFeedback","seqFeedback"],"classroomPairings":[["A","B"],["C","D"]],"coinWeights":[0.2,0.5,0.8],"subjectId":"A2FGKKWP33DFWS","assignmentId":"3ZDAD0O1T2ZKRQKDZTHZIHEQU0MXTS","hitId":"3YGE63DIN8J20XK20KS1742RQF60WK","url":"https://gershmanlab.com/experiments/alicia/teaching/experiment/?hitId=3YGE63DIN8J20XK20KS1742RQF60WK&workerId=A2FGKKWP33DFWS&assignmentId=3ZDAD0O1T2ZKRQKDZTHZIHEQU0MXTS&a=1DDZ8&tp_a=1DDZ8&b=3ZDAD0O1T2ZKRQKDZTHZIHEQU0MXTS&tp_b=3ZDAD0O1T2ZKRQKDZTHZIHEQU0MXTS&c=365198&tp_c=365198","heads":8,"tails":2,"studentIndex":12,"studentTrueHypers":{"a":4,"b":1},"studentGuess":0.8,"delta":0,"totalExamples":10,"bonus":0.4,"bonusSoFar":3.98},{"rt":8791,"response":{"heads":"5","tails":"5"},"type":"response","condition":"seqFeedback","trueTheta":0.5,"classrooms":["C","D"],"studentTrueClassroom":"C","exampleSet":"first","trial_type":"survey-html-form","trial_index":111,"time_elapsed":889413,"internal_node_id":"0.0-108.0-0.0","params":{"nStudents":24,"maxFlips":30,"completionMinutes":45,"basePay":8,"maxBonus":9,"perTrialBonus":0.5,"perTrialBonusThreshold":0.1,"exampleCost":0.01},"classroomParams":{"A":{"a":1,"b":4},"B":{"a":4,"b":1},"C":{"a":2,"b":8},"D":{"a":8,"b":2}},"conditions":["nonSeqFull","nonSeqPartial","seqNoFeedback","seqFeedback"],"classroomPairings":[["A","B"],["C","D"]],"coinWeights":[0.2,0.5,0.8],"subjectId":"A2FGKKWP33DFWS","assignmentId":"3ZDAD0O1T2ZKRQKDZTHZIHEQU0MXTS","hitId":"3YGE63DIN8J20XK20KS1742RQF60WK","url":"https://gershmanlab.com/experiments/alicia/teaching/experiment/?hitId=3YGE63DIN8J20XK20KS1742RQF60WK&workerId=A2FGKKWP33DFWS&assignmentId=3ZDAD0O1T2ZKRQKDZTHZIHEQU0MXTS&a=1DDZ8&tp_a=1DDZ8&b=3ZDAD0O1T2ZKRQKDZTHZIHEQU0MXTS&tp_b=3ZDAD0O1T2ZKRQKDZTHZIHEQU0MXTS&c=365198&tp_c=365198","heads":5,"tails":5,"studentIndex":13,"studentTrueHypers":{"a":2,"b":8},"studentGuess":0.35,"delta":0.15000000000000002,"totalExamples":10,"bonusSoFar":3.98},{"rt":8445,"response":{"heads":"5","tails":"5"},"type":"response","condition":"seqFeedback","trueTheta":0.5,"classrooms":["C","D"],"studentTrueClassroom":"C","exampleSet":"second","trial_type":"survey-html-form","trial_index":115,"time_elapsed":908700,"internal_node_id":"0.0-112.0-0.0","params":{"nStudents":24,"maxFlips":30,"completionMinutes":45,"basePay":8,"maxBonus":9,"perTrialBonus":0.5,"perTrialBonusThreshold":0.1,"exampleCost":0.01},"classroomParams":{"A":{"a":1,"b":4},"B":{"a":4,"b":1},"C":{"a":2,"b":8},"D":{"a":8,"b":2}},"conditions":["nonSeqFull","nonSeqPartial","seqNoFeedback","seqFeedback"],"classroomPairings":[["A","B"],["C","D"]],"coinWeights":[0.2,0.5,0.8],"subjectId":"A2FGKKWP33DFWS","assignmentId":"3ZDAD0O1T2ZKRQKDZTHZIHEQU0MXTS","hitId":"3YGE63DIN8J20XK20KS1742RQF60WK","url":"https://gershmanlab.com/experiments/alicia/teaching/experiment/?hitId=3YGE63DIN8J20XK20KS1742RQF60WK&workerId=A2FGKKWP33DFWS&assignmentId=3ZDAD0O1T2ZKRQKDZTHZIHEQU0MXTS&a=1DDZ8&tp_a=1DDZ8&b=3ZDAD0O1T2ZKRQKDZTHZIHEQU0MXTS&tp_b=3ZDAD0O1T2ZKRQKDZTHZIHEQU0MXTS&c=365198&tp_c=365198","firstResponseHeads":5,"firstResponseTails":5,"secondResponseHeads":5,"secondResponseTails":5,"studentIndex":13,"studentTrueHypers":{"a":2,"b":8},"studentGuess":0.4,"delta":0.09999999999999998,"bonus":0.3,"bonusSoFar":4.28,"totalExamples":20},{"rt":8357,"response":{"heads":"2","tails":"8"},"type":"response","condition":"seqNoFeedback","trueTheta":0.2,"classrooms":["C","D"],"studentTrueClassroom":"C","exampleSet":"first","trial_type":"survey-html-form","trial_index":121,"time_elapsed":935784,"internal_node_id":"0.0-118.0-0.0","params":{"nStudents":24,"maxFlips":30,"completionMinutes":45,"basePay":8,"maxBonus":9,"perTrialBonus":0.5,"perTrialBonusThreshold":0.1,"exampleCost":0.01},"classroomParams":{"A":{"a":1,"b":4},"B":{"a":4,"b":1},"C":{"a":2,"b":8},"D":{"a":8,"b":2}},"conditions":["nonSeqFull","nonSeqPartial","seqNoFeedback","seqFeedback"],"classroomPairings":[["A","B"],["C","D"]],"coinWeights":[0.2,0.5,0.8],"subjectId":"A2FGKKWP33DFWS","assignmentId":"3ZDAD0O1T2ZKRQKDZTHZIHEQU0MXTS","hitId":"3YGE63DIN8J20XK20KS1742RQF60WK","url":"https://gershmanlab.com/experiments/alicia/teaching/experiment/?hitId=3YGE63DIN8J20XK20KS1742RQF60WK&workerId=A2FGKKWP33DFWS&assignmentId=3ZDAD0O1T2ZKRQKDZTHZIHEQU0MXTS&a=1DDZ8&tp_a=1DDZ8&b=3ZDAD0O1T2ZKRQKDZTHZIHEQU0MXTS&tp_b=3ZDAD0O1T2ZKRQKDZTHZIHEQU0MXTS&c=365198&tp_c=365198","heads":2,"tails":8,"studentIndex":14,"studentTrueHypers":{"a":2,"b":8},"studentGuess":0.2,"delta":0,"totalExamples":10,"bonusSoFar":4.28},{"rt":12737,"response":{"heads":"2","tails":"8"},"type":"response","condition":"seqNoFeedback","trueTheta":0.2,"classrooms":["C","D"],"studentTrueClassroom":"C","exampleSet":"second","trial_type":"survey-html-form","trial_index":124,"time_elapsed":953784,"internal_node_id":"0.0-121.0-0.0","params":{"nStudents":24,"maxFlips":30,"completionMinutes":45,"basePay":8,"maxBonus":9,"perTrialBonus":0.5,"perTrialBonusThreshold":0.1,"exampleCost":0.01},"classroomParams":{"A":{"a":1,"b":4},"B":{"a":4,"b":1},"C":{"a":2,"b":8},"D":{"a":8,"b":2}},"conditions":["nonSeqFull","nonSeqPartial","seqNoFeedback","seqFeedback"],"classroomPairings":[["A","B"],["C","D"]],"coinWeights":[0.2,0.5,0.8],"subjectId":"A2FGKKWP33DFWS","assignmentId":"3ZDAD0O1T2ZKRQKDZTHZIHEQU0MXTS","hitId":"3YGE63DIN8J20XK20KS1742RQF60WK","url":"https://gershmanlab.com/experiments/alicia/teaching/experiment/?hitId=3YGE63DIN8J20XK20KS1742RQF60WK&workerId=A2FGKKWP33DFWS&assignmentId=3ZDAD0O1T2ZKRQKDZTHZIHEQU0MXTS&a=1DDZ8&tp_a=1DDZ8&b=3ZDAD0O1T2ZKRQKDZTHZIHEQU0MXTS&tp_b=3ZDAD0O1T2ZKRQKDZTHZIHEQU0MXTS&c=365198&tp_c=365198","firstResponseHeads":2,"firstResponseTails":8,"secondResponseHeads":2,"secondResponseTails":8,"studentIndex":14,"studentTrueHypers":{"a":2,"b":8},"studentGuess":0.2,"delta":0,"bonus":0.3,"bonusSoFar":4.58,"totalExamples":20},{"rt":9338,"response":{"heads":"2","tails":"8"},"type":"response","condition":"nonSeqPartial","trueTheta":0.2,"classrooms":["C","D"],"studentTrueClassroom":"C","exampleSet":"first","trial_type":"survey-html-form","trial_index":130,"time_elapsed":984796,"internal_node_id":"0.0-127.0-0.0","params":{"nStudents":24,"maxFlips":30,"completionMinutes":45,"basePay":8,"maxBonus":9,"perTrialBonus":0.5,"perTrialBonusThreshold":0.1,"exampleCost":0.01},"classroomParams":{"A":{"a":1,"b":4},"B":{"a":4,"b":1},"C":{"a":2,"b":8},"D":{"a":8,"b":2}},"conditions":["nonSeqFull","nonSeqPartial","seqNoFeedback","seqFeedback"],"classroomPairings":[["A","B"],["C","D"]],"coinWeights":[0.2,0.5,0.8],"subjectId":"A2FGKKWP33DFWS","assignmentId":"3ZDAD0O1T2ZKRQKDZTHZIHEQU0MXTS","hitId":"3YGE63DIN8J20XK20KS1742RQF60WK","url":"https://gershmanlab.com/experiments/alicia/teaching/experiment/?hitId=3YGE63DIN8J20XK20KS1742RQF60WK&workerId=A2FGKKWP33DFWS&assignmentId=3ZDAD0O1T2ZKRQKDZTHZIHEQU0MXTS&a=1DDZ8&tp_a=1DDZ8&b=3ZDAD0O1T2ZKRQKDZTHZIHEQU0MXTS&tp_b=3ZDAD0O1T2ZKRQKDZTHZIHEQU0MXTS&c=365198&tp_c=365198","heads":2,"tails":8,"studentIndex":15,"studentTrueHypers":{"a":2,"b":8},"studentGuess":0.2,"delta":0,"totalExamples":10,"bonus":0.4,"bonusSoFar":4.98},{"rt":9671,"response":{"heads":"8","tails":"2"},"type":"response","condition":"seqFeedback","trueTheta":0.8,"classrooms":["A","B"],"studentTrueClassroom":"B","exampleSet":"first","trial_type":"survey-html-form","trial_index":136,"time_elapsed":1009822,"internal_node_id":"0.0-133.0-0.0","params":{"nStudents":24,"maxFlips":30,"completionMinutes":45,"basePay":8,"maxBonus":9,"perTrialBonus":0.5,"perTrialBonusThreshold":0.1,"exampleCost":0.01},"classroomParams":{"A":{"a":1,"b":4},"B":{"a":4,"b":1},"C":{"a":2,"b":8},"D":{"a":8,"b":2}},"conditions":["nonSeqFull","nonSeqPartial","seqNoFeedback","seqFeedback"],"classroomPairings":[["A","B"],["C","D"]],"coinWeights":[0.2,0.5,0.8],"subjectId":"A2FGKKWP33DFWS","assignmentId":"3ZDAD0O1T2ZKRQKDZTHZIHEQU0MXTS","hitId":"3YGE63DIN8J20XK20KS1742RQF60WK","url":"https://gershmanlab.com/experiments/alicia/teaching/experiment/?hitId=3YGE63DIN8J20XK20KS1742RQF60WK&workerId=A2FGKKWP33DFWS&assignmentId=3ZDAD0O1T2ZKRQKDZTHZIHEQU0MXTS&a=1DDZ8&tp_a=1DDZ8&b=3ZDAD0O1T2ZKRQKDZTHZIHEQU0MXTS&tp_b=3ZDAD0O1T2ZKRQKDZTHZIHEQU0MXTS&c=365198&tp_c=365198","heads":8,"tails":2,"studentIndex":16,"studentTrueHypers":{"a":4,"b":1},"studentGuess":0.8,"delta":0,"totalExamples":10,"bonusSoFar":4.98},{"rt":9161,"response":{"heads":"8","tails":"2"},"type":"response","condition":"seqFeedback","trueTheta":0.8,"classrooms":["A","B"],"studentTrueClassroom":"B","exampleSet":"second","trial_type":"survey-html-form","trial_index":140,"time_elapsed":1029756,"internal_node_id":"0.0-137.0-0.0","params":{"nStudents":24,"maxFlips":30,"completionMinutes":45,"basePay":8,"maxBonus":9,"perTrialBonus":0.5,"perTrialBonusThreshold":0.1,"exampleCost":0.01},"classroomParams":{"A":{"a":1,"b":4},"B":{"a":4,"b":1},"C":{"a":2,"b":8},"D":{"a":8,"b":2}},"conditions":["nonSeqFull","nonSeqPartial","seqNoFeedback","seqFeedback"],"classroomPairings":[["A","B"],["C","D"]],"coinWeights":[0.2,0.5,0.8],"subjectId":"A2FGKKWP33DFWS","assignmentId":"3ZDAD0O1T2ZKRQKDZTHZIHEQU0MXTS","hitId":"3YGE63DIN8J20XK20KS1742RQF60WK","url":"https://gershmanlab.com/experiments/alicia/teaching/experiment/?hitId=3YGE63DIN8J20XK20KS1742RQF60WK&workerId=A2FGKKWP33DFWS&assignmentId=3ZDAD0O1T2ZKRQKDZTHZIHEQU0MXTS&a=1DDZ8&tp_a=1DDZ8&b=3ZDAD0O1T2ZKRQKDZTHZIHEQU0MXTS&tp_b=3ZDAD0O1T2ZKRQKDZTHZIHEQU0MXTS&c=365198&tp_c=365198","firstResponseHeads":8,"firstResponseTails":2,"secondResponseHeads":8,"secondResponseTails":2,"studentIndex":16,"studentTrueHypers":{"a":4,"b":1},"studentGuess":0.8,"delta":0,"bonus":0.3,"bonusSoFar":5.28,"totalExamples":20},{"rt":10567,"response":{"heads":"8","tails":"2"},"type":"response","condition":"nonSeqFull","trueTheta":0.8,"classrooms":["A","B"],"studentTrueClassroom":"A","exampleSet":"first","trial_type":"survey-html-form","trial_index":146,"time_elapsed":1061986,"internal_node_id":"0.0-143.0-0.0","params":{"nStudents":24,"maxFlips":30,"completionMinutes":45,"basePay":8,"maxBonus":9,"perTrialBonus":0.5,"perTrialBonusThreshold":0.1,"exampleCost":0.01},"classroomParams":{"A":{"a":1,"b":4},"B":{"a":4,"b":1},"C":{"a":2,"b":8},"D":{"a":8,"b":2}},"conditions":["nonSeqFull","nonSeqPartial","seqNoFeedback","seqFeedback"],"classroomPairings":[["A","B"],["C","D"]],"coinWeights":[0.2,0.5,0.8],"subjectId":"A2FGKKWP33DFWS","assignmentId":"3ZDAD0O1T2ZKRQKDZTHZIHEQU0MXTS","hitId":"3YGE63DIN8J20XK20KS1742RQF60WK","url":"https://gershmanlab.com/experiments/alicia/teaching/experiment/?hitId=3YGE63DIN8J20XK20KS1742RQF60WK&workerId=A2FGKKWP33DFWS&assignmentId=3ZDAD0O1T2ZKRQKDZTHZIHEQU0MXTS&a=1DDZ8&tp_a=1DDZ8&b=3ZDAD0O1T2ZKRQKDZTHZIHEQU0MXTS&tp_b=3ZDAD0O1T2ZKRQKDZTHZIHEQU0MXTS&c=365198&tp_c=365198","heads":8,"tails":2,"studentIndex":17,"studentTrueHypers":{"a":1,"b":4},"studentGuess":0.6,"delta":0.20000000000000007,"totalExamples":10,"bonus":0,"bonusSoFar":5.28},{"rt":9596,"response":{"heads":"5","tails":"5"},"type":"response","condition":"nonSeqPartial","trueTheta":0.5,"classrooms":["C","D"],"studentTrueClassroom":"C","exampleSet":"first","trial_type":"survey-html-form","trial_index":152,"time_elapsed":1087992,"internal_node_id":"0.0-149.0-0.0","params":{"nStudents":24,"maxFlips":30,"completionMinutes":45,"basePay":8,"maxBonus":9,"perTrialBonus":0.5,"perTrialBonusThreshold":0.1,"exampleCost":0.01},"classroomParams":{"A":{"a":1,"b":4},"B":{"a":4,"b":1},"C":{"a":2,"b":8},"D":{"a":8,"b":2}},"conditions":["nonSeqFull","nonSeqPartial","seqNoFeedback","seqFeedback"],"classroomPairings":[["A","B"],["C","D"]],"coinWeights":[0.2,0.5,0.8],"subjectId":"A2FGKKWP33DFWS","assignmentId":"3ZDAD0O1T2ZKRQKDZTHZIHEQU0MXTS","hitId":"3YGE63DIN8J20XK20KS1742RQF60WK","url":"https://gershmanlab.com/experiments/alicia/teaching/experiment/?hitId=3YGE63DIN8J20XK20KS1742RQF60WK&workerId=A2FGKKWP33DFWS&assignmentId=3ZDAD0O1T2ZKRQKDZTHZIHEQU0MXTS&a=1DDZ8&tp_a=1DDZ8&b=3ZDAD0O1T2ZKRQKDZTHZIHEQU0MXTS&tp_b=3ZDAD0O1T2ZKRQKDZTHZIHEQU0MXTS&c=365198&tp_c=365198","heads":5,"tails":5,"studentIndex":18,"studentTrueHypers":{"a":2,"b":8},"studentGuess":0.35,"delta":0.15000000000000002,"totalExamples":10,"bonus":0,"bonusSoFar":5.28},{"rt":8204,"response":{"heads":"5","tails":"5"},"type":"response","condition":"nonSeqFull","trueTheta":0.5,"classrooms":["C","D"],"studentTrueClassroom":"C","exampleSet":"first","trial_type":"survey-html-form","trial_index":158,"time_elapsed":1115624,"internal_node_id":"0.0-155.0-0.0","params":{"nStudents":24,"maxFlips":30,"completionMinutes":45,"basePay":8,"maxBonus":9,"perTrialBonus":0.5,"perTrialBonusThreshold":0.1,"exampleCost":0.01},"classroomParams":{"A":{"a":1,"b":4},"B":{"a":4,"b":1},"C":{"a":2,"b":8},"D":{"a":8,"b":2}},"conditions":["nonSeqFull","nonSeqPartial","seqNoFeedback","seqFeedback"],"classroomPairings":[["A","B"],["C","D"]],"coinWeights":[0.2,0.5,0.8],"subjectId":"A2FGKKWP33DFWS","assignmentId":"3ZDAD0O1T2ZKRQKDZTHZIHEQU0MXTS","hitId":"3YGE63DIN8J20XK20KS1742RQF60WK","url":"https://gershmanlab.com/experiments/alicia/teaching/experiment/?hitId=3YGE63DIN8J20XK20KS1742RQF60WK&workerId=A2FGKKWP33DFWS&assignmentId=3ZDAD0O1T2ZKRQKDZTHZIHEQU0MXTS&a=1DDZ8&tp_a=1DDZ8&b=3ZDAD0O1T2ZKRQKDZTHZIHEQU0MXTS&tp_b=3ZDAD0O1T2ZKRQKDZTHZIHEQU0MXTS&c=365198&tp_c=365198","heads":5,"tails":5,"studentIndex":19,"studentTrueHypers":{"a":2,"b":8},"studentGuess":0.35,"delta":0.15000000000000002,"totalExamples":10,"bonus":0,"bonusSoFar":5.28},{"rt":11797,"response":{"heads":"8","tails":"2"},"type":"response","condition":"nonSeqFull","trueTheta":0.8,"classrooms":["C","D"],"studentTrueClassroom":"C","exampleSet":"first","trial_type":"survey-html-form","trial_index":164,"time_elapsed":1144066,"internal_node_id":"0.0-161.0-0.0","params":{"nStudents":24,"maxFlips":30,"completionMinutes":45,"basePay":8,"maxBonus":9,"perTrialBonus":0.5,"perTrialBonusThreshold":0.1,"exampleCost":0.01},"classroomParams":{"A":{"a":1,"b":4},"B":{"a":4,"b":1},"C":{"a":2,"b":8},"D":{"a":8,"b":2}},"conditions":["nonSeqFull","nonSeqPartial","seqNoFeedback","seqFeedback"],"classroomPairings":[["A","B"],["C","D"]],"coinWeights":[0.2,0.5,0.8],"subjectId":"A2FGKKWP33DFWS","assignmentId":"3ZDAD0O1T2ZKRQKDZTHZIHEQU0MXTS","hitId":"3YGE63DIN8J20XK20KS1742RQF60WK","url":"https://gershmanlab.com/experiments/alicia/teaching/experiment/?hitId=3YGE63DIN8J20XK20KS1742RQF60WK&workerId=A2FGKKWP33DFWS&assignmentId=3ZDAD0O1T2ZKRQKDZTHZIHEQU0MXTS&a=1DDZ8&tp_a=1DDZ8&b=3ZDAD0O1T2ZKRQKDZTHZIHEQU0MXTS&tp_b=3ZDAD0O1T2ZKRQKDZTHZIHEQU0MXTS&c=365198&tp_c=365198","heads":8,"tails":2,"studentIndex":20,"studentTrueHypers":{"a":2,"b":8},"studentGuess":0.5,"delta":0.30000000000000004,"totalExamples":10,"bonus":0,"bonusSoFar":5.28},{"rt":8943,"response":{"heads":"5","tails":"5"},"type":"response","condition":"nonSeqFull","trueTheta":0.5,"classrooms":["A","B"],"studentTrueClassroom":"B","exampleSet":"first","trial_type":"survey-html-form","trial_index":170,"time_elapsed":1167784,"internal_node_id":"0.0-167.0-0.0","params":{"nStudents":24,"maxFlips":30,"completionMinutes":45,"basePay":8,"maxBonus":9,"perTrialBonus":0.5,"perTrialBonusThreshold":0.1,"exampleCost":0.01},"classroomParams":{"A":{"a":1,"b":4},"B":{"a":4,"b":1},"C":{"a":2,"b":8},"D":{"a":8,"b":2}},"conditions":["nonSeqFull","nonSeqPartial","seqNoFeedback","seqFeedback"],"classroomPairings":[["A","B"],["C","D"]],"coinWeights":[0.2,0.5,0.8],"subjectId":"A2FGKKWP33DFWS","assignmentId":"3ZDAD0O1T2ZKRQKDZTHZIHEQU0MXTS","hitId":"3YGE63DIN8J20XK20KS1742RQF60WK","url":"https://gershmanlab.com/experiments/alicia/teaching/experiment/?hitId=3YGE63DIN8J20XK20KS1742RQF60WK&workerId=A2FGKKWP33DFWS&assignmentId=3ZDAD0O1T2ZKRQKDZTHZIHEQU0MXTS&a=1DDZ8&tp_a=1DDZ8&b=3ZDAD0O1T2ZKRQKDZTHZIHEQU0MXTS&tp_b=3ZDAD0O1T2ZKRQKDZTHZIHEQU0MXTS&c=365198&tp_c=365198","heads":5,"tails":5,"studentIndex":21,"studentTrueHypers":{"a":4,"b":1},"studentGuess":0.6,"delta":0.09999999999999998,"totalExamples":10,"bonus":0.4,"bonusSoFar":5.68},{"rt":10201,"response":{"heads":"8","tails":"2"},"type":"response","condition":"seqFeedback","trueTheta":0.2,"classrooms":["C","D"],"studentTrueClassroom":"C","exampleSet":"first","trial_type":"survey-html-form","trial_index":176,"time_elapsed":1194670,"internal_node_id":"0.0-173.0-0.0","params":{"nStudents":24,"maxFlips":30,"completionMinutes":45,"basePay":8,"maxBonus":9,"perTrialBonus":0.5,"perTrialBonusThreshold":0.1,"exampleCost":0.01},"classroomParams":{"A":{"a":1,"b":4},"B":{"a":4,"b":1},"C":{"a":2,"b":8},"D":{"a":8,"b":2}},"conditions":["nonSeqFull","nonSeqPartial","seqNoFeedback","seqFeedback"],"classroomPairings":[["A","B"],["C","D"]],"coinWeights":[0.2,0.5,0.8],"subjectId":"A2FGKKWP33DFWS","assignmentId":"3ZDAD0O1T2ZKRQKDZTHZIHEQU0MXTS","hitId":"3YGE63DIN8J20XK20KS1742RQF60WK","url":"https://gershmanlab.com/experiments/alicia/teaching/experiment/?hitId=3YGE63DIN8J20XK20KS1742RQF60WK&workerId=A2FGKKWP33DFWS&assignmentId=3ZDAD0O1T2ZKRQKDZTHZIHEQU0MXTS&a=1DDZ8&tp_a=1DDZ8&b=3ZDAD0O1T2ZKRQKDZTHZIHEQU0MXTS&tp_b=3ZDAD0O1T2ZKRQKDZTHZIHEQU0MXTS&c=365198&tp_c=365198","heads":8,"tails":2,"studentIndex":22,"studentTrueHypers":{"a":2,"b":8},"studentGuess":0.5,"delta":0.3,"totalExamples":10,"bonusSoFar":5.68},{"rt":8830,"response":{"heads":"8","tails":"2"},"type":"response","condition":"seqFeedback","trueTheta":0.2,"classrooms":["C","D"],"studentTrueClassroom":"C","exampleSet":"second","trial_type":"survey-html-form","trial_index":180,"time_elapsed":1214794,"internal_node_id":"0.0-177.0-0.0","params":{"nStudents":24,"maxFlips":30,"completionMinutes":45,"basePay":8,"maxBonus":9,"perTrialBonus":0.5,"perTrialBonusThreshold":0.1,"exampleCost":0.01},"classroomParams":{"A":{"a":1,"b":4},"B":{"a":4,"b":1},"C":{"a":2,"b":8},"D":{"a":8,"b":2}},"conditions":["nonSeqFull","nonSeqPartial","seqNoFeedback","seqFeedback"],"classroomPairings":[["A","B"],["C","D"]],"coinWeights":[0.2,0.5,0.8],"subjectId":"A2FGKKWP33DFWS","assignmentId":"3ZDAD0O1T2ZKRQKDZTHZIHEQU0MXTS","hitId":"3YGE63DIN8J20XK20KS1742RQF60WK","url":"https://gershmanlab.com/experiments/alicia/teaching/experiment/?hitId=3YGE63DIN8J20XK20KS1742RQF60WK&workerId=A2FGKKWP33DFWS&assignmentId=3ZDAD0O1T2ZKRQKDZTHZIHEQU0MXTS&a=1DDZ8&tp_a=1DDZ8&b=3ZDAD0O1T2ZKRQKDZTHZIHEQU0MXTS&tp_b=3ZDAD0O1T2ZKRQKDZTHZIHEQU0MXTS&c=365198&tp_c=365198","firstResponseHeads":8,"firstResponseTails":2,"secondResponseHeads":8,"secondResponseTails":2,"studentIndex":22,"studentTrueHypers":{"a":2,"b":8},"studentGuess":0.6,"delta":0.39999999999999997,"bonus":0,"bonusSoFar":5.68,"totalExamples":20},{"rt":8713,"response":{"heads":"8","tails":"2"},"type":"response","condition":"seqNoFeedback","trueTheta":0.8,"classrooms":["A","B"],"studentTrueClassroom":"A","exampleSet":"first","trial_type":"survey-html-form","trial_index":186,"time_elapsed":1240114,"internal_node_id":"0.0-183.0-0.0","params":{"nStudents":24,"maxFlips":30,"completionMinutes":45,"basePay":8,"maxBonus":9,"perTrialBonus":0.5,"perTrialBonusThreshold":0.1,"exampleCost":0.01},"classroomParams":{"A":{"a":1,"b":4},"B":{"a":4,"b":1},"C":{"a":2,"b":8},"D":{"a":8,"b":2}},"conditions":["nonSeqFull","nonSeqPartial","seqNoFeedback","seqFeedback"],"classroomPairings":[["A","B"],["C","D"]],"coinWeights":[0.2,0.5,0.8],"subjectId":"A2FGKKWP33DFWS","assignmentId":"3ZDAD0O1T2ZKRQKDZTHZIHEQU0MXTS","hitId":"3YGE63DIN8J20XK20KS1742RQF60WK","url":"https://gershmanlab.com/experiments/alicia/teaching/experiment/?hitId=3YGE63DIN8J20XK20KS1742RQF60WK&workerId=A2FGKKWP33DFWS&assignmentId=3ZDAD0O1T2ZKRQKDZTHZIHEQU0MXTS&a=1DDZ8&tp_a=1DDZ8&b=3ZDAD0O1T2ZKRQKDZTHZIHEQU0MXTS&tp_b=3ZDAD0O1T2ZKRQKDZTHZIHEQU0MXTS&c=365198&tp_c=365198","heads":8,"tails":2,"studentIndex":23,"studentTrueHypers":{"a":1,"b":4},"studentGuess":0.6,"delta":0.20000000000000007,"totalExamples":10,"bonusSoFar":5.68},{"rt":10867,"response":{"heads":"8","tails":"2"},"type":"response","condition":"seqNoFeedback","trueTheta":0.8,"classrooms":["A","B"],"studentTrueClassroom":"A","exampleSet":"second","trial_type":"survey-html-form","trial_index":189,"time_elapsed":1256992,"internal_node_id":"0.0-186.0-0.0","params":{"nStudents":24,"maxFlips":30,"completionMinutes":45,"basePay":8,"maxBonus":9,"perTrialBonus":0.5,"perTrialBonusThreshold":0.1,"exampleCost":0.01},"classroomParams":{"A":{"a":1,"b":4},"B":{"a":4,"b":1},"C":{"a":2,"b":8},"D":{"a":8,"b":2}},"conditions":["nonSeqFull","nonSeqPartial","seqNoFeedback","seqFeedback"],"classroomPairings":[["A","B"],["C","D"]],"coinWeights":[0.2,0.5,0.8],"subjectId":"A2FGKKWP33DFWS","assignmentId":"3ZDAD0O1T2ZKRQKDZTHZIHEQU0MXTS","hitId":"3YGE63DIN8J20XK20KS1742RQF60WK","url":"https://gershmanlab.com/experiments/alicia/teaching/experiment/?hitId=3YGE63DIN8J20XK20KS1742RQF60WK&workerId=A2FGKKWP33DFWS&assignmentId=3ZDAD0O1T2ZKRQKDZTHZIHEQU0MXTS&a=1DDZ8&tp_a=1DDZ8&b=3ZDAD0O1T2ZKRQKDZTHZIHEQU0MXTS&tp_b=3ZDAD0O1T2ZKRQKDZTHZIHEQU0MXTS&c=365198&tp_c=365198","firstResponseHeads":8,"firstResponseTails":2,"secondResponseHeads":8,"secondResponseTails":2,"studentIndex":23,"studentTrueHypers":{"a":1,"b":4},"studentGuess":0.68,"delta":0.12,"bonus":0,"bonusSoFar":5.68,"totalExamples":20},{"rt":20718,"response":{"gender":"male","age":"53","understood":"yes","comments":""},"type":"response","trial_type":"survey-html-form","trial_index":193,"time_elapsed":1288146,"internal_node_id":"0.0-191.0","params":{"nStudents":24,"maxFlips":30,"completionMinutes":45,"basePay":8,"maxBonus":9,"perTrialBonus":0.5,"perTrialBonusThreshold":0.1,"exampleCost":0.01},"classroomParams":{"A":{"a":1,"b":4},"B":{"a":4,"b":1},"C":{"a":2,"b":8},"D":{"a":8,"b":2}},"conditions":["nonSeqFull","nonSeqPartial","seqNoFeedback","seqFeedback"],"classroomPairings":[["A","B"],["C","D"]],"coinWeights":[0.2,0.5,0.8],"subjectId":"A2FGKKWP33DFWS","assignmentId":"3ZDAD0O1T2ZKRQKDZTHZIHEQU0MXTS","hitId":"3YGE63DIN8J20XK20KS1742RQF60WK","url":"https://gershmanlab.com/experiments/alicia/teaching/experiment/?hitId=3YGE63DIN8J20XK20KS1742RQF60WK&workerId=A2FGKKWP33DFWS&assignmentId=3ZDAD0O1T2ZKRQKDZTHZIHEQU0MXTS&a=1DDZ8&tp_a=1DDZ8&b=3ZDAD0O1T2ZKRQKDZTHZIHEQU0MXTS&tp_b=3ZDAD0O1T2ZKRQKDZTHZIHEQU0MXTS&c=365198&tp_c=365198","totalBonus":5.68}]