[{"rt":34123,"response":{"heads":"2","tails":"8"},"type":"response","condition":"nonSeqFull","trueTheta":0.2,"classrooms":["C","D"],"studentTrueClassroom":"D","exampleSet":"first","trial_type":"survey-html-form","trial_index":19,"time_elapsed":542946,"internal_node_id":"0.0-6.0-0.0","params":{"nStudents":24,"maxFlips":30,"completionMinutes":45,"basePay":8,"maxBonus":9,"perTrialBonus":0.5,"perTrialBonusThreshold":0.1,"exampleCost":0.01},"classroomParams":{"A":{"a":1,"b":4},"B":{"a":4,"b":1},"C":{"a":2,"b":8},"D":{"a":8,"b":2}},"conditions":["nonSeqFull","nonSeqPartial","seqNoFeedback","seqFeedback"],"classroomPairings":[["A","B"],["C","D"]],"coinWeights":[0.2,0.5,0.8],"subjectId":"A2I43BDUPAM00C","assignmentId":"3EA3QWIZ4JHN1VVI07HYF7RB6NIITD","hitId":"341H3G5YF006USP7B7C868W97H9Z08","url":"https://gershmanlab.com/experiments/alicia/teaching/experiment/?hitId=341H3G5YF006USP7B7C868W97H9Z08&workerId=A2I43BDUPAM00C&assignmentId=3EA3QWIZ4JHN1VVI07HYF7RB6NIITD&a=ZQAE8&tp_a=ZQAE8&b=3EA3QWIZ4JHN1VVI07HYF7RB6NIITD&tp_b=3EA3QWIZ4JHN1VVI07HYF7RB6NIITD&c=365198&tp_c=365198","heads":2,"tails":8,"studentIndex":0,"studentTrueHypers":{"a":8,"b":2},"studentGuess":0.5,"delta":0.3,"totalExamples":10,"bonus":0,"bonusSoFar":0},{"rt":15917,"response":{"heads":"5","tails":"5"},"type":"response","condition":"nonSeqPartial","trueTheta":0.5,"classrooms":["A","B"],"studentTrueClassroom":"A","exampleSet":"first","trial_type":"survey-html-form","trial_index":25,"time_elapsed":578398,"internal_node_id":"0.0-12.0-0.0","params":{"nStudents":24,"maxFlips":30,"completionMinutes":45,"basePay":8,"maxBonus":9,"perTrialBonus":0.5,"perTrialBonusThreshold":0.1,"exampleCost":0.01},"classroomParams":{"A":{"a":1,"b":4},"B":{"a":4,"b":1},"C":{"a":2,"b":8},"D":{"a":8,"b":2}},"conditions":["nonSeqFull","nonSeqPartial","seqNoFeedback","seqFeedback"],"classroomPairings":[["A","B"],["C","D"]],"coinWeights":[0.2,0.5,0.8],"subjectId":"A2I43BDUPAM00C","assignmentId":"3EA3QWIZ4JHN1VVI07HYF7RB6NIITD","hitId":"341H3G5YF006USP7B7C868W97H9Z08","url":"https://gershmanlab.com/experiments/alicia/teaching/experiment/?hitId=341H3G5YF006USP7B7C868W97H9Z08&workerId=A2I43BDUPAM00C&assignmentId=3EA3QWIZ4JHN1VVI07HYF7RB6NIITD&a=ZQAE8&tp_a=ZQAE8&b=3EA3QWIZ4JHN1VVI07HYF7RB6NIITD&tp_b=3EA3QWIZ4JHN1VVI07HYF7RB6NIITD&c=365198&tp_c=365198","heads":5,"tails":5,"studentIndex":1,"studentTrueHypers":{"a":1,"b":4},"studentGuess":0.4,"delta":0.09999999999999998,"totalExamples":10,"bonus":0.4,"bonusSoFar":0.4},{"rt":9434,"response":{"heads":"8","tails":"2"},"type":"response","condition":"seqFeedback","trueTheta":0.8,"classrooms":["A","B"],"studentTrueClassroom":"A","exampleSet":"first","trial_type":"survey-html-form","trial_index":31,"time_elapsed":602310,"internal_node_id":"0.0-18.0-0.0","params":{"nStudents":24,"maxFlips":30,"completionMinutes":45,"basePay":8,"maxBonus":9,"perTrialBonus":0.5,"perTrialBonusThreshold":0.1,"exampleCost":0.01},"classroomParams":{"A":{"a":1,"b":4},"B":{"a":4,"b":1},"C":{"a":2,"b":8},"D":{"a":8,"b":2}},"conditions":["nonSeqFull","nonSeqPartial","seqNoFeedback","seqFeedback"],"classroomPairings":[["A","B"],["C","D"]],"coinWeights":[0.2,0.5,0.8],"subjectId":"A2I43BDUPAM00C","assignmentId":"3EA3QWIZ4JHN1VVI07HYF7RB6NIITD","hitId":"341H3G5YF006USP7B7C868W97H9Z08","url":"https://gershmanlab.com/experiments/alicia/teaching/experiment/?hitId=341H3G5YF006USP7B7C868W97H9Z08&workerId=A2I43BDUPAM00C&assignmentId=3EA3QWIZ4JHN1VVI07HYF7RB6NIITD&a=ZQAE8&tp_a=ZQAE8&b=3EA3QWIZ4JHN1VVI07HYF7RB6NIITD&tp_b=3EA3QWIZ4JHN1VVI07HYF7RB6NIITD&c=365198&tp_c=365198","heads":8,"tails":2,"studentIndex":2,"studentTrueHypers":{"a":1,"b":4},"studentGuess":0.6,"delta":0.20000000000000007,"totalExamples":10,"bonusSoFar":0.4},{"rt":14421,"response":{"heads":"8","tails":"2"},"type":"response","condition":"seqFeedback","trueTheta":0.8,"classrooms":["A","B"],"studentTrueClassroom":"A","exampleSet":"second","trial_type":"survey-html-form","trial_index":35,"time_elapsed":625173,"internal_node_id":"0.0-22.0-0.0","params":{"nStudents":24,"maxFlips":30,"completionMinutes":45,"basePay":8,"maxBonus":9,"perTrialBonus":0.5,"perTrialBonusThreshold":0.1,"exampleCost":0.01},"classroomParams":{"A":{"a":1,"b":4},"B":{"a":4,"b":1},"C":{"a":2,"b":8},"D":{"a":8,"b":2}},"conditions":["nonSeqFull","nonSeqPartial","seqNoFeedback","seqFeedback"],"classroomPairings":[["A","B"],["C","D"]],"coinWeights":[0.2,0.5,0.8],"subjectId":"A2I43BDUPAM00C","assignmentId":"3EA3QWIZ4JHN1VVI07HYF7RB6NIITD","hitId":"341H3G5YF006USP7B7C868W97H9Z08","url":"https://gershmanlab.com/experiments/alicia/teaching/experiment/?hitId=341H3G5YF006USP7B7C868W97H9Z08&workerId=A2I43BDUPAM00C&assignmentId=3EA3QWIZ4JHN1VVI07HYF7RB6NIITD&a=ZQAE8&tp_a=ZQAE8&b=3EA3QWIZ4JHN1VVI07HYF7RB6NIITD&tp_b=3EA3QWIZ4JHN1VVI07HYF7RB6NIITD&c=365198&tp_c=365198","firstResponseHeads":8,"firstResponseTails":2,"secondResponseHeads":8,"secondResponseTails":2,"studentIndex":2,"studentTrueHypers":{"a":1,"b":4},"studentGuess":0.68,"delta":0.12,"bonus":0,"bonusSoFar":0.4,"totalExamples":20},{"rt":6178,"response":{"heads":"5","tails":"5"},"type":"response","condition":"nonSeqPartial","trueTheta":0.5,"classrooms":["C","D"],"studentTrueClassroom":"C","exampleSet":"first","trial_type":"survey-html-form","trial_index":41,"time_elapsed":658809,"internal_node_id":"0.0-28.0-0.0","params":{"nStudents":24,"maxFlips":30,"completionMinutes":45,"basePay":8,"maxBonus":9,"perTrialBonus":0.5,"perTrialBonusThreshold":0.1,"exampleCost":0.01},"classroomParams":{"A":{"a":1,"b":4},"B":{"a":4,"b":1},"C":{"a":2,"b":8},"D":{"a":8,"b":2}},"conditions":["nonSeqFull","nonSeqPartial","seqNoFeedback","seqFeedback"],"classroomPairings":[["A","B"],["C","D"]],"coinWeights":[0.2,0.5,0.8],"subjectId":"A2I43BDUPAM00C","assignmentId":"3EA3QWIZ4JHN1VVI07HYF7RB6NIITD","hitId":"341H3G5YF006USP7B7C868W97H9Z08","url":"https://gershmanlab.com/experiments/alicia/teaching/experiment/?hitId=341H3G5YF006USP7B7C868W97H9Z08&workerId=A2I43BDUPAM00C&assignmentId=3EA3QWIZ4JHN1VVI07HYF7RB6NIITD&a=ZQAE8&tp_a=ZQAE8&b=3EA3QWIZ4JHN1VVI07HYF7RB6NIITD&tp_b=3EA3QWIZ4JHN1VVI07HYF7RB6NIITD&c=365198&tp_c=365198","heads":5,"tails":5,"studentIndex":3,"studentTrueHypers":{"a":2,"b":8},"studentGuess":0.35,"delta":0.15000000000000002,"totalExamples":10,"bonus":0,"bonusSoFar":0.4},{"rt":3262,"response":{"heads":"2","tails":"0"},"type":"response","condition":"nonSeqPartial","trueTheta":0.2,"classrooms":["C","D"],"studentTrueClassroom":"C","exampleSet":"first","trial_type":"survey-html-form","trial_index":47,"time_elapsed":676246,"internal_node_id":"0.0-34.0-0.0","params":{"nStudents":24,"maxFlips":30,"completionMinutes":45,"basePay":8,"maxBonus":9,"perTrialBonus":0.5,"perTrialBonusThreshold":0.1,"exampleCost":0.01},"classroomParams":{"A":{"a":1,"b":4},"B":{"a":4,"b":1},"C":{"a":2,"b":8},"D":{"a":8,"b":2}},"conditions":["nonSeqFull","nonSeqPartial","seqNoFeedback","seqFeedback"],"classroomPairings":[["A","B"],["C","D"]],"coinWeights":[0.2,0.5,0.8],"subjectId":"A2I43BDUPAM00C","assignmentId":"3EA3QWIZ4JHN1VVI07HYF7RB6NIITD","hitId":"341H3G5YF006USP7B7C868W97H9Z08","url":"https://gershmanlab.com/experiments/alicia/teaching/experiment/?hitId=341H3G5YF006USP7B7C868W97H9Z08&workerId=A2I43BDUPAM00C&assignmentId=3EA3QWIZ4JHN1VVI07HYF7RB6NIITD&a=ZQAE8&tp_a=ZQAE8&b=3EA3QWIZ4JHN1VVI07HYF7RB6NIITD&tp_b=3EA3QWIZ4JHN1VVI07HYF7RB6NIITD&c=365198&tp_c=365198","heads":2,"tails":0,"studentIndex":4,"studentTrueHypers":{"a":2,"b":8},"studentGuess":0.3333333333333333,"delta":0.1333333333333333,"totalExamples":2,"bonus":0,"bonusSoFar":0.4},{"rt":4057,"response":{"heads":"5","tails":"0"},"type":"response","condition":"nonSeqFull","trueTheta":0.5,"classrooms":["C","D"],"studentTrueClassroom":"C","exampleSet":"first","trial_type":"survey-html-form","trial_index":53,"time_elapsed":695505,"internal_node_id":"0.0-40.0-0.0","params":{"nStudents":24,"maxFlips":30,"completionMinutes":45,"basePay":8,"maxBonus":9,"perTrialBonus":0.5,"perTrialBonusThreshold":0.1,"exampleCost":0.01},"classroomParams":{"A":{"a":1,"b":4},"B":{"a":4,"b":1},"C":{"a":2,"b":8},"D":{"a":8,"b":2}},"conditions":["nonSeqFull","nonSeqPartial","seqNoFeedback","seqFeedback"],"classroomPairings":[["A","B"],["C","D"]],"coinWeights":[0.2,0.5,0.8],"subjectId":"A2I43BDUPAM00C","assignmentId":"3EA3QWIZ4JHN1VVI07HYF7RB6NIITD","hitId":"341H3G5YF006USP7B7C868W97H9Z08","url":"https://gershmanlab.com/experiments/alicia/teaching/experiment/?hitId=341H3G5YF006USP7B7C868W97H9Z08&workerId=A2I43BDUPAM00C&assignmentId=3EA3QWIZ4JHN1VVI07HYF7RB6NIITD&a=ZQAE8&tp_a=ZQAE8&b=3EA3QWIZ4JHN1VVI07HYF7RB6NIITD&tp_b=3EA3QWIZ4JHN1VVI07HYF7RB6NIITD&c=365198&tp_c=365198","heads":5,"tails":0,"studentIndex":5,"studentTrueHypers":{"a":2,"b":8},"studentGuess":0.4666666666666667,"delta":0.033333333333333326,"totalExamples":5,"bonus":0.45,"bonusSoFar":0.85},{"rt":3077,"response":{"heads":"2","tails":"0"},"type":"response","condition":"seqFeedback","trueTheta":0.2,"classrooms":["C","D"],"studentTrueClassroom":"C","exampleSet":"first","trial_type":"survey-html-form","trial_index":59,"time_elapsed":716314,"internal_node_id":"0.0-46.0-0.0","params":{"nStudents":24,"maxFlips":30,"completionMinutes":45,"basePay":8,"maxBonus":9,"perTrialBonus":0.5,"perTrialBonusThreshold":0.1,"exampleCost":0.01},"classroomParams":{"A":{"a":1,"b":4},"B":{"a":4,"b":1},"C":{"a":2,"b":8},"D":{"a":8,"b":2}},"conditions":["nonSeqFull","nonSeqPartial","seqNoFeedback","seqFeedback"],"classroomPairings":[["A","B"],["C","D"]],"coinWeights":[0.2,0.5,0.8],"subjectId":"A2I43BDUPAM00C","assignmentId":"3EA3QWIZ4JHN1VVI07HYF7RB6NIITD","hitId":"341H3G5YF006USP7B7C868W97H9Z08","url":"https://gershmanlab.com/experiments/alicia/teaching/experiment/?hitId=341H3G5YF006USP7B7C868W97H9Z08&workerId=A2I43BDUPAM00C&assignmentId=3EA3QWIZ4JHN1VVI07HYF7RB6NIITD&a=ZQAE8&tp_a=ZQAE8&b=3EA3QWIZ4JHN1VVI07HYF7RB6NIITD&tp_b=3EA3QWIZ4JHN1VVI07HYF7RB6NIITD&c=365198&tp_c=365198","heads":2,"tails":0,"studentIndex":6,"studentTrueHypers":{"a":2,"b":8},"studentGuess":0.3333333333333333,"delta":0.1333333333333333,"totalExamples":2,"bonusSoFar":0.85},{"rt":5276,"response":{"heads":"2","tails":"0"},"type":"response","condition":"seqFeedback","trueTheta":0.2,"classrooms":["C","D"],"studentTrueClassroom":"C","exampleSet":"second","trial_type":"survey-html-form","trial_index":63,"time_elapsed":729318,"internal_node_id":"0.0-50.0-0.0","params":{"nStudents":24,"maxFlips":30,"completionMinutes":45,"basePay":8,"maxBonus":9,"perTrialBonus":0.5,"perTrialBonusThreshold":0.1,"exampleCost":0.01},"classroomParams":{"A":{"a":1,"b":4},"B":{"a":4,"b":1},"C":{"a":2,"b":8},"D":{"a":8,"b":2}},"conditions":["nonSeqFull","nonSeqPartial","seqNoFeedback","seqFeedback"],"classroomPairings":[["A","B"],["C","D"]],"coinWeights":[0.2,0.5,0.8],"subjectId":"A2I43BDUPAM00C","assignmentId":"3EA3QWIZ4JHN1VVI07HYF7RB6NIITD","hitId":"341H3G5YF006USP7B7C868W97H9Z08","url":"https://gershmanlab.com/experiments/alicia/teaching/experiment/?hitId=341H3G5YF006USP7B7C868W97H9Z08&workerId=A2I43BDUPAM00C&assignmentId=3EA3QWIZ4JHN1VVI07HYF7RB6NIITD&a=ZQAE8&tp_a=ZQAE8&b=3EA3QWIZ4JHN1VVI07HYF7RB6NIITD&tp_b=3EA3QWIZ4JHN1VVI07HYF7RB6NIITD&c=365198&tp_c=365198","firstResponseHeads":2,"firstResponseTails":0,"secondResponseHeads":2,"secondResponseTails":0,"studentIndex":6,"studentTrueHypers":{"a":2,"b":8},"studentGuess":0.42857142857142855,"delta":0.22857142857142854,"bonus":0,"bonusSoFar":0.85,"totalExamples":4},{"rt":6078,"response":{"heads":"8","tails":"2"},"type":"response","condition":"nonSeqFull","trueTheta":0.8,"classrooms":["A","B"],"studentTrueClassroom":"A","exampleSet":"first","trial_type":"survey-html-form","trial_index":69,"time_elapsed":751110,"internal_node_id":"0.0-56.0-0.0","params":{"nStudents":24,"maxFlips":30,"completionMinutes":45,"basePay":8,"maxBonus":9,"perTrialBonus":0.5,"perTrialBonusThreshold":0.1,"exampleCost":0.01},"classroomParams":{"A":{"a":1,"b":4},"B":{"a":4,"b":1},"C":{"a":2,"b":8},"D":{"a":8,"b":2}},"conditions":["nonSeqFull","nonSeqPartial","seqNoFeedback","seqFeedback"],"classroomPairings":[["A","B"],["C","D"]],"coinWeights":[0.2,0.5,0.8],"subjectId":"A2I43BDUPAM00C","assignmentId":"3EA3QWIZ4JHN1VVI07HYF7RB6NIITD","hitId":"341H3G5YF006USP7B7C868W97H9Z08","url":"https://gershmanlab.com/experiments/alicia/teaching/experiment/?hitId=341H3G5YF006USP7B7C868W97H9Z08&workerId=A2I43BDUPAM00C&assignmentId=3EA3QWIZ4JHN1VVI07HYF7RB6NIITD&a=ZQAE8&tp_a=ZQAE8&b=3EA3QWIZ4JHN1VVI07HYF7RB6NIITD&tp_b=3EA3QWIZ4JHN1VVI07HYF7RB6NIITD&c=365198&tp_c=365198","heads":8,"tails":2,"studentIndex":7,"studentTrueHypers":{"a":1,"b":4},"studentGuess":0.6,"delta":0.20000000000000007,"totalExamples":10,"bonus":0,"bonusSoFar":0.85},{"rt":2343,"response":{"heads":"2","tails":"0"},"type":"response","condition":"seqFeedback","trueTheta":0.2,"classrooms":["A","B"],"studentTrueClassroom":"B","exampleSet":"first","trial_type":"survey-html-form","trial_index":75,"time_elapsed":768319,"internal_node_id":"0.0-62.0-0.0","params":{"nStudents":24,"maxFlips":30,"completionMinutes":45,"basePay":8,"maxBonus":9,"perTrialBonus":0.5,"perTrialBonusThreshold":0.1,"exampleCost":0.01},"classroomParams":{"A":{"a":1,"b":4},"B":{"a":4,"b":1},"C":{"a":2,"b":8},"D":{"a":8,"b":2}},"conditions":["nonSeqFull","nonSeqPartial","seqNoFeedback","seqFeedback"],"classroomPairings":[["A","B"],["C","D"]],"coinWeights":[0.2,0.5,0.8],"subjectId":"A2I43BDUPAM00C","assignmentId":"3EA3QWIZ4JHN1VVI07HYF7RB6NIITD","hitId":"341H3G5YF006USP7B7C868W97H9Z08","url":"https://gershmanlab.com/experiments/alicia/teaching/experiment/?hitId=341H3G5YF006USP7B7C868W97H9Z08&workerId=A2I43BDUPAM00C&assignmentId=3EA3QWIZ4JHN1VVI07HYF7RB6NIITD&a=ZQAE8&tp_a=ZQAE8&b=3EA3QWIZ4JHN1VVI07HYF7RB6NIITD&tp_b=3EA3QWIZ4JHN1VVI07HYF7RB6NIITD&c=365198&tp_c=365198","heads":2,"tails":0,"studentIndex":8,"studentTrueHypers":{"a":4,"b":1},"studentGuess":0.8571428571428571,"delta":0.657142857142857,"totalExamples":2,"bonusSoFar":0.85},{"rt":5457,"response":{"heads":"2","tails":"0"},"type":"response","condition":"seqFeedback","trueTheta":0.2,"classrooms":["A","B"],"studentTrueClassroom":"B","exampleSet":"second","trial_type":"survey-html-form","trial_index":79,"time_elapsed":782155,"internal_node_id":"0.0-66.0-0.0","params":{"nStudents":24,"maxFlips":30,"completionMinutes":45,"basePay":8,"maxBonus":9,"perTrialBonus":0.5,"perTrialBonusThreshold":0.1,"exampleCost":0.01},"classroomParams":{"A":{"a":1,"b":4},"B":{"a":4,"b":1},"C":{"a":2,"b":8},"D":{"a":8,"b":2}},"conditions":["nonSeqFull","nonSeqPartial","seqNoFeedback","seqFeedback"],"classroomPairings":[["A","B"],["C","D"]],"coinWeights":[0.2,0.5,0.8],"subjectId":"A2I43BDUPAM00C","assignmentId":"3EA3QWIZ4JHN1VVI07HYF7RB6NIITD","hitId":"341H3G5YF006USP7B7C868W97H9Z08","url":"https://gershmanlab.com/experiments/alicia/teaching/experiment/?hitId=341H3G5YF006USP7B7C868W97H9Z08&workerId=A2I43BDUPAM00C&assignmentId=3EA3QWIZ4JHN1VVI07HYF7RB6NIITD&a=ZQAE8&tp_a=ZQAE8&b=3EA3QWIZ4JHN1VVI07HYF7RB6NIITD&tp_b=3EA3QWIZ4JHN1VVI07HYF7RB6NIITD&c=365198&tp_c=365198","firstResponseHeads":2,"firstResponseTails":0,"secondResponseHeads":2,"secondResponseTails":0,"studentIndex":8,"studentTrueHypers":{"a":4,"b":1},"studentGuess":0.8888888888888888,"delta":0.6888888888888889,"bonus":0,"bonusSoFar":0.85,"totalExamples":4},{"rt":7593,"response":{"heads":"8","tails":"2"},"type":"response","condition":"seqNoFeedback","trueTheta":0.8,"classrooms":["A","B"],"studentTrueClassroom":"A","exampleSet":"first","trial_type":"survey-html-form","trial_index":85,"time_elapsed":806055,"internal_node_id":"0.0-72.0-0.0","params":{"nStudents":24,"maxFlips":30,"completionMinutes":45,"basePay":8,"maxBonus":9,"perTrialBonus":0.5,"perTrialBonusThreshold":0.1,"exampleCost":0.01},"classroomParams":{"A":{"a":1,"b":4},"B":{"a":4,"b":1},"C":{"a":2,"b":8},"D":{"a":8,"b":2}},"conditions":["nonSeqFull","nonSeqPartial","seqNoFeedback","seqFeedback"],"classroomPairings":[["A","B"],["C","D"]],"coinWeights":[0.2,0.5,0.8],"subjectId":"A2I43BDUPAM00C","assignmentId":"3EA3QWIZ4JHN1VVI07HYF7RB6NIITD","hitId":"341H3G5YF006USP7B7C868W97H9Z08","url":"https://gershmanlab.com/experiments/alicia/teaching/experiment/?hitId=341H3G5YF006USP7B7C868W97H9Z08&workerId=A2I43BDUPAM00C&assignmentId=3EA3QWIZ4JHN1VVI07HYF7RB6NIITD&a=ZQAE8&tp_a=ZQAE8&b=3EA3QWIZ4JHN1VVI07HYF7RB6NIITD&tp_b=3EA3QWIZ4JHN1VVI07HYF7RB6NIITD&c=365198&tp_c=365198","heads":8,"tails":2,"studentIndex":9,"studentTrueHypers":{"a":1,"b":4},"studentGuess":0.6,"delta":0.20000000000000007,"totalExamples":10,"bonusSoFar":0.85},{"rt":8483,"response":{"heads":"8","tails":"2"},"type":"response","condition":"seqNoFeedback","trueTheta":0.8,"classrooms":["A","B"],"studentTrueClassroom":"A","exampleSet":"second","trial_type":"survey-html-form","trial_index":88,"time_elapsed":821322,"internal_node_id":"0.0-75.0-0.0","params":{"nStudents":24,"maxFlips":30,"completionMinutes":45,"basePay":8,"maxBonus":9,"perTrialBonus":0.5,"perTrialBonusThreshold":0.1,"exampleCost":0.01},"classroomParams":{"A":{"a":1,"b":4},"B":{"a":4,"b":1},"C":{"a":2,"b":8},"D":{"a":8,"b":2}},"conditions":["nonSeqFull","nonSeqPartial","seqNoFeedback","seqFeedback"],"classroomPairings":[["A","B"],["C","D"]],"coinWeights":[0.2,0.5,0.8],"subjectId":"A2I43BDUPAM00C","assignmentId":"3EA3QWIZ4JHN1VVI07HYF7RB6NIITD","hitId":"341H3G5YF006USP7B7C868W97H9Z08","url":"https://gershmanlab.com/experiments/alicia/teaching/experiment/?hitId=341H3G5YF006USP7B7C868W97H9Z08&workerId=A2I43BDUPAM00C&assignmentId=3EA3QWIZ4JHN1VVI07HYF7RB6NIITD&a=ZQAE8&tp_a=ZQAE8&b=3EA3QWIZ4JHN1VVI07HYF7RB6NIITD&tp_b=3EA3QWIZ4JHN1VVI07HYF7RB6NIITD&c=365198&tp_c=365198","firstResponseHeads":8,"firstResponseTails":2,"secondResponseHeads":8,"secondResponseTails":2,"studentIndex":9,"studentTrueHypers":{"a":1,"b":4},"studentGuess":0.68,"delta":0.12,"bonus":0,"bonusSoFar":0.85,"totalExamples":20},{"rt":12574,"response":{"heads":"8","tails":"2"},"type":"response","condition":"seqNoFeedback","trueTheta":0.8,"classrooms":["C","D"],"studentTrueClassroom":"C","exampleSet":"first","trial_type":"survey-html-form","trial_index":94,"time_elapsed":849744,"internal_node_id":"0.0-81.0-0.0","params":{"nStudents":24,"maxFlips":30,"completionMinutes":45,"basePay":8,"maxBonus":9,"perTrialBonus":0.5,"perTrialBonusThreshold":0.1,"exampleCost":0.01},"classroomParams":{"A":{"a":1,"b":4},"B":{"a":4,"b":1},"C":{"a":2,"b":8},"D":{"a":8,"b":2}},"conditions":["nonSeqFull","nonSeqPartial","seqNoFeedback","seqFeedback"],"classroomPairings":[["A","B"],["C","D"]],"coinWeights":[0.2,0.5,0.8],"subjectId":"A2I43BDUPAM00C","assignmentId":"3EA3QWIZ4JHN1VVI07HYF7RB6NIITD","hitId":"341H3G5YF006USP7B7C868W97H9Z08","url":"https://gershmanlab.com/experiments/alicia/teaching/experiment/?hitId=341H3G5YF006USP7B7C868W97H9Z08&workerId=A2I43BDUPAM00C&assignmentId=3EA3QWIZ4JHN1VVI07HYF7RB6NIITD&a=ZQAE8&tp_a=ZQAE8&b=3EA3QWIZ4JHN1VVI07HYF7RB6NIITD&tp_b=3EA3QWIZ4JHN1VVI07HYF7RB6NIITD&c=365198&tp_c=365198","heads":8,"tails":2,"studentIndex":10,"studentTrueHypers":{"a":2,"b":8},"studentGuess":0.5,"delta":0.30000000000000004,"totalExamples":10,"bonusSoFar":0.85},{"rt":6397,"response":{"heads":"8","tails":"2"},"type":"response","condition":"seqNoFeedback","trueTheta":0.8,"classrooms":["C","D"],"studentTrueClassroom":"C","exampleSet":"second","trial_type":"survey-html-form","trial_index":97,"time_elapsed":862158,"internal_node_id":"0.0-84.0-0.0","params":{"nStudents":24,"maxFlips":30,"completionMinutes":45,"basePay":8,"maxBonus":9,"perTrialBonus":0.5,"perTrialBonusThreshold":0.1,"exampleCost":0.01},"classroomParams":{"A":{"a":1,"b":4},"B":{"a":4,"b":1},"C":{"a":2,"b":8},"D":{"a":8,"b":2}},"conditions":["nonSeqFull","nonSeqPartial","seqNoFeedback","seqFeedback"],"classroomPairings":[["A","B"],["C","D"]],"coinWeights":[0.2,0.5,0.8],"subjectId":"A2I43BDUPAM00C","assignmentId":"3EA3QWIZ4JHN1VVI07HYF7RB6NIITD","hitId":"341H3G5YF006USP7B7C868W97H9Z08","url":"https://gershmanlab.com/experiments/alicia/teaching/experiment/?hitId=341H3G5YF006USP7B7C868W97H9Z08&workerId=A2I43BDUPAM00C&assignmentId=3EA3QWIZ4JHN1VVI07HYF7RB6NIITD&a=ZQAE8&tp_a=ZQAE8&b=3EA3QWIZ4JHN1VVI07HYF7RB6NIITD&tp_b=3EA3QWIZ4JHN1VVI07HYF7RB6NIITD&c=365198&tp_c=365198","firstResponseHeads":8,"firstResponseTails":2,"secondResponseHeads":8,"secondResponseTails":2,"studentIndex":10,"studentTrueHypers":{"a":2,"b":8},"studentGuess":0.6,"delta":0.20000000000000007,"bonus":0,"bonusSoFar":0.85,"totalExamples":20},{"rt":3086,"response":{"heads":"5","tails":"0"},"type":"response","condition":"seqFeedback","trueTheta":0.5,"classrooms":["C","D"],"studentTrueClassroom":"C","exampleSet":"first","trial_type":"survey-html-form","trial_index":103,"time_elapsed":878339,"internal_node_id":"0.0-90.0-0.0","params":{"nStudents":24,"maxFlips":30,"completionMinutes":45,"basePay":8,"maxBonus":9,"perTrialBonus":0.5,"perTrialBonusThreshold":0.1,"exampleCost":0.01},"classroomParams":{"A":{"a":1,"b":4},"B":{"a":4,"b":1},"C":{"a":2,"b":8},"D":{"a":8,"b":2}},"conditions":["nonSeqFull","nonSeqPartial","seqNoFeedback","seqFeedback"],"classroomPairings":[["A","B"],["C","D"]],"coinWeights":[0.2,0.5,0.8],"subjectId":"A2I43BDUPAM00C","assignmentId":"3EA3QWIZ4JHN1VVI07HYF7RB6NIITD","hitId":"341H3G5YF006USP7B7C868W97H9Z08","url":"https://gershmanlab.com/experiments/alicia/teaching/experiment/?hitId=341H3G5YF006USP7B7C868W97H9Z08&workerId=A2I43BDUPAM00C&assignmentId=3EA3QWIZ4JHN1VVI07HYF7RB6NIITD&a=ZQAE8&tp_a=ZQAE8&b=3EA3QWIZ4JHN1VVI07HYF7RB6NIITD&tp_b=3EA3QWIZ4JHN1VVI07HYF7RB6NIITD&c=365198&tp_c=365198","heads":5,"tails":0,"studentIndex":11,"studentTrueHypers":{"a":2,"b":8},"studentGuess":0.4666666666666667,"delta":0.033333333333333326,"totalExamples":5,"bonusSoFar":0.85},{"rt":3129,"response":{"heads":"5","tails":"0"},"type":"response","condition":"seqFeedback","trueTheta":0.5,"classrooms":["C","D"],"studentTrueClassroom":"C","exampleSet":"second","trial_type":"survey-html-form","trial_index":107,"time_elapsed":889830,"internal_node_id":"0.0-94.0-0.0","params":{"nStudents":24,"maxFlips":30,"completionMinutes":45,"basePay":8,"maxBonus":9,"perTrialBonus":0.5,"perTrialBonusThreshold":0.1,"exampleCost":0.01},"classroomParams":{"A":{"a":1,"b":4},"B":{"a":4,"b":1},"C":{"a":2,"b":8},"D":{"a":8,"b":2}},"conditions":["nonSeqFull","nonSeqPartial","seqNoFeedback","seqFeedback"],"classroomPairings":[["A","B"],["C","D"]],"coinWeights":[0.2,0.5,0.8],"subjectId":"A2I43BDUPAM00C","assignmentId":"3EA3QWIZ4JHN1VVI07HYF7RB6NIITD","hitId":"341H3G5YF006USP7B7C868W97H9Z08","url":"https://gershmanlab.com/experiments/alicia/teaching/experiment/?hitId=341H3G5YF006USP7B7C868W97H9Z08&workerId=A2I43BDUPAM00C&assignmentId=3EA3QWIZ4JHN1VVI07HYF7RB6NIITD&a=ZQAE8&tp_a=ZQAE8&b=3EA3QWIZ4JHN1VVI07HYF7RB6NIITD&tp_b=3EA3QWIZ4JHN1VVI07HYF7RB6NIITD&c=365198&tp_c=365198","firstResponseHeads":5,"firstResponseTails":0,"secondResponseHeads":5,"secondResponseTails":0,"studentIndex":11,"studentTrueHypers":{"a":2,"b":8},"studentGuess":0.6,"delta":0.09999999999999998,"bonus":0.4,"bonusSoFar":1.25,"totalExamples":10},{"rt":6221,"response":{"heads":"8","tails":"0"},"type":"response","condition":"seqFeedback","trueTheta":0.8,"classrooms":["C","D"],"studentTrueClassroom":"C","exampleSet":"first","trial_type":"survey-html-form","trial_index":113,"time_elapsed":911914,"internal_node_id":"0.0-100.0-0.0","params":{"nStudents":24,"maxFlips":30,"completionMinutes":45,"basePay":8,"maxBonus":9,"perTrialBonus":0.5,"perTrialBonusThreshold":0.1,"exampleCost":0.01},"classroomParams":{"A":{"a":1,"b":4},"B":{"a":4,"b":1},"C":{"a":2,"b":8},"D":{"a":8,"b":2}},"conditions":["nonSeqFull","nonSeqPartial","seqNoFeedback","seqFeedback"],"classroomPairings":[["A","B"],["C","D"]],"coinWeights":[0.2,0.5,0.8],"subjectId":"A2I43BDUPAM00C","assignmentId":"3EA3QWIZ4JHN1VVI07HYF7RB6NIITD","hitId":"341H3G5YF006USP7B7C868W97H9Z08","url":"https://gershmanlab.com/experiments/alicia/teaching/experiment/?hitId=341H3G5YF006USP7B7C868W97H9Z08&workerId=A2I43BDUPAM00C&assignmentId=3EA3QWIZ4JHN1VVI07HYF7RB6NIITD&a=ZQAE8&tp_a=ZQAE8&b=3EA3QWIZ4JHN1VVI07HYF7RB6NIITD&tp_b=3EA3QWIZ4JHN1VVI07HYF7RB6NIITD&c=365198&tp_c=365198","heads":8,"tails":0,"studentIndex":12,"studentTrueHypers":{"a":2,"b":8},"studentGuess":0.5555555555555556,"delta":0.24444444444444446,"totalExamples":8,"bonusSoFar":1.25},{"rt":3581,"response":{"heads":"8","tails":"0"},"type":"response","condition":"seqFeedback","trueTheta":0.8,"classrooms":["C","D"],"studentTrueClassroom":"C","exampleSet":"second","trial_type":"survey-html-form","trial_index":117,"time_elapsed":922712,"internal_node_id":"0.0-104.0-0.0","params":{"nStudents":24,"maxFlips":30,"completionMinutes":45,"basePay":8,"maxBonus":9,"perTrialBonus":0.5,"perTrialBonusThreshold":0.1,"exampleCost":0.01},"classroomParams":{"A":{"a":1,"b":4},"B":{"a":4,"b":1},"C":{"a":2,"b":8},"D":{"a":8,"b":2}},"conditions":["nonSeqFull","nonSeqPartial","seqNoFeedback","seqFeedback"],"classroomPairings":[["A","B"],["C","D"]],"coinWeights":[0.2,0.5,0.8],"subjectId":"A2I43BDUPAM00C","assignmentId":"3EA3QWIZ4JHN1VVI07HYF7RB6NIITD","hitId":"341H3G5YF006USP7B7C868W97H9Z08","url":"https://gershmanlab.com/experiments/alicia/teaching/experiment/?hitId=341H3G5YF006USP7B7C868W97H9Z08&workerId=A2I43BDUPAM00C&assignmentId=3EA3QWIZ4JHN1VVI07HYF7RB6NIITD&a=ZQAE8&tp_a=ZQAE8&b=3EA3QWIZ4JHN1VVI07HYF7RB6NIITD&tp_b=3EA3QWIZ4JHN1VVI07HYF7RB6NIITD&c=365198&tp_c=365198","firstResponseHeads":8,"firstResponseTails":0,"secondResponseHeads":8,"secondResponseTails":0,"studentIndex":12,"studentTrueHypers":{"a":2,"b":8},"studentGuess":0.6923076923076923,"delta":0.10769230769230775,"bonus":0,"bonusSoFar":1.25,"totalExamples":16},{"rt":2344,"response":{"heads":"2","tails":"0"},"type":"response","condition":"nonSeqFull","trueTheta":0.2,"classrooms":["A","B"],"studentTrueClassroom":"A","exampleSet":"first","trial_type":"survey-html-form","trial_index":123,"time_elapsed":937708,"internal_node_id":"0.0-110.0-0.0","params":{"nStudents":24,"maxFlips":30,"completionMinutes":45,"basePay":8,"maxBonus":9,"perTrialBonus":0.5,"perTrialBonusThreshold":0.1,"exampleCost":0.01},"classroomParams":{"A":{"a":1,"b":4},"B":{"a":4,"b":1},"C":{"a":2,"b":8},"D":{"a":8,"b":2}},"conditions":["nonSeqFull","nonSeqPartial","seqNoFeedback","seqFeedback"],"classroomPairings":[["A","B"],["C","D"]],"coinWeights":[0.2,0.5,0.8],"subjectId":"A2I43BDUPAM00C","assignmentId":"3EA3QWIZ4JHN1VVI07HYF7RB6NIITD","hitId":"341H3G5YF006USP7B7C868W97H9Z08","url":"https://gershmanlab.com/experiments/alicia/teaching/experiment/?hitId=341H3G5YF006USP7B7C868W97H9Z08&workerId=A2I43BDUPAM00C&assignmentId=3EA3QWIZ4JHN1VVI07HYF7RB6NIITD&a=ZQAE8&tp_a=ZQAE8&b=3EA3QWIZ4JHN1VVI07HYF7RB6NIITD&tp_b=3EA3QWIZ4JHN1VVI07HYF7RB6NIITD&c=365198&tp_c=365198","heads":2,"tails":0,"studentIndex":13,"studentTrueHypers":{"a":1,"b":4},"studentGuess":0.42857142857142855,"delta":0.22857142857142854,"totalExamples":2,"bonus":0,"bonusSoFar":1.25},{"rt":4618,"response":{"heads":"2","tails":"0"},"type":"response","condition":"seqNoFeedback","trueTheta":0.2,"classrooms":["C","D"],"studentTrueClassroom":"C","exampleSet":"first","trial_type":"survey-html-form","trial_index":129,"time_elapsed":955479,"internal_node_id":"0.0-116.0-0.0","params":{"nStudents":24,"maxFlips":30,"completionMinutes":45,"basePay":8,"maxBonus":9,"perTrialBonus":0.5,"perTrialBonusThreshold":0.1,"exampleCost":0.01},"classroomParams":{"A":{"a":1,"b":4},"B":{"a":4,"b":1},"C":{"a":2,"b":8},"D":{"a":8,"b":2}},"conditions":["nonSeqFull","nonSeqPartial","seqNoFeedback","seqFeedback"],"classroomPairings":[["A","B"],["C","D"]],"coinWeights":[0.2,0.5,0.8],"subjectId":"A2I43BDUPAM00C","assignmentId":"3EA3QWIZ4JHN1VVI07HYF7RB6NIITD","hitId":"341H3G5YF006USP7B7C868W97H9Z08","url":"https://gershmanlab.com/experiments/alicia/teaching/experiment/?hitId=341H3G5YF006USP7B7C868W97H9Z08&workerId=A2I43BDUPAM00C&assignmentId=3EA3QWIZ4JHN1VVI07HYF7RB6NIITD&a=ZQAE8&tp_a=ZQAE8&b=3EA3QWIZ4JHN1VVI07HYF7RB6NIITD&tp_b=3EA3QWIZ4JHN1VVI07HYF7RB6NIITD&c=365198&tp_c=365198","heads":2,"tails":0,"studentIndex":14,"studentTrueHypers":{"a":2,"b":8},"studentGuess":0.3333333333333333,"delta":0.1333333333333333,"totalExamples":2,"bonusSoFar":1.25},{"rt":4846,"response":{"heads":"2","tails":"0"},"type":"response","condition":"seqNoFeedback","trueTheta":0.2,"classrooms":["C","D"],"studentTrueClassroom":"C","exampleSet":"second","trial_type":"survey-html-form","trial_index":132,"time_elapsed":966354,"internal_node_id":"0.0-119.0-0.0","params":{"nStudents":24,"maxFlips":30,"completionMinutes":45,"basePay":8,"maxBonus":9,"perTrialBonus":0.5,"perTrialBonusThreshold":0.1,"exampleCost":0.01},"classroomParams":{"A":{"a":1,"b":4},"B":{"a":4,"b":1},"C":{"a":2,"b":8},"D":{"a":8,"b":2}},"conditions":["nonSeqFull","nonSeqPartial","seqNoFeedback","seqFeedback"],"classroomPairings":[["A","B"],["C","D"]],"coinWeights":[0.2,0.5,0.8],"subjectId":"A2I43BDUPAM00C","assignmentId":"3EA3QWIZ4JHN1VVI07HYF7RB6NIITD","hitId":"341H3G5YF006USP7B7C868W97H9Z08","url":"https://gershmanlab.com/experiments/alicia/teaching/experiment/?hitId=341H3G5YF006USP7B7C868W97H9Z08&workerId=A2I43BDUPAM00C&assignmentId=3EA3QWIZ4JHN1VVI07HYF7RB6NIITD&a=ZQAE8&tp_a=ZQAE8&b=3EA3QWIZ4JHN1VVI07HYF7RB6NIITD&tp_b=3EA3QWIZ4JHN1VVI07HYF7RB6NIITD&c=365198&tp_c=365198","firstResponseHeads":2,"firstResponseTails":0,"secondResponseHeads":2,"secondResponseTails":0,"studentIndex":14,"studentTrueHypers":{"a":2,"b":8},"studentGuess":0.42857142857142855,"delta":0.22857142857142854,"bonus":0,"bonusSoFar":1.25,"totalExamples":4},{"rt":2786,"response":{"heads":"5","tails":"0"},"type":"response","condition":"seqNoFeedback","trueTheta":0.5,"classrooms":["A","B"],"studentTrueClassroom":"B","exampleSet":"first","trial_type":"survey-html-form","trial_index":138,"time_elapsed":981600,"internal_node_id":"0.0-125.0-0.0","params":{"nStudents":24,"maxFlips":30,"completionMinutes":45,"basePay":8,"maxBonus":9,"perTrialBonus":0.5,"perTrialBonusThreshold":0.1,"exampleCost":0.01},"classroomParams":{"A":{"a":1,"b":4},"B":{"a":4,"b":1},"C":{"a":2,"b":8},"D":{"a":8,"b":2}},"conditions":["nonSeqFull","nonSeqPartial","seqNoFeedback","seqFeedback"],"classroomPairings":[["A","B"],["C","D"]],"coinWeights":[0.2,0.5,0.8],"subjectId":"A2I43BDUPAM00C","assignmentId":"3EA3QWIZ4JHN1VVI07HYF7RB6NIITD","hitId":"341H3G5YF006USP7B7C868W97H9Z08","url":"https://gershmanlab.com/experiments/alicia/teaching/experiment/?hitId=341H3G5YF006USP7B7C868W97H9Z08&workerId=A2I43BDUPAM00C&assignmentId=3EA3QWIZ4JHN1VVI07HYF7RB6NIITD&a=ZQAE8&tp_a=ZQAE8&b=3EA3QWIZ4JHN1VVI07HYF7RB6NIITD&tp_b=3EA3QWIZ4JHN1VVI07HYF7RB6NIITD&c=365198&tp_c=365198","heads":5,"tails":0,"studentIndex":15,"studentTrueHypers":{"a":4,"b":1},"studentGuess":0.9,"delta":0.4,"totalExamples":5,"bonusSoFar":1.25},{"rt":4277,"response":{"heads":"5","tails":"0"},"type":"response","condition":"seqNoFeedback","trueTheta":0.5,"classrooms":["A","B"],"studentTrueClassroom":"B","exampleSet":"second","trial_type":"survey-html-form","trial_index":141,"time_elapsed":992389,"internal_node_id":"0.0-128.0-0.0","params":{"nStudents":24,"maxFlips":30,"completionMinutes":45,"basePay":8,"maxBonus":9,"perTrialBonus":0.5,"perTrialBonusThreshold":0.1,"exampleCost":0.01},"classroomParams":{"A":{"a":1,"b":4},"B":{"a":4,"b":1},"C":{"a":2,"b":8},"D":{"a":8,"b":2}},"conditions":["nonSeqFull","nonSeqPartial","seqNoFeedback","seqFeedback"],"classroomPairings":[["A","B"],["C","D"]],"coinWeights":[0.2,0.5,0.8],"subjectId":"A2I43BDUPAM00C","assignmentId":"3EA3QWIZ4JHN1VVI07HYF7RB6NIITD","hitId":"341H3G5YF006USP7B7C868W97H9Z08","url":"https://gershmanlab.com/experiments/alicia/teaching/experiment/?hitId=341H3G5YF006USP7B7C868W97H9Z08&workerId=A2I43BDUPAM00C&assignmentId=3EA3QWIZ4JHN1VVI07HYF7RB6NIITD&a=ZQAE8&tp_a=ZQAE8&b=3EA3QWIZ4JHN1VVI07HYF7RB6NIITD&tp_b=3EA3QWIZ4JHN1VVI07HYF7RB6NIITD&c=365198&tp_c=365198","firstResponseHeads":5,"firstResponseTails":0,"secondResponseHeads":5,"secondResponseTails":0,"studentIndex":15,"studentTrueHypers":{"a":4,"b":1},"studentGuess":0.9333333333333333,"delta":0.43333333333333335,"bonus":0,"bonusSoFar":1.25,"totalExamples":10},{"rt":2910,"response":{"heads":"2","tails":"0"},"type":"response","condition":"seqNoFeedback","trueTheta":0.2,"classrooms":["A","B"],"studentTrueClassroom":"B","exampleSet":"first","trial_type":"survey-html-form","trial_index":147,"time_elapsed":1007463,"internal_node_id":"0.0-134.0-0.0","params":{"nStudents":24,"maxFlips":30,"completionMinutes":45,"basePay":8,"maxBonus":9,"perTrialBonus":0.5,"perTrialBonusThreshold":0.1,"exampleCost":0.01},"classroomParams":{"A":{"a":1,"b":4},"B":{"a":4,"b":1},"C":{"a":2,"b":8},"D":{"a":8,"b":2}},"conditions":["nonSeqFull","nonSeqPartial","seqNoFeedback","seqFeedback"],"classroomPairings":[["A","B"],["C","D"]],"coinWeights":[0.2,0.5,0.8],"subjectId":"A2I43BDUPAM00C","assignmentId":"3EA3QWIZ4JHN1VVI07HYF7RB6NIITD","hitId":"341H3G5YF006USP7B7C868W97H9Z08","url":"https://gershmanlab.com/experiments/alicia/teaching/experiment/?hitId=341H3G5YF006USP7B7C868W97H9Z08&workerId=A2I43BDUPAM00C&assignmentId=3EA3QWIZ4JHN1VVI07HYF7RB6NIITD&a=ZQAE8&tp_a=ZQAE8&b=3EA3QWIZ4JHN1VVI07HYF7RB6NIITD&tp_b=3EA3QWIZ4JHN1VVI07HYF7RB6NIITD&c=365198&tp_c=365198","heads":2,"tails":0,"studentIndex":16,"studentTrueHypers":{"a":4,"b":1},"studentGuess":0.8571428571428571,"delta":0.657142857142857,"totalExamples":2,"bonusSoFar":1.25},{"rt":2999,"response":{"heads":"2","tails":"0"},"type":"response","condition":"seqNoFeedback","trueTheta":0.2,"classrooms":["A","B"],"studentTrueClassroom":"B","exampleSet":"second","trial_type":"survey-html-form","trial_index":150,"time_elapsed":1017216,"internal_node_id":"0.0-137.0-0.0","params":{"nStudents":24,"maxFlips":30,"completionMinutes":45,"basePay":8,"maxBonus":9,"perTrialBonus":0.5,"perTrialBonusThreshold":0.1,"exampleCost":0.01},"classroomParams":{"A":{"a":1,"b":4},"B":{"a":4,"b":1},"C":{"a":2,"b":8},"D":{"a":8,"b":2}},"conditions":["nonSeqFull","nonSeqPartial","seqNoFeedback","seqFeedback"],"classroomPairings":[["A","B"],["C","D"]],"coinWeights":[0.2,0.5,0.8],"subjectId":"A2I43BDUPAM00C","assignmentId":"3EA3QWIZ4JHN1VVI07HYF7RB6NIITD","hitId":"341H3G5YF006USP7B7C868W97H9Z08","url":"https://gershmanlab.com/experiments/alicia/teaching/experiment/?hitId=341H3G5YF006USP7B7C868W97H9Z08&workerId=A2I43BDUPAM00C&assignmentId=3EA3QWIZ4JHN1VVI07HYF7RB6NIITD&a=ZQAE8&tp_a=ZQAE8&b=3EA3QWIZ4JHN1VVI07HYF7RB6NIITD&tp_b=3EA3QWIZ4JHN1VVI07HYF7RB6NIITD&c=365198&tp_c=365198","firstResponseHeads":2,"firstResponseTails":0,"secondResponseHeads":2,"secondResponseTails":0,"studentIndex":16,"studentTrueHypers":{"a":4,"b":1},"studentGuess":0.8888888888888888,"delta":0.6888888888888889,"bonus":0,"bonusSoFar":1.25,"totalExamples":4},{"rt":3355,"response":{"heads":"0","tails":"2"},"type":"response","condition":"nonSeqPartial","trueTheta":0.8,"classrooms":["C","D"],"studentTrueClassroom":"D","exampleSet":"first","trial_type":"survey-html-form","trial_index":156,"time_elapsed":1032594,"internal_node_id":"0.0-143.0-0.0","params":{"nStudents":24,"maxFlips":30,"completionMinutes":45,"basePay":8,"maxBonus":9,"perTrialBonus":0.5,"perTrialBonusThreshold":0.1,"exampleCost":0.01},"classroomParams":{"A":{"a":1,"b":4},"B":{"a":4,"b":1},"C":{"a":2,"b":8},"D":{"a":8,"b":2}},"conditions":["nonSeqFull","nonSeqPartial","seqNoFeedback","seqFeedback"],"classroomPairings":[["A","B"],["C","D"]],"coinWeights":[0.2,0.5,0.8],"subjectId":"A2I43BDUPAM00C","assignmentId":"3EA3QWIZ4JHN1VVI07HYF7RB6NIITD","hitId":"341H3G5YF006USP7B7C868W97H9Z08","url":"https://gershmanlab.com/experiments/alicia/teaching/experiment/?hitId=341H3G5YF006USP7B7C868W97H9Z08&workerId=A2I43BDUPAM00C&assignmentId=3EA3QWIZ4JHN1VVI07HYF7RB6NIITD&a=ZQAE8&tp_a=ZQAE8&b=3EA3QWIZ4JHN1VVI07HYF7RB6NIITD&tp_b=3EA3QWIZ4JHN1VVI07HYF7RB6NIITD&c=365198&tp_c=365198","heads":0,"tails":2,"studentIndex":17,"studentTrueHypers":{"a":8,"b":2},"studentGuess":0.6666666666666666,"delta":0.13333333333333341,"totalExamples":2,"bonus":0,"bonusSoFar":1.25},{"rt":3879,"response":{"heads":"5","tails":"0"},"type":"response","condition":"nonSeqFull","trueTheta":0.5,"classrooms":["A","B"],"studentTrueClassroom":"A","exampleSet":"first","trial_type":"survey-html-form","trial_index":162,"time_elapsed":1048284,"internal_node_id":"0.0-149.0-0.0","params":{"nStudents":24,"maxFlips":30,"completionMinutes":45,"basePay":8,"maxBonus":9,"perTrialBonus":0.5,"perTrialBonusThreshold":0.1,"exampleCost":0.01},"classroomParams":{"A":{"a":1,"b":4},"B":{"a":4,"b":1},"C":{"a":2,"b":8},"D":{"a":8,"b":2}},"conditions":["nonSeqFull","nonSeqPartial","seqNoFeedback","seqFeedback"],"classroomPairings":[["A","B"],["C","D"]],"coinWeights":[0.2,0.5,0.8],"subjectId":"A2I43BDUPAM00C","assignmentId":"3EA3QWIZ4JHN1VVI07HYF7RB6NIITD","hitId":"341H3G5YF006USP7B7C868W97H9Z08","url":"https://gershmanlab.com/experiments/alicia/teaching/experiment/?hitId=341H3G5YF006USP7B7C868W97H9Z08&workerId=A2I43BDUPAM00C&assignmentId=3EA3QWIZ4JHN1VVI07HYF7RB6NIITD&a=ZQAE8&tp_a=ZQAE8&b=3EA3QWIZ4JHN1VVI07HYF7RB6NIITD&tp_b=3EA3QWIZ4JHN1VVI07HYF7RB6NIITD&c=365198&tp_c=365198","heads":5,"tails":0,"studentIndex":18,"studentTrueHypers":{"a":1,"b":4},"studentGuess":0.6,"delta":0.09999999999999998,"totalExamples":5,"bonus":0.45,"bonusSoFar":1.7},{"rt":10323,"response":{"heads":"1","tails":"1"},"type":"response","condition":"seqNoFeedback","trueTheta":0.5,"classrooms":["C","D"],"studentTrueClassroom":"C","exampleSet":"first","trial_type":"survey-html-form","trial_index":168,"time_elapsed":1071392,"internal_node_id":"0.0-155.0-0.0","params":{"nStudents":24,"maxFlips":30,"completionMinutes":45,"basePay":8,"maxBonus":9,"perTrialBonus":0.5,"perTrialBonusThreshold":0.1,"exampleCost":0.01},"classroomParams":{"A":{"a":1,"b":4},"B":{"a":4,"b":1},"C":{"a":2,"b":8},"D":{"a":8,"b":2}},"conditions":["nonSeqFull","nonSeqPartial","seqNoFeedback","seqFeedback"],"classroomPairings":[["A","B"],["C","D"]],"coinWeights":[0.2,0.5,0.8],"subjectId":"A2I43BDUPAM00C","assignmentId":"3EA3QWIZ4JHN1VVI07HYF7RB6NIITD","hitId":"341H3G5YF006USP7B7C868W97H9Z08","url":"https://gershmanlab.com/experiments/alicia/teaching/experiment/?hitId=341H3G5YF006USP7B7C868W97H9Z08&workerId=A2I43BDUPAM00C&assignmentId=3EA3QWIZ4JHN1VVI07HYF7RB6NIITD&a=ZQAE8&tp_a=ZQAE8&b=3EA3QWIZ4JHN1VVI07HYF7RB6NIITD&tp_b=3EA3QWIZ4JHN1VVI07HYF7RB6NIITD&c=365198&tp_c=365198","heads":1,"tails":1,"studentIndex":19,"studentTrueHypers":{"a":2,"b":8},"studentGuess":0.25,"delta":0.25,"totalExamples":2,"bonusSoFar":1.7},{"rt":4326,"response":{"heads":"1","tails":"1"},"type":"response","condition":"seqNoFeedback","trueTheta":0.5,"classrooms":["C","D"],"studentTrueClassroom":"C","exampleSet":"second","trial_type":"survey-html-form","trial_index":171,"time_elapsed":1082244,"internal_node_id":"0.0-158.0-0.0","params":{"nStudents":24,"maxFlips":30,"completionMinutes":45,"basePay":8,"maxBonus":9,"perTrialBonus":0.5,"perTrialBonusThreshold":0.1,"exampleCost":0.01},"classroomParams":{"A":{"a":1,"b":4},"B":{"a":4,"b":1},"C":{"a":2,"b":8},"D":{"a":8,"b":2}},"conditions":["nonSeqFull","nonSeqPartial","seqNoFeedback","seqFeedback"],"classroomPairings":[["A","B"],["C","D"]],"coinWeights":[0.2,0.5,0.8],"subjectId":"A2I43BDUPAM00C","assignmentId":"3EA3QWIZ4JHN1VVI07HYF7RB6NIITD","hitId":"341H3G5YF006USP7B7C868W97H9Z08","url":"https://gershmanlab.com/experiments/alicia/teaching/experiment/?hitId=341H3G5YF006USP7B7C868W97H9Z08&workerId=A2I43BDUPAM00C&assignmentId=3EA3QWIZ4JHN1VVI07HYF7RB6NIITD&a=ZQAE8&tp_a=ZQAE8&b=3EA3QWIZ4JHN1VVI07HYF7RB6NIITD&tp_b=3EA3QWIZ4JHN1VVI07HYF7RB6NIITD&c=365198&tp_c=365198","firstResponseHeads":1,"firstResponseTails":1,"secondResponseHeads":1,"secondResponseTails":1,"studentIndex":19,"studentTrueHypers":{"a":2,"b":8},"studentGuess":0.2857142857142857,"delta":0.2142857142857143,"bonus":0,"bonusSoFar":1.7,"totalExamples":4},{"rt":3560,"response":{"heads":"0","tails":"2"},"type":"response","condition":"nonSeqFull","trueTheta":0.8,"classrooms":["C","D"],"studentTrueClassroom":"C","exampleSet":"first","trial_type":"survey-html-form","trial_index":177,"time_elapsed":1099090,"internal_node_id":"0.0-164.0-0.0","params":{"nStudents":24,"maxFlips":30,"completionMinutes":45,"basePay":8,"maxBonus":9,"perTrialBonus":0.5,"perTrialBonusThreshold":0.1,"exampleCost":0.01},"classroomParams":{"A":{"a":1,"b":4},"B":{"a":4,"b":1},"C":{"a":2,"b":8},"D":{"a":8,"b":2}},"conditions":["nonSeqFull","nonSeqPartial","seqNoFeedback","seqFeedback"],"classroomPairings":[["A","B"],["C","D"]],"coinWeights":[0.2,0.5,0.8],"subjectId":"A2I43BDUPAM00C","assignmentId":"3EA3QWIZ4JHN1VVI07HYF7RB6NIITD","hitId":"341H3G5YF006USP7B7C868W97H9Z08","url":"https://gershmanlab.com/experiments/alicia/teaching/experiment/?hitId=341H3G5YF006USP7B7C868W97H9Z08&workerId=A2I43BDUPAM00C&assignmentId=3EA3QWIZ4JHN1VVI07HYF7RB6NIITD&a=ZQAE8&tp_a=ZQAE8&b=3EA3QWIZ4JHN1VVI07HYF7RB6NIITD&tp_b=3EA3QWIZ4JHN1VVI07HYF7RB6NIITD&c=365198&tp_c=365198","heads":0,"tails":2,"studentIndex":20,"studentTrueHypers":{"a":2,"b":8},"studentGuess":0.16666666666666666,"delta":0.6333333333333334,"totalExamples":2,"bonus":0,"bonusSoFar":1.7},{"rt":3241,"response":{"heads":"0","tails":"2"},"type":"response","condition":"nonSeqPartial","trueTheta":0.8,"classrooms":["A","B"],"studentTrueClassroom":"A","exampleSet":"first","trial_type":"survey-html-form","trial_index":183,"time_elapsed":1118363,"internal_node_id":"0.0-170.0-0.0","params":{"nStudents":24,"maxFlips":30,"completionMinutes":45,"basePay":8,"maxBonus":9,"perTrialBonus":0.5,"perTrialBonusThreshold":0.1,"exampleCost":0.01},"classroomParams":{"A":{"a":1,"b":4},"B":{"a":4,"b":1},"C":{"a":2,"b":8},"D":{"a":8,"b":2}},"conditions":["nonSeqFull","nonSeqPartial","seqNoFeedback","seqFeedback"],"classroomPairings":[["A","B"],["C","D"]],"coinWeights":[0.2,0.5,0.8],"subjectId":"A2I43BDUPAM00C","assignmentId":"3EA3QWIZ4JHN1VVI07HYF7RB6NIITD","hitId":"341H3G5YF006USP7B7C868W97H9Z08","url":"https://gershmanlab.com/experiments/alicia/teaching/experiment/?hitId=341H3G5YF006USP7B7C868W97H9Z08&workerId=A2I43BDUPAM00C&assignmentId=3EA3QWIZ4JHN1VVI07HYF7RB6NIITD&a=ZQAE8&tp_a=ZQAE8&b=3EA3QWIZ4JHN1VVI07HYF7RB6NIITD&tp_b=3EA3QWIZ4JHN1VVI07HYF7RB6NIITD&c=365198&tp_c=365198","heads":0,"tails":2,"studentIndex":21,"studentTrueHypers":{"a":1,"b":4},"studentGuess":0.14285714285714285,"delta":0.6571428571428573,"totalExamples":2,"bonus":0,"bonusSoFar":1.7},{"rt":6677,"response":{"heads":"2","tails":"0"},"type":"response","condition":"nonSeqPartial","trueTheta":0.2,"classrooms":["A","B"],"studentTrueClassroom":"A","exampleSet":"first","trial_type":"survey-html-form","trial_index":189,"time_elapsed":1136904,"internal_node_id":"0.0-176.0-0.0","params":{"nStudents":24,"maxFlips":30,"completionMinutes":45,"basePay":8,"maxBonus":9,"perTrialBonus":0.5,"perTrialBonusThreshold":0.1,"exampleCost":0.01},"classroomParams":{"A":{"a":1,"b":4},"B":{"a":4,"b":1},"C":{"a":2,"b":8},"D":{"a":8,"b":2}},"conditions":["nonSeqFull","nonSeqPartial","seqNoFeedback","seqFeedback"],"classroomPairings":[["A","B"],["C","D"]],"coinWeights":[0.2,0.5,0.8],"subjectId":"A2I43BDUPAM00C","assignmentId":"3EA3QWIZ4JHN1VVI07HYF7RB6NIITD","hitId":"341H3G5YF006USP7B7C868W97H9Z08","url":"https://gershmanlab.com/experiments/alicia/teaching/experiment/?hitId=341H3G5YF006USP7B7C868W97H9Z08&workerId=A2I43BDUPAM00C&assignmentId=3EA3QWIZ4JHN1VVI07HYF7RB6NIITD&a=ZQAE8&tp_a=ZQAE8&b=3EA3QWIZ4JHN1VVI07HYF7RB6NIITD&tp_b=3EA3QWIZ4JHN1VVI07HYF7RB6NIITD&c=365198&tp_c=365198","heads":2,"tails":0,"studentIndex":22,"studentTrueHypers":{"a":1,"b":4},"studentGuess":0.42857142857142855,"delta":0.22857142857142854,"totalExamples":2,"bonus":0,"bonusSoFar":1.7},{"rt":4323,"response":{"heads":"1","tails":"1"},"type":"response","condition":"seqFeedback","trueTheta":0.5,"classrooms":["A","B"],"studentTrueClassroom":"B","exampleSet":"first","trial_type":"survey-html-form","trial_index":195,"time_elapsed":1153709,"internal_node_id":"0.0-182.0-0.0","params":{"nStudents":24,"maxFlips":30,"completionMinutes":45,"basePay":8,"maxBonus":9,"perTrialBonus":0.5,"perTrialBonusThreshold":0.1,"exampleCost":0.01},"classroomParams":{"A":{"a":1,"b":4},"B":{"a":4,"b":1},"C":{"a":2,"b":8},"D":{"a":8,"b":2}},"conditions":["nonSeqFull","nonSeqPartial","seqNoFeedback","seqFeedback"],"classroomPairings":[["A","B"],["C","D"]],"coinWeights":[0.2,0.5,0.8],"subjectId":"A2I43BDUPAM00C","assignmentId":"3EA3QWIZ4JHN1VVI07HYF7RB6NIITD","hitId":"341H3G5YF006USP7B7C868W97H9Z08","url":"https://gershmanlab.com/experiments/alicia/teaching/experiment/?hitId=341H3G5YF006USP7B7C868W97H9Z08&workerId=A2I43BDUPAM00C&assignmentId=3EA3QWIZ4JHN1VVI07HYF7RB6NIITD&a=ZQAE8&tp_a=ZQAE8&b=3EA3QWIZ4JHN1VVI07HYF7RB6NIITD&tp_b=3EA3QWIZ4JHN1VVI07HYF7RB6NIITD&c=365198&tp_c=365198","heads":1,"tails":1,"studentIndex":23,"studentTrueHypers":{"a":4,"b":1},"studentGuess":0.7142857142857143,"delta":0.2142857142857143,"totalExamples":2,"bonusSoFar":1.7},{"rt":5842,"response":{"heads":"2","tails":"2"},"type":"response","condition":"seqFeedback","trueTheta":0.5,"classrooms":["A","B"],"studentTrueClassroom":"B","exampleSet":"second","trial_type":"survey-html-form","trial_index":199,"time_elapsed":1168763,"internal_node_id":"0.0-186.0-0.0","params":{"nStudents":24,"maxFlips":30,"completionMinutes":45,"basePay":8,"maxBonus":9,"perTrialBonus":0.5,"perTrialBonusThreshold":0.1,"exampleCost":0.01},"classroomParams":{"A":{"a":1,"b":4},"B":{"a":4,"b":1},"C":{"a":2,"b":8},"D":{"a":8,"b":2}},"conditions":["nonSeqFull","nonSeqPartial","seqNoFeedback","seqFeedback"],"classroomPairings":[["A","B"],["C","D"]],"coinWeights":[0.2,0.5,0.8],"subjectId":"A2I43BDUPAM00C","assignmentId":"3EA3QWIZ4JHN1VVI07HYF7RB6NIITD","hitId":"341H3G5YF006USP7B7C868W97H9Z08","url":"https://gershmanlab.com/experiments/alicia/teaching/experiment/?hitId=341H3G5YF006USP7B7C868W97H9Z08&workerId=A2I43BDUPAM00C&assignmentId=3EA3QWIZ4JHN1VVI07HYF7RB6NIITD&a=ZQAE8&tp_a=ZQAE8&b=3EA3QWIZ4JHN1VVI07HYF7RB6NIITD&tp_b=3EA3QWIZ4JHN1VVI07HYF7RB6NIITD&c=365198&tp_c=365198","firstResponseHeads":1,"firstResponseTails":1,"secondResponseHeads":2,"secondResponseTails":2,"studentIndex":23,"studentTrueHypers":{"a":4,"b":1},"studentGuess":0.6363636363636364,"delta":0.13636363636363635,"bonus":0,"bonusSoFar":1.7,"totalExamples":6},{"rt":8667,"response":{"gender":"female","age":"43","understood":"yes","comments":"none"},"type":"response","trial_type":"survey-html-form","trial_index":203,"time_elapsed":1185232,"internal_node_id":"0.0-191.0","params":{"nStudents":24,"maxFlips":30,"completionMinutes":45,"basePay":8,"maxBonus":9,"perTrialBonus":0.5,"perTrialBonusThreshold":0.1,"exampleCost":0.01},"classroomParams":{"A":{"a":1,"b":4},"B":{"a":4,"b":1},"C":{"a":2,"b":8},"D":{"a":8,"b":2}},"conditions":["nonSeqFull","nonSeqPartial","seqNoFeedback","seqFeedback"],"classroomPairings":[["A","B"],["C","D"]],"coinWeights":[0.2,0.5,0.8],"subjectId":"A2I43BDUPAM00C","assignmentId":"3EA3QWIZ4JHN1VVI07HYF7RB6NIITD","hitId":"341H3G5YF006USP7B7C868W97H9Z08","url":"https://gershmanlab.com/experiments/alicia/teaching/experiment/?hitId=341H3G5YF006USP7B7C868W97H9Z08&workerId=A2I43BDUPAM00C&assignmentId=3EA3QWIZ4JHN1VVI07HYF7RB6NIITD&a=ZQAE8&tp_a=ZQAE8&b=3EA3QWIZ4JHN1VVI07HYF7RB6NIITD&tp_b=3EA3QWIZ4JHN1VVI07HYF7RB6NIITD&c=365198&tp_c=365198","totalBonus":1.7}]