[{"rt":43495,"response":{"heads":"15","tails":"15"},"type":"response","condition":"seqFeedback","trueTheta":0.2,"classrooms":["A","B"],"studentTrueClassroom":"B","exampleSet":"first","trial_type":"survey-html-form","trial_index":10,"time_elapsed":604744,"internal_node_id":"0.0-6.0-0.0","params":{"nStudents":24,"maxFlips":30,"completionMinutes":45,"basePay":8,"maxBonus":9,"perTrialBonus":0.5,"perTrialBonusThreshold":0.1,"exampleCost":0.01},"classroomParams":{"A":{"a":1,"b":4},"B":{"a":4,"b":1},"C":{"a":2,"b":8},"D":{"a":8,"b":2}},"conditions":["nonSeqFull","nonSeqPartial","seqNoFeedback","seqFeedback"],"classroomPairings":[["A","B"],["C","D"]],"coinWeights":[0.2,0.5,0.8],"subjectId":"A2IQ0QCTQ3KWLT","assignmentId":"3T3IWE1XG790ITJ1DFM7O9IXXXZTQR","hitId":"3H6W48L9F4B5OEOMH57RM53ZYNHWPM","url":"https://gershmanlab.com/experiments/alicia/teaching/experiment/?hitId=3H6W48L9F4B5OEOMH57RM53ZYNHWPM&workerId=A2IQ0QCTQ3KWLT&assignmentId=3T3IWE1XG790ITJ1DFM7O9IXXXZTQR&a=XW3T8&tp_a=XW3T8&b=3T3IWE1XG790ITJ1DFM7O9IXXXZTQR&tp_b=3T3IWE1XG790ITJ1DFM7O9IXXXZTQR&c=365198&tp_c=365198","heads":15,"tails":15,"studentIndex":0,"studentTrueHypers":{"a":4,"b":1},"studentGuess":0.5428571428571428,"delta":0.3428571428571428,"totalExamples":30,"bonusSoFar":0},{"rt":46063,"response":{"heads":"10","tails":"20"},"type":"response","condition":"seqFeedback","trueTheta":0.2,"classrooms":["A","B"],"studentTrueClassroom":"B","exampleSet":"second","trial_type":"survey-html-form","trial_index":14,"time_elapsed":667476,"internal_node_id":"0.0-10.0-0.0","params":{"nStudents":24,"maxFlips":30,"completionMinutes":45,"basePay":8,"maxBonus":9,"perTrialBonus":0.5,"perTrialBonusThreshold":0.1,"exampleCost":0.01},"classroomParams":{"A":{"a":1,"b":4},"B":{"a":4,"b":1},"C":{"a":2,"b":8},"D":{"a":8,"b":2}},"conditions":["nonSeqFull","nonSeqPartial","seqNoFeedback","seqFeedback"],"classroomPairings":[["A","B"],["C","D"]],"coinWeights":[0.2,0.5,0.8],"subjectId":"A2IQ0QCTQ3KWLT","assignmentId":"3T3IWE1XG790ITJ1DFM7O9IXXXZTQR","hitId":"3H6W48L9F4B5OEOMH57RM53ZYNHWPM","url":"https://gershmanlab.com/experiments/alicia/teaching/experiment/?hitId=3H6W48L9F4B5OEOMH57RM53ZYNHWPM&workerId=A2IQ0QCTQ3KWLT&assignmentId=3T3IWE1XG790ITJ1DFM7O9IXXXZTQR&a=XW3T8&tp_a=XW3T8&b=3T3IWE1XG790ITJ1DFM7O9IXXXZTQR&tp_b=3T3IWE1XG790ITJ1DFM7O9IXXXZTQR&c=365198&tp_c=365198","firstResponseHeads":15,"firstResponseTails":15,"secondResponseHeads":10,"secondResponseTails":20,"studentIndex":0,"studentTrueHypers":{"a":4,"b":1},"studentGuess":0.4461538461538462,"delta":0.24615384615384617,"bonus":0,"bonusSoFar":0,"totalExamples":60},{"rt":19769,"response":{"heads":"30","tails":"0"},"type":"response","condition":"seqNoFeedback","trueTheta":0.8,"classrooms":["C","D"],"studentTrueClassroom":"D","exampleSet":"first","trial_type":"survey-html-form","trial_index":20,"time_elapsed":712784,"internal_node_id":"0.0-16.0-0.0","params":{"nStudents":24,"maxFlips":30,"completionMinutes":45,"basePay":8,"maxBonus":9,"perTrialBonus":0.5,"perTrialBonusThreshold":0.1,"exampleCost":0.01},"classroomParams":{"A":{"a":1,"b":4},"B":{"a":4,"b":1},"C":{"a":2,"b":8},"D":{"a":8,"b":2}},"conditions":["nonSeqFull","nonSeqPartial","seqNoFeedback","seqFeedback"],"classroomPairings":[["A","B"],["C","D"]],"coinWeights":[0.2,0.5,0.8],"subjectId":"A2IQ0QCTQ3KWLT","assignmentId":"3T3IWE1XG790ITJ1DFM7O9IXXXZTQR","hitId":"3H6W48L9F4B5OEOMH57RM53ZYNHWPM","url":"https://gershmanlab.com/experiments/alicia/teaching/experiment/?hitId=3H6W48L9F4B5OEOMH57RM53ZYNHWPM&workerId=A2IQ0QCTQ3KWLT&assignmentId=3T3IWE1XG790ITJ1DFM7O9IXXXZTQR&a=XW3T8&tp_a=XW3T8&b=3T3IWE1XG790ITJ1DFM7O9IXXXZTQR&tp_b=3T3IWE1XG790ITJ1DFM7O9IXXXZTQR&c=365198&tp_c=365198","heads":30,"tails":0,"studentIndex":1,"studentTrueHypers":{"a":8,"b":2},"studentGuess":0.95,"delta":0.1499999999999999,"totalExamples":30,"bonusSoFar":0},{"rt":10004,"response":{"heads":"30","tails":"0"},"type":"response","condition":"seqNoFeedback","trueTheta":0.8,"classrooms":["C","D"],"studentTrueClassroom":"D","exampleSet":"second","trial_type":"survey-html-form","trial_index":23,"time_elapsed":728544,"internal_node_id":"0.0-19.0-0.0","params":{"nStudents":24,"maxFlips":30,"completionMinutes":45,"basePay":8,"maxBonus":9,"perTrialBonus":0.5,"perTrialBonusThreshold":0.1,"exampleCost":0.01},"classroomParams":{"A":{"a":1,"b":4},"B":{"a":4,"b":1},"C":{"a":2,"b":8},"D":{"a":8,"b":2}},"conditions":["nonSeqFull","nonSeqPartial","seqNoFeedback","seqFeedback"],"classroomPairings":[["A","B"],["C","D"]],"coinWeights":[0.2,0.5,0.8],"subjectId":"A2IQ0QCTQ3KWLT","assignmentId":"3T3IWE1XG790ITJ1DFM7O9IXXXZTQR","hitId":"3H6W48L9F4B5OEOMH57RM53ZYNHWPM","url":"https://gershmanlab.com/experiments/alicia/teaching/experiment/?hitId=3H6W48L9F4B5OEOMH57RM53ZYNHWPM&workerId=A2IQ0QCTQ3KWLT&assignmentId=3T3IWE1XG790ITJ1DFM7O9IXXXZTQR&a=XW3T8&tp_a=XW3T8&b=3T3IWE1XG790ITJ1DFM7O9IXXXZTQR&tp_b=3T3IWE1XG790ITJ1DFM7O9IXXXZTQR&c=365198&tp_c=365198","firstResponseHeads":30,"firstResponseTails":0,"secondResponseHeads":30,"secondResponseTails":0,"studentIndex":1,"studentTrueHypers":{"a":8,"b":2},"studentGuess":0.9714285714285714,"delta":0.17142857142857137,"bonus":0,"bonusSoFar":0,"totalExamples":60},{"rt":24403,"response":{"heads":"1","tails":"4"},"type":"response","condition":"nonSeqPartial","trueTheta":0.2,"classrooms":["A","B"],"studentTrueClassroom":"B","exampleSet":"first","trial_type":"survey-html-form","trial_index":29,"time_elapsed":798084,"internal_node_id":"0.0-25.0-0.0","params":{"nStudents":24,"maxFlips":30,"completionMinutes":45,"basePay":8,"maxBonus":9,"perTrialBonus":0.5,"perTrialBonusThreshold":0.1,"exampleCost":0.01},"classroomParams":{"A":{"a":1,"b":4},"B":{"a":4,"b":1},"C":{"a":2,"b":8},"D":{"a":8,"b":2}},"conditions":["nonSeqFull","nonSeqPartial","seqNoFeedback","seqFeedback"],"classroomPairings":[["A","B"],["C","D"]],"coinWeights":[0.2,0.5,0.8],"subjectId":"A2IQ0QCTQ3KWLT","assignmentId":"3T3IWE1XG790ITJ1DFM7O9IXXXZTQR","hitId":"3H6W48L9F4B5OEOMH57RM53ZYNHWPM","url":"https://gershmanlab.com/experiments/alicia/teaching/experiment/?hitId=3H6W48L9F4B5OEOMH57RM53ZYNHWPM&workerId=A2IQ0QCTQ3KWLT&assignmentId=3T3IWE1XG790ITJ1DFM7O9IXXXZTQR&a=XW3T8&tp_a=XW3T8&b=3T3IWE1XG790ITJ1DFM7O9IXXXZTQR&tp_b=3T3IWE1XG790ITJ1DFM7O9IXXXZTQR&c=365198&tp_c=365198","heads":1,"tails":4,"studentIndex":2,"studentTrueHypers":{"a":4,"b":1},"studentGuess":0.5,"delta":0.3,"totalExamples":5,"bonus":0,"bonusSoFar":0},{"rt":16628,"response":{"heads":"8","tails":"2"},"type":"response","condition":"nonSeqPartial","trueTheta":0.8,"classrooms":["C","D"],"studentTrueClassroom":"D","exampleSet":"first","trial_type":"survey-html-form","trial_index":35,"time_elapsed":838440,"internal_node_id":"0.0-31.0-0.0","params":{"nStudents":24,"maxFlips":30,"completionMinutes":45,"basePay":8,"maxBonus":9,"perTrialBonus":0.5,"perTrialBonusThreshold":0.1,"exampleCost":0.01},"classroomParams":{"A":{"a":1,"b":4},"B":{"a":4,"b":1},"C":{"a":2,"b":8},"D":{"a":8,"b":2}},"conditions":["nonSeqFull","nonSeqPartial","seqNoFeedback","seqFeedback"],"classroomPairings":[["A","B"],["C","D"]],"coinWeights":[0.2,0.5,0.8],"subjectId":"A2IQ0QCTQ3KWLT","assignmentId":"3T3IWE1XG790ITJ1DFM7O9IXXXZTQR","hitId":"3H6W48L9F4B5OEOMH57RM53ZYNHWPM","url":"https://gershmanlab.com/experiments/alicia/teaching/experiment/?hitId=3H6W48L9F4B5OEOMH57RM53ZYNHWPM&workerId=A2IQ0QCTQ3KWLT&assignmentId=3T3IWE1XG790ITJ1DFM7O9IXXXZTQR&a=XW3T8&tp_a=XW3T8&b=3T3IWE1XG790ITJ1DFM7O9IXXXZTQR&tp_b=3T3IWE1XG790ITJ1DFM7O9IXXXZTQR&c=365198&tp_c=365198","heads":8,"tails":2,"studentIndex":3,"studentTrueHypers":{"a":8,"b":2},"studentGuess":0.8,"delta":0,"totalExamples":10,"bonus":0.4,"bonusSoFar":0.4},{"rt":5771,"response":{"heads":"5","tails":"5"},"type":"response","condition":"nonSeqPartial","trueTheta":0.5,"classrooms":["C","D"],"studentTrueClassroom":"C","exampleSet":"first","trial_type":"survey-html-form","trial_index":41,"time_elapsed":861200,"internal_node_id":"0.0-37.0-0.0","params":{"nStudents":24,"maxFlips":30,"completionMinutes":45,"basePay":8,"maxBonus":9,"perTrialBonus":0.5,"perTrialBonusThreshold":0.1,"exampleCost":0.01},"classroomParams":{"A":{"a":1,"b":4},"B":{"a":4,"b":1},"C":{"a":2,"b":8},"D":{"a":8,"b":2}},"conditions":["nonSeqFull","nonSeqPartial","seqNoFeedback","seqFeedback"],"classroomPairings":[["A","B"],["C","D"]],"coinWeights":[0.2,0.5,0.8],"subjectId":"A2IQ0QCTQ3KWLT","assignmentId":"3T3IWE1XG790ITJ1DFM7O9IXXXZTQR","hitId":"3H6W48L9F4B5OEOMH57RM53ZYNHWPM","url":"https://gershmanlab.com/experiments/alicia/teaching/experiment/?hitId=3H6W48L9F4B5OEOMH57RM53ZYNHWPM&workerId=A2IQ0QCTQ3KWLT&assignmentId=3T3IWE1XG790ITJ1DFM7O9IXXXZTQR&a=XW3T8&tp_a=XW3T8&b=3T3IWE1XG790ITJ1DFM7O9IXXXZTQR&tp_b=3T3IWE1XG790ITJ1DFM7O9IXXXZTQR&c=365198&tp_c=365198","heads":5,"tails":5,"studentIndex":4,"studentTrueHypers":{"a":2,"b":8},"studentGuess":0.35,"delta":0.15000000000000002,"totalExamples":10,"bonus":0,"bonusSoFar":0.4},{"rt":14479,"response":{"heads":"6","tails":"3"},"type":"response","condition":"seqFeedback","trueTheta":0.5,"classrooms":["C","D"],"studentTrueClassroom":"D","exampleSet":"first","trial_type":"survey-html-form","trial_index":47,"time_elapsed":900487,"internal_node_id":"0.0-43.0-0.0","params":{"nStudents":24,"maxFlips":30,"completionMinutes":45,"basePay":8,"maxBonus":9,"perTrialBonus":0.5,"perTrialBonusThreshold":0.1,"exampleCost":0.01},"classroomParams":{"A":{"a":1,"b":4},"B":{"a":4,"b":1},"C":{"a":2,"b":8},"D":{"a":8,"b":2}},"conditions":["nonSeqFull","nonSeqPartial","seqNoFeedback","seqFeedback"],"classroomPairings":[["A","B"],["C","D"]],"coinWeights":[0.2,0.5,0.8],"subjectId":"A2IQ0QCTQ3KWLT","assignmentId":"3T3IWE1XG790ITJ1DFM7O9IXXXZTQR","hitId":"3H6W48L9F4B5OEOMH57RM53ZYNHWPM","url":"https://gershmanlab.com/experiments/alicia/teaching/experiment/?hitId=3H6W48L9F4B5OEOMH57RM53ZYNHWPM&workerId=A2IQ0QCTQ3KWLT&assignmentId=3T3IWE1XG790ITJ1DFM7O9IXXXZTQR&a=XW3T8&tp_a=XW3T8&b=3T3IWE1XG790ITJ1DFM7O9IXXXZTQR&tp_b=3T3IWE1XG790ITJ1DFM7O9IXXXZTQR&c=365198&tp_c=365198","heads":6,"tails":3,"studentIndex":5,"studentTrueHypers":{"a":8,"b":2},"studentGuess":0.7368421052631579,"delta":0.23684210526315785,"totalExamples":9,"bonusSoFar":0.4},{"rt":36415,"response":{"heads":"5","tails":"0"},"type":"response","condition":"seqFeedback","trueTheta":0.5,"classrooms":["C","D"],"studentTrueClassroom":"D","exampleSet":"second","trial_type":"survey-html-form","trial_index":51,"time_elapsed":947549,"internal_node_id":"0.0-47.0-0.0","params":{"nStudents":24,"maxFlips":30,"completionMinutes":45,"basePay":8,"maxBonus":9,"perTrialBonus":0.5,"perTrialBonusThreshold":0.1,"exampleCost":0.01},"classroomParams":{"A":{"a":1,"b":4},"B":{"a":4,"b":1},"C":{"a":2,"b":8},"D":{"a":8,"b":2}},"conditions":["nonSeqFull","nonSeqPartial","seqNoFeedback","seqFeedback"],"classroomPairings":[["A","B"],["C","D"]],"coinWeights":[0.2,0.5,0.8],"subjectId":"A2IQ0QCTQ3KWLT","assignmentId":"3T3IWE1XG790ITJ1DFM7O9IXXXZTQR","hitId":"3H6W48L9F4B5OEOMH57RM53ZYNHWPM","url":"https://gershmanlab.com/experiments/alicia/teaching/experiment/?hitId=3H6W48L9F4B5OEOMH57RM53ZYNHWPM&workerId=A2IQ0QCTQ3KWLT&assignmentId=3T3IWE1XG790ITJ1DFM7O9IXXXZTQR&a=XW3T8&tp_a=XW3T8&b=3T3IWE1XG790ITJ1DFM7O9IXXXZTQR&tp_b=3T3IWE1XG790ITJ1DFM7O9IXXXZTQR&c=365198&tp_c=365198","firstResponseHeads":6,"firstResponseTails":3,"secondResponseHeads":5,"secondResponseTails":0,"studentIndex":5,"studentTrueHypers":{"a":8,"b":2},"studentGuess":0.7916666666666666,"delta":0.29166666666666663,"bonus":0,"bonusSoFar":0.4,"totalExamples":14},{"rt":8516,"response":{"heads":"8","tails":"0"},"type":"response","condition":"seqFeedback","trueTheta":0.8,"classrooms":["A","B"],"studentTrueClassroom":"B","exampleSet":"first","trial_type":"survey-html-form","trial_index":57,"time_elapsed":971760,"internal_node_id":"0.0-53.0-0.0","params":{"nStudents":24,"maxFlips":30,"completionMinutes":45,"basePay":8,"maxBonus":9,"perTrialBonus":0.5,"perTrialBonusThreshold":0.1,"exampleCost":0.01},"classroomParams":{"A":{"a":1,"b":4},"B":{"a":4,"b":1},"C":{"a":2,"b":8},"D":{"a":8,"b":2}},"conditions":["nonSeqFull","nonSeqPartial","seqNoFeedback","seqFeedback"],"classroomPairings":[["A","B"],["C","D"]],"coinWeights":[0.2,0.5,0.8],"subjectId":"A2IQ0QCTQ3KWLT","assignmentId":"3T3IWE1XG790ITJ1DFM7O9IXXXZTQR","hitId":"3H6W48L9F4B5OEOMH57RM53ZYNHWPM","url":"https://gershmanlab.com/experiments/alicia/teaching/experiment/?hitId=3H6W48L9F4B5OEOMH57RM53ZYNHWPM&workerId=A2IQ0QCTQ3KWLT&assignmentId=3T3IWE1XG790ITJ1DFM7O9IXXXZTQR&a=XW3T8&tp_a=XW3T8&b=3T3IWE1XG790ITJ1DFM7O9IXXXZTQR&tp_b=3T3IWE1XG790ITJ1DFM7O9IXXXZTQR&c=365198&tp_c=365198","heads":8,"tails":0,"studentIndex":6,"studentTrueHypers":{"a":4,"b":1},"studentGuess":0.9230769230769231,"delta":0.12307692307692308,"totalExamples":8,"bonusSoFar":0.4},{"rt":6312,"response":{"heads":"8","tails":"0"},"type":"response","condition":"seqFeedback","trueTheta":0.8,"classrooms":["A","B"],"studentTrueClassroom":"B","exampleSet":"second","trial_type":"survey-html-form","trial_index":61,"time_elapsed":988669,"internal_node_id":"0.0-57.0-0.0","params":{"nStudents":24,"maxFlips":30,"completionMinutes":45,"basePay":8,"maxBonus":9,"perTrialBonus":0.5,"perTrialBonusThreshold":0.1,"exampleCost":0.01},"classroomParams":{"A":{"a":1,"b":4},"B":{"a":4,"b":1},"C":{"a":2,"b":8},"D":{"a":8,"b":2}},"conditions":["nonSeqFull","nonSeqPartial","seqNoFeedback","seqFeedback"],"classroomPairings":[["A","B"],["C","D"]],"coinWeights":[0.2,0.5,0.8],"subjectId":"A2IQ0QCTQ3KWLT","assignmentId":"3T3IWE1XG790ITJ1DFM7O9IXXXZTQR","hitId":"3H6W48L9F4B5OEOMH57RM53ZYNHWPM","url":"https://gershmanlab.com/experiments/alicia/teaching/experiment/?hitId=3H6W48L9F4B5OEOMH57RM53ZYNHWPM&workerId=A2IQ0QCTQ3KWLT&assignmentId=3T3IWE1XG790ITJ1DFM7O9IXXXZTQR&a=XW3T8&tp_a=XW3T8&b=3T3IWE1XG790ITJ1DFM7O9IXXXZTQR&tp_b=3T3IWE1XG790ITJ1DFM7O9IXXXZTQR&c=365198&tp_c=365198","firstResponseHeads":8,"firstResponseTails":0,"secondResponseHeads":8,"secondResponseTails":0,"studentIndex":6,"studentTrueHypers":{"a":4,"b":1},"studentGuess":0.9523809523809523,"delta":0.15238095238095228,"bonus":0,"bonusSoFar":0.4,"totalExamples":16},{"rt":7200,"response":{"heads":"2","tails":"8"},"type":"response","condition":"seqNoFeedback","trueTheta":0.2,"classrooms":["C","D"],"studentTrueClassroom":"C","exampleSet":"first","trial_type":"survey-html-form","trial_index":67,"time_elapsed":1011834,"internal_node_id":"0.0-63.0-0.0","params":{"nStudents":24,"maxFlips":30,"completionMinutes":45,"basePay":8,"maxBonus":9,"perTrialBonus":0.5,"perTrialBonusThreshold":0.1,"exampleCost":0.01},"classroomParams":{"A":{"a":1,"b":4},"B":{"a":4,"b":1},"C":{"a":2,"b":8},"D":{"a":8,"b":2}},"conditions":["nonSeqFull","nonSeqPartial","seqNoFeedback","seqFeedback"],"classroomPairings":[["A","B"],["C","D"]],"coinWeights":[0.2,0.5,0.8],"subjectId":"A2IQ0QCTQ3KWLT","assignmentId":"3T3IWE1XG790ITJ1DFM7O9IXXXZTQR","hitId":"3H6W48L9F4B5OEOMH57RM53ZYNHWPM","url":"https://gershmanlab.com/experiments/alicia/teaching/experiment/?hitId=3H6W48L9F4B5OEOMH57RM53ZYNHWPM&workerId=A2IQ0QCTQ3KWLT&assignmentId=3T3IWE1XG790ITJ1DFM7O9IXXXZTQR&a=XW3T8&tp_a=XW3T8&b=3T3IWE1XG790ITJ1DFM7O9IXXXZTQR&tp_b=3T3IWE1XG790ITJ1DFM7O9IXXXZTQR&c=365198&tp_c=365198","heads":2,"tails":8,"studentIndex":7,"studentTrueHypers":{"a":2,"b":8},"studentGuess":0.2,"delta":0,"totalExamples":10,"bonusSoFar":0.4},{"rt":9142,"response":{"heads":"2","tails":"8"},"type":"response","condition":"seqNoFeedback","trueTheta":0.2,"classrooms":["C","D"],"studentTrueClassroom":"C","exampleSet":"second","trial_type":"survey-html-form","trial_index":70,"time_elapsed":1027484,"internal_node_id":"0.0-66.0-0.0","params":{"nStudents":24,"maxFlips":30,"completionMinutes":45,"basePay":8,"maxBonus":9,"perTrialBonus":0.5,"perTrialBonusThreshold":0.1,"exampleCost":0.01},"classroomParams":{"A":{"a":1,"b":4},"B":{"a":4,"b":1},"C":{"a":2,"b":8},"D":{"a":8,"b":2}},"conditions":["nonSeqFull","nonSeqPartial","seqNoFeedback","seqFeedback"],"classroomPairings":[["A","B"],["C","D"]],"coinWeights":[0.2,0.5,0.8],"subjectId":"A2IQ0QCTQ3KWLT","assignmentId":"3T3IWE1XG790ITJ1DFM7O9IXXXZTQR","hitId":"3H6W48L9F4B5OEOMH57RM53ZYNHWPM","url":"https://gershmanlab.com/experiments/alicia/teaching/experiment/?hitId=3H6W48L9F4B5OEOMH57RM53ZYNHWPM&workerId=A2IQ0QCTQ3KWLT&assignmentId=3T3IWE1XG790ITJ1DFM7O9IXXXZTQR&a=XW3T8&tp_a=XW3T8&b=3T3IWE1XG790ITJ1DFM7O9IXXXZTQR&tp_b=3T3IWE1XG790ITJ1DFM7O9IXXXZTQR&c=365198&tp_c=365198","firstResponseHeads":2,"firstResponseTails":8,"secondResponseHeads":2,"secondResponseTails":8,"studentIndex":7,"studentTrueHypers":{"a":2,"b":8},"studentGuess":0.2,"delta":0,"bonus":0.3,"bonusSoFar":0.7,"totalExamples":20},{"rt":14929,"response":{"heads":"6","tails":"1"},"type":"response","condition":"seqNoFeedback","trueTheta":0.5,"classrooms":["A","B"],"studentTrueClassroom":"A","exampleSet":"first","trial_type":"survey-html-form","trial_index":76,"time_elapsed":1057500,"internal_node_id":"0.0-72.0-0.0","params":{"nStudents":24,"maxFlips":30,"completionMinutes":45,"basePay":8,"maxBonus":9,"perTrialBonus":0.5,"perTrialBonusThreshold":0.1,"exampleCost":0.01},"classroomParams":{"A":{"a":1,"b":4},"B":{"a":4,"b":1},"C":{"a":2,"b":8},"D":{"a":8,"b":2}},"conditions":["nonSeqFull","nonSeqPartial","seqNoFeedback","seqFeedback"],"classroomPairings":[["A","B"],["C","D"]],"coinWeights":[0.2,0.5,0.8],"subjectId":"A2IQ0QCTQ3KWLT","assignmentId":"3T3IWE1XG790ITJ1DFM7O9IXXXZTQR","hitId":"3H6W48L9F4B5OEOMH57RM53ZYNHWPM","url":"https://gershmanlab.com/experiments/alicia/teaching/experiment/?hitId=3H6W48L9F4B5OEOMH57RM53ZYNHWPM&workerId=A2IQ0QCTQ3KWLT&assignmentId=3T3IWE1XG790ITJ1DFM7O9IXXXZTQR&a=XW3T8&tp_a=XW3T8&b=3T3IWE1XG790ITJ1DFM7O9IXXXZTQR&tp_b=3T3IWE1XG790ITJ1DFM7O9IXXXZTQR&c=365198&tp_c=365198","heads":6,"tails":1,"studentIndex":8,"studentTrueHypers":{"a":1,"b":4},"studentGuess":0.5833333333333334,"delta":0.08333333333333337,"totalExamples":7,"bonusSoFar":0.7},{"rt":10902,"response":{"heads":"6","tails":"2"},"type":"response","condition":"seqNoFeedback","trueTheta":0.5,"classrooms":["A","B"],"studentTrueClassroom":"A","exampleSet":"second","trial_type":"survey-html-form","trial_index":79,"time_elapsed":1075163,"internal_node_id":"0.0-75.0-0.0","params":{"nStudents":24,"maxFlips":30,"completionMinutes":45,"basePay":8,"maxBonus":9,"perTrialBonus":0.5,"perTrialBonusThreshold":0.1,"exampleCost":0.01},"classroomParams":{"A":{"a":1,"b":4},"B":{"a":4,"b":1},"C":{"a":2,"b":8},"D":{"a":8,"b":2}},"conditions":["nonSeqFull","nonSeqPartial","seqNoFeedback","seqFeedback"],"classroomPairings":[["A","B"],["C","D"]],"coinWeights":[0.2,0.5,0.8],"subjectId":"A2IQ0QCTQ3KWLT","assignmentId":"3T3IWE1XG790ITJ1DFM7O9IXXXZTQR","hitId":"3H6W48L9F4B5OEOMH57RM53ZYNHWPM","url":"https://gershmanlab.com/experiments/alicia/teaching/experiment/?hitId=3H6W48L9F4B5OEOMH57RM53ZYNHWPM&workerId=A2IQ0QCTQ3KWLT&assignmentId=3T3IWE1XG790ITJ1DFM7O9IXXXZTQR&a=XW3T8&tp_a=XW3T8&b=3T3IWE1XG790ITJ1DFM7O9IXXXZTQR&tp_b=3T3IWE1XG790ITJ1DFM7O9IXXXZTQR&c=365198&tp_c=365198","firstResponseHeads":6,"firstResponseTails":1,"secondResponseHeads":6,"secondResponseTails":2,"studentIndex":8,"studentTrueHypers":{"a":1,"b":4},"studentGuess":0.65,"delta":0.15000000000000002,"bonus":0,"bonusSoFar":0.7,"totalExamples":15},{"rt":6705,"response":{"heads":"8","tails":"0"},"type":"response","condition":"seqNoFeedback","trueTheta":0.8,"classrooms":["A","B"],"studentTrueClassroom":"B","exampleSet":"first","trial_type":"survey-html-form","trial_index":85,"time_elapsed":1165945,"internal_node_id":"0.0-81.0-0.0","params":{"nStudents":24,"maxFlips":30,"completionMinutes":45,"basePay":8,"maxBonus":9,"perTrialBonus":0.5,"perTrialBonusThreshold":0.1,"exampleCost":0.01},"classroomParams":{"A":{"a":1,"b":4},"B":{"a":4,"b":1},"C":{"a":2,"b":8},"D":{"a":8,"b":2}},"conditions":["nonSeqFull","nonSeqPartial","seqNoFeedback","seqFeedback"],"classroomPairings":[["A","B"],["C","D"]],"coinWeights":[0.2,0.5,0.8],"subjectId":"A2IQ0QCTQ3KWLT","assignmentId":"3T3IWE1XG790ITJ1DFM7O9IXXXZTQR","hitId":"3H6W48L9F4B5OEOMH57RM53ZYNHWPM","url":"https://gershmanlab.com/experiments/alicia/teaching/experiment/?hitId=3H6W48L9F4B5OEOMH57RM53ZYNHWPM&workerId=A2IQ0QCTQ3KWLT&assignmentId=3T3IWE1XG790ITJ1DFM7O9IXXXZTQR&a=XW3T8&tp_a=XW3T8&b=3T3IWE1XG790ITJ1DFM7O9IXXXZTQR&tp_b=3T3IWE1XG790ITJ1DFM7O9IXXXZTQR&c=365198&tp_c=365198","heads":8,"tails":0,"studentIndex":9,"studentTrueHypers":{"a":4,"b":1},"studentGuess":0.9230769230769231,"delta":0.12307692307692308,"totalExamples":8,"bonusSoFar":0.7},{"rt":6110,"response":{"heads":"8","tails":"0"},"type":"response","condition":"seqNoFeedback","trueTheta":0.8,"classrooms":["A","B"],"studentTrueClassroom":"B","exampleSet":"second","trial_type":"survey-html-form","trial_index":88,"time_elapsed":1178310,"internal_node_id":"0.0-84.0-0.0","params":{"nStudents":24,"maxFlips":30,"completionMinutes":45,"basePay":8,"maxBonus":9,"perTrialBonus":0.5,"perTrialBonusThreshold":0.1,"exampleCost":0.01},"classroomParams":{"A":{"a":1,"b":4},"B":{"a":4,"b":1},"C":{"a":2,"b":8},"D":{"a":8,"b":2}},"conditions":["nonSeqFull","nonSeqPartial","seqNoFeedback","seqFeedback"],"classroomPairings":[["A","B"],["C","D"]],"coinWeights":[0.2,0.5,0.8],"subjectId":"A2IQ0QCTQ3KWLT","assignmentId":"3T3IWE1XG790ITJ1DFM7O9IXXXZTQR","hitId":"3H6W48L9F4B5OEOMH57RM53ZYNHWPM","url":"https://gershmanlab.com/experiments/alicia/teaching/experiment/?hitId=3H6W48L9F4B5OEOMH57RM53ZYNHWPM&workerId=A2IQ0QCTQ3KWLT&assignmentId=3T3IWE1XG790ITJ1DFM7O9IXXXZTQR&a=XW3T8&tp_a=XW3T8&b=3T3IWE1XG790ITJ1DFM7O9IXXXZTQR&tp_b=3T3IWE1XG790ITJ1DFM7O9IXXXZTQR&c=365198&tp_c=365198","firstResponseHeads":8,"firstResponseTails":0,"secondResponseHeads":8,"secondResponseTails":0,"studentIndex":9,"studentTrueHypers":{"a":4,"b":1},"studentGuess":0.9523809523809523,"delta":0.15238095238095228,"bonus":0,"bonusSoFar":0.7,"totalExamples":16},{"rt":10452,"response":{"heads":"2","tails":"8"},"type":"response","condition":"nonSeqFull","trueTheta":0.2,"classrooms":["C","D"],"studentTrueClassroom":"C","exampleSet":"first","trial_type":"survey-html-form","trial_index":94,"time_elapsed":1204141,"internal_node_id":"0.0-90.0-0.0","params":{"nStudents":24,"maxFlips":30,"completionMinutes":45,"basePay":8,"maxBonus":9,"perTrialBonus":0.5,"perTrialBonusThreshold":0.1,"exampleCost":0.01},"classroomParams":{"A":{"a":1,"b":4},"B":{"a":4,"b":1},"C":{"a":2,"b":8},"D":{"a":8,"b":2}},"conditions":["nonSeqFull","nonSeqPartial","seqNoFeedback","seqFeedback"],"classroomPairings":[["A","B"],["C","D"]],"coinWeights":[0.2,0.5,0.8],"subjectId":"A2IQ0QCTQ3KWLT","assignmentId":"3T3IWE1XG790ITJ1DFM7O9IXXXZTQR","hitId":"3H6W48L9F4B5OEOMH57RM53ZYNHWPM","url":"https://gershmanlab.com/experiments/alicia/teaching/experiment/?hitId=3H6W48L9F4B5OEOMH57RM53ZYNHWPM&workerId=A2IQ0QCTQ3KWLT&assignmentId=3T3IWE1XG790ITJ1DFM7O9IXXXZTQR&a=XW3T8&tp_a=XW3T8&b=3T3IWE1XG790ITJ1DFM7O9IXXXZTQR&tp_b=3T3IWE1XG790ITJ1DFM7O9IXXXZTQR&c=365198&tp_c=365198","heads":2,"tails":8,"studentIndex":10,"studentTrueHypers":{"a":2,"b":8},"studentGuess":0.2,"delta":0,"totalExamples":10,"bonus":0.4,"bonusSoFar":1.1},{"rt":5793,"response":{"heads":"2","tails":"8"},"type":"response","condition":"seqFeedback","trueTheta":0.2,"classrooms":["C","D"],"studentTrueClassroom":"C","exampleSet":"first","trial_type":"survey-html-form","trial_index":100,"time_elapsed":1223323,"internal_node_id":"0.0-96.0-0.0","params":{"nStudents":24,"maxFlips":30,"completionMinutes":45,"basePay":8,"maxBonus":9,"perTrialBonus":0.5,"perTrialBonusThreshold":0.1,"exampleCost":0.01},"classroomParams":{"A":{"a":1,"b":4},"B":{"a":4,"b":1},"C":{"a":2,"b":8},"D":{"a":8,"b":2}},"conditions":["nonSeqFull","nonSeqPartial","seqNoFeedback","seqFeedback"],"classroomPairings":[["A","B"],["C","D"]],"coinWeights":[0.2,0.5,0.8],"subjectId":"A2IQ0QCTQ3KWLT","assignmentId":"3T3IWE1XG790ITJ1DFM7O9IXXXZTQR","hitId":"3H6W48L9F4B5OEOMH57RM53ZYNHWPM","url":"https://gershmanlab.com/experiments/alicia/teaching/experiment/?hitId=3H6W48L9F4B5OEOMH57RM53ZYNHWPM&workerId=A2IQ0QCTQ3KWLT&assignmentId=3T3IWE1XG790ITJ1DFM7O9IXXXZTQR&a=XW3T8&tp_a=XW3T8&b=3T3IWE1XG790ITJ1DFM7O9IXXXZTQR&tp_b=3T3IWE1XG790ITJ1DFM7O9IXXXZTQR&c=365198&tp_c=365198","heads":2,"tails":8,"studentIndex":11,"studentTrueHypers":{"a":2,"b":8},"studentGuess":0.2,"delta":0,"totalExamples":10,"bonusSoFar":1.1},{"rt":7953,"response":{"heads":"2","tails":"8"},"type":"response","condition":"seqFeedback","trueTheta":0.2,"classrooms":["C","D"],"studentTrueClassroom":"C","exampleSet":"second","trial_type":"survey-html-form","trial_index":104,"time_elapsed":1241729,"internal_node_id":"0.0-100.0-0.0","params":{"nStudents":24,"maxFlips":30,"completionMinutes":45,"basePay":8,"maxBonus":9,"perTrialBonus":0.5,"perTrialBonusThreshold":0.1,"exampleCost":0.01},"classroomParams":{"A":{"a":1,"b":4},"B":{"a":4,"b":1},"C":{"a":2,"b":8},"D":{"a":8,"b":2}},"conditions":["nonSeqFull","nonSeqPartial","seqNoFeedback","seqFeedback"],"classroomPairings":[["A","B"],["C","D"]],"coinWeights":[0.2,0.5,0.8],"subjectId":"A2IQ0QCTQ3KWLT","assignmentId":"3T3IWE1XG790ITJ1DFM7O9IXXXZTQR","hitId":"3H6W48L9F4B5OEOMH57RM53ZYNHWPM","url":"https://gershmanlab.com/experiments/alicia/teaching/experiment/?hitId=3H6W48L9F4B5OEOMH57RM53ZYNHWPM&workerId=A2IQ0QCTQ3KWLT&assignmentId=3T3IWE1XG790ITJ1DFM7O9IXXXZTQR&a=XW3T8&tp_a=XW3T8&b=3T3IWE1XG790ITJ1DFM7O9IXXXZTQR&tp_b=3T3IWE1XG790ITJ1DFM7O9IXXXZTQR&c=365198&tp_c=365198","firstResponseHeads":2,"firstResponseTails":8,"secondResponseHeads":2,"secondResponseTails":8,"studentIndex":11,"studentTrueHypers":{"a":2,"b":8},"studentGuess":0.2,"delta":0,"bonus":0.3,"bonusSoFar":1.4,"totalExamples":20},{"rt":6693,"response":{"heads":"2","tails":"8"},"type":"response","condition":"nonSeqPartial","trueTheta":0.2,"classrooms":["C","D"],"studentTrueClassroom":"C","exampleSet":"first","trial_type":"survey-html-form","trial_index":110,"time_elapsed":1261991,"internal_node_id":"0.0-106.0-0.0","params":{"nStudents":24,"maxFlips":30,"completionMinutes":45,"basePay":8,"maxBonus":9,"perTrialBonus":0.5,"perTrialBonusThreshold":0.1,"exampleCost":0.01},"classroomParams":{"A":{"a":1,"b":4},"B":{"a":4,"b":1},"C":{"a":2,"b":8},"D":{"a":8,"b":2}},"conditions":["nonSeqFull","nonSeqPartial","seqNoFeedback","seqFeedback"],"classroomPairings":[["A","B"],["C","D"]],"coinWeights":[0.2,0.5,0.8],"subjectId":"A2IQ0QCTQ3KWLT","assignmentId":"3T3IWE1XG790ITJ1DFM7O9IXXXZTQR","hitId":"3H6W48L9F4B5OEOMH57RM53ZYNHWPM","url":"https://gershmanlab.com/experiments/alicia/teaching/experiment/?hitId=3H6W48L9F4B5OEOMH57RM53ZYNHWPM&workerId=A2IQ0QCTQ3KWLT&assignmentId=3T3IWE1XG790ITJ1DFM7O9IXXXZTQR&a=XW3T8&tp_a=XW3T8&b=3T3IWE1XG790ITJ1DFM7O9IXXXZTQR&tp_b=3T3IWE1XG790ITJ1DFM7O9IXXXZTQR&c=365198&tp_c=365198","heads":2,"tails":8,"studentIndex":12,"studentTrueHypers":{"a":2,"b":8},"studentGuess":0.2,"delta":0,"totalExamples":10,"bonus":0.4,"bonusSoFar":1.8},{"rt":9225,"response":{"heads":"4","tails":"1"},"type":"response","condition":"nonSeqFull","trueTheta":0.8,"classrooms":["A","B"],"studentTrueClassroom":"B","exampleSet":"first","trial_type":"survey-html-form","trial_index":116,"time_elapsed":1290815,"internal_node_id":"0.0-112.0-0.0","params":{"nStudents":24,"maxFlips":30,"completionMinutes":45,"basePay":8,"maxBonus":9,"perTrialBonus":0.5,"perTrialBonusThreshold":0.1,"exampleCost":0.01},"classroomParams":{"A":{"a":1,"b":4},"B":{"a":4,"b":1},"C":{"a":2,"b":8},"D":{"a":8,"b":2}},"conditions":["nonSeqFull","nonSeqPartial","seqNoFeedback","seqFeedback"],"classroomPairings":[["A","B"],["C","D"]],"coinWeights":[0.2,0.5,0.8],"subjectId":"A2IQ0QCTQ3KWLT","assignmentId":"3T3IWE1XG790ITJ1DFM7O9IXXXZTQR","hitId":"3H6W48L9F4B5OEOMH57RM53ZYNHWPM","url":"https://gershmanlab.com/experiments/alicia/teaching/experiment/?hitId=3H6W48L9F4B5OEOMH57RM53ZYNHWPM&workerId=A2IQ0QCTQ3KWLT&assignmentId=3T3IWE1XG790ITJ1DFM7O9IXXXZTQR&a=XW3T8&tp_a=XW3T8&b=3T3IWE1XG790ITJ1DFM7O9IXXXZTQR&tp_b=3T3IWE1XG790ITJ1DFM7O9IXXXZTQR&c=365198&tp_c=365198","heads":4,"tails":1,"studentIndex":13,"studentTrueHypers":{"a":4,"b":1},"studentGuess":0.8,"delta":0,"totalExamples":5,"bonus":0.45,"bonusSoFar":2.25},{"rt":10631,"response":{"heads":"1","tails":"4"},"type":"response","condition":"nonSeqFull","trueTheta":0.2,"classrooms":["A","B"],"studentTrueClassroom":"A","exampleSet":"first","trial_type":"survey-html-form","trial_index":122,"time_elapsed":1314306,"internal_node_id":"0.0-118.0-0.0","params":{"nStudents":24,"maxFlips":30,"completionMinutes":45,"basePay":8,"maxBonus":9,"perTrialBonus":0.5,"perTrialBonusThreshold":0.1,"exampleCost":0.01},"classroomParams":{"A":{"a":1,"b":4},"B":{"a":4,"b":1},"C":{"a":2,"b":8},"D":{"a":8,"b":2}},"conditions":["nonSeqFull","nonSeqPartial","seqNoFeedback","seqFeedback"],"classroomPairings":[["A","B"],["C","D"]],"coinWeights":[0.2,0.5,0.8],"subjectId":"A2IQ0QCTQ3KWLT","assignmentId":"3T3IWE1XG790ITJ1DFM7O9IXXXZTQR","hitId":"3H6W48L9F4B5OEOMH57RM53ZYNHWPM","url":"https://gershmanlab.com/experiments/alicia/teaching/experiment/?hitId=3H6W48L9F4B5OEOMH57RM53ZYNHWPM&workerId=A2IQ0QCTQ3KWLT&assignmentId=3T3IWE1XG790ITJ1DFM7O9IXXXZTQR&a=XW3T8&tp_a=XW3T8&b=3T3IWE1XG790ITJ1DFM7O9IXXXZTQR&tp_b=3T3IWE1XG790ITJ1DFM7O9IXXXZTQR&c=365198&tp_c=365198","heads":1,"tails":4,"studentIndex":14,"studentTrueHypers":{"a":1,"b":4},"studentGuess":0.2,"delta":0,"totalExamples":5,"bonus":0.45,"bonusSoFar":2.7},{"rt":5816,"response":{"heads":"1","tails":"4"},"type":"response","condition":"seqNoFeedback","trueTheta":0.2,"classrooms":["A","B"],"studentTrueClassroom":"B","exampleSet":"first","trial_type":"survey-html-form","trial_index":128,"time_elapsed":1332949,"internal_node_id":"0.0-124.0-0.0","params":{"nStudents":24,"maxFlips":30,"completionMinutes":45,"basePay":8,"maxBonus":9,"perTrialBonus":0.5,"perTrialBonusThreshold":0.1,"exampleCost":0.01},"classroomParams":{"A":{"a":1,"b":4},"B":{"a":4,"b":1},"C":{"a":2,"b":8},"D":{"a":8,"b":2}},"conditions":["nonSeqFull","nonSeqPartial","seqNoFeedback","seqFeedback"],"classroomPairings":[["A","B"],["C","D"]],"coinWeights":[0.2,0.5,0.8],"subjectId":"A2IQ0QCTQ3KWLT","assignmentId":"3T3IWE1XG790ITJ1DFM7O9IXXXZTQR","hitId":"3H6W48L9F4B5OEOMH57RM53ZYNHWPM","url":"https://gershmanlab.com/experiments/alicia/teaching/experiment/?hitId=3H6W48L9F4B5OEOMH57RM53ZYNHWPM&workerId=A2IQ0QCTQ3KWLT&assignmentId=3T3IWE1XG790ITJ1DFM7O9IXXXZTQR&a=XW3T8&tp_a=XW3T8&b=3T3IWE1XG790ITJ1DFM7O9IXXXZTQR&tp_b=3T3IWE1XG790ITJ1DFM7O9IXXXZTQR&c=365198&tp_c=365198","heads":1,"tails":4,"studentIndex":15,"studentTrueHypers":{"a":4,"b":1},"studentGuess":0.5,"delta":0.3,"totalExamples":5,"bonusSoFar":2.7},{"rt":7169,"response":{"heads":"1","tails":"4"},"type":"response","condition":"seqNoFeedback","trueTheta":0.2,"classrooms":["A","B"],"studentTrueClassroom":"B","exampleSet":"second","trial_type":"survey-html-form","trial_index":131,"time_elapsed":1345875,"internal_node_id":"0.0-127.0-0.0","params":{"nStudents":24,"maxFlips":30,"completionMinutes":45,"basePay":8,"maxBonus":9,"perTrialBonus":0.5,"perTrialBonusThreshold":0.1,"exampleCost":0.01},"classroomParams":{"A":{"a":1,"b":4},"B":{"a":4,"b":1},"C":{"a":2,"b":8},"D":{"a":8,"b":2}},"conditions":["nonSeqFull","nonSeqPartial","seqNoFeedback","seqFeedback"],"classroomPairings":[["A","B"],["C","D"]],"coinWeights":[0.2,0.5,0.8],"subjectId":"A2IQ0QCTQ3KWLT","assignmentId":"3T3IWE1XG790ITJ1DFM7O9IXXXZTQR","hitId":"3H6W48L9F4B5OEOMH57RM53ZYNHWPM","url":"https://gershmanlab.com/experiments/alicia/teaching/experiment/?hitId=3H6W48L9F4B5OEOMH57RM53ZYNHWPM&workerId=A2IQ0QCTQ3KWLT&assignmentId=3T3IWE1XG790ITJ1DFM7O9IXXXZTQR&a=XW3T8&tp_a=XW3T8&b=3T3IWE1XG790ITJ1DFM7O9IXXXZTQR&tp_b=3T3IWE1XG790ITJ1DFM7O9IXXXZTQR&c=365198&tp_c=365198","firstResponseHeads":1,"firstResponseTails":4,"secondResponseHeads":1,"secondResponseTails":4,"studentIndex":15,"studentTrueHypers":{"a":4,"b":1},"studentGuess":0.4,"delta":0.2,"bonus":0,"bonusSoFar":2.7,"totalExamples":10},{"rt":7446,"response":{"heads":"8","tails":"2"},"type":"response","condition":"seqFeedback","trueTheta":0.8,"classrooms":["C","D"],"studentTrueClassroom":"C","exampleSet":"first","trial_type":"survey-html-form","trial_index":137,"time_elapsed":1365113,"internal_node_id":"0.0-133.0-0.0","params":{"nStudents":24,"maxFlips":30,"completionMinutes":45,"basePay":8,"maxBonus":9,"perTrialBonus":0.5,"perTrialBonusThreshold":0.1,"exampleCost":0.01},"classroomParams":{"A":{"a":1,"b":4},"B":{"a":4,"b":1},"C":{"a":2,"b":8},"D":{"a":8,"b":2}},"conditions":["nonSeqFull","nonSeqPartial","seqNoFeedback","seqFeedback"],"classroomPairings":[["A","B"],["C","D"]],"coinWeights":[0.2,0.5,0.8],"subjectId":"A2IQ0QCTQ3KWLT","assignmentId":"3T3IWE1XG790ITJ1DFM7O9IXXXZTQR","hitId":"3H6W48L9F4B5OEOMH57RM53ZYNHWPM","url":"https://gershmanlab.com/experiments/alicia/teaching/experiment/?hitId=3H6W48L9F4B5OEOMH57RM53ZYNHWPM&workerId=A2IQ0QCTQ3KWLT&assignmentId=3T3IWE1XG790ITJ1DFM7O9IXXXZTQR&a=XW3T8&tp_a=XW3T8&b=3T3IWE1XG790ITJ1DFM7O9IXXXZTQR&tp_b=3T3IWE1XG790ITJ1DFM7O9IXXXZTQR&c=365198&tp_c=365198","heads":8,"tails":2,"studentIndex":16,"studentTrueHypers":{"a":2,"b":8},"studentGuess":0.5,"delta":0.30000000000000004,"totalExamples":10,"bonusSoFar":2.7},{"rt":7286,"response":{"heads":"8","tails":"2"},"type":"response","condition":"seqFeedback","trueTheta":0.8,"classrooms":["C","D"],"studentTrueClassroom":"C","exampleSet":"second","trial_type":"survey-html-form","trial_index":141,"time_elapsed":1380483,"internal_node_id":"0.0-137.0-0.0","params":{"nStudents":24,"maxFlips":30,"completionMinutes":45,"basePay":8,"maxBonus":9,"perTrialBonus":0.5,"perTrialBonusThreshold":0.1,"exampleCost":0.01},"classroomParams":{"A":{"a":1,"b":4},"B":{"a":4,"b":1},"C":{"a":2,"b":8},"D":{"a":8,"b":2}},"conditions":["nonSeqFull","nonSeqPartial","seqNoFeedback","seqFeedback"],"classroomPairings":[["A","B"],["C","D"]],"coinWeights":[0.2,0.5,0.8],"subjectId":"A2IQ0QCTQ3KWLT","assignmentId":"3T3IWE1XG790ITJ1DFM7O9IXXXZTQR","hitId":"3H6W48L9F4B5OEOMH57RM53ZYNHWPM","url":"https://gershmanlab.com/experiments/alicia/teaching/experiment/?hitId=3H6W48L9F4B5OEOMH57RM53ZYNHWPM&workerId=A2IQ0QCTQ3KWLT&assignmentId=3T3IWE1XG790ITJ1DFM7O9IXXXZTQR&a=XW3T8&tp_a=XW3T8&b=3T3IWE1XG790ITJ1DFM7O9IXXXZTQR&tp_b=3T3IWE1XG790ITJ1DFM7O9IXXXZTQR&c=365198&tp_c=365198","firstResponseHeads":8,"firstResponseTails":2,"secondResponseHeads":8,"secondResponseTails":2,"studentIndex":16,"studentTrueHypers":{"a":2,"b":8},"studentGuess":0.6,"delta":0.20000000000000007,"bonus":0,"bonusSoFar":2.7,"totalExamples":20},{"rt":6569,"response":{"heads":"8","tails":"2"},"type":"response","condition":"nonSeqFull","trueTheta":0.8,"classrooms":["C","D"],"studentTrueClassroom":"C","exampleSet":"first","trial_type":"survey-html-form","trial_index":147,"time_elapsed":1399541,"internal_node_id":"0.0-143.0-0.0","params":{"nStudents":24,"maxFlips":30,"completionMinutes":45,"basePay":8,"maxBonus":9,"perTrialBonus":0.5,"perTrialBonusThreshold":0.1,"exampleCost":0.01},"classroomParams":{"A":{"a":1,"b":4},"B":{"a":4,"b":1},"C":{"a":2,"b":8},"D":{"a":8,"b":2}},"conditions":["nonSeqFull","nonSeqPartial","seqNoFeedback","seqFeedback"],"classroomPairings":[["A","B"],["C","D"]],"coinWeights":[0.2,0.5,0.8],"subjectId":"A2IQ0QCTQ3KWLT","assignmentId":"3T3IWE1XG790ITJ1DFM7O9IXXXZTQR","hitId":"3H6W48L9F4B5OEOMH57RM53ZYNHWPM","url":"https://gershmanlab.com/experiments/alicia/teaching/experiment/?hitId=3H6W48L9F4B5OEOMH57RM53ZYNHWPM&workerId=A2IQ0QCTQ3KWLT&assignmentId=3T3IWE1XG790ITJ1DFM7O9IXXXZTQR&a=XW3T8&tp_a=XW3T8&b=3T3IWE1XG790ITJ1DFM7O9IXXXZTQR&tp_b=3T3IWE1XG790ITJ1DFM7O9IXXXZTQR&c=365198&tp_c=365198","heads":8,"tails":2,"studentIndex":17,"studentTrueHypers":{"a":2,"b":8},"studentGuess":0.5,"delta":0.30000000000000004,"totalExamples":10,"bonus":0,"bonusSoFar":2.7},{"rt":12331,"response":{"heads":"4","tails":"4"},"type":"response","condition":"nonSeqPartial","trueTheta":0.5,"classrooms":["A","B"],"studentTrueClassroom":"B","exampleSet":"first","trial_type":"survey-html-form","trial_index":153,"time_elapsed":1425733,"internal_node_id":"0.0-149.0-0.0","params":{"nStudents":24,"maxFlips":30,"completionMinutes":45,"basePay":8,"maxBonus":9,"perTrialBonus":0.5,"perTrialBonusThreshold":0.1,"exampleCost":0.01},"classroomParams":{"A":{"a":1,"b":4},"B":{"a":4,"b":1},"C":{"a":2,"b":8},"D":{"a":8,"b":2}},"conditions":["nonSeqFull","nonSeqPartial","seqNoFeedback","seqFeedback"],"classroomPairings":[["A","B"],["C","D"]],"coinWeights":[0.2,0.5,0.8],"subjectId":"A2IQ0QCTQ3KWLT","assignmentId":"3T3IWE1XG790ITJ1DFM7O9IXXXZTQR","hitId":"3H6W48L9F4B5OEOMH57RM53ZYNHWPM","url":"https://gershmanlab.com/experiments/alicia/teaching/experiment/?hitId=3H6W48L9F4B5OEOMH57RM53ZYNHWPM&workerId=A2IQ0QCTQ3KWLT&assignmentId=3T3IWE1XG790ITJ1DFM7O9IXXXZTQR&a=XW3T8&tp_a=XW3T8&b=3T3IWE1XG790ITJ1DFM7O9IXXXZTQR&tp_b=3T3IWE1XG790ITJ1DFM7O9IXXXZTQR&c=365198&tp_c=365198","heads":4,"tails":4,"studentIndex":18,"studentTrueHypers":{"a":4,"b":1},"studentGuess":0.6153846153846154,"delta":0.11538461538461542,"totalExamples":8,"bonus":0,"bonusSoFar":2.7},{"rt":7335,"response":{"heads":"2","tails":"4"},"type":"response","condition":"nonSeqFull","trueTheta":0.5,"classrooms":["A","B"],"studentTrueClassroom":"A","exampleSet":"first","trial_type":"survey-html-form","trial_index":159,"time_elapsed":1463850,"internal_node_id":"0.0-155.0-0.0","params":{"nStudents":24,"maxFlips":30,"completionMinutes":45,"basePay":8,"maxBonus":9,"perTrialBonus":0.5,"perTrialBonusThreshold":0.1,"exampleCost":0.01},"classroomParams":{"A":{"a":1,"b":4},"B":{"a":4,"b":1},"C":{"a":2,"b":8},"D":{"a":8,"b":2}},"conditions":["nonSeqFull","nonSeqPartial","seqNoFeedback","seqFeedback"],"classroomPairings":[["A","B"],["C","D"]],"coinWeights":[0.2,0.5,0.8],"subjectId":"A2IQ0QCTQ3KWLT","assignmentId":"3T3IWE1XG790ITJ1DFM7O9IXXXZTQR","hitId":"3H6W48L9F4B5OEOMH57RM53ZYNHWPM","url":"https://gershmanlab.com/experiments/alicia/teaching/experiment/?hitId=3H6W48L9F4B5OEOMH57RM53ZYNHWPM&workerId=A2IQ0QCTQ3KWLT&assignmentId=3T3IWE1XG790ITJ1DFM7O9IXXXZTQR&a=XW3T8&tp_a=XW3T8&b=3T3IWE1XG790ITJ1DFM7O9IXXXZTQR&tp_b=3T3IWE1XG790ITJ1DFM7O9IXXXZTQR&c=365198&tp_c=365198","heads":2,"tails":4,"studentIndex":19,"studentTrueHypers":{"a":1,"b":4},"studentGuess":0.2727272727272727,"delta":0.2272727272727273,"totalExamples":6,"bonus":0,"bonusSoFar":2.7},{"rt":13578,"response":{"heads":"4","tails":"1"},"type":"response","condition":"nonSeqPartial","trueTheta":0.8,"classrooms":["A","B"],"studentTrueClassroom":"A","exampleSet":"first","trial_type":"survey-html-form","trial_index":165,"time_elapsed":1488207,"internal_node_id":"0.0-161.0-0.0","params":{"nStudents":24,"maxFlips":30,"completionMinutes":45,"basePay":8,"maxBonus":9,"perTrialBonus":0.5,"perTrialBonusThreshold":0.1,"exampleCost":0.01},"classroomParams":{"A":{"a":1,"b":4},"B":{"a":4,"b":1},"C":{"a":2,"b":8},"D":{"a":8,"b":2}},"conditions":["nonSeqFull","nonSeqPartial","seqNoFeedback","seqFeedback"],"classroomPairings":[["A","B"],["C","D"]],"coinWeights":[0.2,0.5,0.8],"subjectId":"A2IQ0QCTQ3KWLT","assignmentId":"3T3IWE1XG790ITJ1DFM7O9IXXXZTQR","hitId":"3H6W48L9F4B5OEOMH57RM53ZYNHWPM","url":"https://gershmanlab.com/experiments/alicia/teaching/experiment/?hitId=3H6W48L9F4B5OEOMH57RM53ZYNHWPM&workerId=A2IQ0QCTQ3KWLT&assignmentId=3T3IWE1XG790ITJ1DFM7O9IXXXZTQR&a=XW3T8&tp_a=XW3T8&b=3T3IWE1XG790ITJ1DFM7O9IXXXZTQR&tp_b=3T3IWE1XG790ITJ1DFM7O9IXXXZTQR&c=365198&tp_c=365198","heads":4,"tails":1,"studentIndex":20,"studentTrueHypers":{"a":1,"b":4},"studentGuess":0.5,"delta":0.30000000000000004,"totalExamples":5,"bonus":0,"bonusSoFar":2.7},{"rt":6175,"response":{"heads":"2","tails":"6"},"type":"response","condition":"nonSeqFull","trueTheta":0.5,"classrooms":["C","D"],"studentTrueClassroom":"C","exampleSet":"first","trial_type":"survey-html-form","trial_index":171,"time_elapsed":1505814,"internal_node_id":"0.0-167.0-0.0","params":{"nStudents":24,"maxFlips":30,"completionMinutes":45,"basePay":8,"maxBonus":9,"perTrialBonus":0.5,"perTrialBonusThreshold":0.1,"exampleCost":0.01},"classroomParams":{"A":{"a":1,"b":4},"B":{"a":4,"b":1},"C":{"a":2,"b":8},"D":{"a":8,"b":2}},"conditions":["nonSeqFull","nonSeqPartial","seqNoFeedback","seqFeedback"],"classroomPairings":[["A","B"],["C","D"]],"coinWeights":[0.2,0.5,0.8],"subjectId":"A2IQ0QCTQ3KWLT","assignmentId":"3T3IWE1XG790ITJ1DFM7O9IXXXZTQR","hitId":"3H6W48L9F4B5OEOMH57RM53ZYNHWPM","url":"https://gershmanlab.com/experiments/alicia/teaching/experiment/?hitId=3H6W48L9F4B5OEOMH57RM53ZYNHWPM&workerId=A2IQ0QCTQ3KWLT&assignmentId=3T3IWE1XG790ITJ1DFM7O9IXXXZTQR&a=XW3T8&tp_a=XW3T8&b=3T3IWE1XG790ITJ1DFM7O9IXXXZTQR&tp_b=3T3IWE1XG790ITJ1DFM7O9IXXXZTQR&c=365198&tp_c=365198","heads":2,"tails":6,"studentIndex":21,"studentTrueHypers":{"a":2,"b":8},"studentGuess":0.2222222222222222,"delta":0.2777777777777778,"totalExamples":8,"bonus":0,"bonusSoFar":2.7},{"rt":6368,"response":{"heads":"2","tails":"8"},"type":"response","condition":"seqNoFeedback","trueTheta":0.5,"classrooms":["C","D"],"studentTrueClassroom":"D","exampleSet":"first","trial_type":"survey-html-form","trial_index":177,"time_elapsed":1542131,"internal_node_id":"0.0-173.0-0.0","params":{"nStudents":24,"maxFlips":30,"completionMinutes":45,"basePay":8,"maxBonus":9,"perTrialBonus":0.5,"perTrialBonusThreshold":0.1,"exampleCost":0.01},"classroomParams":{"A":{"a":1,"b":4},"B":{"a":4,"b":1},"C":{"a":2,"b":8},"D":{"a":8,"b":2}},"conditions":["nonSeqFull","nonSeqPartial","seqNoFeedback","seqFeedback"],"classroomPairings":[["A","B"],["C","D"]],"coinWeights":[0.2,0.5,0.8],"subjectId":"A2IQ0QCTQ3KWLT","assignmentId":"3T3IWE1XG790ITJ1DFM7O9IXXXZTQR","hitId":"3H6W48L9F4B5OEOMH57RM53ZYNHWPM","url":"https://gershmanlab.com/experiments/alicia/teaching/experiment/?hitId=3H6W48L9F4B5OEOMH57RM53ZYNHWPM&workerId=A2IQ0QCTQ3KWLT&assignmentId=3T3IWE1XG790ITJ1DFM7O9IXXXZTQR&a=XW3T8&tp_a=XW3T8&b=3T3IWE1XG790ITJ1DFM7O9IXXXZTQR&tp_b=3T3IWE1XG790ITJ1DFM7O9IXXXZTQR&c=365198&tp_c=365198","heads":2,"tails":8,"studentIndex":22,"studentTrueHypers":{"a":8,"b":2},"studentGuess":0.5,"delta":0,"totalExamples":10,"bonusSoFar":2.7},{"rt":7791,"response":{"heads":"2","tails":"8"},"type":"response","condition":"seqNoFeedback","trueTheta":0.5,"classrooms":["C","D"],"studentTrueClassroom":"D","exampleSet":"second","trial_type":"survey-html-form","trial_index":180,"time_elapsed":1555429,"internal_node_id":"0.0-176.0-0.0","params":{"nStudents":24,"maxFlips":30,"completionMinutes":45,"basePay":8,"maxBonus":9,"perTrialBonus":0.5,"perTrialBonusThreshold":0.1,"exampleCost":0.01},"classroomParams":{"A":{"a":1,"b":4},"B":{"a":4,"b":1},"C":{"a":2,"b":8},"D":{"a":8,"b":2}},"conditions":["nonSeqFull","nonSeqPartial","seqNoFeedback","seqFeedback"],"classroomPairings":[["A","B"],["C","D"]],"coinWeights":[0.2,0.5,0.8],"subjectId":"A2IQ0QCTQ3KWLT","assignmentId":"3T3IWE1XG790ITJ1DFM7O9IXXXZTQR","hitId":"3H6W48L9F4B5OEOMH57RM53ZYNHWPM","url":"https://gershmanlab.com/experiments/alicia/teaching/experiment/?hitId=3H6W48L9F4B5OEOMH57RM53ZYNHWPM&workerId=A2IQ0QCTQ3KWLT&assignmentId=3T3IWE1XG790ITJ1DFM7O9IXXXZTQR&a=XW3T8&tp_a=XW3T8&b=3T3IWE1XG790ITJ1DFM7O9IXXXZTQR&tp_b=3T3IWE1XG790ITJ1DFM7O9IXXXZTQR&c=365198&tp_c=365198","firstResponseHeads":2,"firstResponseTails":8,"secondResponseHeads":2,"secondResponseTails":8,"studentIndex":22,"studentTrueHypers":{"a":8,"b":2},"studentGuess":0.4,"delta":0.09999999999999998,"bonus":0.3,"bonusSoFar":3,"totalExamples":20},{"rt":7211,"response":{"heads":"2","tails":"6"},"type":"response","condition":"seqFeedback","trueTheta":0.5,"classrooms":["A","B"],"studentTrueClassroom":"B","exampleSet":"first","trial_type":"survey-html-form","trial_index":186,"time_elapsed":1576255,"internal_node_id":"0.0-182.0-0.0","params":{"nStudents":24,"maxFlips":30,"completionMinutes":45,"basePay":8,"maxBonus":9,"perTrialBonus":0.5,"perTrialBonusThreshold":0.1,"exampleCost":0.01},"classroomParams":{"A":{"a":1,"b":4},"B":{"a":4,"b":1},"C":{"a":2,"b":8},"D":{"a":8,"b":2}},"conditions":["nonSeqFull","nonSeqPartial","seqNoFeedback","seqFeedback"],"classroomPairings":[["A","B"],["C","D"]],"coinWeights":[0.2,0.5,0.8],"subjectId":"A2IQ0QCTQ3KWLT","assignmentId":"3T3IWE1XG790ITJ1DFM7O9IXXXZTQR","hitId":"3H6W48L9F4B5OEOMH57RM53ZYNHWPM","url":"https://gershmanlab.com/experiments/alicia/teaching/experiment/?hitId=3H6W48L9F4B5OEOMH57RM53ZYNHWPM&workerId=A2IQ0QCTQ3KWLT&assignmentId=3T3IWE1XG790ITJ1DFM7O9IXXXZTQR&a=XW3T8&tp_a=XW3T8&b=3T3IWE1XG790ITJ1DFM7O9IXXXZTQR&tp_b=3T3IWE1XG790ITJ1DFM7O9IXXXZTQR&c=365198&tp_c=365198","heads":2,"tails":6,"studentIndex":23,"studentTrueHypers":{"a":4,"b":1},"studentGuess":0.46153846153846156,"delta":0.038461538461538436,"totalExamples":8,"bonusSoFar":3},{"rt":9778,"response":{"heads":"1","tails":"3"},"type":"response","condition":"seqFeedback","trueTheta":0.5,"classrooms":["A","B"],"studentTrueClassroom":"B","exampleSet":"second","trial_type":"survey-html-form","trial_index":190,"time_elapsed":1606170,"internal_node_id":"0.0-186.0-0.0","params":{"nStudents":24,"maxFlips":30,"completionMinutes":45,"basePay":8,"maxBonus":9,"perTrialBonus":0.5,"perTrialBonusThreshold":0.1,"exampleCost":0.01},"classroomParams":{"A":{"a":1,"b":4},"B":{"a":4,"b":1},"C":{"a":2,"b":8},"D":{"a":8,"b":2}},"conditions":["nonSeqFull","nonSeqPartial","seqNoFeedback","seqFeedback"],"classroomPairings":[["A","B"],["C","D"]],"coinWeights":[0.2,0.5,0.8],"subjectId":"A2IQ0QCTQ3KWLT","assignmentId":"3T3IWE1XG790ITJ1DFM7O9IXXXZTQR","hitId":"3H6W48L9F4B5OEOMH57RM53ZYNHWPM","url":"https://gershmanlab.com/experiments/alicia/teaching/experiment/?hitId=3H6W48L9F4B5OEOMH57RM53ZYNHWPM&workerId=A2IQ0QCTQ3KWLT&assignmentId=3T3IWE1XG790ITJ1DFM7O9IXXXZTQR&a=XW3T8&tp_a=XW3T8&b=3T3IWE1XG790ITJ1DFM7O9IXXXZTQR&tp_b=3T3IWE1XG790ITJ1DFM7O9IXXXZTQR&c=365198&tp_c=365198","firstResponseHeads":2,"firstResponseTails":6,"secondResponseHeads":1,"secondResponseTails":3,"studentIndex":23,"studentTrueHypers":{"a":4,"b":1},"studentGuess":0.4117647058823529,"delta":0.08823529411764708,"bonus":0.38,"bonusSoFar":3.38,"totalExamples":12},{"rt":13864,"response":{"gender":"female","age":"51","understood":"yes","comments":""},"type":"response","trial_type":"survey-html-form","trial_index":194,"time_elapsed":1629559,"internal_node_id":"0.0-191.0","params":{"nStudents":24,"maxFlips":30,"completionMinutes":45,"basePay":8,"maxBonus":9,"perTrialBonus":0.5,"perTrialBonusThreshold":0.1,"exampleCost":0.01},"classroomParams":{"A":{"a":1,"b":4},"B":{"a":4,"b":1},"C":{"a":2,"b":8},"D":{"a":8,"b":2}},"conditions":["nonSeqFull","nonSeqPartial","seqNoFeedback","seqFeedback"],"classroomPairings":[["A","B"],["C","D"]],"coinWeights":[0.2,0.5,0.8],"subjectId":"A2IQ0QCTQ3KWLT","assignmentId":"3T3IWE1XG790ITJ1DFM7O9IXXXZTQR","hitId":"3H6W48L9F4B5OEOMH57RM53ZYNHWPM","url":"https://gershmanlab.com/experiments/alicia/teaching/experiment/?hitId=3H6W48L9F4B5OEOMH57RM53ZYNHWPM&workerId=A2IQ0QCTQ3KWLT&assignmentId=3T3IWE1XG790ITJ1DFM7O9IXXXZTQR&a=XW3T8&tp_a=XW3T8&b=3T3IWE1XG790ITJ1DFM7O9IXXXZTQR&tp_b=3T3IWE1XG790ITJ1DFM7O9IXXXZTQR&c=365198&tp_c=365198","totalBonus":3.38}]