[{"rt":14878,"response":{"heads":"1","tails":"4"},"type":"response","condition":"nonSeqFull","trueTheta":0.2,"classrooms":["A","B"],"studentTrueClassroom":"A","exampleSet":"first","trial_type":"survey-html-form","trial_index":43,"time_elapsed":1191363,"internal_node_id":"0.0-6.0-0.0","params":{"nStudents":24,"maxFlips":30,"completionMinutes":45,"basePay":8,"maxBonus":9,"perTrialBonus":0.5,"perTrialBonusThreshold":0.1,"exampleCost":0.01},"classroomParams":{"A":{"a":1,"b":4},"B":{"a":4,"b":1},"C":{"a":2,"b":8},"D":{"a":8,"b":2}},"conditions":["nonSeqFull","nonSeqPartial","seqNoFeedback","seqFeedback"],"classroomPairings":[["A","B"],["C","D"]],"coinWeights":[0.2,0.5,0.8],"subjectId":"A2JDYN6QM8M5UN","assignmentId":"3LYA37P8IR9EB4RP0OBPST02SK8BKS","hitId":"3QGHA0EA0JM3KKNCY0PQRLYAHJ3BWH","url":"https://gershmanlab.com/experiments/alicia/teaching/experiment/?hitId=3QGHA0EA0JM3KKNCY0PQRLYAHJ3BWH&workerId=A2JDYN6QM8M5UN&assignmentId=3LYA37P8IR9EB4RP0OBPST02SK8BKS&a=83YL8&tp_a=83YL8&b=3LYA37P8IR9EB4RP0OBPST02SK8BKS&tp_b=3LYA37P8IR9EB4RP0OBPST02SK8BKS&c=365198&tp_c=365198","heads":1,"tails":4,"studentIndex":0,"studentTrueHypers":{"a":1,"b":4},"studentGuess":0.2,"delta":0,"totalExamples":5,"bonus":0.45,"bonusSoFar":0.45},{"rt":14225,"response":{"heads":"1","tails":"4"},"type":"response","condition":"seqNoFeedback","trueTheta":0.2,"classrooms":["C","D"],"studentTrueClassroom":"C","exampleSet":"first","trial_type":"survey-html-form","trial_index":49,"time_elapsed":1222405,"internal_node_id":"0.0-12.0-0.0","params":{"nStudents":24,"maxFlips":30,"completionMinutes":45,"basePay":8,"maxBonus":9,"perTrialBonus":0.5,"perTrialBonusThreshold":0.1,"exampleCost":0.01},"classroomParams":{"A":{"a":1,"b":4},"B":{"a":4,"b":1},"C":{"a":2,"b":8},"D":{"a":8,"b":2}},"conditions":["nonSeqFull","nonSeqPartial","seqNoFeedback","seqFeedback"],"classroomPairings":[["A","B"],["C","D"]],"coinWeights":[0.2,0.5,0.8],"subjectId":"A2JDYN6QM8M5UN","assignmentId":"3LYA37P8IR9EB4RP0OBPST02SK8BKS","hitId":"3QGHA0EA0JM3KKNCY0PQRLYAHJ3BWH","url":"https://gershmanlab.com/experiments/alicia/teaching/experiment/?hitId=3QGHA0EA0JM3KKNCY0PQRLYAHJ3BWH&workerId=A2JDYN6QM8M5UN&assignmentId=3LYA37P8IR9EB4RP0OBPST02SK8BKS&a=83YL8&tp_a=83YL8&b=3LYA37P8IR9EB4RP0OBPST02SK8BKS&tp_b=3LYA37P8IR9EB4RP0OBPST02SK8BKS&c=365198&tp_c=365198","heads":1,"tails":4,"studentIndex":1,"studentTrueHypers":{"a":2,"b":8},"studentGuess":0.2,"delta":0,"totalExamples":5,"bonusSoFar":0.45},{"rt":11000,"response":{"heads":"1","tails":"4"},"type":"response","condition":"seqNoFeedback","trueTheta":0.2,"classrooms":["C","D"],"studentTrueClassroom":"C","exampleSet":"second","trial_type":"survey-html-form","trial_index":52,"time_elapsed":1241163,"internal_node_id":"0.0-15.0-0.0","params":{"nStudents":24,"maxFlips":30,"completionMinutes":45,"basePay":8,"maxBonus":9,"perTrialBonus":0.5,"perTrialBonusThreshold":0.1,"exampleCost":0.01},"classroomParams":{"A":{"a":1,"b":4},"B":{"a":4,"b":1},"C":{"a":2,"b":8},"D":{"a":8,"b":2}},"conditions":["nonSeqFull","nonSeqPartial","seqNoFeedback","seqFeedback"],"classroomPairings":[["A","B"],["C","D"]],"coinWeights":[0.2,0.5,0.8],"subjectId":"A2JDYN6QM8M5UN","assignmentId":"3LYA37P8IR9EB4RP0OBPST02SK8BKS","hitId":"3QGHA0EA0JM3KKNCY0PQRLYAHJ3BWH","url":"https://gershmanlab.com/experiments/alicia/teaching/experiment/?hitId=3QGHA0EA0JM3KKNCY0PQRLYAHJ3BWH&workerId=A2JDYN6QM8M5UN&assignmentId=3LYA37P8IR9EB4RP0OBPST02SK8BKS&a=83YL8&tp_a=83YL8&b=3LYA37P8IR9EB4RP0OBPST02SK8BKS&tp_b=3LYA37P8IR9EB4RP0OBPST02SK8BKS&c=365198&tp_c=365198","firstResponseHeads":1,"firstResponseTails":4,"secondResponseHeads":1,"secondResponseTails":4,"studentIndex":1,"studentTrueHypers":{"a":2,"b":8},"studentGuess":0.2,"delta":0,"bonus":0.4,"bonusSoFar":0.85,"totalExamples":10},{"rt":5923,"response":{"heads":"1","tails":"2"},"type":"response","condition":"nonSeqPartial","trueTheta":0.5,"classrooms":["C","D"],"studentTrueClassroom":"C","exampleSet":"first","trial_type":"survey-html-form","trial_index":58,"time_elapsed":1265493,"internal_node_id":"0.0-21.0-0.0","params":{"nStudents":24,"maxFlips":30,"completionMinutes":45,"basePay":8,"maxBonus":9,"perTrialBonus":0.5,"perTrialBonusThreshold":0.1,"exampleCost":0.01},"classroomParams":{"A":{"a":1,"b":4},"B":{"a":4,"b":1},"C":{"a":2,"b":8},"D":{"a":8,"b":2}},"conditions":["nonSeqFull","nonSeqPartial","seqNoFeedback","seqFeedback"],"classroomPairings":[["A","B"],["C","D"]],"coinWeights":[0.2,0.5,0.8],"subjectId":"A2JDYN6QM8M5UN","assignmentId":"3LYA37P8IR9EB4RP0OBPST02SK8BKS","hitId":"3QGHA0EA0JM3KKNCY0PQRLYAHJ3BWH","url":"https://gershmanlab.com/experiments/alicia/teaching/experiment/?hitId=3QGHA0EA0JM3KKNCY0PQRLYAHJ3BWH&workerId=A2JDYN6QM8M5UN&assignmentId=3LYA37P8IR9EB4RP0OBPST02SK8BKS&a=83YL8&tp_a=83YL8&b=3LYA37P8IR9EB4RP0OBPST02SK8BKS&tp_b=3LYA37P8IR9EB4RP0OBPST02SK8BKS&c=365198&tp_c=365198","heads":1,"tails":2,"studentIndex":2,"studentTrueHypers":{"a":2,"b":8},"studentGuess":0.23076923076923078,"delta":0.2692307692307692,"totalExamples":3,"bonus":0,"bonusSoFar":0.85},{"rt":8646,"response":{"heads":"2","tails":"2"},"type":"response","condition":"nonSeqFull","trueTheta":0.5,"classrooms":["A","B"],"studentTrueClassroom":"B","exampleSet":"first","trial_type":"survey-html-form","trial_index":64,"time_elapsed":1289080,"internal_node_id":"0.0-27.0-0.0","params":{"nStudents":24,"maxFlips":30,"completionMinutes":45,"basePay":8,"maxBonus":9,"perTrialBonus":0.5,"perTrialBonusThreshold":0.1,"exampleCost":0.01},"classroomParams":{"A":{"a":1,"b":4},"B":{"a":4,"b":1},"C":{"a":2,"b":8},"D":{"a":8,"b":2}},"conditions":["nonSeqFull","nonSeqPartial","seqNoFeedback","seqFeedback"],"classroomPairings":[["A","B"],["C","D"]],"coinWeights":[0.2,0.5,0.8],"subjectId":"A2JDYN6QM8M5UN","assignmentId":"3LYA37P8IR9EB4RP0OBPST02SK8BKS","hitId":"3QGHA0EA0JM3KKNCY0PQRLYAHJ3BWH","url":"https://gershmanlab.com/experiments/alicia/teaching/experiment/?hitId=3QGHA0EA0JM3KKNCY0PQRLYAHJ3BWH&workerId=A2JDYN6QM8M5UN&assignmentId=3LYA37P8IR9EB4RP0OBPST02SK8BKS&a=83YL8&tp_a=83YL8&b=3LYA37P8IR9EB4RP0OBPST02SK8BKS&tp_b=3LYA37P8IR9EB4RP0OBPST02SK8BKS&c=365198&tp_c=365198","heads":2,"tails":2,"studentIndex":3,"studentTrueHypers":{"a":4,"b":1},"studentGuess":0.6666666666666666,"delta":0.16666666666666663,"totalExamples":4,"bonus":0,"bonusSoFar":0.85},{"rt":8138,"response":{"heads":"2","tails":"2"},"type":"response","condition":"seqFeedback","trueTheta":0.5,"classrooms":["C","D"],"studentTrueClassroom":"D","exampleSet":"first","trial_type":"survey-html-form","trial_index":70,"time_elapsed":1313566,"internal_node_id":"0.0-33.0-0.0","params":{"nStudents":24,"maxFlips":30,"completionMinutes":45,"basePay":8,"maxBonus":9,"perTrialBonus":0.5,"perTrialBonusThreshold":0.1,"exampleCost":0.01},"classroomParams":{"A":{"a":1,"b":4},"B":{"a":4,"b":1},"C":{"a":2,"b":8},"D":{"a":8,"b":2}},"conditions":["nonSeqFull","nonSeqPartial","seqNoFeedback","seqFeedback"],"classroomPairings":[["A","B"],["C","D"]],"coinWeights":[0.2,0.5,0.8],"subjectId":"A2JDYN6QM8M5UN","assignmentId":"3LYA37P8IR9EB4RP0OBPST02SK8BKS","hitId":"3QGHA0EA0JM3KKNCY0PQRLYAHJ3BWH","url":"https://gershmanlab.com/experiments/alicia/teaching/experiment/?hitId=3QGHA0EA0JM3KKNCY0PQRLYAHJ3BWH&workerId=A2JDYN6QM8M5UN&assignmentId=3LYA37P8IR9EB4RP0OBPST02SK8BKS&a=83YL8&tp_a=83YL8&b=3LYA37P8IR9EB4RP0OBPST02SK8BKS&tp_b=3LYA37P8IR9EB4RP0OBPST02SK8BKS&c=365198&tp_c=365198","heads":2,"tails":2,"studentIndex":4,"studentTrueHypers":{"a":8,"b":2},"studentGuess":0.7142857142857143,"delta":0.2142857142857143,"totalExamples":4,"bonusSoFar":0.85},{"rt":14547,"response":{"heads":"2","tails":"3"},"type":"response","condition":"seqFeedback","trueTheta":0.5,"classrooms":["C","D"],"studentTrueClassroom":"D","exampleSet":"second","trial_type":"survey-html-form","trial_index":74,"time_elapsed":1349769,"internal_node_id":"0.0-37.0-0.0","params":{"nStudents":24,"maxFlips":30,"completionMinutes":45,"basePay":8,"maxBonus":9,"perTrialBonus":0.5,"perTrialBonusThreshold":0.1,"exampleCost":0.01},"classroomParams":{"A":{"a":1,"b":4},"B":{"a":4,"b":1},"C":{"a":2,"b":8},"D":{"a":8,"b":2}},"conditions":["nonSeqFull","nonSeqPartial","seqNoFeedback","seqFeedback"],"classroomPairings":[["A","B"],["C","D"]],"coinWeights":[0.2,0.5,0.8],"subjectId":"A2JDYN6QM8M5UN","assignmentId":"3LYA37P8IR9EB4RP0OBPST02SK8BKS","hitId":"3QGHA0EA0JM3KKNCY0PQRLYAHJ3BWH","url":"https://gershmanlab.com/experiments/alicia/teaching/experiment/?hitId=3QGHA0EA0JM3KKNCY0PQRLYAHJ3BWH&workerId=A2JDYN6QM8M5UN&assignmentId=3LYA37P8IR9EB4RP0OBPST02SK8BKS&a=83YL8&tp_a=83YL8&b=3LYA37P8IR9EB4RP0OBPST02SK8BKS&tp_b=3LYA37P8IR9EB4RP0OBPST02SK8BKS&c=365198&tp_c=365198","firstResponseHeads":2,"firstResponseTails":2,"secondResponseHeads":2,"secondResponseTails":3,"studentIndex":4,"studentTrueHypers":{"a":8,"b":2},"studentGuess":0.631578947368421,"delta":0.13157894736842102,"bonus":0,"bonusSoFar":0.85,"totalExamples":9},{"rt":9647,"response":{"heads":"2","tails":"4"},"type":"response","condition":"seqNoFeedback","trueTheta":0.5,"classrooms":["C","D"],"studentTrueClassroom":"D","exampleSet":"first","trial_type":"survey-html-form","trial_index":80,"time_elapsed":1378593,"internal_node_id":"0.0-43.0-0.0","params":{"nStudents":24,"maxFlips":30,"completionMinutes":45,"basePay":8,"maxBonus":9,"perTrialBonus":0.5,"perTrialBonusThreshold":0.1,"exampleCost":0.01},"classroomParams":{"A":{"a":1,"b":4},"B":{"a":4,"b":1},"C":{"a":2,"b":8},"D":{"a":8,"b":2}},"conditions":["nonSeqFull","nonSeqPartial","seqNoFeedback","seqFeedback"],"classroomPairings":[["A","B"],["C","D"]],"coinWeights":[0.2,0.5,0.8],"subjectId":"A2JDYN6QM8M5UN","assignmentId":"3LYA37P8IR9EB4RP0OBPST02SK8BKS","hitId":"3QGHA0EA0JM3KKNCY0PQRLYAHJ3BWH","url":"https://gershmanlab.com/experiments/alicia/teaching/experiment/?hitId=3QGHA0EA0JM3KKNCY0PQRLYAHJ3BWH&workerId=A2JDYN6QM8M5UN&assignmentId=3LYA37P8IR9EB4RP0OBPST02SK8BKS&a=83YL8&tp_a=83YL8&b=3LYA37P8IR9EB4RP0OBPST02SK8BKS&tp_b=3LYA37P8IR9EB4RP0OBPST02SK8BKS&c=365198&tp_c=365198","heads":2,"tails":4,"studentIndex":5,"studentTrueHypers":{"a":8,"b":2},"studentGuess":0.625,"delta":0.125,"totalExamples":6,"bonusSoFar":0.85},{"rt":6192,"response":{"heads":"1","tails":"2"},"type":"response","condition":"seqNoFeedback","trueTheta":0.5,"classrooms":["C","D"],"studentTrueClassroom":"D","exampleSet":"second","trial_type":"survey-html-form","trial_index":83,"time_elapsed":1391795,"internal_node_id":"0.0-46.0-0.0","params":{"nStudents":24,"maxFlips":30,"completionMinutes":45,"basePay":8,"maxBonus":9,"perTrialBonus":0.5,"perTrialBonusThreshold":0.1,"exampleCost":0.01},"classroomParams":{"A":{"a":1,"b":4},"B":{"a":4,"b":1},"C":{"a":2,"b":8},"D":{"a":8,"b":2}},"conditions":["nonSeqFull","nonSeqPartial","seqNoFeedback","seqFeedback"],"classroomPairings":[["A","B"],["C","D"]],"coinWeights":[0.2,0.5,0.8],"subjectId":"A2JDYN6QM8M5UN","assignmentId":"3LYA37P8IR9EB4RP0OBPST02SK8BKS","hitId":"3QGHA0EA0JM3KKNCY0PQRLYAHJ3BWH","url":"https://gershmanlab.com/experiments/alicia/teaching/experiment/?hitId=3QGHA0EA0JM3KKNCY0PQRLYAHJ3BWH&workerId=A2JDYN6QM8M5UN&assignmentId=3LYA37P8IR9EB4RP0OBPST02SK8BKS&a=83YL8&tp_a=83YL8&b=3LYA37P8IR9EB4RP0OBPST02SK8BKS&tp_b=3LYA37P8IR9EB4RP0OBPST02SK8BKS&c=365198&tp_c=365198","firstResponseHeads":2,"firstResponseTails":4,"secondResponseHeads":1,"secondResponseTails":2,"studentIndex":5,"studentTrueHypers":{"a":8,"b":2},"studentGuess":0.5789473684210527,"delta":0.07894736842105265,"bonus":0.41,"bonusSoFar":1.26,"totalExamples":9},{"rt":36350,"response":{"heads":"4","tails":"1"},"type":"response","condition":"seqNoFeedback","trueTheta":0.8,"classrooms":["A","B"],"studentTrueClassroom":"A","exampleSet":"first","trial_type":"survey-html-form","trial_index":89,"time_elapsed":1446919,"internal_node_id":"0.0-52.0-0.0","params":{"nStudents":24,"maxFlips":30,"completionMinutes":45,"basePay":8,"maxBonus":9,"perTrialBonus":0.5,"perTrialBonusThreshold":0.1,"exampleCost":0.01},"classroomParams":{"A":{"a":1,"b":4},"B":{"a":4,"b":1},"C":{"a":2,"b":8},"D":{"a":8,"b":2}},"conditions":["nonSeqFull","nonSeqPartial","seqNoFeedback","seqFeedback"],"classroomPairings":[["A","B"],["C","D"]],"coinWeights":[0.2,0.5,0.8],"subjectId":"A2JDYN6QM8M5UN","assignmentId":"3LYA37P8IR9EB4RP0OBPST02SK8BKS","hitId":"3QGHA0EA0JM3KKNCY0PQRLYAHJ3BWH","url":"https://gershmanlab.com/experiments/alicia/teaching/experiment/?hitId=3QGHA0EA0JM3KKNCY0PQRLYAHJ3BWH&workerId=A2JDYN6QM8M5UN&assignmentId=3LYA37P8IR9EB4RP0OBPST02SK8BKS&a=83YL8&tp_a=83YL8&b=3LYA37P8IR9EB4RP0OBPST02SK8BKS&tp_b=3LYA37P8IR9EB4RP0OBPST02SK8BKS&c=365198&tp_c=365198","heads":4,"tails":1,"studentIndex":6,"studentTrueHypers":{"a":1,"b":4},"studentGuess":0.5,"delta":0.30000000000000004,"totalExamples":5,"bonusSoFar":1.26},{"rt":8308,"response":{"heads":"4","tails":"1"},"type":"response","condition":"seqNoFeedback","trueTheta":0.8,"classrooms":["A","B"],"studentTrueClassroom":"A","exampleSet":"second","trial_type":"survey-html-form","trial_index":92,"time_elapsed":1461000,"internal_node_id":"0.0-55.0-0.0","params":{"nStudents":24,"maxFlips":30,"completionMinutes":45,"basePay":8,"maxBonus":9,"perTrialBonus":0.5,"perTrialBonusThreshold":0.1,"exampleCost":0.01},"classroomParams":{"A":{"a":1,"b":4},"B":{"a":4,"b":1},"C":{"a":2,"b":8},"D":{"a":8,"b":2}},"conditions":["nonSeqFull","nonSeqPartial","seqNoFeedback","seqFeedback"],"classroomPairings":[["A","B"],["C","D"]],"coinWeights":[0.2,0.5,0.8],"subjectId":"A2JDYN6QM8M5UN","assignmentId":"3LYA37P8IR9EB4RP0OBPST02SK8BKS","hitId":"3QGHA0EA0JM3KKNCY0PQRLYAHJ3BWH","url":"https://gershmanlab.com/experiments/alicia/teaching/experiment/?hitId=3QGHA0EA0JM3KKNCY0PQRLYAHJ3BWH&workerId=A2JDYN6QM8M5UN&assignmentId=3LYA37P8IR9EB4RP0OBPST02SK8BKS&a=83YL8&tp_a=83YL8&b=3LYA37P8IR9EB4RP0OBPST02SK8BKS&tp_b=3LYA37P8IR9EB4RP0OBPST02SK8BKS&c=365198&tp_c=365198","firstResponseHeads":4,"firstResponseTails":1,"secondResponseHeads":4,"secondResponseTails":1,"studentIndex":6,"studentTrueHypers":{"a":1,"b":4},"studentGuess":0.6,"delta":0.20000000000000007,"bonus":0,"bonusSoFar":1.26,"totalExamples":10},{"rt":13741,"response":{"heads":"4","tails":"3"},"type":"response","condition":"seqFeedback","trueTheta":0.8,"classrooms":["C","D"],"studentTrueClassroom":"C","exampleSet":"first","trial_type":"survey-html-form","trial_index":98,"time_elapsed":1499606,"internal_node_id":"0.0-61.0-0.0","params":{"nStudents":24,"maxFlips":30,"completionMinutes":45,"basePay":8,"maxBonus":9,"perTrialBonus":0.5,"perTrialBonusThreshold":0.1,"exampleCost":0.01},"classroomParams":{"A":{"a":1,"b":4},"B":{"a":4,"b":1},"C":{"a":2,"b":8},"D":{"a":8,"b":2}},"conditions":["nonSeqFull","nonSeqPartial","seqNoFeedback","seqFeedback"],"classroomPairings":[["A","B"],["C","D"]],"coinWeights":[0.2,0.5,0.8],"subjectId":"A2JDYN6QM8M5UN","assignmentId":"3LYA37P8IR9EB4RP0OBPST02SK8BKS","hitId":"3QGHA0EA0JM3KKNCY0PQRLYAHJ3BWH","url":"https://gershmanlab.com/experiments/alicia/teaching/experiment/?hitId=3QGHA0EA0JM3KKNCY0PQRLYAHJ3BWH&workerId=A2JDYN6QM8M5UN&assignmentId=3LYA37P8IR9EB4RP0OBPST02SK8BKS&a=83YL8&tp_a=83YL8&b=3LYA37P8IR9EB4RP0OBPST02SK8BKS&tp_b=3LYA37P8IR9EB4RP0OBPST02SK8BKS&c=365198&tp_c=365198","heads":4,"tails":3,"studentIndex":7,"studentTrueHypers":{"a":2,"b":8},"studentGuess":0.35294117647058826,"delta":0.4470588235294118,"totalExamples":7,"bonusSoFar":1.26},{"rt":22092,"response":{"heads":"8","tails":"2"},"type":"response","condition":"seqFeedback","trueTheta":0.8,"classrooms":["C","D"],"studentTrueClassroom":"C","exampleSet":"second","trial_type":"survey-html-form","trial_index":102,"time_elapsed":1532948,"internal_node_id":"0.0-65.0-0.0","params":{"nStudents":24,"maxFlips":30,"completionMinutes":45,"basePay":8,"maxBonus":9,"perTrialBonus":0.5,"perTrialBonusThreshold":0.1,"exampleCost":0.01},"classroomParams":{"A":{"a":1,"b":4},"B":{"a":4,"b":1},"C":{"a":2,"b":8},"D":{"a":8,"b":2}},"conditions":["nonSeqFull","nonSeqPartial","seqNoFeedback","seqFeedback"],"classroomPairings":[["A","B"],["C","D"]],"coinWeights":[0.2,0.5,0.8],"subjectId":"A2JDYN6QM8M5UN","assignmentId":"3LYA37P8IR9EB4RP0OBPST02SK8BKS","hitId":"3QGHA0EA0JM3KKNCY0PQRLYAHJ3BWH","url":"https://gershmanlab.com/experiments/alicia/teaching/experiment/?hitId=3QGHA0EA0JM3KKNCY0PQRLYAHJ3BWH&workerId=A2JDYN6QM8M5UN&assignmentId=3LYA37P8IR9EB4RP0OBPST02SK8BKS&a=83YL8&tp_a=83YL8&b=3LYA37P8IR9EB4RP0OBPST02SK8BKS&tp_b=3LYA37P8IR9EB4RP0OBPST02SK8BKS&c=365198&tp_c=365198","firstResponseHeads":4,"firstResponseTails":3,"secondResponseHeads":8,"secondResponseTails":2,"studentIndex":7,"studentTrueHypers":{"a":2,"b":8},"studentGuess":0.5185185185185185,"delta":0.28148148148148155,"bonus":0,"bonusSoFar":1.26,"totalExamples":17},{"rt":10723,"response":{"heads":"10","tails":"1"},"type":"response","condition":"nonSeqPartial","trueTheta":0.8,"classrooms":["A","B"],"studentTrueClassroom":"B","exampleSet":"first","trial_type":"survey-html-form","trial_index":108,"time_elapsed":1559684,"internal_node_id":"0.0-71.0-0.0","params":{"nStudents":24,"maxFlips":30,"completionMinutes":45,"basePay":8,"maxBonus":9,"perTrialBonus":0.5,"perTrialBonusThreshold":0.1,"exampleCost":0.01},"classroomParams":{"A":{"a":1,"b":4},"B":{"a":4,"b":1},"C":{"a":2,"b":8},"D":{"a":8,"b":2}},"conditions":["nonSeqFull","nonSeqPartial","seqNoFeedback","seqFeedback"],"classroomPairings":[["A","B"],["C","D"]],"coinWeights":[0.2,0.5,0.8],"subjectId":"A2JDYN6QM8M5UN","assignmentId":"3LYA37P8IR9EB4RP0OBPST02SK8BKS","hitId":"3QGHA0EA0JM3KKNCY0PQRLYAHJ3BWH","url":"https://gershmanlab.com/experiments/alicia/teaching/experiment/?hitId=3QGHA0EA0JM3KKNCY0PQRLYAHJ3BWH&workerId=A2JDYN6QM8M5UN&assignmentId=3LYA37P8IR9EB4RP0OBPST02SK8BKS&a=83YL8&tp_a=83YL8&b=3LYA37P8IR9EB4RP0OBPST02SK8BKS&tp_b=3LYA37P8IR9EB4RP0OBPST02SK8BKS&c=365198&tp_c=365198","heads":10,"tails":1,"studentIndex":8,"studentTrueHypers":{"a":4,"b":1},"studentGuess":0.875,"delta":0.07499999999999996,"totalExamples":11,"bonus":0.39,"bonusSoFar":1.65},{"rt":14849,"response":{"heads":"8","tails":"2"},"type":"response","condition":"nonSeqFull","trueTheta":0.8,"classrooms":["C","D"],"studentTrueClassroom":"C","exampleSet":"first","trial_type":"survey-html-form","trial_index":114,"time_elapsed":1589557,"internal_node_id":"0.0-77.0-0.0","params":{"nStudents":24,"maxFlips":30,"completionMinutes":45,"basePay":8,"maxBonus":9,"perTrialBonus":0.5,"perTrialBonusThreshold":0.1,"exampleCost":0.01},"classroomParams":{"A":{"a":1,"b":4},"B":{"a":4,"b":1},"C":{"a":2,"b":8},"D":{"a":8,"b":2}},"conditions":["nonSeqFull","nonSeqPartial","seqNoFeedback","seqFeedback"],"classroomPairings":[["A","B"],["C","D"]],"coinWeights":[0.2,0.5,0.8],"subjectId":"A2JDYN6QM8M5UN","assignmentId":"3LYA37P8IR9EB4RP0OBPST02SK8BKS","hitId":"3QGHA0EA0JM3KKNCY0PQRLYAHJ3BWH","url":"https://gershmanlab.com/experiments/alicia/teaching/experiment/?hitId=3QGHA0EA0JM3KKNCY0PQRLYAHJ3BWH&workerId=A2JDYN6QM8M5UN&assignmentId=3LYA37P8IR9EB4RP0OBPST02SK8BKS&a=83YL8&tp_a=83YL8&b=3LYA37P8IR9EB4RP0OBPST02SK8BKS&tp_b=3LYA37P8IR9EB4RP0OBPST02SK8BKS&c=365198&tp_c=365198","heads":8,"tails":2,"studentIndex":9,"studentTrueHypers":{"a":2,"b":8},"studentGuess":0.5,"delta":0.30000000000000004,"totalExamples":10,"bonus":0,"bonusSoFar":1.65},{"rt":12957,"response":{"heads":"1","tails":"6"},"type":"response","condition":"seqNoFeedback","trueTheta":0.2,"classrooms":["A","B"],"studentTrueClassroom":"A","exampleSet":"first","trial_type":"survey-html-form","trial_index":120,"time_elapsed":1629244,"internal_node_id":"0.0-83.0-0.0","params":{"nStudents":24,"maxFlips":30,"completionMinutes":45,"basePay":8,"maxBonus":9,"perTrialBonus":0.5,"perTrialBonusThreshold":0.1,"exampleCost":0.01},"classroomParams":{"A":{"a":1,"b":4},"B":{"a":4,"b":1},"C":{"a":2,"b":8},"D":{"a":8,"b":2}},"conditions":["nonSeqFull","nonSeqPartial","seqNoFeedback","seqFeedback"],"classroomPairings":[["A","B"],["C","D"]],"coinWeights":[0.2,0.5,0.8],"subjectId":"A2JDYN6QM8M5UN","assignmentId":"3LYA37P8IR9EB4RP0OBPST02SK8BKS","hitId":"3QGHA0EA0JM3KKNCY0PQRLYAHJ3BWH","url":"https://gershmanlab.com/experiments/alicia/teaching/experiment/?hitId=3QGHA0EA0JM3KKNCY0PQRLYAHJ3BWH&workerId=A2JDYN6QM8M5UN&assignmentId=3LYA37P8IR9EB4RP0OBPST02SK8BKS&a=83YL8&tp_a=83YL8&b=3LYA37P8IR9EB4RP0OBPST02SK8BKS&tp_b=3LYA37P8IR9EB4RP0OBPST02SK8BKS&c=365198&tp_c=365198","heads":1,"tails":6,"studentIndex":10,"studentTrueHypers":{"a":1,"b":4},"studentGuess":0.16666666666666666,"delta":0.033333333333333354,"totalExamples":7,"bonusSoFar":1.65},{"rt":7749,"response":{"heads":"1","tails":"6"},"type":"response","condition":"seqNoFeedback","trueTheta":0.2,"classrooms":["A","B"],"studentTrueClassroom":"A","exampleSet":"second","trial_type":"survey-html-form","trial_index":123,"time_elapsed":1643058,"internal_node_id":"0.0-86.0-0.0","params":{"nStudents":24,"maxFlips":30,"completionMinutes":45,"basePay":8,"maxBonus":9,"perTrialBonus":0.5,"perTrialBonusThreshold":0.1,"exampleCost":0.01},"classroomParams":{"A":{"a":1,"b":4},"B":{"a":4,"b":1},"C":{"a":2,"b":8},"D":{"a":8,"b":2}},"conditions":["nonSeqFull","nonSeqPartial","seqNoFeedback","seqFeedback"],"classroomPairings":[["A","B"],["C","D"]],"coinWeights":[0.2,0.5,0.8],"subjectId":"A2JDYN6QM8M5UN","assignmentId":"3LYA37P8IR9EB4RP0OBPST02SK8BKS","hitId":"3QGHA0EA0JM3KKNCY0PQRLYAHJ3BWH","url":"https://gershmanlab.com/experiments/alicia/teaching/experiment/?hitId=3QGHA0EA0JM3KKNCY0PQRLYAHJ3BWH&workerId=A2JDYN6QM8M5UN&assignmentId=3LYA37P8IR9EB4RP0OBPST02SK8BKS&a=83YL8&tp_a=83YL8&b=3LYA37P8IR9EB4RP0OBPST02SK8BKS&tp_b=3LYA37P8IR9EB4RP0OBPST02SK8BKS&c=365198&tp_c=365198","firstResponseHeads":1,"firstResponseTails":6,"secondResponseHeads":1,"secondResponseTails":6,"studentIndex":10,"studentTrueHypers":{"a":1,"b":4},"studentGuess":0.15789473684210525,"delta":0.04210526315789476,"bonus":0.36,"bonusSoFar":2.01,"totalExamples":14},{"rt":26800,"response":{"heads":"1","tails":"10"},"type":"response","condition":"nonSeqPartial","trueTheta":0.2,"classrooms":["C","D"],"studentTrueClassroom":"C","exampleSet":"first","trial_type":"survey-html-form","trial_index":129,"time_elapsed":1685255,"internal_node_id":"0.0-92.0-0.0","params":{"nStudents":24,"maxFlips":30,"completionMinutes":45,"basePay":8,"maxBonus":9,"perTrialBonus":0.5,"perTrialBonusThreshold":0.1,"exampleCost":0.01},"classroomParams":{"A":{"a":1,"b":4},"B":{"a":4,"b":1},"C":{"a":2,"b":8},"D":{"a":8,"b":2}},"conditions":["nonSeqFull","nonSeqPartial","seqNoFeedback","seqFeedback"],"classroomPairings":[["A","B"],["C","D"]],"coinWeights":[0.2,0.5,0.8],"subjectId":"A2JDYN6QM8M5UN","assignmentId":"3LYA37P8IR9EB4RP0OBPST02SK8BKS","hitId":"3QGHA0EA0JM3KKNCY0PQRLYAHJ3BWH","url":"https://gershmanlab.com/experiments/alicia/teaching/experiment/?hitId=3QGHA0EA0JM3KKNCY0PQRLYAHJ3BWH&workerId=A2JDYN6QM8M5UN&assignmentId=3LYA37P8IR9EB4RP0OBPST02SK8BKS&a=83YL8&tp_a=83YL8&b=3LYA37P8IR9EB4RP0OBPST02SK8BKS&tp_b=3LYA37P8IR9EB4RP0OBPST02SK8BKS&c=365198&tp_c=365198","heads":1,"tails":10,"studentIndex":11,"studentTrueHypers":{"a":2,"b":8},"studentGuess":0.14285714285714285,"delta":0.05714285714285716,"totalExamples":11,"bonus":0.39,"bonusSoFar":2.4},{"rt":14447,"response":{"heads":"6","tails":"4"},"type":"response","condition":"seqFeedback","trueTheta":0.5,"classrooms":["A","B"],"studentTrueClassroom":"A","exampleSet":"first","trial_type":"survey-html-form","trial_index":135,"time_elapsed":1714264,"internal_node_id":"0.0-98.0-0.0","params":{"nStudents":24,"maxFlips":30,"completionMinutes":45,"basePay":8,"maxBonus":9,"perTrialBonus":0.5,"perTrialBonusThreshold":0.1,"exampleCost":0.01},"classroomParams":{"A":{"a":1,"b":4},"B":{"a":4,"b":1},"C":{"a":2,"b":8},"D":{"a":8,"b":2}},"conditions":["nonSeqFull","nonSeqPartial","seqNoFeedback","seqFeedback"],"classroomPairings":[["A","B"],["C","D"]],"coinWeights":[0.2,0.5,0.8],"subjectId":"A2JDYN6QM8M5UN","assignmentId":"3LYA37P8IR9EB4RP0OBPST02SK8BKS","hitId":"3QGHA0EA0JM3KKNCY0PQRLYAHJ3BWH","url":"https://gershmanlab.com/experiments/alicia/teaching/experiment/?hitId=3QGHA0EA0JM3KKNCY0PQRLYAHJ3BWH&workerId=A2JDYN6QM8M5UN&assignmentId=3LYA37P8IR9EB4RP0OBPST02SK8BKS&a=83YL8&tp_a=83YL8&b=3LYA37P8IR9EB4RP0OBPST02SK8BKS&tp_b=3LYA37P8IR9EB4RP0OBPST02SK8BKS&c=365198&tp_c=365198","heads":6,"tails":4,"studentIndex":12,"studentTrueHypers":{"a":1,"b":4},"studentGuess":0.4666666666666667,"delta":0.033333333333333326,"totalExamples":10,"bonusSoFar":2.4},{"rt":6725,"response":{"heads":"3","tails":"2"},"type":"response","condition":"seqFeedback","trueTheta":0.5,"classrooms":["A","B"],"studentTrueClassroom":"A","exampleSet":"second","trial_type":"survey-html-form","trial_index":139,"time_elapsed":1730648,"internal_node_id":"0.0-102.0-0.0","params":{"nStudents":24,"maxFlips":30,"completionMinutes":45,"basePay":8,"maxBonus":9,"perTrialBonus":0.5,"perTrialBonusThreshold":0.1,"exampleCost":0.01},"classroomParams":{"A":{"a":1,"b":4},"B":{"a":4,"b":1},"C":{"a":2,"b":8},"D":{"a":8,"b":2}},"conditions":["nonSeqFull","nonSeqPartial","seqNoFeedback","seqFeedback"],"classroomPairings":[["A","B"],["C","D"]],"coinWeights":[0.2,0.5,0.8],"subjectId":"A2JDYN6QM8M5UN","assignmentId":"3LYA37P8IR9EB4RP0OBPST02SK8BKS","hitId":"3QGHA0EA0JM3KKNCY0PQRLYAHJ3BWH","url":"https://gershmanlab.com/experiments/alicia/teaching/experiment/?hitId=3QGHA0EA0JM3KKNCY0PQRLYAHJ3BWH&workerId=A2JDYN6QM8M5UN&assignmentId=3LYA37P8IR9EB4RP0OBPST02SK8BKS&a=83YL8&tp_a=83YL8&b=3LYA37P8IR9EB4RP0OBPST02SK8BKS&tp_b=3LYA37P8IR9EB4RP0OBPST02SK8BKS&c=365198&tp_c=365198","firstResponseHeads":6,"firstResponseTails":4,"secondResponseHeads":3,"secondResponseTails":2,"studentIndex":12,"studentTrueHypers":{"a":1,"b":4},"studentGuess":0.5,"delta":0,"bonus":0.35,"bonusSoFar":2.75,"totalExamples":15},{"rt":17895,"response":{"heads":"3","tails":"1"},"type":"response","condition":"nonSeqPartial","trueTheta":0.8,"classrooms":["C","D"],"studentTrueClassroom":"C","exampleSet":"first","trial_type":"survey-html-form","trial_index":145,"time_elapsed":1760810,"internal_node_id":"0.0-108.0-0.0","params":{"nStudents":24,"maxFlips":30,"completionMinutes":45,"basePay":8,"maxBonus":9,"perTrialBonus":0.5,"perTrialBonusThreshold":0.1,"exampleCost":0.01},"classroomParams":{"A":{"a":1,"b":4},"B":{"a":4,"b":1},"C":{"a":2,"b":8},"D":{"a":8,"b":2}},"conditions":["nonSeqFull","nonSeqPartial","seqNoFeedback","seqFeedback"],"classroomPairings":[["A","B"],["C","D"]],"coinWeights":[0.2,0.5,0.8],"subjectId":"A2JDYN6QM8M5UN","assignmentId":"3LYA37P8IR9EB4RP0OBPST02SK8BKS","hitId":"3QGHA0EA0JM3KKNCY0PQRLYAHJ3BWH","url":"https://gershmanlab.com/experiments/alicia/teaching/experiment/?hitId=3QGHA0EA0JM3KKNCY0PQRLYAHJ3BWH&workerId=A2JDYN6QM8M5UN&assignmentId=3LYA37P8IR9EB4RP0OBPST02SK8BKS&a=83YL8&tp_a=83YL8&b=3LYA37P8IR9EB4RP0OBPST02SK8BKS&tp_b=3LYA37P8IR9EB4RP0OBPST02SK8BKS&c=365198&tp_c=365198","heads":3,"tails":1,"studentIndex":13,"studentTrueHypers":{"a":2,"b":8},"studentGuess":0.35714285714285715,"delta":0.4428571428571429,"totalExamples":4,"bonus":0,"bonusSoFar":2.75},{"rt":23158,"response":{"heads":"4","tails":"6"},"type":"response","condition":"nonSeqFull","trueTheta":0.5,"classrooms":["C","D"],"studentTrueClassroom":"C","exampleSet":"first","trial_type":"survey-html-form","trial_index":151,"time_elapsed":1799996,"internal_node_id":"0.0-114.0-0.0","params":{"nStudents":24,"maxFlips":30,"completionMinutes":45,"basePay":8,"maxBonus":9,"perTrialBonus":0.5,"perTrialBonusThreshold":0.1,"exampleCost":0.01},"classroomParams":{"A":{"a":1,"b":4},"B":{"a":4,"b":1},"C":{"a":2,"b":8},"D":{"a":8,"b":2}},"conditions":["nonSeqFull","nonSeqPartial","seqNoFeedback","seqFeedback"],"classroomPairings":[["A","B"],["C","D"]],"coinWeights":[0.2,0.5,0.8],"subjectId":"A2JDYN6QM8M5UN","assignmentId":"3LYA37P8IR9EB4RP0OBPST02SK8BKS","hitId":"3QGHA0EA0JM3KKNCY0PQRLYAHJ3BWH","url":"https://gershmanlab.com/experiments/alicia/teaching/experiment/?hitId=3QGHA0EA0JM3KKNCY0PQRLYAHJ3BWH&workerId=A2JDYN6QM8M5UN&assignmentId=3LYA37P8IR9EB4RP0OBPST02SK8BKS&a=83YL8&tp_a=83YL8&b=3LYA37P8IR9EB4RP0OBPST02SK8BKS&tp_b=3LYA37P8IR9EB4RP0OBPST02SK8BKS&c=365198&tp_c=365198","heads":4,"tails":6,"studentIndex":14,"studentTrueHypers":{"a":2,"b":8},"studentGuess":0.3,"delta":0.2,"totalExamples":10,"bonus":0,"bonusSoFar":2.75},{"rt":13418,"response":{"heads":"2","tails":"3"},"type":"response","condition":"nonSeqPartial","trueTheta":0.5,"classrooms":["A","B"],"studentTrueClassroom":"A","exampleSet":"first","trial_type":"survey-html-form","trial_index":157,"time_elapsed":1830490,"internal_node_id":"0.0-120.0-0.0","params":{"nStudents":24,"maxFlips":30,"completionMinutes":45,"basePay":8,"maxBonus":9,"perTrialBonus":0.5,"perTrialBonusThreshold":0.1,"exampleCost":0.01},"classroomParams":{"A":{"a":1,"b":4},"B":{"a":4,"b":1},"C":{"a":2,"b":8},"D":{"a":8,"b":2}},"conditions":["nonSeqFull","nonSeqPartial","seqNoFeedback","seqFeedback"],"classroomPairings":[["A","B"],["C","D"]],"coinWeights":[0.2,0.5,0.8],"subjectId":"A2JDYN6QM8M5UN","assignmentId":"3LYA37P8IR9EB4RP0OBPST02SK8BKS","hitId":"3QGHA0EA0JM3KKNCY0PQRLYAHJ3BWH","url":"https://gershmanlab.com/experiments/alicia/teaching/experiment/?hitId=3QGHA0EA0JM3KKNCY0PQRLYAHJ3BWH&workerId=A2JDYN6QM8M5UN&assignmentId=3LYA37P8IR9EB4RP0OBPST02SK8BKS&a=83YL8&tp_a=83YL8&b=3LYA37P8IR9EB4RP0OBPST02SK8BKS&tp_b=3LYA37P8IR9EB4RP0OBPST02SK8BKS&c=365198&tp_c=365198","heads":2,"tails":3,"studentIndex":15,"studentTrueHypers":{"a":1,"b":4},"studentGuess":0.3,"delta":0.2,"totalExamples":5,"bonus":0,"bonusSoFar":2.75},{"rt":16084,"response":{"heads":"4","tails":"1"},"type":"response","condition":"seqNoFeedback","trueTheta":0.8,"classrooms":["C","D"],"studentTrueClassroom":"D","exampleSet":"first","trial_type":"survey-html-form","trial_index":163,"time_elapsed":1863586,"internal_node_id":"0.0-126.0-0.0","params":{"nStudents":24,"maxFlips":30,"completionMinutes":45,"basePay":8,"maxBonus":9,"perTrialBonus":0.5,"perTrialBonusThreshold":0.1,"exampleCost":0.01},"classroomParams":{"A":{"a":1,"b":4},"B":{"a":4,"b":1},"C":{"a":2,"b":8},"D":{"a":8,"b":2}},"conditions":["nonSeqFull","nonSeqPartial","seqNoFeedback","seqFeedback"],"classroomPairings":[["A","B"],["C","D"]],"coinWeights":[0.2,0.5,0.8],"subjectId":"A2JDYN6QM8M5UN","assignmentId":"3LYA37P8IR9EB4RP0OBPST02SK8BKS","hitId":"3QGHA0EA0JM3KKNCY0PQRLYAHJ3BWH","url":"https://gershmanlab.com/experiments/alicia/teaching/experiment/?hitId=3QGHA0EA0JM3KKNCY0PQRLYAHJ3BWH&workerId=A2JDYN6QM8M5UN&assignmentId=3LYA37P8IR9EB4RP0OBPST02SK8BKS&a=83YL8&tp_a=83YL8&b=3LYA37P8IR9EB4RP0OBPST02SK8BKS&tp_b=3LYA37P8IR9EB4RP0OBPST02SK8BKS&c=365198&tp_c=365198","heads":4,"tails":1,"studentIndex":16,"studentTrueHypers":{"a":8,"b":2},"studentGuess":0.8,"delta":0,"totalExamples":5,"bonusSoFar":2.75},{"rt":23862,"response":{"heads":"7","tails":"3"},"type":"response","condition":"seqNoFeedback","trueTheta":0.8,"classrooms":["C","D"],"studentTrueClassroom":"D","exampleSet":"second","trial_type":"survey-html-form","trial_index":166,"time_elapsed":1894485,"internal_node_id":"0.0-129.0-0.0","params":{"nStudents":24,"maxFlips":30,"completionMinutes":45,"basePay":8,"maxBonus":9,"perTrialBonus":0.5,"perTrialBonusThreshold":0.1,"exampleCost":0.01},"classroomParams":{"A":{"a":1,"b":4},"B":{"a":4,"b":1},"C":{"a":2,"b":8},"D":{"a":8,"b":2}},"conditions":["nonSeqFull","nonSeqPartial","seqNoFeedback","seqFeedback"],"classroomPairings":[["A","B"],["C","D"]],"coinWeights":[0.2,0.5,0.8],"subjectId":"A2JDYN6QM8M5UN","assignmentId":"3LYA37P8IR9EB4RP0OBPST02SK8BKS","hitId":"3QGHA0EA0JM3KKNCY0PQRLYAHJ3BWH","url":"https://gershmanlab.com/experiments/alicia/teaching/experiment/?hitId=3QGHA0EA0JM3KKNCY0PQRLYAHJ3BWH&workerId=A2JDYN6QM8M5UN&assignmentId=3LYA37P8IR9EB4RP0OBPST02SK8BKS&a=83YL8&tp_a=83YL8&b=3LYA37P8IR9EB4RP0OBPST02SK8BKS&tp_b=3LYA37P8IR9EB4RP0OBPST02SK8BKS&c=365198&tp_c=365198","firstResponseHeads":4,"firstResponseTails":1,"secondResponseHeads":7,"secondResponseTails":3,"studentIndex":16,"studentTrueHypers":{"a":8,"b":2},"studentGuess":0.76,"delta":0.040000000000000036,"bonus":0.35,"bonusSoFar":3.1,"totalExamples":15},{"rt":12474,"response":{"heads":"2","tails":"3"},"type":"response","condition":"seqNoFeedback","trueTheta":0.5,"classrooms":["A","B"],"studentTrueClassroom":"A","exampleSet":"first","trial_type":"survey-html-form","trial_index":172,"time_elapsed":1919213,"internal_node_id":"0.0-135.0-0.0","params":{"nStudents":24,"maxFlips":30,"completionMinutes":45,"basePay":8,"maxBonus":9,"perTrialBonus":0.5,"perTrialBonusThreshold":0.1,"exampleCost":0.01},"classroomParams":{"A":{"a":1,"b":4},"B":{"a":4,"b":1},"C":{"a":2,"b":8},"D":{"a":8,"b":2}},"conditions":["nonSeqFull","nonSeqPartial","seqNoFeedback","seqFeedback"],"classroomPairings":[["A","B"],["C","D"]],"coinWeights":[0.2,0.5,0.8],"subjectId":"A2JDYN6QM8M5UN","assignmentId":"3LYA37P8IR9EB4RP0OBPST02SK8BKS","hitId":"3QGHA0EA0JM3KKNCY0PQRLYAHJ3BWH","url":"https://gershmanlab.com/experiments/alicia/teaching/experiment/?hitId=3QGHA0EA0JM3KKNCY0PQRLYAHJ3BWH&workerId=A2JDYN6QM8M5UN&assignmentId=3LYA37P8IR9EB4RP0OBPST02SK8BKS&a=83YL8&tp_a=83YL8&b=3LYA37P8IR9EB4RP0OBPST02SK8BKS&tp_b=3LYA37P8IR9EB4RP0OBPST02SK8BKS&c=365198&tp_c=365198","heads":2,"tails":3,"studentIndex":17,"studentTrueHypers":{"a":1,"b":4},"studentGuess":0.3,"delta":0.2,"totalExamples":5,"bonusSoFar":3.1},{"rt":6615,"response":{"heads":"2","tails":"3"},"type":"response","condition":"seqNoFeedback","trueTheta":0.5,"classrooms":["A","B"],"studentTrueClassroom":"A","exampleSet":"second","trial_type":"survey-html-form","trial_index":175,"time_elapsed":1933849,"internal_node_id":"0.0-138.0-0.0","params":{"nStudents":24,"maxFlips":30,"completionMinutes":45,"basePay":8,"maxBonus":9,"perTrialBonus":0.5,"perTrialBonusThreshold":0.1,"exampleCost":0.01},"classroomParams":{"A":{"a":1,"b":4},"B":{"a":4,"b":1},"C":{"a":2,"b":8},"D":{"a":8,"b":2}},"conditions":["nonSeqFull","nonSeqPartial","seqNoFeedback","seqFeedback"],"classroomPairings":[["A","B"],["C","D"]],"coinWeights":[0.2,0.5,0.8],"subjectId":"A2JDYN6QM8M5UN","assignmentId":"3LYA37P8IR9EB4RP0OBPST02SK8BKS","hitId":"3QGHA0EA0JM3KKNCY0PQRLYAHJ3BWH","url":"https://gershmanlab.com/experiments/alicia/teaching/experiment/?hitId=3QGHA0EA0JM3KKNCY0PQRLYAHJ3BWH&workerId=A2JDYN6QM8M5UN&assignmentId=3LYA37P8IR9EB4RP0OBPST02SK8BKS&a=83YL8&tp_a=83YL8&b=3LYA37P8IR9EB4RP0OBPST02SK8BKS&tp_b=3LYA37P8IR9EB4RP0OBPST02SK8BKS&c=365198&tp_c=365198","firstResponseHeads":2,"firstResponseTails":3,"secondResponseHeads":2,"secondResponseTails":3,"studentIndex":17,"studentTrueHypers":{"a":1,"b":4},"studentGuess":0.3333333333333333,"delta":0.16666666666666669,"bonus":0,"bonusSoFar":3.1,"totalExamples":10},{"rt":17757,"response":{"heads":"1","tails":"4"},"type":"response","condition":"seqFeedback","trueTheta":0.2,"classrooms":["C","D"],"studentTrueClassroom":"D","exampleSet":"first","trial_type":"survey-html-form","trial_index":181,"time_elapsed":1965005,"internal_node_id":"0.0-144.0-0.0","params":{"nStudents":24,"maxFlips":30,"completionMinutes":45,"basePay":8,"maxBonus":9,"perTrialBonus":0.5,"perTrialBonusThreshold":0.1,"exampleCost":0.01},"classroomParams":{"A":{"a":1,"b":4},"B":{"a":4,"b":1},"C":{"a":2,"b":8},"D":{"a":8,"b":2}},"conditions":["nonSeqFull","nonSeqPartial","seqNoFeedback","seqFeedback"],"classroomPairings":[["A","B"],["C","D"]],"coinWeights":[0.2,0.5,0.8],"subjectId":"A2JDYN6QM8M5UN","assignmentId":"3LYA37P8IR9EB4RP0OBPST02SK8BKS","hitId":"3QGHA0EA0JM3KKNCY0PQRLYAHJ3BWH","url":"https://gershmanlab.com/experiments/alicia/teaching/experiment/?hitId=3QGHA0EA0JM3KKNCY0PQRLYAHJ3BWH&workerId=A2JDYN6QM8M5UN&assignmentId=3LYA37P8IR9EB4RP0OBPST02SK8BKS&a=83YL8&tp_a=83YL8&b=3LYA37P8IR9EB4RP0OBPST02SK8BKS&tp_b=3LYA37P8IR9EB4RP0OBPST02SK8BKS&c=365198&tp_c=365198","heads":1,"tails":4,"studentIndex":18,"studentTrueHypers":{"a":8,"b":2},"studentGuess":0.6,"delta":0.39999999999999997,"totalExamples":5,"bonusSoFar":3.1},{"rt":11320,"response":{"heads":"1","tails":"10"},"type":"response","condition":"seqFeedback","trueTheta":0.2,"classrooms":["C","D"],"studentTrueClassroom":"D","exampleSet":"second","trial_type":"survey-html-form","trial_index":185,"time_elapsed":1987019,"internal_node_id":"0.0-148.0-0.0","params":{"nStudents":24,"maxFlips":30,"completionMinutes":45,"basePay":8,"maxBonus":9,"perTrialBonus":0.5,"perTrialBonusThreshold":0.1,"exampleCost":0.01},"classroomParams":{"A":{"a":1,"b":4},"B":{"a":4,"b":1},"C":{"a":2,"b":8},"D":{"a":8,"b":2}},"conditions":["nonSeqFull","nonSeqPartial","seqNoFeedback","seqFeedback"],"classroomPairings":[["A","B"],["C","D"]],"coinWeights":[0.2,0.5,0.8],"subjectId":"A2JDYN6QM8M5UN","assignmentId":"3LYA37P8IR9EB4RP0OBPST02SK8BKS","hitId":"3QGHA0EA0JM3KKNCY0PQRLYAHJ3BWH","url":"https://gershmanlab.com/experiments/alicia/teaching/experiment/?hitId=3QGHA0EA0JM3KKNCY0PQRLYAHJ3BWH&workerId=A2JDYN6QM8M5UN&assignmentId=3LYA37P8IR9EB4RP0OBPST02SK8BKS&a=83YL8&tp_a=83YL8&b=3LYA37P8IR9EB4RP0OBPST02SK8BKS&tp_b=3LYA37P8IR9EB4RP0OBPST02SK8BKS&c=365198&tp_c=365198","firstResponseHeads":1,"firstResponseTails":4,"secondResponseHeads":1,"secondResponseTails":10,"studentIndex":18,"studentTrueHypers":{"a":8,"b":2},"studentGuess":0.38461538461538464,"delta":0.18461538461538463,"bonus":0,"bonusSoFar":3.1,"totalExamples":16},{"rt":15236,"response":{"heads":"10","tails":"1"},"type":"response","condition":"nonSeqFull","trueTheta":0.8,"classrooms":["A","B"],"studentTrueClassroom":"A","exampleSet":"first","trial_type":"survey-html-form","trial_index":191,"time_elapsed":2016082,"internal_node_id":"0.0-154.0-0.0","params":{"nStudents":24,"maxFlips":30,"completionMinutes":45,"basePay":8,"maxBonus":9,"perTrialBonus":0.5,"perTrialBonusThreshold":0.1,"exampleCost":0.01},"classroomParams":{"A":{"a":1,"b":4},"B":{"a":4,"b":1},"C":{"a":2,"b":8},"D":{"a":8,"b":2}},"conditions":["nonSeqFull","nonSeqPartial","seqNoFeedback","seqFeedback"],"classroomPairings":[["A","B"],["C","D"]],"coinWeights":[0.2,0.5,0.8],"subjectId":"A2JDYN6QM8M5UN","assignmentId":"3LYA37P8IR9EB4RP0OBPST02SK8BKS","hitId":"3QGHA0EA0JM3KKNCY0PQRLYAHJ3BWH","url":"https://gershmanlab.com/experiments/alicia/teaching/experiment/?hitId=3QGHA0EA0JM3KKNCY0PQRLYAHJ3BWH&workerId=A2JDYN6QM8M5UN&assignmentId=3LYA37P8IR9EB4RP0OBPST02SK8BKS&a=83YL8&tp_a=83YL8&b=3LYA37P8IR9EB4RP0OBPST02SK8BKS&tp_b=3LYA37P8IR9EB4RP0OBPST02SK8BKS&c=365198&tp_c=365198","heads":10,"tails":1,"studentIndex":19,"studentTrueHypers":{"a":1,"b":4},"studentGuess":0.6875,"delta":0.11250000000000004,"totalExamples":11,"bonus":0,"bonusSoFar":3.1},{"rt":22274,"response":{"heads":"3","tails":"2"},"type":"response","condition":"seqFeedback","trueTheta":0.8,"classrooms":["A","B"],"studentTrueClassroom":"B","exampleSet":"first","trial_type":"survey-html-form","trial_index":197,"time_elapsed":2057775,"internal_node_id":"0.0-160.0-0.0","params":{"nStudents":24,"maxFlips":30,"completionMinutes":45,"basePay":8,"maxBonus":9,"perTrialBonus":0.5,"perTrialBonusThreshold":0.1,"exampleCost":0.01},"classroomParams":{"A":{"a":1,"b":4},"B":{"a":4,"b":1},"C":{"a":2,"b":8},"D":{"a":8,"b":2}},"conditions":["nonSeqFull","nonSeqPartial","seqNoFeedback","seqFeedback"],"classroomPairings":[["A","B"],["C","D"]],"coinWeights":[0.2,0.5,0.8],"subjectId":"A2JDYN6QM8M5UN","assignmentId":"3LYA37P8IR9EB4RP0OBPST02SK8BKS","hitId":"3QGHA0EA0JM3KKNCY0PQRLYAHJ3BWH","url":"https://gershmanlab.com/experiments/alicia/teaching/experiment/?hitId=3QGHA0EA0JM3KKNCY0PQRLYAHJ3BWH&workerId=A2JDYN6QM8M5UN&assignmentId=3LYA37P8IR9EB4RP0OBPST02SK8BKS&a=83YL8&tp_a=83YL8&b=3LYA37P8IR9EB4RP0OBPST02SK8BKS&tp_b=3LYA37P8IR9EB4RP0OBPST02SK8BKS&c=365198&tp_c=365198","heads":3,"tails":2,"studentIndex":20,"studentTrueHypers":{"a":4,"b":1},"studentGuess":0.7,"delta":0.10000000000000009,"totalExamples":5,"bonusSoFar":3.1},{"rt":12260,"response":{"heads":"6","tails":"5"},"type":"response","condition":"seqFeedback","trueTheta":0.8,"classrooms":["A","B"],"studentTrueClassroom":"B","exampleSet":"second","trial_type":"survey-html-form","trial_index":201,"time_elapsed":2082734,"internal_node_id":"0.0-164.0-0.0","params":{"nStudents":24,"maxFlips":30,"completionMinutes":45,"basePay":8,"maxBonus":9,"perTrialBonus":0.5,"perTrialBonusThreshold":0.1,"exampleCost":0.01},"classroomParams":{"A":{"a":1,"b":4},"B":{"a":4,"b":1},"C":{"a":2,"b":8},"D":{"a":8,"b":2}},"conditions":["nonSeqFull","nonSeqPartial","seqNoFeedback","seqFeedback"],"classroomPairings":[["A","B"],["C","D"]],"coinWeights":[0.2,0.5,0.8],"subjectId":"A2JDYN6QM8M5UN","assignmentId":"3LYA37P8IR9EB4RP0OBPST02SK8BKS","hitId":"3QGHA0EA0JM3KKNCY0PQRLYAHJ3BWH","url":"https://gershmanlab.com/experiments/alicia/teaching/experiment/?hitId=3QGHA0EA0JM3KKNCY0PQRLYAHJ3BWH&workerId=A2JDYN6QM8M5UN&assignmentId=3LYA37P8IR9EB4RP0OBPST02SK8BKS&a=83YL8&tp_a=83YL8&b=3LYA37P8IR9EB4RP0OBPST02SK8BKS&tp_b=3LYA37P8IR9EB4RP0OBPST02SK8BKS&c=365198&tp_c=365198","firstResponseHeads":3,"firstResponseTails":2,"secondResponseHeads":6,"secondResponseTails":5,"studentIndex":20,"studentTrueHypers":{"a":4,"b":1},"studentGuess":0.6190476190476191,"delta":0.18095238095238098,"bonus":0,"bonusSoFar":3.1,"totalExamples":16},{"rt":10014,"response":{"heads":"1","tails":"11"},"type":"response","condition":"seqFeedback","trueTheta":0.2,"classrooms":["A","B"],"studentTrueClassroom":"B","exampleSet":"first","trial_type":"survey-html-form","trial_index":207,"time_elapsed":2106884,"internal_node_id":"0.0-170.0-0.0","params":{"nStudents":24,"maxFlips":30,"completionMinutes":45,"basePay":8,"maxBonus":9,"perTrialBonus":0.5,"perTrialBonusThreshold":0.1,"exampleCost":0.01},"classroomParams":{"A":{"a":1,"b":4},"B":{"a":4,"b":1},"C":{"a":2,"b":8},"D":{"a":8,"b":2}},"conditions":["nonSeqFull","nonSeqPartial","seqNoFeedback","seqFeedback"],"classroomPairings":[["A","B"],["C","D"]],"coinWeights":[0.2,0.5,0.8],"subjectId":"A2JDYN6QM8M5UN","assignmentId":"3LYA37P8IR9EB4RP0OBPST02SK8BKS","hitId":"3QGHA0EA0JM3KKNCY0PQRLYAHJ3BWH","url":"https://gershmanlab.com/experiments/alicia/teaching/experiment/?hitId=3QGHA0EA0JM3KKNCY0PQRLYAHJ3BWH&workerId=A2JDYN6QM8M5UN&assignmentId=3LYA37P8IR9EB4RP0OBPST02SK8BKS&a=83YL8&tp_a=83YL8&b=3LYA37P8IR9EB4RP0OBPST02SK8BKS&tp_b=3LYA37P8IR9EB4RP0OBPST02SK8BKS&c=365198&tp_c=365198","heads":1,"tails":11,"studentIndex":21,"studentTrueHypers":{"a":4,"b":1},"studentGuess":0.29411764705882354,"delta":0.09411764705882353,"totalExamples":12,"bonusSoFar":3.1},{"rt":7505,"response":{"heads":"1","tails":"11"},"type":"response","condition":"seqFeedback","trueTheta":0.2,"classrooms":["A","B"],"studentTrueClassroom":"B","exampleSet":"second","trial_type":"survey-html-form","trial_index":211,"time_elapsed":2124171,"internal_node_id":"0.0-174.0-0.0","params":{"nStudents":24,"maxFlips":30,"completionMinutes":45,"basePay":8,"maxBonus":9,"perTrialBonus":0.5,"perTrialBonusThreshold":0.1,"exampleCost":0.01},"classroomParams":{"A":{"a":1,"b":4},"B":{"a":4,"b":1},"C":{"a":2,"b":8},"D":{"a":8,"b":2}},"conditions":["nonSeqFull","nonSeqPartial","seqNoFeedback","seqFeedback"],"classroomPairings":[["A","B"],["C","D"]],"coinWeights":[0.2,0.5,0.8],"subjectId":"A2JDYN6QM8M5UN","assignmentId":"3LYA37P8IR9EB4RP0OBPST02SK8BKS","hitId":"3QGHA0EA0JM3KKNCY0PQRLYAHJ3BWH","url":"https://gershmanlab.com/experiments/alicia/teaching/experiment/?hitId=3QGHA0EA0JM3KKNCY0PQRLYAHJ3BWH&workerId=A2JDYN6QM8M5UN&assignmentId=3LYA37P8IR9EB4RP0OBPST02SK8BKS&a=83YL8&tp_a=83YL8&b=3LYA37P8IR9EB4RP0OBPST02SK8BKS&tp_b=3LYA37P8IR9EB4RP0OBPST02SK8BKS&c=365198&tp_c=365198","firstResponseHeads":1,"firstResponseTails":11,"secondResponseHeads":1,"secondResponseTails":11,"studentIndex":21,"studentTrueHypers":{"a":4,"b":1},"studentGuess":0.20689655172413793,"delta":0.006896551724137917,"bonus":0.26,"bonusSoFar":3.36,"totalExamples":24},{"rt":8442,"response":{"heads":"1","tails":"11"},"type":"response","condition":"nonSeqPartial","trueTheta":0.2,"classrooms":["A","B"],"studentTrueClassroom":"A","exampleSet":"first","trial_type":"survey-html-form","trial_index":217,"time_elapsed":2145033,"internal_node_id":"0.0-180.0-0.0","params":{"nStudents":24,"maxFlips":30,"completionMinutes":45,"basePay":8,"maxBonus":9,"perTrialBonus":0.5,"perTrialBonusThreshold":0.1,"exampleCost":0.01},"classroomParams":{"A":{"a":1,"b":4},"B":{"a":4,"b":1},"C":{"a":2,"b":8},"D":{"a":8,"b":2}},"conditions":["nonSeqFull","nonSeqPartial","seqNoFeedback","seqFeedback"],"classroomPairings":[["A","B"],["C","D"]],"coinWeights":[0.2,0.5,0.8],"subjectId":"A2JDYN6QM8M5UN","assignmentId":"3LYA37P8IR9EB4RP0OBPST02SK8BKS","hitId":"3QGHA0EA0JM3KKNCY0PQRLYAHJ3BWH","url":"https://gershmanlab.com/experiments/alicia/teaching/experiment/?hitId=3QGHA0EA0JM3KKNCY0PQRLYAHJ3BWH&workerId=A2JDYN6QM8M5UN&assignmentId=3LYA37P8IR9EB4RP0OBPST02SK8BKS&a=83YL8&tp_a=83YL8&b=3LYA37P8IR9EB4RP0OBPST02SK8BKS&tp_b=3LYA37P8IR9EB4RP0OBPST02SK8BKS&c=365198&tp_c=365198","heads":1,"tails":11,"studentIndex":22,"studentTrueHypers":{"a":1,"b":4},"studentGuess":0.11764705882352941,"delta":0.0823529411764706,"totalExamples":12,"bonus":0.38,"bonusSoFar":3.74},{"rt":18426,"response":{"heads":"2","tails":"5"},"type":"response","condition":"nonSeqFull","trueTheta":0.2,"classrooms":["C","D"],"studentTrueClassroom":"C","exampleSet":"first","trial_type":"survey-html-form","trial_index":223,"time_elapsed":2176087,"internal_node_id":"0.0-186.0-0.0","params":{"nStudents":24,"maxFlips":30,"completionMinutes":45,"basePay":8,"maxBonus":9,"perTrialBonus":0.5,"perTrialBonusThreshold":0.1,"exampleCost":0.01},"classroomParams":{"A":{"a":1,"b":4},"B":{"a":4,"b":1},"C":{"a":2,"b":8},"D":{"a":8,"b":2}},"conditions":["nonSeqFull","nonSeqPartial","seqNoFeedback","seqFeedback"],"classroomPairings":[["A","B"],["C","D"]],"coinWeights":[0.2,0.5,0.8],"subjectId":"A2JDYN6QM8M5UN","assignmentId":"3LYA37P8IR9EB4RP0OBPST02SK8BKS","hitId":"3QGHA0EA0JM3KKNCY0PQRLYAHJ3BWH","url":"https://gershmanlab.com/experiments/alicia/teaching/experiment/?hitId=3QGHA0EA0JM3KKNCY0PQRLYAHJ3BWH&workerId=A2JDYN6QM8M5UN&assignmentId=3LYA37P8IR9EB4RP0OBPST02SK8BKS&a=83YL8&tp_a=83YL8&b=3LYA37P8IR9EB4RP0OBPST02SK8BKS&tp_b=3LYA37P8IR9EB4RP0OBPST02SK8BKS&c=365198&tp_c=365198","heads":2,"tails":5,"studentIndex":23,"studentTrueHypers":{"a":2,"b":8},"studentGuess":0.23529411764705882,"delta":0.03529411764705881,"totalExamples":7,"bonus":0.43,"bonusSoFar":4.17},{"rt":49638,"response":{"gender":"male","age":"28","understood":"yes","comments":"For some reason I had a really hard time with one of the instructions questions, which led to me questioning all the other ones. It's probably just a me problem but I feel like that one could be worded better."},"type":"response","trial_type":"survey-html-form","trial_index":227,"time_elapsed":2233314,"internal_node_id":"0.0-191.0","params":{"nStudents":24,"maxFlips":30,"completionMinutes":45,"basePay":8,"maxBonus":9,"perTrialBonus":0.5,"perTrialBonusThreshold":0.1,"exampleCost":0.01},"classroomParams":{"A":{"a":1,"b":4},"B":{"a":4,"b":1},"C":{"a":2,"b":8},"D":{"a":8,"b":2}},"conditions":["nonSeqFull","nonSeqPartial","seqNoFeedback","seqFeedback"],"classroomPairings":[["A","B"],["C","D"]],"coinWeights":[0.2,0.5,0.8],"subjectId":"A2JDYN6QM8M5UN","assignmentId":"3LYA37P8IR9EB4RP0OBPST02SK8BKS","hitId":"3QGHA0EA0JM3KKNCY0PQRLYAHJ3BWH","url":"https://gershmanlab.com/experiments/alicia/teaching/experiment/?hitId=3QGHA0EA0JM3KKNCY0PQRLYAHJ3BWH&workerId=A2JDYN6QM8M5UN&assignmentId=3LYA37P8IR9EB4RP0OBPST02SK8BKS&a=83YL8&tp_a=83YL8&b=3LYA37P8IR9EB4RP0OBPST02SK8BKS&tp_b=3LYA37P8IR9EB4RP0OBPST02SK8BKS&c=365198&tp_c=365198","totalBonus":4.17}]