[{"rt":39610,"response":{"heads":"1","tails":"4"},"type":"response","condition":"seqFeedback","trueTheta":0.2,"classrooms":["C","D"],"studentTrueClassroom":"C","exampleSet":"first","trial_type":"survey-html-form","trial_index":16,"time_elapsed":827455,"internal_node_id":"0.0-6.0-0.0","params":{"nStudents":24,"maxFlips":30,"completionMinutes":45,"basePay":8,"maxBonus":9,"perTrialBonus":0.5,"perTrialBonusThreshold":0.1,"exampleCost":0.01},"classroomParams":{"A":{"a":1,"b":4},"B":{"a":4,"b":1},"C":{"a":2,"b":8},"D":{"a":8,"b":2}},"conditions":["nonSeqFull","nonSeqPartial","seqNoFeedback","seqFeedback"],"classroomPairings":[["A","B"],["C","D"]],"coinWeights":[0.2,0.5,0.8],"subjectId":"A2KLJKDG90K1PP","assignmentId":"35BLDD71I7JO9DOH565ZGKIMZM8ZVH","hitId":"3YGE63DIN8J20XK20KS1742RQF60WK","url":"https://gershmanlab.com/experiments/alicia/teaching/experiment/?hitId=3YGE63DIN8J20XK20KS1742RQF60WK&workerId=A2KLJKDG90K1PP&assignmentId=35BLDD71I7JO9DOH565ZGKIMZM8ZVH&a=1DB58&tp_a=1DB58&b=35BLDD71I7JO9DOH565ZGKIMZM8ZVH&tp_b=35BLDD71I7JO9DOH565ZGKIMZM8ZVH&c=365198&tp_c=365198","heads":1,"tails":4,"studentIndex":0,"studentTrueHypers":{"a":2,"b":8},"studentGuess":0.2,"delta":0,"totalExamples":5,"bonusSoFar":0},{"rt":13197,"response":{"heads":"1","tails":"4"},"type":"response","condition":"seqFeedback","trueTheta":0.2,"classrooms":["C","D"],"studentTrueClassroom":"C","exampleSet":"second","trial_type":"survey-html-form","trial_index":20,"time_elapsed":851699,"internal_node_id":"0.0-10.0-0.0","params":{"nStudents":24,"maxFlips":30,"completionMinutes":45,"basePay":8,"maxBonus":9,"perTrialBonus":0.5,"perTrialBonusThreshold":0.1,"exampleCost":0.01},"classroomParams":{"A":{"a":1,"b":4},"B":{"a":4,"b":1},"C":{"a":2,"b":8},"D":{"a":8,"b":2}},"conditions":["nonSeqFull","nonSeqPartial","seqNoFeedback","seqFeedback"],"classroomPairings":[["A","B"],["C","D"]],"coinWeights":[0.2,0.5,0.8],"subjectId":"A2KLJKDG90K1PP","assignmentId":"35BLDD71I7JO9DOH565ZGKIMZM8ZVH","hitId":"3YGE63DIN8J20XK20KS1742RQF60WK","url":"https://gershmanlab.com/experiments/alicia/teaching/experiment/?hitId=3YGE63DIN8J20XK20KS1742RQF60WK&workerId=A2KLJKDG90K1PP&assignmentId=35BLDD71I7JO9DOH565ZGKIMZM8ZVH&a=1DB58&tp_a=1DB58&b=35BLDD71I7JO9DOH565ZGKIMZM8ZVH&tp_b=35BLDD71I7JO9DOH565ZGKIMZM8ZVH&c=365198&tp_c=365198","firstResponseHeads":1,"firstResponseTails":4,"secondResponseHeads":1,"secondResponseTails":4,"studentIndex":0,"studentTrueHypers":{"a":2,"b":8},"studentGuess":0.2,"delta":0,"bonus":0.4,"bonusSoFar":0.4,"totalExamples":10},{"rt":10632,"response":{"heads":"1","tails":"4"},"type":"response","condition":"seqFeedback","trueTheta":0.2,"classrooms":["A","B"],"studentTrueClassroom":"A","exampleSet":"first","trial_type":"survey-html-form","trial_index":26,"time_elapsed":882346,"internal_node_id":"0.0-16.0-0.0","params":{"nStudents":24,"maxFlips":30,"completionMinutes":45,"basePay":8,"maxBonus":9,"perTrialBonus":0.5,"perTrialBonusThreshold":0.1,"exampleCost":0.01},"classroomParams":{"A":{"a":1,"b":4},"B":{"a":4,"b":1},"C":{"a":2,"b":8},"D":{"a":8,"b":2}},"conditions":["nonSeqFull","nonSeqPartial","seqNoFeedback","seqFeedback"],"classroomPairings":[["A","B"],["C","D"]],"coinWeights":[0.2,0.5,0.8],"subjectId":"A2KLJKDG90K1PP","assignmentId":"35BLDD71I7JO9DOH565ZGKIMZM8ZVH","hitId":"3YGE63DIN8J20XK20KS1742RQF60WK","url":"https://gershmanlab.com/experiments/alicia/teaching/experiment/?hitId=3YGE63DIN8J20XK20KS1742RQF60WK&workerId=A2KLJKDG90K1PP&assignmentId=35BLDD71I7JO9DOH565ZGKIMZM8ZVH&a=1DB58&tp_a=1DB58&b=35BLDD71I7JO9DOH565ZGKIMZM8ZVH&tp_b=35BLDD71I7JO9DOH565ZGKIMZM8ZVH&c=365198&tp_c=365198","heads":1,"tails":4,"studentIndex":1,"studentTrueHypers":{"a":1,"b":4},"studentGuess":0.2,"delta":0,"totalExamples":5,"bonusSoFar":0.4},{"rt":2220,"response":{"heads":"0","tails":"0"},"type":"response","condition":"seqFeedback","trueTheta":0.2,"classrooms":["A","B"],"studentTrueClassroom":"A","exampleSet":"second","trial_type":"survey-html-form","trial_index":30,"time_elapsed":894051,"internal_node_id":"0.0-20.0-0.0","params":{"nStudents":24,"maxFlips":30,"completionMinutes":45,"basePay":8,"maxBonus":9,"perTrialBonus":0.5,"perTrialBonusThreshold":0.1,"exampleCost":0.01},"classroomParams":{"A":{"a":1,"b":4},"B":{"a":4,"b":1},"C":{"a":2,"b":8},"D":{"a":8,"b":2}},"conditions":["nonSeqFull","nonSeqPartial","seqNoFeedback","seqFeedback"],"classroomPairings":[["A","B"],["C","D"]],"coinWeights":[0.2,0.5,0.8],"subjectId":"A2KLJKDG90K1PP","assignmentId":"35BLDD71I7JO9DOH565ZGKIMZM8ZVH","hitId":"3YGE63DIN8J20XK20KS1742RQF60WK","url":"https://gershmanlab.com/experiments/alicia/teaching/experiment/?hitId=3YGE63DIN8J20XK20KS1742RQF60WK&workerId=A2KLJKDG90K1PP&assignmentId=35BLDD71I7JO9DOH565ZGKIMZM8ZVH&a=1DB58&tp_a=1DB58&b=35BLDD71I7JO9DOH565ZGKIMZM8ZVH&tp_b=35BLDD71I7JO9DOH565ZGKIMZM8ZVH&c=365198&tp_c=365198","firstResponseHeads":1,"firstResponseTails":4,"secondResponseHeads":0,"secondResponseTails":0,"studentIndex":1,"studentTrueHypers":{"a":1,"b":4},"studentGuess":0.2,"delta":0,"bonus":0.45,"bonusSoFar":0.85,"totalExamples":5},{"rt":6475,"response":{"heads":"0","tails":"0"},"type":"response","condition":"seqFeedback","trueTheta":0.2,"classrooms":["A","B"],"studentTrueClassroom":"A","exampleSet":"second","trial_type":"survey-html-form","trial_index":31,"time_elapsed":900527,"internal_node_id":"0.0-20.1-0.1","params":{"nStudents":24,"maxFlips":30,"completionMinutes":45,"basePay":8,"maxBonus":9,"perTrialBonus":0.5,"perTrialBonusThreshold":0.1,"exampleCost":0.01},"classroomParams":{"A":{"a":1,"b":4},"B":{"a":4,"b":1},"C":{"a":2,"b":8},"D":{"a":8,"b":2}},"conditions":["nonSeqFull","nonSeqPartial","seqNoFeedback","seqFeedback"],"classroomPairings":[["A","B"],["C","D"]],"coinWeights":[0.2,0.5,0.8],"subjectId":"A2KLJKDG90K1PP","assignmentId":"35BLDD71I7JO9DOH565ZGKIMZM8ZVH","hitId":"3YGE63DIN8J20XK20KS1742RQF60WK","url":"https://gershmanlab.com/experiments/alicia/teaching/experiment/?hitId=3YGE63DIN8J20XK20KS1742RQF60WK&workerId=A2KLJKDG90K1PP&assignmentId=35BLDD71I7JO9DOH565ZGKIMZM8ZVH&a=1DB58&tp_a=1DB58&b=35BLDD71I7JO9DOH565ZGKIMZM8ZVH&tp_b=35BLDD71I7JO9DOH565ZGKIMZM8ZVH&c=365198&tp_c=365198","firstResponseHeads":1,"firstResponseTails":4,"secondResponseHeads":0,"secondResponseTails":0,"studentIndex":1,"studentTrueHypers":{"a":1,"b":4},"studentGuess":0.2,"delta":0,"bonus":0.45,"bonusSoFar":1.3,"totalExamples":5},{"rt":10899,"response":{"heads":"0","tails":"0"},"type":"response","condition":"seqFeedback","trueTheta":0.2,"classrooms":["A","B"],"studentTrueClassroom":"A","exampleSet":"second","trial_type":"survey-html-form","trial_index":32,"time_elapsed":911427,"internal_node_id":"0.0-20.2-0.2","params":{"nStudents":24,"maxFlips":30,"completionMinutes":45,"basePay":8,"maxBonus":9,"perTrialBonus":0.5,"perTrialBonusThreshold":0.1,"exampleCost":0.01},"classroomParams":{"A":{"a":1,"b":4},"B":{"a":4,"b":1},"C":{"a":2,"b":8},"D":{"a":8,"b":2}},"conditions":["nonSeqFull","nonSeqPartial","seqNoFeedback","seqFeedback"],"classroomPairings":[["A","B"],["C","D"]],"coinWeights":[0.2,0.5,0.8],"subjectId":"A2KLJKDG90K1PP","assignmentId":"35BLDD71I7JO9DOH565ZGKIMZM8ZVH","hitId":"3YGE63DIN8J20XK20KS1742RQF60WK","url":"https://gershmanlab.com/experiments/alicia/teaching/experiment/?hitId=3YGE63DIN8J20XK20KS1742RQF60WK&workerId=A2KLJKDG90K1PP&assignmentId=35BLDD71I7JO9DOH565ZGKIMZM8ZVH&a=1DB58&tp_a=1DB58&b=35BLDD71I7JO9DOH565ZGKIMZM8ZVH&tp_b=35BLDD71I7JO9DOH565ZGKIMZM8ZVH&c=365198&tp_c=365198","firstResponseHeads":1,"firstResponseTails":4,"secondResponseHeads":0,"secondResponseTails":0,"studentIndex":1,"studentTrueHypers":{"a":1,"b":4},"studentGuess":0.2,"delta":0,"bonus":0.45,"bonusSoFar":1.75,"totalExamples":5},{"rt":8891,"response":{"heads":"1","tails":"4"},"type":"response","condition":"seqFeedback","trueTheta":0.2,"classrooms":["A","B"],"studentTrueClassroom":"A","exampleSet":"second","trial_type":"survey-html-form","trial_index":33,"time_elapsed":920319,"internal_node_id":"0.0-20.3-0.3","params":{"nStudents":24,"maxFlips":30,"completionMinutes":45,"basePay":8,"maxBonus":9,"perTrialBonus":0.5,"perTrialBonusThreshold":0.1,"exampleCost":0.01},"classroomParams":{"A":{"a":1,"b":4},"B":{"a":4,"b":1},"C":{"a":2,"b":8},"D":{"a":8,"b":2}},"conditions":["nonSeqFull","nonSeqPartial","seqNoFeedback","seqFeedback"],"classroomPairings":[["A","B"],["C","D"]],"coinWeights":[0.2,0.5,0.8],"subjectId":"A2KLJKDG90K1PP","assignmentId":"35BLDD71I7JO9DOH565ZGKIMZM8ZVH","hitId":"3YGE63DIN8J20XK20KS1742RQF60WK","url":"https://gershmanlab.com/experiments/alicia/teaching/experiment/?hitId=3YGE63DIN8J20XK20KS1742RQF60WK&workerId=A2KLJKDG90K1PP&assignmentId=35BLDD71I7JO9DOH565ZGKIMZM8ZVH&a=1DB58&tp_a=1DB58&b=35BLDD71I7JO9DOH565ZGKIMZM8ZVH&tp_b=35BLDD71I7JO9DOH565ZGKIMZM8ZVH&c=365198&tp_c=365198","firstResponseHeads":1,"firstResponseTails":4,"secondResponseHeads":1,"secondResponseTails":4,"studentIndex":1,"studentTrueHypers":{"a":1,"b":4},"studentGuess":0.2,"delta":0,"bonus":0.4,"bonusSoFar":2.15,"totalExamples":10},{"rt":8719,"response":{"heads":"1","tails":"4"},"type":"response","condition":"nonSeqPartial","trueTheta":0.2,"classrooms":["A","B"],"studentTrueClassroom":"B","exampleSet":"first","trial_type":"survey-html-form","trial_index":39,"time_elapsed":962933,"internal_node_id":"0.0-26.0-0.0","params":{"nStudents":24,"maxFlips":30,"completionMinutes":45,"basePay":8,"maxBonus":9,"perTrialBonus":0.5,"perTrialBonusThreshold":0.1,"exampleCost":0.01},"classroomParams":{"A":{"a":1,"b":4},"B":{"a":4,"b":1},"C":{"a":2,"b":8},"D":{"a":8,"b":2}},"conditions":["nonSeqFull","nonSeqPartial","seqNoFeedback","seqFeedback"],"classroomPairings":[["A","B"],["C","D"]],"coinWeights":[0.2,0.5,0.8],"subjectId":"A2KLJKDG90K1PP","assignmentId":"35BLDD71I7JO9DOH565ZGKIMZM8ZVH","hitId":"3YGE63DIN8J20XK20KS1742RQF60WK","url":"https://gershmanlab.com/experiments/alicia/teaching/experiment/?hitId=3YGE63DIN8J20XK20KS1742RQF60WK&workerId=A2KLJKDG90K1PP&assignmentId=35BLDD71I7JO9DOH565ZGKIMZM8ZVH&a=1DB58&tp_a=1DB58&b=35BLDD71I7JO9DOH565ZGKIMZM8ZVH&tp_b=35BLDD71I7JO9DOH565ZGKIMZM8ZVH&c=365198&tp_c=365198","heads":1,"tails":4,"studentIndex":2,"studentTrueHypers":{"a":4,"b":1},"studentGuess":0.5,"delta":0.3,"totalExamples":5,"bonus":0,"bonusSoFar":2.15},{"rt":11292,"response":{"heads":"4","tails":"1"},"type":"response","condition":"seqFeedback","trueTheta":0.8,"classrooms":["C","D"],"studentTrueClassroom":"D","exampleSet":"first","trial_type":"survey-html-form","trial_index":45,"time_elapsed":997768,"internal_node_id":"0.0-32.0-0.0","params":{"nStudents":24,"maxFlips":30,"completionMinutes":45,"basePay":8,"maxBonus":9,"perTrialBonus":0.5,"perTrialBonusThreshold":0.1,"exampleCost":0.01},"classroomParams":{"A":{"a":1,"b":4},"B":{"a":4,"b":1},"C":{"a":2,"b":8},"D":{"a":8,"b":2}},"conditions":["nonSeqFull","nonSeqPartial","seqNoFeedback","seqFeedback"],"classroomPairings":[["A","B"],["C","D"]],"coinWeights":[0.2,0.5,0.8],"subjectId":"A2KLJKDG90K1PP","assignmentId":"35BLDD71I7JO9DOH565ZGKIMZM8ZVH","hitId":"3YGE63DIN8J20XK20KS1742RQF60WK","url":"https://gershmanlab.com/experiments/alicia/teaching/experiment/?hitId=3YGE63DIN8J20XK20KS1742RQF60WK&workerId=A2KLJKDG90K1PP&assignmentId=35BLDD71I7JO9DOH565ZGKIMZM8ZVH&a=1DB58&tp_a=1DB58&b=35BLDD71I7JO9DOH565ZGKIMZM8ZVH&tp_b=35BLDD71I7JO9DOH565ZGKIMZM8ZVH&c=365198&tp_c=365198","heads":4,"tails":1,"studentIndex":3,"studentTrueHypers":{"a":8,"b":2},"studentGuess":0.8,"delta":0,"totalExamples":5,"bonusSoFar":2.15},{"rt":3795,"response":{"heads":"0","tails":"0"},"type":"response","condition":"seqFeedback","trueTheta":0.8,"classrooms":["C","D"],"studentTrueClassroom":"D","exampleSet":"second","trial_type":"survey-html-form","trial_index":49,"time_elapsed":1012046,"internal_node_id":"0.0-36.0-0.0","params":{"nStudents":24,"maxFlips":30,"completionMinutes":45,"basePay":8,"maxBonus":9,"perTrialBonus":0.5,"perTrialBonusThreshold":0.1,"exampleCost":0.01},"classroomParams":{"A":{"a":1,"b":4},"B":{"a":4,"b":1},"C":{"a":2,"b":8},"D":{"a":8,"b":2}},"conditions":["nonSeqFull","nonSeqPartial","seqNoFeedback","seqFeedback"],"classroomPairings":[["A","B"],["C","D"]],"coinWeights":[0.2,0.5,0.8],"subjectId":"A2KLJKDG90K1PP","assignmentId":"35BLDD71I7JO9DOH565ZGKIMZM8ZVH","hitId":"3YGE63DIN8J20XK20KS1742RQF60WK","url":"https://gershmanlab.com/experiments/alicia/teaching/experiment/?hitId=3YGE63DIN8J20XK20KS1742RQF60WK&workerId=A2KLJKDG90K1PP&assignmentId=35BLDD71I7JO9DOH565ZGKIMZM8ZVH&a=1DB58&tp_a=1DB58&b=35BLDD71I7JO9DOH565ZGKIMZM8ZVH&tp_b=35BLDD71I7JO9DOH565ZGKIMZM8ZVH&c=365198&tp_c=365198","firstResponseHeads":4,"firstResponseTails":1,"secondResponseHeads":0,"secondResponseTails":0,"studentIndex":3,"studentTrueHypers":{"a":8,"b":2},"studentGuess":0.8,"delta":0,"bonus":0.45,"bonusSoFar":2.6,"totalExamples":5},{"rt":5812,"response":{"heads":"4","tails":"1"},"type":"response","condition":"seqFeedback","trueTheta":0.8,"classrooms":["C","D"],"studentTrueClassroom":"D","exampleSet":"second","trial_type":"survey-html-form","trial_index":50,"time_elapsed":1017860,"internal_node_id":"0.0-36.1-0.1","params":{"nStudents":24,"maxFlips":30,"completionMinutes":45,"basePay":8,"maxBonus":9,"perTrialBonus":0.5,"perTrialBonusThreshold":0.1,"exampleCost":0.01},"classroomParams":{"A":{"a":1,"b":4},"B":{"a":4,"b":1},"C":{"a":2,"b":8},"D":{"a":8,"b":2}},"conditions":["nonSeqFull","nonSeqPartial","seqNoFeedback","seqFeedback"],"classroomPairings":[["A","B"],["C","D"]],"coinWeights":[0.2,0.5,0.8],"subjectId":"A2KLJKDG90K1PP","assignmentId":"35BLDD71I7JO9DOH565ZGKIMZM8ZVH","hitId":"3YGE63DIN8J20XK20KS1742RQF60WK","url":"https://gershmanlab.com/experiments/alicia/teaching/experiment/?hitId=3YGE63DIN8J20XK20KS1742RQF60WK&workerId=A2KLJKDG90K1PP&assignmentId=35BLDD71I7JO9DOH565ZGKIMZM8ZVH&a=1DB58&tp_a=1DB58&b=35BLDD71I7JO9DOH565ZGKIMZM8ZVH&tp_b=35BLDD71I7JO9DOH565ZGKIMZM8ZVH&c=365198&tp_c=365198","firstResponseHeads":4,"firstResponseTails":1,"secondResponseHeads":4,"secondResponseTails":1,"studentIndex":3,"studentTrueHypers":{"a":8,"b":2},"studentGuess":0.8,"delta":0,"bonus":0.4,"bonusSoFar":3,"totalExamples":10},{"rt":3760,"response":{"heads":"1","tails":"1"},"type":"response","condition":"seqNoFeedback","trueTheta":0.5,"classrooms":["C","D"],"studentTrueClassroom":"C","exampleSet":"first","trial_type":"survey-html-form","trial_index":56,"time_elapsed":1042908,"internal_node_id":"0.0-42.0-0.0","params":{"nStudents":24,"maxFlips":30,"completionMinutes":45,"basePay":8,"maxBonus":9,"perTrialBonus":0.5,"perTrialBonusThreshold":0.1,"exampleCost":0.01},"classroomParams":{"A":{"a":1,"b":4},"B":{"a":4,"b":1},"C":{"a":2,"b":8},"D":{"a":8,"b":2}},"conditions":["nonSeqFull","nonSeqPartial","seqNoFeedback","seqFeedback"],"classroomPairings":[["A","B"],["C","D"]],"coinWeights":[0.2,0.5,0.8],"subjectId":"A2KLJKDG90K1PP","assignmentId":"35BLDD71I7JO9DOH565ZGKIMZM8ZVH","hitId":"3YGE63DIN8J20XK20KS1742RQF60WK","url":"https://gershmanlab.com/experiments/alicia/teaching/experiment/?hitId=3YGE63DIN8J20XK20KS1742RQF60WK&workerId=A2KLJKDG90K1PP&assignmentId=35BLDD71I7JO9DOH565ZGKIMZM8ZVH&a=1DB58&tp_a=1DB58&b=35BLDD71I7JO9DOH565ZGKIMZM8ZVH&tp_b=35BLDD71I7JO9DOH565ZGKIMZM8ZVH&c=365198&tp_c=365198","heads":1,"tails":1,"studentIndex":4,"studentTrueHypers":{"a":2,"b":8},"studentGuess":0.25,"delta":0.25,"totalExamples":2,"bonusSoFar":3},{"rt":8349,"response":{"heads":"1","tails":"1"},"type":"response","condition":"seqNoFeedback","trueTheta":0.5,"classrooms":["C","D"],"studentTrueClassroom":"C","exampleSet":"second","trial_type":"survey-html-form","trial_index":59,"time_elapsed":1056515,"internal_node_id":"0.0-45.0-0.0","params":{"nStudents":24,"maxFlips":30,"completionMinutes":45,"basePay":8,"maxBonus":9,"perTrialBonus":0.5,"perTrialBonusThreshold":0.1,"exampleCost":0.01},"classroomParams":{"A":{"a":1,"b":4},"B":{"a":4,"b":1},"C":{"a":2,"b":8},"D":{"a":8,"b":2}},"conditions":["nonSeqFull","nonSeqPartial","seqNoFeedback","seqFeedback"],"classroomPairings":[["A","B"],["C","D"]],"coinWeights":[0.2,0.5,0.8],"subjectId":"A2KLJKDG90K1PP","assignmentId":"35BLDD71I7JO9DOH565ZGKIMZM8ZVH","hitId":"3YGE63DIN8J20XK20KS1742RQF60WK","url":"https://gershmanlab.com/experiments/alicia/teaching/experiment/?hitId=3YGE63DIN8J20XK20KS1742RQF60WK&workerId=A2KLJKDG90K1PP&assignmentId=35BLDD71I7JO9DOH565ZGKIMZM8ZVH&a=1DB58&tp_a=1DB58&b=35BLDD71I7JO9DOH565ZGKIMZM8ZVH&tp_b=35BLDD71I7JO9DOH565ZGKIMZM8ZVH&c=365198&tp_c=365198","firstResponseHeads":1,"firstResponseTails":1,"secondResponseHeads":1,"secondResponseTails":1,"studentIndex":4,"studentTrueHypers":{"a":2,"b":8},"studentGuess":0.2857142857142857,"delta":0.2142857142857143,"bonus":0,"bonusSoFar":3,"totalExamples":4},{"rt":9726,"response":{"heads":"1","tails":"4"},"type":"response","condition":"nonSeqFull","trueTheta":0.2,"classrooms":["C","D"],"studentTrueClassroom":"C","exampleSet":"first","trial_type":"survey-html-form","trial_index":65,"time_elapsed":1083960,"internal_node_id":"0.0-51.0-0.0","params":{"nStudents":24,"maxFlips":30,"completionMinutes":45,"basePay":8,"maxBonus":9,"perTrialBonus":0.5,"perTrialBonusThreshold":0.1,"exampleCost":0.01},"classroomParams":{"A":{"a":1,"b":4},"B":{"a":4,"b":1},"C":{"a":2,"b":8},"D":{"a":8,"b":2}},"conditions":["nonSeqFull","nonSeqPartial","seqNoFeedback","seqFeedback"],"classroomPairings":[["A","B"],["C","D"]],"coinWeights":[0.2,0.5,0.8],"subjectId":"A2KLJKDG90K1PP","assignmentId":"35BLDD71I7JO9DOH565ZGKIMZM8ZVH","hitId":"3YGE63DIN8J20XK20KS1742RQF60WK","url":"https://gershmanlab.com/experiments/alicia/teaching/experiment/?hitId=3YGE63DIN8J20XK20KS1742RQF60WK&workerId=A2KLJKDG90K1PP&assignmentId=35BLDD71I7JO9DOH565ZGKIMZM8ZVH&a=1DB58&tp_a=1DB58&b=35BLDD71I7JO9DOH565ZGKIMZM8ZVH&tp_b=35BLDD71I7JO9DOH565ZGKIMZM8ZVH&c=365198&tp_c=365198","heads":1,"tails":4,"studentIndex":5,"studentTrueHypers":{"a":2,"b":8},"studentGuess":0.2,"delta":0,"totalExamples":5,"bonus":0.45,"bonusSoFar":3.45},{"rt":7431,"response":{"heads":"1","tails":"4"},"type":"response","condition":"seqNoFeedback","trueTheta":0.2,"classrooms":["C","D"],"studentTrueClassroom":"C","exampleSet":"first","trial_type":"survey-html-form","trial_index":71,"time_elapsed":1105275,"internal_node_id":"0.0-57.0-0.0","params":{"nStudents":24,"maxFlips":30,"completionMinutes":45,"basePay":8,"maxBonus":9,"perTrialBonus":0.5,"perTrialBonusThreshold":0.1,"exampleCost":0.01},"classroomParams":{"A":{"a":1,"b":4},"B":{"a":4,"b":1},"C":{"a":2,"b":8},"D":{"a":8,"b":2}},"conditions":["nonSeqFull","nonSeqPartial","seqNoFeedback","seqFeedback"],"classroomPairings":[["A","B"],["C","D"]],"coinWeights":[0.2,0.5,0.8],"subjectId":"A2KLJKDG90K1PP","assignmentId":"35BLDD71I7JO9DOH565ZGKIMZM8ZVH","hitId":"3YGE63DIN8J20XK20KS1742RQF60WK","url":"https://gershmanlab.com/experiments/alicia/teaching/experiment/?hitId=3YGE63DIN8J20XK20KS1742RQF60WK&workerId=A2KLJKDG90K1PP&assignmentId=35BLDD71I7JO9DOH565ZGKIMZM8ZVH&a=1DB58&tp_a=1DB58&b=35BLDD71I7JO9DOH565ZGKIMZM8ZVH&tp_b=35BLDD71I7JO9DOH565ZGKIMZM8ZVH&c=365198&tp_c=365198","heads":1,"tails":4,"studentIndex":6,"studentTrueHypers":{"a":2,"b":8},"studentGuess":0.2,"delta":0,"totalExamples":5,"bonusSoFar":3.45},{"rt":5256,"response":{"heads":"1","tails":"4"},"type":"response","condition":"seqNoFeedback","trueTheta":0.2,"classrooms":["C","D"],"studentTrueClassroom":"C","exampleSet":"second","trial_type":"survey-html-form","trial_index":74,"time_elapsed":1116535,"internal_node_id":"0.0-60.0-0.0","params":{"nStudents":24,"maxFlips":30,"completionMinutes":45,"basePay":8,"maxBonus":9,"perTrialBonus":0.5,"perTrialBonusThreshold":0.1,"exampleCost":0.01},"classroomParams":{"A":{"a":1,"b":4},"B":{"a":4,"b":1},"C":{"a":2,"b":8},"D":{"a":8,"b":2}},"conditions":["nonSeqFull","nonSeqPartial","seqNoFeedback","seqFeedback"],"classroomPairings":[["A","B"],["C","D"]],"coinWeights":[0.2,0.5,0.8],"subjectId":"A2KLJKDG90K1PP","assignmentId":"35BLDD71I7JO9DOH565ZGKIMZM8ZVH","hitId":"3YGE63DIN8J20XK20KS1742RQF60WK","url":"https://gershmanlab.com/experiments/alicia/teaching/experiment/?hitId=3YGE63DIN8J20XK20KS1742RQF60WK&workerId=A2KLJKDG90K1PP&assignmentId=35BLDD71I7JO9DOH565ZGKIMZM8ZVH&a=1DB58&tp_a=1DB58&b=35BLDD71I7JO9DOH565ZGKIMZM8ZVH&tp_b=35BLDD71I7JO9DOH565ZGKIMZM8ZVH&c=365198&tp_c=365198","firstResponseHeads":1,"firstResponseTails":4,"secondResponseHeads":1,"secondResponseTails":4,"studentIndex":6,"studentTrueHypers":{"a":2,"b":8},"studentGuess":0.2,"delta":0,"bonus":0.4,"bonusSoFar":3.85,"totalExamples":10},{"rt":10858,"response":{"heads":"1","tails":"4"},"type":"response","condition":"seqNoFeedback","trueTheta":0.2,"classrooms":["A","B"],"studentTrueClassroom":"B","exampleSet":"first","trial_type":"survey-html-form","trial_index":80,"time_elapsed":1152016,"internal_node_id":"0.0-66.0-0.0","params":{"nStudents":24,"maxFlips":30,"completionMinutes":45,"basePay":8,"maxBonus":9,"perTrialBonus":0.5,"perTrialBonusThreshold":0.1,"exampleCost":0.01},"classroomParams":{"A":{"a":1,"b":4},"B":{"a":4,"b":1},"C":{"a":2,"b":8},"D":{"a":8,"b":2}},"conditions":["nonSeqFull","nonSeqPartial","seqNoFeedback","seqFeedback"],"classroomPairings":[["A","B"],["C","D"]],"coinWeights":[0.2,0.5,0.8],"subjectId":"A2KLJKDG90K1PP","assignmentId":"35BLDD71I7JO9DOH565ZGKIMZM8ZVH","hitId":"3YGE63DIN8J20XK20KS1742RQF60WK","url":"https://gershmanlab.com/experiments/alicia/teaching/experiment/?hitId=3YGE63DIN8J20XK20KS1742RQF60WK&workerId=A2KLJKDG90K1PP&assignmentId=35BLDD71I7JO9DOH565ZGKIMZM8ZVH&a=1DB58&tp_a=1DB58&b=35BLDD71I7JO9DOH565ZGKIMZM8ZVH&tp_b=35BLDD71I7JO9DOH565ZGKIMZM8ZVH&c=365198&tp_c=365198","heads":1,"tails":4,"studentIndex":7,"studentTrueHypers":{"a":4,"b":1},"studentGuess":0.5,"delta":0.3,"totalExamples":5,"bonusSoFar":3.85},{"rt":5050,"response":{"heads":"1","tails":"4"},"type":"response","condition":"seqNoFeedback","trueTheta":0.2,"classrooms":["A","B"],"studentTrueClassroom":"B","exampleSet":"second","trial_type":"survey-html-form","trial_index":83,"time_elapsed":1164576,"internal_node_id":"0.0-69.0-0.0","params":{"nStudents":24,"maxFlips":30,"completionMinutes":45,"basePay":8,"maxBonus":9,"perTrialBonus":0.5,"perTrialBonusThreshold":0.1,"exampleCost":0.01},"classroomParams":{"A":{"a":1,"b":4},"B":{"a":4,"b":1},"C":{"a":2,"b":8},"D":{"a":8,"b":2}},"conditions":["nonSeqFull","nonSeqPartial","seqNoFeedback","seqFeedback"],"classroomPairings":[["A","B"],["C","D"]],"coinWeights":[0.2,0.5,0.8],"subjectId":"A2KLJKDG90K1PP","assignmentId":"35BLDD71I7JO9DOH565ZGKIMZM8ZVH","hitId":"3YGE63DIN8J20XK20KS1742RQF60WK","url":"https://gershmanlab.com/experiments/alicia/teaching/experiment/?hitId=3YGE63DIN8J20XK20KS1742RQF60WK&workerId=A2KLJKDG90K1PP&assignmentId=35BLDD71I7JO9DOH565ZGKIMZM8ZVH&a=1DB58&tp_a=1DB58&b=35BLDD71I7JO9DOH565ZGKIMZM8ZVH&tp_b=35BLDD71I7JO9DOH565ZGKIMZM8ZVH&c=365198&tp_c=365198","firstResponseHeads":1,"firstResponseTails":4,"secondResponseHeads":1,"secondResponseTails":4,"studentIndex":7,"studentTrueHypers":{"a":4,"b":1},"studentGuess":0.4,"delta":0.2,"bonus":0,"bonusSoFar":3.85,"totalExamples":10},{"rt":6458,"response":{"heads":"5","tails":"5"},"type":"response","condition":"seqNoFeedback","trueTheta":0.5,"classrooms":["A","B"],"studentTrueClassroom":"A","exampleSet":"first","trial_type":"survey-html-form","trial_index":89,"time_elapsed":1193393,"internal_node_id":"0.0-75.0-0.0","params":{"nStudents":24,"maxFlips":30,"completionMinutes":45,"basePay":8,"maxBonus":9,"perTrialBonus":0.5,"perTrialBonusThreshold":0.1,"exampleCost":0.01},"classroomParams":{"A":{"a":1,"b":4},"B":{"a":4,"b":1},"C":{"a":2,"b":8},"D":{"a":8,"b":2}},"conditions":["nonSeqFull","nonSeqPartial","seqNoFeedback","seqFeedback"],"classroomPairings":[["A","B"],["C","D"]],"coinWeights":[0.2,0.5,0.8],"subjectId":"A2KLJKDG90K1PP","assignmentId":"35BLDD71I7JO9DOH565ZGKIMZM8ZVH","hitId":"3YGE63DIN8J20XK20KS1742RQF60WK","url":"https://gershmanlab.com/experiments/alicia/teaching/experiment/?hitId=3YGE63DIN8J20XK20KS1742RQF60WK&workerId=A2KLJKDG90K1PP&assignmentId=35BLDD71I7JO9DOH565ZGKIMZM8ZVH&a=1DB58&tp_a=1DB58&b=35BLDD71I7JO9DOH565ZGKIMZM8ZVH&tp_b=35BLDD71I7JO9DOH565ZGKIMZM8ZVH&c=365198&tp_c=365198","heads":5,"tails":5,"studentIndex":8,"studentTrueHypers":{"a":1,"b":4},"studentGuess":0.4,"delta":0.09999999999999998,"totalExamples":10,"bonusSoFar":3.85},{"rt":5031,"response":{"heads":"5","tails":"5"},"type":"response","condition":"seqNoFeedback","trueTheta":0.5,"classrooms":["A","B"],"studentTrueClassroom":"A","exampleSet":"second","trial_type":"survey-html-form","trial_index":92,"time_elapsed":1204432,"internal_node_id":"0.0-78.0-0.0","params":{"nStudents":24,"maxFlips":30,"completionMinutes":45,"basePay":8,"maxBonus":9,"perTrialBonus":0.5,"perTrialBonusThreshold":0.1,"exampleCost":0.01},"classroomParams":{"A":{"a":1,"b":4},"B":{"a":4,"b":1},"C":{"a":2,"b":8},"D":{"a":8,"b":2}},"conditions":["nonSeqFull","nonSeqPartial","seqNoFeedback","seqFeedback"],"classroomPairings":[["A","B"],["C","D"]],"coinWeights":[0.2,0.5,0.8],"subjectId":"A2KLJKDG90K1PP","assignmentId":"35BLDD71I7JO9DOH565ZGKIMZM8ZVH","hitId":"3YGE63DIN8J20XK20KS1742RQF60WK","url":"https://gershmanlab.com/experiments/alicia/teaching/experiment/?hitId=3YGE63DIN8J20XK20KS1742RQF60WK&workerId=A2KLJKDG90K1PP&assignmentId=35BLDD71I7JO9DOH565ZGKIMZM8ZVH&a=1DB58&tp_a=1DB58&b=35BLDD71I7JO9DOH565ZGKIMZM8ZVH&tp_b=35BLDD71I7JO9DOH565ZGKIMZM8ZVH&c=365198&tp_c=365198","firstResponseHeads":5,"firstResponseTails":5,"secondResponseHeads":5,"secondResponseTails":5,"studentIndex":8,"studentTrueHypers":{"a":1,"b":4},"studentGuess":0.44,"delta":0.06,"bonus":0.3,"bonusSoFar":4.15,"totalExamples":20},{"rt":10088,"response":{"heads":"8","tails":"2"},"type":"response","condition":"seqNoFeedback","trueTheta":0.8,"classrooms":["A","B"],"studentTrueClassroom":"B","exampleSet":"first","trial_type":"survey-html-form","trial_index":98,"time_elapsed":1238194,"internal_node_id":"0.0-84.0-0.0","params":{"nStudents":24,"maxFlips":30,"completionMinutes":45,"basePay":8,"maxBonus":9,"perTrialBonus":0.5,"perTrialBonusThreshold":0.1,"exampleCost":0.01},"classroomParams":{"A":{"a":1,"b":4},"B":{"a":4,"b":1},"C":{"a":2,"b":8},"D":{"a":8,"b":2}},"conditions":["nonSeqFull","nonSeqPartial","seqNoFeedback","seqFeedback"],"classroomPairings":[["A","B"],["C","D"]],"coinWeights":[0.2,0.5,0.8],"subjectId":"A2KLJKDG90K1PP","assignmentId":"35BLDD71I7JO9DOH565ZGKIMZM8ZVH","hitId":"3YGE63DIN8J20XK20KS1742RQF60WK","url":"https://gershmanlab.com/experiments/alicia/teaching/experiment/?hitId=3YGE63DIN8J20XK20KS1742RQF60WK&workerId=A2KLJKDG90K1PP&assignmentId=35BLDD71I7JO9DOH565ZGKIMZM8ZVH&a=1DB58&tp_a=1DB58&b=35BLDD71I7JO9DOH565ZGKIMZM8ZVH&tp_b=35BLDD71I7JO9DOH565ZGKIMZM8ZVH&c=365198&tp_c=365198","heads":8,"tails":2,"studentIndex":9,"studentTrueHypers":{"a":4,"b":1},"studentGuess":0.8,"delta":0,"totalExamples":10,"bonusSoFar":4.15},{"rt":5417,"response":{"heads":"8","tails":"2"},"type":"response","condition":"seqNoFeedback","trueTheta":0.8,"classrooms":["A","B"],"studentTrueClassroom":"B","exampleSet":"second","trial_type":"survey-html-form","trial_index":101,"time_elapsed":1249365,"internal_node_id":"0.0-87.0-0.0","params":{"nStudents":24,"maxFlips":30,"completionMinutes":45,"basePay":8,"maxBonus":9,"perTrialBonus":0.5,"perTrialBonusThreshold":0.1,"exampleCost":0.01},"classroomParams":{"A":{"a":1,"b":4},"B":{"a":4,"b":1},"C":{"a":2,"b":8},"D":{"a":8,"b":2}},"conditions":["nonSeqFull","nonSeqPartial","seqNoFeedback","seqFeedback"],"classroomPairings":[["A","B"],["C","D"]],"coinWeights":[0.2,0.5,0.8],"subjectId":"A2KLJKDG90K1PP","assignmentId":"35BLDD71I7JO9DOH565ZGKIMZM8ZVH","hitId":"3YGE63DIN8J20XK20KS1742RQF60WK","url":"https://gershmanlab.com/experiments/alicia/teaching/experiment/?hitId=3YGE63DIN8J20XK20KS1742RQF60WK&workerId=A2KLJKDG90K1PP&assignmentId=35BLDD71I7JO9DOH565ZGKIMZM8ZVH&a=1DB58&tp_a=1DB58&b=35BLDD71I7JO9DOH565ZGKIMZM8ZVH&tp_b=35BLDD71I7JO9DOH565ZGKIMZM8ZVH&c=365198&tp_c=365198","firstResponseHeads":8,"firstResponseTails":2,"secondResponseHeads":8,"secondResponseTails":2,"studentIndex":9,"studentTrueHypers":{"a":4,"b":1},"studentGuess":0.8,"delta":0,"bonus":0.3,"bonusSoFar":4.45,"totalExamples":20},{"rt":9206,"response":{"heads":"5","tails":"5"},"type":"response","condition":"nonSeqFull","trueTheta":0.5,"classrooms":["C","D"],"studentTrueClassroom":"D","exampleSet":"first","trial_type":"survey-html-form","trial_index":107,"time_elapsed":1274918,"internal_node_id":"0.0-93.0-0.0","params":{"nStudents":24,"maxFlips":30,"completionMinutes":45,"basePay":8,"maxBonus":9,"perTrialBonus":0.5,"perTrialBonusThreshold":0.1,"exampleCost":0.01},"classroomParams":{"A":{"a":1,"b":4},"B":{"a":4,"b":1},"C":{"a":2,"b":8},"D":{"a":8,"b":2}},"conditions":["nonSeqFull","nonSeqPartial","seqNoFeedback","seqFeedback"],"classroomPairings":[["A","B"],["C","D"]],"coinWeights":[0.2,0.5,0.8],"subjectId":"A2KLJKDG90K1PP","assignmentId":"35BLDD71I7JO9DOH565ZGKIMZM8ZVH","hitId":"3YGE63DIN8J20XK20KS1742RQF60WK","url":"https://gershmanlab.com/experiments/alicia/teaching/experiment/?hitId=3YGE63DIN8J20XK20KS1742RQF60WK&workerId=A2KLJKDG90K1PP&assignmentId=35BLDD71I7JO9DOH565ZGKIMZM8ZVH&a=1DB58&tp_a=1DB58&b=35BLDD71I7JO9DOH565ZGKIMZM8ZVH&tp_b=35BLDD71I7JO9DOH565ZGKIMZM8ZVH&c=365198&tp_c=365198","heads":5,"tails":5,"studentIndex":10,"studentTrueHypers":{"a":8,"b":2},"studentGuess":0.65,"delta":0.15000000000000002,"totalExamples":10,"bonus":0,"bonusSoFar":4.45},{"rt":13244,"response":{"heads":"4","tails":"1"},"type":"response","condition":"nonSeqPartial","trueTheta":0.8,"classrooms":["C","D"],"studentTrueClassroom":"D","exampleSet":"first","trial_type":"survey-html-form","trial_index":113,"time_elapsed":1306302,"internal_node_id":"0.0-99.0-0.0","params":{"nStudents":24,"maxFlips":30,"completionMinutes":45,"basePay":8,"maxBonus":9,"perTrialBonus":0.5,"perTrialBonusThreshold":0.1,"exampleCost":0.01},"classroomParams":{"A":{"a":1,"b":4},"B":{"a":4,"b":1},"C":{"a":2,"b":8},"D":{"a":8,"b":2}},"conditions":["nonSeqFull","nonSeqPartial","seqNoFeedback","seqFeedback"],"classroomPairings":[["A","B"],["C","D"]],"coinWeights":[0.2,0.5,0.8],"subjectId":"A2KLJKDG90K1PP","assignmentId":"35BLDD71I7JO9DOH565ZGKIMZM8ZVH","hitId":"3YGE63DIN8J20XK20KS1742RQF60WK","url":"https://gershmanlab.com/experiments/alicia/teaching/experiment/?hitId=3YGE63DIN8J20XK20KS1742RQF60WK&workerId=A2KLJKDG90K1PP&assignmentId=35BLDD71I7JO9DOH565ZGKIMZM8ZVH&a=1DB58&tp_a=1DB58&b=35BLDD71I7JO9DOH565ZGKIMZM8ZVH&tp_b=35BLDD71I7JO9DOH565ZGKIMZM8ZVH&c=365198&tp_c=365198","heads":4,"tails":1,"studentIndex":11,"studentTrueHypers":{"a":8,"b":2},"studentGuess":0.8,"delta":0,"totalExamples":5,"bonus":0.45,"bonusSoFar":4.9},{"rt":7990,"response":{"heads":"1","tails":"1"},"type":"response","condition":"seqFeedback","trueTheta":0.5,"classrooms":["C","D"],"studentTrueClassroom":"C","exampleSet":"first","trial_type":"survey-html-form","trial_index":119,"time_elapsed":1328341,"internal_node_id":"0.0-105.0-0.0","params":{"nStudents":24,"maxFlips":30,"completionMinutes":45,"basePay":8,"maxBonus":9,"perTrialBonus":0.5,"perTrialBonusThreshold":0.1,"exampleCost":0.01},"classroomParams":{"A":{"a":1,"b":4},"B":{"a":4,"b":1},"C":{"a":2,"b":8},"D":{"a":8,"b":2}},"conditions":["nonSeqFull","nonSeqPartial","seqNoFeedback","seqFeedback"],"classroomPairings":[["A","B"],["C","D"]],"coinWeights":[0.2,0.5,0.8],"subjectId":"A2KLJKDG90K1PP","assignmentId":"35BLDD71I7JO9DOH565ZGKIMZM8ZVH","hitId":"3YGE63DIN8J20XK20KS1742RQF60WK","url":"https://gershmanlab.com/experiments/alicia/teaching/experiment/?hitId=3YGE63DIN8J20XK20KS1742RQF60WK&workerId=A2KLJKDG90K1PP&assignmentId=35BLDD71I7JO9DOH565ZGKIMZM8ZVH&a=1DB58&tp_a=1DB58&b=35BLDD71I7JO9DOH565ZGKIMZM8ZVH&tp_b=35BLDD71I7JO9DOH565ZGKIMZM8ZVH&c=365198&tp_c=365198","heads":1,"tails":1,"studentIndex":12,"studentTrueHypers":{"a":2,"b":8},"studentGuess":0.25,"delta":0.25,"totalExamples":2,"bonusSoFar":4.9},{"rt":3918,"response":{"heads":"5","tails":"5"},"type":"response","condition":"seqFeedback","trueTheta":0.5,"classrooms":["C","D"],"studentTrueClassroom":"C","exampleSet":"second","trial_type":"survey-html-form","trial_index":123,"time_elapsed":1345175,"internal_node_id":"0.0-109.0-0.0","params":{"nStudents":24,"maxFlips":30,"completionMinutes":45,"basePay":8,"maxBonus":9,"perTrialBonus":0.5,"perTrialBonusThreshold":0.1,"exampleCost":0.01},"classroomParams":{"A":{"a":1,"b":4},"B":{"a":4,"b":1},"C":{"a":2,"b":8},"D":{"a":8,"b":2}},"conditions":["nonSeqFull","nonSeqPartial","seqNoFeedback","seqFeedback"],"classroomPairings":[["A","B"],["C","D"]],"coinWeights":[0.2,0.5,0.8],"subjectId":"A2KLJKDG90K1PP","assignmentId":"35BLDD71I7JO9DOH565ZGKIMZM8ZVH","hitId":"3YGE63DIN8J20XK20KS1742RQF60WK","url":"https://gershmanlab.com/experiments/alicia/teaching/experiment/?hitId=3YGE63DIN8J20XK20KS1742RQF60WK&workerId=A2KLJKDG90K1PP&assignmentId=35BLDD71I7JO9DOH565ZGKIMZM8ZVH&a=1DB58&tp_a=1DB58&b=35BLDD71I7JO9DOH565ZGKIMZM8ZVH&tp_b=35BLDD71I7JO9DOH565ZGKIMZM8ZVH&c=365198&tp_c=365198","firstResponseHeads":1,"firstResponseTails":1,"secondResponseHeads":5,"secondResponseTails":5,"studentIndex":12,"studentTrueHypers":{"a":2,"b":8},"studentGuess":0.36363636363636365,"delta":0.13636363636363635,"bonus":0,"bonusSoFar":4.9,"totalExamples":12},{"rt":8793,"response":{"heads":"5","tails":"5"},"type":"response","condition":"seqFeedback","trueTheta":0.5,"classrooms":["A","B"],"studentTrueClassroom":"A","exampleSet":"first","trial_type":"survey-html-form","trial_index":129,"time_elapsed":1369546,"internal_node_id":"0.0-115.0-0.0","params":{"nStudents":24,"maxFlips":30,"completionMinutes":45,"basePay":8,"maxBonus":9,"perTrialBonus":0.5,"perTrialBonusThreshold":0.1,"exampleCost":0.01},"classroomParams":{"A":{"a":1,"b":4},"B":{"a":4,"b":1},"C":{"a":2,"b":8},"D":{"a":8,"b":2}},"conditions":["nonSeqFull","nonSeqPartial","seqNoFeedback","seqFeedback"],"classroomPairings":[["A","B"],["C","D"]],"coinWeights":[0.2,0.5,0.8],"subjectId":"A2KLJKDG90K1PP","assignmentId":"35BLDD71I7JO9DOH565ZGKIMZM8ZVH","hitId":"3YGE63DIN8J20XK20KS1742RQF60WK","url":"https://gershmanlab.com/experiments/alicia/teaching/experiment/?hitId=3YGE63DIN8J20XK20KS1742RQF60WK&workerId=A2KLJKDG90K1PP&assignmentId=35BLDD71I7JO9DOH565ZGKIMZM8ZVH&a=1DB58&tp_a=1DB58&b=35BLDD71I7JO9DOH565ZGKIMZM8ZVH&tp_b=35BLDD71I7JO9DOH565ZGKIMZM8ZVH&c=365198&tp_c=365198","heads":5,"tails":5,"studentIndex":13,"studentTrueHypers":{"a":1,"b":4},"studentGuess":0.4,"delta":0.09999999999999998,"totalExamples":10,"bonusSoFar":4.9},{"rt":4159,"response":{"heads":"5","tails":"5"},"type":"response","condition":"seqFeedback","trueTheta":0.5,"classrooms":["A","B"],"studentTrueClassroom":"A","exampleSet":"second","trial_type":"survey-html-form","trial_index":133,"time_elapsed":1386288,"internal_node_id":"0.0-119.0-0.0","params":{"nStudents":24,"maxFlips":30,"completionMinutes":45,"basePay":8,"maxBonus":9,"perTrialBonus":0.5,"perTrialBonusThreshold":0.1,"exampleCost":0.01},"classroomParams":{"A":{"a":1,"b":4},"B":{"a":4,"b":1},"C":{"a":2,"b":8},"D":{"a":8,"b":2}},"conditions":["nonSeqFull","nonSeqPartial","seqNoFeedback","seqFeedback"],"classroomPairings":[["A","B"],["C","D"]],"coinWeights":[0.2,0.5,0.8],"subjectId":"A2KLJKDG90K1PP","assignmentId":"35BLDD71I7JO9DOH565ZGKIMZM8ZVH","hitId":"3YGE63DIN8J20XK20KS1742RQF60WK","url":"https://gershmanlab.com/experiments/alicia/teaching/experiment/?hitId=3YGE63DIN8J20XK20KS1742RQF60WK&workerId=A2KLJKDG90K1PP&assignmentId=35BLDD71I7JO9DOH565ZGKIMZM8ZVH&a=1DB58&tp_a=1DB58&b=35BLDD71I7JO9DOH565ZGKIMZM8ZVH&tp_b=35BLDD71I7JO9DOH565ZGKIMZM8ZVH&c=365198&tp_c=365198","firstResponseHeads":5,"firstResponseTails":5,"secondResponseHeads":5,"secondResponseTails":5,"studentIndex":13,"studentTrueHypers":{"a":1,"b":4},"studentGuess":0.44,"delta":0.06,"bonus":0.3,"bonusSoFar":5.2,"totalExamples":20},{"rt":5537,"response":{"heads":"1","tails":"4"},"type":"response","condition":"nonSeqPartial","trueTheta":0.2,"classrooms":["C","D"],"studentTrueClassroom":"D","exampleSet":"first","trial_type":"survey-html-form","trial_index":139,"time_elapsed":1411305,"internal_node_id":"0.0-125.0-0.0","params":{"nStudents":24,"maxFlips":30,"completionMinutes":45,"basePay":8,"maxBonus":9,"perTrialBonus":0.5,"perTrialBonusThreshold":0.1,"exampleCost":0.01},"classroomParams":{"A":{"a":1,"b":4},"B":{"a":4,"b":1},"C":{"a":2,"b":8},"D":{"a":8,"b":2}},"conditions":["nonSeqFull","nonSeqPartial","seqNoFeedback","seqFeedback"],"classroomPairings":[["A","B"],["C","D"]],"coinWeights":[0.2,0.5,0.8],"subjectId":"A2KLJKDG90K1PP","assignmentId":"35BLDD71I7JO9DOH565ZGKIMZM8ZVH","hitId":"3YGE63DIN8J20XK20KS1742RQF60WK","url":"https://gershmanlab.com/experiments/alicia/teaching/experiment/?hitId=3YGE63DIN8J20XK20KS1742RQF60WK&workerId=A2KLJKDG90K1PP&assignmentId=35BLDD71I7JO9DOH565ZGKIMZM8ZVH&a=1DB58&tp_a=1DB58&b=35BLDD71I7JO9DOH565ZGKIMZM8ZVH&tp_b=35BLDD71I7JO9DOH565ZGKIMZM8ZVH&c=365198&tp_c=365198","heads":1,"tails":4,"studentIndex":14,"studentTrueHypers":{"a":8,"b":2},"studentGuess":0.6,"delta":0.39999999999999997,"totalExamples":5,"bonus":0,"bonusSoFar":5.2},{"rt":9906,"response":{"heads":"2","tails":"8"},"type":"response","condition":"nonSeqFull","trueTheta":0.2,"classrooms":["A","B"],"studentTrueClassroom":"A","exampleSet":"first","trial_type":"survey-html-form","trial_index":145,"time_elapsed":1439204,"internal_node_id":"0.0-131.0-0.0","params":{"nStudents":24,"maxFlips":30,"completionMinutes":45,"basePay":8,"maxBonus":9,"perTrialBonus":0.5,"perTrialBonusThreshold":0.1,"exampleCost":0.01},"classroomParams":{"A":{"a":1,"b":4},"B":{"a":4,"b":1},"C":{"a":2,"b":8},"D":{"a":8,"b":2}},"conditions":["nonSeqFull","nonSeqPartial","seqNoFeedback","seqFeedback"],"classroomPairings":[["A","B"],["C","D"]],"coinWeights":[0.2,0.5,0.8],"subjectId":"A2KLJKDG90K1PP","assignmentId":"35BLDD71I7JO9DOH565ZGKIMZM8ZVH","hitId":"3YGE63DIN8J20XK20KS1742RQF60WK","url":"https://gershmanlab.com/experiments/alicia/teaching/experiment/?hitId=3YGE63DIN8J20XK20KS1742RQF60WK&workerId=A2KLJKDG90K1PP&assignmentId=35BLDD71I7JO9DOH565ZGKIMZM8ZVH&a=1DB58&tp_a=1DB58&b=35BLDD71I7JO9DOH565ZGKIMZM8ZVH&tp_b=35BLDD71I7JO9DOH565ZGKIMZM8ZVH&c=365198&tp_c=365198","heads":2,"tails":8,"studentIndex":15,"studentTrueHypers":{"a":1,"b":4},"studentGuess":0.2,"delta":0,"totalExamples":10,"bonus":0.4,"bonusSoFar":5.6},{"rt":10787,"response":{"heads":"8","tails":"2"},"type":"response","condition":"nonSeqFull","trueTheta":0.8,"classrooms":["A","B"],"studentTrueClassroom":"B","exampleSet":"first","trial_type":"survey-html-form","trial_index":151,"time_elapsed":1465124,"internal_node_id":"0.0-137.0-0.0","params":{"nStudents":24,"maxFlips":30,"completionMinutes":45,"basePay":8,"maxBonus":9,"perTrialBonus":0.5,"perTrialBonusThreshold":0.1,"exampleCost":0.01},"classroomParams":{"A":{"a":1,"b":4},"B":{"a":4,"b":1},"C":{"a":2,"b":8},"D":{"a":8,"b":2}},"conditions":["nonSeqFull","nonSeqPartial","seqNoFeedback","seqFeedback"],"classroomPairings":[["A","B"],["C","D"]],"coinWeights":[0.2,0.5,0.8],"subjectId":"A2KLJKDG90K1PP","assignmentId":"35BLDD71I7JO9DOH565ZGKIMZM8ZVH","hitId":"3YGE63DIN8J20XK20KS1742RQF60WK","url":"https://gershmanlab.com/experiments/alicia/teaching/experiment/?hitId=3YGE63DIN8J20XK20KS1742RQF60WK&workerId=A2KLJKDG90K1PP&assignmentId=35BLDD71I7JO9DOH565ZGKIMZM8ZVH&a=1DB58&tp_a=1DB58&b=35BLDD71I7JO9DOH565ZGKIMZM8ZVH&tp_b=35BLDD71I7JO9DOH565ZGKIMZM8ZVH&c=365198&tp_c=365198","heads":8,"tails":2,"studentIndex":16,"studentTrueHypers":{"a":4,"b":1},"studentGuess":0.8,"delta":0,"totalExamples":10,"bonus":0.4,"bonusSoFar":6},{"rt":8559,"response":{"heads":"1","tails":"1"},"type":"response","condition":"nonSeqPartial","trueTheta":0.5,"classrooms":["C","D"],"studentTrueClassroom":"C","exampleSet":"first","trial_type":"survey-html-form","trial_index":157,"time_elapsed":1488558,"internal_node_id":"0.0-143.0-0.0","params":{"nStudents":24,"maxFlips":30,"completionMinutes":45,"basePay":8,"maxBonus":9,"perTrialBonus":0.5,"perTrialBonusThreshold":0.1,"exampleCost":0.01},"classroomParams":{"A":{"a":1,"b":4},"B":{"a":4,"b":1},"C":{"a":2,"b":8},"D":{"a":8,"b":2}},"conditions":["nonSeqFull","nonSeqPartial","seqNoFeedback","seqFeedback"],"classroomPairings":[["A","B"],["C","D"]],"coinWeights":[0.2,0.5,0.8],"subjectId":"A2KLJKDG90K1PP","assignmentId":"35BLDD71I7JO9DOH565ZGKIMZM8ZVH","hitId":"3YGE63DIN8J20XK20KS1742RQF60WK","url":"https://gershmanlab.com/experiments/alicia/teaching/experiment/?hitId=3YGE63DIN8J20XK20KS1742RQF60WK&workerId=A2KLJKDG90K1PP&assignmentId=35BLDD71I7JO9DOH565ZGKIMZM8ZVH&a=1DB58&tp_a=1DB58&b=35BLDD71I7JO9DOH565ZGKIMZM8ZVH&tp_b=35BLDD71I7JO9DOH565ZGKIMZM8ZVH&c=365198&tp_c=365198","heads":1,"tails":1,"studentIndex":17,"studentTrueHypers":{"a":2,"b":8},"studentGuess":0.25,"delta":0.25,"totalExamples":2,"bonus":0,"bonusSoFar":6},{"rt":4045,"response":{"heads":"5","tails":"5"},"type":"response","condition":"nonSeqPartial","trueTheta":0.5,"classrooms":["A","B"],"studentTrueClassroom":"B","exampleSet":"first","trial_type":"survey-html-form","trial_index":163,"time_elapsed":1507354,"internal_node_id":"0.0-149.0-0.0","params":{"nStudents":24,"maxFlips":30,"completionMinutes":45,"basePay":8,"maxBonus":9,"perTrialBonus":0.5,"perTrialBonusThreshold":0.1,"exampleCost":0.01},"classroomParams":{"A":{"a":1,"b":4},"B":{"a":4,"b":1},"C":{"a":2,"b":8},"D":{"a":8,"b":2}},"conditions":["nonSeqFull","nonSeqPartial","seqNoFeedback","seqFeedback"],"classroomPairings":[["A","B"],["C","D"]],"coinWeights":[0.2,0.5,0.8],"subjectId":"A2KLJKDG90K1PP","assignmentId":"35BLDD71I7JO9DOH565ZGKIMZM8ZVH","hitId":"3YGE63DIN8J20XK20KS1742RQF60WK","url":"https://gershmanlab.com/experiments/alicia/teaching/experiment/?hitId=3YGE63DIN8J20XK20KS1742RQF60WK&workerId=A2KLJKDG90K1PP&assignmentId=35BLDD71I7JO9DOH565ZGKIMZM8ZVH&a=1DB58&tp_a=1DB58&b=35BLDD71I7JO9DOH565ZGKIMZM8ZVH&tp_b=35BLDD71I7JO9DOH565ZGKIMZM8ZVH&c=365198&tp_c=365198","heads":5,"tails":5,"studentIndex":18,"studentTrueHypers":{"a":4,"b":1},"studentGuess":0.6,"delta":0.09999999999999998,"totalExamples":10,"bonus":0.4,"bonusSoFar":6.4},{"rt":3974,"response":{"heads":"5","tails":"5"},"type":"response","condition":"nonSeqFull","trueTheta":0.5,"classrooms":["A","B"],"studentTrueClassroom":"B","exampleSet":"first","trial_type":"survey-html-form","trial_index":169,"time_elapsed":1526020,"internal_node_id":"0.0-155.0-0.0","params":{"nStudents":24,"maxFlips":30,"completionMinutes":45,"basePay":8,"maxBonus":9,"perTrialBonus":0.5,"perTrialBonusThreshold":0.1,"exampleCost":0.01},"classroomParams":{"A":{"a":1,"b":4},"B":{"a":4,"b":1},"C":{"a":2,"b":8},"D":{"a":8,"b":2}},"conditions":["nonSeqFull","nonSeqPartial","seqNoFeedback","seqFeedback"],"classroomPairings":[["A","B"],["C","D"]],"coinWeights":[0.2,0.5,0.8],"subjectId":"A2KLJKDG90K1PP","assignmentId":"35BLDD71I7JO9DOH565ZGKIMZM8ZVH","hitId":"3YGE63DIN8J20XK20KS1742RQF60WK","url":"https://gershmanlab.com/experiments/alicia/teaching/experiment/?hitId=3YGE63DIN8J20XK20KS1742RQF60WK&workerId=A2KLJKDG90K1PP&assignmentId=35BLDD71I7JO9DOH565ZGKIMZM8ZVH&a=1DB58&tp_a=1DB58&b=35BLDD71I7JO9DOH565ZGKIMZM8ZVH&tp_b=35BLDD71I7JO9DOH565ZGKIMZM8ZVH&c=365198&tp_c=365198","heads":5,"tails":5,"studentIndex":19,"studentTrueHypers":{"a":4,"b":1},"studentGuess":0.6,"delta":0.09999999999999998,"totalExamples":10,"bonus":0.4,"bonusSoFar":6.8},{"rt":5840,"response":{"heads":"8","tails":"2"},"type":"response","condition":"seqFeedback","trueTheta":0.8,"classrooms":["A","B"],"studentTrueClassroom":"B","exampleSet":"first","trial_type":"survey-html-form","trial_index":175,"time_elapsed":1548216,"internal_node_id":"0.0-161.0-0.0","params":{"nStudents":24,"maxFlips":30,"completionMinutes":45,"basePay":8,"maxBonus":9,"perTrialBonus":0.5,"perTrialBonusThreshold":0.1,"exampleCost":0.01},"classroomParams":{"A":{"a":1,"b":4},"B":{"a":4,"b":1},"C":{"a":2,"b":8},"D":{"a":8,"b":2}},"conditions":["nonSeqFull","nonSeqPartial","seqNoFeedback","seqFeedback"],"classroomPairings":[["A","B"],["C","D"]],"coinWeights":[0.2,0.5,0.8],"subjectId":"A2KLJKDG90K1PP","assignmentId":"35BLDD71I7JO9DOH565ZGKIMZM8ZVH","hitId":"3YGE63DIN8J20XK20KS1742RQF60WK","url":"https://gershmanlab.com/experiments/alicia/teaching/experiment/?hitId=3YGE63DIN8J20XK20KS1742RQF60WK&workerId=A2KLJKDG90K1PP&assignmentId=35BLDD71I7JO9DOH565ZGKIMZM8ZVH&a=1DB58&tp_a=1DB58&b=35BLDD71I7JO9DOH565ZGKIMZM8ZVH&tp_b=35BLDD71I7JO9DOH565ZGKIMZM8ZVH&c=365198&tp_c=365198","heads":8,"tails":2,"studentIndex":20,"studentTrueHypers":{"a":4,"b":1},"studentGuess":0.8,"delta":0,"totalExamples":10,"bonusSoFar":6.8},{"rt":6281,"response":{"heads":"8","tails":"2"},"type":"response","condition":"seqFeedback","trueTheta":0.8,"classrooms":["A","B"],"studentTrueClassroom":"B","exampleSet":"second","trial_type":"survey-html-form","trial_index":179,"time_elapsed":1562862,"internal_node_id":"0.0-165.0-0.0","params":{"nStudents":24,"maxFlips":30,"completionMinutes":45,"basePay":8,"maxBonus":9,"perTrialBonus":0.5,"perTrialBonusThreshold":0.1,"exampleCost":0.01},"classroomParams":{"A":{"a":1,"b":4},"B":{"a":4,"b":1},"C":{"a":2,"b":8},"D":{"a":8,"b":2}},"conditions":["nonSeqFull","nonSeqPartial","seqNoFeedback","seqFeedback"],"classroomPairings":[["A","B"],["C","D"]],"coinWeights":[0.2,0.5,0.8],"subjectId":"A2KLJKDG90K1PP","assignmentId":"35BLDD71I7JO9DOH565ZGKIMZM8ZVH","hitId":"3YGE63DIN8J20XK20KS1742RQF60WK","url":"https://gershmanlab.com/experiments/alicia/teaching/experiment/?hitId=3YGE63DIN8J20XK20KS1742RQF60WK&workerId=A2KLJKDG90K1PP&assignmentId=35BLDD71I7JO9DOH565ZGKIMZM8ZVH&a=1DB58&tp_a=1DB58&b=35BLDD71I7JO9DOH565ZGKIMZM8ZVH&tp_b=35BLDD71I7JO9DOH565ZGKIMZM8ZVH&c=365198&tp_c=365198","firstResponseHeads":8,"firstResponseTails":2,"secondResponseHeads":8,"secondResponseTails":2,"studentIndex":20,"studentTrueHypers":{"a":4,"b":1},"studentGuess":0.8,"delta":0,"bonus":0.3,"bonusSoFar":7.1,"totalExamples":20},{"rt":6881,"response":{"heads":"8","tails":"2"},"type":"response","condition":"seqNoFeedback","trueTheta":0.8,"classrooms":["C","D"],"studentTrueClassroom":"D","exampleSet":"first","trial_type":"survey-html-form","trial_index":185,"time_elapsed":1584064,"internal_node_id":"0.0-171.0-0.0","params":{"nStudents":24,"maxFlips":30,"completionMinutes":45,"basePay":8,"maxBonus":9,"perTrialBonus":0.5,"perTrialBonusThreshold":0.1,"exampleCost":0.01},"classroomParams":{"A":{"a":1,"b":4},"B":{"a":4,"b":1},"C":{"a":2,"b":8},"D":{"a":8,"b":2}},"conditions":["nonSeqFull","nonSeqPartial","seqNoFeedback","seqFeedback"],"classroomPairings":[["A","B"],["C","D"]],"coinWeights":[0.2,0.5,0.8],"subjectId":"A2KLJKDG90K1PP","assignmentId":"35BLDD71I7JO9DOH565ZGKIMZM8ZVH","hitId":"3YGE63DIN8J20XK20KS1742RQF60WK","url":"https://gershmanlab.com/experiments/alicia/teaching/experiment/?hitId=3YGE63DIN8J20XK20KS1742RQF60WK&workerId=A2KLJKDG90K1PP&assignmentId=35BLDD71I7JO9DOH565ZGKIMZM8ZVH&a=1DB58&tp_a=1DB58&b=35BLDD71I7JO9DOH565ZGKIMZM8ZVH&tp_b=35BLDD71I7JO9DOH565ZGKIMZM8ZVH&c=365198&tp_c=365198","heads":8,"tails":2,"studentIndex":21,"studentTrueHypers":{"a":8,"b":2},"studentGuess":0.8,"delta":0,"totalExamples":10,"bonusSoFar":7.1},{"rt":3680,"response":{"heads":"8","tails":"2"},"type":"response","condition":"seqNoFeedback","trueTheta":0.8,"classrooms":["C","D"],"studentTrueClassroom":"D","exampleSet":"second","trial_type":"survey-html-form","trial_index":188,"time_elapsed":1594261,"internal_node_id":"0.0-174.0-0.0","params":{"nStudents":24,"maxFlips":30,"completionMinutes":45,"basePay":8,"maxBonus":9,"perTrialBonus":0.5,"perTrialBonusThreshold":0.1,"exampleCost":0.01},"classroomParams":{"A":{"a":1,"b":4},"B":{"a":4,"b":1},"C":{"a":2,"b":8},"D":{"a":8,"b":2}},"conditions":["nonSeqFull","nonSeqPartial","seqNoFeedback","seqFeedback"],"classroomPairings":[["A","B"],["C","D"]],"coinWeights":[0.2,0.5,0.8],"subjectId":"A2KLJKDG90K1PP","assignmentId":"35BLDD71I7JO9DOH565ZGKIMZM8ZVH","hitId":"3YGE63DIN8J20XK20KS1742RQF60WK","url":"https://gershmanlab.com/experiments/alicia/teaching/experiment/?hitId=3YGE63DIN8J20XK20KS1742RQF60WK&workerId=A2KLJKDG90K1PP&assignmentId=35BLDD71I7JO9DOH565ZGKIMZM8ZVH&a=1DB58&tp_a=1DB58&b=35BLDD71I7JO9DOH565ZGKIMZM8ZVH&tp_b=35BLDD71I7JO9DOH565ZGKIMZM8ZVH&c=365198&tp_c=365198","firstResponseHeads":8,"firstResponseTails":2,"secondResponseHeads":8,"secondResponseTails":2,"studentIndex":21,"studentTrueHypers":{"a":8,"b":2},"studentGuess":0.8,"delta":0,"bonus":0.3,"bonusSoFar":7.4,"totalExamples":20},{"rt":8290,"response":{"heads":"8","tails":"2"},"type":"response","condition":"nonSeqFull","trueTheta":0.8,"classrooms":["C","D"],"studentTrueClassroom":"D","exampleSet":"first","trial_type":"survey-html-form","trial_index":194,"time_elapsed":1615578,"internal_node_id":"0.0-180.0-0.0","params":{"nStudents":24,"maxFlips":30,"completionMinutes":45,"basePay":8,"maxBonus":9,"perTrialBonus":0.5,"perTrialBonusThreshold":0.1,"exampleCost":0.01},"classroomParams":{"A":{"a":1,"b":4},"B":{"a":4,"b":1},"C":{"a":2,"b":8},"D":{"a":8,"b":2}},"conditions":["nonSeqFull","nonSeqPartial","seqNoFeedback","seqFeedback"],"classroomPairings":[["A","B"],["C","D"]],"coinWeights":[0.2,0.5,0.8],"subjectId":"A2KLJKDG90K1PP","assignmentId":"35BLDD71I7JO9DOH565ZGKIMZM8ZVH","hitId":"3YGE63DIN8J20XK20KS1742RQF60WK","url":"https://gershmanlab.com/experiments/alicia/teaching/experiment/?hitId=3YGE63DIN8J20XK20KS1742RQF60WK&workerId=A2KLJKDG90K1PP&assignmentId=35BLDD71I7JO9DOH565ZGKIMZM8ZVH&a=1DB58&tp_a=1DB58&b=35BLDD71I7JO9DOH565ZGKIMZM8ZVH&tp_b=35BLDD71I7JO9DOH565ZGKIMZM8ZVH&c=365198&tp_c=365198","heads":8,"tails":2,"studentIndex":22,"studentTrueHypers":{"a":8,"b":2},"studentGuess":0.8,"delta":0,"totalExamples":10,"bonus":0.4,"bonusSoFar":7.8},{"rt":4817,"response":{"heads":"8","tails":"2"},"type":"response","condition":"nonSeqPartial","trueTheta":0.8,"classrooms":["A","B"],"studentTrueClassroom":"A","exampleSet":"first","trial_type":"survey-html-form","trial_index":200,"time_elapsed":1634895,"internal_node_id":"0.0-186.0-0.0","params":{"nStudents":24,"maxFlips":30,"completionMinutes":45,"basePay":8,"maxBonus":9,"perTrialBonus":0.5,"perTrialBonusThreshold":0.1,"exampleCost":0.01},"classroomParams":{"A":{"a":1,"b":4},"B":{"a":4,"b":1},"C":{"a":2,"b":8},"D":{"a":8,"b":2}},"conditions":["nonSeqFull","nonSeqPartial","seqNoFeedback","seqFeedback"],"classroomPairings":[["A","B"],["C","D"]],"coinWeights":[0.2,0.5,0.8],"subjectId":"A2KLJKDG90K1PP","assignmentId":"35BLDD71I7JO9DOH565ZGKIMZM8ZVH","hitId":"3YGE63DIN8J20XK20KS1742RQF60WK","url":"https://gershmanlab.com/experiments/alicia/teaching/experiment/?hitId=3YGE63DIN8J20XK20KS1742RQF60WK&workerId=A2KLJKDG90K1PP&assignmentId=35BLDD71I7JO9DOH565ZGKIMZM8ZVH&a=1DB58&tp_a=1DB58&b=35BLDD71I7JO9DOH565ZGKIMZM8ZVH&tp_b=35BLDD71I7JO9DOH565ZGKIMZM8ZVH&c=365198&tp_c=365198","heads":8,"tails":2,"studentIndex":23,"studentTrueHypers":{"a":1,"b":4},"studentGuess":0.6,"delta":0.20000000000000007,"totalExamples":10,"bonus":0,"bonusSoFar":7.8},{"rt":7736,"response":{"gender":"male","age":"55","understood":"yes","comments":""},"type":"response","trial_type":"survey-html-form","trial_index":204,"time_elapsed":1653776,"internal_node_id":"0.0-191.0","params":{"nStudents":24,"maxFlips":30,"completionMinutes":45,"basePay":8,"maxBonus":9,"perTrialBonus":0.5,"perTrialBonusThreshold":0.1,"exampleCost":0.01},"classroomParams":{"A":{"a":1,"b":4},"B":{"a":4,"b":1},"C":{"a":2,"b":8},"D":{"a":8,"b":2}},"conditions":["nonSeqFull","nonSeqPartial","seqNoFeedback","seqFeedback"],"classroomPairings":[["A","B"],["C","D"]],"coinWeights":[0.2,0.5,0.8],"subjectId":"A2KLJKDG90K1PP","assignmentId":"35BLDD71I7JO9DOH565ZGKIMZM8ZVH","hitId":"3YGE63DIN8J20XK20KS1742RQF60WK","url":"https://gershmanlab.com/experiments/alicia/teaching/experiment/?hitId=3YGE63DIN8J20XK20KS1742RQF60WK&workerId=A2KLJKDG90K1PP&assignmentId=35BLDD71I7JO9DOH565ZGKIMZM8ZVH&a=1DB58&tp_a=1DB58&b=35BLDD71I7JO9DOH565ZGKIMZM8ZVH&tp_b=35BLDD71I7JO9DOH565ZGKIMZM8ZVH&c=365198&tp_c=365198","totalBonus":7.8}]