[{"rt":27463,"response":{"heads":"5","tails":"5"},"type":"response","condition":"seqFeedback","trueTheta":0.5,"classrooms":["A","B"],"studentTrueClassroom":"A","exampleSet":"first","trial_type":"survey-html-form","trial_index":7,"time_elapsed":374891,"internal_node_id":"0.0-6.0-0.0","params":{"nStudents":24,"maxFlips":30,"completionMinutes":45,"basePay":8,"maxBonus":9,"perTrialBonus":0.5,"perTrialBonusThreshold":0.1,"exampleCost":0.01},"classroomParams":{"A":{"a":1,"b":4},"B":{"a":4,"b":1},"C":{"a":2,"b":8},"D":{"a":8,"b":2}},"conditions":["nonSeqFull","nonSeqPartial","seqNoFeedback","seqFeedback"],"classroomPairings":[["A","B"],["C","D"]],"coinWeights":[0.2,0.5,0.8],"subjectId":"A2MWAXV1YRK5GH","assignmentId":"3JRJSWSMQI76M9V2P9LGCFPLKVZ3E9","hitId":"3H6W48L9F4B5OEOMH57RM53ZYNHWPM","url":"https://gershmanlab.com/experiments/alicia/teaching/experiment/?hitId=3H6W48L9F4B5OEOMH57RM53ZYNHWPM&workerId=A2MWAXV1YRK5GH&assignmentId=3JRJSWSMQI76M9V2P9LGCFPLKVZ3E9&a=MSRJ8&tp_a=MSRJ8&b=3JRJSWSMQI76M9V2P9LGCFPLKVZ3E9&tp_b=3JRJSWSMQI76M9V2P9LGCFPLKVZ3E9&c=365198&tp_c=365198","heads":5,"tails":5,"studentIndex":0,"studentTrueHypers":{"a":1,"b":4},"studentGuess":0.4,"delta":0.09999999999999998,"totalExamples":10,"bonusSoFar":0},{"rt":10478,"response":{"heads":"1","tails":"1"},"type":"response","condition":"seqFeedback","trueTheta":0.5,"classrooms":["A","B"],"studentTrueClassroom":"A","exampleSet":"second","trial_type":"survey-html-form","trial_index":11,"time_elapsed":400455,"internal_node_id":"0.0-10.0-0.0","params":{"nStudents":24,"maxFlips":30,"completionMinutes":45,"basePay":8,"maxBonus":9,"perTrialBonus":0.5,"perTrialBonusThreshold":0.1,"exampleCost":0.01},"classroomParams":{"A":{"a":1,"b":4},"B":{"a":4,"b":1},"C":{"a":2,"b":8},"D":{"a":8,"b":2}},"conditions":["nonSeqFull","nonSeqPartial","seqNoFeedback","seqFeedback"],"classroomPairings":[["A","B"],["C","D"]],"coinWeights":[0.2,0.5,0.8],"subjectId":"A2MWAXV1YRK5GH","assignmentId":"3JRJSWSMQI76M9V2P9LGCFPLKVZ3E9","hitId":"3H6W48L9F4B5OEOMH57RM53ZYNHWPM","url":"https://gershmanlab.com/experiments/alicia/teaching/experiment/?hitId=3H6W48L9F4B5OEOMH57RM53ZYNHWPM&workerId=A2MWAXV1YRK5GH&assignmentId=3JRJSWSMQI76M9V2P9LGCFPLKVZ3E9&a=MSRJ8&tp_a=MSRJ8&b=3JRJSWSMQI76M9V2P9LGCFPLKVZ3E9&tp_b=3JRJSWSMQI76M9V2P9LGCFPLKVZ3E9&c=365198&tp_c=365198","firstResponseHeads":5,"firstResponseTails":5,"secondResponseHeads":1,"secondResponseTails":1,"studentIndex":0,"studentTrueHypers":{"a":1,"b":4},"studentGuess":0.4117647058823529,"delta":0.08823529411764708,"bonus":0.38,"bonusSoFar":0.38,"totalExamples":12},{"rt":14408,"response":{"heads":"8","tails":"2"},"type":"response","condition":"seqNoFeedback","trueTheta":0.8,"classrooms":["C","D"],"studentTrueClassroom":"D","exampleSet":"first","trial_type":"survey-html-form","trial_index":17,"time_elapsed":433461,"internal_node_id":"0.0-16.0-0.0","params":{"nStudents":24,"maxFlips":30,"completionMinutes":45,"basePay":8,"maxBonus":9,"perTrialBonus":0.5,"perTrialBonusThreshold":0.1,"exampleCost":0.01},"classroomParams":{"A":{"a":1,"b":4},"B":{"a":4,"b":1},"C":{"a":2,"b":8},"D":{"a":8,"b":2}},"conditions":["nonSeqFull","nonSeqPartial","seqNoFeedback","seqFeedback"],"classroomPairings":[["A","B"],["C","D"]],"coinWeights":[0.2,0.5,0.8],"subjectId":"A2MWAXV1YRK5GH","assignmentId":"3JRJSWSMQI76M9V2P9LGCFPLKVZ3E9","hitId":"3H6W48L9F4B5OEOMH57RM53ZYNHWPM","url":"https://gershmanlab.com/experiments/alicia/teaching/experiment/?hitId=3H6W48L9F4B5OEOMH57RM53ZYNHWPM&workerId=A2MWAXV1YRK5GH&assignmentId=3JRJSWSMQI76M9V2P9LGCFPLKVZ3E9&a=MSRJ8&tp_a=MSRJ8&b=3JRJSWSMQI76M9V2P9LGCFPLKVZ3E9&tp_b=3JRJSWSMQI76M9V2P9LGCFPLKVZ3E9&c=365198&tp_c=365198","heads":8,"tails":2,"studentIndex":1,"studentTrueHypers":{"a":8,"b":2},"studentGuess":0.8,"delta":0,"totalExamples":10,"bonusSoFar":0.38},{"rt":13106,"response":{"heads":"8","tails":"2"},"type":"response","condition":"seqNoFeedback","trueTheta":0.8,"classrooms":["C","D"],"studentTrueClassroom":"D","exampleSet":"second","trial_type":"survey-html-form","trial_index":20,"time_elapsed":453569,"internal_node_id":"0.0-19.0-0.0","params":{"nStudents":24,"maxFlips":30,"completionMinutes":45,"basePay":8,"maxBonus":9,"perTrialBonus":0.5,"perTrialBonusThreshold":0.1,"exampleCost":0.01},"classroomParams":{"A":{"a":1,"b":4},"B":{"a":4,"b":1},"C":{"a":2,"b":8},"D":{"a":8,"b":2}},"conditions":["nonSeqFull","nonSeqPartial","seqNoFeedback","seqFeedback"],"classroomPairings":[["A","B"],["C","D"]],"coinWeights":[0.2,0.5,0.8],"subjectId":"A2MWAXV1YRK5GH","assignmentId":"3JRJSWSMQI76M9V2P9LGCFPLKVZ3E9","hitId":"3H6W48L9F4B5OEOMH57RM53ZYNHWPM","url":"https://gershmanlab.com/experiments/alicia/teaching/experiment/?hitId=3H6W48L9F4B5OEOMH57RM53ZYNHWPM&workerId=A2MWAXV1YRK5GH&assignmentId=3JRJSWSMQI76M9V2P9LGCFPLKVZ3E9&a=MSRJ8&tp_a=MSRJ8&b=3JRJSWSMQI76M9V2P9LGCFPLKVZ3E9&tp_b=3JRJSWSMQI76M9V2P9LGCFPLKVZ3E9&c=365198&tp_c=365198","firstResponseHeads":8,"firstResponseTails":2,"secondResponseHeads":8,"secondResponseTails":2,"studentIndex":1,"studentTrueHypers":{"a":8,"b":2},"studentGuess":0.8,"delta":0,"bonus":0.3,"bonusSoFar":0.68,"totalExamples":20},{"rt":6637,"response":{"heads":"5","tails":"5"},"type":"response","condition":"nonSeqPartial","trueTheta":0.5,"classrooms":["A","B"],"studentTrueClassroom":"B","exampleSet":"first","trial_type":"survey-html-form","trial_index":26,"time_elapsed":483094,"internal_node_id":"0.0-25.0-0.0","params":{"nStudents":24,"maxFlips":30,"completionMinutes":45,"basePay":8,"maxBonus":9,"perTrialBonus":0.5,"perTrialBonusThreshold":0.1,"exampleCost":0.01},"classroomParams":{"A":{"a":1,"b":4},"B":{"a":4,"b":1},"C":{"a":2,"b":8},"D":{"a":8,"b":2}},"conditions":["nonSeqFull","nonSeqPartial","seqNoFeedback","seqFeedback"],"classroomPairings":[["A","B"],["C","D"]],"coinWeights":[0.2,0.5,0.8],"subjectId":"A2MWAXV1YRK5GH","assignmentId":"3JRJSWSMQI76M9V2P9LGCFPLKVZ3E9","hitId":"3H6W48L9F4B5OEOMH57RM53ZYNHWPM","url":"https://gershmanlab.com/experiments/alicia/teaching/experiment/?hitId=3H6W48L9F4B5OEOMH57RM53ZYNHWPM&workerId=A2MWAXV1YRK5GH&assignmentId=3JRJSWSMQI76M9V2P9LGCFPLKVZ3E9&a=MSRJ8&tp_a=MSRJ8&b=3JRJSWSMQI76M9V2P9LGCFPLKVZ3E9&tp_b=3JRJSWSMQI76M9V2P9LGCFPLKVZ3E9&c=365198&tp_c=365198","heads":5,"tails":5,"studentIndex":2,"studentTrueHypers":{"a":4,"b":1},"studentGuess":0.6,"delta":0.09999999999999998,"totalExamples":10,"bonus":0.4,"bonusSoFar":1.08},{"rt":9689,"response":{"heads":"1","tails":"1"},"type":"response","condition":"seqNoFeedback","trueTheta":0.5,"classrooms":["C","D"],"studentTrueClassroom":"C","exampleSet":"first","trial_type":"survey-html-form","trial_index":32,"time_elapsed":510363,"internal_node_id":"0.0-31.0-0.0","params":{"nStudents":24,"maxFlips":30,"completionMinutes":45,"basePay":8,"maxBonus":9,"perTrialBonus":0.5,"perTrialBonusThreshold":0.1,"exampleCost":0.01},"classroomParams":{"A":{"a":1,"b":4},"B":{"a":4,"b":1},"C":{"a":2,"b":8},"D":{"a":8,"b":2}},"conditions":["nonSeqFull","nonSeqPartial","seqNoFeedback","seqFeedback"],"classroomPairings":[["A","B"],["C","D"]],"coinWeights":[0.2,0.5,0.8],"subjectId":"A2MWAXV1YRK5GH","assignmentId":"3JRJSWSMQI76M9V2P9LGCFPLKVZ3E9","hitId":"3H6W48L9F4B5OEOMH57RM53ZYNHWPM","url":"https://gershmanlab.com/experiments/alicia/teaching/experiment/?hitId=3H6W48L9F4B5OEOMH57RM53ZYNHWPM&workerId=A2MWAXV1YRK5GH&assignmentId=3JRJSWSMQI76M9V2P9LGCFPLKVZ3E9&a=MSRJ8&tp_a=MSRJ8&b=3JRJSWSMQI76M9V2P9LGCFPLKVZ3E9&tp_b=3JRJSWSMQI76M9V2P9LGCFPLKVZ3E9&c=365198&tp_c=365198","heads":1,"tails":1,"studentIndex":3,"studentTrueHypers":{"a":2,"b":8},"studentGuess":0.25,"delta":0.25,"totalExamples":2,"bonusSoFar":1.08},{"rt":12279,"response":{"heads":"8","tails":"8"},"type":"response","condition":"seqNoFeedback","trueTheta":0.5,"classrooms":["C","D"],"studentTrueClassroom":"C","exampleSet":"second","trial_type":"survey-html-form","trial_index":35,"time_elapsed":529151,"internal_node_id":"0.0-34.0-0.0","params":{"nStudents":24,"maxFlips":30,"completionMinutes":45,"basePay":8,"maxBonus":9,"perTrialBonus":0.5,"perTrialBonusThreshold":0.1,"exampleCost":0.01},"classroomParams":{"A":{"a":1,"b":4},"B":{"a":4,"b":1},"C":{"a":2,"b":8},"D":{"a":8,"b":2}},"conditions":["nonSeqFull","nonSeqPartial","seqNoFeedback","seqFeedback"],"classroomPairings":[["A","B"],["C","D"]],"coinWeights":[0.2,0.5,0.8],"subjectId":"A2MWAXV1YRK5GH","assignmentId":"3JRJSWSMQI76M9V2P9LGCFPLKVZ3E9","hitId":"3H6W48L9F4B5OEOMH57RM53ZYNHWPM","url":"https://gershmanlab.com/experiments/alicia/teaching/experiment/?hitId=3H6W48L9F4B5OEOMH57RM53ZYNHWPM&workerId=A2MWAXV1YRK5GH&assignmentId=3JRJSWSMQI76M9V2P9LGCFPLKVZ3E9&a=MSRJ8&tp_a=MSRJ8&b=3JRJSWSMQI76M9V2P9LGCFPLKVZ3E9&tp_b=3JRJSWSMQI76M9V2P9LGCFPLKVZ3E9&c=365198&tp_c=365198","firstResponseHeads":1,"firstResponseTails":1,"secondResponseHeads":8,"secondResponseTails":8,"studentIndex":3,"studentTrueHypers":{"a":2,"b":8},"studentGuess":0.39285714285714285,"delta":0.10714285714285715,"bonus":0,"bonusSoFar":1.08,"totalExamples":18},{"rt":7042,"response":{"heads":"5","tails":"5"},"type":"response","condition":"seqNoFeedback","trueTheta":0.5,"classrooms":["A","B"],"studentTrueClassroom":"B","exampleSet":"first","trial_type":"survey-html-form","trial_index":41,"time_elapsed":551858,"internal_node_id":"0.0-40.0-0.0","params":{"nStudents":24,"maxFlips":30,"completionMinutes":45,"basePay":8,"maxBonus":9,"perTrialBonus":0.5,"perTrialBonusThreshold":0.1,"exampleCost":0.01},"classroomParams":{"A":{"a":1,"b":4},"B":{"a":4,"b":1},"C":{"a":2,"b":8},"D":{"a":8,"b":2}},"conditions":["nonSeqFull","nonSeqPartial","seqNoFeedback","seqFeedback"],"classroomPairings":[["A","B"],["C","D"]],"coinWeights":[0.2,0.5,0.8],"subjectId":"A2MWAXV1YRK5GH","assignmentId":"3JRJSWSMQI76M9V2P9LGCFPLKVZ3E9","hitId":"3H6W48L9F4B5OEOMH57RM53ZYNHWPM","url":"https://gershmanlab.com/experiments/alicia/teaching/experiment/?hitId=3H6W48L9F4B5OEOMH57RM53ZYNHWPM&workerId=A2MWAXV1YRK5GH&assignmentId=3JRJSWSMQI76M9V2P9LGCFPLKVZ3E9&a=MSRJ8&tp_a=MSRJ8&b=3JRJSWSMQI76M9V2P9LGCFPLKVZ3E9&tp_b=3JRJSWSMQI76M9V2P9LGCFPLKVZ3E9&c=365198&tp_c=365198","heads":5,"tails":5,"studentIndex":4,"studentTrueHypers":{"a":4,"b":1},"studentGuess":0.6,"delta":0.09999999999999998,"totalExamples":10,"bonusSoFar":1.08},{"rt":6029,"response":{"heads":"5","tails":"5"},"type":"response","condition":"seqNoFeedback","trueTheta":0.5,"classrooms":["A","B"],"studentTrueClassroom":"B","exampleSet":"second","trial_type":"survey-html-form","trial_index":44,"time_elapsed":564395,"internal_node_id":"0.0-43.0-0.0","params":{"nStudents":24,"maxFlips":30,"completionMinutes":45,"basePay":8,"maxBonus":9,"perTrialBonus":0.5,"perTrialBonusThreshold":0.1,"exampleCost":0.01},"classroomParams":{"A":{"a":1,"b":4},"B":{"a":4,"b":1},"C":{"a":2,"b":8},"D":{"a":8,"b":2}},"conditions":["nonSeqFull","nonSeqPartial","seqNoFeedback","seqFeedback"],"classroomPairings":[["A","B"],["C","D"]],"coinWeights":[0.2,0.5,0.8],"subjectId":"A2MWAXV1YRK5GH","assignmentId":"3JRJSWSMQI76M9V2P9LGCFPLKVZ3E9","hitId":"3H6W48L9F4B5OEOMH57RM53ZYNHWPM","url":"https://gershmanlab.com/experiments/alicia/teaching/experiment/?hitId=3H6W48L9F4B5OEOMH57RM53ZYNHWPM&workerId=A2MWAXV1YRK5GH&assignmentId=3JRJSWSMQI76M9V2P9LGCFPLKVZ3E9&a=MSRJ8&tp_a=MSRJ8&b=3JRJSWSMQI76M9V2P9LGCFPLKVZ3E9&tp_b=3JRJSWSMQI76M9V2P9LGCFPLKVZ3E9&c=365198&tp_c=365198","firstResponseHeads":5,"firstResponseTails":5,"secondResponseHeads":5,"secondResponseTails":5,"studentIndex":4,"studentTrueHypers":{"a":4,"b":1},"studentGuess":0.56,"delta":0.06000000000000005,"bonus":0.3,"bonusSoFar":1.38,"totalExamples":20},{"rt":10223,"response":{"heads":"8","tails":"2"},"type":"response","condition":"nonSeqPartial","trueTheta":0.8,"classrooms":["A","B"],"studentTrueClassroom":"A","exampleSet":"first","trial_type":"survey-html-form","trial_index":50,"time_elapsed":592884,"internal_node_id":"0.0-49.0-0.0","params":{"nStudents":24,"maxFlips":30,"completionMinutes":45,"basePay":8,"maxBonus":9,"perTrialBonus":0.5,"perTrialBonusThreshold":0.1,"exampleCost":0.01},"classroomParams":{"A":{"a":1,"b":4},"B":{"a":4,"b":1},"C":{"a":2,"b":8},"D":{"a":8,"b":2}},"conditions":["nonSeqFull","nonSeqPartial","seqNoFeedback","seqFeedback"],"classroomPairings":[["A","B"],["C","D"]],"coinWeights":[0.2,0.5,0.8],"subjectId":"A2MWAXV1YRK5GH","assignmentId":"3JRJSWSMQI76M9V2P9LGCFPLKVZ3E9","hitId":"3H6W48L9F4B5OEOMH57RM53ZYNHWPM","url":"https://gershmanlab.com/experiments/alicia/teaching/experiment/?hitId=3H6W48L9F4B5OEOMH57RM53ZYNHWPM&workerId=A2MWAXV1YRK5GH&assignmentId=3JRJSWSMQI76M9V2P9LGCFPLKVZ3E9&a=MSRJ8&tp_a=MSRJ8&b=3JRJSWSMQI76M9V2P9LGCFPLKVZ3E9&tp_b=3JRJSWSMQI76M9V2P9LGCFPLKVZ3E9&c=365198&tp_c=365198","heads":8,"tails":2,"studentIndex":5,"studentTrueHypers":{"a":1,"b":4},"studentGuess":0.6,"delta":0.20000000000000007,"totalExamples":10,"bonus":0,"bonusSoFar":1.38},{"rt":12956,"response":{"heads":"8","tails":"2"},"type":"response","condition":"seqFeedback","trueTheta":0.8,"classrooms":["A","B"],"studentTrueClassroom":"B","exampleSet":"first","trial_type":"survey-html-form","trial_index":56,"time_elapsed":621983,"internal_node_id":"0.0-55.0-0.0","params":{"nStudents":24,"maxFlips":30,"completionMinutes":45,"basePay":8,"maxBonus":9,"perTrialBonus":0.5,"perTrialBonusThreshold":0.1,"exampleCost":0.01},"classroomParams":{"A":{"a":1,"b":4},"B":{"a":4,"b":1},"C":{"a":2,"b":8},"D":{"a":8,"b":2}},"conditions":["nonSeqFull","nonSeqPartial","seqNoFeedback","seqFeedback"],"classroomPairings":[["A","B"],["C","D"]],"coinWeights":[0.2,0.5,0.8],"subjectId":"A2MWAXV1YRK5GH","assignmentId":"3JRJSWSMQI76M9V2P9LGCFPLKVZ3E9","hitId":"3H6W48L9F4B5OEOMH57RM53ZYNHWPM","url":"https://gershmanlab.com/experiments/alicia/teaching/experiment/?hitId=3H6W48L9F4B5OEOMH57RM53ZYNHWPM&workerId=A2MWAXV1YRK5GH&assignmentId=3JRJSWSMQI76M9V2P9LGCFPLKVZ3E9&a=MSRJ8&tp_a=MSRJ8&b=3JRJSWSMQI76M9V2P9LGCFPLKVZ3E9&tp_b=3JRJSWSMQI76M9V2P9LGCFPLKVZ3E9&c=365198&tp_c=365198","heads":8,"tails":2,"studentIndex":6,"studentTrueHypers":{"a":4,"b":1},"studentGuess":0.8,"delta":0,"totalExamples":10,"bonusSoFar":1.38},{"rt":5534,"response":{"heads":"8","tails":"2"},"type":"response","condition":"seqFeedback","trueTheta":0.8,"classrooms":["A","B"],"studentTrueClassroom":"B","exampleSet":"second","trial_type":"survey-html-form","trial_index":60,"time_elapsed":638110,"internal_node_id":"0.0-59.0-0.0","params":{"nStudents":24,"maxFlips":30,"completionMinutes":45,"basePay":8,"maxBonus":9,"perTrialBonus":0.5,"perTrialBonusThreshold":0.1,"exampleCost":0.01},"classroomParams":{"A":{"a":1,"b":4},"B":{"a":4,"b":1},"C":{"a":2,"b":8},"D":{"a":8,"b":2}},"conditions":["nonSeqFull","nonSeqPartial","seqNoFeedback","seqFeedback"],"classroomPairings":[["A","B"],["C","D"]],"coinWeights":[0.2,0.5,0.8],"subjectId":"A2MWAXV1YRK5GH","assignmentId":"3JRJSWSMQI76M9V2P9LGCFPLKVZ3E9","hitId":"3H6W48L9F4B5OEOMH57RM53ZYNHWPM","url":"https://gershmanlab.com/experiments/alicia/teaching/experiment/?hitId=3H6W48L9F4B5OEOMH57RM53ZYNHWPM&workerId=A2MWAXV1YRK5GH&assignmentId=3JRJSWSMQI76M9V2P9LGCFPLKVZ3E9&a=MSRJ8&tp_a=MSRJ8&b=3JRJSWSMQI76M9V2P9LGCFPLKVZ3E9&tp_b=3JRJSWSMQI76M9V2P9LGCFPLKVZ3E9&c=365198&tp_c=365198","firstResponseHeads":8,"firstResponseTails":2,"secondResponseHeads":8,"secondResponseTails":2,"studentIndex":6,"studentTrueHypers":{"a":4,"b":1},"studentGuess":0.8,"delta":0,"bonus":0.3,"bonusSoFar":1.68,"totalExamples":20},{"rt":13548,"response":{"heads":"2","tails":"8"},"type":"response","condition":"nonSeqPartial","trueTheta":0.2,"classrooms":["A","B"],"studentTrueClassroom":"A","exampleSet":"first","trial_type":"survey-html-form","trial_index":66,"time_elapsed":671511,"internal_node_id":"0.0-65.0-0.0","params":{"nStudents":24,"maxFlips":30,"completionMinutes":45,"basePay":8,"maxBonus":9,"perTrialBonus":0.5,"perTrialBonusThreshold":0.1,"exampleCost":0.01},"classroomParams":{"A":{"a":1,"b":4},"B":{"a":4,"b":1},"C":{"a":2,"b":8},"D":{"a":8,"b":2}},"conditions":["nonSeqFull","nonSeqPartial","seqNoFeedback","seqFeedback"],"classroomPairings":[["A","B"],["C","D"]],"coinWeights":[0.2,0.5,0.8],"subjectId":"A2MWAXV1YRK5GH","assignmentId":"3JRJSWSMQI76M9V2P9LGCFPLKVZ3E9","hitId":"3H6W48L9F4B5OEOMH57RM53ZYNHWPM","url":"https://gershmanlab.com/experiments/alicia/teaching/experiment/?hitId=3H6W48L9F4B5OEOMH57RM53ZYNHWPM&workerId=A2MWAXV1YRK5GH&assignmentId=3JRJSWSMQI76M9V2P9LGCFPLKVZ3E9&a=MSRJ8&tp_a=MSRJ8&b=3JRJSWSMQI76M9V2P9LGCFPLKVZ3E9&tp_b=3JRJSWSMQI76M9V2P9LGCFPLKVZ3E9&c=365198&tp_c=365198","heads":2,"tails":8,"studentIndex":7,"studentTrueHypers":{"a":1,"b":4},"studentGuess":0.2,"delta":0,"totalExamples":10,"bonus":0.4,"bonusSoFar":2.08},{"rt":5941,"response":{"heads":"5","tails":"5"},"type":"response","condition":"seqFeedback","trueTheta":0.5,"classrooms":["C","D"],"studentTrueClassroom":"C","exampleSet":"first","trial_type":"survey-html-form","trial_index":72,"time_elapsed":692316,"internal_node_id":"0.0-71.0-0.0","params":{"nStudents":24,"maxFlips":30,"completionMinutes":45,"basePay":8,"maxBonus":9,"perTrialBonus":0.5,"perTrialBonusThreshold":0.1,"exampleCost":0.01},"classroomParams":{"A":{"a":1,"b":4},"B":{"a":4,"b":1},"C":{"a":2,"b":8},"D":{"a":8,"b":2}},"conditions":["nonSeqFull","nonSeqPartial","seqNoFeedback","seqFeedback"],"classroomPairings":[["A","B"],["C","D"]],"coinWeights":[0.2,0.5,0.8],"subjectId":"A2MWAXV1YRK5GH","assignmentId":"3JRJSWSMQI76M9V2P9LGCFPLKVZ3E9","hitId":"3H6W48L9F4B5OEOMH57RM53ZYNHWPM","url":"https://gershmanlab.com/experiments/alicia/teaching/experiment/?hitId=3H6W48L9F4B5OEOMH57RM53ZYNHWPM&workerId=A2MWAXV1YRK5GH&assignmentId=3JRJSWSMQI76M9V2P9LGCFPLKVZ3E9&a=MSRJ8&tp_a=MSRJ8&b=3JRJSWSMQI76M9V2P9LGCFPLKVZ3E9&tp_b=3JRJSWSMQI76M9V2P9LGCFPLKVZ3E9&c=365198&tp_c=365198","heads":5,"tails":5,"studentIndex":8,"studentTrueHypers":{"a":2,"b":8},"studentGuess":0.35,"delta":0.15000000000000002,"totalExamples":10,"bonusSoFar":2.08},{"rt":5404,"response":{"heads":"5","tails":"5"},"type":"response","condition":"seqFeedback","trueTheta":0.5,"classrooms":["C","D"],"studentTrueClassroom":"C","exampleSet":"second","trial_type":"survey-html-form","trial_index":76,"time_elapsed":712590,"internal_node_id":"0.0-75.0-0.0","params":{"nStudents":24,"maxFlips":30,"completionMinutes":45,"basePay":8,"maxBonus":9,"perTrialBonus":0.5,"perTrialBonusThreshold":0.1,"exampleCost":0.01},"classroomParams":{"A":{"a":1,"b":4},"B":{"a":4,"b":1},"C":{"a":2,"b":8},"D":{"a":8,"b":2}},"conditions":["nonSeqFull","nonSeqPartial","seqNoFeedback","seqFeedback"],"classroomPairings":[["A","B"],["C","D"]],"coinWeights":[0.2,0.5,0.8],"subjectId":"A2MWAXV1YRK5GH","assignmentId":"3JRJSWSMQI76M9V2P9LGCFPLKVZ3E9","hitId":"3H6W48L9F4B5OEOMH57RM53ZYNHWPM","url":"https://gershmanlab.com/experiments/alicia/teaching/experiment/?hitId=3H6W48L9F4B5OEOMH57RM53ZYNHWPM&workerId=A2MWAXV1YRK5GH&assignmentId=3JRJSWSMQI76M9V2P9LGCFPLKVZ3E9&a=MSRJ8&tp_a=MSRJ8&b=3JRJSWSMQI76M9V2P9LGCFPLKVZ3E9&tp_b=3JRJSWSMQI76M9V2P9LGCFPLKVZ3E9&c=365198&tp_c=365198","firstResponseHeads":5,"firstResponseTails":5,"secondResponseHeads":5,"secondResponseTails":5,"studentIndex":8,"studentTrueHypers":{"a":2,"b":8},"studentGuess":0.4,"delta":0.09999999999999998,"bonus":0.3,"bonusSoFar":2.38,"totalExamples":20},{"rt":5334,"response":{"heads":"2","tails":"8"},"type":"response","condition":"nonSeqPartial","trueTheta":0.2,"classrooms":["C","D"],"studentTrueClassroom":"D","exampleSet":"first","trial_type":"survey-html-form","trial_index":82,"time_elapsed":733676,"internal_node_id":"0.0-81.0-0.0","params":{"nStudents":24,"maxFlips":30,"completionMinutes":45,"basePay":8,"maxBonus":9,"perTrialBonus":0.5,"perTrialBonusThreshold":0.1,"exampleCost":0.01},"classroomParams":{"A":{"a":1,"b":4},"B":{"a":4,"b":1},"C":{"a":2,"b":8},"D":{"a":8,"b":2}},"conditions":["nonSeqFull","nonSeqPartial","seqNoFeedback","seqFeedback"],"classroomPairings":[["A","B"],["C","D"]],"coinWeights":[0.2,0.5,0.8],"subjectId":"A2MWAXV1YRK5GH","assignmentId":"3JRJSWSMQI76M9V2P9LGCFPLKVZ3E9","hitId":"3H6W48L9F4B5OEOMH57RM53ZYNHWPM","url":"https://gershmanlab.com/experiments/alicia/teaching/experiment/?hitId=3H6W48L9F4B5OEOMH57RM53ZYNHWPM&workerId=A2MWAXV1YRK5GH&assignmentId=3JRJSWSMQI76M9V2P9LGCFPLKVZ3E9&a=MSRJ8&tp_a=MSRJ8&b=3JRJSWSMQI76M9V2P9LGCFPLKVZ3E9&tp_b=3JRJSWSMQI76M9V2P9LGCFPLKVZ3E9&c=365198&tp_c=365198","heads":2,"tails":8,"studentIndex":9,"studentTrueHypers":{"a":8,"b":2},"studentGuess":0.5,"delta":0.3,"totalExamples":10,"bonus":0,"bonusSoFar":2.38},{"rt":6639,"response":{"heads":"8","tails":"2"},"type":"response","condition":"nonSeqPartial","trueTheta":0.8,"classrooms":["C","D"],"studentTrueClassroom":"D","exampleSet":"first","trial_type":"survey-html-form","trial_index":88,"time_elapsed":759057,"internal_node_id":"0.0-87.0-0.0","params":{"nStudents":24,"maxFlips":30,"completionMinutes":45,"basePay":8,"maxBonus":9,"perTrialBonus":0.5,"perTrialBonusThreshold":0.1,"exampleCost":0.01},"classroomParams":{"A":{"a":1,"b":4},"B":{"a":4,"b":1},"C":{"a":2,"b":8},"D":{"a":8,"b":2}},"conditions":["nonSeqFull","nonSeqPartial","seqNoFeedback","seqFeedback"],"classroomPairings":[["A","B"],["C","D"]],"coinWeights":[0.2,0.5,0.8],"subjectId":"A2MWAXV1YRK5GH","assignmentId":"3JRJSWSMQI76M9V2P9LGCFPLKVZ3E9","hitId":"3H6W48L9F4B5OEOMH57RM53ZYNHWPM","url":"https://gershmanlab.com/experiments/alicia/teaching/experiment/?hitId=3H6W48L9F4B5OEOMH57RM53ZYNHWPM&workerId=A2MWAXV1YRK5GH&assignmentId=3JRJSWSMQI76M9V2P9LGCFPLKVZ3E9&a=MSRJ8&tp_a=MSRJ8&b=3JRJSWSMQI76M9V2P9LGCFPLKVZ3E9&tp_b=3JRJSWSMQI76M9V2P9LGCFPLKVZ3E9&c=365198&tp_c=365198","heads":8,"tails":2,"studentIndex":10,"studentTrueHypers":{"a":8,"b":2},"studentGuess":0.8,"delta":0,"totalExamples":10,"bonus":0.4,"bonusSoFar":2.78},{"rt":9389,"response":{"heads":"5","tails":"5"},"type":"response","condition":"nonSeqFull","trueTheta":0.5,"classrooms":["A","B"],"studentTrueClassroom":"B","exampleSet":"first","trial_type":"survey-html-form","trial_index":94,"time_elapsed":783518,"internal_node_id":"0.0-93.0-0.0","params":{"nStudents":24,"maxFlips":30,"completionMinutes":45,"basePay":8,"maxBonus":9,"perTrialBonus":0.5,"perTrialBonusThreshold":0.1,"exampleCost":0.01},"classroomParams":{"A":{"a":1,"b":4},"B":{"a":4,"b":1},"C":{"a":2,"b":8},"D":{"a":8,"b":2}},"conditions":["nonSeqFull","nonSeqPartial","seqNoFeedback","seqFeedback"],"classroomPairings":[["A","B"],["C","D"]],"coinWeights":[0.2,0.5,0.8],"subjectId":"A2MWAXV1YRK5GH","assignmentId":"3JRJSWSMQI76M9V2P9LGCFPLKVZ3E9","hitId":"3H6W48L9F4B5OEOMH57RM53ZYNHWPM","url":"https://gershmanlab.com/experiments/alicia/teaching/experiment/?hitId=3H6W48L9F4B5OEOMH57RM53ZYNHWPM&workerId=A2MWAXV1YRK5GH&assignmentId=3JRJSWSMQI76M9V2P9LGCFPLKVZ3E9&a=MSRJ8&tp_a=MSRJ8&b=3JRJSWSMQI76M9V2P9LGCFPLKVZ3E9&tp_b=3JRJSWSMQI76M9V2P9LGCFPLKVZ3E9&c=365198&tp_c=365198","heads":5,"tails":5,"studentIndex":11,"studentTrueHypers":{"a":4,"b":1},"studentGuess":0.6,"delta":0.09999999999999998,"totalExamples":10,"bonus":0.4,"bonusSoFar":3.18},{"rt":21927,"response":{"heads":"8","tails":"2"},"type":"response","condition":"nonSeqFull","trueTheta":0.8,"classrooms":["C","D"],"studentTrueClassroom":"C","exampleSet":"first","trial_type":"survey-html-form","trial_index":100,"time_elapsed":829046,"internal_node_id":"0.0-99.0-0.0","params":{"nStudents":24,"maxFlips":30,"completionMinutes":45,"basePay":8,"maxBonus":9,"perTrialBonus":0.5,"perTrialBonusThreshold":0.1,"exampleCost":0.01},"classroomParams":{"A":{"a":1,"b":4},"B":{"a":4,"b":1},"C":{"a":2,"b":8},"D":{"a":8,"b":2}},"conditions":["nonSeqFull","nonSeqPartial","seqNoFeedback","seqFeedback"],"classroomPairings":[["A","B"],["C","D"]],"coinWeights":[0.2,0.5,0.8],"subjectId":"A2MWAXV1YRK5GH","assignmentId":"3JRJSWSMQI76M9V2P9LGCFPLKVZ3E9","hitId":"3H6W48L9F4B5OEOMH57RM53ZYNHWPM","url":"https://gershmanlab.com/experiments/alicia/teaching/experiment/?hitId=3H6W48L9F4B5OEOMH57RM53ZYNHWPM&workerId=A2MWAXV1YRK5GH&assignmentId=3JRJSWSMQI76M9V2P9LGCFPLKVZ3E9&a=MSRJ8&tp_a=MSRJ8&b=3JRJSWSMQI76M9V2P9LGCFPLKVZ3E9&tp_b=3JRJSWSMQI76M9V2P9LGCFPLKVZ3E9&c=365198&tp_c=365198","heads":8,"tails":2,"studentIndex":12,"studentTrueHypers":{"a":2,"b":8},"studentGuess":0.5,"delta":0.30000000000000004,"totalExamples":10,"bonus":0,"bonusSoFar":3.18},{"rt":29178,"response":{"heads":"8","tails":"2"},"type":"response","condition":"nonSeqFull","trueTheta":0.8,"classrooms":["A","B"],"studentTrueClassroom":"A","exampleSet":"first","trial_type":"survey-html-form","trial_index":106,"time_elapsed":873598,"internal_node_id":"0.0-105.0-0.0","params":{"nStudents":24,"maxFlips":30,"completionMinutes":45,"basePay":8,"maxBonus":9,"perTrialBonus":0.5,"perTrialBonusThreshold":0.1,"exampleCost":0.01},"classroomParams":{"A":{"a":1,"b":4},"B":{"a":4,"b":1},"C":{"a":2,"b":8},"D":{"a":8,"b":2}},"conditions":["nonSeqFull","nonSeqPartial","seqNoFeedback","seqFeedback"],"classroomPairings":[["A","B"],["C","D"]],"coinWeights":[0.2,0.5,0.8],"subjectId":"A2MWAXV1YRK5GH","assignmentId":"3JRJSWSMQI76M9V2P9LGCFPLKVZ3E9","hitId":"3H6W48L9F4B5OEOMH57RM53ZYNHWPM","url":"https://gershmanlab.com/experiments/alicia/teaching/experiment/?hitId=3H6W48L9F4B5OEOMH57RM53ZYNHWPM&workerId=A2MWAXV1YRK5GH&assignmentId=3JRJSWSMQI76M9V2P9LGCFPLKVZ3E9&a=MSRJ8&tp_a=MSRJ8&b=3JRJSWSMQI76M9V2P9LGCFPLKVZ3E9&tp_b=3JRJSWSMQI76M9V2P9LGCFPLKVZ3E9&c=365198&tp_c=365198","heads":8,"tails":2,"studentIndex":13,"studentTrueHypers":{"a":1,"b":4},"studentGuess":0.6,"delta":0.20000000000000007,"totalExamples":10,"bonus":0,"bonusSoFar":3.18},{"rt":20802,"response":{"heads":"2","tails":"8"},"type":"response","condition":"seqFeedback","trueTheta":0.2,"classrooms":["A","B"],"studentTrueClassroom":"B","exampleSet":"first","trial_type":"survey-html-form","trial_index":112,"time_elapsed":911054,"internal_node_id":"0.0-111.0-0.0","params":{"nStudents":24,"maxFlips":30,"completionMinutes":45,"basePay":8,"maxBonus":9,"perTrialBonus":0.5,"perTrialBonusThreshold":0.1,"exampleCost":0.01},"classroomParams":{"A":{"a":1,"b":4},"B":{"a":4,"b":1},"C":{"a":2,"b":8},"D":{"a":8,"b":2}},"conditions":["nonSeqFull","nonSeqPartial","seqNoFeedback","seqFeedback"],"classroomPairings":[["A","B"],["C","D"]],"coinWeights":[0.2,0.5,0.8],"subjectId":"A2MWAXV1YRK5GH","assignmentId":"3JRJSWSMQI76M9V2P9LGCFPLKVZ3E9","hitId":"3H6W48L9F4B5OEOMH57RM53ZYNHWPM","url":"https://gershmanlab.com/experiments/alicia/teaching/experiment/?hitId=3H6W48L9F4B5OEOMH57RM53ZYNHWPM&workerId=A2MWAXV1YRK5GH&assignmentId=3JRJSWSMQI76M9V2P9LGCFPLKVZ3E9&a=MSRJ8&tp_a=MSRJ8&b=3JRJSWSMQI76M9V2P9LGCFPLKVZ3E9&tp_b=3JRJSWSMQI76M9V2P9LGCFPLKVZ3E9&c=365198&tp_c=365198","heads":2,"tails":8,"studentIndex":14,"studentTrueHypers":{"a":4,"b":1},"studentGuess":0.4,"delta":0.2,"totalExamples":10,"bonusSoFar":3.18},{"rt":8942,"response":{"heads":"2","tails":"8"},"type":"response","condition":"seqFeedback","trueTheta":0.2,"classrooms":["A","B"],"studentTrueClassroom":"B","exampleSet":"second","trial_type":"survey-html-form","trial_index":116,"time_elapsed":933375,"internal_node_id":"0.0-115.0-0.0","params":{"nStudents":24,"maxFlips":30,"completionMinutes":45,"basePay":8,"maxBonus":9,"perTrialBonus":0.5,"perTrialBonusThreshold":0.1,"exampleCost":0.01},"classroomParams":{"A":{"a":1,"b":4},"B":{"a":4,"b":1},"C":{"a":2,"b":8},"D":{"a":8,"b":2}},"conditions":["nonSeqFull","nonSeqPartial","seqNoFeedback","seqFeedback"],"classroomPairings":[["A","B"],["C","D"]],"coinWeights":[0.2,0.5,0.8],"subjectId":"A2MWAXV1YRK5GH","assignmentId":"3JRJSWSMQI76M9V2P9LGCFPLKVZ3E9","hitId":"3H6W48L9F4B5OEOMH57RM53ZYNHWPM","url":"https://gershmanlab.com/experiments/alicia/teaching/experiment/?hitId=3H6W48L9F4B5OEOMH57RM53ZYNHWPM&workerId=A2MWAXV1YRK5GH&assignmentId=3JRJSWSMQI76M9V2P9LGCFPLKVZ3E9&a=MSRJ8&tp_a=MSRJ8&b=3JRJSWSMQI76M9V2P9LGCFPLKVZ3E9&tp_b=3JRJSWSMQI76M9V2P9LGCFPLKVZ3E9&c=365198&tp_c=365198","firstResponseHeads":2,"firstResponseTails":8,"secondResponseHeads":2,"secondResponseTails":8,"studentIndex":14,"studentTrueHypers":{"a":4,"b":1},"studentGuess":0.32,"delta":0.12,"bonus":0,"bonusSoFar":3.18,"totalExamples":20},{"rt":12341,"response":{"heads":"2","tails":"8"},"type":"response","condition":"nonSeqFull","trueTheta":0.2,"classrooms":["A","B"],"studentTrueClassroom":"B","exampleSet":"first","trial_type":"survey-html-form","trial_index":122,"time_elapsed":962336,"internal_node_id":"0.0-121.0-0.0","params":{"nStudents":24,"maxFlips":30,"completionMinutes":45,"basePay":8,"maxBonus":9,"perTrialBonus":0.5,"perTrialBonusThreshold":0.1,"exampleCost":0.01},"classroomParams":{"A":{"a":1,"b":4},"B":{"a":4,"b":1},"C":{"a":2,"b":8},"D":{"a":8,"b":2}},"conditions":["nonSeqFull","nonSeqPartial","seqNoFeedback","seqFeedback"],"classroomPairings":[["A","B"],["C","D"]],"coinWeights":[0.2,0.5,0.8],"subjectId":"A2MWAXV1YRK5GH","assignmentId":"3JRJSWSMQI76M9V2P9LGCFPLKVZ3E9","hitId":"3H6W48L9F4B5OEOMH57RM53ZYNHWPM","url":"https://gershmanlab.com/experiments/alicia/teaching/experiment/?hitId=3H6W48L9F4B5OEOMH57RM53ZYNHWPM&workerId=A2MWAXV1YRK5GH&assignmentId=3JRJSWSMQI76M9V2P9LGCFPLKVZ3E9&a=MSRJ8&tp_a=MSRJ8&b=3JRJSWSMQI76M9V2P9LGCFPLKVZ3E9&tp_b=3JRJSWSMQI76M9V2P9LGCFPLKVZ3E9&c=365198&tp_c=365198","heads":2,"tails":8,"studentIndex":15,"studentTrueHypers":{"a":4,"b":1},"studentGuess":0.4,"delta":0.2,"totalExamples":10,"bonus":0,"bonusSoFar":3.18},{"rt":8427,"response":{"heads":"8","tails":"2"},"type":"response","condition":"seqFeedback","trueTheta":0.8,"classrooms":["C","D"],"studentTrueClassroom":"D","exampleSet":"first","trial_type":"survey-html-form","trial_index":128,"time_elapsed":984567,"internal_node_id":"0.0-127.0-0.0","params":{"nStudents":24,"maxFlips":30,"completionMinutes":45,"basePay":8,"maxBonus":9,"perTrialBonus":0.5,"perTrialBonusThreshold":0.1,"exampleCost":0.01},"classroomParams":{"A":{"a":1,"b":4},"B":{"a":4,"b":1},"C":{"a":2,"b":8},"D":{"a":8,"b":2}},"conditions":["nonSeqFull","nonSeqPartial","seqNoFeedback","seqFeedback"],"classroomPairings":[["A","B"],["C","D"]],"coinWeights":[0.2,0.5,0.8],"subjectId":"A2MWAXV1YRK5GH","assignmentId":"3JRJSWSMQI76M9V2P9LGCFPLKVZ3E9","hitId":"3H6W48L9F4B5OEOMH57RM53ZYNHWPM","url":"https://gershmanlab.com/experiments/alicia/teaching/experiment/?hitId=3H6W48L9F4B5OEOMH57RM53ZYNHWPM&workerId=A2MWAXV1YRK5GH&assignmentId=3JRJSWSMQI76M9V2P9LGCFPLKVZ3E9&a=MSRJ8&tp_a=MSRJ8&b=3JRJSWSMQI76M9V2P9LGCFPLKVZ3E9&tp_b=3JRJSWSMQI76M9V2P9LGCFPLKVZ3E9&c=365198&tp_c=365198","heads":8,"tails":2,"studentIndex":16,"studentTrueHypers":{"a":8,"b":2},"studentGuess":0.8,"delta":0,"totalExamples":10,"bonusSoFar":3.18},{"rt":31349,"response":{"heads":"8","tails":"2"},"type":"response","condition":"seqFeedback","trueTheta":0.8,"classrooms":["C","D"],"studentTrueClassroom":"D","exampleSet":"second","trial_type":"survey-html-form","trial_index":132,"time_elapsed":1026372,"internal_node_id":"0.0-131.0-0.0","params":{"nStudents":24,"maxFlips":30,"completionMinutes":45,"basePay":8,"maxBonus":9,"perTrialBonus":0.5,"perTrialBonusThreshold":0.1,"exampleCost":0.01},"classroomParams":{"A":{"a":1,"b":4},"B":{"a":4,"b":1},"C":{"a":2,"b":8},"D":{"a":8,"b":2}},"conditions":["nonSeqFull","nonSeqPartial","seqNoFeedback","seqFeedback"],"classroomPairings":[["A","B"],["C","D"]],"coinWeights":[0.2,0.5,0.8],"subjectId":"A2MWAXV1YRK5GH","assignmentId":"3JRJSWSMQI76M9V2P9LGCFPLKVZ3E9","hitId":"3H6W48L9F4B5OEOMH57RM53ZYNHWPM","url":"https://gershmanlab.com/experiments/alicia/teaching/experiment/?hitId=3H6W48L9F4B5OEOMH57RM53ZYNHWPM&workerId=A2MWAXV1YRK5GH&assignmentId=3JRJSWSMQI76M9V2P9LGCFPLKVZ3E9&a=MSRJ8&tp_a=MSRJ8&b=3JRJSWSMQI76M9V2P9LGCFPLKVZ3E9&tp_b=3JRJSWSMQI76M9V2P9LGCFPLKVZ3E9&c=365198&tp_c=365198","firstResponseHeads":8,"firstResponseTails":2,"secondResponseHeads":8,"secondResponseTails":2,"studentIndex":16,"studentTrueHypers":{"a":8,"b":2},"studentGuess":0.8,"delta":0,"bonus":0.3,"bonusSoFar":3.48,"totalExamples":20},{"rt":36833,"response":{"heads":"8","tails":"2"},"type":"response","condition":"seqNoFeedback","trueTheta":0.8,"classrooms":["A","B"],"studentTrueClassroom":"B","exampleSet":"first","trial_type":"survey-html-form","trial_index":138,"time_elapsed":1078761,"internal_node_id":"0.0-137.0-0.0","params":{"nStudents":24,"maxFlips":30,"completionMinutes":45,"basePay":8,"maxBonus":9,"perTrialBonus":0.5,"perTrialBonusThreshold":0.1,"exampleCost":0.01},"classroomParams":{"A":{"a":1,"b":4},"B":{"a":4,"b":1},"C":{"a":2,"b":8},"D":{"a":8,"b":2}},"conditions":["nonSeqFull","nonSeqPartial","seqNoFeedback","seqFeedback"],"classroomPairings":[["A","B"],["C","D"]],"coinWeights":[0.2,0.5,0.8],"subjectId":"A2MWAXV1YRK5GH","assignmentId":"3JRJSWSMQI76M9V2P9LGCFPLKVZ3E9","hitId":"3H6W48L9F4B5OEOMH57RM53ZYNHWPM","url":"https://gershmanlab.com/experiments/alicia/teaching/experiment/?hitId=3H6W48L9F4B5OEOMH57RM53ZYNHWPM&workerId=A2MWAXV1YRK5GH&assignmentId=3JRJSWSMQI76M9V2P9LGCFPLKVZ3E9&a=MSRJ8&tp_a=MSRJ8&b=3JRJSWSMQI76M9V2P9LGCFPLKVZ3E9&tp_b=3JRJSWSMQI76M9V2P9LGCFPLKVZ3E9&c=365198&tp_c=365198","heads":8,"tails":2,"studentIndex":17,"studentTrueHypers":{"a":4,"b":1},"studentGuess":0.8,"delta":0,"totalExamples":10,"bonusSoFar":3.48},{"rt":9193,"response":{"heads":"8","tails":"2"},"type":"response","condition":"seqNoFeedback","trueTheta":0.8,"classrooms":["A","B"],"studentTrueClassroom":"B","exampleSet":"second","trial_type":"survey-html-form","trial_index":141,"time_elapsed":1093710,"internal_node_id":"0.0-140.0-0.0","params":{"nStudents":24,"maxFlips":30,"completionMinutes":45,"basePay":8,"maxBonus":9,"perTrialBonus":0.5,"perTrialBonusThreshold":0.1,"exampleCost":0.01},"classroomParams":{"A":{"a":1,"b":4},"B":{"a":4,"b":1},"C":{"a":2,"b":8},"D":{"a":8,"b":2}},"conditions":["nonSeqFull","nonSeqPartial","seqNoFeedback","seqFeedback"],"classroomPairings":[["A","B"],["C","D"]],"coinWeights":[0.2,0.5,0.8],"subjectId":"A2MWAXV1YRK5GH","assignmentId":"3JRJSWSMQI76M9V2P9LGCFPLKVZ3E9","hitId":"3H6W48L9F4B5OEOMH57RM53ZYNHWPM","url":"https://gershmanlab.com/experiments/alicia/teaching/experiment/?hitId=3H6W48L9F4B5OEOMH57RM53ZYNHWPM&workerId=A2MWAXV1YRK5GH&assignmentId=3JRJSWSMQI76M9V2P9LGCFPLKVZ3E9&a=MSRJ8&tp_a=MSRJ8&b=3JRJSWSMQI76M9V2P9LGCFPLKVZ3E9&tp_b=3JRJSWSMQI76M9V2P9LGCFPLKVZ3E9&c=365198&tp_c=365198","firstResponseHeads":8,"firstResponseTails":2,"secondResponseHeads":8,"secondResponseTails":2,"studentIndex":17,"studentTrueHypers":{"a":4,"b":1},"studentGuess":0.8,"delta":0,"bonus":0.3,"bonusSoFar":3.78,"totalExamples":20},{"rt":15708,"response":{"heads":"10","tails":"10"},"type":"response","condition":"nonSeqPartial","trueTheta":0.5,"classrooms":["C","D"],"studentTrueClassroom":"D","exampleSet":"first","trial_type":"survey-html-form","trial_index":147,"time_elapsed":1126603,"internal_node_id":"0.0-146.0-0.0","params":{"nStudents":24,"maxFlips":30,"completionMinutes":45,"basePay":8,"maxBonus":9,"perTrialBonus":0.5,"perTrialBonusThreshold":0.1,"exampleCost":0.01},"classroomParams":{"A":{"a":1,"b":4},"B":{"a":4,"b":1},"C":{"a":2,"b":8},"D":{"a":8,"b":2}},"conditions":["nonSeqFull","nonSeqPartial","seqNoFeedback","seqFeedback"],"classroomPairings":[["A","B"],["C","D"]],"coinWeights":[0.2,0.5,0.8],"subjectId":"A2MWAXV1YRK5GH","assignmentId":"3JRJSWSMQI76M9V2P9LGCFPLKVZ3E9","hitId":"3H6W48L9F4B5OEOMH57RM53ZYNHWPM","url":"https://gershmanlab.com/experiments/alicia/teaching/experiment/?hitId=3H6W48L9F4B5OEOMH57RM53ZYNHWPM&workerId=A2MWAXV1YRK5GH&assignmentId=3JRJSWSMQI76M9V2P9LGCFPLKVZ3E9&a=MSRJ8&tp_a=MSRJ8&b=3JRJSWSMQI76M9V2P9LGCFPLKVZ3E9&tp_b=3JRJSWSMQI76M9V2P9LGCFPLKVZ3E9&c=365198&tp_c=365198","heads":10,"tails":10,"studentIndex":18,"studentTrueHypers":{"a":8,"b":2},"studentGuess":0.6,"delta":0.09999999999999998,"totalExamples":20,"bonus":0.3,"bonusSoFar":4.08},{"rt":8035,"response":{"heads":"5","tails":"5"},"type":"response","condition":"nonSeqFull","trueTheta":0.5,"classrooms":["C","D"],"studentTrueClassroom":"D","exampleSet":"first","trial_type":"survey-html-form","trial_index":153,"time_elapsed":1149894,"internal_node_id":"0.0-152.0-0.0","params":{"nStudents":24,"maxFlips":30,"completionMinutes":45,"basePay":8,"maxBonus":9,"perTrialBonus":0.5,"perTrialBonusThreshold":0.1,"exampleCost":0.01},"classroomParams":{"A":{"a":1,"b":4},"B":{"a":4,"b":1},"C":{"a":2,"b":8},"D":{"a":8,"b":2}},"conditions":["nonSeqFull","nonSeqPartial","seqNoFeedback","seqFeedback"],"classroomPairings":[["A","B"],["C","D"]],"coinWeights":[0.2,0.5,0.8],"subjectId":"A2MWAXV1YRK5GH","assignmentId":"3JRJSWSMQI76M9V2P9LGCFPLKVZ3E9","hitId":"3H6W48L9F4B5OEOMH57RM53ZYNHWPM","url":"https://gershmanlab.com/experiments/alicia/teaching/experiment/?hitId=3H6W48L9F4B5OEOMH57RM53ZYNHWPM&workerId=A2MWAXV1YRK5GH&assignmentId=3JRJSWSMQI76M9V2P9LGCFPLKVZ3E9&a=MSRJ8&tp_a=MSRJ8&b=3JRJSWSMQI76M9V2P9LGCFPLKVZ3E9&tp_b=3JRJSWSMQI76M9V2P9LGCFPLKVZ3E9&c=365198&tp_c=365198","heads":5,"tails":5,"studentIndex":19,"studentTrueHypers":{"a":8,"b":2},"studentGuess":0.65,"delta":0.15000000000000002,"totalExamples":10,"bonus":0,"bonusSoFar":4.08},{"rt":6362,"response":{"heads":"2","tails":"8"},"type":"response","condition":"seqNoFeedback","trueTheta":0.2,"classrooms":["A","B"],"studentTrueClassroom":"B","exampleSet":"first","trial_type":"survey-html-form","trial_index":159,"time_elapsed":1170800,"internal_node_id":"0.0-158.0-0.0","params":{"nStudents":24,"maxFlips":30,"completionMinutes":45,"basePay":8,"maxBonus":9,"perTrialBonus":0.5,"perTrialBonusThreshold":0.1,"exampleCost":0.01},"classroomParams":{"A":{"a":1,"b":4},"B":{"a":4,"b":1},"C":{"a":2,"b":8},"D":{"a":8,"b":2}},"conditions":["nonSeqFull","nonSeqPartial","seqNoFeedback","seqFeedback"],"classroomPairings":[["A","B"],["C","D"]],"coinWeights":[0.2,0.5,0.8],"subjectId":"A2MWAXV1YRK5GH","assignmentId":"3JRJSWSMQI76M9V2P9LGCFPLKVZ3E9","hitId":"3H6W48L9F4B5OEOMH57RM53ZYNHWPM","url":"https://gershmanlab.com/experiments/alicia/teaching/experiment/?hitId=3H6W48L9F4B5OEOMH57RM53ZYNHWPM&workerId=A2MWAXV1YRK5GH&assignmentId=3JRJSWSMQI76M9V2P9LGCFPLKVZ3E9&a=MSRJ8&tp_a=MSRJ8&b=3JRJSWSMQI76M9V2P9LGCFPLKVZ3E9&tp_b=3JRJSWSMQI76M9V2P9LGCFPLKVZ3E9&c=365198&tp_c=365198","heads":2,"tails":8,"studentIndex":20,"studentTrueHypers":{"a":4,"b":1},"studentGuess":0.4,"delta":0.2,"totalExamples":10,"bonusSoFar":4.08},{"rt":8841,"response":{"heads":"2","tails":"8"},"type":"response","condition":"seqNoFeedback","trueTheta":0.2,"classrooms":["A","B"],"studentTrueClassroom":"B","exampleSet":"second","trial_type":"survey-html-form","trial_index":162,"time_elapsed":1185648,"internal_node_id":"0.0-161.0-0.0","params":{"nStudents":24,"maxFlips":30,"completionMinutes":45,"basePay":8,"maxBonus":9,"perTrialBonus":0.5,"perTrialBonusThreshold":0.1,"exampleCost":0.01},"classroomParams":{"A":{"a":1,"b":4},"B":{"a":4,"b":1},"C":{"a":2,"b":8},"D":{"a":8,"b":2}},"conditions":["nonSeqFull","nonSeqPartial","seqNoFeedback","seqFeedback"],"classroomPairings":[["A","B"],["C","D"]],"coinWeights":[0.2,0.5,0.8],"subjectId":"A2MWAXV1YRK5GH","assignmentId":"3JRJSWSMQI76M9V2P9LGCFPLKVZ3E9","hitId":"3H6W48L9F4B5OEOMH57RM53ZYNHWPM","url":"https://gershmanlab.com/experiments/alicia/teaching/experiment/?hitId=3H6W48L9F4B5OEOMH57RM53ZYNHWPM&workerId=A2MWAXV1YRK5GH&assignmentId=3JRJSWSMQI76M9V2P9LGCFPLKVZ3E9&a=MSRJ8&tp_a=MSRJ8&b=3JRJSWSMQI76M9V2P9LGCFPLKVZ3E9&tp_b=3JRJSWSMQI76M9V2P9LGCFPLKVZ3E9&c=365198&tp_c=365198","firstResponseHeads":2,"firstResponseTails":8,"secondResponseHeads":2,"secondResponseTails":8,"studentIndex":20,"studentTrueHypers":{"a":4,"b":1},"studentGuess":0.32,"delta":0.12,"bonus":0,"bonusSoFar":4.08,"totalExamples":20},{"rt":10389,"response":{"heads":"2","tails":"8"},"type":"response","condition":"nonSeqFull","trueTheta":0.2,"classrooms":["C","D"],"studentTrueClassroom":"C","exampleSet":"first","trial_type":"survey-html-form","trial_index":168,"time_elapsed":1208792,"internal_node_id":"0.0-167.0-0.0","params":{"nStudents":24,"maxFlips":30,"completionMinutes":45,"basePay":8,"maxBonus":9,"perTrialBonus":0.5,"perTrialBonusThreshold":0.1,"exampleCost":0.01},"classroomParams":{"A":{"a":1,"b":4},"B":{"a":4,"b":1},"C":{"a":2,"b":8},"D":{"a":8,"b":2}},"conditions":["nonSeqFull","nonSeqPartial","seqNoFeedback","seqFeedback"],"classroomPairings":[["A","B"],["C","D"]],"coinWeights":[0.2,0.5,0.8],"subjectId":"A2MWAXV1YRK5GH","assignmentId":"3JRJSWSMQI76M9V2P9LGCFPLKVZ3E9","hitId":"3H6W48L9F4B5OEOMH57RM53ZYNHWPM","url":"https://gershmanlab.com/experiments/alicia/teaching/experiment/?hitId=3H6W48L9F4B5OEOMH57RM53ZYNHWPM&workerId=A2MWAXV1YRK5GH&assignmentId=3JRJSWSMQI76M9V2P9LGCFPLKVZ3E9&a=MSRJ8&tp_a=MSRJ8&b=3JRJSWSMQI76M9V2P9LGCFPLKVZ3E9&tp_b=3JRJSWSMQI76M9V2P9LGCFPLKVZ3E9&c=365198&tp_c=365198","heads":2,"tails":8,"studentIndex":21,"studentTrueHypers":{"a":2,"b":8},"studentGuess":0.2,"delta":0,"totalExamples":10,"bonus":0.4,"bonusSoFar":4.48},{"rt":6994,"response":{"heads":"2","tails":"8"},"type":"response","condition":"seqFeedback","trueTheta":0.2,"classrooms":["C","D"],"studentTrueClassroom":"D","exampleSet":"first","trial_type":"survey-html-form","trial_index":174,"time_elapsed":1231930,"internal_node_id":"0.0-173.0-0.0","params":{"nStudents":24,"maxFlips":30,"completionMinutes":45,"basePay":8,"maxBonus":9,"perTrialBonus":0.5,"perTrialBonusThreshold":0.1,"exampleCost":0.01},"classroomParams":{"A":{"a":1,"b":4},"B":{"a":4,"b":1},"C":{"a":2,"b":8},"D":{"a":8,"b":2}},"conditions":["nonSeqFull","nonSeqPartial","seqNoFeedback","seqFeedback"],"classroomPairings":[["A","B"],["C","D"]],"coinWeights":[0.2,0.5,0.8],"subjectId":"A2MWAXV1YRK5GH","assignmentId":"3JRJSWSMQI76M9V2P9LGCFPLKVZ3E9","hitId":"3H6W48L9F4B5OEOMH57RM53ZYNHWPM","url":"https://gershmanlab.com/experiments/alicia/teaching/experiment/?hitId=3H6W48L9F4B5OEOMH57RM53ZYNHWPM&workerId=A2MWAXV1YRK5GH&assignmentId=3JRJSWSMQI76M9V2P9LGCFPLKVZ3E9&a=MSRJ8&tp_a=MSRJ8&b=3JRJSWSMQI76M9V2P9LGCFPLKVZ3E9&tp_b=3JRJSWSMQI76M9V2P9LGCFPLKVZ3E9&c=365198&tp_c=365198","heads":2,"tails":8,"studentIndex":22,"studentTrueHypers":{"a":8,"b":2},"studentGuess":0.5,"delta":0.3,"totalExamples":10,"bonusSoFar":4.48},{"rt":8369,"response":{"heads":"2","tails":"8"},"type":"response","condition":"seqFeedback","trueTheta":0.2,"classrooms":["C","D"],"studentTrueClassroom":"D","exampleSet":"second","trial_type":"survey-html-form","trial_index":178,"time_elapsed":1249049,"internal_node_id":"0.0-177.0-0.0","params":{"nStudents":24,"maxFlips":30,"completionMinutes":45,"basePay":8,"maxBonus":9,"perTrialBonus":0.5,"perTrialBonusThreshold":0.1,"exampleCost":0.01},"classroomParams":{"A":{"a":1,"b":4},"B":{"a":4,"b":1},"C":{"a":2,"b":8},"D":{"a":8,"b":2}},"conditions":["nonSeqFull","nonSeqPartial","seqNoFeedback","seqFeedback"],"classroomPairings":[["A","B"],["C","D"]],"coinWeights":[0.2,0.5,0.8],"subjectId":"A2MWAXV1YRK5GH","assignmentId":"3JRJSWSMQI76M9V2P9LGCFPLKVZ3E9","hitId":"3H6W48L9F4B5OEOMH57RM53ZYNHWPM","url":"https://gershmanlab.com/experiments/alicia/teaching/experiment/?hitId=3H6W48L9F4B5OEOMH57RM53ZYNHWPM&workerId=A2MWAXV1YRK5GH&assignmentId=3JRJSWSMQI76M9V2P9LGCFPLKVZ3E9&a=MSRJ8&tp_a=MSRJ8&b=3JRJSWSMQI76M9V2P9LGCFPLKVZ3E9&tp_b=3JRJSWSMQI76M9V2P9LGCFPLKVZ3E9&c=365198&tp_c=365198","firstResponseHeads":2,"firstResponseTails":8,"secondResponseHeads":2,"secondResponseTails":8,"studentIndex":22,"studentTrueHypers":{"a":8,"b":2},"studentGuess":0.4,"delta":0.2,"bonus":0,"bonusSoFar":4.48,"totalExamples":20},{"rt":6497,"response":{"heads":"2","tails":"8"},"type":"response","condition":"seqNoFeedback","trueTheta":0.2,"classrooms":["C","D"],"studentTrueClassroom":"C","exampleSet":"first","trial_type":"survey-html-form","trial_index":184,"time_elapsed":1269846,"internal_node_id":"0.0-183.0-0.0","params":{"nStudents":24,"maxFlips":30,"completionMinutes":45,"basePay":8,"maxBonus":9,"perTrialBonus":0.5,"perTrialBonusThreshold":0.1,"exampleCost":0.01},"classroomParams":{"A":{"a":1,"b":4},"B":{"a":4,"b":1},"C":{"a":2,"b":8},"D":{"a":8,"b":2}},"conditions":["nonSeqFull","nonSeqPartial","seqNoFeedback","seqFeedback"],"classroomPairings":[["A","B"],["C","D"]],"coinWeights":[0.2,0.5,0.8],"subjectId":"A2MWAXV1YRK5GH","assignmentId":"3JRJSWSMQI76M9V2P9LGCFPLKVZ3E9","hitId":"3H6W48L9F4B5OEOMH57RM53ZYNHWPM","url":"https://gershmanlab.com/experiments/alicia/teaching/experiment/?hitId=3H6W48L9F4B5OEOMH57RM53ZYNHWPM&workerId=A2MWAXV1YRK5GH&assignmentId=3JRJSWSMQI76M9V2P9LGCFPLKVZ3E9&a=MSRJ8&tp_a=MSRJ8&b=3JRJSWSMQI76M9V2P9LGCFPLKVZ3E9&tp_b=3JRJSWSMQI76M9V2P9LGCFPLKVZ3E9&c=365198&tp_c=365198","heads":2,"tails":8,"studentIndex":23,"studentTrueHypers":{"a":2,"b":8},"studentGuess":0.2,"delta":0,"totalExamples":10,"bonusSoFar":4.48},{"rt":8121,"response":{"heads":"2","tails":"8"},"type":"response","condition":"seqNoFeedback","trueTheta":0.2,"classrooms":["C","D"],"studentTrueClassroom":"C","exampleSet":"second","trial_type":"survey-html-form","trial_index":187,"time_elapsed":1284723,"internal_node_id":"0.0-186.0-0.0","params":{"nStudents":24,"maxFlips":30,"completionMinutes":45,"basePay":8,"maxBonus":9,"perTrialBonus":0.5,"perTrialBonusThreshold":0.1,"exampleCost":0.01},"classroomParams":{"A":{"a":1,"b":4},"B":{"a":4,"b":1},"C":{"a":2,"b":8},"D":{"a":8,"b":2}},"conditions":["nonSeqFull","nonSeqPartial","seqNoFeedback","seqFeedback"],"classroomPairings":[["A","B"],["C","D"]],"coinWeights":[0.2,0.5,0.8],"subjectId":"A2MWAXV1YRK5GH","assignmentId":"3JRJSWSMQI76M9V2P9LGCFPLKVZ3E9","hitId":"3H6W48L9F4B5OEOMH57RM53ZYNHWPM","url":"https://gershmanlab.com/experiments/alicia/teaching/experiment/?hitId=3H6W48L9F4B5OEOMH57RM53ZYNHWPM&workerId=A2MWAXV1YRK5GH&assignmentId=3JRJSWSMQI76M9V2P9LGCFPLKVZ3E9&a=MSRJ8&tp_a=MSRJ8&b=3JRJSWSMQI76M9V2P9LGCFPLKVZ3E9&tp_b=3JRJSWSMQI76M9V2P9LGCFPLKVZ3E9&c=365198&tp_c=365198","firstResponseHeads":2,"firstResponseTails":8,"secondResponseHeads":2,"secondResponseTails":8,"studentIndex":23,"studentTrueHypers":{"a":2,"b":8},"studentGuess":0.2,"delta":0,"bonus":0.3,"bonusSoFar":4.78,"totalExamples":20},{"rt":16834,"response":{"gender":"female","age":"71","understood":"yes","comments":""},"type":"response","trial_type":"survey-html-form","trial_index":191,"time_elapsed":1313375,"internal_node_id":"0.0-191.0","params":{"nStudents":24,"maxFlips":30,"completionMinutes":45,"basePay":8,"maxBonus":9,"perTrialBonus":0.5,"perTrialBonusThreshold":0.1,"exampleCost":0.01},"classroomParams":{"A":{"a":1,"b":4},"B":{"a":4,"b":1},"C":{"a":2,"b":8},"D":{"a":8,"b":2}},"conditions":["nonSeqFull","nonSeqPartial","seqNoFeedback","seqFeedback"],"classroomPairings":[["A","B"],["C","D"]],"coinWeights":[0.2,0.5,0.8],"subjectId":"A2MWAXV1YRK5GH","assignmentId":"3JRJSWSMQI76M9V2P9LGCFPLKVZ3E9","hitId":"3H6W48L9F4B5OEOMH57RM53ZYNHWPM","url":"https://gershmanlab.com/experiments/alicia/teaching/experiment/?hitId=3H6W48L9F4B5OEOMH57RM53ZYNHWPM&workerId=A2MWAXV1YRK5GH&assignmentId=3JRJSWSMQI76M9V2P9LGCFPLKVZ3E9&a=MSRJ8&tp_a=MSRJ8&b=3JRJSWSMQI76M9V2P9LGCFPLKVZ3E9&tp_b=3JRJSWSMQI76M9V2P9LGCFPLKVZ3E9&c=365198&tp_c=365198","totalBonus":4.78}]