[{"rt":24058,"response":{"heads":"8","tails":"2"},"type":"response","condition":"seqFeedback","trueTheta":0.8,"classrooms":["C","D"],"studentTrueClassroom":"D","exampleSet":"first","trial_type":"survey-html-form","trial_index":7,"time_elapsed":491547,"internal_node_id":"0.0-6.0-0.0","params":{"nStudents":24,"maxFlips":30,"completionMinutes":45,"basePay":8,"maxBonus":9,"perTrialBonus":0.5,"perTrialBonusThreshold":0.1,"exampleCost":0.01},"classroomParams":{"A":{"a":1,"b":4},"B":{"a":4,"b":1},"C":{"a":2,"b":8},"D":{"a":8,"b":2}},"conditions":["nonSeqFull","nonSeqPartial","seqNoFeedback","seqFeedback"],"classroomPairings":[["A","B"],["C","D"]],"coinWeights":[0.2,0.5,0.8],"subjectId":"A2QTL039A5VV3I","assignmentId":"3ZY8KE4ISKPFVLNQIAMMPR6IUIFQV4","hitId":"3QGHA0EA0JM3KKNCY0PQRLYAHJ3BWH","url":"https://gershmanlab.com/experiments/alicia/teaching/experiment/?hitId=3QGHA0EA0JM3KKNCY0PQRLYAHJ3BWH&workerId=A2QTL039A5VV3I&assignmentId=3ZY8KE4ISKPFVLNQIAMMPR6IUIFQV4&a=IKYZ8&tp_a=IKYZ8&b=3ZY8KE4ISKPFVLNQIAMMPR6IUIFQV4&tp_b=3ZY8KE4ISKPFVLNQIAMMPR6IUIFQV4&c=365198&tp_c=365198","heads":8,"tails":2,"studentIndex":0,"studentTrueHypers":{"a":8,"b":2},"studentGuess":0.8,"delta":0,"totalExamples":10,"bonusSoFar":0},{"rt":33881,"response":{"heads":"0","tails":"0"},"type":"response","condition":"seqFeedback","trueTheta":0.8,"classrooms":["C","D"],"studentTrueClassroom":"D","exampleSet":"second","trial_type":"survey-html-form","trial_index":11,"time_elapsed":561203,"internal_node_id":"0.0-10.0-0.0","params":{"nStudents":24,"maxFlips":30,"completionMinutes":45,"basePay":8,"maxBonus":9,"perTrialBonus":0.5,"perTrialBonusThreshold":0.1,"exampleCost":0.01},"classroomParams":{"A":{"a":1,"b":4},"B":{"a":4,"b":1},"C":{"a":2,"b":8},"D":{"a":8,"b":2}},"conditions":["nonSeqFull","nonSeqPartial","seqNoFeedback","seqFeedback"],"classroomPairings":[["A","B"],["C","D"]],"coinWeights":[0.2,0.5,0.8],"subjectId":"A2QTL039A5VV3I","assignmentId":"3ZY8KE4ISKPFVLNQIAMMPR6IUIFQV4","hitId":"3QGHA0EA0JM3KKNCY0PQRLYAHJ3BWH","url":"https://gershmanlab.com/experiments/alicia/teaching/experiment/?hitId=3QGHA0EA0JM3KKNCY0PQRLYAHJ3BWH&workerId=A2QTL039A5VV3I&assignmentId=3ZY8KE4ISKPFVLNQIAMMPR6IUIFQV4&a=IKYZ8&tp_a=IKYZ8&b=3ZY8KE4ISKPFVLNQIAMMPR6IUIFQV4&tp_b=3ZY8KE4ISKPFVLNQIAMMPR6IUIFQV4&c=365198&tp_c=365198","firstResponseHeads":8,"firstResponseTails":2,"secondResponseHeads":0,"secondResponseTails":0,"studentIndex":0,"studentTrueHypers":{"a":8,"b":2},"studentGuess":0.8,"delta":0,"bonus":0.4,"bonusSoFar":0.4,"totalExamples":10},{"rt":4137,"response":{"heads":"0","tails":"0"},"type":"response","condition":"seqFeedback","trueTheta":0.8,"classrooms":["C","D"],"studentTrueClassroom":"D","exampleSet":"second","trial_type":"survey-html-form","trial_index":12,"time_elapsed":565343,"internal_node_id":"0.0-10.1-0.1","params":{"nStudents":24,"maxFlips":30,"completionMinutes":45,"basePay":8,"maxBonus":9,"perTrialBonus":0.5,"perTrialBonusThreshold":0.1,"exampleCost":0.01},"classroomParams":{"A":{"a":1,"b":4},"B":{"a":4,"b":1},"C":{"a":2,"b":8},"D":{"a":8,"b":2}},"conditions":["nonSeqFull","nonSeqPartial","seqNoFeedback","seqFeedback"],"classroomPairings":[["A","B"],["C","D"]],"coinWeights":[0.2,0.5,0.8],"subjectId":"A2QTL039A5VV3I","assignmentId":"3ZY8KE4ISKPFVLNQIAMMPR6IUIFQV4","hitId":"3QGHA0EA0JM3KKNCY0PQRLYAHJ3BWH","url":"https://gershmanlab.com/experiments/alicia/teaching/experiment/?hitId=3QGHA0EA0JM3KKNCY0PQRLYAHJ3BWH&workerId=A2QTL039A5VV3I&assignmentId=3ZY8KE4ISKPFVLNQIAMMPR6IUIFQV4&a=IKYZ8&tp_a=IKYZ8&b=3ZY8KE4ISKPFVLNQIAMMPR6IUIFQV4&tp_b=3ZY8KE4ISKPFVLNQIAMMPR6IUIFQV4&c=365198&tp_c=365198","firstResponseHeads":8,"firstResponseTails":2,"secondResponseHeads":0,"secondResponseTails":0,"studentIndex":0,"studentTrueHypers":{"a":8,"b":2},"studentGuess":0.8,"delta":0,"bonus":0.4,"bonusSoFar":0.8,"totalExamples":10},{"rt":4311,"response":{"heads":"4","tails":"1"},"type":"response","condition":"seqFeedback","trueTheta":0.8,"classrooms":["C","D"],"studentTrueClassroom":"D","exampleSet":"second","trial_type":"survey-html-form","trial_index":13,"time_elapsed":569656,"internal_node_id":"0.0-10.2-0.2","params":{"nStudents":24,"maxFlips":30,"completionMinutes":45,"basePay":8,"maxBonus":9,"perTrialBonus":0.5,"perTrialBonusThreshold":0.1,"exampleCost":0.01},"classroomParams":{"A":{"a":1,"b":4},"B":{"a":4,"b":1},"C":{"a":2,"b":8},"D":{"a":8,"b":2}},"conditions":["nonSeqFull","nonSeqPartial","seqNoFeedback","seqFeedback"],"classroomPairings":[["A","B"],["C","D"]],"coinWeights":[0.2,0.5,0.8],"subjectId":"A2QTL039A5VV3I","assignmentId":"3ZY8KE4ISKPFVLNQIAMMPR6IUIFQV4","hitId":"3QGHA0EA0JM3KKNCY0PQRLYAHJ3BWH","url":"https://gershmanlab.com/experiments/alicia/teaching/experiment/?hitId=3QGHA0EA0JM3KKNCY0PQRLYAHJ3BWH&workerId=A2QTL039A5VV3I&assignmentId=3ZY8KE4ISKPFVLNQIAMMPR6IUIFQV4&a=IKYZ8&tp_a=IKYZ8&b=3ZY8KE4ISKPFVLNQIAMMPR6IUIFQV4&tp_b=3ZY8KE4ISKPFVLNQIAMMPR6IUIFQV4&c=365198&tp_c=365198","firstResponseHeads":8,"firstResponseTails":2,"secondResponseHeads":4,"secondResponseTails":1,"studentIndex":0,"studentTrueHypers":{"a":8,"b":2},"studentGuess":0.8,"delta":0,"bonus":0.35,"bonusSoFar":1.15,"totalExamples":15},{"rt":5117,"response":{"heads":"1","tails":"4"},"type":"response","condition":"nonSeqFull","trueTheta":0.2,"classrooms":["A","B"],"studentTrueClassroom":"B","exampleSet":"first","trial_type":"survey-html-form","trial_index":19,"time_elapsed":595992,"internal_node_id":"0.0-16.0-0.0","params":{"nStudents":24,"maxFlips":30,"completionMinutes":45,"basePay":8,"maxBonus":9,"perTrialBonus":0.5,"perTrialBonusThreshold":0.1,"exampleCost":0.01},"classroomParams":{"A":{"a":1,"b":4},"B":{"a":4,"b":1},"C":{"a":2,"b":8},"D":{"a":8,"b":2}},"conditions":["nonSeqFull","nonSeqPartial","seqNoFeedback","seqFeedback"],"classroomPairings":[["A","B"],["C","D"]],"coinWeights":[0.2,0.5,0.8],"subjectId":"A2QTL039A5VV3I","assignmentId":"3ZY8KE4ISKPFVLNQIAMMPR6IUIFQV4","hitId":"3QGHA0EA0JM3KKNCY0PQRLYAHJ3BWH","url":"https://gershmanlab.com/experiments/alicia/teaching/experiment/?hitId=3QGHA0EA0JM3KKNCY0PQRLYAHJ3BWH&workerId=A2QTL039A5VV3I&assignmentId=3ZY8KE4ISKPFVLNQIAMMPR6IUIFQV4&a=IKYZ8&tp_a=IKYZ8&b=3ZY8KE4ISKPFVLNQIAMMPR6IUIFQV4&tp_b=3ZY8KE4ISKPFVLNQIAMMPR6IUIFQV4&c=365198&tp_c=365198","heads":1,"tails":4,"studentIndex":1,"studentTrueHypers":{"a":4,"b":1},"studentGuess":0.5,"delta":0.3,"totalExamples":5,"bonus":0,"bonusSoFar":1.15},{"rt":12038,"response":{"heads":"3","tails":"3"},"type":"response","condition":"nonSeqPartial","trueTheta":0.5,"classrooms":["C","D"],"studentTrueClassroom":"C","exampleSet":"first","trial_type":"survey-html-form","trial_index":25,"time_elapsed":629064,"internal_node_id":"0.0-22.0-0.0","params":{"nStudents":24,"maxFlips":30,"completionMinutes":45,"basePay":8,"maxBonus":9,"perTrialBonus":0.5,"perTrialBonusThreshold":0.1,"exampleCost":0.01},"classroomParams":{"A":{"a":1,"b":4},"B":{"a":4,"b":1},"C":{"a":2,"b":8},"D":{"a":8,"b":2}},"conditions":["nonSeqFull","nonSeqPartial","seqNoFeedback","seqFeedback"],"classroomPairings":[["A","B"],["C","D"]],"coinWeights":[0.2,0.5,0.8],"subjectId":"A2QTL039A5VV3I","assignmentId":"3ZY8KE4ISKPFVLNQIAMMPR6IUIFQV4","hitId":"3QGHA0EA0JM3KKNCY0PQRLYAHJ3BWH","url":"https://gershmanlab.com/experiments/alicia/teaching/experiment/?hitId=3QGHA0EA0JM3KKNCY0PQRLYAHJ3BWH&workerId=A2QTL039A5VV3I&assignmentId=3ZY8KE4ISKPFVLNQIAMMPR6IUIFQV4&a=IKYZ8&tp_a=IKYZ8&b=3ZY8KE4ISKPFVLNQIAMMPR6IUIFQV4&tp_b=3ZY8KE4ISKPFVLNQIAMMPR6IUIFQV4&c=365198&tp_c=365198","heads":3,"tails":3,"studentIndex":2,"studentTrueHypers":{"a":2,"b":8},"studentGuess":0.3125,"delta":0.1875,"totalExamples":6,"bonus":0,"bonusSoFar":1.15},{"rt":5601,"response":{"heads":"1","tails":"5"},"type":"response","condition":"nonSeqPartial","trueTheta":0.2,"classrooms":["C","D"],"studentTrueClassroom":"C","exampleSet":"first","trial_type":"survey-html-form","trial_index":31,"time_elapsed":668381,"internal_node_id":"0.0-28.0-0.0","params":{"nStudents":24,"maxFlips":30,"completionMinutes":45,"basePay":8,"maxBonus":9,"perTrialBonus":0.5,"perTrialBonusThreshold":0.1,"exampleCost":0.01},"classroomParams":{"A":{"a":1,"b":4},"B":{"a":4,"b":1},"C":{"a":2,"b":8},"D":{"a":8,"b":2}},"conditions":["nonSeqFull","nonSeqPartial","seqNoFeedback","seqFeedback"],"classroomPairings":[["A","B"],["C","D"]],"coinWeights":[0.2,0.5,0.8],"subjectId":"A2QTL039A5VV3I","assignmentId":"3ZY8KE4ISKPFVLNQIAMMPR6IUIFQV4","hitId":"3QGHA0EA0JM3KKNCY0PQRLYAHJ3BWH","url":"https://gershmanlab.com/experiments/alicia/teaching/experiment/?hitId=3QGHA0EA0JM3KKNCY0PQRLYAHJ3BWH&workerId=A2QTL039A5VV3I&assignmentId=3ZY8KE4ISKPFVLNQIAMMPR6IUIFQV4&a=IKYZ8&tp_a=IKYZ8&b=3ZY8KE4ISKPFVLNQIAMMPR6IUIFQV4&tp_b=3ZY8KE4ISKPFVLNQIAMMPR6IUIFQV4&c=365198&tp_c=365198","heads":1,"tails":5,"studentIndex":3,"studentTrueHypers":{"a":2,"b":8},"studentGuess":0.1875,"delta":0.012500000000000011,"totalExamples":6,"bonus":0.44,"bonusSoFar":1.59},{"rt":5119,"response":{"heads":"4","tails":"1"},"type":"response","condition":"nonSeqPartial","trueTheta":0.8,"classrooms":["C","D"],"studentTrueClassroom":"C","exampleSet":"first","trial_type":"survey-html-form","trial_index":37,"time_elapsed":696518,"internal_node_id":"0.0-34.0-0.0","params":{"nStudents":24,"maxFlips":30,"completionMinutes":45,"basePay":8,"maxBonus":9,"perTrialBonus":0.5,"perTrialBonusThreshold":0.1,"exampleCost":0.01},"classroomParams":{"A":{"a":1,"b":4},"B":{"a":4,"b":1},"C":{"a":2,"b":8},"D":{"a":8,"b":2}},"conditions":["nonSeqFull","nonSeqPartial","seqNoFeedback","seqFeedback"],"classroomPairings":[["A","B"],["C","D"]],"coinWeights":[0.2,0.5,0.8],"subjectId":"A2QTL039A5VV3I","assignmentId":"3ZY8KE4ISKPFVLNQIAMMPR6IUIFQV4","hitId":"3QGHA0EA0JM3KKNCY0PQRLYAHJ3BWH","url":"https://gershmanlab.com/experiments/alicia/teaching/experiment/?hitId=3QGHA0EA0JM3KKNCY0PQRLYAHJ3BWH&workerId=A2QTL039A5VV3I&assignmentId=3ZY8KE4ISKPFVLNQIAMMPR6IUIFQV4&a=IKYZ8&tp_a=IKYZ8&b=3ZY8KE4ISKPFVLNQIAMMPR6IUIFQV4&tp_b=3ZY8KE4ISKPFVLNQIAMMPR6IUIFQV4&c=365198&tp_c=365198","heads":4,"tails":1,"studentIndex":4,"studentTrueHypers":{"a":2,"b":8},"studentGuess":0.4,"delta":0.4,"totalExamples":5,"bonus":0,"bonusSoFar":1.59},{"rt":11122,"response":{"heads":"5","tails":"5"},"type":"response","condition":"seqFeedback","trueTheta":0.5,"classrooms":["C","D"],"studentTrueClassroom":"D","exampleSet":"first","trial_type":"survey-html-form","trial_index":43,"time_elapsed":738276,"internal_node_id":"0.0-40.0-0.0","params":{"nStudents":24,"maxFlips":30,"completionMinutes":45,"basePay":8,"maxBonus":9,"perTrialBonus":0.5,"perTrialBonusThreshold":0.1,"exampleCost":0.01},"classroomParams":{"A":{"a":1,"b":4},"B":{"a":4,"b":1},"C":{"a":2,"b":8},"D":{"a":8,"b":2}},"conditions":["nonSeqFull","nonSeqPartial","seqNoFeedback","seqFeedback"],"classroomPairings":[["A","B"],["C","D"]],"coinWeights":[0.2,0.5,0.8],"subjectId":"A2QTL039A5VV3I","assignmentId":"3ZY8KE4ISKPFVLNQIAMMPR6IUIFQV4","hitId":"3QGHA0EA0JM3KKNCY0PQRLYAHJ3BWH","url":"https://gershmanlab.com/experiments/alicia/teaching/experiment/?hitId=3QGHA0EA0JM3KKNCY0PQRLYAHJ3BWH&workerId=A2QTL039A5VV3I&assignmentId=3ZY8KE4ISKPFVLNQIAMMPR6IUIFQV4&a=IKYZ8&tp_a=IKYZ8&b=3ZY8KE4ISKPFVLNQIAMMPR6IUIFQV4&tp_b=3ZY8KE4ISKPFVLNQIAMMPR6IUIFQV4&c=365198&tp_c=365198","heads":5,"tails":5,"studentIndex":5,"studentTrueHypers":{"a":8,"b":2},"studentGuess":0.65,"delta":0.15000000000000002,"totalExamples":10,"bonusSoFar":1.59},{"rt":11634,"response":{"heads":"5","tails":"5"},"type":"response","condition":"seqFeedback","trueTheta":0.5,"classrooms":["C","D"],"studentTrueClassroom":"D","exampleSet":"second","trial_type":"survey-html-form","trial_index":47,"time_elapsed":761276,"internal_node_id":"0.0-44.0-0.0","params":{"nStudents":24,"maxFlips":30,"completionMinutes":45,"basePay":8,"maxBonus":9,"perTrialBonus":0.5,"perTrialBonusThreshold":0.1,"exampleCost":0.01},"classroomParams":{"A":{"a":1,"b":4},"B":{"a":4,"b":1},"C":{"a":2,"b":8},"D":{"a":8,"b":2}},"conditions":["nonSeqFull","nonSeqPartial","seqNoFeedback","seqFeedback"],"classroomPairings":[["A","B"],["C","D"]],"coinWeights":[0.2,0.5,0.8],"subjectId":"A2QTL039A5VV3I","assignmentId":"3ZY8KE4ISKPFVLNQIAMMPR6IUIFQV4","hitId":"3QGHA0EA0JM3KKNCY0PQRLYAHJ3BWH","url":"https://gershmanlab.com/experiments/alicia/teaching/experiment/?hitId=3QGHA0EA0JM3KKNCY0PQRLYAHJ3BWH&workerId=A2QTL039A5VV3I&assignmentId=3ZY8KE4ISKPFVLNQIAMMPR6IUIFQV4&a=IKYZ8&tp_a=IKYZ8&b=3ZY8KE4ISKPFVLNQIAMMPR6IUIFQV4&tp_b=3ZY8KE4ISKPFVLNQIAMMPR6IUIFQV4&c=365198&tp_c=365198","firstResponseHeads":5,"firstResponseTails":5,"secondResponseHeads":5,"secondResponseTails":5,"studentIndex":5,"studentTrueHypers":{"a":8,"b":2},"studentGuess":0.6,"delta":0.09999999999999998,"bonus":0.3,"bonusSoFar":1.89,"totalExamples":20},{"rt":4643,"response":{"heads":"8","tails":"8"},"type":"response","condition":"nonSeqFull","trueTheta":0.5,"classrooms":["C","D"],"studentTrueClassroom":"D","exampleSet":"first","trial_type":"survey-html-form","trial_index":53,"time_elapsed":796977,"internal_node_id":"0.0-50.0-0.0","params":{"nStudents":24,"maxFlips":30,"completionMinutes":45,"basePay":8,"maxBonus":9,"perTrialBonus":0.5,"perTrialBonusThreshold":0.1,"exampleCost":0.01},"classroomParams":{"A":{"a":1,"b":4},"B":{"a":4,"b":1},"C":{"a":2,"b":8},"D":{"a":8,"b":2}},"conditions":["nonSeqFull","nonSeqPartial","seqNoFeedback","seqFeedback"],"classroomPairings":[["A","B"],["C","D"]],"coinWeights":[0.2,0.5,0.8],"subjectId":"A2QTL039A5VV3I","assignmentId":"3ZY8KE4ISKPFVLNQIAMMPR6IUIFQV4","hitId":"3QGHA0EA0JM3KKNCY0PQRLYAHJ3BWH","url":"https://gershmanlab.com/experiments/alicia/teaching/experiment/?hitId=3QGHA0EA0JM3KKNCY0PQRLYAHJ3BWH&workerId=A2QTL039A5VV3I&assignmentId=3ZY8KE4ISKPFVLNQIAMMPR6IUIFQV4&a=IKYZ8&tp_a=IKYZ8&b=3ZY8KE4ISKPFVLNQIAMMPR6IUIFQV4&tp_b=3ZY8KE4ISKPFVLNQIAMMPR6IUIFQV4&c=365198&tp_c=365198","heads":8,"tails":8,"studentIndex":6,"studentTrueHypers":{"a":8,"b":2},"studentGuess":0.6153846153846154,"delta":0.11538461538461542,"totalExamples":16,"bonus":0,"bonusSoFar":1.89},{"rt":4461,"response":{"heads":"1","tails":"4"},"type":"response","condition":"seqFeedback","trueTheta":0.2,"classrooms":["C","D"],"studentTrueClassroom":"D","exampleSet":"first","trial_type":"survey-html-form","trial_index":59,"time_elapsed":891543,"internal_node_id":"0.0-56.0-0.0","params":{"nStudents":24,"maxFlips":30,"completionMinutes":45,"basePay":8,"maxBonus":9,"perTrialBonus":0.5,"perTrialBonusThreshold":0.1,"exampleCost":0.01},"classroomParams":{"A":{"a":1,"b":4},"B":{"a":4,"b":1},"C":{"a":2,"b":8},"D":{"a":8,"b":2}},"conditions":["nonSeqFull","nonSeqPartial","seqNoFeedback","seqFeedback"],"classroomPairings":[["A","B"],["C","D"]],"coinWeights":[0.2,0.5,0.8],"subjectId":"A2QTL039A5VV3I","assignmentId":"3ZY8KE4ISKPFVLNQIAMMPR6IUIFQV4","hitId":"3QGHA0EA0JM3KKNCY0PQRLYAHJ3BWH","url":"https://gershmanlab.com/experiments/alicia/teaching/experiment/?hitId=3QGHA0EA0JM3KKNCY0PQRLYAHJ3BWH&workerId=A2QTL039A5VV3I&assignmentId=3ZY8KE4ISKPFVLNQIAMMPR6IUIFQV4&a=IKYZ8&tp_a=IKYZ8&b=3ZY8KE4ISKPFVLNQIAMMPR6IUIFQV4&tp_b=3ZY8KE4ISKPFVLNQIAMMPR6IUIFQV4&c=365198&tp_c=365198","heads":1,"tails":4,"studentIndex":7,"studentTrueHypers":{"a":8,"b":2},"studentGuess":0.6,"delta":0.39999999999999997,"totalExamples":5,"bonusSoFar":1.89},{"rt":7648,"response":{"heads":"1","tails":"7"},"type":"response","condition":"seqFeedback","trueTheta":0.2,"classrooms":["C","D"],"studentTrueClassroom":"D","exampleSet":"second","trial_type":"survey-html-form","trial_index":63,"time_elapsed":919119,"internal_node_id":"0.0-60.0-0.0","params":{"nStudents":24,"maxFlips":30,"completionMinutes":45,"basePay":8,"maxBonus":9,"perTrialBonus":0.5,"perTrialBonusThreshold":0.1,"exampleCost":0.01},"classroomParams":{"A":{"a":1,"b":4},"B":{"a":4,"b":1},"C":{"a":2,"b":8},"D":{"a":8,"b":2}},"conditions":["nonSeqFull","nonSeqPartial","seqNoFeedback","seqFeedback"],"classroomPairings":[["A","B"],["C","D"]],"coinWeights":[0.2,0.5,0.8],"subjectId":"A2QTL039A5VV3I","assignmentId":"3ZY8KE4ISKPFVLNQIAMMPR6IUIFQV4","hitId":"3QGHA0EA0JM3KKNCY0PQRLYAHJ3BWH","url":"https://gershmanlab.com/experiments/alicia/teaching/experiment/?hitId=3QGHA0EA0JM3KKNCY0PQRLYAHJ3BWH&workerId=A2QTL039A5VV3I&assignmentId=3ZY8KE4ISKPFVLNQIAMMPR6IUIFQV4&a=IKYZ8&tp_a=IKYZ8&b=3ZY8KE4ISKPFVLNQIAMMPR6IUIFQV4&tp_b=3ZY8KE4ISKPFVLNQIAMMPR6IUIFQV4&c=365198&tp_c=365198","firstResponseHeads":1,"firstResponseTails":4,"secondResponseHeads":1,"secondResponseTails":7,"studentIndex":7,"studentTrueHypers":{"a":8,"b":2},"studentGuess":0.43478260869565216,"delta":0.23478260869565215,"bonus":0,"bonusSoFar":1.89,"totalExamples":13},{"rt":4422,"response":{"heads":"0","tails":"5"},"type":"response","condition":"nonSeqPartial","trueTheta":0.2,"classrooms":["A","B"],"studentTrueClassroom":"A","exampleSet":"first","trial_type":"survey-html-form","trial_index":69,"time_elapsed":963951,"internal_node_id":"0.0-66.0-0.0","params":{"nStudents":24,"maxFlips":30,"completionMinutes":45,"basePay":8,"maxBonus":9,"perTrialBonus":0.5,"perTrialBonusThreshold":0.1,"exampleCost":0.01},"classroomParams":{"A":{"a":1,"b":4},"B":{"a":4,"b":1},"C":{"a":2,"b":8},"D":{"a":8,"b":2}},"conditions":["nonSeqFull","nonSeqPartial","seqNoFeedback","seqFeedback"],"classroomPairings":[["A","B"],["C","D"]],"coinWeights":[0.2,0.5,0.8],"subjectId":"A2QTL039A5VV3I","assignmentId":"3ZY8KE4ISKPFVLNQIAMMPR6IUIFQV4","hitId":"3QGHA0EA0JM3KKNCY0PQRLYAHJ3BWH","url":"https://gershmanlab.com/experiments/alicia/teaching/experiment/?hitId=3QGHA0EA0JM3KKNCY0PQRLYAHJ3BWH&workerId=A2QTL039A5VV3I&assignmentId=3ZY8KE4ISKPFVLNQIAMMPR6IUIFQV4&a=IKYZ8&tp_a=IKYZ8&b=3ZY8KE4ISKPFVLNQIAMMPR6IUIFQV4&tp_b=3ZY8KE4ISKPFVLNQIAMMPR6IUIFQV4&c=365198&tp_c=365198","heads":0,"tails":5,"studentIndex":8,"studentTrueHypers":{"a":1,"b":4},"studentGuess":0.1,"delta":0.1,"totalExamples":5,"bonus":0.45,"bonusSoFar":2.34},{"rt":2370,"response":{"heads":"4","tails":"0"},"type":"response","condition":"nonSeqFull","trueTheta":0.8,"classrooms":["C","D"],"studentTrueClassroom":"D","exampleSet":"first","trial_type":"survey-html-form","trial_index":75,"time_elapsed":989208,"internal_node_id":"0.0-72.0-0.0","params":{"nStudents":24,"maxFlips":30,"completionMinutes":45,"basePay":8,"maxBonus":9,"perTrialBonus":0.5,"perTrialBonusThreshold":0.1,"exampleCost":0.01},"classroomParams":{"A":{"a":1,"b":4},"B":{"a":4,"b":1},"C":{"a":2,"b":8},"D":{"a":8,"b":2}},"conditions":["nonSeqFull","nonSeqPartial","seqNoFeedback","seqFeedback"],"classroomPairings":[["A","B"],["C","D"]],"coinWeights":[0.2,0.5,0.8],"subjectId":"A2QTL039A5VV3I","assignmentId":"3ZY8KE4ISKPFVLNQIAMMPR6IUIFQV4","hitId":"3QGHA0EA0JM3KKNCY0PQRLYAHJ3BWH","url":"https://gershmanlab.com/experiments/alicia/teaching/experiment/?hitId=3QGHA0EA0JM3KKNCY0PQRLYAHJ3BWH&workerId=A2QTL039A5VV3I&assignmentId=3ZY8KE4ISKPFVLNQIAMMPR6IUIFQV4&a=IKYZ8&tp_a=IKYZ8&b=3ZY8KE4ISKPFVLNQIAMMPR6IUIFQV4&tp_b=3ZY8KE4ISKPFVLNQIAMMPR6IUIFQV4&c=365198&tp_c=365198","heads":4,"tails":0,"studentIndex":9,"studentTrueHypers":{"a":8,"b":2},"studentGuess":0.8571428571428571,"delta":0.05714285714285705,"totalExamples":4,"bonus":0.46,"bonusSoFar":2.8},{"rt":3047,"response":{"heads":"0","tails":"4"},"type":"response","condition":"nonSeqFull","trueTheta":0.2,"classrooms":["C","D"],"studentTrueClassroom":"D","exampleSet":"first","trial_type":"survey-html-form","trial_index":81,"time_elapsed":1005384,"internal_node_id":"0.0-78.0-0.0","params":{"nStudents":24,"maxFlips":30,"completionMinutes":45,"basePay":8,"maxBonus":9,"perTrialBonus":0.5,"perTrialBonusThreshold":0.1,"exampleCost":0.01},"classroomParams":{"A":{"a":1,"b":4},"B":{"a":4,"b":1},"C":{"a":2,"b":8},"D":{"a":8,"b":2}},"conditions":["nonSeqFull","nonSeqPartial","seqNoFeedback","seqFeedback"],"classroomPairings":[["A","B"],["C","D"]],"coinWeights":[0.2,0.5,0.8],"subjectId":"A2QTL039A5VV3I","assignmentId":"3ZY8KE4ISKPFVLNQIAMMPR6IUIFQV4","hitId":"3QGHA0EA0JM3KKNCY0PQRLYAHJ3BWH","url":"https://gershmanlab.com/experiments/alicia/teaching/experiment/?hitId=3QGHA0EA0JM3KKNCY0PQRLYAHJ3BWH&workerId=A2QTL039A5VV3I&assignmentId=3ZY8KE4ISKPFVLNQIAMMPR6IUIFQV4&a=IKYZ8&tp_a=IKYZ8&b=3ZY8KE4ISKPFVLNQIAMMPR6IUIFQV4&tp_b=3ZY8KE4ISKPFVLNQIAMMPR6IUIFQV4&c=365198&tp_c=365198","heads":0,"tails":4,"studentIndex":10,"studentTrueHypers":{"a":8,"b":2},"studentGuess":0.5714285714285714,"delta":0.3714285714285714,"totalExamples":4,"bonus":0,"bonusSoFar":2.8},{"rt":5363,"response":{"heads":"8","tails":"2"},"type":"response","condition":"nonSeqPartial","trueTheta":0.8,"classrooms":["A","B"],"studentTrueClassroom":"B","exampleSet":"first","trial_type":"survey-html-form","trial_index":87,"time_elapsed":1034359,"internal_node_id":"0.0-84.0-0.0","params":{"nStudents":24,"maxFlips":30,"completionMinutes":45,"basePay":8,"maxBonus":9,"perTrialBonus":0.5,"perTrialBonusThreshold":0.1,"exampleCost":0.01},"classroomParams":{"A":{"a":1,"b":4},"B":{"a":4,"b":1},"C":{"a":2,"b":8},"D":{"a":8,"b":2}},"conditions":["nonSeqFull","nonSeqPartial","seqNoFeedback","seqFeedback"],"classroomPairings":[["A","B"],["C","D"]],"coinWeights":[0.2,0.5,0.8],"subjectId":"A2QTL039A5VV3I","assignmentId":"3ZY8KE4ISKPFVLNQIAMMPR6IUIFQV4","hitId":"3QGHA0EA0JM3KKNCY0PQRLYAHJ3BWH","url":"https://gershmanlab.com/experiments/alicia/teaching/experiment/?hitId=3QGHA0EA0JM3KKNCY0PQRLYAHJ3BWH&workerId=A2QTL039A5VV3I&assignmentId=3ZY8KE4ISKPFVLNQIAMMPR6IUIFQV4&a=IKYZ8&tp_a=IKYZ8&b=3ZY8KE4ISKPFVLNQIAMMPR6IUIFQV4&tp_b=3ZY8KE4ISKPFVLNQIAMMPR6IUIFQV4&c=365198&tp_c=365198","heads":8,"tails":2,"studentIndex":11,"studentTrueHypers":{"a":4,"b":1},"studentGuess":0.8,"delta":0,"totalExamples":10,"bonus":0.4,"bonusSoFar":3.2},{"rt":3394,"response":{"heads":"4","tails":"4"},"type":"response","condition":"seqFeedback","trueTheta":0.5,"classrooms":["A","B"],"studentTrueClassroom":"A","exampleSet":"first","trial_type":"survey-html-form","trial_index":93,"time_elapsed":1050471,"internal_node_id":"0.0-90.0-0.0","params":{"nStudents":24,"maxFlips":30,"completionMinutes":45,"basePay":8,"maxBonus":9,"perTrialBonus":0.5,"perTrialBonusThreshold":0.1,"exampleCost":0.01},"classroomParams":{"A":{"a":1,"b":4},"B":{"a":4,"b":1},"C":{"a":2,"b":8},"D":{"a":8,"b":2}},"conditions":["nonSeqFull","nonSeqPartial","seqNoFeedback","seqFeedback"],"classroomPairings":[["A","B"],["C","D"]],"coinWeights":[0.2,0.5,0.8],"subjectId":"A2QTL039A5VV3I","assignmentId":"3ZY8KE4ISKPFVLNQIAMMPR6IUIFQV4","hitId":"3QGHA0EA0JM3KKNCY0PQRLYAHJ3BWH","url":"https://gershmanlab.com/experiments/alicia/teaching/experiment/?hitId=3QGHA0EA0JM3KKNCY0PQRLYAHJ3BWH&workerId=A2QTL039A5VV3I&assignmentId=3ZY8KE4ISKPFVLNQIAMMPR6IUIFQV4&a=IKYZ8&tp_a=IKYZ8&b=3ZY8KE4ISKPFVLNQIAMMPR6IUIFQV4&tp_b=3ZY8KE4ISKPFVLNQIAMMPR6IUIFQV4&c=365198&tp_c=365198","heads":4,"tails":4,"studentIndex":12,"studentTrueHypers":{"a":1,"b":4},"studentGuess":0.38461538461538464,"delta":0.11538461538461536,"totalExamples":8,"bonusSoFar":3.2},{"rt":4002,"response":{"heads":"5","tails":"5"},"type":"response","condition":"seqFeedback","trueTheta":0.5,"classrooms":["A","B"],"studentTrueClassroom":"A","exampleSet":"second","trial_type":"survey-html-form","trial_index":97,"time_elapsed":1070031,"internal_node_id":"0.0-94.0-0.0","params":{"nStudents":24,"maxFlips":30,"completionMinutes":45,"basePay":8,"maxBonus":9,"perTrialBonus":0.5,"perTrialBonusThreshold":0.1,"exampleCost":0.01},"classroomParams":{"A":{"a":1,"b":4},"B":{"a":4,"b":1},"C":{"a":2,"b":8},"D":{"a":8,"b":2}},"conditions":["nonSeqFull","nonSeqPartial","seqNoFeedback","seqFeedback"],"classroomPairings":[["A","B"],["C","D"]],"coinWeights":[0.2,0.5,0.8],"subjectId":"A2QTL039A5VV3I","assignmentId":"3ZY8KE4ISKPFVLNQIAMMPR6IUIFQV4","hitId":"3QGHA0EA0JM3KKNCY0PQRLYAHJ3BWH","url":"https://gershmanlab.com/experiments/alicia/teaching/experiment/?hitId=3QGHA0EA0JM3KKNCY0PQRLYAHJ3BWH&workerId=A2QTL039A5VV3I&assignmentId=3ZY8KE4ISKPFVLNQIAMMPR6IUIFQV4&a=IKYZ8&tp_a=IKYZ8&b=3ZY8KE4ISKPFVLNQIAMMPR6IUIFQV4&tp_b=3ZY8KE4ISKPFVLNQIAMMPR6IUIFQV4&c=365198&tp_c=365198","firstResponseHeads":4,"firstResponseTails":4,"secondResponseHeads":5,"secondResponseTails":5,"studentIndex":12,"studentTrueHypers":{"a":1,"b":4},"studentGuess":0.43478260869565216,"delta":0.06521739130434784,"bonus":0.32,"bonusSoFar":3.52,"totalExamples":18},{"rt":3126,"response":{"heads":"8","tails":"2"},"type":"response","condition":"seqNoFeedback","trueTheta":0.8,"classrooms":["A","B"],"studentTrueClassroom":"B","exampleSet":"first","trial_type":"survey-html-form","trial_index":103,"time_elapsed":1153112,"internal_node_id":"0.0-100.0-0.0","params":{"nStudents":24,"maxFlips":30,"completionMinutes":45,"basePay":8,"maxBonus":9,"perTrialBonus":0.5,"perTrialBonusThreshold":0.1,"exampleCost":0.01},"classroomParams":{"A":{"a":1,"b":4},"B":{"a":4,"b":1},"C":{"a":2,"b":8},"D":{"a":8,"b":2}},"conditions":["nonSeqFull","nonSeqPartial","seqNoFeedback","seqFeedback"],"classroomPairings":[["A","B"],["C","D"]],"coinWeights":[0.2,0.5,0.8],"subjectId":"A2QTL039A5VV3I","assignmentId":"3ZY8KE4ISKPFVLNQIAMMPR6IUIFQV4","hitId":"3QGHA0EA0JM3KKNCY0PQRLYAHJ3BWH","url":"https://gershmanlab.com/experiments/alicia/teaching/experiment/?hitId=3QGHA0EA0JM3KKNCY0PQRLYAHJ3BWH&workerId=A2QTL039A5VV3I&assignmentId=3ZY8KE4ISKPFVLNQIAMMPR6IUIFQV4&a=IKYZ8&tp_a=IKYZ8&b=3ZY8KE4ISKPFVLNQIAMMPR6IUIFQV4&tp_b=3ZY8KE4ISKPFVLNQIAMMPR6IUIFQV4&c=365198&tp_c=365198","heads":8,"tails":2,"studentIndex":13,"studentTrueHypers":{"a":4,"b":1},"studentGuess":0.8,"delta":0,"totalExamples":10,"bonusSoFar":3.52},{"rt":22582,"response":{"heads":"5","tails":"1"},"type":"response","condition":"seqNoFeedback","trueTheta":0.8,"classrooms":["A","B"],"studentTrueClassroom":"B","exampleSet":"second","trial_type":"survey-html-form","trial_index":106,"time_elapsed":1182955,"internal_node_id":"0.0-103.0-0.0","params":{"nStudents":24,"maxFlips":30,"completionMinutes":45,"basePay":8,"maxBonus":9,"perTrialBonus":0.5,"perTrialBonusThreshold":0.1,"exampleCost":0.01},"classroomParams":{"A":{"a":1,"b":4},"B":{"a":4,"b":1},"C":{"a":2,"b":8},"D":{"a":8,"b":2}},"conditions":["nonSeqFull","nonSeqPartial","seqNoFeedback","seqFeedback"],"classroomPairings":[["A","B"],["C","D"]],"coinWeights":[0.2,0.5,0.8],"subjectId":"A2QTL039A5VV3I","assignmentId":"3ZY8KE4ISKPFVLNQIAMMPR6IUIFQV4","hitId":"3QGHA0EA0JM3KKNCY0PQRLYAHJ3BWH","url":"https://gershmanlab.com/experiments/alicia/teaching/experiment/?hitId=3QGHA0EA0JM3KKNCY0PQRLYAHJ3BWH&workerId=A2QTL039A5VV3I&assignmentId=3ZY8KE4ISKPFVLNQIAMMPR6IUIFQV4&a=IKYZ8&tp_a=IKYZ8&b=3ZY8KE4ISKPFVLNQIAMMPR6IUIFQV4&tp_b=3ZY8KE4ISKPFVLNQIAMMPR6IUIFQV4&c=365198&tp_c=365198","firstResponseHeads":8,"firstResponseTails":2,"secondResponseHeads":5,"secondResponseTails":1,"studentIndex":13,"studentTrueHypers":{"a":4,"b":1},"studentGuess":0.8095238095238095,"delta":0.00952380952380949,"bonus":0.34,"bonusSoFar":3.86,"totalExamples":16},{"rt":2689,"response":{"heads":"1","tails":"4"},"type":"response","condition":"seqNoFeedback","trueTheta":0.2,"classrooms":["C","D"],"studentTrueClassroom":"D","exampleSet":"first","trial_type":"survey-html-form","trial_index":112,"time_elapsed":1226018,"internal_node_id":"0.0-109.0-0.0","params":{"nStudents":24,"maxFlips":30,"completionMinutes":45,"basePay":8,"maxBonus":9,"perTrialBonus":0.5,"perTrialBonusThreshold":0.1,"exampleCost":0.01},"classroomParams":{"A":{"a":1,"b":4},"B":{"a":4,"b":1},"C":{"a":2,"b":8},"D":{"a":8,"b":2}},"conditions":["nonSeqFull","nonSeqPartial","seqNoFeedback","seqFeedback"],"classroomPairings":[["A","B"],["C","D"]],"coinWeights":[0.2,0.5,0.8],"subjectId":"A2QTL039A5VV3I","assignmentId":"3ZY8KE4ISKPFVLNQIAMMPR6IUIFQV4","hitId":"3QGHA0EA0JM3KKNCY0PQRLYAHJ3BWH","url":"https://gershmanlab.com/experiments/alicia/teaching/experiment/?hitId=3QGHA0EA0JM3KKNCY0PQRLYAHJ3BWH&workerId=A2QTL039A5VV3I&assignmentId=3ZY8KE4ISKPFVLNQIAMMPR6IUIFQV4&a=IKYZ8&tp_a=IKYZ8&b=3ZY8KE4ISKPFVLNQIAMMPR6IUIFQV4&tp_b=3ZY8KE4ISKPFVLNQIAMMPR6IUIFQV4&c=365198&tp_c=365198","heads":1,"tails":4,"studentIndex":14,"studentTrueHypers":{"a":8,"b":2},"studentGuess":0.6,"delta":0.39999999999999997,"totalExamples":5,"bonusSoFar":3.86},{"rt":19246,"response":{"heads":"5","tails":"1"},"type":"response","condition":"seqNoFeedback","trueTheta":0.2,"classrooms":["C","D"],"studentTrueClassroom":"D","exampleSet":"second","trial_type":"survey-html-form","trial_index":115,"time_elapsed":1250778,"internal_node_id":"0.0-112.0-0.0","params":{"nStudents":24,"maxFlips":30,"completionMinutes":45,"basePay":8,"maxBonus":9,"perTrialBonus":0.5,"perTrialBonusThreshold":0.1,"exampleCost":0.01},"classroomParams":{"A":{"a":1,"b":4},"B":{"a":4,"b":1},"C":{"a":2,"b":8},"D":{"a":8,"b":2}},"conditions":["nonSeqFull","nonSeqPartial","seqNoFeedback","seqFeedback"],"classroomPairings":[["A","B"],["C","D"]],"coinWeights":[0.2,0.5,0.8],"subjectId":"A2QTL039A5VV3I","assignmentId":"3ZY8KE4ISKPFVLNQIAMMPR6IUIFQV4","hitId":"3QGHA0EA0JM3KKNCY0PQRLYAHJ3BWH","url":"https://gershmanlab.com/experiments/alicia/teaching/experiment/?hitId=3QGHA0EA0JM3KKNCY0PQRLYAHJ3BWH&workerId=A2QTL039A5VV3I&assignmentId=3ZY8KE4ISKPFVLNQIAMMPR6IUIFQV4&a=IKYZ8&tp_a=IKYZ8&b=3ZY8KE4ISKPFVLNQIAMMPR6IUIFQV4&tp_b=3ZY8KE4ISKPFVLNQIAMMPR6IUIFQV4&c=365198&tp_c=365198","firstResponseHeads":1,"firstResponseTails":4,"secondResponseHeads":5,"secondResponseTails":1,"studentIndex":14,"studentTrueHypers":{"a":8,"b":2},"studentGuess":0.6666666666666666,"delta":0.4666666666666666,"bonus":0,"bonusSoFar":3.86,"totalExamples":11},{"rt":3734,"response":{"heads":"4","tails":"4"},"type":"response","condition":"nonSeqPartial","trueTheta":0.5,"classrooms":["A","B"],"studentTrueClassroom":"B","exampleSet":"first","trial_type":"survey-html-form","trial_index":121,"time_elapsed":1312226,"internal_node_id":"0.0-118.0-0.0","params":{"nStudents":24,"maxFlips":30,"completionMinutes":45,"basePay":8,"maxBonus":9,"perTrialBonus":0.5,"perTrialBonusThreshold":0.1,"exampleCost":0.01},"classroomParams":{"A":{"a":1,"b":4},"B":{"a":4,"b":1},"C":{"a":2,"b":8},"D":{"a":8,"b":2}},"conditions":["nonSeqFull","nonSeqPartial","seqNoFeedback","seqFeedback"],"classroomPairings":[["A","B"],["C","D"]],"coinWeights":[0.2,0.5,0.8],"subjectId":"A2QTL039A5VV3I","assignmentId":"3ZY8KE4ISKPFVLNQIAMMPR6IUIFQV4","hitId":"3QGHA0EA0JM3KKNCY0PQRLYAHJ3BWH","url":"https://gershmanlab.com/experiments/alicia/teaching/experiment/?hitId=3QGHA0EA0JM3KKNCY0PQRLYAHJ3BWH&workerId=A2QTL039A5VV3I&assignmentId=3ZY8KE4ISKPFVLNQIAMMPR6IUIFQV4&a=IKYZ8&tp_a=IKYZ8&b=3ZY8KE4ISKPFVLNQIAMMPR6IUIFQV4&tp_b=3ZY8KE4ISKPFVLNQIAMMPR6IUIFQV4&c=365198&tp_c=365198","heads":4,"tails":4,"studentIndex":15,"studentTrueHypers":{"a":4,"b":1},"studentGuess":0.6153846153846154,"delta":0.11538461538461542,"totalExamples":8,"bonus":0,"bonusSoFar":3.86},{"rt":5558,"response":{"heads":"5","tails":"5"},"type":"response","condition":"seqNoFeedback","trueTheta":0.5,"classrooms":["C","D"],"studentTrueClassroom":"C","exampleSet":"first","trial_type":"survey-html-form","trial_index":127,"time_elapsed":1339802,"internal_node_id":"0.0-124.0-0.0","params":{"nStudents":24,"maxFlips":30,"completionMinutes":45,"basePay":8,"maxBonus":9,"perTrialBonus":0.5,"perTrialBonusThreshold":0.1,"exampleCost":0.01},"classroomParams":{"A":{"a":1,"b":4},"B":{"a":4,"b":1},"C":{"a":2,"b":8},"D":{"a":8,"b":2}},"conditions":["nonSeqFull","nonSeqPartial","seqNoFeedback","seqFeedback"],"classroomPairings":[["A","B"],["C","D"]],"coinWeights":[0.2,0.5,0.8],"subjectId":"A2QTL039A5VV3I","assignmentId":"3ZY8KE4ISKPFVLNQIAMMPR6IUIFQV4","hitId":"3QGHA0EA0JM3KKNCY0PQRLYAHJ3BWH","url":"https://gershmanlab.com/experiments/alicia/teaching/experiment/?hitId=3QGHA0EA0JM3KKNCY0PQRLYAHJ3BWH&workerId=A2QTL039A5VV3I&assignmentId=3ZY8KE4ISKPFVLNQIAMMPR6IUIFQV4&a=IKYZ8&tp_a=IKYZ8&b=3ZY8KE4ISKPFVLNQIAMMPR6IUIFQV4&tp_b=3ZY8KE4ISKPFVLNQIAMMPR6IUIFQV4&c=365198&tp_c=365198","heads":5,"tails":5,"studentIndex":16,"studentTrueHypers":{"a":2,"b":8},"studentGuess":0.35,"delta":0.15000000000000002,"totalExamples":10,"bonusSoFar":3.86},{"rt":4419,"response":{"heads":"3","tails":"3"},"type":"response","condition":"seqNoFeedback","trueTheta":0.5,"classrooms":["C","D"],"studentTrueClassroom":"C","exampleSet":"second","trial_type":"survey-html-form","trial_index":130,"time_elapsed":1350975,"internal_node_id":"0.0-127.0-0.0","params":{"nStudents":24,"maxFlips":30,"completionMinutes":45,"basePay":8,"maxBonus":9,"perTrialBonus":0.5,"perTrialBonusThreshold":0.1,"exampleCost":0.01},"classroomParams":{"A":{"a":1,"b":4},"B":{"a":4,"b":1},"C":{"a":2,"b":8},"D":{"a":8,"b":2}},"conditions":["nonSeqFull","nonSeqPartial","seqNoFeedback","seqFeedback"],"classroomPairings":[["A","B"],["C","D"]],"coinWeights":[0.2,0.5,0.8],"subjectId":"A2QTL039A5VV3I","assignmentId":"3ZY8KE4ISKPFVLNQIAMMPR6IUIFQV4","hitId":"3QGHA0EA0JM3KKNCY0PQRLYAHJ3BWH","url":"https://gershmanlab.com/experiments/alicia/teaching/experiment/?hitId=3QGHA0EA0JM3KKNCY0PQRLYAHJ3BWH&workerId=A2QTL039A5VV3I&assignmentId=3ZY8KE4ISKPFVLNQIAMMPR6IUIFQV4&a=IKYZ8&tp_a=IKYZ8&b=3ZY8KE4ISKPFVLNQIAMMPR6IUIFQV4&tp_b=3ZY8KE4ISKPFVLNQIAMMPR6IUIFQV4&c=365198&tp_c=365198","firstResponseHeads":5,"firstResponseTails":5,"secondResponseHeads":3,"secondResponseTails":3,"studentIndex":16,"studentTrueHypers":{"a":2,"b":8},"studentGuess":0.38461538461538464,"delta":0.11538461538461536,"bonus":0,"bonusSoFar":3.86,"totalExamples":16},{"rt":2906,"response":{"heads":"1","tails":"5"},"type":"response","condition":"seqNoFeedback","trueTheta":0.2,"classrooms":["A","B"],"studentTrueClassroom":"A","exampleSet":"first","trial_type":"survey-html-form","trial_index":136,"time_elapsed":1367235,"internal_node_id":"0.0-133.0-0.0","params":{"nStudents":24,"maxFlips":30,"completionMinutes":45,"basePay":8,"maxBonus":9,"perTrialBonus":0.5,"perTrialBonusThreshold":0.1,"exampleCost":0.01},"classroomParams":{"A":{"a":1,"b":4},"B":{"a":4,"b":1},"C":{"a":2,"b":8},"D":{"a":8,"b":2}},"conditions":["nonSeqFull","nonSeqPartial","seqNoFeedback","seqFeedback"],"classroomPairings":[["A","B"],["C","D"]],"coinWeights":[0.2,0.5,0.8],"subjectId":"A2QTL039A5VV3I","assignmentId":"3ZY8KE4ISKPFVLNQIAMMPR6IUIFQV4","hitId":"3QGHA0EA0JM3KKNCY0PQRLYAHJ3BWH","url":"https://gershmanlab.com/experiments/alicia/teaching/experiment/?hitId=3QGHA0EA0JM3KKNCY0PQRLYAHJ3BWH&workerId=A2QTL039A5VV3I&assignmentId=3ZY8KE4ISKPFVLNQIAMMPR6IUIFQV4&a=IKYZ8&tp_a=IKYZ8&b=3ZY8KE4ISKPFVLNQIAMMPR6IUIFQV4&tp_b=3ZY8KE4ISKPFVLNQIAMMPR6IUIFQV4&c=365198&tp_c=365198","heads":1,"tails":5,"studentIndex":17,"studentTrueHypers":{"a":1,"b":4},"studentGuess":0.18181818181818182,"delta":0.018181818181818188,"totalExamples":6,"bonusSoFar":3.86},{"rt":7824,"response":{"heads":"1","tails":"4"},"type":"response","condition":"seqNoFeedback","trueTheta":0.2,"classrooms":["A","B"],"studentTrueClassroom":"A","exampleSet":"second","trial_type":"survey-html-form","trial_index":139,"time_elapsed":1381331,"internal_node_id":"0.0-136.0-0.0","params":{"nStudents":24,"maxFlips":30,"completionMinutes":45,"basePay":8,"maxBonus":9,"perTrialBonus":0.5,"perTrialBonusThreshold":0.1,"exampleCost":0.01},"classroomParams":{"A":{"a":1,"b":4},"B":{"a":4,"b":1},"C":{"a":2,"b":8},"D":{"a":8,"b":2}},"conditions":["nonSeqFull","nonSeqPartial","seqNoFeedback","seqFeedback"],"classroomPairings":[["A","B"],["C","D"]],"coinWeights":[0.2,0.5,0.8],"subjectId":"A2QTL039A5VV3I","assignmentId":"3ZY8KE4ISKPFVLNQIAMMPR6IUIFQV4","hitId":"3QGHA0EA0JM3KKNCY0PQRLYAHJ3BWH","url":"https://gershmanlab.com/experiments/alicia/teaching/experiment/?hitId=3QGHA0EA0JM3KKNCY0PQRLYAHJ3BWH&workerId=A2QTL039A5VV3I&assignmentId=3ZY8KE4ISKPFVLNQIAMMPR6IUIFQV4&a=IKYZ8&tp_a=IKYZ8&b=3ZY8KE4ISKPFVLNQIAMMPR6IUIFQV4&tp_b=3ZY8KE4ISKPFVLNQIAMMPR6IUIFQV4&c=365198&tp_c=365198","firstResponseHeads":1,"firstResponseTails":5,"secondResponseHeads":1,"secondResponseTails":4,"studentIndex":17,"studentTrueHypers":{"a":1,"b":4},"studentGuess":0.1875,"delta":0.012500000000000011,"bonus":0.39,"bonusSoFar":4.25,"totalExamples":11},{"rt":5511,"response":{"heads":"4","tails":"4"},"type":"response","condition":"nonSeqFull","trueTheta":0.5,"classrooms":["A","B"],"studentTrueClassroom":"A","exampleSet":"first","trial_type":"survey-html-form","trial_index":145,"time_elapsed":1422247,"internal_node_id":"0.0-142.0-0.0","params":{"nStudents":24,"maxFlips":30,"completionMinutes":45,"basePay":8,"maxBonus":9,"perTrialBonus":0.5,"perTrialBonusThreshold":0.1,"exampleCost":0.01},"classroomParams":{"A":{"a":1,"b":4},"B":{"a":4,"b":1},"C":{"a":2,"b":8},"D":{"a":8,"b":2}},"conditions":["nonSeqFull","nonSeqPartial","seqNoFeedback","seqFeedback"],"classroomPairings":[["A","B"],["C","D"]],"coinWeights":[0.2,0.5,0.8],"subjectId":"A2QTL039A5VV3I","assignmentId":"3ZY8KE4ISKPFVLNQIAMMPR6IUIFQV4","hitId":"3QGHA0EA0JM3KKNCY0PQRLYAHJ3BWH","url":"https://gershmanlab.com/experiments/alicia/teaching/experiment/?hitId=3QGHA0EA0JM3KKNCY0PQRLYAHJ3BWH&workerId=A2QTL039A5VV3I&assignmentId=3ZY8KE4ISKPFVLNQIAMMPR6IUIFQV4&a=IKYZ8&tp_a=IKYZ8&b=3ZY8KE4ISKPFVLNQIAMMPR6IUIFQV4&tp_b=3ZY8KE4ISKPFVLNQIAMMPR6IUIFQV4&c=365198&tp_c=365198","heads":4,"tails":4,"studentIndex":18,"studentTrueHypers":{"a":1,"b":4},"studentGuess":0.38461538461538464,"delta":0.11538461538461536,"totalExamples":8,"bonus":0,"bonusSoFar":4.25},{"rt":3439,"response":{"heads":"4","tails":"1"},"type":"response","condition":"seqFeedback","trueTheta":0.8,"classrooms":["A","B"],"studentTrueClassroom":"B","exampleSet":"first","trial_type":"survey-html-form","trial_index":151,"time_elapsed":1604498,"internal_node_id":"0.0-148.0-0.0","params":{"nStudents":24,"maxFlips":30,"completionMinutes":45,"basePay":8,"maxBonus":9,"perTrialBonus":0.5,"perTrialBonusThreshold":0.1,"exampleCost":0.01},"classroomParams":{"A":{"a":1,"b":4},"B":{"a":4,"b":1},"C":{"a":2,"b":8},"D":{"a":8,"b":2}},"conditions":["nonSeqFull","nonSeqPartial","seqNoFeedback","seqFeedback"],"classroomPairings":[["A","B"],["C","D"]],"coinWeights":[0.2,0.5,0.8],"subjectId":"A2QTL039A5VV3I","assignmentId":"3ZY8KE4ISKPFVLNQIAMMPR6IUIFQV4","hitId":"3QGHA0EA0JM3KKNCY0PQRLYAHJ3BWH","url":"https://gershmanlab.com/experiments/alicia/teaching/experiment/?hitId=3QGHA0EA0JM3KKNCY0PQRLYAHJ3BWH&workerId=A2QTL039A5VV3I&assignmentId=3ZY8KE4ISKPFVLNQIAMMPR6IUIFQV4&a=IKYZ8&tp_a=IKYZ8&b=3ZY8KE4ISKPFVLNQIAMMPR6IUIFQV4&tp_b=3ZY8KE4ISKPFVLNQIAMMPR6IUIFQV4&c=365198&tp_c=365198","heads":4,"tails":1,"studentIndex":19,"studentTrueHypers":{"a":4,"b":1},"studentGuess":0.8,"delta":0,"totalExamples":5,"bonusSoFar":4.25},{"rt":6702,"response":{"heads":"4","tails":"1"},"type":"response","condition":"seqFeedback","trueTheta":0.8,"classrooms":["A","B"],"studentTrueClassroom":"B","exampleSet":"second","trial_type":"survey-html-form","trial_index":155,"time_elapsed":1647458,"internal_node_id":"0.0-152.0-0.0","params":{"nStudents":24,"maxFlips":30,"completionMinutes":45,"basePay":8,"maxBonus":9,"perTrialBonus":0.5,"perTrialBonusThreshold":0.1,"exampleCost":0.01},"classroomParams":{"A":{"a":1,"b":4},"B":{"a":4,"b":1},"C":{"a":2,"b":8},"D":{"a":8,"b":2}},"conditions":["nonSeqFull","nonSeqPartial","seqNoFeedback","seqFeedback"],"classroomPairings":[["A","B"],["C","D"]],"coinWeights":[0.2,0.5,0.8],"subjectId":"A2QTL039A5VV3I","assignmentId":"3ZY8KE4ISKPFVLNQIAMMPR6IUIFQV4","hitId":"3QGHA0EA0JM3KKNCY0PQRLYAHJ3BWH","url":"https://gershmanlab.com/experiments/alicia/teaching/experiment/?hitId=3QGHA0EA0JM3KKNCY0PQRLYAHJ3BWH&workerId=A2QTL039A5VV3I&assignmentId=3ZY8KE4ISKPFVLNQIAMMPR6IUIFQV4&a=IKYZ8&tp_a=IKYZ8&b=3ZY8KE4ISKPFVLNQIAMMPR6IUIFQV4&tp_b=3ZY8KE4ISKPFVLNQIAMMPR6IUIFQV4&c=365198&tp_c=365198","firstResponseHeads":4,"firstResponseTails":1,"secondResponseHeads":4,"secondResponseTails":1,"studentIndex":19,"studentTrueHypers":{"a":4,"b":1},"studentGuess":0.8,"delta":0,"bonus":0.4,"bonusSoFar":4.65,"totalExamples":10},{"rt":2949,"response":{"heads":"3","tails":"3"},"type":"response","condition":"seqNoFeedback","trueTheta":0.5,"classrooms":["A","B"],"studentTrueClassroom":"A","exampleSet":"first","trial_type":"survey-html-form","trial_index":161,"time_elapsed":1673099,"internal_node_id":"0.0-158.0-0.0","params":{"nStudents":24,"maxFlips":30,"completionMinutes":45,"basePay":8,"maxBonus":9,"perTrialBonus":0.5,"perTrialBonusThreshold":0.1,"exampleCost":0.01},"classroomParams":{"A":{"a":1,"b":4},"B":{"a":4,"b":1},"C":{"a":2,"b":8},"D":{"a":8,"b":2}},"conditions":["nonSeqFull","nonSeqPartial","seqNoFeedback","seqFeedback"],"classroomPairings":[["A","B"],["C","D"]],"coinWeights":[0.2,0.5,0.8],"subjectId":"A2QTL039A5VV3I","assignmentId":"3ZY8KE4ISKPFVLNQIAMMPR6IUIFQV4","hitId":"3QGHA0EA0JM3KKNCY0PQRLYAHJ3BWH","url":"https://gershmanlab.com/experiments/alicia/teaching/experiment/?hitId=3QGHA0EA0JM3KKNCY0PQRLYAHJ3BWH&workerId=A2QTL039A5VV3I&assignmentId=3ZY8KE4ISKPFVLNQIAMMPR6IUIFQV4&a=IKYZ8&tp_a=IKYZ8&b=3ZY8KE4ISKPFVLNQIAMMPR6IUIFQV4&tp_b=3ZY8KE4ISKPFVLNQIAMMPR6IUIFQV4&c=365198&tp_c=365198","heads":3,"tails":3,"studentIndex":20,"studentTrueHypers":{"a":1,"b":4},"studentGuess":0.36363636363636365,"delta":0.13636363636363635,"totalExamples":6,"bonusSoFar":4.65},{"rt":4582,"response":{"heads":"2","tails":"2"},"type":"response","condition":"seqNoFeedback","trueTheta":0.5,"classrooms":["A","B"],"studentTrueClassroom":"A","exampleSet":"second","trial_type":"survey-html-form","trial_index":164,"time_elapsed":1683943,"internal_node_id":"0.0-161.0-0.0","params":{"nStudents":24,"maxFlips":30,"completionMinutes":45,"basePay":8,"maxBonus":9,"perTrialBonus":0.5,"perTrialBonusThreshold":0.1,"exampleCost":0.01},"classroomParams":{"A":{"a":1,"b":4},"B":{"a":4,"b":1},"C":{"a":2,"b":8},"D":{"a":8,"b":2}},"conditions":["nonSeqFull","nonSeqPartial","seqNoFeedback","seqFeedback"],"classroomPairings":[["A","B"],["C","D"]],"coinWeights":[0.2,0.5,0.8],"subjectId":"A2QTL039A5VV3I","assignmentId":"3ZY8KE4ISKPFVLNQIAMMPR6IUIFQV4","hitId":"3QGHA0EA0JM3KKNCY0PQRLYAHJ3BWH","url":"https://gershmanlab.com/experiments/alicia/teaching/experiment/?hitId=3QGHA0EA0JM3KKNCY0PQRLYAHJ3BWH&workerId=A2QTL039A5VV3I&assignmentId=3ZY8KE4ISKPFVLNQIAMMPR6IUIFQV4&a=IKYZ8&tp_a=IKYZ8&b=3ZY8KE4ISKPFVLNQIAMMPR6IUIFQV4&tp_b=3ZY8KE4ISKPFVLNQIAMMPR6IUIFQV4&c=365198&tp_c=365198","firstResponseHeads":3,"firstResponseTails":3,"secondResponseHeads":2,"secondResponseTails":2,"studentIndex":20,"studentTrueHypers":{"a":1,"b":4},"studentGuess":0.4,"delta":0.09999999999999998,"bonus":0.4,"bonusSoFar":5.05,"totalExamples":10},{"rt":4140,"response":{"heads":"4","tails":"1"},"type":"response","condition":"nonSeqFull","trueTheta":0.8,"classrooms":["A","B"],"studentTrueClassroom":"B","exampleSet":"first","trial_type":"survey-html-form","trial_index":170,"time_elapsed":1708466,"internal_node_id":"0.0-167.0-0.0","params":{"nStudents":24,"maxFlips":30,"completionMinutes":45,"basePay":8,"maxBonus":9,"perTrialBonus":0.5,"perTrialBonusThreshold":0.1,"exampleCost":0.01},"classroomParams":{"A":{"a":1,"b":4},"B":{"a":4,"b":1},"C":{"a":2,"b":8},"D":{"a":8,"b":2}},"conditions":["nonSeqFull","nonSeqPartial","seqNoFeedback","seqFeedback"],"classroomPairings":[["A","B"],["C","D"]],"coinWeights":[0.2,0.5,0.8],"subjectId":"A2QTL039A5VV3I","assignmentId":"3ZY8KE4ISKPFVLNQIAMMPR6IUIFQV4","hitId":"3QGHA0EA0JM3KKNCY0PQRLYAHJ3BWH","url":"https://gershmanlab.com/experiments/alicia/teaching/experiment/?hitId=3QGHA0EA0JM3KKNCY0PQRLYAHJ3BWH&workerId=A2QTL039A5VV3I&assignmentId=3ZY8KE4ISKPFVLNQIAMMPR6IUIFQV4&a=IKYZ8&tp_a=IKYZ8&b=3ZY8KE4ISKPFVLNQIAMMPR6IUIFQV4&tp_b=3ZY8KE4ISKPFVLNQIAMMPR6IUIFQV4&c=365198&tp_c=365198","heads":4,"tails":1,"studentIndex":21,"studentTrueHypers":{"a":4,"b":1},"studentGuess":0.8,"delta":0,"totalExamples":5,"bonus":0.45,"bonusSoFar":5.5},{"rt":3642,"response":{"heads":"1","tails":"3"},"type":"response","condition":"seqFeedback","trueTheta":0.2,"classrooms":["A","B"],"studentTrueClassroom":"A","exampleSet":"first","trial_type":"survey-html-form","trial_index":176,"time_elapsed":1775274,"internal_node_id":"0.0-173.0-0.0","params":{"nStudents":24,"maxFlips":30,"completionMinutes":45,"basePay":8,"maxBonus":9,"perTrialBonus":0.5,"perTrialBonusThreshold":0.1,"exampleCost":0.01},"classroomParams":{"A":{"a":1,"b":4},"B":{"a":4,"b":1},"C":{"a":2,"b":8},"D":{"a":8,"b":2}},"conditions":["nonSeqFull","nonSeqPartial","seqNoFeedback","seqFeedback"],"classroomPairings":[["A","B"],["C","D"]],"coinWeights":[0.2,0.5,0.8],"subjectId":"A2QTL039A5VV3I","assignmentId":"3ZY8KE4ISKPFVLNQIAMMPR6IUIFQV4","hitId":"3QGHA0EA0JM3KKNCY0PQRLYAHJ3BWH","url":"https://gershmanlab.com/experiments/alicia/teaching/experiment/?hitId=3QGHA0EA0JM3KKNCY0PQRLYAHJ3BWH&workerId=A2QTL039A5VV3I&assignmentId=3ZY8KE4ISKPFVLNQIAMMPR6IUIFQV4&a=IKYZ8&tp_a=IKYZ8&b=3ZY8KE4ISKPFVLNQIAMMPR6IUIFQV4&tp_b=3ZY8KE4ISKPFVLNQIAMMPR6IUIFQV4&c=365198&tp_c=365198","heads":1,"tails":3,"studentIndex":22,"studentTrueHypers":{"a":1,"b":4},"studentGuess":0.2222222222222222,"delta":0.0222222222222222,"totalExamples":4,"bonusSoFar":5.5},{"rt":22644,"response":{"heads":"1","tails":"4"},"type":"response","condition":"seqFeedback","trueTheta":0.2,"classrooms":["A","B"],"studentTrueClassroom":"A","exampleSet":"second","trial_type":"survey-html-form","trial_index":180,"time_elapsed":1835440,"internal_node_id":"0.0-177.0-0.0","params":{"nStudents":24,"maxFlips":30,"completionMinutes":45,"basePay":8,"maxBonus":9,"perTrialBonus":0.5,"perTrialBonusThreshold":0.1,"exampleCost":0.01},"classroomParams":{"A":{"a":1,"b":4},"B":{"a":4,"b":1},"C":{"a":2,"b":8},"D":{"a":8,"b":2}},"conditions":["nonSeqFull","nonSeqPartial","seqNoFeedback","seqFeedback"],"classroomPairings":[["A","B"],["C","D"]],"coinWeights":[0.2,0.5,0.8],"subjectId":"A2QTL039A5VV3I","assignmentId":"3ZY8KE4ISKPFVLNQIAMMPR6IUIFQV4","hitId":"3QGHA0EA0JM3KKNCY0PQRLYAHJ3BWH","url":"https://gershmanlab.com/experiments/alicia/teaching/experiment/?hitId=3QGHA0EA0JM3KKNCY0PQRLYAHJ3BWH&workerId=A2QTL039A5VV3I&assignmentId=3ZY8KE4ISKPFVLNQIAMMPR6IUIFQV4&a=IKYZ8&tp_a=IKYZ8&b=3ZY8KE4ISKPFVLNQIAMMPR6IUIFQV4&tp_b=3ZY8KE4ISKPFVLNQIAMMPR6IUIFQV4&c=365198&tp_c=365198","firstResponseHeads":1,"firstResponseTails":3,"secondResponseHeads":1,"secondResponseTails":4,"studentIndex":22,"studentTrueHypers":{"a":1,"b":4},"studentGuess":0.21428571428571427,"delta":0.014285714285714263,"bonus":0.41,"bonusSoFar":5.91,"totalExamples":9},{"rt":7531,"response":{"heads":"4","tails":"1"},"type":"response","condition":"seqNoFeedback","trueTheta":0.8,"classrooms":["C","D"],"studentTrueClassroom":"D","exampleSet":"first","trial_type":"survey-html-form","trial_index":186,"time_elapsed":1889226,"internal_node_id":"0.0-183.0-0.0","params":{"nStudents":24,"maxFlips":30,"completionMinutes":45,"basePay":8,"maxBonus":9,"perTrialBonus":0.5,"perTrialBonusThreshold":0.1,"exampleCost":0.01},"classroomParams":{"A":{"a":1,"b":4},"B":{"a":4,"b":1},"C":{"a":2,"b":8},"D":{"a":8,"b":2}},"conditions":["nonSeqFull","nonSeqPartial","seqNoFeedback","seqFeedback"],"classroomPairings":[["A","B"],["C","D"]],"coinWeights":[0.2,0.5,0.8],"subjectId":"A2QTL039A5VV3I","assignmentId":"3ZY8KE4ISKPFVLNQIAMMPR6IUIFQV4","hitId":"3QGHA0EA0JM3KKNCY0PQRLYAHJ3BWH","url":"https://gershmanlab.com/experiments/alicia/teaching/experiment/?hitId=3QGHA0EA0JM3KKNCY0PQRLYAHJ3BWH&workerId=A2QTL039A5VV3I&assignmentId=3ZY8KE4ISKPFVLNQIAMMPR6IUIFQV4&a=IKYZ8&tp_a=IKYZ8&b=3ZY8KE4ISKPFVLNQIAMMPR6IUIFQV4&tp_b=3ZY8KE4ISKPFVLNQIAMMPR6IUIFQV4&c=365198&tp_c=365198","heads":4,"tails":1,"studentIndex":23,"studentTrueHypers":{"a":8,"b":2},"studentGuess":0.8,"delta":0,"totalExamples":5,"bonusSoFar":5.91},{"rt":18132,"response":{"heads":"3","tails":"1"},"type":"response","condition":"seqNoFeedback","trueTheta":0.8,"classrooms":["C","D"],"studentTrueClassroom":"D","exampleSet":"second","trial_type":"survey-html-form","trial_index":189,"time_elapsed":1914114,"internal_node_id":"0.0-186.0-0.0","params":{"nStudents":24,"maxFlips":30,"completionMinutes":45,"basePay":8,"maxBonus":9,"perTrialBonus":0.5,"perTrialBonusThreshold":0.1,"exampleCost":0.01},"classroomParams":{"A":{"a":1,"b":4},"B":{"a":4,"b":1},"C":{"a":2,"b":8},"D":{"a":8,"b":2}},"conditions":["nonSeqFull","nonSeqPartial","seqNoFeedback","seqFeedback"],"classroomPairings":[["A","B"],["C","D"]],"coinWeights":[0.2,0.5,0.8],"subjectId":"A2QTL039A5VV3I","assignmentId":"3ZY8KE4ISKPFVLNQIAMMPR6IUIFQV4","hitId":"3QGHA0EA0JM3KKNCY0PQRLYAHJ3BWH","url":"https://gershmanlab.com/experiments/alicia/teaching/experiment/?hitId=3QGHA0EA0JM3KKNCY0PQRLYAHJ3BWH&workerId=A2QTL039A5VV3I&assignmentId=3ZY8KE4ISKPFVLNQIAMMPR6IUIFQV4&a=IKYZ8&tp_a=IKYZ8&b=3ZY8KE4ISKPFVLNQIAMMPR6IUIFQV4&tp_b=3ZY8KE4ISKPFVLNQIAMMPR6IUIFQV4&c=365198&tp_c=365198","firstResponseHeads":4,"firstResponseTails":1,"secondResponseHeads":3,"secondResponseTails":1,"studentIndex":23,"studentTrueHypers":{"a":8,"b":2},"studentGuess":0.7894736842105263,"delta":0.010526315789473717,"bonus":0.41,"bonusSoFar":6.32,"totalExamples":9},{"rt":6141,"response":{"gender":"male","age":"31","understood":"yes","comments":""},"type":"response","trial_type":"survey-html-form","trial_index":193,"time_elapsed":1929774,"internal_node_id":"0.0-191.0","params":{"nStudents":24,"maxFlips":30,"completionMinutes":45,"basePay":8,"maxBonus":9,"perTrialBonus":0.5,"perTrialBonusThreshold":0.1,"exampleCost":0.01},"classroomParams":{"A":{"a":1,"b":4},"B":{"a":4,"b":1},"C":{"a":2,"b":8},"D":{"a":8,"b":2}},"conditions":["nonSeqFull","nonSeqPartial","seqNoFeedback","seqFeedback"],"classroomPairings":[["A","B"],["C","D"]],"coinWeights":[0.2,0.5,0.8],"subjectId":"A2QTL039A5VV3I","assignmentId":"3ZY8KE4ISKPFVLNQIAMMPR6IUIFQV4","hitId":"3QGHA0EA0JM3KKNCY0PQRLYAHJ3BWH","url":"https://gershmanlab.com/experiments/alicia/teaching/experiment/?hitId=3QGHA0EA0JM3KKNCY0PQRLYAHJ3BWH&workerId=A2QTL039A5VV3I&assignmentId=3ZY8KE4ISKPFVLNQIAMMPR6IUIFQV4&a=IKYZ8&tp_a=IKYZ8&b=3ZY8KE4ISKPFVLNQIAMMPR6IUIFQV4&tp_b=3ZY8KE4ISKPFVLNQIAMMPR6IUIFQV4&c=365198&tp_c=365198","totalBonus":6.32}]