[{"rt":48836,"response":{"heads":"5","tails":"5"},"type":"response","condition":"seqNoFeedback","trueTheta":0.5,"classrooms":["A","B"],"studentTrueClassroom":"A","exampleSet":"first","trial_type":"survey-html-form","trial_index":7,"time_elapsed":608139,"internal_node_id":"0.0-6.0-0.0","params":{"nStudents":24,"maxFlips":30,"completionMinutes":45,"basePay":8,"maxBonus":9,"perTrialBonus":0.5,"perTrialBonusThreshold":0.1,"exampleCost":0.01},"classroomParams":{"A":{"a":1,"b":4},"B":{"a":4,"b":1},"C":{"a":2,"b":8},"D":{"a":8,"b":2}},"conditions":["nonSeqFull","nonSeqPartial","seqNoFeedback","seqFeedback"],"classroomPairings":[["A","B"],["C","D"]],"coinWeights":[0.2,0.5,0.8],"subjectId":"A2VAL2BRKVSUB5","assignmentId":"3IGI0VL6486Z2411168RQ5H5TEVOND","hitId":"3H6W48L9F4B5OEOMH57RM53ZYNHWPM","url":"https://gershmanlab.com/experiments/alicia/teaching/experiment/?hitId=3H6W48L9F4B5OEOMH57RM53ZYNHWPM&workerId=A2VAL2BRKVSUB5&assignmentId=3IGI0VL6486Z2411168RQ5H5TEVOND&a=60GI8&tp_a=60GI8&b=3IGI0VL6486Z2411168RQ5H5TEVOND&tp_b=3IGI0VL6486Z2411168RQ5H5TEVOND&c=365198&tp_c=365198","heads":5,"tails":5,"studentIndex":0,"studentTrueHypers":{"a":1,"b":4},"studentGuess":0.4,"delta":0.09999999999999998,"totalExamples":10,"bonusSoFar":0},{"rt":24056,"response":{"heads":"10","tails":"10"},"type":"response","condition":"seqNoFeedback","trueTheta":0.5,"classrooms":["A","B"],"studentTrueClassroom":"A","exampleSet":"second","trial_type":"survey-html-form","trial_index":10,"time_elapsed":637721,"internal_node_id":"0.0-9.0-0.0","params":{"nStudents":24,"maxFlips":30,"completionMinutes":45,"basePay":8,"maxBonus":9,"perTrialBonus":0.5,"perTrialBonusThreshold":0.1,"exampleCost":0.01},"classroomParams":{"A":{"a":1,"b":4},"B":{"a":4,"b":1},"C":{"a":2,"b":8},"D":{"a":8,"b":2}},"conditions":["nonSeqFull","nonSeqPartial","seqNoFeedback","seqFeedback"],"classroomPairings":[["A","B"],["C","D"]],"coinWeights":[0.2,0.5,0.8],"subjectId":"A2VAL2BRKVSUB5","assignmentId":"3IGI0VL6486Z2411168RQ5H5TEVOND","hitId":"3H6W48L9F4B5OEOMH57RM53ZYNHWPM","url":"https://gershmanlab.com/experiments/alicia/teaching/experiment/?hitId=3H6W48L9F4B5OEOMH57RM53ZYNHWPM&workerId=A2VAL2BRKVSUB5&assignmentId=3IGI0VL6486Z2411168RQ5H5TEVOND&a=60GI8&tp_a=60GI8&b=3IGI0VL6486Z2411168RQ5H5TEVOND&tp_b=3IGI0VL6486Z2411168RQ5H5TEVOND&c=365198&tp_c=365198","firstResponseHeads":5,"firstResponseTails":5,"secondResponseHeads":10,"secondResponseTails":10,"studentIndex":0,"studentTrueHypers":{"a":1,"b":4},"studentGuess":0.45714285714285713,"delta":0.04285714285714287,"bonus":0.2,"bonusSoFar":0.2,"totalExamples":30},{"rt":23214,"response":{"heads":"10","tails":"2"},"type":"response","condition":"seqNoFeedback","trueTheta":0.8,"classrooms":["C","D"],"studentTrueClassroom":"D","exampleSet":"first","trial_type":"survey-html-form","trial_index":16,"time_elapsed":759873,"internal_node_id":"0.0-15.0-0.0","params":{"nStudents":24,"maxFlips":30,"completionMinutes":45,"basePay":8,"maxBonus":9,"perTrialBonus":0.5,"perTrialBonusThreshold":0.1,"exampleCost":0.01},"classroomParams":{"A":{"a":1,"b":4},"B":{"a":4,"b":1},"C":{"a":2,"b":8},"D":{"a":8,"b":2}},"conditions":["nonSeqFull","nonSeqPartial","seqNoFeedback","seqFeedback"],"classroomPairings":[["A","B"],["C","D"]],"coinWeights":[0.2,0.5,0.8],"subjectId":"A2VAL2BRKVSUB5","assignmentId":"3IGI0VL6486Z2411168RQ5H5TEVOND","hitId":"3H6W48L9F4B5OEOMH57RM53ZYNHWPM","url":"https://gershmanlab.com/experiments/alicia/teaching/experiment/?hitId=3H6W48L9F4B5OEOMH57RM53ZYNHWPM&workerId=A2VAL2BRKVSUB5&assignmentId=3IGI0VL6486Z2411168RQ5H5TEVOND&a=60GI8&tp_a=60GI8&b=3IGI0VL6486Z2411168RQ5H5TEVOND&tp_b=3IGI0VL6486Z2411168RQ5H5TEVOND&c=365198&tp_c=365198","heads":10,"tails":2,"studentIndex":1,"studentTrueHypers":{"a":8,"b":2},"studentGuess":0.8181818181818182,"delta":0.018181818181818188,"totalExamples":12,"bonusSoFar":0.2},{"rt":13216,"response":{"heads":"20","tails":"4"},"type":"response","condition":"seqNoFeedback","trueTheta":0.8,"classrooms":["C","D"],"studentTrueClassroom":"D","exampleSet":"second","trial_type":"survey-html-form","trial_index":19,"time_elapsed":779117,"internal_node_id":"0.0-18.0-0.0","params":{"nStudents":24,"maxFlips":30,"completionMinutes":45,"basePay":8,"maxBonus":9,"perTrialBonus":0.5,"perTrialBonusThreshold":0.1,"exampleCost":0.01},"classroomParams":{"A":{"a":1,"b":4},"B":{"a":4,"b":1},"C":{"a":2,"b":8},"D":{"a":8,"b":2}},"conditions":["nonSeqFull","nonSeqPartial","seqNoFeedback","seqFeedback"],"classroomPairings":[["A","B"],["C","D"]],"coinWeights":[0.2,0.5,0.8],"subjectId":"A2VAL2BRKVSUB5","assignmentId":"3IGI0VL6486Z2411168RQ5H5TEVOND","hitId":"3H6W48L9F4B5OEOMH57RM53ZYNHWPM","url":"https://gershmanlab.com/experiments/alicia/teaching/experiment/?hitId=3H6W48L9F4B5OEOMH57RM53ZYNHWPM&workerId=A2VAL2BRKVSUB5&assignmentId=3IGI0VL6486Z2411168RQ5H5TEVOND&a=60GI8&tp_a=60GI8&b=3IGI0VL6486Z2411168RQ5H5TEVOND&tp_b=3IGI0VL6486Z2411168RQ5H5TEVOND&c=365198&tp_c=365198","firstResponseHeads":10,"firstResponseTails":2,"secondResponseHeads":20,"secondResponseTails":4,"studentIndex":1,"studentTrueHypers":{"a":8,"b":2},"studentGuess":0.8260869565217391,"delta":0.02608695652173909,"bonus":0.14,"bonusSoFar":0.34,"totalExamples":36},{"rt":68390,"response":{"heads":"20","tails":"4"},"type":"response","condition":"nonSeqPartial","trueTheta":0.8,"classrooms":["C","D"],"studentTrueClassroom":"C","exampleSet":"first","trial_type":"survey-html-form","trial_index":25,"time_elapsed":873461,"internal_node_id":"0.0-24.0-0.0","params":{"nStudents":24,"maxFlips":30,"completionMinutes":45,"basePay":8,"maxBonus":9,"perTrialBonus":0.5,"perTrialBonusThreshold":0.1,"exampleCost":0.01},"classroomParams":{"A":{"a":1,"b":4},"B":{"a":4,"b":1},"C":{"a":2,"b":8},"D":{"a":8,"b":2}},"conditions":["nonSeqFull","nonSeqPartial","seqNoFeedback","seqFeedback"],"classroomPairings":[["A","B"],["C","D"]],"coinWeights":[0.2,0.5,0.8],"subjectId":"A2VAL2BRKVSUB5","assignmentId":"3IGI0VL6486Z2411168RQ5H5TEVOND","hitId":"3H6W48L9F4B5OEOMH57RM53ZYNHWPM","url":"https://gershmanlab.com/experiments/alicia/teaching/experiment/?hitId=3H6W48L9F4B5OEOMH57RM53ZYNHWPM&workerId=A2VAL2BRKVSUB5&assignmentId=3IGI0VL6486Z2411168RQ5H5TEVOND&a=60GI8&tp_a=60GI8&b=3IGI0VL6486Z2411168RQ5H5TEVOND&tp_b=3IGI0VL6486Z2411168RQ5H5TEVOND&c=365198&tp_c=365198","heads":20,"tails":4,"studentIndex":2,"studentTrueHypers":{"a":2,"b":8},"studentGuess":0.6470588235294118,"delta":0.15294117647058825,"totalExamples":24,"bonus":0,"bonusSoFar":0.34},{"rt":16059,"response":{"heads":"8","tails":"2"},"type":"response","condition":"nonSeqFull","trueTheta":0.2,"classrooms":["A","B"],"studentTrueClassroom":"A","exampleSet":"first","trial_type":"survey-html-form","trial_index":31,"time_elapsed":906701,"internal_node_id":"0.0-30.0-0.0","params":{"nStudents":24,"maxFlips":30,"completionMinutes":45,"basePay":8,"maxBonus":9,"perTrialBonus":0.5,"perTrialBonusThreshold":0.1,"exampleCost":0.01},"classroomParams":{"A":{"a":1,"b":4},"B":{"a":4,"b":1},"C":{"a":2,"b":8},"D":{"a":8,"b":2}},"conditions":["nonSeqFull","nonSeqPartial","seqNoFeedback","seqFeedback"],"classroomPairings":[["A","B"],["C","D"]],"coinWeights":[0.2,0.5,0.8],"subjectId":"A2VAL2BRKVSUB5","assignmentId":"3IGI0VL6486Z2411168RQ5H5TEVOND","hitId":"3H6W48L9F4B5OEOMH57RM53ZYNHWPM","url":"https://gershmanlab.com/experiments/alicia/teaching/experiment/?hitId=3H6W48L9F4B5OEOMH57RM53ZYNHWPM&workerId=A2VAL2BRKVSUB5&assignmentId=3IGI0VL6486Z2411168RQ5H5TEVOND&a=60GI8&tp_a=60GI8&b=3IGI0VL6486Z2411168RQ5H5TEVOND&tp_b=3IGI0VL6486Z2411168RQ5H5TEVOND&c=365198&tp_c=365198","heads":8,"tails":2,"studentIndex":3,"studentTrueHypers":{"a":1,"b":4},"studentGuess":0.6,"delta":0.39999999999999997,"totalExamples":10,"bonus":0,"bonusSoFar":0.34},{"rt":8858,"response":{"heads":"20","tails":"20"},"type":"response","condition":"seqFeedback","trueTheta":0.5,"classrooms":["A","B"],"studentTrueClassroom":"A","exampleSet":"first","trial_type":"survey-html-form","trial_index":37,"time_elapsed":933109,"internal_node_id":"0.0-36.0-0.0","params":{"nStudents":24,"maxFlips":30,"completionMinutes":45,"basePay":8,"maxBonus":9,"perTrialBonus":0.5,"perTrialBonusThreshold":0.1,"exampleCost":0.01},"classroomParams":{"A":{"a":1,"b":4},"B":{"a":4,"b":1},"C":{"a":2,"b":8},"D":{"a":8,"b":2}},"conditions":["nonSeqFull","nonSeqPartial","seqNoFeedback","seqFeedback"],"classroomPairings":[["A","B"],["C","D"]],"coinWeights":[0.2,0.5,0.8],"subjectId":"A2VAL2BRKVSUB5","assignmentId":"3IGI0VL6486Z2411168RQ5H5TEVOND","hitId":"3H6W48L9F4B5OEOMH57RM53ZYNHWPM","url":"https://gershmanlab.com/experiments/alicia/teaching/experiment/?hitId=3H6W48L9F4B5OEOMH57RM53ZYNHWPM&workerId=A2VAL2BRKVSUB5&assignmentId=3IGI0VL6486Z2411168RQ5H5TEVOND&a=60GI8&tp_a=60GI8&b=3IGI0VL6486Z2411168RQ5H5TEVOND&tp_b=3IGI0VL6486Z2411168RQ5H5TEVOND&c=365198&tp_c=365198","heads":20,"tails":20,"studentIndex":4,"studentTrueHypers":{"a":1,"b":4},"studentGuess":0.4666666666666667,"delta":0.033333333333333326,"totalExamples":40,"bonusSoFar":0.34},{"rt":13781,"response":{"heads":"30","tails":"30"},"type":"response","condition":"seqFeedback","trueTheta":0.5,"classrooms":["A","B"],"studentTrueClassroom":"A","exampleSet":"first","trial_type":"survey-html-form","trial_index":38,"time_elapsed":946894,"internal_node_id":"0.0-36.1-0.1","params":{"nStudents":24,"maxFlips":30,"completionMinutes":45,"basePay":8,"maxBonus":9,"perTrialBonus":0.5,"perTrialBonusThreshold":0.1,"exampleCost":0.01},"classroomParams":{"A":{"a":1,"b":4},"B":{"a":4,"b":1},"C":{"a":2,"b":8},"D":{"a":8,"b":2}},"conditions":["nonSeqFull","nonSeqPartial","seqNoFeedback","seqFeedback"],"classroomPairings":[["A","B"],["C","D"]],"coinWeights":[0.2,0.5,0.8],"subjectId":"A2VAL2BRKVSUB5","assignmentId":"3IGI0VL6486Z2411168RQ5H5TEVOND","hitId":"3H6W48L9F4B5OEOMH57RM53ZYNHWPM","url":"https://gershmanlab.com/experiments/alicia/teaching/experiment/?hitId=3H6W48L9F4B5OEOMH57RM53ZYNHWPM&workerId=A2VAL2BRKVSUB5&assignmentId=3IGI0VL6486Z2411168RQ5H5TEVOND&a=60GI8&tp_a=60GI8&b=3IGI0VL6486Z2411168RQ5H5TEVOND&tp_b=3IGI0VL6486Z2411168RQ5H5TEVOND&c=365198&tp_c=365198","heads":30,"tails":30,"studentIndex":4,"studentTrueHypers":{"a":1,"b":4},"studentGuess":0.47692307692307695,"delta":0.02307692307692305,"totalExamples":60,"bonusSoFar":0.34},{"rt":15028,"response":{"heads":"10","tails":"10"},"type":"response","condition":"seqFeedback","trueTheta":0.5,"classrooms":["A","B"],"studentTrueClassroom":"A","exampleSet":"first","trial_type":"survey-html-form","trial_index":39,"time_elapsed":961927,"internal_node_id":"0.0-36.2-0.2","params":{"nStudents":24,"maxFlips":30,"completionMinutes":45,"basePay":8,"maxBonus":9,"perTrialBonus":0.5,"perTrialBonusThreshold":0.1,"exampleCost":0.01},"classroomParams":{"A":{"a":1,"b":4},"B":{"a":4,"b":1},"C":{"a":2,"b":8},"D":{"a":8,"b":2}},"conditions":["nonSeqFull","nonSeqPartial","seqNoFeedback","seqFeedback"],"classroomPairings":[["A","B"],["C","D"]],"coinWeights":[0.2,0.5,0.8],"subjectId":"A2VAL2BRKVSUB5","assignmentId":"3IGI0VL6486Z2411168RQ5H5TEVOND","hitId":"3H6W48L9F4B5OEOMH57RM53ZYNHWPM","url":"https://gershmanlab.com/experiments/alicia/teaching/experiment/?hitId=3H6W48L9F4B5OEOMH57RM53ZYNHWPM&workerId=A2VAL2BRKVSUB5&assignmentId=3IGI0VL6486Z2411168RQ5H5TEVOND&a=60GI8&tp_a=60GI8&b=3IGI0VL6486Z2411168RQ5H5TEVOND&tp_b=3IGI0VL6486Z2411168RQ5H5TEVOND&c=365198&tp_c=365198","heads":10,"tails":10,"studentIndex":4,"studentTrueHypers":{"a":1,"b":4},"studentGuess":0.44,"delta":0.06,"totalExamples":20,"bonusSoFar":0.34},{"rt":7936,"response":{"heads":"15","tails":"15"},"type":"response","condition":"seqFeedback","trueTheta":0.5,"classrooms":["A","B"],"studentTrueClassroom":"A","exampleSet":"second","trial_type":"survey-html-form","trial_index":43,"time_elapsed":981921,"internal_node_id":"0.0-40.0-0.0","params":{"nStudents":24,"maxFlips":30,"completionMinutes":45,"basePay":8,"maxBonus":9,"perTrialBonus":0.5,"perTrialBonusThreshold":0.1,"exampleCost":0.01},"classroomParams":{"A":{"a":1,"b":4},"B":{"a":4,"b":1},"C":{"a":2,"b":8},"D":{"a":8,"b":2}},"conditions":["nonSeqFull","nonSeqPartial","seqNoFeedback","seqFeedback"],"classroomPairings":[["A","B"],["C","D"]],"coinWeights":[0.2,0.5,0.8],"subjectId":"A2VAL2BRKVSUB5","assignmentId":"3IGI0VL6486Z2411168RQ5H5TEVOND","hitId":"3H6W48L9F4B5OEOMH57RM53ZYNHWPM","url":"https://gershmanlab.com/experiments/alicia/teaching/experiment/?hitId=3H6W48L9F4B5OEOMH57RM53ZYNHWPM&workerId=A2VAL2BRKVSUB5&assignmentId=3IGI0VL6486Z2411168RQ5H5TEVOND&a=60GI8&tp_a=60GI8&b=3IGI0VL6486Z2411168RQ5H5TEVOND&tp_b=3IGI0VL6486Z2411168RQ5H5TEVOND&c=365198&tp_c=365198","firstResponseHeads":20,"firstResponseTails":20,"secondResponseHeads":15,"secondResponseTails":15,"studentIndex":4,"studentTrueHypers":{"a":1,"b":4},"studentGuess":0.48,"delta":0.020000000000000018,"bonus":0,"bonusSoFar":0.34,"totalExamples":70},{"rt":25346,"response":{"heads":"4","tails":"16"},"type":"response","condition":"nonSeqPartial","trueTheta":0.2,"classrooms":["C","D"],"studentTrueClassroom":"C","exampleSet":"first","trial_type":"survey-html-form","trial_index":49,"time_elapsed":1026735,"internal_node_id":"0.0-46.0-0.0","params":{"nStudents":24,"maxFlips":30,"completionMinutes":45,"basePay":8,"maxBonus":9,"perTrialBonus":0.5,"perTrialBonusThreshold":0.1,"exampleCost":0.01},"classroomParams":{"A":{"a":1,"b":4},"B":{"a":4,"b":1},"C":{"a":2,"b":8},"D":{"a":8,"b":2}},"conditions":["nonSeqFull","nonSeqPartial","seqNoFeedback","seqFeedback"],"classroomPairings":[["A","B"],["C","D"]],"coinWeights":[0.2,0.5,0.8],"subjectId":"A2VAL2BRKVSUB5","assignmentId":"3IGI0VL6486Z2411168RQ5H5TEVOND","hitId":"3H6W48L9F4B5OEOMH57RM53ZYNHWPM","url":"https://gershmanlab.com/experiments/alicia/teaching/experiment/?hitId=3H6W48L9F4B5OEOMH57RM53ZYNHWPM&workerId=A2VAL2BRKVSUB5&assignmentId=3IGI0VL6486Z2411168RQ5H5TEVOND&a=60GI8&tp_a=60GI8&b=3IGI0VL6486Z2411168RQ5H5TEVOND&tp_b=3IGI0VL6486Z2411168RQ5H5TEVOND&c=365198&tp_c=365198","heads":4,"tails":16,"studentIndex":5,"studentTrueHypers":{"a":2,"b":8},"studentGuess":0.2,"delta":0,"totalExamples":20,"bonus":0.3,"bonusSoFar":0.64},{"rt":11246,"response":{"heads":"2","tails":"8"},"type":"response","condition":"seqNoFeedback","trueTheta":0.2,"classrooms":["C","D"],"studentTrueClassroom":"C","exampleSet":"first","trial_type":"survey-html-form","trial_index":55,"time_elapsed":1057101,"internal_node_id":"0.0-52.0-0.0","params":{"nStudents":24,"maxFlips":30,"completionMinutes":45,"basePay":8,"maxBonus":9,"perTrialBonus":0.5,"perTrialBonusThreshold":0.1,"exampleCost":0.01},"classroomParams":{"A":{"a":1,"b":4},"B":{"a":4,"b":1},"C":{"a":2,"b":8},"D":{"a":8,"b":2}},"conditions":["nonSeqFull","nonSeqPartial","seqNoFeedback","seqFeedback"],"classroomPairings":[["A","B"],["C","D"]],"coinWeights":[0.2,0.5,0.8],"subjectId":"A2VAL2BRKVSUB5","assignmentId":"3IGI0VL6486Z2411168RQ5H5TEVOND","hitId":"3H6W48L9F4B5OEOMH57RM53ZYNHWPM","url":"https://gershmanlab.com/experiments/alicia/teaching/experiment/?hitId=3H6W48L9F4B5OEOMH57RM53ZYNHWPM&workerId=A2VAL2BRKVSUB5&assignmentId=3IGI0VL6486Z2411168RQ5H5TEVOND&a=60GI8&tp_a=60GI8&b=3IGI0VL6486Z2411168RQ5H5TEVOND&tp_b=3IGI0VL6486Z2411168RQ5H5TEVOND&c=365198&tp_c=365198","heads":2,"tails":8,"studentIndex":6,"studentTrueHypers":{"a":2,"b":8},"studentGuess":0.2,"delta":0,"totalExamples":10,"bonusSoFar":0.64},{"rt":9517,"response":{"heads":"4","tails":"16"},"type":"response","condition":"seqNoFeedback","trueTheta":0.2,"classrooms":["C","D"],"studentTrueClassroom":"C","exampleSet":"second","trial_type":"survey-html-form","trial_index":58,"time_elapsed":1071892,"internal_node_id":"0.0-55.0-0.0","params":{"nStudents":24,"maxFlips":30,"completionMinutes":45,"basePay":8,"maxBonus":9,"perTrialBonus":0.5,"perTrialBonusThreshold":0.1,"exampleCost":0.01},"classroomParams":{"A":{"a":1,"b":4},"B":{"a":4,"b":1},"C":{"a":2,"b":8},"D":{"a":8,"b":2}},"conditions":["nonSeqFull","nonSeqPartial","seqNoFeedback","seqFeedback"],"classroomPairings":[["A","B"],["C","D"]],"coinWeights":[0.2,0.5,0.8],"subjectId":"A2VAL2BRKVSUB5","assignmentId":"3IGI0VL6486Z2411168RQ5H5TEVOND","hitId":"3H6W48L9F4B5OEOMH57RM53ZYNHWPM","url":"https://gershmanlab.com/experiments/alicia/teaching/experiment/?hitId=3H6W48L9F4B5OEOMH57RM53ZYNHWPM&workerId=A2VAL2BRKVSUB5&assignmentId=3IGI0VL6486Z2411168RQ5H5TEVOND&a=60GI8&tp_a=60GI8&b=3IGI0VL6486Z2411168RQ5H5TEVOND&tp_b=3IGI0VL6486Z2411168RQ5H5TEVOND&c=365198&tp_c=365198","firstResponseHeads":2,"firstResponseTails":8,"secondResponseHeads":4,"secondResponseTails":16,"studentIndex":6,"studentTrueHypers":{"a":2,"b":8},"studentGuess":0.2,"delta":0,"bonus":0.2,"bonusSoFar":0.84,"totalExamples":30},{"rt":7105,"response":{"heads":"4","tails":"16"},"type":"response","condition":"nonSeqFull","trueTheta":0.2,"classrooms":["C","D"],"studentTrueClassroom":"D","exampleSet":"first","trial_type":"survey-html-form","trial_index":64,"time_elapsed":1096754,"internal_node_id":"0.0-61.0-0.0","params":{"nStudents":24,"maxFlips":30,"completionMinutes":45,"basePay":8,"maxBonus":9,"perTrialBonus":0.5,"perTrialBonusThreshold":0.1,"exampleCost":0.01},"classroomParams":{"A":{"a":1,"b":4},"B":{"a":4,"b":1},"C":{"a":2,"b":8},"D":{"a":8,"b":2}},"conditions":["nonSeqFull","nonSeqPartial","seqNoFeedback","seqFeedback"],"classroomPairings":[["A","B"],["C","D"]],"coinWeights":[0.2,0.5,0.8],"subjectId":"A2VAL2BRKVSUB5","assignmentId":"3IGI0VL6486Z2411168RQ5H5TEVOND","hitId":"3H6W48L9F4B5OEOMH57RM53ZYNHWPM","url":"https://gershmanlab.com/experiments/alicia/teaching/experiment/?hitId=3H6W48L9F4B5OEOMH57RM53ZYNHWPM&workerId=A2VAL2BRKVSUB5&assignmentId=3IGI0VL6486Z2411168RQ5H5TEVOND&a=60GI8&tp_a=60GI8&b=3IGI0VL6486Z2411168RQ5H5TEVOND&tp_b=3IGI0VL6486Z2411168RQ5H5TEVOND&c=365198&tp_c=365198","heads":4,"tails":16,"studentIndex":7,"studentTrueHypers":{"a":8,"b":2},"studentGuess":0.4,"delta":0.2,"totalExamples":20,"bonus":0,"bonusSoFar":0.84},{"rt":21953,"response":{"heads":"4","tails":"16"},"type":"response","condition":"nonSeqPartial","trueTheta":0.2,"classrooms":["A","B"],"studentTrueClassroom":"A","exampleSet":"first","trial_type":"survey-html-form","trial_index":70,"time_elapsed":1135645,"internal_node_id":"0.0-67.0-0.0","params":{"nStudents":24,"maxFlips":30,"completionMinutes":45,"basePay":8,"maxBonus":9,"perTrialBonus":0.5,"perTrialBonusThreshold":0.1,"exampleCost":0.01},"classroomParams":{"A":{"a":1,"b":4},"B":{"a":4,"b":1},"C":{"a":2,"b":8},"D":{"a":8,"b":2}},"conditions":["nonSeqFull","nonSeqPartial","seqNoFeedback","seqFeedback"],"classroomPairings":[["A","B"],["C","D"]],"coinWeights":[0.2,0.5,0.8],"subjectId":"A2VAL2BRKVSUB5","assignmentId":"3IGI0VL6486Z2411168RQ5H5TEVOND","hitId":"3H6W48L9F4B5OEOMH57RM53ZYNHWPM","url":"https://gershmanlab.com/experiments/alicia/teaching/experiment/?hitId=3H6W48L9F4B5OEOMH57RM53ZYNHWPM&workerId=A2VAL2BRKVSUB5&assignmentId=3IGI0VL6486Z2411168RQ5H5TEVOND&a=60GI8&tp_a=60GI8&b=3IGI0VL6486Z2411168RQ5H5TEVOND&tp_b=3IGI0VL6486Z2411168RQ5H5TEVOND&c=365198&tp_c=365198","heads":4,"tails":16,"studentIndex":8,"studentTrueHypers":{"a":1,"b":4},"studentGuess":0.2,"delta":0,"totalExamples":20,"bonus":0.3,"bonusSoFar":1.14},{"rt":6952,"response":{"heads":"2","tails":"8"},"type":"response","condition":"seqFeedback","trueTheta":0.2,"classrooms":["C","D"],"studentTrueClassroom":"C","exampleSet":"first","trial_type":"survey-html-form","trial_index":76,"time_elapsed":1158987,"internal_node_id":"0.0-73.0-0.0","params":{"nStudents":24,"maxFlips":30,"completionMinutes":45,"basePay":8,"maxBonus":9,"perTrialBonus":0.5,"perTrialBonusThreshold":0.1,"exampleCost":0.01},"classroomParams":{"A":{"a":1,"b":4},"B":{"a":4,"b":1},"C":{"a":2,"b":8},"D":{"a":8,"b":2}},"conditions":["nonSeqFull","nonSeqPartial","seqNoFeedback","seqFeedback"],"classroomPairings":[["A","B"],["C","D"]],"coinWeights":[0.2,0.5,0.8],"subjectId":"A2VAL2BRKVSUB5","assignmentId":"3IGI0VL6486Z2411168RQ5H5TEVOND","hitId":"3H6W48L9F4B5OEOMH57RM53ZYNHWPM","url":"https://gershmanlab.com/experiments/alicia/teaching/experiment/?hitId=3H6W48L9F4B5OEOMH57RM53ZYNHWPM&workerId=A2VAL2BRKVSUB5&assignmentId=3IGI0VL6486Z2411168RQ5H5TEVOND&a=60GI8&tp_a=60GI8&b=3IGI0VL6486Z2411168RQ5H5TEVOND&tp_b=3IGI0VL6486Z2411168RQ5H5TEVOND&c=365198&tp_c=365198","heads":2,"tails":8,"studentIndex":9,"studentTrueHypers":{"a":2,"b":8},"studentGuess":0.2,"delta":0,"totalExamples":10,"bonusSoFar":1.14},{"rt":10038,"response":{"heads":"4","tails":"16"},"type":"response","condition":"seqFeedback","trueTheta":0.2,"classrooms":["C","D"],"studentTrueClassroom":"C","exampleSet":"second","trial_type":"survey-html-form","trial_index":80,"time_elapsed":1179502,"internal_node_id":"0.0-77.0-0.0","params":{"nStudents":24,"maxFlips":30,"completionMinutes":45,"basePay":8,"maxBonus":9,"perTrialBonus":0.5,"perTrialBonusThreshold":0.1,"exampleCost":0.01},"classroomParams":{"A":{"a":1,"b":4},"B":{"a":4,"b":1},"C":{"a":2,"b":8},"D":{"a":8,"b":2}},"conditions":["nonSeqFull","nonSeqPartial","seqNoFeedback","seqFeedback"],"classroomPairings":[["A","B"],["C","D"]],"coinWeights":[0.2,0.5,0.8],"subjectId":"A2VAL2BRKVSUB5","assignmentId":"3IGI0VL6486Z2411168RQ5H5TEVOND","hitId":"3H6W48L9F4B5OEOMH57RM53ZYNHWPM","url":"https://gershmanlab.com/experiments/alicia/teaching/experiment/?hitId=3H6W48L9F4B5OEOMH57RM53ZYNHWPM&workerId=A2VAL2BRKVSUB5&assignmentId=3IGI0VL6486Z2411168RQ5H5TEVOND&a=60GI8&tp_a=60GI8&b=3IGI0VL6486Z2411168RQ5H5TEVOND&tp_b=3IGI0VL6486Z2411168RQ5H5TEVOND&c=365198&tp_c=365198","firstResponseHeads":2,"firstResponseTails":8,"secondResponseHeads":4,"secondResponseTails":16,"studentIndex":9,"studentTrueHypers":{"a":2,"b":8},"studentGuess":0.2,"delta":0,"bonus":0.2,"bonusSoFar":1.34,"totalExamples":30},{"rt":6656,"response":{"heads":"2","tails":"8"},"type":"response","condition":"seqFeedback","trueTheta":0.2,"classrooms":["A","B"],"studentTrueClassroom":"B","exampleSet":"first","trial_type":"survey-html-form","trial_index":86,"time_elapsed":1208901,"internal_node_id":"0.0-83.0-0.0","params":{"nStudents":24,"maxFlips":30,"completionMinutes":45,"basePay":8,"maxBonus":9,"perTrialBonus":0.5,"perTrialBonusThreshold":0.1,"exampleCost":0.01},"classroomParams":{"A":{"a":1,"b":4},"B":{"a":4,"b":1},"C":{"a":2,"b":8},"D":{"a":8,"b":2}},"conditions":["nonSeqFull","nonSeqPartial","seqNoFeedback","seqFeedback"],"classroomPairings":[["A","B"],["C","D"]],"coinWeights":[0.2,0.5,0.8],"subjectId":"A2VAL2BRKVSUB5","assignmentId":"3IGI0VL6486Z2411168RQ5H5TEVOND","hitId":"3H6W48L9F4B5OEOMH57RM53ZYNHWPM","url":"https://gershmanlab.com/experiments/alicia/teaching/experiment/?hitId=3H6W48L9F4B5OEOMH57RM53ZYNHWPM&workerId=A2VAL2BRKVSUB5&assignmentId=3IGI0VL6486Z2411168RQ5H5TEVOND&a=60GI8&tp_a=60GI8&b=3IGI0VL6486Z2411168RQ5H5TEVOND&tp_b=3IGI0VL6486Z2411168RQ5H5TEVOND&c=365198&tp_c=365198","heads":2,"tails":8,"studentIndex":10,"studentTrueHypers":{"a":4,"b":1},"studentGuess":0.4,"delta":0.2,"totalExamples":10,"bonusSoFar":1.34},{"rt":101756,"response":{"heads":"0","tails":"19"},"type":"response","condition":"seqFeedback","trueTheta":0.2,"classrooms":["A","B"],"studentTrueClassroom":"B","exampleSet":"second","trial_type":"survey-html-form","trial_index":90,"time_elapsed":1326310,"internal_node_id":"0.0-87.0-0.0","params":{"nStudents":24,"maxFlips":30,"completionMinutes":45,"basePay":8,"maxBonus":9,"perTrialBonus":0.5,"perTrialBonusThreshold":0.1,"exampleCost":0.01},"classroomParams":{"A":{"a":1,"b":4},"B":{"a":4,"b":1},"C":{"a":2,"b":8},"D":{"a":8,"b":2}},"conditions":["nonSeqFull","nonSeqPartial","seqNoFeedback","seqFeedback"],"classroomPairings":[["A","B"],["C","D"]],"coinWeights":[0.2,0.5,0.8],"subjectId":"A2VAL2BRKVSUB5","assignmentId":"3IGI0VL6486Z2411168RQ5H5TEVOND","hitId":"3H6W48L9F4B5OEOMH57RM53ZYNHWPM","url":"https://gershmanlab.com/experiments/alicia/teaching/experiment/?hitId=3H6W48L9F4B5OEOMH57RM53ZYNHWPM&workerId=A2VAL2BRKVSUB5&assignmentId=3IGI0VL6486Z2411168RQ5H5TEVOND&a=60GI8&tp_a=60GI8&b=3IGI0VL6486Z2411168RQ5H5TEVOND&tp_b=3IGI0VL6486Z2411168RQ5H5TEVOND&c=365198&tp_c=365198","firstResponseHeads":2,"firstResponseTails":8,"secondResponseHeads":0,"secondResponseTails":19,"studentIndex":10,"studentTrueHypers":{"a":4,"b":1},"studentGuess":0.17647058823529413,"delta":0.023529411764705882,"bonus":0.21,"bonusSoFar":1.55,"totalExamples":29},{"rt":10872,"response":{"heads":"10","tails":"10"},"type":"response","condition":"seqFeedback","trueTheta":0.5,"classrooms":["C","D"],"studentTrueClassroom":"C","exampleSet":"first","trial_type":"survey-html-form","trial_index":96,"time_elapsed":1368139,"internal_node_id":"0.0-93.0-0.0","params":{"nStudents":24,"maxFlips":30,"completionMinutes":45,"basePay":8,"maxBonus":9,"perTrialBonus":0.5,"perTrialBonusThreshold":0.1,"exampleCost":0.01},"classroomParams":{"A":{"a":1,"b":4},"B":{"a":4,"b":1},"C":{"a":2,"b":8},"D":{"a":8,"b":2}},"conditions":["nonSeqFull","nonSeqPartial","seqNoFeedback","seqFeedback"],"classroomPairings":[["A","B"],["C","D"]],"coinWeights":[0.2,0.5,0.8],"subjectId":"A2VAL2BRKVSUB5","assignmentId":"3IGI0VL6486Z2411168RQ5H5TEVOND","hitId":"3H6W48L9F4B5OEOMH57RM53ZYNHWPM","url":"https://gershmanlab.com/experiments/alicia/teaching/experiment/?hitId=3H6W48L9F4B5OEOMH57RM53ZYNHWPM&workerId=A2VAL2BRKVSUB5&assignmentId=3IGI0VL6486Z2411168RQ5H5TEVOND&a=60GI8&tp_a=60GI8&b=3IGI0VL6486Z2411168RQ5H5TEVOND&tp_b=3IGI0VL6486Z2411168RQ5H5TEVOND&c=365198&tp_c=365198","heads":10,"tails":10,"studentIndex":11,"studentTrueHypers":{"a":2,"b":8},"studentGuess":0.4,"delta":0.09999999999999998,"totalExamples":20,"bonusSoFar":1.55},{"rt":53728,"response":{"heads":"15","tails":"12"},"type":"response","condition":"seqFeedback","trueTheta":0.5,"classrooms":["C","D"],"studentTrueClassroom":"C","exampleSet":"second","trial_type":"survey-html-form","trial_index":100,"time_elapsed":1432350,"internal_node_id":"0.0-97.0-0.0","params":{"nStudents":24,"maxFlips":30,"completionMinutes":45,"basePay":8,"maxBonus":9,"perTrialBonus":0.5,"perTrialBonusThreshold":0.1,"exampleCost":0.01},"classroomParams":{"A":{"a":1,"b":4},"B":{"a":4,"b":1},"C":{"a":2,"b":8},"D":{"a":8,"b":2}},"conditions":["nonSeqFull","nonSeqPartial","seqNoFeedback","seqFeedback"],"classroomPairings":[["A","B"],["C","D"]],"coinWeights":[0.2,0.5,0.8],"subjectId":"A2VAL2BRKVSUB5","assignmentId":"3IGI0VL6486Z2411168RQ5H5TEVOND","hitId":"3H6W48L9F4B5OEOMH57RM53ZYNHWPM","url":"https://gershmanlab.com/experiments/alicia/teaching/experiment/?hitId=3H6W48L9F4B5OEOMH57RM53ZYNHWPM&workerId=A2VAL2BRKVSUB5&assignmentId=3IGI0VL6486Z2411168RQ5H5TEVOND&a=60GI8&tp_a=60GI8&b=3IGI0VL6486Z2411168RQ5H5TEVOND&tp_b=3IGI0VL6486Z2411168RQ5H5TEVOND&c=365198&tp_c=365198","firstResponseHeads":10,"firstResponseTails":10,"secondResponseHeads":15,"secondResponseTails":12,"studentIndex":11,"studentTrueHypers":{"a":2,"b":8},"studentGuess":0.47368421052631576,"delta":0.026315789473684237,"bonus":0.03,"bonusSoFar":1.58,"totalExamples":47},{"rt":8194,"response":{"heads":"8","tails":"2"},"type":"response","condition":"seqNoFeedback","trueTheta":0.8,"classrooms":["A","B"],"studentTrueClassroom":"A","exampleSet":"first","trial_type":"survey-html-form","trial_index":106,"time_elapsed":1465493,"internal_node_id":"0.0-103.0-0.0","params":{"nStudents":24,"maxFlips":30,"completionMinutes":45,"basePay":8,"maxBonus":9,"perTrialBonus":0.5,"perTrialBonusThreshold":0.1,"exampleCost":0.01},"classroomParams":{"A":{"a":1,"b":4},"B":{"a":4,"b":1},"C":{"a":2,"b":8},"D":{"a":8,"b":2}},"conditions":["nonSeqFull","nonSeqPartial","seqNoFeedback","seqFeedback"],"classroomPairings":[["A","B"],["C","D"]],"coinWeights":[0.2,0.5,0.8],"subjectId":"A2VAL2BRKVSUB5","assignmentId":"3IGI0VL6486Z2411168RQ5H5TEVOND","hitId":"3H6W48L9F4B5OEOMH57RM53ZYNHWPM","url":"https://gershmanlab.com/experiments/alicia/teaching/experiment/?hitId=3H6W48L9F4B5OEOMH57RM53ZYNHWPM&workerId=A2VAL2BRKVSUB5&assignmentId=3IGI0VL6486Z2411168RQ5H5TEVOND&a=60GI8&tp_a=60GI8&b=3IGI0VL6486Z2411168RQ5H5TEVOND&tp_b=3IGI0VL6486Z2411168RQ5H5TEVOND&c=365198&tp_c=365198","heads":8,"tails":2,"studentIndex":12,"studentTrueHypers":{"a":1,"b":4},"studentGuess":0.6,"delta":0.20000000000000007,"totalExamples":10,"bonusSoFar":1.58},{"rt":20985,"response":{"heads":"16","tails":"4"},"type":"response","condition":"seqNoFeedback","trueTheta":0.8,"classrooms":["A","B"],"studentTrueClassroom":"A","exampleSet":"second","trial_type":"survey-html-form","trial_index":109,"time_elapsed":1492248,"internal_node_id":"0.0-106.0-0.0","params":{"nStudents":24,"maxFlips":30,"completionMinutes":45,"basePay":8,"maxBonus":9,"perTrialBonus":0.5,"perTrialBonusThreshold":0.1,"exampleCost":0.01},"classroomParams":{"A":{"a":1,"b":4},"B":{"a":4,"b":1},"C":{"a":2,"b":8},"D":{"a":8,"b":2}},"conditions":["nonSeqFull","nonSeqPartial","seqNoFeedback","seqFeedback"],"classroomPairings":[["A","B"],["C","D"]],"coinWeights":[0.2,0.5,0.8],"subjectId":"A2VAL2BRKVSUB5","assignmentId":"3IGI0VL6486Z2411168RQ5H5TEVOND","hitId":"3H6W48L9F4B5OEOMH57RM53ZYNHWPM","url":"https://gershmanlab.com/experiments/alicia/teaching/experiment/?hitId=3H6W48L9F4B5OEOMH57RM53ZYNHWPM&workerId=A2VAL2BRKVSUB5&assignmentId=3IGI0VL6486Z2411168RQ5H5TEVOND&a=60GI8&tp_a=60GI8&b=3IGI0VL6486Z2411168RQ5H5TEVOND&tp_b=3IGI0VL6486Z2411168RQ5H5TEVOND&c=365198&tp_c=365198","firstResponseHeads":8,"firstResponseTails":2,"secondResponseHeads":16,"secondResponseTails":4,"studentIndex":12,"studentTrueHypers":{"a":1,"b":4},"studentGuess":0.7142857142857143,"delta":0.08571428571428574,"bonus":0.2,"bonusSoFar":1.78,"totalExamples":30},{"rt":6764,"response":{"heads":"2","tails":"8"},"type":"response","condition":"seqNoFeedback","trueTheta":0.2,"classrooms":["A","B"],"studentTrueClassroom":"A","exampleSet":"first","trial_type":"survey-html-form","trial_index":115,"time_elapsed":1514667,"internal_node_id":"0.0-112.0-0.0","params":{"nStudents":24,"maxFlips":30,"completionMinutes":45,"basePay":8,"maxBonus":9,"perTrialBonus":0.5,"perTrialBonusThreshold":0.1,"exampleCost":0.01},"classroomParams":{"A":{"a":1,"b":4},"B":{"a":4,"b":1},"C":{"a":2,"b":8},"D":{"a":8,"b":2}},"conditions":["nonSeqFull","nonSeqPartial","seqNoFeedback","seqFeedback"],"classroomPairings":[["A","B"],["C","D"]],"coinWeights":[0.2,0.5,0.8],"subjectId":"A2VAL2BRKVSUB5","assignmentId":"3IGI0VL6486Z2411168RQ5H5TEVOND","hitId":"3H6W48L9F4B5OEOMH57RM53ZYNHWPM","url":"https://gershmanlab.com/experiments/alicia/teaching/experiment/?hitId=3H6W48L9F4B5OEOMH57RM53ZYNHWPM&workerId=A2VAL2BRKVSUB5&assignmentId=3IGI0VL6486Z2411168RQ5H5TEVOND&a=60GI8&tp_a=60GI8&b=3IGI0VL6486Z2411168RQ5H5TEVOND&tp_b=3IGI0VL6486Z2411168RQ5H5TEVOND&c=365198&tp_c=365198","heads":2,"tails":8,"studentIndex":13,"studentTrueHypers":{"a":1,"b":4},"studentGuess":0.2,"delta":0,"totalExamples":10,"bonusSoFar":1.78},{"rt":13245,"response":{"heads":"4","tails":"16"},"type":"response","condition":"seqNoFeedback","trueTheta":0.2,"classrooms":["A","B"],"studentTrueClassroom":"A","exampleSet":"second","trial_type":"survey-html-form","trial_index":118,"time_elapsed":1534675,"internal_node_id":"0.0-115.0-0.0","params":{"nStudents":24,"maxFlips":30,"completionMinutes":45,"basePay":8,"maxBonus":9,"perTrialBonus":0.5,"perTrialBonusThreshold":0.1,"exampleCost":0.01},"classroomParams":{"A":{"a":1,"b":4},"B":{"a":4,"b":1},"C":{"a":2,"b":8},"D":{"a":8,"b":2}},"conditions":["nonSeqFull","nonSeqPartial","seqNoFeedback","seqFeedback"],"classroomPairings":[["A","B"],["C","D"]],"coinWeights":[0.2,0.5,0.8],"subjectId":"A2VAL2BRKVSUB5","assignmentId":"3IGI0VL6486Z2411168RQ5H5TEVOND","hitId":"3H6W48L9F4B5OEOMH57RM53ZYNHWPM","url":"https://gershmanlab.com/experiments/alicia/teaching/experiment/?hitId=3H6W48L9F4B5OEOMH57RM53ZYNHWPM&workerId=A2VAL2BRKVSUB5&assignmentId=3IGI0VL6486Z2411168RQ5H5TEVOND&a=60GI8&tp_a=60GI8&b=3IGI0VL6486Z2411168RQ5H5TEVOND&tp_b=3IGI0VL6486Z2411168RQ5H5TEVOND&c=365198&tp_c=365198","firstResponseHeads":2,"firstResponseTails":8,"secondResponseHeads":4,"secondResponseTails":16,"studentIndex":13,"studentTrueHypers":{"a":1,"b":4},"studentGuess":0.2,"delta":0,"bonus":0.2,"bonusSoFar":1.98,"totalExamples":30},{"rt":37181,"response":{"heads":"15","tails":"15"},"type":"response","condition":"nonSeqPartial","trueTheta":0.5,"classrooms":["C","D"],"studentTrueClassroom":"C","exampleSet":"first","trial_type":"survey-html-form","trial_index":124,"time_elapsed":1588650,"internal_node_id":"0.0-121.0-0.0","params":{"nStudents":24,"maxFlips":30,"completionMinutes":45,"basePay":8,"maxBonus":9,"perTrialBonus":0.5,"perTrialBonusThreshold":0.1,"exampleCost":0.01},"classroomParams":{"A":{"a":1,"b":4},"B":{"a":4,"b":1},"C":{"a":2,"b":8},"D":{"a":8,"b":2}},"conditions":["nonSeqFull","nonSeqPartial","seqNoFeedback","seqFeedback"],"classroomPairings":[["A","B"],["C","D"]],"coinWeights":[0.2,0.5,0.8],"subjectId":"A2VAL2BRKVSUB5","assignmentId":"3IGI0VL6486Z2411168RQ5H5TEVOND","hitId":"3H6W48L9F4B5OEOMH57RM53ZYNHWPM","url":"https://gershmanlab.com/experiments/alicia/teaching/experiment/?hitId=3H6W48L9F4B5OEOMH57RM53ZYNHWPM&workerId=A2VAL2BRKVSUB5&assignmentId=3IGI0VL6486Z2411168RQ5H5TEVOND&a=60GI8&tp_a=60GI8&b=3IGI0VL6486Z2411168RQ5H5TEVOND&tp_b=3IGI0VL6486Z2411168RQ5H5TEVOND&c=365198&tp_c=365198","heads":15,"tails":15,"studentIndex":14,"studentTrueHypers":{"a":2,"b":8},"studentGuess":0.425,"delta":0.07500000000000001,"totalExamples":30,"bonus":0.2,"bonusSoFar":2.18},{"rt":66811,"response":{"heads":"18","tails":"12"},"type":"response","condition":"nonSeqFull","trueTheta":0.5,"classrooms":["C","D"],"studentTrueClassroom":"C","exampleSet":"first","trial_type":"survey-html-form","trial_index":130,"time_elapsed":1680583,"internal_node_id":"0.0-127.0-0.0","params":{"nStudents":24,"maxFlips":30,"completionMinutes":45,"basePay":8,"maxBonus":9,"perTrialBonus":0.5,"perTrialBonusThreshold":0.1,"exampleCost":0.01},"classroomParams":{"A":{"a":1,"b":4},"B":{"a":4,"b":1},"C":{"a":2,"b":8},"D":{"a":8,"b":2}},"conditions":["nonSeqFull","nonSeqPartial","seqNoFeedback","seqFeedback"],"classroomPairings":[["A","B"],["C","D"]],"coinWeights":[0.2,0.5,0.8],"subjectId":"A2VAL2BRKVSUB5","assignmentId":"3IGI0VL6486Z2411168RQ5H5TEVOND","hitId":"3H6W48L9F4B5OEOMH57RM53ZYNHWPM","url":"https://gershmanlab.com/experiments/alicia/teaching/experiment/?hitId=3H6W48L9F4B5OEOMH57RM53ZYNHWPM&workerId=A2VAL2BRKVSUB5&assignmentId=3IGI0VL6486Z2411168RQ5H5TEVOND&a=60GI8&tp_a=60GI8&b=3IGI0VL6486Z2411168RQ5H5TEVOND&tp_b=3IGI0VL6486Z2411168RQ5H5TEVOND&c=365198&tp_c=365198","heads":18,"tails":12,"studentIndex":15,"studentTrueHypers":{"a":2,"b":8},"studentGuess":0.5,"delta":0,"totalExamples":30,"bonus":0.2,"bonusSoFar":2.38},{"rt":61485,"response":{"heads":"12","tails":"3"},"type":"response","condition":"nonSeqFull","trueTheta":0.8,"classrooms":["A","B"],"studentTrueClassroom":"B","exampleSet":"first","trial_type":"survey-html-form","trial_index":136,"time_elapsed":1761705,"internal_node_id":"0.0-133.0-0.0","params":{"nStudents":24,"maxFlips":30,"completionMinutes":45,"basePay":8,"maxBonus":9,"perTrialBonus":0.5,"perTrialBonusThreshold":0.1,"exampleCost":0.01},"classroomParams":{"A":{"a":1,"b":4},"B":{"a":4,"b":1},"C":{"a":2,"b":8},"D":{"a":8,"b":2}},"conditions":["nonSeqFull","nonSeqPartial","seqNoFeedback","seqFeedback"],"classroomPairings":[["A","B"],["C","D"]],"coinWeights":[0.2,0.5,0.8],"subjectId":"A2VAL2BRKVSUB5","assignmentId":"3IGI0VL6486Z2411168RQ5H5TEVOND","hitId":"3H6W48L9F4B5OEOMH57RM53ZYNHWPM","url":"https://gershmanlab.com/experiments/alicia/teaching/experiment/?hitId=3H6W48L9F4B5OEOMH57RM53ZYNHWPM&workerId=A2VAL2BRKVSUB5&assignmentId=3IGI0VL6486Z2411168RQ5H5TEVOND&a=60GI8&tp_a=60GI8&b=3IGI0VL6486Z2411168RQ5H5TEVOND&tp_b=3IGI0VL6486Z2411168RQ5H5TEVOND&c=365198&tp_c=365198","heads":12,"tails":3,"studentIndex":16,"studentTrueHypers":{"a":4,"b":1},"studentGuess":0.8,"delta":0,"totalExamples":15,"bonus":0.35,"bonusSoFar":2.73},{"rt":30782,"response":{"heads":"19","tails":"16"},"type":"response","condition":"nonSeqFull","trueTheta":0.5,"classrooms":["A","B"],"studentTrueClassroom":"A","exampleSet":"first","trial_type":"survey-html-form","trial_index":142,"time_elapsed":1810125,"internal_node_id":"0.0-139.0-0.0","params":{"nStudents":24,"maxFlips":30,"completionMinutes":45,"basePay":8,"maxBonus":9,"perTrialBonus":0.5,"perTrialBonusThreshold":0.1,"exampleCost":0.01},"classroomParams":{"A":{"a":1,"b":4},"B":{"a":4,"b":1},"C":{"a":2,"b":8},"D":{"a":8,"b":2}},"conditions":["nonSeqFull","nonSeqPartial","seqNoFeedback","seqFeedback"],"classroomPairings":[["A","B"],["C","D"]],"coinWeights":[0.2,0.5,0.8],"subjectId":"A2VAL2BRKVSUB5","assignmentId":"3IGI0VL6486Z2411168RQ5H5TEVOND","hitId":"3H6W48L9F4B5OEOMH57RM53ZYNHWPM","url":"https://gershmanlab.com/experiments/alicia/teaching/experiment/?hitId=3H6W48L9F4B5OEOMH57RM53ZYNHWPM&workerId=A2VAL2BRKVSUB5&assignmentId=3IGI0VL6486Z2411168RQ5H5TEVOND&a=60GI8&tp_a=60GI8&b=3IGI0VL6486Z2411168RQ5H5TEVOND&tp_b=3IGI0VL6486Z2411168RQ5H5TEVOND&c=365198&tp_c=365198","heads":19,"tails":16,"studentIndex":17,"studentTrueHypers":{"a":1,"b":4},"studentGuess":0.5,"delta":0,"totalExamples":35,"bonus":0.15,"bonusSoFar":2.88},{"rt":15679,"response":{"heads":"9","tails":"6"},"type":"response","condition":"nonSeqFull","trueTheta":0.5,"classrooms":["A","B"],"studentTrueClassroom":"A","exampleSet":"first","trial_type":"survey-html-form","trial_index":143,"time_elapsed":1825808,"internal_node_id":"0.0-139.1-0.1","params":{"nStudents":24,"maxFlips":30,"completionMinutes":45,"basePay":8,"maxBonus":9,"perTrialBonus":0.5,"perTrialBonusThreshold":0.1,"exampleCost":0.01},"classroomParams":{"A":{"a":1,"b":4},"B":{"a":4,"b":1},"C":{"a":2,"b":8},"D":{"a":8,"b":2}},"conditions":["nonSeqFull","nonSeqPartial","seqNoFeedback","seqFeedback"],"classroomPairings":[["A","B"],["C","D"]],"coinWeights":[0.2,0.5,0.8],"subjectId":"A2VAL2BRKVSUB5","assignmentId":"3IGI0VL6486Z2411168RQ5H5TEVOND","hitId":"3H6W48L9F4B5OEOMH57RM53ZYNHWPM","url":"https://gershmanlab.com/experiments/alicia/teaching/experiment/?hitId=3H6W48L9F4B5OEOMH57RM53ZYNHWPM&workerId=A2VAL2BRKVSUB5&assignmentId=3IGI0VL6486Z2411168RQ5H5TEVOND&a=60GI8&tp_a=60GI8&b=3IGI0VL6486Z2411168RQ5H5TEVOND&tp_b=3IGI0VL6486Z2411168RQ5H5TEVOND&c=365198&tp_c=365198","heads":9,"tails":6,"studentIndex":17,"studentTrueHypers":{"a":1,"b":4},"studentGuess":0.5,"delta":0,"totalExamples":15,"bonus":0.35,"bonusSoFar":3.23},{"rt":10367,"response":{"heads":"16","tails":"4"},"type":"response","condition":"nonSeqPartial","trueTheta":0.8,"classrooms":["A","B"],"studentTrueClassroom":"B","exampleSet":"first","trial_type":"survey-html-form","trial_index":149,"time_elapsed":1851003,"internal_node_id":"0.0-145.0-0.0","params":{"nStudents":24,"maxFlips":30,"completionMinutes":45,"basePay":8,"maxBonus":9,"perTrialBonus":0.5,"perTrialBonusThreshold":0.1,"exampleCost":0.01},"classroomParams":{"A":{"a":1,"b":4},"B":{"a":4,"b":1},"C":{"a":2,"b":8},"D":{"a":8,"b":2}},"conditions":["nonSeqFull","nonSeqPartial","seqNoFeedback","seqFeedback"],"classroomPairings":[["A","B"],["C","D"]],"coinWeights":[0.2,0.5,0.8],"subjectId":"A2VAL2BRKVSUB5","assignmentId":"3IGI0VL6486Z2411168RQ5H5TEVOND","hitId":"3H6W48L9F4B5OEOMH57RM53ZYNHWPM","url":"https://gershmanlab.com/experiments/alicia/teaching/experiment/?hitId=3H6W48L9F4B5OEOMH57RM53ZYNHWPM&workerId=A2VAL2BRKVSUB5&assignmentId=3IGI0VL6486Z2411168RQ5H5TEVOND&a=60GI8&tp_a=60GI8&b=3IGI0VL6486Z2411168RQ5H5TEVOND&tp_b=3IGI0VL6486Z2411168RQ5H5TEVOND&c=365198&tp_c=365198","heads":16,"tails":4,"studentIndex":18,"studentTrueHypers":{"a":4,"b":1},"studentGuess":0.8,"delta":0,"totalExamples":20,"bonus":0.3,"bonusSoFar":3.53},{"rt":10552,"response":{"heads":"8","tails":"2"},"type":"response","condition":"seqFeedback","trueTheta":0.8,"classrooms":["A","B"],"studentTrueClassroom":"B","exampleSet":"first","trial_type":"survey-html-form","trial_index":155,"time_elapsed":1875130,"internal_node_id":"0.0-151.0-0.0","params":{"nStudents":24,"maxFlips":30,"completionMinutes":45,"basePay":8,"maxBonus":9,"perTrialBonus":0.5,"perTrialBonusThreshold":0.1,"exampleCost":0.01},"classroomParams":{"A":{"a":1,"b":4},"B":{"a":4,"b":1},"C":{"a":2,"b":8},"D":{"a":8,"b":2}},"conditions":["nonSeqFull","nonSeqPartial","seqNoFeedback","seqFeedback"],"classroomPairings":[["A","B"],["C","D"]],"coinWeights":[0.2,0.5,0.8],"subjectId":"A2VAL2BRKVSUB5","assignmentId":"3IGI0VL6486Z2411168RQ5H5TEVOND","hitId":"3H6W48L9F4B5OEOMH57RM53ZYNHWPM","url":"https://gershmanlab.com/experiments/alicia/teaching/experiment/?hitId=3H6W48L9F4B5OEOMH57RM53ZYNHWPM&workerId=A2VAL2BRKVSUB5&assignmentId=3IGI0VL6486Z2411168RQ5H5TEVOND&a=60GI8&tp_a=60GI8&b=3IGI0VL6486Z2411168RQ5H5TEVOND&tp_b=3IGI0VL6486Z2411168RQ5H5TEVOND&c=365198&tp_c=365198","heads":8,"tails":2,"studentIndex":19,"studentTrueHypers":{"a":4,"b":1},"studentGuess":0.8,"delta":0,"totalExamples":10,"bonusSoFar":3.53},{"rt":11820,"response":{"heads":"16","tails":"4"},"type":"response","condition":"seqFeedback","trueTheta":0.8,"classrooms":["A","B"],"studentTrueClassroom":"B","exampleSet":"second","trial_type":"survey-html-form","trial_index":159,"time_elapsed":1900219,"internal_node_id":"0.0-155.0-0.0","params":{"nStudents":24,"maxFlips":30,"completionMinutes":45,"basePay":8,"maxBonus":9,"perTrialBonus":0.5,"perTrialBonusThreshold":0.1,"exampleCost":0.01},"classroomParams":{"A":{"a":1,"b":4},"B":{"a":4,"b":1},"C":{"a":2,"b":8},"D":{"a":8,"b":2}},"conditions":["nonSeqFull","nonSeqPartial","seqNoFeedback","seqFeedback"],"classroomPairings":[["A","B"],["C","D"]],"coinWeights":[0.2,0.5,0.8],"subjectId":"A2VAL2BRKVSUB5","assignmentId":"3IGI0VL6486Z2411168RQ5H5TEVOND","hitId":"3H6W48L9F4B5OEOMH57RM53ZYNHWPM","url":"https://gershmanlab.com/experiments/alicia/teaching/experiment/?hitId=3H6W48L9F4B5OEOMH57RM53ZYNHWPM&workerId=A2VAL2BRKVSUB5&assignmentId=3IGI0VL6486Z2411168RQ5H5TEVOND&a=60GI8&tp_a=60GI8&b=3IGI0VL6486Z2411168RQ5H5TEVOND&tp_b=3IGI0VL6486Z2411168RQ5H5TEVOND&c=365198&tp_c=365198","firstResponseHeads":8,"firstResponseTails":2,"secondResponseHeads":16,"secondResponseTails":4,"studentIndex":19,"studentTrueHypers":{"a":4,"b":1},"studentGuess":0.8,"delta":0,"bonus":0.2,"bonusSoFar":3.73,"totalExamples":30},{"rt":47792,"response":{"heads":"14","tails":"14"},"type":"response","condition":"nonSeqPartial","trueTheta":0.5,"classrooms":["A","B"],"studentTrueClassroom":"B","exampleSet":"first","trial_type":"survey-html-form","trial_index":165,"time_elapsed":1963052,"internal_node_id":"0.0-161.0-0.0","params":{"nStudents":24,"maxFlips":30,"completionMinutes":45,"basePay":8,"maxBonus":9,"perTrialBonus":0.5,"perTrialBonusThreshold":0.1,"exampleCost":0.01},"classroomParams":{"A":{"a":1,"b":4},"B":{"a":4,"b":1},"C":{"a":2,"b":8},"D":{"a":8,"b":2}},"conditions":["nonSeqFull","nonSeqPartial","seqNoFeedback","seqFeedback"],"classroomPairings":[["A","B"],["C","D"]],"coinWeights":[0.2,0.5,0.8],"subjectId":"A2VAL2BRKVSUB5","assignmentId":"3IGI0VL6486Z2411168RQ5H5TEVOND","hitId":"3H6W48L9F4B5OEOMH57RM53ZYNHWPM","url":"https://gershmanlab.com/experiments/alicia/teaching/experiment/?hitId=3H6W48L9F4B5OEOMH57RM53ZYNHWPM&workerId=A2VAL2BRKVSUB5&assignmentId=3IGI0VL6486Z2411168RQ5H5TEVOND&a=60GI8&tp_a=60GI8&b=3IGI0VL6486Z2411168RQ5H5TEVOND&tp_b=3IGI0VL6486Z2411168RQ5H5TEVOND&c=365198&tp_c=365198","heads":14,"tails":14,"studentIndex":20,"studentTrueHypers":{"a":4,"b":1},"studentGuess":0.5454545454545454,"delta":0.045454545454545414,"totalExamples":28,"bonus":0.22,"bonusSoFar":3.95},{"rt":67662,"response":{"heads":"30","tails":"0"},"type":"response","condition":"nonSeqFull","trueTheta":0.8,"classrooms":["C","D"],"studentTrueClassroom":"C","exampleSet":"first","trial_type":"survey-html-form","trial_index":171,"time_elapsed":2046528,"internal_node_id":"0.0-167.0-0.0","params":{"nStudents":24,"maxFlips":30,"completionMinutes":45,"basePay":8,"maxBonus":9,"perTrialBonus":0.5,"perTrialBonusThreshold":0.1,"exampleCost":0.01},"classroomParams":{"A":{"a":1,"b":4},"B":{"a":4,"b":1},"C":{"a":2,"b":8},"D":{"a":8,"b":2}},"conditions":["nonSeqFull","nonSeqPartial","seqNoFeedback","seqFeedback"],"classroomPairings":[["A","B"],["C","D"]],"coinWeights":[0.2,0.5,0.8],"subjectId":"A2VAL2BRKVSUB5","assignmentId":"3IGI0VL6486Z2411168RQ5H5TEVOND","hitId":"3H6W48L9F4B5OEOMH57RM53ZYNHWPM","url":"https://gershmanlab.com/experiments/alicia/teaching/experiment/?hitId=3H6W48L9F4B5OEOMH57RM53ZYNHWPM&workerId=A2VAL2BRKVSUB5&assignmentId=3IGI0VL6486Z2411168RQ5H5TEVOND&a=60GI8&tp_a=60GI8&b=3IGI0VL6486Z2411168RQ5H5TEVOND&tp_b=3IGI0VL6486Z2411168RQ5H5TEVOND&c=365198&tp_c=365198","heads":30,"tails":0,"studentIndex":21,"studentTrueHypers":{"a":2,"b":8},"studentGuess":0.8,"delta":0,"totalExamples":30,"bonus":0.2,"bonusSoFar":4.15},{"rt":13542,"response":{"heads":"15","tails":"15"},"type":"response","condition":"seqNoFeedback","trueTheta":0.5,"classrooms":["C","D"],"studentTrueClassroom":"D","exampleSet":"first","trial_type":"survey-html-form","trial_index":177,"time_elapsed":2079634,"internal_node_id":"0.0-173.0-0.0","params":{"nStudents":24,"maxFlips":30,"completionMinutes":45,"basePay":8,"maxBonus":9,"perTrialBonus":0.5,"perTrialBonusThreshold":0.1,"exampleCost":0.01},"classroomParams":{"A":{"a":1,"b":4},"B":{"a":4,"b":1},"C":{"a":2,"b":8},"D":{"a":8,"b":2}},"conditions":["nonSeqFull","nonSeqPartial","seqNoFeedback","seqFeedback"],"classroomPairings":[["A","B"],["C","D"]],"coinWeights":[0.2,0.5,0.8],"subjectId":"A2VAL2BRKVSUB5","assignmentId":"3IGI0VL6486Z2411168RQ5H5TEVOND","hitId":"3H6W48L9F4B5OEOMH57RM53ZYNHWPM","url":"https://gershmanlab.com/experiments/alicia/teaching/experiment/?hitId=3H6W48L9F4B5OEOMH57RM53ZYNHWPM&workerId=A2VAL2BRKVSUB5&assignmentId=3IGI0VL6486Z2411168RQ5H5TEVOND&a=60GI8&tp_a=60GI8&b=3IGI0VL6486Z2411168RQ5H5TEVOND&tp_b=3IGI0VL6486Z2411168RQ5H5TEVOND&c=365198&tp_c=365198","heads":15,"tails":15,"studentIndex":22,"studentTrueHypers":{"a":8,"b":2},"studentGuess":0.575,"delta":0.07499999999999996,"totalExamples":30,"bonusSoFar":4.15},{"rt":14556,"response":{"heads":"15","tails":"15"},"type":"response","condition":"seqNoFeedback","trueTheta":0.5,"classrooms":["C","D"],"studentTrueClassroom":"D","exampleSet":"second","trial_type":"survey-html-form","trial_index":180,"time_elapsed":2100459,"internal_node_id":"0.0-176.0-0.0","params":{"nStudents":24,"maxFlips":30,"completionMinutes":45,"basePay":8,"maxBonus":9,"perTrialBonus":0.5,"perTrialBonusThreshold":0.1,"exampleCost":0.01},"classroomParams":{"A":{"a":1,"b":4},"B":{"a":4,"b":1},"C":{"a":2,"b":8},"D":{"a":8,"b":2}},"conditions":["nonSeqFull","nonSeqPartial","seqNoFeedback","seqFeedback"],"classroomPairings":[["A","B"],["C","D"]],"coinWeights":[0.2,0.5,0.8],"subjectId":"A2VAL2BRKVSUB5","assignmentId":"3IGI0VL6486Z2411168RQ5H5TEVOND","hitId":"3H6W48L9F4B5OEOMH57RM53ZYNHWPM","url":"https://gershmanlab.com/experiments/alicia/teaching/experiment/?hitId=3H6W48L9F4B5OEOMH57RM53ZYNHWPM&workerId=A2VAL2BRKVSUB5&assignmentId=3IGI0VL6486Z2411168RQ5H5TEVOND&a=60GI8&tp_a=60GI8&b=3IGI0VL6486Z2411168RQ5H5TEVOND&tp_b=3IGI0VL6486Z2411168RQ5H5TEVOND&c=365198&tp_c=365198","firstResponseHeads":15,"firstResponseTails":15,"secondResponseHeads":15,"secondResponseTails":15,"studentIndex":22,"studentTrueHypers":{"a":8,"b":2},"studentGuess":0.5428571428571428,"delta":0.042857142857142816,"bonus":0,"bonusSoFar":4.15,"totalExamples":60},{"rt":14603,"response":{"heads":"8","tails":"2"},"type":"response","condition":"seqFeedback","trueTheta":0.8,"classrooms":["C","D"],"studentTrueClassroom":"D","exampleSet":"first","trial_type":"survey-html-form","trial_index":186,"time_elapsed":2132354,"internal_node_id":"0.0-182.0-0.0","params":{"nStudents":24,"maxFlips":30,"completionMinutes":45,"basePay":8,"maxBonus":9,"perTrialBonus":0.5,"perTrialBonusThreshold":0.1,"exampleCost":0.01},"classroomParams":{"A":{"a":1,"b":4},"B":{"a":4,"b":1},"C":{"a":2,"b":8},"D":{"a":8,"b":2}},"conditions":["nonSeqFull","nonSeqPartial","seqNoFeedback","seqFeedback"],"classroomPairings":[["A","B"],["C","D"]],"coinWeights":[0.2,0.5,0.8],"subjectId":"A2VAL2BRKVSUB5","assignmentId":"3IGI0VL6486Z2411168RQ5H5TEVOND","hitId":"3H6W48L9F4B5OEOMH57RM53ZYNHWPM","url":"https://gershmanlab.com/experiments/alicia/teaching/experiment/?hitId=3H6W48L9F4B5OEOMH57RM53ZYNHWPM&workerId=A2VAL2BRKVSUB5&assignmentId=3IGI0VL6486Z2411168RQ5H5TEVOND&a=60GI8&tp_a=60GI8&b=3IGI0VL6486Z2411168RQ5H5TEVOND&tp_b=3IGI0VL6486Z2411168RQ5H5TEVOND&c=365198&tp_c=365198","heads":8,"tails":2,"studentIndex":23,"studentTrueHypers":{"a":8,"b":2},"studentGuess":0.8,"delta":0,"totalExamples":10,"bonusSoFar":4.15},{"rt":6781,"response":{"heads":"16","tails":"4"},"type":"response","condition":"seqFeedback","trueTheta":0.8,"classrooms":["C","D"],"studentTrueClassroom":"D","exampleSet":"second","trial_type":"survey-html-form","trial_index":190,"time_elapsed":2149433,"internal_node_id":"0.0-186.0-0.0","params":{"nStudents":24,"maxFlips":30,"completionMinutes":45,"basePay":8,"maxBonus":9,"perTrialBonus":0.5,"perTrialBonusThreshold":0.1,"exampleCost":0.01},"classroomParams":{"A":{"a":1,"b":4},"B":{"a":4,"b":1},"C":{"a":2,"b":8},"D":{"a":8,"b":2}},"conditions":["nonSeqFull","nonSeqPartial","seqNoFeedback","seqFeedback"],"classroomPairings":[["A","B"],["C","D"]],"coinWeights":[0.2,0.5,0.8],"subjectId":"A2VAL2BRKVSUB5","assignmentId":"3IGI0VL6486Z2411168RQ5H5TEVOND","hitId":"3H6W48L9F4B5OEOMH57RM53ZYNHWPM","url":"https://gershmanlab.com/experiments/alicia/teaching/experiment/?hitId=3H6W48L9F4B5OEOMH57RM53ZYNHWPM&workerId=A2VAL2BRKVSUB5&assignmentId=3IGI0VL6486Z2411168RQ5H5TEVOND&a=60GI8&tp_a=60GI8&b=3IGI0VL6486Z2411168RQ5H5TEVOND&tp_b=3IGI0VL6486Z2411168RQ5H5TEVOND&c=365198&tp_c=365198","firstResponseHeads":8,"firstResponseTails":2,"secondResponseHeads":16,"secondResponseTails":4,"studentIndex":23,"studentTrueHypers":{"a":8,"b":2},"studentGuess":0.8,"delta":0,"bonus":0.2,"bonusSoFar":4.35,"totalExamples":30},{"rt":32263,"response":{"gender":"male","age":"45","understood":"yes","comments":"MTURK ID:  A2VAL2BRKVSUB5"},"type":"response","trial_type":"survey-html-form","trial_index":194,"time_elapsed":2189581,"internal_node_id":"0.0-191.0","params":{"nStudents":24,"maxFlips":30,"completionMinutes":45,"basePay":8,"maxBonus":9,"perTrialBonus":0.5,"perTrialBonusThreshold":0.1,"exampleCost":0.01},"classroomParams":{"A":{"a":1,"b":4},"B":{"a":4,"b":1},"C":{"a":2,"b":8},"D":{"a":8,"b":2}},"conditions":["nonSeqFull","nonSeqPartial","seqNoFeedback","seqFeedback"],"classroomPairings":[["A","B"],["C","D"]],"coinWeights":[0.2,0.5,0.8],"subjectId":"A2VAL2BRKVSUB5","assignmentId":"3IGI0VL6486Z2411168RQ5H5TEVOND","hitId":"3H6W48L9F4B5OEOMH57RM53ZYNHWPM","url":"https://gershmanlab.com/experiments/alicia/teaching/experiment/?hitId=3H6W48L9F4B5OEOMH57RM53ZYNHWPM&workerId=A2VAL2BRKVSUB5&assignmentId=3IGI0VL6486Z2411168RQ5H5TEVOND&a=60GI8&tp_a=60GI8&b=3IGI0VL6486Z2411168RQ5H5TEVOND&tp_b=3IGI0VL6486Z2411168RQ5H5TEVOND&c=365198&tp_c=365198","totalBonus":4.35}]