[{"rt":33199,"response":{"heads":"1","tails":"1"},"type":"response","condition":"nonSeqPartial","trueTheta":0.5,"classrooms":["C","D"],"studentTrueClassroom":"C","exampleSet":"first","trial_type":"survey-html-form","trial_index":7,"time_elapsed":1798173,"internal_node_id":"0.0-6.0-0.0","params":{"nStudents":24,"maxFlips":30,"completionMinutes":45,"basePay":8,"maxBonus":9,"perTrialBonus":0.5,"perTrialBonusThreshold":0.1,"exampleCost":0.01},"classroomParams":{"A":{"a":1,"b":4},"B":{"a":4,"b":1},"C":{"a":2,"b":8},"D":{"a":8,"b":2}},"conditions":["nonSeqFull","nonSeqPartial","seqNoFeedback","seqFeedback"],"classroomPairings":[["A","B"],["C","D"]],"coinWeights":[0.2,0.5,0.8],"subjectId":"A2VZBQLSFZC519","assignmentId":"38BQUHLA9XMTKMG1P5TRDQS5OOLOMD","hitId":"3YGE63DIN8J20XK20KS1742RQF60WK","url":"https://gershmanlab.com/experiments/alicia/teaching/experiment/?hitId=3YGE63DIN8J20XK20KS1742RQF60WK&workerId=A2VZBQLSFZC519&assignmentId=38BQUHLA9XMTKMG1P5TRDQS5OOLOMD&a=AUB88&tp_a=AUB88&b=38BQUHLA9XMTKMG1P5TRDQS5OOLOMD&tp_b=38BQUHLA9XMTKMG1P5TRDQS5OOLOMD&c=365198&tp_c=365198","heads":1,"tails":1,"studentIndex":0,"studentTrueHypers":{"a":2,"b":8},"studentGuess":0.25,"delta":0.25,"totalExamples":2,"bonus":0,"bonusSoFar":0},{"rt":9816,"response":{"heads":"1","tails":"1"},"type":"response","condition":"nonSeqPartial","trueTheta":0.2,"classrooms":["C","D"],"studentTrueClassroom":"D","exampleSet":"first","trial_type":"survey-html-form","trial_index":13,"time_elapsed":1825226,"internal_node_id":"0.0-12.0-0.0","params":{"nStudents":24,"maxFlips":30,"completionMinutes":45,"basePay":8,"maxBonus":9,"perTrialBonus":0.5,"perTrialBonusThreshold":0.1,"exampleCost":0.01},"classroomParams":{"A":{"a":1,"b":4},"B":{"a":4,"b":1},"C":{"a":2,"b":8},"D":{"a":8,"b":2}},"conditions":["nonSeqFull","nonSeqPartial","seqNoFeedback","seqFeedback"],"classroomPairings":[["A","B"],["C","D"]],"coinWeights":[0.2,0.5,0.8],"subjectId":"A2VZBQLSFZC519","assignmentId":"38BQUHLA9XMTKMG1P5TRDQS5OOLOMD","hitId":"3YGE63DIN8J20XK20KS1742RQF60WK","url":"https://gershmanlab.com/experiments/alicia/teaching/experiment/?hitId=3YGE63DIN8J20XK20KS1742RQF60WK&workerId=A2VZBQLSFZC519&assignmentId=38BQUHLA9XMTKMG1P5TRDQS5OOLOMD&a=AUB88&tp_a=AUB88&b=38BQUHLA9XMTKMG1P5TRDQS5OOLOMD&tp_b=38BQUHLA9XMTKMG1P5TRDQS5OOLOMD&c=365198&tp_c=365198","heads":1,"tails":1,"studentIndex":1,"studentTrueHypers":{"a":8,"b":2},"studentGuess":0.75,"delta":0.55,"totalExamples":2,"bonus":0,"bonusSoFar":0},{"rt":18857,"response":{"heads":"4","tails":"1"},"type":"response","condition":"seqFeedback","trueTheta":0.5,"classrooms":["A","B"],"studentTrueClassroom":"A","exampleSet":"first","trial_type":"survey-html-form","trial_index":19,"time_elapsed":1861992,"internal_node_id":"0.0-18.0-0.0","params":{"nStudents":24,"maxFlips":30,"completionMinutes":45,"basePay":8,"maxBonus":9,"perTrialBonus":0.5,"perTrialBonusThreshold":0.1,"exampleCost":0.01},"classroomParams":{"A":{"a":1,"b":4},"B":{"a":4,"b":1},"C":{"a":2,"b":8},"D":{"a":8,"b":2}},"conditions":["nonSeqFull","nonSeqPartial","seqNoFeedback","seqFeedback"],"classroomPairings":[["A","B"],["C","D"]],"coinWeights":[0.2,0.5,0.8],"subjectId":"A2VZBQLSFZC519","assignmentId":"38BQUHLA9XMTKMG1P5TRDQS5OOLOMD","hitId":"3YGE63DIN8J20XK20KS1742RQF60WK","url":"https://gershmanlab.com/experiments/alicia/teaching/experiment/?hitId=3YGE63DIN8J20XK20KS1742RQF60WK&workerId=A2VZBQLSFZC519&assignmentId=38BQUHLA9XMTKMG1P5TRDQS5OOLOMD&a=AUB88&tp_a=AUB88&b=38BQUHLA9XMTKMG1P5TRDQS5OOLOMD&tp_b=38BQUHLA9XMTKMG1P5TRDQS5OOLOMD&c=365198&tp_c=365198","heads":4,"tails":1,"studentIndex":2,"studentTrueHypers":{"a":1,"b":4},"studentGuess":0.5,"delta":0,"totalExamples":5,"bonusSoFar":0},{"rt":10876,"response":{"heads":"0","tails":"0"},"type":"response","condition":"seqFeedback","trueTheta":0.5,"classrooms":["A","B"],"studentTrueClassroom":"A","exampleSet":"second","trial_type":"survey-html-form","trial_index":23,"time_elapsed":1885650,"internal_node_id":"0.0-22.0-0.0","params":{"nStudents":24,"maxFlips":30,"completionMinutes":45,"basePay":8,"maxBonus":9,"perTrialBonus":0.5,"perTrialBonusThreshold":0.1,"exampleCost":0.01},"classroomParams":{"A":{"a":1,"b":4},"B":{"a":4,"b":1},"C":{"a":2,"b":8},"D":{"a":8,"b":2}},"conditions":["nonSeqFull","nonSeqPartial","seqNoFeedback","seqFeedback"],"classroomPairings":[["A","B"],["C","D"]],"coinWeights":[0.2,0.5,0.8],"subjectId":"A2VZBQLSFZC519","assignmentId":"38BQUHLA9XMTKMG1P5TRDQS5OOLOMD","hitId":"3YGE63DIN8J20XK20KS1742RQF60WK","url":"https://gershmanlab.com/experiments/alicia/teaching/experiment/?hitId=3YGE63DIN8J20XK20KS1742RQF60WK&workerId=A2VZBQLSFZC519&assignmentId=38BQUHLA9XMTKMG1P5TRDQS5OOLOMD&a=AUB88&tp_a=AUB88&b=38BQUHLA9XMTKMG1P5TRDQS5OOLOMD&tp_b=38BQUHLA9XMTKMG1P5TRDQS5OOLOMD&c=365198&tp_c=365198","firstResponseHeads":4,"firstResponseTails":1,"secondResponseHeads":0,"secondResponseTails":0,"studentIndex":2,"studentTrueHypers":{"a":1,"b":4},"studentGuess":0.5,"delta":0,"bonus":0.45,"bonusSoFar":0.45,"totalExamples":5},{"rt":5870,"response":{"heads":"1","tails":"1"},"type":"response","condition":"seqFeedback","trueTheta":0.5,"classrooms":["A","B"],"studentTrueClassroom":"A","exampleSet":"second","trial_type":"survey-html-form","trial_index":24,"time_elapsed":1891524,"internal_node_id":"0.0-22.1-0.1","params":{"nStudents":24,"maxFlips":30,"completionMinutes":45,"basePay":8,"maxBonus":9,"perTrialBonus":0.5,"perTrialBonusThreshold":0.1,"exampleCost":0.01},"classroomParams":{"A":{"a":1,"b":4},"B":{"a":4,"b":1},"C":{"a":2,"b":8},"D":{"a":8,"b":2}},"conditions":["nonSeqFull","nonSeqPartial","seqNoFeedback","seqFeedback"],"classroomPairings":[["A","B"],["C","D"]],"coinWeights":[0.2,0.5,0.8],"subjectId":"A2VZBQLSFZC519","assignmentId":"38BQUHLA9XMTKMG1P5TRDQS5OOLOMD","hitId":"3YGE63DIN8J20XK20KS1742RQF60WK","url":"https://gershmanlab.com/experiments/alicia/teaching/experiment/?hitId=3YGE63DIN8J20XK20KS1742RQF60WK&workerId=A2VZBQLSFZC519&assignmentId=38BQUHLA9XMTKMG1P5TRDQS5OOLOMD&a=AUB88&tp_a=AUB88&b=38BQUHLA9XMTKMG1P5TRDQS5OOLOMD&tp_b=38BQUHLA9XMTKMG1P5TRDQS5OOLOMD&c=365198&tp_c=365198","firstResponseHeads":4,"firstResponseTails":1,"secondResponseHeads":1,"secondResponseTails":1,"studentIndex":2,"studentTrueHypers":{"a":1,"b":4},"studentGuess":0.5,"delta":0,"bonus":0.43,"bonusSoFar":0.88,"totalExamples":7},{"rt":17639,"response":{"heads":"4","tails":"6"},"type":"response","condition":"seqNoFeedback","trueTheta":0.8,"classrooms":["A","B"],"studentTrueClassroom":"A","exampleSet":"first","trial_type":"survey-html-form","trial_index":30,"time_elapsed":1928511,"internal_node_id":"0.0-28.0-0.0","params":{"nStudents":24,"maxFlips":30,"completionMinutes":45,"basePay":8,"maxBonus":9,"perTrialBonus":0.5,"perTrialBonusThreshold":0.1,"exampleCost":0.01},"classroomParams":{"A":{"a":1,"b":4},"B":{"a":4,"b":1},"C":{"a":2,"b":8},"D":{"a":8,"b":2}},"conditions":["nonSeqFull","nonSeqPartial","seqNoFeedback","seqFeedback"],"classroomPairings":[["A","B"],["C","D"]],"coinWeights":[0.2,0.5,0.8],"subjectId":"A2VZBQLSFZC519","assignmentId":"38BQUHLA9XMTKMG1P5TRDQS5OOLOMD","hitId":"3YGE63DIN8J20XK20KS1742RQF60WK","url":"https://gershmanlab.com/experiments/alicia/teaching/experiment/?hitId=3YGE63DIN8J20XK20KS1742RQF60WK&workerId=A2VZBQLSFZC519&assignmentId=38BQUHLA9XMTKMG1P5TRDQS5OOLOMD&a=AUB88&tp_a=AUB88&b=38BQUHLA9XMTKMG1P5TRDQS5OOLOMD&tp_b=38BQUHLA9XMTKMG1P5TRDQS5OOLOMD&c=365198&tp_c=365198","heads":4,"tails":6,"studentIndex":3,"studentTrueHypers":{"a":1,"b":4},"studentGuess":0.3333333333333333,"delta":0.46666666666666673,"totalExamples":10,"bonusSoFar":0.88},{"rt":11101,"response":{"heads":"8","tails":"2"},"type":"response","condition":"seqNoFeedback","trueTheta":0.8,"classrooms":["A","B"],"studentTrueClassroom":"A","exampleSet":"second","trial_type":"survey-html-form","trial_index":33,"time_elapsed":1945617,"internal_node_id":"0.0-31.0-0.0","params":{"nStudents":24,"maxFlips":30,"completionMinutes":45,"basePay":8,"maxBonus":9,"perTrialBonus":0.5,"perTrialBonusThreshold":0.1,"exampleCost":0.01},"classroomParams":{"A":{"a":1,"b":4},"B":{"a":4,"b":1},"C":{"a":2,"b":8},"D":{"a":8,"b":2}},"conditions":["nonSeqFull","nonSeqPartial","seqNoFeedback","seqFeedback"],"classroomPairings":[["A","B"],["C","D"]],"coinWeights":[0.2,0.5,0.8],"subjectId":"A2VZBQLSFZC519","assignmentId":"38BQUHLA9XMTKMG1P5TRDQS5OOLOMD","hitId":"3YGE63DIN8J20XK20KS1742RQF60WK","url":"https://gershmanlab.com/experiments/alicia/teaching/experiment/?hitId=3YGE63DIN8J20XK20KS1742RQF60WK&workerId=A2VZBQLSFZC519&assignmentId=38BQUHLA9XMTKMG1P5TRDQS5OOLOMD&a=AUB88&tp_a=AUB88&b=38BQUHLA9XMTKMG1P5TRDQS5OOLOMD&tp_b=38BQUHLA9XMTKMG1P5TRDQS5OOLOMD&c=365198&tp_c=365198","firstResponseHeads":4,"firstResponseTails":6,"secondResponseHeads":8,"secondResponseTails":2,"studentIndex":3,"studentTrueHypers":{"a":1,"b":4},"studentGuess":0.52,"delta":0.28,"bonus":0,"bonusSoFar":0.88,"totalExamples":20},{"rt":4002,"response":{"heads":"8","tails":"2"},"type":"response","condition":"seqNoFeedback","trueTheta":0.8,"classrooms":["C","D"],"studentTrueClassroom":"C","exampleSet":"first","trial_type":"survey-html-form","trial_index":39,"time_elapsed":1968331,"internal_node_id":"0.0-37.0-0.0","params":{"nStudents":24,"maxFlips":30,"completionMinutes":45,"basePay":8,"maxBonus":9,"perTrialBonus":0.5,"perTrialBonusThreshold":0.1,"exampleCost":0.01},"classroomParams":{"A":{"a":1,"b":4},"B":{"a":4,"b":1},"C":{"a":2,"b":8},"D":{"a":8,"b":2}},"conditions":["nonSeqFull","nonSeqPartial","seqNoFeedback","seqFeedback"],"classroomPairings":[["A","B"],["C","D"]],"coinWeights":[0.2,0.5,0.8],"subjectId":"A2VZBQLSFZC519","assignmentId":"38BQUHLA9XMTKMG1P5TRDQS5OOLOMD","hitId":"3YGE63DIN8J20XK20KS1742RQF60WK","url":"https://gershmanlab.com/experiments/alicia/teaching/experiment/?hitId=3YGE63DIN8J20XK20KS1742RQF60WK&workerId=A2VZBQLSFZC519&assignmentId=38BQUHLA9XMTKMG1P5TRDQS5OOLOMD&a=AUB88&tp_a=AUB88&b=38BQUHLA9XMTKMG1P5TRDQS5OOLOMD&tp_b=38BQUHLA9XMTKMG1P5TRDQS5OOLOMD&c=365198&tp_c=365198","heads":8,"tails":2,"studentIndex":4,"studentTrueHypers":{"a":2,"b":8},"studentGuess":0.5,"delta":0.30000000000000004,"totalExamples":10,"bonusSoFar":0.88},{"rt":6926,"response":{"heads":"1","tails":"0"},"type":"response","condition":"seqNoFeedback","trueTheta":0.8,"classrooms":["C","D"],"studentTrueClassroom":"C","exampleSet":"second","trial_type":"survey-html-form","trial_index":42,"time_elapsed":1982013,"internal_node_id":"0.0-40.0-0.0","params":{"nStudents":24,"maxFlips":30,"completionMinutes":45,"basePay":8,"maxBonus":9,"perTrialBonus":0.5,"perTrialBonusThreshold":0.1,"exampleCost":0.01},"classroomParams":{"A":{"a":1,"b":4},"B":{"a":4,"b":1},"C":{"a":2,"b":8},"D":{"a":8,"b":2}},"conditions":["nonSeqFull","nonSeqPartial","seqNoFeedback","seqFeedback"],"classroomPairings":[["A","B"],["C","D"]],"coinWeights":[0.2,0.5,0.8],"subjectId":"A2VZBQLSFZC519","assignmentId":"38BQUHLA9XMTKMG1P5TRDQS5OOLOMD","hitId":"3YGE63DIN8J20XK20KS1742RQF60WK","url":"https://gershmanlab.com/experiments/alicia/teaching/experiment/?hitId=3YGE63DIN8J20XK20KS1742RQF60WK&workerId=A2VZBQLSFZC519&assignmentId=38BQUHLA9XMTKMG1P5TRDQS5OOLOMD&a=AUB88&tp_a=AUB88&b=38BQUHLA9XMTKMG1P5TRDQS5OOLOMD&tp_b=38BQUHLA9XMTKMG1P5TRDQS5OOLOMD&c=365198&tp_c=365198","firstResponseHeads":8,"firstResponseTails":2,"secondResponseHeads":1,"secondResponseTails":0,"studentIndex":4,"studentTrueHypers":{"a":2,"b":8},"studentGuess":0.5238095238095238,"delta":0.2761904761904762,"bonus":0,"bonusSoFar":0.88,"totalExamples":11},{"rt":6118,"response":{"heads":"8","tails":"2"},"type":"response","condition":"nonSeqPartial","trueTheta":0.8,"classrooms":["C","D"],"studentTrueClassroom":"D","exampleSet":"first","trial_type":"survey-html-form","trial_index":48,"time_elapsed":2011057,"internal_node_id":"0.0-46.0-0.0","params":{"nStudents":24,"maxFlips":30,"completionMinutes":45,"basePay":8,"maxBonus":9,"perTrialBonus":0.5,"perTrialBonusThreshold":0.1,"exampleCost":0.01},"classroomParams":{"A":{"a":1,"b":4},"B":{"a":4,"b":1},"C":{"a":2,"b":8},"D":{"a":8,"b":2}},"conditions":["nonSeqFull","nonSeqPartial","seqNoFeedback","seqFeedback"],"classroomPairings":[["A","B"],["C","D"]],"coinWeights":[0.2,0.5,0.8],"subjectId":"A2VZBQLSFZC519","assignmentId":"38BQUHLA9XMTKMG1P5TRDQS5OOLOMD","hitId":"3YGE63DIN8J20XK20KS1742RQF60WK","url":"https://gershmanlab.com/experiments/alicia/teaching/experiment/?hitId=3YGE63DIN8J20XK20KS1742RQF60WK&workerId=A2VZBQLSFZC519&assignmentId=38BQUHLA9XMTKMG1P5TRDQS5OOLOMD&a=AUB88&tp_a=AUB88&b=38BQUHLA9XMTKMG1P5TRDQS5OOLOMD&tp_b=38BQUHLA9XMTKMG1P5TRDQS5OOLOMD&c=365198&tp_c=365198","heads":8,"tails":2,"studentIndex":5,"studentTrueHypers":{"a":8,"b":2},"studentGuess":0.8,"delta":0,"totalExamples":10,"bonus":0.4,"bonusSoFar":1.28},{"rt":8225,"response":{"heads":"6","tails":"2"},"type":"response","condition":"nonSeqPartial","trueTheta":0.8,"classrooms":["A","B"],"studentTrueClassroom":"B","exampleSet":"first","trial_type":"survey-html-form","trial_index":54,"time_elapsed":2036589,"internal_node_id":"0.0-52.0-0.0","params":{"nStudents":24,"maxFlips":30,"completionMinutes":45,"basePay":8,"maxBonus":9,"perTrialBonus":0.5,"perTrialBonusThreshold":0.1,"exampleCost":0.01},"classroomParams":{"A":{"a":1,"b":4},"B":{"a":4,"b":1},"C":{"a":2,"b":8},"D":{"a":8,"b":2}},"conditions":["nonSeqFull","nonSeqPartial","seqNoFeedback","seqFeedback"],"classroomPairings":[["A","B"],["C","D"]],"coinWeights":[0.2,0.5,0.8],"subjectId":"A2VZBQLSFZC519","assignmentId":"38BQUHLA9XMTKMG1P5TRDQS5OOLOMD","hitId":"3YGE63DIN8J20XK20KS1742RQF60WK","url":"https://gershmanlab.com/experiments/alicia/teaching/experiment/?hitId=3YGE63DIN8J20XK20KS1742RQF60WK&workerId=A2VZBQLSFZC519&assignmentId=38BQUHLA9XMTKMG1P5TRDQS5OOLOMD&a=AUB88&tp_a=AUB88&b=38BQUHLA9XMTKMG1P5TRDQS5OOLOMD&tp_b=38BQUHLA9XMTKMG1P5TRDQS5OOLOMD&c=365198&tp_c=365198","heads":6,"tails":2,"studentIndex":6,"studentTrueHypers":{"a":4,"b":1},"studentGuess":0.7692307692307693,"delta":0.03076923076923077,"totalExamples":8,"bonus":0.42,"bonusSoFar":1.7},{"rt":7606,"response":{"heads":"0","tails":"6"},"type":"response","condition":"nonSeqPartial","trueTheta":0.2,"classrooms":["A","B"],"studentTrueClassroom":"A","exampleSet":"first","trial_type":"survey-html-form","trial_index":60,"time_elapsed":2064504,"internal_node_id":"0.0-58.0-0.0","params":{"nStudents":24,"maxFlips":30,"completionMinutes":45,"basePay":8,"maxBonus":9,"perTrialBonus":0.5,"perTrialBonusThreshold":0.1,"exampleCost":0.01},"classroomParams":{"A":{"a":1,"b":4},"B":{"a":4,"b":1},"C":{"a":2,"b":8},"D":{"a":8,"b":2}},"conditions":["nonSeqFull","nonSeqPartial","seqNoFeedback","seqFeedback"],"classroomPairings":[["A","B"],["C","D"]],"coinWeights":[0.2,0.5,0.8],"subjectId":"A2VZBQLSFZC519","assignmentId":"38BQUHLA9XMTKMG1P5TRDQS5OOLOMD","hitId":"3YGE63DIN8J20XK20KS1742RQF60WK","url":"https://gershmanlab.com/experiments/alicia/teaching/experiment/?hitId=3YGE63DIN8J20XK20KS1742RQF60WK&workerId=A2VZBQLSFZC519&assignmentId=38BQUHLA9XMTKMG1P5TRDQS5OOLOMD&a=AUB88&tp_a=AUB88&b=38BQUHLA9XMTKMG1P5TRDQS5OOLOMD&tp_b=38BQUHLA9XMTKMG1P5TRDQS5OOLOMD&c=365198&tp_c=365198","heads":0,"tails":6,"studentIndex":7,"studentTrueHypers":{"a":1,"b":4},"studentGuess":0.09090909090909091,"delta":0.1090909090909091,"totalExamples":6,"bonus":0,"bonusSoFar":1.7},{"rt":26666,"response":{"heads":"0","tails":"4"},"type":"response","condition":"nonSeqFull","trueTheta":0.2,"classrooms":["A","B"],"studentTrueClassroom":"B","exampleSet":"first","trial_type":"survey-html-form","trial_index":66,"time_elapsed":2119321,"internal_node_id":"0.0-64.0-0.0","params":{"nStudents":24,"maxFlips":30,"completionMinutes":45,"basePay":8,"maxBonus":9,"perTrialBonus":0.5,"perTrialBonusThreshold":0.1,"exampleCost":0.01},"classroomParams":{"A":{"a":1,"b":4},"B":{"a":4,"b":1},"C":{"a":2,"b":8},"D":{"a":8,"b":2}},"conditions":["nonSeqFull","nonSeqPartial","seqNoFeedback","seqFeedback"],"classroomPairings":[["A","B"],["C","D"]],"coinWeights":[0.2,0.5,0.8],"subjectId":"A2VZBQLSFZC519","assignmentId":"38BQUHLA9XMTKMG1P5TRDQS5OOLOMD","hitId":"3YGE63DIN8J20XK20KS1742RQF60WK","url":"https://gershmanlab.com/experiments/alicia/teaching/experiment/?hitId=3YGE63DIN8J20XK20KS1742RQF60WK&workerId=A2VZBQLSFZC519&assignmentId=38BQUHLA9XMTKMG1P5TRDQS5OOLOMD&a=AUB88&tp_a=AUB88&b=38BQUHLA9XMTKMG1P5TRDQS5OOLOMD&tp_b=38BQUHLA9XMTKMG1P5TRDQS5OOLOMD&c=365198&tp_c=365198","heads":0,"tails":4,"studentIndex":8,"studentTrueHypers":{"a":4,"b":1},"studentGuess":0.4444444444444444,"delta":0.2444444444444444,"totalExamples":4,"bonus":0,"bonusSoFar":1.7},{"rt":8050,"response":{"heads":"0","tails":"8"},"type":"response","condition":"seqNoFeedback","trueTheta":0.2,"classrooms":["C","D"],"studentTrueClassroom":"D","exampleSet":"first","trial_type":"survey-html-form","trial_index":72,"time_elapsed":2140223,"internal_node_id":"0.0-70.0-0.0","params":{"nStudents":24,"maxFlips":30,"completionMinutes":45,"basePay":8,"maxBonus":9,"perTrialBonus":0.5,"perTrialBonusThreshold":0.1,"exampleCost":0.01},"classroomParams":{"A":{"a":1,"b":4},"B":{"a":4,"b":1},"C":{"a":2,"b":8},"D":{"a":8,"b":2}},"conditions":["nonSeqFull","nonSeqPartial","seqNoFeedback","seqFeedback"],"classroomPairings":[["A","B"],["C","D"]],"coinWeights":[0.2,0.5,0.8],"subjectId":"A2VZBQLSFZC519","assignmentId":"38BQUHLA9XMTKMG1P5TRDQS5OOLOMD","hitId":"3YGE63DIN8J20XK20KS1742RQF60WK","url":"https://gershmanlab.com/experiments/alicia/teaching/experiment/?hitId=3YGE63DIN8J20XK20KS1742RQF60WK&workerId=A2VZBQLSFZC519&assignmentId=38BQUHLA9XMTKMG1P5TRDQS5OOLOMD&a=AUB88&tp_a=AUB88&b=38BQUHLA9XMTKMG1P5TRDQS5OOLOMD&tp_b=38BQUHLA9XMTKMG1P5TRDQS5OOLOMD&c=365198&tp_c=365198","heads":0,"tails":8,"studentIndex":9,"studentTrueHypers":{"a":8,"b":2},"studentGuess":0.4444444444444444,"delta":0.2444444444444444,"totalExamples":8,"bonusSoFar":1.7},{"rt":6083,"response":{"heads":"0","tails":"2"},"type":"response","condition":"seqNoFeedback","trueTheta":0.2,"classrooms":["C","D"],"studentTrueClassroom":"D","exampleSet":"second","trial_type":"survey-html-form","trial_index":75,"time_elapsed":2151564,"internal_node_id":"0.0-73.0-0.0","params":{"nStudents":24,"maxFlips":30,"completionMinutes":45,"basePay":8,"maxBonus":9,"perTrialBonus":0.5,"perTrialBonusThreshold":0.1,"exampleCost":0.01},"classroomParams":{"A":{"a":1,"b":4},"B":{"a":4,"b":1},"C":{"a":2,"b":8},"D":{"a":8,"b":2}},"conditions":["nonSeqFull","nonSeqPartial","seqNoFeedback","seqFeedback"],"classroomPairings":[["A","B"],["C","D"]],"coinWeights":[0.2,0.5,0.8],"subjectId":"A2VZBQLSFZC519","assignmentId":"38BQUHLA9XMTKMG1P5TRDQS5OOLOMD","hitId":"3YGE63DIN8J20XK20KS1742RQF60WK","url":"https://gershmanlab.com/experiments/alicia/teaching/experiment/?hitId=3YGE63DIN8J20XK20KS1742RQF60WK&workerId=A2VZBQLSFZC519&assignmentId=38BQUHLA9XMTKMG1P5TRDQS5OOLOMD&a=AUB88&tp_a=AUB88&b=38BQUHLA9XMTKMG1P5TRDQS5OOLOMD&tp_b=38BQUHLA9XMTKMG1P5TRDQS5OOLOMD&c=365198&tp_c=365198","firstResponseHeads":0,"firstResponseTails":8,"secondResponseHeads":0,"secondResponseTails":2,"studentIndex":9,"studentTrueHypers":{"a":8,"b":2},"studentGuess":0.4,"delta":0.2,"bonus":0,"bonusSoFar":1.7,"totalExamples":10},{"rt":12298,"response":{"heads":"0","tails":"4"},"type":"response","condition":"seqNoFeedback","trueTheta":0.2,"classrooms":["A","B"],"studentTrueClassroom":"B","exampleSet":"first","trial_type":"survey-html-form","trial_index":81,"time_elapsed":2186421,"internal_node_id":"0.0-79.0-0.0","params":{"nStudents":24,"maxFlips":30,"completionMinutes":45,"basePay":8,"maxBonus":9,"perTrialBonus":0.5,"perTrialBonusThreshold":0.1,"exampleCost":0.01},"classroomParams":{"A":{"a":1,"b":4},"B":{"a":4,"b":1},"C":{"a":2,"b":8},"D":{"a":8,"b":2}},"conditions":["nonSeqFull","nonSeqPartial","seqNoFeedback","seqFeedback"],"classroomPairings":[["A","B"],["C","D"]],"coinWeights":[0.2,0.5,0.8],"subjectId":"A2VZBQLSFZC519","assignmentId":"38BQUHLA9XMTKMG1P5TRDQS5OOLOMD","hitId":"3YGE63DIN8J20XK20KS1742RQF60WK","url":"https://gershmanlab.com/experiments/alicia/teaching/experiment/?hitId=3YGE63DIN8J20XK20KS1742RQF60WK&workerId=A2VZBQLSFZC519&assignmentId=38BQUHLA9XMTKMG1P5TRDQS5OOLOMD&a=AUB88&tp_a=AUB88&b=38BQUHLA9XMTKMG1P5TRDQS5OOLOMD&tp_b=38BQUHLA9XMTKMG1P5TRDQS5OOLOMD&c=365198&tp_c=365198","heads":0,"tails":4,"studentIndex":10,"studentTrueHypers":{"a":4,"b":1},"studentGuess":0.4444444444444444,"delta":0.2444444444444444,"totalExamples":4,"bonusSoFar":1.7},{"rt":8139,"response":{"heads":"0","tails":"5"},"type":"response","condition":"seqNoFeedback","trueTheta":0.2,"classrooms":["A","B"],"studentTrueClassroom":"B","exampleSet":"second","trial_type":"survey-html-form","trial_index":84,"time_elapsed":2200067,"internal_node_id":"0.0-82.0-0.0","params":{"nStudents":24,"maxFlips":30,"completionMinutes":45,"basePay":8,"maxBonus":9,"perTrialBonus":0.5,"perTrialBonusThreshold":0.1,"exampleCost":0.01},"classroomParams":{"A":{"a":1,"b":4},"B":{"a":4,"b":1},"C":{"a":2,"b":8},"D":{"a":8,"b":2}},"conditions":["nonSeqFull","nonSeqPartial","seqNoFeedback","seqFeedback"],"classroomPairings":[["A","B"],["C","D"]],"coinWeights":[0.2,0.5,0.8],"subjectId":"A2VZBQLSFZC519","assignmentId":"38BQUHLA9XMTKMG1P5TRDQS5OOLOMD","hitId":"3YGE63DIN8J20XK20KS1742RQF60WK","url":"https://gershmanlab.com/experiments/alicia/teaching/experiment/?hitId=3YGE63DIN8J20XK20KS1742RQF60WK&workerId=A2VZBQLSFZC519&assignmentId=38BQUHLA9XMTKMG1P5TRDQS5OOLOMD&a=AUB88&tp_a=AUB88&b=38BQUHLA9XMTKMG1P5TRDQS5OOLOMD&tp_b=38BQUHLA9XMTKMG1P5TRDQS5OOLOMD&c=365198&tp_c=365198","firstResponseHeads":0,"firstResponseTails":4,"secondResponseHeads":0,"secondResponseTails":5,"studentIndex":10,"studentTrueHypers":{"a":4,"b":1},"studentGuess":0.2857142857142857,"delta":0.08571428571428569,"bonus":0.41,"bonusSoFar":2.11,"totalExamples":9},{"rt":10871,"response":{"heads":"0","tails":"8"},"type":"response","condition":"seqFeedback","trueTheta":0.8,"classrooms":["A","B"],"studentTrueClassroom":"B","exampleSet":"first","trial_type":"survey-html-form","trial_index":90,"time_elapsed":2239117,"internal_node_id":"0.0-88.0-0.0","params":{"nStudents":24,"maxFlips":30,"completionMinutes":45,"basePay":8,"maxBonus":9,"perTrialBonus":0.5,"perTrialBonusThreshold":0.1,"exampleCost":0.01},"classroomParams":{"A":{"a":1,"b":4},"B":{"a":4,"b":1},"C":{"a":2,"b":8},"D":{"a":8,"b":2}},"conditions":["nonSeqFull","nonSeqPartial","seqNoFeedback","seqFeedback"],"classroomPairings":[["A","B"],["C","D"]],"coinWeights":[0.2,0.5,0.8],"subjectId":"A2VZBQLSFZC519","assignmentId":"38BQUHLA9XMTKMG1P5TRDQS5OOLOMD","hitId":"3YGE63DIN8J20XK20KS1742RQF60WK","url":"https://gershmanlab.com/experiments/alicia/teaching/experiment/?hitId=3YGE63DIN8J20XK20KS1742RQF60WK&workerId=A2VZBQLSFZC519&assignmentId=38BQUHLA9XMTKMG1P5TRDQS5OOLOMD&a=AUB88&tp_a=AUB88&b=38BQUHLA9XMTKMG1P5TRDQS5OOLOMD&tp_b=38BQUHLA9XMTKMG1P5TRDQS5OOLOMD&c=365198&tp_c=365198","heads":0,"tails":8,"studentIndex":11,"studentTrueHypers":{"a":4,"b":1},"studentGuess":0.3076923076923077,"delta":0.49230769230769234,"totalExamples":8,"bonusSoFar":2.11},{"rt":10453,"response":{"heads":"10","tails":"0"},"type":"response","condition":"seqFeedback","trueTheta":0.8,"classrooms":["A","B"],"studentTrueClassroom":"B","exampleSet":"second","trial_type":"survey-html-form","trial_index":94,"time_elapsed":2264025,"internal_node_id":"0.0-92.0-0.0","params":{"nStudents":24,"maxFlips":30,"completionMinutes":45,"basePay":8,"maxBonus":9,"perTrialBonus":0.5,"perTrialBonusThreshold":0.1,"exampleCost":0.01},"classroomParams":{"A":{"a":1,"b":4},"B":{"a":4,"b":1},"C":{"a":2,"b":8},"D":{"a":8,"b":2}},"conditions":["nonSeqFull","nonSeqPartial","seqNoFeedback","seqFeedback"],"classroomPairings":[["A","B"],["C","D"]],"coinWeights":[0.2,0.5,0.8],"subjectId":"A2VZBQLSFZC519","assignmentId":"38BQUHLA9XMTKMG1P5TRDQS5OOLOMD","hitId":"3YGE63DIN8J20XK20KS1742RQF60WK","url":"https://gershmanlab.com/experiments/alicia/teaching/experiment/?hitId=3YGE63DIN8J20XK20KS1742RQF60WK&workerId=A2VZBQLSFZC519&assignmentId=38BQUHLA9XMTKMG1P5TRDQS5OOLOMD&a=AUB88&tp_a=AUB88&b=38BQUHLA9XMTKMG1P5TRDQS5OOLOMD&tp_b=38BQUHLA9XMTKMG1P5TRDQS5OOLOMD&c=365198&tp_c=365198","firstResponseHeads":0,"firstResponseTails":8,"secondResponseHeads":10,"secondResponseTails":0,"studentIndex":11,"studentTrueHypers":{"a":4,"b":1},"studentGuess":0.6086956521739131,"delta":0.19130434782608696,"bonus":0,"bonusSoFar":2.11,"totalExamples":18},{"rt":9902,"response":{"heads":"8","tails":"1"},"type":"response","condition":"nonSeqFull","trueTheta":0.8,"classrooms":["A","B"],"studentTrueClassroom":"A","exampleSet":"first","trial_type":"survey-html-form","trial_index":100,"time_elapsed":2289024,"internal_node_id":"0.0-98.0-0.0","params":{"nStudents":24,"maxFlips":30,"completionMinutes":45,"basePay":8,"maxBonus":9,"perTrialBonus":0.5,"perTrialBonusThreshold":0.1,"exampleCost":0.01},"classroomParams":{"A":{"a":1,"b":4},"B":{"a":4,"b":1},"C":{"a":2,"b":8},"D":{"a":8,"b":2}},"conditions":["nonSeqFull","nonSeqPartial","seqNoFeedback","seqFeedback"],"classroomPairings":[["A","B"],["C","D"]],"coinWeights":[0.2,0.5,0.8],"subjectId":"A2VZBQLSFZC519","assignmentId":"38BQUHLA9XMTKMG1P5TRDQS5OOLOMD","hitId":"3YGE63DIN8J20XK20KS1742RQF60WK","url":"https://gershmanlab.com/experiments/alicia/teaching/experiment/?hitId=3YGE63DIN8J20XK20KS1742RQF60WK&workerId=A2VZBQLSFZC519&assignmentId=38BQUHLA9XMTKMG1P5TRDQS5OOLOMD&a=AUB88&tp_a=AUB88&b=38BQUHLA9XMTKMG1P5TRDQS5OOLOMD&tp_b=38BQUHLA9XMTKMG1P5TRDQS5OOLOMD&c=365198&tp_c=365198","heads":8,"tails":1,"studentIndex":12,"studentTrueHypers":{"a":1,"b":4},"studentGuess":0.6428571428571429,"delta":0.15714285714285714,"totalExamples":9,"bonus":0,"bonusSoFar":2.11},{"rt":11198,"response":{"heads":"5","tails":"5"},"type":"response","condition":"seqNoFeedback","trueTheta":0.5,"classrooms":["C","D"],"studentTrueClassroom":"D","exampleSet":"first","trial_type":"survey-html-form","trial_index":106,"time_elapsed":2329146,"internal_node_id":"0.0-104.0-0.0","params":{"nStudents":24,"maxFlips":30,"completionMinutes":45,"basePay":8,"maxBonus":9,"perTrialBonus":0.5,"perTrialBonusThreshold":0.1,"exampleCost":0.01},"classroomParams":{"A":{"a":1,"b":4},"B":{"a":4,"b":1},"C":{"a":2,"b":8},"D":{"a":8,"b":2}},"conditions":["nonSeqFull","nonSeqPartial","seqNoFeedback","seqFeedback"],"classroomPairings":[["A","B"],["C","D"]],"coinWeights":[0.2,0.5,0.8],"subjectId":"A2VZBQLSFZC519","assignmentId":"38BQUHLA9XMTKMG1P5TRDQS5OOLOMD","hitId":"3YGE63DIN8J20XK20KS1742RQF60WK","url":"https://gershmanlab.com/experiments/alicia/teaching/experiment/?hitId=3YGE63DIN8J20XK20KS1742RQF60WK&workerId=A2VZBQLSFZC519&assignmentId=38BQUHLA9XMTKMG1P5TRDQS5OOLOMD&a=AUB88&tp_a=AUB88&b=38BQUHLA9XMTKMG1P5TRDQS5OOLOMD&tp_b=38BQUHLA9XMTKMG1P5TRDQS5OOLOMD&c=365198&tp_c=365198","heads":5,"tails":5,"studentIndex":13,"studentTrueHypers":{"a":8,"b":2},"studentGuess":0.65,"delta":0.15000000000000002,"totalExamples":10,"bonusSoFar":2.11},{"rt":6556,"response":{"heads":"5","tails":"5"},"type":"response","condition":"seqNoFeedback","trueTheta":0.5,"classrooms":["C","D"],"studentTrueClassroom":"D","exampleSet":"second","trial_type":"survey-html-form","trial_index":109,"time_elapsed":2343708,"internal_node_id":"0.0-107.0-0.0","params":{"nStudents":24,"maxFlips":30,"completionMinutes":45,"basePay":8,"maxBonus":9,"perTrialBonus":0.5,"perTrialBonusThreshold":0.1,"exampleCost":0.01},"classroomParams":{"A":{"a":1,"b":4},"B":{"a":4,"b":1},"C":{"a":2,"b":8},"D":{"a":8,"b":2}},"conditions":["nonSeqFull","nonSeqPartial","seqNoFeedback","seqFeedback"],"classroomPairings":[["A","B"],["C","D"]],"coinWeights":[0.2,0.5,0.8],"subjectId":"A2VZBQLSFZC519","assignmentId":"38BQUHLA9XMTKMG1P5TRDQS5OOLOMD","hitId":"3YGE63DIN8J20XK20KS1742RQF60WK","url":"https://gershmanlab.com/experiments/alicia/teaching/experiment/?hitId=3YGE63DIN8J20XK20KS1742RQF60WK&workerId=A2VZBQLSFZC519&assignmentId=38BQUHLA9XMTKMG1P5TRDQS5OOLOMD&a=AUB88&tp_a=AUB88&b=38BQUHLA9XMTKMG1P5TRDQS5OOLOMD&tp_b=38BQUHLA9XMTKMG1P5TRDQS5OOLOMD&c=365198&tp_c=365198","firstResponseHeads":5,"firstResponseTails":5,"secondResponseHeads":5,"secondResponseTails":5,"studentIndex":13,"studentTrueHypers":{"a":8,"b":2},"studentGuess":0.6,"delta":0.09999999999999998,"bonus":0.3,"bonusSoFar":2.41,"totalExamples":20},{"rt":7473,"response":{"heads":"4","tails":"1"},"type":"response","condition":"nonSeqFull","trueTheta":0.8,"classrooms":["C","D"],"studentTrueClassroom":"D","exampleSet":"first","trial_type":"survey-html-form","trial_index":115,"time_elapsed":2367903,"internal_node_id":"0.0-113.0-0.0","params":{"nStudents":24,"maxFlips":30,"completionMinutes":45,"basePay":8,"maxBonus":9,"perTrialBonus":0.5,"perTrialBonusThreshold":0.1,"exampleCost":0.01},"classroomParams":{"A":{"a":1,"b":4},"B":{"a":4,"b":1},"C":{"a":2,"b":8},"D":{"a":8,"b":2}},"conditions":["nonSeqFull","nonSeqPartial","seqNoFeedback","seqFeedback"],"classroomPairings":[["A","B"],["C","D"]],"coinWeights":[0.2,0.5,0.8],"subjectId":"A2VZBQLSFZC519","assignmentId":"38BQUHLA9XMTKMG1P5TRDQS5OOLOMD","hitId":"3YGE63DIN8J20XK20KS1742RQF60WK","url":"https://gershmanlab.com/experiments/alicia/teaching/experiment/?hitId=3YGE63DIN8J20XK20KS1742RQF60WK&workerId=A2VZBQLSFZC519&assignmentId=38BQUHLA9XMTKMG1P5TRDQS5OOLOMD&a=AUB88&tp_a=AUB88&b=38BQUHLA9XMTKMG1P5TRDQS5OOLOMD&tp_b=38BQUHLA9XMTKMG1P5TRDQS5OOLOMD&c=365198&tp_c=365198","heads":4,"tails":1,"studentIndex":14,"studentTrueHypers":{"a":8,"b":2},"studentGuess":0.8,"delta":0,"totalExamples":5,"bonus":0.45,"bonusSoFar":2.86},{"rt":11099,"response":{"heads":"4","tails":"0"},"type":"response","condition":"seqFeedback","trueTheta":0.8,"classrooms":["C","D"],"studentTrueClassroom":"D","exampleSet":"first","trial_type":"survey-html-form","trial_index":121,"time_elapsed":2394862,"internal_node_id":"0.0-119.0-0.0","params":{"nStudents":24,"maxFlips":30,"completionMinutes":45,"basePay":8,"maxBonus":9,"perTrialBonus":0.5,"perTrialBonusThreshold":0.1,"exampleCost":0.01},"classroomParams":{"A":{"a":1,"b":4},"B":{"a":4,"b":1},"C":{"a":2,"b":8},"D":{"a":8,"b":2}},"conditions":["nonSeqFull","nonSeqPartial","seqNoFeedback","seqFeedback"],"classroomPairings":[["A","B"],["C","D"]],"coinWeights":[0.2,0.5,0.8],"subjectId":"A2VZBQLSFZC519","assignmentId":"38BQUHLA9XMTKMG1P5TRDQS5OOLOMD","hitId":"3YGE63DIN8J20XK20KS1742RQF60WK","url":"https://gershmanlab.com/experiments/alicia/teaching/experiment/?hitId=3YGE63DIN8J20XK20KS1742RQF60WK&workerId=A2VZBQLSFZC519&assignmentId=38BQUHLA9XMTKMG1P5TRDQS5OOLOMD&a=AUB88&tp_a=AUB88&b=38BQUHLA9XMTKMG1P5TRDQS5OOLOMD&tp_b=38BQUHLA9XMTKMG1P5TRDQS5OOLOMD&c=365198&tp_c=365198","heads":4,"tails":0,"studentIndex":15,"studentTrueHypers":{"a":8,"b":2},"studentGuess":0.8571428571428571,"delta":0.05714285714285705,"totalExamples":4,"bonusSoFar":2.86},{"rt":5127,"response":{"heads":"2","tails":"1"},"type":"response","condition":"seqFeedback","trueTheta":0.8,"classrooms":["C","D"],"studentTrueClassroom":"D","exampleSet":"second","trial_type":"survey-html-form","trial_index":125,"time_elapsed":2417091,"internal_node_id":"0.0-123.0-0.0","params":{"nStudents":24,"maxFlips":30,"completionMinutes":45,"basePay":8,"maxBonus":9,"perTrialBonus":0.5,"perTrialBonusThreshold":0.1,"exampleCost":0.01},"classroomParams":{"A":{"a":1,"b":4},"B":{"a":4,"b":1},"C":{"a":2,"b":8},"D":{"a":8,"b":2}},"conditions":["nonSeqFull","nonSeqPartial","seqNoFeedback","seqFeedback"],"classroomPairings":[["A","B"],["C","D"]],"coinWeights":[0.2,0.5,0.8],"subjectId":"A2VZBQLSFZC519","assignmentId":"38BQUHLA9XMTKMG1P5TRDQS5OOLOMD","hitId":"3YGE63DIN8J20XK20KS1742RQF60WK","url":"https://gershmanlab.com/experiments/alicia/teaching/experiment/?hitId=3YGE63DIN8J20XK20KS1742RQF60WK&workerId=A2VZBQLSFZC519&assignmentId=38BQUHLA9XMTKMG1P5TRDQS5OOLOMD&a=AUB88&tp_a=AUB88&b=38BQUHLA9XMTKMG1P5TRDQS5OOLOMD&tp_b=38BQUHLA9XMTKMG1P5TRDQS5OOLOMD&c=365198&tp_c=365198","firstResponseHeads":4,"firstResponseTails":0,"secondResponseHeads":2,"secondResponseTails":1,"studentIndex":15,"studentTrueHypers":{"a":8,"b":2},"studentGuess":0.8235294117647058,"delta":0.0235294117647058,"bonus":0.43,"bonusSoFar":3.29,"totalExamples":7},{"rt":9374,"response":{"heads":"5","tails":"5"},"type":"response","condition":"seqFeedback","trueTheta":0.5,"classrooms":["C","D"],"studentTrueClassroom":"C","exampleSet":"first","trial_type":"survey-html-form","trial_index":131,"time_elapsed":2444242,"internal_node_id":"0.0-129.0-0.0","params":{"nStudents":24,"maxFlips":30,"completionMinutes":45,"basePay":8,"maxBonus":9,"perTrialBonus":0.5,"perTrialBonusThreshold":0.1,"exampleCost":0.01},"classroomParams":{"A":{"a":1,"b":4},"B":{"a":4,"b":1},"C":{"a":2,"b":8},"D":{"a":8,"b":2}},"conditions":["nonSeqFull","nonSeqPartial","seqNoFeedback","seqFeedback"],"classroomPairings":[["A","B"],["C","D"]],"coinWeights":[0.2,0.5,0.8],"subjectId":"A2VZBQLSFZC519","assignmentId":"38BQUHLA9XMTKMG1P5TRDQS5OOLOMD","hitId":"3YGE63DIN8J20XK20KS1742RQF60WK","url":"https://gershmanlab.com/experiments/alicia/teaching/experiment/?hitId=3YGE63DIN8J20XK20KS1742RQF60WK&workerId=A2VZBQLSFZC519&assignmentId=38BQUHLA9XMTKMG1P5TRDQS5OOLOMD&a=AUB88&tp_a=AUB88&b=38BQUHLA9XMTKMG1P5TRDQS5OOLOMD&tp_b=38BQUHLA9XMTKMG1P5TRDQS5OOLOMD&c=365198&tp_c=365198","heads":5,"tails":5,"studentIndex":16,"studentTrueHypers":{"a":2,"b":8},"studentGuess":0.35,"delta":0.15000000000000002,"totalExamples":10,"bonusSoFar":3.29},{"rt":6635,"response":{"heads":"3","tails":"0"},"type":"response","condition":"seqFeedback","trueTheta":0.5,"classrooms":["C","D"],"studentTrueClassroom":"C","exampleSet":"second","trial_type":"survey-html-form","trial_index":135,"time_elapsed":2461161,"internal_node_id":"0.0-133.0-0.0","params":{"nStudents":24,"maxFlips":30,"completionMinutes":45,"basePay":8,"maxBonus":9,"perTrialBonus":0.5,"perTrialBonusThreshold":0.1,"exampleCost":0.01},"classroomParams":{"A":{"a":1,"b":4},"B":{"a":4,"b":1},"C":{"a":2,"b":8},"D":{"a":8,"b":2}},"conditions":["nonSeqFull","nonSeqPartial","seqNoFeedback","seqFeedback"],"classroomPairings":[["A","B"],["C","D"]],"coinWeights":[0.2,0.5,0.8],"subjectId":"A2VZBQLSFZC519","assignmentId":"38BQUHLA9XMTKMG1P5TRDQS5OOLOMD","hitId":"3YGE63DIN8J20XK20KS1742RQF60WK","url":"https://gershmanlab.com/experiments/alicia/teaching/experiment/?hitId=3YGE63DIN8J20XK20KS1742RQF60WK&workerId=A2VZBQLSFZC519&assignmentId=38BQUHLA9XMTKMG1P5TRDQS5OOLOMD&a=AUB88&tp_a=AUB88&b=38BQUHLA9XMTKMG1P5TRDQS5OOLOMD&tp_b=38BQUHLA9XMTKMG1P5TRDQS5OOLOMD&c=365198&tp_c=365198","firstResponseHeads":5,"firstResponseTails":5,"secondResponseHeads":3,"secondResponseTails":0,"studentIndex":16,"studentTrueHypers":{"a":2,"b":8},"studentGuess":0.43478260869565216,"delta":0.06521739130434784,"bonus":0.37,"bonusSoFar":3.66,"totalExamples":13},{"rt":5713,"response":{"heads":"0","tails":"10"},"type":"response","condition":"seqFeedback","trueTheta":0.2,"classrooms":["C","D"],"studentTrueClassroom":"C","exampleSet":"first","trial_type":"survey-html-form","trial_index":141,"time_elapsed":2480548,"internal_node_id":"0.0-139.0-0.0","params":{"nStudents":24,"maxFlips":30,"completionMinutes":45,"basePay":8,"maxBonus":9,"perTrialBonus":0.5,"perTrialBonusThreshold":0.1,"exampleCost":0.01},"classroomParams":{"A":{"a":1,"b":4},"B":{"a":4,"b":1},"C":{"a":2,"b":8},"D":{"a":8,"b":2}},"conditions":["nonSeqFull","nonSeqPartial","seqNoFeedback","seqFeedback"],"classroomPairings":[["A","B"],["C","D"]],"coinWeights":[0.2,0.5,0.8],"subjectId":"A2VZBQLSFZC519","assignmentId":"38BQUHLA9XMTKMG1P5TRDQS5OOLOMD","hitId":"3YGE63DIN8J20XK20KS1742RQF60WK","url":"https://gershmanlab.com/experiments/alicia/teaching/experiment/?hitId=3YGE63DIN8J20XK20KS1742RQF60WK&workerId=A2VZBQLSFZC519&assignmentId=38BQUHLA9XMTKMG1P5TRDQS5OOLOMD&a=AUB88&tp_a=AUB88&b=38BQUHLA9XMTKMG1P5TRDQS5OOLOMD&tp_b=38BQUHLA9XMTKMG1P5TRDQS5OOLOMD&c=365198&tp_c=365198","heads":0,"tails":10,"studentIndex":17,"studentTrueHypers":{"a":2,"b":8},"studentGuess":0.1,"delta":0.1,"totalExamples":10,"bonusSoFar":3.66},{"rt":7322,"response":{"heads":"2","tails":"3"},"type":"response","condition":"seqFeedback","trueTheta":0.2,"classrooms":["C","D"],"studentTrueClassroom":"C","exampleSet":"second","trial_type":"survey-html-form","trial_index":145,"time_elapsed":2497055,"internal_node_id":"0.0-143.0-0.0","params":{"nStudents":24,"maxFlips":30,"completionMinutes":45,"basePay":8,"maxBonus":9,"perTrialBonus":0.5,"perTrialBonusThreshold":0.1,"exampleCost":0.01},"classroomParams":{"A":{"a":1,"b":4},"B":{"a":4,"b":1},"C":{"a":2,"b":8},"D":{"a":8,"b":2}},"conditions":["nonSeqFull","nonSeqPartial","seqNoFeedback","seqFeedback"],"classroomPairings":[["A","B"],["C","D"]],"coinWeights":[0.2,0.5,0.8],"subjectId":"A2VZBQLSFZC519","assignmentId":"38BQUHLA9XMTKMG1P5TRDQS5OOLOMD","hitId":"3YGE63DIN8J20XK20KS1742RQF60WK","url":"https://gershmanlab.com/experiments/alicia/teaching/experiment/?hitId=3YGE63DIN8J20XK20KS1742RQF60WK&workerId=A2VZBQLSFZC519&assignmentId=38BQUHLA9XMTKMG1P5TRDQS5OOLOMD&a=AUB88&tp_a=AUB88&b=38BQUHLA9XMTKMG1P5TRDQS5OOLOMD&tp_b=38BQUHLA9XMTKMG1P5TRDQS5OOLOMD&c=365198&tp_c=365198","firstResponseHeads":0,"firstResponseTails":10,"secondResponseHeads":2,"secondResponseTails":3,"studentIndex":17,"studentTrueHypers":{"a":2,"b":8},"studentGuess":0.16,"delta":0.04000000000000001,"bonus":0.35,"bonusSoFar":4.01,"totalExamples":15},{"rt":3166,"response":{"heads":"5","tails":"5"},"type":"response","condition":"seqFeedback","trueTheta":0.2,"classrooms":["A","B"],"studentTrueClassroom":"A","exampleSet":"first","trial_type":"survey-html-form","trial_index":151,"time_elapsed":2516662,"internal_node_id":"0.0-149.0-0.0","params":{"nStudents":24,"maxFlips":30,"completionMinutes":45,"basePay":8,"maxBonus":9,"perTrialBonus":0.5,"perTrialBonusThreshold":0.1,"exampleCost":0.01},"classroomParams":{"A":{"a":1,"b":4},"B":{"a":4,"b":1},"C":{"a":2,"b":8},"D":{"a":8,"b":2}},"conditions":["nonSeqFull","nonSeqPartial","seqNoFeedback","seqFeedback"],"classroomPairings":[["A","B"],["C","D"]],"coinWeights":[0.2,0.5,0.8],"subjectId":"A2VZBQLSFZC519","assignmentId":"38BQUHLA9XMTKMG1P5TRDQS5OOLOMD","hitId":"3YGE63DIN8J20XK20KS1742RQF60WK","url":"https://gershmanlab.com/experiments/alicia/teaching/experiment/?hitId=3YGE63DIN8J20XK20KS1742RQF60WK&workerId=A2VZBQLSFZC519&assignmentId=38BQUHLA9XMTKMG1P5TRDQS5OOLOMD&a=AUB88&tp_a=AUB88&b=38BQUHLA9XMTKMG1P5TRDQS5OOLOMD&tp_b=38BQUHLA9XMTKMG1P5TRDQS5OOLOMD&c=365198&tp_c=365198","heads":5,"tails":5,"studentIndex":18,"studentTrueHypers":{"a":1,"b":4},"studentGuess":0.4,"delta":0.2,"totalExamples":10,"bonusSoFar":4.01},{"rt":7719,"response":{"heads":"0","tails":"4"},"type":"response","condition":"seqFeedback","trueTheta":0.2,"classrooms":["A","B"],"studentTrueClassroom":"A","exampleSet":"second","trial_type":"survey-html-form","trial_index":155,"time_elapsed":2532092,"internal_node_id":"0.0-153.0-0.0","params":{"nStudents":24,"maxFlips":30,"completionMinutes":45,"basePay":8,"maxBonus":9,"perTrialBonus":0.5,"perTrialBonusThreshold":0.1,"exampleCost":0.01},"classroomParams":{"A":{"a":1,"b":4},"B":{"a":4,"b":1},"C":{"a":2,"b":8},"D":{"a":8,"b":2}},"conditions":["nonSeqFull","nonSeqPartial","seqNoFeedback","seqFeedback"],"classroomPairings":[["A","B"],["C","D"]],"coinWeights":[0.2,0.5,0.8],"subjectId":"A2VZBQLSFZC519","assignmentId":"38BQUHLA9XMTKMG1P5TRDQS5OOLOMD","hitId":"3YGE63DIN8J20XK20KS1742RQF60WK","url":"https://gershmanlab.com/experiments/alicia/teaching/experiment/?hitId=3YGE63DIN8J20XK20KS1742RQF60WK&workerId=A2VZBQLSFZC519&assignmentId=38BQUHLA9XMTKMG1P5TRDQS5OOLOMD&a=AUB88&tp_a=AUB88&b=38BQUHLA9XMTKMG1P5TRDQS5OOLOMD&tp_b=38BQUHLA9XMTKMG1P5TRDQS5OOLOMD&c=365198&tp_c=365198","firstResponseHeads":5,"firstResponseTails":5,"secondResponseHeads":0,"secondResponseTails":4,"studentIndex":18,"studentTrueHypers":{"a":1,"b":4},"studentGuess":0.3157894736842105,"delta":0.1157894736842105,"bonus":0,"bonusSoFar":4.01,"totalExamples":14},{"rt":7634,"response":{"heads":"8","tails":"2"},"type":"response","condition":"nonSeqFull","trueTheta":0.5,"classrooms":["C","D"],"studentTrueClassroom":"C","exampleSet":"first","trial_type":"survey-html-form","trial_index":161,"time_elapsed":2553780,"internal_node_id":"0.0-159.0-0.0","params":{"nStudents":24,"maxFlips":30,"completionMinutes":45,"basePay":8,"maxBonus":9,"perTrialBonus":0.5,"perTrialBonusThreshold":0.1,"exampleCost":0.01},"classroomParams":{"A":{"a":1,"b":4},"B":{"a":4,"b":1},"C":{"a":2,"b":8},"D":{"a":8,"b":2}},"conditions":["nonSeqFull","nonSeqPartial","seqNoFeedback","seqFeedback"],"classroomPairings":[["A","B"],["C","D"]],"coinWeights":[0.2,0.5,0.8],"subjectId":"A2VZBQLSFZC519","assignmentId":"38BQUHLA9XMTKMG1P5TRDQS5OOLOMD","hitId":"3YGE63DIN8J20XK20KS1742RQF60WK","url":"https://gershmanlab.com/experiments/alicia/teaching/experiment/?hitId=3YGE63DIN8J20XK20KS1742RQF60WK&workerId=A2VZBQLSFZC519&assignmentId=38BQUHLA9XMTKMG1P5TRDQS5OOLOMD&a=AUB88&tp_a=AUB88&b=38BQUHLA9XMTKMG1P5TRDQS5OOLOMD&tp_b=38BQUHLA9XMTKMG1P5TRDQS5OOLOMD&c=365198&tp_c=365198","heads":8,"tails":2,"studentIndex":19,"studentTrueHypers":{"a":2,"b":8},"studentGuess":0.5,"delta":0,"totalExamples":10,"bonus":0.4,"bonusSoFar":4.41},{"rt":13872,"response":{"heads":"2","tails":"2"},"type":"response","condition":"nonSeqPartial","trueTheta":0.5,"classrooms":["A","B"],"studentTrueClassroom":"B","exampleSet":"first","trial_type":"survey-html-form","trial_index":167,"time_elapsed":2584265,"internal_node_id":"0.0-165.0-0.0","params":{"nStudents":24,"maxFlips":30,"completionMinutes":45,"basePay":8,"maxBonus":9,"perTrialBonus":0.5,"perTrialBonusThreshold":0.1,"exampleCost":0.01},"classroomParams":{"A":{"a":1,"b":4},"B":{"a":4,"b":1},"C":{"a":2,"b":8},"D":{"a":8,"b":2}},"conditions":["nonSeqFull","nonSeqPartial","seqNoFeedback","seqFeedback"],"classroomPairings":[["A","B"],["C","D"]],"coinWeights":[0.2,0.5,0.8],"subjectId":"A2VZBQLSFZC519","assignmentId":"38BQUHLA9XMTKMG1P5TRDQS5OOLOMD","hitId":"3YGE63DIN8J20XK20KS1742RQF60WK","url":"https://gershmanlab.com/experiments/alicia/teaching/experiment/?hitId=3YGE63DIN8J20XK20KS1742RQF60WK&workerId=A2VZBQLSFZC519&assignmentId=38BQUHLA9XMTKMG1P5TRDQS5OOLOMD&a=AUB88&tp_a=AUB88&b=38BQUHLA9XMTKMG1P5TRDQS5OOLOMD&tp_b=38BQUHLA9XMTKMG1P5TRDQS5OOLOMD&c=365198&tp_c=365198","heads":2,"tails":2,"studentIndex":20,"studentTrueHypers":{"a":4,"b":1},"studentGuess":0.6666666666666666,"delta":0.16666666666666663,"totalExamples":4,"bonus":0,"bonusSoFar":4.41},{"rt":7469,"response":{"heads":"1","tails":"4"},"type":"response","condition":"nonSeqFull","trueTheta":0.5,"classrooms":["A","B"],"studentTrueClassroom":"B","exampleSet":"first","trial_type":"survey-html-form","trial_index":173,"time_elapsed":2607829,"internal_node_id":"0.0-171.0-0.0","params":{"nStudents":24,"maxFlips":30,"completionMinutes":45,"basePay":8,"maxBonus":9,"perTrialBonus":0.5,"perTrialBonusThreshold":0.1,"exampleCost":0.01},"classroomParams":{"A":{"a":1,"b":4},"B":{"a":4,"b":1},"C":{"a":2,"b":8},"D":{"a":8,"b":2}},"conditions":["nonSeqFull","nonSeqPartial","seqNoFeedback","seqFeedback"],"classroomPairings":[["A","B"],["C","D"]],"coinWeights":[0.2,0.5,0.8],"subjectId":"A2VZBQLSFZC519","assignmentId":"38BQUHLA9XMTKMG1P5TRDQS5OOLOMD","hitId":"3YGE63DIN8J20XK20KS1742RQF60WK","url":"https://gershmanlab.com/experiments/alicia/teaching/experiment/?hitId=3YGE63DIN8J20XK20KS1742RQF60WK&workerId=A2VZBQLSFZC519&assignmentId=38BQUHLA9XMTKMG1P5TRDQS5OOLOMD&a=AUB88&tp_a=AUB88&b=38BQUHLA9XMTKMG1P5TRDQS5OOLOMD&tp_b=38BQUHLA9XMTKMG1P5TRDQS5OOLOMD&c=365198&tp_c=365198","heads":1,"tails":4,"studentIndex":21,"studentTrueHypers":{"a":4,"b":1},"studentGuess":0.5,"delta":0,"totalExamples":5,"bonus":0.45,"bonusSoFar":4.86},{"rt":16786,"response":{"heads":"0","tails":"12"},"type":"response","condition":"nonSeqFull","trueTheta":0.2,"classrooms":["C","D"],"studentTrueClassroom":"D","exampleSet":"first","trial_type":"survey-html-form","trial_index":179,"time_elapsed":2643573,"internal_node_id":"0.0-177.0-0.0","params":{"nStudents":24,"maxFlips":30,"completionMinutes":45,"basePay":8,"maxBonus":9,"perTrialBonus":0.5,"perTrialBonusThreshold":0.1,"exampleCost":0.01},"classroomParams":{"A":{"a":1,"b":4},"B":{"a":4,"b":1},"C":{"a":2,"b":8},"D":{"a":8,"b":2}},"conditions":["nonSeqFull","nonSeqPartial","seqNoFeedback","seqFeedback"],"classroomPairings":[["A","B"],["C","D"]],"coinWeights":[0.2,0.5,0.8],"subjectId":"A2VZBQLSFZC519","assignmentId":"38BQUHLA9XMTKMG1P5TRDQS5OOLOMD","hitId":"3YGE63DIN8J20XK20KS1742RQF60WK","url":"https://gershmanlab.com/experiments/alicia/teaching/experiment/?hitId=3YGE63DIN8J20XK20KS1742RQF60WK&workerId=A2VZBQLSFZC519&assignmentId=38BQUHLA9XMTKMG1P5TRDQS5OOLOMD&a=AUB88&tp_a=AUB88&b=38BQUHLA9XMTKMG1P5TRDQS5OOLOMD&tp_b=38BQUHLA9XMTKMG1P5TRDQS5OOLOMD&c=365198&tp_c=365198","heads":0,"tails":12,"studentIndex":22,"studentTrueHypers":{"a":8,"b":2},"studentGuess":0.36363636363636365,"delta":0.16363636363636364,"totalExamples":12,"bonus":0,"bonusSoFar":4.86},{"rt":5835,"response":{"heads":"2","tails":"2"},"type":"response","condition":"seqNoFeedback","trueTheta":0.5,"classrooms":["A","B"],"studentTrueClassroom":"B","exampleSet":"first","trial_type":"survey-html-form","trial_index":185,"time_elapsed":2665411,"internal_node_id":"0.0-183.0-0.0","params":{"nStudents":24,"maxFlips":30,"completionMinutes":45,"basePay":8,"maxBonus":9,"perTrialBonus":0.5,"perTrialBonusThreshold":0.1,"exampleCost":0.01},"classroomParams":{"A":{"a":1,"b":4},"B":{"a":4,"b":1},"C":{"a":2,"b":8},"D":{"a":8,"b":2}},"conditions":["nonSeqFull","nonSeqPartial","seqNoFeedback","seqFeedback"],"classroomPairings":[["A","B"],["C","D"]],"coinWeights":[0.2,0.5,0.8],"subjectId":"A2VZBQLSFZC519","assignmentId":"38BQUHLA9XMTKMG1P5TRDQS5OOLOMD","hitId":"3YGE63DIN8J20XK20KS1742RQF60WK","url":"https://gershmanlab.com/experiments/alicia/teaching/experiment/?hitId=3YGE63DIN8J20XK20KS1742RQF60WK&workerId=A2VZBQLSFZC519&assignmentId=38BQUHLA9XMTKMG1P5TRDQS5OOLOMD&a=AUB88&tp_a=AUB88&b=38BQUHLA9XMTKMG1P5TRDQS5OOLOMD&tp_b=38BQUHLA9XMTKMG1P5TRDQS5OOLOMD&c=365198&tp_c=365198","heads":2,"tails":2,"studentIndex":23,"studentTrueHypers":{"a":4,"b":1},"studentGuess":0.6666666666666666,"delta":0.16666666666666663,"totalExamples":4,"bonusSoFar":4.86},{"rt":10264,"response":{"heads":"2","tails":"2"},"type":"response","condition":"seqNoFeedback","trueTheta":0.5,"classrooms":["A","B"],"studentTrueClassroom":"B","exampleSet":"second","trial_type":"survey-html-form","trial_index":188,"time_elapsed":2682183,"internal_node_id":"0.0-186.0-0.0","params":{"nStudents":24,"maxFlips":30,"completionMinutes":45,"basePay":8,"maxBonus":9,"perTrialBonus":0.5,"perTrialBonusThreshold":0.1,"exampleCost":0.01},"classroomParams":{"A":{"a":1,"b":4},"B":{"a":4,"b":1},"C":{"a":2,"b":8},"D":{"a":8,"b":2}},"conditions":["nonSeqFull","nonSeqPartial","seqNoFeedback","seqFeedback"],"classroomPairings":[["A","B"],["C","D"]],"coinWeights":[0.2,0.5,0.8],"subjectId":"A2VZBQLSFZC519","assignmentId":"38BQUHLA9XMTKMG1P5TRDQS5OOLOMD","hitId":"3YGE63DIN8J20XK20KS1742RQF60WK","url":"https://gershmanlab.com/experiments/alicia/teaching/experiment/?hitId=3YGE63DIN8J20XK20KS1742RQF60WK&workerId=A2VZBQLSFZC519&assignmentId=38BQUHLA9XMTKMG1P5TRDQS5OOLOMD&a=AUB88&tp_a=AUB88&b=38BQUHLA9XMTKMG1P5TRDQS5OOLOMD&tp_b=38BQUHLA9XMTKMG1P5TRDQS5OOLOMD&c=365198&tp_c=365198","firstResponseHeads":2,"firstResponseTails":2,"secondResponseHeads":2,"secondResponseTails":2,"studentIndex":23,"studentTrueHypers":{"a":4,"b":1},"studentGuess":0.6153846153846154,"delta":0.11538461538461542,"bonus":0,"bonusSoFar":4.86,"totalExamples":8},{"rt":8442,"response":{"gender":"female","age":"24","understood":"yes","comments":""},"type":"response","trial_type":"survey-html-form","trial_index":192,"time_elapsed":2703673,"internal_node_id":"0.0-191.0","params":{"nStudents":24,"maxFlips":30,"completionMinutes":45,"basePay":8,"maxBonus":9,"perTrialBonus":0.5,"perTrialBonusThreshold":0.1,"exampleCost":0.01},"classroomParams":{"A":{"a":1,"b":4},"B":{"a":4,"b":1},"C":{"a":2,"b":8},"D":{"a":8,"b":2}},"conditions":["nonSeqFull","nonSeqPartial","seqNoFeedback","seqFeedback"],"classroomPairings":[["A","B"],["C","D"]],"coinWeights":[0.2,0.5,0.8],"subjectId":"A2VZBQLSFZC519","assignmentId":"38BQUHLA9XMTKMG1P5TRDQS5OOLOMD","hitId":"3YGE63DIN8J20XK20KS1742RQF60WK","url":"https://gershmanlab.com/experiments/alicia/teaching/experiment/?hitId=3YGE63DIN8J20XK20KS1742RQF60WK&workerId=A2VZBQLSFZC519&assignmentId=38BQUHLA9XMTKMG1P5TRDQS5OOLOMD&a=AUB88&tp_a=AUB88&b=38BQUHLA9XMTKMG1P5TRDQS5OOLOMD&tp_b=38BQUHLA9XMTKMG1P5TRDQS5OOLOMD&c=365198&tp_c=365198","totalBonus":4.86}]