[{"rt":64998,"response":{"heads":"1","tails":"9"},"type":"response","condition":"nonSeqPartial","trueTheta":0.2,"classrooms":["C","D"],"studentTrueClassroom":"D","exampleSet":"first","trial_type":"survey-html-form","trial_index":7,"time_elapsed":1434601,"internal_node_id":"0.0-6.0-0.0","params":{"nStudents":24,"maxFlips":30,"completionMinutes":45,"basePay":8,"maxBonus":9,"perTrialBonus":0.5,"perTrialBonusThreshold":0.1,"exampleCost":0.01},"classroomParams":{"A":{"a":1,"b":4},"B":{"a":4,"b":1},"C":{"a":2,"b":8},"D":{"a":8,"b":2}},"conditions":["nonSeqFull","nonSeqPartial","seqNoFeedback","seqFeedback"],"classroomPairings":[["A","B"],["C","D"]],"coinWeights":[0.2,0.5,0.8],"subjectId":"A34SIGOLUGKIHJ","assignmentId":"39LNWE0K4VI218A70C78K3DDP1PIU4","hitId":"3YGE63DIN8J20XK20KS1742RQF60WK","url":"https://gershmanlab.com/experiments/alicia/teaching/experiment/?hitId=3YGE63DIN8J20XK20KS1742RQF60WK&workerId=A34SIGOLUGKIHJ&assignmentId=39LNWE0K4VI218A70C78K3DDP1PIU4&a=KWL98&tp_a=KWL98&b=39LNWE0K4VI218A70C78K3DDP1PIU4&tp_b=39LNWE0K4VI218A70C78K3DDP1PIU4&c=365198&tp_c=365198","heads":1,"tails":9,"studentIndex":0,"studentTrueHypers":{"a":8,"b":2},"studentGuess":0.45,"delta":0.25,"totalExamples":10,"bonus":0,"bonusSoFar":0},{"rt":67511,"response":{"heads":"16","tails":"4"},"type":"response","condition":"nonSeqFull","trueTheta":0.8,"classrooms":["A","B"],"studentTrueClassroom":"B","exampleSet":"first","trial_type":"survey-html-form","trial_index":13,"time_elapsed":1521329,"internal_node_id":"0.0-12.0-0.0","params":{"nStudents":24,"maxFlips":30,"completionMinutes":45,"basePay":8,"maxBonus":9,"perTrialBonus":0.5,"perTrialBonusThreshold":0.1,"exampleCost":0.01},"classroomParams":{"A":{"a":1,"b":4},"B":{"a":4,"b":1},"C":{"a":2,"b":8},"D":{"a":8,"b":2}},"conditions":["nonSeqFull","nonSeqPartial","seqNoFeedback","seqFeedback"],"classroomPairings":[["A","B"],["C","D"]],"coinWeights":[0.2,0.5,0.8],"subjectId":"A34SIGOLUGKIHJ","assignmentId":"39LNWE0K4VI218A70C78K3DDP1PIU4","hitId":"3YGE63DIN8J20XK20KS1742RQF60WK","url":"https://gershmanlab.com/experiments/alicia/teaching/experiment/?hitId=3YGE63DIN8J20XK20KS1742RQF60WK&workerId=A34SIGOLUGKIHJ&assignmentId=39LNWE0K4VI218A70C78K3DDP1PIU4&a=KWL98&tp_a=KWL98&b=39LNWE0K4VI218A70C78K3DDP1PIU4&tp_b=39LNWE0K4VI218A70C78K3DDP1PIU4&c=365198&tp_c=365198","heads":16,"tails":4,"studentIndex":1,"studentTrueHypers":{"a":4,"b":1},"studentGuess":0.8,"delta":0,"totalExamples":20,"bonus":0.3,"bonusSoFar":0.3},{"rt":26559,"response":{"heads":"1","tails":"8"},"type":"response","condition":"nonSeqPartial","trueTheta":0.2,"classrooms":["A","B"],"studentTrueClassroom":"A","exampleSet":"first","trial_type":"survey-html-form","trial_index":19,"time_elapsed":1575665,"internal_node_id":"0.0-18.0-0.0","params":{"nStudents":24,"maxFlips":30,"completionMinutes":45,"basePay":8,"maxBonus":9,"perTrialBonus":0.5,"perTrialBonusThreshold":0.1,"exampleCost":0.01},"classroomParams":{"A":{"a":1,"b":4},"B":{"a":4,"b":1},"C":{"a":2,"b":8},"D":{"a":8,"b":2}},"conditions":["nonSeqFull","nonSeqPartial","seqNoFeedback","seqFeedback"],"classroomPairings":[["A","B"],["C","D"]],"coinWeights":[0.2,0.5,0.8],"subjectId":"A34SIGOLUGKIHJ","assignmentId":"39LNWE0K4VI218A70C78K3DDP1PIU4","hitId":"3YGE63DIN8J20XK20KS1742RQF60WK","url":"https://gershmanlab.com/experiments/alicia/teaching/experiment/?hitId=3YGE63DIN8J20XK20KS1742RQF60WK&workerId=A34SIGOLUGKIHJ&assignmentId=39LNWE0K4VI218A70C78K3DDP1PIU4&a=KWL98&tp_a=KWL98&b=39LNWE0K4VI218A70C78K3DDP1PIU4&tp_b=39LNWE0K4VI218A70C78K3DDP1PIU4&c=365198&tp_c=365198","heads":1,"tails":8,"studentIndex":2,"studentTrueHypers":{"a":1,"b":4},"studentGuess":0.14285714285714285,"delta":0.05714285714285716,"totalExamples":9,"bonus":0.41,"bonusSoFar":0.71},{"rt":23192,"response":{"heads":"7","tails":"1"},"type":"response","condition":"seqNoFeedback","trueTheta":0.8,"classrooms":["A","B"],"studentTrueClassroom":"B","exampleSet":"first","trial_type":"survey-html-form","trial_index":25,"time_elapsed":1644170,"internal_node_id":"0.0-24.0-0.0","params":{"nStudents":24,"maxFlips":30,"completionMinutes":45,"basePay":8,"maxBonus":9,"perTrialBonus":0.5,"perTrialBonusThreshold":0.1,"exampleCost":0.01},"classroomParams":{"A":{"a":1,"b":4},"B":{"a":4,"b":1},"C":{"a":2,"b":8},"D":{"a":8,"b":2}},"conditions":["nonSeqFull","nonSeqPartial","seqNoFeedback","seqFeedback"],"classroomPairings":[["A","B"],["C","D"]],"coinWeights":[0.2,0.5,0.8],"subjectId":"A34SIGOLUGKIHJ","assignmentId":"39LNWE0K4VI218A70C78K3DDP1PIU4","hitId":"3YGE63DIN8J20XK20KS1742RQF60WK","url":"https://gershmanlab.com/experiments/alicia/teaching/experiment/?hitId=3YGE63DIN8J20XK20KS1742RQF60WK&workerId=A34SIGOLUGKIHJ&assignmentId=39LNWE0K4VI218A70C78K3DDP1PIU4&a=KWL98&tp_a=KWL98&b=39LNWE0K4VI218A70C78K3DDP1PIU4&tp_b=39LNWE0K4VI218A70C78K3DDP1PIU4&c=365198&tp_c=365198","heads":7,"tails":1,"studentIndex":3,"studentTrueHypers":{"a":4,"b":1},"studentGuess":0.8461538461538461,"delta":0.0461538461538461,"totalExamples":8,"bonusSoFar":0.71},{"rt":14656,"response":{"heads":"6","tails":"1"},"type":"response","condition":"seqNoFeedback","trueTheta":0.8,"classrooms":["A","B"],"studentTrueClassroom":"B","exampleSet":"second","trial_type":"survey-html-form","trial_index":28,"time_elapsed":1666585,"internal_node_id":"0.0-27.0-0.0","params":{"nStudents":24,"maxFlips":30,"completionMinutes":45,"basePay":8,"maxBonus":9,"perTrialBonus":0.5,"perTrialBonusThreshold":0.1,"exampleCost":0.01},"classroomParams":{"A":{"a":1,"b":4},"B":{"a":4,"b":1},"C":{"a":2,"b":8},"D":{"a":8,"b":2}},"conditions":["nonSeqFull","nonSeqPartial","seqNoFeedback","seqFeedback"],"classroomPairings":[["A","B"],["C","D"]],"coinWeights":[0.2,0.5,0.8],"subjectId":"A34SIGOLUGKIHJ","assignmentId":"39LNWE0K4VI218A70C78K3DDP1PIU4","hitId":"3YGE63DIN8J20XK20KS1742RQF60WK","url":"https://gershmanlab.com/experiments/alicia/teaching/experiment/?hitId=3YGE63DIN8J20XK20KS1742RQF60WK&workerId=A34SIGOLUGKIHJ&assignmentId=39LNWE0K4VI218A70C78K3DDP1PIU4&a=KWL98&tp_a=KWL98&b=39LNWE0K4VI218A70C78K3DDP1PIU4&tp_b=39LNWE0K4VI218A70C78K3DDP1PIU4&c=365198&tp_c=365198","firstResponseHeads":7,"firstResponseTails":1,"secondResponseHeads":6,"secondResponseTails":1,"studentIndex":3,"studentTrueHypers":{"a":4,"b":1},"studentGuess":0.85,"delta":0.04999999999999993,"bonus":0.35,"bonusSoFar":1.06,"totalExamples":15},{"rt":18567,"response":{"heads":"1","tails":"7"},"type":"response","condition":"seqNoFeedback","trueTheta":0.2,"classrooms":["C","D"],"studentTrueClassroom":"D","exampleSet":"first","trial_type":"survey-html-form","trial_index":34,"time_elapsed":1799409,"internal_node_id":"0.0-33.0-0.0","params":{"nStudents":24,"maxFlips":30,"completionMinutes":45,"basePay":8,"maxBonus":9,"perTrialBonus":0.5,"perTrialBonusThreshold":0.1,"exampleCost":0.01},"classroomParams":{"A":{"a":1,"b":4},"B":{"a":4,"b":1},"C":{"a":2,"b":8},"D":{"a":8,"b":2}},"conditions":["nonSeqFull","nonSeqPartial","seqNoFeedback","seqFeedback"],"classroomPairings":[["A","B"],["C","D"]],"coinWeights":[0.2,0.5,0.8],"subjectId":"A34SIGOLUGKIHJ","assignmentId":"39LNWE0K4VI218A70C78K3DDP1PIU4","hitId":"3YGE63DIN8J20XK20KS1742RQF60WK","url":"https://gershmanlab.com/experiments/alicia/teaching/experiment/?hitId=3YGE63DIN8J20XK20KS1742RQF60WK&workerId=A34SIGOLUGKIHJ&assignmentId=39LNWE0K4VI218A70C78K3DDP1PIU4&a=KWL98&tp_a=KWL98&b=39LNWE0K4VI218A70C78K3DDP1PIU4&tp_b=39LNWE0K4VI218A70C78K3DDP1PIU4&c=365198&tp_c=365198","heads":1,"tails":7,"studentIndex":4,"studentTrueHypers":{"a":8,"b":2},"studentGuess":0.5,"delta":0.3,"totalExamples":8,"bonusSoFar":1.06},{"rt":12201,"response":{"heads":"1","tails":"8"},"type":"response","condition":"seqNoFeedback","trueTheta":0.2,"classrooms":["C","D"],"studentTrueClassroom":"D","exampleSet":"second","trial_type":"survey-html-form","trial_index":37,"time_elapsed":1817865,"internal_node_id":"0.0-36.0-0.0","params":{"nStudents":24,"maxFlips":30,"completionMinutes":45,"basePay":8,"maxBonus":9,"perTrialBonus":0.5,"perTrialBonusThreshold":0.1,"exampleCost":0.01},"classroomParams":{"A":{"a":1,"b":4},"B":{"a":4,"b":1},"C":{"a":2,"b":8},"D":{"a":8,"b":2}},"conditions":["nonSeqFull","nonSeqPartial","seqNoFeedback","seqFeedback"],"classroomPairings":[["A","B"],["C","D"]],"coinWeights":[0.2,0.5,0.8],"subjectId":"A34SIGOLUGKIHJ","assignmentId":"39LNWE0K4VI218A70C78K3DDP1PIU4","hitId":"3YGE63DIN8J20XK20KS1742RQF60WK","url":"https://gershmanlab.com/experiments/alicia/teaching/experiment/?hitId=3YGE63DIN8J20XK20KS1742RQF60WK&workerId=A34SIGOLUGKIHJ&assignmentId=39LNWE0K4VI218A70C78K3DDP1PIU4&a=KWL98&tp_a=KWL98&b=39LNWE0K4VI218A70C78K3DDP1PIU4&tp_b=39LNWE0K4VI218A70C78K3DDP1PIU4&c=365198&tp_c=365198","firstResponseHeads":1,"firstResponseTails":7,"secondResponseHeads":1,"secondResponseTails":8,"studentIndex":4,"studentTrueHypers":{"a":8,"b":2},"studentGuess":0.37037037037037035,"delta":0.17037037037037034,"bonus":0,"bonusSoFar":1.06,"totalExamples":17},{"rt":15111,"response":{"heads":"6","tails":"1"},"type":"response","condition":"seqNoFeedback","trueTheta":0.8,"classrooms":["C","D"],"studentTrueClassroom":"D","exampleSet":"first","trial_type":"survey-html-form","trial_index":43,"time_elapsed":1848928,"internal_node_id":"0.0-42.0-0.0","params":{"nStudents":24,"maxFlips":30,"completionMinutes":45,"basePay":8,"maxBonus":9,"perTrialBonus":0.5,"perTrialBonusThreshold":0.1,"exampleCost":0.01},"classroomParams":{"A":{"a":1,"b":4},"B":{"a":4,"b":1},"C":{"a":2,"b":8},"D":{"a":8,"b":2}},"conditions":["nonSeqFull","nonSeqPartial","seqNoFeedback","seqFeedback"],"classroomPairings":[["A","B"],["C","D"]],"coinWeights":[0.2,0.5,0.8],"subjectId":"A34SIGOLUGKIHJ","assignmentId":"39LNWE0K4VI218A70C78K3DDP1PIU4","hitId":"3YGE63DIN8J20XK20KS1742RQF60WK","url":"https://gershmanlab.com/experiments/alicia/teaching/experiment/?hitId=3YGE63DIN8J20XK20KS1742RQF60WK&workerId=A34SIGOLUGKIHJ&assignmentId=39LNWE0K4VI218A70C78K3DDP1PIU4&a=KWL98&tp_a=KWL98&b=39LNWE0K4VI218A70C78K3DDP1PIU4&tp_b=39LNWE0K4VI218A70C78K3DDP1PIU4&c=365198&tp_c=365198","heads":6,"tails":1,"studentIndex":5,"studentTrueHypers":{"a":8,"b":2},"studentGuess":0.8235294117647058,"delta":0.0235294117647058,"totalExamples":7,"bonusSoFar":1.06},{"rt":6923,"response":{"heads":"7","tails":"1"},"type":"response","condition":"seqNoFeedback","trueTheta":0.8,"classrooms":["C","D"],"studentTrueClassroom":"D","exampleSet":"second","trial_type":"survey-html-form","trial_index":46,"time_elapsed":1862112,"internal_node_id":"0.0-45.0-0.0","params":{"nStudents":24,"maxFlips":30,"completionMinutes":45,"basePay":8,"maxBonus":9,"perTrialBonus":0.5,"perTrialBonusThreshold":0.1,"exampleCost":0.01},"classroomParams":{"A":{"a":1,"b":4},"B":{"a":4,"b":1},"C":{"a":2,"b":8},"D":{"a":8,"b":2}},"conditions":["nonSeqFull","nonSeqPartial","seqNoFeedback","seqFeedback"],"classroomPairings":[["A","B"],["C","D"]],"coinWeights":[0.2,0.5,0.8],"subjectId":"A34SIGOLUGKIHJ","assignmentId":"39LNWE0K4VI218A70C78K3DDP1PIU4","hitId":"3YGE63DIN8J20XK20KS1742RQF60WK","url":"https://gershmanlab.com/experiments/alicia/teaching/experiment/?hitId=3YGE63DIN8J20XK20KS1742RQF60WK&workerId=A34SIGOLUGKIHJ&assignmentId=39LNWE0K4VI218A70C78K3DDP1PIU4&a=KWL98&tp_a=KWL98&b=39LNWE0K4VI218A70C78K3DDP1PIU4&tp_b=39LNWE0K4VI218A70C78K3DDP1PIU4&c=365198&tp_c=365198","firstResponseHeads":6,"firstResponseTails":1,"secondResponseHeads":7,"secondResponseTails":1,"studentIndex":5,"studentTrueHypers":{"a":8,"b":2},"studentGuess":0.84,"delta":0.039999999999999925,"bonus":0.35,"bonusSoFar":1.41,"totalExamples":15},{"rt":14696,"response":{"heads":"1","tails":"6"},"type":"response","condition":"nonSeqFull","trueTheta":0.2,"classrooms":["A","B"],"studentTrueClassroom":"B","exampleSet":"first","trial_type":"survey-html-form","trial_index":52,"time_elapsed":1894425,"internal_node_id":"0.0-51.0-0.0","params":{"nStudents":24,"maxFlips":30,"completionMinutes":45,"basePay":8,"maxBonus":9,"perTrialBonus":0.5,"perTrialBonusThreshold":0.1,"exampleCost":0.01},"classroomParams":{"A":{"a":1,"b":4},"B":{"a":4,"b":1},"C":{"a":2,"b":8},"D":{"a":8,"b":2}},"conditions":["nonSeqFull","nonSeqPartial","seqNoFeedback","seqFeedback"],"classroomPairings":[["A","B"],["C","D"]],"coinWeights":[0.2,0.5,0.8],"subjectId":"A34SIGOLUGKIHJ","assignmentId":"39LNWE0K4VI218A70C78K3DDP1PIU4","hitId":"3YGE63DIN8J20XK20KS1742RQF60WK","url":"https://gershmanlab.com/experiments/alicia/teaching/experiment/?hitId=3YGE63DIN8J20XK20KS1742RQF60WK&workerId=A34SIGOLUGKIHJ&assignmentId=39LNWE0K4VI218A70C78K3DDP1PIU4&a=KWL98&tp_a=KWL98&b=39LNWE0K4VI218A70C78K3DDP1PIU4&tp_b=39LNWE0K4VI218A70C78K3DDP1PIU4&c=365198&tp_c=365198","heads":1,"tails":6,"studentIndex":6,"studentTrueHypers":{"a":4,"b":1},"studentGuess":0.4166666666666667,"delta":0.21666666666666667,"totalExamples":7,"bonus":0,"bonusSoFar":1.41},{"rt":17871,"response":{"heads":"16","tails":"4"},"type":"response","condition":"nonSeqPartial","trueTheta":0.8,"classrooms":["A","B"],"studentTrueClassroom":"A","exampleSet":"first","trial_type":"survey-html-form","trial_index":58,"time_elapsed":1930456,"internal_node_id":"0.0-57.0-0.0","params":{"nStudents":24,"maxFlips":30,"completionMinutes":45,"basePay":8,"maxBonus":9,"perTrialBonus":0.5,"perTrialBonusThreshold":0.1,"exampleCost":0.01},"classroomParams":{"A":{"a":1,"b":4},"B":{"a":4,"b":1},"C":{"a":2,"b":8},"D":{"a":8,"b":2}},"conditions":["nonSeqFull","nonSeqPartial","seqNoFeedback","seqFeedback"],"classroomPairings":[["A","B"],["C","D"]],"coinWeights":[0.2,0.5,0.8],"subjectId":"A34SIGOLUGKIHJ","assignmentId":"39LNWE0K4VI218A70C78K3DDP1PIU4","hitId":"3YGE63DIN8J20XK20KS1742RQF60WK","url":"https://gershmanlab.com/experiments/alicia/teaching/experiment/?hitId=3YGE63DIN8J20XK20KS1742RQF60WK&workerId=A34SIGOLUGKIHJ&assignmentId=39LNWE0K4VI218A70C78K3DDP1PIU4&a=KWL98&tp_a=KWL98&b=39LNWE0K4VI218A70C78K3DDP1PIU4&tp_b=39LNWE0K4VI218A70C78K3DDP1PIU4&c=365198&tp_c=365198","heads":16,"tails":4,"studentIndex":7,"studentTrueHypers":{"a":1,"b":4},"studentGuess":0.68,"delta":0.12,"totalExamples":20,"bonus":0,"bonusSoFar":1.41},{"rt":12558,"response":{"heads":"7","tails":"7"},"type":"response","condition":"nonSeqPartial","trueTheta":0.5,"classrooms":["C","D"],"studentTrueClassroom":"D","exampleSet":"first","trial_type":"survey-html-form","trial_index":64,"time_elapsed":1959312,"internal_node_id":"0.0-63.0-0.0","params":{"nStudents":24,"maxFlips":30,"completionMinutes":45,"basePay":8,"maxBonus":9,"perTrialBonus":0.5,"perTrialBonusThreshold":0.1,"exampleCost":0.01},"classroomParams":{"A":{"a":1,"b":4},"B":{"a":4,"b":1},"C":{"a":2,"b":8},"D":{"a":8,"b":2}},"conditions":["nonSeqFull","nonSeqPartial","seqNoFeedback","seqFeedback"],"classroomPairings":[["A","B"],["C","D"]],"coinWeights":[0.2,0.5,0.8],"subjectId":"A34SIGOLUGKIHJ","assignmentId":"39LNWE0K4VI218A70C78K3DDP1PIU4","hitId":"3YGE63DIN8J20XK20KS1742RQF60WK","url":"https://gershmanlab.com/experiments/alicia/teaching/experiment/?hitId=3YGE63DIN8J20XK20KS1742RQF60WK&workerId=A34SIGOLUGKIHJ&assignmentId=39LNWE0K4VI218A70C78K3DDP1PIU4&a=KWL98&tp_a=KWL98&b=39LNWE0K4VI218A70C78K3DDP1PIU4&tp_b=39LNWE0K4VI218A70C78K3DDP1PIU4&c=365198&tp_c=365198","heads":7,"tails":7,"studentIndex":8,"studentTrueHypers":{"a":8,"b":2},"studentGuess":0.625,"delta":0.125,"totalExamples":14,"bonus":0,"bonusSoFar":1.41},{"rt":11479,"response":{"heads":"1","tails":"7"},"type":"response","condition":"seqFeedback","trueTheta":0.2,"classrooms":["A","B"],"studentTrueClassroom":"A","exampleSet":"first","trial_type":"survey-html-form","trial_index":70,"time_elapsed":1988696,"internal_node_id":"0.0-69.0-0.0","params":{"nStudents":24,"maxFlips":30,"completionMinutes":45,"basePay":8,"maxBonus":9,"perTrialBonus":0.5,"perTrialBonusThreshold":0.1,"exampleCost":0.01},"classroomParams":{"A":{"a":1,"b":4},"B":{"a":4,"b":1},"C":{"a":2,"b":8},"D":{"a":8,"b":2}},"conditions":["nonSeqFull","nonSeqPartial","seqNoFeedback","seqFeedback"],"classroomPairings":[["A","B"],["C","D"]],"coinWeights":[0.2,0.5,0.8],"subjectId":"A34SIGOLUGKIHJ","assignmentId":"39LNWE0K4VI218A70C78K3DDP1PIU4","hitId":"3YGE63DIN8J20XK20KS1742RQF60WK","url":"https://gershmanlab.com/experiments/alicia/teaching/experiment/?hitId=3YGE63DIN8J20XK20KS1742RQF60WK&workerId=A34SIGOLUGKIHJ&assignmentId=39LNWE0K4VI218A70C78K3DDP1PIU4&a=KWL98&tp_a=KWL98&b=39LNWE0K4VI218A70C78K3DDP1PIU4&tp_b=39LNWE0K4VI218A70C78K3DDP1PIU4&c=365198&tp_c=365198","heads":1,"tails":7,"studentIndex":9,"studentTrueHypers":{"a":1,"b":4},"studentGuess":0.15384615384615385,"delta":0.046153846153846156,"totalExamples":8,"bonusSoFar":1.41},{"rt":9288,"response":{"heads":"1","tails":"8"},"type":"response","condition":"seqFeedback","trueTheta":0.2,"classrooms":["A","B"],"studentTrueClassroom":"A","exampleSet":"second","trial_type":"survey-html-form","trial_index":74,"time_elapsed":2007912,"internal_node_id":"0.0-73.0-0.0","params":{"nStudents":24,"maxFlips":30,"completionMinutes":45,"basePay":8,"maxBonus":9,"perTrialBonus":0.5,"perTrialBonusThreshold":0.1,"exampleCost":0.01},"classroomParams":{"A":{"a":1,"b":4},"B":{"a":4,"b":1},"C":{"a":2,"b":8},"D":{"a":8,"b":2}},"conditions":["nonSeqFull","nonSeqPartial","seqNoFeedback","seqFeedback"],"classroomPairings":[["A","B"],["C","D"]],"coinWeights":[0.2,0.5,0.8],"subjectId":"A34SIGOLUGKIHJ","assignmentId":"39LNWE0K4VI218A70C78K3DDP1PIU4","hitId":"3YGE63DIN8J20XK20KS1742RQF60WK","url":"https://gershmanlab.com/experiments/alicia/teaching/experiment/?hitId=3YGE63DIN8J20XK20KS1742RQF60WK&workerId=A34SIGOLUGKIHJ&assignmentId=39LNWE0K4VI218A70C78K3DDP1PIU4&a=KWL98&tp_a=KWL98&b=39LNWE0K4VI218A70C78K3DDP1PIU4&tp_b=39LNWE0K4VI218A70C78K3DDP1PIU4&c=365198&tp_c=365198","firstResponseHeads":1,"firstResponseTails":7,"secondResponseHeads":1,"secondResponseTails":8,"studentIndex":9,"studentTrueHypers":{"a":1,"b":4},"studentGuess":0.13636363636363635,"delta":0.06363636363636366,"bonus":0.33,"bonusSoFar":1.74,"totalExamples":17},{"rt":33895,"response":{"heads":"7","tails":"5"},"type":"response","condition":"nonSeqFull","trueTheta":0.5,"classrooms":["A","B"],"studentTrueClassroom":"A","exampleSet":"first","trial_type":"survey-html-form","trial_index":80,"time_elapsed":2061608,"internal_node_id":"0.0-79.0-0.0","params":{"nStudents":24,"maxFlips":30,"completionMinutes":45,"basePay":8,"maxBonus":9,"perTrialBonus":0.5,"perTrialBonusThreshold":0.1,"exampleCost":0.01},"classroomParams":{"A":{"a":1,"b":4},"B":{"a":4,"b":1},"C":{"a":2,"b":8},"D":{"a":8,"b":2}},"conditions":["nonSeqFull","nonSeqPartial","seqNoFeedback","seqFeedback"],"classroomPairings":[["A","B"],["C","D"]],"coinWeights":[0.2,0.5,0.8],"subjectId":"A34SIGOLUGKIHJ","assignmentId":"39LNWE0K4VI218A70C78K3DDP1PIU4","hitId":"3YGE63DIN8J20XK20KS1742RQF60WK","url":"https://gershmanlab.com/experiments/alicia/teaching/experiment/?hitId=3YGE63DIN8J20XK20KS1742RQF60WK&workerId=A34SIGOLUGKIHJ&assignmentId=39LNWE0K4VI218A70C78K3DDP1PIU4&a=KWL98&tp_a=KWL98&b=39LNWE0K4VI218A70C78K3DDP1PIU4&tp_b=39LNWE0K4VI218A70C78K3DDP1PIU4&c=365198&tp_c=365198","heads":7,"tails":5,"studentIndex":10,"studentTrueHypers":{"a":1,"b":4},"studentGuess":0.47058823529411764,"delta":0.02941176470588236,"totalExamples":12,"bonus":0.38,"bonusSoFar":2.12},{"rt":30919,"response":{"heads":"6","tails":"3"},"type":"response","condition":"nonSeqPartial","trueTheta":0.5,"classrooms":["A","B"],"studentTrueClassroom":"B","exampleSet":"first","trial_type":"survey-html-form","trial_index":86,"time_elapsed":2109311,"internal_node_id":"0.0-85.0-0.0","params":{"nStudents":24,"maxFlips":30,"completionMinutes":45,"basePay":8,"maxBonus":9,"perTrialBonus":0.5,"perTrialBonusThreshold":0.1,"exampleCost":0.01},"classroomParams":{"A":{"a":1,"b":4},"B":{"a":4,"b":1},"C":{"a":2,"b":8},"D":{"a":8,"b":2}},"conditions":["nonSeqFull","nonSeqPartial","seqNoFeedback","seqFeedback"],"classroomPairings":[["A","B"],["C","D"]],"coinWeights":[0.2,0.5,0.8],"subjectId":"A34SIGOLUGKIHJ","assignmentId":"39LNWE0K4VI218A70C78K3DDP1PIU4","hitId":"3YGE63DIN8J20XK20KS1742RQF60WK","url":"https://gershmanlab.com/experiments/alicia/teaching/experiment/?hitId=3YGE63DIN8J20XK20KS1742RQF60WK&workerId=A34SIGOLUGKIHJ&assignmentId=39LNWE0K4VI218A70C78K3DDP1PIU4&a=KWL98&tp_a=KWL98&b=39LNWE0K4VI218A70C78K3DDP1PIU4&tp_b=39LNWE0K4VI218A70C78K3DDP1PIU4&c=365198&tp_c=365198","heads":6,"tails":3,"studentIndex":11,"studentTrueHypers":{"a":4,"b":1},"studentGuess":0.7142857142857143,"delta":0.2142857142857143,"totalExamples":9,"bonus":0,"bonusSoFar":2.12},{"rt":40711,"response":{"heads":"2","tails":"8"},"type":"response","condition":"seqFeedback","trueTheta":0.2,"classrooms":["C","D"],"studentTrueClassroom":"D","exampleSet":"first","trial_type":"survey-html-form","trial_index":92,"time_elapsed":2168239,"internal_node_id":"0.0-91.0-0.0","params":{"nStudents":24,"maxFlips":30,"completionMinutes":45,"basePay":8,"maxBonus":9,"perTrialBonus":0.5,"perTrialBonusThreshold":0.1,"exampleCost":0.01},"classroomParams":{"A":{"a":1,"b":4},"B":{"a":4,"b":1},"C":{"a":2,"b":8},"D":{"a":8,"b":2}},"conditions":["nonSeqFull","nonSeqPartial","seqNoFeedback","seqFeedback"],"classroomPairings":[["A","B"],["C","D"]],"coinWeights":[0.2,0.5,0.8],"subjectId":"A34SIGOLUGKIHJ","assignmentId":"39LNWE0K4VI218A70C78K3DDP1PIU4","hitId":"3YGE63DIN8J20XK20KS1742RQF60WK","url":"https://gershmanlab.com/experiments/alicia/teaching/experiment/?hitId=3YGE63DIN8J20XK20KS1742RQF60WK&workerId=A34SIGOLUGKIHJ&assignmentId=39LNWE0K4VI218A70C78K3DDP1PIU4&a=KWL98&tp_a=KWL98&b=39LNWE0K4VI218A70C78K3DDP1PIU4&tp_b=39LNWE0K4VI218A70C78K3DDP1PIU4&c=365198&tp_c=365198","heads":2,"tails":8,"studentIndex":12,"studentTrueHypers":{"a":8,"b":2},"studentGuess":0.5,"delta":0.3,"totalExamples":10,"bonusSoFar":2.12},{"rt":22328,"response":{"heads":"8","tails":"1"},"type":"response","condition":"seqFeedback","trueTheta":0.2,"classrooms":["C","D"],"studentTrueClassroom":"D","exampleSet":"second","trial_type":"survey-html-form","trial_index":96,"time_elapsed":2205726,"internal_node_id":"0.0-95.0-0.0","params":{"nStudents":24,"maxFlips":30,"completionMinutes":45,"basePay":8,"maxBonus":9,"perTrialBonus":0.5,"perTrialBonusThreshold":0.1,"exampleCost":0.01},"classroomParams":{"A":{"a":1,"b":4},"B":{"a":4,"b":1},"C":{"a":2,"b":8},"D":{"a":8,"b":2}},"conditions":["nonSeqFull","nonSeqPartial","seqNoFeedback","seqFeedback"],"classroomPairings":[["A","B"],["C","D"]],"coinWeights":[0.2,0.5,0.8],"subjectId":"A34SIGOLUGKIHJ","assignmentId":"39LNWE0K4VI218A70C78K3DDP1PIU4","hitId":"3YGE63DIN8J20XK20KS1742RQF60WK","url":"https://gershmanlab.com/experiments/alicia/teaching/experiment/?hitId=3YGE63DIN8J20XK20KS1742RQF60WK&workerId=A34SIGOLUGKIHJ&assignmentId=39LNWE0K4VI218A70C78K3DDP1PIU4&a=KWL98&tp_a=KWL98&b=39LNWE0K4VI218A70C78K3DDP1PIU4&tp_b=39LNWE0K4VI218A70C78K3DDP1PIU4&c=365198&tp_c=365198","firstResponseHeads":2,"firstResponseTails":8,"secondResponseHeads":8,"secondResponseTails":1,"studentIndex":12,"studentTrueHypers":{"a":8,"b":2},"studentGuess":0.6206896551724138,"delta":0.4206896551724138,"bonus":0,"bonusSoFar":2.12,"totalExamples":19},{"rt":24255,"response":{"heads":"4","tails":"1"},"type":"response","condition":"seqFeedback","trueTheta":0.5,"classrooms":["A","B"],"studentTrueClassroom":"A","exampleSet":"first","trial_type":"survey-html-form","trial_index":102,"time_elapsed":2249471,"internal_node_id":"0.0-101.0-0.0","params":{"nStudents":24,"maxFlips":30,"completionMinutes":45,"basePay":8,"maxBonus":9,"perTrialBonus":0.5,"perTrialBonusThreshold":0.1,"exampleCost":0.01},"classroomParams":{"A":{"a":1,"b":4},"B":{"a":4,"b":1},"C":{"a":2,"b":8},"D":{"a":8,"b":2}},"conditions":["nonSeqFull","nonSeqPartial","seqNoFeedback","seqFeedback"],"classroomPairings":[["A","B"],["C","D"]],"coinWeights":[0.2,0.5,0.8],"subjectId":"A34SIGOLUGKIHJ","assignmentId":"39LNWE0K4VI218A70C78K3DDP1PIU4","hitId":"3YGE63DIN8J20XK20KS1742RQF60WK","url":"https://gershmanlab.com/experiments/alicia/teaching/experiment/?hitId=3YGE63DIN8J20XK20KS1742RQF60WK&workerId=A34SIGOLUGKIHJ&assignmentId=39LNWE0K4VI218A70C78K3DDP1PIU4&a=KWL98&tp_a=KWL98&b=39LNWE0K4VI218A70C78K3DDP1PIU4&tp_b=39LNWE0K4VI218A70C78K3DDP1PIU4&c=365198&tp_c=365198","heads":4,"tails":1,"studentIndex":13,"studentTrueHypers":{"a":1,"b":4},"studentGuess":0.5,"delta":0,"totalExamples":5,"bonusSoFar":2.12},{"rt":13320,"response":{"heads":"1","tails":"1"},"type":"response","condition":"seqFeedback","trueTheta":0.5,"classrooms":["A","B"],"studentTrueClassroom":"A","exampleSet":"second","trial_type":"survey-html-form","trial_index":106,"time_elapsed":2273296,"internal_node_id":"0.0-105.0-0.0","params":{"nStudents":24,"maxFlips":30,"completionMinutes":45,"basePay":8,"maxBonus":9,"perTrialBonus":0.5,"perTrialBonusThreshold":0.1,"exampleCost":0.01},"classroomParams":{"A":{"a":1,"b":4},"B":{"a":4,"b":1},"C":{"a":2,"b":8},"D":{"a":8,"b":2}},"conditions":["nonSeqFull","nonSeqPartial","seqNoFeedback","seqFeedback"],"classroomPairings":[["A","B"],["C","D"]],"coinWeights":[0.2,0.5,0.8],"subjectId":"A34SIGOLUGKIHJ","assignmentId":"39LNWE0K4VI218A70C78K3DDP1PIU4","hitId":"3YGE63DIN8J20XK20KS1742RQF60WK","url":"https://gershmanlab.com/experiments/alicia/teaching/experiment/?hitId=3YGE63DIN8J20XK20KS1742RQF60WK&workerId=A34SIGOLUGKIHJ&assignmentId=39LNWE0K4VI218A70C78K3DDP1PIU4&a=KWL98&tp_a=KWL98&b=39LNWE0K4VI218A70C78K3DDP1PIU4&tp_b=39LNWE0K4VI218A70C78K3DDP1PIU4&c=365198&tp_c=365198","firstResponseHeads":4,"firstResponseTails":1,"secondResponseHeads":1,"secondResponseTails":1,"studentIndex":13,"studentTrueHypers":{"a":1,"b":4},"studentGuess":0.5,"delta":0,"bonus":0.43,"bonusSoFar":2.55,"totalExamples":7},{"rt":16623,"response":{"heads":"9","tails":"1"},"type":"response","condition":"nonSeqFull","trueTheta":0.8,"classrooms":["C","D"],"studentTrueClassroom":"D","exampleSet":"first","trial_type":"survey-html-form","trial_index":112,"time_elapsed":2306063,"internal_node_id":"0.0-111.0-0.0","params":{"nStudents":24,"maxFlips":30,"completionMinutes":45,"basePay":8,"maxBonus":9,"perTrialBonus":0.5,"perTrialBonusThreshold":0.1,"exampleCost":0.01},"classroomParams":{"A":{"a":1,"b":4},"B":{"a":4,"b":1},"C":{"a":2,"b":8},"D":{"a":8,"b":2}},"conditions":["nonSeqFull","nonSeqPartial","seqNoFeedback","seqFeedback"],"classroomPairings":[["A","B"],["C","D"]],"coinWeights":[0.2,0.5,0.8],"subjectId":"A34SIGOLUGKIHJ","assignmentId":"39LNWE0K4VI218A70C78K3DDP1PIU4","hitId":"3YGE63DIN8J20XK20KS1742RQF60WK","url":"https://gershmanlab.com/experiments/alicia/teaching/experiment/?hitId=3YGE63DIN8J20XK20KS1742RQF60WK&workerId=A34SIGOLUGKIHJ&assignmentId=39LNWE0K4VI218A70C78K3DDP1PIU4&a=KWL98&tp_a=KWL98&b=39LNWE0K4VI218A70C78K3DDP1PIU4&tp_b=39LNWE0K4VI218A70C78K3DDP1PIU4&c=365198&tp_c=365198","heads":9,"tails":1,"studentIndex":14,"studentTrueHypers":{"a":8,"b":2},"studentGuess":0.85,"delta":0.04999999999999993,"totalExamples":10,"bonus":0.4,"bonusSoFar":2.95},{"rt":16879,"response":{"heads":"4","tails":"1"},"type":"response","condition":"seqNoFeedback","trueTheta":0.5,"classrooms":["A","B"],"studentTrueClassroom":"A","exampleSet":"first","trial_type":"survey-html-form","trial_index":118,"time_elapsed":2341743,"internal_node_id":"0.0-117.0-0.0","params":{"nStudents":24,"maxFlips":30,"completionMinutes":45,"basePay":8,"maxBonus":9,"perTrialBonus":0.5,"perTrialBonusThreshold":0.1,"exampleCost":0.01},"classroomParams":{"A":{"a":1,"b":4},"B":{"a":4,"b":1},"C":{"a":2,"b":8},"D":{"a":8,"b":2}},"conditions":["nonSeqFull","nonSeqPartial","seqNoFeedback","seqFeedback"],"classroomPairings":[["A","B"],["C","D"]],"coinWeights":[0.2,0.5,0.8],"subjectId":"A34SIGOLUGKIHJ","assignmentId":"39LNWE0K4VI218A70C78K3DDP1PIU4","hitId":"3YGE63DIN8J20XK20KS1742RQF60WK","url":"https://gershmanlab.com/experiments/alicia/teaching/experiment/?hitId=3YGE63DIN8J20XK20KS1742RQF60WK&workerId=A34SIGOLUGKIHJ&assignmentId=39LNWE0K4VI218A70C78K3DDP1PIU4&a=KWL98&tp_a=KWL98&b=39LNWE0K4VI218A70C78K3DDP1PIU4&tp_b=39LNWE0K4VI218A70C78K3DDP1PIU4&c=365198&tp_c=365198","heads":4,"tails":1,"studentIndex":15,"studentTrueHypers":{"a":1,"b":4},"studentGuess":0.5,"delta":0,"totalExamples":5,"bonusSoFar":2.95},{"rt":23041,"response":{"heads":"1","tails":"4"},"type":"response","condition":"seqNoFeedback","trueTheta":0.5,"classrooms":["A","B"],"studentTrueClassroom":"A","exampleSet":"second","trial_type":"survey-html-form","trial_index":121,"time_elapsed":2370559,"internal_node_id":"0.0-120.0-0.0","params":{"nStudents":24,"maxFlips":30,"completionMinutes":45,"basePay":8,"maxBonus":9,"perTrialBonus":0.5,"perTrialBonusThreshold":0.1,"exampleCost":0.01},"classroomParams":{"A":{"a":1,"b":4},"B":{"a":4,"b":1},"C":{"a":2,"b":8},"D":{"a":8,"b":2}},"conditions":["nonSeqFull","nonSeqPartial","seqNoFeedback","seqFeedback"],"classroomPairings":[["A","B"],["C","D"]],"coinWeights":[0.2,0.5,0.8],"subjectId":"A34SIGOLUGKIHJ","assignmentId":"39LNWE0K4VI218A70C78K3DDP1PIU4","hitId":"3YGE63DIN8J20XK20KS1742RQF60WK","url":"https://gershmanlab.com/experiments/alicia/teaching/experiment/?hitId=3YGE63DIN8J20XK20KS1742RQF60WK&workerId=A34SIGOLUGKIHJ&assignmentId=39LNWE0K4VI218A70C78K3DDP1PIU4&a=KWL98&tp_a=KWL98&b=39LNWE0K4VI218A70C78K3DDP1PIU4&tp_b=39LNWE0K4VI218A70C78K3DDP1PIU4&c=365198&tp_c=365198","firstResponseHeads":4,"firstResponseTails":1,"secondResponseHeads":1,"secondResponseTails":4,"studentIndex":15,"studentTrueHypers":{"a":1,"b":4},"studentGuess":0.4,"delta":0.09999999999999998,"bonus":0.4,"bonusSoFar":3.35,"totalExamples":10},{"rt":24191,"response":{"heads":"8","tails":"0"},"type":"response","condition":"seqFeedback","trueTheta":0.8,"classrooms":["A","B"],"studentTrueClassroom":"B","exampleSet":"first","trial_type":"survey-html-form","trial_index":127,"time_elapsed":2415223,"internal_node_id":"0.0-126.0-0.0","params":{"nStudents":24,"maxFlips":30,"completionMinutes":45,"basePay":8,"maxBonus":9,"perTrialBonus":0.5,"perTrialBonusThreshold":0.1,"exampleCost":0.01},"classroomParams":{"A":{"a":1,"b":4},"B":{"a":4,"b":1},"C":{"a":2,"b":8},"D":{"a":8,"b":2}},"conditions":["nonSeqFull","nonSeqPartial","seqNoFeedback","seqFeedback"],"classroomPairings":[["A","B"],["C","D"]],"coinWeights":[0.2,0.5,0.8],"subjectId":"A34SIGOLUGKIHJ","assignmentId":"39LNWE0K4VI218A70C78K3DDP1PIU4","hitId":"3YGE63DIN8J20XK20KS1742RQF60WK","url":"https://gershmanlab.com/experiments/alicia/teaching/experiment/?hitId=3YGE63DIN8J20XK20KS1742RQF60WK&workerId=A34SIGOLUGKIHJ&assignmentId=39LNWE0K4VI218A70C78K3DDP1PIU4&a=KWL98&tp_a=KWL98&b=39LNWE0K4VI218A70C78K3DDP1PIU4&tp_b=39LNWE0K4VI218A70C78K3DDP1PIU4&c=365198&tp_c=365198","heads":8,"tails":0,"studentIndex":16,"studentTrueHypers":{"a":4,"b":1},"studentGuess":0.9230769230769231,"delta":0.12307692307692308,"totalExamples":8,"bonusSoFar":3.35},{"rt":21462,"response":{"heads":"7","tails":"2"},"type":"response","condition":"seqFeedback","trueTheta":0.8,"classrooms":["A","B"],"studentTrueClassroom":"B","exampleSet":"second","trial_type":"survey-html-form","trial_index":131,"time_elapsed":2448062,"internal_node_id":"0.0-130.0-0.0","params":{"nStudents":24,"maxFlips":30,"completionMinutes":45,"basePay":8,"maxBonus":9,"perTrialBonus":0.5,"perTrialBonusThreshold":0.1,"exampleCost":0.01},"classroomParams":{"A":{"a":1,"b":4},"B":{"a":4,"b":1},"C":{"a":2,"b":8},"D":{"a":8,"b":2}},"conditions":["nonSeqFull","nonSeqPartial","seqNoFeedback","seqFeedback"],"classroomPairings":[["A","B"],["C","D"]],"coinWeights":[0.2,0.5,0.8],"subjectId":"A34SIGOLUGKIHJ","assignmentId":"39LNWE0K4VI218A70C78K3DDP1PIU4","hitId":"3YGE63DIN8J20XK20KS1742RQF60WK","url":"https://gershmanlab.com/experiments/alicia/teaching/experiment/?hitId=3YGE63DIN8J20XK20KS1742RQF60WK&workerId=A34SIGOLUGKIHJ&assignmentId=39LNWE0K4VI218A70C78K3DDP1PIU4&a=KWL98&tp_a=KWL98&b=39LNWE0K4VI218A70C78K3DDP1PIU4&tp_b=39LNWE0K4VI218A70C78K3DDP1PIU4&c=365198&tp_c=365198","firstResponseHeads":8,"firstResponseTails":0,"secondResponseHeads":7,"secondResponseTails":2,"studentIndex":16,"studentTrueHypers":{"a":4,"b":1},"studentGuess":0.8636363636363636,"delta":0.0636363636363636,"bonus":0.33,"bonusSoFar":3.68,"totalExamples":17},{"rt":15167,"response":{"heads":"6","tails":"0"},"type":"response","condition":"seqFeedback","trueTheta":0.8,"classrooms":["C","D"],"studentTrueClassroom":"C","exampleSet":"first","trial_type":"survey-html-form","trial_index":137,"time_elapsed":2485727,"internal_node_id":"0.0-136.0-0.0","params":{"nStudents":24,"maxFlips":30,"completionMinutes":45,"basePay":8,"maxBonus":9,"perTrialBonus":0.5,"perTrialBonusThreshold":0.1,"exampleCost":0.01},"classroomParams":{"A":{"a":1,"b":4},"B":{"a":4,"b":1},"C":{"a":2,"b":8},"D":{"a":8,"b":2}},"conditions":["nonSeqFull","nonSeqPartial","seqNoFeedback","seqFeedback"],"classroomPairings":[["A","B"],["C","D"]],"coinWeights":[0.2,0.5,0.8],"subjectId":"A34SIGOLUGKIHJ","assignmentId":"39LNWE0K4VI218A70C78K3DDP1PIU4","hitId":"3YGE63DIN8J20XK20KS1742RQF60WK","url":"https://gershmanlab.com/experiments/alicia/teaching/experiment/?hitId=3YGE63DIN8J20XK20KS1742RQF60WK&workerId=A34SIGOLUGKIHJ&assignmentId=39LNWE0K4VI218A70C78K3DDP1PIU4&a=KWL98&tp_a=KWL98&b=39LNWE0K4VI218A70C78K3DDP1PIU4&tp_b=39LNWE0K4VI218A70C78K3DDP1PIU4&c=365198&tp_c=365198","heads":6,"tails":0,"studentIndex":17,"studentTrueHypers":{"a":2,"b":8},"studentGuess":0.5,"delta":0.30000000000000004,"totalExamples":6,"bonusSoFar":3.68},{"rt":11886,"response":{"heads":"8","tails":"2"},"type":"response","condition":"seqFeedback","trueTheta":0.8,"classrooms":["C","D"],"studentTrueClassroom":"C","exampleSet":"second","trial_type":"survey-html-form","trial_index":141,"time_elapsed":2511031,"internal_node_id":"0.0-140.0-0.0","params":{"nStudents":24,"maxFlips":30,"completionMinutes":45,"basePay":8,"maxBonus":9,"perTrialBonus":0.5,"perTrialBonusThreshold":0.1,"exampleCost":0.01},"classroomParams":{"A":{"a":1,"b":4},"B":{"a":4,"b":1},"C":{"a":2,"b":8},"D":{"a":8,"b":2}},"conditions":["nonSeqFull","nonSeqPartial","seqNoFeedback","seqFeedback"],"classroomPairings":[["A","B"],["C","D"]],"coinWeights":[0.2,0.5,0.8],"subjectId":"A34SIGOLUGKIHJ","assignmentId":"39LNWE0K4VI218A70C78K3DDP1PIU4","hitId":"3YGE63DIN8J20XK20KS1742RQF60WK","url":"https://gershmanlab.com/experiments/alicia/teaching/experiment/?hitId=3YGE63DIN8J20XK20KS1742RQF60WK&workerId=A34SIGOLUGKIHJ&assignmentId=39LNWE0K4VI218A70C78K3DDP1PIU4&a=KWL98&tp_a=KWL98&b=39LNWE0K4VI218A70C78K3DDP1PIU4&tp_b=39LNWE0K4VI218A70C78K3DDP1PIU4&c=365198&tp_c=365198","firstResponseHeads":6,"firstResponseTails":0,"secondResponseHeads":8,"secondResponseTails":2,"studentIndex":17,"studentTrueHypers":{"a":2,"b":8},"studentGuess":0.6153846153846154,"delta":0.18461538461538463,"bonus":0,"bonusSoFar":3.68,"totalExamples":16},{"rt":20751,"response":{"heads":"8","tails":"8"},"type":"response","condition":"seqNoFeedback","trueTheta":0.5,"classrooms":["C","D"],"studentTrueClassroom":"C","exampleSet":"first","trial_type":"survey-html-form","trial_index":147,"time_elapsed":2549943,"internal_node_id":"0.0-146.0-0.0","params":{"nStudents":24,"maxFlips":30,"completionMinutes":45,"basePay":8,"maxBonus":9,"perTrialBonus":0.5,"perTrialBonusThreshold":0.1,"exampleCost":0.01},"classroomParams":{"A":{"a":1,"b":4},"B":{"a":4,"b":1},"C":{"a":2,"b":8},"D":{"a":8,"b":2}},"conditions":["nonSeqFull","nonSeqPartial","seqNoFeedback","seqFeedback"],"classroomPairings":[["A","B"],["C","D"]],"coinWeights":[0.2,0.5,0.8],"subjectId":"A34SIGOLUGKIHJ","assignmentId":"39LNWE0K4VI218A70C78K3DDP1PIU4","hitId":"3YGE63DIN8J20XK20KS1742RQF60WK","url":"https://gershmanlab.com/experiments/alicia/teaching/experiment/?hitId=3YGE63DIN8J20XK20KS1742RQF60WK&workerId=A34SIGOLUGKIHJ&assignmentId=39LNWE0K4VI218A70C78K3DDP1PIU4&a=KWL98&tp_a=KWL98&b=39LNWE0K4VI218A70C78K3DDP1PIU4&tp_b=39LNWE0K4VI218A70C78K3DDP1PIU4&c=365198&tp_c=365198","heads":8,"tails":8,"studentIndex":18,"studentTrueHypers":{"a":2,"b":8},"studentGuess":0.38461538461538464,"delta":0.11538461538461536,"totalExamples":16,"bonusSoFar":3.68},{"rt":11153,"response":{"heads":"4","tails":"4"},"type":"response","condition":"seqNoFeedback","trueTheta":0.5,"classrooms":["C","D"],"studentTrueClassroom":"C","exampleSet":"second","trial_type":"survey-html-form","trial_index":150,"time_elapsed":2566860,"internal_node_id":"0.0-149.0-0.0","params":{"nStudents":24,"maxFlips":30,"completionMinutes":45,"basePay":8,"maxBonus":9,"perTrialBonus":0.5,"perTrialBonusThreshold":0.1,"exampleCost":0.01},"classroomParams":{"A":{"a":1,"b":4},"B":{"a":4,"b":1},"C":{"a":2,"b":8},"D":{"a":8,"b":2}},"conditions":["nonSeqFull","nonSeqPartial","seqNoFeedback","seqFeedback"],"classroomPairings":[["A","B"],["C","D"]],"coinWeights":[0.2,0.5,0.8],"subjectId":"A34SIGOLUGKIHJ","assignmentId":"39LNWE0K4VI218A70C78K3DDP1PIU4","hitId":"3YGE63DIN8J20XK20KS1742RQF60WK","url":"https://gershmanlab.com/experiments/alicia/teaching/experiment/?hitId=3YGE63DIN8J20XK20KS1742RQF60WK&workerId=A34SIGOLUGKIHJ&assignmentId=39LNWE0K4VI218A70C78K3DDP1PIU4&a=KWL98&tp_a=KWL98&b=39LNWE0K4VI218A70C78K3DDP1PIU4&tp_b=39LNWE0K4VI218A70C78K3DDP1PIU4&c=365198&tp_c=365198","firstResponseHeads":8,"firstResponseTails":8,"secondResponseHeads":4,"secondResponseTails":4,"studentIndex":18,"studentTrueHypers":{"a":2,"b":8},"studentGuess":0.4117647058823529,"delta":0.08823529411764708,"bonus":0.26,"bonusSoFar":3.94,"totalExamples":24},{"rt":19127,"response":{"heads":"4","tails":"2"},"type":"response","condition":"seqFeedback","trueTheta":0.5,"classrooms":["C","D"],"studentTrueClassroom":"D","exampleSet":"first","trial_type":"survey-html-form","trial_index":156,"time_elapsed":2604719,"internal_node_id":"0.0-155.0-0.0","params":{"nStudents":24,"maxFlips":30,"completionMinutes":45,"basePay":8,"maxBonus":9,"perTrialBonus":0.5,"perTrialBonusThreshold":0.1,"exampleCost":0.01},"classroomParams":{"A":{"a":1,"b":4},"B":{"a":4,"b":1},"C":{"a":2,"b":8},"D":{"a":8,"b":2}},"conditions":["nonSeqFull","nonSeqPartial","seqNoFeedback","seqFeedback"],"classroomPairings":[["A","B"],["C","D"]],"coinWeights":[0.2,0.5,0.8],"subjectId":"A34SIGOLUGKIHJ","assignmentId":"39LNWE0K4VI218A70C78K3DDP1PIU4","hitId":"3YGE63DIN8J20XK20KS1742RQF60WK","url":"https://gershmanlab.com/experiments/alicia/teaching/experiment/?hitId=3YGE63DIN8J20XK20KS1742RQF60WK&workerId=A34SIGOLUGKIHJ&assignmentId=39LNWE0K4VI218A70C78K3DDP1PIU4&a=KWL98&tp_a=KWL98&b=39LNWE0K4VI218A70C78K3DDP1PIU4&tp_b=39LNWE0K4VI218A70C78K3DDP1PIU4&c=365198&tp_c=365198","heads":4,"tails":2,"studentIndex":19,"studentTrueHypers":{"a":8,"b":2},"studentGuess":0.75,"delta":0.25,"totalExamples":6,"bonusSoFar":3.94},{"rt":16473,"response":{"heads":"7","tails":"0"},"type":"response","condition":"seqFeedback","trueTheta":0.5,"classrooms":["C","D"],"studentTrueClassroom":"D","exampleSet":"second","trial_type":"survey-html-form","trial_index":160,"time_elapsed":2632879,"internal_node_id":"0.0-159.0-0.0","params":{"nStudents":24,"maxFlips":30,"completionMinutes":45,"basePay":8,"maxBonus":9,"perTrialBonus":0.5,"perTrialBonusThreshold":0.1,"exampleCost":0.01},"classroomParams":{"A":{"a":1,"b":4},"B":{"a":4,"b":1},"C":{"a":2,"b":8},"D":{"a":8,"b":2}},"conditions":["nonSeqFull","nonSeqPartial","seqNoFeedback","seqFeedback"],"classroomPairings":[["A","B"],["C","D"]],"coinWeights":[0.2,0.5,0.8],"subjectId":"A34SIGOLUGKIHJ","assignmentId":"39LNWE0K4VI218A70C78K3DDP1PIU4","hitId":"3YGE63DIN8J20XK20KS1742RQF60WK","url":"https://gershmanlab.com/experiments/alicia/teaching/experiment/?hitId=3YGE63DIN8J20XK20KS1742RQF60WK&workerId=A34SIGOLUGKIHJ&assignmentId=39LNWE0K4VI218A70C78K3DDP1PIU4&a=KWL98&tp_a=KWL98&b=39LNWE0K4VI218A70C78K3DDP1PIU4&tp_b=39LNWE0K4VI218A70C78K3DDP1PIU4&c=365198&tp_c=365198","firstResponseHeads":4,"firstResponseTails":2,"secondResponseHeads":7,"secondResponseTails":0,"studentIndex":19,"studentTrueHypers":{"a":8,"b":2},"studentGuess":0.8260869565217391,"delta":0.32608695652173914,"bonus":0,"bonusSoFar":3.94,"totalExamples":13},{"rt":24903,"response":{"heads":"1","tails":"4"},"type":"response","condition":"nonSeqFull","trueTheta":0.2,"classrooms":["C","D"],"studentTrueClassroom":"C","exampleSet":"first","trial_type":"survey-html-form","trial_index":166,"time_elapsed":2674095,"internal_node_id":"0.0-165.0-0.0","params":{"nStudents":24,"maxFlips":30,"completionMinutes":45,"basePay":8,"maxBonus":9,"perTrialBonus":0.5,"perTrialBonusThreshold":0.1,"exampleCost":0.01},"classroomParams":{"A":{"a":1,"b":4},"B":{"a":4,"b":1},"C":{"a":2,"b":8},"D":{"a":8,"b":2}},"conditions":["nonSeqFull","nonSeqPartial","seqNoFeedback","seqFeedback"],"classroomPairings":[["A","B"],["C","D"]],"coinWeights":[0.2,0.5,0.8],"subjectId":"A34SIGOLUGKIHJ","assignmentId":"39LNWE0K4VI218A70C78K3DDP1PIU4","hitId":"3YGE63DIN8J20XK20KS1742RQF60WK","url":"https://gershmanlab.com/experiments/alicia/teaching/experiment/?hitId=3YGE63DIN8J20XK20KS1742RQF60WK&workerId=A34SIGOLUGKIHJ&assignmentId=39LNWE0K4VI218A70C78K3DDP1PIU4&a=KWL98&tp_a=KWL98&b=39LNWE0K4VI218A70C78K3DDP1PIU4&tp_b=39LNWE0K4VI218A70C78K3DDP1PIU4&c=365198&tp_c=365198","heads":1,"tails":4,"studentIndex":20,"studentTrueHypers":{"a":2,"b":8},"studentGuess":0.2,"delta":0,"totalExamples":5,"bonus":0.45,"bonusSoFar":4.39},{"rt":15863,"response":{"heads":"2","tails":"8"},"type":"response","condition":"nonSeqFull","trueTheta":0.5,"classrooms":["C","D"],"studentTrueClassroom":"D","exampleSet":"first","trial_type":"survey-html-form","trial_index":172,"time_elapsed":2716766,"internal_node_id":"0.0-171.0-0.0","params":{"nStudents":24,"maxFlips":30,"completionMinutes":45,"basePay":8,"maxBonus":9,"perTrialBonus":0.5,"perTrialBonusThreshold":0.1,"exampleCost":0.01},"classroomParams":{"A":{"a":1,"b":4},"B":{"a":4,"b":1},"C":{"a":2,"b":8},"D":{"a":8,"b":2}},"conditions":["nonSeqFull","nonSeqPartial","seqNoFeedback","seqFeedback"],"classroomPairings":[["A","B"],["C","D"]],"coinWeights":[0.2,0.5,0.8],"subjectId":"A34SIGOLUGKIHJ","assignmentId":"39LNWE0K4VI218A70C78K3DDP1PIU4","hitId":"3YGE63DIN8J20XK20KS1742RQF60WK","url":"https://gershmanlab.com/experiments/alicia/teaching/experiment/?hitId=3YGE63DIN8J20XK20KS1742RQF60WK&workerId=A34SIGOLUGKIHJ&assignmentId=39LNWE0K4VI218A70C78K3DDP1PIU4&a=KWL98&tp_a=KWL98&b=39LNWE0K4VI218A70C78K3DDP1PIU4&tp_b=39LNWE0K4VI218A70C78K3DDP1PIU4&c=365198&tp_c=365198","heads":2,"tails":8,"studentIndex":21,"studentTrueHypers":{"a":8,"b":2},"studentGuess":0.5,"delta":0,"totalExamples":10,"bonus":0.4,"bonusSoFar":4.79},{"rt":15631,"response":{"heads":"4","tails":"0"},"type":"response","condition":"seqNoFeedback","trueTheta":0.2,"classrooms":["A","B"],"studentTrueClassroom":"A","exampleSet":"first","trial_type":"survey-html-form","trial_index":178,"time_elapsed":2748190,"internal_node_id":"0.0-177.0-0.0","params":{"nStudents":24,"maxFlips":30,"completionMinutes":45,"basePay":8,"maxBonus":9,"perTrialBonus":0.5,"perTrialBonusThreshold":0.1,"exampleCost":0.01},"classroomParams":{"A":{"a":1,"b":4},"B":{"a":4,"b":1},"C":{"a":2,"b":8},"D":{"a":8,"b":2}},"conditions":["nonSeqFull","nonSeqPartial","seqNoFeedback","seqFeedback"],"classroomPairings":[["A","B"],["C","D"]],"coinWeights":[0.2,0.5,0.8],"subjectId":"A34SIGOLUGKIHJ","assignmentId":"39LNWE0K4VI218A70C78K3DDP1PIU4","hitId":"3YGE63DIN8J20XK20KS1742RQF60WK","url":"https://gershmanlab.com/experiments/alicia/teaching/experiment/?hitId=3YGE63DIN8J20XK20KS1742RQF60WK&workerId=A34SIGOLUGKIHJ&assignmentId=39LNWE0K4VI218A70C78K3DDP1PIU4&a=KWL98&tp_a=KWL98&b=39LNWE0K4VI218A70C78K3DDP1PIU4&tp_b=39LNWE0K4VI218A70C78K3DDP1PIU4&c=365198&tp_c=365198","heads":4,"tails":0,"studentIndex":22,"studentTrueHypers":{"a":1,"b":4},"studentGuess":0.5555555555555556,"delta":0.35555555555555557,"totalExamples":4,"bonusSoFar":4.79},{"rt":22516,"response":{"heads":"0","tails":"8"},"type":"response","condition":"seqNoFeedback","trueTheta":0.2,"classrooms":["A","B"],"studentTrueClassroom":"A","exampleSet":"second","trial_type":"survey-html-form","trial_index":181,"time_elapsed":2777479,"internal_node_id":"0.0-180.0-0.0","params":{"nStudents":24,"maxFlips":30,"completionMinutes":45,"basePay":8,"maxBonus":9,"perTrialBonus":0.5,"perTrialBonusThreshold":0.1,"exampleCost":0.01},"classroomParams":{"A":{"a":1,"b":4},"B":{"a":4,"b":1},"C":{"a":2,"b":8},"D":{"a":8,"b":2}},"conditions":["nonSeqFull","nonSeqPartial","seqNoFeedback","seqFeedback"],"classroomPairings":[["A","B"],["C","D"]],"coinWeights":[0.2,0.5,0.8],"subjectId":"A34SIGOLUGKIHJ","assignmentId":"39LNWE0K4VI218A70C78K3DDP1PIU4","hitId":"3YGE63DIN8J20XK20KS1742RQF60WK","url":"https://gershmanlab.com/experiments/alicia/teaching/experiment/?hitId=3YGE63DIN8J20XK20KS1742RQF60WK&workerId=A34SIGOLUGKIHJ&assignmentId=39LNWE0K4VI218A70C78K3DDP1PIU4&a=KWL98&tp_a=KWL98&b=39LNWE0K4VI218A70C78K3DDP1PIU4&tp_b=39LNWE0K4VI218A70C78K3DDP1PIU4&c=365198&tp_c=365198","firstResponseHeads":4,"firstResponseTails":0,"secondResponseHeads":0,"secondResponseTails":8,"studentIndex":22,"studentTrueHypers":{"a":1,"b":4},"studentGuess":0.29411764705882354,"delta":0.09411764705882353,"bonus":0.38,"bonusSoFar":5.17,"totalExamples":12},{"rt":22471,"response":{"heads":"8","tails":"0"},"type":"response","condition":"nonSeqPartial","trueTheta":0.8,"classrooms":["C","D"],"studentTrueClassroom":"D","exampleSet":"first","trial_type":"survey-html-form","trial_index":187,"time_elapsed":2817983,"internal_node_id":"0.0-186.0-0.0","params":{"nStudents":24,"maxFlips":30,"completionMinutes":45,"basePay":8,"maxBonus":9,"perTrialBonus":0.5,"perTrialBonusThreshold":0.1,"exampleCost":0.01},"classroomParams":{"A":{"a":1,"b":4},"B":{"a":4,"b":1},"C":{"a":2,"b":8},"D":{"a":8,"b":2}},"conditions":["nonSeqFull","nonSeqPartial","seqNoFeedback","seqFeedback"],"classroomPairings":[["A","B"],["C","D"]],"coinWeights":[0.2,0.5,0.8],"subjectId":"A34SIGOLUGKIHJ","assignmentId":"39LNWE0K4VI218A70C78K3DDP1PIU4","hitId":"3YGE63DIN8J20XK20KS1742RQF60WK","url":"https://gershmanlab.com/experiments/alicia/teaching/experiment/?hitId=3YGE63DIN8J20XK20KS1742RQF60WK&workerId=A34SIGOLUGKIHJ&assignmentId=39LNWE0K4VI218A70C78K3DDP1PIU4&a=KWL98&tp_a=KWL98&b=39LNWE0K4VI218A70C78K3DDP1PIU4&tp_b=39LNWE0K4VI218A70C78K3DDP1PIU4&c=365198&tp_c=365198","heads":8,"tails":0,"studentIndex":23,"studentTrueHypers":{"a":8,"b":2},"studentGuess":0.8888888888888888,"delta":0.0888888888888888,"totalExamples":8,"bonus":0.42,"bonusSoFar":5.59},{"rt":58824,"response":{"gender":"male","age":"38","understood":"yes","comments":"Thanks for the opportunity, I love doing things where I get to work with averages on the fly. Please have a nice day."},"type":"response","trial_type":"survey-html-form","trial_index":191,"time_elapsed":2888126,"internal_node_id":"0.0-191.0","params":{"nStudents":24,"maxFlips":30,"completionMinutes":45,"basePay":8,"maxBonus":9,"perTrialBonus":0.5,"perTrialBonusThreshold":0.1,"exampleCost":0.01},"classroomParams":{"A":{"a":1,"b":4},"B":{"a":4,"b":1},"C":{"a":2,"b":8},"D":{"a":8,"b":2}},"conditions":["nonSeqFull","nonSeqPartial","seqNoFeedback","seqFeedback"],"classroomPairings":[["A","B"],["C","D"]],"coinWeights":[0.2,0.5,0.8],"subjectId":"A34SIGOLUGKIHJ","assignmentId":"39LNWE0K4VI218A70C78K3DDP1PIU4","hitId":"3YGE63DIN8J20XK20KS1742RQF60WK","url":"https://gershmanlab.com/experiments/alicia/teaching/experiment/?hitId=3YGE63DIN8J20XK20KS1742RQF60WK&workerId=A34SIGOLUGKIHJ&assignmentId=39LNWE0K4VI218A70C78K3DDP1PIU4&a=KWL98&tp_a=KWL98&b=39LNWE0K4VI218A70C78K3DDP1PIU4&tp_b=39LNWE0K4VI218A70C78K3DDP1PIU4&c=365198&tp_c=365198","totalBonus":5.59}]