[{"rt":25128,"response":{"heads":"5","tails":"5"},"type":"response","condition":"seqFeedback","trueTheta":0.5,"classrooms":["C","D"],"studentTrueClassroom":"C","exampleSet":"first","trial_type":"survey-html-form","trial_index":7,"time_elapsed":452900,"internal_node_id":"0.0-6.0-0.0","params":{"nStudents":24,"maxFlips":30,"completionMinutes":45,"basePay":8,"maxBonus":9,"perTrialBonus":0.5,"perTrialBonusThreshold":0.1,"exampleCost":0.01},"classroomParams":{"A":{"a":1,"b":4},"B":{"a":4,"b":1},"C":{"a":2,"b":8},"D":{"a":8,"b":2}},"conditions":["nonSeqFull","nonSeqPartial","seqNoFeedback","seqFeedback"],"classroomPairings":[["A","B"],["C","D"]],"coinWeights":[0.2,0.5,0.8],"subjectId":"A34YDGVZKRJ0LZ","assignmentId":"3OLQQLKKNTBH7NXRSUD3SM6AGSKJE0","hitId":"3QGHA0EA0JM3KKNCY0PQRLYAHJ3BWH","url":"https://gershmanlab.com/experiments/alicia/teaching/experiment/?hitId=3QGHA0EA0JM3KKNCY0PQRLYAHJ3BWH&workerId=A34YDGVZKRJ0LZ&assignmentId=3OLQQLKKNTBH7NXRSUD3SM6AGSKJE0&a=KQLO8&tp_a=KQLO8&b=3OLQQLKKNTBH7NXRSUD3SM6AGSKJE0&tp_b=3OLQQLKKNTBH7NXRSUD3SM6AGSKJE0&c=365198&tp_c=365198","heads":5,"tails":5,"studentIndex":0,"studentTrueHypers":{"a":2,"b":8},"studentGuess":0.35,"delta":0.15000000000000002,"totalExamples":10,"bonusSoFar":0},{"rt":7553,"response":{"heads":"5","tails":"5"},"type":"response","condition":"seqFeedback","trueTheta":0.5,"classrooms":["C","D"],"studentTrueClassroom":"C","exampleSet":"second","trial_type":"survey-html-form","trial_index":11,"time_elapsed":472729,"internal_node_id":"0.0-10.0-0.0","params":{"nStudents":24,"maxFlips":30,"completionMinutes":45,"basePay":8,"maxBonus":9,"perTrialBonus":0.5,"perTrialBonusThreshold":0.1,"exampleCost":0.01},"classroomParams":{"A":{"a":1,"b":4},"B":{"a":4,"b":1},"C":{"a":2,"b":8},"D":{"a":8,"b":2}},"conditions":["nonSeqFull","nonSeqPartial","seqNoFeedback","seqFeedback"],"classroomPairings":[["A","B"],["C","D"]],"coinWeights":[0.2,0.5,0.8],"subjectId":"A34YDGVZKRJ0LZ","assignmentId":"3OLQQLKKNTBH7NXRSUD3SM6AGSKJE0","hitId":"3QGHA0EA0JM3KKNCY0PQRLYAHJ3BWH","url":"https://gershmanlab.com/experiments/alicia/teaching/experiment/?hitId=3QGHA0EA0JM3KKNCY0PQRLYAHJ3BWH&workerId=A34YDGVZKRJ0LZ&assignmentId=3OLQQLKKNTBH7NXRSUD3SM6AGSKJE0&a=KQLO8&tp_a=KQLO8&b=3OLQQLKKNTBH7NXRSUD3SM6AGSKJE0&tp_b=3OLQQLKKNTBH7NXRSUD3SM6AGSKJE0&c=365198&tp_c=365198","firstResponseHeads":5,"firstResponseTails":5,"secondResponseHeads":5,"secondResponseTails":5,"studentIndex":0,"studentTrueHypers":{"a":2,"b":8},"studentGuess":0.4,"delta":0.09999999999999998,"bonus":0.3,"bonusSoFar":0.3,"totalExamples":20},{"rt":14443,"response":{"heads":"2","tails":"8"},"type":"response","condition":"nonSeqFull","trueTheta":0.2,"classrooms":["A","B"],"studentTrueClassroom":"A","exampleSet":"first","trial_type":"survey-html-form","trial_index":17,"time_elapsed":501928,"internal_node_id":"0.0-16.0-0.0","params":{"nStudents":24,"maxFlips":30,"completionMinutes":45,"basePay":8,"maxBonus":9,"perTrialBonus":0.5,"perTrialBonusThreshold":0.1,"exampleCost":0.01},"classroomParams":{"A":{"a":1,"b":4},"B":{"a":4,"b":1},"C":{"a":2,"b":8},"D":{"a":8,"b":2}},"conditions":["nonSeqFull","nonSeqPartial","seqNoFeedback","seqFeedback"],"classroomPairings":[["A","B"],["C","D"]],"coinWeights":[0.2,0.5,0.8],"subjectId":"A34YDGVZKRJ0LZ","assignmentId":"3OLQQLKKNTBH7NXRSUD3SM6AGSKJE0","hitId":"3QGHA0EA0JM3KKNCY0PQRLYAHJ3BWH","url":"https://gershmanlab.com/experiments/alicia/teaching/experiment/?hitId=3QGHA0EA0JM3KKNCY0PQRLYAHJ3BWH&workerId=A34YDGVZKRJ0LZ&assignmentId=3OLQQLKKNTBH7NXRSUD3SM6AGSKJE0&a=KQLO8&tp_a=KQLO8&b=3OLQQLKKNTBH7NXRSUD3SM6AGSKJE0&tp_b=3OLQQLKKNTBH7NXRSUD3SM6AGSKJE0&c=365198&tp_c=365198","heads":2,"tails":8,"studentIndex":1,"studentTrueHypers":{"a":1,"b":4},"studentGuess":0.2,"delta":0,"totalExamples":10,"bonus":0.4,"bonusSoFar":0.7},{"rt":8823,"response":{"heads":"8","tails":"2"},"type":"response","condition":"seqNoFeedback","trueTheta":0.8,"classrooms":["C","D"],"studentTrueClassroom":"C","exampleSet":"first","trial_type":"survey-html-form","trial_index":23,"time_elapsed":534687,"internal_node_id":"0.0-22.0-0.0","params":{"nStudents":24,"maxFlips":30,"completionMinutes":45,"basePay":8,"maxBonus":9,"perTrialBonus":0.5,"perTrialBonusThreshold":0.1,"exampleCost":0.01},"classroomParams":{"A":{"a":1,"b":4},"B":{"a":4,"b":1},"C":{"a":2,"b":8},"D":{"a":8,"b":2}},"conditions":["nonSeqFull","nonSeqPartial","seqNoFeedback","seqFeedback"],"classroomPairings":[["A","B"],["C","D"]],"coinWeights":[0.2,0.5,0.8],"subjectId":"A34YDGVZKRJ0LZ","assignmentId":"3OLQQLKKNTBH7NXRSUD3SM6AGSKJE0","hitId":"3QGHA0EA0JM3KKNCY0PQRLYAHJ3BWH","url":"https://gershmanlab.com/experiments/alicia/teaching/experiment/?hitId=3QGHA0EA0JM3KKNCY0PQRLYAHJ3BWH&workerId=A34YDGVZKRJ0LZ&assignmentId=3OLQQLKKNTBH7NXRSUD3SM6AGSKJE0&a=KQLO8&tp_a=KQLO8&b=3OLQQLKKNTBH7NXRSUD3SM6AGSKJE0&tp_b=3OLQQLKKNTBH7NXRSUD3SM6AGSKJE0&c=365198&tp_c=365198","heads":8,"tails":2,"studentIndex":2,"studentTrueHypers":{"a":2,"b":8},"studentGuess":0.5,"delta":0.30000000000000004,"totalExamples":10,"bonusSoFar":0.7},{"rt":21490,"response":{"heads":"8","tails":"2"},"type":"response","condition":"seqNoFeedback","trueTheta":0.8,"classrooms":["C","D"],"studentTrueClassroom":"C","exampleSet":"second","trial_type":"survey-html-form","trial_index":26,"time_elapsed":563439,"internal_node_id":"0.0-25.0-0.0","params":{"nStudents":24,"maxFlips":30,"completionMinutes":45,"basePay":8,"maxBonus":9,"perTrialBonus":0.5,"perTrialBonusThreshold":0.1,"exampleCost":0.01},"classroomParams":{"A":{"a":1,"b":4},"B":{"a":4,"b":1},"C":{"a":2,"b":8},"D":{"a":8,"b":2}},"conditions":["nonSeqFull","nonSeqPartial","seqNoFeedback","seqFeedback"],"classroomPairings":[["A","B"],["C","D"]],"coinWeights":[0.2,0.5,0.8],"subjectId":"A34YDGVZKRJ0LZ","assignmentId":"3OLQQLKKNTBH7NXRSUD3SM6AGSKJE0","hitId":"3QGHA0EA0JM3KKNCY0PQRLYAHJ3BWH","url":"https://gershmanlab.com/experiments/alicia/teaching/experiment/?hitId=3QGHA0EA0JM3KKNCY0PQRLYAHJ3BWH&workerId=A34YDGVZKRJ0LZ&assignmentId=3OLQQLKKNTBH7NXRSUD3SM6AGSKJE0&a=KQLO8&tp_a=KQLO8&b=3OLQQLKKNTBH7NXRSUD3SM6AGSKJE0&tp_b=3OLQQLKKNTBH7NXRSUD3SM6AGSKJE0&c=365198&tp_c=365198","firstResponseHeads":8,"firstResponseTails":2,"secondResponseHeads":8,"secondResponseTails":2,"studentIndex":2,"studentTrueHypers":{"a":2,"b":8},"studentGuess":0.6,"delta":0.20000000000000007,"bonus":0,"bonusSoFar":0.7,"totalExamples":20},{"rt":44457,"response":{"heads":"8","tails":"2"},"type":"response","condition":"seqFeedback","trueTheta":0.8,"classrooms":["C","D"],"studentTrueClassroom":"D","exampleSet":"first","trial_type":"survey-html-form","trial_index":32,"time_elapsed":628660,"internal_node_id":"0.0-31.0-0.0","params":{"nStudents":24,"maxFlips":30,"completionMinutes":45,"basePay":8,"maxBonus":9,"perTrialBonus":0.5,"perTrialBonusThreshold":0.1,"exampleCost":0.01},"classroomParams":{"A":{"a":1,"b":4},"B":{"a":4,"b":1},"C":{"a":2,"b":8},"D":{"a":8,"b":2}},"conditions":["nonSeqFull","nonSeqPartial","seqNoFeedback","seqFeedback"],"classroomPairings":[["A","B"],["C","D"]],"coinWeights":[0.2,0.5,0.8],"subjectId":"A34YDGVZKRJ0LZ","assignmentId":"3OLQQLKKNTBH7NXRSUD3SM6AGSKJE0","hitId":"3QGHA0EA0JM3KKNCY0PQRLYAHJ3BWH","url":"https://gershmanlab.com/experiments/alicia/teaching/experiment/?hitId=3QGHA0EA0JM3KKNCY0PQRLYAHJ3BWH&workerId=A34YDGVZKRJ0LZ&assignmentId=3OLQQLKKNTBH7NXRSUD3SM6AGSKJE0&a=KQLO8&tp_a=KQLO8&b=3OLQQLKKNTBH7NXRSUD3SM6AGSKJE0&tp_b=3OLQQLKKNTBH7NXRSUD3SM6AGSKJE0&c=365198&tp_c=365198","heads":8,"tails":2,"studentIndex":3,"studentTrueHypers":{"a":8,"b":2},"studentGuess":0.8,"delta":0,"totalExamples":10,"bonusSoFar":0.7},{"rt":12543,"response":{"heads":"8","tails":"2"},"type":"response","condition":"seqFeedback","trueTheta":0.8,"classrooms":["C","D"],"studentTrueClassroom":"D","exampleSet":"second","trial_type":"survey-html-form","trial_index":36,"time_elapsed":652797,"internal_node_id":"0.0-35.0-0.0","params":{"nStudents":24,"maxFlips":30,"completionMinutes":45,"basePay":8,"maxBonus":9,"perTrialBonus":0.5,"perTrialBonusThreshold":0.1,"exampleCost":0.01},"classroomParams":{"A":{"a":1,"b":4},"B":{"a":4,"b":1},"C":{"a":2,"b":8},"D":{"a":8,"b":2}},"conditions":["nonSeqFull","nonSeqPartial","seqNoFeedback","seqFeedback"],"classroomPairings":[["A","B"],["C","D"]],"coinWeights":[0.2,0.5,0.8],"subjectId":"A34YDGVZKRJ0LZ","assignmentId":"3OLQQLKKNTBH7NXRSUD3SM6AGSKJE0","hitId":"3QGHA0EA0JM3KKNCY0PQRLYAHJ3BWH","url":"https://gershmanlab.com/experiments/alicia/teaching/experiment/?hitId=3QGHA0EA0JM3KKNCY0PQRLYAHJ3BWH&workerId=A34YDGVZKRJ0LZ&assignmentId=3OLQQLKKNTBH7NXRSUD3SM6AGSKJE0&a=KQLO8&tp_a=KQLO8&b=3OLQQLKKNTBH7NXRSUD3SM6AGSKJE0&tp_b=3OLQQLKKNTBH7NXRSUD3SM6AGSKJE0&c=365198&tp_c=365198","firstResponseHeads":8,"firstResponseTails":2,"secondResponseHeads":8,"secondResponseTails":2,"studentIndex":3,"studentTrueHypers":{"a":8,"b":2},"studentGuess":0.8,"delta":0,"bonus":0.3,"bonusSoFar":1,"totalExamples":20},{"rt":8046,"response":{"heads":"2","tails":"8"},"type":"response","condition":"nonSeqPartial","trueTheta":0.2,"classrooms":["C","D"],"studentTrueClassroom":"D","exampleSet":"first","trial_type":"survey-html-form","trial_index":42,"time_elapsed":676935,"internal_node_id":"0.0-41.0-0.0","params":{"nStudents":24,"maxFlips":30,"completionMinutes":45,"basePay":8,"maxBonus":9,"perTrialBonus":0.5,"perTrialBonusThreshold":0.1,"exampleCost":0.01},"classroomParams":{"A":{"a":1,"b":4},"B":{"a":4,"b":1},"C":{"a":2,"b":8},"D":{"a":8,"b":2}},"conditions":["nonSeqFull","nonSeqPartial","seqNoFeedback","seqFeedback"],"classroomPairings":[["A","B"],["C","D"]],"coinWeights":[0.2,0.5,0.8],"subjectId":"A34YDGVZKRJ0LZ","assignmentId":"3OLQQLKKNTBH7NXRSUD3SM6AGSKJE0","hitId":"3QGHA0EA0JM3KKNCY0PQRLYAHJ3BWH","url":"https://gershmanlab.com/experiments/alicia/teaching/experiment/?hitId=3QGHA0EA0JM3KKNCY0PQRLYAHJ3BWH&workerId=A34YDGVZKRJ0LZ&assignmentId=3OLQQLKKNTBH7NXRSUD3SM6AGSKJE0&a=KQLO8&tp_a=KQLO8&b=3OLQQLKKNTBH7NXRSUD3SM6AGSKJE0&tp_b=3OLQQLKKNTBH7NXRSUD3SM6AGSKJE0&c=365198&tp_c=365198","heads":2,"tails":8,"studentIndex":4,"studentTrueHypers":{"a":8,"b":2},"studentGuess":0.5,"delta":0.3,"totalExamples":10,"bonus":0,"bonusSoFar":1},{"rt":3279,"response":{"heads":"2","tails":"0"},"type":"response","condition":"seqNoFeedback","trueTheta":0.2,"classrooms":["A","B"],"studentTrueClassroom":"B","exampleSet":"first","trial_type":"survey-html-form","trial_index":48,"time_elapsed":697289,"internal_node_id":"0.0-47.0-0.0","params":{"nStudents":24,"maxFlips":30,"completionMinutes":45,"basePay":8,"maxBonus":9,"perTrialBonus":0.5,"perTrialBonusThreshold":0.1,"exampleCost":0.01},"classroomParams":{"A":{"a":1,"b":4},"B":{"a":4,"b":1},"C":{"a":2,"b":8},"D":{"a":8,"b":2}},"conditions":["nonSeqFull","nonSeqPartial","seqNoFeedback","seqFeedback"],"classroomPairings":[["A","B"],["C","D"]],"coinWeights":[0.2,0.5,0.8],"subjectId":"A34YDGVZKRJ0LZ","assignmentId":"3OLQQLKKNTBH7NXRSUD3SM6AGSKJE0","hitId":"3QGHA0EA0JM3KKNCY0PQRLYAHJ3BWH","url":"https://gershmanlab.com/experiments/alicia/teaching/experiment/?hitId=3QGHA0EA0JM3KKNCY0PQRLYAHJ3BWH&workerId=A34YDGVZKRJ0LZ&assignmentId=3OLQQLKKNTBH7NXRSUD3SM6AGSKJE0&a=KQLO8&tp_a=KQLO8&b=3OLQQLKKNTBH7NXRSUD3SM6AGSKJE0&tp_b=3OLQQLKKNTBH7NXRSUD3SM6AGSKJE0&c=365198&tp_c=365198","heads":2,"tails":0,"studentIndex":5,"studentTrueHypers":{"a":4,"b":1},"studentGuess":0.8571428571428571,"delta":0.657142857142857,"totalExamples":2,"bonusSoFar":1},{"rt":12970,"response":{"heads":"2","tails":"0"},"type":"response","condition":"seqNoFeedback","trueTheta":0.2,"classrooms":["A","B"],"studentTrueClassroom":"B","exampleSet":"second","trial_type":"survey-html-form","trial_index":51,"time_elapsed":717268,"internal_node_id":"0.0-50.0-0.0","params":{"nStudents":24,"maxFlips":30,"completionMinutes":45,"basePay":8,"maxBonus":9,"perTrialBonus":0.5,"perTrialBonusThreshold":0.1,"exampleCost":0.01},"classroomParams":{"A":{"a":1,"b":4},"B":{"a":4,"b":1},"C":{"a":2,"b":8},"D":{"a":8,"b":2}},"conditions":["nonSeqFull","nonSeqPartial","seqNoFeedback","seqFeedback"],"classroomPairings":[["A","B"],["C","D"]],"coinWeights":[0.2,0.5,0.8],"subjectId":"A34YDGVZKRJ0LZ","assignmentId":"3OLQQLKKNTBH7NXRSUD3SM6AGSKJE0","hitId":"3QGHA0EA0JM3KKNCY0PQRLYAHJ3BWH","url":"https://gershmanlab.com/experiments/alicia/teaching/experiment/?hitId=3QGHA0EA0JM3KKNCY0PQRLYAHJ3BWH&workerId=A34YDGVZKRJ0LZ&assignmentId=3OLQQLKKNTBH7NXRSUD3SM6AGSKJE0&a=KQLO8&tp_a=KQLO8&b=3OLQQLKKNTBH7NXRSUD3SM6AGSKJE0&tp_b=3OLQQLKKNTBH7NXRSUD3SM6AGSKJE0&c=365198&tp_c=365198","firstResponseHeads":2,"firstResponseTails":0,"secondResponseHeads":2,"secondResponseTails":0,"studentIndex":5,"studentTrueHypers":{"a":4,"b":1},"studentGuess":0.8888888888888888,"delta":0.6888888888888889,"bonus":0,"bonusSoFar":1,"totalExamples":4},{"rt":7393,"response":{"heads":"8","tails":"2"},"type":"response","condition":"nonSeqFull","trueTheta":0.8,"classrooms":["A","B"],"studentTrueClassroom":"B","exampleSet":"first","trial_type":"survey-html-form","trial_index":57,"time_elapsed":740336,"internal_node_id":"0.0-56.0-0.0","params":{"nStudents":24,"maxFlips":30,"completionMinutes":45,"basePay":8,"maxBonus":9,"perTrialBonus":0.5,"perTrialBonusThreshold":0.1,"exampleCost":0.01},"classroomParams":{"A":{"a":1,"b":4},"B":{"a":4,"b":1},"C":{"a":2,"b":8},"D":{"a":8,"b":2}},"conditions":["nonSeqFull","nonSeqPartial","seqNoFeedback","seqFeedback"],"classroomPairings":[["A","B"],["C","D"]],"coinWeights":[0.2,0.5,0.8],"subjectId":"A34YDGVZKRJ0LZ","assignmentId":"3OLQQLKKNTBH7NXRSUD3SM6AGSKJE0","hitId":"3QGHA0EA0JM3KKNCY0PQRLYAHJ3BWH","url":"https://gershmanlab.com/experiments/alicia/teaching/experiment/?hitId=3QGHA0EA0JM3KKNCY0PQRLYAHJ3BWH&workerId=A34YDGVZKRJ0LZ&assignmentId=3OLQQLKKNTBH7NXRSUD3SM6AGSKJE0&a=KQLO8&tp_a=KQLO8&b=3OLQQLKKNTBH7NXRSUD3SM6AGSKJE0&tp_b=3OLQQLKKNTBH7NXRSUD3SM6AGSKJE0&c=365198&tp_c=365198","heads":8,"tails":2,"studentIndex":6,"studentTrueHypers":{"a":4,"b":1},"studentGuess":0.8,"delta":0,"totalExamples":10,"bonus":0.4,"bonusSoFar":1.4},{"rt":9883,"response":{"heads":"5","tails":"5"},"type":"response","condition":"nonSeqFull","trueTheta":0.5,"classrooms":["C","D"],"studentTrueClassroom":"C","exampleSet":"first","trial_type":"survey-html-form","trial_index":63,"time_elapsed":765694,"internal_node_id":"0.0-62.0-0.0","params":{"nStudents":24,"maxFlips":30,"completionMinutes":45,"basePay":8,"maxBonus":9,"perTrialBonus":0.5,"perTrialBonusThreshold":0.1,"exampleCost":0.01},"classroomParams":{"A":{"a":1,"b":4},"B":{"a":4,"b":1},"C":{"a":2,"b":8},"D":{"a":8,"b":2}},"conditions":["nonSeqFull","nonSeqPartial","seqNoFeedback","seqFeedback"],"classroomPairings":[["A","B"],["C","D"]],"coinWeights":[0.2,0.5,0.8],"subjectId":"A34YDGVZKRJ0LZ","assignmentId":"3OLQQLKKNTBH7NXRSUD3SM6AGSKJE0","hitId":"3QGHA0EA0JM3KKNCY0PQRLYAHJ3BWH","url":"https://gershmanlab.com/experiments/alicia/teaching/experiment/?hitId=3QGHA0EA0JM3KKNCY0PQRLYAHJ3BWH&workerId=A34YDGVZKRJ0LZ&assignmentId=3OLQQLKKNTBH7NXRSUD3SM6AGSKJE0&a=KQLO8&tp_a=KQLO8&b=3OLQQLKKNTBH7NXRSUD3SM6AGSKJE0&tp_b=3OLQQLKKNTBH7NXRSUD3SM6AGSKJE0&c=365198&tp_c=365198","heads":5,"tails":5,"studentIndex":7,"studentTrueHypers":{"a":2,"b":8},"studentGuess":0.35,"delta":0.15000000000000002,"totalExamples":10,"bonus":0,"bonusSoFar":1.4},{"rt":11894,"response":{"heads":"1","tails":"1"},"type":"response","condition":"nonSeqFull","trueTheta":0.5,"classrooms":["A","B"],"studentTrueClassroom":"B","exampleSet":"first","trial_type":"survey-html-form","trial_index":69,"time_elapsed":792447,"internal_node_id":"0.0-68.0-0.0","params":{"nStudents":24,"maxFlips":30,"completionMinutes":45,"basePay":8,"maxBonus":9,"perTrialBonus":0.5,"perTrialBonusThreshold":0.1,"exampleCost":0.01},"classroomParams":{"A":{"a":1,"b":4},"B":{"a":4,"b":1},"C":{"a":2,"b":8},"D":{"a":8,"b":2}},"conditions":["nonSeqFull","nonSeqPartial","seqNoFeedback","seqFeedback"],"classroomPairings":[["A","B"],["C","D"]],"coinWeights":[0.2,0.5,0.8],"subjectId":"A34YDGVZKRJ0LZ","assignmentId":"3OLQQLKKNTBH7NXRSUD3SM6AGSKJE0","hitId":"3QGHA0EA0JM3KKNCY0PQRLYAHJ3BWH","url":"https://gershmanlab.com/experiments/alicia/teaching/experiment/?hitId=3QGHA0EA0JM3KKNCY0PQRLYAHJ3BWH&workerId=A34YDGVZKRJ0LZ&assignmentId=3OLQQLKKNTBH7NXRSUD3SM6AGSKJE0&a=KQLO8&tp_a=KQLO8&b=3OLQQLKKNTBH7NXRSUD3SM6AGSKJE0&tp_b=3OLQQLKKNTBH7NXRSUD3SM6AGSKJE0&c=365198&tp_c=365198","heads":1,"tails":1,"studentIndex":8,"studentTrueHypers":{"a":4,"b":1},"studentGuess":0.7142857142857143,"delta":0.2142857142857143,"totalExamples":2,"bonus":0,"bonusSoFar":1.4},{"rt":6294,"response":{"heads":"5","tails":"5"},"type":"response","condition":"nonSeqPartial","trueTheta":0.5,"classrooms":["C","D"],"studentTrueClassroom":"C","exampleSet":"first","trial_type":"survey-html-form","trial_index":75,"time_elapsed":811247,"internal_node_id":"0.0-74.0-0.0","params":{"nStudents":24,"maxFlips":30,"completionMinutes":45,"basePay":8,"maxBonus":9,"perTrialBonus":0.5,"perTrialBonusThreshold":0.1,"exampleCost":0.01},"classroomParams":{"A":{"a":1,"b":4},"B":{"a":4,"b":1},"C":{"a":2,"b":8},"D":{"a":8,"b":2}},"conditions":["nonSeqFull","nonSeqPartial","seqNoFeedback","seqFeedback"],"classroomPairings":[["A","B"],["C","D"]],"coinWeights":[0.2,0.5,0.8],"subjectId":"A34YDGVZKRJ0LZ","assignmentId":"3OLQQLKKNTBH7NXRSUD3SM6AGSKJE0","hitId":"3QGHA0EA0JM3KKNCY0PQRLYAHJ3BWH","url":"https://gershmanlab.com/experiments/alicia/teaching/experiment/?hitId=3QGHA0EA0JM3KKNCY0PQRLYAHJ3BWH&workerId=A34YDGVZKRJ0LZ&assignmentId=3OLQQLKKNTBH7NXRSUD3SM6AGSKJE0&a=KQLO8&tp_a=KQLO8&b=3OLQQLKKNTBH7NXRSUD3SM6AGSKJE0&tp_b=3OLQQLKKNTBH7NXRSUD3SM6AGSKJE0&c=365198&tp_c=365198","heads":5,"tails":5,"studentIndex":9,"studentTrueHypers":{"a":2,"b":8},"studentGuess":0.35,"delta":0.15000000000000002,"totalExamples":10,"bonus":0,"bonusSoFar":1.4},{"rt":27519,"response":{"heads":"4","tails":"1"},"type":"response","condition":"nonSeqPartial","trueTheta":0.5,"classrooms":["A","B"],"studentTrueClassroom":"A","exampleSet":"first","trial_type":"survey-html-form","trial_index":81,"time_elapsed":852547,"internal_node_id":"0.0-80.0-0.0","params":{"nStudents":24,"maxFlips":30,"completionMinutes":45,"basePay":8,"maxBonus":9,"perTrialBonus":0.5,"perTrialBonusThreshold":0.1,"exampleCost":0.01},"classroomParams":{"A":{"a":1,"b":4},"B":{"a":4,"b":1},"C":{"a":2,"b":8},"D":{"a":8,"b":2}},"conditions":["nonSeqFull","nonSeqPartial","seqNoFeedback","seqFeedback"],"classroomPairings":[["A","B"],["C","D"]],"coinWeights":[0.2,0.5,0.8],"subjectId":"A34YDGVZKRJ0LZ","assignmentId":"3OLQQLKKNTBH7NXRSUD3SM6AGSKJE0","hitId":"3QGHA0EA0JM3KKNCY0PQRLYAHJ3BWH","url":"https://gershmanlab.com/experiments/alicia/teaching/experiment/?hitId=3QGHA0EA0JM3KKNCY0PQRLYAHJ3BWH&workerId=A34YDGVZKRJ0LZ&assignmentId=3OLQQLKKNTBH7NXRSUD3SM6AGSKJE0&a=KQLO8&tp_a=KQLO8&b=3OLQQLKKNTBH7NXRSUD3SM6AGSKJE0&tp_b=3OLQQLKKNTBH7NXRSUD3SM6AGSKJE0&c=365198&tp_c=365198","heads":4,"tails":1,"studentIndex":10,"studentTrueHypers":{"a":1,"b":4},"studentGuess":0.5,"delta":0,"totalExamples":5,"bonus":0.45,"bonusSoFar":1.85},{"rt":15346,"response":{"heads":"4","tails":"1"},"type":"response","condition":"nonSeqPartial","trueTheta":0.8,"classrooms":["A","B"],"studentTrueClassroom":"A","exampleSet":"first","trial_type":"survey-html-form","trial_index":87,"time_elapsed":886059,"internal_node_id":"0.0-86.0-0.0","params":{"nStudents":24,"maxFlips":30,"completionMinutes":45,"basePay":8,"maxBonus":9,"perTrialBonus":0.5,"perTrialBonusThreshold":0.1,"exampleCost":0.01},"classroomParams":{"A":{"a":1,"b":4},"B":{"a":4,"b":1},"C":{"a":2,"b":8},"D":{"a":8,"b":2}},"conditions":["nonSeqFull","nonSeqPartial","seqNoFeedback","seqFeedback"],"classroomPairings":[["A","B"],["C","D"]],"coinWeights":[0.2,0.5,0.8],"subjectId":"A34YDGVZKRJ0LZ","assignmentId":"3OLQQLKKNTBH7NXRSUD3SM6AGSKJE0","hitId":"3QGHA0EA0JM3KKNCY0PQRLYAHJ3BWH","url":"https://gershmanlab.com/experiments/alicia/teaching/experiment/?hitId=3QGHA0EA0JM3KKNCY0PQRLYAHJ3BWH&workerId=A34YDGVZKRJ0LZ&assignmentId=3OLQQLKKNTBH7NXRSUD3SM6AGSKJE0&a=KQLO8&tp_a=KQLO8&b=3OLQQLKKNTBH7NXRSUD3SM6AGSKJE0&tp_b=3OLQQLKKNTBH7NXRSUD3SM6AGSKJE0&c=365198&tp_c=365198","heads":4,"tails":1,"studentIndex":11,"studentTrueHypers":{"a":1,"b":4},"studentGuess":0.5,"delta":0.30000000000000004,"totalExamples":5,"bonus":0,"bonusSoFar":1.85},{"rt":11957,"response":{"heads":"2","tails":"8"},"type":"response","condition":"nonSeqPartial","trueTheta":0.2,"classrooms":["A","B"],"studentTrueClassroom":"A","exampleSet":"first","trial_type":"survey-html-form","trial_index":93,"time_elapsed":913304,"internal_node_id":"0.0-92.0-0.0","params":{"nStudents":24,"maxFlips":30,"completionMinutes":45,"basePay":8,"maxBonus":9,"perTrialBonus":0.5,"perTrialBonusThreshold":0.1,"exampleCost":0.01},"classroomParams":{"A":{"a":1,"b":4},"B":{"a":4,"b":1},"C":{"a":2,"b":8},"D":{"a":8,"b":2}},"conditions":["nonSeqFull","nonSeqPartial","seqNoFeedback","seqFeedback"],"classroomPairings":[["A","B"],["C","D"]],"coinWeights":[0.2,0.5,0.8],"subjectId":"A34YDGVZKRJ0LZ","assignmentId":"3OLQQLKKNTBH7NXRSUD3SM6AGSKJE0","hitId":"3QGHA0EA0JM3KKNCY0PQRLYAHJ3BWH","url":"https://gershmanlab.com/experiments/alicia/teaching/experiment/?hitId=3QGHA0EA0JM3KKNCY0PQRLYAHJ3BWH&workerId=A34YDGVZKRJ0LZ&assignmentId=3OLQQLKKNTBH7NXRSUD3SM6AGSKJE0&a=KQLO8&tp_a=KQLO8&b=3OLQQLKKNTBH7NXRSUD3SM6AGSKJE0&tp_b=3OLQQLKKNTBH7NXRSUD3SM6AGSKJE0&c=365198&tp_c=365198","heads":2,"tails":8,"studentIndex":12,"studentTrueHypers":{"a":1,"b":4},"studentGuess":0.2,"delta":0,"totalExamples":10,"bonus":0.4,"bonusSoFar":2.25},{"rt":17611,"response":{"heads":"2","tails":"8"},"type":"response","condition":"nonSeqFull","trueTheta":0.2,"classrooms":["C","D"],"studentTrueClassroom":"D","exampleSet":"first","trial_type":"survey-html-form","trial_index":99,"time_elapsed":944563,"internal_node_id":"0.0-98.0-0.0","params":{"nStudents":24,"maxFlips":30,"completionMinutes":45,"basePay":8,"maxBonus":9,"perTrialBonus":0.5,"perTrialBonusThreshold":0.1,"exampleCost":0.01},"classroomParams":{"A":{"a":1,"b":4},"B":{"a":4,"b":1},"C":{"a":2,"b":8},"D":{"a":8,"b":2}},"conditions":["nonSeqFull","nonSeqPartial","seqNoFeedback","seqFeedback"],"classroomPairings":[["A","B"],["C","D"]],"coinWeights":[0.2,0.5,0.8],"subjectId":"A34YDGVZKRJ0LZ","assignmentId":"3OLQQLKKNTBH7NXRSUD3SM6AGSKJE0","hitId":"3QGHA0EA0JM3KKNCY0PQRLYAHJ3BWH","url":"https://gershmanlab.com/experiments/alicia/teaching/experiment/?hitId=3QGHA0EA0JM3KKNCY0PQRLYAHJ3BWH&workerId=A34YDGVZKRJ0LZ&assignmentId=3OLQQLKKNTBH7NXRSUD3SM6AGSKJE0&a=KQLO8&tp_a=KQLO8&b=3OLQQLKKNTBH7NXRSUD3SM6AGSKJE0&tp_b=3OLQQLKKNTBH7NXRSUD3SM6AGSKJE0&c=365198&tp_c=365198","heads":2,"tails":8,"studentIndex":13,"studentTrueHypers":{"a":8,"b":2},"studentGuess":0.5,"delta":0.3,"totalExamples":10,"bonus":0,"bonusSoFar":2.25},{"rt":20640,"response":{"heads":"8","tails":"2"},"type":"response","condition":"nonSeqPartial","trueTheta":0.8,"classrooms":["C","D"],"studentTrueClassroom":"D","exampleSet":"first","trial_type":"survey-html-form","trial_index":105,"time_elapsed":978341,"internal_node_id":"0.0-104.0-0.0","params":{"nStudents":24,"maxFlips":30,"completionMinutes":45,"basePay":8,"maxBonus":9,"perTrialBonus":0.5,"perTrialBonusThreshold":0.1,"exampleCost":0.01},"classroomParams":{"A":{"a":1,"b":4},"B":{"a":4,"b":1},"C":{"a":2,"b":8},"D":{"a":8,"b":2}},"conditions":["nonSeqFull","nonSeqPartial","seqNoFeedback","seqFeedback"],"classroomPairings":[["A","B"],["C","D"]],"coinWeights":[0.2,0.5,0.8],"subjectId":"A34YDGVZKRJ0LZ","assignmentId":"3OLQQLKKNTBH7NXRSUD3SM6AGSKJE0","hitId":"3QGHA0EA0JM3KKNCY0PQRLYAHJ3BWH","url":"https://gershmanlab.com/experiments/alicia/teaching/experiment/?hitId=3QGHA0EA0JM3KKNCY0PQRLYAHJ3BWH&workerId=A34YDGVZKRJ0LZ&assignmentId=3OLQQLKKNTBH7NXRSUD3SM6AGSKJE0&a=KQLO8&tp_a=KQLO8&b=3OLQQLKKNTBH7NXRSUD3SM6AGSKJE0&tp_b=3OLQQLKKNTBH7NXRSUD3SM6AGSKJE0&c=365198&tp_c=365198","heads":8,"tails":2,"studentIndex":14,"studentTrueHypers":{"a":8,"b":2},"studentGuess":0.8,"delta":0,"totalExamples":10,"bonus":0.4,"bonusSoFar":2.65},{"rt":10198,"response":{"heads":"4","tails":"1"},"type":"response","condition":"seqFeedback","trueTheta":0.8,"classrooms":["A","B"],"studentTrueClassroom":"B","exampleSet":"first","trial_type":"survey-html-form","trial_index":111,"time_elapsed":1003482,"internal_node_id":"0.0-110.0-0.0","params":{"nStudents":24,"maxFlips":30,"completionMinutes":45,"basePay":8,"maxBonus":9,"perTrialBonus":0.5,"perTrialBonusThreshold":0.1,"exampleCost":0.01},"classroomParams":{"A":{"a":1,"b":4},"B":{"a":4,"b":1},"C":{"a":2,"b":8},"D":{"a":8,"b":2}},"conditions":["nonSeqFull","nonSeqPartial","seqNoFeedback","seqFeedback"],"classroomPairings":[["A","B"],["C","D"]],"coinWeights":[0.2,0.5,0.8],"subjectId":"A34YDGVZKRJ0LZ","assignmentId":"3OLQQLKKNTBH7NXRSUD3SM6AGSKJE0","hitId":"3QGHA0EA0JM3KKNCY0PQRLYAHJ3BWH","url":"https://gershmanlab.com/experiments/alicia/teaching/experiment/?hitId=3QGHA0EA0JM3KKNCY0PQRLYAHJ3BWH&workerId=A34YDGVZKRJ0LZ&assignmentId=3OLQQLKKNTBH7NXRSUD3SM6AGSKJE0&a=KQLO8&tp_a=KQLO8&b=3OLQQLKKNTBH7NXRSUD3SM6AGSKJE0&tp_b=3OLQQLKKNTBH7NXRSUD3SM6AGSKJE0&c=365198&tp_c=365198","heads":4,"tails":1,"studentIndex":15,"studentTrueHypers":{"a":4,"b":1},"studentGuess":0.8,"delta":0,"totalExamples":5,"bonusSoFar":2.65},{"rt":12274,"response":{"heads":"4","tails":"1"},"type":"response","condition":"seqFeedback","trueTheta":0.8,"classrooms":["A","B"],"studentTrueClassroom":"B","exampleSet":"second","trial_type":"survey-html-form","trial_index":115,"time_elapsed":1029789,"internal_node_id":"0.0-114.0-0.0","params":{"nStudents":24,"maxFlips":30,"completionMinutes":45,"basePay":8,"maxBonus":9,"perTrialBonus":0.5,"perTrialBonusThreshold":0.1,"exampleCost":0.01},"classroomParams":{"A":{"a":1,"b":4},"B":{"a":4,"b":1},"C":{"a":2,"b":8},"D":{"a":8,"b":2}},"conditions":["nonSeqFull","nonSeqPartial","seqNoFeedback","seqFeedback"],"classroomPairings":[["A","B"],["C","D"]],"coinWeights":[0.2,0.5,0.8],"subjectId":"A34YDGVZKRJ0LZ","assignmentId":"3OLQQLKKNTBH7NXRSUD3SM6AGSKJE0","hitId":"3QGHA0EA0JM3KKNCY0PQRLYAHJ3BWH","url":"https://gershmanlab.com/experiments/alicia/teaching/experiment/?hitId=3QGHA0EA0JM3KKNCY0PQRLYAHJ3BWH&workerId=A34YDGVZKRJ0LZ&assignmentId=3OLQQLKKNTBH7NXRSUD3SM6AGSKJE0&a=KQLO8&tp_a=KQLO8&b=3OLQQLKKNTBH7NXRSUD3SM6AGSKJE0&tp_b=3OLQQLKKNTBH7NXRSUD3SM6AGSKJE0&c=365198&tp_c=365198","firstResponseHeads":4,"firstResponseTails":1,"secondResponseHeads":4,"secondResponseTails":1,"studentIndex":15,"studentTrueHypers":{"a":4,"b":1},"studentGuess":0.8,"delta":0,"bonus":0.4,"bonusSoFar":3.05,"totalExamples":10},{"rt":9633,"response":{"heads":"8","tails":"2"},"type":"response","condition":"nonSeqFull","trueTheta":0.8,"classrooms":["C","D"],"studentTrueClassroom":"C","exampleSet":"first","trial_type":"survey-html-form","trial_index":121,"time_elapsed":1054360,"internal_node_id":"0.0-120.0-0.0","params":{"nStudents":24,"maxFlips":30,"completionMinutes":45,"basePay":8,"maxBonus":9,"perTrialBonus":0.5,"perTrialBonusThreshold":0.1,"exampleCost":0.01},"classroomParams":{"A":{"a":1,"b":4},"B":{"a":4,"b":1},"C":{"a":2,"b":8},"D":{"a":8,"b":2}},"conditions":["nonSeqFull","nonSeqPartial","seqNoFeedback","seqFeedback"],"classroomPairings":[["A","B"],["C","D"]],"coinWeights":[0.2,0.5,0.8],"subjectId":"A34YDGVZKRJ0LZ","assignmentId":"3OLQQLKKNTBH7NXRSUD3SM6AGSKJE0","hitId":"3QGHA0EA0JM3KKNCY0PQRLYAHJ3BWH","url":"https://gershmanlab.com/experiments/alicia/teaching/experiment/?hitId=3QGHA0EA0JM3KKNCY0PQRLYAHJ3BWH&workerId=A34YDGVZKRJ0LZ&assignmentId=3OLQQLKKNTBH7NXRSUD3SM6AGSKJE0&a=KQLO8&tp_a=KQLO8&b=3OLQQLKKNTBH7NXRSUD3SM6AGSKJE0&tp_b=3OLQQLKKNTBH7NXRSUD3SM6AGSKJE0&c=365198&tp_c=365198","heads":8,"tails":2,"studentIndex":16,"studentTrueHypers":{"a":2,"b":8},"studentGuess":0.5,"delta":0.30000000000000004,"totalExamples":10,"bonus":0,"bonusSoFar":3.05},{"rt":15388,"response":{"heads":"1","tails":"4"},"type":"response","condition":"seqFeedback","trueTheta":0.2,"classrooms":["A","B"],"studentTrueClassroom":"A","exampleSet":"first","trial_type":"survey-html-form","trial_index":127,"time_elapsed":1084823,"internal_node_id":"0.0-126.0-0.0","params":{"nStudents":24,"maxFlips":30,"completionMinutes":45,"basePay":8,"maxBonus":9,"perTrialBonus":0.5,"perTrialBonusThreshold":0.1,"exampleCost":0.01},"classroomParams":{"A":{"a":1,"b":4},"B":{"a":4,"b":1},"C":{"a":2,"b":8},"D":{"a":8,"b":2}},"conditions":["nonSeqFull","nonSeqPartial","seqNoFeedback","seqFeedback"],"classroomPairings":[["A","B"],["C","D"]],"coinWeights":[0.2,0.5,0.8],"subjectId":"A34YDGVZKRJ0LZ","assignmentId":"3OLQQLKKNTBH7NXRSUD3SM6AGSKJE0","hitId":"3QGHA0EA0JM3KKNCY0PQRLYAHJ3BWH","url":"https://gershmanlab.com/experiments/alicia/teaching/experiment/?hitId=3QGHA0EA0JM3KKNCY0PQRLYAHJ3BWH&workerId=A34YDGVZKRJ0LZ&assignmentId=3OLQQLKKNTBH7NXRSUD3SM6AGSKJE0&a=KQLO8&tp_a=KQLO8&b=3OLQQLKKNTBH7NXRSUD3SM6AGSKJE0&tp_b=3OLQQLKKNTBH7NXRSUD3SM6AGSKJE0&c=365198&tp_c=365198","heads":1,"tails":4,"studentIndex":17,"studentTrueHypers":{"a":1,"b":4},"studentGuess":0.2,"delta":0,"totalExamples":5,"bonusSoFar":3.05},{"rt":6013,"response":{"heads":"1","tails":"4"},"type":"response","condition":"seqFeedback","trueTheta":0.2,"classrooms":["A","B"],"studentTrueClassroom":"A","exampleSet":"second","trial_type":"survey-html-form","trial_index":131,"time_elapsed":1103171,"internal_node_id":"0.0-130.0-0.0","params":{"nStudents":24,"maxFlips":30,"completionMinutes":45,"basePay":8,"maxBonus":9,"perTrialBonus":0.5,"perTrialBonusThreshold":0.1,"exampleCost":0.01},"classroomParams":{"A":{"a":1,"b":4},"B":{"a":4,"b":1},"C":{"a":2,"b":8},"D":{"a":8,"b":2}},"conditions":["nonSeqFull","nonSeqPartial","seqNoFeedback","seqFeedback"],"classroomPairings":[["A","B"],["C","D"]],"coinWeights":[0.2,0.5,0.8],"subjectId":"A34YDGVZKRJ0LZ","assignmentId":"3OLQQLKKNTBH7NXRSUD3SM6AGSKJE0","hitId":"3QGHA0EA0JM3KKNCY0PQRLYAHJ3BWH","url":"https://gershmanlab.com/experiments/alicia/teaching/experiment/?hitId=3QGHA0EA0JM3KKNCY0PQRLYAHJ3BWH&workerId=A34YDGVZKRJ0LZ&assignmentId=3OLQQLKKNTBH7NXRSUD3SM6AGSKJE0&a=KQLO8&tp_a=KQLO8&b=3OLQQLKKNTBH7NXRSUD3SM6AGSKJE0&tp_b=3OLQQLKKNTBH7NXRSUD3SM6AGSKJE0&c=365198&tp_c=365198","firstResponseHeads":1,"firstResponseTails":4,"secondResponseHeads":1,"secondResponseTails":4,"studentIndex":17,"studentTrueHypers":{"a":1,"b":4},"studentGuess":0.2,"delta":0,"bonus":0.4,"bonusSoFar":3.45,"totalExamples":10},{"rt":17288,"response":{"heads":"3","tails":"0"},"type":"response","condition":"seqNoFeedback","trueTheta":0.5,"classrooms":["C","D"],"studentTrueClassroom":"D","exampleSet":"first","trial_type":"survey-html-form","trial_index":137,"time_elapsed":1134090,"internal_node_id":"0.0-136.0-0.0","params":{"nStudents":24,"maxFlips":30,"completionMinutes":45,"basePay":8,"maxBonus":9,"perTrialBonus":0.5,"perTrialBonusThreshold":0.1,"exampleCost":0.01},"classroomParams":{"A":{"a":1,"b":4},"B":{"a":4,"b":1},"C":{"a":2,"b":8},"D":{"a":8,"b":2}},"conditions":["nonSeqFull","nonSeqPartial","seqNoFeedback","seqFeedback"],"classroomPairings":[["A","B"],["C","D"]],"coinWeights":[0.2,0.5,0.8],"subjectId":"A34YDGVZKRJ0LZ","assignmentId":"3OLQQLKKNTBH7NXRSUD3SM6AGSKJE0","hitId":"3QGHA0EA0JM3KKNCY0PQRLYAHJ3BWH","url":"https://gershmanlab.com/experiments/alicia/teaching/experiment/?hitId=3QGHA0EA0JM3KKNCY0PQRLYAHJ3BWH&workerId=A34YDGVZKRJ0LZ&assignmentId=3OLQQLKKNTBH7NXRSUD3SM6AGSKJE0&a=KQLO8&tp_a=KQLO8&b=3OLQQLKKNTBH7NXRSUD3SM6AGSKJE0&tp_b=3OLQQLKKNTBH7NXRSUD3SM6AGSKJE0&c=365198&tp_c=365198","heads":3,"tails":0,"studentIndex":18,"studentTrueHypers":{"a":8,"b":2},"studentGuess":0.8461538461538461,"delta":0.34615384615384615,"totalExamples":3,"bonusSoFar":3.45},{"rt":9096,"response":{"heads":"3","tails":"0"},"type":"response","condition":"seqNoFeedback","trueTheta":0.5,"classrooms":["C","D"],"studentTrueClassroom":"D","exampleSet":"second","trial_type":"survey-html-form","trial_index":140,"time_elapsed":1149696,"internal_node_id":"0.0-139.0-0.0","params":{"nStudents":24,"maxFlips":30,"completionMinutes":45,"basePay":8,"maxBonus":9,"perTrialBonus":0.5,"perTrialBonusThreshold":0.1,"exampleCost":0.01},"classroomParams":{"A":{"a":1,"b":4},"B":{"a":4,"b":1},"C":{"a":2,"b":8},"D":{"a":8,"b":2}},"conditions":["nonSeqFull","nonSeqPartial","seqNoFeedback","seqFeedback"],"classroomPairings":[["A","B"],["C","D"]],"coinWeights":[0.2,0.5,0.8],"subjectId":"A34YDGVZKRJ0LZ","assignmentId":"3OLQQLKKNTBH7NXRSUD3SM6AGSKJE0","hitId":"3QGHA0EA0JM3KKNCY0PQRLYAHJ3BWH","url":"https://gershmanlab.com/experiments/alicia/teaching/experiment/?hitId=3QGHA0EA0JM3KKNCY0PQRLYAHJ3BWH&workerId=A34YDGVZKRJ0LZ&assignmentId=3OLQQLKKNTBH7NXRSUD3SM6AGSKJE0&a=KQLO8&tp_a=KQLO8&b=3OLQQLKKNTBH7NXRSUD3SM6AGSKJE0&tp_b=3OLQQLKKNTBH7NXRSUD3SM6AGSKJE0&c=365198&tp_c=365198","firstResponseHeads":3,"firstResponseTails":0,"secondResponseHeads":3,"secondResponseTails":0,"studentIndex":18,"studentTrueHypers":{"a":8,"b":2},"studentGuess":0.875,"delta":0.375,"bonus":0,"bonusSoFar":3.45,"totalExamples":6},{"rt":11308,"response":{"heads":"2","tails":"8"},"type":"response","condition":"seqNoFeedback","trueTheta":0.2,"classrooms":["C","D"],"studentTrueClassroom":"D","exampleSet":"first","trial_type":"survey-html-form","trial_index":146,"time_elapsed":1172627,"internal_node_id":"0.0-145.0-0.0","params":{"nStudents":24,"maxFlips":30,"completionMinutes":45,"basePay":8,"maxBonus":9,"perTrialBonus":0.5,"perTrialBonusThreshold":0.1,"exampleCost":0.01},"classroomParams":{"A":{"a":1,"b":4},"B":{"a":4,"b":1},"C":{"a":2,"b":8},"D":{"a":8,"b":2}},"conditions":["nonSeqFull","nonSeqPartial","seqNoFeedback","seqFeedback"],"classroomPairings":[["A","B"],["C","D"]],"coinWeights":[0.2,0.5,0.8],"subjectId":"A34YDGVZKRJ0LZ","assignmentId":"3OLQQLKKNTBH7NXRSUD3SM6AGSKJE0","hitId":"3QGHA0EA0JM3KKNCY0PQRLYAHJ3BWH","url":"https://gershmanlab.com/experiments/alicia/teaching/experiment/?hitId=3QGHA0EA0JM3KKNCY0PQRLYAHJ3BWH&workerId=A34YDGVZKRJ0LZ&assignmentId=3OLQQLKKNTBH7NXRSUD3SM6AGSKJE0&a=KQLO8&tp_a=KQLO8&b=3OLQQLKKNTBH7NXRSUD3SM6AGSKJE0&tp_b=3OLQQLKKNTBH7NXRSUD3SM6AGSKJE0&c=365198&tp_c=365198","heads":2,"tails":8,"studentIndex":19,"studentTrueHypers":{"a":8,"b":2},"studentGuess":0.5,"delta":0.3,"totalExamples":10,"bonusSoFar":3.45},{"rt":8234,"response":{"heads":"2","tails":"8"},"type":"response","condition":"seqNoFeedback","trueTheta":0.2,"classrooms":["C","D"],"studentTrueClassroom":"D","exampleSet":"second","trial_type":"survey-html-form","trial_index":149,"time_elapsed":1187375,"internal_node_id":"0.0-148.0-0.0","params":{"nStudents":24,"maxFlips":30,"completionMinutes":45,"basePay":8,"maxBonus":9,"perTrialBonus":0.5,"perTrialBonusThreshold":0.1,"exampleCost":0.01},"classroomParams":{"A":{"a":1,"b":4},"B":{"a":4,"b":1},"C":{"a":2,"b":8},"D":{"a":8,"b":2}},"conditions":["nonSeqFull","nonSeqPartial","seqNoFeedback","seqFeedback"],"classroomPairings":[["A","B"],["C","D"]],"coinWeights":[0.2,0.5,0.8],"subjectId":"A34YDGVZKRJ0LZ","assignmentId":"3OLQQLKKNTBH7NXRSUD3SM6AGSKJE0","hitId":"3QGHA0EA0JM3KKNCY0PQRLYAHJ3BWH","url":"https://gershmanlab.com/experiments/alicia/teaching/experiment/?hitId=3QGHA0EA0JM3KKNCY0PQRLYAHJ3BWH&workerId=A34YDGVZKRJ0LZ&assignmentId=3OLQQLKKNTBH7NXRSUD3SM6AGSKJE0&a=KQLO8&tp_a=KQLO8&b=3OLQQLKKNTBH7NXRSUD3SM6AGSKJE0&tp_b=3OLQQLKKNTBH7NXRSUD3SM6AGSKJE0&c=365198&tp_c=365198","firstResponseHeads":2,"firstResponseTails":8,"secondResponseHeads":2,"secondResponseTails":8,"studentIndex":19,"studentTrueHypers":{"a":8,"b":2},"studentGuess":0.4,"delta":0.2,"bonus":0,"bonusSoFar":3.45,"totalExamples":20},{"rt":8108,"response":{"heads":"8","tails":"2"},"type":"response","condition":"seqNoFeedback","trueTheta":0.8,"classrooms":["A","B"],"studentTrueClassroom":"B","exampleSet":"first","trial_type":"survey-html-form","trial_index":155,"time_elapsed":1209114,"internal_node_id":"0.0-154.0-0.0","params":{"nStudents":24,"maxFlips":30,"completionMinutes":45,"basePay":8,"maxBonus":9,"perTrialBonus":0.5,"perTrialBonusThreshold":0.1,"exampleCost":0.01},"classroomParams":{"A":{"a":1,"b":4},"B":{"a":4,"b":1},"C":{"a":2,"b":8},"D":{"a":8,"b":2}},"conditions":["nonSeqFull","nonSeqPartial","seqNoFeedback","seqFeedback"],"classroomPairings":[["A","B"],["C","D"]],"coinWeights":[0.2,0.5,0.8],"subjectId":"A34YDGVZKRJ0LZ","assignmentId":"3OLQQLKKNTBH7NXRSUD3SM6AGSKJE0","hitId":"3QGHA0EA0JM3KKNCY0PQRLYAHJ3BWH","url":"https://gershmanlab.com/experiments/alicia/teaching/experiment/?hitId=3QGHA0EA0JM3KKNCY0PQRLYAHJ3BWH&workerId=A34YDGVZKRJ0LZ&assignmentId=3OLQQLKKNTBH7NXRSUD3SM6AGSKJE0&a=KQLO8&tp_a=KQLO8&b=3OLQQLKKNTBH7NXRSUD3SM6AGSKJE0&tp_b=3OLQQLKKNTBH7NXRSUD3SM6AGSKJE0&c=365198&tp_c=365198","heads":8,"tails":2,"studentIndex":20,"studentTrueHypers":{"a":4,"b":1},"studentGuess":0.8,"delta":0,"totalExamples":10,"bonusSoFar":3.45},{"rt":8897,"response":{"heads":"8","tails":"2"},"type":"response","condition":"seqNoFeedback","trueTheta":0.8,"classrooms":["A","B"],"studentTrueClassroom":"B","exampleSet":"second","trial_type":"survey-html-form","trial_index":158,"time_elapsed":1224771,"internal_node_id":"0.0-157.0-0.0","params":{"nStudents":24,"maxFlips":30,"completionMinutes":45,"basePay":8,"maxBonus":9,"perTrialBonus":0.5,"perTrialBonusThreshold":0.1,"exampleCost":0.01},"classroomParams":{"A":{"a":1,"b":4},"B":{"a":4,"b":1},"C":{"a":2,"b":8},"D":{"a":8,"b":2}},"conditions":["nonSeqFull","nonSeqPartial","seqNoFeedback","seqFeedback"],"classroomPairings":[["A","B"],["C","D"]],"coinWeights":[0.2,0.5,0.8],"subjectId":"A34YDGVZKRJ0LZ","assignmentId":"3OLQQLKKNTBH7NXRSUD3SM6AGSKJE0","hitId":"3QGHA0EA0JM3KKNCY0PQRLYAHJ3BWH","url":"https://gershmanlab.com/experiments/alicia/teaching/experiment/?hitId=3QGHA0EA0JM3KKNCY0PQRLYAHJ3BWH&workerId=A34YDGVZKRJ0LZ&assignmentId=3OLQQLKKNTBH7NXRSUD3SM6AGSKJE0&a=KQLO8&tp_a=KQLO8&b=3OLQQLKKNTBH7NXRSUD3SM6AGSKJE0&tp_b=3OLQQLKKNTBH7NXRSUD3SM6AGSKJE0&c=365198&tp_c=365198","firstResponseHeads":8,"firstResponseTails":2,"secondResponseHeads":8,"secondResponseTails":2,"studentIndex":20,"studentTrueHypers":{"a":4,"b":1},"studentGuess":0.8,"delta":0,"bonus":0.3,"bonusSoFar":3.75,"totalExamples":20},{"rt":20557,"response":{"heads":"2","tails":"8"},"type":"response","condition":"seqFeedback","trueTheta":0.2,"classrooms":["C","D"],"studentTrueClassroom":"C","exampleSet":"first","trial_type":"survey-html-form","trial_index":164,"time_elapsed":1262257,"internal_node_id":"0.0-163.0-0.0","params":{"nStudents":24,"maxFlips":30,"completionMinutes":45,"basePay":8,"maxBonus":9,"perTrialBonus":0.5,"perTrialBonusThreshold":0.1,"exampleCost":0.01},"classroomParams":{"A":{"a":1,"b":4},"B":{"a":4,"b":1},"C":{"a":2,"b":8},"D":{"a":8,"b":2}},"conditions":["nonSeqFull","nonSeqPartial","seqNoFeedback","seqFeedback"],"classroomPairings":[["A","B"],["C","D"]],"coinWeights":[0.2,0.5,0.8],"subjectId":"A34YDGVZKRJ0LZ","assignmentId":"3OLQQLKKNTBH7NXRSUD3SM6AGSKJE0","hitId":"3QGHA0EA0JM3KKNCY0PQRLYAHJ3BWH","url":"https://gershmanlab.com/experiments/alicia/teaching/experiment/?hitId=3QGHA0EA0JM3KKNCY0PQRLYAHJ3BWH&workerId=A34YDGVZKRJ0LZ&assignmentId=3OLQQLKKNTBH7NXRSUD3SM6AGSKJE0&a=KQLO8&tp_a=KQLO8&b=3OLQQLKKNTBH7NXRSUD3SM6AGSKJE0&tp_b=3OLQQLKKNTBH7NXRSUD3SM6AGSKJE0&c=365198&tp_c=365198","heads":2,"tails":8,"studentIndex":21,"studentTrueHypers":{"a":2,"b":8},"studentGuess":0.2,"delta":0,"totalExamples":10,"bonusSoFar":3.75},{"rt":3813,"response":{"heads":"0","tails":"0"},"type":"response","condition":"seqFeedback","trueTheta":0.2,"classrooms":["C","D"],"studentTrueClassroom":"C","exampleSet":"second","trial_type":"survey-html-form","trial_index":168,"time_elapsed":1274985,"internal_node_id":"0.0-167.0-0.0","params":{"nStudents":24,"maxFlips":30,"completionMinutes":45,"basePay":8,"maxBonus":9,"perTrialBonus":0.5,"perTrialBonusThreshold":0.1,"exampleCost":0.01},"classroomParams":{"A":{"a":1,"b":4},"B":{"a":4,"b":1},"C":{"a":2,"b":8},"D":{"a":8,"b":2}},"conditions":["nonSeqFull","nonSeqPartial","seqNoFeedback","seqFeedback"],"classroomPairings":[["A","B"],["C","D"]],"coinWeights":[0.2,0.5,0.8],"subjectId":"A34YDGVZKRJ0LZ","assignmentId":"3OLQQLKKNTBH7NXRSUD3SM6AGSKJE0","hitId":"3QGHA0EA0JM3KKNCY0PQRLYAHJ3BWH","url":"https://gershmanlab.com/experiments/alicia/teaching/experiment/?hitId=3QGHA0EA0JM3KKNCY0PQRLYAHJ3BWH&workerId=A34YDGVZKRJ0LZ&assignmentId=3OLQQLKKNTBH7NXRSUD3SM6AGSKJE0&a=KQLO8&tp_a=KQLO8&b=3OLQQLKKNTBH7NXRSUD3SM6AGSKJE0&tp_b=3OLQQLKKNTBH7NXRSUD3SM6AGSKJE0&c=365198&tp_c=365198","firstResponseHeads":2,"firstResponseTails":8,"secondResponseHeads":0,"secondResponseTails":0,"studentIndex":21,"studentTrueHypers":{"a":2,"b":8},"studentGuess":0.2,"delta":0,"bonus":0.4,"bonusSoFar":4.15,"totalExamples":10},{"rt":4242,"response":{"heads":"0","tails":"0"},"type":"response","condition":"seqFeedback","trueTheta":0.2,"classrooms":["C","D"],"studentTrueClassroom":"C","exampleSet":"second","trial_type":"survey-html-form","trial_index":169,"time_elapsed":1279229,"internal_node_id":"0.0-167.1-0.1","params":{"nStudents":24,"maxFlips":30,"completionMinutes":45,"basePay":8,"maxBonus":9,"perTrialBonus":0.5,"perTrialBonusThreshold":0.1,"exampleCost":0.01},"classroomParams":{"A":{"a":1,"b":4},"B":{"a":4,"b":1},"C":{"a":2,"b":8},"D":{"a":8,"b":2}},"conditions":["nonSeqFull","nonSeqPartial","seqNoFeedback","seqFeedback"],"classroomPairings":[["A","B"],["C","D"]],"coinWeights":[0.2,0.5,0.8],"subjectId":"A34YDGVZKRJ0LZ","assignmentId":"3OLQQLKKNTBH7NXRSUD3SM6AGSKJE0","hitId":"3QGHA0EA0JM3KKNCY0PQRLYAHJ3BWH","url":"https://gershmanlab.com/experiments/alicia/teaching/experiment/?hitId=3QGHA0EA0JM3KKNCY0PQRLYAHJ3BWH&workerId=A34YDGVZKRJ0LZ&assignmentId=3OLQQLKKNTBH7NXRSUD3SM6AGSKJE0&a=KQLO8&tp_a=KQLO8&b=3OLQQLKKNTBH7NXRSUD3SM6AGSKJE0&tp_b=3OLQQLKKNTBH7NXRSUD3SM6AGSKJE0&c=365198&tp_c=365198","firstResponseHeads":2,"firstResponseTails":8,"secondResponseHeads":0,"secondResponseTails":0,"studentIndex":21,"studentTrueHypers":{"a":2,"b":8},"studentGuess":0.2,"delta":0,"bonus":0.4,"bonusSoFar":4.55,"totalExamples":10},{"rt":6640,"response":{"heads":"2","tails":"8"},"type":"response","condition":"seqFeedback","trueTheta":0.2,"classrooms":["C","D"],"studentTrueClassroom":"C","exampleSet":"second","trial_type":"survey-html-form","trial_index":170,"time_elapsed":1285871,"internal_node_id":"0.0-167.2-0.2","params":{"nStudents":24,"maxFlips":30,"completionMinutes":45,"basePay":8,"maxBonus":9,"perTrialBonus":0.5,"perTrialBonusThreshold":0.1,"exampleCost":0.01},"classroomParams":{"A":{"a":1,"b":4},"B":{"a":4,"b":1},"C":{"a":2,"b":8},"D":{"a":8,"b":2}},"conditions":["nonSeqFull","nonSeqPartial","seqNoFeedback","seqFeedback"],"classroomPairings":[["A","B"],["C","D"]],"coinWeights":[0.2,0.5,0.8],"subjectId":"A34YDGVZKRJ0LZ","assignmentId":"3OLQQLKKNTBH7NXRSUD3SM6AGSKJE0","hitId":"3QGHA0EA0JM3KKNCY0PQRLYAHJ3BWH","url":"https://gershmanlab.com/experiments/alicia/teaching/experiment/?hitId=3QGHA0EA0JM3KKNCY0PQRLYAHJ3BWH&workerId=A34YDGVZKRJ0LZ&assignmentId=3OLQQLKKNTBH7NXRSUD3SM6AGSKJE0&a=KQLO8&tp_a=KQLO8&b=3OLQQLKKNTBH7NXRSUD3SM6AGSKJE0&tp_b=3OLQQLKKNTBH7NXRSUD3SM6AGSKJE0&c=365198&tp_c=365198","firstResponseHeads":2,"firstResponseTails":8,"secondResponseHeads":2,"secondResponseTails":8,"studentIndex":21,"studentTrueHypers":{"a":2,"b":8},"studentGuess":0.2,"delta":0,"bonus":0.3,"bonusSoFar":4.85,"totalExamples":20},{"rt":26077,"response":{"heads":"5","tails":"0"},"type":"response","condition":"seqNoFeedback","trueTheta":0.5,"classrooms":["A","B"],"studentTrueClassroom":"A","exampleSet":"first","trial_type":"survey-html-form","trial_index":176,"time_elapsed":1324621,"internal_node_id":"0.0-173.0-0.0","params":{"nStudents":24,"maxFlips":30,"completionMinutes":45,"basePay":8,"maxBonus":9,"perTrialBonus":0.5,"perTrialBonusThreshold":0.1,"exampleCost":0.01},"classroomParams":{"A":{"a":1,"b":4},"B":{"a":4,"b":1},"C":{"a":2,"b":8},"D":{"a":8,"b":2}},"conditions":["nonSeqFull","nonSeqPartial","seqNoFeedback","seqFeedback"],"classroomPairings":[["A","B"],["C","D"]],"coinWeights":[0.2,0.5,0.8],"subjectId":"A34YDGVZKRJ0LZ","assignmentId":"3OLQQLKKNTBH7NXRSUD3SM6AGSKJE0","hitId":"3QGHA0EA0JM3KKNCY0PQRLYAHJ3BWH","url":"https://gershmanlab.com/experiments/alicia/teaching/experiment/?hitId=3QGHA0EA0JM3KKNCY0PQRLYAHJ3BWH&workerId=A34YDGVZKRJ0LZ&assignmentId=3OLQQLKKNTBH7NXRSUD3SM6AGSKJE0&a=KQLO8&tp_a=KQLO8&b=3OLQQLKKNTBH7NXRSUD3SM6AGSKJE0&tp_b=3OLQQLKKNTBH7NXRSUD3SM6AGSKJE0&c=365198&tp_c=365198","heads":5,"tails":0,"studentIndex":22,"studentTrueHypers":{"a":1,"b":4},"studentGuess":0.6,"delta":0.09999999999999998,"totalExamples":5,"bonusSoFar":4.85},{"rt":6173,"response":{"heads":"0","tails":"5"},"type":"response","condition":"seqNoFeedback","trueTheta":0.5,"classrooms":["A","B"],"studentTrueClassroom":"A","exampleSet":"second","trial_type":"survey-html-form","trial_index":179,"time_elapsed":1337555,"internal_node_id":"0.0-176.0-0.0","params":{"nStudents":24,"maxFlips":30,"completionMinutes":45,"basePay":8,"maxBonus":9,"perTrialBonus":0.5,"perTrialBonusThreshold":0.1,"exampleCost":0.01},"classroomParams":{"A":{"a":1,"b":4},"B":{"a":4,"b":1},"C":{"a":2,"b":8},"D":{"a":8,"b":2}},"conditions":["nonSeqFull","nonSeqPartial","seqNoFeedback","seqFeedback"],"classroomPairings":[["A","B"],["C","D"]],"coinWeights":[0.2,0.5,0.8],"subjectId":"A34YDGVZKRJ0LZ","assignmentId":"3OLQQLKKNTBH7NXRSUD3SM6AGSKJE0","hitId":"3QGHA0EA0JM3KKNCY0PQRLYAHJ3BWH","url":"https://gershmanlab.com/experiments/alicia/teaching/experiment/?hitId=3QGHA0EA0JM3KKNCY0PQRLYAHJ3BWH&workerId=A34YDGVZKRJ0LZ&assignmentId=3OLQQLKKNTBH7NXRSUD3SM6AGSKJE0&a=KQLO8&tp_a=KQLO8&b=3OLQQLKKNTBH7NXRSUD3SM6AGSKJE0&tp_b=3OLQQLKKNTBH7NXRSUD3SM6AGSKJE0&c=365198&tp_c=365198","firstResponseHeads":5,"firstResponseTails":0,"secondResponseHeads":0,"secondResponseTails":5,"studentIndex":22,"studentTrueHypers":{"a":1,"b":4},"studentGuess":0.4,"delta":0.09999999999999998,"bonus":0.4,"bonusSoFar":5.25,"totalExamples":10},{"rt":9770,"response":{"heads":"5","tails":"0"},"type":"response","condition":"seqFeedback","trueTheta":0.5,"classrooms":["A","B"],"studentTrueClassroom":"A","exampleSet":"first","trial_type":"survey-html-form","trial_index":185,"time_elapsed":1362810,"internal_node_id":"0.0-182.0-0.0","params":{"nStudents":24,"maxFlips":30,"completionMinutes":45,"basePay":8,"maxBonus":9,"perTrialBonus":0.5,"perTrialBonusThreshold":0.1,"exampleCost":0.01},"classroomParams":{"A":{"a":1,"b":4},"B":{"a":4,"b":1},"C":{"a":2,"b":8},"D":{"a":8,"b":2}},"conditions":["nonSeqFull","nonSeqPartial","seqNoFeedback","seqFeedback"],"classroomPairings":[["A","B"],["C","D"]],"coinWeights":[0.2,0.5,0.8],"subjectId":"A34YDGVZKRJ0LZ","assignmentId":"3OLQQLKKNTBH7NXRSUD3SM6AGSKJE0","hitId":"3QGHA0EA0JM3KKNCY0PQRLYAHJ3BWH","url":"https://gershmanlab.com/experiments/alicia/teaching/experiment/?hitId=3QGHA0EA0JM3KKNCY0PQRLYAHJ3BWH&workerId=A34YDGVZKRJ0LZ&assignmentId=3OLQQLKKNTBH7NXRSUD3SM6AGSKJE0&a=KQLO8&tp_a=KQLO8&b=3OLQQLKKNTBH7NXRSUD3SM6AGSKJE0&tp_b=3OLQQLKKNTBH7NXRSUD3SM6AGSKJE0&c=365198&tp_c=365198","heads":5,"tails":0,"studentIndex":23,"studentTrueHypers":{"a":1,"b":4},"studentGuess":0.6,"delta":0.09999999999999998,"totalExamples":5,"bonusSoFar":5.25},{"rt":6082,"response":{"heads":"0","tails":"5"},"type":"response","condition":"seqFeedback","trueTheta":0.5,"classrooms":["A","B"],"studentTrueClassroom":"A","exampleSet":"second","trial_type":"survey-html-form","trial_index":189,"time_elapsed":1380353,"internal_node_id":"0.0-186.0-0.0","params":{"nStudents":24,"maxFlips":30,"completionMinutes":45,"basePay":8,"maxBonus":9,"perTrialBonus":0.5,"perTrialBonusThreshold":0.1,"exampleCost":0.01},"classroomParams":{"A":{"a":1,"b":4},"B":{"a":4,"b":1},"C":{"a":2,"b":8},"D":{"a":8,"b":2}},"conditions":["nonSeqFull","nonSeqPartial","seqNoFeedback","seqFeedback"],"classroomPairings":[["A","B"],["C","D"]],"coinWeights":[0.2,0.5,0.8],"subjectId":"A34YDGVZKRJ0LZ","assignmentId":"3OLQQLKKNTBH7NXRSUD3SM6AGSKJE0","hitId":"3QGHA0EA0JM3KKNCY0PQRLYAHJ3BWH","url":"https://gershmanlab.com/experiments/alicia/teaching/experiment/?hitId=3QGHA0EA0JM3KKNCY0PQRLYAHJ3BWH&workerId=A34YDGVZKRJ0LZ&assignmentId=3OLQQLKKNTBH7NXRSUD3SM6AGSKJE0&a=KQLO8&tp_a=KQLO8&b=3OLQQLKKNTBH7NXRSUD3SM6AGSKJE0&tp_b=3OLQQLKKNTBH7NXRSUD3SM6AGSKJE0&c=365198&tp_c=365198","firstResponseHeads":5,"firstResponseTails":0,"secondResponseHeads":0,"secondResponseTails":5,"studentIndex":23,"studentTrueHypers":{"a":1,"b":4},"studentGuess":0.4,"delta":0.09999999999999998,"bonus":0.4,"bonusSoFar":5.65,"totalExamples":10},{"rt":14938,"response":{"gender":"female","age":"50","understood":"yes","comments":"n/a"},"type":"response","trial_type":"survey-html-form","trial_index":193,"time_elapsed":1409222,"internal_node_id":"0.0-191.0","params":{"nStudents":24,"maxFlips":30,"completionMinutes":45,"basePay":8,"maxBonus":9,"perTrialBonus":0.5,"perTrialBonusThreshold":0.1,"exampleCost":0.01},"classroomParams":{"A":{"a":1,"b":4},"B":{"a":4,"b":1},"C":{"a":2,"b":8},"D":{"a":8,"b":2}},"conditions":["nonSeqFull","nonSeqPartial","seqNoFeedback","seqFeedback"],"classroomPairings":[["A","B"],["C","D"]],"coinWeights":[0.2,0.5,0.8],"subjectId":"A34YDGVZKRJ0LZ","assignmentId":"3OLQQLKKNTBH7NXRSUD3SM6AGSKJE0","hitId":"3QGHA0EA0JM3KKNCY0PQRLYAHJ3BWH","url":"https://gershmanlab.com/experiments/alicia/teaching/experiment/?hitId=3QGHA0EA0JM3KKNCY0PQRLYAHJ3BWH&workerId=A34YDGVZKRJ0LZ&assignmentId=3OLQQLKKNTBH7NXRSUD3SM6AGSKJE0&a=KQLO8&tp_a=KQLO8&b=3OLQQLKKNTBH7NXRSUD3SM6AGSKJE0&tp_b=3OLQQLKKNTBH7NXRSUD3SM6AGSKJE0&c=365198&tp_c=365198","totalBonus":5.65}]