[{"rt":27043,"response":{"heads":"2","tails":"2"},"type":"response","condition":"nonSeqFull","trueTheta":0.5,"classrooms":["C","D"],"studentTrueClassroom":"C","exampleSet":"first","trial_type":"survey-html-form","trial_index":7,"time_elapsed":315010,"internal_node_id":"0.0-6.0-0.0","params":{"nStudents":24,"maxFlips":30,"completionMinutes":45,"basePay":8,"maxBonus":9,"perTrialBonus":0.5,"perTrialBonusThreshold":0.1,"exampleCost":0.01},"classroomParams":{"A":{"a":1,"b":4},"B":{"a":4,"b":1},"C":{"a":2,"b":8},"D":{"a":8,"b":2}},"conditions":["nonSeqFull","nonSeqPartial","seqNoFeedback","seqFeedback"],"classroomPairings":[["A","B"],["C","D"]],"coinWeights":[0.2,0.5,0.8],"subjectId":"A3RMV9ZGFJ0HHF","assignmentId":"3KB8R4ZV1FT99IV6AXQAU189L3RBGP","hitId":"3H6W48L9F4B5OEOMH57RM53ZYNHWPM","url":"https://gershmanlab.com/experiments/alicia/teaching/experiment/?hitId=3H6W48L9F4B5OEOMH57RM53ZYNHWPM&workerId=A3RMV9ZGFJ0HHF&assignmentId=3KB8R4ZV1FT99IV6AXQAU189L3RBGP&a=VRBK8&tp_a=VRBK8&b=3KB8R4ZV1FT99IV6AXQAU189L3RBGP&tp_b=3KB8R4ZV1FT99IV6AXQAU189L3RBGP&c=365198&tp_c=365198","heads":2,"tails":2,"studentIndex":0,"studentTrueHypers":{"a":2,"b":8},"studentGuess":0.2857142857142857,"delta":0.2142857142857143,"totalExamples":4,"bonus":0,"bonusSoFar":0},{"rt":17835,"response":{"heads":"2","tails":"8"},"type":"response","condition":"seqFeedback","trueTheta":0.2,"classrooms":["A","B"],"studentTrueClassroom":"A","exampleSet":"first","trial_type":"survey-html-form","trial_index":13,"time_elapsed":353745,"internal_node_id":"0.0-12.0-0.0","params":{"nStudents":24,"maxFlips":30,"completionMinutes":45,"basePay":8,"maxBonus":9,"perTrialBonus":0.5,"perTrialBonusThreshold":0.1,"exampleCost":0.01},"classroomParams":{"A":{"a":1,"b":4},"B":{"a":4,"b":1},"C":{"a":2,"b":8},"D":{"a":8,"b":2}},"conditions":["nonSeqFull","nonSeqPartial","seqNoFeedback","seqFeedback"],"classroomPairings":[["A","B"],["C","D"]],"coinWeights":[0.2,0.5,0.8],"subjectId":"A3RMV9ZGFJ0HHF","assignmentId":"3KB8R4ZV1FT99IV6AXQAU189L3RBGP","hitId":"3H6W48L9F4B5OEOMH57RM53ZYNHWPM","url":"https://gershmanlab.com/experiments/alicia/teaching/experiment/?hitId=3H6W48L9F4B5OEOMH57RM53ZYNHWPM&workerId=A3RMV9ZGFJ0HHF&assignmentId=3KB8R4ZV1FT99IV6AXQAU189L3RBGP&a=VRBK8&tp_a=VRBK8&b=3KB8R4ZV1FT99IV6AXQAU189L3RBGP&tp_b=3KB8R4ZV1FT99IV6AXQAU189L3RBGP&c=365198&tp_c=365198","heads":2,"tails":8,"studentIndex":1,"studentTrueHypers":{"a":1,"b":4},"studentGuess":0.2,"delta":0,"totalExamples":10,"bonusSoFar":0},{"rt":24695,"response":{"heads":"1","tails":"4"},"type":"response","condition":"seqFeedback","trueTheta":0.2,"classrooms":["A","B"],"studentTrueClassroom":"A","exampleSet":"second","trial_type":"survey-html-form","trial_index":17,"time_elapsed":388060,"internal_node_id":"0.0-16.0-0.0","params":{"nStudents":24,"maxFlips":30,"completionMinutes":45,"basePay":8,"maxBonus":9,"perTrialBonus":0.5,"perTrialBonusThreshold":0.1,"exampleCost":0.01},"classroomParams":{"A":{"a":1,"b":4},"B":{"a":4,"b":1},"C":{"a":2,"b":8},"D":{"a":8,"b":2}},"conditions":["nonSeqFull","nonSeqPartial","seqNoFeedback","seqFeedback"],"classroomPairings":[["A","B"],["C","D"]],"coinWeights":[0.2,0.5,0.8],"subjectId":"A3RMV9ZGFJ0HHF","assignmentId":"3KB8R4ZV1FT99IV6AXQAU189L3RBGP","hitId":"3H6W48L9F4B5OEOMH57RM53ZYNHWPM","url":"https://gershmanlab.com/experiments/alicia/teaching/experiment/?hitId=3H6W48L9F4B5OEOMH57RM53ZYNHWPM&workerId=A3RMV9ZGFJ0HHF&assignmentId=3KB8R4ZV1FT99IV6AXQAU189L3RBGP&a=VRBK8&tp_a=VRBK8&b=3KB8R4ZV1FT99IV6AXQAU189L3RBGP&tp_b=3KB8R4ZV1FT99IV6AXQAU189L3RBGP&c=365198&tp_c=365198","firstResponseHeads":2,"firstResponseTails":8,"secondResponseHeads":1,"secondResponseTails":4,"studentIndex":1,"studentTrueHypers":{"a":1,"b":4},"studentGuess":0.2,"delta":0,"bonus":0.35,"bonusSoFar":0.35,"totalExamples":15},{"rt":16166,"response":{"heads":"1","tails":"4"},"type":"response","condition":"nonSeqPartial","trueTheta":0.2,"classrooms":["A","B"],"studentTrueClassroom":"B","exampleSet":"first","trial_type":"survey-html-form","trial_index":23,"time_elapsed":422360,"internal_node_id":"0.0-22.0-0.0","params":{"nStudents":24,"maxFlips":30,"completionMinutes":45,"basePay":8,"maxBonus":9,"perTrialBonus":0.5,"perTrialBonusThreshold":0.1,"exampleCost":0.01},"classroomParams":{"A":{"a":1,"b":4},"B":{"a":4,"b":1},"C":{"a":2,"b":8},"D":{"a":8,"b":2}},"conditions":["nonSeqFull","nonSeqPartial","seqNoFeedback","seqFeedback"],"classroomPairings":[["A","B"],["C","D"]],"coinWeights":[0.2,0.5,0.8],"subjectId":"A3RMV9ZGFJ0HHF","assignmentId":"3KB8R4ZV1FT99IV6AXQAU189L3RBGP","hitId":"3H6W48L9F4B5OEOMH57RM53ZYNHWPM","url":"https://gershmanlab.com/experiments/alicia/teaching/experiment/?hitId=3H6W48L9F4B5OEOMH57RM53ZYNHWPM&workerId=A3RMV9ZGFJ0HHF&assignmentId=3KB8R4ZV1FT99IV6AXQAU189L3RBGP&a=VRBK8&tp_a=VRBK8&b=3KB8R4ZV1FT99IV6AXQAU189L3RBGP&tp_b=3KB8R4ZV1FT99IV6AXQAU189L3RBGP&c=365198&tp_c=365198","heads":1,"tails":4,"studentIndex":2,"studentTrueHypers":{"a":4,"b":1},"studentGuess":0.5,"delta":0.3,"totalExamples":5,"bonus":0,"bonusSoFar":0.35},{"rt":8853,"response":{"heads":"8","tails":"2"},"type":"response","condition":"nonSeqFull","trueTheta":0.8,"classrooms":["A","B"],"studentTrueClassroom":"A","exampleSet":"first","trial_type":"survey-html-form","trial_index":29,"time_elapsed":447468,"internal_node_id":"0.0-28.0-0.0","params":{"nStudents":24,"maxFlips":30,"completionMinutes":45,"basePay":8,"maxBonus":9,"perTrialBonus":0.5,"perTrialBonusThreshold":0.1,"exampleCost":0.01},"classroomParams":{"A":{"a":1,"b":4},"B":{"a":4,"b":1},"C":{"a":2,"b":8},"D":{"a":8,"b":2}},"conditions":["nonSeqFull","nonSeqPartial","seqNoFeedback","seqFeedback"],"classroomPairings":[["A","B"],["C","D"]],"coinWeights":[0.2,0.5,0.8],"subjectId":"A3RMV9ZGFJ0HHF","assignmentId":"3KB8R4ZV1FT99IV6AXQAU189L3RBGP","hitId":"3H6W48L9F4B5OEOMH57RM53ZYNHWPM","url":"https://gershmanlab.com/experiments/alicia/teaching/experiment/?hitId=3H6W48L9F4B5OEOMH57RM53ZYNHWPM&workerId=A3RMV9ZGFJ0HHF&assignmentId=3KB8R4ZV1FT99IV6AXQAU189L3RBGP&a=VRBK8&tp_a=VRBK8&b=3KB8R4ZV1FT99IV6AXQAU189L3RBGP&tp_b=3KB8R4ZV1FT99IV6AXQAU189L3RBGP&c=365198&tp_c=365198","heads":8,"tails":2,"studentIndex":3,"studentTrueHypers":{"a":1,"b":4},"studentGuess":0.6,"delta":0.20000000000000007,"totalExamples":10,"bonus":0,"bonusSoFar":0.35},{"rt":9280,"response":{"heads":"2","tails":"8"},"type":"response","condition":"nonSeqFull","trueTheta":0.2,"classrooms":["A","B"],"studentTrueClassroom":"A","exampleSet":"first","trial_type":"survey-html-form","trial_index":35,"time_elapsed":470299,"internal_node_id":"0.0-34.0-0.0","params":{"nStudents":24,"maxFlips":30,"completionMinutes":45,"basePay":8,"maxBonus":9,"perTrialBonus":0.5,"perTrialBonusThreshold":0.1,"exampleCost":0.01},"classroomParams":{"A":{"a":1,"b":4},"B":{"a":4,"b":1},"C":{"a":2,"b":8},"D":{"a":8,"b":2}},"conditions":["nonSeqFull","nonSeqPartial","seqNoFeedback","seqFeedback"],"classroomPairings":[["A","B"],["C","D"]],"coinWeights":[0.2,0.5,0.8],"subjectId":"A3RMV9ZGFJ0HHF","assignmentId":"3KB8R4ZV1FT99IV6AXQAU189L3RBGP","hitId":"3H6W48L9F4B5OEOMH57RM53ZYNHWPM","url":"https://gershmanlab.com/experiments/alicia/teaching/experiment/?hitId=3H6W48L9F4B5OEOMH57RM53ZYNHWPM&workerId=A3RMV9ZGFJ0HHF&assignmentId=3KB8R4ZV1FT99IV6AXQAU189L3RBGP&a=VRBK8&tp_a=VRBK8&b=3KB8R4ZV1FT99IV6AXQAU189L3RBGP&tp_b=3KB8R4ZV1FT99IV6AXQAU189L3RBGP&c=365198&tp_c=365198","heads":2,"tails":8,"studentIndex":4,"studentTrueHypers":{"a":1,"b":4},"studentGuess":0.2,"delta":0,"totalExamples":10,"bonus":0.4,"bonusSoFar":0.75},{"rt":18017,"response":{"heads":"10","tails":"10"},"type":"response","condition":"nonSeqFull","trueTheta":0.5,"classrooms":["A","B"],"studentTrueClassroom":"A","exampleSet":"first","trial_type":"survey-html-form","trial_index":41,"time_elapsed":503978,"internal_node_id":"0.0-40.0-0.0","params":{"nStudents":24,"maxFlips":30,"completionMinutes":45,"basePay":8,"maxBonus":9,"perTrialBonus":0.5,"perTrialBonusThreshold":0.1,"exampleCost":0.01},"classroomParams":{"A":{"a":1,"b":4},"B":{"a":4,"b":1},"C":{"a":2,"b":8},"D":{"a":8,"b":2}},"conditions":["nonSeqFull","nonSeqPartial","seqNoFeedback","seqFeedback"],"classroomPairings":[["A","B"],["C","D"]],"coinWeights":[0.2,0.5,0.8],"subjectId":"A3RMV9ZGFJ0HHF","assignmentId":"3KB8R4ZV1FT99IV6AXQAU189L3RBGP","hitId":"3H6W48L9F4B5OEOMH57RM53ZYNHWPM","url":"https://gershmanlab.com/experiments/alicia/teaching/experiment/?hitId=3H6W48L9F4B5OEOMH57RM53ZYNHWPM&workerId=A3RMV9ZGFJ0HHF&assignmentId=3KB8R4ZV1FT99IV6AXQAU189L3RBGP&a=VRBK8&tp_a=VRBK8&b=3KB8R4ZV1FT99IV6AXQAU189L3RBGP&tp_b=3KB8R4ZV1FT99IV6AXQAU189L3RBGP&c=365198&tp_c=365198","heads":10,"tails":10,"studentIndex":5,"studentTrueHypers":{"a":1,"b":4},"studentGuess":0.44,"delta":0.06,"totalExamples":20,"bonus":0.3,"bonusSoFar":1.05},{"rt":8494,"response":{"heads":"15","tails":"15"},"type":"response","condition":"seqNoFeedback","trueTheta":0.5,"classrooms":["C","D"],"studentTrueClassroom":"D","exampleSet":"first","trial_type":"survey-html-form","trial_index":47,"time_elapsed":531562,"internal_node_id":"0.0-46.0-0.0","params":{"nStudents":24,"maxFlips":30,"completionMinutes":45,"basePay":8,"maxBonus":9,"perTrialBonus":0.5,"perTrialBonusThreshold":0.1,"exampleCost":0.01},"classroomParams":{"A":{"a":1,"b":4},"B":{"a":4,"b":1},"C":{"a":2,"b":8},"D":{"a":8,"b":2}},"conditions":["nonSeqFull","nonSeqPartial","seqNoFeedback","seqFeedback"],"classroomPairings":[["A","B"],["C","D"]],"coinWeights":[0.2,0.5,0.8],"subjectId":"A3RMV9ZGFJ0HHF","assignmentId":"3KB8R4ZV1FT99IV6AXQAU189L3RBGP","hitId":"3H6W48L9F4B5OEOMH57RM53ZYNHWPM","url":"https://gershmanlab.com/experiments/alicia/teaching/experiment/?hitId=3H6W48L9F4B5OEOMH57RM53ZYNHWPM&workerId=A3RMV9ZGFJ0HHF&assignmentId=3KB8R4ZV1FT99IV6AXQAU189L3RBGP&a=VRBK8&tp_a=VRBK8&b=3KB8R4ZV1FT99IV6AXQAU189L3RBGP&tp_b=3KB8R4ZV1FT99IV6AXQAU189L3RBGP&c=365198&tp_c=365198","heads":15,"tails":15,"studentIndex":6,"studentTrueHypers":{"a":8,"b":2},"studentGuess":0.575,"delta":0.07499999999999996,"totalExamples":30,"bonusSoFar":1.05},{"rt":13294,"response":{"heads":"2","tails":"2"},"type":"response","condition":"seqNoFeedback","trueTheta":0.5,"classrooms":["C","D"],"studentTrueClassroom":"D","exampleSet":"second","trial_type":"survey-html-form","trial_index":50,"time_elapsed":550378,"internal_node_id":"0.0-49.0-0.0","params":{"nStudents":24,"maxFlips":30,"completionMinutes":45,"basePay":8,"maxBonus":9,"perTrialBonus":0.5,"perTrialBonusThreshold":0.1,"exampleCost":0.01},"classroomParams":{"A":{"a":1,"b":4},"B":{"a":4,"b":1},"C":{"a":2,"b":8},"D":{"a":8,"b":2}},"conditions":["nonSeqFull","nonSeqPartial","seqNoFeedback","seqFeedback"],"classroomPairings":[["A","B"],["C","D"]],"coinWeights":[0.2,0.5,0.8],"subjectId":"A3RMV9ZGFJ0HHF","assignmentId":"3KB8R4ZV1FT99IV6AXQAU189L3RBGP","hitId":"3H6W48L9F4B5OEOMH57RM53ZYNHWPM","url":"https://gershmanlab.com/experiments/alicia/teaching/experiment/?hitId=3H6W48L9F4B5OEOMH57RM53ZYNHWPM&workerId=A3RMV9ZGFJ0HHF&assignmentId=3KB8R4ZV1FT99IV6AXQAU189L3RBGP&a=VRBK8&tp_a=VRBK8&b=3KB8R4ZV1FT99IV6AXQAU189L3RBGP&tp_b=3KB8R4ZV1FT99IV6AXQAU189L3RBGP&c=365198&tp_c=365198","firstResponseHeads":15,"firstResponseTails":15,"secondResponseHeads":2,"secondResponseTails":2,"studentIndex":6,"studentTrueHypers":{"a":8,"b":2},"studentGuess":0.5681818181818182,"delta":0.06818181818181823,"bonus":0.16,"bonusSoFar":1.21,"totalExamples":34},{"rt":13211,"response":{"heads":"16","tails":"4"},"type":"response","condition":"seqNoFeedback","trueTheta":0.8,"classrooms":["C","D"],"studentTrueClassroom":"D","exampleSet":"first","trial_type":"survey-html-form","trial_index":56,"time_elapsed":581796,"internal_node_id":"0.0-55.0-0.0","params":{"nStudents":24,"maxFlips":30,"completionMinutes":45,"basePay":8,"maxBonus":9,"perTrialBonus":0.5,"perTrialBonusThreshold":0.1,"exampleCost":0.01},"classroomParams":{"A":{"a":1,"b":4},"B":{"a":4,"b":1},"C":{"a":2,"b":8},"D":{"a":8,"b":2}},"conditions":["nonSeqFull","nonSeqPartial","seqNoFeedback","seqFeedback"],"classroomPairings":[["A","B"],["C","D"]],"coinWeights":[0.2,0.5,0.8],"subjectId":"A3RMV9ZGFJ0HHF","assignmentId":"3KB8R4ZV1FT99IV6AXQAU189L3RBGP","hitId":"3H6W48L9F4B5OEOMH57RM53ZYNHWPM","url":"https://gershmanlab.com/experiments/alicia/teaching/experiment/?hitId=3H6W48L9F4B5OEOMH57RM53ZYNHWPM&workerId=A3RMV9ZGFJ0HHF&assignmentId=3KB8R4ZV1FT99IV6AXQAU189L3RBGP&a=VRBK8&tp_a=VRBK8&b=3KB8R4ZV1FT99IV6AXQAU189L3RBGP&tp_b=3KB8R4ZV1FT99IV6AXQAU189L3RBGP&c=365198&tp_c=365198","heads":16,"tails":4,"studentIndex":7,"studentTrueHypers":{"a":8,"b":2},"studentGuess":0.8,"delta":0,"totalExamples":20,"bonusSoFar":1.21},{"rt":10957,"response":{"heads":"16","tails":"4"},"type":"response","condition":"seqNoFeedback","trueTheta":0.8,"classrooms":["C","D"],"studentTrueClassroom":"D","exampleSet":"second","trial_type":"survey-html-form","trial_index":59,"time_elapsed":600022,"internal_node_id":"0.0-58.0-0.0","params":{"nStudents":24,"maxFlips":30,"completionMinutes":45,"basePay":8,"maxBonus":9,"perTrialBonus":0.5,"perTrialBonusThreshold":0.1,"exampleCost":0.01},"classroomParams":{"A":{"a":1,"b":4},"B":{"a":4,"b":1},"C":{"a":2,"b":8},"D":{"a":8,"b":2}},"conditions":["nonSeqFull","nonSeqPartial","seqNoFeedback","seqFeedback"],"classroomPairings":[["A","B"],["C","D"]],"coinWeights":[0.2,0.5,0.8],"subjectId":"A3RMV9ZGFJ0HHF","assignmentId":"3KB8R4ZV1FT99IV6AXQAU189L3RBGP","hitId":"3H6W48L9F4B5OEOMH57RM53ZYNHWPM","url":"https://gershmanlab.com/experiments/alicia/teaching/experiment/?hitId=3H6W48L9F4B5OEOMH57RM53ZYNHWPM&workerId=A3RMV9ZGFJ0HHF&assignmentId=3KB8R4ZV1FT99IV6AXQAU189L3RBGP&a=VRBK8&tp_a=VRBK8&b=3KB8R4ZV1FT99IV6AXQAU189L3RBGP&tp_b=3KB8R4ZV1FT99IV6AXQAU189L3RBGP&c=365198&tp_c=365198","firstResponseHeads":16,"firstResponseTails":4,"secondResponseHeads":16,"secondResponseTails":4,"studentIndex":7,"studentTrueHypers":{"a":8,"b":2},"studentGuess":0.8,"delta":0,"bonus":0.1,"bonusSoFar":1.31,"totalExamples":40},{"rt":20625,"response":{"heads":"4","tails":"16"},"type":"response","condition":"seqFeedback","trueTheta":0.2,"classrooms":["C","D"],"studentTrueClassroom":"C","exampleSet":"first","trial_type":"survey-html-form","trial_index":65,"time_elapsed":636075,"internal_node_id":"0.0-64.0-0.0","params":{"nStudents":24,"maxFlips":30,"completionMinutes":45,"basePay":8,"maxBonus":9,"perTrialBonus":0.5,"perTrialBonusThreshold":0.1,"exampleCost":0.01},"classroomParams":{"A":{"a":1,"b":4},"B":{"a":4,"b":1},"C":{"a":2,"b":8},"D":{"a":8,"b":2}},"conditions":["nonSeqFull","nonSeqPartial","seqNoFeedback","seqFeedback"],"classroomPairings":[["A","B"],["C","D"]],"coinWeights":[0.2,0.5,0.8],"subjectId":"A3RMV9ZGFJ0HHF","assignmentId":"3KB8R4ZV1FT99IV6AXQAU189L3RBGP","hitId":"3H6W48L9F4B5OEOMH57RM53ZYNHWPM","url":"https://gershmanlab.com/experiments/alicia/teaching/experiment/?hitId=3H6W48L9F4B5OEOMH57RM53ZYNHWPM&workerId=A3RMV9ZGFJ0HHF&assignmentId=3KB8R4ZV1FT99IV6AXQAU189L3RBGP&a=VRBK8&tp_a=VRBK8&b=3KB8R4ZV1FT99IV6AXQAU189L3RBGP&tp_b=3KB8R4ZV1FT99IV6AXQAU189L3RBGP&c=365198&tp_c=365198","heads":4,"tails":16,"studentIndex":8,"studentTrueHypers":{"a":2,"b":8},"studentGuess":0.2,"delta":0,"totalExamples":20,"bonusSoFar":1.31},{"rt":7359,"response":{"heads":"2","tails":"8"},"type":"response","condition":"seqFeedback","trueTheta":0.2,"classrooms":["C","D"],"studentTrueClassroom":"C","exampleSet":"second","trial_type":"survey-html-form","trial_index":69,"time_elapsed":654882,"internal_node_id":"0.0-68.0-0.0","params":{"nStudents":24,"maxFlips":30,"completionMinutes":45,"basePay":8,"maxBonus":9,"perTrialBonus":0.5,"perTrialBonusThreshold":0.1,"exampleCost":0.01},"classroomParams":{"A":{"a":1,"b":4},"B":{"a":4,"b":1},"C":{"a":2,"b":8},"D":{"a":8,"b":2}},"conditions":["nonSeqFull","nonSeqPartial","seqNoFeedback","seqFeedback"],"classroomPairings":[["A","B"],["C","D"]],"coinWeights":[0.2,0.5,0.8],"subjectId":"A3RMV9ZGFJ0HHF","assignmentId":"3KB8R4ZV1FT99IV6AXQAU189L3RBGP","hitId":"3H6W48L9F4B5OEOMH57RM53ZYNHWPM","url":"https://gershmanlab.com/experiments/alicia/teaching/experiment/?hitId=3H6W48L9F4B5OEOMH57RM53ZYNHWPM&workerId=A3RMV9ZGFJ0HHF&assignmentId=3KB8R4ZV1FT99IV6AXQAU189L3RBGP&a=VRBK8&tp_a=VRBK8&b=3KB8R4ZV1FT99IV6AXQAU189L3RBGP&tp_b=3KB8R4ZV1FT99IV6AXQAU189L3RBGP&c=365198&tp_c=365198","firstResponseHeads":4,"firstResponseTails":16,"secondResponseHeads":2,"secondResponseTails":8,"studentIndex":8,"studentTrueHypers":{"a":2,"b":8},"studentGuess":0.2,"delta":0,"bonus":0.2,"bonusSoFar":1.51,"totalExamples":30},{"rt":8053,"response":{"heads":"15","tails":"15"},"type":"response","condition":"seqNoFeedback","trueTheta":0.5,"classrooms":["A","B"],"studentTrueClassroom":"B","exampleSet":"first","trial_type":"survey-html-form","trial_index":75,"time_elapsed":676985,"internal_node_id":"0.0-74.0-0.0","params":{"nStudents":24,"maxFlips":30,"completionMinutes":45,"basePay":8,"maxBonus":9,"perTrialBonus":0.5,"perTrialBonusThreshold":0.1,"exampleCost":0.01},"classroomParams":{"A":{"a":1,"b":4},"B":{"a":4,"b":1},"C":{"a":2,"b":8},"D":{"a":8,"b":2}},"conditions":["nonSeqFull","nonSeqPartial","seqNoFeedback","seqFeedback"],"classroomPairings":[["A","B"],["C","D"]],"coinWeights":[0.2,0.5,0.8],"subjectId":"A3RMV9ZGFJ0HHF","assignmentId":"3KB8R4ZV1FT99IV6AXQAU189L3RBGP","hitId":"3H6W48L9F4B5OEOMH57RM53ZYNHWPM","url":"https://gershmanlab.com/experiments/alicia/teaching/experiment/?hitId=3H6W48L9F4B5OEOMH57RM53ZYNHWPM&workerId=A3RMV9ZGFJ0HHF&assignmentId=3KB8R4ZV1FT99IV6AXQAU189L3RBGP&a=VRBK8&tp_a=VRBK8&b=3KB8R4ZV1FT99IV6AXQAU189L3RBGP&tp_b=3KB8R4ZV1FT99IV6AXQAU189L3RBGP&c=365198&tp_c=365198","heads":15,"tails":15,"studentIndex":9,"studentTrueHypers":{"a":4,"b":1},"studentGuess":0.5428571428571428,"delta":0.042857142857142816,"totalExamples":30,"bonusSoFar":1.51},{"rt":8186,"response":{"heads":"5","tails":"5"},"type":"response","condition":"seqNoFeedback","trueTheta":0.5,"classrooms":["A","B"],"studentTrueClassroom":"B","exampleSet":"second","trial_type":"survey-html-form","trial_index":78,"time_elapsed":692681,"internal_node_id":"0.0-77.0-0.0","params":{"nStudents":24,"maxFlips":30,"completionMinutes":45,"basePay":8,"maxBonus":9,"perTrialBonus":0.5,"perTrialBonusThreshold":0.1,"exampleCost":0.01},"classroomParams":{"A":{"a":1,"b":4},"B":{"a":4,"b":1},"C":{"a":2,"b":8},"D":{"a":8,"b":2}},"conditions":["nonSeqFull","nonSeqPartial","seqNoFeedback","seqFeedback"],"classroomPairings":[["A","B"],["C","D"]],"coinWeights":[0.2,0.5,0.8],"subjectId":"A3RMV9ZGFJ0HHF","assignmentId":"3KB8R4ZV1FT99IV6AXQAU189L3RBGP","hitId":"3H6W48L9F4B5OEOMH57RM53ZYNHWPM","url":"https://gershmanlab.com/experiments/alicia/teaching/experiment/?hitId=3H6W48L9F4B5OEOMH57RM53ZYNHWPM&workerId=A3RMV9ZGFJ0HHF&assignmentId=3KB8R4ZV1FT99IV6AXQAU189L3RBGP&a=VRBK8&tp_a=VRBK8&b=3KB8R4ZV1FT99IV6AXQAU189L3RBGP&tp_b=3KB8R4ZV1FT99IV6AXQAU189L3RBGP&c=365198&tp_c=365198","firstResponseHeads":15,"firstResponseTails":15,"secondResponseHeads":5,"secondResponseTails":5,"studentIndex":9,"studentTrueHypers":{"a":4,"b":1},"studentGuess":0.5333333333333333,"delta":0.033333333333333326,"bonus":0.1,"bonusSoFar":1.61,"totalExamples":40},{"rt":11671,"response":{"heads":"16","tails":"4"},"type":"response","condition":"seqFeedback","trueTheta":0.8,"classrooms":["A","B"],"studentTrueClassroom":"A","exampleSet":"first","trial_type":"survey-html-form","trial_index":84,"time_elapsed":719091,"internal_node_id":"0.0-83.0-0.0","params":{"nStudents":24,"maxFlips":30,"completionMinutes":45,"basePay":8,"maxBonus":9,"perTrialBonus":0.5,"perTrialBonusThreshold":0.1,"exampleCost":0.01},"classroomParams":{"A":{"a":1,"b":4},"B":{"a":4,"b":1},"C":{"a":2,"b":8},"D":{"a":8,"b":2}},"conditions":["nonSeqFull","nonSeqPartial","seqNoFeedback","seqFeedback"],"classroomPairings":[["A","B"],["C","D"]],"coinWeights":[0.2,0.5,0.8],"subjectId":"A3RMV9ZGFJ0HHF","assignmentId":"3KB8R4ZV1FT99IV6AXQAU189L3RBGP","hitId":"3H6W48L9F4B5OEOMH57RM53ZYNHWPM","url":"https://gershmanlab.com/experiments/alicia/teaching/experiment/?hitId=3H6W48L9F4B5OEOMH57RM53ZYNHWPM&workerId=A3RMV9ZGFJ0HHF&assignmentId=3KB8R4ZV1FT99IV6AXQAU189L3RBGP&a=VRBK8&tp_a=VRBK8&b=3KB8R4ZV1FT99IV6AXQAU189L3RBGP&tp_b=3KB8R4ZV1FT99IV6AXQAU189L3RBGP&c=365198&tp_c=365198","heads":16,"tails":4,"studentIndex":10,"studentTrueHypers":{"a":1,"b":4},"studentGuess":0.68,"delta":0.12,"totalExamples":20,"bonusSoFar":1.61},{"rt":18833,"response":{"heads":"4","tails":"1"},"type":"response","condition":"seqFeedback","trueTheta":0.8,"classrooms":["A","B"],"studentTrueClassroom":"A","exampleSet":"second","trial_type":"survey-html-form","trial_index":88,"time_elapsed":746868,"internal_node_id":"0.0-87.0-0.0","params":{"nStudents":24,"maxFlips":30,"completionMinutes":45,"basePay":8,"maxBonus":9,"perTrialBonus":0.5,"perTrialBonusThreshold":0.1,"exampleCost":0.01},"classroomParams":{"A":{"a":1,"b":4},"B":{"a":4,"b":1},"C":{"a":2,"b":8},"D":{"a":8,"b":2}},"conditions":["nonSeqFull","nonSeqPartial","seqNoFeedback","seqFeedback"],"classroomPairings":[["A","B"],["C","D"]],"coinWeights":[0.2,0.5,0.8],"subjectId":"A3RMV9ZGFJ0HHF","assignmentId":"3KB8R4ZV1FT99IV6AXQAU189L3RBGP","hitId":"3H6W48L9F4B5OEOMH57RM53ZYNHWPM","url":"https://gershmanlab.com/experiments/alicia/teaching/experiment/?hitId=3H6W48L9F4B5OEOMH57RM53ZYNHWPM&workerId=A3RMV9ZGFJ0HHF&assignmentId=3KB8R4ZV1FT99IV6AXQAU189L3RBGP&a=VRBK8&tp_a=VRBK8&b=3KB8R4ZV1FT99IV6AXQAU189L3RBGP&tp_b=3KB8R4ZV1FT99IV6AXQAU189L3RBGP&c=365198&tp_c=365198","firstResponseHeads":16,"firstResponseTails":4,"secondResponseHeads":4,"secondResponseTails":1,"studentIndex":10,"studentTrueHypers":{"a":1,"b":4},"studentGuess":0.7,"delta":0.10000000000000009,"bonus":0,"bonusSoFar":1.61,"totalExamples":25},{"rt":17709,"response":{"heads":"4","tails":"16"},"type":"response","condition":"seqNoFeedback","trueTheta":0.2,"classrooms":["C","D"],"studentTrueClassroom":"C","exampleSet":"first","trial_type":"survey-html-form","trial_index":94,"time_elapsed":779030,"internal_node_id":"0.0-93.0-0.0","params":{"nStudents":24,"maxFlips":30,"completionMinutes":45,"basePay":8,"maxBonus":9,"perTrialBonus":0.5,"perTrialBonusThreshold":0.1,"exampleCost":0.01},"classroomParams":{"A":{"a":1,"b":4},"B":{"a":4,"b":1},"C":{"a":2,"b":8},"D":{"a":8,"b":2}},"conditions":["nonSeqFull","nonSeqPartial","seqNoFeedback","seqFeedback"],"classroomPairings":[["A","B"],["C","D"]],"coinWeights":[0.2,0.5,0.8],"subjectId":"A3RMV9ZGFJ0HHF","assignmentId":"3KB8R4ZV1FT99IV6AXQAU189L3RBGP","hitId":"3H6W48L9F4B5OEOMH57RM53ZYNHWPM","url":"https://gershmanlab.com/experiments/alicia/teaching/experiment/?hitId=3H6W48L9F4B5OEOMH57RM53ZYNHWPM&workerId=A3RMV9ZGFJ0HHF&assignmentId=3KB8R4ZV1FT99IV6AXQAU189L3RBGP&a=VRBK8&tp_a=VRBK8&b=3KB8R4ZV1FT99IV6AXQAU189L3RBGP&tp_b=3KB8R4ZV1FT99IV6AXQAU189L3RBGP&c=365198&tp_c=365198","heads":4,"tails":16,"studentIndex":11,"studentTrueHypers":{"a":2,"b":8},"studentGuess":0.2,"delta":0,"totalExamples":20,"bonusSoFar":1.61},{"rt":10648,"response":{"heads":"2","tails":"8"},"type":"response","condition":"seqNoFeedback","trueTheta":0.2,"classrooms":["C","D"],"studentTrueClassroom":"C","exampleSet":"second","trial_type":"survey-html-form","trial_index":97,"time_elapsed":796187,"internal_node_id":"0.0-96.0-0.0","params":{"nStudents":24,"maxFlips":30,"completionMinutes":45,"basePay":8,"maxBonus":9,"perTrialBonus":0.5,"perTrialBonusThreshold":0.1,"exampleCost":0.01},"classroomParams":{"A":{"a":1,"b":4},"B":{"a":4,"b":1},"C":{"a":2,"b":8},"D":{"a":8,"b":2}},"conditions":["nonSeqFull","nonSeqPartial","seqNoFeedback","seqFeedback"],"classroomPairings":[["A","B"],["C","D"]],"coinWeights":[0.2,0.5,0.8],"subjectId":"A3RMV9ZGFJ0HHF","assignmentId":"3KB8R4ZV1FT99IV6AXQAU189L3RBGP","hitId":"3H6W48L9F4B5OEOMH57RM53ZYNHWPM","url":"https://gershmanlab.com/experiments/alicia/teaching/experiment/?hitId=3H6W48L9F4B5OEOMH57RM53ZYNHWPM&workerId=A3RMV9ZGFJ0HHF&assignmentId=3KB8R4ZV1FT99IV6AXQAU189L3RBGP&a=VRBK8&tp_a=VRBK8&b=3KB8R4ZV1FT99IV6AXQAU189L3RBGP&tp_b=3KB8R4ZV1FT99IV6AXQAU189L3RBGP&c=365198&tp_c=365198","firstResponseHeads":4,"firstResponseTails":16,"secondResponseHeads":2,"secondResponseTails":8,"studentIndex":11,"studentTrueHypers":{"a":2,"b":8},"studentGuess":0.2,"delta":0,"bonus":0.2,"bonusSoFar":1.81,"totalExamples":30},{"rt":9354,"response":{"heads":"15","tails":"15"},"type":"response","condition":"seqFeedback","trueTheta":0.5,"classrooms":["C","D"],"studentTrueClassroom":"C","exampleSet":"first","trial_type":"survey-html-form","trial_index":103,"time_elapsed":818120,"internal_node_id":"0.0-102.0-0.0","params":{"nStudents":24,"maxFlips":30,"completionMinutes":45,"basePay":8,"maxBonus":9,"perTrialBonus":0.5,"perTrialBonusThreshold":0.1,"exampleCost":0.01},"classroomParams":{"A":{"a":1,"b":4},"B":{"a":4,"b":1},"C":{"a":2,"b":8},"D":{"a":8,"b":2}},"conditions":["nonSeqFull","nonSeqPartial","seqNoFeedback","seqFeedback"],"classroomPairings":[["A","B"],["C","D"]],"coinWeights":[0.2,0.5,0.8],"subjectId":"A3RMV9ZGFJ0HHF","assignmentId":"3KB8R4ZV1FT99IV6AXQAU189L3RBGP","hitId":"3H6W48L9F4B5OEOMH57RM53ZYNHWPM","url":"https://gershmanlab.com/experiments/alicia/teaching/experiment/?hitId=3H6W48L9F4B5OEOMH57RM53ZYNHWPM&workerId=A3RMV9ZGFJ0HHF&assignmentId=3KB8R4ZV1FT99IV6AXQAU189L3RBGP&a=VRBK8&tp_a=VRBK8&b=3KB8R4ZV1FT99IV6AXQAU189L3RBGP&tp_b=3KB8R4ZV1FT99IV6AXQAU189L3RBGP&c=365198&tp_c=365198","heads":15,"tails":15,"studentIndex":12,"studentTrueHypers":{"a":2,"b":8},"studentGuess":0.425,"delta":0.07500000000000001,"totalExamples":30,"bonusSoFar":1.81},{"rt":9294,"response":{"heads":"3","tails":"2"},"type":"response","condition":"seqFeedback","trueTheta":0.5,"classrooms":["C","D"],"studentTrueClassroom":"C","exampleSet":"second","trial_type":"survey-html-form","trial_index":107,"time_elapsed":836065,"internal_node_id":"0.0-106.0-0.0","params":{"nStudents":24,"maxFlips":30,"completionMinutes":45,"basePay":8,"maxBonus":9,"perTrialBonus":0.5,"perTrialBonusThreshold":0.1,"exampleCost":0.01},"classroomParams":{"A":{"a":1,"b":4},"B":{"a":4,"b":1},"C":{"a":2,"b":8},"D":{"a":8,"b":2}},"conditions":["nonSeqFull","nonSeqPartial","seqNoFeedback","seqFeedback"],"classroomPairings":[["A","B"],["C","D"]],"coinWeights":[0.2,0.5,0.8],"subjectId":"A3RMV9ZGFJ0HHF","assignmentId":"3KB8R4ZV1FT99IV6AXQAU189L3RBGP","hitId":"3H6W48L9F4B5OEOMH57RM53ZYNHWPM","url":"https://gershmanlab.com/experiments/alicia/teaching/experiment/?hitId=3H6W48L9F4B5OEOMH57RM53ZYNHWPM&workerId=A3RMV9ZGFJ0HHF&assignmentId=3KB8R4ZV1FT99IV6AXQAU189L3RBGP&a=VRBK8&tp_a=VRBK8&b=3KB8R4ZV1FT99IV6AXQAU189L3RBGP&tp_b=3KB8R4ZV1FT99IV6AXQAU189L3RBGP&c=365198&tp_c=365198","firstResponseHeads":15,"firstResponseTails":15,"secondResponseHeads":3,"secondResponseTails":2,"studentIndex":12,"studentTrueHypers":{"a":2,"b":8},"studentGuess":0.4444444444444444,"delta":0.05555555555555558,"bonus":0.15,"bonusSoFar":1.96,"totalExamples":35},{"rt":19460,"response":{"heads":"24","tails":"6"},"type":"response","condition":"seqFeedback","trueTheta":0.8,"classrooms":["C","D"],"studentTrueClassroom":"C","exampleSet":"first","trial_type":"survey-html-form","trial_index":113,"time_elapsed":870012,"internal_node_id":"0.0-112.0-0.0","params":{"nStudents":24,"maxFlips":30,"completionMinutes":45,"basePay":8,"maxBonus":9,"perTrialBonus":0.5,"perTrialBonusThreshold":0.1,"exampleCost":0.01},"classroomParams":{"A":{"a":1,"b":4},"B":{"a":4,"b":1},"C":{"a":2,"b":8},"D":{"a":8,"b":2}},"conditions":["nonSeqFull","nonSeqPartial","seqNoFeedback","seqFeedback"],"classroomPairings":[["A","B"],["C","D"]],"coinWeights":[0.2,0.5,0.8],"subjectId":"A3RMV9ZGFJ0HHF","assignmentId":"3KB8R4ZV1FT99IV6AXQAU189L3RBGP","hitId":"3H6W48L9F4B5OEOMH57RM53ZYNHWPM","url":"https://gershmanlab.com/experiments/alicia/teaching/experiment/?hitId=3H6W48L9F4B5OEOMH57RM53ZYNHWPM&workerId=A3RMV9ZGFJ0HHF&assignmentId=3KB8R4ZV1FT99IV6AXQAU189L3RBGP&a=VRBK8&tp_a=VRBK8&b=3KB8R4ZV1FT99IV6AXQAU189L3RBGP&tp_b=3KB8R4ZV1FT99IV6AXQAU189L3RBGP&c=365198&tp_c=365198","heads":24,"tails":6,"studentIndex":13,"studentTrueHypers":{"a":2,"b":8},"studentGuess":0.65,"delta":0.15000000000000002,"totalExamples":30,"bonusSoFar":1.96},{"rt":14483,"response":{"heads":"5","tails":"1"},"type":"response","condition":"seqFeedback","trueTheta":0.8,"classrooms":["C","D"],"studentTrueClassroom":"C","exampleSet":"second","trial_type":"survey-html-form","trial_index":117,"time_elapsed":892868,"internal_node_id":"0.0-116.0-0.0","params":{"nStudents":24,"maxFlips":30,"completionMinutes":45,"basePay":8,"maxBonus":9,"perTrialBonus":0.5,"perTrialBonusThreshold":0.1,"exampleCost":0.01},"classroomParams":{"A":{"a":1,"b":4},"B":{"a":4,"b":1},"C":{"a":2,"b":8},"D":{"a":8,"b":2}},"conditions":["nonSeqFull","nonSeqPartial","seqNoFeedback","seqFeedback"],"classroomPairings":[["A","B"],["C","D"]],"coinWeights":[0.2,0.5,0.8],"subjectId":"A3RMV9ZGFJ0HHF","assignmentId":"3KB8R4ZV1FT99IV6AXQAU189L3RBGP","hitId":"3H6W48L9F4B5OEOMH57RM53ZYNHWPM","url":"https://gershmanlab.com/experiments/alicia/teaching/experiment/?hitId=3H6W48L9F4B5OEOMH57RM53ZYNHWPM&workerId=A3RMV9ZGFJ0HHF&assignmentId=3KB8R4ZV1FT99IV6AXQAU189L3RBGP&a=VRBK8&tp_a=VRBK8&b=3KB8R4ZV1FT99IV6AXQAU189L3RBGP&tp_b=3KB8R4ZV1FT99IV6AXQAU189L3RBGP&c=365198&tp_c=365198","firstResponseHeads":24,"firstResponseTails":6,"secondResponseHeads":5,"secondResponseTails":1,"studentIndex":13,"studentTrueHypers":{"a":2,"b":8},"studentGuess":0.6739130434782609,"delta":0.12608695652173918,"bonus":0,"bonusSoFar":1.96,"totalExamples":36},{"rt":25331,"response":{"heads":"6","tails":"24"},"type":"response","condition":"seqNoFeedback","trueTheta":0.2,"classrooms":["A","B"],"studentTrueClassroom":"B","exampleSet":"first","trial_type":"survey-html-form","trial_index":123,"time_elapsed":931764,"internal_node_id":"0.0-122.0-0.0","params":{"nStudents":24,"maxFlips":30,"completionMinutes":45,"basePay":8,"maxBonus":9,"perTrialBonus":0.5,"perTrialBonusThreshold":0.1,"exampleCost":0.01},"classroomParams":{"A":{"a":1,"b":4},"B":{"a":4,"b":1},"C":{"a":2,"b":8},"D":{"a":8,"b":2}},"conditions":["nonSeqFull","nonSeqPartial","seqNoFeedback","seqFeedback"],"classroomPairings":[["A","B"],["C","D"]],"coinWeights":[0.2,0.5,0.8],"subjectId":"A3RMV9ZGFJ0HHF","assignmentId":"3KB8R4ZV1FT99IV6AXQAU189L3RBGP","hitId":"3H6W48L9F4B5OEOMH57RM53ZYNHWPM","url":"https://gershmanlab.com/experiments/alicia/teaching/experiment/?hitId=3H6W48L9F4B5OEOMH57RM53ZYNHWPM&workerId=A3RMV9ZGFJ0HHF&assignmentId=3KB8R4ZV1FT99IV6AXQAU189L3RBGP&a=VRBK8&tp_a=VRBK8&b=3KB8R4ZV1FT99IV6AXQAU189L3RBGP&tp_b=3KB8R4ZV1FT99IV6AXQAU189L3RBGP&c=365198&tp_c=365198","heads":6,"tails":24,"studentIndex":14,"studentTrueHypers":{"a":4,"b":1},"studentGuess":0.2857142857142857,"delta":0.08571428571428569,"totalExamples":30,"bonusSoFar":1.96},{"rt":14317,"response":{"heads":"2","tails":"8"},"type":"response","condition":"seqNoFeedback","trueTheta":0.2,"classrooms":["A","B"],"studentTrueClassroom":"B","exampleSet":"second","trial_type":"survey-html-form","trial_index":126,"time_elapsed":953591,"internal_node_id":"0.0-125.0-0.0","params":{"nStudents":24,"maxFlips":30,"completionMinutes":45,"basePay":8,"maxBonus":9,"perTrialBonus":0.5,"perTrialBonusThreshold":0.1,"exampleCost":0.01},"classroomParams":{"A":{"a":1,"b":4},"B":{"a":4,"b":1},"C":{"a":2,"b":8},"D":{"a":8,"b":2}},"conditions":["nonSeqFull","nonSeqPartial","seqNoFeedback","seqFeedback"],"classroomPairings":[["A","B"],["C","D"]],"coinWeights":[0.2,0.5,0.8],"subjectId":"A3RMV9ZGFJ0HHF","assignmentId":"3KB8R4ZV1FT99IV6AXQAU189L3RBGP","hitId":"3H6W48L9F4B5OEOMH57RM53ZYNHWPM","url":"https://gershmanlab.com/experiments/alicia/teaching/experiment/?hitId=3H6W48L9F4B5OEOMH57RM53ZYNHWPM&workerId=A3RMV9ZGFJ0HHF&assignmentId=3KB8R4ZV1FT99IV6AXQAU189L3RBGP&a=VRBK8&tp_a=VRBK8&b=3KB8R4ZV1FT99IV6AXQAU189L3RBGP&tp_b=3KB8R4ZV1FT99IV6AXQAU189L3RBGP&c=365198&tp_c=365198","firstResponseHeads":6,"firstResponseTails":24,"secondResponseHeads":2,"secondResponseTails":8,"studentIndex":14,"studentTrueHypers":{"a":4,"b":1},"studentGuess":0.26666666666666666,"delta":0.06666666666666665,"bonus":0.1,"bonusSoFar":2.06,"totalExamples":40},{"rt":12049,"response":{"heads":"0","tails":"10"},"type":"response","condition":"nonSeqFull","trueTheta":0.2,"classrooms":["C","D"],"studentTrueClassroom":"D","exampleSet":"first","trial_type":"survey-html-form","trial_index":132,"time_elapsed":981605,"internal_node_id":"0.0-131.0-0.0","params":{"nStudents":24,"maxFlips":30,"completionMinutes":45,"basePay":8,"maxBonus":9,"perTrialBonus":0.5,"perTrialBonusThreshold":0.1,"exampleCost":0.01},"classroomParams":{"A":{"a":1,"b":4},"B":{"a":4,"b":1},"C":{"a":2,"b":8},"D":{"a":8,"b":2}},"conditions":["nonSeqFull","nonSeqPartial","seqNoFeedback","seqFeedback"],"classroomPairings":[["A","B"],["C","D"]],"coinWeights":[0.2,0.5,0.8],"subjectId":"A3RMV9ZGFJ0HHF","assignmentId":"3KB8R4ZV1FT99IV6AXQAU189L3RBGP","hitId":"3H6W48L9F4B5OEOMH57RM53ZYNHWPM","url":"https://gershmanlab.com/experiments/alicia/teaching/experiment/?hitId=3H6W48L9F4B5OEOMH57RM53ZYNHWPM&workerId=A3RMV9ZGFJ0HHF&assignmentId=3KB8R4ZV1FT99IV6AXQAU189L3RBGP&a=VRBK8&tp_a=VRBK8&b=3KB8R4ZV1FT99IV6AXQAU189L3RBGP&tp_b=3KB8R4ZV1FT99IV6AXQAU189L3RBGP&c=365198&tp_c=365198","heads":0,"tails":10,"studentIndex":15,"studentTrueHypers":{"a":8,"b":2},"studentGuess":0.4,"delta":0.2,"totalExamples":10,"bonus":0,"bonusSoFar":2.06},{"rt":26284,"response":{"heads":"5","tails":"5"},"type":"response","condition":"nonSeqPartial","trueTheta":0.5,"classrooms":["C","D"],"studentTrueClassroom":"D","exampleSet":"first","trial_type":"survey-html-form","trial_index":138,"time_elapsed":1022104,"internal_node_id":"0.0-137.0-0.0","params":{"nStudents":24,"maxFlips":30,"completionMinutes":45,"basePay":8,"maxBonus":9,"perTrialBonus":0.5,"perTrialBonusThreshold":0.1,"exampleCost":0.01},"classroomParams":{"A":{"a":1,"b":4},"B":{"a":4,"b":1},"C":{"a":2,"b":8},"D":{"a":8,"b":2}},"conditions":["nonSeqFull","nonSeqPartial","seqNoFeedback","seqFeedback"],"classroomPairings":[["A","B"],["C","D"]],"coinWeights":[0.2,0.5,0.8],"subjectId":"A3RMV9ZGFJ0HHF","assignmentId":"3KB8R4ZV1FT99IV6AXQAU189L3RBGP","hitId":"3H6W48L9F4B5OEOMH57RM53ZYNHWPM","url":"https://gershmanlab.com/experiments/alicia/teaching/experiment/?hitId=3H6W48L9F4B5OEOMH57RM53ZYNHWPM&workerId=A3RMV9ZGFJ0HHF&assignmentId=3KB8R4ZV1FT99IV6AXQAU189L3RBGP&a=VRBK8&tp_a=VRBK8&b=3KB8R4ZV1FT99IV6AXQAU189L3RBGP&tp_b=3KB8R4ZV1FT99IV6AXQAU189L3RBGP&c=365198&tp_c=365198","heads":5,"tails":5,"studentIndex":16,"studentTrueHypers":{"a":8,"b":2},"studentGuess":0.65,"delta":0.15000000000000002,"totalExamples":10,"bonus":0,"bonusSoFar":2.06},{"rt":11783,"response":{"heads":"15","tails":"0"},"type":"response","condition":"nonSeqFull","trueTheta":0.8,"classrooms":["C","D"],"studentTrueClassroom":"C","exampleSet":"first","trial_type":"survey-html-form","trial_index":144,"time_elapsed":1046813,"internal_node_id":"0.0-143.0-0.0","params":{"nStudents":24,"maxFlips":30,"completionMinutes":45,"basePay":8,"maxBonus":9,"perTrialBonus":0.5,"perTrialBonusThreshold":0.1,"exampleCost":0.01},"classroomParams":{"A":{"a":1,"b":4},"B":{"a":4,"b":1},"C":{"a":2,"b":8},"D":{"a":8,"b":2}},"conditions":["nonSeqFull","nonSeqPartial","seqNoFeedback","seqFeedback"],"classroomPairings":[["A","B"],["C","D"]],"coinWeights":[0.2,0.5,0.8],"subjectId":"A3RMV9ZGFJ0HHF","assignmentId":"3KB8R4ZV1FT99IV6AXQAU189L3RBGP","hitId":"3H6W48L9F4B5OEOMH57RM53ZYNHWPM","url":"https://gershmanlab.com/experiments/alicia/teaching/experiment/?hitId=3H6W48L9F4B5OEOMH57RM53ZYNHWPM&workerId=A3RMV9ZGFJ0HHF&assignmentId=3KB8R4ZV1FT99IV6AXQAU189L3RBGP&a=VRBK8&tp_a=VRBK8&b=3KB8R4ZV1FT99IV6AXQAU189L3RBGP&tp_b=3KB8R4ZV1FT99IV6AXQAU189L3RBGP&c=365198&tp_c=365198","heads":15,"tails":0,"studentIndex":17,"studentTrueHypers":{"a":2,"b":8},"studentGuess":0.68,"delta":0.12,"totalExamples":15,"bonus":0,"bonusSoFar":2.06},{"rt":6938,"response":{"heads":"10","tails":"0"},"type":"response","condition":"nonSeqPartial","trueTheta":0.8,"classrooms":["A","B"],"studentTrueClassroom":"B","exampleSet":"first","trial_type":"survey-html-form","trial_index":150,"time_elapsed":1068964,"internal_node_id":"0.0-149.0-0.0","params":{"nStudents":24,"maxFlips":30,"completionMinutes":45,"basePay":8,"maxBonus":9,"perTrialBonus":0.5,"perTrialBonusThreshold":0.1,"exampleCost":0.01},"classroomParams":{"A":{"a":1,"b":4},"B":{"a":4,"b":1},"C":{"a":2,"b":8},"D":{"a":8,"b":2}},"conditions":["nonSeqFull","nonSeqPartial","seqNoFeedback","seqFeedback"],"classroomPairings":[["A","B"],["C","D"]],"coinWeights":[0.2,0.5,0.8],"subjectId":"A3RMV9ZGFJ0HHF","assignmentId":"3KB8R4ZV1FT99IV6AXQAU189L3RBGP","hitId":"3H6W48L9F4B5OEOMH57RM53ZYNHWPM","url":"https://gershmanlab.com/experiments/alicia/teaching/experiment/?hitId=3H6W48L9F4B5OEOMH57RM53ZYNHWPM&workerId=A3RMV9ZGFJ0HHF&assignmentId=3KB8R4ZV1FT99IV6AXQAU189L3RBGP&a=VRBK8&tp_a=VRBK8&b=3KB8R4ZV1FT99IV6AXQAU189L3RBGP&tp_b=3KB8R4ZV1FT99IV6AXQAU189L3RBGP&c=365198&tp_c=365198","heads":10,"tails":0,"studentIndex":18,"studentTrueHypers":{"a":4,"b":1},"studentGuess":0.9333333333333333,"delta":0.1333333333333333,"totalExamples":10,"bonus":0,"bonusSoFar":2.06},{"rt":38019,"response":{"heads":"2","tails":"8"},"type":"response","condition":"nonSeqPartial","trueTheta":0.2,"classrooms":["C","D"],"studentTrueClassroom":"D","exampleSet":"first","trial_type":"survey-html-form","trial_index":156,"time_elapsed":1121950,"internal_node_id":"0.0-155.0-0.0","params":{"nStudents":24,"maxFlips":30,"completionMinutes":45,"basePay":8,"maxBonus":9,"perTrialBonus":0.5,"perTrialBonusThreshold":0.1,"exampleCost":0.01},"classroomParams":{"A":{"a":1,"b":4},"B":{"a":4,"b":1},"C":{"a":2,"b":8},"D":{"a":8,"b":2}},"conditions":["nonSeqFull","nonSeqPartial","seqNoFeedback","seqFeedback"],"classroomPairings":[["A","B"],["C","D"]],"coinWeights":[0.2,0.5,0.8],"subjectId":"A3RMV9ZGFJ0HHF","assignmentId":"3KB8R4ZV1FT99IV6AXQAU189L3RBGP","hitId":"3H6W48L9F4B5OEOMH57RM53ZYNHWPM","url":"https://gershmanlab.com/experiments/alicia/teaching/experiment/?hitId=3H6W48L9F4B5OEOMH57RM53ZYNHWPM&workerId=A3RMV9ZGFJ0HHF&assignmentId=3KB8R4ZV1FT99IV6AXQAU189L3RBGP&a=VRBK8&tp_a=VRBK8&b=3KB8R4ZV1FT99IV6AXQAU189L3RBGP&tp_b=3KB8R4ZV1FT99IV6AXQAU189L3RBGP&c=365198&tp_c=365198","heads":2,"tails":8,"studentIndex":19,"studentTrueHypers":{"a":8,"b":2},"studentGuess":0.5,"delta":0.3,"totalExamples":10,"bonus":0,"bonusSoFar":2.06},{"rt":11267,"response":{"heads":"15","tails":"15"},"type":"response","condition":"seqFeedback","trueTheta":0.5,"classrooms":["A","B"],"studentTrueClassroom":"B","exampleSet":"first","trial_type":"survey-html-form","trial_index":162,"time_elapsed":1150784,"internal_node_id":"0.0-161.0-0.0","params":{"nStudents":24,"maxFlips":30,"completionMinutes":45,"basePay":8,"maxBonus":9,"perTrialBonus":0.5,"perTrialBonusThreshold":0.1,"exampleCost":0.01},"classroomParams":{"A":{"a":1,"b":4},"B":{"a":4,"b":1},"C":{"a":2,"b":8},"D":{"a":8,"b":2}},"conditions":["nonSeqFull","nonSeqPartial","seqNoFeedback","seqFeedback"],"classroomPairings":[["A","B"],["C","D"]],"coinWeights":[0.2,0.5,0.8],"subjectId":"A3RMV9ZGFJ0HHF","assignmentId":"3KB8R4ZV1FT99IV6AXQAU189L3RBGP","hitId":"3H6W48L9F4B5OEOMH57RM53ZYNHWPM","url":"https://gershmanlab.com/experiments/alicia/teaching/experiment/?hitId=3H6W48L9F4B5OEOMH57RM53ZYNHWPM&workerId=A3RMV9ZGFJ0HHF&assignmentId=3KB8R4ZV1FT99IV6AXQAU189L3RBGP&a=VRBK8&tp_a=VRBK8&b=3KB8R4ZV1FT99IV6AXQAU189L3RBGP&tp_b=3KB8R4ZV1FT99IV6AXQAU189L3RBGP&c=365198&tp_c=365198","heads":15,"tails":15,"studentIndex":20,"studentTrueHypers":{"a":4,"b":1},"studentGuess":0.5428571428571428,"delta":0.042857142857142816,"totalExamples":30,"bonusSoFar":2.06},{"rt":25750,"response":{"heads":"1","tails":"2"},"type":"response","condition":"seqFeedback","trueTheta":0.5,"classrooms":["A","B"],"studentTrueClassroom":"B","exampleSet":"second","trial_type":"survey-html-form","trial_index":166,"time_elapsed":1186031,"internal_node_id":"0.0-165.0-0.0","params":{"nStudents":24,"maxFlips":30,"completionMinutes":45,"basePay":8,"maxBonus":9,"perTrialBonus":0.5,"perTrialBonusThreshold":0.1,"exampleCost":0.01},"classroomParams":{"A":{"a":1,"b":4},"B":{"a":4,"b":1},"C":{"a":2,"b":8},"D":{"a":8,"b":2}},"conditions":["nonSeqFull","nonSeqPartial","seqNoFeedback","seqFeedback"],"classroomPairings":[["A","B"],["C","D"]],"coinWeights":[0.2,0.5,0.8],"subjectId":"A3RMV9ZGFJ0HHF","assignmentId":"3KB8R4ZV1FT99IV6AXQAU189L3RBGP","hitId":"3H6W48L9F4B5OEOMH57RM53ZYNHWPM","url":"https://gershmanlab.com/experiments/alicia/teaching/experiment/?hitId=3H6W48L9F4B5OEOMH57RM53ZYNHWPM&workerId=A3RMV9ZGFJ0HHF&assignmentId=3KB8R4ZV1FT99IV6AXQAU189L3RBGP&a=VRBK8&tp_a=VRBK8&b=3KB8R4ZV1FT99IV6AXQAU189L3RBGP&tp_b=3KB8R4ZV1FT99IV6AXQAU189L3RBGP&c=365198&tp_c=365198","firstResponseHeads":15,"firstResponseTails":15,"secondResponseHeads":1,"secondResponseTails":2,"studentIndex":20,"studentTrueHypers":{"a":4,"b":1},"studentGuess":0.5263157894736842,"delta":0.02631578947368418,"bonus":0.17,"bonusSoFar":2.23,"totalExamples":33},{"rt":14099,"response":{"heads":"8","tails":"2"},"type":"response","condition":"nonSeqPartial","trueTheta":0.8,"classrooms":["C","D"],"studentTrueClassroom":"C","exampleSet":"first","trial_type":"survey-html-form","trial_index":172,"time_elapsed":1213437,"internal_node_id":"0.0-171.0-0.0","params":{"nStudents":24,"maxFlips":30,"completionMinutes":45,"basePay":8,"maxBonus":9,"perTrialBonus":0.5,"perTrialBonusThreshold":0.1,"exampleCost":0.01},"classroomParams":{"A":{"a":1,"b":4},"B":{"a":4,"b":1},"C":{"a":2,"b":8},"D":{"a":8,"b":2}},"conditions":["nonSeqFull","nonSeqPartial","seqNoFeedback","seqFeedback"],"classroomPairings":[["A","B"],["C","D"]],"coinWeights":[0.2,0.5,0.8],"subjectId":"A3RMV9ZGFJ0HHF","assignmentId":"3KB8R4ZV1FT99IV6AXQAU189L3RBGP","hitId":"3H6W48L9F4B5OEOMH57RM53ZYNHWPM","url":"https://gershmanlab.com/experiments/alicia/teaching/experiment/?hitId=3H6W48L9F4B5OEOMH57RM53ZYNHWPM&workerId=A3RMV9ZGFJ0HHF&assignmentId=3KB8R4ZV1FT99IV6AXQAU189L3RBGP&a=VRBK8&tp_a=VRBK8&b=3KB8R4ZV1FT99IV6AXQAU189L3RBGP&tp_b=3KB8R4ZV1FT99IV6AXQAU189L3RBGP&c=365198&tp_c=365198","heads":8,"tails":2,"studentIndex":21,"studentTrueHypers":{"a":2,"b":8},"studentGuess":0.5,"delta":0.30000000000000004,"totalExamples":10,"bonus":0,"bonusSoFar":2.23},{"rt":11368,"response":{"heads":"10","tails":"0"},"type":"response","condition":"seqNoFeedback","trueTheta":0.8,"classrooms":["A","B"],"studentTrueClassroom":"A","exampleSet":"first","trial_type":"survey-html-form","trial_index":178,"time_elapsed":1239588,"internal_node_id":"0.0-177.0-0.0","params":{"nStudents":24,"maxFlips":30,"completionMinutes":45,"basePay":8,"maxBonus":9,"perTrialBonus":0.5,"perTrialBonusThreshold":0.1,"exampleCost":0.01},"classroomParams":{"A":{"a":1,"b":4},"B":{"a":4,"b":1},"C":{"a":2,"b":8},"D":{"a":8,"b":2}},"conditions":["nonSeqFull","nonSeqPartial","seqNoFeedback","seqFeedback"],"classroomPairings":[["A","B"],["C","D"]],"coinWeights":[0.2,0.5,0.8],"subjectId":"A3RMV9ZGFJ0HHF","assignmentId":"3KB8R4ZV1FT99IV6AXQAU189L3RBGP","hitId":"3H6W48L9F4B5OEOMH57RM53ZYNHWPM","url":"https://gershmanlab.com/experiments/alicia/teaching/experiment/?hitId=3H6W48L9F4B5OEOMH57RM53ZYNHWPM&workerId=A3RMV9ZGFJ0HHF&assignmentId=3KB8R4ZV1FT99IV6AXQAU189L3RBGP&a=VRBK8&tp_a=VRBK8&b=3KB8R4ZV1FT99IV6AXQAU189L3RBGP&tp_b=3KB8R4ZV1FT99IV6AXQAU189L3RBGP&c=365198&tp_c=365198","heads":10,"tails":0,"studentIndex":22,"studentTrueHypers":{"a":1,"b":4},"studentGuess":0.7333333333333333,"delta":0.06666666666666676,"totalExamples":10,"bonusSoFar":2.23},{"rt":10121,"response":{"heads":"8","tails":"2"},"type":"response","condition":"seqNoFeedback","trueTheta":0.8,"classrooms":["A","B"],"studentTrueClassroom":"A","exampleSet":"second","trial_type":"survey-html-form","trial_index":181,"time_elapsed":1256723,"internal_node_id":"0.0-180.0-0.0","params":{"nStudents":24,"maxFlips":30,"completionMinutes":45,"basePay":8,"maxBonus":9,"perTrialBonus":0.5,"perTrialBonusThreshold":0.1,"exampleCost":0.01},"classroomParams":{"A":{"a":1,"b":4},"B":{"a":4,"b":1},"C":{"a":2,"b":8},"D":{"a":8,"b":2}},"conditions":["nonSeqFull","nonSeqPartial","seqNoFeedback","seqFeedback"],"classroomPairings":[["A","B"],["C","D"]],"coinWeights":[0.2,0.5,0.8],"subjectId":"A3RMV9ZGFJ0HHF","assignmentId":"3KB8R4ZV1FT99IV6AXQAU189L3RBGP","hitId":"3H6W48L9F4B5OEOMH57RM53ZYNHWPM","url":"https://gershmanlab.com/experiments/alicia/teaching/experiment/?hitId=3H6W48L9F4B5OEOMH57RM53ZYNHWPM&workerId=A3RMV9ZGFJ0HHF&assignmentId=3KB8R4ZV1FT99IV6AXQAU189L3RBGP&a=VRBK8&tp_a=VRBK8&b=3KB8R4ZV1FT99IV6AXQAU189L3RBGP&tp_b=3KB8R4ZV1FT99IV6AXQAU189L3RBGP&c=365198&tp_c=365198","firstResponseHeads":10,"firstResponseTails":0,"secondResponseHeads":8,"secondResponseTails":2,"studentIndex":22,"studentTrueHypers":{"a":1,"b":4},"studentGuess":0.76,"delta":0.040000000000000036,"bonus":0.3,"bonusSoFar":2.53,"totalExamples":20},{"rt":6851,"response":{"heads":"5","tails":"5"},"type":"response","condition":"nonSeqPartial","trueTheta":0.5,"classrooms":["A","B"],"studentTrueClassroom":"A","exampleSet":"first","trial_type":"survey-html-form","trial_index":187,"time_elapsed":1277731,"internal_node_id":"0.0-186.0-0.0","params":{"nStudents":24,"maxFlips":30,"completionMinutes":45,"basePay":8,"maxBonus":9,"perTrialBonus":0.5,"perTrialBonusThreshold":0.1,"exampleCost":0.01},"classroomParams":{"A":{"a":1,"b":4},"B":{"a":4,"b":1},"C":{"a":2,"b":8},"D":{"a":8,"b":2}},"conditions":["nonSeqFull","nonSeqPartial","seqNoFeedback","seqFeedback"],"classroomPairings":[["A","B"],["C","D"]],"coinWeights":[0.2,0.5,0.8],"subjectId":"A3RMV9ZGFJ0HHF","assignmentId":"3KB8R4ZV1FT99IV6AXQAU189L3RBGP","hitId":"3H6W48L9F4B5OEOMH57RM53ZYNHWPM","url":"https://gershmanlab.com/experiments/alicia/teaching/experiment/?hitId=3H6W48L9F4B5OEOMH57RM53ZYNHWPM&workerId=A3RMV9ZGFJ0HHF&assignmentId=3KB8R4ZV1FT99IV6AXQAU189L3RBGP&a=VRBK8&tp_a=VRBK8&b=3KB8R4ZV1FT99IV6AXQAU189L3RBGP&tp_b=3KB8R4ZV1FT99IV6AXQAU189L3RBGP&c=365198&tp_c=365198","heads":5,"tails":5,"studentIndex":23,"studentTrueHypers":{"a":1,"b":4},"studentGuess":0.4,"delta":0.09999999999999998,"totalExamples":10,"bonus":0.4,"bonusSoFar":2.93},{"rt":9979,"response":{"gender":"female","age":"40","understood":"yes","comments":""},"type":"response","trial_type":"survey-html-form","trial_index":191,"time_elapsed":1295551,"internal_node_id":"0.0-191.0","params":{"nStudents":24,"maxFlips":30,"completionMinutes":45,"basePay":8,"maxBonus":9,"perTrialBonus":0.5,"perTrialBonusThreshold":0.1,"exampleCost":0.01},"classroomParams":{"A":{"a":1,"b":4},"B":{"a":4,"b":1},"C":{"a":2,"b":8},"D":{"a":8,"b":2}},"conditions":["nonSeqFull","nonSeqPartial","seqNoFeedback","seqFeedback"],"classroomPairings":[["A","B"],["C","D"]],"coinWeights":[0.2,0.5,0.8],"subjectId":"A3RMV9ZGFJ0HHF","assignmentId":"3KB8R4ZV1FT99IV6AXQAU189L3RBGP","hitId":"3H6W48L9F4B5OEOMH57RM53ZYNHWPM","url":"https://gershmanlab.com/experiments/alicia/teaching/experiment/?hitId=3H6W48L9F4B5OEOMH57RM53ZYNHWPM&workerId=A3RMV9ZGFJ0HHF&assignmentId=3KB8R4ZV1FT99IV6AXQAU189L3RBGP&a=VRBK8&tp_a=VRBK8&b=3KB8R4ZV1FT99IV6AXQAU189L3RBGP&tp_b=3KB8R4ZV1FT99IV6AXQAU189L3RBGP&c=365198&tp_c=365198","totalBonus":2.93}]