[{"rt":72855,"response":{"heads":"1","tails":"4"},"type":"response","condition":"nonSeqPartial","trueTheta":0.2,"classrooms":["A","B"],"studentTrueClassroom":"B","exampleSet":"first","trial_type":"survey-html-form","trial_index":19,"time_elapsed":1065623,"internal_node_id":"0.0-6.0-0.0","params":{"nStudents":24,"maxFlips":30,"completionMinutes":45,"basePay":8,"maxBonus":9,"perTrialBonus":0.5,"perTrialBonusThreshold":0.1,"exampleCost":0.01},"classroomParams":{"A":{"a":1,"b":4},"B":{"a":4,"b":1},"C":{"a":2,"b":8},"D":{"a":8,"b":2}},"conditions":["nonSeqFull","nonSeqPartial","seqNoFeedback","seqFeedback"],"classroomPairings":[["A","B"],["C","D"]],"coinWeights":[0.2,0.5,0.8],"subjectId":"A3V2XCDF45VN9X","assignmentId":"3ZDAD0O1T2ZKRQKDZTHZIHEQU0MTXO","hitId":"3QGHA0EA0JM3KKNCY0PQRLYAHJ3BWH","url":"https://gershmanlab.com/experiments/alicia/teaching/experiment/?hitId=3QGHA0EA0JM3KKNCY0PQRLYAHJ3BWH&workerId=A3V2XCDF45VN9X&assignmentId=3ZDAD0O1T2ZKRQKDZTHZIHEQU0MTXO&a=1DDZ8&tp_a=1DDZ8&b=3ZDAD0O1T2ZKRQKDZTHZIHEQU0MTXO&tp_b=3ZDAD0O1T2ZKRQKDZTHZIHEQU0MTXO&c=365198&tp_c=365198","heads":1,"tails":4,"studentIndex":0,"studentTrueHypers":{"a":4,"b":1},"studentGuess":0.5,"delta":0.3,"totalExamples":5,"bonus":0,"bonusSoFar":0},{"rt":31658,"response":{"heads":"2","tails":"8"},"type":"response","condition":"nonSeqPartial","trueTheta":0.2,"classrooms":["C","D"],"studentTrueClassroom":"D","exampleSet":"first","trial_type":"survey-html-form","trial_index":25,"time_elapsed":1119061,"internal_node_id":"0.0-12.0-0.0","params":{"nStudents":24,"maxFlips":30,"completionMinutes":45,"basePay":8,"maxBonus":9,"perTrialBonus":0.5,"perTrialBonusThreshold":0.1,"exampleCost":0.01},"classroomParams":{"A":{"a":1,"b":4},"B":{"a":4,"b":1},"C":{"a":2,"b":8},"D":{"a":8,"b":2}},"conditions":["nonSeqFull","nonSeqPartial","seqNoFeedback","seqFeedback"],"classroomPairings":[["A","B"],["C","D"]],"coinWeights":[0.2,0.5,0.8],"subjectId":"A3V2XCDF45VN9X","assignmentId":"3ZDAD0O1T2ZKRQKDZTHZIHEQU0MTXO","hitId":"3QGHA0EA0JM3KKNCY0PQRLYAHJ3BWH","url":"https://gershmanlab.com/experiments/alicia/teaching/experiment/?hitId=3QGHA0EA0JM3KKNCY0PQRLYAHJ3BWH&workerId=A3V2XCDF45VN9X&assignmentId=3ZDAD0O1T2ZKRQKDZTHZIHEQU0MTXO&a=1DDZ8&tp_a=1DDZ8&b=3ZDAD0O1T2ZKRQKDZTHZIHEQU0MTXO&tp_b=3ZDAD0O1T2ZKRQKDZTHZIHEQU0MTXO&c=365198&tp_c=365198","heads":2,"tails":8,"studentIndex":1,"studentTrueHypers":{"a":8,"b":2},"studentGuess":0.5,"delta":0.3,"totalExamples":10,"bonus":0,"bonusSoFar":0},{"rt":10485,"response":{"heads":"8","tails":"2"},"type":"response","condition":"nonSeqFull","trueTheta":0.8,"classrooms":["C","D"],"studentTrueClassroom":"D","exampleSet":"first","trial_type":"survey-html-form","trial_index":31,"time_elapsed":1146511,"internal_node_id":"0.0-18.0-0.0","params":{"nStudents":24,"maxFlips":30,"completionMinutes":45,"basePay":8,"maxBonus":9,"perTrialBonus":0.5,"perTrialBonusThreshold":0.1,"exampleCost":0.01},"classroomParams":{"A":{"a":1,"b":4},"B":{"a":4,"b":1},"C":{"a":2,"b":8},"D":{"a":8,"b":2}},"conditions":["nonSeqFull","nonSeqPartial","seqNoFeedback","seqFeedback"],"classroomPairings":[["A","B"],["C","D"]],"coinWeights":[0.2,0.5,0.8],"subjectId":"A3V2XCDF45VN9X","assignmentId":"3ZDAD0O1T2ZKRQKDZTHZIHEQU0MTXO","hitId":"3QGHA0EA0JM3KKNCY0PQRLYAHJ3BWH","url":"https://gershmanlab.com/experiments/alicia/teaching/experiment/?hitId=3QGHA0EA0JM3KKNCY0PQRLYAHJ3BWH&workerId=A3V2XCDF45VN9X&assignmentId=3ZDAD0O1T2ZKRQKDZTHZIHEQU0MTXO&a=1DDZ8&tp_a=1DDZ8&b=3ZDAD0O1T2ZKRQKDZTHZIHEQU0MTXO&tp_b=3ZDAD0O1T2ZKRQKDZTHZIHEQU0MTXO&c=365198&tp_c=365198","heads":8,"tails":2,"studentIndex":2,"studentTrueHypers":{"a":8,"b":2},"studentGuess":0.8,"delta":0,"totalExamples":10,"bonus":0.4,"bonusSoFar":0.4},{"rt":12498,"response":{"heads":"5","tails":"5"},"type":"response","condition":"seqNoFeedback","trueTheta":0.5,"classrooms":["A","B"],"studentTrueClassroom":"B","exampleSet":"first","trial_type":"survey-html-form","trial_index":37,"time_elapsed":1177865,"internal_node_id":"0.0-24.0-0.0","params":{"nStudents":24,"maxFlips":30,"completionMinutes":45,"basePay":8,"maxBonus":9,"perTrialBonus":0.5,"perTrialBonusThreshold":0.1,"exampleCost":0.01},"classroomParams":{"A":{"a":1,"b":4},"B":{"a":4,"b":1},"C":{"a":2,"b":8},"D":{"a":8,"b":2}},"conditions":["nonSeqFull","nonSeqPartial","seqNoFeedback","seqFeedback"],"classroomPairings":[["A","B"],["C","D"]],"coinWeights":[0.2,0.5,0.8],"subjectId":"A3V2XCDF45VN9X","assignmentId":"3ZDAD0O1T2ZKRQKDZTHZIHEQU0MTXO","hitId":"3QGHA0EA0JM3KKNCY0PQRLYAHJ3BWH","url":"https://gershmanlab.com/experiments/alicia/teaching/experiment/?hitId=3QGHA0EA0JM3KKNCY0PQRLYAHJ3BWH&workerId=A3V2XCDF45VN9X&assignmentId=3ZDAD0O1T2ZKRQKDZTHZIHEQU0MTXO&a=1DDZ8&tp_a=1DDZ8&b=3ZDAD0O1T2ZKRQKDZTHZIHEQU0MTXO&tp_b=3ZDAD0O1T2ZKRQKDZTHZIHEQU0MTXO&c=365198&tp_c=365198","heads":5,"tails":5,"studentIndex":3,"studentTrueHypers":{"a":4,"b":1},"studentGuess":0.6,"delta":0.09999999999999998,"totalExamples":10,"bonusSoFar":0.4},{"rt":12059,"response":{"heads":"5","tails":"5"},"type":"response","condition":"seqNoFeedback","trueTheta":0.5,"classrooms":["A","B"],"studentTrueClassroom":"B","exampleSet":"second","trial_type":"survey-html-form","trial_index":40,"time_elapsed":1195933,"internal_node_id":"0.0-27.0-0.0","params":{"nStudents":24,"maxFlips":30,"completionMinutes":45,"basePay":8,"maxBonus":9,"perTrialBonus":0.5,"perTrialBonusThreshold":0.1,"exampleCost":0.01},"classroomParams":{"A":{"a":1,"b":4},"B":{"a":4,"b":1},"C":{"a":2,"b":8},"D":{"a":8,"b":2}},"conditions":["nonSeqFull","nonSeqPartial","seqNoFeedback","seqFeedback"],"classroomPairings":[["A","B"],["C","D"]],"coinWeights":[0.2,0.5,0.8],"subjectId":"A3V2XCDF45VN9X","assignmentId":"3ZDAD0O1T2ZKRQKDZTHZIHEQU0MTXO","hitId":"3QGHA0EA0JM3KKNCY0PQRLYAHJ3BWH","url":"https://gershmanlab.com/experiments/alicia/teaching/experiment/?hitId=3QGHA0EA0JM3KKNCY0PQRLYAHJ3BWH&workerId=A3V2XCDF45VN9X&assignmentId=3ZDAD0O1T2ZKRQKDZTHZIHEQU0MTXO&a=1DDZ8&tp_a=1DDZ8&b=3ZDAD0O1T2ZKRQKDZTHZIHEQU0MTXO&tp_b=3ZDAD0O1T2ZKRQKDZTHZIHEQU0MTXO&c=365198&tp_c=365198","firstResponseHeads":5,"firstResponseTails":5,"secondResponseHeads":5,"secondResponseTails":5,"studentIndex":3,"studentTrueHypers":{"a":4,"b":1},"studentGuess":0.56,"delta":0.06000000000000005,"bonus":0.3,"bonusSoFar":0.7,"totalExamples":20},{"rt":23445,"response":{"heads":"1","tails":"4"},"type":"response","condition":"seqNoFeedback","trueTheta":0.2,"classrooms":["C","D"],"studentTrueClassroom":"D","exampleSet":"first","trial_type":"survey-html-form","trial_index":46,"time_elapsed":1238064,"internal_node_id":"0.0-33.0-0.0","params":{"nStudents":24,"maxFlips":30,"completionMinutes":45,"basePay":8,"maxBonus":9,"perTrialBonus":0.5,"perTrialBonusThreshold":0.1,"exampleCost":0.01},"classroomParams":{"A":{"a":1,"b":4},"B":{"a":4,"b":1},"C":{"a":2,"b":8},"D":{"a":8,"b":2}},"conditions":["nonSeqFull","nonSeqPartial","seqNoFeedback","seqFeedback"],"classroomPairings":[["A","B"],["C","D"]],"coinWeights":[0.2,0.5,0.8],"subjectId":"A3V2XCDF45VN9X","assignmentId":"3ZDAD0O1T2ZKRQKDZTHZIHEQU0MTXO","hitId":"3QGHA0EA0JM3KKNCY0PQRLYAHJ3BWH","url":"https://gershmanlab.com/experiments/alicia/teaching/experiment/?hitId=3QGHA0EA0JM3KKNCY0PQRLYAHJ3BWH&workerId=A3V2XCDF45VN9X&assignmentId=3ZDAD0O1T2ZKRQKDZTHZIHEQU0MTXO&a=1DDZ8&tp_a=1DDZ8&b=3ZDAD0O1T2ZKRQKDZTHZIHEQU0MTXO&tp_b=3ZDAD0O1T2ZKRQKDZTHZIHEQU0MTXO&c=365198&tp_c=365198","heads":1,"tails":4,"studentIndex":4,"studentTrueHypers":{"a":8,"b":2},"studentGuess":0.6,"delta":0.39999999999999997,"totalExamples":5,"bonusSoFar":0.7},{"rt":5414,"response":{"heads":"1","tails":"4"},"type":"response","condition":"seqNoFeedback","trueTheta":0.2,"classrooms":["C","D"],"studentTrueClassroom":"D","exampleSet":"second","trial_type":"survey-html-form","trial_index":49,"time_elapsed":1250237,"internal_node_id":"0.0-36.0-0.0","params":{"nStudents":24,"maxFlips":30,"completionMinutes":45,"basePay":8,"maxBonus":9,"perTrialBonus":0.5,"perTrialBonusThreshold":0.1,"exampleCost":0.01},"classroomParams":{"A":{"a":1,"b":4},"B":{"a":4,"b":1},"C":{"a":2,"b":8},"D":{"a":8,"b":2}},"conditions":["nonSeqFull","nonSeqPartial","seqNoFeedback","seqFeedback"],"classroomPairings":[["A","B"],["C","D"]],"coinWeights":[0.2,0.5,0.8],"subjectId":"A3V2XCDF45VN9X","assignmentId":"3ZDAD0O1T2ZKRQKDZTHZIHEQU0MTXO","hitId":"3QGHA0EA0JM3KKNCY0PQRLYAHJ3BWH","url":"https://gershmanlab.com/experiments/alicia/teaching/experiment/?hitId=3QGHA0EA0JM3KKNCY0PQRLYAHJ3BWH&workerId=A3V2XCDF45VN9X&assignmentId=3ZDAD0O1T2ZKRQKDZTHZIHEQU0MTXO&a=1DDZ8&tp_a=1DDZ8&b=3ZDAD0O1T2ZKRQKDZTHZIHEQU0MTXO&tp_b=3ZDAD0O1T2ZKRQKDZTHZIHEQU0MTXO&c=365198&tp_c=365198","firstResponseHeads":1,"firstResponseTails":4,"secondResponseHeads":1,"secondResponseTails":4,"studentIndex":4,"studentTrueHypers":{"a":8,"b":2},"studentGuess":0.5,"delta":0.3,"bonus":0,"bonusSoFar":0.7,"totalExamples":10},{"rt":14096,"response":{"heads":"8","tails":"2"},"type":"response","condition":"nonSeqFull","trueTheta":0.5,"classrooms":["C","D"],"studentTrueClassroom":"C","exampleSet":"first","trial_type":"survey-html-form","trial_index":55,"time_elapsed":1282964,"internal_node_id":"0.0-42.0-0.0","params":{"nStudents":24,"maxFlips":30,"completionMinutes":45,"basePay":8,"maxBonus":9,"perTrialBonus":0.5,"perTrialBonusThreshold":0.1,"exampleCost":0.01},"classroomParams":{"A":{"a":1,"b":4},"B":{"a":4,"b":1},"C":{"a":2,"b":8},"D":{"a":8,"b":2}},"conditions":["nonSeqFull","nonSeqPartial","seqNoFeedback","seqFeedback"],"classroomPairings":[["A","B"],["C","D"]],"coinWeights":[0.2,0.5,0.8],"subjectId":"A3V2XCDF45VN9X","assignmentId":"3ZDAD0O1T2ZKRQKDZTHZIHEQU0MTXO","hitId":"3QGHA0EA0JM3KKNCY0PQRLYAHJ3BWH","url":"https://gershmanlab.com/experiments/alicia/teaching/experiment/?hitId=3QGHA0EA0JM3KKNCY0PQRLYAHJ3BWH&workerId=A3V2XCDF45VN9X&assignmentId=3ZDAD0O1T2ZKRQKDZTHZIHEQU0MTXO&a=1DDZ8&tp_a=1DDZ8&b=3ZDAD0O1T2ZKRQKDZTHZIHEQU0MTXO&tp_b=3ZDAD0O1T2ZKRQKDZTHZIHEQU0MTXO&c=365198&tp_c=365198","heads":8,"tails":2,"studentIndex":5,"studentTrueHypers":{"a":2,"b":8},"studentGuess":0.5,"delta":0,"totalExamples":10,"bonus":0.4,"bonusSoFar":1.1},{"rt":23929,"response":{"heads":"4","tails":"1"},"type":"response","condition":"seqFeedback","trueTheta":0.2,"classrooms":["C","D"],"studentTrueClassroom":"C","exampleSet":"first","trial_type":"survey-html-form","trial_index":61,"time_elapsed":1319167,"internal_node_id":"0.0-48.0-0.0","params":{"nStudents":24,"maxFlips":30,"completionMinutes":45,"basePay":8,"maxBonus":9,"perTrialBonus":0.5,"perTrialBonusThreshold":0.1,"exampleCost":0.01},"classroomParams":{"A":{"a":1,"b":4},"B":{"a":4,"b":1},"C":{"a":2,"b":8},"D":{"a":8,"b":2}},"conditions":["nonSeqFull","nonSeqPartial","seqNoFeedback","seqFeedback"],"classroomPairings":[["A","B"],["C","D"]],"coinWeights":[0.2,0.5,0.8],"subjectId":"A3V2XCDF45VN9X","assignmentId":"3ZDAD0O1T2ZKRQKDZTHZIHEQU0MTXO","hitId":"3QGHA0EA0JM3KKNCY0PQRLYAHJ3BWH","url":"https://gershmanlab.com/experiments/alicia/teaching/experiment/?hitId=3QGHA0EA0JM3KKNCY0PQRLYAHJ3BWH&workerId=A3V2XCDF45VN9X&assignmentId=3ZDAD0O1T2ZKRQKDZTHZIHEQU0MTXO&a=1DDZ8&tp_a=1DDZ8&b=3ZDAD0O1T2ZKRQKDZTHZIHEQU0MTXO&tp_b=3ZDAD0O1T2ZKRQKDZTHZIHEQU0MTXO&c=365198&tp_c=365198","heads":4,"tails":1,"studentIndex":6,"studentTrueHypers":{"a":2,"b":8},"studentGuess":0.4,"delta":0.2,"totalExamples":5,"bonusSoFar":1.1},{"rt":14408,"response":{"heads":"9","tails":"1"},"type":"response","condition":"seqFeedback","trueTheta":0.2,"classrooms":["C","D"],"studentTrueClassroom":"C","exampleSet":"second","trial_type":"survey-html-form","trial_index":65,"time_elapsed":1344085,"internal_node_id":"0.0-52.0-0.0","params":{"nStudents":24,"maxFlips":30,"completionMinutes":45,"basePay":8,"maxBonus":9,"perTrialBonus":0.5,"perTrialBonusThreshold":0.1,"exampleCost":0.01},"classroomParams":{"A":{"a":1,"b":4},"B":{"a":4,"b":1},"C":{"a":2,"b":8},"D":{"a":8,"b":2}},"conditions":["nonSeqFull","nonSeqPartial","seqNoFeedback","seqFeedback"],"classroomPairings":[["A","B"],["C","D"]],"coinWeights":[0.2,0.5,0.8],"subjectId":"A3V2XCDF45VN9X","assignmentId":"3ZDAD0O1T2ZKRQKDZTHZIHEQU0MTXO","hitId":"3QGHA0EA0JM3KKNCY0PQRLYAHJ3BWH","url":"https://gershmanlab.com/experiments/alicia/teaching/experiment/?hitId=3QGHA0EA0JM3KKNCY0PQRLYAHJ3BWH&workerId=A3V2XCDF45VN9X&assignmentId=3ZDAD0O1T2ZKRQKDZTHZIHEQU0MTXO&a=1DDZ8&tp_a=1DDZ8&b=3ZDAD0O1T2ZKRQKDZTHZIHEQU0MTXO&tp_b=3ZDAD0O1T2ZKRQKDZTHZIHEQU0MTXO&c=365198&tp_c=365198","firstResponseHeads":4,"firstResponseTails":1,"secondResponseHeads":9,"secondResponseTails":1,"studentIndex":6,"studentTrueHypers":{"a":2,"b":8},"studentGuess":0.6,"delta":0.39999999999999997,"bonus":0,"bonusSoFar":1.1,"totalExamples":15},{"rt":15087,"response":{"heads":"4","tails":"1"},"type":"response","condition":"nonSeqFull","trueTheta":0.5,"classrooms":["A","B"],"studentTrueClassroom":"A","exampleSet":"first","trial_type":"survey-html-form","trial_index":71,"time_elapsed":1375655,"internal_node_id":"0.0-58.0-0.0","params":{"nStudents":24,"maxFlips":30,"completionMinutes":45,"basePay":8,"maxBonus":9,"perTrialBonus":0.5,"perTrialBonusThreshold":0.1,"exampleCost":0.01},"classroomParams":{"A":{"a":1,"b":4},"B":{"a":4,"b":1},"C":{"a":2,"b":8},"D":{"a":8,"b":2}},"conditions":["nonSeqFull","nonSeqPartial","seqNoFeedback","seqFeedback"],"classroomPairings":[["A","B"],["C","D"]],"coinWeights":[0.2,0.5,0.8],"subjectId":"A3V2XCDF45VN9X","assignmentId":"3ZDAD0O1T2ZKRQKDZTHZIHEQU0MTXO","hitId":"3QGHA0EA0JM3KKNCY0PQRLYAHJ3BWH","url":"https://gershmanlab.com/experiments/alicia/teaching/experiment/?hitId=3QGHA0EA0JM3KKNCY0PQRLYAHJ3BWH&workerId=A3V2XCDF45VN9X&assignmentId=3ZDAD0O1T2ZKRQKDZTHZIHEQU0MTXO&a=1DDZ8&tp_a=1DDZ8&b=3ZDAD0O1T2ZKRQKDZTHZIHEQU0MTXO&tp_b=3ZDAD0O1T2ZKRQKDZTHZIHEQU0MTXO&c=365198&tp_c=365198","heads":4,"tails":1,"studentIndex":7,"studentTrueHypers":{"a":1,"b":4},"studentGuess":0.5,"delta":0,"totalExamples":5,"bonus":0.45,"bonusSoFar":1.55},{"rt":30150,"response":{"heads":"4","tails":"1"},"type":"response","condition":"nonSeqPartial","trueTheta":0.8,"classrooms":["A","B"],"studentTrueClassroom":"A","exampleSet":"first","trial_type":"survey-html-form","trial_index":77,"time_elapsed":1420429,"internal_node_id":"0.0-64.0-0.0","params":{"nStudents":24,"maxFlips":30,"completionMinutes":45,"basePay":8,"maxBonus":9,"perTrialBonus":0.5,"perTrialBonusThreshold":0.1,"exampleCost":0.01},"classroomParams":{"A":{"a":1,"b":4},"B":{"a":4,"b":1},"C":{"a":2,"b":8},"D":{"a":8,"b":2}},"conditions":["nonSeqFull","nonSeqPartial","seqNoFeedback","seqFeedback"],"classroomPairings":[["A","B"],["C","D"]],"coinWeights":[0.2,0.5,0.8],"subjectId":"A3V2XCDF45VN9X","assignmentId":"3ZDAD0O1T2ZKRQKDZTHZIHEQU0MTXO","hitId":"3QGHA0EA0JM3KKNCY0PQRLYAHJ3BWH","url":"https://gershmanlab.com/experiments/alicia/teaching/experiment/?hitId=3QGHA0EA0JM3KKNCY0PQRLYAHJ3BWH&workerId=A3V2XCDF45VN9X&assignmentId=3ZDAD0O1T2ZKRQKDZTHZIHEQU0MTXO&a=1DDZ8&tp_a=1DDZ8&b=3ZDAD0O1T2ZKRQKDZTHZIHEQU0MTXO&tp_b=3ZDAD0O1T2ZKRQKDZTHZIHEQU0MTXO&c=365198&tp_c=365198","heads":4,"tails":1,"studentIndex":8,"studentTrueHypers":{"a":1,"b":4},"studentGuess":0.5,"delta":0.30000000000000004,"totalExamples":5,"bonus":0,"bonusSoFar":1.55},{"rt":18337,"response":{"heads":"4","tails":"1"},"type":"response","condition":"nonSeqPartial","trueTheta":0.8,"classrooms":["C","D"],"studentTrueClassroom":"D","exampleSet":"first","trial_type":"survey-html-form","trial_index":83,"time_elapsed":1452367,"internal_node_id":"0.0-70.0-0.0","params":{"nStudents":24,"maxFlips":30,"completionMinutes":45,"basePay":8,"maxBonus":9,"perTrialBonus":0.5,"perTrialBonusThreshold":0.1,"exampleCost":0.01},"classroomParams":{"A":{"a":1,"b":4},"B":{"a":4,"b":1},"C":{"a":2,"b":8},"D":{"a":8,"b":2}},"conditions":["nonSeqFull","nonSeqPartial","seqNoFeedback","seqFeedback"],"classroomPairings":[["A","B"],["C","D"]],"coinWeights":[0.2,0.5,0.8],"subjectId":"A3V2XCDF45VN9X","assignmentId":"3ZDAD0O1T2ZKRQKDZTHZIHEQU0MTXO","hitId":"3QGHA0EA0JM3KKNCY0PQRLYAHJ3BWH","url":"https://gershmanlab.com/experiments/alicia/teaching/experiment/?hitId=3QGHA0EA0JM3KKNCY0PQRLYAHJ3BWH&workerId=A3V2XCDF45VN9X&assignmentId=3ZDAD0O1T2ZKRQKDZTHZIHEQU0MTXO&a=1DDZ8&tp_a=1DDZ8&b=3ZDAD0O1T2ZKRQKDZTHZIHEQU0MTXO&tp_b=3ZDAD0O1T2ZKRQKDZTHZIHEQU0MTXO&c=365198&tp_c=365198","heads":4,"tails":1,"studentIndex":9,"studentTrueHypers":{"a":8,"b":2},"studentGuess":0.8,"delta":0,"totalExamples":5,"bonus":0.45,"bonusSoFar":2},{"rt":7451,"response":{"heads":"1","tails":"4"},"type":"response","condition":"seqNoFeedback","trueTheta":0.2,"classrooms":["A","B"],"studentTrueClassroom":"A","exampleSet":"first","trial_type":"survey-html-form","trial_index":89,"time_elapsed":1473837,"internal_node_id":"0.0-76.0-0.0","params":{"nStudents":24,"maxFlips":30,"completionMinutes":45,"basePay":8,"maxBonus":9,"perTrialBonus":0.5,"perTrialBonusThreshold":0.1,"exampleCost":0.01},"classroomParams":{"A":{"a":1,"b":4},"B":{"a":4,"b":1},"C":{"a":2,"b":8},"D":{"a":8,"b":2}},"conditions":["nonSeqFull","nonSeqPartial","seqNoFeedback","seqFeedback"],"classroomPairings":[["A","B"],["C","D"]],"coinWeights":[0.2,0.5,0.8],"subjectId":"A3V2XCDF45VN9X","assignmentId":"3ZDAD0O1T2ZKRQKDZTHZIHEQU0MTXO","hitId":"3QGHA0EA0JM3KKNCY0PQRLYAHJ3BWH","url":"https://gershmanlab.com/experiments/alicia/teaching/experiment/?hitId=3QGHA0EA0JM3KKNCY0PQRLYAHJ3BWH&workerId=A3V2XCDF45VN9X&assignmentId=3ZDAD0O1T2ZKRQKDZTHZIHEQU0MTXO&a=1DDZ8&tp_a=1DDZ8&b=3ZDAD0O1T2ZKRQKDZTHZIHEQU0MTXO&tp_b=3ZDAD0O1T2ZKRQKDZTHZIHEQU0MTXO&c=365198&tp_c=365198","heads":1,"tails":4,"studentIndex":10,"studentTrueHypers":{"a":1,"b":4},"studentGuess":0.2,"delta":0,"totalExamples":5,"bonusSoFar":2},{"rt":7633,"response":{"heads":"1","tails":"4"},"type":"response","condition":"seqNoFeedback","trueTheta":0.2,"classrooms":["A","B"],"studentTrueClassroom":"A","exampleSet":"second","trial_type":"survey-html-form","trial_index":92,"time_elapsed":1487974,"internal_node_id":"0.0-79.0-0.0","params":{"nStudents":24,"maxFlips":30,"completionMinutes":45,"basePay":8,"maxBonus":9,"perTrialBonus":0.5,"perTrialBonusThreshold":0.1,"exampleCost":0.01},"classroomParams":{"A":{"a":1,"b":4},"B":{"a":4,"b":1},"C":{"a":2,"b":8},"D":{"a":8,"b":2}},"conditions":["nonSeqFull","nonSeqPartial","seqNoFeedback","seqFeedback"],"classroomPairings":[["A","B"],["C","D"]],"coinWeights":[0.2,0.5,0.8],"subjectId":"A3V2XCDF45VN9X","assignmentId":"3ZDAD0O1T2ZKRQKDZTHZIHEQU0MTXO","hitId":"3QGHA0EA0JM3KKNCY0PQRLYAHJ3BWH","url":"https://gershmanlab.com/experiments/alicia/teaching/experiment/?hitId=3QGHA0EA0JM3KKNCY0PQRLYAHJ3BWH&workerId=A3V2XCDF45VN9X&assignmentId=3ZDAD0O1T2ZKRQKDZTHZIHEQU0MTXO&a=1DDZ8&tp_a=1DDZ8&b=3ZDAD0O1T2ZKRQKDZTHZIHEQU0MTXO&tp_b=3ZDAD0O1T2ZKRQKDZTHZIHEQU0MTXO&c=365198&tp_c=365198","firstResponseHeads":1,"firstResponseTails":4,"secondResponseHeads":1,"secondResponseTails":4,"studentIndex":10,"studentTrueHypers":{"a":1,"b":4},"studentGuess":0.2,"delta":0,"bonus":0.4,"bonusSoFar":2.4,"totalExamples":10},{"rt":6389,"response":{"heads":"1","tails":"4"},"type":"response","condition":"seqFeedback","trueTheta":0.2,"classrooms":["A","B"],"studentTrueClassroom":"A","exampleSet":"first","trial_type":"survey-html-form","trial_index":98,"time_elapsed":1512680,"internal_node_id":"0.0-85.0-0.0","params":{"nStudents":24,"maxFlips":30,"completionMinutes":45,"basePay":8,"maxBonus":9,"perTrialBonus":0.5,"perTrialBonusThreshold":0.1,"exampleCost":0.01},"classroomParams":{"A":{"a":1,"b":4},"B":{"a":4,"b":1},"C":{"a":2,"b":8},"D":{"a":8,"b":2}},"conditions":["nonSeqFull","nonSeqPartial","seqNoFeedback","seqFeedback"],"classroomPairings":[["A","B"],["C","D"]],"coinWeights":[0.2,0.5,0.8],"subjectId":"A3V2XCDF45VN9X","assignmentId":"3ZDAD0O1T2ZKRQKDZTHZIHEQU0MTXO","hitId":"3QGHA0EA0JM3KKNCY0PQRLYAHJ3BWH","url":"https://gershmanlab.com/experiments/alicia/teaching/experiment/?hitId=3QGHA0EA0JM3KKNCY0PQRLYAHJ3BWH&workerId=A3V2XCDF45VN9X&assignmentId=3ZDAD0O1T2ZKRQKDZTHZIHEQU0MTXO&a=1DDZ8&tp_a=1DDZ8&b=3ZDAD0O1T2ZKRQKDZTHZIHEQU0MTXO&tp_b=3ZDAD0O1T2ZKRQKDZTHZIHEQU0MTXO&c=365198&tp_c=365198","heads":1,"tails":4,"studentIndex":11,"studentTrueHypers":{"a":1,"b":4},"studentGuess":0.2,"delta":0,"totalExamples":5,"bonusSoFar":2.4},{"rt":4267,"response":{"heads":"1","tails":"4"},"type":"response","condition":"seqFeedback","trueTheta":0.2,"classrooms":["A","B"],"studentTrueClassroom":"A","exampleSet":"second","trial_type":"survey-html-form","trial_index":102,"time_elapsed":1528238,"internal_node_id":"0.0-89.0-0.0","params":{"nStudents":24,"maxFlips":30,"completionMinutes":45,"basePay":8,"maxBonus":9,"perTrialBonus":0.5,"perTrialBonusThreshold":0.1,"exampleCost":0.01},"classroomParams":{"A":{"a":1,"b":4},"B":{"a":4,"b":1},"C":{"a":2,"b":8},"D":{"a":8,"b":2}},"conditions":["nonSeqFull","nonSeqPartial","seqNoFeedback","seqFeedback"],"classroomPairings":[["A","B"],["C","D"]],"coinWeights":[0.2,0.5,0.8],"subjectId":"A3V2XCDF45VN9X","assignmentId":"3ZDAD0O1T2ZKRQKDZTHZIHEQU0MTXO","hitId":"3QGHA0EA0JM3KKNCY0PQRLYAHJ3BWH","url":"https://gershmanlab.com/experiments/alicia/teaching/experiment/?hitId=3QGHA0EA0JM3KKNCY0PQRLYAHJ3BWH&workerId=A3V2XCDF45VN9X&assignmentId=3ZDAD0O1T2ZKRQKDZTHZIHEQU0MTXO&a=1DDZ8&tp_a=1DDZ8&b=3ZDAD0O1T2ZKRQKDZTHZIHEQU0MTXO&tp_b=3ZDAD0O1T2ZKRQKDZTHZIHEQU0MTXO&c=365198&tp_c=365198","firstResponseHeads":1,"firstResponseTails":4,"secondResponseHeads":1,"secondResponseTails":4,"studentIndex":11,"studentTrueHypers":{"a":1,"b":4},"studentGuess":0.2,"delta":0,"bonus":0.4,"bonusSoFar":2.8,"totalExamples":10},{"rt":6355,"response":{"heads":"4","tails":"1"},"type":"response","condition":"seqNoFeedback","trueTheta":0.8,"classrooms":["A","B"],"studentTrueClassroom":"B","exampleSet":"first","trial_type":"survey-html-form","trial_index":108,"time_elapsed":1553450,"internal_node_id":"0.0-95.0-0.0","params":{"nStudents":24,"maxFlips":30,"completionMinutes":45,"basePay":8,"maxBonus":9,"perTrialBonus":0.5,"perTrialBonusThreshold":0.1,"exampleCost":0.01},"classroomParams":{"A":{"a":1,"b":4},"B":{"a":4,"b":1},"C":{"a":2,"b":8},"D":{"a":8,"b":2}},"conditions":["nonSeqFull","nonSeqPartial","seqNoFeedback","seqFeedback"],"classroomPairings":[["A","B"],["C","D"]],"coinWeights":[0.2,0.5,0.8],"subjectId":"A3V2XCDF45VN9X","assignmentId":"3ZDAD0O1T2ZKRQKDZTHZIHEQU0MTXO","hitId":"3QGHA0EA0JM3KKNCY0PQRLYAHJ3BWH","url":"https://gershmanlab.com/experiments/alicia/teaching/experiment/?hitId=3QGHA0EA0JM3KKNCY0PQRLYAHJ3BWH&workerId=A3V2XCDF45VN9X&assignmentId=3ZDAD0O1T2ZKRQKDZTHZIHEQU0MTXO&a=1DDZ8&tp_a=1DDZ8&b=3ZDAD0O1T2ZKRQKDZTHZIHEQU0MTXO&tp_b=3ZDAD0O1T2ZKRQKDZTHZIHEQU0MTXO&c=365198&tp_c=365198","heads":4,"tails":1,"studentIndex":12,"studentTrueHypers":{"a":4,"b":1},"studentGuess":0.8,"delta":0,"totalExamples":5,"bonusSoFar":2.8},{"rt":4695,"response":{"heads":"4","tails":"1"},"type":"response","condition":"seqNoFeedback","trueTheta":0.8,"classrooms":["A","B"],"studentTrueClassroom":"B","exampleSet":"second","trial_type":"survey-html-form","trial_index":111,"time_elapsed":1564407,"internal_node_id":"0.0-98.0-0.0","params":{"nStudents":24,"maxFlips":30,"completionMinutes":45,"basePay":8,"maxBonus":9,"perTrialBonus":0.5,"perTrialBonusThreshold":0.1,"exampleCost":0.01},"classroomParams":{"A":{"a":1,"b":4},"B":{"a":4,"b":1},"C":{"a":2,"b":8},"D":{"a":8,"b":2}},"conditions":["nonSeqFull","nonSeqPartial","seqNoFeedback","seqFeedback"],"classroomPairings":[["A","B"],["C","D"]],"coinWeights":[0.2,0.5,0.8],"subjectId":"A3V2XCDF45VN9X","assignmentId":"3ZDAD0O1T2ZKRQKDZTHZIHEQU0MTXO","hitId":"3QGHA0EA0JM3KKNCY0PQRLYAHJ3BWH","url":"https://gershmanlab.com/experiments/alicia/teaching/experiment/?hitId=3QGHA0EA0JM3KKNCY0PQRLYAHJ3BWH&workerId=A3V2XCDF45VN9X&assignmentId=3ZDAD0O1T2ZKRQKDZTHZIHEQU0MTXO&a=1DDZ8&tp_a=1DDZ8&b=3ZDAD0O1T2ZKRQKDZTHZIHEQU0MTXO&tp_b=3ZDAD0O1T2ZKRQKDZTHZIHEQU0MTXO&c=365198&tp_c=365198","firstResponseHeads":4,"firstResponseTails":1,"secondResponseHeads":4,"secondResponseTails":1,"studentIndex":12,"studentTrueHypers":{"a":4,"b":1},"studentGuess":0.8,"delta":0,"bonus":0.4,"bonusSoFar":3.2,"totalExamples":10},{"rt":5366,"response":{"heads":"1","tails":"4"},"type":"response","condition":"nonSeqFull","trueTheta":0.2,"classrooms":["A","B"],"studentTrueClassroom":"A","exampleSet":"first","trial_type":"survey-html-form","trial_index":117,"time_elapsed":1582936,"internal_node_id":"0.0-104.0-0.0","params":{"nStudents":24,"maxFlips":30,"completionMinutes":45,"basePay":8,"maxBonus":9,"perTrialBonus":0.5,"perTrialBonusThreshold":0.1,"exampleCost":0.01},"classroomParams":{"A":{"a":1,"b":4},"B":{"a":4,"b":1},"C":{"a":2,"b":8},"D":{"a":8,"b":2}},"conditions":["nonSeqFull","nonSeqPartial","seqNoFeedback","seqFeedback"],"classroomPairings":[["A","B"],["C","D"]],"coinWeights":[0.2,0.5,0.8],"subjectId":"A3V2XCDF45VN9X","assignmentId":"3ZDAD0O1T2ZKRQKDZTHZIHEQU0MTXO","hitId":"3QGHA0EA0JM3KKNCY0PQRLYAHJ3BWH","url":"https://gershmanlab.com/experiments/alicia/teaching/experiment/?hitId=3QGHA0EA0JM3KKNCY0PQRLYAHJ3BWH&workerId=A3V2XCDF45VN9X&assignmentId=3ZDAD0O1T2ZKRQKDZTHZIHEQU0MTXO&a=1DDZ8&tp_a=1DDZ8&b=3ZDAD0O1T2ZKRQKDZTHZIHEQU0MTXO&tp_b=3ZDAD0O1T2ZKRQKDZTHZIHEQU0MTXO&c=365198&tp_c=365198","heads":1,"tails":4,"studentIndex":13,"studentTrueHypers":{"a":1,"b":4},"studentGuess":0.2,"delta":0,"totalExamples":5,"bonus":0.45,"bonusSoFar":3.65},{"rt":14321,"response":{"heads":"1","tails":"1"},"type":"response","condition":"seqFeedback","trueTheta":0.5,"classrooms":["A","B"],"studentTrueClassroom":"B","exampleSet":"first","trial_type":"survey-html-form","trial_index":123,"time_elapsed":1610488,"internal_node_id":"0.0-110.0-0.0","params":{"nStudents":24,"maxFlips":30,"completionMinutes":45,"basePay":8,"maxBonus":9,"perTrialBonus":0.5,"perTrialBonusThreshold":0.1,"exampleCost":0.01},"classroomParams":{"A":{"a":1,"b":4},"B":{"a":4,"b":1},"C":{"a":2,"b":8},"D":{"a":8,"b":2}},"conditions":["nonSeqFull","nonSeqPartial","seqNoFeedback","seqFeedback"],"classroomPairings":[["A","B"],["C","D"]],"coinWeights":[0.2,0.5,0.8],"subjectId":"A3V2XCDF45VN9X","assignmentId":"3ZDAD0O1T2ZKRQKDZTHZIHEQU0MTXO","hitId":"3QGHA0EA0JM3KKNCY0PQRLYAHJ3BWH","url":"https://gershmanlab.com/experiments/alicia/teaching/experiment/?hitId=3QGHA0EA0JM3KKNCY0PQRLYAHJ3BWH&workerId=A3V2XCDF45VN9X&assignmentId=3ZDAD0O1T2ZKRQKDZTHZIHEQU0MTXO&a=1DDZ8&tp_a=1DDZ8&b=3ZDAD0O1T2ZKRQKDZTHZIHEQU0MTXO&tp_b=3ZDAD0O1T2ZKRQKDZTHZIHEQU0MTXO&c=365198&tp_c=365198","heads":1,"tails":1,"studentIndex":14,"studentTrueHypers":{"a":4,"b":1},"studentGuess":0.7142857142857143,"delta":0.2142857142857143,"totalExamples":2,"bonusSoFar":3.65},{"rt":23403,"response":{"heads":"0","tails":"3"},"type":"response","condition":"seqFeedback","trueTheta":0.5,"classrooms":["A","B"],"studentTrueClassroom":"B","exampleSet":"second","trial_type":"survey-html-form","trial_index":127,"time_elapsed":1644149,"internal_node_id":"0.0-114.0-0.0","params":{"nStudents":24,"maxFlips":30,"completionMinutes":45,"basePay":8,"maxBonus":9,"perTrialBonus":0.5,"perTrialBonusThreshold":0.1,"exampleCost":0.01},"classroomParams":{"A":{"a":1,"b":4},"B":{"a":4,"b":1},"C":{"a":2,"b":8},"D":{"a":8,"b":2}},"conditions":["nonSeqFull","nonSeqPartial","seqNoFeedback","seqFeedback"],"classroomPairings":[["A","B"],["C","D"]],"coinWeights":[0.2,0.5,0.8],"subjectId":"A3V2XCDF45VN9X","assignmentId":"3ZDAD0O1T2ZKRQKDZTHZIHEQU0MTXO","hitId":"3QGHA0EA0JM3KKNCY0PQRLYAHJ3BWH","url":"https://gershmanlab.com/experiments/alicia/teaching/experiment/?hitId=3QGHA0EA0JM3KKNCY0PQRLYAHJ3BWH&workerId=A3V2XCDF45VN9X&assignmentId=3ZDAD0O1T2ZKRQKDZTHZIHEQU0MTXO&a=1DDZ8&tp_a=1DDZ8&b=3ZDAD0O1T2ZKRQKDZTHZIHEQU0MTXO&tp_b=3ZDAD0O1T2ZKRQKDZTHZIHEQU0MTXO&c=365198&tp_c=365198","firstResponseHeads":1,"firstResponseTails":1,"secondResponseHeads":0,"secondResponseTails":3,"studentIndex":14,"studentTrueHypers":{"a":4,"b":1},"studentGuess":0.5,"delta":0,"bonus":0.45,"bonusSoFar":4.1,"totalExamples":5},{"rt":5602,"response":{"heads":"1","tails":"1"},"type":"response","condition":"nonSeqPartial","trueTheta":0.5,"classrooms":["C","D"],"studentTrueClassroom":"D","exampleSet":"first","trial_type":"survey-html-form","trial_index":133,"time_elapsed":1664725,"internal_node_id":"0.0-120.0-0.0","params":{"nStudents":24,"maxFlips":30,"completionMinutes":45,"basePay":8,"maxBonus":9,"perTrialBonus":0.5,"perTrialBonusThreshold":0.1,"exampleCost":0.01},"classroomParams":{"A":{"a":1,"b":4},"B":{"a":4,"b":1},"C":{"a":2,"b":8},"D":{"a":8,"b":2}},"conditions":["nonSeqFull","nonSeqPartial","seqNoFeedback","seqFeedback"],"classroomPairings":[["A","B"],["C","D"]],"coinWeights":[0.2,0.5,0.8],"subjectId":"A3V2XCDF45VN9X","assignmentId":"3ZDAD0O1T2ZKRQKDZTHZIHEQU0MTXO","hitId":"3QGHA0EA0JM3KKNCY0PQRLYAHJ3BWH","url":"https://gershmanlab.com/experiments/alicia/teaching/experiment/?hitId=3QGHA0EA0JM3KKNCY0PQRLYAHJ3BWH&workerId=A3V2XCDF45VN9X&assignmentId=3ZDAD0O1T2ZKRQKDZTHZIHEQU0MTXO&a=1DDZ8&tp_a=1DDZ8&b=3ZDAD0O1T2ZKRQKDZTHZIHEQU0MTXO&tp_b=3ZDAD0O1T2ZKRQKDZTHZIHEQU0MTXO&c=365198&tp_c=365198","heads":1,"tails":1,"studentIndex":15,"studentTrueHypers":{"a":8,"b":2},"studentGuess":0.75,"delta":0.25,"totalExamples":2,"bonus":0,"bonusSoFar":4.1},{"rt":5085,"response":{"heads":"4","tails":"1"},"type":"response","condition":"seqFeedback","trueTheta":0.8,"classrooms":["A","B"],"studentTrueClassroom":"B","exampleSet":"first","trial_type":"survey-html-form","trial_index":139,"time_elapsed":1684075,"internal_node_id":"0.0-126.0-0.0","params":{"nStudents":24,"maxFlips":30,"completionMinutes":45,"basePay":8,"maxBonus":9,"perTrialBonus":0.5,"perTrialBonusThreshold":0.1,"exampleCost":0.01},"classroomParams":{"A":{"a":1,"b":4},"B":{"a":4,"b":1},"C":{"a":2,"b":8},"D":{"a":8,"b":2}},"conditions":["nonSeqFull","nonSeqPartial","seqNoFeedback","seqFeedback"],"classroomPairings":[["A","B"],["C","D"]],"coinWeights":[0.2,0.5,0.8],"subjectId":"A3V2XCDF45VN9X","assignmentId":"3ZDAD0O1T2ZKRQKDZTHZIHEQU0MTXO","hitId":"3QGHA0EA0JM3KKNCY0PQRLYAHJ3BWH","url":"https://gershmanlab.com/experiments/alicia/teaching/experiment/?hitId=3QGHA0EA0JM3KKNCY0PQRLYAHJ3BWH&workerId=A3V2XCDF45VN9X&assignmentId=3ZDAD0O1T2ZKRQKDZTHZIHEQU0MTXO&a=1DDZ8&tp_a=1DDZ8&b=3ZDAD0O1T2ZKRQKDZTHZIHEQU0MTXO&tp_b=3ZDAD0O1T2ZKRQKDZTHZIHEQU0MTXO&c=365198&tp_c=365198","heads":4,"tails":1,"studentIndex":16,"studentTrueHypers":{"a":4,"b":1},"studentGuess":0.8,"delta":0,"totalExamples":5,"bonusSoFar":4.1},{"rt":8693,"response":{"heads":"4","tails":"1"},"type":"response","condition":"seqFeedback","trueTheta":0.8,"classrooms":["A","B"],"studentTrueClassroom":"B","exampleSet":"second","trial_type":"survey-html-form","trial_index":143,"time_elapsed":1702277,"internal_node_id":"0.0-130.0-0.0","params":{"nStudents":24,"maxFlips":30,"completionMinutes":45,"basePay":8,"maxBonus":9,"perTrialBonus":0.5,"perTrialBonusThreshold":0.1,"exampleCost":0.01},"classroomParams":{"A":{"a":1,"b":4},"B":{"a":4,"b":1},"C":{"a":2,"b":8},"D":{"a":8,"b":2}},"conditions":["nonSeqFull","nonSeqPartial","seqNoFeedback","seqFeedback"],"classroomPairings":[["A","B"],["C","D"]],"coinWeights":[0.2,0.5,0.8],"subjectId":"A3V2XCDF45VN9X","assignmentId":"3ZDAD0O1T2ZKRQKDZTHZIHEQU0MTXO","hitId":"3QGHA0EA0JM3KKNCY0PQRLYAHJ3BWH","url":"https://gershmanlab.com/experiments/alicia/teaching/experiment/?hitId=3QGHA0EA0JM3KKNCY0PQRLYAHJ3BWH&workerId=A3V2XCDF45VN9X&assignmentId=3ZDAD0O1T2ZKRQKDZTHZIHEQU0MTXO&a=1DDZ8&tp_a=1DDZ8&b=3ZDAD0O1T2ZKRQKDZTHZIHEQU0MTXO&tp_b=3ZDAD0O1T2ZKRQKDZTHZIHEQU0MTXO&c=365198&tp_c=365198","firstResponseHeads":4,"firstResponseTails":1,"secondResponseHeads":4,"secondResponseTails":1,"studentIndex":16,"studentTrueHypers":{"a":4,"b":1},"studentGuess":0.8,"delta":0,"bonus":0.4,"bonusSoFar":4.5,"totalExamples":10},{"rt":4837,"response":{"heads":"1","tails":"1"},"type":"response","condition":"seqNoFeedback","trueTheta":0.5,"classrooms":["C","D"],"studentTrueClassroom":"D","exampleSet":"first","trial_type":"survey-html-form","trial_index":149,"time_elapsed":1719985,"internal_node_id":"0.0-136.0-0.0","params":{"nStudents":24,"maxFlips":30,"completionMinutes":45,"basePay":8,"maxBonus":9,"perTrialBonus":0.5,"perTrialBonusThreshold":0.1,"exampleCost":0.01},"classroomParams":{"A":{"a":1,"b":4},"B":{"a":4,"b":1},"C":{"a":2,"b":8},"D":{"a":8,"b":2}},"conditions":["nonSeqFull","nonSeqPartial","seqNoFeedback","seqFeedback"],"classroomPairings":[["A","B"],["C","D"]],"coinWeights":[0.2,0.5,0.8],"subjectId":"A3V2XCDF45VN9X","assignmentId":"3ZDAD0O1T2ZKRQKDZTHZIHEQU0MTXO","hitId":"3QGHA0EA0JM3KKNCY0PQRLYAHJ3BWH","url":"https://gershmanlab.com/experiments/alicia/teaching/experiment/?hitId=3QGHA0EA0JM3KKNCY0PQRLYAHJ3BWH&workerId=A3V2XCDF45VN9X&assignmentId=3ZDAD0O1T2ZKRQKDZTHZIHEQU0MTXO&a=1DDZ8&tp_a=1DDZ8&b=3ZDAD0O1T2ZKRQKDZTHZIHEQU0MTXO&tp_b=3ZDAD0O1T2ZKRQKDZTHZIHEQU0MTXO&c=365198&tp_c=365198","heads":1,"tails":1,"studentIndex":17,"studentTrueHypers":{"a":8,"b":2},"studentGuess":0.75,"delta":0.25,"totalExamples":2,"bonusSoFar":4.5},{"rt":12191,"response":{"heads":"1","tails":"1"},"type":"response","condition":"seqNoFeedback","trueTheta":0.5,"classrooms":["C","D"],"studentTrueClassroom":"D","exampleSet":"second","trial_type":"survey-html-form","trial_index":152,"time_elapsed":1740179,"internal_node_id":"0.0-139.0-0.0","params":{"nStudents":24,"maxFlips":30,"completionMinutes":45,"basePay":8,"maxBonus":9,"perTrialBonus":0.5,"perTrialBonusThreshold":0.1,"exampleCost":0.01},"classroomParams":{"A":{"a":1,"b":4},"B":{"a":4,"b":1},"C":{"a":2,"b":8},"D":{"a":8,"b":2}},"conditions":["nonSeqFull","nonSeqPartial","seqNoFeedback","seqFeedback"],"classroomPairings":[["A","B"],["C","D"]],"coinWeights":[0.2,0.5,0.8],"subjectId":"A3V2XCDF45VN9X","assignmentId":"3ZDAD0O1T2ZKRQKDZTHZIHEQU0MTXO","hitId":"3QGHA0EA0JM3KKNCY0PQRLYAHJ3BWH","url":"https://gershmanlab.com/experiments/alicia/teaching/experiment/?hitId=3QGHA0EA0JM3KKNCY0PQRLYAHJ3BWH&workerId=A3V2XCDF45VN9X&assignmentId=3ZDAD0O1T2ZKRQKDZTHZIHEQU0MTXO&a=1DDZ8&tp_a=1DDZ8&b=3ZDAD0O1T2ZKRQKDZTHZIHEQU0MTXO&tp_b=3ZDAD0O1T2ZKRQKDZTHZIHEQU0MTXO&c=365198&tp_c=365198","firstResponseHeads":1,"firstResponseTails":1,"secondResponseHeads":1,"secondResponseTails":1,"studentIndex":17,"studentTrueHypers":{"a":8,"b":2},"studentGuess":0.7142857142857143,"delta":0.2142857142857143,"bonus":0,"bonusSoFar":4.5,"totalExamples":4},{"rt":8685,"response":{"heads":"1","tails":"4"},"type":"response","condition":"nonSeqFull","trueTheta":0.2,"classrooms":["C","D"],"studentTrueClassroom":"C","exampleSet":"first","trial_type":"survey-html-form","trial_index":158,"time_elapsed":1810098,"internal_node_id":"0.0-145.0-0.0","params":{"nStudents":24,"maxFlips":30,"completionMinutes":45,"basePay":8,"maxBonus":9,"perTrialBonus":0.5,"perTrialBonusThreshold":0.1,"exampleCost":0.01},"classroomParams":{"A":{"a":1,"b":4},"B":{"a":4,"b":1},"C":{"a":2,"b":8},"D":{"a":8,"b":2}},"conditions":["nonSeqFull","nonSeqPartial","seqNoFeedback","seqFeedback"],"classroomPairings":[["A","B"],["C","D"]],"coinWeights":[0.2,0.5,0.8],"subjectId":"A3V2XCDF45VN9X","assignmentId":"3ZDAD0O1T2ZKRQKDZTHZIHEQU0MTXO","hitId":"3QGHA0EA0JM3KKNCY0PQRLYAHJ3BWH","url":"https://gershmanlab.com/experiments/alicia/teaching/experiment/?hitId=3QGHA0EA0JM3KKNCY0PQRLYAHJ3BWH&workerId=A3V2XCDF45VN9X&assignmentId=3ZDAD0O1T2ZKRQKDZTHZIHEQU0MTXO&a=1DDZ8&tp_a=1DDZ8&b=3ZDAD0O1T2ZKRQKDZTHZIHEQU0MTXO&tp_b=3ZDAD0O1T2ZKRQKDZTHZIHEQU0MTXO&c=365198&tp_c=365198","heads":1,"tails":4,"studentIndex":18,"studentTrueHypers":{"a":2,"b":8},"studentGuess":0.2,"delta":0,"totalExamples":5,"bonus":0.45,"bonusSoFar":4.95},{"rt":4365,"response":{"heads":"4","tails":"1"},"type":"response","condition":"nonSeqFull","trueTheta":0.8,"classrooms":["A","B"],"studentTrueClassroom":"B","exampleSet":"first","trial_type":"survey-html-form","trial_index":164,"time_elapsed":1828414,"internal_node_id":"0.0-151.0-0.0","params":{"nStudents":24,"maxFlips":30,"completionMinutes":45,"basePay":8,"maxBonus":9,"perTrialBonus":0.5,"perTrialBonusThreshold":0.1,"exampleCost":0.01},"classroomParams":{"A":{"a":1,"b":4},"B":{"a":4,"b":1},"C":{"a":2,"b":8},"D":{"a":8,"b":2}},"conditions":["nonSeqFull","nonSeqPartial","seqNoFeedback","seqFeedback"],"classroomPairings":[["A","B"],["C","D"]],"coinWeights":[0.2,0.5,0.8],"subjectId":"A3V2XCDF45VN9X","assignmentId":"3ZDAD0O1T2ZKRQKDZTHZIHEQU0MTXO","hitId":"3QGHA0EA0JM3KKNCY0PQRLYAHJ3BWH","url":"https://gershmanlab.com/experiments/alicia/teaching/experiment/?hitId=3QGHA0EA0JM3KKNCY0PQRLYAHJ3BWH&workerId=A3V2XCDF45VN9X&assignmentId=3ZDAD0O1T2ZKRQKDZTHZIHEQU0MTXO&a=1DDZ8&tp_a=1DDZ8&b=3ZDAD0O1T2ZKRQKDZTHZIHEQU0MTXO&tp_b=3ZDAD0O1T2ZKRQKDZTHZIHEQU0MTXO&c=365198&tp_c=365198","heads":4,"tails":1,"studentIndex":19,"studentTrueHypers":{"a":4,"b":1},"studentGuess":0.8,"delta":0,"totalExamples":5,"bonus":0.45,"bonusSoFar":5.4},{"rt":5388,"response":{"heads":"4","tails":"1"},"type":"response","condition":"seqNoFeedback","trueTheta":0.8,"classrooms":["C","D"],"studentTrueClassroom":"D","exampleSet":"first","trial_type":"survey-html-form","trial_index":170,"time_elapsed":1847032,"internal_node_id":"0.0-157.0-0.0","params":{"nStudents":24,"maxFlips":30,"completionMinutes":45,"basePay":8,"maxBonus":9,"perTrialBonus":0.5,"perTrialBonusThreshold":0.1,"exampleCost":0.01},"classroomParams":{"A":{"a":1,"b":4},"B":{"a":4,"b":1},"C":{"a":2,"b":8},"D":{"a":8,"b":2}},"conditions":["nonSeqFull","nonSeqPartial","seqNoFeedback","seqFeedback"],"classroomPairings":[["A","B"],["C","D"]],"coinWeights":[0.2,0.5,0.8],"subjectId":"A3V2XCDF45VN9X","assignmentId":"3ZDAD0O1T2ZKRQKDZTHZIHEQU0MTXO","hitId":"3QGHA0EA0JM3KKNCY0PQRLYAHJ3BWH","url":"https://gershmanlab.com/experiments/alicia/teaching/experiment/?hitId=3QGHA0EA0JM3KKNCY0PQRLYAHJ3BWH&workerId=A3V2XCDF45VN9X&assignmentId=3ZDAD0O1T2ZKRQKDZTHZIHEQU0MTXO&a=1DDZ8&tp_a=1DDZ8&b=3ZDAD0O1T2ZKRQKDZTHZIHEQU0MTXO&tp_b=3ZDAD0O1T2ZKRQKDZTHZIHEQU0MTXO&c=365198&tp_c=365198","heads":4,"tails":1,"studentIndex":20,"studentTrueHypers":{"a":8,"b":2},"studentGuess":0.8,"delta":0,"totalExamples":5,"bonusSoFar":5.4},{"rt":6268,"response":{"heads":"4","tails":"1"},"type":"response","condition":"seqNoFeedback","trueTheta":0.8,"classrooms":["C","D"],"studentTrueClassroom":"D","exampleSet":"second","trial_type":"survey-html-form","trial_index":173,"time_elapsed":1860060,"internal_node_id":"0.0-160.0-0.0","params":{"nStudents":24,"maxFlips":30,"completionMinutes":45,"basePay":8,"maxBonus":9,"perTrialBonus":0.5,"perTrialBonusThreshold":0.1,"exampleCost":0.01},"classroomParams":{"A":{"a":1,"b":4},"B":{"a":4,"b":1},"C":{"a":2,"b":8},"D":{"a":8,"b":2}},"conditions":["nonSeqFull","nonSeqPartial","seqNoFeedback","seqFeedback"],"classroomPairings":[["A","B"],["C","D"]],"coinWeights":[0.2,0.5,0.8],"subjectId":"A3V2XCDF45VN9X","assignmentId":"3ZDAD0O1T2ZKRQKDZTHZIHEQU0MTXO","hitId":"3QGHA0EA0JM3KKNCY0PQRLYAHJ3BWH","url":"https://gershmanlab.com/experiments/alicia/teaching/experiment/?hitId=3QGHA0EA0JM3KKNCY0PQRLYAHJ3BWH&workerId=A3V2XCDF45VN9X&assignmentId=3ZDAD0O1T2ZKRQKDZTHZIHEQU0MTXO&a=1DDZ8&tp_a=1DDZ8&b=3ZDAD0O1T2ZKRQKDZTHZIHEQU0MTXO&tp_b=3ZDAD0O1T2ZKRQKDZTHZIHEQU0MTXO&c=365198&tp_c=365198","firstResponseHeads":4,"firstResponseTails":1,"secondResponseHeads":4,"secondResponseTails":1,"studentIndex":20,"studentTrueHypers":{"a":8,"b":2},"studentGuess":0.8,"delta":0,"bonus":0.4,"bonusSoFar":5.8,"totalExamples":10},{"rt":4747,"response":{"heads":"1","tails":"1"},"type":"response","condition":"seqFeedback","trueTheta":0.5,"classrooms":["C","D"],"studentTrueClassroom":"C","exampleSet":"first","trial_type":"survey-html-form","trial_index":179,"time_elapsed":1879174,"internal_node_id":"0.0-166.0-0.0","params":{"nStudents":24,"maxFlips":30,"completionMinutes":45,"basePay":8,"maxBonus":9,"perTrialBonus":0.5,"perTrialBonusThreshold":0.1,"exampleCost":0.01},"classroomParams":{"A":{"a":1,"b":4},"B":{"a":4,"b":1},"C":{"a":2,"b":8},"D":{"a":8,"b":2}},"conditions":["nonSeqFull","nonSeqPartial","seqNoFeedback","seqFeedback"],"classroomPairings":[["A","B"],["C","D"]],"coinWeights":[0.2,0.5,0.8],"subjectId":"A3V2XCDF45VN9X","assignmentId":"3ZDAD0O1T2ZKRQKDZTHZIHEQU0MTXO","hitId":"3QGHA0EA0JM3KKNCY0PQRLYAHJ3BWH","url":"https://gershmanlab.com/experiments/alicia/teaching/experiment/?hitId=3QGHA0EA0JM3KKNCY0PQRLYAHJ3BWH&workerId=A3V2XCDF45VN9X&assignmentId=3ZDAD0O1T2ZKRQKDZTHZIHEQU0MTXO&a=1DDZ8&tp_a=1DDZ8&b=3ZDAD0O1T2ZKRQKDZTHZIHEQU0MTXO&tp_b=3ZDAD0O1T2ZKRQKDZTHZIHEQU0MTXO&c=365198&tp_c=365198","heads":1,"tails":1,"studentIndex":21,"studentTrueHypers":{"a":2,"b":8},"studentGuess":0.25,"delta":0.25,"totalExamples":2,"bonusSoFar":5.8},{"rt":18459,"response":{"heads":"8","tails":"2"},"type":"response","condition":"seqFeedback","trueTheta":0.5,"classrooms":["C","D"],"studentTrueClassroom":"C","exampleSet":"second","trial_type":"survey-html-form","trial_index":183,"time_elapsed":1912800,"internal_node_id":"0.0-170.0-0.0","params":{"nStudents":24,"maxFlips":30,"completionMinutes":45,"basePay":8,"maxBonus":9,"perTrialBonus":0.5,"perTrialBonusThreshold":0.1,"exampleCost":0.01},"classroomParams":{"A":{"a":1,"b":4},"B":{"a":4,"b":1},"C":{"a":2,"b":8},"D":{"a":8,"b":2}},"conditions":["nonSeqFull","nonSeqPartial","seqNoFeedback","seqFeedback"],"classroomPairings":[["A","B"],["C","D"]],"coinWeights":[0.2,0.5,0.8],"subjectId":"A3V2XCDF45VN9X","assignmentId":"3ZDAD0O1T2ZKRQKDZTHZIHEQU0MTXO","hitId":"3QGHA0EA0JM3KKNCY0PQRLYAHJ3BWH","url":"https://gershmanlab.com/experiments/alicia/teaching/experiment/?hitId=3QGHA0EA0JM3KKNCY0PQRLYAHJ3BWH&workerId=A3V2XCDF45VN9X&assignmentId=3ZDAD0O1T2ZKRQKDZTHZIHEQU0MTXO&a=1DDZ8&tp_a=1DDZ8&b=3ZDAD0O1T2ZKRQKDZTHZIHEQU0MTXO&tp_b=3ZDAD0O1T2ZKRQKDZTHZIHEQU0MTXO&c=365198&tp_c=365198","firstResponseHeads":1,"firstResponseTails":1,"secondResponseHeads":8,"secondResponseTails":2,"studentIndex":21,"studentTrueHypers":{"a":2,"b":8},"studentGuess":0.5,"delta":0,"bonus":0.38,"bonusSoFar":6.18,"totalExamples":12},{"rt":5017,"response":{"heads":"4","tails":"1"},"type":"response","condition":"seqFeedback","trueTheta":0.8,"classrooms":["C","D"],"studentTrueClassroom":"C","exampleSet":"first","trial_type":"survey-html-form","trial_index":189,"time_elapsed":1933073,"internal_node_id":"0.0-176.0-0.0","params":{"nStudents":24,"maxFlips":30,"completionMinutes":45,"basePay":8,"maxBonus":9,"perTrialBonus":0.5,"perTrialBonusThreshold":0.1,"exampleCost":0.01},"classroomParams":{"A":{"a":1,"b":4},"B":{"a":4,"b":1},"C":{"a":2,"b":8},"D":{"a":8,"b":2}},"conditions":["nonSeqFull","nonSeqPartial","seqNoFeedback","seqFeedback"],"classroomPairings":[["A","B"],["C","D"]],"coinWeights":[0.2,0.5,0.8],"subjectId":"A3V2XCDF45VN9X","assignmentId":"3ZDAD0O1T2ZKRQKDZTHZIHEQU0MTXO","hitId":"3QGHA0EA0JM3KKNCY0PQRLYAHJ3BWH","url":"https://gershmanlab.com/experiments/alicia/teaching/experiment/?hitId=3QGHA0EA0JM3KKNCY0PQRLYAHJ3BWH&workerId=A3V2XCDF45VN9X&assignmentId=3ZDAD0O1T2ZKRQKDZTHZIHEQU0MTXO&a=1DDZ8&tp_a=1DDZ8&b=3ZDAD0O1T2ZKRQKDZTHZIHEQU0MTXO&tp_b=3ZDAD0O1T2ZKRQKDZTHZIHEQU0MTXO&c=365198&tp_c=365198","heads":4,"tails":1,"studentIndex":22,"studentTrueHypers":{"a":2,"b":8},"studentGuess":0.4,"delta":0.4,"totalExamples":5,"bonusSoFar":6.18},{"rt":25859,"response":{"heads":"8","tails":"0"},"type":"response","condition":"seqFeedback","trueTheta":0.8,"classrooms":["C","D"],"studentTrueClassroom":"C","exampleSet":"second","trial_type":"survey-html-form","trial_index":193,"time_elapsed":1966159,"internal_node_id":"0.0-180.0-0.0","params":{"nStudents":24,"maxFlips":30,"completionMinutes":45,"basePay":8,"maxBonus":9,"perTrialBonus":0.5,"perTrialBonusThreshold":0.1,"exampleCost":0.01},"classroomParams":{"A":{"a":1,"b":4},"B":{"a":4,"b":1},"C":{"a":2,"b":8},"D":{"a":8,"b":2}},"conditions":["nonSeqFull","nonSeqPartial","seqNoFeedback","seqFeedback"],"classroomPairings":[["A","B"],["C","D"]],"coinWeights":[0.2,0.5,0.8],"subjectId":"A3V2XCDF45VN9X","assignmentId":"3ZDAD0O1T2ZKRQKDZTHZIHEQU0MTXO","hitId":"3QGHA0EA0JM3KKNCY0PQRLYAHJ3BWH","url":"https://gershmanlab.com/experiments/alicia/teaching/experiment/?hitId=3QGHA0EA0JM3KKNCY0PQRLYAHJ3BWH&workerId=A3V2XCDF45VN9X&assignmentId=3ZDAD0O1T2ZKRQKDZTHZIHEQU0MTXO&a=1DDZ8&tp_a=1DDZ8&b=3ZDAD0O1T2ZKRQKDZTHZIHEQU0MTXO&tp_b=3ZDAD0O1T2ZKRQKDZTHZIHEQU0MTXO&c=365198&tp_c=365198","firstResponseHeads":4,"firstResponseTails":1,"secondResponseHeads":8,"secondResponseTails":0,"studentIndex":22,"studentTrueHypers":{"a":2,"b":8},"studentGuess":0.6086956521739131,"delta":0.19130434782608696,"bonus":0,"bonusSoFar":6.18,"totalExamples":13},{"rt":10046,"response":{"heads":"1","tails":"1"},"type":"response","condition":"nonSeqPartial","trueTheta":0.5,"classrooms":["A","B"],"studentTrueClassroom":"A","exampleSet":"first","trial_type":"survey-html-form","trial_index":199,"time_elapsed":1991180,"internal_node_id":"0.0-186.0-0.0","params":{"nStudents":24,"maxFlips":30,"completionMinutes":45,"basePay":8,"maxBonus":9,"perTrialBonus":0.5,"perTrialBonusThreshold":0.1,"exampleCost":0.01},"classroomParams":{"A":{"a":1,"b":4},"B":{"a":4,"b":1},"C":{"a":2,"b":8},"D":{"a":8,"b":2}},"conditions":["nonSeqFull","nonSeqPartial","seqNoFeedback","seqFeedback"],"classroomPairings":[["A","B"],["C","D"]],"coinWeights":[0.2,0.5,0.8],"subjectId":"A3V2XCDF45VN9X","assignmentId":"3ZDAD0O1T2ZKRQKDZTHZIHEQU0MTXO","hitId":"3QGHA0EA0JM3KKNCY0PQRLYAHJ3BWH","url":"https://gershmanlab.com/experiments/alicia/teaching/experiment/?hitId=3QGHA0EA0JM3KKNCY0PQRLYAHJ3BWH&workerId=A3V2XCDF45VN9X&assignmentId=3ZDAD0O1T2ZKRQKDZTHZIHEQU0MTXO&a=1DDZ8&tp_a=1DDZ8&b=3ZDAD0O1T2ZKRQKDZTHZIHEQU0MTXO&tp_b=3ZDAD0O1T2ZKRQKDZTHZIHEQU0MTXO&c=365198&tp_c=365198","heads":1,"tails":1,"studentIndex":23,"studentTrueHypers":{"a":1,"b":4},"studentGuess":0.2857142857142857,"delta":0.2142857142857143,"totalExamples":2,"bonus":0,"bonusSoFar":6.18},{"rt":11750,"response":{"gender":"male","age":"46","understood":"yes","comments":"none"},"type":"response","trial_type":"survey-html-form","trial_index":203,"time_elapsed":2012251,"internal_node_id":"0.0-191.0","params":{"nStudents":24,"maxFlips":30,"completionMinutes":45,"basePay":8,"maxBonus":9,"perTrialBonus":0.5,"perTrialBonusThreshold":0.1,"exampleCost":0.01},"classroomParams":{"A":{"a":1,"b":4},"B":{"a":4,"b":1},"C":{"a":2,"b":8},"D":{"a":8,"b":2}},"conditions":["nonSeqFull","nonSeqPartial","seqNoFeedback","seqFeedback"],"classroomPairings":[["A","B"],["C","D"]],"coinWeights":[0.2,0.5,0.8],"subjectId":"A3V2XCDF45VN9X","assignmentId":"3ZDAD0O1T2ZKRQKDZTHZIHEQU0MTXO","hitId":"3QGHA0EA0JM3KKNCY0PQRLYAHJ3BWH","url":"https://gershmanlab.com/experiments/alicia/teaching/experiment/?hitId=3QGHA0EA0JM3KKNCY0PQRLYAHJ3BWH&workerId=A3V2XCDF45VN9X&assignmentId=3ZDAD0O1T2ZKRQKDZTHZIHEQU0MTXO&a=1DDZ8&tp_a=1DDZ8&b=3ZDAD0O1T2ZKRQKDZTHZIHEQU0MTXO&tp_b=3ZDAD0O1T2ZKRQKDZTHZIHEQU0MTXO&c=365198&tp_c=365198","totalBonus":6.18}]