[{"rt":38779,"response":{"heads":"30","tails":"0"},"type":"response","condition":"seqFeedback","trueTheta":0.8,"classrooms":["A","B"],"studentTrueClassroom":"A","exampleSet":"first","trial_type":"survey-html-form","trial_index":10,"time_elapsed":382281,"internal_node_id":"0.0-6.0-0.0","params":{"nStudents":24,"maxFlips":30,"completionMinutes":45,"basePay":8,"maxBonus":9,"perTrialBonus":0.5,"perTrialBonusThreshold":0.1,"exampleCost":0.01},"classroomParams":{"A":{"a":1,"b":4},"B":{"a":4,"b":1},"C":{"a":2,"b":8},"D":{"a":8,"b":2}},"conditions":["nonSeqFull","nonSeqPartial","seqNoFeedback","seqFeedback"],"classroomPairings":[["A","B"],["C","D"]],"coinWeights":[0.2,0.5,0.8],"subjectId":"A9LSEP71DNP4O","assignmentId":"3ATTHHXXWBAUIC425HIV4ACHJJ6IXW","hitId":"3QGHA0EA0JM3KKNCY0PQRLYAHJ3BWH","url":"https://gershmanlab.com/experiments/alicia/teaching/experiment/?hitId=3QGHA0EA0JM3KKNCY0PQRLYAHJ3BWH&workerId=A9LSEP71DNP4O&assignmentId=3ATTHHXXWBAUIC425HIV4ACHJJ6IXW&a=XHTA8&tp_a=XHTA8&b=3ATTHHXXWBAUIC425HIV4ACHJJ6IXW&tp_b=3ATTHHXXWBAUIC425HIV4ACHJJ6IXW&c=365198&tp_c=365198","heads":30,"tails":0,"studentIndex":0,"studentTrueHypers":{"a":1,"b":4},"studentGuess":0.8857142857142857,"delta":0.08571428571428563,"totalExamples":30,"bonusSoFar":0},{"rt":27194,"response":{"heads":"25","tails":"0"},"type":"response","condition":"seqFeedback","trueTheta":0.8,"classrooms":["A","B"],"studentTrueClassroom":"A","exampleSet":"second","trial_type":"survey-html-form","trial_index":14,"time_elapsed":424504,"internal_node_id":"0.0-10.0-0.0","params":{"nStudents":24,"maxFlips":30,"completionMinutes":45,"basePay":8,"maxBonus":9,"perTrialBonus":0.5,"perTrialBonusThreshold":0.1,"exampleCost":0.01},"classroomParams":{"A":{"a":1,"b":4},"B":{"a":4,"b":1},"C":{"a":2,"b":8},"D":{"a":8,"b":2}},"conditions":["nonSeqFull","nonSeqPartial","seqNoFeedback","seqFeedback"],"classroomPairings":[["A","B"],["C","D"]],"coinWeights":[0.2,0.5,0.8],"subjectId":"A9LSEP71DNP4O","assignmentId":"3ATTHHXXWBAUIC425HIV4ACHJJ6IXW","hitId":"3QGHA0EA0JM3KKNCY0PQRLYAHJ3BWH","url":"https://gershmanlab.com/experiments/alicia/teaching/experiment/?hitId=3QGHA0EA0JM3KKNCY0PQRLYAHJ3BWH&workerId=A9LSEP71DNP4O&assignmentId=3ATTHHXXWBAUIC425HIV4ACHJJ6IXW&a=XHTA8&tp_a=XHTA8&b=3ATTHHXXWBAUIC425HIV4ACHJJ6IXW&tp_b=3ATTHHXXWBAUIC425HIV4ACHJJ6IXW&c=365198&tp_c=365198","firstResponseHeads":30,"firstResponseTails":0,"secondResponseHeads":25,"secondResponseTails":0,"studentIndex":0,"studentTrueHypers":{"a":1,"b":4},"studentGuess":0.9333333333333333,"delta":0.1333333333333333,"bonus":0,"bonusSoFar":0,"totalExamples":55},{"rt":4375,"response":{"heads":"0","tails":"2"},"type":"response","condition":"nonSeqPartial","trueTheta":0.2,"classrooms":["A","B"],"studentTrueClassroom":"A","exampleSet":"first","trial_type":"survey-html-form","trial_index":20,"time_elapsed":450051,"internal_node_id":"0.0-16.0-0.0","params":{"nStudents":24,"maxFlips":30,"completionMinutes":45,"basePay":8,"maxBonus":9,"perTrialBonus":0.5,"perTrialBonusThreshold":0.1,"exampleCost":0.01},"classroomParams":{"A":{"a":1,"b":4},"B":{"a":4,"b":1},"C":{"a":2,"b":8},"D":{"a":8,"b":2}},"conditions":["nonSeqFull","nonSeqPartial","seqNoFeedback","seqFeedback"],"classroomPairings":[["A","B"],["C","D"]],"coinWeights":[0.2,0.5,0.8],"subjectId":"A9LSEP71DNP4O","assignmentId":"3ATTHHXXWBAUIC425HIV4ACHJJ6IXW","hitId":"3QGHA0EA0JM3KKNCY0PQRLYAHJ3BWH","url":"https://gershmanlab.com/experiments/alicia/teaching/experiment/?hitId=3QGHA0EA0JM3KKNCY0PQRLYAHJ3BWH&workerId=A9LSEP71DNP4O&assignmentId=3ATTHHXXWBAUIC425HIV4ACHJJ6IXW&a=XHTA8&tp_a=XHTA8&b=3ATTHHXXWBAUIC425HIV4ACHJJ6IXW&tp_b=3ATTHHXXWBAUIC425HIV4ACHJJ6IXW&c=365198&tp_c=365198","heads":0,"tails":2,"studentIndex":1,"studentTrueHypers":{"a":1,"b":4},"studentGuess":0.14285714285714285,"delta":0.05714285714285716,"totalExamples":2,"bonus":0.48,"bonusSoFar":0.48},{"rt":2546,"response":{"heads":"8","tails":"0"},"type":"response","condition":"nonSeqFull","trueTheta":0.8,"classrooms":["C","D"],"studentTrueClassroom":"C","exampleSet":"first","trial_type":"survey-html-form","trial_index":26,"time_elapsed":477124,"internal_node_id":"0.0-22.0-0.0","params":{"nStudents":24,"maxFlips":30,"completionMinutes":45,"basePay":8,"maxBonus":9,"perTrialBonus":0.5,"perTrialBonusThreshold":0.1,"exampleCost":0.01},"classroomParams":{"A":{"a":1,"b":4},"B":{"a":4,"b":1},"C":{"a":2,"b":8},"D":{"a":8,"b":2}},"conditions":["nonSeqFull","nonSeqPartial","seqNoFeedback","seqFeedback"],"classroomPairings":[["A","B"],["C","D"]],"coinWeights":[0.2,0.5,0.8],"subjectId":"A9LSEP71DNP4O","assignmentId":"3ATTHHXXWBAUIC425HIV4ACHJJ6IXW","hitId":"3QGHA0EA0JM3KKNCY0PQRLYAHJ3BWH","url":"https://gershmanlab.com/experiments/alicia/teaching/experiment/?hitId=3QGHA0EA0JM3KKNCY0PQRLYAHJ3BWH&workerId=A9LSEP71DNP4O&assignmentId=3ATTHHXXWBAUIC425HIV4ACHJJ6IXW&a=XHTA8&tp_a=XHTA8&b=3ATTHHXXWBAUIC425HIV4ACHJJ6IXW&tp_b=3ATTHHXXWBAUIC425HIV4ACHJJ6IXW&c=365198&tp_c=365198","heads":8,"tails":0,"studentIndex":2,"studentTrueHypers":{"a":2,"b":8},"studentGuess":0.5555555555555556,"delta":0.24444444444444446,"totalExamples":8,"bonus":0,"bonusSoFar":0.48},{"rt":6028,"response":{"heads":"0","tails":"2"},"type":"response","condition":"seqFeedback","trueTheta":0.2,"classrooms":["C","D"],"studentTrueClassroom":"D","exampleSet":"first","trial_type":"survey-html-form","trial_index":32,"time_elapsed":497267,"internal_node_id":"0.0-28.0-0.0","params":{"nStudents":24,"maxFlips":30,"completionMinutes":45,"basePay":8,"maxBonus":9,"perTrialBonus":0.5,"perTrialBonusThreshold":0.1,"exampleCost":0.01},"classroomParams":{"A":{"a":1,"b":4},"B":{"a":4,"b":1},"C":{"a":2,"b":8},"D":{"a":8,"b":2}},"conditions":["nonSeqFull","nonSeqPartial","seqNoFeedback","seqFeedback"],"classroomPairings":[["A","B"],["C","D"]],"coinWeights":[0.2,0.5,0.8],"subjectId":"A9LSEP71DNP4O","assignmentId":"3ATTHHXXWBAUIC425HIV4ACHJJ6IXW","hitId":"3QGHA0EA0JM3KKNCY0PQRLYAHJ3BWH","url":"https://gershmanlab.com/experiments/alicia/teaching/experiment/?hitId=3QGHA0EA0JM3KKNCY0PQRLYAHJ3BWH&workerId=A9LSEP71DNP4O&assignmentId=3ATTHHXXWBAUIC425HIV4ACHJJ6IXW&a=XHTA8&tp_a=XHTA8&b=3ATTHHXXWBAUIC425HIV4ACHJJ6IXW&tp_b=3ATTHHXXWBAUIC425HIV4ACHJJ6IXW&c=365198&tp_c=365198","heads":0,"tails":2,"studentIndex":3,"studentTrueHypers":{"a":8,"b":2},"studentGuess":0.6666666666666666,"delta":0.4666666666666666,"totalExamples":2,"bonusSoFar":0.48},{"rt":5081,"response":{"heads":"0","tails":"8"},"type":"response","condition":"seqFeedback","trueTheta":0.2,"classrooms":["C","D"],"studentTrueClassroom":"D","exampleSet":"second","trial_type":"survey-html-form","trial_index":36,"time_elapsed":511829,"internal_node_id":"0.0-32.0-0.0","params":{"nStudents":24,"maxFlips":30,"completionMinutes":45,"basePay":8,"maxBonus":9,"perTrialBonus":0.5,"perTrialBonusThreshold":0.1,"exampleCost":0.01},"classroomParams":{"A":{"a":1,"b":4},"B":{"a":4,"b":1},"C":{"a":2,"b":8},"D":{"a":8,"b":2}},"conditions":["nonSeqFull","nonSeqPartial","seqNoFeedback","seqFeedback"],"classroomPairings":[["A","B"],["C","D"]],"coinWeights":[0.2,0.5,0.8],"subjectId":"A9LSEP71DNP4O","assignmentId":"3ATTHHXXWBAUIC425HIV4ACHJJ6IXW","hitId":"3QGHA0EA0JM3KKNCY0PQRLYAHJ3BWH","url":"https://gershmanlab.com/experiments/alicia/teaching/experiment/?hitId=3QGHA0EA0JM3KKNCY0PQRLYAHJ3BWH&workerId=A9LSEP71DNP4O&assignmentId=3ATTHHXXWBAUIC425HIV4ACHJJ6IXW&a=XHTA8&tp_a=XHTA8&b=3ATTHHXXWBAUIC425HIV4ACHJJ6IXW&tp_b=3ATTHHXXWBAUIC425HIV4ACHJJ6IXW&c=365198&tp_c=365198","firstResponseHeads":0,"firstResponseTails":2,"secondResponseHeads":0,"secondResponseTails":8,"studentIndex":3,"studentTrueHypers":{"a":8,"b":2},"studentGuess":0.4,"delta":0.2,"bonus":0,"bonusSoFar":0.48,"totalExamples":10},{"rt":3668,"response":{"heads":"1","tails":"1"},"type":"response","condition":"seqFeedback","trueTheta":0.5,"classrooms":["A","B"],"studentTrueClassroom":"A","exampleSet":"first","trial_type":"survey-html-form","trial_index":42,"time_elapsed":529967,"internal_node_id":"0.0-38.0-0.0","params":{"nStudents":24,"maxFlips":30,"completionMinutes":45,"basePay":8,"maxBonus":9,"perTrialBonus":0.5,"perTrialBonusThreshold":0.1,"exampleCost":0.01},"classroomParams":{"A":{"a":1,"b":4},"B":{"a":4,"b":1},"C":{"a":2,"b":8},"D":{"a":8,"b":2}},"conditions":["nonSeqFull","nonSeqPartial","seqNoFeedback","seqFeedback"],"classroomPairings":[["A","B"],["C","D"]],"coinWeights":[0.2,0.5,0.8],"subjectId":"A9LSEP71DNP4O","assignmentId":"3ATTHHXXWBAUIC425HIV4ACHJJ6IXW","hitId":"3QGHA0EA0JM3KKNCY0PQRLYAHJ3BWH","url":"https://gershmanlab.com/experiments/alicia/teaching/experiment/?hitId=3QGHA0EA0JM3KKNCY0PQRLYAHJ3BWH&workerId=A9LSEP71DNP4O&assignmentId=3ATTHHXXWBAUIC425HIV4ACHJJ6IXW&a=XHTA8&tp_a=XHTA8&b=3ATTHHXXWBAUIC425HIV4ACHJJ6IXW&tp_b=3ATTHHXXWBAUIC425HIV4ACHJJ6IXW&c=365198&tp_c=365198","heads":1,"tails":1,"studentIndex":4,"studentTrueHypers":{"a":1,"b":4},"studentGuess":0.2857142857142857,"delta":0.2142857142857143,"totalExamples":2,"bonusSoFar":0.48},{"rt":3583,"response":{"heads":"2","tails":"2"},"type":"response","condition":"seqFeedback","trueTheta":0.5,"classrooms":["A","B"],"studentTrueClassroom":"A","exampleSet":"second","trial_type":"survey-html-form","trial_index":46,"time_elapsed":542704,"internal_node_id":"0.0-42.0-0.0","params":{"nStudents":24,"maxFlips":30,"completionMinutes":45,"basePay":8,"maxBonus":9,"perTrialBonus":0.5,"perTrialBonusThreshold":0.1,"exampleCost":0.01},"classroomParams":{"A":{"a":1,"b":4},"B":{"a":4,"b":1},"C":{"a":2,"b":8},"D":{"a":8,"b":2}},"conditions":["nonSeqFull","nonSeqPartial","seqNoFeedback","seqFeedback"],"classroomPairings":[["A","B"],["C","D"]],"coinWeights":[0.2,0.5,0.8],"subjectId":"A9LSEP71DNP4O","assignmentId":"3ATTHHXXWBAUIC425HIV4ACHJJ6IXW","hitId":"3QGHA0EA0JM3KKNCY0PQRLYAHJ3BWH","url":"https://gershmanlab.com/experiments/alicia/teaching/experiment/?hitId=3QGHA0EA0JM3KKNCY0PQRLYAHJ3BWH&workerId=A9LSEP71DNP4O&assignmentId=3ATTHHXXWBAUIC425HIV4ACHJJ6IXW&a=XHTA8&tp_a=XHTA8&b=3ATTHHXXWBAUIC425HIV4ACHJJ6IXW&tp_b=3ATTHHXXWBAUIC425HIV4ACHJJ6IXW&c=365198&tp_c=365198","firstResponseHeads":1,"firstResponseTails":1,"secondResponseHeads":2,"secondResponseTails":2,"studentIndex":4,"studentTrueHypers":{"a":1,"b":4},"studentGuess":0.36363636363636365,"delta":0.13636363636363635,"bonus":0,"bonusSoFar":0.48,"totalExamples":6},{"rt":4140,"response":{"heads":"8","tails":"0"},"type":"response","condition":"nonSeqFull","trueTheta":0.8,"classrooms":["A","B"],"studentTrueClassroom":"B","exampleSet":"first","trial_type":"survey-html-form","trial_index":52,"time_elapsed":559617,"internal_node_id":"0.0-48.0-0.0","params":{"nStudents":24,"maxFlips":30,"completionMinutes":45,"basePay":8,"maxBonus":9,"perTrialBonus":0.5,"perTrialBonusThreshold":0.1,"exampleCost":0.01},"classroomParams":{"A":{"a":1,"b":4},"B":{"a":4,"b":1},"C":{"a":2,"b":8},"D":{"a":8,"b":2}},"conditions":["nonSeqFull","nonSeqPartial","seqNoFeedback","seqFeedback"],"classroomPairings":[["A","B"],["C","D"]],"coinWeights":[0.2,0.5,0.8],"subjectId":"A9LSEP71DNP4O","assignmentId":"3ATTHHXXWBAUIC425HIV4ACHJJ6IXW","hitId":"3QGHA0EA0JM3KKNCY0PQRLYAHJ3BWH","url":"https://gershmanlab.com/experiments/alicia/teaching/experiment/?hitId=3QGHA0EA0JM3KKNCY0PQRLYAHJ3BWH&workerId=A9LSEP71DNP4O&assignmentId=3ATTHHXXWBAUIC425HIV4ACHJJ6IXW&a=XHTA8&tp_a=XHTA8&b=3ATTHHXXWBAUIC425HIV4ACHJJ6IXW&tp_b=3ATTHHXXWBAUIC425HIV4ACHJJ6IXW&c=365198&tp_c=365198","heads":8,"tails":0,"studentIndex":5,"studentTrueHypers":{"a":4,"b":1},"studentGuess":0.9230769230769231,"delta":0.12307692307692308,"totalExamples":8,"bonus":0,"bonusSoFar":0.48},{"rt":7379,"response":{"heads":"1","tails":"9"},"type":"response","condition":"seqFeedback","trueTheta":0.2,"classrooms":["A","B"],"studentTrueClassroom":"B","exampleSet":"first","trial_type":"survey-html-form","trial_index":58,"time_elapsed":579968,"internal_node_id":"0.0-54.0-0.0","params":{"nStudents":24,"maxFlips":30,"completionMinutes":45,"basePay":8,"maxBonus":9,"perTrialBonus":0.5,"perTrialBonusThreshold":0.1,"exampleCost":0.01},"classroomParams":{"A":{"a":1,"b":4},"B":{"a":4,"b":1},"C":{"a":2,"b":8},"D":{"a":8,"b":2}},"conditions":["nonSeqFull","nonSeqPartial","seqNoFeedback","seqFeedback"],"classroomPairings":[["A","B"],["C","D"]],"coinWeights":[0.2,0.5,0.8],"subjectId":"A9LSEP71DNP4O","assignmentId":"3ATTHHXXWBAUIC425HIV4ACHJJ6IXW","hitId":"3QGHA0EA0JM3KKNCY0PQRLYAHJ3BWH","url":"https://gershmanlab.com/experiments/alicia/teaching/experiment/?hitId=3QGHA0EA0JM3KKNCY0PQRLYAHJ3BWH&workerId=A9LSEP71DNP4O&assignmentId=3ATTHHXXWBAUIC425HIV4ACHJJ6IXW&a=XHTA8&tp_a=XHTA8&b=3ATTHHXXWBAUIC425HIV4ACHJJ6IXW&tp_b=3ATTHHXXWBAUIC425HIV4ACHJJ6IXW&c=365198&tp_c=365198","heads":1,"tails":9,"studentIndex":6,"studentTrueHypers":{"a":4,"b":1},"studentGuess":0.3333333333333333,"delta":0.1333333333333333,"totalExamples":10,"bonusSoFar":0.48},{"rt":6282,"response":{"heads":"1","tails":"12"},"type":"response","condition":"seqFeedback","trueTheta":0.2,"classrooms":["A","B"],"studentTrueClassroom":"B","exampleSet":"second","trial_type":"survey-html-form","trial_index":62,"time_elapsed":598924,"internal_node_id":"0.0-58.0-0.0","params":{"nStudents":24,"maxFlips":30,"completionMinutes":45,"basePay":8,"maxBonus":9,"perTrialBonus":0.5,"perTrialBonusThreshold":0.1,"exampleCost":0.01},"classroomParams":{"A":{"a":1,"b":4},"B":{"a":4,"b":1},"C":{"a":2,"b":8},"D":{"a":8,"b":2}},"conditions":["nonSeqFull","nonSeqPartial","seqNoFeedback","seqFeedback"],"classroomPairings":[["A","B"],["C","D"]],"coinWeights":[0.2,0.5,0.8],"subjectId":"A9LSEP71DNP4O","assignmentId":"3ATTHHXXWBAUIC425HIV4ACHJJ6IXW","hitId":"3QGHA0EA0JM3KKNCY0PQRLYAHJ3BWH","url":"https://gershmanlab.com/experiments/alicia/teaching/experiment/?hitId=3QGHA0EA0JM3KKNCY0PQRLYAHJ3BWH&workerId=A9LSEP71DNP4O&assignmentId=3ATTHHXXWBAUIC425HIV4ACHJJ6IXW&a=XHTA8&tp_a=XHTA8&b=3ATTHHXXWBAUIC425HIV4ACHJJ6IXW&tp_b=3ATTHHXXWBAUIC425HIV4ACHJJ6IXW&c=365198&tp_c=365198","firstResponseHeads":1,"firstResponseTails":9,"secondResponseHeads":1,"secondResponseTails":12,"studentIndex":6,"studentTrueHypers":{"a":4,"b":1},"studentGuess":0.21428571428571427,"delta":0.014285714285714263,"bonus":0.27,"bonusSoFar":0.75,"totalExamples":23},{"rt":3100,"response":{"heads":"5","tails":"5"},"type":"response","condition":"seqNoFeedback","trueTheta":0.5,"classrooms":["C","D"],"studentTrueClassroom":"C","exampleSet":"first","trial_type":"survey-html-form","trial_index":68,"time_elapsed":616655,"internal_node_id":"0.0-64.0-0.0","params":{"nStudents":24,"maxFlips":30,"completionMinutes":45,"basePay":8,"maxBonus":9,"perTrialBonus":0.5,"perTrialBonusThreshold":0.1,"exampleCost":0.01},"classroomParams":{"A":{"a":1,"b":4},"B":{"a":4,"b":1},"C":{"a":2,"b":8},"D":{"a":8,"b":2}},"conditions":["nonSeqFull","nonSeqPartial","seqNoFeedback","seqFeedback"],"classroomPairings":[["A","B"],["C","D"]],"coinWeights":[0.2,0.5,0.8],"subjectId":"A9LSEP71DNP4O","assignmentId":"3ATTHHXXWBAUIC425HIV4ACHJJ6IXW","hitId":"3QGHA0EA0JM3KKNCY0PQRLYAHJ3BWH","url":"https://gershmanlab.com/experiments/alicia/teaching/experiment/?hitId=3QGHA0EA0JM3KKNCY0PQRLYAHJ3BWH&workerId=A9LSEP71DNP4O&assignmentId=3ATTHHXXWBAUIC425HIV4ACHJJ6IXW&a=XHTA8&tp_a=XHTA8&b=3ATTHHXXWBAUIC425HIV4ACHJJ6IXW&tp_b=3ATTHHXXWBAUIC425HIV4ACHJJ6IXW&c=365198&tp_c=365198","heads":5,"tails":5,"studentIndex":7,"studentTrueHypers":{"a":2,"b":8},"studentGuess":0.35,"delta":0.15000000000000002,"totalExamples":10,"bonusSoFar":0.75},{"rt":5575,"response":{"heads":"5","tails":"5"},"type":"response","condition":"seqNoFeedback","trueTheta":0.5,"classrooms":["C","D"],"studentTrueClassroom":"C","exampleSet":"second","trial_type":"survey-html-form","trial_index":71,"time_elapsed":628983,"internal_node_id":"0.0-67.0-0.0","params":{"nStudents":24,"maxFlips":30,"completionMinutes":45,"basePay":8,"maxBonus":9,"perTrialBonus":0.5,"perTrialBonusThreshold":0.1,"exampleCost":0.01},"classroomParams":{"A":{"a":1,"b":4},"B":{"a":4,"b":1},"C":{"a":2,"b":8},"D":{"a":8,"b":2}},"conditions":["nonSeqFull","nonSeqPartial","seqNoFeedback","seqFeedback"],"classroomPairings":[["A","B"],["C","D"]],"coinWeights":[0.2,0.5,0.8],"subjectId":"A9LSEP71DNP4O","assignmentId":"3ATTHHXXWBAUIC425HIV4ACHJJ6IXW","hitId":"3QGHA0EA0JM3KKNCY0PQRLYAHJ3BWH","url":"https://gershmanlab.com/experiments/alicia/teaching/experiment/?hitId=3QGHA0EA0JM3KKNCY0PQRLYAHJ3BWH&workerId=A9LSEP71DNP4O&assignmentId=3ATTHHXXWBAUIC425HIV4ACHJJ6IXW&a=XHTA8&tp_a=XHTA8&b=3ATTHHXXWBAUIC425HIV4ACHJJ6IXW&tp_b=3ATTHHXXWBAUIC425HIV4ACHJJ6IXW&c=365198&tp_c=365198","firstResponseHeads":5,"firstResponseTails":5,"secondResponseHeads":5,"secondResponseTails":5,"studentIndex":7,"studentTrueHypers":{"a":2,"b":8},"studentGuess":0.4,"delta":0.09999999999999998,"bonus":0.3,"bonusSoFar":1.05,"totalExamples":20},{"rt":2724,"response":{"heads":"5","tails":"5"},"type":"response","condition":"nonSeqPartial","trueTheta":0.5,"classrooms":["A","B"],"studentTrueClassroom":"A","exampleSet":"first","trial_type":"survey-html-form","trial_index":77,"time_elapsed":644501,"internal_node_id":"0.0-73.0-0.0","params":{"nStudents":24,"maxFlips":30,"completionMinutes":45,"basePay":8,"maxBonus":9,"perTrialBonus":0.5,"perTrialBonusThreshold":0.1,"exampleCost":0.01},"classroomParams":{"A":{"a":1,"b":4},"B":{"a":4,"b":1},"C":{"a":2,"b":8},"D":{"a":8,"b":2}},"conditions":["nonSeqFull","nonSeqPartial","seqNoFeedback","seqFeedback"],"classroomPairings":[["A","B"],["C","D"]],"coinWeights":[0.2,0.5,0.8],"subjectId":"A9LSEP71DNP4O","assignmentId":"3ATTHHXXWBAUIC425HIV4ACHJJ6IXW","hitId":"3QGHA0EA0JM3KKNCY0PQRLYAHJ3BWH","url":"https://gershmanlab.com/experiments/alicia/teaching/experiment/?hitId=3QGHA0EA0JM3KKNCY0PQRLYAHJ3BWH&workerId=A9LSEP71DNP4O&assignmentId=3ATTHHXXWBAUIC425HIV4ACHJJ6IXW&a=XHTA8&tp_a=XHTA8&b=3ATTHHXXWBAUIC425HIV4ACHJJ6IXW&tp_b=3ATTHHXXWBAUIC425HIV4ACHJJ6IXW&c=365198&tp_c=365198","heads":5,"tails":5,"studentIndex":8,"studentTrueHypers":{"a":1,"b":4},"studentGuess":0.4,"delta":0.09999999999999998,"totalExamples":10,"bonus":0.4,"bonusSoFar":1.45},{"rt":3404,"response":{"heads":"1","tails":"8"},"type":"response","condition":"nonSeqFull","trueTheta":0.2,"classrooms":["C","D"],"studentTrueClassroom":"D","exampleSet":"first","trial_type":"survey-html-form","trial_index":83,"time_elapsed":660281,"internal_node_id":"0.0-79.0-0.0","params":{"nStudents":24,"maxFlips":30,"completionMinutes":45,"basePay":8,"maxBonus":9,"perTrialBonus":0.5,"perTrialBonusThreshold":0.1,"exampleCost":0.01},"classroomParams":{"A":{"a":1,"b":4},"B":{"a":4,"b":1},"C":{"a":2,"b":8},"D":{"a":8,"b":2}},"conditions":["nonSeqFull","nonSeqPartial","seqNoFeedback","seqFeedback"],"classroomPairings":[["A","B"],["C","D"]],"coinWeights":[0.2,0.5,0.8],"subjectId":"A9LSEP71DNP4O","assignmentId":"3ATTHHXXWBAUIC425HIV4ACHJJ6IXW","hitId":"3QGHA0EA0JM3KKNCY0PQRLYAHJ3BWH","url":"https://gershmanlab.com/experiments/alicia/teaching/experiment/?hitId=3QGHA0EA0JM3KKNCY0PQRLYAHJ3BWH&workerId=A9LSEP71DNP4O&assignmentId=3ATTHHXXWBAUIC425HIV4ACHJJ6IXW&a=XHTA8&tp_a=XHTA8&b=3ATTHHXXWBAUIC425HIV4ACHJJ6IXW&tp_b=3ATTHHXXWBAUIC425HIV4ACHJJ6IXW&c=365198&tp_c=365198","heads":1,"tails":8,"studentIndex":9,"studentTrueHypers":{"a":8,"b":2},"studentGuess":0.47368421052631576,"delta":0.27368421052631575,"totalExamples":9,"bonus":0,"bonusSoFar":1.45},{"rt":2519,"response":{"heads":"5","tails":"5"},"type":"response","condition":"seqFeedback","trueTheta":0.5,"classrooms":["C","D"],"studentTrueClassroom":"D","exampleSet":"first","trial_type":"survey-html-form","trial_index":89,"time_elapsed":675764,"internal_node_id":"0.0-85.0-0.0","params":{"nStudents":24,"maxFlips":30,"completionMinutes":45,"basePay":8,"maxBonus":9,"perTrialBonus":0.5,"perTrialBonusThreshold":0.1,"exampleCost":0.01},"classroomParams":{"A":{"a":1,"b":4},"B":{"a":4,"b":1},"C":{"a":2,"b":8},"D":{"a":8,"b":2}},"conditions":["nonSeqFull","nonSeqPartial","seqNoFeedback","seqFeedback"],"classroomPairings":[["A","B"],["C","D"]],"coinWeights":[0.2,0.5,0.8],"subjectId":"A9LSEP71DNP4O","assignmentId":"3ATTHHXXWBAUIC425HIV4ACHJJ6IXW","hitId":"3QGHA0EA0JM3KKNCY0PQRLYAHJ3BWH","url":"https://gershmanlab.com/experiments/alicia/teaching/experiment/?hitId=3QGHA0EA0JM3KKNCY0PQRLYAHJ3BWH&workerId=A9LSEP71DNP4O&assignmentId=3ATTHHXXWBAUIC425HIV4ACHJJ6IXW&a=XHTA8&tp_a=XHTA8&b=3ATTHHXXWBAUIC425HIV4ACHJJ6IXW&tp_b=3ATTHHXXWBAUIC425HIV4ACHJJ6IXW&c=365198&tp_c=365198","heads":5,"tails":5,"studentIndex":10,"studentTrueHypers":{"a":8,"b":2},"studentGuess":0.65,"delta":0.15000000000000002,"totalExamples":10,"bonusSoFar":1.45},{"rt":5131,"response":{"heads":"6","tails":"6"},"type":"response","condition":"seqFeedback","trueTheta":0.5,"classrooms":["C","D"],"studentTrueClassroom":"D","exampleSet":"second","trial_type":"survey-html-form","trial_index":93,"time_elapsed":690221,"internal_node_id":"0.0-89.0-0.0","params":{"nStudents":24,"maxFlips":30,"completionMinutes":45,"basePay":8,"maxBonus":9,"perTrialBonus":0.5,"perTrialBonusThreshold":0.1,"exampleCost":0.01},"classroomParams":{"A":{"a":1,"b":4},"B":{"a":4,"b":1},"C":{"a":2,"b":8},"D":{"a":8,"b":2}},"conditions":["nonSeqFull","nonSeqPartial","seqNoFeedback","seqFeedback"],"classroomPairings":[["A","B"],["C","D"]],"coinWeights":[0.2,0.5,0.8],"subjectId":"A9LSEP71DNP4O","assignmentId":"3ATTHHXXWBAUIC425HIV4ACHJJ6IXW","hitId":"3QGHA0EA0JM3KKNCY0PQRLYAHJ3BWH","url":"https://gershmanlab.com/experiments/alicia/teaching/experiment/?hitId=3QGHA0EA0JM3KKNCY0PQRLYAHJ3BWH&workerId=A9LSEP71DNP4O&assignmentId=3ATTHHXXWBAUIC425HIV4ACHJJ6IXW&a=XHTA8&tp_a=XHTA8&b=3ATTHHXXWBAUIC425HIV4ACHJJ6IXW&tp_b=3ATTHHXXWBAUIC425HIV4ACHJJ6IXW&c=365198&tp_c=365198","firstResponseHeads":5,"firstResponseTails":5,"secondResponseHeads":6,"secondResponseTails":6,"studentIndex":10,"studentTrueHypers":{"a":8,"b":2},"studentGuess":0.59375,"delta":0.09375,"bonus":0.28,"bonusSoFar":1.73,"totalExamples":22},{"rt":6832,"response":{"heads":"1","tails":"10"},"type":"response","condition":"nonSeqFull","trueTheta":0.2,"classrooms":["A","B"],"studentTrueClassroom":"B","exampleSet":"first","trial_type":"survey-html-form","trial_index":99,"time_elapsed":709048,"internal_node_id":"0.0-95.0-0.0","params":{"nStudents":24,"maxFlips":30,"completionMinutes":45,"basePay":8,"maxBonus":9,"perTrialBonus":0.5,"perTrialBonusThreshold":0.1,"exampleCost":0.01},"classroomParams":{"A":{"a":1,"b":4},"B":{"a":4,"b":1},"C":{"a":2,"b":8},"D":{"a":8,"b":2}},"conditions":["nonSeqFull","nonSeqPartial","seqNoFeedback","seqFeedback"],"classroomPairings":[["A","B"],["C","D"]],"coinWeights":[0.2,0.5,0.8],"subjectId":"A9LSEP71DNP4O","assignmentId":"3ATTHHXXWBAUIC425HIV4ACHJJ6IXW","hitId":"3QGHA0EA0JM3KKNCY0PQRLYAHJ3BWH","url":"https://gershmanlab.com/experiments/alicia/teaching/experiment/?hitId=3QGHA0EA0JM3KKNCY0PQRLYAHJ3BWH&workerId=A9LSEP71DNP4O&assignmentId=3ATTHHXXWBAUIC425HIV4ACHJJ6IXW&a=XHTA8&tp_a=XHTA8&b=3ATTHHXXWBAUIC425HIV4ACHJJ6IXW&tp_b=3ATTHHXXWBAUIC425HIV4ACHJJ6IXW&c=365198&tp_c=365198","heads":1,"tails":10,"studentIndex":11,"studentTrueHypers":{"a":4,"b":1},"studentGuess":0.3125,"delta":0.11249999999999999,"totalExamples":11,"bonus":0,"bonusSoFar":1.73},{"rt":20406,"response":{"heads":"2","tails":"10"},"type":"response","condition":"seqNoFeedback","trueTheta":0.2,"classrooms":["C","D"],"studentTrueClassroom":"D","exampleSet":"first","trial_type":"survey-html-form","trial_index":105,"time_elapsed":746930,"internal_node_id":"0.0-101.0-0.0","params":{"nStudents":24,"maxFlips":30,"completionMinutes":45,"basePay":8,"maxBonus":9,"perTrialBonus":0.5,"perTrialBonusThreshold":0.1,"exampleCost":0.01},"classroomParams":{"A":{"a":1,"b":4},"B":{"a":4,"b":1},"C":{"a":2,"b":8},"D":{"a":8,"b":2}},"conditions":["nonSeqFull","nonSeqPartial","seqNoFeedback","seqFeedback"],"classroomPairings":[["A","B"],["C","D"]],"coinWeights":[0.2,0.5,0.8],"subjectId":"A9LSEP71DNP4O","assignmentId":"3ATTHHXXWBAUIC425HIV4ACHJJ6IXW","hitId":"3QGHA0EA0JM3KKNCY0PQRLYAHJ3BWH","url":"https://gershmanlab.com/experiments/alicia/teaching/experiment/?hitId=3QGHA0EA0JM3KKNCY0PQRLYAHJ3BWH&workerId=A9LSEP71DNP4O&assignmentId=3ATTHHXXWBAUIC425HIV4ACHJJ6IXW&a=XHTA8&tp_a=XHTA8&b=3ATTHHXXWBAUIC425HIV4ACHJJ6IXW&tp_b=3ATTHHXXWBAUIC425HIV4ACHJJ6IXW&c=365198&tp_c=365198","heads":2,"tails":10,"studentIndex":12,"studentTrueHypers":{"a":8,"b":2},"studentGuess":0.45454545454545453,"delta":0.2545454545454545,"totalExamples":12,"bonusSoFar":1.73},{"rt":7168,"response":{"heads":"1","tails":"10"},"type":"response","condition":"seqNoFeedback","trueTheta":0.2,"classrooms":["C","D"],"studentTrueClassroom":"D","exampleSet":"second","trial_type":"survey-html-form","trial_index":108,"time_elapsed":760851,"internal_node_id":"0.0-104.0-0.0","params":{"nStudents":24,"maxFlips":30,"completionMinutes":45,"basePay":8,"maxBonus":9,"perTrialBonus":0.5,"perTrialBonusThreshold":0.1,"exampleCost":0.01},"classroomParams":{"A":{"a":1,"b":4},"B":{"a":4,"b":1},"C":{"a":2,"b":8},"D":{"a":8,"b":2}},"conditions":["nonSeqFull","nonSeqPartial","seqNoFeedback","seqFeedback"],"classroomPairings":[["A","B"],["C","D"]],"coinWeights":[0.2,0.5,0.8],"subjectId":"A9LSEP71DNP4O","assignmentId":"3ATTHHXXWBAUIC425HIV4ACHJJ6IXW","hitId":"3QGHA0EA0JM3KKNCY0PQRLYAHJ3BWH","url":"https://gershmanlab.com/experiments/alicia/teaching/experiment/?hitId=3QGHA0EA0JM3KKNCY0PQRLYAHJ3BWH&workerId=A9LSEP71DNP4O&assignmentId=3ATTHHXXWBAUIC425HIV4ACHJJ6IXW&a=XHTA8&tp_a=XHTA8&b=3ATTHHXXWBAUIC425HIV4ACHJJ6IXW&tp_b=3ATTHHXXWBAUIC425HIV4ACHJJ6IXW&c=365198&tp_c=365198","firstResponseHeads":2,"firstResponseTails":10,"secondResponseHeads":1,"secondResponseTails":10,"studentIndex":12,"studentTrueHypers":{"a":8,"b":2},"studentGuess":0.3333333333333333,"delta":0.1333333333333333,"bonus":0,"bonusSoFar":1.73,"totalExamples":23},{"rt":8485,"response":{"heads":"8","tails":"1"},"type":"response","condition":"nonSeqPartial","trueTheta":0.8,"classrooms":["A","B"],"studentTrueClassroom":"B","exampleSet":"first","trial_type":"survey-html-form","trial_index":114,"time_elapsed":783393,"internal_node_id":"0.0-110.0-0.0","params":{"nStudents":24,"maxFlips":30,"completionMinutes":45,"basePay":8,"maxBonus":9,"perTrialBonus":0.5,"perTrialBonusThreshold":0.1,"exampleCost":0.01},"classroomParams":{"A":{"a":1,"b":4},"B":{"a":4,"b":1},"C":{"a":2,"b":8},"D":{"a":8,"b":2}},"conditions":["nonSeqFull","nonSeqPartial","seqNoFeedback","seqFeedback"],"classroomPairings":[["A","B"],["C","D"]],"coinWeights":[0.2,0.5,0.8],"subjectId":"A9LSEP71DNP4O","assignmentId":"3ATTHHXXWBAUIC425HIV4ACHJJ6IXW","hitId":"3QGHA0EA0JM3KKNCY0PQRLYAHJ3BWH","url":"https://gershmanlab.com/experiments/alicia/teaching/experiment/?hitId=3QGHA0EA0JM3KKNCY0PQRLYAHJ3BWH&workerId=A9LSEP71DNP4O&assignmentId=3ATTHHXXWBAUIC425HIV4ACHJJ6IXW&a=XHTA8&tp_a=XHTA8&b=3ATTHHXXWBAUIC425HIV4ACHJJ6IXW&tp_b=3ATTHHXXWBAUIC425HIV4ACHJJ6IXW&c=365198&tp_c=365198","heads":8,"tails":1,"studentIndex":13,"studentTrueHypers":{"a":4,"b":1},"studentGuess":0.8571428571428571,"delta":0.05714285714285705,"totalExamples":9,"bonus":0.41,"bonusSoFar":2.14},{"rt":5176,"response":{"heads":"8","tails":"1"},"type":"response","condition":"nonSeqPartial","trueTheta":0.8,"classrooms":["C","D"],"studentTrueClassroom":"C","exampleSet":"first","trial_type":"survey-html-form","trial_index":120,"time_elapsed":804805,"internal_node_id":"0.0-116.0-0.0","params":{"nStudents":24,"maxFlips":30,"completionMinutes":45,"basePay":8,"maxBonus":9,"perTrialBonus":0.5,"perTrialBonusThreshold":0.1,"exampleCost":0.01},"classroomParams":{"A":{"a":1,"b":4},"B":{"a":4,"b":1},"C":{"a":2,"b":8},"D":{"a":8,"b":2}},"conditions":["nonSeqFull","nonSeqPartial","seqNoFeedback","seqFeedback"],"classroomPairings":[["A","B"],["C","D"]],"coinWeights":[0.2,0.5,0.8],"subjectId":"A9LSEP71DNP4O","assignmentId":"3ATTHHXXWBAUIC425HIV4ACHJJ6IXW","hitId":"3QGHA0EA0JM3KKNCY0PQRLYAHJ3BWH","url":"https://gershmanlab.com/experiments/alicia/teaching/experiment/?hitId=3QGHA0EA0JM3KKNCY0PQRLYAHJ3BWH&workerId=A9LSEP71DNP4O&assignmentId=3ATTHHXXWBAUIC425HIV4ACHJJ6IXW&a=XHTA8&tp_a=XHTA8&b=3ATTHHXXWBAUIC425HIV4ACHJJ6IXW&tp_b=3ATTHHXXWBAUIC425HIV4ACHJJ6IXW&c=365198&tp_c=365198","heads":8,"tails":1,"studentIndex":14,"studentTrueHypers":{"a":2,"b":8},"studentGuess":0.5263157894736842,"delta":0.27368421052631586,"totalExamples":9,"bonus":0,"bonusSoFar":2.14},{"rt":4845,"response":{"heads":"10","tails":"1"},"type":"response","condition":"seqNoFeedback","trueTheta":0.8,"classrooms":["C","D"],"studentTrueClassroom":"C","exampleSet":"first","trial_type":"survey-html-form","trial_index":126,"time_elapsed":823497,"internal_node_id":"0.0-122.0-0.0","params":{"nStudents":24,"maxFlips":30,"completionMinutes":45,"basePay":8,"maxBonus":9,"perTrialBonus":0.5,"perTrialBonusThreshold":0.1,"exampleCost":0.01},"classroomParams":{"A":{"a":1,"b":4},"B":{"a":4,"b":1},"C":{"a":2,"b":8},"D":{"a":8,"b":2}},"conditions":["nonSeqFull","nonSeqPartial","seqNoFeedback","seqFeedback"],"classroomPairings":[["A","B"],["C","D"]],"coinWeights":[0.2,0.5,0.8],"subjectId":"A9LSEP71DNP4O","assignmentId":"3ATTHHXXWBAUIC425HIV4ACHJJ6IXW","hitId":"3QGHA0EA0JM3KKNCY0PQRLYAHJ3BWH","url":"https://gershmanlab.com/experiments/alicia/teaching/experiment/?hitId=3QGHA0EA0JM3KKNCY0PQRLYAHJ3BWH&workerId=A9LSEP71DNP4O&assignmentId=3ATTHHXXWBAUIC425HIV4ACHJJ6IXW&a=XHTA8&tp_a=XHTA8&b=3ATTHHXXWBAUIC425HIV4ACHJJ6IXW&tp_b=3ATTHHXXWBAUIC425HIV4ACHJJ6IXW&c=365198&tp_c=365198","heads":10,"tails":1,"studentIndex":15,"studentTrueHypers":{"a":2,"b":8},"studentGuess":0.5714285714285714,"delta":0.22857142857142865,"totalExamples":11,"bonusSoFar":2.14},{"rt":5163,"response":{"heads":"12","tails":"1"},"type":"response","condition":"seqNoFeedback","trueTheta":0.8,"classrooms":["C","D"],"studentTrueClassroom":"C","exampleSet":"second","trial_type":"survey-html-form","trial_index":129,"time_elapsed":835165,"internal_node_id":"0.0-125.0-0.0","params":{"nStudents":24,"maxFlips":30,"completionMinutes":45,"basePay":8,"maxBonus":9,"perTrialBonus":0.5,"perTrialBonusThreshold":0.1,"exampleCost":0.01},"classroomParams":{"A":{"a":1,"b":4},"B":{"a":4,"b":1},"C":{"a":2,"b":8},"D":{"a":8,"b":2}},"conditions":["nonSeqFull","nonSeqPartial","seqNoFeedback","seqFeedback"],"classroomPairings":[["A","B"],["C","D"]],"coinWeights":[0.2,0.5,0.8],"subjectId":"A9LSEP71DNP4O","assignmentId":"3ATTHHXXWBAUIC425HIV4ACHJJ6IXW","hitId":"3QGHA0EA0JM3KKNCY0PQRLYAHJ3BWH","url":"https://gershmanlab.com/experiments/alicia/teaching/experiment/?hitId=3QGHA0EA0JM3KKNCY0PQRLYAHJ3BWH&workerId=A9LSEP71DNP4O&assignmentId=3ATTHHXXWBAUIC425HIV4ACHJJ6IXW&a=XHTA8&tp_a=XHTA8&b=3ATTHHXXWBAUIC425HIV4ACHJJ6IXW&tp_b=3ATTHHXXWBAUIC425HIV4ACHJJ6IXW&c=365198&tp_c=365198","firstResponseHeads":10,"firstResponseTails":1,"secondResponseHeads":12,"secondResponseTails":1,"studentIndex":15,"studentTrueHypers":{"a":2,"b":8},"studentGuess":0.7058823529411765,"delta":0.09411764705882353,"bonus":0.26,"bonusSoFar":2.4,"totalExamples":24},{"rt":4708,"response":{"heads":"10","tails":"10"},"type":"response","condition":"nonSeqFull","trueTheta":0.5,"classrooms":["A","B"],"studentTrueClassroom":"A","exampleSet":"first","trial_type":"survey-html-form","trial_index":135,"time_elapsed":853535,"internal_node_id":"0.0-131.0-0.0","params":{"nStudents":24,"maxFlips":30,"completionMinutes":45,"basePay":8,"maxBonus":9,"perTrialBonus":0.5,"perTrialBonusThreshold":0.1,"exampleCost":0.01},"classroomParams":{"A":{"a":1,"b":4},"B":{"a":4,"b":1},"C":{"a":2,"b":8},"D":{"a":8,"b":2}},"conditions":["nonSeqFull","nonSeqPartial","seqNoFeedback","seqFeedback"],"classroomPairings":[["A","B"],["C","D"]],"coinWeights":[0.2,0.5,0.8],"subjectId":"A9LSEP71DNP4O","assignmentId":"3ATTHHXXWBAUIC425HIV4ACHJJ6IXW","hitId":"3QGHA0EA0JM3KKNCY0PQRLYAHJ3BWH","url":"https://gershmanlab.com/experiments/alicia/teaching/experiment/?hitId=3QGHA0EA0JM3KKNCY0PQRLYAHJ3BWH&workerId=A9LSEP71DNP4O&assignmentId=3ATTHHXXWBAUIC425HIV4ACHJJ6IXW&a=XHTA8&tp_a=XHTA8&b=3ATTHHXXWBAUIC425HIV4ACHJJ6IXW&tp_b=3ATTHHXXWBAUIC425HIV4ACHJJ6IXW&c=365198&tp_c=365198","heads":10,"tails":10,"studentIndex":16,"studentTrueHypers":{"a":1,"b":4},"studentGuess":0.44,"delta":0.06,"totalExamples":20,"bonus":0.3,"bonusSoFar":2.7},{"rt":5403,"response":{"heads":"12","tails":"0"},"type":"response","condition":"seqNoFeedback","trueTheta":0.8,"classrooms":["A","B"],"studentTrueClassroom":"A","exampleSet":"first","trial_type":"survey-html-form","trial_index":141,"time_elapsed":872769,"internal_node_id":"0.0-137.0-0.0","params":{"nStudents":24,"maxFlips":30,"completionMinutes":45,"basePay":8,"maxBonus":9,"perTrialBonus":0.5,"perTrialBonusThreshold":0.1,"exampleCost":0.01},"classroomParams":{"A":{"a":1,"b":4},"B":{"a":4,"b":1},"C":{"a":2,"b":8},"D":{"a":8,"b":2}},"conditions":["nonSeqFull","nonSeqPartial","seqNoFeedback","seqFeedback"],"classroomPairings":[["A","B"],["C","D"]],"coinWeights":[0.2,0.5,0.8],"subjectId":"A9LSEP71DNP4O","assignmentId":"3ATTHHXXWBAUIC425HIV4ACHJJ6IXW","hitId":"3QGHA0EA0JM3KKNCY0PQRLYAHJ3BWH","url":"https://gershmanlab.com/experiments/alicia/teaching/experiment/?hitId=3QGHA0EA0JM3KKNCY0PQRLYAHJ3BWH&workerId=A9LSEP71DNP4O&assignmentId=3ATTHHXXWBAUIC425HIV4ACHJJ6IXW&a=XHTA8&tp_a=XHTA8&b=3ATTHHXXWBAUIC425HIV4ACHJJ6IXW&tp_b=3ATTHHXXWBAUIC425HIV4ACHJJ6IXW&c=365198&tp_c=365198","heads":12,"tails":0,"studentIndex":17,"studentTrueHypers":{"a":1,"b":4},"studentGuess":0.7647058823529411,"delta":0.03529411764705892,"totalExamples":12,"bonusSoFar":2.7},{"rt":5280,"response":{"heads":"12","tails":"0"},"type":"response","condition":"seqNoFeedback","trueTheta":0.8,"classrooms":["A","B"],"studentTrueClassroom":"A","exampleSet":"second","trial_type":"survey-html-form","trial_index":144,"time_elapsed":883553,"internal_node_id":"0.0-140.0-0.0","params":{"nStudents":24,"maxFlips":30,"completionMinutes":45,"basePay":8,"maxBonus":9,"perTrialBonus":0.5,"perTrialBonusThreshold":0.1,"exampleCost":0.01},"classroomParams":{"A":{"a":1,"b":4},"B":{"a":4,"b":1},"C":{"a":2,"b":8},"D":{"a":8,"b":2}},"conditions":["nonSeqFull","nonSeqPartial","seqNoFeedback","seqFeedback"],"classroomPairings":[["A","B"],["C","D"]],"coinWeights":[0.2,0.5,0.8],"subjectId":"A9LSEP71DNP4O","assignmentId":"3ATTHHXXWBAUIC425HIV4ACHJJ6IXW","hitId":"3QGHA0EA0JM3KKNCY0PQRLYAHJ3BWH","url":"https://gershmanlab.com/experiments/alicia/teaching/experiment/?hitId=3QGHA0EA0JM3KKNCY0PQRLYAHJ3BWH&workerId=A9LSEP71DNP4O&assignmentId=3ATTHHXXWBAUIC425HIV4ACHJJ6IXW&a=XHTA8&tp_a=XHTA8&b=3ATTHHXXWBAUIC425HIV4ACHJJ6IXW&tp_b=3ATTHHXXWBAUIC425HIV4ACHJJ6IXW&c=365198&tp_c=365198","firstResponseHeads":12,"firstResponseTails":0,"secondResponseHeads":12,"secondResponseTails":0,"studentIndex":17,"studentTrueHypers":{"a":1,"b":4},"studentGuess":0.8620689655172413,"delta":0.06206896551724128,"bonus":0.26,"bonusSoFar":2.96,"totalExamples":24},{"rt":4620,"response":{"heads":"8","tails":"0"},"type":"response","condition":"seqFeedback","trueTheta":0.8,"classrooms":["C","D"],"studentTrueClassroom":"C","exampleSet":"first","trial_type":"survey-html-form","trial_index":150,"time_elapsed":900205,"internal_node_id":"0.0-146.0-0.0","params":{"nStudents":24,"maxFlips":30,"completionMinutes":45,"basePay":8,"maxBonus":9,"perTrialBonus":0.5,"perTrialBonusThreshold":0.1,"exampleCost":0.01},"classroomParams":{"A":{"a":1,"b":4},"B":{"a":4,"b":1},"C":{"a":2,"b":8},"D":{"a":8,"b":2}},"conditions":["nonSeqFull","nonSeqPartial","seqNoFeedback","seqFeedback"],"classroomPairings":[["A","B"],["C","D"]],"coinWeights":[0.2,0.5,0.8],"subjectId":"A9LSEP71DNP4O","assignmentId":"3ATTHHXXWBAUIC425HIV4ACHJJ6IXW","hitId":"3QGHA0EA0JM3KKNCY0PQRLYAHJ3BWH","url":"https://gershmanlab.com/experiments/alicia/teaching/experiment/?hitId=3QGHA0EA0JM3KKNCY0PQRLYAHJ3BWH&workerId=A9LSEP71DNP4O&assignmentId=3ATTHHXXWBAUIC425HIV4ACHJJ6IXW&a=XHTA8&tp_a=XHTA8&b=3ATTHHXXWBAUIC425HIV4ACHJJ6IXW&tp_b=3ATTHHXXWBAUIC425HIV4ACHJJ6IXW&c=365198&tp_c=365198","heads":8,"tails":0,"studentIndex":18,"studentTrueHypers":{"a":2,"b":8},"studentGuess":0.5555555555555556,"delta":0.24444444444444446,"totalExamples":8,"bonusSoFar":2.96},{"rt":3738,"response":{"heads":"12","tails":"0"},"type":"response","condition":"seqFeedback","trueTheta":0.8,"classrooms":["C","D"],"studentTrueClassroom":"C","exampleSet":"second","trial_type":"survey-html-form","trial_index":154,"time_elapsed":912160,"internal_node_id":"0.0-150.0-0.0","params":{"nStudents":24,"maxFlips":30,"completionMinutes":45,"basePay":8,"maxBonus":9,"perTrialBonus":0.5,"perTrialBonusThreshold":0.1,"exampleCost":0.01},"classroomParams":{"A":{"a":1,"b":4},"B":{"a":4,"b":1},"C":{"a":2,"b":8},"D":{"a":8,"b":2}},"conditions":["nonSeqFull","nonSeqPartial","seqNoFeedback","seqFeedback"],"classroomPairings":[["A","B"],["C","D"]],"coinWeights":[0.2,0.5,0.8],"subjectId":"A9LSEP71DNP4O","assignmentId":"3ATTHHXXWBAUIC425HIV4ACHJJ6IXW","hitId":"3QGHA0EA0JM3KKNCY0PQRLYAHJ3BWH","url":"https://gershmanlab.com/experiments/alicia/teaching/experiment/?hitId=3QGHA0EA0JM3KKNCY0PQRLYAHJ3BWH&workerId=A9LSEP71DNP4O&assignmentId=3ATTHHXXWBAUIC425HIV4ACHJJ6IXW&a=XHTA8&tp_a=XHTA8&b=3ATTHHXXWBAUIC425HIV4ACHJJ6IXW&tp_b=3ATTHHXXWBAUIC425HIV4ACHJJ6IXW&c=365198&tp_c=365198","firstResponseHeads":8,"firstResponseTails":0,"secondResponseHeads":12,"secondResponseTails":0,"studentIndex":18,"studentTrueHypers":{"a":2,"b":8},"studentGuess":0.7333333333333333,"delta":0.06666666666666676,"bonus":0.3,"bonusSoFar":3.26,"totalExamples":20},{"rt":6775,"response":{"heads":"15","tails":"15"},"type":"response","condition":"seqNoFeedback","trueTheta":0.5,"classrooms":["A","B"],"studentTrueClassroom":"B","exampleSet":"first","trial_type":"survey-html-form","trial_index":160,"time_elapsed":933492,"internal_node_id":"0.0-156.0-0.0","params":{"nStudents":24,"maxFlips":30,"completionMinutes":45,"basePay":8,"maxBonus":9,"perTrialBonus":0.5,"perTrialBonusThreshold":0.1,"exampleCost":0.01},"classroomParams":{"A":{"a":1,"b":4},"B":{"a":4,"b":1},"C":{"a":2,"b":8},"D":{"a":8,"b":2}},"conditions":["nonSeqFull","nonSeqPartial","seqNoFeedback","seqFeedback"],"classroomPairings":[["A","B"],["C","D"]],"coinWeights":[0.2,0.5,0.8],"subjectId":"A9LSEP71DNP4O","assignmentId":"3ATTHHXXWBAUIC425HIV4ACHJJ6IXW","hitId":"3QGHA0EA0JM3KKNCY0PQRLYAHJ3BWH","url":"https://gershmanlab.com/experiments/alicia/teaching/experiment/?hitId=3QGHA0EA0JM3KKNCY0PQRLYAHJ3BWH&workerId=A9LSEP71DNP4O&assignmentId=3ATTHHXXWBAUIC425HIV4ACHJJ6IXW&a=XHTA8&tp_a=XHTA8&b=3ATTHHXXWBAUIC425HIV4ACHJJ6IXW&tp_b=3ATTHHXXWBAUIC425HIV4ACHJJ6IXW&c=365198&tp_c=365198","heads":15,"tails":15,"studentIndex":19,"studentTrueHypers":{"a":4,"b":1},"studentGuess":0.5428571428571428,"delta":0.042857142857142816,"totalExamples":30,"bonusSoFar":3.26},{"rt":7815,"response":{"heads":"5","tails":"5"},"type":"response","condition":"seqNoFeedback","trueTheta":0.5,"classrooms":["A","B"],"studentTrueClassroom":"B","exampleSet":"second","trial_type":"survey-html-form","trial_index":163,"time_elapsed":948561,"internal_node_id":"0.0-159.0-0.0","params":{"nStudents":24,"maxFlips":30,"completionMinutes":45,"basePay":8,"maxBonus":9,"perTrialBonus":0.5,"perTrialBonusThreshold":0.1,"exampleCost":0.01},"classroomParams":{"A":{"a":1,"b":4},"B":{"a":4,"b":1},"C":{"a":2,"b":8},"D":{"a":8,"b":2}},"conditions":["nonSeqFull","nonSeqPartial","seqNoFeedback","seqFeedback"],"classroomPairings":[["A","B"],["C","D"]],"coinWeights":[0.2,0.5,0.8],"subjectId":"A9LSEP71DNP4O","assignmentId":"3ATTHHXXWBAUIC425HIV4ACHJJ6IXW","hitId":"3QGHA0EA0JM3KKNCY0PQRLYAHJ3BWH","url":"https://gershmanlab.com/experiments/alicia/teaching/experiment/?hitId=3QGHA0EA0JM3KKNCY0PQRLYAHJ3BWH&workerId=A9LSEP71DNP4O&assignmentId=3ATTHHXXWBAUIC425HIV4ACHJJ6IXW&a=XHTA8&tp_a=XHTA8&b=3ATTHHXXWBAUIC425HIV4ACHJJ6IXW&tp_b=3ATTHHXXWBAUIC425HIV4ACHJJ6IXW&c=365198&tp_c=365198","firstResponseHeads":15,"firstResponseTails":15,"secondResponseHeads":5,"secondResponseTails":5,"studentIndex":19,"studentTrueHypers":{"a":4,"b":1},"studentGuess":0.5333333333333333,"delta":0.033333333333333326,"bonus":0.1,"bonusSoFar":3.36,"totalExamples":40},{"rt":2569,"response":{"heads":"10","tails":"0"},"type":"response","condition":"nonSeqPartial","trueTheta":0.2,"classrooms":["C","D"],"studentTrueClassroom":"C","exampleSet":"first","trial_type":"survey-html-form","trial_index":169,"time_elapsed":965420,"internal_node_id":"0.0-165.0-0.0","params":{"nStudents":24,"maxFlips":30,"completionMinutes":45,"basePay":8,"maxBonus":9,"perTrialBonus":0.5,"perTrialBonusThreshold":0.1,"exampleCost":0.01},"classroomParams":{"A":{"a":1,"b":4},"B":{"a":4,"b":1},"C":{"a":2,"b":8},"D":{"a":8,"b":2}},"conditions":["nonSeqFull","nonSeqPartial","seqNoFeedback","seqFeedback"],"classroomPairings":[["A","B"],["C","D"]],"coinWeights":[0.2,0.5,0.8],"subjectId":"A9LSEP71DNP4O","assignmentId":"3ATTHHXXWBAUIC425HIV4ACHJJ6IXW","hitId":"3QGHA0EA0JM3KKNCY0PQRLYAHJ3BWH","url":"https://gershmanlab.com/experiments/alicia/teaching/experiment/?hitId=3QGHA0EA0JM3KKNCY0PQRLYAHJ3BWH&workerId=A9LSEP71DNP4O&assignmentId=3ATTHHXXWBAUIC425HIV4ACHJJ6IXW&a=XHTA8&tp_a=XHTA8&b=3ATTHHXXWBAUIC425HIV4ACHJJ6IXW&tp_b=3ATTHHXXWBAUIC425HIV4ACHJJ6IXW&c=365198&tp_c=365198","heads":10,"tails":0,"studentIndex":20,"studentTrueHypers":{"a":2,"b":8},"studentGuess":0.6,"delta":0.39999999999999997,"totalExamples":10,"bonus":0,"bonusSoFar":3.36},{"rt":5142,"response":{"heads":"1","tails":"1"},"type":"response","condition":"nonSeqPartial","trueTheta":0.5,"classrooms":["C","D"],"studentTrueClassroom":"C","exampleSet":"first","trial_type":"survey-html-form","trial_index":175,"time_elapsed":983688,"internal_node_id":"0.0-171.0-0.0","params":{"nStudents":24,"maxFlips":30,"completionMinutes":45,"basePay":8,"maxBonus":9,"perTrialBonus":0.5,"perTrialBonusThreshold":0.1,"exampleCost":0.01},"classroomParams":{"A":{"a":1,"b":4},"B":{"a":4,"b":1},"C":{"a":2,"b":8},"D":{"a":8,"b":2}},"conditions":["nonSeqFull","nonSeqPartial","seqNoFeedback","seqFeedback"],"classroomPairings":[["A","B"],["C","D"]],"coinWeights":[0.2,0.5,0.8],"subjectId":"A9LSEP71DNP4O","assignmentId":"3ATTHHXXWBAUIC425HIV4ACHJJ6IXW","hitId":"3QGHA0EA0JM3KKNCY0PQRLYAHJ3BWH","url":"https://gershmanlab.com/experiments/alicia/teaching/experiment/?hitId=3QGHA0EA0JM3KKNCY0PQRLYAHJ3BWH&workerId=A9LSEP71DNP4O&assignmentId=3ATTHHXXWBAUIC425HIV4ACHJJ6IXW&a=XHTA8&tp_a=XHTA8&b=3ATTHHXXWBAUIC425HIV4ACHJJ6IXW&tp_b=3ATTHHXXWBAUIC425HIV4ACHJJ6IXW&c=365198&tp_c=365198","heads":1,"tails":1,"studentIndex":21,"studentTrueHypers":{"a":2,"b":8},"studentGuess":0.25,"delta":0.25,"totalExamples":2,"bonus":0,"bonusSoFar":3.36},{"rt":3126,"response":{"heads":"5","tails":"5"},"type":"response","condition":"nonSeqFull","trueTheta":0.5,"classrooms":["C","D"],"studentTrueClassroom":"C","exampleSet":"first","trial_type":"survey-html-form","trial_index":181,"time_elapsed":999887,"internal_node_id":"0.0-177.0-0.0","params":{"nStudents":24,"maxFlips":30,"completionMinutes":45,"basePay":8,"maxBonus":9,"perTrialBonus":0.5,"perTrialBonusThreshold":0.1,"exampleCost":0.01},"classroomParams":{"A":{"a":1,"b":4},"B":{"a":4,"b":1},"C":{"a":2,"b":8},"D":{"a":8,"b":2}},"conditions":["nonSeqFull","nonSeqPartial","seqNoFeedback","seqFeedback"],"classroomPairings":[["A","B"],["C","D"]],"coinWeights":[0.2,0.5,0.8],"subjectId":"A9LSEP71DNP4O","assignmentId":"3ATTHHXXWBAUIC425HIV4ACHJJ6IXW","hitId":"3QGHA0EA0JM3KKNCY0PQRLYAHJ3BWH","url":"https://gershmanlab.com/experiments/alicia/teaching/experiment/?hitId=3QGHA0EA0JM3KKNCY0PQRLYAHJ3BWH&workerId=A9LSEP71DNP4O&assignmentId=3ATTHHXXWBAUIC425HIV4ACHJJ6IXW&a=XHTA8&tp_a=XHTA8&b=3ATTHHXXWBAUIC425HIV4ACHJJ6IXW&tp_b=3ATTHHXXWBAUIC425HIV4ACHJJ6IXW&c=365198&tp_c=365198","heads":5,"tails":5,"studentIndex":22,"studentTrueHypers":{"a":2,"b":8},"studentGuess":0.35,"delta":0.15000000000000002,"totalExamples":10,"bonus":0,"bonusSoFar":3.36},{"rt":2487,"response":{"heads":"12","tails":"0"},"type":"response","condition":"seqNoFeedback","trueTheta":0.2,"classrooms":["A","B"],"studentTrueClassroom":"A","exampleSet":"first","trial_type":"survey-html-form","trial_index":187,"time_elapsed":1013385,"internal_node_id":"0.0-183.0-0.0","params":{"nStudents":24,"maxFlips":30,"completionMinutes":45,"basePay":8,"maxBonus":9,"perTrialBonus":0.5,"perTrialBonusThreshold":0.1,"exampleCost":0.01},"classroomParams":{"A":{"a":1,"b":4},"B":{"a":4,"b":1},"C":{"a":2,"b":8},"D":{"a":8,"b":2}},"conditions":["nonSeqFull","nonSeqPartial","seqNoFeedback","seqFeedback"],"classroomPairings":[["A","B"],["C","D"]],"coinWeights":[0.2,0.5,0.8],"subjectId":"A9LSEP71DNP4O","assignmentId":"3ATTHHXXWBAUIC425HIV4ACHJJ6IXW","hitId":"3QGHA0EA0JM3KKNCY0PQRLYAHJ3BWH","url":"https://gershmanlab.com/experiments/alicia/teaching/experiment/?hitId=3QGHA0EA0JM3KKNCY0PQRLYAHJ3BWH&workerId=A9LSEP71DNP4O&assignmentId=3ATTHHXXWBAUIC425HIV4ACHJJ6IXW&a=XHTA8&tp_a=XHTA8&b=3ATTHHXXWBAUIC425HIV4ACHJJ6IXW&tp_b=3ATTHHXXWBAUIC425HIV4ACHJJ6IXW&c=365198&tp_c=365198","heads":12,"tails":0,"studentIndex":23,"studentTrueHypers":{"a":1,"b":4},"studentGuess":0.7647058823529411,"delta":0.5647058823529412,"totalExamples":12,"bonusSoFar":3.36},{"rt":5496,"response":{"heads":"0","tails":"15"},"type":"response","condition":"seqNoFeedback","trueTheta":0.2,"classrooms":["A","B"],"studentTrueClassroom":"A","exampleSet":"second","trial_type":"survey-html-form","trial_index":190,"time_elapsed":1026634,"internal_node_id":"0.0-186.0-0.0","params":{"nStudents":24,"maxFlips":30,"completionMinutes":45,"basePay":8,"maxBonus":9,"perTrialBonus":0.5,"perTrialBonusThreshold":0.1,"exampleCost":0.01},"classroomParams":{"A":{"a":1,"b":4},"B":{"a":4,"b":1},"C":{"a":2,"b":8},"D":{"a":8,"b":2}},"conditions":["nonSeqFull","nonSeqPartial","seqNoFeedback","seqFeedback"],"classroomPairings":[["A","B"],["C","D"]],"coinWeights":[0.2,0.5,0.8],"subjectId":"A9LSEP71DNP4O","assignmentId":"3ATTHHXXWBAUIC425HIV4ACHJJ6IXW","hitId":"3QGHA0EA0JM3KKNCY0PQRLYAHJ3BWH","url":"https://gershmanlab.com/experiments/alicia/teaching/experiment/?hitId=3QGHA0EA0JM3KKNCY0PQRLYAHJ3BWH&workerId=A9LSEP71DNP4O&assignmentId=3ATTHHXXWBAUIC425HIV4ACHJJ6IXW&a=XHTA8&tp_a=XHTA8&b=3ATTHHXXWBAUIC425HIV4ACHJJ6IXW&tp_b=3ATTHHXXWBAUIC425HIV4ACHJJ6IXW&c=365198&tp_c=365198","firstResponseHeads":12,"firstResponseTails":0,"secondResponseHeads":0,"secondResponseTails":15,"studentIndex":23,"studentTrueHypers":{"a":1,"b":4},"studentGuess":0.40625,"delta":0.20625,"bonus":0,"bonusSoFar":3.36,"totalExamples":27},{"rt":9750,"response":{"gender":"male","age":"36","understood":"yes","comments":"None"},"type":"response","trial_type":"survey-html-form","trial_index":194,"time_elapsed":1044852,"internal_node_id":"0.0-191.0","params":{"nStudents":24,"maxFlips":30,"completionMinutes":45,"basePay":8,"maxBonus":9,"perTrialBonus":0.5,"perTrialBonusThreshold":0.1,"exampleCost":0.01},"classroomParams":{"A":{"a":1,"b":4},"B":{"a":4,"b":1},"C":{"a":2,"b":8},"D":{"a":8,"b":2}},"conditions":["nonSeqFull","nonSeqPartial","seqNoFeedback","seqFeedback"],"classroomPairings":[["A","B"],["C","D"]],"coinWeights":[0.2,0.5,0.8],"subjectId":"A9LSEP71DNP4O","assignmentId":"3ATTHHXXWBAUIC425HIV4ACHJJ6IXW","hitId":"3QGHA0EA0JM3KKNCY0PQRLYAHJ3BWH","url":"https://gershmanlab.com/experiments/alicia/teaching/experiment/?hitId=3QGHA0EA0JM3KKNCY0PQRLYAHJ3BWH&workerId=A9LSEP71DNP4O&assignmentId=3ATTHHXXWBAUIC425HIV4ACHJJ6IXW&a=XHTA8&tp_a=XHTA8&b=3ATTHHXXWBAUIC425HIV4ACHJJ6IXW&tp_b=3ATTHHXXWBAUIC425HIV4ACHJJ6IXW&c=365198&tp_c=365198","totalBonus":3.36}]