[{"rt":66462,"response":{"heads":"1","tails":"3"},"type":"response","condition":"seqNoFeedback","trueTheta":0.2,"classrooms":["A","B"],"studentTrueClassroom":"A","exampleSet":"first","trial_type":"survey-html-form","trial_index":49,"time_elapsed":1669121,"internal_node_id":"0.0-6.0-0.0","params":{"nStudents":24,"maxFlips":30,"completionMinutes":45,"basePay":8,"maxBonus":9,"perTrialBonus":0.5,"perTrialBonusThreshold":0.1,"exampleCost":0.01},"classroomParams":{"A":{"a":1,"b":4},"B":{"a":4,"b":1},"C":{"a":2,"b":8},"D":{"a":8,"b":2}},"conditions":["nonSeqFull","nonSeqPartial","seqNoFeedback","seqFeedback"],"classroomPairings":[["A","B"],["C","D"]],"coinWeights":[0.2,0.5,0.8],"subjectId":"AKNQ0ZU1MXN1T","assignmentId":"37M28K1J0RZEHAGFCPBHW3GJVDMJA5","hitId":"3H6W48L9F4B5OEOMH57RM53ZYNHWPM","url":"https://gershmanlab.com/experiments/alicia/teaching/experiment/?hitId=3H6W48L9F4B5OEOMH57RM53ZYNHWPM&workerId=AKNQ0ZU1MXN1T&assignmentId=37M28K1J0RZEHAGFCPBHW3GJVDMJA5&a=J8M78&tp_a=J8M78&b=37M28K1J0RZEHAGFCPBHW3GJVDMJA5&tp_b=37M28K1J0RZEHAGFCPBHW3GJVDMJA5&c=365198&tp_c=365198","heads":1,"tails":3,"studentIndex":0,"studentTrueHypers":{"a":1,"b":4},"studentGuess":0.2222222222222222,"delta":0.0222222222222222,"totalExamples":4,"bonusSoFar":0},{"rt":22348,"response":{"heads":"4","tails":"1"},"type":"response","condition":"seqNoFeedback","trueTheta":0.2,"classrooms":["A","B"],"studentTrueClassroom":"A","exampleSet":"second","trial_type":"survey-html-form","trial_index":52,"time_elapsed":1698975,"internal_node_id":"0.0-9.0-0.0","params":{"nStudents":24,"maxFlips":30,"completionMinutes":45,"basePay":8,"maxBonus":9,"perTrialBonus":0.5,"perTrialBonusThreshold":0.1,"exampleCost":0.01},"classroomParams":{"A":{"a":1,"b":4},"B":{"a":4,"b":1},"C":{"a":2,"b":8},"D":{"a":8,"b":2}},"conditions":["nonSeqFull","nonSeqPartial","seqNoFeedback","seqFeedback"],"classroomPairings":[["A","B"],["C","D"]],"coinWeights":[0.2,0.5,0.8],"subjectId":"AKNQ0ZU1MXN1T","assignmentId":"37M28K1J0RZEHAGFCPBHW3GJVDMJA5","hitId":"3H6W48L9F4B5OEOMH57RM53ZYNHWPM","url":"https://gershmanlab.com/experiments/alicia/teaching/experiment/?hitId=3H6W48L9F4B5OEOMH57RM53ZYNHWPM&workerId=AKNQ0ZU1MXN1T&assignmentId=37M28K1J0RZEHAGFCPBHW3GJVDMJA5&a=J8M78&tp_a=J8M78&b=37M28K1J0RZEHAGFCPBHW3GJVDMJA5&tp_b=37M28K1J0RZEHAGFCPBHW3GJVDMJA5&c=365198&tp_c=365198","firstResponseHeads":1,"firstResponseTails":3,"secondResponseHeads":4,"secondResponseTails":1,"studentIndex":0,"studentTrueHypers":{"a":1,"b":4},"studentGuess":0.42857142857142855,"delta":0.22857142857142854,"bonus":0,"bonusSoFar":0,"totalExamples":9},{"rt":15856,"response":{"heads":"2","tails":"0"},"type":"response","condition":"nonSeqFull","trueTheta":0.8,"classrooms":["C","D"],"studentTrueClassroom":"C","exampleSet":"first","trial_type":"survey-html-form","trial_index":58,"time_elapsed":1823744,"internal_node_id":"0.0-15.0-0.0","params":{"nStudents":24,"maxFlips":30,"completionMinutes":45,"basePay":8,"maxBonus":9,"perTrialBonus":0.5,"perTrialBonusThreshold":0.1,"exampleCost":0.01},"classroomParams":{"A":{"a":1,"b":4},"B":{"a":4,"b":1},"C":{"a":2,"b":8},"D":{"a":8,"b":2}},"conditions":["nonSeqFull","nonSeqPartial","seqNoFeedback","seqFeedback"],"classroomPairings":[["A","B"],["C","D"]],"coinWeights":[0.2,0.5,0.8],"subjectId":"AKNQ0ZU1MXN1T","assignmentId":"37M28K1J0RZEHAGFCPBHW3GJVDMJA5","hitId":"3H6W48L9F4B5OEOMH57RM53ZYNHWPM","url":"https://gershmanlab.com/experiments/alicia/teaching/experiment/?hitId=3H6W48L9F4B5OEOMH57RM53ZYNHWPM&workerId=AKNQ0ZU1MXN1T&assignmentId=37M28K1J0RZEHAGFCPBHW3GJVDMJA5&a=J8M78&tp_a=J8M78&b=37M28K1J0RZEHAGFCPBHW3GJVDMJA5&tp_b=37M28K1J0RZEHAGFCPBHW3GJVDMJA5&c=365198&tp_c=365198","heads":2,"tails":0,"studentIndex":1,"studentTrueHypers":{"a":2,"b":8},"studentGuess":0.3333333333333333,"delta":0.46666666666666673,"totalExamples":2,"bonus":0,"bonusSoFar":0},{"rt":22503,"response":{"heads":"0","tails":"2"},"type":"response","condition":"seqFeedback","trueTheta":0.2,"classrooms":["C","D"],"studentTrueClassroom":"C","exampleSet":"first","trial_type":"survey-html-form","trial_index":64,"time_elapsed":3309052,"internal_node_id":"0.0-21.0-0.0","params":{"nStudents":24,"maxFlips":30,"completionMinutes":45,"basePay":8,"maxBonus":9,"perTrialBonus":0.5,"perTrialBonusThreshold":0.1,"exampleCost":0.01},"classroomParams":{"A":{"a":1,"b":4},"B":{"a":4,"b":1},"C":{"a":2,"b":8},"D":{"a":8,"b":2}},"conditions":["nonSeqFull","nonSeqPartial","seqNoFeedback","seqFeedback"],"classroomPairings":[["A","B"],["C","D"]],"coinWeights":[0.2,0.5,0.8],"subjectId":"AKNQ0ZU1MXN1T","assignmentId":"37M28K1J0RZEHAGFCPBHW3GJVDMJA5","hitId":"3H6W48L9F4B5OEOMH57RM53ZYNHWPM","url":"https://gershmanlab.com/experiments/alicia/teaching/experiment/?hitId=3H6W48L9F4B5OEOMH57RM53ZYNHWPM&workerId=AKNQ0ZU1MXN1T&assignmentId=37M28K1J0RZEHAGFCPBHW3GJVDMJA5&a=J8M78&tp_a=J8M78&b=37M28K1J0RZEHAGFCPBHW3GJVDMJA5&tp_b=37M28K1J0RZEHAGFCPBHW3GJVDMJA5&c=365198&tp_c=365198","heads":0,"tails":2,"studentIndex":2,"studentTrueHypers":{"a":2,"b":8},"studentGuess":0.16666666666666666,"delta":0.033333333333333354,"totalExamples":2,"bonusSoFar":0},{"rt":6502,"response":{"heads":"0","tails":"1"},"type":"response","condition":"seqFeedback","trueTheta":0.2,"classrooms":["C","D"],"studentTrueClassroom":"C","exampleSet":"second","trial_type":"survey-html-form","trial_index":68,"time_elapsed":3328563,"internal_node_id":"0.0-25.0-0.0","params":{"nStudents":24,"maxFlips":30,"completionMinutes":45,"basePay":8,"maxBonus":9,"perTrialBonus":0.5,"perTrialBonusThreshold":0.1,"exampleCost":0.01},"classroomParams":{"A":{"a":1,"b":4},"B":{"a":4,"b":1},"C":{"a":2,"b":8},"D":{"a":8,"b":2}},"conditions":["nonSeqFull","nonSeqPartial","seqNoFeedback","seqFeedback"],"classroomPairings":[["A","B"],["C","D"]],"coinWeights":[0.2,0.5,0.8],"subjectId":"AKNQ0ZU1MXN1T","assignmentId":"37M28K1J0RZEHAGFCPBHW3GJVDMJA5","hitId":"3H6W48L9F4B5OEOMH57RM53ZYNHWPM","url":"https://gershmanlab.com/experiments/alicia/teaching/experiment/?hitId=3H6W48L9F4B5OEOMH57RM53ZYNHWPM&workerId=AKNQ0ZU1MXN1T&assignmentId=37M28K1J0RZEHAGFCPBHW3GJVDMJA5&a=J8M78&tp_a=J8M78&b=37M28K1J0RZEHAGFCPBHW3GJVDMJA5&tp_b=37M28K1J0RZEHAGFCPBHW3GJVDMJA5&c=365198&tp_c=365198","firstResponseHeads":0,"firstResponseTails":2,"secondResponseHeads":0,"secondResponseTails":1,"studentIndex":2,"studentTrueHypers":{"a":2,"b":8},"studentGuess":0.15384615384615385,"delta":0.046153846153846156,"bonus":0.47,"bonusSoFar":0.47,"totalExamples":3},{"rt":9895,"response":{"heads":"1","tails":"1"},"type":"response","condition":"seqFeedback","trueTheta":0.5,"classrooms":["A","B"],"studentTrueClassroom":"A","exampleSet":"first","trial_type":"survey-html-form","trial_index":74,"time_elapsed":3358979,"internal_node_id":"0.0-31.0-0.0","params":{"nStudents":24,"maxFlips":30,"completionMinutes":45,"basePay":8,"maxBonus":9,"perTrialBonus":0.5,"perTrialBonusThreshold":0.1,"exampleCost":0.01},"classroomParams":{"A":{"a":1,"b":4},"B":{"a":4,"b":1},"C":{"a":2,"b":8},"D":{"a":8,"b":2}},"conditions":["nonSeqFull","nonSeqPartial","seqNoFeedback","seqFeedback"],"classroomPairings":[["A","B"],["C","D"]],"coinWeights":[0.2,0.5,0.8],"subjectId":"AKNQ0ZU1MXN1T","assignmentId":"37M28K1J0RZEHAGFCPBHW3GJVDMJA5","hitId":"3H6W48L9F4B5OEOMH57RM53ZYNHWPM","url":"https://gershmanlab.com/experiments/alicia/teaching/experiment/?hitId=3H6W48L9F4B5OEOMH57RM53ZYNHWPM&workerId=AKNQ0ZU1MXN1T&assignmentId=37M28K1J0RZEHAGFCPBHW3GJVDMJA5&a=J8M78&tp_a=J8M78&b=37M28K1J0RZEHAGFCPBHW3GJVDMJA5&tp_b=37M28K1J0RZEHAGFCPBHW3GJVDMJA5&c=365198&tp_c=365198","heads":1,"tails":1,"studentIndex":3,"studentTrueHypers":{"a":1,"b":4},"studentGuess":0.2857142857142857,"delta":0.2142857142857143,"totalExamples":2,"bonusSoFar":0.47},{"rt":4183,"response":{"heads":"1","tails":"1"},"type":"response","condition":"seqFeedback","trueTheta":0.5,"classrooms":["A","B"],"studentTrueClassroom":"A","exampleSet":"second","trial_type":"survey-html-form","trial_index":78,"time_elapsed":3372404,"internal_node_id":"0.0-35.0-0.0","params":{"nStudents":24,"maxFlips":30,"completionMinutes":45,"basePay":8,"maxBonus":9,"perTrialBonus":0.5,"perTrialBonusThreshold":0.1,"exampleCost":0.01},"classroomParams":{"A":{"a":1,"b":4},"B":{"a":4,"b":1},"C":{"a":2,"b":8},"D":{"a":8,"b":2}},"conditions":["nonSeqFull","nonSeqPartial","seqNoFeedback","seqFeedback"],"classroomPairings":[["A","B"],["C","D"]],"coinWeights":[0.2,0.5,0.8],"subjectId":"AKNQ0ZU1MXN1T","assignmentId":"37M28K1J0RZEHAGFCPBHW3GJVDMJA5","hitId":"3H6W48L9F4B5OEOMH57RM53ZYNHWPM","url":"https://gershmanlab.com/experiments/alicia/teaching/experiment/?hitId=3H6W48L9F4B5OEOMH57RM53ZYNHWPM&workerId=AKNQ0ZU1MXN1T&assignmentId=37M28K1J0RZEHAGFCPBHW3GJVDMJA5&a=J8M78&tp_a=J8M78&b=37M28K1J0RZEHAGFCPBHW3GJVDMJA5&tp_b=37M28K1J0RZEHAGFCPBHW3GJVDMJA5&c=365198&tp_c=365198","firstResponseHeads":1,"firstResponseTails":1,"secondResponseHeads":1,"secondResponseTails":1,"studentIndex":3,"studentTrueHypers":{"a":1,"b":4},"studentGuess":0.3333333333333333,"delta":0.16666666666666669,"bonus":0,"bonusSoFar":0.47,"totalExamples":4},{"rt":5487,"response":{"heads":"3","tails":"0"},"type":"response","condition":"seqNoFeedback","trueTheta":0.8,"classrooms":["A","B"],"studentTrueClassroom":"A","exampleSet":"first","trial_type":"survey-html-form","trial_index":84,"time_elapsed":3389811,"internal_node_id":"0.0-41.0-0.0","params":{"nStudents":24,"maxFlips":30,"completionMinutes":45,"basePay":8,"maxBonus":9,"perTrialBonus":0.5,"perTrialBonusThreshold":0.1,"exampleCost":0.01},"classroomParams":{"A":{"a":1,"b":4},"B":{"a":4,"b":1},"C":{"a":2,"b":8},"D":{"a":8,"b":2}},"conditions":["nonSeqFull","nonSeqPartial","seqNoFeedback","seqFeedback"],"classroomPairings":[["A","B"],["C","D"]],"coinWeights":[0.2,0.5,0.8],"subjectId":"AKNQ0ZU1MXN1T","assignmentId":"37M28K1J0RZEHAGFCPBHW3GJVDMJA5","hitId":"3H6W48L9F4B5OEOMH57RM53ZYNHWPM","url":"https://gershmanlab.com/experiments/alicia/teaching/experiment/?hitId=3H6W48L9F4B5OEOMH57RM53ZYNHWPM&workerId=AKNQ0ZU1MXN1T&assignmentId=37M28K1J0RZEHAGFCPBHW3GJVDMJA5&a=J8M78&tp_a=J8M78&b=37M28K1J0RZEHAGFCPBHW3GJVDMJA5&tp_b=37M28K1J0RZEHAGFCPBHW3GJVDMJA5&c=365198&tp_c=365198","heads":3,"tails":0,"studentIndex":4,"studentTrueHypers":{"a":1,"b":4},"studentGuess":0.5,"delta":0.30000000000000004,"totalExamples":3,"bonusSoFar":0.47},{"rt":3447,"response":{"heads":"3","tails":"0"},"type":"response","condition":"seqNoFeedback","trueTheta":0.8,"classrooms":["A","B"],"studentTrueClassroom":"A","exampleSet":"second","trial_type":"survey-html-form","trial_index":87,"time_elapsed":3399762,"internal_node_id":"0.0-44.0-0.0","params":{"nStudents":24,"maxFlips":30,"completionMinutes":45,"basePay":8,"maxBonus":9,"perTrialBonus":0.5,"perTrialBonusThreshold":0.1,"exampleCost":0.01},"classroomParams":{"A":{"a":1,"b":4},"B":{"a":4,"b":1},"C":{"a":2,"b":8},"D":{"a":8,"b":2}},"conditions":["nonSeqFull","nonSeqPartial","seqNoFeedback","seqFeedback"],"classroomPairings":[["A","B"],["C","D"]],"coinWeights":[0.2,0.5,0.8],"subjectId":"AKNQ0ZU1MXN1T","assignmentId":"37M28K1J0RZEHAGFCPBHW3GJVDMJA5","hitId":"3H6W48L9F4B5OEOMH57RM53ZYNHWPM","url":"https://gershmanlab.com/experiments/alicia/teaching/experiment/?hitId=3H6W48L9F4B5OEOMH57RM53ZYNHWPM&workerId=AKNQ0ZU1MXN1T&assignmentId=37M28K1J0RZEHAGFCPBHW3GJVDMJA5&a=J8M78&tp_a=J8M78&b=37M28K1J0RZEHAGFCPBHW3GJVDMJA5&tp_b=37M28K1J0RZEHAGFCPBHW3GJVDMJA5&c=365198&tp_c=365198","firstResponseHeads":3,"firstResponseTails":0,"secondResponseHeads":3,"secondResponseTails":0,"studentIndex":4,"studentTrueHypers":{"a":1,"b":4},"studentGuess":0.6363636363636364,"delta":0.1636363636363637,"bonus":0,"bonusSoFar":0.47,"totalExamples":6},{"rt":3855,"response":{"heads":"1","tails":"0"},"type":"response","condition":"nonSeqFull","trueTheta":0.5,"classrooms":["C","D"],"studentTrueClassroom":"D","exampleSet":"first","trial_type":"survey-html-form","trial_index":93,"time_elapsed":3416522,"internal_node_id":"0.0-50.0-0.0","params":{"nStudents":24,"maxFlips":30,"completionMinutes":45,"basePay":8,"maxBonus":9,"perTrialBonus":0.5,"perTrialBonusThreshold":0.1,"exampleCost":0.01},"classroomParams":{"A":{"a":1,"b":4},"B":{"a":4,"b":1},"C":{"a":2,"b":8},"D":{"a":8,"b":2}},"conditions":["nonSeqFull","nonSeqPartial","seqNoFeedback","seqFeedback"],"classroomPairings":[["A","B"],["C","D"]],"coinWeights":[0.2,0.5,0.8],"subjectId":"AKNQ0ZU1MXN1T","assignmentId":"37M28K1J0RZEHAGFCPBHW3GJVDMJA5","hitId":"3H6W48L9F4B5OEOMH57RM53ZYNHWPM","url":"https://gershmanlab.com/experiments/alicia/teaching/experiment/?hitId=3H6W48L9F4B5OEOMH57RM53ZYNHWPM&workerId=AKNQ0ZU1MXN1T&assignmentId=37M28K1J0RZEHAGFCPBHW3GJVDMJA5&a=J8M78&tp_a=J8M78&b=37M28K1J0RZEHAGFCPBHW3GJVDMJA5&tp_b=37M28K1J0RZEHAGFCPBHW3GJVDMJA5&c=365198&tp_c=365198","heads":1,"tails":0,"studentIndex":5,"studentTrueHypers":{"a":8,"b":2},"studentGuess":0.8181818181818182,"delta":0.31818181818181823,"totalExamples":1,"bonus":0,"bonusSoFar":0.47},{"rt":4228,"response":{"heads":"1","tails":"1"},"type":"response","condition":"nonSeqPartial","trueTheta":0.5,"classrooms":["A","B"],"studentTrueClassroom":"B","exampleSet":"first","trial_type":"survey-html-form","trial_index":99,"time_elapsed":3432323,"internal_node_id":"0.0-56.0-0.0","params":{"nStudents":24,"maxFlips":30,"completionMinutes":45,"basePay":8,"maxBonus":9,"perTrialBonus":0.5,"perTrialBonusThreshold":0.1,"exampleCost":0.01},"classroomParams":{"A":{"a":1,"b":4},"B":{"a":4,"b":1},"C":{"a":2,"b":8},"D":{"a":8,"b":2}},"conditions":["nonSeqFull","nonSeqPartial","seqNoFeedback","seqFeedback"],"classroomPairings":[["A","B"],["C","D"]],"coinWeights":[0.2,0.5,0.8],"subjectId":"AKNQ0ZU1MXN1T","assignmentId":"37M28K1J0RZEHAGFCPBHW3GJVDMJA5","hitId":"3H6W48L9F4B5OEOMH57RM53ZYNHWPM","url":"https://gershmanlab.com/experiments/alicia/teaching/experiment/?hitId=3H6W48L9F4B5OEOMH57RM53ZYNHWPM&workerId=AKNQ0ZU1MXN1T&assignmentId=37M28K1J0RZEHAGFCPBHW3GJVDMJA5&a=J8M78&tp_a=J8M78&b=37M28K1J0RZEHAGFCPBHW3GJVDMJA5&tp_b=37M28K1J0RZEHAGFCPBHW3GJVDMJA5&c=365198&tp_c=365198","heads":1,"tails":1,"studentIndex":6,"studentTrueHypers":{"a":4,"b":1},"studentGuess":0.7142857142857143,"delta":0.2142857142857143,"totalExamples":2,"bonus":0,"bonusSoFar":0.47},{"rt":6006,"response":{"heads":"3","tails":"3"},"type":"response","condition":"nonSeqPartial","trueTheta":0.5,"classrooms":["C","D"],"studentTrueClassroom":"D","exampleSet":"first","trial_type":"survey-html-form","trial_index":105,"time_elapsed":3452075,"internal_node_id":"0.0-62.0-0.0","params":{"nStudents":24,"maxFlips":30,"completionMinutes":45,"basePay":8,"maxBonus":9,"perTrialBonus":0.5,"perTrialBonusThreshold":0.1,"exampleCost":0.01},"classroomParams":{"A":{"a":1,"b":4},"B":{"a":4,"b":1},"C":{"a":2,"b":8},"D":{"a":8,"b":2}},"conditions":["nonSeqFull","nonSeqPartial","seqNoFeedback","seqFeedback"],"classroomPairings":[["A","B"],["C","D"]],"coinWeights":[0.2,0.5,0.8],"subjectId":"AKNQ0ZU1MXN1T","assignmentId":"37M28K1J0RZEHAGFCPBHW3GJVDMJA5","hitId":"3H6W48L9F4B5OEOMH57RM53ZYNHWPM","url":"https://gershmanlab.com/experiments/alicia/teaching/experiment/?hitId=3H6W48L9F4B5OEOMH57RM53ZYNHWPM&workerId=AKNQ0ZU1MXN1T&assignmentId=37M28K1J0RZEHAGFCPBHW3GJVDMJA5&a=J8M78&tp_a=J8M78&b=37M28K1J0RZEHAGFCPBHW3GJVDMJA5&tp_b=37M28K1J0RZEHAGFCPBHW3GJVDMJA5&c=365198&tp_c=365198","heads":3,"tails":3,"studentIndex":7,"studentTrueHypers":{"a":8,"b":2},"studentGuess":0.6875,"delta":0.1875,"totalExamples":6,"bonus":0,"bonusSoFar":0.47},{"rt":5000,"response":{"heads":"0","tails":"2"},"type":"response","condition":"nonSeqFull","trueTheta":0.2,"classrooms":["A","B"],"studentTrueClassroom":"A","exampleSet":"first","trial_type":"survey-html-form","trial_index":111,"time_elapsed":3469754,"internal_node_id":"0.0-68.0-0.0","params":{"nStudents":24,"maxFlips":30,"completionMinutes":45,"basePay":8,"maxBonus":9,"perTrialBonus":0.5,"perTrialBonusThreshold":0.1,"exampleCost":0.01},"classroomParams":{"A":{"a":1,"b":4},"B":{"a":4,"b":1},"C":{"a":2,"b":8},"D":{"a":8,"b":2}},"conditions":["nonSeqFull","nonSeqPartial","seqNoFeedback","seqFeedback"],"classroomPairings":[["A","B"],["C","D"]],"coinWeights":[0.2,0.5,0.8],"subjectId":"AKNQ0ZU1MXN1T","assignmentId":"37M28K1J0RZEHAGFCPBHW3GJVDMJA5","hitId":"3H6W48L9F4B5OEOMH57RM53ZYNHWPM","url":"https://gershmanlab.com/experiments/alicia/teaching/experiment/?hitId=3H6W48L9F4B5OEOMH57RM53ZYNHWPM&workerId=AKNQ0ZU1MXN1T&assignmentId=37M28K1J0RZEHAGFCPBHW3GJVDMJA5&a=J8M78&tp_a=J8M78&b=37M28K1J0RZEHAGFCPBHW3GJVDMJA5&tp_b=37M28K1J0RZEHAGFCPBHW3GJVDMJA5&c=365198&tp_c=365198","heads":0,"tails":2,"studentIndex":8,"studentTrueHypers":{"a":1,"b":4},"studentGuess":0.14285714285714285,"delta":0.05714285714285716,"totalExamples":2,"bonus":0.48,"bonusSoFar":0.95},{"rt":3624,"response":{"heads":"0","tails":"3"},"type":"response","condition":"nonSeqPartial","trueTheta":0.2,"classrooms":["C","D"],"studentTrueClassroom":"D","exampleSet":"first","trial_type":"survey-html-form","trial_index":117,"time_elapsed":3485898,"internal_node_id":"0.0-74.0-0.0","params":{"nStudents":24,"maxFlips":30,"completionMinutes":45,"basePay":8,"maxBonus":9,"perTrialBonus":0.5,"perTrialBonusThreshold":0.1,"exampleCost":0.01},"classroomParams":{"A":{"a":1,"b":4},"B":{"a":4,"b":1},"C":{"a":2,"b":8},"D":{"a":8,"b":2}},"conditions":["nonSeqFull","nonSeqPartial","seqNoFeedback","seqFeedback"],"classroomPairings":[["A","B"],["C","D"]],"coinWeights":[0.2,0.5,0.8],"subjectId":"AKNQ0ZU1MXN1T","assignmentId":"37M28K1J0RZEHAGFCPBHW3GJVDMJA5","hitId":"3H6W48L9F4B5OEOMH57RM53ZYNHWPM","url":"https://gershmanlab.com/experiments/alicia/teaching/experiment/?hitId=3H6W48L9F4B5OEOMH57RM53ZYNHWPM&workerId=AKNQ0ZU1MXN1T&assignmentId=37M28K1J0RZEHAGFCPBHW3GJVDMJA5&a=J8M78&tp_a=J8M78&b=37M28K1J0RZEHAGFCPBHW3GJVDMJA5&tp_b=37M28K1J0RZEHAGFCPBHW3GJVDMJA5&c=365198&tp_c=365198","heads":0,"tails":3,"studentIndex":9,"studentTrueHypers":{"a":8,"b":2},"studentGuess":0.6153846153846154,"delta":0.4153846153846154,"totalExamples":3,"bonus":0,"bonusSoFar":0.95},{"rt":3711,"response":{"heads":"4","tails":"0"},"type":"response","condition":"seqFeedback","trueTheta":0.8,"classrooms":["A","B"],"studentTrueClassroom":"A","exampleSet":"first","trial_type":"survey-html-form","trial_index":123,"time_elapsed":3500211,"internal_node_id":"0.0-80.0-0.0","params":{"nStudents":24,"maxFlips":30,"completionMinutes":45,"basePay":8,"maxBonus":9,"perTrialBonus":0.5,"perTrialBonusThreshold":0.1,"exampleCost":0.01},"classroomParams":{"A":{"a":1,"b":4},"B":{"a":4,"b":1},"C":{"a":2,"b":8},"D":{"a":8,"b":2}},"conditions":["nonSeqFull","nonSeqPartial","seqNoFeedback","seqFeedback"],"classroomPairings":[["A","B"],["C","D"]],"coinWeights":[0.2,0.5,0.8],"subjectId":"AKNQ0ZU1MXN1T","assignmentId":"37M28K1J0RZEHAGFCPBHW3GJVDMJA5","hitId":"3H6W48L9F4B5OEOMH57RM53ZYNHWPM","url":"https://gershmanlab.com/experiments/alicia/teaching/experiment/?hitId=3H6W48L9F4B5OEOMH57RM53ZYNHWPM&workerId=AKNQ0ZU1MXN1T&assignmentId=37M28K1J0RZEHAGFCPBHW3GJVDMJA5&a=J8M78&tp_a=J8M78&b=37M28K1J0RZEHAGFCPBHW3GJVDMJA5&tp_b=37M28K1J0RZEHAGFCPBHW3GJVDMJA5&c=365198&tp_c=365198","heads":4,"tails":0,"studentIndex":10,"studentTrueHypers":{"a":1,"b":4},"studentGuess":0.5555555555555556,"delta":0.24444444444444446,"totalExamples":4,"bonusSoFar":0.95},{"rt":4832,"response":{"heads":"8","tails":"0"},"type":"response","condition":"seqFeedback","trueTheta":0.8,"classrooms":["A","B"],"studentTrueClassroom":"A","exampleSet":"second","trial_type":"survey-html-form","trial_index":127,"time_elapsed":3514827,"internal_node_id":"0.0-84.0-0.0","params":{"nStudents":24,"maxFlips":30,"completionMinutes":45,"basePay":8,"maxBonus":9,"perTrialBonus":0.5,"perTrialBonusThreshold":0.1,"exampleCost":0.01},"classroomParams":{"A":{"a":1,"b":4},"B":{"a":4,"b":1},"C":{"a":2,"b":8},"D":{"a":8,"b":2}},"conditions":["nonSeqFull","nonSeqPartial","seqNoFeedback","seqFeedback"],"classroomPairings":[["A","B"],["C","D"]],"coinWeights":[0.2,0.5,0.8],"subjectId":"AKNQ0ZU1MXN1T","assignmentId":"37M28K1J0RZEHAGFCPBHW3GJVDMJA5","hitId":"3H6W48L9F4B5OEOMH57RM53ZYNHWPM","url":"https://gershmanlab.com/experiments/alicia/teaching/experiment/?hitId=3H6W48L9F4B5OEOMH57RM53ZYNHWPM&workerId=AKNQ0ZU1MXN1T&assignmentId=37M28K1J0RZEHAGFCPBHW3GJVDMJA5&a=J8M78&tp_a=J8M78&b=37M28K1J0RZEHAGFCPBHW3GJVDMJA5&tp_b=37M28K1J0RZEHAGFCPBHW3GJVDMJA5&c=365198&tp_c=365198","firstResponseHeads":4,"firstResponseTails":0,"secondResponseHeads":8,"secondResponseTails":0,"studentIndex":10,"studentTrueHypers":{"a":1,"b":4},"studentGuess":0.7647058823529411,"delta":0.03529411764705892,"bonus":0.38,"bonusSoFar":1.33,"totalExamples":12},{"rt":3422,"response":{"heads":"5","tails":"0"},"type":"response","condition":"nonSeqPartial","trueTheta":0.8,"classrooms":["A","B"],"studentTrueClassroom":"A","exampleSet":"first","trial_type":"survey-html-form","trial_index":133,"time_elapsed":3529811,"internal_node_id":"0.0-90.0-0.0","params":{"nStudents":24,"maxFlips":30,"completionMinutes":45,"basePay":8,"maxBonus":9,"perTrialBonus":0.5,"perTrialBonusThreshold":0.1,"exampleCost":0.01},"classroomParams":{"A":{"a":1,"b":4},"B":{"a":4,"b":1},"C":{"a":2,"b":8},"D":{"a":8,"b":2}},"conditions":["nonSeqFull","nonSeqPartial","seqNoFeedback","seqFeedback"],"classroomPairings":[["A","B"],["C","D"]],"coinWeights":[0.2,0.5,0.8],"subjectId":"AKNQ0ZU1MXN1T","assignmentId":"37M28K1J0RZEHAGFCPBHW3GJVDMJA5","hitId":"3H6W48L9F4B5OEOMH57RM53ZYNHWPM","url":"https://gershmanlab.com/experiments/alicia/teaching/experiment/?hitId=3H6W48L9F4B5OEOMH57RM53ZYNHWPM&workerId=AKNQ0ZU1MXN1T&assignmentId=37M28K1J0RZEHAGFCPBHW3GJVDMJA5&a=J8M78&tp_a=J8M78&b=37M28K1J0RZEHAGFCPBHW3GJVDMJA5&tp_b=37M28K1J0RZEHAGFCPBHW3GJVDMJA5&c=365198&tp_c=365198","heads":5,"tails":0,"studentIndex":11,"studentTrueHypers":{"a":1,"b":4},"studentGuess":0.6,"delta":0.20000000000000007,"totalExamples":5,"bonus":0,"bonusSoFar":1.33},{"rt":6327,"response":{"heads":"5","tails":"5"},"type":"response","condition":"seqNoFeedback","trueTheta":0.5,"classrooms":["A","B"],"studentTrueClassroom":"A","exampleSet":"first","trial_type":"survey-html-form","trial_index":139,"time_elapsed":3547794,"internal_node_id":"0.0-96.0-0.0","params":{"nStudents":24,"maxFlips":30,"completionMinutes":45,"basePay":8,"maxBonus":9,"perTrialBonus":0.5,"perTrialBonusThreshold":0.1,"exampleCost":0.01},"classroomParams":{"A":{"a":1,"b":4},"B":{"a":4,"b":1},"C":{"a":2,"b":8},"D":{"a":8,"b":2}},"conditions":["nonSeqFull","nonSeqPartial","seqNoFeedback","seqFeedback"],"classroomPairings":[["A","B"],["C","D"]],"coinWeights":[0.2,0.5,0.8],"subjectId":"AKNQ0ZU1MXN1T","assignmentId":"37M28K1J0RZEHAGFCPBHW3GJVDMJA5","hitId":"3H6W48L9F4B5OEOMH57RM53ZYNHWPM","url":"https://gershmanlab.com/experiments/alicia/teaching/experiment/?hitId=3H6W48L9F4B5OEOMH57RM53ZYNHWPM&workerId=AKNQ0ZU1MXN1T&assignmentId=37M28K1J0RZEHAGFCPBHW3GJVDMJA5&a=J8M78&tp_a=J8M78&b=37M28K1J0RZEHAGFCPBHW3GJVDMJA5&tp_b=37M28K1J0RZEHAGFCPBHW3GJVDMJA5&c=365198&tp_c=365198","heads":5,"tails":5,"studentIndex":12,"studentTrueHypers":{"a":1,"b":4},"studentGuess":0.4,"delta":0.09999999999999998,"totalExamples":10,"bonusSoFar":1.33},{"rt":4623,"response":{"heads":"5","tails":"5"},"type":"response","condition":"seqNoFeedback","trueTheta":0.5,"classrooms":["A","B"],"studentTrueClassroom":"A","exampleSet":"second","trial_type":"survey-html-form","trial_index":142,"time_elapsed":3557924,"internal_node_id":"0.0-99.0-0.0","params":{"nStudents":24,"maxFlips":30,"completionMinutes":45,"basePay":8,"maxBonus":9,"perTrialBonus":0.5,"perTrialBonusThreshold":0.1,"exampleCost":0.01},"classroomParams":{"A":{"a":1,"b":4},"B":{"a":4,"b":1},"C":{"a":2,"b":8},"D":{"a":8,"b":2}},"conditions":["nonSeqFull","nonSeqPartial","seqNoFeedback","seqFeedback"],"classroomPairings":[["A","B"],["C","D"]],"coinWeights":[0.2,0.5,0.8],"subjectId":"AKNQ0ZU1MXN1T","assignmentId":"37M28K1J0RZEHAGFCPBHW3GJVDMJA5","hitId":"3H6W48L9F4B5OEOMH57RM53ZYNHWPM","url":"https://gershmanlab.com/experiments/alicia/teaching/experiment/?hitId=3H6W48L9F4B5OEOMH57RM53ZYNHWPM&workerId=AKNQ0ZU1MXN1T&assignmentId=37M28K1J0RZEHAGFCPBHW3GJVDMJA5&a=J8M78&tp_a=J8M78&b=37M28K1J0RZEHAGFCPBHW3GJVDMJA5&tp_b=37M28K1J0RZEHAGFCPBHW3GJVDMJA5&c=365198&tp_c=365198","firstResponseHeads":5,"firstResponseTails":5,"secondResponseHeads":5,"secondResponseTails":5,"studentIndex":12,"studentTrueHypers":{"a":1,"b":4},"studentGuess":0.44,"delta":0.06,"bonus":0.3,"bonusSoFar":1.63,"totalExamples":20},{"rt":4341,"response":{"heads":"4","tails":"0"},"type":"response","condition":"nonSeqFull","trueTheta":0.8,"classrooms":["A","B"],"studentTrueClassroom":"A","exampleSet":"first","trial_type":"survey-html-form","trial_index":148,"time_elapsed":3573731,"internal_node_id":"0.0-105.0-0.0","params":{"nStudents":24,"maxFlips":30,"completionMinutes":45,"basePay":8,"maxBonus":9,"perTrialBonus":0.5,"perTrialBonusThreshold":0.1,"exampleCost":0.01},"classroomParams":{"A":{"a":1,"b":4},"B":{"a":4,"b":1},"C":{"a":2,"b":8},"D":{"a":8,"b":2}},"conditions":["nonSeqFull","nonSeqPartial","seqNoFeedback","seqFeedback"],"classroomPairings":[["A","B"],["C","D"]],"coinWeights":[0.2,0.5,0.8],"subjectId":"AKNQ0ZU1MXN1T","assignmentId":"37M28K1J0RZEHAGFCPBHW3GJVDMJA5","hitId":"3H6W48L9F4B5OEOMH57RM53ZYNHWPM","url":"https://gershmanlab.com/experiments/alicia/teaching/experiment/?hitId=3H6W48L9F4B5OEOMH57RM53ZYNHWPM&workerId=AKNQ0ZU1MXN1T&assignmentId=37M28K1J0RZEHAGFCPBHW3GJVDMJA5&a=J8M78&tp_a=J8M78&b=37M28K1J0RZEHAGFCPBHW3GJVDMJA5&tp_b=37M28K1J0RZEHAGFCPBHW3GJVDMJA5&c=365198&tp_c=365198","heads":4,"tails":0,"studentIndex":13,"studentTrueHypers":{"a":1,"b":4},"studentGuess":0.5555555555555556,"delta":0.24444444444444446,"totalExamples":4,"bonus":0,"bonusSoFar":1.63},{"rt":4111,"response":{"heads":"0","tails":"2"},"type":"response","condition":"nonSeqPartial","trueTheta":0.2,"classrooms":["A","B"],"studentTrueClassroom":"A","exampleSet":"first","trial_type":"survey-html-form","trial_index":154,"time_elapsed":3588515,"internal_node_id":"0.0-111.0-0.0","params":{"nStudents":24,"maxFlips":30,"completionMinutes":45,"basePay":8,"maxBonus":9,"perTrialBonus":0.5,"perTrialBonusThreshold":0.1,"exampleCost":0.01},"classroomParams":{"A":{"a":1,"b":4},"B":{"a":4,"b":1},"C":{"a":2,"b":8},"D":{"a":8,"b":2}},"conditions":["nonSeqFull","nonSeqPartial","seqNoFeedback","seqFeedback"],"classroomPairings":[["A","B"],["C","D"]],"coinWeights":[0.2,0.5,0.8],"subjectId":"AKNQ0ZU1MXN1T","assignmentId":"37M28K1J0RZEHAGFCPBHW3GJVDMJA5","hitId":"3H6W48L9F4B5OEOMH57RM53ZYNHWPM","url":"https://gershmanlab.com/experiments/alicia/teaching/experiment/?hitId=3H6W48L9F4B5OEOMH57RM53ZYNHWPM&workerId=AKNQ0ZU1MXN1T&assignmentId=37M28K1J0RZEHAGFCPBHW3GJVDMJA5&a=J8M78&tp_a=J8M78&b=37M28K1J0RZEHAGFCPBHW3GJVDMJA5&tp_b=37M28K1J0RZEHAGFCPBHW3GJVDMJA5&c=365198&tp_c=365198","heads":0,"tails":2,"studentIndex":14,"studentTrueHypers":{"a":1,"b":4},"studentGuess":0.14285714285714285,"delta":0.05714285714285716,"totalExamples":2,"bonus":0.48,"bonusSoFar":2.11},{"rt":4928,"response":{"heads":"0","tails":"2"},"type":"response","condition":"seqNoFeedback","trueTheta":0.5,"classrooms":["C","D"],"studentTrueClassroom":"C","exampleSet":"first","trial_type":"survey-html-form","trial_index":160,"time_elapsed":3604467,"internal_node_id":"0.0-117.0-0.0","params":{"nStudents":24,"maxFlips":30,"completionMinutes":45,"basePay":8,"maxBonus":9,"perTrialBonus":0.5,"perTrialBonusThreshold":0.1,"exampleCost":0.01},"classroomParams":{"A":{"a":1,"b":4},"B":{"a":4,"b":1},"C":{"a":2,"b":8},"D":{"a":8,"b":2}},"conditions":["nonSeqFull","nonSeqPartial","seqNoFeedback","seqFeedback"],"classroomPairings":[["A","B"],["C","D"]],"coinWeights":[0.2,0.5,0.8],"subjectId":"AKNQ0ZU1MXN1T","assignmentId":"37M28K1J0RZEHAGFCPBHW3GJVDMJA5","hitId":"3H6W48L9F4B5OEOMH57RM53ZYNHWPM","url":"https://gershmanlab.com/experiments/alicia/teaching/experiment/?hitId=3H6W48L9F4B5OEOMH57RM53ZYNHWPM&workerId=AKNQ0ZU1MXN1T&assignmentId=37M28K1J0RZEHAGFCPBHW3GJVDMJA5&a=J8M78&tp_a=J8M78&b=37M28K1J0RZEHAGFCPBHW3GJVDMJA5&tp_b=37M28K1J0RZEHAGFCPBHW3GJVDMJA5&c=365198&tp_c=365198","heads":0,"tails":2,"studentIndex":15,"studentTrueHypers":{"a":2,"b":8},"studentGuess":0.16666666666666666,"delta":0.33333333333333337,"totalExamples":2,"bonusSoFar":2.11},{"rt":3500,"response":{"heads":"0","tails":"2"},"type":"response","condition":"seqNoFeedback","trueTheta":0.5,"classrooms":["C","D"],"studentTrueClassroom":"C","exampleSet":"second","trial_type":"survey-html-form","trial_index":163,"time_elapsed":3614723,"internal_node_id":"0.0-120.0-0.0","params":{"nStudents":24,"maxFlips":30,"completionMinutes":45,"basePay":8,"maxBonus":9,"perTrialBonus":0.5,"perTrialBonusThreshold":0.1,"exampleCost":0.01},"classroomParams":{"A":{"a":1,"b":4},"B":{"a":4,"b":1},"C":{"a":2,"b":8},"D":{"a":8,"b":2}},"conditions":["nonSeqFull","nonSeqPartial","seqNoFeedback","seqFeedback"],"classroomPairings":[["A","B"],["C","D"]],"coinWeights":[0.2,0.5,0.8],"subjectId":"AKNQ0ZU1MXN1T","assignmentId":"37M28K1J0RZEHAGFCPBHW3GJVDMJA5","hitId":"3H6W48L9F4B5OEOMH57RM53ZYNHWPM","url":"https://gershmanlab.com/experiments/alicia/teaching/experiment/?hitId=3H6W48L9F4B5OEOMH57RM53ZYNHWPM&workerId=AKNQ0ZU1MXN1T&assignmentId=37M28K1J0RZEHAGFCPBHW3GJVDMJA5&a=J8M78&tp_a=J8M78&b=37M28K1J0RZEHAGFCPBHW3GJVDMJA5&tp_b=37M28K1J0RZEHAGFCPBHW3GJVDMJA5&c=365198&tp_c=365198","firstResponseHeads":0,"firstResponseTails":2,"secondResponseHeads":0,"secondResponseTails":2,"studentIndex":15,"studentTrueHypers":{"a":2,"b":8},"studentGuess":0.14285714285714285,"delta":0.35714285714285715,"bonus":0,"bonusSoFar":2.11,"totalExamples":4},{"rt":4639,"response":{"heads":"0","tails":"5"},"type":"response","condition":"nonSeqFull","trueTheta":0.5,"classrooms":["A","B"],"studentTrueClassroom":"B","exampleSet":"first","trial_type":"survey-html-form","trial_index":169,"time_elapsed":3631522,"internal_node_id":"0.0-126.0-0.0","params":{"nStudents":24,"maxFlips":30,"completionMinutes":45,"basePay":8,"maxBonus":9,"perTrialBonus":0.5,"perTrialBonusThreshold":0.1,"exampleCost":0.01},"classroomParams":{"A":{"a":1,"b":4},"B":{"a":4,"b":1},"C":{"a":2,"b":8},"D":{"a":8,"b":2}},"conditions":["nonSeqFull","nonSeqPartial","seqNoFeedback","seqFeedback"],"classroomPairings":[["A","B"],["C","D"]],"coinWeights":[0.2,0.5,0.8],"subjectId":"AKNQ0ZU1MXN1T","assignmentId":"37M28K1J0RZEHAGFCPBHW3GJVDMJA5","hitId":"3H6W48L9F4B5OEOMH57RM53ZYNHWPM","url":"https://gershmanlab.com/experiments/alicia/teaching/experiment/?hitId=3H6W48L9F4B5OEOMH57RM53ZYNHWPM&workerId=AKNQ0ZU1MXN1T&assignmentId=37M28K1J0RZEHAGFCPBHW3GJVDMJA5&a=J8M78&tp_a=J8M78&b=37M28K1J0RZEHAGFCPBHW3GJVDMJA5&tp_b=37M28K1J0RZEHAGFCPBHW3GJVDMJA5&c=365198&tp_c=365198","heads":0,"tails":5,"studentIndex":16,"studentTrueHypers":{"a":4,"b":1},"studentGuess":0.4,"delta":0.09999999999999998,"totalExamples":5,"bonus":0.45,"bonusSoFar":2.56},{"rt":2615,"response":{"heads":"8","tails":"0"},"type":"response","condition":"seqFeedback","trueTheta":0.8,"classrooms":["C","D"],"studentTrueClassroom":"D","exampleSet":"first","trial_type":"survey-html-form","trial_index":175,"time_elapsed":3645754,"internal_node_id":"0.0-132.0-0.0","params":{"nStudents":24,"maxFlips":30,"completionMinutes":45,"basePay":8,"maxBonus":9,"perTrialBonus":0.5,"perTrialBonusThreshold":0.1,"exampleCost":0.01},"classroomParams":{"A":{"a":1,"b":4},"B":{"a":4,"b":1},"C":{"a":2,"b":8},"D":{"a":8,"b":2}},"conditions":["nonSeqFull","nonSeqPartial","seqNoFeedback","seqFeedback"],"classroomPairings":[["A","B"],["C","D"]],"coinWeights":[0.2,0.5,0.8],"subjectId":"AKNQ0ZU1MXN1T","assignmentId":"37M28K1J0RZEHAGFCPBHW3GJVDMJA5","hitId":"3H6W48L9F4B5OEOMH57RM53ZYNHWPM","url":"https://gershmanlab.com/experiments/alicia/teaching/experiment/?hitId=3H6W48L9F4B5OEOMH57RM53ZYNHWPM&workerId=AKNQ0ZU1MXN1T&assignmentId=37M28K1J0RZEHAGFCPBHW3GJVDMJA5&a=J8M78&tp_a=J8M78&b=37M28K1J0RZEHAGFCPBHW3GJVDMJA5&tp_b=37M28K1J0RZEHAGFCPBHW3GJVDMJA5&c=365198&tp_c=365198","heads":8,"tails":0,"studentIndex":17,"studentTrueHypers":{"a":8,"b":2},"studentGuess":0.8888888888888888,"delta":0.0888888888888888,"totalExamples":8,"bonusSoFar":2.56},{"rt":3606,"response":{"heads":"8","tails":"0"},"type":"response","condition":"seqFeedback","trueTheta":0.8,"classrooms":["C","D"],"studentTrueClassroom":"D","exampleSet":"second","trial_type":"survey-html-form","trial_index":179,"time_elapsed":3657234,"internal_node_id":"0.0-136.0-0.0","params":{"nStudents":24,"maxFlips":30,"completionMinutes":45,"basePay":8,"maxBonus":9,"perTrialBonus":0.5,"perTrialBonusThreshold":0.1,"exampleCost":0.01},"classroomParams":{"A":{"a":1,"b":4},"B":{"a":4,"b":1},"C":{"a":2,"b":8},"D":{"a":8,"b":2}},"conditions":["nonSeqFull","nonSeqPartial","seqNoFeedback","seqFeedback"],"classroomPairings":[["A","B"],["C","D"]],"coinWeights":[0.2,0.5,0.8],"subjectId":"AKNQ0ZU1MXN1T","assignmentId":"37M28K1J0RZEHAGFCPBHW3GJVDMJA5","hitId":"3H6W48L9F4B5OEOMH57RM53ZYNHWPM","url":"https://gershmanlab.com/experiments/alicia/teaching/experiment/?hitId=3H6W48L9F4B5OEOMH57RM53ZYNHWPM&workerId=AKNQ0ZU1MXN1T&assignmentId=37M28K1J0RZEHAGFCPBHW3GJVDMJA5&a=J8M78&tp_a=J8M78&b=37M28K1J0RZEHAGFCPBHW3GJVDMJA5&tp_b=37M28K1J0RZEHAGFCPBHW3GJVDMJA5&c=365198&tp_c=365198","firstResponseHeads":8,"firstResponseTails":0,"secondResponseHeads":8,"secondResponseTails":0,"studentIndex":17,"studentTrueHypers":{"a":8,"b":2},"studentGuess":0.9230769230769231,"delta":0.12307692307692308,"bonus":0,"bonusSoFar":2.56,"totalExamples":16},{"rt":2663,"response":{"heads":"8","tails":"0"},"type":"response","condition":"seqNoFeedback","trueTheta":0.8,"classrooms":["C","D"],"studentTrueClassroom":"C","exampleSet":"first","trial_type":"survey-html-form","trial_index":185,"time_elapsed":3671947,"internal_node_id":"0.0-142.0-0.0","params":{"nStudents":24,"maxFlips":30,"completionMinutes":45,"basePay":8,"maxBonus":9,"perTrialBonus":0.5,"perTrialBonusThreshold":0.1,"exampleCost":0.01},"classroomParams":{"A":{"a":1,"b":4},"B":{"a":4,"b":1},"C":{"a":2,"b":8},"D":{"a":8,"b":2}},"conditions":["nonSeqFull","nonSeqPartial","seqNoFeedback","seqFeedback"],"classroomPairings":[["A","B"],["C","D"]],"coinWeights":[0.2,0.5,0.8],"subjectId":"AKNQ0ZU1MXN1T","assignmentId":"37M28K1J0RZEHAGFCPBHW3GJVDMJA5","hitId":"3H6W48L9F4B5OEOMH57RM53ZYNHWPM","url":"https://gershmanlab.com/experiments/alicia/teaching/experiment/?hitId=3H6W48L9F4B5OEOMH57RM53ZYNHWPM&workerId=AKNQ0ZU1MXN1T&assignmentId=37M28K1J0RZEHAGFCPBHW3GJVDMJA5&a=J8M78&tp_a=J8M78&b=37M28K1J0RZEHAGFCPBHW3GJVDMJA5&tp_b=37M28K1J0RZEHAGFCPBHW3GJVDMJA5&c=365198&tp_c=365198","heads":8,"tails":0,"studentIndex":18,"studentTrueHypers":{"a":2,"b":8},"studentGuess":0.5555555555555556,"delta":0.24444444444444446,"totalExamples":8,"bonusSoFar":2.56},{"rt":3602,"response":{"heads":"8","tails":"0"},"type":"response","condition":"seqNoFeedback","trueTheta":0.8,"classrooms":["C","D"],"studentTrueClassroom":"C","exampleSet":"second","trial_type":"survey-html-form","trial_index":188,"time_elapsed":3682804,"internal_node_id":"0.0-145.0-0.0","params":{"nStudents":24,"maxFlips":30,"completionMinutes":45,"basePay":8,"maxBonus":9,"perTrialBonus":0.5,"perTrialBonusThreshold":0.1,"exampleCost":0.01},"classroomParams":{"A":{"a":1,"b":4},"B":{"a":4,"b":1},"C":{"a":2,"b":8},"D":{"a":8,"b":2}},"conditions":["nonSeqFull","nonSeqPartial","seqNoFeedback","seqFeedback"],"classroomPairings":[["A","B"],["C","D"]],"coinWeights":[0.2,0.5,0.8],"subjectId":"AKNQ0ZU1MXN1T","assignmentId":"37M28K1J0RZEHAGFCPBHW3GJVDMJA5","hitId":"3H6W48L9F4B5OEOMH57RM53ZYNHWPM","url":"https://gershmanlab.com/experiments/alicia/teaching/experiment/?hitId=3H6W48L9F4B5OEOMH57RM53ZYNHWPM&workerId=AKNQ0ZU1MXN1T&assignmentId=37M28K1J0RZEHAGFCPBHW3GJVDMJA5&a=J8M78&tp_a=J8M78&b=37M28K1J0RZEHAGFCPBHW3GJVDMJA5&tp_b=37M28K1J0RZEHAGFCPBHW3GJVDMJA5&c=365198&tp_c=365198","firstResponseHeads":8,"firstResponseTails":0,"secondResponseHeads":8,"secondResponseTails":0,"studentIndex":18,"studentTrueHypers":{"a":2,"b":8},"studentGuess":0.6923076923076923,"delta":0.10769230769230775,"bonus":0,"bonusSoFar":2.56,"totalExamples":16},{"rt":3111,"response":{"heads":"8","tails":"0"},"type":"response","condition":"nonSeqPartial","trueTheta":0.8,"classrooms":["C","D"],"studentTrueClassroom":"D","exampleSet":"first","trial_type":"survey-html-form","trial_index":194,"time_elapsed":3699858,"internal_node_id":"0.0-151.0-0.0","params":{"nStudents":24,"maxFlips":30,"completionMinutes":45,"basePay":8,"maxBonus":9,"perTrialBonus":0.5,"perTrialBonusThreshold":0.1,"exampleCost":0.01},"classroomParams":{"A":{"a":1,"b":4},"B":{"a":4,"b":1},"C":{"a":2,"b":8},"D":{"a":8,"b":2}},"conditions":["nonSeqFull","nonSeqPartial","seqNoFeedback","seqFeedback"],"classroomPairings":[["A","B"],["C","D"]],"coinWeights":[0.2,0.5,0.8],"subjectId":"AKNQ0ZU1MXN1T","assignmentId":"37M28K1J0RZEHAGFCPBHW3GJVDMJA5","hitId":"3H6W48L9F4B5OEOMH57RM53ZYNHWPM","url":"https://gershmanlab.com/experiments/alicia/teaching/experiment/?hitId=3H6W48L9F4B5OEOMH57RM53ZYNHWPM&workerId=AKNQ0ZU1MXN1T&assignmentId=37M28K1J0RZEHAGFCPBHW3GJVDMJA5&a=J8M78&tp_a=J8M78&b=37M28K1J0RZEHAGFCPBHW3GJVDMJA5&tp_b=37M28K1J0RZEHAGFCPBHW3GJVDMJA5&c=365198&tp_c=365198","heads":8,"tails":0,"studentIndex":19,"studentTrueHypers":{"a":8,"b":2},"studentGuess":0.8888888888888888,"delta":0.0888888888888888,"totalExamples":8,"bonus":0.42,"bonusSoFar":2.98},{"rt":4151,"response":{"heads":"8","tails":"0"},"type":"response","condition":"seqFeedback","trueTheta":0.5,"classrooms":["C","D"],"studentTrueClassroom":"D","exampleSet":"first","trial_type":"survey-html-form","trial_index":200,"time_elapsed":3717010,"internal_node_id":"0.0-157.0-0.0","params":{"nStudents":24,"maxFlips":30,"completionMinutes":45,"basePay":8,"maxBonus":9,"perTrialBonus":0.5,"perTrialBonusThreshold":0.1,"exampleCost":0.01},"classroomParams":{"A":{"a":1,"b":4},"B":{"a":4,"b":1},"C":{"a":2,"b":8},"D":{"a":8,"b":2}},"conditions":["nonSeqFull","nonSeqPartial","seqNoFeedback","seqFeedback"],"classroomPairings":[["A","B"],["C","D"]],"coinWeights":[0.2,0.5,0.8],"subjectId":"AKNQ0ZU1MXN1T","assignmentId":"37M28K1J0RZEHAGFCPBHW3GJVDMJA5","hitId":"3H6W48L9F4B5OEOMH57RM53ZYNHWPM","url":"https://gershmanlab.com/experiments/alicia/teaching/experiment/?hitId=3H6W48L9F4B5OEOMH57RM53ZYNHWPM&workerId=AKNQ0ZU1MXN1T&assignmentId=37M28K1J0RZEHAGFCPBHW3GJVDMJA5&a=J8M78&tp_a=J8M78&b=37M28K1J0RZEHAGFCPBHW3GJVDMJA5&tp_b=37M28K1J0RZEHAGFCPBHW3GJVDMJA5&c=365198&tp_c=365198","heads":8,"tails":0,"studentIndex":20,"studentTrueHypers":{"a":8,"b":2},"studentGuess":0.8888888888888888,"delta":0.38888888888888884,"totalExamples":8,"bonusSoFar":2.98},{"rt":4634,"response":{"heads":"8","tails":"0"},"type":"response","condition":"seqFeedback","trueTheta":0.5,"classrooms":["C","D"],"studentTrueClassroom":"D","exampleSet":"second","trial_type":"survey-html-form","trial_index":204,"time_elapsed":3741794,"internal_node_id":"0.0-161.0-0.0","params":{"nStudents":24,"maxFlips":30,"completionMinutes":45,"basePay":8,"maxBonus":9,"perTrialBonus":0.5,"perTrialBonusThreshold":0.1,"exampleCost":0.01},"classroomParams":{"A":{"a":1,"b":4},"B":{"a":4,"b":1},"C":{"a":2,"b":8},"D":{"a":8,"b":2}},"conditions":["nonSeqFull","nonSeqPartial","seqNoFeedback","seqFeedback"],"classroomPairings":[["A","B"],["C","D"]],"coinWeights":[0.2,0.5,0.8],"subjectId":"AKNQ0ZU1MXN1T","assignmentId":"37M28K1J0RZEHAGFCPBHW3GJVDMJA5","hitId":"3H6W48L9F4B5OEOMH57RM53ZYNHWPM","url":"https://gershmanlab.com/experiments/alicia/teaching/experiment/?hitId=3H6W48L9F4B5OEOMH57RM53ZYNHWPM&workerId=AKNQ0ZU1MXN1T&assignmentId=37M28K1J0RZEHAGFCPBHW3GJVDMJA5&a=J8M78&tp_a=J8M78&b=37M28K1J0RZEHAGFCPBHW3GJVDMJA5&tp_b=37M28K1J0RZEHAGFCPBHW3GJVDMJA5&c=365198&tp_c=365198","firstResponseHeads":8,"firstResponseTails":0,"secondResponseHeads":8,"secondResponseTails":0,"studentIndex":20,"studentTrueHypers":{"a":8,"b":2},"studentGuess":0.9230769230769231,"delta":0.42307692307692313,"bonus":0,"bonusSoFar":2.98,"totalExamples":16},{"rt":4511,"response":{"heads":"0","tails":"2"},"type":"response","condition":"seqNoFeedback","trueTheta":0.2,"classrooms":["C","D"],"studentTrueClassroom":"D","exampleSet":"first","trial_type":"survey-html-form","trial_index":210,"time_elapsed":3758290,"internal_node_id":"0.0-167.0-0.0","params":{"nStudents":24,"maxFlips":30,"completionMinutes":45,"basePay":8,"maxBonus":9,"perTrialBonus":0.5,"perTrialBonusThreshold":0.1,"exampleCost":0.01},"classroomParams":{"A":{"a":1,"b":4},"B":{"a":4,"b":1},"C":{"a":2,"b":8},"D":{"a":8,"b":2}},"conditions":["nonSeqFull","nonSeqPartial","seqNoFeedback","seqFeedback"],"classroomPairings":[["A","B"],["C","D"]],"coinWeights":[0.2,0.5,0.8],"subjectId":"AKNQ0ZU1MXN1T","assignmentId":"37M28K1J0RZEHAGFCPBHW3GJVDMJA5","hitId":"3H6W48L9F4B5OEOMH57RM53ZYNHWPM","url":"https://gershmanlab.com/experiments/alicia/teaching/experiment/?hitId=3H6W48L9F4B5OEOMH57RM53ZYNHWPM&workerId=AKNQ0ZU1MXN1T&assignmentId=37M28K1J0RZEHAGFCPBHW3GJVDMJA5&a=J8M78&tp_a=J8M78&b=37M28K1J0RZEHAGFCPBHW3GJVDMJA5&tp_b=37M28K1J0RZEHAGFCPBHW3GJVDMJA5&c=365198&tp_c=365198","heads":0,"tails":2,"studentIndex":21,"studentTrueHypers":{"a":8,"b":2},"studentGuess":0.6666666666666666,"delta":0.4666666666666666,"totalExamples":2,"bonusSoFar":2.98},{"rt":4168,"response":{"heads":"0","tails":"2"},"type":"response","condition":"seqNoFeedback","trueTheta":0.2,"classrooms":["C","D"],"studentTrueClassroom":"D","exampleSet":"second","trial_type":"survey-html-form","trial_index":213,"time_elapsed":3767714,"internal_node_id":"0.0-170.0-0.0","params":{"nStudents":24,"maxFlips":30,"completionMinutes":45,"basePay":8,"maxBonus":9,"perTrialBonus":0.5,"perTrialBonusThreshold":0.1,"exampleCost":0.01},"classroomParams":{"A":{"a":1,"b":4},"B":{"a":4,"b":1},"C":{"a":2,"b":8},"D":{"a":8,"b":2}},"conditions":["nonSeqFull","nonSeqPartial","seqNoFeedback","seqFeedback"],"classroomPairings":[["A","B"],["C","D"]],"coinWeights":[0.2,0.5,0.8],"subjectId":"AKNQ0ZU1MXN1T","assignmentId":"37M28K1J0RZEHAGFCPBHW3GJVDMJA5","hitId":"3H6W48L9F4B5OEOMH57RM53ZYNHWPM","url":"https://gershmanlab.com/experiments/alicia/teaching/experiment/?hitId=3H6W48L9F4B5OEOMH57RM53ZYNHWPM&workerId=AKNQ0ZU1MXN1T&assignmentId=37M28K1J0RZEHAGFCPBHW3GJVDMJA5&a=J8M78&tp_a=J8M78&b=37M28K1J0RZEHAGFCPBHW3GJVDMJA5&tp_b=37M28K1J0RZEHAGFCPBHW3GJVDMJA5&c=365198&tp_c=365198","firstResponseHeads":0,"firstResponseTails":2,"secondResponseHeads":0,"secondResponseTails":2,"studentIndex":21,"studentTrueHypers":{"a":8,"b":2},"studentGuess":0.5714285714285714,"delta":0.3714285714285714,"bonus":0,"bonusSoFar":2.98,"totalExamples":4},{"rt":3151,"response":{"heads":"0","tails":"2"},"type":"response","condition":"nonSeqFull","trueTheta":0.2,"classrooms":["C","D"],"studentTrueClassroom":"C","exampleSet":"first","trial_type":"survey-html-form","trial_index":219,"time_elapsed":3788362,"internal_node_id":"0.0-176.0-0.0","params":{"nStudents":24,"maxFlips":30,"completionMinutes":45,"basePay":8,"maxBonus":9,"perTrialBonus":0.5,"perTrialBonusThreshold":0.1,"exampleCost":0.01},"classroomParams":{"A":{"a":1,"b":4},"B":{"a":4,"b":1},"C":{"a":2,"b":8},"D":{"a":8,"b":2}},"conditions":["nonSeqFull","nonSeqPartial","seqNoFeedback","seqFeedback"],"classroomPairings":[["A","B"],["C","D"]],"coinWeights":[0.2,0.5,0.8],"subjectId":"AKNQ0ZU1MXN1T","assignmentId":"37M28K1J0RZEHAGFCPBHW3GJVDMJA5","hitId":"3H6W48L9F4B5OEOMH57RM53ZYNHWPM","url":"https://gershmanlab.com/experiments/alicia/teaching/experiment/?hitId=3H6W48L9F4B5OEOMH57RM53ZYNHWPM&workerId=AKNQ0ZU1MXN1T&assignmentId=37M28K1J0RZEHAGFCPBHW3GJVDMJA5&a=J8M78&tp_a=J8M78&b=37M28K1J0RZEHAGFCPBHW3GJVDMJA5&tp_b=37M28K1J0RZEHAGFCPBHW3GJVDMJA5&c=365198&tp_c=365198","heads":0,"tails":2,"studentIndex":22,"studentTrueHypers":{"a":2,"b":8},"studentGuess":0.16666666666666666,"delta":0.033333333333333354,"totalExamples":2,"bonus":0.48,"bonusSoFar":3.46},{"rt":3799,"response":{"heads":"0","tails":"4"},"type":"response","condition":"seqFeedback","trueTheta":0.2,"classrooms":["A","B"],"studentTrueClassroom":"B","exampleSet":"first","trial_type":"survey-html-form","trial_index":225,"time_elapsed":3804683,"internal_node_id":"0.0-182.0-0.0","params":{"nStudents":24,"maxFlips":30,"completionMinutes":45,"basePay":8,"maxBonus":9,"perTrialBonus":0.5,"perTrialBonusThreshold":0.1,"exampleCost":0.01},"classroomParams":{"A":{"a":1,"b":4},"B":{"a":4,"b":1},"C":{"a":2,"b":8},"D":{"a":8,"b":2}},"conditions":["nonSeqFull","nonSeqPartial","seqNoFeedback","seqFeedback"],"classroomPairings":[["A","B"],["C","D"]],"coinWeights":[0.2,0.5,0.8],"subjectId":"AKNQ0ZU1MXN1T","assignmentId":"37M28K1J0RZEHAGFCPBHW3GJVDMJA5","hitId":"3H6W48L9F4B5OEOMH57RM53ZYNHWPM","url":"https://gershmanlab.com/experiments/alicia/teaching/experiment/?hitId=3H6W48L9F4B5OEOMH57RM53ZYNHWPM&workerId=AKNQ0ZU1MXN1T&assignmentId=37M28K1J0RZEHAGFCPBHW3GJVDMJA5&a=J8M78&tp_a=J8M78&b=37M28K1J0RZEHAGFCPBHW3GJVDMJA5&tp_b=37M28K1J0RZEHAGFCPBHW3GJVDMJA5&c=365198&tp_c=365198","heads":0,"tails":4,"studentIndex":23,"studentTrueHypers":{"a":4,"b":1},"studentGuess":0.4444444444444444,"delta":0.2444444444444444,"totalExamples":4,"bonusSoFar":3.46},{"rt":4303,"response":{"heads":"0","tails":"2"},"type":"response","condition":"seqFeedback","trueTheta":0.2,"classrooms":["A","B"],"studentTrueClassroom":"B","exampleSet":"second","trial_type":"survey-html-form","trial_index":229,"time_elapsed":3816667,"internal_node_id":"0.0-186.0-0.0","params":{"nStudents":24,"maxFlips":30,"completionMinutes":45,"basePay":8,"maxBonus":9,"perTrialBonus":0.5,"perTrialBonusThreshold":0.1,"exampleCost":0.01},"classroomParams":{"A":{"a":1,"b":4},"B":{"a":4,"b":1},"C":{"a":2,"b":8},"D":{"a":8,"b":2}},"conditions":["nonSeqFull","nonSeqPartial","seqNoFeedback","seqFeedback"],"classroomPairings":[["A","B"],["C","D"]],"coinWeights":[0.2,0.5,0.8],"subjectId":"AKNQ0ZU1MXN1T","assignmentId":"37M28K1J0RZEHAGFCPBHW3GJVDMJA5","hitId":"3H6W48L9F4B5OEOMH57RM53ZYNHWPM","url":"https://gershmanlab.com/experiments/alicia/teaching/experiment/?hitId=3H6W48L9F4B5OEOMH57RM53ZYNHWPM&workerId=AKNQ0ZU1MXN1T&assignmentId=37M28K1J0RZEHAGFCPBHW3GJVDMJA5&a=J8M78&tp_a=J8M78&b=37M28K1J0RZEHAGFCPBHW3GJVDMJA5&tp_b=37M28K1J0RZEHAGFCPBHW3GJVDMJA5&c=365198&tp_c=365198","firstResponseHeads":0,"firstResponseTails":4,"secondResponseHeads":0,"secondResponseTails":2,"studentIndex":23,"studentTrueHypers":{"a":4,"b":1},"studentGuess":0.36363636363636365,"delta":0.16363636363636364,"bonus":0,"bonusSoFar":3.46,"totalExamples":6},{"rt":24150,"response":{"gender":"male","age":"41","understood":"yes","comments":"None"},"type":"response","trial_type":"survey-html-form","trial_index":233,"time_elapsed":3848761,"internal_node_id":"0.0-191.0","params":{"nStudents":24,"maxFlips":30,"completionMinutes":45,"basePay":8,"maxBonus":9,"perTrialBonus":0.5,"perTrialBonusThreshold":0.1,"exampleCost":0.01},"classroomParams":{"A":{"a":1,"b":4},"B":{"a":4,"b":1},"C":{"a":2,"b":8},"D":{"a":8,"b":2}},"conditions":["nonSeqFull","nonSeqPartial","seqNoFeedback","seqFeedback"],"classroomPairings":[["A","B"],["C","D"]],"coinWeights":[0.2,0.5,0.8],"subjectId":"AKNQ0ZU1MXN1T","assignmentId":"37M28K1J0RZEHAGFCPBHW3GJVDMJA5","hitId":"3H6W48L9F4B5OEOMH57RM53ZYNHWPM","url":"https://gershmanlab.com/experiments/alicia/teaching/experiment/?hitId=3H6W48L9F4B5OEOMH57RM53ZYNHWPM&workerId=AKNQ0ZU1MXN1T&assignmentId=37M28K1J0RZEHAGFCPBHW3GJVDMJA5&a=J8M78&tp_a=J8M78&b=37M28K1J0RZEHAGFCPBHW3GJVDMJA5&tp_b=37M28K1J0RZEHAGFCPBHW3GJVDMJA5&c=365198&tp_c=365198","totalBonus":3.46}]