[{"rt":75934,"response":{"heads":"4","tails":"4"},"type":"response","condition":"seqNoFeedback","trueTheta":0.2,"classrooms":["C","D"],"studentTrueClassroom":"D","exampleSet":"first","trial_type":"survey-html-form","trial_index":7,"time_elapsed":3272762,"internal_node_id":"0.0-6.0-0.0","params":{"nStudents":24,"maxFlips":30,"completionMinutes":45,"basePay":8,"maxBonus":9,"perTrialBonus":0.5,"perTrialBonusThreshold":0.1,"exampleCost":0.01},"classroomParams":{"A":{"a":1,"b":4},"B":{"a":4,"b":1},"C":{"a":2,"b":8},"D":{"a":8,"b":2}},"conditions":["nonSeqFull","nonSeqPartial","seqNoFeedback","seqFeedback"],"classroomPairings":[["A","B"],["C","D"]],"coinWeights":[0.2,0.5,0.8],"subjectId":"AMV1E7FFPVAW4","assignmentId":"34BBWHLWHBXFTCZCVCM92RYAAH0IW3","hitId":"3YGE63DIN8J20XK20KS1742RQF60WK","url":"https://gershmanlab.com/experiments/alicia/teaching/experiment/?hitId=3YGE63DIN8J20XK20KS1742RQF60WK&workerId=AMV1E7FFPVAW4&assignmentId=34BBWHLWHBXFTCZCVCM92RYAAH0IW3&a=WWB48&tp_a=WWB48&b=34BBWHLWHBXFTCZCVCM92RYAAH0IW3&tp_b=34BBWHLWHBXFTCZCVCM92RYAAH0IW3&c=365198&tp_c=365198","heads":4,"tails":4,"studentIndex":0,"studentTrueHypers":{"a":8,"b":2},"studentGuess":0.6666666666666666,"delta":0.4666666666666666,"totalExamples":8,"bonusSoFar":0},{"rt":24934,"response":{"heads":"2","tails":"8"},"type":"response","condition":"seqNoFeedback","trueTheta":0.2,"classrooms":["C","D"],"studentTrueClassroom":"D","exampleSet":"second","trial_type":"survey-html-form","trial_index":10,"time_elapsed":3304209,"internal_node_id":"0.0-9.0-0.0","params":{"nStudents":24,"maxFlips":30,"completionMinutes":45,"basePay":8,"maxBonus":9,"perTrialBonus":0.5,"perTrialBonusThreshold":0.1,"exampleCost":0.01},"classroomParams":{"A":{"a":1,"b":4},"B":{"a":4,"b":1},"C":{"a":2,"b":8},"D":{"a":8,"b":2}},"conditions":["nonSeqFull","nonSeqPartial","seqNoFeedback","seqFeedback"],"classroomPairings":[["A","B"],["C","D"]],"coinWeights":[0.2,0.5,0.8],"subjectId":"AMV1E7FFPVAW4","assignmentId":"34BBWHLWHBXFTCZCVCM92RYAAH0IW3","hitId":"3YGE63DIN8J20XK20KS1742RQF60WK","url":"https://gershmanlab.com/experiments/alicia/teaching/experiment/?hitId=3YGE63DIN8J20XK20KS1742RQF60WK&workerId=AMV1E7FFPVAW4&assignmentId=34BBWHLWHBXFTCZCVCM92RYAAH0IW3&a=WWB48&tp_a=WWB48&b=34BBWHLWHBXFTCZCVCM92RYAAH0IW3&tp_b=34BBWHLWHBXFTCZCVCM92RYAAH0IW3&c=365198&tp_c=365198","firstResponseHeads":4,"firstResponseTails":4,"secondResponseHeads":2,"secondResponseTails":8,"studentIndex":0,"studentTrueHypers":{"a":8,"b":2},"studentGuess":0.5,"delta":0.3,"bonus":0,"bonusSoFar":0,"totalExamples":18},{"rt":31474,"response":{"heads":"8","tails":"2"},"type":"response","condition":"nonSeqFull","trueTheta":0.8,"classrooms":["A","B"],"studentTrueClassroom":"B","exampleSet":"first","trial_type":"survey-html-form","trial_index":16,"time_elapsed":3355720,"internal_node_id":"0.0-15.0-0.0","params":{"nStudents":24,"maxFlips":30,"completionMinutes":45,"basePay":8,"maxBonus":9,"perTrialBonus":0.5,"perTrialBonusThreshold":0.1,"exampleCost":0.01},"classroomParams":{"A":{"a":1,"b":4},"B":{"a":4,"b":1},"C":{"a":2,"b":8},"D":{"a":8,"b":2}},"conditions":["nonSeqFull","nonSeqPartial","seqNoFeedback","seqFeedback"],"classroomPairings":[["A","B"],["C","D"]],"coinWeights":[0.2,0.5,0.8],"subjectId":"AMV1E7FFPVAW4","assignmentId":"34BBWHLWHBXFTCZCVCM92RYAAH0IW3","hitId":"3YGE63DIN8J20XK20KS1742RQF60WK","url":"https://gershmanlab.com/experiments/alicia/teaching/experiment/?hitId=3YGE63DIN8J20XK20KS1742RQF60WK&workerId=AMV1E7FFPVAW4&assignmentId=34BBWHLWHBXFTCZCVCM92RYAAH0IW3&a=WWB48&tp_a=WWB48&b=34BBWHLWHBXFTCZCVCM92RYAAH0IW3&tp_b=34BBWHLWHBXFTCZCVCM92RYAAH0IW3&c=365198&tp_c=365198","heads":8,"tails":2,"studentIndex":1,"studentTrueHypers":{"a":4,"b":1},"studentGuess":0.8,"delta":0,"totalExamples":10,"bonus":0.4,"bonusSoFar":0.4},{"rt":13630,"response":{"heads":"5","tails":"1"},"type":"response","condition":"seqNoFeedback","trueTheta":0.5,"classrooms":["C","D"],"studentTrueClassroom":"D","exampleSet":"first","trial_type":"survey-html-form","trial_index":22,"time_elapsed":3383773,"internal_node_id":"0.0-21.0-0.0","params":{"nStudents":24,"maxFlips":30,"completionMinutes":45,"basePay":8,"maxBonus":9,"perTrialBonus":0.5,"perTrialBonusThreshold":0.1,"exampleCost":0.01},"classroomParams":{"A":{"a":1,"b":4},"B":{"a":4,"b":1},"C":{"a":2,"b":8},"D":{"a":8,"b":2}},"conditions":["nonSeqFull","nonSeqPartial","seqNoFeedback","seqFeedback"],"classroomPairings":[["A","B"],["C","D"]],"coinWeights":[0.2,0.5,0.8],"subjectId":"AMV1E7FFPVAW4","assignmentId":"34BBWHLWHBXFTCZCVCM92RYAAH0IW3","hitId":"3YGE63DIN8J20XK20KS1742RQF60WK","url":"https://gershmanlab.com/experiments/alicia/teaching/experiment/?hitId=3YGE63DIN8J20XK20KS1742RQF60WK&workerId=AMV1E7FFPVAW4&assignmentId=34BBWHLWHBXFTCZCVCM92RYAAH0IW3&a=WWB48&tp_a=WWB48&b=34BBWHLWHBXFTCZCVCM92RYAAH0IW3&tp_b=34BBWHLWHBXFTCZCVCM92RYAAH0IW3&c=365198&tp_c=365198","heads":5,"tails":1,"studentIndex":2,"studentTrueHypers":{"a":8,"b":2},"studentGuess":0.8125,"delta":0.3125,"totalExamples":6,"bonusSoFar":0.4},{"rt":8551,"response":{"heads":"5","tails":"0"},"type":"response","condition":"seqNoFeedback","trueTheta":0.5,"classrooms":["C","D"],"studentTrueClassroom":"D","exampleSet":"second","trial_type":"survey-html-form","trial_index":25,"time_elapsed":3397834,"internal_node_id":"0.0-24.0-0.0","params":{"nStudents":24,"maxFlips":30,"completionMinutes":45,"basePay":8,"maxBonus":9,"perTrialBonus":0.5,"perTrialBonusThreshold":0.1,"exampleCost":0.01},"classroomParams":{"A":{"a":1,"b":4},"B":{"a":4,"b":1},"C":{"a":2,"b":8},"D":{"a":8,"b":2}},"conditions":["nonSeqFull","nonSeqPartial","seqNoFeedback","seqFeedback"],"classroomPairings":[["A","B"],["C","D"]],"coinWeights":[0.2,0.5,0.8],"subjectId":"AMV1E7FFPVAW4","assignmentId":"34BBWHLWHBXFTCZCVCM92RYAAH0IW3","hitId":"3YGE63DIN8J20XK20KS1742RQF60WK","url":"https://gershmanlab.com/experiments/alicia/teaching/experiment/?hitId=3YGE63DIN8J20XK20KS1742RQF60WK&workerId=AMV1E7FFPVAW4&assignmentId=34BBWHLWHBXFTCZCVCM92RYAAH0IW3&a=WWB48&tp_a=WWB48&b=34BBWHLWHBXFTCZCVCM92RYAAH0IW3&tp_b=34BBWHLWHBXFTCZCVCM92RYAAH0IW3&c=365198&tp_c=365198","firstResponseHeads":5,"firstResponseTails":1,"secondResponseHeads":5,"secondResponseTails":0,"studentIndex":2,"studentTrueHypers":{"a":8,"b":2},"studentGuess":0.8571428571428571,"delta":0.3571428571428571,"bonus":0,"bonusSoFar":0.4,"totalExamples":11},{"rt":3937,"response":{"heads":"2","tails":"0"},"type":"response","condition":"seqFeedback","trueTheta":0.2,"classrooms":["C","D"],"studentTrueClassroom":"D","exampleSet":"first","trial_type":"survey-html-form","trial_index":31,"time_elapsed":3414411,"internal_node_id":"0.0-30.0-0.0","params":{"nStudents":24,"maxFlips":30,"completionMinutes":45,"basePay":8,"maxBonus":9,"perTrialBonus":0.5,"perTrialBonusThreshold":0.1,"exampleCost":0.01},"classroomParams":{"A":{"a":1,"b":4},"B":{"a":4,"b":1},"C":{"a":2,"b":8},"D":{"a":8,"b":2}},"conditions":["nonSeqFull","nonSeqPartial","seqNoFeedback","seqFeedback"],"classroomPairings":[["A","B"],["C","D"]],"coinWeights":[0.2,0.5,0.8],"subjectId":"AMV1E7FFPVAW4","assignmentId":"34BBWHLWHBXFTCZCVCM92RYAAH0IW3","hitId":"3YGE63DIN8J20XK20KS1742RQF60WK","url":"https://gershmanlab.com/experiments/alicia/teaching/experiment/?hitId=3YGE63DIN8J20XK20KS1742RQF60WK&workerId=AMV1E7FFPVAW4&assignmentId=34BBWHLWHBXFTCZCVCM92RYAAH0IW3&a=WWB48&tp_a=WWB48&b=34BBWHLWHBXFTCZCVCM92RYAAH0IW3&tp_b=34BBWHLWHBXFTCZCVCM92RYAAH0IW3&c=365198&tp_c=365198","heads":2,"tails":0,"studentIndex":3,"studentTrueHypers":{"a":8,"b":2},"studentGuess":0.8333333333333334,"delta":0.6333333333333333,"totalExamples":2,"bonusSoFar":0.4},{"rt":3599,"response":{"heads":"2","tails":"0"},"type":"response","condition":"seqFeedback","trueTheta":0.2,"classrooms":["C","D"],"studentTrueClassroom":"D","exampleSet":"second","trial_type":"survey-html-form","trial_index":35,"time_elapsed":3426095,"internal_node_id":"0.0-34.0-0.0","params":{"nStudents":24,"maxFlips":30,"completionMinutes":45,"basePay":8,"maxBonus":9,"perTrialBonus":0.5,"perTrialBonusThreshold":0.1,"exampleCost":0.01},"classroomParams":{"A":{"a":1,"b":4},"B":{"a":4,"b":1},"C":{"a":2,"b":8},"D":{"a":8,"b":2}},"conditions":["nonSeqFull","nonSeqPartial","seqNoFeedback","seqFeedback"],"classroomPairings":[["A","B"],["C","D"]],"coinWeights":[0.2,0.5,0.8],"subjectId":"AMV1E7FFPVAW4","assignmentId":"34BBWHLWHBXFTCZCVCM92RYAAH0IW3","hitId":"3YGE63DIN8J20XK20KS1742RQF60WK","url":"https://gershmanlab.com/experiments/alicia/teaching/experiment/?hitId=3YGE63DIN8J20XK20KS1742RQF60WK&workerId=AMV1E7FFPVAW4&assignmentId=34BBWHLWHBXFTCZCVCM92RYAAH0IW3&a=WWB48&tp_a=WWB48&b=34BBWHLWHBXFTCZCVCM92RYAAH0IW3&tp_b=34BBWHLWHBXFTCZCVCM92RYAAH0IW3&c=365198&tp_c=365198","firstResponseHeads":2,"firstResponseTails":0,"secondResponseHeads":2,"secondResponseTails":0,"studentIndex":3,"studentTrueHypers":{"a":8,"b":2},"studentGuess":0.8571428571428571,"delta":0.657142857142857,"bonus":0,"bonusSoFar":0.4,"totalExamples":4},{"rt":3473,"response":{"heads":"5","tails":"0"},"type":"response","condition":"nonSeqFull","trueTheta":0.5,"classrooms":["C","D"],"studentTrueClassroom":"D","exampleSet":"first","trial_type":"survey-html-form","trial_index":41,"time_elapsed":3441747,"internal_node_id":"0.0-40.0-0.0","params":{"nStudents":24,"maxFlips":30,"completionMinutes":45,"basePay":8,"maxBonus":9,"perTrialBonus":0.5,"perTrialBonusThreshold":0.1,"exampleCost":0.01},"classroomParams":{"A":{"a":1,"b":4},"B":{"a":4,"b":1},"C":{"a":2,"b":8},"D":{"a":8,"b":2}},"conditions":["nonSeqFull","nonSeqPartial","seqNoFeedback","seqFeedback"],"classroomPairings":[["A","B"],["C","D"]],"coinWeights":[0.2,0.5,0.8],"subjectId":"AMV1E7FFPVAW4","assignmentId":"34BBWHLWHBXFTCZCVCM92RYAAH0IW3","hitId":"3YGE63DIN8J20XK20KS1742RQF60WK","url":"https://gershmanlab.com/experiments/alicia/teaching/experiment/?hitId=3YGE63DIN8J20XK20KS1742RQF60WK&workerId=AMV1E7FFPVAW4&assignmentId=34BBWHLWHBXFTCZCVCM92RYAAH0IW3&a=WWB48&tp_a=WWB48&b=34BBWHLWHBXFTCZCVCM92RYAAH0IW3&tp_b=34BBWHLWHBXFTCZCVCM92RYAAH0IW3&c=365198&tp_c=365198","heads":5,"tails":0,"studentIndex":4,"studentTrueHypers":{"a":8,"b":2},"studentGuess":0.8666666666666667,"delta":0.3666666666666667,"totalExamples":5,"bonus":0,"bonusSoFar":0.4},{"rt":2233,"response":{"heads":"2","tails":"0"},"type":"response","condition":"seqNoFeedback","trueTheta":0.2,"classrooms":["A","B"],"studentTrueClassroom":"A","exampleSet":"first","trial_type":"survey-html-form","trial_index":47,"time_elapsed":3454605,"internal_node_id":"0.0-46.0-0.0","params":{"nStudents":24,"maxFlips":30,"completionMinutes":45,"basePay":8,"maxBonus":9,"perTrialBonus":0.5,"perTrialBonusThreshold":0.1,"exampleCost":0.01},"classroomParams":{"A":{"a":1,"b":4},"B":{"a":4,"b":1},"C":{"a":2,"b":8},"D":{"a":8,"b":2}},"conditions":["nonSeqFull","nonSeqPartial","seqNoFeedback","seqFeedback"],"classroomPairings":[["A","B"],["C","D"]],"coinWeights":[0.2,0.5,0.8],"subjectId":"AMV1E7FFPVAW4","assignmentId":"34BBWHLWHBXFTCZCVCM92RYAAH0IW3","hitId":"3YGE63DIN8J20XK20KS1742RQF60WK","url":"https://gershmanlab.com/experiments/alicia/teaching/experiment/?hitId=3YGE63DIN8J20XK20KS1742RQF60WK&workerId=AMV1E7FFPVAW4&assignmentId=34BBWHLWHBXFTCZCVCM92RYAAH0IW3&a=WWB48&tp_a=WWB48&b=34BBWHLWHBXFTCZCVCM92RYAAH0IW3&tp_b=34BBWHLWHBXFTCZCVCM92RYAAH0IW3&c=365198&tp_c=365198","heads":2,"tails":0,"studentIndex":5,"studentTrueHypers":{"a":1,"b":4},"studentGuess":0.42857142857142855,"delta":0.22857142857142854,"totalExamples":2,"bonusSoFar":0.4},{"rt":5997,"response":{"heads":"2","tails":"0"},"type":"response","condition":"seqNoFeedback","trueTheta":0.2,"classrooms":["A","B"],"studentTrueClassroom":"A","exampleSet":"second","trial_type":"survey-html-form","trial_index":50,"time_elapsed":3465861,"internal_node_id":"0.0-49.0-0.0","params":{"nStudents":24,"maxFlips":30,"completionMinutes":45,"basePay":8,"maxBonus":9,"perTrialBonus":0.5,"perTrialBonusThreshold":0.1,"exampleCost":0.01},"classroomParams":{"A":{"a":1,"b":4},"B":{"a":4,"b":1},"C":{"a":2,"b":8},"D":{"a":8,"b":2}},"conditions":["nonSeqFull","nonSeqPartial","seqNoFeedback","seqFeedback"],"classroomPairings":[["A","B"],["C","D"]],"coinWeights":[0.2,0.5,0.8],"subjectId":"AMV1E7FFPVAW4","assignmentId":"34BBWHLWHBXFTCZCVCM92RYAAH0IW3","hitId":"3YGE63DIN8J20XK20KS1742RQF60WK","url":"https://gershmanlab.com/experiments/alicia/teaching/experiment/?hitId=3YGE63DIN8J20XK20KS1742RQF60WK&workerId=AMV1E7FFPVAW4&assignmentId=34BBWHLWHBXFTCZCVCM92RYAAH0IW3&a=WWB48&tp_a=WWB48&b=34BBWHLWHBXFTCZCVCM92RYAAH0IW3&tp_b=34BBWHLWHBXFTCZCVCM92RYAAH0IW3&c=365198&tp_c=365198","firstResponseHeads":2,"firstResponseTails":0,"secondResponseHeads":2,"secondResponseTails":0,"studentIndex":5,"studentTrueHypers":{"a":1,"b":4},"studentGuess":0.5555555555555556,"delta":0.35555555555555557,"bonus":0,"bonusSoFar":0.4,"totalExamples":4},{"rt":2375,"response":{"heads":"5","tails":"0"},"type":"response","condition":"seqFeedback","trueTheta":0.5,"classrooms":["A","B"],"studentTrueClassroom":"B","exampleSet":"first","trial_type":"survey-html-form","trial_index":56,"time_elapsed":3478036,"internal_node_id":"0.0-55.0-0.0","params":{"nStudents":24,"maxFlips":30,"completionMinutes":45,"basePay":8,"maxBonus":9,"perTrialBonus":0.5,"perTrialBonusThreshold":0.1,"exampleCost":0.01},"classroomParams":{"A":{"a":1,"b":4},"B":{"a":4,"b":1},"C":{"a":2,"b":8},"D":{"a":8,"b":2}},"conditions":["nonSeqFull","nonSeqPartial","seqNoFeedback","seqFeedback"],"classroomPairings":[["A","B"],["C","D"]],"coinWeights":[0.2,0.5,0.8],"subjectId":"AMV1E7FFPVAW4","assignmentId":"34BBWHLWHBXFTCZCVCM92RYAAH0IW3","hitId":"3YGE63DIN8J20XK20KS1742RQF60WK","url":"https://gershmanlab.com/experiments/alicia/teaching/experiment/?hitId=3YGE63DIN8J20XK20KS1742RQF60WK&workerId=AMV1E7FFPVAW4&assignmentId=34BBWHLWHBXFTCZCVCM92RYAAH0IW3&a=WWB48&tp_a=WWB48&b=34BBWHLWHBXFTCZCVCM92RYAAH0IW3&tp_b=34BBWHLWHBXFTCZCVCM92RYAAH0IW3&c=365198&tp_c=365198","heads":5,"tails":0,"studentIndex":6,"studentTrueHypers":{"a":4,"b":1},"studentGuess":0.9,"delta":0.4,"totalExamples":5,"bonusSoFar":0.4},{"rt":3671,"response":{"heads":"5","tails":"0"},"type":"response","condition":"seqFeedback","trueTheta":0.5,"classrooms":["A","B"],"studentTrueClassroom":"B","exampleSet":"second","trial_type":"survey-html-form","trial_index":60,"time_elapsed":3490714,"internal_node_id":"0.0-59.0-0.0","params":{"nStudents":24,"maxFlips":30,"completionMinutes":45,"basePay":8,"maxBonus":9,"perTrialBonus":0.5,"perTrialBonusThreshold":0.1,"exampleCost":0.01},"classroomParams":{"A":{"a":1,"b":4},"B":{"a":4,"b":1},"C":{"a":2,"b":8},"D":{"a":8,"b":2}},"conditions":["nonSeqFull","nonSeqPartial","seqNoFeedback","seqFeedback"],"classroomPairings":[["A","B"],["C","D"]],"coinWeights":[0.2,0.5,0.8],"subjectId":"AMV1E7FFPVAW4","assignmentId":"34BBWHLWHBXFTCZCVCM92RYAAH0IW3","hitId":"3YGE63DIN8J20XK20KS1742RQF60WK","url":"https://gershmanlab.com/experiments/alicia/teaching/experiment/?hitId=3YGE63DIN8J20XK20KS1742RQF60WK&workerId=AMV1E7FFPVAW4&assignmentId=34BBWHLWHBXFTCZCVCM92RYAAH0IW3&a=WWB48&tp_a=WWB48&b=34BBWHLWHBXFTCZCVCM92RYAAH0IW3&tp_b=34BBWHLWHBXFTCZCVCM92RYAAH0IW3&c=365198&tp_c=365198","firstResponseHeads":5,"firstResponseTails":0,"secondResponseHeads":5,"secondResponseTails":0,"studentIndex":6,"studentTrueHypers":{"a":4,"b":1},"studentGuess":0.9333333333333333,"delta":0.43333333333333335,"bonus":0,"bonusSoFar":0.4,"totalExamples":10},{"rt":4052,"response":{"heads":"8","tails":"0"},"type":"response","condition":"nonSeqPartial","trueTheta":0.8,"classrooms":["A","B"],"studentTrueClassroom":"A","exampleSet":"first","trial_type":"survey-html-form","trial_index":66,"time_elapsed":3505067,"internal_node_id":"0.0-65.0-0.0","params":{"nStudents":24,"maxFlips":30,"completionMinutes":45,"basePay":8,"maxBonus":9,"perTrialBonus":0.5,"perTrialBonusThreshold":0.1,"exampleCost":0.01},"classroomParams":{"A":{"a":1,"b":4},"B":{"a":4,"b":1},"C":{"a":2,"b":8},"D":{"a":8,"b":2}},"conditions":["nonSeqFull","nonSeqPartial","seqNoFeedback","seqFeedback"],"classroomPairings":[["A","B"],["C","D"]],"coinWeights":[0.2,0.5,0.8],"subjectId":"AMV1E7FFPVAW4","assignmentId":"34BBWHLWHBXFTCZCVCM92RYAAH0IW3","hitId":"3YGE63DIN8J20XK20KS1742RQF60WK","url":"https://gershmanlab.com/experiments/alicia/teaching/experiment/?hitId=3YGE63DIN8J20XK20KS1742RQF60WK&workerId=AMV1E7FFPVAW4&assignmentId=34BBWHLWHBXFTCZCVCM92RYAAH0IW3&a=WWB48&tp_a=WWB48&b=34BBWHLWHBXFTCZCVCM92RYAAH0IW3&tp_b=34BBWHLWHBXFTCZCVCM92RYAAH0IW3&c=365198&tp_c=365198","heads":8,"tails":0,"studentIndex":7,"studentTrueHypers":{"a":1,"b":4},"studentGuess":0.6923076923076923,"delta":0.10769230769230775,"totalExamples":8,"bonus":0,"bonusSoFar":0.4},{"rt":3363,"response":{"heads":"05","tails":"0"},"type":"response","condition":"nonSeqPartial","trueTheta":0.5,"classrooms":["A","B"],"studentTrueClassroom":"B","exampleSet":"first","trial_type":"survey-html-form","trial_index":72,"time_elapsed":3520586,"internal_node_id":"0.0-71.0-0.0","params":{"nStudents":24,"maxFlips":30,"completionMinutes":45,"basePay":8,"maxBonus":9,"perTrialBonus":0.5,"perTrialBonusThreshold":0.1,"exampleCost":0.01},"classroomParams":{"A":{"a":1,"b":4},"B":{"a":4,"b":1},"C":{"a":2,"b":8},"D":{"a":8,"b":2}},"conditions":["nonSeqFull","nonSeqPartial","seqNoFeedback","seqFeedback"],"classroomPairings":[["A","B"],["C","D"]],"coinWeights":[0.2,0.5,0.8],"subjectId":"AMV1E7FFPVAW4","assignmentId":"34BBWHLWHBXFTCZCVCM92RYAAH0IW3","hitId":"3YGE63DIN8J20XK20KS1742RQF60WK","url":"https://gershmanlab.com/experiments/alicia/teaching/experiment/?hitId=3YGE63DIN8J20XK20KS1742RQF60WK&workerId=AMV1E7FFPVAW4&assignmentId=34BBWHLWHBXFTCZCVCM92RYAAH0IW3&a=WWB48&tp_a=WWB48&b=34BBWHLWHBXFTCZCVCM92RYAAH0IW3&tp_b=34BBWHLWHBXFTCZCVCM92RYAAH0IW3&c=365198&tp_c=365198","heads":5,"tails":0,"studentIndex":8,"studentTrueHypers":{"a":4,"b":1},"studentGuess":0.9,"delta":0.4,"totalExamples":5,"bonus":0,"bonusSoFar":0.4},{"rt":4652,"response":{"heads":"05","tails":"0"},"type":"response","condition":"nonSeqPartial","trueTheta":0.5,"classrooms":["C","D"],"studentTrueClassroom":"D","exampleSet":"first","trial_type":"survey-html-form","trial_index":78,"time_elapsed":3536601,"internal_node_id":"0.0-77.0-0.0","params":{"nStudents":24,"maxFlips":30,"completionMinutes":45,"basePay":8,"maxBonus":9,"perTrialBonus":0.5,"perTrialBonusThreshold":0.1,"exampleCost":0.01},"classroomParams":{"A":{"a":1,"b":4},"B":{"a":4,"b":1},"C":{"a":2,"b":8},"D":{"a":8,"b":2}},"conditions":["nonSeqFull","nonSeqPartial","seqNoFeedback","seqFeedback"],"classroomPairings":[["A","B"],["C","D"]],"coinWeights":[0.2,0.5,0.8],"subjectId":"AMV1E7FFPVAW4","assignmentId":"34BBWHLWHBXFTCZCVCM92RYAAH0IW3","hitId":"3YGE63DIN8J20XK20KS1742RQF60WK","url":"https://gershmanlab.com/experiments/alicia/teaching/experiment/?hitId=3YGE63DIN8J20XK20KS1742RQF60WK&workerId=AMV1E7FFPVAW4&assignmentId=34BBWHLWHBXFTCZCVCM92RYAAH0IW3&a=WWB48&tp_a=WWB48&b=34BBWHLWHBXFTCZCVCM92RYAAH0IW3&tp_b=34BBWHLWHBXFTCZCVCM92RYAAH0IW3&c=365198&tp_c=365198","heads":5,"tails":0,"studentIndex":9,"studentTrueHypers":{"a":8,"b":2},"studentGuess":0.8666666666666667,"delta":0.3666666666666667,"totalExamples":5,"bonus":0,"bonusSoFar":0.4},{"rt":6115,"response":{"heads":"02","tails":"0"},"type":"response","condition":"seqFeedback","trueTheta":0.2,"classrooms":["A","B"],"studentTrueClassroom":"B","exampleSet":"first","trial_type":"survey-html-form","trial_index":84,"time_elapsed":3553856,"internal_node_id":"0.0-83.0-0.0","params":{"nStudents":24,"maxFlips":30,"completionMinutes":45,"basePay":8,"maxBonus":9,"perTrialBonus":0.5,"perTrialBonusThreshold":0.1,"exampleCost":0.01},"classroomParams":{"A":{"a":1,"b":4},"B":{"a":4,"b":1},"C":{"a":2,"b":8},"D":{"a":8,"b":2}},"conditions":["nonSeqFull","nonSeqPartial","seqNoFeedback","seqFeedback"],"classroomPairings":[["A","B"],["C","D"]],"coinWeights":[0.2,0.5,0.8],"subjectId":"AMV1E7FFPVAW4","assignmentId":"34BBWHLWHBXFTCZCVCM92RYAAH0IW3","hitId":"3YGE63DIN8J20XK20KS1742RQF60WK","url":"https://gershmanlab.com/experiments/alicia/teaching/experiment/?hitId=3YGE63DIN8J20XK20KS1742RQF60WK&workerId=AMV1E7FFPVAW4&assignmentId=34BBWHLWHBXFTCZCVCM92RYAAH0IW3&a=WWB48&tp_a=WWB48&b=34BBWHLWHBXFTCZCVCM92RYAAH0IW3&tp_b=34BBWHLWHBXFTCZCVCM92RYAAH0IW3&c=365198&tp_c=365198","heads":2,"tails":0,"studentIndex":10,"studentTrueHypers":{"a":4,"b":1},"studentGuess":0.8571428571428571,"delta":0.657142857142857,"totalExamples":2,"bonusSoFar":0.4},{"rt":3974,"response":{"heads":"2","tails":"0"},"type":"response","condition":"seqFeedback","trueTheta":0.2,"classrooms":["A","B"],"studentTrueClassroom":"B","exampleSet":"second","trial_type":"survey-html-form","trial_index":88,"time_elapsed":3565424,"internal_node_id":"0.0-87.0-0.0","params":{"nStudents":24,"maxFlips":30,"completionMinutes":45,"basePay":8,"maxBonus":9,"perTrialBonus":0.5,"perTrialBonusThreshold":0.1,"exampleCost":0.01},"classroomParams":{"A":{"a":1,"b":4},"B":{"a":4,"b":1},"C":{"a":2,"b":8},"D":{"a":8,"b":2}},"conditions":["nonSeqFull","nonSeqPartial","seqNoFeedback","seqFeedback"],"classroomPairings":[["A","B"],["C","D"]],"coinWeights":[0.2,0.5,0.8],"subjectId":"AMV1E7FFPVAW4","assignmentId":"34BBWHLWHBXFTCZCVCM92RYAAH0IW3","hitId":"3YGE63DIN8J20XK20KS1742RQF60WK","url":"https://gershmanlab.com/experiments/alicia/teaching/experiment/?hitId=3YGE63DIN8J20XK20KS1742RQF60WK&workerId=AMV1E7FFPVAW4&assignmentId=34BBWHLWHBXFTCZCVCM92RYAAH0IW3&a=WWB48&tp_a=WWB48&b=34BBWHLWHBXFTCZCVCM92RYAAH0IW3&tp_b=34BBWHLWHBXFTCZCVCM92RYAAH0IW3&c=365198&tp_c=365198","firstResponseHeads":2,"firstResponseTails":0,"secondResponseHeads":2,"secondResponseTails":0,"studentIndex":10,"studentTrueHypers":{"a":4,"b":1},"studentGuess":0.8888888888888888,"delta":0.6888888888888889,"bonus":0,"bonusSoFar":0.4,"totalExamples":4},{"rt":10065,"response":{"heads":"2","tails":"0"},"type":"response","condition":"nonSeqFull","trueTheta":0.2,"classrooms":["C","D"],"studentTrueClassroom":"C","exampleSet":"first","trial_type":"survey-html-form","trial_index":94,"time_elapsed":3587562,"internal_node_id":"0.0-93.0-0.0","params":{"nStudents":24,"maxFlips":30,"completionMinutes":45,"basePay":8,"maxBonus":9,"perTrialBonus":0.5,"perTrialBonusThreshold":0.1,"exampleCost":0.01},"classroomParams":{"A":{"a":1,"b":4},"B":{"a":4,"b":1},"C":{"a":2,"b":8},"D":{"a":8,"b":2}},"conditions":["nonSeqFull","nonSeqPartial","seqNoFeedback","seqFeedback"],"classroomPairings":[["A","B"],["C","D"]],"coinWeights":[0.2,0.5,0.8],"subjectId":"AMV1E7FFPVAW4","assignmentId":"34BBWHLWHBXFTCZCVCM92RYAAH0IW3","hitId":"3YGE63DIN8J20XK20KS1742RQF60WK","url":"https://gershmanlab.com/experiments/alicia/teaching/experiment/?hitId=3YGE63DIN8J20XK20KS1742RQF60WK&workerId=AMV1E7FFPVAW4&assignmentId=34BBWHLWHBXFTCZCVCM92RYAAH0IW3&a=WWB48&tp_a=WWB48&b=34BBWHLWHBXFTCZCVCM92RYAAH0IW3&tp_b=34BBWHLWHBXFTCZCVCM92RYAAH0IW3&c=365198&tp_c=365198","heads":2,"tails":0,"studentIndex":11,"studentTrueHypers":{"a":2,"b":8},"studentGuess":0.3333333333333333,"delta":0.1333333333333333,"totalExamples":2,"bonus":0,"bonusSoFar":0.4},{"rt":5083,"response":{"heads":"5","tails":"0"},"type":"response","condition":"seqFeedback","trueTheta":0.5,"classrooms":["C","D"],"studentTrueClassroom":"C","exampleSet":"first","trial_type":"survey-html-form","trial_index":100,"time_elapsed":3604365,"internal_node_id":"0.0-99.0-0.0","params":{"nStudents":24,"maxFlips":30,"completionMinutes":45,"basePay":8,"maxBonus":9,"perTrialBonus":0.5,"perTrialBonusThreshold":0.1,"exampleCost":0.01},"classroomParams":{"A":{"a":1,"b":4},"B":{"a":4,"b":1},"C":{"a":2,"b":8},"D":{"a":8,"b":2}},"conditions":["nonSeqFull","nonSeqPartial","seqNoFeedback","seqFeedback"],"classroomPairings":[["A","B"],["C","D"]],"coinWeights":[0.2,0.5,0.8],"subjectId":"AMV1E7FFPVAW4","assignmentId":"34BBWHLWHBXFTCZCVCM92RYAAH0IW3","hitId":"3YGE63DIN8J20XK20KS1742RQF60WK","url":"https://gershmanlab.com/experiments/alicia/teaching/experiment/?hitId=3YGE63DIN8J20XK20KS1742RQF60WK&workerId=AMV1E7FFPVAW4&assignmentId=34BBWHLWHBXFTCZCVCM92RYAAH0IW3&a=WWB48&tp_a=WWB48&b=34BBWHLWHBXFTCZCVCM92RYAAH0IW3&tp_b=34BBWHLWHBXFTCZCVCM92RYAAH0IW3&c=365198&tp_c=365198","heads":5,"tails":0,"studentIndex":12,"studentTrueHypers":{"a":2,"b":8},"studentGuess":0.4666666666666667,"delta":0.033333333333333326,"totalExamples":5,"bonusSoFar":0.4},{"rt":5232,"response":{"heads":"5","tails":"0"},"type":"response","condition":"seqFeedback","trueTheta":0.5,"classrooms":["C","D"],"studentTrueClassroom":"C","exampleSet":"second","trial_type":"survey-html-form","trial_index":104,"time_elapsed":3617673,"internal_node_id":"0.0-103.0-0.0","params":{"nStudents":24,"maxFlips":30,"completionMinutes":45,"basePay":8,"maxBonus":9,"perTrialBonus":0.5,"perTrialBonusThreshold":0.1,"exampleCost":0.01},"classroomParams":{"A":{"a":1,"b":4},"B":{"a":4,"b":1},"C":{"a":2,"b":8},"D":{"a":8,"b":2}},"conditions":["nonSeqFull","nonSeqPartial","seqNoFeedback","seqFeedback"],"classroomPairings":[["A","B"],["C","D"]],"coinWeights":[0.2,0.5,0.8],"subjectId":"AMV1E7FFPVAW4","assignmentId":"34BBWHLWHBXFTCZCVCM92RYAAH0IW3","hitId":"3YGE63DIN8J20XK20KS1742RQF60WK","url":"https://gershmanlab.com/experiments/alicia/teaching/experiment/?hitId=3YGE63DIN8J20XK20KS1742RQF60WK&workerId=AMV1E7FFPVAW4&assignmentId=34BBWHLWHBXFTCZCVCM92RYAAH0IW3&a=WWB48&tp_a=WWB48&b=34BBWHLWHBXFTCZCVCM92RYAAH0IW3&tp_b=34BBWHLWHBXFTCZCVCM92RYAAH0IW3&c=365198&tp_c=365198","firstResponseHeads":5,"firstResponseTails":0,"secondResponseHeads":5,"secondResponseTails":0,"studentIndex":12,"studentTrueHypers":{"a":2,"b":8},"studentGuess":0.6,"delta":0.09999999999999998,"bonus":0.4,"bonusSoFar":0.8,"totalExamples":10},{"rt":2947,"response":{"heads":"8","tails":"0"},"type":"response","condition":"seqFeedback","trueTheta":0.8,"classrooms":["C","D"],"studentTrueClassroom":"C","exampleSet":"first","trial_type":"survey-html-form","trial_index":110,"time_elapsed":3633285,"internal_node_id":"0.0-109.0-0.0","params":{"nStudents":24,"maxFlips":30,"completionMinutes":45,"basePay":8,"maxBonus":9,"perTrialBonus":0.5,"perTrialBonusThreshold":0.1,"exampleCost":0.01},"classroomParams":{"A":{"a":1,"b":4},"B":{"a":4,"b":1},"C":{"a":2,"b":8},"D":{"a":8,"b":2}},"conditions":["nonSeqFull","nonSeqPartial","seqNoFeedback","seqFeedback"],"classroomPairings":[["A","B"],["C","D"]],"coinWeights":[0.2,0.5,0.8],"subjectId":"AMV1E7FFPVAW4","assignmentId":"34BBWHLWHBXFTCZCVCM92RYAAH0IW3","hitId":"3YGE63DIN8J20XK20KS1742RQF60WK","url":"https://gershmanlab.com/experiments/alicia/teaching/experiment/?hitId=3YGE63DIN8J20XK20KS1742RQF60WK&workerId=AMV1E7FFPVAW4&assignmentId=34BBWHLWHBXFTCZCVCM92RYAAH0IW3&a=WWB48&tp_a=WWB48&b=34BBWHLWHBXFTCZCVCM92RYAAH0IW3&tp_b=34BBWHLWHBXFTCZCVCM92RYAAH0IW3&c=365198&tp_c=365198","heads":8,"tails":0,"studentIndex":13,"studentTrueHypers":{"a":2,"b":8},"studentGuess":0.5555555555555556,"delta":0.24444444444444446,"totalExamples":8,"bonusSoFar":0.8},{"rt":3972,"response":{"heads":"8","tails":"0"},"type":"response","condition":"seqFeedback","trueTheta":0.8,"classrooms":["C","D"],"studentTrueClassroom":"C","exampleSet":"second","trial_type":"survey-html-form","trial_index":114,"time_elapsed":3645674,"internal_node_id":"0.0-113.0-0.0","params":{"nStudents":24,"maxFlips":30,"completionMinutes":45,"basePay":8,"maxBonus":9,"perTrialBonus":0.5,"perTrialBonusThreshold":0.1,"exampleCost":0.01},"classroomParams":{"A":{"a":1,"b":4},"B":{"a":4,"b":1},"C":{"a":2,"b":8},"D":{"a":8,"b":2}},"conditions":["nonSeqFull","nonSeqPartial","seqNoFeedback","seqFeedback"],"classroomPairings":[["A","B"],["C","D"]],"coinWeights":[0.2,0.5,0.8],"subjectId":"AMV1E7FFPVAW4","assignmentId":"34BBWHLWHBXFTCZCVCM92RYAAH0IW3","hitId":"3YGE63DIN8J20XK20KS1742RQF60WK","url":"https://gershmanlab.com/experiments/alicia/teaching/experiment/?hitId=3YGE63DIN8J20XK20KS1742RQF60WK&workerId=AMV1E7FFPVAW4&assignmentId=34BBWHLWHBXFTCZCVCM92RYAAH0IW3&a=WWB48&tp_a=WWB48&b=34BBWHLWHBXFTCZCVCM92RYAAH0IW3&tp_b=34BBWHLWHBXFTCZCVCM92RYAAH0IW3&c=365198&tp_c=365198","firstResponseHeads":8,"firstResponseTails":0,"secondResponseHeads":8,"secondResponseTails":0,"studentIndex":13,"studentTrueHypers":{"a":2,"b":8},"studentGuess":0.6923076923076923,"delta":0.10769230769230775,"bonus":0,"bonusSoFar":0.8,"totalExamples":16},{"rt":3587,"response":{"heads":"5","tails":"0"},"type":"response","condition":"nonSeqFull","trueTheta":0.5,"classrooms":["A","B"],"studentTrueClassroom":"A","exampleSet":"first","trial_type":"survey-html-form","trial_index":120,"time_elapsed":3662303,"internal_node_id":"0.0-119.0-0.0","params":{"nStudents":24,"maxFlips":30,"completionMinutes":45,"basePay":8,"maxBonus":9,"perTrialBonus":0.5,"perTrialBonusThreshold":0.1,"exampleCost":0.01},"classroomParams":{"A":{"a":1,"b":4},"B":{"a":4,"b":1},"C":{"a":2,"b":8},"D":{"a":8,"b":2}},"conditions":["nonSeqFull","nonSeqPartial","seqNoFeedback","seqFeedback"],"classroomPairings":[["A","B"],["C","D"]],"coinWeights":[0.2,0.5,0.8],"subjectId":"AMV1E7FFPVAW4","assignmentId":"34BBWHLWHBXFTCZCVCM92RYAAH0IW3","hitId":"3YGE63DIN8J20XK20KS1742RQF60WK","url":"https://gershmanlab.com/experiments/alicia/teaching/experiment/?hitId=3YGE63DIN8J20XK20KS1742RQF60WK&workerId=AMV1E7FFPVAW4&assignmentId=34BBWHLWHBXFTCZCVCM92RYAAH0IW3&a=WWB48&tp_a=WWB48&b=34BBWHLWHBXFTCZCVCM92RYAAH0IW3&tp_b=34BBWHLWHBXFTCZCVCM92RYAAH0IW3&c=365198&tp_c=365198","heads":5,"tails":0,"studentIndex":14,"studentTrueHypers":{"a":1,"b":4},"studentGuess":0.6,"delta":0.09999999999999998,"totalExamples":5,"bonus":0.45,"bonusSoFar":1.25},{"rt":2009,"response":{"heads":"8","tails":"0"},"type":"response","condition":"nonSeqFull","trueTheta":0.8,"classrooms":["C","D"],"studentTrueClassroom":"C","exampleSet":"first","trial_type":"survey-html-form","trial_index":126,"time_elapsed":3674986,"internal_node_id":"0.0-125.0-0.0","params":{"nStudents":24,"maxFlips":30,"completionMinutes":45,"basePay":8,"maxBonus":9,"perTrialBonus":0.5,"perTrialBonusThreshold":0.1,"exampleCost":0.01},"classroomParams":{"A":{"a":1,"b":4},"B":{"a":4,"b":1},"C":{"a":2,"b":8},"D":{"a":8,"b":2}},"conditions":["nonSeqFull","nonSeqPartial","seqNoFeedback","seqFeedback"],"classroomPairings":[["A","B"],["C","D"]],"coinWeights":[0.2,0.5,0.8],"subjectId":"AMV1E7FFPVAW4","assignmentId":"34BBWHLWHBXFTCZCVCM92RYAAH0IW3","hitId":"3YGE63DIN8J20XK20KS1742RQF60WK","url":"https://gershmanlab.com/experiments/alicia/teaching/experiment/?hitId=3YGE63DIN8J20XK20KS1742RQF60WK&workerId=AMV1E7FFPVAW4&assignmentId=34BBWHLWHBXFTCZCVCM92RYAAH0IW3&a=WWB48&tp_a=WWB48&b=34BBWHLWHBXFTCZCVCM92RYAAH0IW3&tp_b=34BBWHLWHBXFTCZCVCM92RYAAH0IW3&c=365198&tp_c=365198","heads":8,"tails":0,"studentIndex":15,"studentTrueHypers":{"a":2,"b":8},"studentGuess":0.5555555555555556,"delta":0.24444444444444446,"totalExamples":8,"bonus":0,"bonusSoFar":1.25},{"rt":2112,"response":{"heads":"5","tails":"0"},"type":"response","condition":"seqNoFeedback","trueTheta":0.5,"classrooms":["A","B"],"studentTrueClassroom":"B","exampleSet":"first","trial_type":"survey-html-form","trial_index":132,"time_elapsed":3691344,"internal_node_id":"0.0-131.0-0.0","params":{"nStudents":24,"maxFlips":30,"completionMinutes":45,"basePay":8,"maxBonus":9,"perTrialBonus":0.5,"perTrialBonusThreshold":0.1,"exampleCost":0.01},"classroomParams":{"A":{"a":1,"b":4},"B":{"a":4,"b":1},"C":{"a":2,"b":8},"D":{"a":8,"b":2}},"conditions":["nonSeqFull","nonSeqPartial","seqNoFeedback","seqFeedback"],"classroomPairings":[["A","B"],["C","D"]],"coinWeights":[0.2,0.5,0.8],"subjectId":"AMV1E7FFPVAW4","assignmentId":"34BBWHLWHBXFTCZCVCM92RYAAH0IW3","hitId":"3YGE63DIN8J20XK20KS1742RQF60WK","url":"https://gershmanlab.com/experiments/alicia/teaching/experiment/?hitId=3YGE63DIN8J20XK20KS1742RQF60WK&workerId=AMV1E7FFPVAW4&assignmentId=34BBWHLWHBXFTCZCVCM92RYAAH0IW3&a=WWB48&tp_a=WWB48&b=34BBWHLWHBXFTCZCVCM92RYAAH0IW3&tp_b=34BBWHLWHBXFTCZCVCM92RYAAH0IW3&c=365198&tp_c=365198","heads":5,"tails":0,"studentIndex":16,"studentTrueHypers":{"a":4,"b":1},"studentGuess":0.9,"delta":0.4,"totalExamples":5,"bonusSoFar":1.25},{"rt":2534,"response":{"heads":"5","tails":"0"},"type":"response","condition":"seqNoFeedback","trueTheta":0.5,"classrooms":["A","B"],"studentTrueClassroom":"B","exampleSet":"second","trial_type":"survey-html-form","trial_index":135,"time_elapsed":3700388,"internal_node_id":"0.0-134.0-0.0","params":{"nStudents":24,"maxFlips":30,"completionMinutes":45,"basePay":8,"maxBonus":9,"perTrialBonus":0.5,"perTrialBonusThreshold":0.1,"exampleCost":0.01},"classroomParams":{"A":{"a":1,"b":4},"B":{"a":4,"b":1},"C":{"a":2,"b":8},"D":{"a":8,"b":2}},"conditions":["nonSeqFull","nonSeqPartial","seqNoFeedback","seqFeedback"],"classroomPairings":[["A","B"],["C","D"]],"coinWeights":[0.2,0.5,0.8],"subjectId":"AMV1E7FFPVAW4","assignmentId":"34BBWHLWHBXFTCZCVCM92RYAAH0IW3","hitId":"3YGE63DIN8J20XK20KS1742RQF60WK","url":"https://gershmanlab.com/experiments/alicia/teaching/experiment/?hitId=3YGE63DIN8J20XK20KS1742RQF60WK&workerId=AMV1E7FFPVAW4&assignmentId=34BBWHLWHBXFTCZCVCM92RYAAH0IW3&a=WWB48&tp_a=WWB48&b=34BBWHLWHBXFTCZCVCM92RYAAH0IW3&tp_b=34BBWHLWHBXFTCZCVCM92RYAAH0IW3&c=365198&tp_c=365198","firstResponseHeads":5,"firstResponseTails":0,"secondResponseHeads":5,"secondResponseTails":0,"studentIndex":16,"studentTrueHypers":{"a":4,"b":1},"studentGuess":0.9333333333333333,"delta":0.43333333333333335,"bonus":0,"bonusSoFar":1.25,"totalExamples":10},{"rt":6796,"response":{"heads":"2","tails":"0"},"type":"response","condition":"nonSeqPartial","trueTheta":0.2,"classrooms":["A","B"],"studentTrueClassroom":"A","exampleSet":"first","trial_type":"survey-html-form","trial_index":141,"time_elapsed":3723171,"internal_node_id":"0.0-140.0-0.0","params":{"nStudents":24,"maxFlips":30,"completionMinutes":45,"basePay":8,"maxBonus":9,"perTrialBonus":0.5,"perTrialBonusThreshold":0.1,"exampleCost":0.01},"classroomParams":{"A":{"a":1,"b":4},"B":{"a":4,"b":1},"C":{"a":2,"b":8},"D":{"a":8,"b":2}},"conditions":["nonSeqFull","nonSeqPartial","seqNoFeedback","seqFeedback"],"classroomPairings":[["A","B"],["C","D"]],"coinWeights":[0.2,0.5,0.8],"subjectId":"AMV1E7FFPVAW4","assignmentId":"34BBWHLWHBXFTCZCVCM92RYAAH0IW3","hitId":"3YGE63DIN8J20XK20KS1742RQF60WK","url":"https://gershmanlab.com/experiments/alicia/teaching/experiment/?hitId=3YGE63DIN8J20XK20KS1742RQF60WK&workerId=AMV1E7FFPVAW4&assignmentId=34BBWHLWHBXFTCZCVCM92RYAAH0IW3&a=WWB48&tp_a=WWB48&b=34BBWHLWHBXFTCZCVCM92RYAAH0IW3&tp_b=34BBWHLWHBXFTCZCVCM92RYAAH0IW3&c=365198&tp_c=365198","heads":2,"tails":0,"studentIndex":17,"studentTrueHypers":{"a":1,"b":4},"studentGuess":0.42857142857142855,"delta":0.22857142857142854,"totalExamples":2,"bonus":0,"bonusSoFar":1.25},{"rt":3785,"response":{"heads":"8","tails":"1"},"type":"response","condition":"seqNoFeedback","trueTheta":0.8,"classrooms":["A","B"],"studentTrueClassroom":"A","exampleSet":"first","trial_type":"survey-html-form","trial_index":147,"time_elapsed":3740986,"internal_node_id":"0.0-146.0-0.0","params":{"nStudents":24,"maxFlips":30,"completionMinutes":45,"basePay":8,"maxBonus":9,"perTrialBonus":0.5,"perTrialBonusThreshold":0.1,"exampleCost":0.01},"classroomParams":{"A":{"a":1,"b":4},"B":{"a":4,"b":1},"C":{"a":2,"b":8},"D":{"a":8,"b":2}},"conditions":["nonSeqFull","nonSeqPartial","seqNoFeedback","seqFeedback"],"classroomPairings":[["A","B"],["C","D"]],"coinWeights":[0.2,0.5,0.8],"subjectId":"AMV1E7FFPVAW4","assignmentId":"34BBWHLWHBXFTCZCVCM92RYAAH0IW3","hitId":"3YGE63DIN8J20XK20KS1742RQF60WK","url":"https://gershmanlab.com/experiments/alicia/teaching/experiment/?hitId=3YGE63DIN8J20XK20KS1742RQF60WK&workerId=AMV1E7FFPVAW4&assignmentId=34BBWHLWHBXFTCZCVCM92RYAAH0IW3&a=WWB48&tp_a=WWB48&b=34BBWHLWHBXFTCZCVCM92RYAAH0IW3&tp_b=34BBWHLWHBXFTCZCVCM92RYAAH0IW3&c=365198&tp_c=365198","heads":8,"tails":1,"studentIndex":18,"studentTrueHypers":{"a":1,"b":4},"studentGuess":0.6428571428571429,"delta":0.15714285714285714,"totalExamples":9,"bonusSoFar":1.25},{"rt":4426,"response":{"heads":"8","tails":"1"},"type":"response","condition":"seqNoFeedback","trueTheta":0.8,"classrooms":["A","B"],"studentTrueClassroom":"A","exampleSet":"second","trial_type":"survey-html-form","trial_index":150,"time_elapsed":3751923,"internal_node_id":"0.0-149.0-0.0","params":{"nStudents":24,"maxFlips":30,"completionMinutes":45,"basePay":8,"maxBonus":9,"perTrialBonus":0.5,"perTrialBonusThreshold":0.1,"exampleCost":0.01},"classroomParams":{"A":{"a":1,"b":4},"B":{"a":4,"b":1},"C":{"a":2,"b":8},"D":{"a":8,"b":2}},"conditions":["nonSeqFull","nonSeqPartial","seqNoFeedback","seqFeedback"],"classroomPairings":[["A","B"],["C","D"]],"coinWeights":[0.2,0.5,0.8],"subjectId":"AMV1E7FFPVAW4","assignmentId":"34BBWHLWHBXFTCZCVCM92RYAAH0IW3","hitId":"3YGE63DIN8J20XK20KS1742RQF60WK","url":"https://gershmanlab.com/experiments/alicia/teaching/experiment/?hitId=3YGE63DIN8J20XK20KS1742RQF60WK&workerId=AMV1E7FFPVAW4&assignmentId=34BBWHLWHBXFTCZCVCM92RYAAH0IW3&a=WWB48&tp_a=WWB48&b=34BBWHLWHBXFTCZCVCM92RYAAH0IW3&tp_b=34BBWHLWHBXFTCZCVCM92RYAAH0IW3&c=365198&tp_c=365198","firstResponseHeads":8,"firstResponseTails":1,"secondResponseHeads":8,"secondResponseTails":1,"studentIndex":18,"studentTrueHypers":{"a":1,"b":4},"studentGuess":0.7391304347826086,"delta":0.0608695652173914,"bonus":0.32,"bonusSoFar":1.57,"totalExamples":18},{"rt":3407,"response":{"heads":"8","tails":"1"},"type":"response","condition":"nonSeqPartial","trueTheta":0.8,"classrooms":["C","D"],"studentTrueClassroom":"C","exampleSet":"first","trial_type":"survey-html-form","trial_index":156,"time_elapsed":3768122,"internal_node_id":"0.0-155.0-0.0","params":{"nStudents":24,"maxFlips":30,"completionMinutes":45,"basePay":8,"maxBonus":9,"perTrialBonus":0.5,"perTrialBonusThreshold":0.1,"exampleCost":0.01},"classroomParams":{"A":{"a":1,"b":4},"B":{"a":4,"b":1},"C":{"a":2,"b":8},"D":{"a":8,"b":2}},"conditions":["nonSeqFull","nonSeqPartial","seqNoFeedback","seqFeedback"],"classroomPairings":[["A","B"],["C","D"]],"coinWeights":[0.2,0.5,0.8],"subjectId":"AMV1E7FFPVAW4","assignmentId":"34BBWHLWHBXFTCZCVCM92RYAAH0IW3","hitId":"3YGE63DIN8J20XK20KS1742RQF60WK","url":"https://gershmanlab.com/experiments/alicia/teaching/experiment/?hitId=3YGE63DIN8J20XK20KS1742RQF60WK&workerId=AMV1E7FFPVAW4&assignmentId=34BBWHLWHBXFTCZCVCM92RYAAH0IW3&a=WWB48&tp_a=WWB48&b=34BBWHLWHBXFTCZCVCM92RYAAH0IW3&tp_b=34BBWHLWHBXFTCZCVCM92RYAAH0IW3&c=365198&tp_c=365198","heads":8,"tails":1,"studentIndex":19,"studentTrueHypers":{"a":2,"b":8},"studentGuess":0.5263157894736842,"delta":0.27368421052631586,"totalExamples":9,"bonus":0,"bonusSoFar":1.57},{"rt":10264,"response":{"heads":"2","tails":"0"},"type":"response","condition":"nonSeqFull","trueTheta":0.2,"classrooms":["A","B"],"studentTrueClassroom":"B","exampleSet":"first","trial_type":"survey-html-form","trial_index":162,"time_elapsed":3791420,"internal_node_id":"0.0-161.0-0.0","params":{"nStudents":24,"maxFlips":30,"completionMinutes":45,"basePay":8,"maxBonus":9,"perTrialBonus":0.5,"perTrialBonusThreshold":0.1,"exampleCost":0.01},"classroomParams":{"A":{"a":1,"b":4},"B":{"a":4,"b":1},"C":{"a":2,"b":8},"D":{"a":8,"b":2}},"conditions":["nonSeqFull","nonSeqPartial","seqNoFeedback","seqFeedback"],"classroomPairings":[["A","B"],["C","D"]],"coinWeights":[0.2,0.5,0.8],"subjectId":"AMV1E7FFPVAW4","assignmentId":"34BBWHLWHBXFTCZCVCM92RYAAH0IW3","hitId":"3YGE63DIN8J20XK20KS1742RQF60WK","url":"https://gershmanlab.com/experiments/alicia/teaching/experiment/?hitId=3YGE63DIN8J20XK20KS1742RQF60WK&workerId=AMV1E7FFPVAW4&assignmentId=34BBWHLWHBXFTCZCVCM92RYAAH0IW3&a=WWB48&tp_a=WWB48&b=34BBWHLWHBXFTCZCVCM92RYAAH0IW3&tp_b=34BBWHLWHBXFTCZCVCM92RYAAH0IW3&c=365198&tp_c=365198","heads":2,"tails":0,"studentIndex":20,"studentTrueHypers":{"a":4,"b":1},"studentGuess":0.8571428571428571,"delta":0.657142857142857,"totalExamples":2,"bonus":0,"bonusSoFar":1.57},{"rt":4052,"response":{"heads":"8","tails":"1"},"type":"response","condition":"seqFeedback","trueTheta":0.8,"classrooms":["A","B"],"studentTrueClassroom":"B","exampleSet":"first","trial_type":"survey-html-form","trial_index":168,"time_elapsed":3807146,"internal_node_id":"0.0-167.0-0.0","params":{"nStudents":24,"maxFlips":30,"completionMinutes":45,"basePay":8,"maxBonus":9,"perTrialBonus":0.5,"perTrialBonusThreshold":0.1,"exampleCost":0.01},"classroomParams":{"A":{"a":1,"b":4},"B":{"a":4,"b":1},"C":{"a":2,"b":8},"D":{"a":8,"b":2}},"conditions":["nonSeqFull","nonSeqPartial","seqNoFeedback","seqFeedback"],"classroomPairings":[["A","B"],["C","D"]],"coinWeights":[0.2,0.5,0.8],"subjectId":"AMV1E7FFPVAW4","assignmentId":"34BBWHLWHBXFTCZCVCM92RYAAH0IW3","hitId":"3YGE63DIN8J20XK20KS1742RQF60WK","url":"https://gershmanlab.com/experiments/alicia/teaching/experiment/?hitId=3YGE63DIN8J20XK20KS1742RQF60WK&workerId=AMV1E7FFPVAW4&assignmentId=34BBWHLWHBXFTCZCVCM92RYAAH0IW3&a=WWB48&tp_a=WWB48&b=34BBWHLWHBXFTCZCVCM92RYAAH0IW3&tp_b=34BBWHLWHBXFTCZCVCM92RYAAH0IW3&c=365198&tp_c=365198","heads":8,"tails":1,"studentIndex":21,"studentTrueHypers":{"a":4,"b":1},"studentGuess":0.8571428571428571,"delta":0.05714285714285705,"totalExamples":9,"bonusSoFar":1.57},{"rt":5428,"response":{"heads":"8","tails":"1"},"type":"response","condition":"seqFeedback","trueTheta":0.8,"classrooms":["A","B"],"studentTrueClassroom":"B","exampleSet":"second","trial_type":"survey-html-form","trial_index":172,"time_elapsed":3822567,"internal_node_id":"0.0-171.0-0.0","params":{"nStudents":24,"maxFlips":30,"completionMinutes":45,"basePay":8,"maxBonus":9,"perTrialBonus":0.5,"perTrialBonusThreshold":0.1,"exampleCost":0.01},"classroomParams":{"A":{"a":1,"b":4},"B":{"a":4,"b":1},"C":{"a":2,"b":8},"D":{"a":8,"b":2}},"conditions":["nonSeqFull","nonSeqPartial","seqNoFeedback","seqFeedback"],"classroomPairings":[["A","B"],["C","D"]],"coinWeights":[0.2,0.5,0.8],"subjectId":"AMV1E7FFPVAW4","assignmentId":"34BBWHLWHBXFTCZCVCM92RYAAH0IW3","hitId":"3YGE63DIN8J20XK20KS1742RQF60WK","url":"https://gershmanlab.com/experiments/alicia/teaching/experiment/?hitId=3YGE63DIN8J20XK20KS1742RQF60WK&workerId=AMV1E7FFPVAW4&assignmentId=34BBWHLWHBXFTCZCVCM92RYAAH0IW3&a=WWB48&tp_a=WWB48&b=34BBWHLWHBXFTCZCVCM92RYAAH0IW3&tp_b=34BBWHLWHBXFTCZCVCM92RYAAH0IW3&c=365198&tp_c=365198","firstResponseHeads":8,"firstResponseTails":1,"secondResponseHeads":8,"secondResponseTails":1,"studentIndex":21,"studentTrueHypers":{"a":4,"b":1},"studentGuess":0.8695652173913043,"delta":0.06956521739130428,"bonus":0.32,"bonusSoFar":1.89,"totalExamples":18},{"rt":10677,"response":{"heads":"4","tails":"1"},"type":"response","condition":"nonSeqPartial","trueTheta":0.2,"classrooms":["C","D"],"studentTrueClassroom":"D","exampleSet":"first","trial_type":"survey-html-form","trial_index":178,"time_elapsed":3844617,"internal_node_id":"0.0-177.0-0.0","params":{"nStudents":24,"maxFlips":30,"completionMinutes":45,"basePay":8,"maxBonus":9,"perTrialBonus":0.5,"perTrialBonusThreshold":0.1,"exampleCost":0.01},"classroomParams":{"A":{"a":1,"b":4},"B":{"a":4,"b":1},"C":{"a":2,"b":8},"D":{"a":8,"b":2}},"conditions":["nonSeqFull","nonSeqPartial","seqNoFeedback","seqFeedback"],"classroomPairings":[["A","B"],["C","D"]],"coinWeights":[0.2,0.5,0.8],"subjectId":"AMV1E7FFPVAW4","assignmentId":"34BBWHLWHBXFTCZCVCM92RYAAH0IW3","hitId":"3YGE63DIN8J20XK20KS1742RQF60WK","url":"https://gershmanlab.com/experiments/alicia/teaching/experiment/?hitId=3YGE63DIN8J20XK20KS1742RQF60WK&workerId=AMV1E7FFPVAW4&assignmentId=34BBWHLWHBXFTCZCVCM92RYAAH0IW3&a=WWB48&tp_a=WWB48&b=34BBWHLWHBXFTCZCVCM92RYAAH0IW3&tp_b=34BBWHLWHBXFTCZCVCM92RYAAH0IW3&c=365198&tp_c=365198","heads":4,"tails":1,"studentIndex":22,"studentTrueHypers":{"a":8,"b":2},"studentGuess":0.8,"delta":0.6000000000000001,"totalExamples":5,"bonus":0,"bonusSoFar":1.89},{"rt":3771,"response":{"heads":"8","tails":"1"},"type":"response","condition":"seqNoFeedback","trueTheta":0.8,"classrooms":["C","D"],"studentTrueClassroom":"D","exampleSet":"first","trial_type":"survey-html-form","trial_index":184,"time_elapsed":3858998,"internal_node_id":"0.0-183.0-0.0","params":{"nStudents":24,"maxFlips":30,"completionMinutes":45,"basePay":8,"maxBonus":9,"perTrialBonus":0.5,"perTrialBonusThreshold":0.1,"exampleCost":0.01},"classroomParams":{"A":{"a":1,"b":4},"B":{"a":4,"b":1},"C":{"a":2,"b":8},"D":{"a":8,"b":2}},"conditions":["nonSeqFull","nonSeqPartial","seqNoFeedback","seqFeedback"],"classroomPairings":[["A","B"],["C","D"]],"coinWeights":[0.2,0.5,0.8],"subjectId":"AMV1E7FFPVAW4","assignmentId":"34BBWHLWHBXFTCZCVCM92RYAAH0IW3","hitId":"3YGE63DIN8J20XK20KS1742RQF60WK","url":"https://gershmanlab.com/experiments/alicia/teaching/experiment/?hitId=3YGE63DIN8J20XK20KS1742RQF60WK&workerId=AMV1E7FFPVAW4&assignmentId=34BBWHLWHBXFTCZCVCM92RYAAH0IW3&a=WWB48&tp_a=WWB48&b=34BBWHLWHBXFTCZCVCM92RYAAH0IW3&tp_b=34BBWHLWHBXFTCZCVCM92RYAAH0IW3&c=365198&tp_c=365198","heads":8,"tails":1,"studentIndex":23,"studentTrueHypers":{"a":8,"b":2},"studentGuess":0.8421052631578947,"delta":0.042105263157894646,"totalExamples":9,"bonusSoFar":1.89},{"rt":2568,"response":{"heads":"8","tails":"0"},"type":"response","condition":"seqNoFeedback","trueTheta":0.8,"classrooms":["C","D"],"studentTrueClassroom":"D","exampleSet":"second","trial_type":"survey-html-form","trial_index":187,"time_elapsed":3867829,"internal_node_id":"0.0-186.0-0.0","params":{"nStudents":24,"maxFlips":30,"completionMinutes":45,"basePay":8,"maxBonus":9,"perTrialBonus":0.5,"perTrialBonusThreshold":0.1,"exampleCost":0.01},"classroomParams":{"A":{"a":1,"b":4},"B":{"a":4,"b":1},"C":{"a":2,"b":8},"D":{"a":8,"b":2}},"conditions":["nonSeqFull","nonSeqPartial","seqNoFeedback","seqFeedback"],"classroomPairings":[["A","B"],["C","D"]],"coinWeights":[0.2,0.5,0.8],"subjectId":"AMV1E7FFPVAW4","assignmentId":"34BBWHLWHBXFTCZCVCM92RYAAH0IW3","hitId":"3YGE63DIN8J20XK20KS1742RQF60WK","url":"https://gershmanlab.com/experiments/alicia/teaching/experiment/?hitId=3YGE63DIN8J20XK20KS1742RQF60WK&workerId=AMV1E7FFPVAW4&assignmentId=34BBWHLWHBXFTCZCVCM92RYAAH0IW3&a=WWB48&tp_a=WWB48&b=34BBWHLWHBXFTCZCVCM92RYAAH0IW3&tp_b=34BBWHLWHBXFTCZCVCM92RYAAH0IW3&c=365198&tp_c=365198","firstResponseHeads":8,"firstResponseTails":1,"secondResponseHeads":8,"secondResponseTails":0,"studentIndex":23,"studentTrueHypers":{"a":8,"b":2},"studentGuess":0.8888888888888888,"delta":0.0888888888888888,"bonus":0.33,"bonusSoFar":2.22,"totalExamples":17},{"rt":5549,"response":{"gender":"female","age":"42","understood":"yes","comments":""},"type":"response","trial_type":"survey-html-form","trial_index":191,"time_elapsed":3881173,"internal_node_id":"0.0-191.0","params":{"nStudents":24,"maxFlips":30,"completionMinutes":45,"basePay":8,"maxBonus":9,"perTrialBonus":0.5,"perTrialBonusThreshold":0.1,"exampleCost":0.01},"classroomParams":{"A":{"a":1,"b":4},"B":{"a":4,"b":1},"C":{"a":2,"b":8},"D":{"a":8,"b":2}},"conditions":["nonSeqFull","nonSeqPartial","seqNoFeedback","seqFeedback"],"classroomPairings":[["A","B"],["C","D"]],"coinWeights":[0.2,0.5,0.8],"subjectId":"AMV1E7FFPVAW4","assignmentId":"34BBWHLWHBXFTCZCVCM92RYAAH0IW3","hitId":"3YGE63DIN8J20XK20KS1742RQF60WK","url":"https://gershmanlab.com/experiments/alicia/teaching/experiment/?hitId=3YGE63DIN8J20XK20KS1742RQF60WK&workerId=AMV1E7FFPVAW4&assignmentId=34BBWHLWHBXFTCZCVCM92RYAAH0IW3&a=WWB48&tp_a=WWB48&b=34BBWHLWHBXFTCZCVCM92RYAAH0IW3&tp_b=34BBWHLWHBXFTCZCVCM92RYAAH0IW3&c=365198&tp_c=365198","totalBonus":2.22}]