[{"rt":34895,"response":{"heads":"2","tails":"2"},"type":"response","condition":"seqFeedback","trueTheta":0.5,"classrooms":["A","B"],"studentTrueClassroom":"A","exampleSet":"first","trial_type":"survey-html-form","trial_index":16,"time_elapsed":641577,"internal_node_id":"0.0-6.0-0.0","params":{"nStudents":24,"maxFlips":30,"completionMinutes":45,"basePay":8,"maxBonus":9,"perTrialBonus":0.5,"perTrialBonusThreshold":0.1,"exampleCost":0.01},"classroomParams":{"A":{"a":1,"b":4},"B":{"a":4,"b":1},"C":{"a":2,"b":8},"D":{"a":8,"b":2}},"conditions":["nonSeqFull","nonSeqPartial","seqNoFeedback","seqFeedback"],"classroomPairings":[["A","B"],["C","D"]],"coinWeights":[0.2,0.5,0.8],"subjectId":"ARUXG5FD1Q76F","assignmentId":"32UTUBMZ7HISRFL1ZSPWU2BJ8IFBVE","hitId":"3QGHA0EA0JM3KKNCY0PQRLYAHJ3BWH","url":"https://gershmanlab.com/experiments/alicia/teaching/experiment/?hitId=3QGHA0EA0JM3KKNCY0PQRLYAHJ3BWH&workerId=ARUXG5FD1Q76F&assignmentId=32UTUBMZ7HISRFL1ZSPWU2BJ8IFBVE&a=ZUU28&tp_a=ZUU28&b=32UTUBMZ7HISRFL1ZSPWU2BJ8IFBVE&tp_b=32UTUBMZ7HISRFL1ZSPWU2BJ8IFBVE&c=365198&tp_c=365198","heads":2,"tails":2,"studentIndex":0,"studentTrueHypers":{"a":1,"b":4},"studentGuess":0.3333333333333333,"delta":0.16666666666666669,"totalExamples":4,"bonusSoFar":0},{"rt":9268,"response":{"heads":"10","tails":"10"},"type":"response","condition":"seqFeedback","trueTheta":0.5,"classrooms":["A","B"],"studentTrueClassroom":"A","exampleSet":"second","trial_type":"survey-html-form","trial_index":20,"time_elapsed":663175,"internal_node_id":"0.0-10.0-0.0","params":{"nStudents":24,"maxFlips":30,"completionMinutes":45,"basePay":8,"maxBonus":9,"perTrialBonus":0.5,"perTrialBonusThreshold":0.1,"exampleCost":0.01},"classroomParams":{"A":{"a":1,"b":4},"B":{"a":4,"b":1},"C":{"a":2,"b":8},"D":{"a":8,"b":2}},"conditions":["nonSeqFull","nonSeqPartial","seqNoFeedback","seqFeedback"],"classroomPairings":[["A","B"],["C","D"]],"coinWeights":[0.2,0.5,0.8],"subjectId":"ARUXG5FD1Q76F","assignmentId":"32UTUBMZ7HISRFL1ZSPWU2BJ8IFBVE","hitId":"3QGHA0EA0JM3KKNCY0PQRLYAHJ3BWH","url":"https://gershmanlab.com/experiments/alicia/teaching/experiment/?hitId=3QGHA0EA0JM3KKNCY0PQRLYAHJ3BWH&workerId=ARUXG5FD1Q76F&assignmentId=32UTUBMZ7HISRFL1ZSPWU2BJ8IFBVE&a=ZUU28&tp_a=ZUU28&b=32UTUBMZ7HISRFL1ZSPWU2BJ8IFBVE&tp_b=32UTUBMZ7HISRFL1ZSPWU2BJ8IFBVE&c=365198&tp_c=365198","firstResponseHeads":2,"firstResponseTails":2,"secondResponseHeads":10,"secondResponseTails":10,"studentIndex":0,"studentTrueHypers":{"a":1,"b":4},"studentGuess":0.4482758620689655,"delta":0.051724137931034475,"bonus":0.26,"bonusSoFar":0.26,"totalExamples":24},{"rt":22590,"response":{"heads":"1","tails":"5"},"type":"response","condition":"seqFeedback","trueTheta":0.2,"classrooms":["A","B"],"studentTrueClassroom":"A","exampleSet":"first","trial_type":"survey-html-form","trial_index":26,"time_elapsed":714551,"internal_node_id":"0.0-16.0-0.0","params":{"nStudents":24,"maxFlips":30,"completionMinutes":45,"basePay":8,"maxBonus":9,"perTrialBonus":0.5,"perTrialBonusThreshold":0.1,"exampleCost":0.01},"classroomParams":{"A":{"a":1,"b":4},"B":{"a":4,"b":1},"C":{"a":2,"b":8},"D":{"a":8,"b":2}},"conditions":["nonSeqFull","nonSeqPartial","seqNoFeedback","seqFeedback"],"classroomPairings":[["A","B"],["C","D"]],"coinWeights":[0.2,0.5,0.8],"subjectId":"ARUXG5FD1Q76F","assignmentId":"32UTUBMZ7HISRFL1ZSPWU2BJ8IFBVE","hitId":"3QGHA0EA0JM3KKNCY0PQRLYAHJ3BWH","url":"https://gershmanlab.com/experiments/alicia/teaching/experiment/?hitId=3QGHA0EA0JM3KKNCY0PQRLYAHJ3BWH&workerId=ARUXG5FD1Q76F&assignmentId=32UTUBMZ7HISRFL1ZSPWU2BJ8IFBVE&a=ZUU28&tp_a=ZUU28&b=32UTUBMZ7HISRFL1ZSPWU2BJ8IFBVE&tp_b=32UTUBMZ7HISRFL1ZSPWU2BJ8IFBVE&c=365198&tp_c=365198","heads":1,"tails":5,"studentIndex":1,"studentTrueHypers":{"a":1,"b":4},"studentGuess":0.18181818181818182,"delta":0.018181818181818188,"totalExamples":6,"bonusSoFar":0.26},{"rt":8044,"response":{"heads":"1","tails":"5"},"type":"response","condition":"seqFeedback","trueTheta":0.2,"classrooms":["A","B"],"studentTrueClassroom":"A","exampleSet":"second","trial_type":"survey-html-form","trial_index":30,"time_elapsed":734710,"internal_node_id":"0.0-20.0-0.0","params":{"nStudents":24,"maxFlips":30,"completionMinutes":45,"basePay":8,"maxBonus":9,"perTrialBonus":0.5,"perTrialBonusThreshold":0.1,"exampleCost":0.01},"classroomParams":{"A":{"a":1,"b":4},"B":{"a":4,"b":1},"C":{"a":2,"b":8},"D":{"a":8,"b":2}},"conditions":["nonSeqFull","nonSeqPartial","seqNoFeedback","seqFeedback"],"classroomPairings":[["A","B"],["C","D"]],"coinWeights":[0.2,0.5,0.8],"subjectId":"ARUXG5FD1Q76F","assignmentId":"32UTUBMZ7HISRFL1ZSPWU2BJ8IFBVE","hitId":"3QGHA0EA0JM3KKNCY0PQRLYAHJ3BWH","url":"https://gershmanlab.com/experiments/alicia/teaching/experiment/?hitId=3QGHA0EA0JM3KKNCY0PQRLYAHJ3BWH&workerId=ARUXG5FD1Q76F&assignmentId=32UTUBMZ7HISRFL1ZSPWU2BJ8IFBVE&a=ZUU28&tp_a=ZUU28&b=32UTUBMZ7HISRFL1ZSPWU2BJ8IFBVE&tp_b=32UTUBMZ7HISRFL1ZSPWU2BJ8IFBVE&c=365198&tp_c=365198","firstResponseHeads":1,"firstResponseTails":5,"secondResponseHeads":1,"secondResponseTails":5,"studentIndex":1,"studentTrueHypers":{"a":1,"b":4},"studentGuess":0.17647058823529413,"delta":0.023529411764705882,"bonus":0.38,"bonusSoFar":0.64,"totalExamples":12},{"rt":22501,"response":{"heads":"1","tails":"5"},"type":"response","condition":"seqNoFeedback","trueTheta":0.2,"classrooms":["A","B"],"studentTrueClassroom":"B","exampleSet":"first","trial_type":"survey-html-form","trial_index":36,"time_elapsed":777537,"internal_node_id":"0.0-26.0-0.0","params":{"nStudents":24,"maxFlips":30,"completionMinutes":45,"basePay":8,"maxBonus":9,"perTrialBonus":0.5,"perTrialBonusThreshold":0.1,"exampleCost":0.01},"classroomParams":{"A":{"a":1,"b":4},"B":{"a":4,"b":1},"C":{"a":2,"b":8},"D":{"a":8,"b":2}},"conditions":["nonSeqFull","nonSeqPartial","seqNoFeedback","seqFeedback"],"classroomPairings":[["A","B"],["C","D"]],"coinWeights":[0.2,0.5,0.8],"subjectId":"ARUXG5FD1Q76F","assignmentId":"32UTUBMZ7HISRFL1ZSPWU2BJ8IFBVE","hitId":"3QGHA0EA0JM3KKNCY0PQRLYAHJ3BWH","url":"https://gershmanlab.com/experiments/alicia/teaching/experiment/?hitId=3QGHA0EA0JM3KKNCY0PQRLYAHJ3BWH&workerId=ARUXG5FD1Q76F&assignmentId=32UTUBMZ7HISRFL1ZSPWU2BJ8IFBVE&a=ZUU28&tp_a=ZUU28&b=32UTUBMZ7HISRFL1ZSPWU2BJ8IFBVE&tp_b=32UTUBMZ7HISRFL1ZSPWU2BJ8IFBVE&c=365198&tp_c=365198","heads":1,"tails":5,"studentIndex":2,"studentTrueHypers":{"a":4,"b":1},"studentGuess":0.45454545454545453,"delta":0.2545454545454545,"totalExamples":6,"bonusSoFar":0.64},{"rt":17212,"response":{"heads":"2","tails":"10"},"type":"response","condition":"seqNoFeedback","trueTheta":0.2,"classrooms":["A","B"],"studentTrueClassroom":"B","exampleSet":"second","trial_type":"survey-html-form","trial_index":39,"time_elapsed":802759,"internal_node_id":"0.0-29.0-0.0","params":{"nStudents":24,"maxFlips":30,"completionMinutes":45,"basePay":8,"maxBonus":9,"perTrialBonus":0.5,"perTrialBonusThreshold":0.1,"exampleCost":0.01},"classroomParams":{"A":{"a":1,"b":4},"B":{"a":4,"b":1},"C":{"a":2,"b":8},"D":{"a":8,"b":2}},"conditions":["nonSeqFull","nonSeqPartial","seqNoFeedback","seqFeedback"],"classroomPairings":[["A","B"],["C","D"]],"coinWeights":[0.2,0.5,0.8],"subjectId":"ARUXG5FD1Q76F","assignmentId":"32UTUBMZ7HISRFL1ZSPWU2BJ8IFBVE","hitId":"3QGHA0EA0JM3KKNCY0PQRLYAHJ3BWH","url":"https://gershmanlab.com/experiments/alicia/teaching/experiment/?hitId=3QGHA0EA0JM3KKNCY0PQRLYAHJ3BWH&workerId=ARUXG5FD1Q76F&assignmentId=32UTUBMZ7HISRFL1ZSPWU2BJ8IFBVE&a=ZUU28&tp_a=ZUU28&b=32UTUBMZ7HISRFL1ZSPWU2BJ8IFBVE&tp_b=32UTUBMZ7HISRFL1ZSPWU2BJ8IFBVE&c=365198&tp_c=365198","firstResponseHeads":1,"firstResponseTails":5,"secondResponseHeads":2,"secondResponseTails":10,"studentIndex":2,"studentTrueHypers":{"a":4,"b":1},"studentGuess":0.30434782608695654,"delta":0.10434782608695653,"bonus":0,"bonusSoFar":0.64,"totalExamples":18},{"rt":30449,"response":{"heads":"20","tails":"4"},"type":"response","condition":"nonSeqFull","trueTheta":0.8,"classrooms":["A","B"],"studentTrueClassroom":"A","exampleSet":"first","trial_type":"survey-html-form","trial_index":45,"time_elapsed":856053,"internal_node_id":"0.0-35.0-0.0","params":{"nStudents":24,"maxFlips":30,"completionMinutes":45,"basePay":8,"maxBonus":9,"perTrialBonus":0.5,"perTrialBonusThreshold":0.1,"exampleCost":0.01},"classroomParams":{"A":{"a":1,"b":4},"B":{"a":4,"b":1},"C":{"a":2,"b":8},"D":{"a":8,"b":2}},"conditions":["nonSeqFull","nonSeqPartial","seqNoFeedback","seqFeedback"],"classroomPairings":[["A","B"],["C","D"]],"coinWeights":[0.2,0.5,0.8],"subjectId":"ARUXG5FD1Q76F","assignmentId":"32UTUBMZ7HISRFL1ZSPWU2BJ8IFBVE","hitId":"3QGHA0EA0JM3KKNCY0PQRLYAHJ3BWH","url":"https://gershmanlab.com/experiments/alicia/teaching/experiment/?hitId=3QGHA0EA0JM3KKNCY0PQRLYAHJ3BWH&workerId=ARUXG5FD1Q76F&assignmentId=32UTUBMZ7HISRFL1ZSPWU2BJ8IFBVE&a=ZUU28&tp_a=ZUU28&b=32UTUBMZ7HISRFL1ZSPWU2BJ8IFBVE&tp_b=32UTUBMZ7HISRFL1ZSPWU2BJ8IFBVE&c=365198&tp_c=365198","heads":20,"tails":4,"studentIndex":3,"studentTrueHypers":{"a":1,"b":4},"studentGuess":0.7241379310344828,"delta":0.07586206896551728,"totalExamples":24,"bonus":0.26,"bonusSoFar":0.9},{"rt":19718,"response":{"heads":"1","tails":"5"},"type":"response","condition":"nonSeqFull","trueTheta":0.2,"classrooms":["A","B"],"studentTrueClassroom":"A","exampleSet":"first","trial_type":"survey-html-form","trial_index":51,"time_elapsed":895667,"internal_node_id":"0.0-41.0-0.0","params":{"nStudents":24,"maxFlips":30,"completionMinutes":45,"basePay":8,"maxBonus":9,"perTrialBonus":0.5,"perTrialBonusThreshold":0.1,"exampleCost":0.01},"classroomParams":{"A":{"a":1,"b":4},"B":{"a":4,"b":1},"C":{"a":2,"b":8},"D":{"a":8,"b":2}},"conditions":["nonSeqFull","nonSeqPartial","seqNoFeedback","seqFeedback"],"classroomPairings":[["A","B"],["C","D"]],"coinWeights":[0.2,0.5,0.8],"subjectId":"ARUXG5FD1Q76F","assignmentId":"32UTUBMZ7HISRFL1ZSPWU2BJ8IFBVE","hitId":"3QGHA0EA0JM3KKNCY0PQRLYAHJ3BWH","url":"https://gershmanlab.com/experiments/alicia/teaching/experiment/?hitId=3QGHA0EA0JM3KKNCY0PQRLYAHJ3BWH&workerId=ARUXG5FD1Q76F&assignmentId=32UTUBMZ7HISRFL1ZSPWU2BJ8IFBVE&a=ZUU28&tp_a=ZUU28&b=32UTUBMZ7HISRFL1ZSPWU2BJ8IFBVE&tp_b=32UTUBMZ7HISRFL1ZSPWU2BJ8IFBVE&c=365198&tp_c=365198","heads":1,"tails":5,"studentIndex":4,"studentTrueHypers":{"a":1,"b":4},"studentGuess":0.18181818181818182,"delta":0.018181818181818188,"totalExamples":6,"bonus":0.44,"bonusSoFar":1.34},{"rt":38253,"response":{"heads":"14","tails":"3"},"type":"response","condition":"nonSeqFull","trueTheta":0.5,"classrooms":["A","B"],"studentTrueClassroom":"A","exampleSet":"first","trial_type":"survey-html-form","trial_index":57,"time_elapsed":950074,"internal_node_id":"0.0-47.0-0.0","params":{"nStudents":24,"maxFlips":30,"completionMinutes":45,"basePay":8,"maxBonus":9,"perTrialBonus":0.5,"perTrialBonusThreshold":0.1,"exampleCost":0.01},"classroomParams":{"A":{"a":1,"b":4},"B":{"a":4,"b":1},"C":{"a":2,"b":8},"D":{"a":8,"b":2}},"conditions":["nonSeqFull","nonSeqPartial","seqNoFeedback","seqFeedback"],"classroomPairings":[["A","B"],["C","D"]],"coinWeights":[0.2,0.5,0.8],"subjectId":"ARUXG5FD1Q76F","assignmentId":"32UTUBMZ7HISRFL1ZSPWU2BJ8IFBVE","hitId":"3QGHA0EA0JM3KKNCY0PQRLYAHJ3BWH","url":"https://gershmanlab.com/experiments/alicia/teaching/experiment/?hitId=3QGHA0EA0JM3KKNCY0PQRLYAHJ3BWH&workerId=ARUXG5FD1Q76F&assignmentId=32UTUBMZ7HISRFL1ZSPWU2BJ8IFBVE&a=ZUU28&tp_a=ZUU28&b=32UTUBMZ7HISRFL1ZSPWU2BJ8IFBVE&tp_b=32UTUBMZ7HISRFL1ZSPWU2BJ8IFBVE&c=365198&tp_c=365198","heads":14,"tails":3,"studentIndex":5,"studentTrueHypers":{"a":1,"b":4},"studentGuess":0.6818181818181818,"delta":0.18181818181818177,"totalExamples":17,"bonus":0,"bonusSoFar":1.34},{"rt":15767,"response":{"heads":"2","tails":"10"},"type":"response","condition":"nonSeqPartial","trueTheta":0.2,"classrooms":["A","B"],"studentTrueClassroom":"A","exampleSet":"first","trial_type":"survey-html-form","trial_index":63,"time_elapsed":981891,"internal_node_id":"0.0-53.0-0.0","params":{"nStudents":24,"maxFlips":30,"completionMinutes":45,"basePay":8,"maxBonus":9,"perTrialBonus":0.5,"perTrialBonusThreshold":0.1,"exampleCost":0.01},"classroomParams":{"A":{"a":1,"b":4},"B":{"a":4,"b":1},"C":{"a":2,"b":8},"D":{"a":8,"b":2}},"conditions":["nonSeqFull","nonSeqPartial","seqNoFeedback","seqFeedback"],"classroomPairings":[["A","B"],["C","D"]],"coinWeights":[0.2,0.5,0.8],"subjectId":"ARUXG5FD1Q76F","assignmentId":"32UTUBMZ7HISRFL1ZSPWU2BJ8IFBVE","hitId":"3QGHA0EA0JM3KKNCY0PQRLYAHJ3BWH","url":"https://gershmanlab.com/experiments/alicia/teaching/experiment/?hitId=3QGHA0EA0JM3KKNCY0PQRLYAHJ3BWH&workerId=ARUXG5FD1Q76F&assignmentId=32UTUBMZ7HISRFL1ZSPWU2BJ8IFBVE&a=ZUU28&tp_a=ZUU28&b=32UTUBMZ7HISRFL1ZSPWU2BJ8IFBVE&tp_b=32UTUBMZ7HISRFL1ZSPWU2BJ8IFBVE&c=365198&tp_c=365198","heads":2,"tails":10,"studentIndex":6,"studentTrueHypers":{"a":1,"b":4},"studentGuess":0.17647058823529413,"delta":0.023529411764705882,"totalExamples":12,"bonus":0.38,"bonusSoFar":1.72},{"rt":23460,"response":{"heads":"8","tails":"8"},"type":"response","condition":"nonSeqFull","trueTheta":0.5,"classrooms":["C","D"],"studentTrueClassroom":"C","exampleSet":"first","trial_type":"survey-html-form","trial_index":69,"time_elapsed":1021136,"internal_node_id":"0.0-59.0-0.0","params":{"nStudents":24,"maxFlips":30,"completionMinutes":45,"basePay":8,"maxBonus":9,"perTrialBonus":0.5,"perTrialBonusThreshold":0.1,"exampleCost":0.01},"classroomParams":{"A":{"a":1,"b":4},"B":{"a":4,"b":1},"C":{"a":2,"b":8},"D":{"a":8,"b":2}},"conditions":["nonSeqFull","nonSeqPartial","seqNoFeedback","seqFeedback"],"classroomPairings":[["A","B"],["C","D"]],"coinWeights":[0.2,0.5,0.8],"subjectId":"ARUXG5FD1Q76F","assignmentId":"32UTUBMZ7HISRFL1ZSPWU2BJ8IFBVE","hitId":"3QGHA0EA0JM3KKNCY0PQRLYAHJ3BWH","url":"https://gershmanlab.com/experiments/alicia/teaching/experiment/?hitId=3QGHA0EA0JM3KKNCY0PQRLYAHJ3BWH&workerId=ARUXG5FD1Q76F&assignmentId=32UTUBMZ7HISRFL1ZSPWU2BJ8IFBVE&a=ZUU28&tp_a=ZUU28&b=32UTUBMZ7HISRFL1ZSPWU2BJ8IFBVE&tp_b=32UTUBMZ7HISRFL1ZSPWU2BJ8IFBVE&c=365198&tp_c=365198","heads":8,"tails":8,"studentIndex":7,"studentTrueHypers":{"a":2,"b":8},"studentGuess":0.38461538461538464,"delta":0.11538461538461536,"totalExamples":16,"bonus":0,"bonusSoFar":1.72},{"rt":11577,"response":{"heads":"10","tails":"2"},"type":"response","condition":"nonSeqPartial","trueTheta":0.8,"classrooms":["C","D"],"studentTrueClassroom":"D","exampleSet":"first","trial_type":"survey-html-form","trial_index":75,"time_elapsed":1047356,"internal_node_id":"0.0-65.0-0.0","params":{"nStudents":24,"maxFlips":30,"completionMinutes":45,"basePay":8,"maxBonus":9,"perTrialBonus":0.5,"perTrialBonusThreshold":0.1,"exampleCost":0.01},"classroomParams":{"A":{"a":1,"b":4},"B":{"a":4,"b":1},"C":{"a":2,"b":8},"D":{"a":8,"b":2}},"conditions":["nonSeqFull","nonSeqPartial","seqNoFeedback","seqFeedback"],"classroomPairings":[["A","B"],["C","D"]],"coinWeights":[0.2,0.5,0.8],"subjectId":"ARUXG5FD1Q76F","assignmentId":"32UTUBMZ7HISRFL1ZSPWU2BJ8IFBVE","hitId":"3QGHA0EA0JM3KKNCY0PQRLYAHJ3BWH","url":"https://gershmanlab.com/experiments/alicia/teaching/experiment/?hitId=3QGHA0EA0JM3KKNCY0PQRLYAHJ3BWH&workerId=ARUXG5FD1Q76F&assignmentId=32UTUBMZ7HISRFL1ZSPWU2BJ8IFBVE&a=ZUU28&tp_a=ZUU28&b=32UTUBMZ7HISRFL1ZSPWU2BJ8IFBVE&tp_b=32UTUBMZ7HISRFL1ZSPWU2BJ8IFBVE&c=365198&tp_c=365198","heads":10,"tails":2,"studentIndex":8,"studentTrueHypers":{"a":8,"b":2},"studentGuess":0.8181818181818182,"delta":0.018181818181818188,"totalExamples":12,"bonus":0.38,"bonusSoFar":2.1},{"rt":8468,"response":{"heads":"10","tails":"2"},"type":"response","condition":"seqNoFeedback","trueTheta":0.8,"classrooms":["C","D"],"studentTrueClassroom":"D","exampleSet":"first","trial_type":"survey-html-form","trial_index":81,"time_elapsed":1069994,"internal_node_id":"0.0-71.0-0.0","params":{"nStudents":24,"maxFlips":30,"completionMinutes":45,"basePay":8,"maxBonus":9,"perTrialBonus":0.5,"perTrialBonusThreshold":0.1,"exampleCost":0.01},"classroomParams":{"A":{"a":1,"b":4},"B":{"a":4,"b":1},"C":{"a":2,"b":8},"D":{"a":8,"b":2}},"conditions":["nonSeqFull","nonSeqPartial","seqNoFeedback","seqFeedback"],"classroomPairings":[["A","B"],["C","D"]],"coinWeights":[0.2,0.5,0.8],"subjectId":"ARUXG5FD1Q76F","assignmentId":"32UTUBMZ7HISRFL1ZSPWU2BJ8IFBVE","hitId":"3QGHA0EA0JM3KKNCY0PQRLYAHJ3BWH","url":"https://gershmanlab.com/experiments/alicia/teaching/experiment/?hitId=3QGHA0EA0JM3KKNCY0PQRLYAHJ3BWH&workerId=ARUXG5FD1Q76F&assignmentId=32UTUBMZ7HISRFL1ZSPWU2BJ8IFBVE&a=ZUU28&tp_a=ZUU28&b=32UTUBMZ7HISRFL1ZSPWU2BJ8IFBVE&tp_b=32UTUBMZ7HISRFL1ZSPWU2BJ8IFBVE&c=365198&tp_c=365198","heads":10,"tails":2,"studentIndex":9,"studentTrueHypers":{"a":8,"b":2},"studentGuess":0.8181818181818182,"delta":0.018181818181818188,"totalExamples":12,"bonusSoFar":2.1},{"rt":13821,"response":{"heads":"10","tails":"2"},"type":"response","condition":"seqNoFeedback","trueTheta":0.8,"classrooms":["C","D"],"studentTrueClassroom":"D","exampleSet":"second","trial_type":"survey-html-form","trial_index":84,"time_elapsed":1091840,"internal_node_id":"0.0-74.0-0.0","params":{"nStudents":24,"maxFlips":30,"completionMinutes":45,"basePay":8,"maxBonus":9,"perTrialBonus":0.5,"perTrialBonusThreshold":0.1,"exampleCost":0.01},"classroomParams":{"A":{"a":1,"b":4},"B":{"a":4,"b":1},"C":{"a":2,"b":8},"D":{"a":8,"b":2}},"conditions":["nonSeqFull","nonSeqPartial","seqNoFeedback","seqFeedback"],"classroomPairings":[["A","B"],["C","D"]],"coinWeights":[0.2,0.5,0.8],"subjectId":"ARUXG5FD1Q76F","assignmentId":"32UTUBMZ7HISRFL1ZSPWU2BJ8IFBVE","hitId":"3QGHA0EA0JM3KKNCY0PQRLYAHJ3BWH","url":"https://gershmanlab.com/experiments/alicia/teaching/experiment/?hitId=3QGHA0EA0JM3KKNCY0PQRLYAHJ3BWH&workerId=ARUXG5FD1Q76F&assignmentId=32UTUBMZ7HISRFL1ZSPWU2BJ8IFBVE&a=ZUU28&tp_a=ZUU28&b=32UTUBMZ7HISRFL1ZSPWU2BJ8IFBVE&tp_b=32UTUBMZ7HISRFL1ZSPWU2BJ8IFBVE&c=365198&tp_c=365198","firstResponseHeads":10,"firstResponseTails":2,"secondResponseHeads":10,"secondResponseTails":2,"studentIndex":9,"studentTrueHypers":{"a":8,"b":2},"studentGuess":0.8235294117647058,"delta":0.0235294117647058,"bonus":0.26,"bonusSoFar":2.36,"totalExamples":24},{"rt":12737,"response":{"heads":"1","tails":"5"},"type":"response","condition":"seqNoFeedback","trueTheta":0.2,"classrooms":["C","D"],"studentTrueClassroom":"D","exampleSet":"first","trial_type":"survey-html-form","trial_index":90,"time_elapsed":1118748,"internal_node_id":"0.0-80.0-0.0","params":{"nStudents":24,"maxFlips":30,"completionMinutes":45,"basePay":8,"maxBonus":9,"perTrialBonus":0.5,"perTrialBonusThreshold":0.1,"exampleCost":0.01},"classroomParams":{"A":{"a":1,"b":4},"B":{"a":4,"b":1},"C":{"a":2,"b":8},"D":{"a":8,"b":2}},"conditions":["nonSeqFull","nonSeqPartial","seqNoFeedback","seqFeedback"],"classroomPairings":[["A","B"],["C","D"]],"coinWeights":[0.2,0.5,0.8],"subjectId":"ARUXG5FD1Q76F","assignmentId":"32UTUBMZ7HISRFL1ZSPWU2BJ8IFBVE","hitId":"3QGHA0EA0JM3KKNCY0PQRLYAHJ3BWH","url":"https://gershmanlab.com/experiments/alicia/teaching/experiment/?hitId=3QGHA0EA0JM3KKNCY0PQRLYAHJ3BWH&workerId=ARUXG5FD1Q76F&assignmentId=32UTUBMZ7HISRFL1ZSPWU2BJ8IFBVE&a=ZUU28&tp_a=ZUU28&b=32UTUBMZ7HISRFL1ZSPWU2BJ8IFBVE&tp_b=32UTUBMZ7HISRFL1ZSPWU2BJ8IFBVE&c=365198&tp_c=365198","heads":1,"tails":5,"studentIndex":10,"studentTrueHypers":{"a":8,"b":2},"studentGuess":0.5625,"delta":0.3625,"totalExamples":6,"bonusSoFar":2.36},{"rt":8046,"response":{"heads":"2","tails":"10"},"type":"response","condition":"seqNoFeedback","trueTheta":0.2,"classrooms":["C","D"],"studentTrueClassroom":"D","exampleSet":"second","trial_type":"survey-html-form","trial_index":93,"time_elapsed":1133820,"internal_node_id":"0.0-83.0-0.0","params":{"nStudents":24,"maxFlips":30,"completionMinutes":45,"basePay":8,"maxBonus":9,"perTrialBonus":0.5,"perTrialBonusThreshold":0.1,"exampleCost":0.01},"classroomParams":{"A":{"a":1,"b":4},"B":{"a":4,"b":1},"C":{"a":2,"b":8},"D":{"a":8,"b":2}},"conditions":["nonSeqFull","nonSeqPartial","seqNoFeedback","seqFeedback"],"classroomPairings":[["A","B"],["C","D"]],"coinWeights":[0.2,0.5,0.8],"subjectId":"ARUXG5FD1Q76F","assignmentId":"32UTUBMZ7HISRFL1ZSPWU2BJ8IFBVE","hitId":"3QGHA0EA0JM3KKNCY0PQRLYAHJ3BWH","url":"https://gershmanlab.com/experiments/alicia/teaching/experiment/?hitId=3QGHA0EA0JM3KKNCY0PQRLYAHJ3BWH&workerId=ARUXG5FD1Q76F&assignmentId=32UTUBMZ7HISRFL1ZSPWU2BJ8IFBVE&a=ZUU28&tp_a=ZUU28&b=32UTUBMZ7HISRFL1ZSPWU2BJ8IFBVE&tp_b=32UTUBMZ7HISRFL1ZSPWU2BJ8IFBVE&c=365198&tp_c=365198","firstResponseHeads":1,"firstResponseTails":5,"secondResponseHeads":2,"secondResponseTails":10,"studentIndex":10,"studentTrueHypers":{"a":8,"b":2},"studentGuess":0.39285714285714285,"delta":0.19285714285714284,"bonus":0,"bonusSoFar":2.36,"totalExamples":18},{"rt":8740,"response":{"heads":"7","tails":"7"},"type":"response","condition":"seqNoFeedback","trueTheta":0.5,"classrooms":["A","B"],"studentTrueClassroom":"A","exampleSet":"first","trial_type":"survey-html-form","trial_index":99,"time_elapsed":1164038,"internal_node_id":"0.0-89.0-0.0","params":{"nStudents":24,"maxFlips":30,"completionMinutes":45,"basePay":8,"maxBonus":9,"perTrialBonus":0.5,"perTrialBonusThreshold":0.1,"exampleCost":0.01},"classroomParams":{"A":{"a":1,"b":4},"B":{"a":4,"b":1},"C":{"a":2,"b":8},"D":{"a":8,"b":2}},"conditions":["nonSeqFull","nonSeqPartial","seqNoFeedback","seqFeedback"],"classroomPairings":[["A","B"],["C","D"]],"coinWeights":[0.2,0.5,0.8],"subjectId":"ARUXG5FD1Q76F","assignmentId":"32UTUBMZ7HISRFL1ZSPWU2BJ8IFBVE","hitId":"3QGHA0EA0JM3KKNCY0PQRLYAHJ3BWH","url":"https://gershmanlab.com/experiments/alicia/teaching/experiment/?hitId=3QGHA0EA0JM3KKNCY0PQRLYAHJ3BWH&workerId=ARUXG5FD1Q76F&assignmentId=32UTUBMZ7HISRFL1ZSPWU2BJ8IFBVE&a=ZUU28&tp_a=ZUU28&b=32UTUBMZ7HISRFL1ZSPWU2BJ8IFBVE&tp_b=32UTUBMZ7HISRFL1ZSPWU2BJ8IFBVE&c=365198&tp_c=365198","heads":7,"tails":7,"studentIndex":11,"studentTrueHypers":{"a":1,"b":4},"studentGuess":0.42105263157894735,"delta":0.07894736842105265,"totalExamples":14,"bonusSoFar":2.36},{"rt":5988,"response":{"heads":"6","tails":"6"},"type":"response","condition":"seqNoFeedback","trueTheta":0.5,"classrooms":["A","B"],"studentTrueClassroom":"A","exampleSet":"second","trial_type":"survey-html-form","trial_index":102,"time_elapsed":1175537,"internal_node_id":"0.0-92.0-0.0","params":{"nStudents":24,"maxFlips":30,"completionMinutes":45,"basePay":8,"maxBonus":9,"perTrialBonus":0.5,"perTrialBonusThreshold":0.1,"exampleCost":0.01},"classroomParams":{"A":{"a":1,"b":4},"B":{"a":4,"b":1},"C":{"a":2,"b":8},"D":{"a":8,"b":2}},"conditions":["nonSeqFull","nonSeqPartial","seqNoFeedback","seqFeedback"],"classroomPairings":[["A","B"],["C","D"]],"coinWeights":[0.2,0.5,0.8],"subjectId":"ARUXG5FD1Q76F","assignmentId":"32UTUBMZ7HISRFL1ZSPWU2BJ8IFBVE","hitId":"3QGHA0EA0JM3KKNCY0PQRLYAHJ3BWH","url":"https://gershmanlab.com/experiments/alicia/teaching/experiment/?hitId=3QGHA0EA0JM3KKNCY0PQRLYAHJ3BWH&workerId=ARUXG5FD1Q76F&assignmentId=32UTUBMZ7HISRFL1ZSPWU2BJ8IFBVE&a=ZUU28&tp_a=ZUU28&b=32UTUBMZ7HISRFL1ZSPWU2BJ8IFBVE&tp_b=32UTUBMZ7HISRFL1ZSPWU2BJ8IFBVE&c=365198&tp_c=365198","firstResponseHeads":7,"firstResponseTails":7,"secondResponseHeads":6,"secondResponseTails":6,"studentIndex":11,"studentTrueHypers":{"a":1,"b":4},"studentGuess":0.45161290322580644,"delta":0.04838709677419356,"bonus":0.24,"bonusSoFar":2.6,"totalExamples":26},{"rt":7979,"response":{"heads":"5","tails":"1"},"type":"response","condition":"seqFeedback","trueTheta":0.8,"classrooms":["A","B"],"studentTrueClassroom":"A","exampleSet":"first","trial_type":"survey-html-form","trial_index":108,"time_elapsed":1214055,"internal_node_id":"0.0-98.0-0.0","params":{"nStudents":24,"maxFlips":30,"completionMinutes":45,"basePay":8,"maxBonus":9,"perTrialBonus":0.5,"perTrialBonusThreshold":0.1,"exampleCost":0.01},"classroomParams":{"A":{"a":1,"b":4},"B":{"a":4,"b":1},"C":{"a":2,"b":8},"D":{"a":8,"b":2}},"conditions":["nonSeqFull","nonSeqPartial","seqNoFeedback","seqFeedback"],"classroomPairings":[["A","B"],["C","D"]],"coinWeights":[0.2,0.5,0.8],"subjectId":"ARUXG5FD1Q76F","assignmentId":"32UTUBMZ7HISRFL1ZSPWU2BJ8IFBVE","hitId":"3QGHA0EA0JM3KKNCY0PQRLYAHJ3BWH","url":"https://gershmanlab.com/experiments/alicia/teaching/experiment/?hitId=3QGHA0EA0JM3KKNCY0PQRLYAHJ3BWH&workerId=ARUXG5FD1Q76F&assignmentId=32UTUBMZ7HISRFL1ZSPWU2BJ8IFBVE&a=ZUU28&tp_a=ZUU28&b=32UTUBMZ7HISRFL1ZSPWU2BJ8IFBVE&tp_b=32UTUBMZ7HISRFL1ZSPWU2BJ8IFBVE&c=365198&tp_c=365198","heads":5,"tails":1,"studentIndex":12,"studentTrueHypers":{"a":1,"b":4},"studentGuess":0.5454545454545454,"delta":0.25454545454545463,"totalExamples":6,"bonusSoFar":2.6},{"rt":17643,"response":{"heads":"20","tails":"4"},"type":"response","condition":"seqFeedback","trueTheta":0.8,"classrooms":["A","B"],"studentTrueClassroom":"A","exampleSet":"second","trial_type":"survey-html-form","trial_index":112,"time_elapsed":1242450,"internal_node_id":"0.0-102.0-0.0","params":{"nStudents":24,"maxFlips":30,"completionMinutes":45,"basePay":8,"maxBonus":9,"perTrialBonus":0.5,"perTrialBonusThreshold":0.1,"exampleCost":0.01},"classroomParams":{"A":{"a":1,"b":4},"B":{"a":4,"b":1},"C":{"a":2,"b":8},"D":{"a":8,"b":2}},"conditions":["nonSeqFull","nonSeqPartial","seqNoFeedback","seqFeedback"],"classroomPairings":[["A","B"],["C","D"]],"coinWeights":[0.2,0.5,0.8],"subjectId":"ARUXG5FD1Q76F","assignmentId":"32UTUBMZ7HISRFL1ZSPWU2BJ8IFBVE","hitId":"3QGHA0EA0JM3KKNCY0PQRLYAHJ3BWH","url":"https://gershmanlab.com/experiments/alicia/teaching/experiment/?hitId=3QGHA0EA0JM3KKNCY0PQRLYAHJ3BWH&workerId=ARUXG5FD1Q76F&assignmentId=32UTUBMZ7HISRFL1ZSPWU2BJ8IFBVE&a=ZUU28&tp_a=ZUU28&b=32UTUBMZ7HISRFL1ZSPWU2BJ8IFBVE&tp_b=32UTUBMZ7HISRFL1ZSPWU2BJ8IFBVE&c=365198&tp_c=365198","firstResponseHeads":5,"firstResponseTails":1,"secondResponseHeads":20,"secondResponseTails":4,"studentIndex":12,"studentTrueHypers":{"a":1,"b":4},"studentGuess":0.7428571428571429,"delta":0.05714285714285716,"bonus":0.2,"bonusSoFar":2.8,"totalExamples":30},{"rt":12425,"response":{"heads":"1","tails":"5"},"type":"response","condition":"nonSeqPartial","trueTheta":0.2,"classrooms":["C","D"],"studentTrueClassroom":"D","exampleSet":"first","trial_type":"survey-html-form","trial_index":118,"time_elapsed":1270093,"internal_node_id":"0.0-108.0-0.0","params":{"nStudents":24,"maxFlips":30,"completionMinutes":45,"basePay":8,"maxBonus":9,"perTrialBonus":0.5,"perTrialBonusThreshold":0.1,"exampleCost":0.01},"classroomParams":{"A":{"a":1,"b":4},"B":{"a":4,"b":1},"C":{"a":2,"b":8},"D":{"a":8,"b":2}},"conditions":["nonSeqFull","nonSeqPartial","seqNoFeedback","seqFeedback"],"classroomPairings":[["A","B"],["C","D"]],"coinWeights":[0.2,0.5,0.8],"subjectId":"ARUXG5FD1Q76F","assignmentId":"32UTUBMZ7HISRFL1ZSPWU2BJ8IFBVE","hitId":"3QGHA0EA0JM3KKNCY0PQRLYAHJ3BWH","url":"https://gershmanlab.com/experiments/alicia/teaching/experiment/?hitId=3QGHA0EA0JM3KKNCY0PQRLYAHJ3BWH&workerId=ARUXG5FD1Q76F&assignmentId=32UTUBMZ7HISRFL1ZSPWU2BJ8IFBVE&a=ZUU28&tp_a=ZUU28&b=32UTUBMZ7HISRFL1ZSPWU2BJ8IFBVE&tp_b=32UTUBMZ7HISRFL1ZSPWU2BJ8IFBVE&c=365198&tp_c=365198","heads":1,"tails":5,"studentIndex":13,"studentTrueHypers":{"a":8,"b":2},"studentGuess":0.5625,"delta":0.3625,"totalExamples":6,"bonus":0,"bonusSoFar":2.8},{"rt":6244,"response":{"heads":"10","tails":"10"},"type":"response","condition":"nonSeqPartial","trueTheta":0.5,"classrooms":["A","B"],"studentTrueClassroom":"B","exampleSet":"first","trial_type":"survey-html-form","trial_index":124,"time_elapsed":1288469,"internal_node_id":"0.0-114.0-0.0","params":{"nStudents":24,"maxFlips":30,"completionMinutes":45,"basePay":8,"maxBonus":9,"perTrialBonus":0.5,"perTrialBonusThreshold":0.1,"exampleCost":0.01},"classroomParams":{"A":{"a":1,"b":4},"B":{"a":4,"b":1},"C":{"a":2,"b":8},"D":{"a":8,"b":2}},"conditions":["nonSeqFull","nonSeqPartial","seqNoFeedback","seqFeedback"],"classroomPairings":[["A","B"],["C","D"]],"coinWeights":[0.2,0.5,0.8],"subjectId":"ARUXG5FD1Q76F","assignmentId":"32UTUBMZ7HISRFL1ZSPWU2BJ8IFBVE","hitId":"3QGHA0EA0JM3KKNCY0PQRLYAHJ3BWH","url":"https://gershmanlab.com/experiments/alicia/teaching/experiment/?hitId=3QGHA0EA0JM3KKNCY0PQRLYAHJ3BWH&workerId=ARUXG5FD1Q76F&assignmentId=32UTUBMZ7HISRFL1ZSPWU2BJ8IFBVE&a=ZUU28&tp_a=ZUU28&b=32UTUBMZ7HISRFL1ZSPWU2BJ8IFBVE&tp_b=32UTUBMZ7HISRFL1ZSPWU2BJ8IFBVE&c=365198&tp_c=365198","heads":10,"tails":10,"studentIndex":14,"studentTrueHypers":{"a":4,"b":1},"studentGuess":0.56,"delta":0.06000000000000005,"totalExamples":20,"bonus":0.3,"bonusSoFar":3.1},{"rt":8932,"response":{"heads":"10","tails":"10"},"type":"response","condition":"seqNoFeedback","trueTheta":0.5,"classrooms":["C","D"],"studentTrueClassroom":"C","exampleSet":"first","trial_type":"survey-html-form","trial_index":130,"time_elapsed":1309347,"internal_node_id":"0.0-120.0-0.0","params":{"nStudents":24,"maxFlips":30,"completionMinutes":45,"basePay":8,"maxBonus":9,"perTrialBonus":0.5,"perTrialBonusThreshold":0.1,"exampleCost":0.01},"classroomParams":{"A":{"a":1,"b":4},"B":{"a":4,"b":1},"C":{"a":2,"b":8},"D":{"a":8,"b":2}},"conditions":["nonSeqFull","nonSeqPartial","seqNoFeedback","seqFeedback"],"classroomPairings":[["A","B"],["C","D"]],"coinWeights":[0.2,0.5,0.8],"subjectId":"ARUXG5FD1Q76F","assignmentId":"32UTUBMZ7HISRFL1ZSPWU2BJ8IFBVE","hitId":"3QGHA0EA0JM3KKNCY0PQRLYAHJ3BWH","url":"https://gershmanlab.com/experiments/alicia/teaching/experiment/?hitId=3QGHA0EA0JM3KKNCY0PQRLYAHJ3BWH&workerId=ARUXG5FD1Q76F&assignmentId=32UTUBMZ7HISRFL1ZSPWU2BJ8IFBVE&a=ZUU28&tp_a=ZUU28&b=32UTUBMZ7HISRFL1ZSPWU2BJ8IFBVE&tp_b=32UTUBMZ7HISRFL1ZSPWU2BJ8IFBVE&c=365198&tp_c=365198","heads":10,"tails":10,"studentIndex":15,"studentTrueHypers":{"a":2,"b":8},"studentGuess":0.4,"delta":0.09999999999999998,"totalExamples":20,"bonusSoFar":3.1},{"rt":5166,"response":{"heads":"1","tails":"1"},"type":"response","condition":"seqNoFeedback","trueTheta":0.5,"classrooms":["C","D"],"studentTrueClassroom":"C","exampleSet":"second","trial_type":"survey-html-form","trial_index":133,"time_elapsed":1320518,"internal_node_id":"0.0-123.0-0.0","params":{"nStudents":24,"maxFlips":30,"completionMinutes":45,"basePay":8,"maxBonus":9,"perTrialBonus":0.5,"perTrialBonusThreshold":0.1,"exampleCost":0.01},"classroomParams":{"A":{"a":1,"b":4},"B":{"a":4,"b":1},"C":{"a":2,"b":8},"D":{"a":8,"b":2}},"conditions":["nonSeqFull","nonSeqPartial","seqNoFeedback","seqFeedback"],"classroomPairings":[["A","B"],["C","D"]],"coinWeights":[0.2,0.5,0.8],"subjectId":"ARUXG5FD1Q76F","assignmentId":"32UTUBMZ7HISRFL1ZSPWU2BJ8IFBVE","hitId":"3QGHA0EA0JM3KKNCY0PQRLYAHJ3BWH","url":"https://gershmanlab.com/experiments/alicia/teaching/experiment/?hitId=3QGHA0EA0JM3KKNCY0PQRLYAHJ3BWH&workerId=ARUXG5FD1Q76F&assignmentId=32UTUBMZ7HISRFL1ZSPWU2BJ8IFBVE&a=ZUU28&tp_a=ZUU28&b=32UTUBMZ7HISRFL1ZSPWU2BJ8IFBVE&tp_b=32UTUBMZ7HISRFL1ZSPWU2BJ8IFBVE&c=365198&tp_c=365198","firstResponseHeads":10,"firstResponseTails":10,"secondResponseHeads":1,"secondResponseTails":1,"studentIndex":15,"studentTrueHypers":{"a":2,"b":8},"studentGuess":0.40625,"delta":0.09375,"bonus":0.28,"bonusSoFar":3.38,"totalExamples":22},{"rt":6348,"response":{"heads":"10","tails":"2"},"type":"response","condition":"seqNoFeedback","trueTheta":0.8,"classrooms":["A","B"],"studentTrueClassroom":"B","exampleSet":"first","trial_type":"survey-html-form","trial_index":139,"time_elapsed":1349393,"internal_node_id":"0.0-129.0-0.0","params":{"nStudents":24,"maxFlips":30,"completionMinutes":45,"basePay":8,"maxBonus":9,"perTrialBonus":0.5,"perTrialBonusThreshold":0.1,"exampleCost":0.01},"classroomParams":{"A":{"a":1,"b":4},"B":{"a":4,"b":1},"C":{"a":2,"b":8},"D":{"a":8,"b":2}},"conditions":["nonSeqFull","nonSeqPartial","seqNoFeedback","seqFeedback"],"classroomPairings":[["A","B"],["C","D"]],"coinWeights":[0.2,0.5,0.8],"subjectId":"ARUXG5FD1Q76F","assignmentId":"32UTUBMZ7HISRFL1ZSPWU2BJ8IFBVE","hitId":"3QGHA0EA0JM3KKNCY0PQRLYAHJ3BWH","url":"https://gershmanlab.com/experiments/alicia/teaching/experiment/?hitId=3QGHA0EA0JM3KKNCY0PQRLYAHJ3BWH&workerId=ARUXG5FD1Q76F&assignmentId=32UTUBMZ7HISRFL1ZSPWU2BJ8IFBVE&a=ZUU28&tp_a=ZUU28&b=32UTUBMZ7HISRFL1ZSPWU2BJ8IFBVE&tp_b=32UTUBMZ7HISRFL1ZSPWU2BJ8IFBVE&c=365198&tp_c=365198","heads":10,"tails":2,"studentIndex":16,"studentTrueHypers":{"a":4,"b":1},"studentGuess":0.8235294117647058,"delta":0.0235294117647058,"totalExamples":12,"bonusSoFar":3.38},{"rt":13779,"response":{"heads":"5","tails":"1"},"type":"response","condition":"seqNoFeedback","trueTheta":0.8,"classrooms":["A","B"],"studentTrueClassroom":"B","exampleSet":"second","trial_type":"survey-html-form","trial_index":142,"time_elapsed":1369455,"internal_node_id":"0.0-132.0-0.0","params":{"nStudents":24,"maxFlips":30,"completionMinutes":45,"basePay":8,"maxBonus":9,"perTrialBonus":0.5,"perTrialBonusThreshold":0.1,"exampleCost":0.01},"classroomParams":{"A":{"a":1,"b":4},"B":{"a":4,"b":1},"C":{"a":2,"b":8},"D":{"a":8,"b":2}},"conditions":["nonSeqFull","nonSeqPartial","seqNoFeedback","seqFeedback"],"classroomPairings":[["A","B"],["C","D"]],"coinWeights":[0.2,0.5,0.8],"subjectId":"ARUXG5FD1Q76F","assignmentId":"32UTUBMZ7HISRFL1ZSPWU2BJ8IFBVE","hitId":"3QGHA0EA0JM3KKNCY0PQRLYAHJ3BWH","url":"https://gershmanlab.com/experiments/alicia/teaching/experiment/?hitId=3QGHA0EA0JM3KKNCY0PQRLYAHJ3BWH&workerId=ARUXG5FD1Q76F&assignmentId=32UTUBMZ7HISRFL1ZSPWU2BJ8IFBVE&a=ZUU28&tp_a=ZUU28&b=32UTUBMZ7HISRFL1ZSPWU2BJ8IFBVE&tp_b=32UTUBMZ7HISRFL1ZSPWU2BJ8IFBVE&c=365198&tp_c=365198","firstResponseHeads":10,"firstResponseTails":2,"secondResponseHeads":5,"secondResponseTails":1,"studentIndex":16,"studentTrueHypers":{"a":4,"b":1},"studentGuess":0.8260869565217391,"delta":0.02608695652173909,"bonus":0.32,"bonusSoFar":3.7,"totalExamples":18},{"rt":21925,"response":{"heads":"6","tails":"1"},"type":"response","condition":"nonSeqFull","trueTheta":0.8,"classrooms":["C","D"],"studentTrueClassroom":"D","exampleSet":"first","trial_type":"survey-html-form","trial_index":148,"time_elapsed":1405070,"internal_node_id":"0.0-138.0-0.0","params":{"nStudents":24,"maxFlips":30,"completionMinutes":45,"basePay":8,"maxBonus":9,"perTrialBonus":0.5,"perTrialBonusThreshold":0.1,"exampleCost":0.01},"classroomParams":{"A":{"a":1,"b":4},"B":{"a":4,"b":1},"C":{"a":2,"b":8},"D":{"a":8,"b":2}},"conditions":["nonSeqFull","nonSeqPartial","seqNoFeedback","seqFeedback"],"classroomPairings":[["A","B"],["C","D"]],"coinWeights":[0.2,0.5,0.8],"subjectId":"ARUXG5FD1Q76F","assignmentId":"32UTUBMZ7HISRFL1ZSPWU2BJ8IFBVE","hitId":"3QGHA0EA0JM3KKNCY0PQRLYAHJ3BWH","url":"https://gershmanlab.com/experiments/alicia/teaching/experiment/?hitId=3QGHA0EA0JM3KKNCY0PQRLYAHJ3BWH&workerId=ARUXG5FD1Q76F&assignmentId=32UTUBMZ7HISRFL1ZSPWU2BJ8IFBVE&a=ZUU28&tp_a=ZUU28&b=32UTUBMZ7HISRFL1ZSPWU2BJ8IFBVE&tp_b=32UTUBMZ7HISRFL1ZSPWU2BJ8IFBVE&c=365198&tp_c=365198","heads":6,"tails":1,"studentIndex":17,"studentTrueHypers":{"a":8,"b":2},"studentGuess":0.8235294117647058,"delta":0.0235294117647058,"totalExamples":7,"bonus":0.43,"bonusSoFar":4.13},{"rt":8092,"response":{"heads":"10","tails":"2"},"type":"response","condition":"seqFeedback","trueTheta":0.8,"classrooms":["C","D"],"studentTrueClassroom":"D","exampleSet":"first","trial_type":"survey-html-form","trial_index":154,"time_elapsed":1428453,"internal_node_id":"0.0-144.0-0.0","params":{"nStudents":24,"maxFlips":30,"completionMinutes":45,"basePay":8,"maxBonus":9,"perTrialBonus":0.5,"perTrialBonusThreshold":0.1,"exampleCost":0.01},"classroomParams":{"A":{"a":1,"b":4},"B":{"a":4,"b":1},"C":{"a":2,"b":8},"D":{"a":8,"b":2}},"conditions":["nonSeqFull","nonSeqPartial","seqNoFeedback","seqFeedback"],"classroomPairings":[["A","B"],["C","D"]],"coinWeights":[0.2,0.5,0.8],"subjectId":"ARUXG5FD1Q76F","assignmentId":"32UTUBMZ7HISRFL1ZSPWU2BJ8IFBVE","hitId":"3QGHA0EA0JM3KKNCY0PQRLYAHJ3BWH","url":"https://gershmanlab.com/experiments/alicia/teaching/experiment/?hitId=3QGHA0EA0JM3KKNCY0PQRLYAHJ3BWH&workerId=ARUXG5FD1Q76F&assignmentId=32UTUBMZ7HISRFL1ZSPWU2BJ8IFBVE&a=ZUU28&tp_a=ZUU28&b=32UTUBMZ7HISRFL1ZSPWU2BJ8IFBVE&tp_b=32UTUBMZ7HISRFL1ZSPWU2BJ8IFBVE&c=365198&tp_c=365198","heads":10,"tails":2,"studentIndex":18,"studentTrueHypers":{"a":8,"b":2},"studentGuess":0.8181818181818182,"delta":0.018181818181818188,"totalExamples":12,"bonusSoFar":4.13},{"rt":13349,"response":{"heads":"4","tails":"1"},"type":"response","condition":"seqFeedback","trueTheta":0.8,"classrooms":["C","D"],"studentTrueClassroom":"D","exampleSet":"second","trial_type":"survey-html-form","trial_index":158,"time_elapsed":1454616,"internal_node_id":"0.0-148.0-0.0","params":{"nStudents":24,"maxFlips":30,"completionMinutes":45,"basePay":8,"maxBonus":9,"perTrialBonus":0.5,"perTrialBonusThreshold":0.1,"exampleCost":0.01},"classroomParams":{"A":{"a":1,"b":4},"B":{"a":4,"b":1},"C":{"a":2,"b":8},"D":{"a":8,"b":2}},"conditions":["nonSeqFull","nonSeqPartial","seqNoFeedback","seqFeedback"],"classroomPairings":[["A","B"],["C","D"]],"coinWeights":[0.2,0.5,0.8],"subjectId":"ARUXG5FD1Q76F","assignmentId":"32UTUBMZ7HISRFL1ZSPWU2BJ8IFBVE","hitId":"3QGHA0EA0JM3KKNCY0PQRLYAHJ3BWH","url":"https://gershmanlab.com/experiments/alicia/teaching/experiment/?hitId=3QGHA0EA0JM3KKNCY0PQRLYAHJ3BWH&workerId=ARUXG5FD1Q76F&assignmentId=32UTUBMZ7HISRFL1ZSPWU2BJ8IFBVE&a=ZUU28&tp_a=ZUU28&b=32UTUBMZ7HISRFL1ZSPWU2BJ8IFBVE&tp_b=32UTUBMZ7HISRFL1ZSPWU2BJ8IFBVE&c=365198&tp_c=365198","firstResponseHeads":10,"firstResponseTails":2,"secondResponseHeads":4,"secondResponseTails":1,"studentIndex":18,"studentTrueHypers":{"a":8,"b":2},"studentGuess":0.8148148148148148,"delta":0.014814814814814725,"bonus":0.33,"bonusSoFar":4.46,"totalExamples":17},{"rt":22220,"response":{"heads":"4","tails":"20"},"type":"response","condition":"nonSeqFull","trueTheta":0.2,"classrooms":["C","D"],"studentTrueClassroom":"D","exampleSet":"first","trial_type":"survey-html-form","trial_index":164,"time_elapsed":1492166,"internal_node_id":"0.0-154.0-0.0","params":{"nStudents":24,"maxFlips":30,"completionMinutes":45,"basePay":8,"maxBonus":9,"perTrialBonus":0.5,"perTrialBonusThreshold":0.1,"exampleCost":0.01},"classroomParams":{"A":{"a":1,"b":4},"B":{"a":4,"b":1},"C":{"a":2,"b":8},"D":{"a":8,"b":2}},"conditions":["nonSeqFull","nonSeqPartial","seqNoFeedback","seqFeedback"],"classroomPairings":[["A","B"],["C","D"]],"coinWeights":[0.2,0.5,0.8],"subjectId":"ARUXG5FD1Q76F","assignmentId":"32UTUBMZ7HISRFL1ZSPWU2BJ8IFBVE","hitId":"3QGHA0EA0JM3KKNCY0PQRLYAHJ3BWH","url":"https://gershmanlab.com/experiments/alicia/teaching/experiment/?hitId=3QGHA0EA0JM3KKNCY0PQRLYAHJ3BWH&workerId=ARUXG5FD1Q76F&assignmentId=32UTUBMZ7HISRFL1ZSPWU2BJ8IFBVE&a=ZUU28&tp_a=ZUU28&b=32UTUBMZ7HISRFL1ZSPWU2BJ8IFBVE&tp_b=32UTUBMZ7HISRFL1ZSPWU2BJ8IFBVE&c=365198&tp_c=365198","heads":4,"tails":20,"studentIndex":19,"studentTrueHypers":{"a":8,"b":2},"studentGuess":0.35294117647058826,"delta":0.15294117647058825,"totalExamples":24,"bonus":0,"bonusSoFar":4.46},{"rt":15552,"response":{"heads":"20","tails":"4"},"type":"response","condition":"nonSeqPartial","trueTheta":0.8,"classrooms":["A","B"],"studentTrueClassroom":"A","exampleSet":"first","trial_type":"survey-html-form","trial_index":170,"time_elapsed":1521769,"internal_node_id":"0.0-160.0-0.0","params":{"nStudents":24,"maxFlips":30,"completionMinutes":45,"basePay":8,"maxBonus":9,"perTrialBonus":0.5,"perTrialBonusThreshold":0.1,"exampleCost":0.01},"classroomParams":{"A":{"a":1,"b":4},"B":{"a":4,"b":1},"C":{"a":2,"b":8},"D":{"a":8,"b":2}},"conditions":["nonSeqFull","nonSeqPartial","seqNoFeedback","seqFeedback"],"classroomPairings":[["A","B"],["C","D"]],"coinWeights":[0.2,0.5,0.8],"subjectId":"ARUXG5FD1Q76F","assignmentId":"32UTUBMZ7HISRFL1ZSPWU2BJ8IFBVE","hitId":"3QGHA0EA0JM3KKNCY0PQRLYAHJ3BWH","url":"https://gershmanlab.com/experiments/alicia/teaching/experiment/?hitId=3QGHA0EA0JM3KKNCY0PQRLYAHJ3BWH&workerId=ARUXG5FD1Q76F&assignmentId=32UTUBMZ7HISRFL1ZSPWU2BJ8IFBVE&a=ZUU28&tp_a=ZUU28&b=32UTUBMZ7HISRFL1ZSPWU2BJ8IFBVE&tp_b=32UTUBMZ7HISRFL1ZSPWU2BJ8IFBVE&c=365198&tp_c=365198","heads":20,"tails":4,"studentIndex":20,"studentTrueHypers":{"a":1,"b":4},"studentGuess":0.7241379310344828,"delta":0.07586206896551728,"totalExamples":24,"bonus":0.26,"bonusSoFar":4.72},{"rt":16927,"response":{"heads":"5","tails":"5"},"type":"response","condition":"seqFeedback","trueTheta":0.5,"classrooms":["C","D"],"studentTrueClassroom":"D","exampleSet":"first","trial_type":"survey-html-form","trial_index":176,"time_elapsed":1553297,"internal_node_id":"0.0-166.0-0.0","params":{"nStudents":24,"maxFlips":30,"completionMinutes":45,"basePay":8,"maxBonus":9,"perTrialBonus":0.5,"perTrialBonusThreshold":0.1,"exampleCost":0.01},"classroomParams":{"A":{"a":1,"b":4},"B":{"a":4,"b":1},"C":{"a":2,"b":8},"D":{"a":8,"b":2}},"conditions":["nonSeqFull","nonSeqPartial","seqNoFeedback","seqFeedback"],"classroomPairings":[["A","B"],["C","D"]],"coinWeights":[0.2,0.5,0.8],"subjectId":"ARUXG5FD1Q76F","assignmentId":"32UTUBMZ7HISRFL1ZSPWU2BJ8IFBVE","hitId":"3QGHA0EA0JM3KKNCY0PQRLYAHJ3BWH","url":"https://gershmanlab.com/experiments/alicia/teaching/experiment/?hitId=3QGHA0EA0JM3KKNCY0PQRLYAHJ3BWH&workerId=ARUXG5FD1Q76F&assignmentId=32UTUBMZ7HISRFL1ZSPWU2BJ8IFBVE&a=ZUU28&tp_a=ZUU28&b=32UTUBMZ7HISRFL1ZSPWU2BJ8IFBVE&tp_b=32UTUBMZ7HISRFL1ZSPWU2BJ8IFBVE&c=365198&tp_c=365198","heads":5,"tails":5,"studentIndex":21,"studentTrueHypers":{"a":8,"b":2},"studentGuess":0.65,"delta":0.15000000000000002,"totalExamples":10,"bonusSoFar":4.72},{"rt":6093,"response":{"heads":"8","tails":"8"},"type":"response","condition":"seqFeedback","trueTheta":0.5,"classrooms":["C","D"],"studentTrueClassroom":"D","exampleSet":"second","trial_type":"survey-html-form","trial_index":180,"time_elapsed":1570393,"internal_node_id":"0.0-170.0-0.0","params":{"nStudents":24,"maxFlips":30,"completionMinutes":45,"basePay":8,"maxBonus":9,"perTrialBonus":0.5,"perTrialBonusThreshold":0.1,"exampleCost":0.01},"classroomParams":{"A":{"a":1,"b":4},"B":{"a":4,"b":1},"C":{"a":2,"b":8},"D":{"a":8,"b":2}},"conditions":["nonSeqFull","nonSeqPartial","seqNoFeedback","seqFeedback"],"classroomPairings":[["A","B"],["C","D"]],"coinWeights":[0.2,0.5,0.8],"subjectId":"ARUXG5FD1Q76F","assignmentId":"32UTUBMZ7HISRFL1ZSPWU2BJ8IFBVE","hitId":"3QGHA0EA0JM3KKNCY0PQRLYAHJ3BWH","url":"https://gershmanlab.com/experiments/alicia/teaching/experiment/?hitId=3QGHA0EA0JM3KKNCY0PQRLYAHJ3BWH&workerId=ARUXG5FD1Q76F&assignmentId=32UTUBMZ7HISRFL1ZSPWU2BJ8IFBVE&a=ZUU28&tp_a=ZUU28&b=32UTUBMZ7HISRFL1ZSPWU2BJ8IFBVE&tp_b=32UTUBMZ7HISRFL1ZSPWU2BJ8IFBVE&c=365198&tp_c=365198","firstResponseHeads":5,"firstResponseTails":5,"secondResponseHeads":8,"secondResponseTails":8,"studentIndex":21,"studentTrueHypers":{"a":8,"b":2},"studentGuess":0.5833333333333334,"delta":0.08333333333333337,"bonus":0.24,"bonusSoFar":4.96,"totalExamples":26},{"rt":7979,"response":{"heads":"1","tails":"5"},"type":"response","condition":"seqFeedback","trueTheta":0.2,"classrooms":["C","D"],"studentTrueClassroom":"D","exampleSet":"first","trial_type":"survey-html-form","trial_index":186,"time_elapsed":1593559,"internal_node_id":"0.0-176.0-0.0","params":{"nStudents":24,"maxFlips":30,"completionMinutes":45,"basePay":8,"maxBonus":9,"perTrialBonus":0.5,"perTrialBonusThreshold":0.1,"exampleCost":0.01},"classroomParams":{"A":{"a":1,"b":4},"B":{"a":4,"b":1},"C":{"a":2,"b":8},"D":{"a":8,"b":2}},"conditions":["nonSeqFull","nonSeqPartial","seqNoFeedback","seqFeedback"],"classroomPairings":[["A","B"],["C","D"]],"coinWeights":[0.2,0.5,0.8],"subjectId":"ARUXG5FD1Q76F","assignmentId":"32UTUBMZ7HISRFL1ZSPWU2BJ8IFBVE","hitId":"3QGHA0EA0JM3KKNCY0PQRLYAHJ3BWH","url":"https://gershmanlab.com/experiments/alicia/teaching/experiment/?hitId=3QGHA0EA0JM3KKNCY0PQRLYAHJ3BWH&workerId=ARUXG5FD1Q76F&assignmentId=32UTUBMZ7HISRFL1ZSPWU2BJ8IFBVE&a=ZUU28&tp_a=ZUU28&b=32UTUBMZ7HISRFL1ZSPWU2BJ8IFBVE&tp_b=32UTUBMZ7HISRFL1ZSPWU2BJ8IFBVE&c=365198&tp_c=365198","heads":1,"tails":5,"studentIndex":22,"studentTrueHypers":{"a":8,"b":2},"studentGuess":0.5625,"delta":0.3625,"totalExamples":6,"bonusSoFar":4.96},{"rt":8568,"response":{"heads":"4","tails":"20"},"type":"response","condition":"seqFeedback","trueTheta":0.2,"classrooms":["C","D"],"studentTrueClassroom":"D","exampleSet":"second","trial_type":"survey-html-form","trial_index":190,"time_elapsed":1615214,"internal_node_id":"0.0-180.0-0.0","params":{"nStudents":24,"maxFlips":30,"completionMinutes":45,"basePay":8,"maxBonus":9,"perTrialBonus":0.5,"perTrialBonusThreshold":0.1,"exampleCost":0.01},"classroomParams":{"A":{"a":1,"b":4},"B":{"a":4,"b":1},"C":{"a":2,"b":8},"D":{"a":8,"b":2}},"conditions":["nonSeqFull","nonSeqPartial","seqNoFeedback","seqFeedback"],"classroomPairings":[["A","B"],["C","D"]],"coinWeights":[0.2,0.5,0.8],"subjectId":"ARUXG5FD1Q76F","assignmentId":"32UTUBMZ7HISRFL1ZSPWU2BJ8IFBVE","hitId":"3QGHA0EA0JM3KKNCY0PQRLYAHJ3BWH","url":"https://gershmanlab.com/experiments/alicia/teaching/experiment/?hitId=3QGHA0EA0JM3KKNCY0PQRLYAHJ3BWH&workerId=ARUXG5FD1Q76F&assignmentId=32UTUBMZ7HISRFL1ZSPWU2BJ8IFBVE&a=ZUU28&tp_a=ZUU28&b=32UTUBMZ7HISRFL1ZSPWU2BJ8IFBVE&tp_b=32UTUBMZ7HISRFL1ZSPWU2BJ8IFBVE&c=365198&tp_c=365198","firstResponseHeads":1,"firstResponseTails":5,"secondResponseHeads":4,"secondResponseTails":20,"studentIndex":22,"studentTrueHypers":{"a":8,"b":2},"studentGuess":0.325,"delta":0.125,"bonus":0,"bonusSoFar":4.96,"totalExamples":30},{"rt":6941,"response":{"heads":"12","tails":"12"},"type":"response","condition":"nonSeqPartial","trueTheta":0.5,"classrooms":["C","D"],"studentTrueClassroom":"C","exampleSet":"first","trial_type":"survey-html-form","trial_index":196,"time_elapsed":1635732,"internal_node_id":"0.0-186.0-0.0","params":{"nStudents":24,"maxFlips":30,"completionMinutes":45,"basePay":8,"maxBonus":9,"perTrialBonus":0.5,"perTrialBonusThreshold":0.1,"exampleCost":0.01},"classroomParams":{"A":{"a":1,"b":4},"B":{"a":4,"b":1},"C":{"a":2,"b":8},"D":{"a":8,"b":2}},"conditions":["nonSeqFull","nonSeqPartial","seqNoFeedback","seqFeedback"],"classroomPairings":[["A","B"],["C","D"]],"coinWeights":[0.2,0.5,0.8],"subjectId":"ARUXG5FD1Q76F","assignmentId":"32UTUBMZ7HISRFL1ZSPWU2BJ8IFBVE","hitId":"3QGHA0EA0JM3KKNCY0PQRLYAHJ3BWH","url":"https://gershmanlab.com/experiments/alicia/teaching/experiment/?hitId=3QGHA0EA0JM3KKNCY0PQRLYAHJ3BWH&workerId=ARUXG5FD1Q76F&assignmentId=32UTUBMZ7HISRFL1ZSPWU2BJ8IFBVE&a=ZUU28&tp_a=ZUU28&b=32UTUBMZ7HISRFL1ZSPWU2BJ8IFBVE&tp_b=32UTUBMZ7HISRFL1ZSPWU2BJ8IFBVE&c=365198&tp_c=365198","heads":12,"tails":12,"studentIndex":23,"studentTrueHypers":{"a":2,"b":8},"studentGuess":0.4117647058823529,"delta":0.08823529411764708,"totalExamples":24,"bonus":0.26,"bonusSoFar":5.22},{"rt":8671,"response":{"gender":"male","age":"42","understood":"yes","comments":""},"type":"response","trial_type":"survey-html-form","trial_index":200,"time_elapsed":1651636,"internal_node_id":"0.0-191.0","params":{"nStudents":24,"maxFlips":30,"completionMinutes":45,"basePay":8,"maxBonus":9,"perTrialBonus":0.5,"perTrialBonusThreshold":0.1,"exampleCost":0.01},"classroomParams":{"A":{"a":1,"b":4},"B":{"a":4,"b":1},"C":{"a":2,"b":8},"D":{"a":8,"b":2}},"conditions":["nonSeqFull","nonSeqPartial","seqNoFeedback","seqFeedback"],"classroomPairings":[["A","B"],["C","D"]],"coinWeights":[0.2,0.5,0.8],"subjectId":"ARUXG5FD1Q76F","assignmentId":"32UTUBMZ7HISRFL1ZSPWU2BJ8IFBVE","hitId":"3QGHA0EA0JM3KKNCY0PQRLYAHJ3BWH","url":"https://gershmanlab.com/experiments/alicia/teaching/experiment/?hitId=3QGHA0EA0JM3KKNCY0PQRLYAHJ3BWH&workerId=ARUXG5FD1Q76F&assignmentId=32UTUBMZ7HISRFL1ZSPWU2BJ8IFBVE&a=ZUU28&tp_a=ZUU28&b=32UTUBMZ7HISRFL1ZSPWU2BJ8IFBVE&tp_b=32UTUBMZ7HISRFL1ZSPWU2BJ8IFBVE&c=365198&tp_c=365198","totalBonus":5.22}]