[{"rt":31916,"response":{"heads":"5","tails":"5"},"type":"response","condition":"seqFeedback","trueTheta":0.8,"classrooms":["C","D"],"studentTrueClassroom":"D","exampleSet":"first","trial_type":"survey-html-form","trial_index":10,"time_elapsed":522996,"internal_node_id":"0.0-6.0-0.0","params":{"nStudents":24,"maxFlips":30,"completionMinutes":45,"basePay":8,"maxBonus":9,"perTrialBonus":0.5,"perTrialBonusThreshold":0.1,"exampleCost":0.01},"classroomParams":{"A":{"a":1,"b":4},"B":{"a":4,"b":1},"C":{"a":2,"b":8},"D":{"a":8,"b":2}},"conditions":["nonSeqFull","nonSeqPartial","seqNoFeedback","seqFeedback"],"classroomPairings":[["A","B"],["C","D"]],"coinWeights":[0.2,0.5,0.8],"subjectId":"ASC9DUCC64M3P","assignmentId":"3K5TEWLKGWX2ENZ752HDGPFW38YVI6","hitId":"3YGE63DIN8J20XK20KS1742RQF60WK","url":"https://gershmanlab.com/experiments/alicia/teaching/experiment/?hitId=3YGE63DIN8J20XK20KS1742RQF60WK&workerId=ASC9DUCC64M3P&assignmentId=3K5TEWLKGWX2ENZ752HDGPFW38YVI6&a=KE5K8&tp_a=KE5K8&b=3K5TEWLKGWX2ENZ752HDGPFW38YVI6&tp_b=3K5TEWLKGWX2ENZ752HDGPFW38YVI6&c=365198&tp_c=365198","heads":5,"tails":5,"studentIndex":0,"studentTrueHypers":{"a":8,"b":2},"studentGuess":0.65,"delta":0.15000000000000002,"totalExamples":10,"bonusSoFar":0},{"rt":15064,"response":{"heads":"10","tails":"10"},"type":"response","condition":"seqFeedback","trueTheta":0.8,"classrooms":["C","D"],"studentTrueClassroom":"D","exampleSet":"second","trial_type":"survey-html-form","trial_index":14,"time_elapsed":552426,"internal_node_id":"0.0-10.0-0.0","params":{"nStudents":24,"maxFlips":30,"completionMinutes":45,"basePay":8,"maxBonus":9,"perTrialBonus":0.5,"perTrialBonusThreshold":0.1,"exampleCost":0.01},"classroomParams":{"A":{"a":1,"b":4},"B":{"a":4,"b":1},"C":{"a":2,"b":8},"D":{"a":8,"b":2}},"conditions":["nonSeqFull","nonSeqPartial","seqNoFeedback","seqFeedback"],"classroomPairings":[["A","B"],["C","D"]],"coinWeights":[0.2,0.5,0.8],"subjectId":"ASC9DUCC64M3P","assignmentId":"3K5TEWLKGWX2ENZ752HDGPFW38YVI6","hitId":"3YGE63DIN8J20XK20KS1742RQF60WK","url":"https://gershmanlab.com/experiments/alicia/teaching/experiment/?hitId=3YGE63DIN8J20XK20KS1742RQF60WK&workerId=ASC9DUCC64M3P&assignmentId=3K5TEWLKGWX2ENZ752HDGPFW38YVI6&a=KE5K8&tp_a=KE5K8&b=3K5TEWLKGWX2ENZ752HDGPFW38YVI6&tp_b=3K5TEWLKGWX2ENZ752HDGPFW38YVI6&c=365198&tp_c=365198","firstResponseHeads":5,"firstResponseTails":5,"secondResponseHeads":10,"secondResponseTails":10,"studentIndex":0,"studentTrueHypers":{"a":8,"b":2},"studentGuess":0.575,"delta":0.2250000000000001,"bonus":0,"bonusSoFar":0,"totalExamples":30},{"rt":10856,"response":{"heads":"15","tails":"15"},"type":"response","condition":"nonSeqPartial","trueTheta":0.8,"classrooms":["C","D"],"studentTrueClassroom":"D","exampleSet":"first","trial_type":"survey-html-form","trial_index":20,"time_elapsed":579865,"internal_node_id":"0.0-16.0-0.0","params":{"nStudents":24,"maxFlips":30,"completionMinutes":45,"basePay":8,"maxBonus":9,"perTrialBonus":0.5,"perTrialBonusThreshold":0.1,"exampleCost":0.01},"classroomParams":{"A":{"a":1,"b":4},"B":{"a":4,"b":1},"C":{"a":2,"b":8},"D":{"a":8,"b":2}},"conditions":["nonSeqFull","nonSeqPartial","seqNoFeedback","seqFeedback"],"classroomPairings":[["A","B"],["C","D"]],"coinWeights":[0.2,0.5,0.8],"subjectId":"ASC9DUCC64M3P","assignmentId":"3K5TEWLKGWX2ENZ752HDGPFW38YVI6","hitId":"3YGE63DIN8J20XK20KS1742RQF60WK","url":"https://gershmanlab.com/experiments/alicia/teaching/experiment/?hitId=3YGE63DIN8J20XK20KS1742RQF60WK&workerId=ASC9DUCC64M3P&assignmentId=3K5TEWLKGWX2ENZ752HDGPFW38YVI6&a=KE5K8&tp_a=KE5K8&b=3K5TEWLKGWX2ENZ752HDGPFW38YVI6&tp_b=3K5TEWLKGWX2ENZ752HDGPFW38YVI6&c=365198&tp_c=365198","heads":15,"tails":15,"studentIndex":1,"studentTrueHypers":{"a":8,"b":2},"studentGuess":0.575,"delta":0.2250000000000001,"totalExamples":30,"bonus":0,"bonusSoFar":0},{"rt":10237,"response":{"heads":"15","tails":"10"},"type":"response","condition":"seqNoFeedback","trueTheta":0.5,"classrooms":["C","D"],"studentTrueClassroom":"C","exampleSet":"first","trial_type":"survey-html-form","trial_index":26,"time_elapsed":609374,"internal_node_id":"0.0-22.0-0.0","params":{"nStudents":24,"maxFlips":30,"completionMinutes":45,"basePay":8,"maxBonus":9,"perTrialBonus":0.5,"perTrialBonusThreshold":0.1,"exampleCost":0.01},"classroomParams":{"A":{"a":1,"b":4},"B":{"a":4,"b":1},"C":{"a":2,"b":8},"D":{"a":8,"b":2}},"conditions":["nonSeqFull","nonSeqPartial","seqNoFeedback","seqFeedback"],"classroomPairings":[["A","B"],["C","D"]],"coinWeights":[0.2,0.5,0.8],"subjectId":"ASC9DUCC64M3P","assignmentId":"3K5TEWLKGWX2ENZ752HDGPFW38YVI6","hitId":"3YGE63DIN8J20XK20KS1742RQF60WK","url":"https://gershmanlab.com/experiments/alicia/teaching/experiment/?hitId=3YGE63DIN8J20XK20KS1742RQF60WK&workerId=ASC9DUCC64M3P&assignmentId=3K5TEWLKGWX2ENZ752HDGPFW38YVI6&a=KE5K8&tp_a=KE5K8&b=3K5TEWLKGWX2ENZ752HDGPFW38YVI6&tp_b=3K5TEWLKGWX2ENZ752HDGPFW38YVI6&c=365198&tp_c=365198","heads":15,"tails":10,"studentIndex":2,"studentTrueHypers":{"a":2,"b":8},"studentGuess":0.4857142857142857,"delta":0.01428571428571429,"totalExamples":25,"bonusSoFar":0},{"rt":7723,"response":{"heads":"10","tails":"15"},"type":"response","condition":"seqNoFeedback","trueTheta":0.5,"classrooms":["C","D"],"studentTrueClassroom":"C","exampleSet":"second","trial_type":"survey-html-form","trial_index":29,"time_elapsed":622357,"internal_node_id":"0.0-25.0-0.0","params":{"nStudents":24,"maxFlips":30,"completionMinutes":45,"basePay":8,"maxBonus":9,"perTrialBonus":0.5,"perTrialBonusThreshold":0.1,"exampleCost":0.01},"classroomParams":{"A":{"a":1,"b":4},"B":{"a":4,"b":1},"C":{"a":2,"b":8},"D":{"a":8,"b":2}},"conditions":["nonSeqFull","nonSeqPartial","seqNoFeedback","seqFeedback"],"classroomPairings":[["A","B"],["C","D"]],"coinWeights":[0.2,0.5,0.8],"subjectId":"ASC9DUCC64M3P","assignmentId":"3K5TEWLKGWX2ENZ752HDGPFW38YVI6","hitId":"3YGE63DIN8J20XK20KS1742RQF60WK","url":"https://gershmanlab.com/experiments/alicia/teaching/experiment/?hitId=3YGE63DIN8J20XK20KS1742RQF60WK&workerId=ASC9DUCC64M3P&assignmentId=3K5TEWLKGWX2ENZ752HDGPFW38YVI6&a=KE5K8&tp_a=KE5K8&b=3K5TEWLKGWX2ENZ752HDGPFW38YVI6&tp_b=3K5TEWLKGWX2ENZ752HDGPFW38YVI6&c=365198&tp_c=365198","firstResponseHeads":15,"firstResponseTails":10,"secondResponseHeads":10,"secondResponseTails":15,"studentIndex":2,"studentTrueHypers":{"a":2,"b":8},"studentGuess":0.45,"delta":0.04999999999999999,"bonus":0,"bonusSoFar":0,"totalExamples":50},{"rt":12510,"response":{"heads":"30","tails":"0"},"type":"response","condition":"nonSeqPartial","trueTheta":0.8,"classrooms":["A","B"],"studentTrueClassroom":"A","exampleSet":"first","trial_type":"survey-html-form","trial_index":35,"time_elapsed":649571,"internal_node_id":"0.0-31.0-0.0","params":{"nStudents":24,"maxFlips":30,"completionMinutes":45,"basePay":8,"maxBonus":9,"perTrialBonus":0.5,"perTrialBonusThreshold":0.1,"exampleCost":0.01},"classroomParams":{"A":{"a":1,"b":4},"B":{"a":4,"b":1},"C":{"a":2,"b":8},"D":{"a":8,"b":2}},"conditions":["nonSeqFull","nonSeqPartial","seqNoFeedback","seqFeedback"],"classroomPairings":[["A","B"],["C","D"]],"coinWeights":[0.2,0.5,0.8],"subjectId":"ASC9DUCC64M3P","assignmentId":"3K5TEWLKGWX2ENZ752HDGPFW38YVI6","hitId":"3YGE63DIN8J20XK20KS1742RQF60WK","url":"https://gershmanlab.com/experiments/alicia/teaching/experiment/?hitId=3YGE63DIN8J20XK20KS1742RQF60WK&workerId=ASC9DUCC64M3P&assignmentId=3K5TEWLKGWX2ENZ752HDGPFW38YVI6&a=KE5K8&tp_a=KE5K8&b=3K5TEWLKGWX2ENZ752HDGPFW38YVI6&tp_b=3K5TEWLKGWX2ENZ752HDGPFW38YVI6&c=365198&tp_c=365198","heads":30,"tails":0,"studentIndex":3,"studentTrueHypers":{"a":1,"b":4},"studentGuess":0.8857142857142857,"delta":0.08571428571428563,"totalExamples":30,"bonus":0.2,"bonusSoFar":0.2},{"rt":13050,"response":{"heads":"25","tails":"5"},"type":"response","condition":"seqNoFeedback","trueTheta":0.5,"classrooms":["A","B"],"studentTrueClassroom":"B","exampleSet":"first","trial_type":"survey-html-form","trial_index":41,"time_elapsed":674489,"internal_node_id":"0.0-37.0-0.0","params":{"nStudents":24,"maxFlips":30,"completionMinutes":45,"basePay":8,"maxBonus":9,"perTrialBonus":0.5,"perTrialBonusThreshold":0.1,"exampleCost":0.01},"classroomParams":{"A":{"a":1,"b":4},"B":{"a":4,"b":1},"C":{"a":2,"b":8},"D":{"a":8,"b":2}},"conditions":["nonSeqFull","nonSeqPartial","seqNoFeedback","seqFeedback"],"classroomPairings":[["A","B"],["C","D"]],"coinWeights":[0.2,0.5,0.8],"subjectId":"ASC9DUCC64M3P","assignmentId":"3K5TEWLKGWX2ENZ752HDGPFW38YVI6","hitId":"3YGE63DIN8J20XK20KS1742RQF60WK","url":"https://gershmanlab.com/experiments/alicia/teaching/experiment/?hitId=3YGE63DIN8J20XK20KS1742RQF60WK&workerId=ASC9DUCC64M3P&assignmentId=3K5TEWLKGWX2ENZ752HDGPFW38YVI6&a=KE5K8&tp_a=KE5K8&b=3K5TEWLKGWX2ENZ752HDGPFW38YVI6&tp_b=3K5TEWLKGWX2ENZ752HDGPFW38YVI6&c=365198&tp_c=365198","heads":25,"tails":5,"studentIndex":4,"studentTrueHypers":{"a":4,"b":1},"studentGuess":0.8285714285714286,"delta":0.3285714285714286,"totalExamples":30,"bonusSoFar":0.2},{"rt":7254,"response":{"heads":"5","tails":"25"},"type":"response","condition":"seqNoFeedback","trueTheta":0.5,"classrooms":["A","B"],"studentTrueClassroom":"B","exampleSet":"second","trial_type":"survey-html-form","trial_index":44,"time_elapsed":689497,"internal_node_id":"0.0-40.0-0.0","params":{"nStudents":24,"maxFlips":30,"completionMinutes":45,"basePay":8,"maxBonus":9,"perTrialBonus":0.5,"perTrialBonusThreshold":0.1,"exampleCost":0.01},"classroomParams":{"A":{"a":1,"b":4},"B":{"a":4,"b":1},"C":{"a":2,"b":8},"D":{"a":8,"b":2}},"conditions":["nonSeqFull","nonSeqPartial","seqNoFeedback","seqFeedback"],"classroomPairings":[["A","B"],["C","D"]],"coinWeights":[0.2,0.5,0.8],"subjectId":"ASC9DUCC64M3P","assignmentId":"3K5TEWLKGWX2ENZ752HDGPFW38YVI6","hitId":"3YGE63DIN8J20XK20KS1742RQF60WK","url":"https://gershmanlab.com/experiments/alicia/teaching/experiment/?hitId=3YGE63DIN8J20XK20KS1742RQF60WK&workerId=ASC9DUCC64M3P&assignmentId=3K5TEWLKGWX2ENZ752HDGPFW38YVI6&a=KE5K8&tp_a=KE5K8&b=3K5TEWLKGWX2ENZ752HDGPFW38YVI6&tp_b=3K5TEWLKGWX2ENZ752HDGPFW38YVI6&c=365198&tp_c=365198","firstResponseHeads":25,"firstResponseTails":5,"secondResponseHeads":5,"secondResponseTails":25,"studentIndex":4,"studentTrueHypers":{"a":4,"b":1},"studentGuess":0.5230769230769231,"delta":0.023076923076923106,"bonus":0,"bonusSoFar":0.2,"totalExamples":60},{"rt":4307,"response":{"heads":"30","tails":"0"},"type":"response","condition":"nonSeqFull","trueTheta":0.8,"classrooms":["C","D"],"studentTrueClassroom":"D","exampleSet":"first","trial_type":"survey-html-form","trial_index":50,"time_elapsed":708060,"internal_node_id":"0.0-46.0-0.0","params":{"nStudents":24,"maxFlips":30,"completionMinutes":45,"basePay":8,"maxBonus":9,"perTrialBonus":0.5,"perTrialBonusThreshold":0.1,"exampleCost":0.01},"classroomParams":{"A":{"a":1,"b":4},"B":{"a":4,"b":1},"C":{"a":2,"b":8},"D":{"a":8,"b":2}},"conditions":["nonSeqFull","nonSeqPartial","seqNoFeedback","seqFeedback"],"classroomPairings":[["A","B"],["C","D"]],"coinWeights":[0.2,0.5,0.8],"subjectId":"ASC9DUCC64M3P","assignmentId":"3K5TEWLKGWX2ENZ752HDGPFW38YVI6","hitId":"3YGE63DIN8J20XK20KS1742RQF60WK","url":"https://gershmanlab.com/experiments/alicia/teaching/experiment/?hitId=3YGE63DIN8J20XK20KS1742RQF60WK&workerId=ASC9DUCC64M3P&assignmentId=3K5TEWLKGWX2ENZ752HDGPFW38YVI6&a=KE5K8&tp_a=KE5K8&b=3K5TEWLKGWX2ENZ752HDGPFW38YVI6&tp_b=3K5TEWLKGWX2ENZ752HDGPFW38YVI6&c=365198&tp_c=365198","heads":30,"tails":0,"studentIndex":5,"studentTrueHypers":{"a":8,"b":2},"studentGuess":0.95,"delta":0.1499999999999999,"totalExamples":30,"bonus":0,"bonusSoFar":0.2},{"rt":6592,"response":{"heads":"5","tails":"25"},"type":"response","condition":"nonSeqFull","trueTheta":0.2,"classrooms":["A","B"],"studentTrueClassroom":"A","exampleSet":"first","trial_type":"survey-html-form","trial_index":56,"time_elapsed":729368,"internal_node_id":"0.0-52.0-0.0","params":{"nStudents":24,"maxFlips":30,"completionMinutes":45,"basePay":8,"maxBonus":9,"perTrialBonus":0.5,"perTrialBonusThreshold":0.1,"exampleCost":0.01},"classroomParams":{"A":{"a":1,"b":4},"B":{"a":4,"b":1},"C":{"a":2,"b":8},"D":{"a":8,"b":2}},"conditions":["nonSeqFull","nonSeqPartial","seqNoFeedback","seqFeedback"],"classroomPairings":[["A","B"],["C","D"]],"coinWeights":[0.2,0.5,0.8],"subjectId":"ASC9DUCC64M3P","assignmentId":"3K5TEWLKGWX2ENZ752HDGPFW38YVI6","hitId":"3YGE63DIN8J20XK20KS1742RQF60WK","url":"https://gershmanlab.com/experiments/alicia/teaching/experiment/?hitId=3YGE63DIN8J20XK20KS1742RQF60WK&workerId=ASC9DUCC64M3P&assignmentId=3K5TEWLKGWX2ENZ752HDGPFW38YVI6&a=KE5K8&tp_a=KE5K8&b=3K5TEWLKGWX2ENZ752HDGPFW38YVI6&tp_b=3K5TEWLKGWX2ENZ752HDGPFW38YVI6&c=365198&tp_c=365198","heads":5,"tails":25,"studentIndex":6,"studentTrueHypers":{"a":1,"b":4},"studentGuess":0.17142857142857143,"delta":0.02857142857142858,"totalExamples":30,"bonus":0.2,"bonusSoFar":0.4},{"rt":6502,"response":{"heads":"15","tails":"15"},"type":"response","condition":"seqFeedback","trueTheta":0.5,"classrooms":["C","D"],"studentTrueClassroom":"D","exampleSet":"first","trial_type":"survey-html-form","trial_index":62,"time_elapsed":749651,"internal_node_id":"0.0-58.0-0.0","params":{"nStudents":24,"maxFlips":30,"completionMinutes":45,"basePay":8,"maxBonus":9,"perTrialBonus":0.5,"perTrialBonusThreshold":0.1,"exampleCost":0.01},"classroomParams":{"A":{"a":1,"b":4},"B":{"a":4,"b":1},"C":{"a":2,"b":8},"D":{"a":8,"b":2}},"conditions":["nonSeqFull","nonSeqPartial","seqNoFeedback","seqFeedback"],"classroomPairings":[["A","B"],["C","D"]],"coinWeights":[0.2,0.5,0.8],"subjectId":"ASC9DUCC64M3P","assignmentId":"3K5TEWLKGWX2ENZ752HDGPFW38YVI6","hitId":"3YGE63DIN8J20XK20KS1742RQF60WK","url":"https://gershmanlab.com/experiments/alicia/teaching/experiment/?hitId=3YGE63DIN8J20XK20KS1742RQF60WK&workerId=ASC9DUCC64M3P&assignmentId=3K5TEWLKGWX2ENZ752HDGPFW38YVI6&a=KE5K8&tp_a=KE5K8&b=3K5TEWLKGWX2ENZ752HDGPFW38YVI6&tp_b=3K5TEWLKGWX2ENZ752HDGPFW38YVI6&c=365198&tp_c=365198","heads":15,"tails":15,"studentIndex":7,"studentTrueHypers":{"a":8,"b":2},"studentGuess":0.575,"delta":0.07499999999999996,"totalExamples":30,"bonusSoFar":0.4},{"rt":6390,"response":{"heads":"15","tails":"15"},"type":"response","condition":"seqFeedback","trueTheta":0.5,"classrooms":["C","D"],"studentTrueClassroom":"D","exampleSet":"second","trial_type":"survey-html-form","trial_index":66,"time_elapsed":765761,"internal_node_id":"0.0-62.0-0.0","params":{"nStudents":24,"maxFlips":30,"completionMinutes":45,"basePay":8,"maxBonus":9,"perTrialBonus":0.5,"perTrialBonusThreshold":0.1,"exampleCost":0.01},"classroomParams":{"A":{"a":1,"b":4},"B":{"a":4,"b":1},"C":{"a":2,"b":8},"D":{"a":8,"b":2}},"conditions":["nonSeqFull","nonSeqPartial","seqNoFeedback","seqFeedback"],"classroomPairings":[["A","B"],["C","D"]],"coinWeights":[0.2,0.5,0.8],"subjectId":"ASC9DUCC64M3P","assignmentId":"3K5TEWLKGWX2ENZ752HDGPFW38YVI6","hitId":"3YGE63DIN8J20XK20KS1742RQF60WK","url":"https://gershmanlab.com/experiments/alicia/teaching/experiment/?hitId=3YGE63DIN8J20XK20KS1742RQF60WK&workerId=ASC9DUCC64M3P&assignmentId=3K5TEWLKGWX2ENZ752HDGPFW38YVI6&a=KE5K8&tp_a=KE5K8&b=3K5TEWLKGWX2ENZ752HDGPFW38YVI6&tp_b=3K5TEWLKGWX2ENZ752HDGPFW38YVI6&c=365198&tp_c=365198","firstResponseHeads":15,"firstResponseTails":15,"secondResponseHeads":15,"secondResponseTails":15,"studentIndex":7,"studentTrueHypers":{"a":8,"b":2},"studentGuess":0.5428571428571428,"delta":0.042857142857142816,"bonus":0,"bonusSoFar":0.4,"totalExamples":60},{"rt":7503,"response":{"heads":"5","tails":"5"},"type":"response","condition":"nonSeqPartial","trueTheta":0.2,"classrooms":["C","D"],"studentTrueClassroom":"C","exampleSet":"first","trial_type":"survey-html-form","trial_index":72,"time_elapsed":789319,"internal_node_id":"0.0-68.0-0.0","params":{"nStudents":24,"maxFlips":30,"completionMinutes":45,"basePay":8,"maxBonus":9,"perTrialBonus":0.5,"perTrialBonusThreshold":0.1,"exampleCost":0.01},"classroomParams":{"A":{"a":1,"b":4},"B":{"a":4,"b":1},"C":{"a":2,"b":8},"D":{"a":8,"b":2}},"conditions":["nonSeqFull","nonSeqPartial","seqNoFeedback","seqFeedback"],"classroomPairings":[["A","B"],["C","D"]],"coinWeights":[0.2,0.5,0.8],"subjectId":"ASC9DUCC64M3P","assignmentId":"3K5TEWLKGWX2ENZ752HDGPFW38YVI6","hitId":"3YGE63DIN8J20XK20KS1742RQF60WK","url":"https://gershmanlab.com/experiments/alicia/teaching/experiment/?hitId=3YGE63DIN8J20XK20KS1742RQF60WK&workerId=ASC9DUCC64M3P&assignmentId=3K5TEWLKGWX2ENZ752HDGPFW38YVI6&a=KE5K8&tp_a=KE5K8&b=3K5TEWLKGWX2ENZ752HDGPFW38YVI6&tp_b=3K5TEWLKGWX2ENZ752HDGPFW38YVI6&c=365198&tp_c=365198","heads":5,"tails":5,"studentIndex":8,"studentTrueHypers":{"a":2,"b":8},"studentGuess":0.35,"delta":0.14999999999999997,"totalExamples":10,"bonus":0,"bonusSoFar":0.4},{"rt":3780,"response":{"heads":"5","tails":"5"},"type":"response","condition":"nonSeqPartial","trueTheta":0.5,"classrooms":["C","D"],"studentTrueClassroom":"D","exampleSet":"first","trial_type":"survey-html-form","trial_index":78,"time_elapsed":805205,"internal_node_id":"0.0-74.0-0.0","params":{"nStudents":24,"maxFlips":30,"completionMinutes":45,"basePay":8,"maxBonus":9,"perTrialBonus":0.5,"perTrialBonusThreshold":0.1,"exampleCost":0.01},"classroomParams":{"A":{"a":1,"b":4},"B":{"a":4,"b":1},"C":{"a":2,"b":8},"D":{"a":8,"b":2}},"conditions":["nonSeqFull","nonSeqPartial","seqNoFeedback","seqFeedback"],"classroomPairings":[["A","B"],["C","D"]],"coinWeights":[0.2,0.5,0.8],"subjectId":"ASC9DUCC64M3P","assignmentId":"3K5TEWLKGWX2ENZ752HDGPFW38YVI6","hitId":"3YGE63DIN8J20XK20KS1742RQF60WK","url":"https://gershmanlab.com/experiments/alicia/teaching/experiment/?hitId=3YGE63DIN8J20XK20KS1742RQF60WK&workerId=ASC9DUCC64M3P&assignmentId=3K5TEWLKGWX2ENZ752HDGPFW38YVI6&a=KE5K8&tp_a=KE5K8&b=3K5TEWLKGWX2ENZ752HDGPFW38YVI6&tp_b=3K5TEWLKGWX2ENZ752HDGPFW38YVI6&c=365198&tp_c=365198","heads":5,"tails":5,"studentIndex":9,"studentTrueHypers":{"a":8,"b":2},"studentGuess":0.65,"delta":0.15000000000000002,"totalExamples":10,"bonus":0,"bonusSoFar":0.4},{"rt":3893,"response":{"heads":"0","tails":"10"},"type":"response","condition":"seqNoFeedback","trueTheta":0.2,"classrooms":["C","D"],"studentTrueClassroom":"D","exampleSet":"first","trial_type":"survey-html-form","trial_index":84,"time_elapsed":820247,"internal_node_id":"0.0-80.0-0.0","params":{"nStudents":24,"maxFlips":30,"completionMinutes":45,"basePay":8,"maxBonus":9,"perTrialBonus":0.5,"perTrialBonusThreshold":0.1,"exampleCost":0.01},"classroomParams":{"A":{"a":1,"b":4},"B":{"a":4,"b":1},"C":{"a":2,"b":8},"D":{"a":8,"b":2}},"conditions":["nonSeqFull","nonSeqPartial","seqNoFeedback","seqFeedback"],"classroomPairings":[["A","B"],["C","D"]],"coinWeights":[0.2,0.5,0.8],"subjectId":"ASC9DUCC64M3P","assignmentId":"3K5TEWLKGWX2ENZ752HDGPFW38YVI6","hitId":"3YGE63DIN8J20XK20KS1742RQF60WK","url":"https://gershmanlab.com/experiments/alicia/teaching/experiment/?hitId=3YGE63DIN8J20XK20KS1742RQF60WK&workerId=ASC9DUCC64M3P&assignmentId=3K5TEWLKGWX2ENZ752HDGPFW38YVI6&a=KE5K8&tp_a=KE5K8&b=3K5TEWLKGWX2ENZ752HDGPFW38YVI6&tp_b=3K5TEWLKGWX2ENZ752HDGPFW38YVI6&c=365198&tp_c=365198","heads":0,"tails":10,"studentIndex":10,"studentTrueHypers":{"a":8,"b":2},"studentGuess":0.4,"delta":0.2,"totalExamples":10,"bonusSoFar":0.4},{"rt":4575,"response":{"heads":"10","tails":"0"},"type":"response","condition":"seqNoFeedback","trueTheta":0.2,"classrooms":["C","D"],"studentTrueClassroom":"D","exampleSet":"second","trial_type":"survey-html-form","trial_index":87,"time_elapsed":832576,"internal_node_id":"0.0-83.0-0.0","params":{"nStudents":24,"maxFlips":30,"completionMinutes":45,"basePay":8,"maxBonus":9,"perTrialBonus":0.5,"perTrialBonusThreshold":0.1,"exampleCost":0.01},"classroomParams":{"A":{"a":1,"b":4},"B":{"a":4,"b":1},"C":{"a":2,"b":8},"D":{"a":8,"b":2}},"conditions":["nonSeqFull","nonSeqPartial","seqNoFeedback","seqFeedback"],"classroomPairings":[["A","B"],["C","D"]],"coinWeights":[0.2,0.5,0.8],"subjectId":"ASC9DUCC64M3P","assignmentId":"3K5TEWLKGWX2ENZ752HDGPFW38YVI6","hitId":"3YGE63DIN8J20XK20KS1742RQF60WK","url":"https://gershmanlab.com/experiments/alicia/teaching/experiment/?hitId=3YGE63DIN8J20XK20KS1742RQF60WK&workerId=ASC9DUCC64M3P&assignmentId=3K5TEWLKGWX2ENZ752HDGPFW38YVI6&a=KE5K8&tp_a=KE5K8&b=3K5TEWLKGWX2ENZ752HDGPFW38YVI6&tp_b=3K5TEWLKGWX2ENZ752HDGPFW38YVI6&c=365198&tp_c=365198","firstResponseHeads":0,"firstResponseTails":10,"secondResponseHeads":10,"secondResponseTails":0,"studentIndex":10,"studentTrueHypers":{"a":8,"b":2},"studentGuess":0.6,"delta":0.39999999999999997,"bonus":0,"bonusSoFar":0.4,"totalExamples":20},{"rt":6603,"response":{"heads":"3","tails":"3"},"type":"response","condition":"nonSeqFull","trueTheta":0.5,"classrooms":["A","B"],"studentTrueClassroom":"A","exampleSet":"first","trial_type":"survey-html-form","trial_index":93,"time_elapsed":853085,"internal_node_id":"0.0-89.0-0.0","params":{"nStudents":24,"maxFlips":30,"completionMinutes":45,"basePay":8,"maxBonus":9,"perTrialBonus":0.5,"perTrialBonusThreshold":0.1,"exampleCost":0.01},"classroomParams":{"A":{"a":1,"b":4},"B":{"a":4,"b":1},"C":{"a":2,"b":8},"D":{"a":8,"b":2}},"conditions":["nonSeqFull","nonSeqPartial","seqNoFeedback","seqFeedback"],"classroomPairings":[["A","B"],["C","D"]],"coinWeights":[0.2,0.5,0.8],"subjectId":"ASC9DUCC64M3P","assignmentId":"3K5TEWLKGWX2ENZ752HDGPFW38YVI6","hitId":"3YGE63DIN8J20XK20KS1742RQF60WK","url":"https://gershmanlab.com/experiments/alicia/teaching/experiment/?hitId=3YGE63DIN8J20XK20KS1742RQF60WK&workerId=ASC9DUCC64M3P&assignmentId=3K5TEWLKGWX2ENZ752HDGPFW38YVI6&a=KE5K8&tp_a=KE5K8&b=3K5TEWLKGWX2ENZ752HDGPFW38YVI6&tp_b=3K5TEWLKGWX2ENZ752HDGPFW38YVI6&c=365198&tp_c=365198","heads":3,"tails":3,"studentIndex":11,"studentTrueHypers":{"a":1,"b":4},"studentGuess":0.36363636363636365,"delta":0.13636363636363635,"totalExamples":6,"bonus":0,"bonusSoFar":0.4},{"rt":9214,"response":{"heads":"3","tails":"10"},"type":"response","condition":"seqFeedback","trueTheta":0.2,"classrooms":["C","D"],"studentTrueClassroom":"C","exampleSet":"first","trial_type":"survey-html-form","trial_index":99,"time_elapsed":873538,"internal_node_id":"0.0-95.0-0.0","params":{"nStudents":24,"maxFlips":30,"completionMinutes":45,"basePay":8,"maxBonus":9,"perTrialBonus":0.5,"perTrialBonusThreshold":0.1,"exampleCost":0.01},"classroomParams":{"A":{"a":1,"b":4},"B":{"a":4,"b":1},"C":{"a":2,"b":8},"D":{"a":8,"b":2}},"conditions":["nonSeqFull","nonSeqPartial","seqNoFeedback","seqFeedback"],"classroomPairings":[["A","B"],["C","D"]],"coinWeights":[0.2,0.5,0.8],"subjectId":"ASC9DUCC64M3P","assignmentId":"3K5TEWLKGWX2ENZ752HDGPFW38YVI6","hitId":"3YGE63DIN8J20XK20KS1742RQF60WK","url":"https://gershmanlab.com/experiments/alicia/teaching/experiment/?hitId=3YGE63DIN8J20XK20KS1742RQF60WK&workerId=ASC9DUCC64M3P&assignmentId=3K5TEWLKGWX2ENZ752HDGPFW38YVI6&a=KE5K8&tp_a=KE5K8&b=3K5TEWLKGWX2ENZ752HDGPFW38YVI6&tp_b=3K5TEWLKGWX2ENZ752HDGPFW38YVI6&c=365198&tp_c=365198","heads":3,"tails":10,"studentIndex":12,"studentTrueHypers":{"a":2,"b":8},"studentGuess":0.21739130434782608,"delta":0.01739130434782607,"totalExamples":13,"bonusSoFar":0.4},{"rt":8292,"response":{"heads":"3","tails":"10"},"type":"response","condition":"seqFeedback","trueTheta":0.2,"classrooms":["C","D"],"studentTrueClassroom":"C","exampleSet":"second","trial_type":"survey-html-form","trial_index":103,"time_elapsed":888826,"internal_node_id":"0.0-99.0-0.0","params":{"nStudents":24,"maxFlips":30,"completionMinutes":45,"basePay":8,"maxBonus":9,"perTrialBonus":0.5,"perTrialBonusThreshold":0.1,"exampleCost":0.01},"classroomParams":{"A":{"a":1,"b":4},"B":{"a":4,"b":1},"C":{"a":2,"b":8},"D":{"a":8,"b":2}},"conditions":["nonSeqFull","nonSeqPartial","seqNoFeedback","seqFeedback"],"classroomPairings":[["A","B"],["C","D"]],"coinWeights":[0.2,0.5,0.8],"subjectId":"ASC9DUCC64M3P","assignmentId":"3K5TEWLKGWX2ENZ752HDGPFW38YVI6","hitId":"3YGE63DIN8J20XK20KS1742RQF60WK","url":"https://gershmanlab.com/experiments/alicia/teaching/experiment/?hitId=3YGE63DIN8J20XK20KS1742RQF60WK&workerId=ASC9DUCC64M3P&assignmentId=3K5TEWLKGWX2ENZ752HDGPFW38YVI6&a=KE5K8&tp_a=KE5K8&b=3K5TEWLKGWX2ENZ752HDGPFW38YVI6&tp_b=3K5TEWLKGWX2ENZ752HDGPFW38YVI6&c=365198&tp_c=365198","firstResponseHeads":3,"firstResponseTails":10,"secondResponseHeads":3,"secondResponseTails":10,"studentIndex":12,"studentTrueHypers":{"a":2,"b":8},"studentGuess":0.2222222222222222,"delta":0.0222222222222222,"bonus":0.24,"bonusSoFar":0.64,"totalExamples":26},{"rt":6727,"response":{"heads":"3","tails":"10"},"type":"response","condition":"seqFeedback","trueTheta":0.2,"classrooms":["A","B"],"studentTrueClassroom":"B","exampleSet":"first","trial_type":"survey-html-form","trial_index":109,"time_elapsed":910213,"internal_node_id":"0.0-105.0-0.0","params":{"nStudents":24,"maxFlips":30,"completionMinutes":45,"basePay":8,"maxBonus":9,"perTrialBonus":0.5,"perTrialBonusThreshold":0.1,"exampleCost":0.01},"classroomParams":{"A":{"a":1,"b":4},"B":{"a":4,"b":1},"C":{"a":2,"b":8},"D":{"a":8,"b":2}},"conditions":["nonSeqFull","nonSeqPartial","seqNoFeedback","seqFeedback"],"classroomPairings":[["A","B"],["C","D"]],"coinWeights":[0.2,0.5,0.8],"subjectId":"ASC9DUCC64M3P","assignmentId":"3K5TEWLKGWX2ENZ752HDGPFW38YVI6","hitId":"3YGE63DIN8J20XK20KS1742RQF60WK","url":"https://gershmanlab.com/experiments/alicia/teaching/experiment/?hitId=3YGE63DIN8J20XK20KS1742RQF60WK&workerId=ASC9DUCC64M3P&assignmentId=3K5TEWLKGWX2ENZ752HDGPFW38YVI6&a=KE5K8&tp_a=KE5K8&b=3K5TEWLKGWX2ENZ752HDGPFW38YVI6&tp_b=3K5TEWLKGWX2ENZ752HDGPFW38YVI6&c=365198&tp_c=365198","heads":3,"tails":10,"studentIndex":13,"studentTrueHypers":{"a":4,"b":1},"studentGuess":0.3888888888888889,"delta":0.18888888888888888,"totalExamples":13,"bonusSoFar":0.64},{"rt":6638,"response":{"heads":"3","tails":"12"},"type":"response","condition":"seqFeedback","trueTheta":0.2,"classrooms":["A","B"],"studentTrueClassroom":"B","exampleSet":"second","trial_type":"survey-html-form","trial_index":113,"time_elapsed":924827,"internal_node_id":"0.0-109.0-0.0","params":{"nStudents":24,"maxFlips":30,"completionMinutes":45,"basePay":8,"maxBonus":9,"perTrialBonus":0.5,"perTrialBonusThreshold":0.1,"exampleCost":0.01},"classroomParams":{"A":{"a":1,"b":4},"B":{"a":4,"b":1},"C":{"a":2,"b":8},"D":{"a":8,"b":2}},"conditions":["nonSeqFull","nonSeqPartial","seqNoFeedback","seqFeedback"],"classroomPairings":[["A","B"],["C","D"]],"coinWeights":[0.2,0.5,0.8],"subjectId":"ASC9DUCC64M3P","assignmentId":"3K5TEWLKGWX2ENZ752HDGPFW38YVI6","hitId":"3YGE63DIN8J20XK20KS1742RQF60WK","url":"https://gershmanlab.com/experiments/alicia/teaching/experiment/?hitId=3YGE63DIN8J20XK20KS1742RQF60WK&workerId=ASC9DUCC64M3P&assignmentId=3K5TEWLKGWX2ENZ752HDGPFW38YVI6&a=KE5K8&tp_a=KE5K8&b=3K5TEWLKGWX2ENZ752HDGPFW38YVI6&tp_b=3K5TEWLKGWX2ENZ752HDGPFW38YVI6&c=365198&tp_c=365198","firstResponseHeads":3,"firstResponseTails":10,"secondResponseHeads":3,"secondResponseTails":12,"studentIndex":13,"studentTrueHypers":{"a":4,"b":1},"studentGuess":0.30303030303030304,"delta":0.10303030303030303,"bonus":0,"bonusSoFar":0.64,"totalExamples":28},{"rt":5308,"response":{"heads":"5","tails":"1"},"type":"response","condition":"seqFeedback","trueTheta":0.8,"classrooms":["A","B"],"studentTrueClassroom":"A","exampleSet":"first","trial_type":"survey-html-form","trial_index":119,"time_elapsed":943434,"internal_node_id":"0.0-115.0-0.0","params":{"nStudents":24,"maxFlips":30,"completionMinutes":45,"basePay":8,"maxBonus":9,"perTrialBonus":0.5,"perTrialBonusThreshold":0.1,"exampleCost":0.01},"classroomParams":{"A":{"a":1,"b":4},"B":{"a":4,"b":1},"C":{"a":2,"b":8},"D":{"a":8,"b":2}},"conditions":["nonSeqFull","nonSeqPartial","seqNoFeedback","seqFeedback"],"classroomPairings":[["A","B"],["C","D"]],"coinWeights":[0.2,0.5,0.8],"subjectId":"ASC9DUCC64M3P","assignmentId":"3K5TEWLKGWX2ENZ752HDGPFW38YVI6","hitId":"3YGE63DIN8J20XK20KS1742RQF60WK","url":"https://gershmanlab.com/experiments/alicia/teaching/experiment/?hitId=3YGE63DIN8J20XK20KS1742RQF60WK&workerId=ASC9DUCC64M3P&assignmentId=3K5TEWLKGWX2ENZ752HDGPFW38YVI6&a=KE5K8&tp_a=KE5K8&b=3K5TEWLKGWX2ENZ752HDGPFW38YVI6&tp_b=3K5TEWLKGWX2ENZ752HDGPFW38YVI6&c=365198&tp_c=365198","heads":5,"tails":1,"studentIndex":14,"studentTrueHypers":{"a":1,"b":4},"studentGuess":0.5454545454545454,"delta":0.25454545454545463,"totalExamples":6,"bonusSoFar":0.64},{"rt":7785,"response":{"heads":"5","tails":"1"},"type":"response","condition":"seqFeedback","trueTheta":0.8,"classrooms":["A","B"],"studentTrueClassroom":"A","exampleSet":"second","trial_type":"survey-html-form","trial_index":123,"time_elapsed":961097,"internal_node_id":"0.0-119.0-0.0","params":{"nStudents":24,"maxFlips":30,"completionMinutes":45,"basePay":8,"maxBonus":9,"perTrialBonus":0.5,"perTrialBonusThreshold":0.1,"exampleCost":0.01},"classroomParams":{"A":{"a":1,"b":4},"B":{"a":4,"b":1},"C":{"a":2,"b":8},"D":{"a":8,"b":2}},"conditions":["nonSeqFull","nonSeqPartial","seqNoFeedback","seqFeedback"],"classroomPairings":[["A","B"],["C","D"]],"coinWeights":[0.2,0.5,0.8],"subjectId":"ASC9DUCC64M3P","assignmentId":"3K5TEWLKGWX2ENZ752HDGPFW38YVI6","hitId":"3YGE63DIN8J20XK20KS1742RQF60WK","url":"https://gershmanlab.com/experiments/alicia/teaching/experiment/?hitId=3YGE63DIN8J20XK20KS1742RQF60WK&workerId=ASC9DUCC64M3P&assignmentId=3K5TEWLKGWX2ENZ752HDGPFW38YVI6&a=KE5K8&tp_a=KE5K8&b=3K5TEWLKGWX2ENZ752HDGPFW38YVI6&tp_b=3K5TEWLKGWX2ENZ752HDGPFW38YVI6&c=365198&tp_c=365198","firstResponseHeads":5,"firstResponseTails":1,"secondResponseHeads":5,"secondResponseTails":1,"studentIndex":14,"studentTrueHypers":{"a":1,"b":4},"studentGuess":0.6470588235294118,"delta":0.15294117647058825,"bonus":0,"bonusSoFar":0.64,"totalExamples":12},{"rt":4567,"response":{"heads":"1","tails":"5"},"type":"response","condition":"nonSeqFull","trueTheta":0.2,"classrooms":["C","D"],"studentTrueClassroom":"D","exampleSet":"first","trial_type":"survey-html-form","trial_index":129,"time_elapsed":978107,"internal_node_id":"0.0-125.0-0.0","params":{"nStudents":24,"maxFlips":30,"completionMinutes":45,"basePay":8,"maxBonus":9,"perTrialBonus":0.5,"perTrialBonusThreshold":0.1,"exampleCost":0.01},"classroomParams":{"A":{"a":1,"b":4},"B":{"a":4,"b":1},"C":{"a":2,"b":8},"D":{"a":8,"b":2}},"conditions":["nonSeqFull","nonSeqPartial","seqNoFeedback","seqFeedback"],"classroomPairings":[["A","B"],["C","D"]],"coinWeights":[0.2,0.5,0.8],"subjectId":"ASC9DUCC64M3P","assignmentId":"3K5TEWLKGWX2ENZ752HDGPFW38YVI6","hitId":"3YGE63DIN8J20XK20KS1742RQF60WK","url":"https://gershmanlab.com/experiments/alicia/teaching/experiment/?hitId=3YGE63DIN8J20XK20KS1742RQF60WK&workerId=ASC9DUCC64M3P&assignmentId=3K5TEWLKGWX2ENZ752HDGPFW38YVI6&a=KE5K8&tp_a=KE5K8&b=3K5TEWLKGWX2ENZ752HDGPFW38YVI6&tp_b=3K5TEWLKGWX2ENZ752HDGPFW38YVI6&c=365198&tp_c=365198","heads":1,"tails":5,"studentIndex":15,"studentTrueHypers":{"a":8,"b":2},"studentGuess":0.5625,"delta":0.3625,"totalExamples":6,"bonus":0,"bonusSoFar":0.64},{"rt":10598,"response":{"heads":"5","tails":"10"},"type":"response","condition":"seqNoFeedback","trueTheta":0.2,"classrooms":["A","B"],"studentTrueClassroom":"A","exampleSet":"first","trial_type":"survey-html-form","trial_index":135,"time_elapsed":1001744,"internal_node_id":"0.0-131.0-0.0","params":{"nStudents":24,"maxFlips":30,"completionMinutes":45,"basePay":8,"maxBonus":9,"perTrialBonus":0.5,"perTrialBonusThreshold":0.1,"exampleCost":0.01},"classroomParams":{"A":{"a":1,"b":4},"B":{"a":4,"b":1},"C":{"a":2,"b":8},"D":{"a":8,"b":2}},"conditions":["nonSeqFull","nonSeqPartial","seqNoFeedback","seqFeedback"],"classroomPairings":[["A","B"],["C","D"]],"coinWeights":[0.2,0.5,0.8],"subjectId":"ASC9DUCC64M3P","assignmentId":"3K5TEWLKGWX2ENZ752HDGPFW38YVI6","hitId":"3YGE63DIN8J20XK20KS1742RQF60WK","url":"https://gershmanlab.com/experiments/alicia/teaching/experiment/?hitId=3YGE63DIN8J20XK20KS1742RQF60WK&workerId=ASC9DUCC64M3P&assignmentId=3K5TEWLKGWX2ENZ752HDGPFW38YVI6&a=KE5K8&tp_a=KE5K8&b=3K5TEWLKGWX2ENZ752HDGPFW38YVI6&tp_b=3K5TEWLKGWX2ENZ752HDGPFW38YVI6&c=365198&tp_c=365198","heads":5,"tails":10,"studentIndex":16,"studentTrueHypers":{"a":1,"b":4},"studentGuess":0.3,"delta":0.09999999999999998,"totalExamples":15,"bonusSoFar":0.64},{"rt":6010,"response":{"heads":"10","tails":"5"},"type":"response","condition":"seqNoFeedback","trueTheta":0.2,"classrooms":["A","B"],"studentTrueClassroom":"A","exampleSet":"second","trial_type":"survey-html-form","trial_index":138,"time_elapsed":1014513,"internal_node_id":"0.0-134.0-0.0","params":{"nStudents":24,"maxFlips":30,"completionMinutes":45,"basePay":8,"maxBonus":9,"perTrialBonus":0.5,"perTrialBonusThreshold":0.1,"exampleCost":0.01},"classroomParams":{"A":{"a":1,"b":4},"B":{"a":4,"b":1},"C":{"a":2,"b":8},"D":{"a":8,"b":2}},"conditions":["nonSeqFull","nonSeqPartial","seqNoFeedback","seqFeedback"],"classroomPairings":[["A","B"],["C","D"]],"coinWeights":[0.2,0.5,0.8],"subjectId":"ASC9DUCC64M3P","assignmentId":"3K5TEWLKGWX2ENZ752HDGPFW38YVI6","hitId":"3YGE63DIN8J20XK20KS1742RQF60WK","url":"https://gershmanlab.com/experiments/alicia/teaching/experiment/?hitId=3YGE63DIN8J20XK20KS1742RQF60WK&workerId=ASC9DUCC64M3P&assignmentId=3K5TEWLKGWX2ENZ752HDGPFW38YVI6&a=KE5K8&tp_a=KE5K8&b=3K5TEWLKGWX2ENZ752HDGPFW38YVI6&tp_b=3K5TEWLKGWX2ENZ752HDGPFW38YVI6&c=365198&tp_c=365198","firstResponseHeads":5,"firstResponseTails":10,"secondResponseHeads":10,"secondResponseTails":5,"studentIndex":16,"studentTrueHypers":{"a":1,"b":4},"studentGuess":0.45714285714285713,"delta":0.2571428571428571,"bonus":0,"bonusSoFar":0.64,"totalExamples":30},{"rt":8325,"response":{"heads":"1","tails":"0"},"type":"response","condition":"nonSeqFull","trueTheta":0.8,"classrooms":["A","B"],"studentTrueClassroom":"A","exampleSet":"first","trial_type":"survey-html-form","trial_index":144,"time_elapsed":1038790,"internal_node_id":"0.0-140.0-0.0","params":{"nStudents":24,"maxFlips":30,"completionMinutes":45,"basePay":8,"maxBonus":9,"perTrialBonus":0.5,"perTrialBonusThreshold":0.1,"exampleCost":0.01},"classroomParams":{"A":{"a":1,"b":4},"B":{"a":4,"b":1},"C":{"a":2,"b":8},"D":{"a":8,"b":2}},"conditions":["nonSeqFull","nonSeqPartial","seqNoFeedback","seqFeedback"],"classroomPairings":[["A","B"],["C","D"]],"coinWeights":[0.2,0.5,0.8],"subjectId":"ASC9DUCC64M3P","assignmentId":"3K5TEWLKGWX2ENZ752HDGPFW38YVI6","hitId":"3YGE63DIN8J20XK20KS1742RQF60WK","url":"https://gershmanlab.com/experiments/alicia/teaching/experiment/?hitId=3YGE63DIN8J20XK20KS1742RQF60WK&workerId=ASC9DUCC64M3P&assignmentId=3K5TEWLKGWX2ENZ752HDGPFW38YVI6&a=KE5K8&tp_a=KE5K8&b=3K5TEWLKGWX2ENZ752HDGPFW38YVI6&tp_b=3K5TEWLKGWX2ENZ752HDGPFW38YVI6&c=365198&tp_c=365198","heads":1,"tails":0,"studentIndex":17,"studentTrueHypers":{"a":1,"b":4},"studentGuess":0.3333333333333333,"delta":0.46666666666666673,"totalExamples":1,"bonus":0,"bonusSoFar":0.64},{"rt":8223,"response":{"heads":"10","tails":"10"},"type":"response","condition":"nonSeqFull","trueTheta":0.5,"classrooms":["C","D"],"studentTrueClassroom":"D","exampleSet":"first","trial_type":"survey-html-form","trial_index":150,"time_elapsed":1060210,"internal_node_id":"0.0-146.0-0.0","params":{"nStudents":24,"maxFlips":30,"completionMinutes":45,"basePay":8,"maxBonus":9,"perTrialBonus":0.5,"perTrialBonusThreshold":0.1,"exampleCost":0.01},"classroomParams":{"A":{"a":1,"b":4},"B":{"a":4,"b":1},"C":{"a":2,"b":8},"D":{"a":8,"b":2}},"conditions":["nonSeqFull","nonSeqPartial","seqNoFeedback","seqFeedback"],"classroomPairings":[["A","B"],["C","D"]],"coinWeights":[0.2,0.5,0.8],"subjectId":"ASC9DUCC64M3P","assignmentId":"3K5TEWLKGWX2ENZ752HDGPFW38YVI6","hitId":"3YGE63DIN8J20XK20KS1742RQF60WK","url":"https://gershmanlab.com/experiments/alicia/teaching/experiment/?hitId=3YGE63DIN8J20XK20KS1742RQF60WK&workerId=ASC9DUCC64M3P&assignmentId=3K5TEWLKGWX2ENZ752HDGPFW38YVI6&a=KE5K8&tp_a=KE5K8&b=3K5TEWLKGWX2ENZ752HDGPFW38YVI6&tp_b=3K5TEWLKGWX2ENZ752HDGPFW38YVI6&c=365198&tp_c=365198","heads":10,"tails":10,"studentIndex":18,"studentTrueHypers":{"a":8,"b":2},"studentGuess":0.6,"delta":0.09999999999999998,"totalExamples":20,"bonus":0.3,"bonusSoFar":0.94},{"rt":5175,"response":{"heads":"15","tails":"5"},"type":"response","condition":"seqNoFeedback","trueTheta":0.8,"classrooms":["A","B"],"studentTrueClassroom":"B","exampleSet":"first","trial_type":"survey-html-form","trial_index":156,"time_elapsed":1078593,"internal_node_id":"0.0-152.0-0.0","params":{"nStudents":24,"maxFlips":30,"completionMinutes":45,"basePay":8,"maxBonus":9,"perTrialBonus":0.5,"perTrialBonusThreshold":0.1,"exampleCost":0.01},"classroomParams":{"A":{"a":1,"b":4},"B":{"a":4,"b":1},"C":{"a":2,"b":8},"D":{"a":8,"b":2}},"conditions":["nonSeqFull","nonSeqPartial","seqNoFeedback","seqFeedback"],"classroomPairings":[["A","B"],["C","D"]],"coinWeights":[0.2,0.5,0.8],"subjectId":"ASC9DUCC64M3P","assignmentId":"3K5TEWLKGWX2ENZ752HDGPFW38YVI6","hitId":"3YGE63DIN8J20XK20KS1742RQF60WK","url":"https://gershmanlab.com/experiments/alicia/teaching/experiment/?hitId=3YGE63DIN8J20XK20KS1742RQF60WK&workerId=ASC9DUCC64M3P&assignmentId=3K5TEWLKGWX2ENZ752HDGPFW38YVI6&a=KE5K8&tp_a=KE5K8&b=3K5TEWLKGWX2ENZ752HDGPFW38YVI6&tp_b=3K5TEWLKGWX2ENZ752HDGPFW38YVI6&c=365198&tp_c=365198","heads":15,"tails":5,"studentIndex":19,"studentTrueHypers":{"a":4,"b":1},"studentGuess":0.76,"delta":0.040000000000000036,"totalExamples":20,"bonusSoFar":0.94},{"rt":6069,"response":{"heads":"5","tails":"15"},"type":"response","condition":"seqNoFeedback","trueTheta":0.8,"classrooms":["A","B"],"studentTrueClassroom":"B","exampleSet":"second","trial_type":"survey-html-form","trial_index":159,"time_elapsed":1091418,"internal_node_id":"0.0-155.0-0.0","params":{"nStudents":24,"maxFlips":30,"completionMinutes":45,"basePay":8,"maxBonus":9,"perTrialBonus":0.5,"perTrialBonusThreshold":0.1,"exampleCost":0.01},"classroomParams":{"A":{"a":1,"b":4},"B":{"a":4,"b":1},"C":{"a":2,"b":8},"D":{"a":8,"b":2}},"conditions":["nonSeqFull","nonSeqPartial","seqNoFeedback","seqFeedback"],"classroomPairings":[["A","B"],["C","D"]],"coinWeights":[0.2,0.5,0.8],"subjectId":"ASC9DUCC64M3P","assignmentId":"3K5TEWLKGWX2ENZ752HDGPFW38YVI6","hitId":"3YGE63DIN8J20XK20KS1742RQF60WK","url":"https://gershmanlab.com/experiments/alicia/teaching/experiment/?hitId=3YGE63DIN8J20XK20KS1742RQF60WK&workerId=ASC9DUCC64M3P&assignmentId=3K5TEWLKGWX2ENZ752HDGPFW38YVI6&a=KE5K8&tp_a=KE5K8&b=3K5TEWLKGWX2ENZ752HDGPFW38YVI6&tp_b=3K5TEWLKGWX2ENZ752HDGPFW38YVI6&c=365198&tp_c=365198","firstResponseHeads":15,"firstResponseTails":5,"secondResponseHeads":5,"secondResponseTails":15,"studentIndex":19,"studentTrueHypers":{"a":4,"b":1},"studentGuess":0.5333333333333333,"delta":0.2666666666666667,"bonus":0,"bonusSoFar":0.94,"totalExamples":40},{"rt":4623,"response":{"heads":"20","tails":"20"},"type":"response","condition":"nonSeqPartial","trueTheta":0.5,"classrooms":["A","B"],"studentTrueClassroom":"B","exampleSet":"first","trial_type":"survey-html-form","trial_index":165,"time_elapsed":1111736,"internal_node_id":"0.0-161.0-0.0","params":{"nStudents":24,"maxFlips":30,"completionMinutes":45,"basePay":8,"maxBonus":9,"perTrialBonus":0.5,"perTrialBonusThreshold":0.1,"exampleCost":0.01},"classroomParams":{"A":{"a":1,"b":4},"B":{"a":4,"b":1},"C":{"a":2,"b":8},"D":{"a":8,"b":2}},"conditions":["nonSeqFull","nonSeqPartial","seqNoFeedback","seqFeedback"],"classroomPairings":[["A","B"],["C","D"]],"coinWeights":[0.2,0.5,0.8],"subjectId":"ASC9DUCC64M3P","assignmentId":"3K5TEWLKGWX2ENZ752HDGPFW38YVI6","hitId":"3YGE63DIN8J20XK20KS1742RQF60WK","url":"https://gershmanlab.com/experiments/alicia/teaching/experiment/?hitId=3YGE63DIN8J20XK20KS1742RQF60WK&workerId=ASC9DUCC64M3P&assignmentId=3K5TEWLKGWX2ENZ752HDGPFW38YVI6&a=KE5K8&tp_a=KE5K8&b=3K5TEWLKGWX2ENZ752HDGPFW38YVI6&tp_b=3K5TEWLKGWX2ENZ752HDGPFW38YVI6&c=365198&tp_c=365198","heads":20,"tails":20,"studentIndex":20,"studentTrueHypers":{"a":4,"b":1},"studentGuess":0.5333333333333333,"delta":0.033333333333333326,"totalExamples":40,"bonus":0.1,"bonusSoFar":1.04},{"rt":11655,"response":{"heads":"20","tails":"20"},"type":"response","condition":"nonSeqPartial","trueTheta":0.5,"classrooms":["A","B"],"studentTrueClassroom":"B","exampleSet":"first","trial_type":"survey-html-form","trial_index":166,"time_elapsed":1123392,"internal_node_id":"0.0-161.1-0.1","params":{"nStudents":24,"maxFlips":30,"completionMinutes":45,"basePay":8,"maxBonus":9,"perTrialBonus":0.5,"perTrialBonusThreshold":0.1,"exampleCost":0.01},"classroomParams":{"A":{"a":1,"b":4},"B":{"a":4,"b":1},"C":{"a":2,"b":8},"D":{"a":8,"b":2}},"conditions":["nonSeqFull","nonSeqPartial","seqNoFeedback","seqFeedback"],"classroomPairings":[["A","B"],["C","D"]],"coinWeights":[0.2,0.5,0.8],"subjectId":"ASC9DUCC64M3P","assignmentId":"3K5TEWLKGWX2ENZ752HDGPFW38YVI6","hitId":"3YGE63DIN8J20XK20KS1742RQF60WK","url":"https://gershmanlab.com/experiments/alicia/teaching/experiment/?hitId=3YGE63DIN8J20XK20KS1742RQF60WK&workerId=ASC9DUCC64M3P&assignmentId=3K5TEWLKGWX2ENZ752HDGPFW38YVI6&a=KE5K8&tp_a=KE5K8&b=3K5TEWLKGWX2ENZ752HDGPFW38YVI6&tp_b=3K5TEWLKGWX2ENZ752HDGPFW38YVI6&c=365198&tp_c=365198","heads":20,"tails":20,"studentIndex":20,"studentTrueHypers":{"a":4,"b":1},"studentGuess":0.5333333333333333,"delta":0.033333333333333326,"totalExamples":40,"bonus":0.1,"bonusSoFar":1.14},{"rt":1359,"response":{"heads":"0","tails":"0"},"type":"response","condition":"nonSeqPartial","trueTheta":0.5,"classrooms":["A","B"],"studentTrueClassroom":"B","exampleSet":"first","trial_type":"survey-html-form","trial_index":167,"time_elapsed":1124752,"internal_node_id":"0.0-161.2-0.2","params":{"nStudents":24,"maxFlips":30,"completionMinutes":45,"basePay":8,"maxBonus":9,"perTrialBonus":0.5,"perTrialBonusThreshold":0.1,"exampleCost":0.01},"classroomParams":{"A":{"a":1,"b":4},"B":{"a":4,"b":1},"C":{"a":2,"b":8},"D":{"a":8,"b":2}},"conditions":["nonSeqFull","nonSeqPartial","seqNoFeedback","seqFeedback"],"classroomPairings":[["A","B"],["C","D"]],"coinWeights":[0.2,0.5,0.8],"subjectId":"ASC9DUCC64M3P","assignmentId":"3K5TEWLKGWX2ENZ752HDGPFW38YVI6","hitId":"3YGE63DIN8J20XK20KS1742RQF60WK","url":"https://gershmanlab.com/experiments/alicia/teaching/experiment/?hitId=3YGE63DIN8J20XK20KS1742RQF60WK&workerId=ASC9DUCC64M3P&assignmentId=3K5TEWLKGWX2ENZ752HDGPFW38YVI6&a=KE5K8&tp_a=KE5K8&b=3K5TEWLKGWX2ENZ752HDGPFW38YVI6&tp_b=3K5TEWLKGWX2ENZ752HDGPFW38YVI6&c=365198&tp_c=365198","heads":0,"tails":0,"studentIndex":20,"studentTrueHypers":{"a":4,"b":1},"studentGuess":0.8,"delta":0.30000000000000004,"totalExamples":0,"bonus":0,"bonusSoFar":1.14},{"rt":4792,"response":{"heads":"15","tails":"15"},"type":"response","condition":"nonSeqPartial","trueTheta":0.5,"classrooms":["A","B"],"studentTrueClassroom":"B","exampleSet":"first","trial_type":"survey-html-form","trial_index":168,"time_elapsed":1129545,"internal_node_id":"0.0-161.3-0.3","params":{"nStudents":24,"maxFlips":30,"completionMinutes":45,"basePay":8,"maxBonus":9,"perTrialBonus":0.5,"perTrialBonusThreshold":0.1,"exampleCost":0.01},"classroomParams":{"A":{"a":1,"b":4},"B":{"a":4,"b":1},"C":{"a":2,"b":8},"D":{"a":8,"b":2}},"conditions":["nonSeqFull","nonSeqPartial","seqNoFeedback","seqFeedback"],"classroomPairings":[["A","B"],["C","D"]],"coinWeights":[0.2,0.5,0.8],"subjectId":"ASC9DUCC64M3P","assignmentId":"3K5TEWLKGWX2ENZ752HDGPFW38YVI6","hitId":"3YGE63DIN8J20XK20KS1742RQF60WK","url":"https://gershmanlab.com/experiments/alicia/teaching/experiment/?hitId=3YGE63DIN8J20XK20KS1742RQF60WK&workerId=ASC9DUCC64M3P&assignmentId=3K5TEWLKGWX2ENZ752HDGPFW38YVI6&a=KE5K8&tp_a=KE5K8&b=3K5TEWLKGWX2ENZ752HDGPFW38YVI6&tp_b=3K5TEWLKGWX2ENZ752HDGPFW38YVI6&c=365198&tp_c=365198","heads":15,"tails":15,"studentIndex":20,"studentTrueHypers":{"a":4,"b":1},"studentGuess":0.5428571428571428,"delta":0.042857142857142816,"totalExamples":30,"bonus":0.2,"bonusSoFar":1.34},{"rt":7987,"response":{"heads":"20","tails":"10"},"type":"response","condition":"seqNoFeedback","trueTheta":0.8,"classrooms":["C","D"],"studentTrueClassroom":"C","exampleSet":"first","trial_type":"survey-html-form","trial_index":174,"time_elapsed":1151044,"internal_node_id":"0.0-167.0-0.0","params":{"nStudents":24,"maxFlips":30,"completionMinutes":45,"basePay":8,"maxBonus":9,"perTrialBonus":0.5,"perTrialBonusThreshold":0.1,"exampleCost":0.01},"classroomParams":{"A":{"a":1,"b":4},"B":{"a":4,"b":1},"C":{"a":2,"b":8},"D":{"a":8,"b":2}},"conditions":["nonSeqFull","nonSeqPartial","seqNoFeedback","seqFeedback"],"classroomPairings":[["A","B"],["C","D"]],"coinWeights":[0.2,0.5,0.8],"subjectId":"ASC9DUCC64M3P","assignmentId":"3K5TEWLKGWX2ENZ752HDGPFW38YVI6","hitId":"3YGE63DIN8J20XK20KS1742RQF60WK","url":"https://gershmanlab.com/experiments/alicia/teaching/experiment/?hitId=3YGE63DIN8J20XK20KS1742RQF60WK&workerId=ASC9DUCC64M3P&assignmentId=3K5TEWLKGWX2ENZ752HDGPFW38YVI6&a=KE5K8&tp_a=KE5K8&b=3K5TEWLKGWX2ENZ752HDGPFW38YVI6&tp_b=3K5TEWLKGWX2ENZ752HDGPFW38YVI6&c=365198&tp_c=365198","heads":20,"tails":10,"studentIndex":21,"studentTrueHypers":{"a":2,"b":8},"studentGuess":0.55,"delta":0.25,"totalExamples":30,"bonusSoFar":1.34},{"rt":5058,"response":{"heads":"10","tails":"20"},"type":"response","condition":"seqNoFeedback","trueTheta":0.8,"classrooms":["C","D"],"studentTrueClassroom":"C","exampleSet":"second","trial_type":"survey-html-form","trial_index":177,"time_elapsed":1164105,"internal_node_id":"0.0-170.0-0.0","params":{"nStudents":24,"maxFlips":30,"completionMinutes":45,"basePay":8,"maxBonus":9,"perTrialBonus":0.5,"perTrialBonusThreshold":0.1,"exampleCost":0.01},"classroomParams":{"A":{"a":1,"b":4},"B":{"a":4,"b":1},"C":{"a":2,"b":8},"D":{"a":8,"b":2}},"conditions":["nonSeqFull","nonSeqPartial","seqNoFeedback","seqFeedback"],"classroomPairings":[["A","B"],["C","D"]],"coinWeights":[0.2,0.5,0.8],"subjectId":"ASC9DUCC64M3P","assignmentId":"3K5TEWLKGWX2ENZ752HDGPFW38YVI6","hitId":"3YGE63DIN8J20XK20KS1742RQF60WK","url":"https://gershmanlab.com/experiments/alicia/teaching/experiment/?hitId=3YGE63DIN8J20XK20KS1742RQF60WK&workerId=ASC9DUCC64M3P&assignmentId=3K5TEWLKGWX2ENZ752HDGPFW38YVI6&a=KE5K8&tp_a=KE5K8&b=3K5TEWLKGWX2ENZ752HDGPFW38YVI6&tp_b=3K5TEWLKGWX2ENZ752HDGPFW38YVI6&c=365198&tp_c=365198","firstResponseHeads":20,"firstResponseTails":10,"secondResponseHeads":10,"secondResponseTails":20,"studentIndex":21,"studentTrueHypers":{"a":2,"b":8},"studentGuess":0.45714285714285713,"delta":0.3428571428571429,"bonus":0,"bonusSoFar":1.34,"totalExamples":60},{"rt":6457,"response":{"heads":"5","tails":"15"},"type":"response","condition":"nonSeqPartial","trueTheta":0.2,"classrooms":["A","B"],"studentTrueClassroom":"B","exampleSet":"first","trial_type":"survey-html-form","trial_index":183,"time_elapsed":1182195,"internal_node_id":"0.0-176.0-0.0","params":{"nStudents":24,"maxFlips":30,"completionMinutes":45,"basePay":8,"maxBonus":9,"perTrialBonus":0.5,"perTrialBonusThreshold":0.1,"exampleCost":0.01},"classroomParams":{"A":{"a":1,"b":4},"B":{"a":4,"b":1},"C":{"a":2,"b":8},"D":{"a":8,"b":2}},"conditions":["nonSeqFull","nonSeqPartial","seqNoFeedback","seqFeedback"],"classroomPairings":[["A","B"],["C","D"]],"coinWeights":[0.2,0.5,0.8],"subjectId":"ASC9DUCC64M3P","assignmentId":"3K5TEWLKGWX2ENZ752HDGPFW38YVI6","hitId":"3YGE63DIN8J20XK20KS1742RQF60WK","url":"https://gershmanlab.com/experiments/alicia/teaching/experiment/?hitId=3YGE63DIN8J20XK20KS1742RQF60WK&workerId=ASC9DUCC64M3P&assignmentId=3K5TEWLKGWX2ENZ752HDGPFW38YVI6&a=KE5K8&tp_a=KE5K8&b=3K5TEWLKGWX2ENZ752HDGPFW38YVI6&tp_b=3K5TEWLKGWX2ENZ752HDGPFW38YVI6&c=365198&tp_c=365198","heads":5,"tails":15,"studentIndex":22,"studentTrueHypers":{"a":4,"b":1},"studentGuess":0.36,"delta":0.15999999999999998,"totalExamples":20,"bonus":0,"bonusSoFar":1.34},{"rt":4848,"response":{"heads":"15","tails":"15"},"type":"response","condition":"seqFeedback","trueTheta":0.5,"classrooms":["A","B"],"studentTrueClassroom":"A","exampleSet":"first","trial_type":"survey-html-form","trial_index":189,"time_elapsed":1199104,"internal_node_id":"0.0-182.0-0.0","params":{"nStudents":24,"maxFlips":30,"completionMinutes":45,"basePay":8,"maxBonus":9,"perTrialBonus":0.5,"perTrialBonusThreshold":0.1,"exampleCost":0.01},"classroomParams":{"A":{"a":1,"b":4},"B":{"a":4,"b":1},"C":{"a":2,"b":8},"D":{"a":8,"b":2}},"conditions":["nonSeqFull","nonSeqPartial","seqNoFeedback","seqFeedback"],"classroomPairings":[["A","B"],["C","D"]],"coinWeights":[0.2,0.5,0.8],"subjectId":"ASC9DUCC64M3P","assignmentId":"3K5TEWLKGWX2ENZ752HDGPFW38YVI6","hitId":"3YGE63DIN8J20XK20KS1742RQF60WK","url":"https://gershmanlab.com/experiments/alicia/teaching/experiment/?hitId=3YGE63DIN8J20XK20KS1742RQF60WK&workerId=ASC9DUCC64M3P&assignmentId=3K5TEWLKGWX2ENZ752HDGPFW38YVI6&a=KE5K8&tp_a=KE5K8&b=3K5TEWLKGWX2ENZ752HDGPFW38YVI6&tp_b=3K5TEWLKGWX2ENZ752HDGPFW38YVI6&c=365198&tp_c=365198","heads":15,"tails":15,"studentIndex":23,"studentTrueHypers":{"a":1,"b":4},"studentGuess":0.45714285714285713,"delta":0.04285714285714287,"totalExamples":30,"bonusSoFar":1.34},{"rt":8550,"response":{"heads":"15","tails":"15"},"type":"response","condition":"seqFeedback","trueTheta":0.5,"classrooms":["A","B"],"studentTrueClassroom":"A","exampleSet":"second","trial_type":"survey-html-form","trial_index":193,"time_elapsed":1217285,"internal_node_id":"0.0-186.0-0.0","params":{"nStudents":24,"maxFlips":30,"completionMinutes":45,"basePay":8,"maxBonus":9,"perTrialBonus":0.5,"perTrialBonusThreshold":0.1,"exampleCost":0.01},"classroomParams":{"A":{"a":1,"b":4},"B":{"a":4,"b":1},"C":{"a":2,"b":8},"D":{"a":8,"b":2}},"conditions":["nonSeqFull","nonSeqPartial","seqNoFeedback","seqFeedback"],"classroomPairings":[["A","B"],["C","D"]],"coinWeights":[0.2,0.5,0.8],"subjectId":"ASC9DUCC64M3P","assignmentId":"3K5TEWLKGWX2ENZ752HDGPFW38YVI6","hitId":"3YGE63DIN8J20XK20KS1742RQF60WK","url":"https://gershmanlab.com/experiments/alicia/teaching/experiment/?hitId=3YGE63DIN8J20XK20KS1742RQF60WK&workerId=ASC9DUCC64M3P&assignmentId=3K5TEWLKGWX2ENZ752HDGPFW38YVI6&a=KE5K8&tp_a=KE5K8&b=3K5TEWLKGWX2ENZ752HDGPFW38YVI6&tp_b=3K5TEWLKGWX2ENZ752HDGPFW38YVI6&c=365198&tp_c=365198","firstResponseHeads":15,"firstResponseTails":15,"secondResponseHeads":15,"secondResponseTails":15,"studentIndex":23,"studentTrueHypers":{"a":1,"b":4},"studentGuess":0.47692307692307695,"delta":0.02307692307692305,"bonus":0,"bonusSoFar":1.34,"totalExamples":60},{"rt":11475,"response":{"gender":"female","age":"56","understood":"yes","comments":""},"type":"response","trial_type":"survey-html-form","trial_index":197,"time_elapsed":1236904,"internal_node_id":"0.0-191.0","params":{"nStudents":24,"maxFlips":30,"completionMinutes":45,"basePay":8,"maxBonus":9,"perTrialBonus":0.5,"perTrialBonusThreshold":0.1,"exampleCost":0.01},"classroomParams":{"A":{"a":1,"b":4},"B":{"a":4,"b":1},"C":{"a":2,"b":8},"D":{"a":8,"b":2}},"conditions":["nonSeqFull","nonSeqPartial","seqNoFeedback","seqFeedback"],"classroomPairings":[["A","B"],["C","D"]],"coinWeights":[0.2,0.5,0.8],"subjectId":"ASC9DUCC64M3P","assignmentId":"3K5TEWLKGWX2ENZ752HDGPFW38YVI6","hitId":"3YGE63DIN8J20XK20KS1742RQF60WK","url":"https://gershmanlab.com/experiments/alicia/teaching/experiment/?hitId=3YGE63DIN8J20XK20KS1742RQF60WK&workerId=ASC9DUCC64M3P&assignmentId=3K5TEWLKGWX2ENZ752HDGPFW38YVI6&a=KE5K8&tp_a=KE5K8&b=3K5TEWLKGWX2ENZ752HDGPFW38YVI6&tp_b=3K5TEWLKGWX2ENZ752HDGPFW38YVI6&c=365198&tp_c=365198","totalBonus":1.34}]