[{"rt":49599,"response":{"heads":"6","tails":"6"},"type":"response","condition":"seqFeedback","trueTheta":0.5,"classrooms":["C","D"],"studentTrueClassroom":"C","exampleSet":"first","trial_type":"survey-html-form","trial_index":16,"time_elapsed":724103,"internal_node_id":"0.0-6.0-0.0","params":{"nStudents":24,"maxFlips":30,"completionMinutes":45,"basePay":8,"maxBonus":9,"perTrialBonus":0.5,"perTrialBonusThreshold":0.1,"exampleCost":0.01},"classroomParams":{"A":{"a":1,"b":4},"B":{"a":4,"b":1},"C":{"a":2,"b":8},"D":{"a":8,"b":2}},"conditions":["nonSeqFull","nonSeqPartial","seqNoFeedback","seqFeedback"],"classroomPairings":[["A","B"],["C","D"]],"coinWeights":[0.2,0.5,0.8],"subjectId":"AZNIEFUIVB2H0","assignmentId":"33FOTY3KEN7VF8X96E12YYAL1Z8C1X","hitId":"3QGHA0EA0JM3KKNCY0PQRLYAHJ3BWH","url":"https://gershmanlab.com/experiments/alicia/teaching/experiment/?hitId=3QGHA0EA0JM3KKNCY0PQRLYAHJ3BWH&workerId=AZNIEFUIVB2H0&assignmentId=33FOTY3KEN7VF8X96E12YYAL1Z8C1X&a=KTF38&tp_a=KTF38&b=33FOTY3KEN7VF8X96E12YYAL1Z8C1X&tp_b=33FOTY3KEN7VF8X96E12YYAL1Z8C1X&c=365198&tp_c=365198","heads":6,"tails":6,"studentIndex":0,"studentTrueHypers":{"a":2,"b":8},"studentGuess":0.36363636363636365,"delta":0.13636363636363635,"totalExamples":12,"bonusSoFar":0},{"rt":30634,"response":{"heads":"4","tails":"4"},"type":"response","condition":"seqFeedback","trueTheta":0.5,"classrooms":["C","D"],"studentTrueClassroom":"C","exampleSet":"second","trial_type":"survey-html-form","trial_index":20,"time_elapsed":764831,"internal_node_id":"0.0-10.0-0.0","params":{"nStudents":24,"maxFlips":30,"completionMinutes":45,"basePay":8,"maxBonus":9,"perTrialBonus":0.5,"perTrialBonusThreshold":0.1,"exampleCost":0.01},"classroomParams":{"A":{"a":1,"b":4},"B":{"a":4,"b":1},"C":{"a":2,"b":8},"D":{"a":8,"b":2}},"conditions":["nonSeqFull","nonSeqPartial","seqNoFeedback","seqFeedback"],"classroomPairings":[["A","B"],["C","D"]],"coinWeights":[0.2,0.5,0.8],"subjectId":"AZNIEFUIVB2H0","assignmentId":"33FOTY3KEN7VF8X96E12YYAL1Z8C1X","hitId":"3QGHA0EA0JM3KKNCY0PQRLYAHJ3BWH","url":"https://gershmanlab.com/experiments/alicia/teaching/experiment/?hitId=3QGHA0EA0JM3KKNCY0PQRLYAHJ3BWH&workerId=AZNIEFUIVB2H0&assignmentId=33FOTY3KEN7VF8X96E12YYAL1Z8C1X&a=KTF38&tp_a=KTF38&b=33FOTY3KEN7VF8X96E12YYAL1Z8C1X&tp_b=33FOTY3KEN7VF8X96E12YYAL1Z8C1X&c=365198&tp_c=365198","firstResponseHeads":6,"firstResponseTails":6,"secondResponseHeads":4,"secondResponseTails":4,"studentIndex":0,"studentTrueHypers":{"a":2,"b":8},"studentGuess":0.4,"delta":0.09999999999999998,"bonus":0.3,"bonusSoFar":0.3,"totalExamples":20},{"rt":34742,"response":{"heads":"0","tails":"10"},"type":"response","condition":"nonSeqFull","trueTheta":0.2,"classrooms":["C","D"],"studentTrueClassroom":"D","exampleSet":"first","trial_type":"survey-html-form","trial_index":26,"time_elapsed":819831,"internal_node_id":"0.0-16.0-0.0","params":{"nStudents":24,"maxFlips":30,"completionMinutes":45,"basePay":8,"maxBonus":9,"perTrialBonus":0.5,"perTrialBonusThreshold":0.1,"exampleCost":0.01},"classroomParams":{"A":{"a":1,"b":4},"B":{"a":4,"b":1},"C":{"a":2,"b":8},"D":{"a":8,"b":2}},"conditions":["nonSeqFull","nonSeqPartial","seqNoFeedback","seqFeedback"],"classroomPairings":[["A","B"],["C","D"]],"coinWeights":[0.2,0.5,0.8],"subjectId":"AZNIEFUIVB2H0","assignmentId":"33FOTY3KEN7VF8X96E12YYAL1Z8C1X","hitId":"3QGHA0EA0JM3KKNCY0PQRLYAHJ3BWH","url":"https://gershmanlab.com/experiments/alicia/teaching/experiment/?hitId=3QGHA0EA0JM3KKNCY0PQRLYAHJ3BWH&workerId=AZNIEFUIVB2H0&assignmentId=33FOTY3KEN7VF8X96E12YYAL1Z8C1X&a=KTF38&tp_a=KTF38&b=33FOTY3KEN7VF8X96E12YYAL1Z8C1X&tp_b=33FOTY3KEN7VF8X96E12YYAL1Z8C1X&c=365198&tp_c=365198","heads":0,"tails":10,"studentIndex":1,"studentTrueHypers":{"a":8,"b":2},"studentGuess":0.4,"delta":0.2,"totalExamples":10,"bonus":0,"bonusSoFar":0.3},{"rt":48720,"response":{"heads":"10","tails":"0"},"type":"response","condition":"nonSeqPartial","trueTheta":0.8,"classrooms":["C","D"],"studentTrueClassroom":"D","exampleSet":"first","trial_type":"survey-html-form","trial_index":32,"time_elapsed":888639,"internal_node_id":"0.0-22.0-0.0","params":{"nStudents":24,"maxFlips":30,"completionMinutes":45,"basePay":8,"maxBonus":9,"perTrialBonus":0.5,"perTrialBonusThreshold":0.1,"exampleCost":0.01},"classroomParams":{"A":{"a":1,"b":4},"B":{"a":4,"b":1},"C":{"a":2,"b":8},"D":{"a":8,"b":2}},"conditions":["nonSeqFull","nonSeqPartial","seqNoFeedback","seqFeedback"],"classroomPairings":[["A","B"],["C","D"]],"coinWeights":[0.2,0.5,0.8],"subjectId":"AZNIEFUIVB2H0","assignmentId":"33FOTY3KEN7VF8X96E12YYAL1Z8C1X","hitId":"3QGHA0EA0JM3KKNCY0PQRLYAHJ3BWH","url":"https://gershmanlab.com/experiments/alicia/teaching/experiment/?hitId=3QGHA0EA0JM3KKNCY0PQRLYAHJ3BWH&workerId=AZNIEFUIVB2H0&assignmentId=33FOTY3KEN7VF8X96E12YYAL1Z8C1X&a=KTF38&tp_a=KTF38&b=33FOTY3KEN7VF8X96E12YYAL1Z8C1X&tp_b=33FOTY3KEN7VF8X96E12YYAL1Z8C1X&c=365198&tp_c=365198","heads":10,"tails":0,"studentIndex":2,"studentTrueHypers":{"a":8,"b":2},"studentGuess":0.9,"delta":0.09999999999999998,"totalExamples":10,"bonus":0.4,"bonusSoFar":0.7},{"rt":13729,"response":{"heads":"0","tails":"10"},"type":"response","condition":"nonSeqPartial","trueTheta":0.2,"classrooms":["C","D"],"studentTrueClassroom":"C","exampleSet":"first","trial_type":"survey-html-form","trial_index":38,"time_elapsed":918849,"internal_node_id":"0.0-28.0-0.0","params":{"nStudents":24,"maxFlips":30,"completionMinutes":45,"basePay":8,"maxBonus":9,"perTrialBonus":0.5,"perTrialBonusThreshold":0.1,"exampleCost":0.01},"classroomParams":{"A":{"a":1,"b":4},"B":{"a":4,"b":1},"C":{"a":2,"b":8},"D":{"a":8,"b":2}},"conditions":["nonSeqFull","nonSeqPartial","seqNoFeedback","seqFeedback"],"classroomPairings":[["A","B"],["C","D"]],"coinWeights":[0.2,0.5,0.8],"subjectId":"AZNIEFUIVB2H0","assignmentId":"33FOTY3KEN7VF8X96E12YYAL1Z8C1X","hitId":"3QGHA0EA0JM3KKNCY0PQRLYAHJ3BWH","url":"https://gershmanlab.com/experiments/alicia/teaching/experiment/?hitId=3QGHA0EA0JM3KKNCY0PQRLYAHJ3BWH&workerId=AZNIEFUIVB2H0&assignmentId=33FOTY3KEN7VF8X96E12YYAL1Z8C1X&a=KTF38&tp_a=KTF38&b=33FOTY3KEN7VF8X96E12YYAL1Z8C1X&tp_b=33FOTY3KEN7VF8X96E12YYAL1Z8C1X&c=365198&tp_c=365198","heads":0,"tails":10,"studentIndex":3,"studentTrueHypers":{"a":2,"b":8},"studentGuess":0.1,"delta":0.1,"totalExamples":10,"bonus":0.4,"bonusSoFar":1.1},{"rt":63693,"response":{"heads":"2","tails":"8"},"type":"response","condition":"seqNoFeedback","trueTheta":0.2,"classrooms":["A","B"],"studentTrueClassroom":"A","exampleSet":"first","trial_type":"survey-html-form","trial_index":44,"time_elapsed":997826,"internal_node_id":"0.0-34.0-0.0","params":{"nStudents":24,"maxFlips":30,"completionMinutes":45,"basePay":8,"maxBonus":9,"perTrialBonus":0.5,"perTrialBonusThreshold":0.1,"exampleCost":0.01},"classroomParams":{"A":{"a":1,"b":4},"B":{"a":4,"b":1},"C":{"a":2,"b":8},"D":{"a":8,"b":2}},"conditions":["nonSeqFull","nonSeqPartial","seqNoFeedback","seqFeedback"],"classroomPairings":[["A","B"],["C","D"]],"coinWeights":[0.2,0.5,0.8],"subjectId":"AZNIEFUIVB2H0","assignmentId":"33FOTY3KEN7VF8X96E12YYAL1Z8C1X","hitId":"3QGHA0EA0JM3KKNCY0PQRLYAHJ3BWH","url":"https://gershmanlab.com/experiments/alicia/teaching/experiment/?hitId=3QGHA0EA0JM3KKNCY0PQRLYAHJ3BWH&workerId=AZNIEFUIVB2H0&assignmentId=33FOTY3KEN7VF8X96E12YYAL1Z8C1X&a=KTF38&tp_a=KTF38&b=33FOTY3KEN7VF8X96E12YYAL1Z8C1X&tp_b=33FOTY3KEN7VF8X96E12YYAL1Z8C1X&c=365198&tp_c=365198","heads":2,"tails":8,"studentIndex":4,"studentTrueHypers":{"a":1,"b":4},"studentGuess":0.2,"delta":0,"totalExamples":10,"bonusSoFar":1.1},{"rt":22107,"response":{"heads":"8","tails":"8"},"type":"response","condition":"seqNoFeedback","trueTheta":0.2,"classrooms":["A","B"],"studentTrueClassroom":"A","exampleSet":"second","trial_type":"survey-html-form","trial_index":47,"time_elapsed":1026959,"internal_node_id":"0.0-37.0-0.0","params":{"nStudents":24,"maxFlips":30,"completionMinutes":45,"basePay":8,"maxBonus":9,"perTrialBonus":0.5,"perTrialBonusThreshold":0.1,"exampleCost":0.01},"classroomParams":{"A":{"a":1,"b":4},"B":{"a":4,"b":1},"C":{"a":2,"b":8},"D":{"a":8,"b":2}},"conditions":["nonSeqFull","nonSeqPartial","seqNoFeedback","seqFeedback"],"classroomPairings":[["A","B"],["C","D"]],"coinWeights":[0.2,0.5,0.8],"subjectId":"AZNIEFUIVB2H0","assignmentId":"33FOTY3KEN7VF8X96E12YYAL1Z8C1X","hitId":"3QGHA0EA0JM3KKNCY0PQRLYAHJ3BWH","url":"https://gershmanlab.com/experiments/alicia/teaching/experiment/?hitId=3QGHA0EA0JM3KKNCY0PQRLYAHJ3BWH&workerId=AZNIEFUIVB2H0&assignmentId=33FOTY3KEN7VF8X96E12YYAL1Z8C1X&a=KTF38&tp_a=KTF38&b=33FOTY3KEN7VF8X96E12YYAL1Z8C1X&tp_b=33FOTY3KEN7VF8X96E12YYAL1Z8C1X&c=365198&tp_c=365198","firstResponseHeads":2,"firstResponseTails":8,"secondResponseHeads":8,"secondResponseTails":8,"studentIndex":4,"studentTrueHypers":{"a":1,"b":4},"studentGuess":0.3548387096774194,"delta":0.15483870967741936,"bonus":0,"bonusSoFar":1.1,"totalExamples":26},{"rt":19939,"response":{"heads":"10","tails":"0"},"type":"response","condition":"seqNoFeedback","trueTheta":0.8,"classrooms":["C","D"],"studentTrueClassroom":"D","exampleSet":"first","trial_type":"survey-html-form","trial_index":53,"time_elapsed":1063128,"internal_node_id":"0.0-43.0-0.0","params":{"nStudents":24,"maxFlips":30,"completionMinutes":45,"basePay":8,"maxBonus":9,"perTrialBonus":0.5,"perTrialBonusThreshold":0.1,"exampleCost":0.01},"classroomParams":{"A":{"a":1,"b":4},"B":{"a":4,"b":1},"C":{"a":2,"b":8},"D":{"a":8,"b":2}},"conditions":["nonSeqFull","nonSeqPartial","seqNoFeedback","seqFeedback"],"classroomPairings":[["A","B"],["C","D"]],"coinWeights":[0.2,0.5,0.8],"subjectId":"AZNIEFUIVB2H0","assignmentId":"33FOTY3KEN7VF8X96E12YYAL1Z8C1X","hitId":"3QGHA0EA0JM3KKNCY0PQRLYAHJ3BWH","url":"https://gershmanlab.com/experiments/alicia/teaching/experiment/?hitId=3QGHA0EA0JM3KKNCY0PQRLYAHJ3BWH&workerId=AZNIEFUIVB2H0&assignmentId=33FOTY3KEN7VF8X96E12YYAL1Z8C1X&a=KTF38&tp_a=KTF38&b=33FOTY3KEN7VF8X96E12YYAL1Z8C1X&tp_b=33FOTY3KEN7VF8X96E12YYAL1Z8C1X&c=365198&tp_c=365198","heads":10,"tails":0,"studentIndex":5,"studentTrueHypers":{"a":8,"b":2},"studentGuess":0.9,"delta":0.09999999999999998,"totalExamples":10,"bonusSoFar":1.1},{"rt":8121,"response":{"heads":"8","tails":"0"},"type":"response","condition":"seqNoFeedback","trueTheta":0.8,"classrooms":["C","D"],"studentTrueClassroom":"D","exampleSet":"second","trial_type":"survey-html-form","trial_index":56,"time_elapsed":1077271,"internal_node_id":"0.0-46.0-0.0","params":{"nStudents":24,"maxFlips":30,"completionMinutes":45,"basePay":8,"maxBonus":9,"perTrialBonus":0.5,"perTrialBonusThreshold":0.1,"exampleCost":0.01},"classroomParams":{"A":{"a":1,"b":4},"B":{"a":4,"b":1},"C":{"a":2,"b":8},"D":{"a":8,"b":2}},"conditions":["nonSeqFull","nonSeqPartial","seqNoFeedback","seqFeedback"],"classroomPairings":[["A","B"],["C","D"]],"coinWeights":[0.2,0.5,0.8],"subjectId":"AZNIEFUIVB2H0","assignmentId":"33FOTY3KEN7VF8X96E12YYAL1Z8C1X","hitId":"3QGHA0EA0JM3KKNCY0PQRLYAHJ3BWH","url":"https://gershmanlab.com/experiments/alicia/teaching/experiment/?hitId=3QGHA0EA0JM3KKNCY0PQRLYAHJ3BWH&workerId=AZNIEFUIVB2H0&assignmentId=33FOTY3KEN7VF8X96E12YYAL1Z8C1X&a=KTF38&tp_a=KTF38&b=33FOTY3KEN7VF8X96E12YYAL1Z8C1X&tp_b=33FOTY3KEN7VF8X96E12YYAL1Z8C1X&c=365198&tp_c=365198","firstResponseHeads":10,"firstResponseTails":0,"secondResponseHeads":8,"secondResponseTails":0,"studentIndex":5,"studentTrueHypers":{"a":8,"b":2},"studentGuess":0.9285714285714286,"delta":0.12857142857142856,"bonus":0,"bonusSoFar":1.1,"totalExamples":18},{"rt":15969,"response":{"heads":"6","tails":"6"},"type":"response","condition":"seqNoFeedback","trueTheta":0.5,"classrooms":["C","D"],"studentTrueClassroom":"D","exampleSet":"first","trial_type":"survey-html-form","trial_index":62,"time_elapsed":1118977,"internal_node_id":"0.0-52.0-0.0","params":{"nStudents":24,"maxFlips":30,"completionMinutes":45,"basePay":8,"maxBonus":9,"perTrialBonus":0.5,"perTrialBonusThreshold":0.1,"exampleCost":0.01},"classroomParams":{"A":{"a":1,"b":4},"B":{"a":4,"b":1},"C":{"a":2,"b":8},"D":{"a":8,"b":2}},"conditions":["nonSeqFull","nonSeqPartial","seqNoFeedback","seqFeedback"],"classroomPairings":[["A","B"],["C","D"]],"coinWeights":[0.2,0.5,0.8],"subjectId":"AZNIEFUIVB2H0","assignmentId":"33FOTY3KEN7VF8X96E12YYAL1Z8C1X","hitId":"3QGHA0EA0JM3KKNCY0PQRLYAHJ3BWH","url":"https://gershmanlab.com/experiments/alicia/teaching/experiment/?hitId=3QGHA0EA0JM3KKNCY0PQRLYAHJ3BWH&workerId=AZNIEFUIVB2H0&assignmentId=33FOTY3KEN7VF8X96E12YYAL1Z8C1X&a=KTF38&tp_a=KTF38&b=33FOTY3KEN7VF8X96E12YYAL1Z8C1X&tp_b=33FOTY3KEN7VF8X96E12YYAL1Z8C1X&c=365198&tp_c=365198","heads":6,"tails":6,"studentIndex":6,"studentTrueHypers":{"a":8,"b":2},"studentGuess":0.6363636363636364,"delta":0.13636363636363635,"totalExamples":12,"bonusSoFar":1.1},{"rt":11414,"response":{"heads":"8","tails":"8"},"type":"response","condition":"seqNoFeedback","trueTheta":0.5,"classrooms":["C","D"],"studentTrueClassroom":"D","exampleSet":"second","trial_type":"survey-html-form","trial_index":65,"time_elapsed":1137174,"internal_node_id":"0.0-55.0-0.0","params":{"nStudents":24,"maxFlips":30,"completionMinutes":45,"basePay":8,"maxBonus":9,"perTrialBonus":0.5,"perTrialBonusThreshold":0.1,"exampleCost":0.01},"classroomParams":{"A":{"a":1,"b":4},"B":{"a":4,"b":1},"C":{"a":2,"b":8},"D":{"a":8,"b":2}},"conditions":["nonSeqFull","nonSeqPartial","seqNoFeedback","seqFeedback"],"classroomPairings":[["A","B"],["C","D"]],"coinWeights":[0.2,0.5,0.8],"subjectId":"AZNIEFUIVB2H0","assignmentId":"33FOTY3KEN7VF8X96E12YYAL1Z8C1X","hitId":"3QGHA0EA0JM3KKNCY0PQRLYAHJ3BWH","url":"https://gershmanlab.com/experiments/alicia/teaching/experiment/?hitId=3QGHA0EA0JM3KKNCY0PQRLYAHJ3BWH&workerId=AZNIEFUIVB2H0&assignmentId=33FOTY3KEN7VF8X96E12YYAL1Z8C1X&a=KTF38&tp_a=KTF38&b=33FOTY3KEN7VF8X96E12YYAL1Z8C1X&tp_b=33FOTY3KEN7VF8X96E12YYAL1Z8C1X&c=365198&tp_c=365198","firstResponseHeads":6,"firstResponseTails":6,"secondResponseHeads":8,"secondResponseTails":8,"studentIndex":6,"studentTrueHypers":{"a":8,"b":2},"studentGuess":0.5789473684210527,"delta":0.07894736842105265,"bonus":0.22,"bonusSoFar":1.32,"totalExamples":28},{"rt":8693,"response":{"heads":"10","tails":"10"},"type":"response","condition":"nonSeqPartial","trueTheta":0.2,"classrooms":["A","B"],"studentTrueClassroom":"A","exampleSet":"first","trial_type":"survey-html-form","trial_index":71,"time_elapsed":1164056,"internal_node_id":"0.0-61.0-0.0","params":{"nStudents":24,"maxFlips":30,"completionMinutes":45,"basePay":8,"maxBonus":9,"perTrialBonus":0.5,"perTrialBonusThreshold":0.1,"exampleCost":0.01},"classroomParams":{"A":{"a":1,"b":4},"B":{"a":4,"b":1},"C":{"a":2,"b":8},"D":{"a":8,"b":2}},"conditions":["nonSeqFull","nonSeqPartial","seqNoFeedback","seqFeedback"],"classroomPairings":[["A","B"],["C","D"]],"coinWeights":[0.2,0.5,0.8],"subjectId":"AZNIEFUIVB2H0","assignmentId":"33FOTY3KEN7VF8X96E12YYAL1Z8C1X","hitId":"3QGHA0EA0JM3KKNCY0PQRLYAHJ3BWH","url":"https://gershmanlab.com/experiments/alicia/teaching/experiment/?hitId=3QGHA0EA0JM3KKNCY0PQRLYAHJ3BWH&workerId=AZNIEFUIVB2H0&assignmentId=33FOTY3KEN7VF8X96E12YYAL1Z8C1X&a=KTF38&tp_a=KTF38&b=33FOTY3KEN7VF8X96E12YYAL1Z8C1X&tp_b=33FOTY3KEN7VF8X96E12YYAL1Z8C1X&c=365198&tp_c=365198","heads":10,"tails":10,"studentIndex":7,"studentTrueHypers":{"a":1,"b":4},"studentGuess":0.44,"delta":0.24,"totalExamples":20,"bonus":0,"bonusSoFar":1.32},{"rt":14835,"response":{"heads":"6","tails":"0"},"type":"response","condition":"nonSeqFull","trueTheta":0.5,"classrooms":["C","D"],"studentTrueClassroom":"C","exampleSet":"first","trial_type":"survey-html-form","trial_index":77,"time_elapsed":1192831,"internal_node_id":"0.0-67.0-0.0","params":{"nStudents":24,"maxFlips":30,"completionMinutes":45,"basePay":8,"maxBonus":9,"perTrialBonus":0.5,"perTrialBonusThreshold":0.1,"exampleCost":0.01},"classroomParams":{"A":{"a":1,"b":4},"B":{"a":4,"b":1},"C":{"a":2,"b":8},"D":{"a":8,"b":2}},"conditions":["nonSeqFull","nonSeqPartial","seqNoFeedback","seqFeedback"],"classroomPairings":[["A","B"],["C","D"]],"coinWeights":[0.2,0.5,0.8],"subjectId":"AZNIEFUIVB2H0","assignmentId":"33FOTY3KEN7VF8X96E12YYAL1Z8C1X","hitId":"3QGHA0EA0JM3KKNCY0PQRLYAHJ3BWH","url":"https://gershmanlab.com/experiments/alicia/teaching/experiment/?hitId=3QGHA0EA0JM3KKNCY0PQRLYAHJ3BWH&workerId=AZNIEFUIVB2H0&assignmentId=33FOTY3KEN7VF8X96E12YYAL1Z8C1X&a=KTF38&tp_a=KTF38&b=33FOTY3KEN7VF8X96E12YYAL1Z8C1X&tp_b=33FOTY3KEN7VF8X96E12YYAL1Z8C1X&c=365198&tp_c=365198","heads":6,"tails":0,"studentIndex":8,"studentTrueHypers":{"a":2,"b":8},"studentGuess":0.5,"delta":0,"totalExamples":6,"bonus":0.44,"bonusSoFar":1.76},{"rt":8566,"response":{"heads":"3","tails":"3"},"type":"response","condition":"seqFeedback","trueTheta":0.5,"classrooms":["A","B"],"studentTrueClassroom":"B","exampleSet":"first","trial_type":"survey-html-form","trial_index":83,"time_elapsed":1223529,"internal_node_id":"0.0-73.0-0.0","params":{"nStudents":24,"maxFlips":30,"completionMinutes":45,"basePay":8,"maxBonus":9,"perTrialBonus":0.5,"perTrialBonusThreshold":0.1,"exampleCost":0.01},"classroomParams":{"A":{"a":1,"b":4},"B":{"a":4,"b":1},"C":{"a":2,"b":8},"D":{"a":8,"b":2}},"conditions":["nonSeqFull","nonSeqPartial","seqNoFeedback","seqFeedback"],"classroomPairings":[["A","B"],["C","D"]],"coinWeights":[0.2,0.5,0.8],"subjectId":"AZNIEFUIVB2H0","assignmentId":"33FOTY3KEN7VF8X96E12YYAL1Z8C1X","hitId":"3QGHA0EA0JM3KKNCY0PQRLYAHJ3BWH","url":"https://gershmanlab.com/experiments/alicia/teaching/experiment/?hitId=3QGHA0EA0JM3KKNCY0PQRLYAHJ3BWH&workerId=AZNIEFUIVB2H0&assignmentId=33FOTY3KEN7VF8X96E12YYAL1Z8C1X&a=KTF38&tp_a=KTF38&b=33FOTY3KEN7VF8X96E12YYAL1Z8C1X&tp_b=33FOTY3KEN7VF8X96E12YYAL1Z8C1X&c=365198&tp_c=365198","heads":3,"tails":3,"studentIndex":9,"studentTrueHypers":{"a":4,"b":1},"studentGuess":0.6363636363636364,"delta":0.13636363636363635,"totalExamples":6,"bonusSoFar":1.76},{"rt":12943,"response":{"heads":"2","tails":"2"},"type":"response","condition":"seqFeedback","trueTheta":0.5,"classrooms":["A","B"],"studentTrueClassroom":"B","exampleSet":"second","trial_type":"survey-html-form","trial_index":87,"time_elapsed":1248541,"internal_node_id":"0.0-77.0-0.0","params":{"nStudents":24,"maxFlips":30,"completionMinutes":45,"basePay":8,"maxBonus":9,"perTrialBonus":0.5,"perTrialBonusThreshold":0.1,"exampleCost":0.01},"classroomParams":{"A":{"a":1,"b":4},"B":{"a":4,"b":1},"C":{"a":2,"b":8},"D":{"a":8,"b":2}},"conditions":["nonSeqFull","nonSeqPartial","seqNoFeedback","seqFeedback"],"classroomPairings":[["A","B"],["C","D"]],"coinWeights":[0.2,0.5,0.8],"subjectId":"AZNIEFUIVB2H0","assignmentId":"33FOTY3KEN7VF8X96E12YYAL1Z8C1X","hitId":"3QGHA0EA0JM3KKNCY0PQRLYAHJ3BWH","url":"https://gershmanlab.com/experiments/alicia/teaching/experiment/?hitId=3QGHA0EA0JM3KKNCY0PQRLYAHJ3BWH&workerId=AZNIEFUIVB2H0&assignmentId=33FOTY3KEN7VF8X96E12YYAL1Z8C1X&a=KTF38&tp_a=KTF38&b=33FOTY3KEN7VF8X96E12YYAL1Z8C1X&tp_b=33FOTY3KEN7VF8X96E12YYAL1Z8C1X&c=365198&tp_c=365198","firstResponseHeads":3,"firstResponseTails":3,"secondResponseHeads":2,"secondResponseTails":2,"studentIndex":9,"studentTrueHypers":{"a":4,"b":1},"studentGuess":0.6,"delta":0.09999999999999998,"bonus":0.4,"bonusSoFar":2.16,"totalExamples":10},{"rt":9642,"response":{"heads":"3","tails":"3"},"type":"response","condition":"nonSeqPartial","trueTheta":0.5,"classrooms":["A","B"],"studentTrueClassroom":"A","exampleSet":"first","trial_type":"survey-html-form","trial_index":93,"time_elapsed":1272612,"internal_node_id":"0.0-83.0-0.0","params":{"nStudents":24,"maxFlips":30,"completionMinutes":45,"basePay":8,"maxBonus":9,"perTrialBonus":0.5,"perTrialBonusThreshold":0.1,"exampleCost":0.01},"classroomParams":{"A":{"a":1,"b":4},"B":{"a":4,"b":1},"C":{"a":2,"b":8},"D":{"a":8,"b":2}},"conditions":["nonSeqFull","nonSeqPartial","seqNoFeedback","seqFeedback"],"classroomPairings":[["A","B"],["C","D"]],"coinWeights":[0.2,0.5,0.8],"subjectId":"AZNIEFUIVB2H0","assignmentId":"33FOTY3KEN7VF8X96E12YYAL1Z8C1X","hitId":"3QGHA0EA0JM3KKNCY0PQRLYAHJ3BWH","url":"https://gershmanlab.com/experiments/alicia/teaching/experiment/?hitId=3QGHA0EA0JM3KKNCY0PQRLYAHJ3BWH&workerId=AZNIEFUIVB2H0&assignmentId=33FOTY3KEN7VF8X96E12YYAL1Z8C1X&a=KTF38&tp_a=KTF38&b=33FOTY3KEN7VF8X96E12YYAL1Z8C1X&tp_b=33FOTY3KEN7VF8X96E12YYAL1Z8C1X&c=365198&tp_c=365198","heads":3,"tails":3,"studentIndex":10,"studentTrueHypers":{"a":1,"b":4},"studentGuess":0.36363636363636365,"delta":0.13636363636363635,"totalExamples":6,"bonus":0,"bonusSoFar":2.16},{"rt":10431,"response":{"heads":"10","tails":"0"},"type":"response","condition":"seqFeedback","trueTheta":0.2,"classrooms":["C","D"],"studentTrueClassroom":"C","exampleSet":"first","trial_type":"survey-html-form","trial_index":99,"time_elapsed":1297016,"internal_node_id":"0.0-89.0-0.0","params":{"nStudents":24,"maxFlips":30,"completionMinutes":45,"basePay":8,"maxBonus":9,"perTrialBonus":0.5,"perTrialBonusThreshold":0.1,"exampleCost":0.01},"classroomParams":{"A":{"a":1,"b":4},"B":{"a":4,"b":1},"C":{"a":2,"b":8},"D":{"a":8,"b":2}},"conditions":["nonSeqFull","nonSeqPartial","seqNoFeedback","seqFeedback"],"classroomPairings":[["A","B"],["C","D"]],"coinWeights":[0.2,0.5,0.8],"subjectId":"AZNIEFUIVB2H0","assignmentId":"33FOTY3KEN7VF8X96E12YYAL1Z8C1X","hitId":"3QGHA0EA0JM3KKNCY0PQRLYAHJ3BWH","url":"https://gershmanlab.com/experiments/alicia/teaching/experiment/?hitId=3QGHA0EA0JM3KKNCY0PQRLYAHJ3BWH&workerId=AZNIEFUIVB2H0&assignmentId=33FOTY3KEN7VF8X96E12YYAL1Z8C1X&a=KTF38&tp_a=KTF38&b=33FOTY3KEN7VF8X96E12YYAL1Z8C1X&tp_b=33FOTY3KEN7VF8X96E12YYAL1Z8C1X&c=365198&tp_c=365198","heads":10,"tails":0,"studentIndex":11,"studentTrueHypers":{"a":2,"b":8},"studentGuess":0.6,"delta":0.39999999999999997,"totalExamples":10,"bonusSoFar":2.16},{"rt":13169,"response":{"heads":"2","tails":"2"},"type":"response","condition":"seqFeedback","trueTheta":0.2,"classrooms":["C","D"],"studentTrueClassroom":"C","exampleSet":"second","trial_type":"survey-html-form","trial_index":103,"time_elapsed":1320062,"internal_node_id":"0.0-93.0-0.0","params":{"nStudents":24,"maxFlips":30,"completionMinutes":45,"basePay":8,"maxBonus":9,"perTrialBonus":0.5,"perTrialBonusThreshold":0.1,"exampleCost":0.01},"classroomParams":{"A":{"a":1,"b":4},"B":{"a":4,"b":1},"C":{"a":2,"b":8},"D":{"a":8,"b":2}},"conditions":["nonSeqFull","nonSeqPartial","seqNoFeedback","seqFeedback"],"classroomPairings":[["A","B"],["C","D"]],"coinWeights":[0.2,0.5,0.8],"subjectId":"AZNIEFUIVB2H0","assignmentId":"33FOTY3KEN7VF8X96E12YYAL1Z8C1X","hitId":"3QGHA0EA0JM3KKNCY0PQRLYAHJ3BWH","url":"https://gershmanlab.com/experiments/alicia/teaching/experiment/?hitId=3QGHA0EA0JM3KKNCY0PQRLYAHJ3BWH&workerId=AZNIEFUIVB2H0&assignmentId=33FOTY3KEN7VF8X96E12YYAL1Z8C1X&a=KTF38&tp_a=KTF38&b=33FOTY3KEN7VF8X96E12YYAL1Z8C1X&tp_b=33FOTY3KEN7VF8X96E12YYAL1Z8C1X&c=365198&tp_c=365198","firstResponseHeads":10,"firstResponseTails":0,"secondResponseHeads":2,"secondResponseTails":2,"studentIndex":11,"studentTrueHypers":{"a":2,"b":8},"studentGuess":0.5833333333333334,"delta":0.38333333333333336,"bonus":0,"bonusSoFar":2.16,"totalExamples":14},{"rt":28260,"response":{"heads":"12","tails":"9"},"type":"response","condition":"seqNoFeedback","trueTheta":0.8,"classrooms":["A","B"],"studentTrueClassroom":"A","exampleSet":"first","trial_type":"survey-html-form","trial_index":109,"time_elapsed":1362675,"internal_node_id":"0.0-99.0-0.0","params":{"nStudents":24,"maxFlips":30,"completionMinutes":45,"basePay":8,"maxBonus":9,"perTrialBonus":0.5,"perTrialBonusThreshold":0.1,"exampleCost":0.01},"classroomParams":{"A":{"a":1,"b":4},"B":{"a":4,"b":1},"C":{"a":2,"b":8},"D":{"a":8,"b":2}},"conditions":["nonSeqFull","nonSeqPartial","seqNoFeedback","seqFeedback"],"classroomPairings":[["A","B"],["C","D"]],"coinWeights":[0.2,0.5,0.8],"subjectId":"AZNIEFUIVB2H0","assignmentId":"33FOTY3KEN7VF8X96E12YYAL1Z8C1X","hitId":"3QGHA0EA0JM3KKNCY0PQRLYAHJ3BWH","url":"https://gershmanlab.com/experiments/alicia/teaching/experiment/?hitId=3QGHA0EA0JM3KKNCY0PQRLYAHJ3BWH&workerId=AZNIEFUIVB2H0&assignmentId=33FOTY3KEN7VF8X96E12YYAL1Z8C1X&a=KTF38&tp_a=KTF38&b=33FOTY3KEN7VF8X96E12YYAL1Z8C1X&tp_b=33FOTY3KEN7VF8X96E12YYAL1Z8C1X&c=365198&tp_c=365198","heads":12,"tails":9,"studentIndex":12,"studentTrueHypers":{"a":1,"b":4},"studentGuess":0.5,"delta":0.30000000000000004,"totalExamples":21,"bonusSoFar":2.16},{"rt":35100,"response":{"heads":"10","tails":"1"},"type":"response","condition":"seqNoFeedback","trueTheta":0.8,"classrooms":["A","B"],"studentTrueClassroom":"A","exampleSet":"second","trial_type":"survey-html-form","trial_index":112,"time_elapsed":1404549,"internal_node_id":"0.0-102.0-0.0","params":{"nStudents":24,"maxFlips":30,"completionMinutes":45,"basePay":8,"maxBonus":9,"perTrialBonus":0.5,"perTrialBonusThreshold":0.1,"exampleCost":0.01},"classroomParams":{"A":{"a":1,"b":4},"B":{"a":4,"b":1},"C":{"a":2,"b":8},"D":{"a":8,"b":2}},"conditions":["nonSeqFull","nonSeqPartial","seqNoFeedback","seqFeedback"],"classroomPairings":[["A","B"],["C","D"]],"coinWeights":[0.2,0.5,0.8],"subjectId":"AZNIEFUIVB2H0","assignmentId":"33FOTY3KEN7VF8X96E12YYAL1Z8C1X","hitId":"3QGHA0EA0JM3KKNCY0PQRLYAHJ3BWH","url":"https://gershmanlab.com/experiments/alicia/teaching/experiment/?hitId=3QGHA0EA0JM3KKNCY0PQRLYAHJ3BWH&workerId=AZNIEFUIVB2H0&assignmentId=33FOTY3KEN7VF8X96E12YYAL1Z8C1X&a=KTF38&tp_a=KTF38&b=33FOTY3KEN7VF8X96E12YYAL1Z8C1X&tp_b=33FOTY3KEN7VF8X96E12YYAL1Z8C1X&c=365198&tp_c=365198","firstResponseHeads":12,"firstResponseTails":9,"secondResponseHeads":10,"secondResponseTails":1,"studentIndex":12,"studentTrueHypers":{"a":1,"b":4},"studentGuess":0.6216216216216216,"delta":0.17837837837837844,"bonus":0,"bonusSoFar":2.16,"totalExamples":32},{"rt":6072,"response":{"heads":"3","tails":"0"},"type":"response","condition":"nonSeqFull","trueTheta":0.5,"classrooms":["A","B"],"studentTrueClassroom":"A","exampleSet":"first","trial_type":"survey-html-form","trial_index":118,"time_elapsed":1426209,"internal_node_id":"0.0-108.0-0.0","params":{"nStudents":24,"maxFlips":30,"completionMinutes":45,"basePay":8,"maxBonus":9,"perTrialBonus":0.5,"perTrialBonusThreshold":0.1,"exampleCost":0.01},"classroomParams":{"A":{"a":1,"b":4},"B":{"a":4,"b":1},"C":{"a":2,"b":8},"D":{"a":8,"b":2}},"conditions":["nonSeqFull","nonSeqPartial","seqNoFeedback","seqFeedback"],"classroomPairings":[["A","B"],["C","D"]],"coinWeights":[0.2,0.5,0.8],"subjectId":"AZNIEFUIVB2H0","assignmentId":"33FOTY3KEN7VF8X96E12YYAL1Z8C1X","hitId":"3QGHA0EA0JM3KKNCY0PQRLYAHJ3BWH","url":"https://gershmanlab.com/experiments/alicia/teaching/experiment/?hitId=3QGHA0EA0JM3KKNCY0PQRLYAHJ3BWH&workerId=AZNIEFUIVB2H0&assignmentId=33FOTY3KEN7VF8X96E12YYAL1Z8C1X&a=KTF38&tp_a=KTF38&b=33FOTY3KEN7VF8X96E12YYAL1Z8C1X&tp_b=33FOTY3KEN7VF8X96E12YYAL1Z8C1X&c=365198&tp_c=365198","heads":3,"tails":0,"studentIndex":13,"studentTrueHypers":{"a":1,"b":4},"studentGuess":0.5,"delta":0,"totalExamples":3,"bonus":0.47,"bonusSoFar":2.63},{"rt":45752,"response":{"heads":"0","tails":"11"},"type":"response","condition":"seqNoFeedback","trueTheta":0.2,"classrooms":["C","D"],"studentTrueClassroom":"D","exampleSet":"first","trial_type":"survey-html-form","trial_index":124,"time_elapsed":1485481,"internal_node_id":"0.0-114.0-0.0","params":{"nStudents":24,"maxFlips":30,"completionMinutes":45,"basePay":8,"maxBonus":9,"perTrialBonus":0.5,"perTrialBonusThreshold":0.1,"exampleCost":0.01},"classroomParams":{"A":{"a":1,"b":4},"B":{"a":4,"b":1},"C":{"a":2,"b":8},"D":{"a":8,"b":2}},"conditions":["nonSeqFull","nonSeqPartial","seqNoFeedback","seqFeedback"],"classroomPairings":[["A","B"],["C","D"]],"coinWeights":[0.2,0.5,0.8],"subjectId":"AZNIEFUIVB2H0","assignmentId":"33FOTY3KEN7VF8X96E12YYAL1Z8C1X","hitId":"3QGHA0EA0JM3KKNCY0PQRLYAHJ3BWH","url":"https://gershmanlab.com/experiments/alicia/teaching/experiment/?hitId=3QGHA0EA0JM3KKNCY0PQRLYAHJ3BWH&workerId=AZNIEFUIVB2H0&assignmentId=33FOTY3KEN7VF8X96E12YYAL1Z8C1X&a=KTF38&tp_a=KTF38&b=33FOTY3KEN7VF8X96E12YYAL1Z8C1X&tp_b=33FOTY3KEN7VF8X96E12YYAL1Z8C1X&c=365198&tp_c=365198","heads":0,"tails":11,"studentIndex":14,"studentTrueHypers":{"a":8,"b":2},"studentGuess":0.38095238095238093,"delta":0.18095238095238092,"totalExamples":11,"bonusSoFar":2.63},{"rt":4979,"response":{"heads":"0","tails":"13"},"type":"response","condition":"seqNoFeedback","trueTheta":0.2,"classrooms":["C","D"],"studentTrueClassroom":"D","exampleSet":"second","trial_type":"survey-html-form","trial_index":127,"time_elapsed":1495987,"internal_node_id":"0.0-117.0-0.0","params":{"nStudents":24,"maxFlips":30,"completionMinutes":45,"basePay":8,"maxBonus":9,"perTrialBonus":0.5,"perTrialBonusThreshold":0.1,"exampleCost":0.01},"classroomParams":{"A":{"a":1,"b":4},"B":{"a":4,"b":1},"C":{"a":2,"b":8},"D":{"a":8,"b":2}},"conditions":["nonSeqFull","nonSeqPartial","seqNoFeedback","seqFeedback"],"classroomPairings":[["A","B"],["C","D"]],"coinWeights":[0.2,0.5,0.8],"subjectId":"AZNIEFUIVB2H0","assignmentId":"33FOTY3KEN7VF8X96E12YYAL1Z8C1X","hitId":"3QGHA0EA0JM3KKNCY0PQRLYAHJ3BWH","url":"https://gershmanlab.com/experiments/alicia/teaching/experiment/?hitId=3QGHA0EA0JM3KKNCY0PQRLYAHJ3BWH&workerId=AZNIEFUIVB2H0&assignmentId=33FOTY3KEN7VF8X96E12YYAL1Z8C1X&a=KTF38&tp_a=KTF38&b=33FOTY3KEN7VF8X96E12YYAL1Z8C1X&tp_b=33FOTY3KEN7VF8X96E12YYAL1Z8C1X&c=365198&tp_c=365198","firstResponseHeads":0,"firstResponseTails":11,"secondResponseHeads":0,"secondResponseTails":13,"studentIndex":14,"studentTrueHypers":{"a":8,"b":2},"studentGuess":0.23529411764705882,"delta":0.03529411764705881,"bonus":0.26,"bonusSoFar":2.89,"totalExamples":24},{"rt":13861,"response":{"heads":"16","tails":"0"},"type":"response","condition":"seqFeedback","trueTheta":0.8,"classrooms":["C","D"],"studentTrueClassroom":"D","exampleSet":"first","trial_type":"survey-html-form","trial_index":133,"time_elapsed":1523804,"internal_node_id":"0.0-123.0-0.0","params":{"nStudents":24,"maxFlips":30,"completionMinutes":45,"basePay":8,"maxBonus":9,"perTrialBonus":0.5,"perTrialBonusThreshold":0.1,"exampleCost":0.01},"classroomParams":{"A":{"a":1,"b":4},"B":{"a":4,"b":1},"C":{"a":2,"b":8},"D":{"a":8,"b":2}},"conditions":["nonSeqFull","nonSeqPartial","seqNoFeedback","seqFeedback"],"classroomPairings":[["A","B"],["C","D"]],"coinWeights":[0.2,0.5,0.8],"subjectId":"AZNIEFUIVB2H0","assignmentId":"33FOTY3KEN7VF8X96E12YYAL1Z8C1X","hitId":"3QGHA0EA0JM3KKNCY0PQRLYAHJ3BWH","url":"https://gershmanlab.com/experiments/alicia/teaching/experiment/?hitId=3QGHA0EA0JM3KKNCY0PQRLYAHJ3BWH&workerId=AZNIEFUIVB2H0&assignmentId=33FOTY3KEN7VF8X96E12YYAL1Z8C1X&a=KTF38&tp_a=KTF38&b=33FOTY3KEN7VF8X96E12YYAL1Z8C1X&tp_b=33FOTY3KEN7VF8X96E12YYAL1Z8C1X&c=365198&tp_c=365198","heads":16,"tails":0,"studentIndex":15,"studentTrueHypers":{"a":8,"b":2},"studentGuess":0.9230769230769231,"delta":0.12307692307692308,"totalExamples":16,"bonusSoFar":2.89},{"rt":11657,"response":{"heads":"14","tails":"0"},"type":"response","condition":"seqFeedback","trueTheta":0.8,"classrooms":["C","D"],"studentTrueClassroom":"D","exampleSet":"second","trial_type":"survey-html-form","trial_index":137,"time_elapsed":1545523,"internal_node_id":"0.0-127.0-0.0","params":{"nStudents":24,"maxFlips":30,"completionMinutes":45,"basePay":8,"maxBonus":9,"perTrialBonus":0.5,"perTrialBonusThreshold":0.1,"exampleCost":0.01},"classroomParams":{"A":{"a":1,"b":4},"B":{"a":4,"b":1},"C":{"a":2,"b":8},"D":{"a":8,"b":2}},"conditions":["nonSeqFull","nonSeqPartial","seqNoFeedback","seqFeedback"],"classroomPairings":[["A","B"],["C","D"]],"coinWeights":[0.2,0.5,0.8],"subjectId":"AZNIEFUIVB2H0","assignmentId":"33FOTY3KEN7VF8X96E12YYAL1Z8C1X","hitId":"3QGHA0EA0JM3KKNCY0PQRLYAHJ3BWH","url":"https://gershmanlab.com/experiments/alicia/teaching/experiment/?hitId=3QGHA0EA0JM3KKNCY0PQRLYAHJ3BWH&workerId=AZNIEFUIVB2H0&assignmentId=33FOTY3KEN7VF8X96E12YYAL1Z8C1X&a=KTF38&tp_a=KTF38&b=33FOTY3KEN7VF8X96E12YYAL1Z8C1X&tp_b=33FOTY3KEN7VF8X96E12YYAL1Z8C1X&c=365198&tp_c=365198","firstResponseHeads":16,"firstResponseTails":0,"secondResponseHeads":14,"secondResponseTails":0,"studentIndex":15,"studentTrueHypers":{"a":8,"b":2},"studentGuess":0.95,"delta":0.1499999999999999,"bonus":0,"bonusSoFar":2.89,"totalExamples":30},{"rt":15057,"response":{"heads":"10","tails":"1"},"type":"response","condition":"seqFeedback","trueTheta":0.8,"classrooms":["A","B"],"studentTrueClassroom":"B","exampleSet":"first","trial_type":"survey-html-form","trial_index":143,"time_elapsed":1575576,"internal_node_id":"0.0-133.0-0.0","params":{"nStudents":24,"maxFlips":30,"completionMinutes":45,"basePay":8,"maxBonus":9,"perTrialBonus":0.5,"perTrialBonusThreshold":0.1,"exampleCost":0.01},"classroomParams":{"A":{"a":1,"b":4},"B":{"a":4,"b":1},"C":{"a":2,"b":8},"D":{"a":8,"b":2}},"conditions":["nonSeqFull","nonSeqPartial","seqNoFeedback","seqFeedback"],"classroomPairings":[["A","B"],["C","D"]],"coinWeights":[0.2,0.5,0.8],"subjectId":"AZNIEFUIVB2H0","assignmentId":"33FOTY3KEN7VF8X96E12YYAL1Z8C1X","hitId":"3QGHA0EA0JM3KKNCY0PQRLYAHJ3BWH","url":"https://gershmanlab.com/experiments/alicia/teaching/experiment/?hitId=3QGHA0EA0JM3KKNCY0PQRLYAHJ3BWH&workerId=AZNIEFUIVB2H0&assignmentId=33FOTY3KEN7VF8X96E12YYAL1Z8C1X&a=KTF38&tp_a=KTF38&b=33FOTY3KEN7VF8X96E12YYAL1Z8C1X&tp_b=33FOTY3KEN7VF8X96E12YYAL1Z8C1X&c=365198&tp_c=365198","heads":10,"tails":1,"studentIndex":16,"studentTrueHypers":{"a":4,"b":1},"studentGuess":0.875,"delta":0.07499999999999996,"totalExamples":11,"bonusSoFar":2.89},{"rt":16697,"response":{"heads":"10","tails":"0"},"type":"response","condition":"seqFeedback","trueTheta":0.8,"classrooms":["A","B"],"studentTrueClassroom":"B","exampleSet":"second","trial_type":"survey-html-form","trial_index":147,"time_elapsed":1600991,"internal_node_id":"0.0-137.0-0.0","params":{"nStudents":24,"maxFlips":30,"completionMinutes":45,"basePay":8,"maxBonus":9,"perTrialBonus":0.5,"perTrialBonusThreshold":0.1,"exampleCost":0.01},"classroomParams":{"A":{"a":1,"b":4},"B":{"a":4,"b":1},"C":{"a":2,"b":8},"D":{"a":8,"b":2}},"conditions":["nonSeqFull","nonSeqPartial","seqNoFeedback","seqFeedback"],"classroomPairings":[["A","B"],["C","D"]],"coinWeights":[0.2,0.5,0.8],"subjectId":"AZNIEFUIVB2H0","assignmentId":"33FOTY3KEN7VF8X96E12YYAL1Z8C1X","hitId":"3QGHA0EA0JM3KKNCY0PQRLYAHJ3BWH","url":"https://gershmanlab.com/experiments/alicia/teaching/experiment/?hitId=3QGHA0EA0JM3KKNCY0PQRLYAHJ3BWH&workerId=AZNIEFUIVB2H0&assignmentId=33FOTY3KEN7VF8X96E12YYAL1Z8C1X&a=KTF38&tp_a=KTF38&b=33FOTY3KEN7VF8X96E12YYAL1Z8C1X&tp_b=33FOTY3KEN7VF8X96E12YYAL1Z8C1X&c=365198&tp_c=365198","firstResponseHeads":10,"firstResponseTails":1,"secondResponseHeads":10,"secondResponseTails":0,"studentIndex":16,"studentTrueHypers":{"a":4,"b":1},"studentGuess":0.9230769230769231,"delta":0.12307692307692308,"bonus":0,"bonusSoFar":2.89,"totalExamples":21},{"rt":8948,"response":{"heads":"3","tails":"3"},"type":"response","condition":"seqNoFeedback","trueTheta":0.5,"classrooms":["A","B"],"studentTrueClassroom":"A","exampleSet":"first","trial_type":"survey-html-form","trial_index":153,"time_elapsed":1624640,"internal_node_id":"0.0-143.0-0.0","params":{"nStudents":24,"maxFlips":30,"completionMinutes":45,"basePay":8,"maxBonus":9,"perTrialBonus":0.5,"perTrialBonusThreshold":0.1,"exampleCost":0.01},"classroomParams":{"A":{"a":1,"b":4},"B":{"a":4,"b":1},"C":{"a":2,"b":8},"D":{"a":8,"b":2}},"conditions":["nonSeqFull","nonSeqPartial","seqNoFeedback","seqFeedback"],"classroomPairings":[["A","B"],["C","D"]],"coinWeights":[0.2,0.5,0.8],"subjectId":"AZNIEFUIVB2H0","assignmentId":"33FOTY3KEN7VF8X96E12YYAL1Z8C1X","hitId":"3QGHA0EA0JM3KKNCY0PQRLYAHJ3BWH","url":"https://gershmanlab.com/experiments/alicia/teaching/experiment/?hitId=3QGHA0EA0JM3KKNCY0PQRLYAHJ3BWH&workerId=AZNIEFUIVB2H0&assignmentId=33FOTY3KEN7VF8X96E12YYAL1Z8C1X&a=KTF38&tp_a=KTF38&b=33FOTY3KEN7VF8X96E12YYAL1Z8C1X&tp_b=33FOTY3KEN7VF8X96E12YYAL1Z8C1X&c=365198&tp_c=365198","heads":3,"tails":3,"studentIndex":17,"studentTrueHypers":{"a":1,"b":4},"studentGuess":0.36363636363636365,"delta":0.13636363636363635,"totalExamples":6,"bonusSoFar":2.89},{"rt":5991,"response":{"heads":"3","tails":"3"},"type":"response","condition":"seqNoFeedback","trueTheta":0.5,"classrooms":["A","B"],"studentTrueClassroom":"A","exampleSet":"second","trial_type":"survey-html-form","trial_index":156,"time_elapsed":1636408,"internal_node_id":"0.0-146.0-0.0","params":{"nStudents":24,"maxFlips":30,"completionMinutes":45,"basePay":8,"maxBonus":9,"perTrialBonus":0.5,"perTrialBonusThreshold":0.1,"exampleCost":0.01},"classroomParams":{"A":{"a":1,"b":4},"B":{"a":4,"b":1},"C":{"a":2,"b":8},"D":{"a":8,"b":2}},"conditions":["nonSeqFull","nonSeqPartial","seqNoFeedback","seqFeedback"],"classroomPairings":[["A","B"],["C","D"]],"coinWeights":[0.2,0.5,0.8],"subjectId":"AZNIEFUIVB2H0","assignmentId":"33FOTY3KEN7VF8X96E12YYAL1Z8C1X","hitId":"3QGHA0EA0JM3KKNCY0PQRLYAHJ3BWH","url":"https://gershmanlab.com/experiments/alicia/teaching/experiment/?hitId=3QGHA0EA0JM3KKNCY0PQRLYAHJ3BWH&workerId=AZNIEFUIVB2H0&assignmentId=33FOTY3KEN7VF8X96E12YYAL1Z8C1X&a=KTF38&tp_a=KTF38&b=33FOTY3KEN7VF8X96E12YYAL1Z8C1X&tp_b=33FOTY3KEN7VF8X96E12YYAL1Z8C1X&c=365198&tp_c=365198","firstResponseHeads":3,"firstResponseTails":3,"secondResponseHeads":3,"secondResponseTails":3,"studentIndex":17,"studentTrueHypers":{"a":1,"b":4},"studentGuess":0.4117647058823529,"delta":0.08823529411764708,"bonus":0.38,"bonusSoFar":3.27,"totalExamples":12},{"rt":21262,"response":{"heads":"0","tails":"7"},"type":"response","condition":"nonSeqFull","trueTheta":0.2,"classrooms":["A","B"],"studentTrueClassroom":"B","exampleSet":"first","trial_type":"survey-html-form","trial_index":162,"time_elapsed":1671609,"internal_node_id":"0.0-152.0-0.0","params":{"nStudents":24,"maxFlips":30,"completionMinutes":45,"basePay":8,"maxBonus":9,"perTrialBonus":0.5,"perTrialBonusThreshold":0.1,"exampleCost":0.01},"classroomParams":{"A":{"a":1,"b":4},"B":{"a":4,"b":1},"C":{"a":2,"b":8},"D":{"a":8,"b":2}},"conditions":["nonSeqFull","nonSeqPartial","seqNoFeedback","seqFeedback"],"classroomPairings":[["A","B"],["C","D"]],"coinWeights":[0.2,0.5,0.8],"subjectId":"AZNIEFUIVB2H0","assignmentId":"33FOTY3KEN7VF8X96E12YYAL1Z8C1X","hitId":"3QGHA0EA0JM3KKNCY0PQRLYAHJ3BWH","url":"https://gershmanlab.com/experiments/alicia/teaching/experiment/?hitId=3QGHA0EA0JM3KKNCY0PQRLYAHJ3BWH&workerId=AZNIEFUIVB2H0&assignmentId=33FOTY3KEN7VF8X96E12YYAL1Z8C1X&a=KTF38&tp_a=KTF38&b=33FOTY3KEN7VF8X96E12YYAL1Z8C1X&tp_b=33FOTY3KEN7VF8X96E12YYAL1Z8C1X&c=365198&tp_c=365198","heads":0,"tails":7,"studentIndex":18,"studentTrueHypers":{"a":4,"b":1},"studentGuess":0.3333333333333333,"delta":0.1333333333333333,"totalExamples":7,"bonus":0,"bonusSoFar":3.27},{"rt":17657,"response":{"heads":"2","tails":"8"},"type":"response","condition":"nonSeqFull","trueTheta":0.8,"classrooms":["C","D"],"studentTrueClassroom":"C","exampleSet":"first","trial_type":"survey-html-form","trial_index":168,"time_elapsed":1701230,"internal_node_id":"0.0-158.0-0.0","params":{"nStudents":24,"maxFlips":30,"completionMinutes":45,"basePay":8,"maxBonus":9,"perTrialBonus":0.5,"perTrialBonusThreshold":0.1,"exampleCost":0.01},"classroomParams":{"A":{"a":1,"b":4},"B":{"a":4,"b":1},"C":{"a":2,"b":8},"D":{"a":8,"b":2}},"conditions":["nonSeqFull","nonSeqPartial","seqNoFeedback","seqFeedback"],"classroomPairings":[["A","B"],["C","D"]],"coinWeights":[0.2,0.5,0.8],"subjectId":"AZNIEFUIVB2H0","assignmentId":"33FOTY3KEN7VF8X96E12YYAL1Z8C1X","hitId":"3QGHA0EA0JM3KKNCY0PQRLYAHJ3BWH","url":"https://gershmanlab.com/experiments/alicia/teaching/experiment/?hitId=3QGHA0EA0JM3KKNCY0PQRLYAHJ3BWH&workerId=AZNIEFUIVB2H0&assignmentId=33FOTY3KEN7VF8X96E12YYAL1Z8C1X&a=KTF38&tp_a=KTF38&b=33FOTY3KEN7VF8X96E12YYAL1Z8C1X&tp_b=33FOTY3KEN7VF8X96E12YYAL1Z8C1X&c=365198&tp_c=365198","heads":2,"tails":8,"studentIndex":19,"studentTrueHypers":{"a":2,"b":8},"studentGuess":0.2,"delta":0.6000000000000001,"totalExamples":10,"bonus":0,"bonusSoFar":3.27},{"rt":11840,"response":{"heads":"6","tails":"6"},"type":"response","condition":"nonSeqPartial","trueTheta":0.5,"classrooms":["C","D"],"studentTrueClassroom":"D","exampleSet":"first","trial_type":"survey-html-form","trial_index":174,"time_elapsed":1725415,"internal_node_id":"0.0-164.0-0.0","params":{"nStudents":24,"maxFlips":30,"completionMinutes":45,"basePay":8,"maxBonus":9,"perTrialBonus":0.5,"perTrialBonusThreshold":0.1,"exampleCost":0.01},"classroomParams":{"A":{"a":1,"b":4},"B":{"a":4,"b":1},"C":{"a":2,"b":8},"D":{"a":8,"b":2}},"conditions":["nonSeqFull","nonSeqPartial","seqNoFeedback","seqFeedback"],"classroomPairings":[["A","B"],["C","D"]],"coinWeights":[0.2,0.5,0.8],"subjectId":"AZNIEFUIVB2H0","assignmentId":"33FOTY3KEN7VF8X96E12YYAL1Z8C1X","hitId":"3QGHA0EA0JM3KKNCY0PQRLYAHJ3BWH","url":"https://gershmanlab.com/experiments/alicia/teaching/experiment/?hitId=3QGHA0EA0JM3KKNCY0PQRLYAHJ3BWH&workerId=AZNIEFUIVB2H0&assignmentId=33FOTY3KEN7VF8X96E12YYAL1Z8C1X&a=KTF38&tp_a=KTF38&b=33FOTY3KEN7VF8X96E12YYAL1Z8C1X&tp_b=33FOTY3KEN7VF8X96E12YYAL1Z8C1X&c=365198&tp_c=365198","heads":6,"tails":6,"studentIndex":20,"studentTrueHypers":{"a":8,"b":2},"studentGuess":0.6363636363636364,"delta":0.13636363636363635,"totalExamples":12,"bonus":0,"bonusSoFar":3.27},{"rt":7621,"response":{"heads":"0","tails":"8"},"type":"response","condition":"seqFeedback","trueTheta":0.2,"classrooms":["A","B"],"studentTrueClassroom":"A","exampleSet":"first","trial_type":"survey-html-form","trial_index":180,"time_elapsed":1751367,"internal_node_id":"0.0-170.0-0.0","params":{"nStudents":24,"maxFlips":30,"completionMinutes":45,"basePay":8,"maxBonus":9,"perTrialBonus":0.5,"perTrialBonusThreshold":0.1,"exampleCost":0.01},"classroomParams":{"A":{"a":1,"b":4},"B":{"a":4,"b":1},"C":{"a":2,"b":8},"D":{"a":8,"b":2}},"conditions":["nonSeqFull","nonSeqPartial","seqNoFeedback","seqFeedback"],"classroomPairings":[["A","B"],["C","D"]],"coinWeights":[0.2,0.5,0.8],"subjectId":"AZNIEFUIVB2H0","assignmentId":"33FOTY3KEN7VF8X96E12YYAL1Z8C1X","hitId":"3QGHA0EA0JM3KKNCY0PQRLYAHJ3BWH","url":"https://gershmanlab.com/experiments/alicia/teaching/experiment/?hitId=3QGHA0EA0JM3KKNCY0PQRLYAHJ3BWH&workerId=AZNIEFUIVB2H0&assignmentId=33FOTY3KEN7VF8X96E12YYAL1Z8C1X&a=KTF38&tp_a=KTF38&b=33FOTY3KEN7VF8X96E12YYAL1Z8C1X&tp_b=33FOTY3KEN7VF8X96E12YYAL1Z8C1X&c=365198&tp_c=365198","heads":0,"tails":8,"studentIndex":21,"studentTrueHypers":{"a":1,"b":4},"studentGuess":0.07692307692307693,"delta":0.12307692307692308,"totalExamples":8,"bonusSoFar":3.27},{"rt":16590,"response":{"heads":"0","tails":"7"},"type":"response","condition":"seqFeedback","trueTheta":0.2,"classrooms":["A","B"],"studentTrueClassroom":"A","exampleSet":"second","trial_type":"survey-html-form","trial_index":184,"time_elapsed":1778108,"internal_node_id":"0.0-174.0-0.0","params":{"nStudents":24,"maxFlips":30,"completionMinutes":45,"basePay":8,"maxBonus":9,"perTrialBonus":0.5,"perTrialBonusThreshold":0.1,"exampleCost":0.01},"classroomParams":{"A":{"a":1,"b":4},"B":{"a":4,"b":1},"C":{"a":2,"b":8},"D":{"a":8,"b":2}},"conditions":["nonSeqFull","nonSeqPartial","seqNoFeedback","seqFeedback"],"classroomPairings":[["A","B"],["C","D"]],"coinWeights":[0.2,0.5,0.8],"subjectId":"AZNIEFUIVB2H0","assignmentId":"33FOTY3KEN7VF8X96E12YYAL1Z8C1X","hitId":"3QGHA0EA0JM3KKNCY0PQRLYAHJ3BWH","url":"https://gershmanlab.com/experiments/alicia/teaching/experiment/?hitId=3QGHA0EA0JM3KKNCY0PQRLYAHJ3BWH&workerId=AZNIEFUIVB2H0&assignmentId=33FOTY3KEN7VF8X96E12YYAL1Z8C1X&a=KTF38&tp_a=KTF38&b=33FOTY3KEN7VF8X96E12YYAL1Z8C1X&tp_b=33FOTY3KEN7VF8X96E12YYAL1Z8C1X&c=365198&tp_c=365198","firstResponseHeads":0,"firstResponseTails":8,"secondResponseHeads":0,"secondResponseTails":7,"studentIndex":21,"studentTrueHypers":{"a":1,"b":4},"studentGuess":0.05,"delta":0.15000000000000002,"bonus":0,"bonusSoFar":3.27,"totalExamples":15},{"rt":12379,"response":{"heads":"2","tails":"8"},"type":"response","condition":"nonSeqPartial","trueTheta":0.8,"classrooms":["A","B"],"studentTrueClassroom":"A","exampleSet":"first","trial_type":"survey-html-form","trial_index":190,"time_elapsed":1807889,"internal_node_id":"0.0-180.0-0.0","params":{"nStudents":24,"maxFlips":30,"completionMinutes":45,"basePay":8,"maxBonus":9,"perTrialBonus":0.5,"perTrialBonusThreshold":0.1,"exampleCost":0.01},"classroomParams":{"A":{"a":1,"b":4},"B":{"a":4,"b":1},"C":{"a":2,"b":8},"D":{"a":8,"b":2}},"conditions":["nonSeqFull","nonSeqPartial","seqNoFeedback","seqFeedback"],"classroomPairings":[["A","B"],["C","D"]],"coinWeights":[0.2,0.5,0.8],"subjectId":"AZNIEFUIVB2H0","assignmentId":"33FOTY3KEN7VF8X96E12YYAL1Z8C1X","hitId":"3QGHA0EA0JM3KKNCY0PQRLYAHJ3BWH","url":"https://gershmanlab.com/experiments/alicia/teaching/experiment/?hitId=3QGHA0EA0JM3KKNCY0PQRLYAHJ3BWH&workerId=AZNIEFUIVB2H0&assignmentId=33FOTY3KEN7VF8X96E12YYAL1Z8C1X&a=KTF38&tp_a=KTF38&b=33FOTY3KEN7VF8X96E12YYAL1Z8C1X&tp_b=33FOTY3KEN7VF8X96E12YYAL1Z8C1X&c=365198&tp_c=365198","heads":2,"tails":8,"studentIndex":22,"studentTrueHypers":{"a":1,"b":4},"studentGuess":0.2,"delta":0.6000000000000001,"totalExamples":10,"bonus":0,"bonusSoFar":3.27},{"rt":14194,"response":{"heads":"20","tails":"5"},"type":"response","condition":"nonSeqFull","trueTheta":0.8,"classrooms":["A","B"],"studentTrueClassroom":"B","exampleSet":"first","trial_type":"survey-html-form","trial_index":196,"time_elapsed":1833891,"internal_node_id":"0.0-186.0-0.0","params":{"nStudents":24,"maxFlips":30,"completionMinutes":45,"basePay":8,"maxBonus":9,"perTrialBonus":0.5,"perTrialBonusThreshold":0.1,"exampleCost":0.01},"classroomParams":{"A":{"a":1,"b":4},"B":{"a":4,"b":1},"C":{"a":2,"b":8},"D":{"a":8,"b":2}},"conditions":["nonSeqFull","nonSeqPartial","seqNoFeedback","seqFeedback"],"classroomPairings":[["A","B"],["C","D"]],"coinWeights":[0.2,0.5,0.8],"subjectId":"AZNIEFUIVB2H0","assignmentId":"33FOTY3KEN7VF8X96E12YYAL1Z8C1X","hitId":"3QGHA0EA0JM3KKNCY0PQRLYAHJ3BWH","url":"https://gershmanlab.com/experiments/alicia/teaching/experiment/?hitId=3QGHA0EA0JM3KKNCY0PQRLYAHJ3BWH&workerId=AZNIEFUIVB2H0&assignmentId=33FOTY3KEN7VF8X96E12YYAL1Z8C1X&a=KTF38&tp_a=KTF38&b=33FOTY3KEN7VF8X96E12YYAL1Z8C1X&tp_b=33FOTY3KEN7VF8X96E12YYAL1Z8C1X&c=365198&tp_c=365198","heads":20,"tails":5,"studentIndex":23,"studentTrueHypers":{"a":4,"b":1},"studentGuess":0.8,"delta":0,"totalExamples":25,"bonus":0.25,"bonusSoFar":3.52},{"rt":7686,"response":{"gender":"male","age":"54","understood":"yes","comments":""},"type":"response","trial_type":"survey-html-form","trial_index":200,"time_elapsed":1851541,"internal_node_id":"0.0-191.0","params":{"nStudents":24,"maxFlips":30,"completionMinutes":45,"basePay":8,"maxBonus":9,"perTrialBonus":0.5,"perTrialBonusThreshold":0.1,"exampleCost":0.01},"classroomParams":{"A":{"a":1,"b":4},"B":{"a":4,"b":1},"C":{"a":2,"b":8},"D":{"a":8,"b":2}},"conditions":["nonSeqFull","nonSeqPartial","seqNoFeedback","seqFeedback"],"classroomPairings":[["A","B"],["C","D"]],"coinWeights":[0.2,0.5,0.8],"subjectId":"AZNIEFUIVB2H0","assignmentId":"33FOTY3KEN7VF8X96E12YYAL1Z8C1X","hitId":"3QGHA0EA0JM3KKNCY0PQRLYAHJ3BWH","url":"https://gershmanlab.com/experiments/alicia/teaching/experiment/?hitId=3QGHA0EA0JM3KKNCY0PQRLYAHJ3BWH&workerId=AZNIEFUIVB2H0&assignmentId=33FOTY3KEN7VF8X96E12YYAL1Z8C1X&a=KTF38&tp_a=KTF38&b=33FOTY3KEN7VF8X96E12YYAL1Z8C1X&tp_b=33FOTY3KEN7VF8X96E12YYAL1Z8C1X&c=365198&tp_c=365198","totalBonus":3.52}]