[{"rt":2791,"stimulus":"Welcome to the experiment. Press any key to begin.","response":"arrowup","trial_type":"html-keyboard-response","trial_index":0,"time_elapsed":2801,"internal_node_id":"0.0-0.0","params":{"nStudents":24,"maxFlips":30,"completionMinutes":45,"basePay":8,"maxBonus":9,"perTrialBonus":0.5,"perTrialBonusThreshold":0.05,"exampleCost":0.01},"classroomParams":{"A":{"a":1,"b":4},"B":{"a":4,"b":1},"C":{"a":2,"b":8},"D":{"a":8,"b":2}},"conditions":["nonSeqFull","nonSeqPartial","seqNoFeedback","seqFeedback"],"classroomPairings":[["A","B"],["C","D"]],"coinWeights":[0.2,0.5,0.8],"subjectId":"A107RJSS561Y7R","assignmentId":"34MAJL3QP59OU7Y903933TDU8PK34L","hitId":"34XASH8KLQ89J2U8D314D7180O4PMV","url":"https://gershmanlab.com/experiments/alicia/teaching/experiment/?hitId=34XASH8KLQ89J2U8D314D7180O4PMV&workerId=A107RJSS561Y7R&assignmentId=34MAJL3QP59OU7Y903933TDU8PK34L&a=QJM47&tp_a=QJM47&b=34MAJL3QP59OU7Y903933TDU8PK34L&tp_b=34MAJL3QP59OU7Y903933TDU8PK34L&c=365717&tp_c=365717"},{"rt":7740,"stimulus":"\n        <h3>Please read this consent agreement carefully before deciding whether to participate in this experiment.</h3>\n        <p><b>Purpose of the research:</b> To examine how people teach effectively.</p>\n        <p><b>What you will do in this research:</b> You will teach students the weights of different coins.</p>\n        <p><b>Time required:</b> This experiment will take 45 minutes to complete.</p>\n        <p><b>Risks:</b> There are no anticipated risks associated with participating in this study.             The effects of participating should be comparable to those you would experience from viewing a computer monitor             and using a mouse and keyboard for the duration of the experiment.</p>\n        <p><b>Benefits:</b> The study provides important information about the nature of teaching.</p>\n        <p><b>Compensation:</b> You will receive <b>$8</b> for completing the experiment and a performance bonus of up to <b>$9</b>.</p>\n        <p><b>Confidentiality:</b> Your participation in this study will remain confidential.             No personally identifiable information will be associated with your data.             Your de-identified data may be shared with other researchers and used in future projects.</p>\n        <p><b>Participation and withdrawal:</b> Your participation in this study is completely voluntary and             you may refuse to participate or you may choose to withdraw at any time without penalty or loss of\n            benefits to which you are otherwise entitled.</p>\n        <p><b>How to contact the researcher:</b> If you have questions or concerns about your participation            or payment, or want to request a summary of research findings, please contact\n            Alicia Chen, aliciachen@college.harvard.edu.</p>\n        <p><b>Whom to contact about your rights in this research:</b> For questions, concerns, suggestions,             or complaints that have not been or cannot be addressed by the researcher, or to report             research-related harm, please contact the Committee on the Use of Human Subjects in Research at Harvard University,             1414 Massachusetts Avenue, Second Floor, Cambridge, MA 02138. Phone: 617-496-2847. Email: cuhs@fas.harvard.edu.</p>\n        ","response":0,"trial_type":"html-button-response","trial_index":1,"time_elapsed":10543,"internal_node_id":"0.0-1.0","params":{"nStudents":24,"maxFlips":30,"completionMinutes":45,"basePay":8,"maxBonus":9,"perTrialBonus":0.5,"perTrialBonusThreshold":0.05,"exampleCost":0.01},"classroomParams":{"A":{"a":1,"b":4},"B":{"a":4,"b":1},"C":{"a":2,"b":8},"D":{"a":8,"b":2}},"conditions":["nonSeqFull","nonSeqPartial","seqNoFeedback","seqFeedback"],"classroomPairings":[["A","B"],["C","D"]],"coinWeights":[0.2,0.5,0.8],"subjectId":"A107RJSS561Y7R","assignmentId":"34MAJL3QP59OU7Y903933TDU8PK34L","hitId":"34XASH8KLQ89J2U8D314D7180O4PMV","url":"https://gershmanlab.com/experiments/alicia/teaching/experiment/?hitId=34XASH8KLQ89J2U8D314D7180O4PMV&workerId=A107RJSS561Y7R&assignmentId=34MAJL3QP59OU7Y903933TDU8PK34L&a=QJM47&tp_a=QJM47&b=34MAJL3QP59OU7Y903933TDU8PK34L&tp_b=34MAJL3QP59OU7Y903933TDU8PK34L&c=365717&tp_c=365717"},{"view_history":[{"page_index":0,"viewing_time":5766},{"page_index":1,"viewing_time":4725},{"page_index":2,"viewing_time":63827},{"page_index":3,"viewing_time":18525},{"page_index":4,"viewing_time":14558},{"page_index":5,"viewing_time":33414},{"page_index":6,"viewing_time":49937}],"rt":190753,"trial_type":"instructions","trial_index":2,"time_elapsed":201296,"internal_node_id":"0.0-2.0-0.0","params":{"nStudents":24,"maxFlips":30,"completionMinutes":45,"basePay":8,"maxBonus":9,"perTrialBonus":0.5,"perTrialBonusThreshold":0.05,"exampleCost":0.01},"classroomParams":{"A":{"a":1,"b":4},"B":{"a":4,"b":1},"C":{"a":2,"b":8},"D":{"a":8,"b":2}},"conditions":["nonSeqFull","nonSeqPartial","seqNoFeedback","seqFeedback"],"classroomPairings":[["A","B"],["C","D"]],"coinWeights":[0.2,0.5,0.8],"subjectId":"A107RJSS561Y7R","assignmentId":"34MAJL3QP59OU7Y903933TDU8PK34L","hitId":"34XASH8KLQ89J2U8D314D7180O4PMV","url":"https://gershmanlab.com/experiments/alicia/teaching/experiment/?hitId=34XASH8KLQ89J2U8D314D7180O4PMV&workerId=A107RJSS561Y7R&assignmentId=34MAJL3QP59OU7Y903933TDU8PK34L&a=QJM47&tp_a=QJM47&b=34MAJL3QP59OU7Y903933TDU8PK34L&tp_b=34MAJL3QP59OU7Y903933TDU8PK34L&c=365717&tp_c=365717"},{"rt":102149,"response":{"Q0":"Students in different classrooms will have seen a different number of heads and tails before seeing the examples you select for them.","Q1":"By <b>considering the student's classroom information</b> so that I can teach efficiently and accurately/helpfully at the same time (because each example I give to the student costs money!).","Q2":"The coin lands heads 90% of the time.","Q3":"Yes, I might encounter the same student twice.","Q4":"The students are also on the same alien planet as you, where coins can be unfair.","Q5":"Based on the student's second (and final) guess."},"question_order":[2,4,0,3,5,1],"trial_type":"survey-multi-choice","trial_index":3,"time_elapsed":303447,"internal_node_id":"0.0-2.0-1.0","params":{"nStudents":24,"maxFlips":30,"completionMinutes":45,"basePay":8,"maxBonus":9,"perTrialBonus":0.5,"perTrialBonusThreshold":0.05,"exampleCost":0.01},"classroomParams":{"A":{"a":1,"b":4},"B":{"a":4,"b":1},"C":{"a":2,"b":8},"D":{"a":8,"b":2}},"conditions":["nonSeqFull","nonSeqPartial","seqNoFeedback","seqFeedback"],"classroomPairings":[["A","B"],["C","D"]],"coinWeights":[0.2,0.5,0.8],"subjectId":"A107RJSS561Y7R","assignmentId":"34MAJL3QP59OU7Y903933TDU8PK34L","hitId":"34XASH8KLQ89J2U8D314D7180O4PMV","url":"https://gershmanlab.com/experiments/alicia/teaching/experiment/?hitId=34XASH8KLQ89J2U8D314D7180O4PMV&workerId=A107RJSS561Y7R&assignmentId=34MAJL3QP59OU7Y903933TDU8PK34L&a=QJM47&tp_a=QJM47&b=34MAJL3QP59OU7Y903933TDU8PK34L&tp_b=34MAJL3QP59OU7Y903933TDU8PK34L&c=365717&tp_c=365717","pass":false},{"rt":2546,"stimulus":"Oops, you have missed question(s) on the comprehension check! We'll show you the instructions again.","response":0,"trial_type":"html-button-response","trial_index":4,"time_elapsed":305997,"internal_node_id":"0.0-2.0-2.0-0.0","params":{"nStudents":24,"maxFlips":30,"completionMinutes":45,"basePay":8,"maxBonus":9,"perTrialBonus":0.5,"perTrialBonusThreshold":0.05,"exampleCost":0.01},"classroomParams":{"A":{"a":1,"b":4},"B":{"a":4,"b":1},"C":{"a":2,"b":8},"D":{"a":8,"b":2}},"conditions":["nonSeqFull","nonSeqPartial","seqNoFeedback","seqFeedback"],"classroomPairings":[["A","B"],["C","D"]],"coinWeights":[0.2,0.5,0.8],"subjectId":"A107RJSS561Y7R","assignmentId":"34MAJL3QP59OU7Y903933TDU8PK34L","hitId":"34XASH8KLQ89J2U8D314D7180O4PMV","url":"https://gershmanlab.com/experiments/alicia/teaching/experiment/?hitId=34XASH8KLQ89J2U8D314D7180O4PMV&workerId=A107RJSS561Y7R&assignmentId=34MAJL3QP59OU7Y903933TDU8PK34L&a=QJM47&tp_a=QJM47&b=34MAJL3QP59OU7Y903933TDU8PK34L&tp_b=34MAJL3QP59OU7Y903933TDU8PK34L&c=365717&tp_c=365717"},{"view_history":[{"page_index":0,"viewing_time":4570},{"page_index":1,"viewing_time":2217},{"page_index":0,"viewing_time":2671},{"page_index":1,"viewing_time":3096},{"page_index":2,"viewing_time":19332},{"page_index":3,"viewing_time":5472},{"page_index":2,"viewing_time":2363},{"page_index":3,"viewing_time":675},{"page_index":4,"viewing_time":5923},{"page_index":5,"viewing_time":2567},{"page_index":6,"viewing_time":1343}],"rt":50228,"trial_type":"instructions","trial_index":5,"time_elapsed":356226,"internal_node_id":"0.0-2.1-0.1","params":{"nStudents":24,"maxFlips":30,"completionMinutes":45,"basePay":8,"maxBonus":9,"perTrialBonus":0.5,"perTrialBonusThreshold":0.05,"exampleCost":0.01},"classroomParams":{"A":{"a":1,"b":4},"B":{"a":4,"b":1},"C":{"a":2,"b":8},"D":{"a":8,"b":2}},"conditions":["nonSeqFull","nonSeqPartial","seqNoFeedback","seqFeedback"],"classroomPairings":[["A","B"],["C","D"]],"coinWeights":[0.2,0.5,0.8],"subjectId":"A107RJSS561Y7R","assignmentId":"34MAJL3QP59OU7Y903933TDU8PK34L","hitId":"34XASH8KLQ89J2U8D314D7180O4PMV","url":"https://gershmanlab.com/experiments/alicia/teaching/experiment/?hitId=34XASH8KLQ89J2U8D314D7180O4PMV&workerId=A107RJSS561Y7R&assignmentId=34MAJL3QP59OU7Y903933TDU8PK34L&a=QJM47&tp_a=QJM47&b=34MAJL3QP59OU7Y903933TDU8PK34L&tp_b=34MAJL3QP59OU7Y903933TDU8PK34L&c=365717&tp_c=365717"},{"rt":47227,"response":{"Q0":"Students in different classrooms will have seen a different number of heads and tails before seeing the examples you select for them.","Q1":"By <b>considering the student's classroom information</b> so that I can teach efficiently and accurately/helpfully at the same time (because each example I give to the student costs money!).","Q2":"The coin lands heads 90% of the time.","Q3":"No, I will teach a <b>new</b> student each time.","Q4":"The students are also on the same alien planet as you, where coins can be unfair.","Q5":"Based on the student's second (and final) guess."},"question_order":[1,2,5,3,4,0],"trial_type":"survey-multi-choice","trial_index":6,"time_elapsed":403454,"internal_node_id":"0.0-2.1-1.1","params":{"nStudents":24,"maxFlips":30,"completionMinutes":45,"basePay":8,"maxBonus":9,"perTrialBonus":0.5,"perTrialBonusThreshold":0.05,"exampleCost":0.01},"classroomParams":{"A":{"a":1,"b":4},"B":{"a":4,"b":1},"C":{"a":2,"b":8},"D":{"a":8,"b":2}},"conditions":["nonSeqFull","nonSeqPartial","seqNoFeedback","seqFeedback"],"classroomPairings":[["A","B"],["C","D"]],"coinWeights":[0.2,0.5,0.8],"subjectId":"A107RJSS561Y7R","assignmentId":"34MAJL3QP59OU7Y903933TDU8PK34L","hitId":"34XASH8KLQ89J2U8D314D7180O4PMV","url":"https://gershmanlab.com/experiments/alicia/teaching/experiment/?hitId=34XASH8KLQ89J2U8D314D7180O4PMV&workerId=A107RJSS561Y7R&assignmentId=34MAJL3QP59OU7Y903933TDU8PK34L&a=QJM47&tp_a=QJM47&b=34MAJL3QP59OU7Y903933TDU8PK34L&tp_b=34MAJL3QP59OU7Y903933TDU8PK34L&c=365717&tp_c=365717","pass":true},{"rt":null,"stimulus":"<div style=\"font-size:30px;\">Congrats on passing the comprehension quiz! The experiment will begin in a few seconds.</div>","response":null,"trial_type":"html-keyboard-response","trial_index":7,"time_elapsed":406458,"internal_node_id":"0.0-3.0","params":{"nStudents":24,"maxFlips":30,"completionMinutes":45,"basePay":8,"maxBonus":9,"perTrialBonus":0.5,"perTrialBonusThreshold":0.05,"exampleCost":0.01},"classroomParams":{"A":{"a":1,"b":4},"B":{"a":4,"b":1},"C":{"a":2,"b":8},"D":{"a":8,"b":2}},"conditions":["nonSeqFull","nonSeqPartial","seqNoFeedback","seqFeedback"],"classroomPairings":[["A","B"],["C","D"]],"coinWeights":[0.2,0.5,0.8],"subjectId":"A107RJSS561Y7R","assignmentId":"34MAJL3QP59OU7Y903933TDU8PK34L","hitId":"34XASH8KLQ89J2U8D314D7180O4PMV","url":"https://gershmanlab.com/experiments/alicia/teaching/experiment/?hitId=34XASH8KLQ89J2U8D314D7180O4PMV&workerId=A107RJSS561Y7R&assignmentId=34MAJL3QP59OU7Y903933TDU8PK34L&a=QJM47&tp_a=QJM47&b=34MAJL3QP59OU7Y903933TDU8PK34L&tp_b=34MAJL3QP59OU7Y903933TDU8PK34L&c=365717&tp_c=365717"},{"rt":null,"stimulus":"<div style=\"font-size:50px;\">First student</div>","response":null,"trial_type":"html-keyboard-response","trial_index":8,"time_elapsed":409461,"internal_node_id":"0.0-4.0","params":{"nStudents":24,"maxFlips":30,"completionMinutes":45,"basePay":8,"maxBonus":9,"perTrialBonus":0.5,"perTrialBonusThreshold":0.05,"exampleCost":0.01},"classroomParams":{"A":{"a":1,"b":4},"B":{"a":4,"b":1},"C":{"a":2,"b":8},"D":{"a":8,"b":2}},"conditions":["nonSeqFull","nonSeqPartial","seqNoFeedback","seqFeedback"],"classroomPairings":[["A","B"],["C","D"]],"coinWeights":[0.2,0.5,0.8],"subjectId":"A107RJSS561Y7R","assignmentId":"34MAJL3QP59OU7Y903933TDU8PK34L","hitId":"34XASH8KLQ89J2U8D314D7180O4PMV","url":"https://gershmanlab.com/experiments/alicia/teaching/experiment/?hitId=34XASH8KLQ89J2U8D314D7180O4PMV&workerId=A107RJSS561Y7R&assignmentId=34MAJL3QP59OU7Y903933TDU8PK34L&a=QJM47&tp_a=QJM47&b=34MAJL3QP59OU7Y903933TDU8PK34L&tp_b=34MAJL3QP59OU7Y903933TDU8PK34L&c=365717&tp_c=365717"},{"rt":37660,"stimulus":"\n            <h4 style=\"color:Orange;\">Student 1</h4>\n            <h2>The weight of your coin is <b style=\"color:Tomato;\">0.2</b>.</h2>\n            <p>In this block, you will be giving <b>two</b> sets of examples to Student 1.</p>\n                <p>You will see the student's guess after the first set of examples. You will also receive feedback at the end of the block.</p>\n            <p>To earn the highest bonus, you will have to <b>take into consideration the student's guess</b> when you choose your second set of examples.</p>","response":0,"trial_type":"html-button-response","trial_index":9,"time_elapsed":447122,"internal_node_id":"0.0-5.0","params":{"nStudents":24,"maxFlips":30,"completionMinutes":45,"basePay":8,"maxBonus":9,"perTrialBonus":0.5,"perTrialBonusThreshold":0.05,"exampleCost":0.01},"classroomParams":{"A":{"a":1,"b":4},"B":{"a":4,"b":1},"C":{"a":2,"b":8},"D":{"a":8,"b":2}},"conditions":["nonSeqFull","nonSeqPartial","seqNoFeedback","seqFeedback"],"classroomPairings":[["A","B"],["C","D"]],"coinWeights":[0.2,0.5,0.8],"subjectId":"A107RJSS561Y7R","assignmentId":"34MAJL3QP59OU7Y903933TDU8PK34L","hitId":"34XASH8KLQ89J2U8D314D7180O4PMV","url":"https://gershmanlab.com/experiments/alicia/teaching/experiment/?hitId=34XASH8KLQ89J2U8D314D7180O4PMV&workerId=A107RJSS561Y7R&assignmentId=34MAJL3QP59OU7Y903933TDU8PK34L&a=QJM47&tp_a=QJM47&b=34MAJL3QP59OU7Y903933TDU8PK34L&tp_b=34MAJL3QP59OU7Y903933TDU8PK34L&c=365717&tp_c=365717"},{"rt":62396,"response":{"heads":"1","tails":"4"},"type":"response","condition":"seqFeedback","trueTheta":0.2,"classrooms":["C","D"],"studentTrueClassroom":"D","exampleSet":"first","trial_type":"survey-html-form","trial_index":10,"time_elapsed":509519,"internal_node_id":"0.0-6.0-0.0","params":{"nStudents":24,"maxFlips":30,"completionMinutes":45,"basePay":8,"maxBonus":9,"perTrialBonus":0.5,"perTrialBonusThreshold":0.05,"exampleCost":0.01},"classroomParams":{"A":{"a":1,"b":4},"B":{"a":4,"b":1},"C":{"a":2,"b":8},"D":{"a":8,"b":2}},"conditions":["nonSeqFull","nonSeqPartial","seqNoFeedback","seqFeedback"],"classroomPairings":[["A","B"],["C","D"]],"coinWeights":[0.2,0.5,0.8],"subjectId":"A107RJSS561Y7R","assignmentId":"34MAJL3QP59OU7Y903933TDU8PK34L","hitId":"34XASH8KLQ89J2U8D314D7180O4PMV","url":"https://gershmanlab.com/experiments/alicia/teaching/experiment/?hitId=34XASH8KLQ89J2U8D314D7180O4PMV&workerId=A107RJSS561Y7R&assignmentId=34MAJL3QP59OU7Y903933TDU8PK34L&a=QJM47&tp_a=QJM47&b=34MAJL3QP59OU7Y903933TDU8PK34L&tp_b=34MAJL3QP59OU7Y903933TDU8PK34L&c=365717&tp_c=365717","heads":1,"tails":4,"studentIndex":0,"studentTrueHypers":{"a":8,"b":2},"studentGuess":0.6,"delta":0.39999999999999997,"totalExamples":5,"bonusSoFar":0},{"rt":null,"stimulus":"Sending examples to student... ","response":null,"trial_type":"html-keyboard-response","trial_index":11,"time_elapsed":510771,"internal_node_id":"0.0-7.0","params":{"nStudents":24,"maxFlips":30,"completionMinutes":45,"basePay":8,"maxBonus":9,"perTrialBonus":0.5,"perTrialBonusThreshold":0.05,"exampleCost":0.01},"classroomParams":{"A":{"a":1,"b":4},"B":{"a":4,"b":1},"C":{"a":2,"b":8},"D":{"a":8,"b":2}},"conditions":["nonSeqFull","nonSeqPartial","seqNoFeedback","seqFeedback"],"classroomPairings":[["A","B"],["C","D"]],"coinWeights":[0.2,0.5,0.8],"subjectId":"A107RJSS561Y7R","assignmentId":"34MAJL3QP59OU7Y903933TDU8PK34L","hitId":"34XASH8KLQ89J2U8D314D7180O4PMV","url":"https://gershmanlab.com/experiments/alicia/teaching/experiment/?hitId=34XASH8KLQ89J2U8D314D7180O4PMV&workerId=A107RJSS561Y7R&assignmentId=34MAJL3QP59OU7Y903933TDU8PK34L&a=QJM47&tp_a=QJM47&b=34MAJL3QP59OU7Y903933TDU8PK34L&tp_b=34MAJL3QP59OU7Y903933TDU8PK34L&c=365717&tp_c=365717"},{"rt":null,"stimulus":"Examples sent to student! Waiting for student...","response":null,"trial_type":"html-keyboard-response","trial_index":12,"time_elapsed":516273,"internal_node_id":"0.0-8.0","params":{"nStudents":24,"maxFlips":30,"completionMinutes":45,"basePay":8,"maxBonus":9,"perTrialBonus":0.5,"perTrialBonusThreshold":0.05,"exampleCost":0.01},"classroomParams":{"A":{"a":1,"b":4},"B":{"a":4,"b":1},"C":{"a":2,"b":8},"D":{"a":8,"b":2}},"conditions":["nonSeqFull","nonSeqPartial","seqNoFeedback","seqFeedback"],"classroomPairings":[["A","B"],["C","D"]],"coinWeights":[0.2,0.5,0.8],"subjectId":"A107RJSS561Y7R","assignmentId":"34MAJL3QP59OU7Y903933TDU8PK34L","hitId":"34XASH8KLQ89J2U8D314D7180O4PMV","url":"https://gershmanlab.com/experiments/alicia/teaching/experiment/?hitId=34XASH8KLQ89J2U8D314D7180O4PMV&workerId=A107RJSS561Y7R&assignmentId=34MAJL3QP59OU7Y903933TDU8PK34L&a=QJM47&tp_a=QJM47&b=34MAJL3QP59OU7Y903933TDU8PK34L&tp_b=34MAJL3QP59OU7Y903933TDU8PK34L&c=365717&tp_c=365717"},{"rt":8507,"stimulus":"\n                <p>Student's guess for coin weight: <b style=\"color:Tomato;\">0.60</b></p>\n                <p></b></p>\n                <p>You will now send another set of examples to your student. <b>Remember to take your student's guess into consideration so that you can earn the highest bonus possible!</b> </p>\n                <p>Press any key to continue.</p>\n                ","response":"enter","trial_type":"html-keyboard-response","trial_index":13,"time_elapsed":524781,"internal_node_id":"0.0-9.0","params":{"nStudents":24,"maxFlips":30,"completionMinutes":45,"basePay":8,"maxBonus":9,"perTrialBonus":0.5,"perTrialBonusThreshold":0.05,"exampleCost":0.01},"classroomParams":{"A":{"a":1,"b":4},"B":{"a":4,"b":1},"C":{"a":2,"b":8},"D":{"a":8,"b":2}},"conditions":["nonSeqFull","nonSeqPartial","seqNoFeedback","seqFeedback"],"classroomPairings":[["A","B"],["C","D"]],"coinWeights":[0.2,0.5,0.8],"subjectId":"A107RJSS561Y7R","assignmentId":"34MAJL3QP59OU7Y903933TDU8PK34L","hitId":"34XASH8KLQ89J2U8D314D7180O4PMV","url":"https://gershmanlab.com/experiments/alicia/teaching/experiment/?hitId=34XASH8KLQ89J2U8D314D7180O4PMV&workerId=A107RJSS561Y7R&assignmentId=34MAJL3QP59OU7Y903933TDU8PK34L&a=QJM47&tp_a=QJM47&b=34MAJL3QP59OU7Y903933TDU8PK34L&tp_b=34MAJL3QP59OU7Y903933TDU8PK34L&c=365717&tp_c=365717"},{"rt":7975,"response":{"heads":"1","tails":"4"},"type":"response","condition":"seqFeedback","trueTheta":0.2,"classrooms":["C","D"],"studentTrueClassroom":"D","exampleSet":"second","trial_type":"survey-html-form","trial_index":14,"time_elapsed":532758,"internal_node_id":"0.0-10.0-0.0","params":{"nStudents":24,"maxFlips":30,"completionMinutes":45,"basePay":8,"maxBonus":9,"perTrialBonus":0.5,"perTrialBonusThreshold":0.05,"exampleCost":0.01},"classroomParams":{"A":{"a":1,"b":4},"B":{"a":4,"b":1},"C":{"a":2,"b":8},"D":{"a":8,"b":2}},"conditions":["nonSeqFull","nonSeqPartial","seqNoFeedback","seqFeedback"],"classroomPairings":[["A","B"],["C","D"]],"coinWeights":[0.2,0.5,0.8],"subjectId":"A107RJSS561Y7R","assignmentId":"34MAJL3QP59OU7Y903933TDU8PK34L","hitId":"34XASH8KLQ89J2U8D314D7180O4PMV","url":"https://gershmanlab.com/experiments/alicia/teaching/experiment/?hitId=34XASH8KLQ89J2U8D314D7180O4PMV&workerId=A107RJSS561Y7R&assignmentId=34MAJL3QP59OU7Y903933TDU8PK34L&a=QJM47&tp_a=QJM47&b=34MAJL3QP59OU7Y903933TDU8PK34L&tp_b=34MAJL3QP59OU7Y903933TDU8PK34L&c=365717&tp_c=365717","firstResponseHeads":1,"firstResponseTails":4,"secondResponseHeads":1,"secondResponseTails":4,"totalHeads":2,"totalTails":8,"studentIndex":0,"studentTrueHypers":{"a":8,"b":2},"studentGuess":0.5,"delta":0.3,"bonus":0,"bonusSoFar":0,"totalExamples":10},{"rt":null,"stimulus":"Sending examples to student... ","response":null,"trial_type":"html-keyboard-response","trial_index":15,"time_elapsed":534010,"internal_node_id":"0.0-11.0","params":{"nStudents":24,"maxFlips":30,"completionMinutes":45,"basePay":8,"maxBonus":9,"perTrialBonus":0.5,"perTrialBonusThreshold":0.05,"exampleCost":0.01},"classroomParams":{"A":{"a":1,"b":4},"B":{"a":4,"b":1},"C":{"a":2,"b":8},"D":{"a":8,"b":2}},"conditions":["nonSeqFull","nonSeqPartial","seqNoFeedback","seqFeedback"],"classroomPairings":[["A","B"],["C","D"]],"coinWeights":[0.2,0.5,0.8],"subjectId":"A107RJSS561Y7R","assignmentId":"34MAJL3QP59OU7Y903933TDU8PK34L","hitId":"34XASH8KLQ89J2U8D314D7180O4PMV","url":"https://gershmanlab.com/experiments/alicia/teaching/experiment/?hitId=34XASH8KLQ89J2U8D314D7180O4PMV&workerId=A107RJSS561Y7R&assignmentId=34MAJL3QP59OU7Y903933TDU8PK34L&a=QJM47&tp_a=QJM47&b=34MAJL3QP59OU7Y903933TDU8PK34L&tp_b=34MAJL3QP59OU7Y903933TDU8PK34L&c=365717&tp_c=365717"},{"rt":null,"stimulus":"Examples sent to student! Waiting for student...","response":null,"trial_type":"html-keyboard-response","trial_index":16,"time_elapsed":539511,"internal_node_id":"0.0-12.0","params":{"nStudents":24,"maxFlips":30,"completionMinutes":45,"basePay":8,"maxBonus":9,"perTrialBonus":0.5,"perTrialBonusThreshold":0.05,"exampleCost":0.01},"classroomParams":{"A":{"a":1,"b":4},"B":{"a":4,"b":1},"C":{"a":2,"b":8},"D":{"a":8,"b":2}},"conditions":["nonSeqFull","nonSeqPartial","seqNoFeedback","seqFeedback"],"classroomPairings":[["A","B"],["C","D"]],"coinWeights":[0.2,0.5,0.8],"subjectId":"A107RJSS561Y7R","assignmentId":"34MAJL3QP59OU7Y903933TDU8PK34L","hitId":"34XASH8KLQ89J2U8D314D7180O4PMV","url":"https://gershmanlab.com/experiments/alicia/teaching/experiment/?hitId=34XASH8KLQ89J2U8D314D7180O4PMV&workerId=A107RJSS561Y7R&assignmentId=34MAJL3QP59OU7Y903933TDU8PK34L&a=QJM47&tp_a=QJM47&b=34MAJL3QP59OU7Y903933TDU8PK34L&tp_b=34MAJL3QP59OU7Y903933TDU8PK34L&c=365717&tp_c=365717"},{"rt":7146,"stimulus":"\n                <p>Student 1's first guess for coin weight: <b style=\"color:Tomato\";>0.60</b></p>\n                <p>Student 1's second guess for coin weight: <b style=\"color:Tomato\";>0.50</b></p>\n                <p>You received a bonus of <b>$0.00</b> based on the student's second guess.</p>\n                <p>Total bonus so far: <b>$0.00</b></p>\n                <p>Press any key to continue.</p>\n                ","response":"enter","trial_type":"html-keyboard-response","trial_index":17,"time_elapsed":546658,"internal_node_id":"0.0-13.0","params":{"nStudents":24,"maxFlips":30,"completionMinutes":45,"basePay":8,"maxBonus":9,"perTrialBonus":0.5,"perTrialBonusThreshold":0.05,"exampleCost":0.01},"classroomParams":{"A":{"a":1,"b":4},"B":{"a":4,"b":1},"C":{"a":2,"b":8},"D":{"a":8,"b":2}},"conditions":["nonSeqFull","nonSeqPartial","seqNoFeedback","seqFeedback"],"classroomPairings":[["A","B"],["C","D"]],"coinWeights":[0.2,0.5,0.8],"subjectId":"A107RJSS561Y7R","assignmentId":"34MAJL3QP59OU7Y903933TDU8PK34L","hitId":"34XASH8KLQ89J2U8D314D7180O4PMV","url":"https://gershmanlab.com/experiments/alicia/teaching/experiment/?hitId=34XASH8KLQ89J2U8D314D7180O4PMV&workerId=A107RJSS561Y7R&assignmentId=34MAJL3QP59OU7Y903933TDU8PK34L&a=QJM47&tp_a=QJM47&b=34MAJL3QP59OU7Y903933TDU8PK34L&tp_b=34MAJL3QP59OU7Y903933TDU8PK34L&c=365717&tp_c=365717"},{"rt":null,"stimulus":"<div style=\"font-size:60px;\">Next student</div>","response":null,"trial_type":"html-keyboard-response","trial_index":18,"time_elapsed":549169,"internal_node_id":"0.0-14.0-0.0","params":{"nStudents":24,"maxFlips":30,"completionMinutes":45,"basePay":8,"maxBonus":9,"perTrialBonus":0.5,"perTrialBonusThreshold":0.05,"exampleCost":0.01},"classroomParams":{"A":{"a":1,"b":4},"B":{"a":4,"b":1},"C":{"a":2,"b":8},"D":{"a":8,"b":2}},"conditions":["nonSeqFull","nonSeqPartial","seqNoFeedback","seqFeedback"],"classroomPairings":[["A","B"],["C","D"]],"coinWeights":[0.2,0.5,0.8],"subjectId":"A107RJSS561Y7R","assignmentId":"34MAJL3QP59OU7Y903933TDU8PK34L","hitId":"34XASH8KLQ89J2U8D314D7180O4PMV","url":"https://gershmanlab.com/experiments/alicia/teaching/experiment/?hitId=34XASH8KLQ89J2U8D314D7180O4PMV&workerId=A107RJSS561Y7R&assignmentId=34MAJL3QP59OU7Y903933TDU8PK34L&a=QJM47&tp_a=QJM47&b=34MAJL3QP59OU7Y903933TDU8PK34L&tp_b=34MAJL3QP59OU7Y903933TDU8PK34L&c=365717&tp_c=365717"},{"rt":1154,"stimulus":"\n            <h4 style=\"color:Orange;\">Student 2</h4>\n            <h2>The weight of your coin is <b style=\"color:Tomato;\">0.2</b>.</h2>\n            <p>In this block, you will be giving <b>two</b> sets of examples to Student 2.</p>\n                <p>You will receive feedback at the end of the block.</p>\n            <p></p>","response":0,"trial_type":"html-button-response","trial_index":19,"time_elapsed":550323,"internal_node_id":"0.0-15.0","params":{"nStudents":24,"maxFlips":30,"completionMinutes":45,"basePay":8,"maxBonus":9,"perTrialBonus":0.5,"perTrialBonusThreshold":0.05,"exampleCost":0.01},"classroomParams":{"A":{"a":1,"b":4},"B":{"a":4,"b":1},"C":{"a":2,"b":8},"D":{"a":8,"b":2}},"conditions":["nonSeqFull","nonSeqPartial","seqNoFeedback","seqFeedback"],"classroomPairings":[["A","B"],["C","D"]],"coinWeights":[0.2,0.5,0.8],"subjectId":"A107RJSS561Y7R","assignmentId":"34MAJL3QP59OU7Y903933TDU8PK34L","hitId":"34XASH8KLQ89J2U8D314D7180O4PMV","url":"https://gershmanlab.com/experiments/alicia/teaching/experiment/?hitId=34XASH8KLQ89J2U8D314D7180O4PMV&workerId=A107RJSS561Y7R&assignmentId=34MAJL3QP59OU7Y903933TDU8PK34L&a=QJM47&tp_a=QJM47&b=34MAJL3QP59OU7Y903933TDU8PK34L&tp_b=34MAJL3QP59OU7Y903933TDU8PK34L&c=365717&tp_c=365717"},{"rt":5684,"response":{"heads":"0","tails":"5"},"type":"response","condition":"seqNoFeedback","trueTheta":0.2,"classrooms":["C","D"],"studentTrueClassroom":"C","exampleSet":"first","trial_type":"survey-html-form","trial_index":20,"time_elapsed":556008,"internal_node_id":"0.0-16.0-0.0","params":{"nStudents":24,"maxFlips":30,"completionMinutes":45,"basePay":8,"maxBonus":9,"perTrialBonus":0.5,"perTrialBonusThreshold":0.05,"exampleCost":0.01},"classroomParams":{"A":{"a":1,"b":4},"B":{"a":4,"b":1},"C":{"a":2,"b":8},"D":{"a":8,"b":2}},"conditions":["nonSeqFull","nonSeqPartial","seqNoFeedback","seqFeedback"],"classroomPairings":[["A","B"],["C","D"]],"coinWeights":[0.2,0.5,0.8],"subjectId":"A107RJSS561Y7R","assignmentId":"34MAJL3QP59OU7Y903933TDU8PK34L","hitId":"34XASH8KLQ89J2U8D314D7180O4PMV","url":"https://gershmanlab.com/experiments/alicia/teaching/experiment/?hitId=34XASH8KLQ89J2U8D314D7180O4PMV&workerId=A107RJSS561Y7R&assignmentId=34MAJL3QP59OU7Y903933TDU8PK34L&a=QJM47&tp_a=QJM47&b=34MAJL3QP59OU7Y903933TDU8PK34L&tp_b=34MAJL3QP59OU7Y903933TDU8PK34L&c=365717&tp_c=365717","heads":0,"tails":5,"studentIndex":1,"studentTrueHypers":{"a":2,"b":8},"studentGuess":0.13333333333333333,"delta":0.06666666666666668,"totalExamples":5,"bonusSoFar":0},{"rt":null,"stimulus":"Sending examples to student... ","response":null,"trial_type":"html-keyboard-response","trial_index":21,"time_elapsed":557510,"internal_node_id":"0.0-17.0","params":{"nStudents":24,"maxFlips":30,"completionMinutes":45,"basePay":8,"maxBonus":9,"perTrialBonus":0.5,"perTrialBonusThreshold":0.05,"exampleCost":0.01},"classroomParams":{"A":{"a":1,"b":4},"B":{"a":4,"b":1},"C":{"a":2,"b":8},"D":{"a":8,"b":2}},"conditions":["nonSeqFull","nonSeqPartial","seqNoFeedback","seqFeedback"],"classroomPairings":[["A","B"],["C","D"]],"coinWeights":[0.2,0.5,0.8],"subjectId":"A107RJSS561Y7R","assignmentId":"34MAJL3QP59OU7Y903933TDU8PK34L","hitId":"34XASH8KLQ89J2U8D314D7180O4PMV","url":"https://gershmanlab.com/experiments/alicia/teaching/experiment/?hitId=34XASH8KLQ89J2U8D314D7180O4PMV&workerId=A107RJSS561Y7R&assignmentId=34MAJL3QP59OU7Y903933TDU8PK34L&a=QJM47&tp_a=QJM47&b=34MAJL3QP59OU7Y903933TDU8PK34L&tp_b=34MAJL3QP59OU7Y903933TDU8PK34L&c=365717&tp_c=365717"},{"rt":null,"stimulus":"Examples sent to student! Waiting for student...","response":null,"trial_type":"html-keyboard-response","trial_index":22,"time_elapsed":562011,"internal_node_id":"0.0-18.0","params":{"nStudents":24,"maxFlips":30,"completionMinutes":45,"basePay":8,"maxBonus":9,"perTrialBonus":0.5,"perTrialBonusThreshold":0.05,"exampleCost":0.01},"classroomParams":{"A":{"a":1,"b":4},"B":{"a":4,"b":1},"C":{"a":2,"b":8},"D":{"a":8,"b":2}},"conditions":["nonSeqFull","nonSeqPartial","seqNoFeedback","seqFeedback"],"classroomPairings":[["A","B"],["C","D"]],"coinWeights":[0.2,0.5,0.8],"subjectId":"A107RJSS561Y7R","assignmentId":"34MAJL3QP59OU7Y903933TDU8PK34L","hitId":"34XASH8KLQ89J2U8D314D7180O4PMV","url":"https://gershmanlab.com/experiments/alicia/teaching/experiment/?hitId=34XASH8KLQ89J2U8D314D7180O4PMV&workerId=A107RJSS561Y7R&assignmentId=34MAJL3QP59OU7Y903933TDU8PK34L&a=QJM47&tp_a=QJM47&b=34MAJL3QP59OU7Y903933TDU8PK34L&tp_b=34MAJL3QP59OU7Y903933TDU8PK34L&c=365717&tp_c=365717"},{"rt":8156,"response":{"heads":"0","tails":"5"},"type":"response","condition":"seqNoFeedback","trueTheta":0.2,"classrooms":["C","D"],"studentTrueClassroom":"C","exampleSet":"second","trial_type":"survey-html-form","trial_index":23,"time_elapsed":570169,"internal_node_id":"0.0-19.0-0.0","params":{"nStudents":24,"maxFlips":30,"completionMinutes":45,"basePay":8,"maxBonus":9,"perTrialBonus":0.5,"perTrialBonusThreshold":0.05,"exampleCost":0.01},"classroomParams":{"A":{"a":1,"b":4},"B":{"a":4,"b":1},"C":{"a":2,"b":8},"D":{"a":8,"b":2}},"conditions":["nonSeqFull","nonSeqPartial","seqNoFeedback","seqFeedback"],"classroomPairings":[["A","B"],["C","D"]],"coinWeights":[0.2,0.5,0.8],"subjectId":"A107RJSS561Y7R","assignmentId":"34MAJL3QP59OU7Y903933TDU8PK34L","hitId":"34XASH8KLQ89J2U8D314D7180O4PMV","url":"https://gershmanlab.com/experiments/alicia/teaching/experiment/?hitId=34XASH8KLQ89J2U8D314D7180O4PMV&workerId=A107RJSS561Y7R&assignmentId=34MAJL3QP59OU7Y903933TDU8PK34L&a=QJM47&tp_a=QJM47&b=34MAJL3QP59OU7Y903933TDU8PK34L&tp_b=34MAJL3QP59OU7Y903933TDU8PK34L&c=365717&tp_c=365717","firstResponseHeads":0,"firstResponseTails":5,"secondResponseHeads":0,"secondResponseTails":5,"totalHeads":0,"totalTails":10,"studentIndex":1,"studentTrueHypers":{"a":2,"b":8},"studentGuess":0.1,"delta":0.1,"bonus":0,"bonusSoFar":0,"totalExamples":10},{"rt":null,"stimulus":"Sending examples to student... ","response":null,"trial_type":"html-keyboard-response","trial_index":24,"time_elapsed":572170,"internal_node_id":"0.0-20.0","params":{"nStudents":24,"maxFlips":30,"completionMinutes":45,"basePay":8,"maxBonus":9,"perTrialBonus":0.5,"perTrialBonusThreshold":0.05,"exampleCost":0.01},"classroomParams":{"A":{"a":1,"b":4},"B":{"a":4,"b":1},"C":{"a":2,"b":8},"D":{"a":8,"b":2}},"conditions":["nonSeqFull","nonSeqPartial","seqNoFeedback","seqFeedback"],"classroomPairings":[["A","B"],["C","D"]],"coinWeights":[0.2,0.5,0.8],"subjectId":"A107RJSS561Y7R","assignmentId":"34MAJL3QP59OU7Y903933TDU8PK34L","hitId":"34XASH8KLQ89J2U8D314D7180O4PMV","url":"https://gershmanlab.com/experiments/alicia/teaching/experiment/?hitId=34XASH8KLQ89J2U8D314D7180O4PMV&workerId=A107RJSS561Y7R&assignmentId=34MAJL3QP59OU7Y903933TDU8PK34L&a=QJM47&tp_a=QJM47&b=34MAJL3QP59OU7Y903933TDU8PK34L&tp_b=34MAJL3QP59OU7Y903933TDU8PK34L&c=365717&tp_c=365717"},{"rt":null,"stimulus":"Examples sent to student! Waiting for student...","response":null,"trial_type":"html-keyboard-response","trial_index":25,"time_elapsed":577673,"internal_node_id":"0.0-21.0","params":{"nStudents":24,"maxFlips":30,"completionMinutes":45,"basePay":8,"maxBonus":9,"perTrialBonus":0.5,"perTrialBonusThreshold":0.05,"exampleCost":0.01},"classroomParams":{"A":{"a":1,"b":4},"B":{"a":4,"b":1},"C":{"a":2,"b":8},"D":{"a":8,"b":2}},"conditions":["nonSeqFull","nonSeqPartial","seqNoFeedback","seqFeedback"],"classroomPairings":[["A","B"],["C","D"]],"coinWeights":[0.2,0.5,0.8],"subjectId":"A107RJSS561Y7R","assignmentId":"34MAJL3QP59OU7Y903933TDU8PK34L","hitId":"34XASH8KLQ89J2U8D314D7180O4PMV","url":"https://gershmanlab.com/experiments/alicia/teaching/experiment/?hitId=34XASH8KLQ89J2U8D314D7180O4PMV&workerId=A107RJSS561Y7R&assignmentId=34MAJL3QP59OU7Y903933TDU8PK34L&a=QJM47&tp_a=QJM47&b=34MAJL3QP59OU7Y903933TDU8PK34L&tp_b=34MAJL3QP59OU7Y903933TDU8PK34L&c=365717&tp_c=365717"},{"rt":6069,"stimulus":"\n                <p>Student 2's first guess for coin weight: <b style=\"color:Tomato\";>0.13</b></p>\n                <p>Student 2's second guess for coin weight: <b style=\"color:Tomato\";>0.10</b></p>\n                <p>You received a bonus of <b>$0.00</b> based on the student's second guess.</p>\n                <p>Total bonus so far: <b>$0.00</b></p>\n                <p>Press any key to continue.</p>\n                ","response":"enter","trial_type":"html-keyboard-response","trial_index":26,"time_elapsed":583741,"internal_node_id":"0.0-22.0","params":{"nStudents":24,"maxFlips":30,"completionMinutes":45,"basePay":8,"maxBonus":9,"perTrialBonus":0.5,"perTrialBonusThreshold":0.05,"exampleCost":0.01},"classroomParams":{"A":{"a":1,"b":4},"B":{"a":4,"b":1},"C":{"a":2,"b":8},"D":{"a":8,"b":2}},"conditions":["nonSeqFull","nonSeqPartial","seqNoFeedback","seqFeedback"],"classroomPairings":[["A","B"],["C","D"]],"coinWeights":[0.2,0.5,0.8],"subjectId":"A107RJSS561Y7R","assignmentId":"34MAJL3QP59OU7Y903933TDU8PK34L","hitId":"34XASH8KLQ89J2U8D314D7180O4PMV","url":"https://gershmanlab.com/experiments/alicia/teaching/experiment/?hitId=34XASH8KLQ89J2U8D314D7180O4PMV&workerId=A107RJSS561Y7R&assignmentId=34MAJL3QP59OU7Y903933TDU8PK34L&a=QJM47&tp_a=QJM47&b=34MAJL3QP59OU7Y903933TDU8PK34L&tp_b=34MAJL3QP59OU7Y903933TDU8PK34L&c=365717&tp_c=365717"},{"rt":null,"stimulus":"<div style=\"font-size:60px;\">Next student</div>","response":null,"trial_type":"html-keyboard-response","trial_index":27,"time_elapsed":586743,"internal_node_id":"0.0-23.0-0.0","params":{"nStudents":24,"maxFlips":30,"completionMinutes":45,"basePay":8,"maxBonus":9,"perTrialBonus":0.5,"perTrialBonusThreshold":0.05,"exampleCost":0.01},"classroomParams":{"A":{"a":1,"b":4},"B":{"a":4,"b":1},"C":{"a":2,"b":8},"D":{"a":8,"b":2}},"conditions":["nonSeqFull","nonSeqPartial","seqNoFeedback","seqFeedback"],"classroomPairings":[["A","B"],["C","D"]],"coinWeights":[0.2,0.5,0.8],"subjectId":"A107RJSS561Y7R","assignmentId":"34MAJL3QP59OU7Y903933TDU8PK34L","hitId":"34XASH8KLQ89J2U8D314D7180O4PMV","url":"https://gershmanlab.com/experiments/alicia/teaching/experiment/?hitId=34XASH8KLQ89J2U8D314D7180O4PMV&workerId=A107RJSS561Y7R&assignmentId=34MAJL3QP59OU7Y903933TDU8PK34L&a=QJM47&tp_a=QJM47&b=34MAJL3QP59OU7Y903933TDU8PK34L&tp_b=34MAJL3QP59OU7Y903933TDU8PK34L&c=365717&tp_c=365717"},{"rt":11653,"stimulus":"\n            <h4 style=\"color:Orange;\">Student 3</h4>\n            <h2>The weight of your coin is <b style=\"color:Tomato;\">0.8</b>.</h2>\n            <p>In this block, you will be giving <b>one</b> set of examples to Student 3.</p>\n                <p>You will receive feedback at the end of the block.</p>\n            <p></p>","response":0,"trial_type":"html-button-response","trial_index":28,"time_elapsed":598397,"internal_node_id":"0.0-24.0","params":{"nStudents":24,"maxFlips":30,"completionMinutes":45,"basePay":8,"maxBonus":9,"perTrialBonus":0.5,"perTrialBonusThreshold":0.05,"exampleCost":0.01},"classroomParams":{"A":{"a":1,"b":4},"B":{"a":4,"b":1},"C":{"a":2,"b":8},"D":{"a":8,"b":2}},"conditions":["nonSeqFull","nonSeqPartial","seqNoFeedback","seqFeedback"],"classroomPairings":[["A","B"],["C","D"]],"coinWeights":[0.2,0.5,0.8],"subjectId":"A107RJSS561Y7R","assignmentId":"34MAJL3QP59OU7Y903933TDU8PK34L","hitId":"34XASH8KLQ89J2U8D314D7180O4PMV","url":"https://gershmanlab.com/experiments/alicia/teaching/experiment/?hitId=34XASH8KLQ89J2U8D314D7180O4PMV&workerId=A107RJSS561Y7R&assignmentId=34MAJL3QP59OU7Y903933TDU8PK34L&a=QJM47&tp_a=QJM47&b=34MAJL3QP59OU7Y903933TDU8PK34L&tp_b=34MAJL3QP59OU7Y903933TDU8PK34L&c=365717&tp_c=365717"},{"rt":11400,"response":{"heads":"8","tails":"0"},"type":"response","condition":"nonSeqPartial","trueTheta":0.8,"classrooms":["A","B"],"studentTrueClassroom":"A","exampleSet":"first","trial_type":"survey-html-form","trial_index":29,"time_elapsed":609798,"internal_node_id":"0.0-25.0-0.0","params":{"nStudents":24,"maxFlips":30,"completionMinutes":45,"basePay":8,"maxBonus":9,"perTrialBonus":0.5,"perTrialBonusThreshold":0.05,"exampleCost":0.01},"classroomParams":{"A":{"a":1,"b":4},"B":{"a":4,"b":1},"C":{"a":2,"b":8},"D":{"a":8,"b":2}},"conditions":["nonSeqFull","nonSeqPartial","seqNoFeedback","seqFeedback"],"classroomPairings":[["A","B"],["C","D"]],"coinWeights":[0.2,0.5,0.8],"subjectId":"A107RJSS561Y7R","assignmentId":"34MAJL3QP59OU7Y903933TDU8PK34L","hitId":"34XASH8KLQ89J2U8D314D7180O4PMV","url":"https://gershmanlab.com/experiments/alicia/teaching/experiment/?hitId=34XASH8KLQ89J2U8D314D7180O4PMV&workerId=A107RJSS561Y7R&assignmentId=34MAJL3QP59OU7Y903933TDU8PK34L&a=QJM47&tp_a=QJM47&b=34MAJL3QP59OU7Y903933TDU8PK34L&tp_b=34MAJL3QP59OU7Y903933TDU8PK34L&c=365717&tp_c=365717","heads":8,"tails":0,"studentIndex":2,"studentTrueHypers":{"a":1,"b":4},"studentGuess":0.6923076923076923,"delta":0.10769230769230775,"totalExamples":8,"bonus":0,"bonusSoFar":0},{"rt":null,"stimulus":"Sending examples to student... ","response":null,"trial_type":"html-keyboard-response","trial_index":30,"time_elapsed":611799,"internal_node_id":"0.0-26.0","params":{"nStudents":24,"maxFlips":30,"completionMinutes":45,"basePay":8,"maxBonus":9,"perTrialBonus":0.5,"perTrialBonusThreshold":0.05,"exampleCost":0.01},"classroomParams":{"A":{"a":1,"b":4},"B":{"a":4,"b":1},"C":{"a":2,"b":8},"D":{"a":8,"b":2}},"conditions":["nonSeqFull","nonSeqPartial","seqNoFeedback","seqFeedback"],"classroomPairings":[["A","B"],["C","D"]],"coinWeights":[0.2,0.5,0.8],"subjectId":"A107RJSS561Y7R","assignmentId":"34MAJL3QP59OU7Y903933TDU8PK34L","hitId":"34XASH8KLQ89J2U8D314D7180O4PMV","url":"https://gershmanlab.com/experiments/alicia/teaching/experiment/?hitId=34XASH8KLQ89J2U8D314D7180O4PMV&workerId=A107RJSS561Y7R&assignmentId=34MAJL3QP59OU7Y903933TDU8PK34L&a=QJM47&tp_a=QJM47&b=34MAJL3QP59OU7Y903933TDU8PK34L&tp_b=34MAJL3QP59OU7Y903933TDU8PK34L&c=365717&tp_c=365717"},{"rt":null,"stimulus":"Examples sent to student! Waiting for student...","response":null,"trial_type":"html-keyboard-response","trial_index":31,"time_elapsed":617801,"internal_node_id":"0.0-27.0","params":{"nStudents":24,"maxFlips":30,"completionMinutes":45,"basePay":8,"maxBonus":9,"perTrialBonus":0.5,"perTrialBonusThreshold":0.05,"exampleCost":0.01},"classroomParams":{"A":{"a":1,"b":4},"B":{"a":4,"b":1},"C":{"a":2,"b":8},"D":{"a":8,"b":2}},"conditions":["nonSeqFull","nonSeqPartial","seqNoFeedback","seqFeedback"],"classroomPairings":[["A","B"],["C","D"]],"coinWeights":[0.2,0.5,0.8],"subjectId":"A107RJSS561Y7R","assignmentId":"34MAJL3QP59OU7Y903933TDU8PK34L","hitId":"34XASH8KLQ89J2U8D314D7180O4PMV","url":"https://gershmanlab.com/experiments/alicia/teaching/experiment/?hitId=34XASH8KLQ89J2U8D314D7180O4PMV&workerId=A107RJSS561Y7R&assignmentId=34MAJL3QP59OU7Y903933TDU8PK34L&a=QJM47&tp_a=QJM47&b=34MAJL3QP59OU7Y903933TDU8PK34L&tp_b=34MAJL3QP59OU7Y903933TDU8PK34L&c=365717&tp_c=365717"},{"rt":2993,"stimulus":"\n                <p>Student's guess for coin weight: <b style=\"color:Tomato;\">0.69</b></p>\n                <p>You received a bonus of <b>$0</b>. Total bonus so far: <b>$0.00</b></b></p>\n                <p></p>\n                <p>Press any key to continue.</p>\n                ","response":"enter","trial_type":"html-keyboard-response","trial_index":32,"time_elapsed":620795,"internal_node_id":"0.0-28.0","params":{"nStudents":24,"maxFlips":30,"completionMinutes":45,"basePay":8,"maxBonus":9,"perTrialBonus":0.5,"perTrialBonusThreshold":0.05,"exampleCost":0.01},"classroomParams":{"A":{"a":1,"b":4},"B":{"a":4,"b":1},"C":{"a":2,"b":8},"D":{"a":8,"b":2}},"conditions":["nonSeqFull","nonSeqPartial","seqNoFeedback","seqFeedback"],"classroomPairings":[["A","B"],["C","D"]],"coinWeights":[0.2,0.5,0.8],"subjectId":"A107RJSS561Y7R","assignmentId":"34MAJL3QP59OU7Y903933TDU8PK34L","hitId":"34XASH8KLQ89J2U8D314D7180O4PMV","url":"https://gershmanlab.com/experiments/alicia/teaching/experiment/?hitId=34XASH8KLQ89J2U8D314D7180O4PMV&workerId=A107RJSS561Y7R&assignmentId=34MAJL3QP59OU7Y903933TDU8PK34L&a=QJM47&tp_a=QJM47&b=34MAJL3QP59OU7Y903933TDU8PK34L&tp_b=34MAJL3QP59OU7Y903933TDU8PK34L&c=365717&tp_c=365717"},{"rt":null,"stimulus":"<div style=\"font-size:60px;\">Next student</div>","response":null,"trial_type":"html-keyboard-response","trial_index":33,"time_elapsed":623296,"internal_node_id":"0.0-29.0-0.0","params":{"nStudents":24,"maxFlips":30,"completionMinutes":45,"basePay":8,"maxBonus":9,"perTrialBonus":0.5,"perTrialBonusThreshold":0.05,"exampleCost":0.01},"classroomParams":{"A":{"a":1,"b":4},"B":{"a":4,"b":1},"C":{"a":2,"b":8},"D":{"a":8,"b":2}},"conditions":["nonSeqFull","nonSeqPartial","seqNoFeedback","seqFeedback"],"classroomPairings":[["A","B"],["C","D"]],"coinWeights":[0.2,0.5,0.8],"subjectId":"A107RJSS561Y7R","assignmentId":"34MAJL3QP59OU7Y903933TDU8PK34L","hitId":"34XASH8KLQ89J2U8D314D7180O4PMV","url":"https://gershmanlab.com/experiments/alicia/teaching/experiment/?hitId=34XASH8KLQ89J2U8D314D7180O4PMV&workerId=A107RJSS561Y7R&assignmentId=34MAJL3QP59OU7Y903933TDU8PK34L&a=QJM47&tp_a=QJM47&b=34MAJL3QP59OU7Y903933TDU8PK34L&tp_b=34MAJL3QP59OU7Y903933TDU8PK34L&c=365717&tp_c=365717"},{"rt":2409,"stimulus":"\n            <h4 style=\"color:Orange;\">Student 4</h4>\n            <h2>The weight of your coin is <b style=\"color:Tomato;\">0.5</b>.</h2>\n            <p>In this block, you will be giving <b>two</b> sets of examples to Student 4.</p>\n                <p>You will receive feedback at the end of the block.</p>\n            <p></p>","response":0,"trial_type":"html-button-response","trial_index":34,"time_elapsed":625706,"internal_node_id":"0.0-30.0","params":{"nStudents":24,"maxFlips":30,"completionMinutes":45,"basePay":8,"maxBonus":9,"perTrialBonus":0.5,"perTrialBonusThreshold":0.05,"exampleCost":0.01},"classroomParams":{"A":{"a":1,"b":4},"B":{"a":4,"b":1},"C":{"a":2,"b":8},"D":{"a":8,"b":2}},"conditions":["nonSeqFull","nonSeqPartial","seqNoFeedback","seqFeedback"],"classroomPairings":[["A","B"],["C","D"]],"coinWeights":[0.2,0.5,0.8],"subjectId":"A107RJSS561Y7R","assignmentId":"34MAJL3QP59OU7Y903933TDU8PK34L","hitId":"34XASH8KLQ89J2U8D314D7180O4PMV","url":"https://gershmanlab.com/experiments/alicia/teaching/experiment/?hitId=34XASH8KLQ89J2U8D314D7180O4PMV&workerId=A107RJSS561Y7R&assignmentId=34MAJL3QP59OU7Y903933TDU8PK34L&a=QJM47&tp_a=QJM47&b=34MAJL3QP59OU7Y903933TDU8PK34L&tp_b=34MAJL3QP59OU7Y903933TDU8PK34L&c=365717&tp_c=365717"},{"rt":9996,"response":{"heads":"5","tails":"5"},"type":"response","condition":"seqNoFeedback","trueTheta":0.5,"classrooms":["A","B"],"studentTrueClassroom":"A","exampleSet":"first","trial_type":"survey-html-form","trial_index":35,"time_elapsed":635703,"internal_node_id":"0.0-31.0-0.0","params":{"nStudents":24,"maxFlips":30,"completionMinutes":45,"basePay":8,"maxBonus":9,"perTrialBonus":0.5,"perTrialBonusThreshold":0.05,"exampleCost":0.01},"classroomParams":{"A":{"a":1,"b":4},"B":{"a":4,"b":1},"C":{"a":2,"b":8},"D":{"a":8,"b":2}},"conditions":["nonSeqFull","nonSeqPartial","seqNoFeedback","seqFeedback"],"classroomPairings":[["A","B"],["C","D"]],"coinWeights":[0.2,0.5,0.8],"subjectId":"A107RJSS561Y7R","assignmentId":"34MAJL3QP59OU7Y903933TDU8PK34L","hitId":"34XASH8KLQ89J2U8D314D7180O4PMV","url":"https://gershmanlab.com/experiments/alicia/teaching/experiment/?hitId=34XASH8KLQ89J2U8D314D7180O4PMV&workerId=A107RJSS561Y7R&assignmentId=34MAJL3QP59OU7Y903933TDU8PK34L&a=QJM47&tp_a=QJM47&b=34MAJL3QP59OU7Y903933TDU8PK34L&tp_b=34MAJL3QP59OU7Y903933TDU8PK34L&c=365717&tp_c=365717","heads":5,"tails":5,"studentIndex":3,"studentTrueHypers":{"a":1,"b":4},"studentGuess":0.4,"delta":0.09999999999999998,"totalExamples":10,"bonusSoFar":0},{"rt":null,"stimulus":"Sending examples to student... ","response":null,"trial_type":"html-keyboard-response","trial_index":36,"time_elapsed":637204,"internal_node_id":"0.0-32.0","params":{"nStudents":24,"maxFlips":30,"completionMinutes":45,"basePay":8,"maxBonus":9,"perTrialBonus":0.5,"perTrialBonusThreshold":0.05,"exampleCost":0.01},"classroomParams":{"A":{"a":1,"b":4},"B":{"a":4,"b":1},"C":{"a":2,"b":8},"D":{"a":8,"b":2}},"conditions":["nonSeqFull","nonSeqPartial","seqNoFeedback","seqFeedback"],"classroomPairings":[["A","B"],["C","D"]],"coinWeights":[0.2,0.5,0.8],"subjectId":"A107RJSS561Y7R","assignmentId":"34MAJL3QP59OU7Y903933TDU8PK34L","hitId":"34XASH8KLQ89J2U8D314D7180O4PMV","url":"https://gershmanlab.com/experiments/alicia/teaching/experiment/?hitId=34XASH8KLQ89J2U8D314D7180O4PMV&workerId=A107RJSS561Y7R&assignmentId=34MAJL3QP59OU7Y903933TDU8PK34L&a=QJM47&tp_a=QJM47&b=34MAJL3QP59OU7Y903933TDU8PK34L&tp_b=34MAJL3QP59OU7Y903933TDU8PK34L&c=365717&tp_c=365717"},{"rt":null,"stimulus":"Examples sent to student! Waiting for student...","response":null,"trial_type":"html-keyboard-response","trial_index":37,"time_elapsed":641706,"internal_node_id":"0.0-33.0","params":{"nStudents":24,"maxFlips":30,"completionMinutes":45,"basePay":8,"maxBonus":9,"perTrialBonus":0.5,"perTrialBonusThreshold":0.05,"exampleCost":0.01},"classroomParams":{"A":{"a":1,"b":4},"B":{"a":4,"b":1},"C":{"a":2,"b":8},"D":{"a":8,"b":2}},"conditions":["nonSeqFull","nonSeqPartial","seqNoFeedback","seqFeedback"],"classroomPairings":[["A","B"],["C","D"]],"coinWeights":[0.2,0.5,0.8],"subjectId":"A107RJSS561Y7R","assignmentId":"34MAJL3QP59OU7Y903933TDU8PK34L","hitId":"34XASH8KLQ89J2U8D314D7180O4PMV","url":"https://gershmanlab.com/experiments/alicia/teaching/experiment/?hitId=34XASH8KLQ89J2U8D314D7180O4PMV&workerId=A107RJSS561Y7R&assignmentId=34MAJL3QP59OU7Y903933TDU8PK34L&a=QJM47&tp_a=QJM47&b=34MAJL3QP59OU7Y903933TDU8PK34L&tp_b=34MAJL3QP59OU7Y903933TDU8PK34L&c=365717&tp_c=365717"},{"rt":6296,"response":{"heads":"5","tails":"5"},"type":"response","condition":"seqNoFeedback","trueTheta":0.5,"classrooms":["A","B"],"studentTrueClassroom":"A","exampleSet":"second","trial_type":"survey-html-form","trial_index":38,"time_elapsed":648003,"internal_node_id":"0.0-34.0-0.0","params":{"nStudents":24,"maxFlips":30,"completionMinutes":45,"basePay":8,"maxBonus":9,"perTrialBonus":0.5,"perTrialBonusThreshold":0.05,"exampleCost":0.01},"classroomParams":{"A":{"a":1,"b":4},"B":{"a":4,"b":1},"C":{"a":2,"b":8},"D":{"a":8,"b":2}},"conditions":["nonSeqFull","nonSeqPartial","seqNoFeedback","seqFeedback"],"classroomPairings":[["A","B"],["C","D"]],"coinWeights":[0.2,0.5,0.8],"subjectId":"A107RJSS561Y7R","assignmentId":"34MAJL3QP59OU7Y903933TDU8PK34L","hitId":"34XASH8KLQ89J2U8D314D7180O4PMV","url":"https://gershmanlab.com/experiments/alicia/teaching/experiment/?hitId=34XASH8KLQ89J2U8D314D7180O4PMV&workerId=A107RJSS561Y7R&assignmentId=34MAJL3QP59OU7Y903933TDU8PK34L&a=QJM47&tp_a=QJM47&b=34MAJL3QP59OU7Y903933TDU8PK34L&tp_b=34MAJL3QP59OU7Y903933TDU8PK34L&c=365717&tp_c=365717","firstResponseHeads":5,"firstResponseTails":5,"secondResponseHeads":5,"secondResponseTails":5,"totalHeads":10,"totalTails":10,"studentIndex":3,"studentTrueHypers":{"a":1,"b":4},"studentGuess":0.44,"delta":0.06,"bonus":0,"bonusSoFar":0,"totalExamples":20},{"rt":null,"stimulus":"Sending examples to student... ","response":null,"trial_type":"html-keyboard-response","trial_index":39,"time_elapsed":649504,"internal_node_id":"0.0-35.0","params":{"nStudents":24,"maxFlips":30,"completionMinutes":45,"basePay":8,"maxBonus":9,"perTrialBonus":0.5,"perTrialBonusThreshold":0.05,"exampleCost":0.01},"classroomParams":{"A":{"a":1,"b":4},"B":{"a":4,"b":1},"C":{"a":2,"b":8},"D":{"a":8,"b":2}},"conditions":["nonSeqFull","nonSeqPartial","seqNoFeedback","seqFeedback"],"classroomPairings":[["A","B"],["C","D"]],"coinWeights":[0.2,0.5,0.8],"subjectId":"A107RJSS561Y7R","assignmentId":"34MAJL3QP59OU7Y903933TDU8PK34L","hitId":"34XASH8KLQ89J2U8D314D7180O4PMV","url":"https://gershmanlab.com/experiments/alicia/teaching/experiment/?hitId=34XASH8KLQ89J2U8D314D7180O4PMV&workerId=A107RJSS561Y7R&assignmentId=34MAJL3QP59OU7Y903933TDU8PK34L&a=QJM47&tp_a=QJM47&b=34MAJL3QP59OU7Y903933TDU8PK34L&tp_b=34MAJL3QP59OU7Y903933TDU8PK34L&c=365717&tp_c=365717"},{"rt":null,"stimulus":"Examples sent to student! Waiting for student...","response":null,"trial_type":"html-keyboard-response","trial_index":40,"time_elapsed":653505,"internal_node_id":"0.0-36.0","params":{"nStudents":24,"maxFlips":30,"completionMinutes":45,"basePay":8,"maxBonus":9,"perTrialBonus":0.5,"perTrialBonusThreshold":0.05,"exampleCost":0.01},"classroomParams":{"A":{"a":1,"b":4},"B":{"a":4,"b":1},"C":{"a":2,"b":8},"D":{"a":8,"b":2}},"conditions":["nonSeqFull","nonSeqPartial","seqNoFeedback","seqFeedback"],"classroomPairings":[["A","B"],["C","D"]],"coinWeights":[0.2,0.5,0.8],"subjectId":"A107RJSS561Y7R","assignmentId":"34MAJL3QP59OU7Y903933TDU8PK34L","hitId":"34XASH8KLQ89J2U8D314D7180O4PMV","url":"https://gershmanlab.com/experiments/alicia/teaching/experiment/?hitId=34XASH8KLQ89J2U8D314D7180O4PMV&workerId=A107RJSS561Y7R&assignmentId=34MAJL3QP59OU7Y903933TDU8PK34L&a=QJM47&tp_a=QJM47&b=34MAJL3QP59OU7Y903933TDU8PK34L&tp_b=34MAJL3QP59OU7Y903933TDU8PK34L&c=365717&tp_c=365717"},{"rt":26750,"stimulus":"\n                <p>Student 4's first guess for coin weight: <b style=\"color:Tomato\";>0.40</b></p>\n                <p>Student 4's second guess for coin weight: <b style=\"color:Tomato\";>0.44</b></p>\n                <p>You received a bonus of <b>$0.00</b> based on the student's second guess.</p>\n                <p>Total bonus so far: <b>$0.00</b></p>\n                <p>Press any key to continue.</p>\n                ","response":"enter","trial_type":"html-keyboard-response","trial_index":41,"time_elapsed":680256,"internal_node_id":"0.0-37.0","params":{"nStudents":24,"maxFlips":30,"completionMinutes":45,"basePay":8,"maxBonus":9,"perTrialBonus":0.5,"perTrialBonusThreshold":0.05,"exampleCost":0.01},"classroomParams":{"A":{"a":1,"b":4},"B":{"a":4,"b":1},"C":{"a":2,"b":8},"D":{"a":8,"b":2}},"conditions":["nonSeqFull","nonSeqPartial","seqNoFeedback","seqFeedback"],"classroomPairings":[["A","B"],["C","D"]],"coinWeights":[0.2,0.5,0.8],"subjectId":"A107RJSS561Y7R","assignmentId":"34MAJL3QP59OU7Y903933TDU8PK34L","hitId":"34XASH8KLQ89J2U8D314D7180O4PMV","url":"https://gershmanlab.com/experiments/alicia/teaching/experiment/?hitId=34XASH8KLQ89J2U8D314D7180O4PMV&workerId=A107RJSS561Y7R&assignmentId=34MAJL3QP59OU7Y903933TDU8PK34L&a=QJM47&tp_a=QJM47&b=34MAJL3QP59OU7Y903933TDU8PK34L&tp_b=34MAJL3QP59OU7Y903933TDU8PK34L&c=365717&tp_c=365717"},{"rt":null,"stimulus":"<div style=\"font-size:60px;\">Next student</div>","response":null,"trial_type":"html-keyboard-response","trial_index":42,"time_elapsed":682757,"internal_node_id":"0.0-38.0-0.0","params":{"nStudents":24,"maxFlips":30,"completionMinutes":45,"basePay":8,"maxBonus":9,"perTrialBonus":0.5,"perTrialBonusThreshold":0.05,"exampleCost":0.01},"classroomParams":{"A":{"a":1,"b":4},"B":{"a":4,"b":1},"C":{"a":2,"b":8},"D":{"a":8,"b":2}},"conditions":["nonSeqFull","nonSeqPartial","seqNoFeedback","seqFeedback"],"classroomPairings":[["A","B"],["C","D"]],"coinWeights":[0.2,0.5,0.8],"subjectId":"A107RJSS561Y7R","assignmentId":"34MAJL3QP59OU7Y903933TDU8PK34L","hitId":"34XASH8KLQ89J2U8D314D7180O4PMV","url":"https://gershmanlab.com/experiments/alicia/teaching/experiment/?hitId=34XASH8KLQ89J2U8D314D7180O4PMV&workerId=A107RJSS561Y7R&assignmentId=34MAJL3QP59OU7Y903933TDU8PK34L&a=QJM47&tp_a=QJM47&b=34MAJL3QP59OU7Y903933TDU8PK34L&tp_b=34MAJL3QP59OU7Y903933TDU8PK34L&c=365717&tp_c=365717"},{"rt":3204,"stimulus":"\n            <h4 style=\"color:Orange;\">Student 5</h4>\n            <h2>The weight of your coin is <b style=\"color:Tomato;\">0.5</b>.</h2>\n            <p>In this block, you will be giving <b>two</b> sets of examples to Student 5.</p>\n                <p>You will see the student's guess after the first set of examples. You will also receive feedback at the end of the block.</p>\n            <p>To earn the highest bonus, you will have to <b>take into consideration the student's guess</b> when you choose your second set of examples.</p>","response":0,"trial_type":"html-button-response","trial_index":43,"time_elapsed":685962,"internal_node_id":"0.0-39.0","params":{"nStudents":24,"maxFlips":30,"completionMinutes":45,"basePay":8,"maxBonus":9,"perTrialBonus":0.5,"perTrialBonusThreshold":0.05,"exampleCost":0.01},"classroomParams":{"A":{"a":1,"b":4},"B":{"a":4,"b":1},"C":{"a":2,"b":8},"D":{"a":8,"b":2}},"conditions":["nonSeqFull","nonSeqPartial","seqNoFeedback","seqFeedback"],"classroomPairings":[["A","B"],["C","D"]],"coinWeights":[0.2,0.5,0.8],"subjectId":"A107RJSS561Y7R","assignmentId":"34MAJL3QP59OU7Y903933TDU8PK34L","hitId":"34XASH8KLQ89J2U8D314D7180O4PMV","url":"https://gershmanlab.com/experiments/alicia/teaching/experiment/?hitId=34XASH8KLQ89J2U8D314D7180O4PMV&workerId=A107RJSS561Y7R&assignmentId=34MAJL3QP59OU7Y903933TDU8PK34L&a=QJM47&tp_a=QJM47&b=34MAJL3QP59OU7Y903933TDU8PK34L&tp_b=34MAJL3QP59OU7Y903933TDU8PK34L&c=365717&tp_c=365717"},{"rt":4807,"response":{"heads":"1","tails":"1"},"type":"response","condition":"seqFeedback","trueTheta":0.5,"classrooms":["C","D"],"studentTrueClassroom":"C","exampleSet":"first","trial_type":"survey-html-form","trial_index":44,"time_elapsed":690770,"internal_node_id":"0.0-40.0-0.0","params":{"nStudents":24,"maxFlips":30,"completionMinutes":45,"basePay":8,"maxBonus":9,"perTrialBonus":0.5,"perTrialBonusThreshold":0.05,"exampleCost":0.01},"classroomParams":{"A":{"a":1,"b":4},"B":{"a":4,"b":1},"C":{"a":2,"b":8},"D":{"a":8,"b":2}},"conditions":["nonSeqFull","nonSeqPartial","seqNoFeedback","seqFeedback"],"classroomPairings":[["A","B"],["C","D"]],"coinWeights":[0.2,0.5,0.8],"subjectId":"A107RJSS561Y7R","assignmentId":"34MAJL3QP59OU7Y903933TDU8PK34L","hitId":"34XASH8KLQ89J2U8D314D7180O4PMV","url":"https://gershmanlab.com/experiments/alicia/teaching/experiment/?hitId=34XASH8KLQ89J2U8D314D7180O4PMV&workerId=A107RJSS561Y7R&assignmentId=34MAJL3QP59OU7Y903933TDU8PK34L&a=QJM47&tp_a=QJM47&b=34MAJL3QP59OU7Y903933TDU8PK34L&tp_b=34MAJL3QP59OU7Y903933TDU8PK34L&c=365717&tp_c=365717","heads":1,"tails":1,"studentIndex":4,"studentTrueHypers":{"a":2,"b":8},"studentGuess":0.25,"delta":0.25,"totalExamples":2,"bonusSoFar":0},{"rt":null,"stimulus":"Sending examples to student... ","response":null,"trial_type":"html-keyboard-response","trial_index":45,"time_elapsed":692772,"internal_node_id":"0.0-41.0","params":{"nStudents":24,"maxFlips":30,"completionMinutes":45,"basePay":8,"maxBonus":9,"perTrialBonus":0.5,"perTrialBonusThreshold":0.05,"exampleCost":0.01},"classroomParams":{"A":{"a":1,"b":4},"B":{"a":4,"b":1},"C":{"a":2,"b":8},"D":{"a":8,"b":2}},"conditions":["nonSeqFull","nonSeqPartial","seqNoFeedback","seqFeedback"],"classroomPairings":[["A","B"],["C","D"]],"coinWeights":[0.2,0.5,0.8],"subjectId":"A107RJSS561Y7R","assignmentId":"34MAJL3QP59OU7Y903933TDU8PK34L","hitId":"34XASH8KLQ89J2U8D314D7180O4PMV","url":"https://gershmanlab.com/experiments/alicia/teaching/experiment/?hitId=34XASH8KLQ89J2U8D314D7180O4PMV&workerId=A107RJSS561Y7R&assignmentId=34MAJL3QP59OU7Y903933TDU8PK34L&a=QJM47&tp_a=QJM47&b=34MAJL3QP59OU7Y903933TDU8PK34L&tp_b=34MAJL3QP59OU7Y903933TDU8PK34L&c=365717&tp_c=365717"},{"rt":null,"stimulus":"Examples sent to student! Waiting for student...","response":null,"trial_type":"html-keyboard-response","trial_index":46,"time_elapsed":697774,"internal_node_id":"0.0-42.0","params":{"nStudents":24,"maxFlips":30,"completionMinutes":45,"basePay":8,"maxBonus":9,"perTrialBonus":0.5,"perTrialBonusThreshold":0.05,"exampleCost":0.01},"classroomParams":{"A":{"a":1,"b":4},"B":{"a":4,"b":1},"C":{"a":2,"b":8},"D":{"a":8,"b":2}},"conditions":["nonSeqFull","nonSeqPartial","seqNoFeedback","seqFeedback"],"classroomPairings":[["A","B"],["C","D"]],"coinWeights":[0.2,0.5,0.8],"subjectId":"A107RJSS561Y7R","assignmentId":"34MAJL3QP59OU7Y903933TDU8PK34L","hitId":"34XASH8KLQ89J2U8D314D7180O4PMV","url":"https://gershmanlab.com/experiments/alicia/teaching/experiment/?hitId=34XASH8KLQ89J2U8D314D7180O4PMV&workerId=A107RJSS561Y7R&assignmentId=34MAJL3QP59OU7Y903933TDU8PK34L&a=QJM47&tp_a=QJM47&b=34MAJL3QP59OU7Y903933TDU8PK34L&tp_b=34MAJL3QP59OU7Y903933TDU8PK34L&c=365717&tp_c=365717"},{"rt":5509,"stimulus":"\n                <p>Student's guess for coin weight: <b style=\"color:Tomato;\">0.25</b></p>\n                <p></b></p>\n                <p>You will now send another set of examples to your student. <b>Remember to take your student's guess into consideration so that you can earn the highest bonus possible!</b> </p>\n                <p>Press any key to continue.</p>\n                ","response":"enter","trial_type":"html-keyboard-response","trial_index":47,"time_elapsed":703284,"internal_node_id":"0.0-43.0","params":{"nStudents":24,"maxFlips":30,"completionMinutes":45,"basePay":8,"maxBonus":9,"perTrialBonus":0.5,"perTrialBonusThreshold":0.05,"exampleCost":0.01},"classroomParams":{"A":{"a":1,"b":4},"B":{"a":4,"b":1},"C":{"a":2,"b":8},"D":{"a":8,"b":2}},"conditions":["nonSeqFull","nonSeqPartial","seqNoFeedback","seqFeedback"],"classroomPairings":[["A","B"],["C","D"]],"coinWeights":[0.2,0.5,0.8],"subjectId":"A107RJSS561Y7R","assignmentId":"34MAJL3QP59OU7Y903933TDU8PK34L","hitId":"34XASH8KLQ89J2U8D314D7180O4PMV","url":"https://gershmanlab.com/experiments/alicia/teaching/experiment/?hitId=34XASH8KLQ89J2U8D314D7180O4PMV&workerId=A107RJSS561Y7R&assignmentId=34MAJL3QP59OU7Y903933TDU8PK34L&a=QJM47&tp_a=QJM47&b=34MAJL3QP59OU7Y903933TDU8PK34L&tp_b=34MAJL3QP59OU7Y903933TDU8PK34L&c=365717&tp_c=365717"},{"rt":4150,"response":{"heads":"1","tails":"1"},"type":"response","condition":"seqFeedback","trueTheta":0.5,"classrooms":["C","D"],"studentTrueClassroom":"C","exampleSet":"second","trial_type":"survey-html-form","trial_index":48,"time_elapsed":707435,"internal_node_id":"0.0-44.0-0.0","params":{"nStudents":24,"maxFlips":30,"completionMinutes":45,"basePay":8,"maxBonus":9,"perTrialBonus":0.5,"perTrialBonusThreshold":0.05,"exampleCost":0.01},"classroomParams":{"A":{"a":1,"b":4},"B":{"a":4,"b":1},"C":{"a":2,"b":8},"D":{"a":8,"b":2}},"conditions":["nonSeqFull","nonSeqPartial","seqNoFeedback","seqFeedback"],"classroomPairings":[["A","B"],["C","D"]],"coinWeights":[0.2,0.5,0.8],"subjectId":"A107RJSS561Y7R","assignmentId":"34MAJL3QP59OU7Y903933TDU8PK34L","hitId":"34XASH8KLQ89J2U8D314D7180O4PMV","url":"https://gershmanlab.com/experiments/alicia/teaching/experiment/?hitId=34XASH8KLQ89J2U8D314D7180O4PMV&workerId=A107RJSS561Y7R&assignmentId=34MAJL3QP59OU7Y903933TDU8PK34L&a=QJM47&tp_a=QJM47&b=34MAJL3QP59OU7Y903933TDU8PK34L&tp_b=34MAJL3QP59OU7Y903933TDU8PK34L&c=365717&tp_c=365717","firstResponseHeads":1,"firstResponseTails":1,"secondResponseHeads":1,"secondResponseTails":1,"totalHeads":2,"totalTails":2,"studentIndex":4,"studentTrueHypers":{"a":2,"b":8},"studentGuess":0.2857142857142857,"delta":0.2142857142857143,"bonus":0,"bonusSoFar":0,"totalExamples":4},{"rt":null,"stimulus":"Sending examples to student... ","response":null,"trial_type":"html-keyboard-response","trial_index":49,"time_elapsed":708686,"internal_node_id":"0.0-45.0","params":{"nStudents":24,"maxFlips":30,"completionMinutes":45,"basePay":8,"maxBonus":9,"perTrialBonus":0.5,"perTrialBonusThreshold":0.05,"exampleCost":0.01},"classroomParams":{"A":{"a":1,"b":4},"B":{"a":4,"b":1},"C":{"a":2,"b":8},"D":{"a":8,"b":2}},"conditions":["nonSeqFull","nonSeqPartial","seqNoFeedback","seqFeedback"],"classroomPairings":[["A","B"],["C","D"]],"coinWeights":[0.2,0.5,0.8],"subjectId":"A107RJSS561Y7R","assignmentId":"34MAJL3QP59OU7Y903933TDU8PK34L","hitId":"34XASH8KLQ89J2U8D314D7180O4PMV","url":"https://gershmanlab.com/experiments/alicia/teaching/experiment/?hitId=34XASH8KLQ89J2U8D314D7180O4PMV&workerId=A107RJSS561Y7R&assignmentId=34MAJL3QP59OU7Y903933TDU8PK34L&a=QJM47&tp_a=QJM47&b=34MAJL3QP59OU7Y903933TDU8PK34L&tp_b=34MAJL3QP59OU7Y903933TDU8PK34L&c=365717&tp_c=365717"},{"rt":null,"stimulus":"Examples sent to student! Waiting for student...","response":null,"trial_type":"html-keyboard-response","trial_index":50,"time_elapsed":713188,"internal_node_id":"0.0-46.0","params":{"nStudents":24,"maxFlips":30,"completionMinutes":45,"basePay":8,"maxBonus":9,"perTrialBonus":0.5,"perTrialBonusThreshold":0.05,"exampleCost":0.01},"classroomParams":{"A":{"a":1,"b":4},"B":{"a":4,"b":1},"C":{"a":2,"b":8},"D":{"a":8,"b":2}},"conditions":["nonSeqFull","nonSeqPartial","seqNoFeedback","seqFeedback"],"classroomPairings":[["A","B"],["C","D"]],"coinWeights":[0.2,0.5,0.8],"subjectId":"A107RJSS561Y7R","assignmentId":"34MAJL3QP59OU7Y903933TDU8PK34L","hitId":"34XASH8KLQ89J2U8D314D7180O4PMV","url":"https://gershmanlab.com/experiments/alicia/teaching/experiment/?hitId=34XASH8KLQ89J2U8D314D7180O4PMV&workerId=A107RJSS561Y7R&assignmentId=34MAJL3QP59OU7Y903933TDU8PK34L&a=QJM47&tp_a=QJM47&b=34MAJL3QP59OU7Y903933TDU8PK34L&tp_b=34MAJL3QP59OU7Y903933TDU8PK34L&c=365717&tp_c=365717"},{"rt":2017,"stimulus":"\n                <p>Student 5's first guess for coin weight: <b style=\"color:Tomato\";>0.25</b></p>\n                <p>Student 5's second guess for coin weight: <b style=\"color:Tomato\";>0.29</b></p>\n                <p>You received a bonus of <b>$0.00</b> based on the student's second guess.</p>\n                <p>Total bonus so far: <b>$0.00</b></p>\n                <p>Press any key to continue.</p>\n                ","response":"enter","trial_type":"html-keyboard-response","trial_index":51,"time_elapsed":715206,"internal_node_id":"0.0-47.0","params":{"nStudents":24,"maxFlips":30,"completionMinutes":45,"basePay":8,"maxBonus":9,"perTrialBonus":0.5,"perTrialBonusThreshold":0.05,"exampleCost":0.01},"classroomParams":{"A":{"a":1,"b":4},"B":{"a":4,"b":1},"C":{"a":2,"b":8},"D":{"a":8,"b":2}},"conditions":["nonSeqFull","nonSeqPartial","seqNoFeedback","seqFeedback"],"classroomPairings":[["A","B"],["C","D"]],"coinWeights":[0.2,0.5,0.8],"subjectId":"A107RJSS561Y7R","assignmentId":"34MAJL3QP59OU7Y903933TDU8PK34L","hitId":"34XASH8KLQ89J2U8D314D7180O4PMV","url":"https://gershmanlab.com/experiments/alicia/teaching/experiment/?hitId=34XASH8KLQ89J2U8D314D7180O4PMV&workerId=A107RJSS561Y7R&assignmentId=34MAJL3QP59OU7Y903933TDU8PK34L&a=QJM47&tp_a=QJM47&b=34MAJL3QP59OU7Y903933TDU8PK34L&tp_b=34MAJL3QP59OU7Y903933TDU8PK34L&c=365717&tp_c=365717"},{"rt":null,"stimulus":"<div style=\"font-size:60px;\">Next student</div>","response":null,"trial_type":"html-keyboard-response","trial_index":52,"time_elapsed":717457,"internal_node_id":"0.0-48.0-0.0","params":{"nStudents":24,"maxFlips":30,"completionMinutes":45,"basePay":8,"maxBonus":9,"perTrialBonus":0.5,"perTrialBonusThreshold":0.05,"exampleCost":0.01},"classroomParams":{"A":{"a":1,"b":4},"B":{"a":4,"b":1},"C":{"a":2,"b":8},"D":{"a":8,"b":2}},"conditions":["nonSeqFull","nonSeqPartial","seqNoFeedback","seqFeedback"],"classroomPairings":[["A","B"],["C","D"]],"coinWeights":[0.2,0.5,0.8],"subjectId":"A107RJSS561Y7R","assignmentId":"34MAJL3QP59OU7Y903933TDU8PK34L","hitId":"34XASH8KLQ89J2U8D314D7180O4PMV","url":"https://gershmanlab.com/experiments/alicia/teaching/experiment/?hitId=34XASH8KLQ89J2U8D314D7180O4PMV&workerId=A107RJSS561Y7R&assignmentId=34MAJL3QP59OU7Y903933TDU8PK34L&a=QJM47&tp_a=QJM47&b=34MAJL3QP59OU7Y903933TDU8PK34L&tp_b=34MAJL3QP59OU7Y903933TDU8PK34L&c=365717&tp_c=365717"},{"rt":1054,"stimulus":"\n            <h4 style=\"color:Orange;\">Student 6</h4>\n            <h2>The weight of your coin is <b style=\"color:Tomato;\">0.8</b>.</h2>\n            <p>In this block, you will be giving <b>one</b> set of examples to Student 6.</p>\n                <p>You will receive feedback at the end of the block.</p>\n            <p></p>","response":0,"trial_type":"html-button-response","trial_index":53,"time_elapsed":718512,"internal_node_id":"0.0-49.0","params":{"nStudents":24,"maxFlips":30,"completionMinutes":45,"basePay":8,"maxBonus":9,"perTrialBonus":0.5,"perTrialBonusThreshold":0.05,"exampleCost":0.01},"classroomParams":{"A":{"a":1,"b":4},"B":{"a":4,"b":1},"C":{"a":2,"b":8},"D":{"a":8,"b":2}},"conditions":["nonSeqFull","nonSeqPartial","seqNoFeedback","seqFeedback"],"classroomPairings":[["A","B"],["C","D"]],"coinWeights":[0.2,0.5,0.8],"subjectId":"A107RJSS561Y7R","assignmentId":"34MAJL3QP59OU7Y903933TDU8PK34L","hitId":"34XASH8KLQ89J2U8D314D7180O4PMV","url":"https://gershmanlab.com/experiments/alicia/teaching/experiment/?hitId=34XASH8KLQ89J2U8D314D7180O4PMV&workerId=A107RJSS561Y7R&assignmentId=34MAJL3QP59OU7Y903933TDU8PK34L&a=QJM47&tp_a=QJM47&b=34MAJL3QP59OU7Y903933TDU8PK34L&tp_b=34MAJL3QP59OU7Y903933TDU8PK34L&c=365717&tp_c=365717"},{"rt":6869,"response":{"heads":"30","tails":"0"},"type":"response","condition":"nonSeqFull","trueTheta":0.8,"classrooms":["A","B"],"studentTrueClassroom":"B","exampleSet":"first","trial_type":"survey-html-form","trial_index":54,"time_elapsed":725382,"internal_node_id":"0.0-50.0-0.0","params":{"nStudents":24,"maxFlips":30,"completionMinutes":45,"basePay":8,"maxBonus":9,"perTrialBonus":0.5,"perTrialBonusThreshold":0.05,"exampleCost":0.01},"classroomParams":{"A":{"a":1,"b":4},"B":{"a":4,"b":1},"C":{"a":2,"b":8},"D":{"a":8,"b":2}},"conditions":["nonSeqFull","nonSeqPartial","seqNoFeedback","seqFeedback"],"classroomPairings":[["A","B"],["C","D"]],"coinWeights":[0.2,0.5,0.8],"subjectId":"A107RJSS561Y7R","assignmentId":"34MAJL3QP59OU7Y903933TDU8PK34L","hitId":"34XASH8KLQ89J2U8D314D7180O4PMV","url":"https://gershmanlab.com/experiments/alicia/teaching/experiment/?hitId=34XASH8KLQ89J2U8D314D7180O4PMV&workerId=A107RJSS561Y7R&assignmentId=34MAJL3QP59OU7Y903933TDU8PK34L&a=QJM47&tp_a=QJM47&b=34MAJL3QP59OU7Y903933TDU8PK34L&tp_b=34MAJL3QP59OU7Y903933TDU8PK34L&c=365717&tp_c=365717","heads":30,"tails":0,"studentIndex":5,"studentTrueHypers":{"a":4,"b":1},"studentGuess":0.9714285714285714,"delta":0.17142857142857137,"totalExamples":30,"bonus":0,"bonusSoFar":0},{"rt":null,"stimulus":"Sending examples to student... ","response":null,"trial_type":"html-keyboard-response","trial_index":55,"time_elapsed":726634,"internal_node_id":"0.0-51.0","params":{"nStudents":24,"maxFlips":30,"completionMinutes":45,"basePay":8,"maxBonus":9,"perTrialBonus":0.5,"perTrialBonusThreshold":0.05,"exampleCost":0.01},"classroomParams":{"A":{"a":1,"b":4},"B":{"a":4,"b":1},"C":{"a":2,"b":8},"D":{"a":8,"b":2}},"conditions":["nonSeqFull","nonSeqPartial","seqNoFeedback","seqFeedback"],"classroomPairings":[["A","B"],["C","D"]],"coinWeights":[0.2,0.5,0.8],"subjectId":"A107RJSS561Y7R","assignmentId":"34MAJL3QP59OU7Y903933TDU8PK34L","hitId":"34XASH8KLQ89J2U8D314D7180O4PMV","url":"https://gershmanlab.com/experiments/alicia/teaching/experiment/?hitId=34XASH8KLQ89J2U8D314D7180O4PMV&workerId=A107RJSS561Y7R&assignmentId=34MAJL3QP59OU7Y903933TDU8PK34L&a=QJM47&tp_a=QJM47&b=34MAJL3QP59OU7Y903933TDU8PK34L&tp_b=34MAJL3QP59OU7Y903933TDU8PK34L&c=365717&tp_c=365717"},{"rt":null,"stimulus":"Examples sent to student! Waiting for student...","response":null,"trial_type":"html-keyboard-response","trial_index":56,"time_elapsed":732635,"internal_node_id":"0.0-52.0","params":{"nStudents":24,"maxFlips":30,"completionMinutes":45,"basePay":8,"maxBonus":9,"perTrialBonus":0.5,"perTrialBonusThreshold":0.05,"exampleCost":0.01},"classroomParams":{"A":{"a":1,"b":4},"B":{"a":4,"b":1},"C":{"a":2,"b":8},"D":{"a":8,"b":2}},"conditions":["nonSeqFull","nonSeqPartial","seqNoFeedback","seqFeedback"],"classroomPairings":[["A","B"],["C","D"]],"coinWeights":[0.2,0.5,0.8],"subjectId":"A107RJSS561Y7R","assignmentId":"34MAJL3QP59OU7Y903933TDU8PK34L","hitId":"34XASH8KLQ89J2U8D314D7180O4PMV","url":"https://gershmanlab.com/experiments/alicia/teaching/experiment/?hitId=34XASH8KLQ89J2U8D314D7180O4PMV&workerId=A107RJSS561Y7R&assignmentId=34MAJL3QP59OU7Y903933TDU8PK34L&a=QJM47&tp_a=QJM47&b=34MAJL3QP59OU7Y903933TDU8PK34L&tp_b=34MAJL3QP59OU7Y903933TDU8PK34L&c=365717&tp_c=365717"},{"rt":2694,"stimulus":"\n                <p>Student's guess for coin weight: <b style=\"color:Tomato;\">0.97</b></p>\n                <p>You received a bonus of <b>$0</b>. Total bonus so far: <b>$0.00</b></b></p>\n                <p></p>\n                <p>Press any key to continue.</p>\n                ","response":"enter","trial_type":"html-keyboard-response","trial_index":57,"time_elapsed":735330,"internal_node_id":"0.0-53.0","params":{"nStudents":24,"maxFlips":30,"completionMinutes":45,"basePay":8,"maxBonus":9,"perTrialBonus":0.5,"perTrialBonusThreshold":0.05,"exampleCost":0.01},"classroomParams":{"A":{"a":1,"b":4},"B":{"a":4,"b":1},"C":{"a":2,"b":8},"D":{"a":8,"b":2}},"conditions":["nonSeqFull","nonSeqPartial","seqNoFeedback","seqFeedback"],"classroomPairings":[["A","B"],["C","D"]],"coinWeights":[0.2,0.5,0.8],"subjectId":"A107RJSS561Y7R","assignmentId":"34MAJL3QP59OU7Y903933TDU8PK34L","hitId":"34XASH8KLQ89J2U8D314D7180O4PMV","url":"https://gershmanlab.com/experiments/alicia/teaching/experiment/?hitId=34XASH8KLQ89J2U8D314D7180O4PMV&workerId=A107RJSS561Y7R&assignmentId=34MAJL3QP59OU7Y903933TDU8PK34L&a=QJM47&tp_a=QJM47&b=34MAJL3QP59OU7Y903933TDU8PK34L&tp_b=34MAJL3QP59OU7Y903933TDU8PK34L&c=365717&tp_c=365717"},{"rt":null,"stimulus":"<div style=\"font-size:60px;\">Next student</div>","response":null,"trial_type":"html-keyboard-response","trial_index":58,"time_elapsed":737583,"internal_node_id":"0.0-54.0-0.0","params":{"nStudents":24,"maxFlips":30,"completionMinutes":45,"basePay":8,"maxBonus":9,"perTrialBonus":0.5,"perTrialBonusThreshold":0.05,"exampleCost":0.01},"classroomParams":{"A":{"a":1,"b":4},"B":{"a":4,"b":1},"C":{"a":2,"b":8},"D":{"a":8,"b":2}},"conditions":["nonSeqFull","nonSeqPartial","seqNoFeedback","seqFeedback"],"classroomPairings":[["A","B"],["C","D"]],"coinWeights":[0.2,0.5,0.8],"subjectId":"A107RJSS561Y7R","assignmentId":"34MAJL3QP59OU7Y903933TDU8PK34L","hitId":"34XASH8KLQ89J2U8D314D7180O4PMV","url":"https://gershmanlab.com/experiments/alicia/teaching/experiment/?hitId=34XASH8KLQ89J2U8D314D7180O4PMV&workerId=A107RJSS561Y7R&assignmentId=34MAJL3QP59OU7Y903933TDU8PK34L&a=QJM47&tp_a=QJM47&b=34MAJL3QP59OU7Y903933TDU8PK34L&tp_b=34MAJL3QP59OU7Y903933TDU8PK34L&c=365717&tp_c=365717"},{"rt":1719,"stimulus":"\n            <h4 style=\"color:Orange;\">Student 7</h4>\n            <h2>The weight of your coin is <b style=\"color:Tomato;\">0.5</b>.</h2>\n            <p>In this block, you will be giving <b>one</b> set of examples to Student 7.</p>\n                <p>You will receive feedback at the end of the block.</p>\n            <p></p>","response":0,"trial_type":"html-button-response","trial_index":59,"time_elapsed":739303,"internal_node_id":"0.0-55.0","params":{"nStudents":24,"maxFlips":30,"completionMinutes":45,"basePay":8,"maxBonus":9,"perTrialBonus":0.5,"perTrialBonusThreshold":0.05,"exampleCost":0.01},"classroomParams":{"A":{"a":1,"b":4},"B":{"a":4,"b":1},"C":{"a":2,"b":8},"D":{"a":8,"b":2}},"conditions":["nonSeqFull","nonSeqPartial","seqNoFeedback","seqFeedback"],"classroomPairings":[["A","B"],["C","D"]],"coinWeights":[0.2,0.5,0.8],"subjectId":"A107RJSS561Y7R","assignmentId":"34MAJL3QP59OU7Y903933TDU8PK34L","hitId":"34XASH8KLQ89J2U8D314D7180O4PMV","url":"https://gershmanlab.com/experiments/alicia/teaching/experiment/?hitId=34XASH8KLQ89J2U8D314D7180O4PMV&workerId=A107RJSS561Y7R&assignmentId=34MAJL3QP59OU7Y903933TDU8PK34L&a=QJM47&tp_a=QJM47&b=34MAJL3QP59OU7Y903933TDU8PK34L&tp_b=34MAJL3QP59OU7Y903933TDU8PK34L&c=365717&tp_c=365717"},{"rt":4499,"response":{"heads":"3","tails":"1"},"type":"response","condition":"nonSeqFull","trueTheta":0.5,"classrooms":["C","D"],"studentTrueClassroom":"C","exampleSet":"first","trial_type":"survey-html-form","trial_index":60,"time_elapsed":743802,"internal_node_id":"0.0-56.0-0.0","params":{"nStudents":24,"maxFlips":30,"completionMinutes":45,"basePay":8,"maxBonus":9,"perTrialBonus":0.5,"perTrialBonusThreshold":0.05,"exampleCost":0.01},"classroomParams":{"A":{"a":1,"b":4},"B":{"a":4,"b":1},"C":{"a":2,"b":8},"D":{"a":8,"b":2}},"conditions":["nonSeqFull","nonSeqPartial","seqNoFeedback","seqFeedback"],"classroomPairings":[["A","B"],["C","D"]],"coinWeights":[0.2,0.5,0.8],"subjectId":"A107RJSS561Y7R","assignmentId":"34MAJL3QP59OU7Y903933TDU8PK34L","hitId":"34XASH8KLQ89J2U8D314D7180O4PMV","url":"https://gershmanlab.com/experiments/alicia/teaching/experiment/?hitId=34XASH8KLQ89J2U8D314D7180O4PMV&workerId=A107RJSS561Y7R&assignmentId=34MAJL3QP59OU7Y903933TDU8PK34L&a=QJM47&tp_a=QJM47&b=34MAJL3QP59OU7Y903933TDU8PK34L&tp_b=34MAJL3QP59OU7Y903933TDU8PK34L&c=365717&tp_c=365717","heads":3,"tails":1,"studentIndex":6,"studentTrueHypers":{"a":2,"b":8},"studentGuess":0.35714285714285715,"delta":0.14285714285714285,"totalExamples":4,"bonus":0,"bonusSoFar":0},{"rt":null,"stimulus":"Sending examples to student... ","response":null,"trial_type":"html-keyboard-response","trial_index":61,"time_elapsed":745554,"internal_node_id":"0.0-57.0","params":{"nStudents":24,"maxFlips":30,"completionMinutes":45,"basePay":8,"maxBonus":9,"perTrialBonus":0.5,"perTrialBonusThreshold":0.05,"exampleCost":0.01},"classroomParams":{"A":{"a":1,"b":4},"B":{"a":4,"b":1},"C":{"a":2,"b":8},"D":{"a":8,"b":2}},"conditions":["nonSeqFull","nonSeqPartial","seqNoFeedback","seqFeedback"],"classroomPairings":[["A","B"],["C","D"]],"coinWeights":[0.2,0.5,0.8],"subjectId":"A107RJSS561Y7R","assignmentId":"34MAJL3QP59OU7Y903933TDU8PK34L","hitId":"34XASH8KLQ89J2U8D314D7180O4PMV","url":"https://gershmanlab.com/experiments/alicia/teaching/experiment/?hitId=34XASH8KLQ89J2U8D314D7180O4PMV&workerId=A107RJSS561Y7R&assignmentId=34MAJL3QP59OU7Y903933TDU8PK34L&a=QJM47&tp_a=QJM47&b=34MAJL3QP59OU7Y903933TDU8PK34L&tp_b=34MAJL3QP59OU7Y903933TDU8PK34L&c=365717&tp_c=365717"},{"rt":null,"stimulus":"Examples sent to student! Waiting for student...","response":null,"trial_type":"html-keyboard-response","trial_index":62,"time_elapsed":750055,"internal_node_id":"0.0-58.0","params":{"nStudents":24,"maxFlips":30,"completionMinutes":45,"basePay":8,"maxBonus":9,"perTrialBonus":0.5,"perTrialBonusThreshold":0.05,"exampleCost":0.01},"classroomParams":{"A":{"a":1,"b":4},"B":{"a":4,"b":1},"C":{"a":2,"b":8},"D":{"a":8,"b":2}},"conditions":["nonSeqFull","nonSeqPartial","seqNoFeedback","seqFeedback"],"classroomPairings":[["A","B"],["C","D"]],"coinWeights":[0.2,0.5,0.8],"subjectId":"A107RJSS561Y7R","assignmentId":"34MAJL3QP59OU7Y903933TDU8PK34L","hitId":"34XASH8KLQ89J2U8D314D7180O4PMV","url":"https://gershmanlab.com/experiments/alicia/teaching/experiment/?hitId=34XASH8KLQ89J2U8D314D7180O4PMV&workerId=A107RJSS561Y7R&assignmentId=34MAJL3QP59OU7Y903933TDU8PK34L&a=QJM47&tp_a=QJM47&b=34MAJL3QP59OU7Y903933TDU8PK34L&tp_b=34MAJL3QP59OU7Y903933TDU8PK34L&c=365717&tp_c=365717"},{"rt":2171,"stimulus":"\n                <p>Student's guess for coin weight: <b style=\"color:Tomato;\">0.36</b></p>\n                <p>You received a bonus of <b>$0</b>. Total bonus so far: <b>$0.00</b></b></p>\n                <p></p>\n                <p>Press any key to continue.</p>\n                ","response":"enter","trial_type":"html-keyboard-response","trial_index":63,"time_elapsed":752227,"internal_node_id":"0.0-59.0","params":{"nStudents":24,"maxFlips":30,"completionMinutes":45,"basePay":8,"maxBonus":9,"perTrialBonus":0.5,"perTrialBonusThreshold":0.05,"exampleCost":0.01},"classroomParams":{"A":{"a":1,"b":4},"B":{"a":4,"b":1},"C":{"a":2,"b":8},"D":{"a":8,"b":2}},"conditions":["nonSeqFull","nonSeqPartial","seqNoFeedback","seqFeedback"],"classroomPairings":[["A","B"],["C","D"]],"coinWeights":[0.2,0.5,0.8],"subjectId":"A107RJSS561Y7R","assignmentId":"34MAJL3QP59OU7Y903933TDU8PK34L","hitId":"34XASH8KLQ89J2U8D314D7180O4PMV","url":"https://gershmanlab.com/experiments/alicia/teaching/experiment/?hitId=34XASH8KLQ89J2U8D314D7180O4PMV&workerId=A107RJSS561Y7R&assignmentId=34MAJL3QP59OU7Y903933TDU8PK34L&a=QJM47&tp_a=QJM47&b=34MAJL3QP59OU7Y903933TDU8PK34L&tp_b=34MAJL3QP59OU7Y903933TDU8PK34L&c=365717&tp_c=365717"},{"rt":null,"stimulus":"<div style=\"font-size:60px;\">Next student</div>","response":null,"trial_type":"html-keyboard-response","trial_index":64,"time_elapsed":754228,"internal_node_id":"0.0-60.0-0.0","params":{"nStudents":24,"maxFlips":30,"completionMinutes":45,"basePay":8,"maxBonus":9,"perTrialBonus":0.5,"perTrialBonusThreshold":0.05,"exampleCost":0.01},"classroomParams":{"A":{"a":1,"b":4},"B":{"a":4,"b":1},"C":{"a":2,"b":8},"D":{"a":8,"b":2}},"conditions":["nonSeqFull","nonSeqPartial","seqNoFeedback","seqFeedback"],"classroomPairings":[["A","B"],["C","D"]],"coinWeights":[0.2,0.5,0.8],"subjectId":"A107RJSS561Y7R","assignmentId":"34MAJL3QP59OU7Y903933TDU8PK34L","hitId":"34XASH8KLQ89J2U8D314D7180O4PMV","url":"https://gershmanlab.com/experiments/alicia/teaching/experiment/?hitId=34XASH8KLQ89J2U8D314D7180O4PMV&workerId=A107RJSS561Y7R&assignmentId=34MAJL3QP59OU7Y903933TDU8PK34L&a=QJM47&tp_a=QJM47&b=34MAJL3QP59OU7Y903933TDU8PK34L&tp_b=34MAJL3QP59OU7Y903933TDU8PK34L&c=365717&tp_c=365717"},{"rt":5242,"stimulus":"\n            <h4 style=\"color:Orange;\">Student 8</h4>\n            <h2>The weight of your coin is <b style=\"color:Tomato;\">0.8</b>.</h2>\n            <p>In this block, you will be giving <b>two</b> sets of examples to Student 8.</p>\n                <p>You will receive feedback at the end of the block.</p>\n            <p></p>","response":0,"trial_type":"html-button-response","trial_index":65,"time_elapsed":759470,"internal_node_id":"0.0-61.0","params":{"nStudents":24,"maxFlips":30,"completionMinutes":45,"basePay":8,"maxBonus":9,"perTrialBonus":0.5,"perTrialBonusThreshold":0.05,"exampleCost":0.01},"classroomParams":{"A":{"a":1,"b":4},"B":{"a":4,"b":1},"C":{"a":2,"b":8},"D":{"a":8,"b":2}},"conditions":["nonSeqFull","nonSeqPartial","seqNoFeedback","seqFeedback"],"classroomPairings":[["A","B"],["C","D"]],"coinWeights":[0.2,0.5,0.8],"subjectId":"A107RJSS561Y7R","assignmentId":"34MAJL3QP59OU7Y903933TDU8PK34L","hitId":"34XASH8KLQ89J2U8D314D7180O4PMV","url":"https://gershmanlab.com/experiments/alicia/teaching/experiment/?hitId=34XASH8KLQ89J2U8D314D7180O4PMV&workerId=A107RJSS561Y7R&assignmentId=34MAJL3QP59OU7Y903933TDU8PK34L&a=QJM47&tp_a=QJM47&b=34MAJL3QP59OU7Y903933TDU8PK34L&tp_b=34MAJL3QP59OU7Y903933TDU8PK34L&c=365717&tp_c=365717"},{"rt":4694,"response":{"heads":"5","tails":"1"},"type":"response","condition":"seqNoFeedback","trueTheta":0.8,"classrooms":["A","B"],"studentTrueClassroom":"A","exampleSet":"first","trial_type":"survey-html-form","trial_index":66,"time_elapsed":764166,"internal_node_id":"0.0-62.0-0.0","params":{"nStudents":24,"maxFlips":30,"completionMinutes":45,"basePay":8,"maxBonus":9,"perTrialBonus":0.5,"perTrialBonusThreshold":0.05,"exampleCost":0.01},"classroomParams":{"A":{"a":1,"b":4},"B":{"a":4,"b":1},"C":{"a":2,"b":8},"D":{"a":8,"b":2}},"conditions":["nonSeqFull","nonSeqPartial","seqNoFeedback","seqFeedback"],"classroomPairings":[["A","B"],["C","D"]],"coinWeights":[0.2,0.5,0.8],"subjectId":"A107RJSS561Y7R","assignmentId":"34MAJL3QP59OU7Y903933TDU8PK34L","hitId":"34XASH8KLQ89J2U8D314D7180O4PMV","url":"https://gershmanlab.com/experiments/alicia/teaching/experiment/?hitId=34XASH8KLQ89J2U8D314D7180O4PMV&workerId=A107RJSS561Y7R&assignmentId=34MAJL3QP59OU7Y903933TDU8PK34L&a=QJM47&tp_a=QJM47&b=34MAJL3QP59OU7Y903933TDU8PK34L&tp_b=34MAJL3QP59OU7Y903933TDU8PK34L&c=365717&tp_c=365717","heads":5,"tails":1,"studentIndex":7,"studentTrueHypers":{"a":1,"b":4},"studentGuess":0.5454545454545454,"delta":0.25454545454545463,"totalExamples":6,"bonusSoFar":0},{"rt":null,"stimulus":"Sending examples to student... ","response":null,"trial_type":"html-keyboard-response","trial_index":67,"time_elapsed":766168,"internal_node_id":"0.0-63.0","params":{"nStudents":24,"maxFlips":30,"completionMinutes":45,"basePay":8,"maxBonus":9,"perTrialBonus":0.5,"perTrialBonusThreshold":0.05,"exampleCost":0.01},"classroomParams":{"A":{"a":1,"b":4},"B":{"a":4,"b":1},"C":{"a":2,"b":8},"D":{"a":8,"b":2}},"conditions":["nonSeqFull","nonSeqPartial","seqNoFeedback","seqFeedback"],"classroomPairings":[["A","B"],["C","D"]],"coinWeights":[0.2,0.5,0.8],"subjectId":"A107RJSS561Y7R","assignmentId":"34MAJL3QP59OU7Y903933TDU8PK34L","hitId":"34XASH8KLQ89J2U8D314D7180O4PMV","url":"https://gershmanlab.com/experiments/alicia/teaching/experiment/?hitId=34XASH8KLQ89J2U8D314D7180O4PMV&workerId=A107RJSS561Y7R&assignmentId=34MAJL3QP59OU7Y903933TDU8PK34L&a=QJM47&tp_a=QJM47&b=34MAJL3QP59OU7Y903933TDU8PK34L&tp_b=34MAJL3QP59OU7Y903933TDU8PK34L&c=365717&tp_c=365717"},{"rt":null,"stimulus":"Examples sent to student! Waiting for student...","response":null,"trial_type":"html-keyboard-response","trial_index":68,"time_elapsed":770169,"internal_node_id":"0.0-64.0","params":{"nStudents":24,"maxFlips":30,"completionMinutes":45,"basePay":8,"maxBonus":9,"perTrialBonus":0.5,"perTrialBonusThreshold":0.05,"exampleCost":0.01},"classroomParams":{"A":{"a":1,"b":4},"B":{"a":4,"b":1},"C":{"a":2,"b":8},"D":{"a":8,"b":2}},"conditions":["nonSeqFull","nonSeqPartial","seqNoFeedback","seqFeedback"],"classroomPairings":[["A","B"],["C","D"]],"coinWeights":[0.2,0.5,0.8],"subjectId":"A107RJSS561Y7R","assignmentId":"34MAJL3QP59OU7Y903933TDU8PK34L","hitId":"34XASH8KLQ89J2U8D314D7180O4PMV","url":"https://gershmanlab.com/experiments/alicia/teaching/experiment/?hitId=34XASH8KLQ89J2U8D314D7180O4PMV&workerId=A107RJSS561Y7R&assignmentId=34MAJL3QP59OU7Y903933TDU8PK34L&a=QJM47&tp_a=QJM47&b=34MAJL3QP59OU7Y903933TDU8PK34L&tp_b=34MAJL3QP59OU7Y903933TDU8PK34L&c=365717&tp_c=365717"},{"rt":4676,"response":{"heads":"5","tails":"1"},"type":"response","condition":"seqNoFeedback","trueTheta":0.8,"classrooms":["A","B"],"studentTrueClassroom":"A","exampleSet":"second","trial_type":"survey-html-form","trial_index":69,"time_elapsed":774846,"internal_node_id":"0.0-65.0-0.0","params":{"nStudents":24,"maxFlips":30,"completionMinutes":45,"basePay":8,"maxBonus":9,"perTrialBonus":0.5,"perTrialBonusThreshold":0.05,"exampleCost":0.01},"classroomParams":{"A":{"a":1,"b":4},"B":{"a":4,"b":1},"C":{"a":2,"b":8},"D":{"a":8,"b":2}},"conditions":["nonSeqFull","nonSeqPartial","seqNoFeedback","seqFeedback"],"classroomPairings":[["A","B"],["C","D"]],"coinWeights":[0.2,0.5,0.8],"subjectId":"A107RJSS561Y7R","assignmentId":"34MAJL3QP59OU7Y903933TDU8PK34L","hitId":"34XASH8KLQ89J2U8D314D7180O4PMV","url":"https://gershmanlab.com/experiments/alicia/teaching/experiment/?hitId=34XASH8KLQ89J2U8D314D7180O4PMV&workerId=A107RJSS561Y7R&assignmentId=34MAJL3QP59OU7Y903933TDU8PK34L&a=QJM47&tp_a=QJM47&b=34MAJL3QP59OU7Y903933TDU8PK34L&tp_b=34MAJL3QP59OU7Y903933TDU8PK34L&c=365717&tp_c=365717","firstResponseHeads":5,"firstResponseTails":1,"secondResponseHeads":5,"secondResponseTails":1,"totalHeads":10,"totalTails":2,"studentIndex":7,"studentTrueHypers":{"a":1,"b":4},"studentGuess":0.6470588235294118,"delta":0.15294117647058825,"bonus":0,"bonusSoFar":0,"totalExamples":12},{"rt":null,"stimulus":"Sending examples to student... ","response":null,"trial_type":"html-keyboard-response","trial_index":70,"time_elapsed":776348,"internal_node_id":"0.0-66.0","params":{"nStudents":24,"maxFlips":30,"completionMinutes":45,"basePay":8,"maxBonus":9,"perTrialBonus":0.5,"perTrialBonusThreshold":0.05,"exampleCost":0.01},"classroomParams":{"A":{"a":1,"b":4},"B":{"a":4,"b":1},"C":{"a":2,"b":8},"D":{"a":8,"b":2}},"conditions":["nonSeqFull","nonSeqPartial","seqNoFeedback","seqFeedback"],"classroomPairings":[["A","B"],["C","D"]],"coinWeights":[0.2,0.5,0.8],"subjectId":"A107RJSS561Y7R","assignmentId":"34MAJL3QP59OU7Y903933TDU8PK34L","hitId":"34XASH8KLQ89J2U8D314D7180O4PMV","url":"https://gershmanlab.com/experiments/alicia/teaching/experiment/?hitId=34XASH8KLQ89J2U8D314D7180O4PMV&workerId=A107RJSS561Y7R&assignmentId=34MAJL3QP59OU7Y903933TDU8PK34L&a=QJM47&tp_a=QJM47&b=34MAJL3QP59OU7Y903933TDU8PK34L&tp_b=34MAJL3QP59OU7Y903933TDU8PK34L&c=365717&tp_c=365717"},{"rt":null,"stimulus":"Examples sent to student! Waiting for student...","response":null,"trial_type":"html-keyboard-response","trial_index":71,"time_elapsed":780849,"internal_node_id":"0.0-67.0","params":{"nStudents":24,"maxFlips":30,"completionMinutes":45,"basePay":8,"maxBonus":9,"perTrialBonus":0.5,"perTrialBonusThreshold":0.05,"exampleCost":0.01},"classroomParams":{"A":{"a":1,"b":4},"B":{"a":4,"b":1},"C":{"a":2,"b":8},"D":{"a":8,"b":2}},"conditions":["nonSeqFull","nonSeqPartial","seqNoFeedback","seqFeedback"],"classroomPairings":[["A","B"],["C","D"]],"coinWeights":[0.2,0.5,0.8],"subjectId":"A107RJSS561Y7R","assignmentId":"34MAJL3QP59OU7Y903933TDU8PK34L","hitId":"34XASH8KLQ89J2U8D314D7180O4PMV","url":"https://gershmanlab.com/experiments/alicia/teaching/experiment/?hitId=34XASH8KLQ89J2U8D314D7180O4PMV&workerId=A107RJSS561Y7R&assignmentId=34MAJL3QP59OU7Y903933TDU8PK34L&a=QJM47&tp_a=QJM47&b=34MAJL3QP59OU7Y903933TDU8PK34L&tp_b=34MAJL3QP59OU7Y903933TDU8PK34L&c=365717&tp_c=365717"},{"rt":2560,"stimulus":"\n                <p>Student 8's first guess for coin weight: <b style=\"color:Tomato\";>0.55</b></p>\n                <p>Student 8's second guess for coin weight: <b style=\"color:Tomato\";>0.65</b></p>\n                <p>You received a bonus of <b>$0.00</b> based on the student's second guess.</p>\n                <p>Total bonus so far: <b>$0.00</b></p>\n                <p>Press any key to continue.</p>\n                ","response":"enter","trial_type":"html-keyboard-response","trial_index":72,"time_elapsed":783410,"internal_node_id":"0.0-68.0","params":{"nStudents":24,"maxFlips":30,"completionMinutes":45,"basePay":8,"maxBonus":9,"perTrialBonus":0.5,"perTrialBonusThreshold":0.05,"exampleCost":0.01},"classroomParams":{"A":{"a":1,"b":4},"B":{"a":4,"b":1},"C":{"a":2,"b":8},"D":{"a":8,"b":2}},"conditions":["nonSeqFull","nonSeqPartial","seqNoFeedback","seqFeedback"],"classroomPairings":[["A","B"],["C","D"]],"coinWeights":[0.2,0.5,0.8],"subjectId":"A107RJSS561Y7R","assignmentId":"34MAJL3QP59OU7Y903933TDU8PK34L","hitId":"34XASH8KLQ89J2U8D314D7180O4PMV","url":"https://gershmanlab.com/experiments/alicia/teaching/experiment/?hitId=34XASH8KLQ89J2U8D314D7180O4PMV&workerId=A107RJSS561Y7R&assignmentId=34MAJL3QP59OU7Y903933TDU8PK34L&a=QJM47&tp_a=QJM47&b=34MAJL3QP59OU7Y903933TDU8PK34L&tp_b=34MAJL3QP59OU7Y903933TDU8PK34L&c=365717&tp_c=365717"},{"rt":null,"stimulus":"<div style=\"font-size:60px;\">Next student</div>","response":null,"trial_type":"html-keyboard-response","trial_index":73,"time_elapsed":785411,"internal_node_id":"0.0-69.0-0.0","params":{"nStudents":24,"maxFlips":30,"completionMinutes":45,"basePay":8,"maxBonus":9,"perTrialBonus":0.5,"perTrialBonusThreshold":0.05,"exampleCost":0.01},"classroomParams":{"A":{"a":1,"b":4},"B":{"a":4,"b":1},"C":{"a":2,"b":8},"D":{"a":8,"b":2}},"conditions":["nonSeqFull","nonSeqPartial","seqNoFeedback","seqFeedback"],"classroomPairings":[["A","B"],["C","D"]],"coinWeights":[0.2,0.5,0.8],"subjectId":"A107RJSS561Y7R","assignmentId":"34MAJL3QP59OU7Y903933TDU8PK34L","hitId":"34XASH8KLQ89J2U8D314D7180O4PMV","url":"https://gershmanlab.com/experiments/alicia/teaching/experiment/?hitId=34XASH8KLQ89J2U8D314D7180O4PMV&workerId=A107RJSS561Y7R&assignmentId=34MAJL3QP59OU7Y903933TDU8PK34L&a=QJM47&tp_a=QJM47&b=34MAJL3QP59OU7Y903933TDU8PK34L&tp_b=34MAJL3QP59OU7Y903933TDU8PK34L&c=365717&tp_c=365717"},{"rt":1457,"stimulus":"\n            <h4 style=\"color:Orange;\">Student 9</h4>\n            <h2>The weight of your coin is <b style=\"color:Tomato;\">0.2</b>.</h2>\n            <p>In this block, you will be giving <b>one</b> set of examples to Student 9.</p>\n                <p>You will receive feedback at the end of the block.</p>\n            <p></p>","response":0,"trial_type":"html-button-response","trial_index":74,"time_elapsed":786869,"internal_node_id":"0.0-70.0","params":{"nStudents":24,"maxFlips":30,"completionMinutes":45,"basePay":8,"maxBonus":9,"perTrialBonus":0.5,"perTrialBonusThreshold":0.05,"exampleCost":0.01},"classroomParams":{"A":{"a":1,"b":4},"B":{"a":4,"b":1},"C":{"a":2,"b":8},"D":{"a":8,"b":2}},"conditions":["nonSeqFull","nonSeqPartial","seqNoFeedback","seqFeedback"],"classroomPairings":[["A","B"],["C","D"]],"coinWeights":[0.2,0.5,0.8],"subjectId":"A107RJSS561Y7R","assignmentId":"34MAJL3QP59OU7Y903933TDU8PK34L","hitId":"34XASH8KLQ89J2U8D314D7180O4PMV","url":"https://gershmanlab.com/experiments/alicia/teaching/experiment/?hitId=34XASH8KLQ89J2U8D314D7180O4PMV&workerId=A107RJSS561Y7R&assignmentId=34MAJL3QP59OU7Y903933TDU8PK34L&a=QJM47&tp_a=QJM47&b=34MAJL3QP59OU7Y903933TDU8PK34L&tp_b=34MAJL3QP59OU7Y903933TDU8PK34L&c=365717&tp_c=365717"},{"rt":4904,"response":{"heads":"1","tails":"2"},"type":"response","condition":"nonSeqFull","trueTheta":0.2,"classrooms":["C","D"],"studentTrueClassroom":"C","exampleSet":"first","trial_type":"survey-html-form","trial_index":75,"time_elapsed":791774,"internal_node_id":"0.0-71.0-0.0","params":{"nStudents":24,"maxFlips":30,"completionMinutes":45,"basePay":8,"maxBonus":9,"perTrialBonus":0.5,"perTrialBonusThreshold":0.05,"exampleCost":0.01},"classroomParams":{"A":{"a":1,"b":4},"B":{"a":4,"b":1},"C":{"a":2,"b":8},"D":{"a":8,"b":2}},"conditions":["nonSeqFull","nonSeqPartial","seqNoFeedback","seqFeedback"],"classroomPairings":[["A","B"],["C","D"]],"coinWeights":[0.2,0.5,0.8],"subjectId":"A107RJSS561Y7R","assignmentId":"34MAJL3QP59OU7Y903933TDU8PK34L","hitId":"34XASH8KLQ89J2U8D314D7180O4PMV","url":"https://gershmanlab.com/experiments/alicia/teaching/experiment/?hitId=34XASH8KLQ89J2U8D314D7180O4PMV&workerId=A107RJSS561Y7R&assignmentId=34MAJL3QP59OU7Y903933TDU8PK34L&a=QJM47&tp_a=QJM47&b=34MAJL3QP59OU7Y903933TDU8PK34L&tp_b=34MAJL3QP59OU7Y903933TDU8PK34L&c=365717&tp_c=365717","heads":1,"tails":2,"studentIndex":8,"studentTrueHypers":{"a":2,"b":8},"studentGuess":0.23076923076923078,"delta":0.03076923076923077,"totalExamples":3,"bonus":0.47,"bonusSoFar":0.47},{"rt":null,"stimulus":"Sending examples to student... ","response":null,"trial_type":"html-keyboard-response","trial_index":76,"time_elapsed":793526,"internal_node_id":"0.0-72.0","params":{"nStudents":24,"maxFlips":30,"completionMinutes":45,"basePay":8,"maxBonus":9,"perTrialBonus":0.5,"perTrialBonusThreshold":0.05,"exampleCost":0.01},"classroomParams":{"A":{"a":1,"b":4},"B":{"a":4,"b":1},"C":{"a":2,"b":8},"D":{"a":8,"b":2}},"conditions":["nonSeqFull","nonSeqPartial","seqNoFeedback","seqFeedback"],"classroomPairings":[["A","B"],["C","D"]],"coinWeights":[0.2,0.5,0.8],"subjectId":"A107RJSS561Y7R","assignmentId":"34MAJL3QP59OU7Y903933TDU8PK34L","hitId":"34XASH8KLQ89J2U8D314D7180O4PMV","url":"https://gershmanlab.com/experiments/alicia/teaching/experiment/?hitId=34XASH8KLQ89J2U8D314D7180O4PMV&workerId=A107RJSS561Y7R&assignmentId=34MAJL3QP59OU7Y903933TDU8PK34L&a=QJM47&tp_a=QJM47&b=34MAJL3QP59OU7Y903933TDU8PK34L&tp_b=34MAJL3QP59OU7Y903933TDU8PK34L&c=365717&tp_c=365717"},{"rt":null,"stimulus":"Examples sent to student! Waiting for student...","response":null,"trial_type":"html-keyboard-response","trial_index":77,"time_elapsed":797527,"internal_node_id":"0.0-73.0","params":{"nStudents":24,"maxFlips":30,"completionMinutes":45,"basePay":8,"maxBonus":9,"perTrialBonus":0.5,"perTrialBonusThreshold":0.05,"exampleCost":0.01},"classroomParams":{"A":{"a":1,"b":4},"B":{"a":4,"b":1},"C":{"a":2,"b":8},"D":{"a":8,"b":2}},"conditions":["nonSeqFull","nonSeqPartial","seqNoFeedback","seqFeedback"],"classroomPairings":[["A","B"],["C","D"]],"coinWeights":[0.2,0.5,0.8],"subjectId":"A107RJSS561Y7R","assignmentId":"34MAJL3QP59OU7Y903933TDU8PK34L","hitId":"34XASH8KLQ89J2U8D314D7180O4PMV","url":"https://gershmanlab.com/experiments/alicia/teaching/experiment/?hitId=34XASH8KLQ89J2U8D314D7180O4PMV&workerId=A107RJSS561Y7R&assignmentId=34MAJL3QP59OU7Y903933TDU8PK34L&a=QJM47&tp_a=QJM47&b=34MAJL3QP59OU7Y903933TDU8PK34L&tp_b=34MAJL3QP59OU7Y903933TDU8PK34L&c=365717&tp_c=365717"},{"rt":4877,"stimulus":"\n                <p>Student's guess for coin weight: <b style=\"color:Tomato;\">0.23</b></p>\n                <p>You received a bonus of <b>$0.47</b>. Total bonus so far: <b>$0.47</b></b></p>\n                <p></p>\n                <p>Press any key to continue.</p>\n                ","response":"enter","trial_type":"html-keyboard-response","trial_index":78,"time_elapsed":802405,"internal_node_id":"0.0-74.0","params":{"nStudents":24,"maxFlips":30,"completionMinutes":45,"basePay":8,"maxBonus":9,"perTrialBonus":0.5,"perTrialBonusThreshold":0.05,"exampleCost":0.01},"classroomParams":{"A":{"a":1,"b":4},"B":{"a":4,"b":1},"C":{"a":2,"b":8},"D":{"a":8,"b":2}},"conditions":["nonSeqFull","nonSeqPartial","seqNoFeedback","seqFeedback"],"classroomPairings":[["A","B"],["C","D"]],"coinWeights":[0.2,0.5,0.8],"subjectId":"A107RJSS561Y7R","assignmentId":"34MAJL3QP59OU7Y903933TDU8PK34L","hitId":"34XASH8KLQ89J2U8D314D7180O4PMV","url":"https://gershmanlab.com/experiments/alicia/teaching/experiment/?hitId=34XASH8KLQ89J2U8D314D7180O4PMV&workerId=A107RJSS561Y7R&assignmentId=34MAJL3QP59OU7Y903933TDU8PK34L&a=QJM47&tp_a=QJM47&b=34MAJL3QP59OU7Y903933TDU8PK34L&tp_b=34MAJL3QP59OU7Y903933TDU8PK34L&c=365717&tp_c=365717"},{"rt":null,"stimulus":"<div style=\"font-size:60px;\">Next student</div>","response":null,"trial_type":"html-keyboard-response","trial_index":79,"time_elapsed":805407,"internal_node_id":"0.0-75.0-0.0","params":{"nStudents":24,"maxFlips":30,"completionMinutes":45,"basePay":8,"maxBonus":9,"perTrialBonus":0.5,"perTrialBonusThreshold":0.05,"exampleCost":0.01},"classroomParams":{"A":{"a":1,"b":4},"B":{"a":4,"b":1},"C":{"a":2,"b":8},"D":{"a":8,"b":2}},"conditions":["nonSeqFull","nonSeqPartial","seqNoFeedback","seqFeedback"],"classroomPairings":[["A","B"],["C","D"]],"coinWeights":[0.2,0.5,0.8],"subjectId":"A107RJSS561Y7R","assignmentId":"34MAJL3QP59OU7Y903933TDU8PK34L","hitId":"34XASH8KLQ89J2U8D314D7180O4PMV","url":"https://gershmanlab.com/experiments/alicia/teaching/experiment/?hitId=34XASH8KLQ89J2U8D314D7180O4PMV&workerId=A107RJSS561Y7R&assignmentId=34MAJL3QP59OU7Y903933TDU8PK34L&a=QJM47&tp_a=QJM47&b=34MAJL3QP59OU7Y903933TDU8PK34L&tp_b=34MAJL3QP59OU7Y903933TDU8PK34L&c=365717&tp_c=365717"},{"rt":1344,"stimulus":"\n            <h4 style=\"color:Orange;\">Student 10</h4>\n            <h2>The weight of your coin is <b style=\"color:Tomato;\">0.2</b>.</h2>\n            <p>In this block, you will be giving <b>two</b> sets of examples to Student 10.</p>\n                <p>You will receive feedback at the end of the block.</p>\n            <p></p>","response":0,"trial_type":"html-button-response","trial_index":80,"time_elapsed":806752,"internal_node_id":"0.0-76.0","params":{"nStudents":24,"maxFlips":30,"completionMinutes":45,"basePay":8,"maxBonus":9,"perTrialBonus":0.5,"perTrialBonusThreshold":0.05,"exampleCost":0.01},"classroomParams":{"A":{"a":1,"b":4},"B":{"a":4,"b":1},"C":{"a":2,"b":8},"D":{"a":8,"b":2}},"conditions":["nonSeqFull","nonSeqPartial","seqNoFeedback","seqFeedback"],"classroomPairings":[["A","B"],["C","D"]],"coinWeights":[0.2,0.5,0.8],"subjectId":"A107RJSS561Y7R","assignmentId":"34MAJL3QP59OU7Y903933TDU8PK34L","hitId":"34XASH8KLQ89J2U8D314D7180O4PMV","url":"https://gershmanlab.com/experiments/alicia/teaching/experiment/?hitId=34XASH8KLQ89J2U8D314D7180O4PMV&workerId=A107RJSS561Y7R&assignmentId=34MAJL3QP59OU7Y903933TDU8PK34L&a=QJM47&tp_a=QJM47&b=34MAJL3QP59OU7Y903933TDU8PK34L&tp_b=34MAJL3QP59OU7Y903933TDU8PK34L&c=365717&tp_c=365717"},{"rt":4064,"response":{"heads":"1","tails":"2"},"type":"response","condition":"seqNoFeedback","trueTheta":0.2,"classrooms":["A","B"],"studentTrueClassroom":"B","exampleSet":"first","trial_type":"survey-html-form","trial_index":81,"time_elapsed":810816,"internal_node_id":"0.0-77.0-0.0","params":{"nStudents":24,"maxFlips":30,"completionMinutes":45,"basePay":8,"maxBonus":9,"perTrialBonus":0.5,"perTrialBonusThreshold":0.05,"exampleCost":0.01},"classroomParams":{"A":{"a":1,"b":4},"B":{"a":4,"b":1},"C":{"a":2,"b":8},"D":{"a":8,"b":2}},"conditions":["nonSeqFull","nonSeqPartial","seqNoFeedback","seqFeedback"],"classroomPairings":[["A","B"],["C","D"]],"coinWeights":[0.2,0.5,0.8],"subjectId":"A107RJSS561Y7R","assignmentId":"34MAJL3QP59OU7Y903933TDU8PK34L","hitId":"34XASH8KLQ89J2U8D314D7180O4PMV","url":"https://gershmanlab.com/experiments/alicia/teaching/experiment/?hitId=34XASH8KLQ89J2U8D314D7180O4PMV&workerId=A107RJSS561Y7R&assignmentId=34MAJL3QP59OU7Y903933TDU8PK34L&a=QJM47&tp_a=QJM47&b=34MAJL3QP59OU7Y903933TDU8PK34L&tp_b=34MAJL3QP59OU7Y903933TDU8PK34L&c=365717&tp_c=365717","heads":1,"tails":2,"studentIndex":9,"studentTrueHypers":{"a":4,"b":1},"studentGuess":0.625,"delta":0.425,"totalExamples":3,"bonusSoFar":0.47},{"rt":null,"stimulus":"Sending examples to student... ","response":null,"trial_type":"html-keyboard-response","trial_index":82,"time_elapsed":812819,"internal_node_id":"0.0-78.0","params":{"nStudents":24,"maxFlips":30,"completionMinutes":45,"basePay":8,"maxBonus":9,"perTrialBonus":0.5,"perTrialBonusThreshold":0.05,"exampleCost":0.01},"classroomParams":{"A":{"a":1,"b":4},"B":{"a":4,"b":1},"C":{"a":2,"b":8},"D":{"a":8,"b":2}},"conditions":["nonSeqFull","nonSeqPartial","seqNoFeedback","seqFeedback"],"classroomPairings":[["A","B"],["C","D"]],"coinWeights":[0.2,0.5,0.8],"subjectId":"A107RJSS561Y7R","assignmentId":"34MAJL3QP59OU7Y903933TDU8PK34L","hitId":"34XASH8KLQ89J2U8D314D7180O4PMV","url":"https://gershmanlab.com/experiments/alicia/teaching/experiment/?hitId=34XASH8KLQ89J2U8D314D7180O4PMV&workerId=A107RJSS561Y7R&assignmentId=34MAJL3QP59OU7Y903933TDU8PK34L&a=QJM47&tp_a=QJM47&b=34MAJL3QP59OU7Y903933TDU8PK34L&tp_b=34MAJL3QP59OU7Y903933TDU8PK34L&c=365717&tp_c=365717"},{"rt":null,"stimulus":"Examples sent to student! Waiting for student...","response":null,"trial_type":"html-keyboard-response","trial_index":83,"time_elapsed":816821,"internal_node_id":"0.0-79.0","params":{"nStudents":24,"maxFlips":30,"completionMinutes":45,"basePay":8,"maxBonus":9,"perTrialBonus":0.5,"perTrialBonusThreshold":0.05,"exampleCost":0.01},"classroomParams":{"A":{"a":1,"b":4},"B":{"a":4,"b":1},"C":{"a":2,"b":8},"D":{"a":8,"b":2}},"conditions":["nonSeqFull","nonSeqPartial","seqNoFeedback","seqFeedback"],"classroomPairings":[["A","B"],["C","D"]],"coinWeights":[0.2,0.5,0.8],"subjectId":"A107RJSS561Y7R","assignmentId":"34MAJL3QP59OU7Y903933TDU8PK34L","hitId":"34XASH8KLQ89J2U8D314D7180O4PMV","url":"https://gershmanlab.com/experiments/alicia/teaching/experiment/?hitId=34XASH8KLQ89J2U8D314D7180O4PMV&workerId=A107RJSS561Y7R&assignmentId=34MAJL3QP59OU7Y903933TDU8PK34L&a=QJM47&tp_a=QJM47&b=34MAJL3QP59OU7Y903933TDU8PK34L&tp_b=34MAJL3QP59OU7Y903933TDU8PK34L&c=365717&tp_c=365717"},{"rt":12617,"response":{"heads":"1","tails":"4"},"type":"response","condition":"seqNoFeedback","trueTheta":0.2,"classrooms":["A","B"],"studentTrueClassroom":"B","exampleSet":"second","trial_type":"survey-html-form","trial_index":84,"time_elapsed":829439,"internal_node_id":"0.0-80.0-0.0","params":{"nStudents":24,"maxFlips":30,"completionMinutes":45,"basePay":8,"maxBonus":9,"perTrialBonus":0.5,"perTrialBonusThreshold":0.05,"exampleCost":0.01},"classroomParams":{"A":{"a":1,"b":4},"B":{"a":4,"b":1},"C":{"a":2,"b":8},"D":{"a":8,"b":2}},"conditions":["nonSeqFull","nonSeqPartial","seqNoFeedback","seqFeedback"],"classroomPairings":[["A","B"],["C","D"]],"coinWeights":[0.2,0.5,0.8],"subjectId":"A107RJSS561Y7R","assignmentId":"34MAJL3QP59OU7Y903933TDU8PK34L","hitId":"34XASH8KLQ89J2U8D314D7180O4PMV","url":"https://gershmanlab.com/experiments/alicia/teaching/experiment/?hitId=34XASH8KLQ89J2U8D314D7180O4PMV&workerId=A107RJSS561Y7R&assignmentId=34MAJL3QP59OU7Y903933TDU8PK34L&a=QJM47&tp_a=QJM47&b=34MAJL3QP59OU7Y903933TDU8PK34L&tp_b=34MAJL3QP59OU7Y903933TDU8PK34L&c=365717&tp_c=365717","firstResponseHeads":1,"firstResponseTails":2,"secondResponseHeads":1,"secondResponseTails":4,"totalHeads":2,"totalTails":6,"studentIndex":9,"studentTrueHypers":{"a":4,"b":1},"studentGuess":0.46153846153846156,"delta":0.26153846153846155,"bonus":0,"bonusSoFar":0.47,"totalExamples":8},{"rt":null,"stimulus":"Sending examples to student... ","response":null,"trial_type":"html-keyboard-response","trial_index":85,"time_elapsed":831190,"internal_node_id":"0.0-81.0","params":{"nStudents":24,"maxFlips":30,"completionMinutes":45,"basePay":8,"maxBonus":9,"perTrialBonus":0.5