[{"rt":3255,"stimulus":"Welcome to the experiment. Press any key to begin.","response":"j","trial_type":"html-keyboard-response","trial_index":0,"time_elapsed":3268,"internal_node_id":"0.0-0.0","params":{"nStudents":24,"maxFlips":30,"completionMinutes":45,"basePay":8,"maxBonus":9,"perTrialBonus":0.5,"perTrialBonusThreshold":0.05,"exampleCost":0.01},"classroomParams":{"A":{"a":1,"b":4},"B":{"a":4,"b":1},"C":{"a":2,"b":8},"D":{"a":8,"b":2}},"conditions":["nonSeqFull","nonSeqPartial","seqNoFeedback","seqFeedback"],"classroomPairings":[["A","B"],["C","D"]],"coinWeights":[0.2,0.5,0.8],"subjectId":"A11YS0T8MV3Q7C","assignmentId":"3C8HJ7UOP8G5JQU8RE48TOZ99COZMV","hitId":"3NI0WFPPI9246I5W92FX9A3E2GN605","url":"https://gershmanlab.com/experiments/alicia/teaching/experiment/?hitId=3NI0WFPPI9246I5W92FX9A3E2GN605&workerId=A11YS0T8MV3Q7C&assignmentId=3C8HJ7UOP8G5JQU8RE48TOZ99COZMV&a=OJ8C9&tp_a=OJ8C9&b=3C8HJ7UOP8G5JQU8RE48TOZ99COZMV&tp_b=3C8HJ7UOP8G5JQU8RE48TOZ99COZMV&c=365799&tp_c=365799"},{"rt":11899,"stimulus":"\n        <h3>Please read this consent agreement carefully before deciding whether to participate in this experiment.</h3>\n        <p><b>Purpose of the research:</b> To examine how people teach effectively.</p>\n        <p><b>What you will do in this research:</b> You will teach students the weights of different coins.</p>\n        <p><b>Time required:</b> This experiment will take 45 minutes to complete.</p>\n        <p><b>Risks:</b> There are no anticipated risks associated with participating in this study.             The effects of participating should be comparable to those you would experience from viewing a computer monitor             and using a mouse and keyboard for the duration of the experiment.</p>\n        <p><b>Benefits:</b> The study provides important information about the nature of teaching.</p>\n        <p><b>Compensation:</b> You will receive <b>$8</b> for completing the experiment and a performance bonus of up to <b>$9</b>.</p>\n        <p><b>Confidentiality:</b> Your participation in this study will remain confidential.             No personally identifiable information will be associated with your data.             Your de-identified data may be shared with other researchers and used in future projects.</p>\n        <p><b>Participation and withdrawal:</b> Your participation in this study is completely voluntary and             you may refuse to participate or you may choose to withdraw at any time without penalty or loss of\n            benefits to which you are otherwise entitled.</p>\n        <p><b>How to contact the researcher:</b> If you have questions or concerns about your participation            or payment, or want to request a summary of research findings, please contact\n            Alicia Chen, aliciachen@college.harvard.edu.</p>\n        <p><b>Whom to contact about your rights in this research:</b> For questions, concerns, suggestions,             or complaints that have not been or cannot be addressed by the researcher, or to report             research-related harm, please contact the Committee on the Use of Human Subjects in Research at Harvard University,             1414 Massachusetts Avenue, Second Floor, Cambridge, MA 02138. Phone: 617-496-2847. Email: cuhs@fas.harvard.edu.</p>\n        ","response":0,"trial_type":"html-button-response","trial_index":1,"time_elapsed":15171,"internal_node_id":"0.0-1.0","params":{"nStudents":24,"maxFlips":30,"completionMinutes":45,"basePay":8,"maxBonus":9,"perTrialBonus":0.5,"perTrialBonusThreshold":0.05,"exampleCost":0.01},"classroomParams":{"A":{"a":1,"b":4},"B":{"a":4,"b":1},"C":{"a":2,"b":8},"D":{"a":8,"b":2}},"conditions":["nonSeqFull","nonSeqPartial","seqNoFeedback","seqFeedback"],"classroomPairings":[["A","B"],["C","D"]],"coinWeights":[0.2,0.5,0.8],"subjectId":"A11YS0T8MV3Q7C","assignmentId":"3C8HJ7UOP8G5JQU8RE48TOZ99COZMV","hitId":"3NI0WFPPI9246I5W92FX9A3E2GN605","url":"https://gershmanlab.com/experiments/alicia/teaching/experiment/?hitId=3NI0WFPPI9246I5W92FX9A3E2GN605&workerId=A11YS0T8MV3Q7C&assignmentId=3C8HJ7UOP8G5JQU8RE48TOZ99COZMV&a=OJ8C9&tp_a=OJ8C9&b=3C8HJ7UOP8G5JQU8RE48TOZ99COZMV&tp_b=3C8HJ7UOP8G5JQU8RE48TOZ99COZMV&c=365799&tp_c=365799"},{"view_history":[{"page_index":0,"viewing_time":4770},{"page_index":1,"viewing_time":3723},{"page_index":2,"viewing_time":254265},{"page_index":3,"viewing_time":17203},{"page_index":4,"viewing_time":67519},{"page_index":5,"viewing_time":19986},{"page_index":6,"viewing_time":30529}],"rt":397996,"trial_type":"instructions","trial_index":2,"time_elapsed":413170,"internal_node_id":"0.0-2.0-0.0","params":{"nStudents":24,"maxFlips":30,"completionMinutes":45,"basePay":8,"maxBonus":9,"perTrialBonus":0.5,"perTrialBonusThreshold":0.05,"exampleCost":0.01},"classroomParams":{"A":{"a":1,"b":4},"B":{"a":4,"b":1},"C":{"a":2,"b":8},"D":{"a":8,"b":2}},"conditions":["nonSeqFull","nonSeqPartial","seqNoFeedback","seqFeedback"],"classroomPairings":[["A","B"],["C","D"]],"coinWeights":[0.2,0.5,0.8],"subjectId":"A11YS0T8MV3Q7C","assignmentId":"3C8HJ7UOP8G5JQU8RE48TOZ99COZMV","hitId":"3NI0WFPPI9246I5W92FX9A3E2GN605","url":"https://gershmanlab.com/experiments/alicia/teaching/experiment/?hitId=3NI0WFPPI9246I5W92FX9A3E2GN605&workerId=A11YS0T8MV3Q7C&assignmentId=3C8HJ7UOP8G5JQU8RE48TOZ99COZMV&a=OJ8C9&tp_a=OJ8C9&b=3C8HJ7UOP8G5JQU8RE48TOZ99COZMV&tp_b=3C8HJ7UOP8G5JQU8RE48TOZ99COZMV&c=365799&tp_c=365799"},{"rt":229841,"response":{"Q0":"Students in different classrooms will have seen a different number of heads and tails before seeing the examples you select for them.","Q1":"By giving 30 examples (the maximum) on each trial so I can make sure that the students' guesses are as accurate as possible.","Q2":"The coin lands heads 90% of the time.","Q3":"No, I will teach a <b>new</b> student each time.","Q4":"The students are also on the same alien planet as you, where coins can be unfair.","Q5":"Based on the student's second (and final) guess."},"question_order":[5,1,0,4,3,2],"trial_type":"survey-multi-choice","trial_index":3,"time_elapsed":643016,"internal_node_id":"0.0-2.0-1.0","params":{"nStudents":24,"maxFlips":30,"completionMinutes":45,"basePay":8,"maxBonus":9,"perTrialBonus":0.5,"perTrialBonusThreshold":0.05,"exampleCost":0.01},"classroomParams":{"A":{"a":1,"b":4},"B":{"a":4,"b":1},"C":{"a":2,"b":8},"D":{"a":8,"b":2}},"conditions":["nonSeqFull","nonSeqPartial","seqNoFeedback","seqFeedback"],"classroomPairings":[["A","B"],["C","D"]],"coinWeights":[0.2,0.5,0.8],"subjectId":"A11YS0T8MV3Q7C","assignmentId":"3C8HJ7UOP8G5JQU8RE48TOZ99COZMV","hitId":"3NI0WFPPI9246I5W92FX9A3E2GN605","url":"https://gershmanlab.com/experiments/alicia/teaching/experiment/?hitId=3NI0WFPPI9246I5W92FX9A3E2GN605&workerId=A11YS0T8MV3Q7C&assignmentId=3C8HJ7UOP8G5JQU8RE48TOZ99COZMV&a=OJ8C9&tp_a=OJ8C9&b=3C8HJ7UOP8G5JQU8RE48TOZ99COZMV&tp_b=3C8HJ7UOP8G5JQU8RE48TOZ99COZMV&c=365799&tp_c=365799","pass":false},{"rt":2158,"stimulus":"Oops, you have missed question(s) on the comprehension check! We'll show you the instructions again.","response":0,"trial_type":"html-button-response","trial_index":4,"time_elapsed":645177,"internal_node_id":"0.0-2.0-2.0-0.0","params":{"nStudents":24,"maxFlips":30,"completionMinutes":45,"basePay":8,"maxBonus":9,"perTrialBonus":0.5,"perTrialBonusThreshold":0.05,"exampleCost":0.01},"classroomParams":{"A":{"a":1,"b":4},"B":{"a":4,"b":1},"C":{"a":2,"b":8},"D":{"a":8,"b":2}},"conditions":["nonSeqFull","nonSeqPartial","seqNoFeedback","seqFeedback"],"classroomPairings":[["A","B"],["C","D"]],"coinWeights":[0.2,0.5,0.8],"subjectId":"A11YS0T8MV3Q7C","assignmentId":"3C8HJ7UOP8G5JQU8RE48TOZ99COZMV","hitId":"3NI0WFPPI9246I5W92FX9A3E2GN605","url":"https://gershmanlab.com/experiments/alicia/teaching/experiment/?hitId=3NI0WFPPI9246I5W92FX9A3E2GN605&workerId=A11YS0T8MV3Q7C&assignmentId=3C8HJ7UOP8G5JQU8RE48TOZ99COZMV&a=OJ8C9&tp_a=OJ8C9&b=3C8HJ7UOP8G5JQU8RE48TOZ99COZMV&tp_b=3C8HJ7UOP8G5JQU8RE48TOZ99COZMV&c=365799&tp_c=365799"},{"view_history":[{"page_index":0,"viewing_time":1183},{"page_index":1,"viewing_time":707},{"page_index":2,"viewing_time":7141},{"page_index":3,"viewing_time":842},{"page_index":4,"viewing_time":1178},{"page_index":5,"viewing_time":1342},{"page_index":6,"viewing_time":2498}],"rt":14891,"trial_type":"instructions","trial_index":5,"time_elapsed":660070,"internal_node_id":"0.0-2.1-0.1","params":{"nStudents":24,"maxFlips":30,"completionMinutes":45,"basePay":8,"maxBonus":9,"perTrialBonus":0.5,"perTrialBonusThreshold":0.05,"exampleCost":0.01},"classroomParams":{"A":{"a":1,"b":4},"B":{"a":4,"b":1},"C":{"a":2,"b":8},"D":{"a":8,"b":2}},"conditions":["nonSeqFull","nonSeqPartial","seqNoFeedback","seqFeedback"],"classroomPairings":[["A","B"],["C","D"]],"coinWeights":[0.2,0.5,0.8],"subjectId":"A11YS0T8MV3Q7C","assignmentId":"3C8HJ7UOP8G5JQU8RE48TOZ99COZMV","hitId":"3NI0WFPPI9246I5W92FX9A3E2GN605","url":"https://gershmanlab.com/experiments/alicia/teaching/experiment/?hitId=3NI0WFPPI9246I5W92FX9A3E2GN605&workerId=A11YS0T8MV3Q7C&assignmentId=3C8HJ7UOP8G5JQU8RE48TOZ99COZMV&a=OJ8C9&tp_a=OJ8C9&b=3C8HJ7UOP8G5JQU8RE48TOZ99COZMV&tp_b=3C8HJ7UOP8G5JQU8RE48TOZ99COZMV&c=365799&tp_c=365799"},{"rt":38951,"response":{"Q0":"Students in different classrooms will have seen a different number of heads and tails before seeing the examples you select for them.","Q1":"By <b>considering the student's classroom information</b> so that I can teach efficiently and accurately/helpfully at the same time (because each example I give to the student costs money!).","Q2":"The coin lands heads 90% of the time.","Q3":"No, I will teach a <b>new</b> student each time.","Q4":"The students are also on the same alien planet as you, where coins can be unfair.","Q5":"Based on the student's second (and final) guess."},"question_order":[1,0,5,4,2,3],"trial_type":"survey-multi-choice","trial_index":6,"time_elapsed":699024,"internal_node_id":"0.0-2.1-1.1","params":{"nStudents":24,"maxFlips":30,"completionMinutes":45,"basePay":8,"maxBonus":9,"perTrialBonus":0.5,"perTrialBonusThreshold":0.05,"exampleCost":0.01},"classroomParams":{"A":{"a":1,"b":4},"B":{"a":4,"b":1},"C":{"a":2,"b":8},"D":{"a":8,"b":2}},"conditions":["nonSeqFull","nonSeqPartial","seqNoFeedback","seqFeedback"],"classroomPairings":[["A","B"],["C","D"]],"coinWeights":[0.2,0.5,0.8],"subjectId":"A11YS0T8MV3Q7C","assignmentId":"3C8HJ7UOP8G5JQU8RE48TOZ99COZMV","hitId":"3NI0WFPPI9246I5W92FX9A3E2GN605","url":"https://gershmanlab.com/experiments/alicia/teaching/experiment/?hitId=3NI0WFPPI9246I5W92FX9A3E2GN605&workerId=A11YS0T8MV3Q7C&assignmentId=3C8HJ7UOP8G5JQU8RE48TOZ99COZMV&a=OJ8C9&tp_a=OJ8C9&b=3C8HJ7UOP8G5JQU8RE48TOZ99COZMV&tp_b=3C8HJ7UOP8G5JQU8RE48TOZ99COZMV&c=365799&tp_c=365799","pass":true},{"rt":null,"stimulus":"<div style=\"font-size:30px;\">Congrats on passing the comprehension quiz! The experiment will begin in a few seconds.</div>","response":null,"trial_type":"html-keyboard-response","trial_index":7,"time_elapsed":702031,"internal_node_id":"0.0-3.0","params":{"nStudents":24,"maxFlips":30,"completionMinutes":45,"basePay":8,"maxBonus":9,"perTrialBonus":0.5,"perTrialBonusThreshold":0.05,"exampleCost":0.01},"classroomParams":{"A":{"a":1,"b":4},"B":{"a":4,"b":1},"C":{"a":2,"b":8},"D":{"a":8,"b":2}},"conditions":["nonSeqFull","nonSeqPartial","seqNoFeedback","seqFeedback"],"classroomPairings":[["A","B"],["C","D"]],"coinWeights":[0.2,0.5,0.8],"subjectId":"A11YS0T8MV3Q7C","assignmentId":"3C8HJ7UOP8G5JQU8RE48TOZ99COZMV","hitId":"3NI0WFPPI9246I5W92FX9A3E2GN605","url":"https://gershmanlab.com/experiments/alicia/teaching/experiment/?hitId=3NI0WFPPI9246I5W92FX9A3E2GN605&workerId=A11YS0T8MV3Q7C&assignmentId=3C8HJ7UOP8G5JQU8RE48TOZ99COZMV&a=OJ8C9&tp_a=OJ8C9&b=3C8HJ7UOP8G5JQU8RE48TOZ99COZMV&tp_b=3C8HJ7UOP8G5JQU8RE48TOZ99COZMV&c=365799&tp_c=365799"},{"rt":null,"stimulus":"<div style=\"font-size:50px;\">First student</div>","response":null,"trial_type":"html-keyboard-response","trial_index":8,"time_elapsed":705041,"internal_node_id":"0.0-4.0","params":{"nStudents":24,"maxFlips":30,"completionMinutes":45,"basePay":8,"maxBonus":9,"perTrialBonus":0.5,"perTrialBonusThreshold":0.05,"exampleCost":0.01},"classroomParams":{"A":{"a":1,"b":4},"B":{"a":4,"b":1},"C":{"a":2,"b":8},"D":{"a":8,"b":2}},"conditions":["nonSeqFull","nonSeqPartial","seqNoFeedback","seqFeedback"],"classroomPairings":[["A","B"],["C","D"]],"coinWeights":[0.2,0.5,0.8],"subjectId":"A11YS0T8MV3Q7C","assignmentId":"3C8HJ7UOP8G5JQU8RE48TOZ99COZMV","hitId":"3NI0WFPPI9246I5W92FX9A3E2GN605","url":"https://gershmanlab.com/experiments/alicia/teaching/experiment/?hitId=3NI0WFPPI9246I5W92FX9A3E2GN605&workerId=A11YS0T8MV3Q7C&assignmentId=3C8HJ7UOP8G5JQU8RE48TOZ99COZMV&a=OJ8C9&tp_a=OJ8C9&b=3C8HJ7UOP8G5JQU8RE48TOZ99COZMV&tp_b=3C8HJ7UOP8G5JQU8RE48TOZ99COZMV&c=365799&tp_c=365799"},{"rt":4203,"stimulus":"\n            <h4 style=\"color:Orange;\">Student 1</h4>\n            <h2>The weight of your coin is <b style=\"color:Tomato;\">0.8</b>.</h2>\n            <p>In this block, you will be giving <b>one</b> set of examples to Student 1.</p>\n                <p>You will receive feedback at the end of the block.</p>\n            <p></p>","response":0,"trial_type":"html-button-response","trial_index":9,"time_elapsed":709244,"internal_node_id":"0.0-5.0","params":{"nStudents":24,"maxFlips":30,"completionMinutes":45,"basePay":8,"maxBonus":9,"perTrialBonus":0.5,"perTrialBonusThreshold":0.05,"exampleCost":0.01},"classroomParams":{"A":{"a":1,"b":4},"B":{"a":4,"b":1},"C":{"a":2,"b":8},"D":{"a":8,"b":2}},"conditions":["nonSeqFull","nonSeqPartial","seqNoFeedback","seqFeedback"],"classroomPairings":[["A","B"],["C","D"]],"coinWeights":[0.2,0.5,0.8],"subjectId":"A11YS0T8MV3Q7C","assignmentId":"3C8HJ7UOP8G5JQU8RE48TOZ99COZMV","hitId":"3NI0WFPPI9246I5W92FX9A3E2GN605","url":"https://gershmanlab.com/experiments/alicia/teaching/experiment/?hitId=3NI0WFPPI9246I5W92FX9A3E2GN605&workerId=A11YS0T8MV3Q7C&assignmentId=3C8HJ7UOP8G5JQU8RE48TOZ99COZMV&a=OJ8C9&tp_a=OJ8C9&b=3C8HJ7UOP8G5JQU8RE48TOZ99COZMV&tp_b=3C8HJ7UOP8G5JQU8RE48TOZ99COZMV&c=365799&tp_c=365799"},{"rt":13654,"response":{"heads":"1","tails":"4"},"type":"response","condition":"nonSeqFull","trueTheta":0.8,"classrooms":["A","B"],"studentTrueClassroom":"A","exampleSet":"first","trial_type":"survey-html-form","trial_index":10,"time_elapsed":722906,"internal_node_id":"0.0-6.0-0.0","params":{"nStudents":24,"maxFlips":30,"completionMinutes":45,"basePay":8,"maxBonus":9,"perTrialBonus":0.5,"perTrialBonusThreshold":0.05,"exampleCost":0.01},"classroomParams":{"A":{"a":1,"b":4},"B":{"a":4,"b":1},"C":{"a":2,"b":8},"D":{"a":8,"b":2}},"conditions":["nonSeqFull","nonSeqPartial","seqNoFeedback","seqFeedback"],"classroomPairings":[["A","B"],["C","D"]],"coinWeights":[0.2,0.5,0.8],"subjectId":"A11YS0T8MV3Q7C","assignmentId":"3C8HJ7UOP8G5JQU8RE48TOZ99COZMV","hitId":"3NI0WFPPI9246I5W92FX9A3E2GN605","url":"https://gershmanlab.com/experiments/alicia/teaching/experiment/?hitId=3NI0WFPPI9246I5W92FX9A3E2GN605&workerId=A11YS0T8MV3Q7C&assignmentId=3C8HJ7UOP8G5JQU8RE48TOZ99COZMV&a=OJ8C9&tp_a=OJ8C9&b=3C8HJ7UOP8G5JQU8RE48TOZ99COZMV&tp_b=3C8HJ7UOP8G5JQU8RE48TOZ99COZMV&c=365799&tp_c=365799","heads":1,"tails":4,"studentIndex":0,"studentTrueHypers":{"a":1,"b":4},"studentGuess":0.2,"delta":0.6000000000000001,"totalExamples":5,"bonus":0,"bonusSoFar":0},{"rt":null,"stimulus":"Sending examples to student... ","response":null,"trial_type":"html-keyboard-response","trial_index":11,"time_elapsed":724910,"internal_node_id":"0.0-7.0","params":{"nStudents":24,"maxFlips":30,"completionMinutes":45,"basePay":8,"maxBonus":9,"perTrialBonus":0.5,"perTrialBonusThreshold":0.05,"exampleCost":0.01},"classroomParams":{"A":{"a":1,"b":4},"B":{"a":4,"b":1},"C":{"a":2,"b":8},"D":{"a":8,"b":2}},"conditions":["nonSeqFull","nonSeqPartial","seqNoFeedback","seqFeedback"],"classroomPairings":[["A","B"],["C","D"]],"coinWeights":[0.2,0.5,0.8],"subjectId":"A11YS0T8MV3Q7C","assignmentId":"3C8HJ7UOP8G5JQU8RE48TOZ99COZMV","hitId":"3NI0WFPPI9246I5W92FX9A3E2GN605","url":"https://gershmanlab.com/experiments/alicia/teaching/experiment/?hitId=3NI0WFPPI9246I5W92FX9A3E2GN605&workerId=A11YS0T8MV3Q7C&assignmentId=3C8HJ7UOP8G5JQU8RE48TOZ99COZMV&a=OJ8C9&tp_a=OJ8C9&b=3C8HJ7UOP8G5JQU8RE48TOZ99COZMV&tp_b=3C8HJ7UOP8G5JQU8RE48TOZ99COZMV&c=365799&tp_c=365799"},{"rt":null,"stimulus":"Examples sent to student! Waiting for student...","response":null,"trial_type":"html-keyboard-response","trial_index":12,"time_elapsed":729920,"internal_node_id":"0.0-8.0","params":{"nStudents":24,"maxFlips":30,"completionMinutes":45,"basePay":8,"maxBonus":9,"perTrialBonus":0.5,"perTrialBonusThreshold":0.05,"exampleCost":0.01},"classroomParams":{"A":{"a":1,"b":4},"B":{"a":4,"b":1},"C":{"a":2,"b":8},"D":{"a":8,"b":2}},"conditions":["nonSeqFull","nonSeqPartial","seqNoFeedback","seqFeedback"],"classroomPairings":[["A","B"],["C","D"]],"coinWeights":[0.2,0.5,0.8],"subjectId":"A11YS0T8MV3Q7C","assignmentId":"3C8HJ7UOP8G5JQU8RE48TOZ99COZMV","hitId":"3NI0WFPPI9246I5W92FX9A3E2GN605","url":"https://gershmanlab.com/experiments/alicia/teaching/experiment/?hitId=3NI0WFPPI9246I5W92FX9A3E2GN605&workerId=A11YS0T8MV3Q7C&assignmentId=3C8HJ7UOP8G5JQU8RE48TOZ99COZMV&a=OJ8C9&tp_a=OJ8C9&b=3C8HJ7UOP8G5JQU8RE48TOZ99COZMV&tp_b=3C8HJ7UOP8G5JQU8RE48TOZ99COZMV&c=365799&tp_c=365799"},{"rt":4369,"stimulus":"\n                <p>Student's guess for coin weight: <b style=\"color:Tomato;\">0.20</b></p>\n                <p>You received a bonus of <b>$0</b>. Total bonus so far: <b>$0.00</b></b></p>\n                <p></p>\n                <p>Press any key to continue.</p>\n                ","response":"f","trial_type":"html-keyboard-response","trial_index":13,"time_elapsed":734290,"internal_node_id":"0.0-9.0","params":{"nStudents":24,"maxFlips":30,"completionMinutes":45,"basePay":8,"maxBonus":9,"perTrialBonus":0.5,"perTrialBonusThreshold":0.05,"exampleCost":0.01},"classroomParams":{"A":{"a":1,"b":4},"B":{"a":4,"b":1},"C":{"a":2,"b":8},"D":{"a":8,"b":2}},"conditions":["nonSeqFull","nonSeqPartial","seqNoFeedback","seqFeedback"],"classroomPairings":[["A","B"],["C","D"]],"coinWeights":[0.2,0.5,0.8],"subjectId":"A11YS0T8MV3Q7C","assignmentId":"3C8HJ7UOP8G5JQU8RE48TOZ99COZMV","hitId":"3NI0WFPPI9246I5W92FX9A3E2GN605","url":"https://gershmanlab.com/experiments/alicia/teaching/experiment/?hitId=3NI0WFPPI9246I5W92FX9A3E2GN605&workerId=A11YS0T8MV3Q7C&assignmentId=3C8HJ7UOP8G5JQU8RE48TOZ99COZMV&a=OJ8C9&tp_a=OJ8C9&b=3C8HJ7UOP8G5JQU8RE48TOZ99COZMV&tp_b=3C8HJ7UOP8G5JQU8RE48TOZ99COZMV&c=365799&tp_c=365799"},{"rt":null,"stimulus":"<div style=\"font-size:60px;\">Next student</div>","response":null,"trial_type":"html-keyboard-response","trial_index":14,"time_elapsed":737300,"internal_node_id":"0.0-10.0-0.0","params":{"nStudents":24,"maxFlips":30,"completionMinutes":45,"basePay":8,"maxBonus":9,"perTrialBonus":0.5,"perTrialBonusThreshold":0.05,"exampleCost":0.01},"classroomParams":{"A":{"a":1,"b":4},"B":{"a":4,"b":1},"C":{"a":2,"b":8},"D":{"a":8,"b":2}},"conditions":["nonSeqFull","nonSeqPartial","seqNoFeedback","seqFeedback"],"classroomPairings":[["A","B"],["C","D"]],"coinWeights":[0.2,0.5,0.8],"subjectId":"A11YS0T8MV3Q7C","assignmentId":"3C8HJ7UOP8G5JQU8RE48TOZ99COZMV","hitId":"3NI0WFPPI9246I5W92FX9A3E2GN605","url":"https://gershmanlab.com/experiments/alicia/teaching/experiment/?hitId=3NI0WFPPI9246I5W92FX9A3E2GN605&workerId=A11YS0T8MV3Q7C&assignmentId=3C8HJ7UOP8G5JQU8RE48TOZ99COZMV&a=OJ8C9&tp_a=OJ8C9&b=3C8HJ7UOP8G5JQU8RE48TOZ99COZMV&tp_b=3C8HJ7UOP8G5JQU8RE48TOZ99COZMV&c=365799&tp_c=365799"},{"rt":4169,"stimulus":"\n            <h4 style=\"color:Orange;\">Student 2</h4>\n            <h2>The weight of your coin is <b style=\"color:Tomato;\">0.8</b>.</h2>\n            <p>In this block, you will be giving <b>one</b> set of examples to Student 2.</p>\n                <p>You will receive feedback at the end of the block.</p>\n            <p></p>","response":0,"trial_type":"html-button-response","trial_index":15,"time_elapsed":741471,"internal_node_id":"0.0-11.0","params":{"nStudents":24,"maxFlips":30,"completionMinutes":45,"basePay":8,"maxBonus":9,"perTrialBonus":0.5,"perTrialBonusThreshold":0.05,"exampleCost":0.01},"classroomParams":{"A":{"a":1,"b":4},"B":{"a":4,"b":1},"C":{"a":2,"b":8},"D":{"a":8,"b":2}},"conditions":["nonSeqFull","nonSeqPartial","seqNoFeedback","seqFeedback"],"classroomPairings":[["A","B"],["C","D"]],"coinWeights":[0.2,0.5,0.8],"subjectId":"A11YS0T8MV3Q7C","assignmentId":"3C8HJ7UOP8G5JQU8RE48TOZ99COZMV","hitId":"3NI0WFPPI9246I5W92FX9A3E2GN605","url":"https://gershmanlab.com/experiments/alicia/teaching/experiment/?hitId=3NI0WFPPI9246I5W92FX9A3E2GN605&workerId=A11YS0T8MV3Q7C&assignmentId=3C8HJ7UOP8G5JQU8RE48TOZ99COZMV&a=OJ8C9&tp_a=OJ8C9&b=3C8HJ7UOP8G5JQU8RE48TOZ99COZMV&tp_b=3C8HJ7UOP8G5JQU8RE48TOZ99COZMV&c=365799&tp_c=365799"},{"rt":6673,"response":{"heads":"6","tails":"2"},"type":"response","condition":"nonSeqFull","trueTheta":0.8,"classrooms":["C","D"],"studentTrueClassroom":"C","exampleSet":"first","trial_type":"survey-html-form","trial_index":16,"time_elapsed":748147,"internal_node_id":"0.0-12.0-0.0","params":{"nStudents":24,"maxFlips":30,"completionMinutes":45,"basePay":8,"maxBonus":9,"perTrialBonus":0.5,"perTrialBonusThreshold":0.05,"exampleCost":0.01},"classroomParams":{"A":{"a":1,"b":4},"B":{"a":4,"b":1},"C":{"a":2,"b":8},"D":{"a":8,"b":2}},"conditions":["nonSeqFull","nonSeqPartial","seqNoFeedback","seqFeedback"],"classroomPairings":[["A","B"],["C","D"]],"coinWeights":[0.2,0.5,0.8],"subjectId":"A11YS0T8MV3Q7C","assignmentId":"3C8HJ7UOP8G5JQU8RE48TOZ99COZMV","hitId":"3NI0WFPPI9246I5W92FX9A3E2GN605","url":"https://gershmanlab.com/experiments/alicia/teaching/experiment/?hitId=3NI0WFPPI9246I5W92FX9A3E2GN605&workerId=A11YS0T8MV3Q7C&assignmentId=3C8HJ7UOP8G5JQU8RE48TOZ99COZMV&a=OJ8C9&tp_a=OJ8C9&b=3C8HJ7UOP8G5JQU8RE48TOZ99COZMV&tp_b=3C8HJ7UOP8G5JQU8RE48TOZ99COZMV&c=365799&tp_c=365799","heads":6,"tails":2,"studentIndex":1,"studentTrueHypers":{"a":2,"b":8},"studentGuess":0.4444444444444444,"delta":0.3555555555555556,"totalExamples":8,"bonus":0,"bonusSoFar":0},{"rt":null,"stimulus":"Sending examples to student... ","response":null,"trial_type":"html-keyboard-response","trial_index":17,"time_elapsed":749900,"internal_node_id":"0.0-13.0","params":{"nStudents":24,"maxFlips":30,"completionMinutes":45,"basePay":8,"maxBonus":9,"perTrialBonus":0.5,"perTrialBonusThreshold":0.05,"exampleCost":0.01},"classroomParams":{"A":{"a":1,"b":4},"B":{"a":4,"b":1},"C":{"a":2,"b":8},"D":{"a":8,"b":2}},"conditions":["nonSeqFull","nonSeqPartial","seqNoFeedback","seqFeedback"],"classroomPairings":[["A","B"],["C","D"]],"coinWeights":[0.2,0.5,0.8],"subjectId":"A11YS0T8MV3Q7C","assignmentId":"3C8HJ7UOP8G5JQU8RE48TOZ99COZMV","hitId":"3NI0WFPPI9246I5W92FX9A3E2GN605","url":"https://gershmanlab.com/experiments/alicia/teaching/experiment/?hitId=3NI0WFPPI9246I5W92FX9A3E2GN605&workerId=A11YS0T8MV3Q7C&assignmentId=3C8HJ7UOP8G5JQU8RE48TOZ99COZMV&a=OJ8C9&tp_a=OJ8C9&b=3C8HJ7UOP8G5JQU8RE48TOZ99COZMV&tp_b=3C8HJ7UOP8G5JQU8RE48TOZ99COZMV&c=365799&tp_c=365799"},{"rt":null,"stimulus":"Examples sent to student! Waiting for student...","response":null,"trial_type":"html-keyboard-response","trial_index":18,"time_elapsed":754910,"internal_node_id":"0.0-14.0","params":{"nStudents":24,"maxFlips":30,"completionMinutes":45,"basePay":8,"maxBonus":9,"perTrialBonus":0.5,"perTrialBonusThreshold":0.05,"exampleCost":0.01},"classroomParams":{"A":{"a":1,"b":4},"B":{"a":4,"b":1},"C":{"a":2,"b":8},"D":{"a":8,"b":2}},"conditions":["nonSeqFull","nonSeqPartial","seqNoFeedback","seqFeedback"],"classroomPairings":[["A","B"],["C","D"]],"coinWeights":[0.2,0.5,0.8],"subjectId":"A11YS0T8MV3Q7C","assignmentId":"3C8HJ7UOP8G5JQU8RE48TOZ99COZMV","hitId":"3NI0WFPPI9246I5W92FX9A3E2GN605","url":"https://gershmanlab.com/experiments/alicia/teaching/experiment/?hitId=3NI0WFPPI9246I5W92FX9A3E2GN605&workerId=A11YS0T8MV3Q7C&assignmentId=3C8HJ7UOP8G5JQU8RE48TOZ99COZMV&a=OJ8C9&tp_a=OJ8C9&b=3C8HJ7UOP8G5JQU8RE48TOZ99COZMV&tp_b=3C8HJ7UOP8G5JQU8RE48TOZ99COZMV&c=365799&tp_c=365799"},{"rt":3483,"stimulus":"\n                <p>Student's guess for coin weight: <b style=\"color:Tomato;\">0.44</b></p>\n                <p>You received a bonus of <b>$0</b>. Total bonus so far: <b>$0.00</b></b></p>\n                <p></p>\n                <p>Press any key to continue.</p>\n                ","response":"g","trial_type":"html-keyboard-response","trial_index":19,"time_elapsed":758395,"internal_node_id":"0.0-15.0","params":{"nStudents":24,"maxFlips":30,"completionMinutes":45,"basePay":8,"maxBonus":9,"perTrialBonus":0.5,"perTrialBonusThreshold":0.05,"exampleCost":0.01},"classroomParams":{"A":{"a":1,"b":4},"B":{"a":4,"b":1},"C":{"a":2,"b":8},"D":{"a":8,"b":2}},"conditions":["nonSeqFull","nonSeqPartial","seqNoFeedback","seqFeedback"],"classroomPairings":[["A","B"],["C","D"]],"coinWeights":[0.2,0.5,0.8],"subjectId":"A11YS0T8MV3Q7C","assignmentId":"3C8HJ7UOP8G5JQU8RE48TOZ99COZMV","hitId":"3NI0WFPPI9246I5W92FX9A3E2GN605","url":"https://gershmanlab.com/experiments/alicia/teaching/experiment/?hitId=3NI0WFPPI9246I5W92FX9A3E2GN605&workerId=A11YS0T8MV3Q7C&assignmentId=3C8HJ7UOP8G5JQU8RE48TOZ99COZMV&a=OJ8C9&tp_a=OJ8C9&b=3C8HJ7UOP8G5JQU8RE48TOZ99COZMV&tp_b=3C8HJ7UOP8G5JQU8RE48TOZ99COZMV&c=365799&tp_c=365799"},{"rt":null,"stimulus":"<div style=\"font-size:60px;\">Next student</div>","response":null,"trial_type":"html-keyboard-response","trial_index":20,"time_elapsed":760400,"internal_node_id":"0.0-16.0-0.0","params":{"nStudents":24,"maxFlips":30,"completionMinutes":45,"basePay":8,"maxBonus":9,"perTrialBonus":0.5,"perTrialBonusThreshold":0.05,"exampleCost":0.01},"classroomParams":{"A":{"a":1,"b":4},"B":{"a":4,"b":1},"C":{"a":2,"b":8},"D":{"a":8,"b":2}},"conditions":["nonSeqFull","nonSeqPartial","seqNoFeedback","seqFeedback"],"classroomPairings":[["A","B"],["C","D"]],"coinWeights":[0.2,0.5,0.8],"subjectId":"A11YS0T8MV3Q7C","assignmentId":"3C8HJ7UOP8G5JQU8RE48TOZ99COZMV","hitId":"3NI0WFPPI9246I5W92FX9A3E2GN605","url":"https://gershmanlab.com/experiments/alicia/teaching/experiment/?hitId=3NI0WFPPI9246I5W92FX9A3E2GN605&workerId=A11YS0T8MV3Q7C&assignmentId=3C8HJ7UOP8G5JQU8RE48TOZ99COZMV&a=OJ8C9&tp_a=OJ8C9&b=3C8HJ7UOP8G5JQU8RE48TOZ99COZMV&tp_b=3C8HJ7UOP8G5JQU8RE48TOZ99COZMV&c=365799&tp_c=365799"},{"rt":1915,"stimulus":"\n            <h4 style=\"color:Orange;\">Student 3</h4>\n            <h2>The weight of your coin is <b style=\"color:Tomato;\">0.8</b>.</h2>\n            <p>In this block, you will be giving <b>two</b> sets of examples to Student 3.</p>\n                <p>You will see the student's guess after the first set of examples. You will also receive feedback at the end of the block.</p>\n            <p>To earn the highest bonus, you will have to <b>take into consideration the student's guess</b> when you choose your second set of examples.</p>","response":0,"trial_type":"html-button-response","trial_index":21,"time_elapsed":762317,"internal_node_id":"0.0-17.0","params":{"nStudents":24,"maxFlips":30,"completionMinutes":45,"basePay":8,"maxBonus":9,"perTrialBonus":0.5,"perTrialBonusThreshold":0.05,"exampleCost":0.01},"classroomParams":{"A":{"a":1,"b":4},"B":{"a":4,"b":1},"C":{"a":2,"b":8},"D":{"a":8,"b":2}},"conditions":["nonSeqFull","nonSeqPartial","seqNoFeedback","seqFeedback"],"classroomPairings":[["A","B"],["C","D"]],"coinWeights":[0.2,0.5,0.8],"subjectId":"A11YS0T8MV3Q7C","assignmentId":"3C8HJ7UOP8G5JQU8RE48TOZ99COZMV","hitId":"3NI0WFPPI9246I5W92FX9A3E2GN605","url":"https://gershmanlab.com/experiments/alicia/teaching/experiment/?hitId=3NI0WFPPI9246I5W92FX9A3E2GN605&workerId=A11YS0T8MV3Q7C&assignmentId=3C8HJ7UOP8G5JQU8RE48TOZ99COZMV&a=OJ8C9&tp_a=OJ8C9&b=3C8HJ7UOP8G5JQU8RE48TOZ99COZMV&tp_b=3C8HJ7UOP8G5JQU8RE48TOZ99COZMV&c=365799&tp_c=365799"},{"rt":6485,"response":{"heads":"6","tails":"1"},"type":"response","condition":"seqFeedback","trueTheta":0.8,"classrooms":["A","B"],"studentTrueClassroom":"B","exampleSet":"first","trial_type":"survey-html-form","trial_index":22,"time_elapsed":768806,"internal_node_id":"0.0-18.0-0.0","params":{"nStudents":24,"maxFlips":30,"completionMinutes":45,"basePay":8,"maxBonus":9,"perTrialBonus":0.5,"perTrialBonusThreshold":0.05,"exampleCost":0.01},"classroomParams":{"A":{"a":1,"b":4},"B":{"a":4,"b":1},"C":{"a":2,"b":8},"D":{"a":8,"b":2}},"conditions":["nonSeqFull","nonSeqPartial","seqNoFeedback","seqFeedback"],"classroomPairings":[["A","B"],["C","D"]],"coinWeights":[0.2,0.5,0.8],"subjectId":"A11YS0T8MV3Q7C","assignmentId":"3C8HJ7UOP8G5JQU8RE48TOZ99COZMV","hitId":"3NI0WFPPI9246I5W92FX9A3E2GN605","url":"https://gershmanlab.com/experiments/alicia/teaching/experiment/?hitId=3NI0WFPPI9246I5W92FX9A3E2GN605&workerId=A11YS0T8MV3Q7C&assignmentId=3C8HJ7UOP8G5JQU8RE48TOZ99COZMV&a=OJ8C9&tp_a=OJ8C9&b=3C8HJ7UOP8G5JQU8RE48TOZ99COZMV&tp_b=3C8HJ7UOP8G5JQU8RE48TOZ99COZMV&c=365799&tp_c=365799","heads":6,"tails":1,"studentIndex":2,"studentTrueHypers":{"a":4,"b":1},"studentGuess":0.8333333333333334,"delta":0.033333333333333326,"totalExamples":7,"bonusSoFar":0},{"rt":null,"stimulus":"Sending examples to student... ","response":null,"trial_type":"html-keyboard-response","trial_index":23,"time_elapsed":770310,"internal_node_id":"0.0-19.0","params":{"nStudents":24,"maxFlips":30,"completionMinutes":45,"basePay":8,"maxBonus":9,"perTrialBonus":0.5,"perTrialBonusThreshold":0.05,"exampleCost":0.01},"classroomParams":{"A":{"a":1,"b":4},"B":{"a":4,"b":1},"C":{"a":2,"b":8},"D":{"a":8,"b":2}},"conditions":["nonSeqFull","nonSeqPartial","seqNoFeedback","seqFeedback"],"classroomPairings":[["A","B"],["C","D"]],"coinWeights":[0.2,0.5,0.8],"subjectId":"A11YS0T8MV3Q7C","assignmentId":"3C8HJ7UOP8G5JQU8RE48TOZ99COZMV","hitId":"3NI0WFPPI9246I5W92FX9A3E2GN605","url":"https://gershmanlab.com/experiments/alicia/teaching/experiment/?hitId=3NI0WFPPI9246I5W92FX9A3E2GN605&workerId=A11YS0T8MV3Q7C&assignmentId=3C8HJ7UOP8G5JQU8RE48TOZ99COZMV&a=OJ8C9&tp_a=OJ8C9&b=3C8HJ7UOP8G5JQU8RE48TOZ99COZMV&tp_b=3C8HJ7UOP8G5JQU8RE48TOZ99COZMV&c=365799&tp_c=365799"},{"rt":null,"stimulus":"Examples sent to student! Waiting for student...","response":null,"trial_type":"html-keyboard-response","trial_index":24,"time_elapsed":775820,"internal_node_id":"0.0-20.0","params":{"nStudents":24,"maxFlips":30,"completionMinutes":45,"basePay":8,"maxBonus":9,"perTrialBonus":0.5,"perTrialBonusThreshold":0.05,"exampleCost":0.01},"classroomParams":{"A":{"a":1,"b":4},"B":{"a":4,"b":1},"C":{"a":2,"b":8},"D":{"a":8,"b":2}},"conditions":["nonSeqFull","nonSeqPartial","seqNoFeedback","seqFeedback"],"classroomPairings":[["A","B"],["C","D"]],"coinWeights":[0.2,0.5,0.8],"subjectId":"A11YS0T8MV3Q7C","assignmentId":"3C8HJ7UOP8G5JQU8RE48TOZ99COZMV","hitId":"3NI0WFPPI9246I5W92FX9A3E2GN605","url":"https://gershmanlab.com/experiments/alicia/teaching/experiment/?hitId=3NI0WFPPI9246I5W92FX9A3E2GN605&workerId=A11YS0T8MV3Q7C&assignmentId=3C8HJ7UOP8G5JQU8RE48TOZ99COZMV&a=OJ8C9&tp_a=OJ8C9&b=3C8HJ7UOP8G5JQU8RE48TOZ99COZMV&tp_b=3C8HJ7UOP8G5JQU8RE48TOZ99COZMV&c=365799&tp_c=365799"},{"rt":3598,"stimulus":"\n                <p>Student's guess for coin weight: <b style=\"color:Tomato;\">0.83</b></p>\n                <p></b></p>\n                <p>You will now send another set of examples to your student. <b>Remember to take your student's guess into consideration so that you can earn the highest bonus possible!</b> </p>\n                <p>Press any key to continue.</p>\n                ","response":"f","trial_type":"html-keyboard-response","trial_index":25,"time_elapsed":779419,"internal_node_id":"0.0-21.0","params":{"nStudents":24,"maxFlips":30,"completionMinutes":45,"basePay":8,"maxBonus":9,"perTrialBonus":0.5,"perTrialBonusThreshold":0.05,"exampleCost":0.01},"classroomParams":{"A":{"a":1,"b":4},"B":{"a":4,"b":1},"C":{"a":2,"b":8},"D":{"a":8,"b":2}},"conditions":["nonSeqFull","nonSeqPartial","seqNoFeedback","seqFeedback"],"classroomPairings":[["A","B"],["C","D"]],"coinWeights":[0.2,0.5,0.8],"subjectId":"A11YS0T8MV3Q7C","assignmentId":"3C8HJ7UOP8G5JQU8RE48TOZ99COZMV","hitId":"3NI0WFPPI9246I5W92FX9A3E2GN605","url":"https://gershmanlab.com/experiments/alicia/teaching/experiment/?hitId=3NI0WFPPI9246I5W92FX9A3E2GN605&workerId=A11YS0T8MV3Q7C&assignmentId=3C8HJ7UOP8G5JQU8RE48TOZ99COZMV&a=OJ8C9&tp_a=OJ8C9&b=3C8HJ7UOP8G5JQU8RE48TOZ99COZMV&tp_b=3C8HJ7UOP8G5JQU8RE48TOZ99COZMV&c=365799&tp_c=365799"},{"rt":4282,"response":{"heads":"6","tails":"1"},"type":"response","condition":"seqFeedback","trueTheta":0.8,"classrooms":["A","B"],"studentTrueClassroom":"B","exampleSet":"second","trial_type":"survey-html-form","trial_index":26,"time_elapsed":783705,"internal_node_id":"0.0-22.0-0.0","params":{"nStudents":24,"maxFlips":30,"completionMinutes":45,"basePay":8,"maxBonus":9,"perTrialBonus":0.5,"perTrialBonusThreshold":0.05,"exampleCost":0.01},"classroomParams":{"A":{"a":1,"b":4},"B":{"a":4,"b":1},"C":{"a":2,"b":8},"D":{"a":8,"b":2}},"conditions":["nonSeqFull","nonSeqPartial","seqNoFeedback","seqFeedback"],"classroomPairings":[["A","B"],["C","D"]],"coinWeights":[0.2,0.5,0.8],"subjectId":"A11YS0T8MV3Q7C","assignmentId":"3C8HJ7UOP8G5JQU8RE48TOZ99COZMV","hitId":"3NI0WFPPI9246I5W92FX9A3E2GN605","url":"https://gershmanlab.com/experiments/alicia/teaching/experiment/?hitId=3NI0WFPPI9246I5W92FX9A3E2GN605&workerId=A11YS0T8MV3Q7C&assignmentId=3C8HJ7UOP8G5JQU8RE48TOZ99COZMV&a=OJ8C9&tp_a=OJ8C9&b=3C8HJ7UOP8G5JQU8RE48TOZ99COZMV&tp_b=3C8HJ7UOP8G5JQU8RE48TOZ99COZMV&c=365799&tp_c=365799","firstResponseHeads":6,"firstResponseTails":1,"secondResponseHeads":6,"secondResponseTails":1,"totalHeads":12,"totalTails":2,"studentIndex":2,"studentTrueHypers":{"a":4,"b":1},"studentGuess":0.8421052631578947,"delta":0.042105263157894646,"bonus":0.36,"bonusSoFar":0.36,"totalExamples":14},{"rt":null,"stimulus":"Sending examples to student... ","response":null,"trial_type":"html-keyboard-response","trial_index":27,"time_elapsed":785210,"internal_node_id":"0.0-23.0","params":{"nStudents":24,"maxFlips":30,"completionMinutes":45,"basePay":8,"maxBonus":9,"perTrialBonus":0.5,"perTrialBonusThreshold":0.05,"exampleCost":0.01},"classroomParams":{"A":{"a":1,"b":4},"B":{"a":4,"b":1},"C":{"a":2,"b":8},"D":{"a":8,"b":2}},"conditions":["nonSeqFull","nonSeqPartial","seqNoFeedback","seqFeedback"],"classroomPairings":[["A","B"],["C","D"]],"coinWeights":[0.2,0.5,0.8],"subjectId":"A11YS0T8MV3Q7C","assignmentId":"3C8HJ7UOP8G5JQU8RE48TOZ99COZMV","hitId":"3NI0WFPPI9246I5W92FX9A3E2GN605","url":"https://gershmanlab.com/experiments/alicia/teaching/experiment/?hitId=3NI0WFPPI9246I5W92FX9A3E2GN605&workerId=A11YS0T8MV3Q7C&assignmentId=3C8HJ7UOP8G5JQU8RE48TOZ99COZMV&a=OJ8C9&tp_a=OJ8C9&b=3C8HJ7UOP8G5JQU8RE48TOZ99COZMV&tp_b=3C8HJ7UOP8G5JQU8RE48TOZ99COZMV&c=365799&tp_c=365799"},{"rt":null,"stimulus":"Examples sent to student! Waiting for student...","response":null,"trial_type":"html-keyboard-response","trial_index":28,"time_elapsed":790220,"internal_node_id":"0.0-24.0","params":{"nStudents":24,"maxFlips":30,"completionMinutes":45,"basePay":8,"maxBonus":9,"perTrialBonus":0.5,"perTrialBonusThreshold":0.05,"exampleCost":0.01},"classroomParams":{"A":{"a":1,"b":4},"B":{"a":4,"b":1},"C":{"a":2,"b":8},"D":{"a":8,"b":2}},"conditions":["nonSeqFull","nonSeqPartial","seqNoFeedback","seqFeedback"],"classroomPairings":[["A","B"],["C","D"]],"coinWeights":[0.2,0.5,0.8],"subjectId":"A11YS0T8MV3Q7C","assignmentId":"3C8HJ7UOP8G5JQU8RE48TOZ99COZMV","hitId":"3NI0WFPPI9246I5W92FX9A3E2GN605","url":"https://gershmanlab.com/experiments/alicia/teaching/experiment/?hitId=3NI0WFPPI9246I5W92FX9A3E2GN605&workerId=A11YS0T8MV3Q7C&assignmentId=3C8HJ7UOP8G5JQU8RE48TOZ99COZMV&a=OJ8C9&tp_a=OJ8C9&b=3C8HJ7UOP8G5JQU8RE48TOZ99COZMV&tp_b=3C8HJ7UOP8G5JQU8RE48TOZ99COZMV&c=365799&tp_c=365799"},{"rt":6174,"stimulus":"\n                <p>Student 3's first guess for coin weight: <b style=\"color:Tomato\";>0.83</b></p>\n                <p>Student 3's second guess for coin weight: <b style=\"color:Tomato\";>0.84</b></p>\n                <p>You received a bonus of <b>$0.36</b> based on the student's second guess.</p>\n                <p>Total bonus so far: <b>$0.36</b></p>\n                <p>Press any key to continue.</p>\n                ","response":"g","trial_type":"html-keyboard-response","trial_index":29,"time_elapsed":796395,"internal_node_id":"0.0-25.0","params":{"nStudents":24,"maxFlips":30,"completionMinutes":45,"basePay":8,"maxBonus":9,"perTrialBonus":0.5,"perTrialBonusThreshold":0.05,"exampleCost":0.01},"classroomParams":{"A":{"a":1,"b":4},"B":{"a":4,"b":1},"C":{"a":2,"b":8},"D":{"a":8,"b":2}},"conditions":["nonSeqFull","nonSeqPartial","seqNoFeedback","seqFeedback"],"classroomPairings":[["A","B"],["C","D"]],"coinWeights":[0.2,0.5,0.8],"subjectId":"A11YS0T8MV3Q7C","assignmentId":"3C8HJ7UOP8G5JQU8RE48TOZ99COZMV","hitId":"3NI0WFPPI9246I5W92FX9A3E2GN605","url":"https://gershmanlab.com/experiments/alicia/teaching/experiment/?hitId=3NI0WFPPI9246I5W92FX9A3E2GN605&workerId=A11YS0T8MV3Q7C&assignmentId=3C8HJ7UOP8G5JQU8RE48TOZ99COZMV&a=OJ8C9&tp_a=OJ8C9&b=3C8HJ7UOP8G5JQU8RE48TOZ99COZMV&tp_b=3C8HJ7UOP8G5JQU8RE48TOZ99COZMV&c=365799&tp_c=365799"},{"rt":null,"stimulus":"<div style=\"font-size:60px;\">Next student</div>","response":null,"trial_type":"html-keyboard-response","trial_index":30,"time_elapsed":798397,"internal_node_id":"0.0-26.0-0.0","params":{"nStudents":24,"maxFlips":30,"completionMinutes":45,"basePay":8,"maxBonus":9,"perTrialBonus":0.5,"perTrialBonusThreshold":0.05,"exampleCost":0.01},"classroomParams":{"A":{"a":1,"b":4},"B":{"a":4,"b":1},"C":{"a":2,"b":8},"D":{"a":8,"b":2}},"conditions":["nonSeqFull","nonSeqPartial","seqNoFeedback","seqFeedback"],"classroomPairings":[["A","B"],["C","D"]],"coinWeights":[0.2,0.5,0.8],"subjectId":"A11YS0T8MV3Q7C","assignmentId":"3C8HJ7UOP8G5JQU8RE48TOZ99COZMV","hitId":"3NI0WFPPI9246I5W92FX9A3E2GN605","url":"https://gershmanlab.com/experiments/alicia/teaching/experiment/?hitId=3NI0WFPPI9246I5W92FX9A3E2GN605&workerId=A11YS0T8MV3Q7C&assignmentId=3C8HJ7UOP8G5JQU8RE48TOZ99COZMV&a=OJ8C9&tp_a=OJ8C9&b=3C8HJ7UOP8G5JQU8RE48TOZ99COZMV&tp_b=3C8HJ7UOP8G5JQU8RE48TOZ99COZMV&c=365799&tp_c=365799"},{"rt":1333,"stimulus":"\n            <h4 style=\"color:Orange;\">Student 4</h4>\n            <h2>The weight of your coin is <b style=\"color:Tomato;\">0.2</b>.</h2>\n            <p>In this block, you will be giving <b>one</b> set of examples to Student 4.</p>\n                <p>You will receive feedback at the end of the block.</p>\n            <p></p>","response":0,"trial_type":"html-button-response","trial_index":31,"time_elapsed":799730,"internal_node_id":"0.0-27.0","params":{"nStudents":24,"maxFlips":30,"completionMinutes":45,"basePay":8,"maxBonus":9,"perTrialBonus":0.5,"perTrialBonusThreshold":0.05,"exampleCost":0.01},"classroomParams":{"A":{"a":1,"b":4},"B":{"a":4,"b":1},"C":{"a":2,"b":8},"D":{"a":8,"b":2}},"conditions":["nonSeqFull","nonSeqPartial","seqNoFeedback","seqFeedback"],"classroomPairings":[["A","B"],["C","D"]],"coinWeights":[0.2,0.5,0.8],"subjectId":"A11YS0T8MV3Q7C","assignmentId":"3C8HJ7UOP8G5JQU8RE48TOZ99COZMV","hitId":"3NI0WFPPI9246I5W92FX9A3E2GN605","url":"https://gershmanlab.com/experiments/alicia/teaching/experiment/?hitId=3NI0WFPPI9246I5W92FX9A3E2GN605&workerId=A11YS0T8MV3Q7C&assignmentId=3C8HJ7UOP8G5JQU8RE48TOZ99COZMV&a=OJ8C9&tp_a=OJ8C9&b=3C8HJ7UOP8G5JQU8RE48TOZ99COZMV&tp_b=3C8HJ7UOP8G5JQU8RE48TOZ99COZMV&c=365799&tp_c=365799"},{"rt":5394,"response":{"heads":"2","tails":"6"},"type":"response","condition":"nonSeqFull","trueTheta":0.2,"classrooms":["C","D"],"studentTrueClassroom":"C","exampleSet":"first","trial_type":"survey-html-form","trial_index":32,"time_elapsed":805130,"internal_node_id":"0.0-28.0-0.0","params":{"nStudents":24,"maxFlips":30,"completionMinutes":45,"basePay":8,"maxBonus":9,"perTrialBonus":0.5,"perTrialBonusThreshold":0.05,"exampleCost":0.01},"classroomParams":{"A":{"a":1,"b":4},"B":{"a":4,"b":1},"C":{"a":2,"b":8},"D":{"a":8,"b":2}},"conditions":["nonSeqFull","nonSeqPartial","seqNoFeedback","seqFeedback"],"classroomPairings":[["A","B"],["C","D"]],"coinWeights":[0.2,0.5,0.8],"subjectId":"A11YS0T8MV3Q7C","assignmentId":"3C8HJ7UOP8G5JQU8RE48TOZ99COZMV","hitId":"3NI0WFPPI9246I5W92FX9A3E2GN605","url":"https://gershmanlab.com/experiments/alicia/teaching/experiment/?hitId=3NI0WFPPI9246I5W92FX9A3E2GN605&workerId=A11YS0T8MV3Q7C&assignmentId=3C8HJ7UOP8G5JQU8RE48TOZ99COZMV&a=OJ8C9&tp_a=OJ8C9&b=3C8HJ7UOP8G5JQU8RE48TOZ99COZMV&tp_b=3C8HJ7UOP8G5JQU8RE48TOZ99COZMV&c=365799&tp_c=365799","heads":2,"tails":6,"studentIndex":3,"studentTrueHypers":{"a":2,"b":8},"studentGuess":0.2222222222222222,"delta":0.0222222222222222,"totalExamples":8,"bonus":0.42,"bonusSoFar":0.78},{"rt":null,"stimulus":"Sending examples to student... ","response":null,"trial_type":"html-keyboard-response","trial_index":33,"time_elapsed":806390,"internal_node_id":"0.0-29.0","params":{"nStudents":24,"maxFlips":30,"completionMinutes":45,"basePay":8,"maxBonus":9,"perTrialBonus":0.5,"perTrialBonusThreshold":0.05,"exampleCost":0.01},"classroomParams":{"A":{"a":1,"b":4},"B":{"a":4,"b":1},"C":{"a":2,"b":8},"D":{"a":8,"b":2}},"conditions":["nonSeqFull","nonSeqPartial","seqNoFeedback","seqFeedback"],"classroomPairings":[["A","B"],["C","D"]],"coinWeights":[0.2,0.5,0.8],"subjectId":"A11YS0T8MV3Q7C","assignmentId":"3C8HJ7UOP8G5JQU8RE48TOZ99COZMV","hitId":"3NI0WFPPI9246I5W92FX9A3E2GN605","url":"https://gershmanlab.com/experiments/alicia/teaching/experiment/?hitId=3NI0WFPPI9246I5W92FX9A3E2GN605&workerId=A11YS0T8MV3Q7C&assignmentId=3C8HJ7UOP8G5JQU8RE48TOZ99COZMV&a=OJ8C9&tp_a=OJ8C9&b=3C8HJ7UOP8G5JQU8RE48TOZ99COZMV&tp_b=3C8HJ7UOP8G5JQU8RE48TOZ99COZMV&c=365799&tp_c=365799"},{"rt":null,"stimulus":"Examples sent to student! Waiting for student...","response":null,"trial_type":"html-keyboard-response","trial_index":34,"time_elapsed":810400,"internal_node_id":"0.0-30.0","params":{"nStudents":24,"maxFlips":30,"completionMinutes":45,"basePay":8,"maxBonus":9,"perTrialBonus":0.5,"perTrialBonusThreshold":0.05,"exampleCost":0.01},"classroomParams":{"A":{"a":1,"b":4},"B":{"a":4,"b":1},"C":{"a":2,"b":8},"D":{"a":8,"b":2}},"conditions":["nonSeqFull","nonSeqPartial","seqNoFeedback","seqFeedback"],"classroomPairings":[["A","B"],["C","D"]],"coinWeights":[0.2,0.5,0.8],"subjectId":"A11YS0T8MV3Q7C","assignmentId":"3C8HJ7UOP8G5JQU8RE48TOZ99COZMV","hitId":"3NI0WFPPI9246I5W92FX9A3E2GN605","url":"https://gershmanlab.com/experiments/alicia/teaching/experiment/?hitId=3NI0WFPPI9246I5W92FX9A3E2GN605&workerId=A11YS0T8MV3Q7C&assignmentId=3C8HJ7UOP8G5JQU8RE48TOZ99COZMV&a=OJ8C9&tp_a=OJ8C9&b=3C8HJ7UOP8G5JQU8RE48TOZ99COZMV&tp_b=3C8HJ7UOP8G5JQU8RE48TOZ99COZMV&c=365799&tp_c=365799"},{"rt":5935,"stimulus":"\n                <p>Student's guess for coin weight: <b style=\"color:Tomato;\">0.22</b></p>\n                <p>You received a bonus of <b>$0.42</b>. Total bonus so far: <b>$0.78</b></b></p>\n                <p></p>\n                <p>Press any key to continue.</p>\n                ","response":"g","trial_type":"html-keyboard-response","trial_index":35,"time_elapsed":816334,"internal_node_id":"0.0-31.0","params":{"nStudents":24,"maxFlips":30,"completionMinutes":45,"basePay":8,"maxBonus":9,"perTrialBonus":0.5,"perTrialBonusThreshold":0.05,"exampleCost":0.01},"classroomParams":{"A":{"a":1,"b":4},"B":{"a":4,"b":1},"C":{"a":2,"b":8},"D":{"a":8,"b":2}},"conditions":["nonSeqFull","nonSeqPartial","seqNoFeedback","seqFeedback"],"classroomPairings":[["A","B"],["C","D"]],"coinWeights":[0.2,0.5,0.8],"subjectId":"A11YS0T8MV3Q7C","assignmentId":"3C8HJ7UOP8G5JQU8RE48TOZ99COZMV","hitId":"3NI0WFPPI9246I5W92FX9A3E2GN605","url":"https://gershmanlab.com/experiments/alicia/teaching/experiment/?hitId=3NI0WFPPI9246I5W92FX9A3E2GN605&workerId=A11YS0T8MV3Q7C&assignmentId=3C8HJ7UOP8G5JQU8RE48TOZ99COZMV&a=OJ8C9&tp_a=OJ8C9&b=3C8HJ7UOP8G5JQU8RE48TOZ99COZMV&tp_b=3C8HJ7UOP8G5JQU8RE48TOZ99COZMV&c=365799&tp_c=365799"},{"rt":null,"stimulus":"<div style=\"font-size:60px;\">Next student</div>","response":null,"trial_type":"html-keyboard-response","trial_index":36,"time_elapsed":819339,"internal_node_id":"0.0-32.0-0.0","params":{"nStudents":24,"maxFlips":30,"completionMinutes":45,"basePay":8,"maxBonus":9,"perTrialBonus":0.5,"perTrialBonusThreshold":0.05,"exampleCost":0.01},"classroomParams":{"A":{"a":1,"b":4},"B":{"a":4,"b":1},"C":{"a":2,"b":8},"D":{"a":8,"b":2}},"conditions":["nonSeqFull","nonSeqPartial","seqNoFeedback","seqFeedback"],"classroomPairings":[["A","B"],["C","D"]],"coinWeights":[0.2,0.5,0.8],"subjectId":"A11YS0T8MV3Q7C","assignmentId":"3C8HJ7UOP8G5JQU8RE48TOZ99COZMV","hitId":"3NI0WFPPI9246I5W92FX9A3E2GN605","url":"https://gershmanlab.com/experiments/alicia/teaching/experiment/?hitId=3NI0WFPPI9246I5W92FX9A3E2GN605&workerId=A11YS0T8MV3Q7C&assignmentId=3C8HJ7UOP8G5JQU8RE48TOZ99COZMV&a=OJ8C9&tp_a=OJ8C9&b=3C8HJ7UOP8G5JQU8RE48TOZ99COZMV&tp_b=3C8HJ7UOP8G5JQU8RE48TOZ99COZMV&c=365799&tp_c=365799"},{"rt":3810,"stimulus":"\n            <h4 style=\"color:Orange;\">Student 5</h4>\n            <h2>The weight of your coin is <b style=\"color:Tomato;\">0.5</b>.</h2>\n            <p>In this block, you will be giving <b>one</b> set of examples to Student 5.</p>\n                <p>You will receive feedback at the end of the block.</p>\n            <p></p>","response":0,"trial_type":"html-button-response","trial_index":37,"time_elapsed":823151,"internal_node_id":"0.0-33.0","params":{"nStudents":24,"maxFlips":30,"completionMinutes":45,"basePay":8,"maxBonus":9,"perTrialBonus":0.5,"perTrialBonusThreshold":0.05,"exampleCost":0.01},"classroomParams":{"A":{"a":1,"b":4},"B":{"a":4,"b":1},"C":{"a":2,"b":8},"D":{"a":8,"b":2}},"conditions":["nonSeqFull","nonSeqPartial","seqNoFeedback","seqFeedback"],"classroomPairings":[["A","B"],["C","D"]],"coinWeights":[0.2,0.5,0.8],"subjectId":"A11YS0T8MV3Q7C","assignmentId":"3C8HJ7UOP8G5JQU8RE48TOZ99COZMV","hitId":"3NI0WFPPI9246I5W92FX9A3E2GN605","url":"https://gershmanlab.com/experiments/alicia/teaching/experiment/?hitId=3NI0WFPPI9246I5W92FX9A3E2GN605&workerId=A11YS0T8MV3Q7C&assignmentId=3C8HJ7UOP8G5JQU8RE48TOZ99COZMV&a=OJ8C9&tp_a=OJ8C9&b=3C8HJ7UOP8G5JQU8RE48TOZ99COZMV&tp_b=3C8HJ7UOP8G5JQU8RE48TOZ99COZMV&c=365799&tp_c=365799"},{"rt":4864,"response":{"heads":"4","tails":"3"},"type":"response","condition":"nonSeqFull","trueTheta":0.5,"classrooms":["A","B"],"studentTrueClassroom":"B","exampleSet":"first","trial_type":"survey-html-form","trial_index":38,"time_elapsed":828020,"internal_node_id":"0.0-34.0-0.0","params":{"nStudents":24,"maxFlips":30,"completionMinutes":45,"basePay":8,"maxBonus":9,"perTrialBonus":0.5,"perTrialBonusThreshold":0.05,"exampleCost":0.01},"classroomParams":{"A":{"a":1,"b":4},"B":{"a":4,"b":1},"C":{"a":2,"b":8},"D":{"a":8,"b":2}},"conditions":["nonSeqFull","nonSeqPartial","seqNoFeedback","seqFeedback"],"classroomPairings":[["A","B"],["C","D"]],"coinWeights":[0.2,0.5,0.8],"subjectId":"A11YS0T8MV3Q7C","assignmentId":"3C8HJ7UOP8G5JQU8RE48TOZ99COZMV","hitId":"3NI0WFPPI9246I5W92FX9A3E2GN605","url":"https://gershmanlab.com/experiments/alicia/teaching/experiment/?hitId=3NI0WFPPI9246I5W92FX9A3E2GN605&workerId=A11YS0T8MV3Q7C&assignmentId=3C8HJ7UOP8G5JQU8RE48TOZ99COZMV&a=OJ8C9&tp_a=OJ8C9&b=3C8HJ7UOP8G5JQU8RE48TOZ99COZMV&tp_b=3C8HJ7UOP8G5JQU8RE48TOZ99COZMV&c=365799&tp_c=365799","heads":4,"tails":3,"studentIndex":4,"studentTrueHypers":{"a":4,"b":1},"studentGuess":0.6666666666666666,"delta":0.16666666666666663,"totalExamples":7,"bonus":0,"bonusSoFar":0.78},{"rt":null,"stimulus":"Sending examples to student... ","response":null,"trial_type":"html-keyboard-response","trial_index":39,"time_elapsed":829779,"internal_node_id":"0.0-35.0","params":{"nStudents":24,"maxFlips":30,"completionMinutes":45,"basePay":8,"maxBonus":9,"perTrialBonus":0.5,"perTrialBonusThreshold":0.05,"exampleCost":0.01},"classroomParams":{"A":{"a":1,"b":4},"B":{"a":4,"b":1},"C":{"a":2,"b":8},"D":{"a":8,"b":2}},"conditions":["nonSeqFull","nonSeqPartial","seqNoFeedback","seqFeedback"],"classroomPairings":[["A","B"],["C","D"]],"coinWeights":[0.2,0.5,0.8],"subjectId":"A11YS0T8MV3Q7C","assignmentId":"3C8HJ7UOP8G5JQU8RE48TOZ99COZMV","hitId":"3NI0WFPPI9246I5W92FX9A3E2GN605","url":"https://gershmanlab.com/experiments/alicia/teaching/experiment/?hitId=3NI0WFPPI9246I5W92FX9A3E2GN605&workerId=A11YS0T8MV3Q7C&assignmentId=3C8HJ7UOP8G5JQU8RE48TOZ99COZMV&a=OJ8C9&tp_a=OJ8C9&b=3C8HJ7UOP8G5JQU8RE48TOZ99COZMV&tp_b=3C8HJ7UOP8G5JQU8RE48TOZ99COZMV&c=365799&tp_c=365799"},{"rt":null,"stimulus":"Examples sent to student! Waiting for student...","response":null,"trial_type":"html-keyboard-response","trial_index":40,"time_elapsed":834289,"internal_node_id":"0.0-36.0","params":{"nStudents":24,"maxFlips":30,"completionMinutes":45,"basePay":8,"maxBonus":9,"perTrialBonus":0.5,"perTrialBonusThreshold":0.05,"exampleCost":0.01},"classroomParams":{"A":{"a":1,"b":4},"B":{"a":4,"b":1},"C":{"a":2,"b":8},"D":{"a":8,"b":2}},"conditions":["nonSeqFull","nonSeqPartial","seqNoFeedback","seqFeedback"],"classroomPairings":[["A","B"],["C","D"]],"coinWeights":[0.2,0.5,0.8],"subjectId":"A11YS0T8MV3Q7C","assignmentId":"3C8HJ7UOP8G5JQU8RE48TOZ99COZMV","hitId":"3NI0WFPPI9246I5W92FX9A3E2GN605","url":"https://gershmanlab.com/experiments/alicia/teaching/experiment/?hitId=3NI0WFPPI9246I5W92FX9A3E2GN605&workerId=A11YS0T8MV3Q7C&assignmentId=3C8HJ7UOP8G5JQU8RE48TOZ99COZMV&a=OJ8C9&tp_a=OJ8C9&b=3C8HJ7UOP8G5JQU8RE48TOZ99COZMV&tp_b=3C8HJ7UOP8G5JQU8RE48TOZ99COZMV&c=365799&tp_c=365799"},{"rt":4209,"stimulus":"\n                <p>Student's guess for coin weight: <b style=\"color:Tomato;\">0.67</b></p>\n                <p>You received a bonus of <b>$0</b>. Total bonus so far: <b>$0.78</b></b></p>\n                <p></p>\n                <p>Press any key to continue.</p>\n                ","response":"g","trial_type":"html-keyboard-response","trial_index":41,"time_elapsed":838499,"internal_node_id":"0.0-37.0","params":{"nStudents":24,"maxFlips":30,"completionMinutes":45,"basePay":8,"maxBonus":9,"perTrialBonus":0.5,"perTrialBonusThreshold":0.05,"exampleCost":0.01},"classroomParams":{"A":{"a":1,"b":4},"B":{"a":4,"b":1},"C":{"a":2,"b":8},"D":{"a":8,"b":2}},"conditions":["nonSeqFull","nonSeqPartial","seqNoFeedback","seqFeedback"],"classroomPairings":[["A","B"],["C","D"]],"coinWeights":[0.2,0.5,0.8],"subjectId":"A11YS0T8MV3Q7C","assignmentId":"3C8HJ7UOP8G5JQU8RE48TOZ99COZMV","hitId":"3NI0WFPPI9246I5W92FX9A3E2GN605","url":"https://gershmanlab.com/experiments/alicia/teaching/experiment/?hitId=3NI0WFPPI9246I5W92FX9A3E2GN605&workerId=A11YS0T8MV3Q7C&assignmentId=3C8HJ7UOP8G5JQU8RE48TOZ99COZMV&a=OJ8C9&tp_a=OJ8C9&b=3C8HJ7UOP8G5JQU8RE48TOZ99COZMV&tp_b=3C8HJ7UOP8G5JQU8RE48TOZ99COZMV&c=365799&tp_c=365799"},{"rt":null,"stimulus":"<div style=\"font-size:60px;\">Next student</div>","response":null,"trial_type":"html-keyboard-response","trial_index":42,"time_elapsed":840758,"internal_node_id":"0.0-38.0-0.0","params":{"nStudents":24,"maxFlips":30,"completionMinutes":45,"basePay":8,"maxBonus":9,"perTrialBonus":0.5,"perTrialBonusThreshold":0.05,"exampleCost":0.01},"classroomParams":{"A":{"a":1,"b":4},"B":{"a":4,"b":1},"C":{"a":2,"b":8},"D":{"a":8,"b":2}},"conditions":["nonSeqFull","nonSeqPartial","seqNoFeedback","seqFeedback"],"classroomPairings":[["A","B"],["C","D"]],"coinWeights":[0.2,0.5,0.8],"subjectId":"A11YS0T8MV3Q7C","assignmentId":"3C8HJ7UOP8G5JQU8RE48TOZ99COZMV","hitId":"3NI0WFPPI9246I5W92FX9A3E2GN605","url":"https://gershmanlab.com/experiments/alicia/teaching/experiment/?hitId=3NI0WFPPI9246I5W92FX9A3E2GN605&workerId=A11YS0T8MV3Q7C&assignmentId=3C8HJ7UOP8G5JQU8RE48TOZ99COZMV&a=OJ8C9&tp_a=OJ8C9&b=3C8HJ7UOP8G5JQU8RE48TOZ99COZMV&tp_b=3C8HJ7UOP8G5JQU8RE48TOZ99COZMV&c=365799&tp_c=365799"},{"rt":1254,"stimulus":"\n            <h4 style=\"color:Orange;\">Student 6</h4>\n            <h2>The weight of your coin is <b style=\"color:Tomato;\">0.5</b>.</h2>\n            <p>In this block, you will be giving <b>two</b> sets of examples to Student 6.</p>\n                <p>You will receive feedback at the end of the block.</p>\n            <p></p>","response":0,"trial_type":"html-button-response","trial_index":43,"time_elapsed":842014,"internal_node_id":"0.0-39.0","params":{"nStudents":24,"maxFlips":30,"completionMinutes":45,"basePay":8,"maxBonus":9,"perTrialBonus":0.5,"perTrialBonusThreshold":0.05,"exampleCost":0.01},"classroomParams":{"A":{"a":1,"b":4},"B":{"a":4,"b":1},"C":{"a":2,"b":8},"D":{"a":8,"b":2}},"conditions":["nonSeqFull","nonSeqPartial","seqNoFeedback","seqFeedback"],"classroomPairings":[["A","B"],["C","D"]],"coinWeights":[0.2,0.5,0.8],"subjectId":"A11YS0T8MV3Q7C","assignmentId":"3C8HJ7UOP8G5JQU8RE48TOZ99COZMV","hitId":"3NI0WFPPI9246I5W92FX9A3E2GN605","url":"https://gershmanlab.com/experiments/alicia/teaching/experiment/?hitId=3NI0WFPPI9246I5W92FX9A3E2GN605&workerId=A11YS0T8MV3Q7C&assignmentId=3C8HJ7UOP8G5JQU8RE48TOZ99COZMV&a=OJ8C9&tp_a=OJ8C9&b=3C8HJ7UOP8G5JQU8RE48TOZ99COZMV&tp_b=3C8HJ7UOP8G5JQU8RE48TOZ99COZMV&c=365799&tp_c=365799"},{"rt":3737,"response":{"heads":"3","tails":"4"},"type":"response","condition":"seqNoFeedback","trueTheta":0.5,"classrooms":["A","B"],"studentTrueClassroom":"B","exampleSet":"first","trial_type":"survey-html-form","trial_index":44,"time_elapsed":845755,"internal_node_id":"0.0-40.0-0.0","params":{"nStudents":24,"maxFlips":30,"completionMinutes":45,"basePay":8,"maxBonus":9,"perTrialBonus":0.5,"perTrialBonusThreshold":0.05,"exampleCost":0.01},"classroomParams":{"A":{"a":1,"b":4},"B":{"a":4,"b":1},"C":{"a":2,"b":8},"D":{"a":8,"b":2}},"conditions":["nonSeqFull","nonSeqPartial","seqNoFeedback","seqFeedback"],"classroomPairings":[["A","B"],["C","D"]],"coinWeights":[0.2,0.5,0.8],"subjectId":"A11YS0T8MV3Q7C","assignmentId":"3C8HJ7UOP8G5JQU8RE48TOZ99COZMV","hitId":"3NI0WFPPI9246I5W92FX9A3E2GN605","url":"https://gershmanlab.com/experiments/alicia/teaching/experiment/?hitId=3NI0WFPPI9246I5W92FX9A3E2GN605&workerId=A11YS0T8MV3Q7C&assignmentId=3C8HJ7UOP8G5JQU8RE48TOZ99COZMV&a=OJ8C9&tp_a=OJ8C9&b=3C8HJ7UOP8G5JQU8RE48TOZ99COZMV&tp_b=3C8HJ7UOP8G5JQU8RE48TOZ99COZMV&c=365799&tp_c=365799","heads":3,"tails":4,"studentIndex":5,"studentTrueHypers":{"a":4,"b":1},"studentGuess":0.5833333333333334,"delta":0.08333333333333337,"totalExamples":7,"bonusSoFar":0.78},{"rt":null,"stimulus":"Sending examples to student... ","response":null,"trial_type":"html-keyboard-response","trial_index":45,"time_elapsed":847008,"internal_node_id":"0.0-41.0","params":{"nStudents":24,"maxFlips":30,"completionMinutes":45,"basePay":8,"maxBonus":9,"perTrialBonus":0.5,"perTrialBonusThreshold":0.05,"exampleCost":0.01},"classroomParams":{"A":{"a":1,"b":4},"B":{"a":4,"b":1},"C":{"a":2,"b":8},"D":{"a":8,"b":2}},"conditions":["nonSeqFull","nonSeqPartial","seqNoFeedback","seqFeedback"],"classroomPairings":[["A","B"],["C","D"]],"coinWeights":[0.2,0.5,0.8],"subjectId":"A11YS0T8MV3Q7C","assignmentId":"3C8HJ7UOP8G5JQU8RE48TOZ99COZMV","hitId":"3NI0WFPPI9246I5W92FX9A3E2GN605","url":"https://gershmanlab.com/experiments/alicia/teaching/experiment/?hitId=3NI0WFPPI9246I5W92FX9A3E2GN605&workerId=A11YS0T8MV3Q7C&assignmentId=3C8HJ7UOP8G5JQU8RE48TOZ99COZMV&a=OJ8C9&tp_a=OJ8C9&b=3C8HJ7UOP8G5JQU8RE48TOZ99COZMV&tp_b=3C8HJ7UOP8G5JQU8RE48TOZ99COZMV&c=365799&tp_c=365799"},{"rt":null,"stimulus":"Examples sent to student! Waiting for student...","response":null,"trial_type":"html-keyboard-response","trial_index":46,"time_elapsed":851519,"internal_node_id":"0.0-42.0","params":{"nStudents":24,"maxFlips":30,"completionMinutes":45,"basePay":8,"maxBonus":9,"perTrialBonus":0.5,"perTrialBonusThreshold":0.05,"exampleCost":0.01},"classroomParams":{"A":{"a":1,"b":4},"B":{"a":4,"b":1},"C":{"a":2,"b":8},"D":{"a":8,"b":2}},"conditions":["nonSeqFull","nonSeqPartial","seqNoFeedback","seqFeedback"],"classroomPairings":[["A","B"],["C","D"]],"coinWeights":[0.2,0.5,0.8],"subjectId":"A11YS0T8MV3Q7C","assignmentId":"3C8HJ7UOP8G5JQU8RE48TOZ99COZMV","hitId":"3NI0WFPPI9246I5W92FX9A3E2GN605","url":"https://gershmanlab.com/experiments/alicia/teaching/experiment/?hitId=3NI0WFPPI9246I5W92FX9A3E2GN605&workerId=A11YS0T8MV3Q7C&assignmentId=3C8HJ7UOP8G5JQU8RE48TOZ99COZMV&a=OJ8C9&tp_a=OJ8C9&b=3C8HJ7UOP8G5JQU8RE48TOZ99COZMV&tp_b=3C8HJ7UOP8G5JQU8RE48TOZ99COZMV&c=365799&tp_c=365799"},{"rt":6183,"response":{"heads":"4","tails":"4"},"type":"response","condition":"seqNoFeedback","trueTheta":0.5,"classrooms":["A","B"],"studentTrueClassroom":"B","exampleSet":"second","trial_type":"survey-html-form","trial_index":47,"time_elapsed":857706,"internal_node_id":"0.0-43.0-0.0","params":{"nStudents":24,"maxFlips":30,"completionMinutes":45,"basePay":8,"maxBonus":9,"perTrialBonus":0.5,"perTrialBonusThreshold":0.05,"exampleCost":0.01},"classroomParams":{"A":{"a":1,"b":4},"B":{"a":4,"b":1},"C":{"a":2,"b":8},"D":{"a":8,"b":2}},"conditions":["nonSeqFull","nonSeqPartial","seqNoFeedback","seqFeedback"],"classroomPairings":[["A","B"],["C","D"]],"coinWeights":[0.2,0.5,0.8],"subjectId":"A11YS0T8MV3Q7C","assignmentId":"3C8HJ7UOP8G5JQU8RE48TOZ99COZMV","hitId":"3NI0WFPPI9246I5W92FX9A3E2GN605","url":"https://gershmanlab.com/experiments/alicia/teaching/experiment/?hitId=3NI0WFPPI9246I5W92FX9A3E2GN605&workerId=A11YS0T8MV3Q7C&assignmentId=3C8HJ7UOP8G5JQU8RE48TOZ99COZMV&a=OJ8C9&tp_a=OJ8C9&b=3C8HJ7UOP8G5JQU8RE48TOZ99COZMV&tp_b=3C8HJ7UOP8G5JQU8RE48TOZ99COZMV&c=365799&tp_c=365799","firstResponseHeads":3,"firstResponseTails":4,"secondResponseHeads":4,"secondResponseTails":4,"totalHeads":7,"totalTails":8,"studentIndex":5,"studentTrueHypers":{"a":4,"b":1},"studentGuess":0.55,"delta":0.050000000000000044,"bonus":0,"bonusSoFar":0.78,"totalExamples":15},{"rt":null,"stimulus":"Sending examples to student... ","response":null,"trial_type":"html-keyboard-response","trial_index":48,"time_elapsed":859209,"internal_node_id":"0.0-44.0","params":{"nStudents":24,"maxFlips":30,"completionMinutes":45,"basePay":8,"maxBonus":9,"perTrialBonus":0.5,"perTrialBonusThreshold":0.05,"exampleCost":0.01},"classroomParams":{"A":{"a":1,"b":4},"B":{"a":4,"b":1},"C":{"a":2,"b":8},"D":{"a":8,"b":2}},"conditions":["nonSeqFull","nonSeqPartial","seqNoFeedback","seqFeedback"],"classroomPairings":[["A","B"],["C","D"]],"coinWeights":[0.2,0.5,0.8],"subjectId":"A11YS0T8MV3Q7C","assignmentId":"3C8HJ7UOP8G5JQU8RE48TOZ99COZMV","hitId":"3NI0WFPPI9246I5W92FX9A3E2GN605","url":"https://gershmanlab.com/experiments/alicia/teaching/experiment/?hitId=3NI0WFPPI9246I5W92FX9A3E2GN605&workerId=A11YS0T8MV3Q7C&assignmentId=3C8HJ7UOP8G5JQU8RE48TOZ99COZMV&a=OJ8C9&tp_a=OJ8C9&b=3C8HJ7UOP8G5JQU8RE48TOZ99COZMV&tp_b=3C8HJ7UOP8G5JQU8RE48TOZ99COZMV&c=365799&tp_c=365799"},{"rt":null,"stimulus":"Examples sent to student! Waiting for student...","response":null,"trial_type":"html-keyboard-response","trial_index":49,"time_elapsed":865219,"internal_node_id":"0.0-45.0","params":{"nStudents":24,"maxFlips":30,"completionMinutes":45,"basePay":8,"maxBonus":9,"perTrialBonus":0.5,"perTrialBonusThreshold":0.05,"exampleCost":0.01},"classroomParams":{"A":{"a":1,"b":4},"B":{"a":4,"b":1},"C":{"a":2,"b":8},"D":{"a":8,"b":2}},"conditions":["nonSeqFull","nonSeqPartial","seqNoFeedback","seqFeedback"],"classroomPairings":[["A","B"],["C","D"]],"coinWeights":[0.2,0.5,0.8],"subjectId":"A11YS0T8MV3Q7C","assignmentId":"3C8HJ7UOP8G5JQU8RE48TOZ99COZMV","hitId":"3NI0WFPPI9246I5W92FX9A3E2GN605","url":"https://gershmanlab.com/experiments/alicia/teaching/experiment/?hitId=3NI0WFPPI9246I5W92FX9A3E2GN605&workerId=A11YS0T8MV3Q7C&assignmentId=3C8HJ7UOP8G5JQU8RE48TOZ99COZMV&a=OJ8C9&tp_a=OJ8C9&b=3C8HJ7UOP8G5JQU8RE48TOZ99COZMV&tp_b=3C8HJ7UOP8G5JQU8RE48TOZ99COZMV&c=365799&tp_c=365799"},{"rt":3991,"stimulus":"\n                <p>Student 6's first guess for coin weight: <b style=\"color:Tomato\";>0.58</b></p>\n                <p>Student 6's second guess for coin weight: <b style=\"color:Tomato\";>0.55</b></p>\n                <p>You received a bonus of <b>$0.00</b> based on the student's second guess.</p>\n                <p>Total bonus so far: <b>$0.78</b></p>\n                <p>Press any key to continue.</p>\n                ","response":"g","trial_type":"html-keyboard-response","trial_index":50,"time_elapsed":869210,"internal_node_id":"0.0-46.0","params":{"nStudents":24,"maxFlips":30,"completionMinutes":45,"basePay":8,"maxBonus":9,"perTrialBonus":0.5,"perTrialBonusThreshold":0.05,"exampleCost":0.01},"classroomParams":{"A":{"a":1,"b":4},"B":{"a":4,"b":1},"C":{"a":2,"b":8},"D":{"a":8,"b":2}},"conditions":["nonSeqFull","nonSeqPartial","seqNoFeedback","seqFeedback"],"classroomPairings":[["A","B"],["C","D"]],"coinWeights":[0.2,0.5,0.8],"subjectId":"A11YS0T8MV3Q7C","assignmentId":"3C8HJ7UOP8G5JQU8RE48TOZ99COZMV","hitId":"3NI0WFPPI9246I5W92FX9A3E2GN605","url":"https://gershmanlab.com/experiments/alicia/teaching/experiment/?hitId=3NI0WFPPI9246I5W92FX9A3E2GN605&workerId=A11YS0T8MV3Q7C&assignmentId=3C8HJ7UOP8G5JQU8RE48TOZ99COZMV&a=OJ8C9&tp_a=OJ8C9&b=3C8HJ7UOP8G5JQU8RE48TOZ99COZMV&tp_b=3C8HJ7UOP8G5JQU8RE48TOZ99COZMV&c=365799&tp_c=365799"},{"rt":null,"stimulus":"<div style=\"font-size:60px;\">Next student</div>","response":null,"trial_type":"html-keyboard-response","trial_index":51,"time_elapsed":871219,"internal_node_id":"0.0-47.0-0.0","params":{"nStudents":24,"maxFlips":30,"completionMinutes":45,"basePay":8,"maxBonus":9,"perTrialBonus":0.5,"perTrialBonusThreshold":0.05,"exampleCost":0.01},"classroomParams":{"A":{"a":1,"b":4},"B":{"a":4,"b":1},"C":{"a":2,"b":8},"D":{"a":8,"b":2}},"conditions":["nonSeqFull","nonSeqPartial","seqNoFeedback","seqFeedback"],"classroomPairings":[["A","B"],["C","D"]],"coinWeights":[0.2,0.5,0.8],"subjectId":"A11YS0T8MV3Q7C","assignmentId":"3C8HJ7UOP8G5JQU8RE48TOZ99COZMV","hitId":"3NI0WFPPI9246I5W92FX9A3E2GN605","url":"https://gershmanlab.com/experiments/alicia/teaching/experiment/?hitId=3NI0WFPPI9246I5W92FX9A3E2GN605&workerId=A11YS0T8MV3Q7C&assignmentId=3C8HJ7UOP8G5JQU8RE48TOZ99COZMV&a=OJ8C9&tp_a=OJ8C9&b=3C8HJ7UOP8G5JQU8RE48TOZ99COZMV&tp_b=3C8HJ7UOP8G5JQU8RE48TOZ99COZMV&c=365799&tp_c=365799"},{"rt":1714,"stimulus":"\n            <h4 style=\"color:Orange;\">Student 7</h4>\n            <h2>The weight of your coin is <b style=\"color:Tomato;\">0.8</b>.</h2>\n            <p>In this block, you will be giving <b>one</b> set of examples to Student 7.</p>\n                <p>You will receive feedback at the end of the block.</p>\n            <p></p>","response":0,"trial_type":"html-button-response","trial_index":52,"time_elapsed":872933,"internal_node_id":"0.0-48.0","params":{"nStudents":24,"maxFlips":30,"completionMinutes":45,"basePay":8,"maxBonus":9,"perTrialBonus":0.5,"perTrialBonusThreshold":0.05,"exampleCost":0.01},"classroomParams":{"A":{"a":1,"b":4},"B":{"a":4,"b":1},"C":{"a":2,"b":8},"D":{"a":8,"b":2}},"conditions":["nonSeqFull","nonSeqPartial","seqNoFeedback","seqFeedback"],"classroomPairings":[["A","B"],["C","D"]],"coinWeights":[0.2,0.5,0.8],"subjectId":"A11YS0T8MV3Q7C","assignmentId":"3C8HJ7UOP8G5JQU8RE48TOZ99COZMV","hitId":"3NI0WFPPI9246I5W92FX9A3E2GN605","url":"https://gershmanlab.com/experiments/alicia/teaching/experiment/?hitId=3NI0WFPPI9246I5W92FX9A3E2GN605&workerId=A11YS0T8MV3Q7C&assignmentId=3C8HJ7UOP8G5JQU8RE48TOZ99COZMV&a=OJ8C9&tp_a=OJ8C9&b=3C8HJ7UOP8G5JQU8RE48TOZ99COZMV&tp_b=3C8HJ7UOP8G5JQU8RE48TOZ99COZMV&c=365799&tp_c=365799"},{"rt":14743,"response":{"heads":"6","tails":"1"},"type":"response","condition":"nonSeqPartial","trueTheta":0.8,"classrooms":["C","D"],"studentTrueClassroom":"C","exampleSet":"first","trial_type":"survey-html-form","trial_index":53,"time_elapsed":887681,"internal_node_id":"0.0-49.0-0.0","params":{"nStudents":24,"maxFlips":30,"completionMinutes":45,"basePay":8,"maxBonus":9,"perTrialBonus":0.5,"perTrialBonusThreshold":0.05,"exampleCost":0.01},"classroomParams":{"A":{"a":1,"b":4},"B":{"a":4,"b":1},"C":{"a":2,"b":8},"D":{"a":8,"b":2}},"conditions":["nonSeqFull","nonSeqPartial","seqNoFeedback","seqFeedback"],"classroomPairings":[["A","B"],["C","D"]],"coinWeights":[0.2,0.5,0.8],"subjectId":"A11YS0T8MV3Q7C","assignmentId":"3C8HJ7UOP8G5JQU8RE48TOZ99COZMV","hitId":"3NI0WFPPI9246I5W92FX9A3E2GN605","url":"https://gershmanlab.com/experiments/alicia/teaching/experiment/?hitId=3NI0WFPPI9246I5W92FX9A3E2GN605&workerId=A11YS0T8MV3Q7C&assignmentId=3C8HJ7UOP8G5JQU8RE48TOZ99COZMV&a=OJ8C9&tp_a=OJ8C9&b=3C8HJ7UOP8G5JQU8RE48TOZ99COZMV&tp_b=3C8HJ7UOP8G5JQU8RE48TOZ99COZMV&c=365799&tp_c=365799","heads":6,"tails":1,"studentIndex":6,"studentTrueHypers":{"a":2,"b":8},"studentGuess":0.47058823529411764,"delta":0.3294117647058824,"totalExamples":7,"bonus":0,"bonusSoFar":0.78},{"rt":null,"stimulus":"Sending examples to student... ","response":null,"trial_type":"html-keyboard-response","trial_index":54,"time_elapsed":889188,"internal_node_id":"0.0-50.0","params":{"nStudents":24,"maxFlips":30,"completionMinutes":45,"basePay":8,"maxBonus":9,"perTrialBonus":0.5,"perTrialBonusThreshold":0.05,"exampleCost":0.01},"classroomParams":{"A":{"a":1,"b":4},"B":{"a":4,"b":1},"C":{"a":2,"b":8},"D":{"a":8,"b":2}},"conditions":["nonSeqFull","nonSeqPartial","seqNoFeedback","seqFeedback"],"classroomPairings":[["A","B"],["C","D"]],"coinWeights":[0.2,0.5,0.8],"subjectId":"A11YS0T8MV3Q7C","assignmentId":"3C8HJ7UOP8G5JQU8RE48TOZ99COZMV","hitId":"3NI0WFPPI9246I5W92FX9A3E2GN605","url":"https://gershmanlab.com/experiments/alicia/teaching/experiment/?hitId=3NI0WFPPI9246I5W92FX9A3E2GN605&workerId=A11YS0T8MV3Q7C&assignmentId=3C8HJ7UOP8G5JQU8RE48TOZ99COZMV&a=OJ8C9&tp_a=OJ8C9&b=3C8HJ7UOP8G5JQU8RE48TOZ99COZMV&tp_b=3C8HJ7UOP8G5JQU8RE48TOZ99COZMV&c=365799&tp_c=365799"},{"rt":null,"stimulus":"Examples sent to student! Waiting for student...","response":null,"trial_type":"html-keyboard-response","trial_index":55,"time_elapsed":893698,"internal_node_id":"0.0-51.0","params":{"nStudents":24,"maxFlips":30,"completionMinutes":45,"basePay":8,"maxBonus":9,"perTrialBonus":0.5,"perTrialBonusThreshold":0.05,"exampleCost":0.01},"classroomParams":{"A":{"a":1,"b":4},"B":{"a":4,"b":1},"C":{"a":2,"b":8},"D":{"a":8,"b":2}},"conditions":["nonSeqFull","nonSeqPartial","seqNoFeedback","seqFeedback"],"classroomPairings":[["A","B"],["C","D"]],"coinWeights":[0.2,0.5,0.8],"subjectId":"A11YS0T8MV3Q7C","assignmentId":"3C8HJ7UOP8G5JQU8RE48TOZ99COZMV","hitId":"3NI0WFPPI9246I5W92FX9A3E2GN605","url":"https://gershmanlab.com/experiments/alicia/teaching/experiment/?hitId=3NI0WFPPI9246I5W92FX9A3E2GN605&workerId=A11YS0T8MV3Q7C&assignmentId=3C8HJ7UOP8G5JQU8RE48TOZ99COZMV&a=OJ8C9&tp_a=OJ8C9&b=3C8HJ7UOP8G5JQU8RE48TOZ99COZMV&tp_b=3C8HJ7UOP8G5JQU8RE48TOZ99COZMV&c=365799&tp_c=365799"},{"rt":3016,"stimulus":"\n                <p>Student's guess for coin weight: <b style=\"color:Tomato;\">0.47</b></p>\n                <p>You received a bonus of <b>$0</b>. Total bonus so far: <b>$0.78</b></b></p>\n                <p></p>\n                <p>Press any key to continue.</p>\n                ","response":"g","trial_type":"html-keyboard-response","trial_index":56,"time_elapsed":896715,"internal_node_id":"0.0-52.0","params":{"nStudents":24,"maxFlips":30,"completionMinutes":45,"basePay":8,"maxBonus":9,"perTrialBonus":0.5,"perTrialBonusThreshold":0.05,"exampleCost":0.01},"classroomParams":{"A":{"a":1,"b":4},"B":{"a":4,"b":1},"C":{"a":2,"b":8},"D":{"a":8,"b":2}},"conditions":["nonSeqFull","nonSeqPartial","seqNoFeedback","seqFeedback"],"classroomPairings":[["A","B"],["C","D"]],"coinWeights":[0.2,0.5,0.8],"subjectId":"A11YS0T8MV3Q7C","assignmentId":"3C8HJ7UOP8G5JQU8RE48TOZ99COZMV","hitId":"3NI0WFPPI9246I5W92FX9A3E2GN605","url":"https://gershmanlab.com/experiments/alicia/teaching/experiment/?hitId=3NI0WFPPI9246I5W92FX9A3E2GN605&workerId=A11YS0T8MV3Q7C&assignmentId=3C8HJ7UOP8G5JQU8RE48TOZ99COZMV&a=OJ8C9&tp_a=OJ8C9&b=3C8HJ7UOP8G5JQU8RE48TOZ99COZMV&tp_b=3C8HJ7UOP8G5JQU8RE48TOZ99COZMV&c=365799&tp_c=365799"},{"rt":null,"stimulus":"<div style=\"font-size:60px;\">Next student</div>","response":null,"trial_type":"html-keyboard-response","trial_index":57,"time_elapsed":899718,"internal_node_id":"0.0-53.0-0.0","params":{"nStudents":24,"maxFlips":30,"completionMinutes":45,"basePay":8,"maxBonus":9,"perTrialBonus":0.5,"perTrialBonusThreshold":0.05,"exampleCost":0.01},"classroomParams":{"A":{"a":1,"b":4},"B":{"a":4,"b":1},"C":{"a":2,"b":8},"D":{"a":8,"b":2}},"conditions":["nonSeqFull","nonSeqPartial","seqNoFeedback","seqFeedback"],"classroomPairings":[["A","B"],["C","D"]],"coinWeights":[0.2,0.5,0.8],"subjectId":"A11YS0T8MV3Q7C","assignmentId":"3C8HJ7UOP8G5JQU8RE48TOZ99COZMV","hitId":"3NI0WFPPI9246I5W92FX9A3E2GN605","url":"https://gershmanlab.com/experiments/alicia/teaching/experiment/?hitId=3NI0WFPPI9246I5W92FX9A3E2GN605&workerId=A11YS0T8MV3Q7C&assignmentId=3C8HJ7UOP8G5JQU8RE48TOZ99COZMV&a=OJ8C9&tp_a=OJ8C9&b=3C8HJ7UOP8G5JQU8RE48TOZ99COZMV&tp_b=3C8HJ7UOP8G5JQU8RE48TOZ99COZMV&c=365799&tp_c=365799"},{"rt":1310,"stimulus":"\n            <h4 style=\"color:Orange;\">Student 8</h4>\n            <h2>The weight of your coin is <b style=\"color:Tomato;\">0.2</b>.</h2>\n            <p>In this block, you will be giving <b>one</b> set of examples to Student 8.</p>\n                <p>You will receive feedback at the end of the block.</p>\n            <p></p>","response":0,"trial_type":"html-button-response","trial_index":58,"time_elapsed":901028,"internal_node_id":"0.0-54.0","params":{"nStudents":24,"maxFlips":30,"completionMinutes":45,"basePay":8,"maxBonus":9,"perTrialBonus":0.5,"perTrialBonusThreshold":0.05,"exampleCost":0.01},"classroomParams":{"A":{"a":1,"b":4},"B":{"a":4,"b":1},"C":{"a":2,"b":8},"D":{"a":8,"b":2}},"conditions":["nonSeqFull","nonSeqPartial","seqNoFeedback","seqFeedback"],"classroomPairings":[["A","B"],["C","D"]],"coinWeights":[0.2,0.5,0.8],"subjectId":"A11YS0T8MV3Q7C","assignmentId":"3C8HJ7UOP8G5JQU8RE48TOZ99COZMV","hitId":"3NI0WFPPI9246I5W92FX9A3E2GN605","url":"https://gershmanlab.com/experiments/alicia/teaching/experiment/?hitId=3NI0WFPPI9246I5W92FX9A3E2GN605&workerId=A11YS0T8MV3Q7C&assignmentId=3C8HJ7UOP8G5JQU8RE48TOZ99COZMV&a=OJ8C9&tp_a=OJ8C9&b=3C8HJ7UOP8G5JQU8RE48TOZ99COZMV&tp_b=3C8HJ7UOP8G5JQU8RE48TOZ99COZMV&c=365799&tp_c=365799"},{"rt":9241,"response":{"heads":"2","tails":"6"},"type":"response","condition":"nonSeqPartial","trueTheta":0.2,"classrooms":["C","D"],"studentTrueClassroom":"D","exampleSet":"first","trial_type":"survey-html-form","trial_index":59,"time_elapsed":910274,"internal_node_id":"0.0-55.0-0.0","params":{"nStudents":24,"maxFlips":30,"completionMinutes":45,"basePay":8,"maxBonus":9,"perTrialBonus":0.5,"perTrialBonusThreshold":0.05,"exampleCost":0.01},"classroomParams":{"A":{"a":1,"b":4},"B":{"a":4,"b":1},"C":{"a":2,"b":8},"D":{"a":8,"b":2}},"conditions":["nonSeqFull","nonSeqPartial","seqNoFeedback","seqFeedback"],"classroomPairings":[["A","B"],["C","D"]],"coinWeights":[0.2,0.5,0.8],"subjectId":"A11YS0T8MV3Q7C","assignmentId":"3C8HJ7UOP8G5JQU8RE48TOZ99COZMV","hitId":"3NI0WFPPI9246I5W92FX9A3E2GN605","url":"https://gershmanlab.com/experiments/alicia/teaching/experiment/?hitId=3NI0WFPPI9246I5W92FX9A3E2GN605&workerId=A11YS0T8MV3Q7C&assignmentId=3C8HJ7UOP8G5JQU8RE48TOZ99COZMV&a=OJ8C9&tp_a=OJ8C9&b=3C8HJ7UOP8G5JQU8RE48TOZ99COZMV&tp_b=3C8HJ7UOP8G5JQU8RE48TOZ99COZMV&c=365799&tp_c=365799","heads":2,"tails":6,"studentIndex":7,"studentTrueHypers":{"a":8,"b":2},"studentGuess":0.5555555555555556,"delta":0.35555555555555557,"totalExamples":8,"bonus":0,"bonusSoFar":0.78},{"rt":null,"stimulus":"Sending examples to student... ","response":null,"trial_type":"html-keyboard-response","trial_index":60,"time_elapsed":911778,"internal_node_id":"0.0-56.0","params":{"nStudents":24,"maxFlips":30,"completionMinutes":45,"basePay":8,"maxBonus":9,"perTrialBonus":0.5,"perTrialBonusThreshold":0.05,"exampleCost":0.01},"classroomParams":{"A":{"a":1,"b":4},"B":{"a":4,"b":1},"C":{"a":2,"b":8},"D":{"a":8,"b":2}},"conditions":["nonSeqFull","nonSeqPartial","seqNoFeedback","seqFeedback"],"classroomPairings":[["A","B"],["C","D"]],"coinWeights":[0.2,0.5,0.8],"subjectId":"A11YS0T8MV3Q7C","assignmentId":"3C8HJ7UOP8G5JQU8RE48TOZ99COZMV","hitId":"3NI0WFPPI9246I5W92FX9A3E2GN605","url":"https://gershmanlab.com/experiments/alicia/teaching/experiment/?hitId=3NI0WFPPI9246I5W92FX9A3E2GN605&workerId=A11YS0T8MV3Q7C&assignmentId=3C8HJ7UOP8G5JQU8RE48TOZ99COZMV&a=OJ8C9&tp_a=OJ8C9&b=3C8HJ7UOP8G5JQU8RE48TOZ99COZMV&tp_b=3C8HJ7UOP8G5JQU8RE48TOZ99COZMV&c=365799&tp_c=365799"},{"rt":null,"stimulus":"Examples sent to student! Waiting for student...","response":null,"trial_type":"html-keyboard-response","trial_index":61,"time_elapsed":916288,"internal_node_id":"0.0-57.0","params":{"nStudents":24,"maxFlips":30,"completionMinutes":45,"basePay":8,"maxBonus":9,"perTrialBonus":0.5,"perTrialBonusThreshold":0.05,"exampleCost":0.01},"classroomParams":{"A":{"a":1,"b":4},"B":{"a":4,"b":1},"C":{"a":2,"b":8},"D":{"a":8,"b":2}},"conditions":["nonSeqFull","nonSeqPartial","seqNoFeedback","seqFeedback"],"classroomPairings":[["A","B"],["C","D"]],"coinWeights":[0.2,0.5,0.8],"subjectId":"A11YS0T8MV3Q7C","assignmentId":"3C8HJ7UOP8G5JQU8RE48TOZ99COZMV","hitId":"3NI0WFPPI9246I5W92FX9A3E2GN605","url":"https://gershmanlab.com/experiments/alicia/teaching/experiment/?hitId=3NI0WFPPI9246I5W92FX9A3E2GN605&workerId=A11YS0T8MV3Q7C&assignmentId=3C8HJ7UOP8G5JQU8RE48TOZ99COZMV&a=OJ8C9&tp_a=OJ8C9&b=3C8HJ7UOP8G5JQU8RE48TOZ99COZMV&tp_b=3C8HJ7UOP8G5JQU8RE48TOZ99COZMV&c=365799&tp_c=365799"},{"rt":2324,"stimulus":"\n                <p>Student's guess for coin weight: <b style=\"color:Tomato;\">0.56</b></p>\n                <p>You received a bonus of <b>$0</b>. Total bonus so far: <b>$0.78</b></b></p>\n                <p></p>\n                <p>Press any key to continue.</p>\n                ","response":"g","trial_type":"html-keyboard-response","trial_index":62,"time_elapsed":918614,"internal_node_id":"0.0-58.0","params":{"nStudents":24,"maxFlips":30,"completionMinutes":45,"basePay":8,"maxBonus":9,"perTrialBonus":0.5,"perTrialBonusThreshold":0.05,"exampleCost":0.01},"classroomParams":{"A":{"a":1,"b":4},"B":{"a":4,"b":1},"C":{"a":2,"b":8},"D":{"a":8,"b":2}},"conditions":["nonSeqFull","nonSeqPartial","seqNoFeedback","seqFeedback"],"classroomPairings":[["A","B"],["C","D"]],"coinWeights":[0.2,0.5,0.8],"subjectId":"A11YS0T8MV3Q7C","assignmentId":"3C8HJ7UOP8G5JQU8RE48TOZ99COZMV","hitId":"3NI0WFPPI9246I5W92FX9A3E2GN605","url":"https://gershmanlab.com/experiments/alicia/teaching/experiment/?hitId=3NI0WFPPI9246I5W92FX9A3E2GN605&workerId=A11YS0T8MV3Q7C&assignmentId=3C8HJ7UOP8G5JQU8RE48TOZ99COZMV&a=OJ8C9&tp_a=OJ8C9&b=3C8HJ7UOP8G5JQU8RE48TOZ99COZMV&tp_b=3C8HJ7UOP8G5JQU8RE48TOZ99COZMV&c=365799&tp_c=365799"},{"rt":null,"stimulus":"<div style=\"font-size:60px;\">Next student</div>","response":null,"trial_type":"html-keyboard-response","trial_index":63,"time_elapsed":920618,"internal_node_id":"0.0-59.0-0.0","params":{"nStudents":24,"maxFlips":30,"completionMinutes":45,"basePay":8,"maxBonus":9,"perTrialBonus":0.5,"perTrialBonusThreshold":0.05,"exampleCost":0.01},"classroomParams":{"A":{"a":1,"b":4},"B":{"a":4,"b":1},"C":{"a":2,"b":8},"D":{"a":8,"b":2}},"conditions":["nonSeqFull","nonSeqPartial","seqNoFeedback","seqFeedback"],"classroomPairings":[["A","B"],["C","D"]],"coinWeights":[0.2,0.5,0.8],"subjectId":"A11YS0T8MV3Q7C","assignmentId":"3C8HJ7UOP8G5JQU8RE48TOZ99COZMV","hitId":"3NI0WFPPI9246I5W92FX9A3E2GN605","url":"https://gershmanlab.com/experiments/alicia/teaching/experiment/?hitId=3NI0WFPPI9246I5W92FX9A3E2GN605&workerId=A11YS0T8MV3Q7C&assignmentId=3C8HJ7UOP8G5JQU8RE48TOZ99COZMV&a=OJ8C9&tp_a=OJ8C9&b=3C8HJ7UOP8G5JQU8RE48TOZ99COZMV&tp_b=3C8HJ7UOP8G5JQU8RE48TOZ99COZMV&c=365799&tp_c=365799"},{"rt":1565,"stimulus":"\n            <h4 style=\"color:Orange;\">Student 9</h4>\n            <h2>The weight of your coin is <b style=\"color:Tomato;\">0.8</b>.</h2>\n            <p>In this block, you will be giving <b>one</b> set of examples to Student 9.</p>\n                <p>You will receive feedback at the end of the block.</p>\n            <p></p>","response":0,"trial_type":"html-button-response","trial_index":64,"time_elapsed":922183,"internal_node_id":"0.0-60.0","params":{"nStudents":24,"maxFlips":30,"completionMinutes":45,"basePay":8,"maxBonus":9,"perTrialBonus":0.5,"perTrialBonusThreshold":0.05,"exampleCost":0.01},"classroomParams":{"A":{"a":1,"b":4},"B":{"a":4,"b":1},"C":{"a":2,"b":8},"D":{"a":8,"b":2}},"conditions":["nonSeqFull","nonSeqPartial","seqNoFeedback","seqFeedback"],"classroomPairings":[["A","B"],["C","D"]],"coinWeights":[0.2,0.5,0.8],"subjectId":"A11YS0T8MV3Q7C","assignmentId":"3C8HJ7UOP8G5JQU8RE48TOZ99COZMV","hitId":"3NI0WFPPI9246I5W92FX9A3E2GN605","url":"https://gershmanlab.com/experiments/alicia/teaching/experiment/?hitId=3NI0WFPPI9246I5W92FX9A3E2GN605&workerId=A11YS0T8MV3Q7C&assignmentId=3C8HJ7UOP8G5JQU8RE48TOZ99COZMV&a=OJ8C9&tp_a=OJ8C9&b=3C8HJ7UOP8G5JQU8RE48TOZ99COZMV&tp_b=3C8HJ7UOP8G5JQU8RE48TOZ99COZMV&c=365799&tp_c=365799"},{"rt":4304,"response":{"heads":"5","tails":"1"},"type":"response","condition":"nonSeqPartial","trueTheta":0.8,"classrooms":["A","B"],"studentTrueClassroom":"B","exampleSet":"first","trial_type":"survey-html-form","trial_index":65,"time_elapsed":926493,"internal_node_id":"0.0-61.0-0.0","params":{"nStudents":24,"maxFlips":30,"completionMinutes":45,"basePay":8,"maxBonus":9,"perTrialBonus":0.5,"perTrialBonusThreshold":0.05,"exampleCost":0.01},"classroomParams":{"A":{"a":1,"b":4},"B":{"a":4,"b":1},"C":{"a":2,"b":8},"D":{"a":8,"b":2}},"conditions":["nonSeqFull","nonSeqPartial","seqNoFeedback","seqFeedback"],"classroomPairings":[["A","B"],["C","D"]],"coinWeights":[0.2,0.5,0.8],"subjectId":"A11YS0T8MV3Q7C","assignmentId":"3C8HJ7UOP8G5JQU8RE48TOZ99COZMV","hitId":"3NI0WFPPI9246I5W92FX9A3E2GN605","url":"https://gershmanlab.com/experiments/alicia/teaching/experiment/?hitId=3NI0WFPPI9246I5W92FX9A3E2GN605&workerId=A11YS0T8MV3Q7C&assignmentId=3C8HJ7UOP8G5JQU8RE48TOZ99COZMV&a=OJ8C9&tp_a=OJ8C9&b=3C8HJ7UOP8G5JQU8RE48TOZ99COZMV&tp_b=3C8HJ7UOP8G5JQU8RE48TOZ99COZMV&c=365799&tp_c=365799","heads":5,"tails":1,"studentIndex":8,"studentTrueHypers":{"a":4,"b":1},"studentGuess":0.8181818181818182,"delta":0.018181818181818188,"totalExamples":6,"bonus":0.44,"bonusSoFar":1.22},{"rt":null,"stimulus":"Sending examples to student... ","response":null,"trial_type":"html-keyboard-response","trial_index":66,"time_elapsed":927996,"internal_node_id":"0.0-62.0","params":{"nStudents":24,"maxFlips":30,"completionMinutes":45,"basePay":8,"maxBonus":9,"perTrialBonus":0.5,"perTrialBonusThreshold":0.05,"exampleCost":0.01},"classroomParams":{"A":{"a":1,"b":4},"B":{"a":4,"b":1},"C":{"a":2,"b":8},"D":{"a":8,"b":2}},"conditions":["nonSeqFull","nonSeqPartial","seqNoFeedback","seqFeedback"],"classroomPairings":[["A","B"],["C","D"]],"coinWeights":[0.2,0.5,0.8],"subjectId":"A11YS0T8MV3Q7C","assignmentId":"3C8HJ7UOP8G5JQU8RE48TOZ99COZMV","hitId":"3NI0WFPPI9246I5W92FX9A3E2GN605","url":"https://gershmanlab.com/experiments/alicia/teaching/experiment/?hitId=3NI0WFPPI9246I5W92FX9A3E2GN605&workerId=A11YS0T8MV3Q7C&assignmentId=3C8HJ7UOP8G5JQU8RE48TOZ99COZMV&a=OJ8C9&tp_a=OJ8C9&b=3C8HJ7UOP8G5JQU8RE48TOZ99COZMV&tp_b=3C8HJ7UOP8G5JQU8RE48TOZ99COZMV&c=365799&tp_c=365799"},{"rt":null,"stimulus":"Examples sent to student! Waiting for student...","response":null,"trial_type":"html-keyboard-response","trial_index":67,"time_elapsed":933498,"internal_node_id":"0.0-63.0","params":{"nStudents":24,"maxFlips":30,"completionMinutes":45,"basePay":8,"maxBonus":9,"perTrialBonus":0.5,"perTrialBonusThreshold":0.05,"exampleCost":0.01},"classroomParams":{"A":{"a":1,"b":4},"B":{"a":4,"b":1},"C":{"a":2,"b":8},"D":{"a":8,"b":2}},"conditions":["nonSeqFull","nonSeqPartial","seqNoFeedback","seqFeedback"],"classroomPairings":[["A","B"],["C","D"]],"coinWeights":[0.2,0.5,0.8],"subjectId":"A11YS0T8MV3Q7C","assignmentId":"3C8HJ7UOP8G5JQU8RE48TOZ99COZMV","hitId":"3NI0WFPPI9246I5W92FX9A3E2GN605","url":"https://gershmanlab.com/experiments/alicia/teaching/experiment/?hitId=3NI0WFPPI9246I5W92FX9A3E2GN605&workerId=A11YS0T8MV3Q7C&assignmentId=3C8HJ7UOP8G5JQU8RE48TOZ99COZMV&a=OJ8C9&tp_a=OJ8C9&b=3C8HJ7UOP8G5JQU8RE48TOZ99COZMV&tp_b=3C8HJ7UOP8G5JQU8RE48TOZ99COZMV&c=365799&tp_c=365799"},{"rt":2052,"stimulus":"\n                <p>Student's guess for coin weight: <b style=\"color:Tomato;\">0.82</b></p>\n                <p>You received a bonus of <b>$0.44</b>. Total bonus so far: <b>$1.22</b></b></p>\n                <p></p>\n                <p>Press any key to continue.</p>\n                ","response":"g","trial_type":"html-keyboard-response","trial_index":68,"time_elapsed":935552,"internal_node_id":"0.0-64.0","params":{"nStudents":24,"maxFlips":30,"completionMinutes":45,"basePay":8,"maxBonus":9,"perTrialBonus":0.5,"perTrialBonusThreshold":0.05,"exampleCost":0.01},"classroomParams":{"A":{"a":1,"b":4},"B":{"a":4,"b":1},"C":{"a":2,"b":8},"D":{"a":8,"b":2}},"conditions":["nonSeqFull","nonSeqPartial","seqNoFeedback","seqFeedback"],"classroomPairings":[["A","B"],["C","D"]],"coinWeights":[0.2,0.5,0.8],"subjectId":"A11YS0T8MV3Q7C","assignmentId":"3C8HJ7UOP8G5JQU8RE48TOZ99COZMV","hitId":"3NI0WFPPI9246I5W92FX9A3E2GN605","url":"https://gershmanlab.com/experiments/alicia/teaching/experiment/?hitId=3NI0WFPPI9246I5W92FX9A3E2GN605&workerId=A11YS0T8MV3Q7C&assignmentId=3C8HJ7UOP8G5JQU8RE48TOZ99COZMV&a=OJ8C9&tp_a=OJ8C9&b=3C8HJ7UOP8G5JQU8RE48TOZ99COZMV&tp_b=3C8HJ7UOP8G5JQU8RE48TOZ99COZMV&c=365799&tp_c=365799"},{"rt":null,"stimulus":"<div style=\"font-size:60px;\">Next student</div>","response":null,"trial_type":"html-keyboard-response","trial_index":69,"time_elapsed":938058,"internal_node_id":"0.0-65.0-0.0","params":{"nStudents":24,"maxFlips":30,"completionMinutes":45,"basePay":8,"maxBonus":9,"perTrialBonus":0.5,"perTrialBonusThreshold":0.05,"exampleCost":0.01},"classroomParams":{"A":{"a":1,"b":4},"B":{"a":4,"b":1},"C":{"a":2,"b":8},"D":{"a":8,"b":2}},"conditions":["nonSeqFull","nonSeqPartial","seqNoFeedback","seqFeedback"],"classroomPairings":[["A","B"],["C","D"]],"coinWeights":[0.2,0.5,0.8],"subjectId":"A11YS0T8MV3Q7C","assignmentId":"3C8HJ7UOP8G5JQU8RE48TOZ99COZMV","hitId":"3NI0WFPPI9246I5W92FX9A3E2GN605","url":"https://gershmanlab.com/experiments/alicia/teaching/experiment/?hitId=3NI0WFPPI9246I5W92FX9A3E2GN605&workerId=A11YS0T8MV3Q7C&assignmentId=3C8HJ7UOP8G5JQU8RE48TOZ99COZMV&a=OJ8C9&tp_a=OJ8C9&b=3C8HJ7UOP8G5JQU8RE48TOZ99COZMV&tp_b=3C8HJ7UOP8G5JQU8RE48TOZ99COZMV&c=365799&tp_c=365799"},{"rt":984,"stimulus":"\n            <h4 style=\"color:Orange;\">Student 10</h4>\n            <h2>The weight of your coin is <b style=\"color:Tomato;\">0.5</b>.</h2>\n            <p>In this block, you will be giving <b>two</b> sets of examples to Student 10.</p>\n                <p>You will receive feedback at the end of the block.</p>\n            <p></p>","response":0,"trial_type":"html-button-response","trial_index":70,"time_elapsed":939044,"internal_node_id":"0.0-66.0","params":{"nStudents":24,"maxFlips":30,"completionMinutes":45,"basePay":8,"maxBonus":9,"perTrialBonus":0.5,"perTrialBonusThreshold":0.05,"exampleCost":0.01},"classroomParams":{"A":{"a":1,"b":4},"B":{"a":4,"b":1},"C":{"a":2,"b":8},"D":{"a":8,"b":2}},"conditions":["nonSeqFull","nonSeqPartial","seqNoFeedback","seqFeedback"],"classroomPairings":[["A","B"],["C","D"]],"coinWeights":[0.2,0.5,0.8],"subjectId":"A11YS0T8MV3Q7C","assignmentId":"3C8HJ7UOP8G5JQU8RE48TOZ99COZMV","hitId":"3NI0WFPPI9246I5W92FX9A3E2GN605","url":"https://gershmanlab.com/experiments/alicia/teaching/experiment/?hitId=3NI0WFPPI9246I5W92FX9A3E2GN605&workerId=A11YS0T8MV3Q7C&assignmentId=3C8HJ7UOP8G5JQU8RE48TOZ99COZMV&a=OJ8C9&tp_a=OJ8C9&b=3C8HJ7UOP8G5JQU8RE48TOZ99COZMV&tp_b=3C8HJ7UOP8G5JQU8RE48TOZ99COZMV&c=365799&tp_c=365799"},{"rt":6820,"response":{"heads":"4","tails":"4"},"type":"response","condition":"seqNoFeedback","trueTheta":0.5,"classrooms":["C","D"],"studentTrueClassroom":"D","exampleSet":"first","trial_type":"survey-html-form","trial_index":71,"time_elapsed":945868,"internal_node_id":"0.0-67.0-0.0","params":{"nStudents":24,"maxFlips":30,"completionMinutes":45,"basePay":8,"maxBonus":9,"perTrialBonus":0.5,"perTrialBonusThreshold":0.05,"exampleCost":0.01},"classroomParams":{"A":{"a":1,"b":4},"B":{"a":4,"b":1},"C":{"a":2,"b":8},"D":{"a":8,"b":2}},"conditions":["nonSeqFull","nonSeqPartial","seqNoFeedback","seqFeedback"],"classroomPairings":[["A","B"],["C","D"]],"coinWeights":[0.2,0.5,0.8],"subjectId":"A11YS0T8MV3Q7C","assignmentId":"3C8HJ7UOP8G5JQU8RE48TOZ99COZMV","hitId":"3NI0WFPPI9246I5W92FX9A3E2GN605","url":"https://gershmanlab.com/experiments/alicia/teaching/experiment/?hitId=3NI0WFPPI9246I5W92FX9A3E2GN605&workerId=A11YS0T8MV3Q7C&assignmentId=3C8HJ7UOP8G5JQU8RE48TOZ99COZMV&a=OJ8C9&tp_a=OJ8C9&b=3C8HJ7UOP8G5JQU8RE48TOZ99COZMV&tp_b=3C8HJ7UOP8G5JQU8RE48TOZ99COZMV&c=365799&tp_c=365799","heads":4,"tails":4,"studentIndex":9,"studentTrueHypers":{"a":8,"b":2},"studentGuess":0.6666666666666666,"delta":0.16666666666666663,"totalExamples":8,"bonusSoFar":1.22},{"rt":null,"stimulus":"Sending examples to student... ","response":null,"trial_type":"html-keyboard-response","trial_index":72,"time_elapsed":947628,"internal_node_id":"0.0-68.0","params":{"nStudents":24,"maxFlips":30,"completionMinutes":45,"basePay":8,"maxBonus":9,"perTrialBonus":0.5,"perTrialBonusThreshold":0.05,"exampleCost":0.01},"classroomParams":{"A":{"a":1,"b":4},"B":{"a":4,"b":1},"C":{"a":2,"b":8},"D":{"a":8,"b":2}},"conditions":["nonSeqFull","nonSeqPartial","seqNoFeedback","seqFeedback"],"classroomPairings":[["A","B"],["C","D"]],"coinWeights":[0.2,0.5,0.8],"subjectId":"A11YS0T8MV3Q7C","assignmentId":"3C8HJ7UOP8G5JQU8RE48TOZ99COZMV","hitId":"3NI0WFPPI9246I5W92FX9A3E2GN605","url":"https://gershmanlab.com/experiments/alicia/teaching/experiment/?hitId=3NI0WFPPI9246I5W92FX9A3E2GN605&workerId=A11YS0T8MV3Q7C&assignmentId=3C8HJ7UOP8G5JQU8RE48TOZ99COZMV&a=OJ8C9&tp_a=OJ8C9&b=3C8HJ7UOP8G5JQU8RE48TOZ99COZMV&tp_b=3C8HJ7UOP8G5JQU8RE48TOZ99COZMV&c=365799&tp_c=365799"},{"rt":null,"stimulus":"Examples sent to student! Waiting for student...","response":null,"trial_type":"html-keyboard-response","trial_index":73,"time_elapsed":953137,"internal_node_id":"0.0-69.0","params":{"nStudents":24,"maxFlips":30,"completionMinutes":45,"basePay":8,"maxBonus":9,"perTrialBonus":0.5,"perTrialBonusThreshold":0.05,"exampleCost":0.01},"classroomParams":{"A":{"a":1,"b":4},"B":{"a":4,"b":1},"C":{"a":2,"b":8},"D":{"a":8,"b":2}},"conditions":["nonSeqFull","nonSeqPartial","seqNoFeedback","seqFeedback"],"classroomPairings":[["A","B"],["C","D"]],"coinWeights":[0.2,0.5,0.8],"subjectId":"A11YS0T8MV3Q7C","assignmentId":"3C8HJ7UOP8G5JQU8RE48TOZ99COZMV","hitId":"3NI0WFPPI9246I5W92FX9A3E2GN605","url":"https://gershmanlab.com/experiments/alicia/teaching/experiment/?hitId=3NI0WFPPI9246I5W92FX9A3E2GN605&workerId=A11YS0T8MV3Q7C&assignmentId=3C8HJ7UOP8G5JQU8RE48TOZ99COZMV&a=OJ8C9&tp_a=OJ8C9&b=3C8HJ7UOP8G5JQU8RE48TOZ99COZMV&tp_b=3C8HJ7UOP8G5JQU8RE48TOZ99COZMV&c=365799&tp_c=365799"},{"rt":3091,"response":{"heads":"3","tails":"5"},"type":"response","condition":"seqNoFeedback","trueTheta":0.5,"classrooms":["C","D"],"studentTrueClassroom":"D","exampleSet":"second","trial_type":"survey-html-form","trial_index":74,"time_elapsed":956232,"internal_node_id":"0.0-70.0-0.0","params":{"nStudents":24,"maxFlips":30,"completionMinutes":45,"basePay":8,"maxBonus":9,"perTrialBonus":0.5,"perTrialBonusThreshold":0.05,"exampleCost":0.01},"classroomParams":{"A":{"a":1,"b":4},"B":{"a":4,"b":1},"C":{"a":2,"b":8},"D":{"a":8,"b":2}},"conditions":["nonSeqFull","nonSeqPartial","seqNoFeedback","seqFeedback"],"classroomPairings":[["A","B"],["C","D"]],"coinWeights":[0.2,0.5,0.8],"subjectId":"A11YS0T8MV3Q7C","assignmentId":"3C8HJ7UOP8G5JQU8RE48TOZ99COZMV","hitId":"3NI0WFPPI9246I5W92FX9A3E2GN605","url":"https://gershmanlab.com/experiments/alicia/teaching/experiment/?hitId=3NI0WFPPI9246I5W92FX9A3E2GN605&workerId=A11YS0T8MV3Q7C&assignmentId=3C8HJ7UOP8G5JQU8RE48TOZ99COZMV&a=OJ8C9&tp_a=OJ8C9&b=3C8HJ7UOP8G5JQU8RE48TOZ99COZMV&tp_b=3C8HJ7UOP8G5JQU8RE48TOZ99COZMV&c=365799&tp_c=365799","firstResponseHeads":4,"firstResponseTails":4,"secondResponseHeads":3,"secondResponseTails":5,"totalHeads":7,"totalTails":9,"studentIndex":9,"studentTrueHypers":{"a":8,"b":2},"studentGuess":0.5769230769230769,"delta":0.07692307692307687,"bonus":0,"bonusSoFar":1.22,"totalExamples":16},{"rt":null,"stimulus":"Sending examples to student... ","response":null,"trial_type":"html-keyboard-response","trial_index":75,"time_elapsed":957737,"internal_node_id":"0.0-71.0","params":{"nStudents":24,"maxFlips":30,"completionMinutes":45,"basePay":8,"maxBonus":9,"perTrialBonus":0.5,"perTrialBonusThreshold":0.05,"exampleCost":0.01},"classroomParams":{"A":{"a":1,"b":4},"B":{"a":4,"b":1},"C":{"a":2,"b":8},"D":{"a":8,"b":2}},"conditions":["nonSeqFull","nonSeqPartial","seqNoFeedback","seqFeedback"],"classroomPairings":[["A","B"],["C","D"]],"coinWeights":[0.2,0.5,0.8],"subjectId":"A11YS0T8MV3Q7C","assignmentId":"3C8HJ7UOP8G5JQU8RE48TOZ99COZMV","hitId":"3NI0WFPPI9246I5W92FX9A3E2GN605","url":"https://gershmanlab.com/experiments/alicia/teaching/experiment/?hitId=3NI0WFPPI9246I5W92FX9A3E2GN605&workerId=A11YS0T8MV3Q7C&assignmentId=3C8HJ7UOP8G5JQU8RE48TOZ99COZMV&a=OJ8C9&tp_a=OJ8C9&b=3C8HJ7UOP8G5JQU8RE48TOZ99COZMV&tp_b=3C8HJ7UOP8G5JQU8RE48TOZ99COZMV&c=365799&tp_c=365799"},{"rt":null,"stimulus":"Examples sent to student! Waiting for student...","response":null,"trial_type":"html-keyboard-response","trial_index":76,"time_elapsed":963247,"internal_node_id":"0.0-72.0","params":{"nStudents":24,"maxFlips":30,"completionMinutes":45,"basePay":8,"maxBonus":9,"perTrialBonus":0.5,"perTrialBonusThreshold":0.05,"exampleCost":0.01},"classroomParams":{"A":{"a":1,"b":4},"B":{"a":4,"b":1},"C":{"a":2,"b":8},"D":{"a":8,"b":2}},"conditions":["nonSeqFull","nonSeqPartial","seqNoFeedback","seqFeedback"],"classroomPairings":[["A","B"],["C","D"]],"coinWeights":[0.2,0.5,0.8],"subjectId":"A11YS0T8MV3Q7C","assignmentId":"3C8HJ7UOP8G5JQU8RE48TOZ99COZMV","hitId":"3NI0WFPPI9246I5W92FX9A3E2GN605","url":"https://gershmanlab.com/experiments/alicia/teaching/experiment/?hitId=3NI0WFPPI9246I5W92FX9A3E2GN605&workerId=A11YS0T8MV3Q7C&assignmentId=3C8HJ7UOP8G5JQU8RE48TOZ99COZMV&a=OJ8C9&tp_a=OJ8C9&b=3C8HJ7UOP8G5JQU8RE48TOZ99COZMV&tp_b=3C8HJ7UOP8G5JQU8RE48TOZ99COZMV&c=365799&tp_c=365799"},{"rt":2541,"stimulus":"\n                <p>Student 10's first guess for coin weight: <b style=\"color:Tomato\";>0.67</b></p>\n                <p>Student 10's second guess for coin weight: <b style=\"color:Tomato\";>0.58</b></p>\n                <p>You received a bonus of <b>$0.00</b> based on the student's second guess.</p>\n                <p>Total bonus so far: <b>$1.22</b></p>\n                <p>Press any key to continue.</p>\n                ","response":"g","trial_type":"html-keyboard-response","trial_index":77,"time_elapsed":965790,"internal_node_id":"0.0-73.0","params":{"nStudents":24,"maxFlips":30,"completionMinutes":45,"basePay":8,"maxBonus":9,"perTrialBonus":0.5,"perTrialBonusThreshold":0.05,"exampleCost":0.01},"classroomParams":{"A":{"a":1,"b":4},"B":{"a":4,"b":1},"C":{"a":2,"b":8},"D":{"a":8,"b":2}},"conditions":["nonSeqFull","nonSeqPartial","seqNoFeedback","seqFeedback"],"classroomPairings":[["A","B"],["C","D"]],"coinWeights":[0.2,0.5,0.8],"subjectId":"A11YS0T8MV3Q7C","assignmentId":"3C8HJ7UOP8G5JQU8RE48TOZ99COZMV","hitId":"3NI0WFPPI9246I5W92FX9A3E2GN605","url":"https://gershmanlab.com/experiments/alicia/teaching/experiment/?hitId=3NI0WFPPI9246I5W92FX9A3E2GN605&workerId=A11YS0T8MV3Q7C&assignmentId=3C8HJ7UOP8G5JQU8RE48TOZ99COZMV&a=OJ8C9&tp_a=OJ8C9&b=3C8HJ7UOP8G5JQU8RE48TOZ99COZMV&tp_b=3C8HJ7UOP8G5JQU8RE48TOZ99COZMV&c=365799&tp_c=365799"},{"rt":null,"stimulus":"<div style=\"font-size:60px;\">Next student</div>","response":null,"trial_type":"html-keyboard-response","trial_index":78,"time_elapsed":968298,"internal_node_id":"0.0-74.0-0.0","params":{"nStudents":24,"maxFlips":30,"completionMinutes":45,"basePay":8,"maxBonus":9,"perTrialBonus":0.5,"perTrialBonusThreshold":0.05,"exampleCost":0.01},"classroomParams":{"A":{"a":1,"b":4},"B":{"a":4,"b":1},"C":{"a":2,"b":8},"D":{"a":8,"b":2}},"conditions":["nonSeqFull","nonSeqPartial","seqNoFeedback","seqFeedback"],"classroomPairings":[["A","B"],["C","D"]],"coinWeights":[0.2,0.5,0.8],"subjectId":"A11YS0T8MV3Q7C","assignmentId":"3C8HJ7UOP8G5JQU8RE48TOZ99COZMV","hitId":"3NI0WFPPI9246I5W92FX9A3E2GN605","url":"https://gershmanlab.com/experiments/alicia/teaching/experiment/?hitId=3NI0WFPPI9246I5W92FX9A3E2GN605&workerId=A11YS0T8MV3Q7C&assignmentId=3C8HJ7UOP8G5JQU8RE48TOZ99COZMV&a=OJ8C9&tp_a=OJ8C9&b=3C8HJ7UOP8G5JQU8RE48TOZ99COZMV&tp_b=3C8HJ7UOP8G5JQU8RE48TOZ99COZMV&c=365799&tp_c=365799"},{"rt":1448,"stimulus":"\n            <h4 style=\"color:Orange;\">Student 11</h4>\n            <h2>The weight of your coin is <b style=\"color:Tomato;\">0.2</b>.</h2>\n            <p>In this block, you will be giving <b>one</b> set of examples to Student 11.</p>\n                <p>You will receive feedback at the end of the block.</p>\n            <p></p>","response":0,"trial_type":"html-button-response","trial_index":79,"time_elapsed":969747,"internal_node_id":"0.0-75.0","params":{"nStudents":24,"maxFlips":30,"completionMinutes":45,"basePay":8,"maxBonus":9,"perTrialBonus":0.5,"perTrialBonusThreshold":0.05,"exampleCost":0.01},"classroomParams":{"A":{"a":1,"b":4},"B":{"a":4,"b":1},"C":{"a":2,"b":8},"D":{"a":8,"b":2}},"conditions":["nonSeqFull","nonSeqPartial","seqNoFeedback","seqFeedback"],"classroomPairings":[["A","B"],["C","D"]],"coinWeights":[0.2,0.5,0.8],"subjectId":"A11YS0T8MV3Q7C","assignmentId":"3C8HJ7UOP8G5JQU8RE48TOZ99COZMV","hitId":"3NI0WFPPI9246I5W92FX9A3E2GN605","url":"https://gershmanlab.com/experiments/alicia/teaching/experiment/?hitId=3NI0WFPPI9246I5W92FX9A3E2GN605&workerId=A11YS0T8MV3Q7C&assignmentId=3C8HJ7UOP8G5JQU8RE48TOZ99COZMV&a=OJ8C9&tp_a=OJ8C9&b=3C8HJ7UOP8G5JQU8RE48TOZ99COZMV&tp_b=3C8HJ7UOP8G5JQU8RE48TOZ99COZMV&c=365799&tp_c=365799"},{"rt":3520,"response":{"heads":"1","tails":"4"},"type":"response","condition":"nonSeqPartial","trueTheta":0.2,"classrooms":["A","B"],"studentTrueClassroom":"B","exampleSet":"first","trial_type":"survey-html-form","trial_index":80,"time_elapsed":973271,"internal_node_id":"0.0-76.0-0.0","params":{"nStudents":24,"maxFlips":30,"completionMinutes":45,"basePay":8,"maxBonus":9,"perTrialBonus":0.5,"perTrialBonusThreshold":0.05,"exampleCost":0.01},"classroomParams":{"A":{"a":1,"b":4},"B":{"a":4,"b":1},"C":{"a":2,"b":8},"D":{"a":8,"b":2}},"conditions":["nonSeqFull","nonSeqPartial","seqNoFeedback","seqFeedback"],"classroomPairings":[["A","B"],["C","D"]],"coinWeights":[0.2,0.5,0.8],"subjectId":"A11YS0T8MV3Q7C","assignmentId":"3C8HJ7UOP8G5JQU8RE48TOZ99COZMV","hitId":"3NI0WFPPI9246I5W92FX9A3E2GN605","url":"https://gershmanlab.com/experiments/alicia/teaching/experiment/?hitId=3NI0WFPPI9246I5W92FX9A3E2GN605&workerId=A11YS0T8MV3Q7C&assignmentId=3C8HJ7UOP8G5JQU8RE48TOZ99COZMV&a=OJ8C9&tp_a=OJ8C9&b=3C8HJ7UOP8G5JQU8RE48TOZ99COZMV&tp_b=3C8HJ7UOP8G5JQU8RE48TOZ99COZMV&c=365799&tp_c=365799","heads":1,"tails":4,"studentIndex":10,"studentTrueHypers":{"a":4,"b":1},"studentGuess":0.5,"delta":0.3,"totalExamples":5,"bonus":0,"bonusSoFar":1.22},{"rt":null,"stimulus":"Sending examples to student... ","response":null,"trial_type":"html-keyboard-response","trial_index":81,"time_elapsed":975277,"internal_node_id":"0.0-77.0","params":{"nStudents":24,"maxFlips":30,"completionMinutes":45,"basePay":8,"maxBonus":9,"perTrialBonus":0.5,"perTrialBonusThreshold":0.05,"exampleCost":0.01},"classroomParams":{"A":{"a":1,"b":4},"B":{"a":4,"b":1},"C":{"a":2,"b":8},"D":{"a":8,"b":2}},"conditions":["nonSeqFull","nonSeqPartial","seqNoFeedback","seqFeedback"],"classroomPairings":[["A","B"],["C","D"]],"coinWeights":[0.2,0.5,0.8],"subjectId":"A11YS0T8MV3Q7C","assignmentId":"3C8HJ7UOP8G5JQU8RE48TOZ99COZMV","hitId":"3NI0WFPPI9246I5W92FX9A3E2GN605","url":"https://gershmanlab.com/experiments/alicia/teaching/experiment/?hitId=3NI0WFPPI9246I5W92FX9A3E2GN605&workerId=A11YS0T8MV3Q7C&assignmentId=3C8HJ7UOP8G5JQU8RE48TOZ99COZMV&a=OJ8C9&tp_a=OJ8C9&b=3C8HJ7UOP8G5JQU8RE48TOZ99COZMV&tp_b=3C8HJ7UOP8G5JQU8RE48TOZ99COZMV&c=365799&tp_c=365799"},{"rt":null,"stimulus":"Examples sent to student! Waiting for student...","response":null,"trial_type":"html-keyboard-response","trial_index":82,"time_elapsed":981287,"internal_node_id":"0.0-78.0","params":{"nStudents":24,"maxFlips":30,"completionMinutes":45,"basePay":8,"maxBonus":9,"perTrialBonus":0.5,"perTrialBonusThreshold":0.05,"exampleCost":0.01},"classroomParams":{"A":{"a":1,"b":4},"B":{"a":4,"b":1},"C":{"a":2,"b":8},"D":{"a":8,"b":2}},"conditions":["nonSeqFull","nonSeqPartial","seqNoFeedback","seqFeedback"],"classroomPairings":[["A","B"],["C","D"]],"coinWeights":[0.2,0.5,0.8],"subjectId":"A11YS0T8MV3Q7C","assignmentId":"3C8HJ7UOP8G5JQU8RE48TOZ99COZMV","hitId":"3NI0WFPPI9246I5W92FX9A3E2GN605","url":"https://gershmanlab.com/experiments/alicia/teaching/experiment/?hitId=3NI0WFPPI9246I5W92FX9A3E2GN605&workerId=A11YS0T8MV3Q7C&assignmentId=3C8HJ7UOP8G5JQU8RE48TOZ99COZMV&a=OJ8C9&tp_a=OJ8C9&b=3C8HJ7UOP8G5JQU8RE48TOZ99COZMV&tp_b=3C8HJ7UOP8G5JQU8RE48TOZ99COZMV&c=365799&tp_c=365799"},{"rt":5044,"stimulus":"\n                <p>Student's guess for coin weight: <b style=\"color:Tomato;\">0.50</b></p>\n                <p>You received a bonus of <b>$0</b>. Total bonus so far: <b>$1.22</b></b></p>\n                <p></p>\n                <p>Press any key to continue.</p>\n                ","response":"g","trial_type":"html-keyboard-response","trial_index":83,"time_elapsed":986332,"internal_node_id":"0.0-79.0","params":{"nStudents":24,"maxFlips":30,"completionMinutes":45,"basePay":8,"maxBonus":9,"perTrialBonus":0.5,"perTrialBonusThreshold":0.05,"exampleCost":0.01},"classroomParams":{"A":{"a":1,"b":4},"B":{"a":4,"b":1},"C":{"a":2,"b":8},"D":{"a":8,"b":2}},"conditions":["nonSeqFull","nonSeqPartial","seqNoFeedback","seqFeedback"],"classroomPairings":[["A","B"],["C","D"]],"coinWeights":[0.2,0.5,0.8],"subjectId":"A11YS0T8MV3Q7C","assignmentId":"3C8HJ7UOP8G5JQU8RE48TOZ99COZMV","hitId":"3NI0WFPPI9246I5W92FX9A3E2GN605","url":"https://gershmanlab.com/experiments/alicia/teaching/experiment/?hitId=3NI0WFPPI9246I5W92FX9A3E2GN605&workerId=A11YS0T8MV3Q7C&assignmentId=3C8HJ7UOP8G5JQU8RE48TOZ99COZMV&a=OJ8C9&tp_a=OJ8C9&b=3C8HJ7UOP8G5JQU8RE48TOZ99COZMV&tp_b=3C8HJ7UOP8G5JQU8RE48TOZ99COZMV&c=365799&tp_c=365799"},{"rt":null,"stimulus":"<div style=\"font-size:60px;\">Next student</div>","response":null,"trial_type":"html-keyboard-response","trial_index":84,"time_elapsed":988337,"internal_node_id":"0.0-80.0-0.0","params":{"nStudents":24,"maxFlips":30,"completionMinutes":45,"basePay":8,"maxBonus":9,"perTrialBonus":0.5,"perTrialBonusThreshold":0.05,"exampleCost":0.01},"classroomParams":{"A":{"a":1,"b":4},"B":{"a":4,"b":1},"C":{"a":2,"b":8},"D":{"a":8,"b":2}},"conditions":["nonSeqFull","nonSeqPartial","seqNoFeedback","seqFeedback"],"classroomPairings":[["A","B"],["C","D"]],"coinWeights":[0.2,0.5,0.8],"subjectId":"A11YS0T8MV3Q7C","assignmentId":"3C8HJ7UOP8G5JQU8RE48TOZ99COZMV","hitId":"3NI0WFPPI9246I5W92FX9A3E2GN605","url":"https://gershmanlab.com/experiments/alicia/teaching/experiment/?hitId=3NI0WFPPI9246I5W92FX9A3E2GN605&workerId=A11YS0T8MV3Q7C&assignmentId=3C8HJ7UOP8G5JQU8RE48TOZ99COZMV&a=OJ8C9&tp_a=OJ8C9&b=3C8HJ7UOP8G5JQU8RE48TOZ99COZMV&tp_b=3C8HJ7UOP8G5JQU8RE48TOZ99COZMV&c=365799&tp_c=365799"},{"rt":1454,"stimulus":"\n            <h4 style=\"color:Orange;\">Student 12</h4>\n            <h2>The weight of your coin is <b style=\"color:Tomato;\">0.5</b>.</h2>\n            <p>In this block, you will be giving <b>one</b> set of examples to Student 12.</p>\n                <p>You will receive feedback at the end of the block.</p>\n            <p></p>","response":0,"trial_type":"html-button-response","trial_index":85,"time_elapsed":989792,"internal_node_id":"0.0-81.0","params":{"nStudents":24,"maxFlips":30,"completionMinutes":45,"basePay":8,"maxBonus":9,"perTrialBonus":0.5,"perTrialBonusThreshold":0.05,"exampleCost":0.01},"classroomParams":{"A":{"a":1,"b":4},"B":{"a":4,"b":1},"C":{"a":2,"b":8},"D":{"a":8,"b":2}},"conditions":["nonSeqFull","nonSeqPartial","seqNoFeedback","seqFeedback"],"classroomPairings":[["A","B"],["C","D"]],"coinWeights":[0.2,0.5,0.8],"subjectId":"A11YS0T8MV3Q7C","assignmentId":"3C8HJ7UOP8G5JQU8RE48TOZ99COZMV","hitId":"3NI0WFPPI9246I5W92FX9A3E2GN605","url":"https://gershmanlab.com/experiments/alicia/teaching/experiment/?hitId=3NI0WFPPI9246I5W92FX9A3E2GN605&workerId=A11YS0T8MV3Q7C&assignmentId=3C8HJ7UOP8G5JQU8RE48TOZ99COZMV&a=OJ8C9&tp_a=OJ8C9&b=3C8HJ7UOP8G5JQU8RE48TOZ99COZMV&tp_b=3C8HJ7UOP8G5JQU8RE48TOZ99COZMV&c=365799&tp_c=365799"},{"rt":8408,"re