[{"rt":1250,"stimulus":"Welcome to the experiment. Press any key to begin.","response":" ","trial_type":"html-keyboard-response","trial_index":0,"time_elapsed":1271,"internal_node_id":"0.0-0.0","params":{"nStudents":24,"maxFlips":30,"completionMinutes":45,"basePay":8,"maxBonus":9,"perTrialBonus":0.5,"perTrialBonusThreshold":0.05,"exampleCost":0.01},"classroomParams":{"A":{"a":1,"b":4},"B":{"a":4,"b":1},"C":{"a":2,"b":8},"D":{"a":8,"b":2}},"conditions":["nonSeqFull","nonSeqPartial","seqNoFeedback","seqFeedback"],"classroomPairings":[["A","B"],["C","D"]],"coinWeights":[0.2,0.5,0.8],"subjectId":"A13WTEQ06V3B6D","assignmentId":"33JKGHPFYDGB21GPOQTEY1S0ZYGMN1","hitId":"3SD15I2WD2G0NA4TSPXGB81L5S7630","url":"https://gershmanlab.com/experiments/alicia/teaching/experiment/?hitId=3SD15I2WD2G0NA4TSPXGB81L5S7630&workerId=A13WTEQ06V3B6D&assignmentId=33JKGHPFYDGB21GPOQTEY1S0ZYGMN1&a=FGJ39&tp_a=FGJ39&b=33JKGHPFYDGB21GPOQTEY1S0ZYGMN1&tp_b=33JKGHPFYDGB21GPOQTEY1S0ZYGMN1&c=365799&tp_c=365799"},{"rt":1557,"stimulus":"\n        <h3>Please read this consent agreement carefully before deciding whether to participate in this experiment.</h3>\n        <p><b>Purpose of the research:</b> To examine how people teach effectively.</p>\n        <p><b>What you will do in this research:</b> You will teach students the weights of different coins.</p>\n        <p><b>Time required:</b> This experiment will take 45 minutes to complete.</p>\n        <p><b>Risks:</b> There are no anticipated risks associated with participating in this study.             The effects of participating should be comparable to those you would experience from viewing a computer monitor             and using a mouse and keyboard for the duration of the experiment.</p>\n        <p><b>Benefits:</b> The study provides important information about the nature of teaching.</p>\n        <p><b>Compensation:</b> You will receive <b>$8</b> for completing the experiment and a performance bonus of up to <b>$9</b>.</p>\n        <p><b>Confidentiality:</b> Your participation in this study will remain confidential.             No personally identifiable information will be associated with your data.             Your de-identified data may be shared with other researchers and used in future projects.</p>\n        <p><b>Participation and withdrawal:</b> Your participation in this study is completely voluntary and             you may refuse to participate or you may choose to withdraw at any time without penalty or loss of\n            benefits to which you are otherwise entitled.</p>\n        <p><b>How to contact the researcher:</b> If you have questions or concerns about your participation            or payment, or want to request a summary of research findings, please contact\n            Alicia Chen, aliciachen@college.harvard.edu.</p>\n        <p><b>Whom to contact about your rights in this research:</b> For questions, concerns, suggestions,             or complaints that have not been or cannot be addressed by the researcher, or to report             research-related harm, please contact the Committee on the Use of Human Subjects in Research at Harvard University,             1414 Massachusetts Avenue, Second Floor, Cambridge, MA 02138. Phone: 617-496-2847. Email: cuhs@fas.harvard.edu.</p>\n        ","response":0,"trial_type":"html-button-response","trial_index":1,"time_elapsed":2831,"internal_node_id":"0.0-1.0","params":{"nStudents":24,"maxFlips":30,"completionMinutes":45,"basePay":8,"maxBonus":9,"perTrialBonus":0.5,"perTrialBonusThreshold":0.05,"exampleCost":0.01},"classroomParams":{"A":{"a":1,"b":4},"B":{"a":4,"b":1},"C":{"a":2,"b":8},"D":{"a":8,"b":2}},"conditions":["nonSeqFull","nonSeqPartial","seqNoFeedback","seqFeedback"],"classroomPairings":[["A","B"],["C","D"]],"coinWeights":[0.2,0.5,0.8],"subjectId":"A13WTEQ06V3B6D","assignmentId":"33JKGHPFYDGB21GPOQTEY1S0ZYGMN1","hitId":"3SD15I2WD2G0NA4TSPXGB81L5S7630","url":"https://gershmanlab.com/experiments/alicia/teaching/experiment/?hitId=3SD15I2WD2G0NA4TSPXGB81L5S7630&workerId=A13WTEQ06V3B6D&assignmentId=33JKGHPFYDGB21GPOQTEY1S0ZYGMN1&a=FGJ39&tp_a=FGJ39&b=33JKGHPFYDGB21GPOQTEY1S0ZYGMN1&tp_b=33JKGHPFYDGB21GPOQTEY1S0ZYGMN1&c=365799&tp_c=365799"},{"view_history":[{"page_index":0,"viewing_time":3191},{"page_index":1,"viewing_time":1351},{"page_index":2,"viewing_time":24773},{"page_index":3,"viewing_time":13231},{"page_index":4,"viewing_time":9912},{"page_index":5,"viewing_time":18802},{"page_index":6,"viewing_time":28646}],"rt":99905,"trial_type":"instructions","trial_index":2,"time_elapsed":102739,"internal_node_id":"0.0-2.0-0.0","params":{"nStudents":24,"maxFlips":30,"completionMinutes":45,"basePay":8,"maxBonus":9,"perTrialBonus":0.5,"perTrialBonusThreshold":0.05,"exampleCost":0.01},"classroomParams":{"A":{"a":1,"b":4},"B":{"a":4,"b":1},"C":{"a":2,"b":8},"D":{"a":8,"b":2}},"conditions":["nonSeqFull","nonSeqPartial","seqNoFeedback","seqFeedback"],"classroomPairings":[["A","B"],["C","D"]],"coinWeights":[0.2,0.5,0.8],"subjectId":"A13WTEQ06V3B6D","assignmentId":"33JKGHPFYDGB21GPOQTEY1S0ZYGMN1","hitId":"3SD15I2WD2G0NA4TSPXGB81L5S7630","url":"https://gershmanlab.com/experiments/alicia/teaching/experiment/?hitId=3SD15I2WD2G0NA4TSPXGB81L5S7630&workerId=A13WTEQ06V3B6D&assignmentId=33JKGHPFYDGB21GPOQTEY1S0ZYGMN1&a=FGJ39&tp_a=FGJ39&b=33JKGHPFYDGB21GPOQTEY1S0ZYGMN1&tp_b=33JKGHPFYDGB21GPOQTEY1S0ZYGMN1&c=365799&tp_c=365799"},{"rt":153204,"response":{"Q0":"Students in different classrooms will have seen a different number of heads and tails before seeing the examples you select for them.","Q1":"By <b>considering the student's classroom information</b> so that I can teach efficiently and accurately/helpfully at the same time (because each example I give to the student costs money!).","Q2":"The coin lands heads 90% of the time.","Q3":"Yes, I might encounter the same student twice.","Q4":"The students are also on the same alien planet as you, where coins can be unfair.","Q5":"Based on the student's second (and final) guess."},"question_order":[4,0,2,5,1,3],"trial_type":"survey-multi-choice","trial_index":3,"time_elapsed":255945,"internal_node_id":"0.0-2.0-1.0","params":{"nStudents":24,"maxFlips":30,"completionMinutes":45,"basePay":8,"maxBonus":9,"perTrialBonus":0.5,"perTrialBonusThreshold":0.05,"exampleCost":0.01},"classroomParams":{"A":{"a":1,"b":4},"B":{"a":4,"b":1},"C":{"a":2,"b":8},"D":{"a":8,"b":2}},"conditions":["nonSeqFull","nonSeqPartial","seqNoFeedback","seqFeedback"],"classroomPairings":[["A","B"],["C","D"]],"coinWeights":[0.2,0.5,0.8],"subjectId":"A13WTEQ06V3B6D","assignmentId":"33JKGHPFYDGB21GPOQTEY1S0ZYGMN1","hitId":"3SD15I2WD2G0NA4TSPXGB81L5S7630","url":"https://gershmanlab.com/experiments/alicia/teaching/experiment/?hitId=3SD15I2WD2G0NA4TSPXGB81L5S7630&workerId=A13WTEQ06V3B6D&assignmentId=33JKGHPFYDGB21GPOQTEY1S0ZYGMN1&a=FGJ39&tp_a=FGJ39&b=33JKGHPFYDGB21GPOQTEY1S0ZYGMN1&tp_b=33JKGHPFYDGB21GPOQTEY1S0ZYGMN1&c=365799&tp_c=365799","pass":false},{"rt":1924,"stimulus":"Oops, you have missed question(s) on the comprehension check! We'll show you the instructions again.","response":0,"trial_type":"html-button-response","trial_index":4,"time_elapsed":257880,"internal_node_id":"0.0-2.0-2.0-0.0","params":{"nStudents":24,"maxFlips":30,"completionMinutes":45,"basePay":8,"maxBonus":9,"perTrialBonus":0.5,"perTrialBonusThreshold":0.05,"exampleCost":0.01},"classroomParams":{"A":{"a":1,"b":4},"B":{"a":4,"b":1},"C":{"a":2,"b":8},"D":{"a":8,"b":2}},"conditions":["nonSeqFull","nonSeqPartial","seqNoFeedback","seqFeedback"],"classroomPairings":[["A","B"],["C","D"]],"coinWeights":[0.2,0.5,0.8],"subjectId":"A13WTEQ06V3B6D","assignmentId":"33JKGHPFYDGB21GPOQTEY1S0ZYGMN1","hitId":"3SD15I2WD2G0NA4TSPXGB81L5S7630","url":"https://gershmanlab.com/experiments/alicia/teaching/experiment/?hitId=3SD15I2WD2G0NA4TSPXGB81L5S7630&workerId=A13WTEQ06V3B6D&assignmentId=33JKGHPFYDGB21GPOQTEY1S0ZYGMN1&a=FGJ39&tp_a=FGJ39&b=33JKGHPFYDGB21GPOQTEY1S0ZYGMN1&tp_b=33JKGHPFYDGB21GPOQTEY1S0ZYGMN1&c=365799&tp_c=365799"},{"view_history":[{"page_index":0,"viewing_time":846},{"page_index":1,"viewing_time":323},{"page_index":2,"viewing_time":856},{"page_index":3,"viewing_time":256},{"page_index":4,"viewing_time":684},{"page_index":5,"viewing_time":572},{"page_index":6,"viewing_time":881}],"rt":4417,"trial_type":"instructions","trial_index":5,"time_elapsed":262298,"internal_node_id":"0.0-2.1-0.1","params":{"nStudents":24,"maxFlips":30,"completionMinutes":45,"basePay":8,"maxBonus":9,"perTrialBonus":0.5,"perTrialBonusThreshold":0.05,"exampleCost":0.01},"classroomParams":{"A":{"a":1,"b":4},"B":{"a":4,"b":1},"C":{"a":2,"b":8},"D":{"a":8,"b":2}},"conditions":["nonSeqFull","nonSeqPartial","seqNoFeedback","seqFeedback"],"classroomPairings":[["A","B"],["C","D"]],"coinWeights":[0.2,0.5,0.8],"subjectId":"A13WTEQ06V3B6D","assignmentId":"33JKGHPFYDGB21GPOQTEY1S0ZYGMN1","hitId":"3SD15I2WD2G0NA4TSPXGB81L5S7630","url":"https://gershmanlab.com/experiments/alicia/teaching/experiment/?hitId=3SD15I2WD2G0NA4TSPXGB81L5S7630&workerId=A13WTEQ06V3B6D&assignmentId=33JKGHPFYDGB21GPOQTEY1S0ZYGMN1&a=FGJ39&tp_a=FGJ39&b=33JKGHPFYDGB21GPOQTEY1S0ZYGMN1&tp_b=33JKGHPFYDGB21GPOQTEY1S0ZYGMN1&c=365799&tp_c=365799"},{"rt":32817,"response":{"Q0":"Students in different classrooms will have seen a different number of heads and tails before seeing the examples you select for them.","Q1":"By <b>considering the student's classroom information</b> so that I can teach efficiently and accurately/helpfully at the same time (because each example I give to the student costs money!).","Q2":"The coin lands heads 90% of the time.","Q3":"No, I will teach a <b>new</b> student each time.","Q4":"The students are also on the same alien planet as you, where coins can be unfair.","Q5":"Based on the student's second (and final) guess."},"question_order":[4,5,2,3,0,1],"trial_type":"survey-multi-choice","trial_index":6,"time_elapsed":295116,"internal_node_id":"0.0-2.1-1.1","params":{"nStudents":24,"maxFlips":30,"completionMinutes":45,"basePay":8,"maxBonus":9,"perTrialBonus":0.5,"perTrialBonusThreshold":0.05,"exampleCost":0.01},"classroomParams":{"A":{"a":1,"b":4},"B":{"a":4,"b":1},"C":{"a":2,"b":8},"D":{"a":8,"b":2}},"conditions":["nonSeqFull","nonSeqPartial","seqNoFeedback","seqFeedback"],"classroomPairings":[["A","B"],["C","D"]],"coinWeights":[0.2,0.5,0.8],"subjectId":"A13WTEQ06V3B6D","assignmentId":"33JKGHPFYDGB21GPOQTEY1S0ZYGMN1","hitId":"3SD15I2WD2G0NA4TSPXGB81L5S7630","url":"https://gershmanlab.com/experiments/alicia/teaching/experiment/?hitId=3SD15I2WD2G0NA4TSPXGB81L5S7630&workerId=A13WTEQ06V3B6D&assignmentId=33JKGHPFYDGB21GPOQTEY1S0ZYGMN1&a=FGJ39&tp_a=FGJ39&b=33JKGHPFYDGB21GPOQTEY1S0ZYGMN1&tp_b=33JKGHPFYDGB21GPOQTEY1S0ZYGMN1&c=365799&tp_c=365799","pass":true},{"rt":null,"stimulus":"<div style=\"font-size:30px;\">Congrats on passing the comprehension quiz! The experiment will begin in a few seconds.</div>","response":null,"trial_type":"html-keyboard-response","trial_index":7,"time_elapsed":298602,"internal_node_id":"0.0-3.0","params":{"nStudents":24,"maxFlips":30,"completionMinutes":45,"basePay":8,"maxBonus":9,"perTrialBonus":0.5,"perTrialBonusThreshold":0.05,"exampleCost":0.01},"classroomParams":{"A":{"a":1,"b":4},"B":{"a":4,"b":1},"C":{"a":2,"b":8},"D":{"a":8,"b":2}},"conditions":["nonSeqFull","nonSeqPartial","seqNoFeedback","seqFeedback"],"classroomPairings":[["A","B"],["C","D"]],"coinWeights":[0.2,0.5,0.8],"subjectId":"A13WTEQ06V3B6D","assignmentId":"33JKGHPFYDGB21GPOQTEY1S0ZYGMN1","hitId":"3SD15I2WD2G0NA4TSPXGB81L5S7630","url":"https://gershmanlab.com/experiments/alicia/teaching/experiment/?hitId=3SD15I2WD2G0NA4TSPXGB81L5S7630&workerId=A13WTEQ06V3B6D&assignmentId=33JKGHPFYDGB21GPOQTEY1S0ZYGMN1&a=FGJ39&tp_a=FGJ39&b=33JKGHPFYDGB21GPOQTEY1S0ZYGMN1&tp_b=33JKGHPFYDGB21GPOQTEY1S0ZYGMN1&c=365799&tp_c=365799"},{"rt":null,"stimulus":"<div style=\"font-size:50px;\">First student</div>","response":null,"trial_type":"html-keyboard-response","trial_index":8,"time_elapsed":301604,"internal_node_id":"0.0-4.0","params":{"nStudents":24,"maxFlips":30,"completionMinutes":45,"basePay":8,"maxBonus":9,"perTrialBonus":0.5,"perTrialBonusThreshold":0.05,"exampleCost":0.01},"classroomParams":{"A":{"a":1,"b":4},"B":{"a":4,"b":1},"C":{"a":2,"b":8},"D":{"a":8,"b":2}},"conditions":["nonSeqFull","nonSeqPartial","seqNoFeedback","seqFeedback"],"classroomPairings":[["A","B"],["C","D"]],"coinWeights":[0.2,0.5,0.8],"subjectId":"A13WTEQ06V3B6D","assignmentId":"33JKGHPFYDGB21GPOQTEY1S0ZYGMN1","hitId":"3SD15I2WD2G0NA4TSPXGB81L5S7630","url":"https://gershmanlab.com/experiments/alicia/teaching/experiment/?hitId=3SD15I2WD2G0NA4TSPXGB81L5S7630&workerId=A13WTEQ06V3B6D&assignmentId=33JKGHPFYDGB21GPOQTEY1S0ZYGMN1&a=FGJ39&tp_a=FGJ39&b=33JKGHPFYDGB21GPOQTEY1S0ZYGMN1&tp_b=33JKGHPFYDGB21GPOQTEY1S0ZYGMN1&c=365799&tp_c=365799"},{"rt":10630,"stimulus":"\n            <h4 style=\"color:Orange;\">Student 1</h4>\n            <h2>The weight of your coin is <b style=\"color:Tomato;\">0.5</b>.</h2>\n            <p>In this block, you will be giving <b>two</b> sets of examples to Student 1.</p>\n                <p>You will see the student's guess after the first set of examples. You will also receive feedback at the end of the block.</p>\n            <p>To earn the highest bonus, you will have to <b>take into consideration the student's guess</b> when you choose your second set of examples.</p>","response":0,"trial_type":"html-button-response","trial_index":9,"time_elapsed":312235,"internal_node_id":"0.0-5.0","params":{"nStudents":24,"maxFlips":30,"completionMinutes":45,"basePay":8,"maxBonus":9,"perTrialBonus":0.5,"perTrialBonusThreshold":0.05,"exampleCost":0.01},"classroomParams":{"A":{"a":1,"b":4},"B":{"a":4,"b":1},"C":{"a":2,"b":8},"D":{"a":8,"b":2}},"conditions":["nonSeqFull","nonSeqPartial","seqNoFeedback","seqFeedback"],"classroomPairings":[["A","B"],["C","D"]],"coinWeights":[0.2,0.5,0.8],"subjectId":"A13WTEQ06V3B6D","assignmentId":"33JKGHPFYDGB21GPOQTEY1S0ZYGMN1","hitId":"3SD15I2WD2G0NA4TSPXGB81L5S7630","url":"https://gershmanlab.com/experiments/alicia/teaching/experiment/?hitId=3SD15I2WD2G0NA4TSPXGB81L5S7630&workerId=A13WTEQ06V3B6D&assignmentId=33JKGHPFYDGB21GPOQTEY1S0ZYGMN1&a=FGJ39&tp_a=FGJ39&b=33JKGHPFYDGB21GPOQTEY1S0ZYGMN1&tp_b=33JKGHPFYDGB21GPOQTEY1S0ZYGMN1&c=365799&tp_c=365799"},{"rt":18206,"response":{"heads":"5","tails":"5"},"type":"response","condition":"seqFeedback","trueTheta":0.5,"classrooms":["C","D"],"studentTrueClassroom":"D","exampleSet":"first","trial_type":"survey-html-form","trial_index":10,"time_elapsed":330443,"internal_node_id":"0.0-6.0-0.0","params":{"nStudents":24,"maxFlips":30,"completionMinutes":45,"basePay":8,"maxBonus":9,"perTrialBonus":0.5,"perTrialBonusThreshold":0.05,"exampleCost":0.01},"classroomParams":{"A":{"a":1,"b":4},"B":{"a":4,"b":1},"C":{"a":2,"b":8},"D":{"a":8,"b":2}},"conditions":["nonSeqFull","nonSeqPartial","seqNoFeedback","seqFeedback"],"classroomPairings":[["A","B"],["C","D"]],"coinWeights":[0.2,0.5,0.8],"subjectId":"A13WTEQ06V3B6D","assignmentId":"33JKGHPFYDGB21GPOQTEY1S0ZYGMN1","hitId":"3SD15I2WD2G0NA4TSPXGB81L5S7630","url":"https://gershmanlab.com/experiments/alicia/teaching/experiment/?hitId=3SD15I2WD2G0NA4TSPXGB81L5S7630&workerId=A13WTEQ06V3B6D&assignmentId=33JKGHPFYDGB21GPOQTEY1S0ZYGMN1&a=FGJ39&tp_a=FGJ39&b=33JKGHPFYDGB21GPOQTEY1S0ZYGMN1&tp_b=33JKGHPFYDGB21GPOQTEY1S0ZYGMN1&c=365799&tp_c=365799","heads":5,"tails":5,"studentIndex":0,"studentTrueHypers":{"a":8,"b":2},"studentGuess":0.65,"delta":0.15000000000000002,"totalExamples":10,"bonusSoFar":0},{"rt":null,"stimulus":"Sending examples to student... ","response":null,"trial_type":"html-keyboard-response","trial_index":11,"time_elapsed":332197,"internal_node_id":"0.0-7.0","params":{"nStudents":24,"maxFlips":30,"completionMinutes":45,"basePay":8,"maxBonus":9,"perTrialBonus":0.5,"perTrialBonusThreshold":0.05,"exampleCost":0.01},"classroomParams":{"A":{"a":1,"b":4},"B":{"a":4,"b":1},"C":{"a":2,"b":8},"D":{"a":8,"b":2}},"conditions":["nonSeqFull","nonSeqPartial","seqNoFeedback","seqFeedback"],"classroomPairings":[["A","B"],["C","D"]],"coinWeights":[0.2,0.5,0.8],"subjectId":"A13WTEQ06V3B6D","assignmentId":"33JKGHPFYDGB21GPOQTEY1S0ZYGMN1","hitId":"3SD15I2WD2G0NA4TSPXGB81L5S7630","url":"https://gershmanlab.com/experiments/alicia/teaching/experiment/?hitId=3SD15I2WD2G0NA4TSPXGB81L5S7630&workerId=A13WTEQ06V3B6D&assignmentId=33JKGHPFYDGB21GPOQTEY1S0ZYGMN1&a=FGJ39&tp_a=FGJ39&b=33JKGHPFYDGB21GPOQTEY1S0ZYGMN1&tp_b=33JKGHPFYDGB21GPOQTEY1S0ZYGMN1&c=365799&tp_c=365799"},{"rt":null,"stimulus":"Examples sent to student! Waiting for student...","response":null,"trial_type":"html-keyboard-response","trial_index":12,"time_elapsed":338199,"internal_node_id":"0.0-8.0","params":{"nStudents":24,"maxFlips":30,"completionMinutes":45,"basePay":8,"maxBonus":9,"perTrialBonus":0.5,"perTrialBonusThreshold":0.05,"exampleCost":0.01},"classroomParams":{"A":{"a":1,"b":4},"B":{"a":4,"b":1},"C":{"a":2,"b":8},"D":{"a":8,"b":2}},"conditions":["nonSeqFull","nonSeqPartial","seqNoFeedback","seqFeedback"],"classroomPairings":[["A","B"],["C","D"]],"coinWeights":[0.2,0.5,0.8],"subjectId":"A13WTEQ06V3B6D","assignmentId":"33JKGHPFYDGB21GPOQTEY1S0ZYGMN1","hitId":"3SD15I2WD2G0NA4TSPXGB81L5S7630","url":"https://gershmanlab.com/experiments/alicia/teaching/experiment/?hitId=3SD15I2WD2G0NA4TSPXGB81L5S7630&workerId=A13WTEQ06V3B6D&assignmentId=33JKGHPFYDGB21GPOQTEY1S0ZYGMN1&a=FGJ39&tp_a=FGJ39&b=33JKGHPFYDGB21GPOQTEY1S0ZYGMN1&tp_b=33JKGHPFYDGB21GPOQTEY1S0ZYGMN1&c=365799&tp_c=365799"},{"rt":4944,"stimulus":"\n                <p>Student's guess for coin weight: <b style=\"color:Tomato;\">0.65</b></p>\n                <p></b></p>\n                <p>You will now send another set of examples to your student. <b>Remember to take your student's guess into consideration so that you can earn the highest bonus possible!</b> </p>\n                <p>Press any key to continue.</p>\n                ","response":" ","trial_type":"html-keyboard-response","trial_index":13,"time_elapsed":343144,"internal_node_id":"0.0-9.0","params":{"nStudents":24,"maxFlips":30,"completionMinutes":45,"basePay":8,"maxBonus":9,"perTrialBonus":0.5,"perTrialBonusThreshold":0.05,"exampleCost":0.01},"classroomParams":{"A":{"a":1,"b":4},"B":{"a":4,"b":1},"C":{"a":2,"b":8},"D":{"a":8,"b":2}},"conditions":["nonSeqFull","nonSeqPartial","seqNoFeedback","seqFeedback"],"classroomPairings":[["A","B"],["C","D"]],"coinWeights":[0.2,0.5,0.8],"subjectId":"A13WTEQ06V3B6D","assignmentId":"33JKGHPFYDGB21GPOQTEY1S0ZYGMN1","hitId":"3SD15I2WD2G0NA4TSPXGB81L5S7630","url":"https://gershmanlab.com/experiments/alicia/teaching/experiment/?hitId=3SD15I2WD2G0NA4TSPXGB81L5S7630&workerId=A13WTEQ06V3B6D&assignmentId=33JKGHPFYDGB21GPOQTEY1S0ZYGMN1&a=FGJ39&tp_a=FGJ39&b=33JKGHPFYDGB21GPOQTEY1S0ZYGMN1&tp_b=33JKGHPFYDGB21GPOQTEY1S0ZYGMN1&c=365799&tp_c=365799"},{"rt":5142,"response":{"heads":"5","tails":"5"},"type":"response","condition":"seqFeedback","trueTheta":0.5,"classrooms":["C","D"],"studentTrueClassroom":"D","exampleSet":"second","trial_type":"survey-html-form","trial_index":14,"time_elapsed":348288,"internal_node_id":"0.0-10.0-0.0","params":{"nStudents":24,"maxFlips":30,"completionMinutes":45,"basePay":8,"maxBonus":9,"perTrialBonus":0.5,"perTrialBonusThreshold":0.05,"exampleCost":0.01},"classroomParams":{"A":{"a":1,"b":4},"B":{"a":4,"b":1},"C":{"a":2,"b":8},"D":{"a":8,"b":2}},"conditions":["nonSeqFull","nonSeqPartial","seqNoFeedback","seqFeedback"],"classroomPairings":[["A","B"],["C","D"]],"coinWeights":[0.2,0.5,0.8],"subjectId":"A13WTEQ06V3B6D","assignmentId":"33JKGHPFYDGB21GPOQTEY1S0ZYGMN1","hitId":"3SD15I2WD2G0NA4TSPXGB81L5S7630","url":"https://gershmanlab.com/experiments/alicia/teaching/experiment/?hitId=3SD15I2WD2G0NA4TSPXGB81L5S7630&workerId=A13WTEQ06V3B6D&assignmentId=33JKGHPFYDGB21GPOQTEY1S0ZYGMN1&a=FGJ39&tp_a=FGJ39&b=33JKGHPFYDGB21GPOQTEY1S0ZYGMN1&tp_b=33JKGHPFYDGB21GPOQTEY1S0ZYGMN1&c=365799&tp_c=365799","firstResponseHeads":5,"firstResponseTails":5,"secondResponseHeads":5,"secondResponseTails":5,"totalHeads":10,"totalTails":10,"studentIndex":0,"studentTrueHypers":{"a":8,"b":2},"studentGuess":0.6,"delta":0.09999999999999998,"bonus":0,"bonusSoFar":0,"totalExamples":20},{"rt":null,"stimulus":"Sending examples to student... ","response":null,"trial_type":"html-keyboard-response","trial_index":15,"time_elapsed":349790,"internal_node_id":"0.0-11.0","params":{"nStudents":24,"maxFlips":30,"completionMinutes":45,"basePay":8,"maxBonus":9,"perTrialBonus":0.5,"perTrialBonusThreshold":0.05,"exampleCost":0.01},"classroomParams":{"A":{"a":1,"b":4},"B":{"a":4,"b":1},"C":{"a":2,"b":8},"D":{"a":8,"b":2}},"conditions":["nonSeqFull","nonSeqPartial","seqNoFeedback","seqFeedback"],"classroomPairings":[["A","B"],["C","D"]],"coinWeights":[0.2,0.5,0.8],"subjectId":"A13WTEQ06V3B6D","assignmentId":"33JKGHPFYDGB21GPOQTEY1S0ZYGMN1","hitId":"3SD15I2WD2G0NA4TSPXGB81L5S7630","url":"https://gershmanlab.com/experiments/alicia/teaching/experiment/?hitId=3SD15I2WD2G0NA4TSPXGB81L5S7630&workerId=A13WTEQ06V3B6D&assignmentId=33JKGHPFYDGB21GPOQTEY1S0ZYGMN1&a=FGJ39&tp_a=FGJ39&b=33JKGHPFYDGB21GPOQTEY1S0ZYGMN1&tp_b=33JKGHPFYDGB21GPOQTEY1S0ZYGMN1&c=365799&tp_c=365799"},{"rt":null,"stimulus":"Examples sent to student! Waiting for student...","response":null,"trial_type":"html-keyboard-response","trial_index":16,"time_elapsed":355291,"internal_node_id":"0.0-12.0","params":{"nStudents":24,"maxFlips":30,"completionMinutes":45,"basePay":8,"maxBonus":9,"perTrialBonus":0.5,"perTrialBonusThreshold":0.05,"exampleCost":0.01},"classroomParams":{"A":{"a":1,"b":4},"B":{"a":4,"b":1},"C":{"a":2,"b":8},"D":{"a":8,"b":2}},"conditions":["nonSeqFull","nonSeqPartial","seqNoFeedback","seqFeedback"],"classroomPairings":[["A","B"],["C","D"]],"coinWeights":[0.2,0.5,0.8],"subjectId":"A13WTEQ06V3B6D","assignmentId":"33JKGHPFYDGB21GPOQTEY1S0ZYGMN1","hitId":"3SD15I2WD2G0NA4TSPXGB81L5S7630","url":"https://gershmanlab.com/experiments/alicia/teaching/experiment/?hitId=3SD15I2WD2G0NA4TSPXGB81L5S7630&workerId=A13WTEQ06V3B6D&assignmentId=33JKGHPFYDGB21GPOQTEY1S0ZYGMN1&a=FGJ39&tp_a=FGJ39&b=33JKGHPFYDGB21GPOQTEY1S0ZYGMN1&tp_b=33JKGHPFYDGB21GPOQTEY1S0ZYGMN1&c=365799&tp_c=365799"},{"rt":5795,"stimulus":"\n                <p>Student 1's first guess for coin weight: <b style=\"color:Tomato\";>0.65</b></p>\n                <p>Student 1's second guess for coin weight: <b style=\"color:Tomato\";>0.60</b></p>\n                <p>You received a bonus of <b>$0.00</b> based on the student's second guess.</p>\n                <p>Total bonus so far: <b>$0.00</b></p>\n                <p>Press any key to continue.</p>\n                ","response":" ","trial_type":"html-keyboard-response","trial_index":17,"time_elapsed":361088,"internal_node_id":"0.0-13.0","params":{"nStudents":24,"maxFlips":30,"completionMinutes":45,"basePay":8,"maxBonus":9,"perTrialBonus":0.5,"perTrialBonusThreshold":0.05,"exampleCost":0.01},"classroomParams":{"A":{"a":1,"b":4},"B":{"a":4,"b":1},"C":{"a":2,"b":8},"D":{"a":8,"b":2}},"conditions":["nonSeqFull","nonSeqPartial","seqNoFeedback","seqFeedback"],"classroomPairings":[["A","B"],["C","D"]],"coinWeights":[0.2,0.5,0.8],"subjectId":"A13WTEQ06V3B6D","assignmentId":"33JKGHPFYDGB21GPOQTEY1S0ZYGMN1","hitId":"3SD15I2WD2G0NA4TSPXGB81L5S7630","url":"https://gershmanlab.com/experiments/alicia/teaching/experiment/?hitId=3SD15I2WD2G0NA4TSPXGB81L5S7630&workerId=A13WTEQ06V3B6D&assignmentId=33JKGHPFYDGB21GPOQTEY1S0ZYGMN1&a=FGJ39&tp_a=FGJ39&b=33JKGHPFYDGB21GPOQTEY1S0ZYGMN1&tp_b=33JKGHPFYDGB21GPOQTEY1S0ZYGMN1&c=365799&tp_c=365799"},{"rt":null,"stimulus":"<div style=\"font-size:60px;\">Next student</div>","response":null,"trial_type":"html-keyboard-response","trial_index":18,"time_elapsed":363592,"internal_node_id":"0.0-14.0-0.0","params":{"nStudents":24,"maxFlips":30,"completionMinutes":45,"basePay":8,"maxBonus":9,"perTrialBonus":0.5,"perTrialBonusThreshold":0.05,"exampleCost":0.01},"classroomParams":{"A":{"a":1,"b":4},"B":{"a":4,"b":1},"C":{"a":2,"b":8},"D":{"a":8,"b":2}},"conditions":["nonSeqFull","nonSeqPartial","seqNoFeedback","seqFeedback"],"classroomPairings":[["A","B"],["C","D"]],"coinWeights":[0.2,0.5,0.8],"subjectId":"A13WTEQ06V3B6D","assignmentId":"33JKGHPFYDGB21GPOQTEY1S0ZYGMN1","hitId":"3SD15I2WD2G0NA4TSPXGB81L5S7630","url":"https://gershmanlab.com/experiments/alicia/teaching/experiment/?hitId=3SD15I2WD2G0NA4TSPXGB81L5S7630&workerId=A13WTEQ06V3B6D&assignmentId=33JKGHPFYDGB21GPOQTEY1S0ZYGMN1&a=FGJ39&tp_a=FGJ39&b=33JKGHPFYDGB21GPOQTEY1S0ZYGMN1&tp_b=33JKGHPFYDGB21GPOQTEY1S0ZYGMN1&c=365799&tp_c=365799"},{"rt":1316,"stimulus":"\n            <h4 style=\"color:Orange;\">Student 2</h4>\n            <h2>The weight of your coin is <b style=\"color:Tomato;\">0.5</b>.</h2>\n            <p>In this block, you will be giving <b>one</b> set of examples to Student 2.</p>\n                <p>You will receive feedback at the end of the block.</p>\n            <p></p>","response":0,"trial_type":"html-button-response","trial_index":19,"time_elapsed":364911,"internal_node_id":"0.0-15.0","params":{"nStudents":24,"maxFlips":30,"completionMinutes":45,"basePay":8,"maxBonus":9,"perTrialBonus":0.5,"perTrialBonusThreshold":0.05,"exampleCost":0.01},"classroomParams":{"A":{"a":1,"b":4},"B":{"a":4,"b":1},"C":{"a":2,"b":8},"D":{"a":8,"b":2}},"conditions":["nonSeqFull","nonSeqPartial","seqNoFeedback","seqFeedback"],"classroomPairings":[["A","B"],["C","D"]],"coinWeights":[0.2,0.5,0.8],"subjectId":"A13WTEQ06V3B6D","assignmentId":"33JKGHPFYDGB21GPOQTEY1S0ZYGMN1","hitId":"3SD15I2WD2G0NA4TSPXGB81L5S7630","url":"https://gershmanlab.com/experiments/alicia/teaching/experiment/?hitId=3SD15I2WD2G0NA4TSPXGB81L5S7630&workerId=A13WTEQ06V3B6D&assignmentId=33JKGHPFYDGB21GPOQTEY1S0ZYGMN1&a=FGJ39&tp_a=FGJ39&b=33JKGHPFYDGB21GPOQTEY1S0ZYGMN1&tp_b=33JKGHPFYDGB21GPOQTEY1S0ZYGMN1&c=365799&tp_c=365799"},{"rt":6158,"response":{"heads":"10","tails":"10"},"type":"response","condition":"nonSeqPartial","trueTheta":0.5,"classrooms":["A","B"],"studentTrueClassroom":"A","exampleSet":"first","trial_type":"survey-html-form","trial_index":20,"time_elapsed":371070,"internal_node_id":"0.0-16.0-0.0","params":{"nStudents":24,"maxFlips":30,"completionMinutes":45,"basePay":8,"maxBonus":9,"perTrialBonus":0.5,"perTrialBonusThreshold":0.05,"exampleCost":0.01},"classroomParams":{"A":{"a":1,"b":4},"B":{"a":4,"b":1},"C":{"a":2,"b":8},"D":{"a":8,"b":2}},"conditions":["nonSeqFull","nonSeqPartial","seqNoFeedback","seqFeedback"],"classroomPairings":[["A","B"],["C","D"]],"coinWeights":[0.2,0.5,0.8],"subjectId":"A13WTEQ06V3B6D","assignmentId":"33JKGHPFYDGB21GPOQTEY1S0ZYGMN1","hitId":"3SD15I2WD2G0NA4TSPXGB81L5S7630","url":"https://gershmanlab.com/experiments/alicia/teaching/experiment/?hitId=3SD15I2WD2G0NA4TSPXGB81L5S7630&workerId=A13WTEQ06V3B6D&assignmentId=33JKGHPFYDGB21GPOQTEY1S0ZYGMN1&a=FGJ39&tp_a=FGJ39&b=33JKGHPFYDGB21GPOQTEY1S0ZYGMN1&tp_b=33JKGHPFYDGB21GPOQTEY1S0ZYGMN1&c=365799&tp_c=365799","heads":10,"tails":10,"studentIndex":1,"studentTrueHypers":{"a":1,"b":4},"studentGuess":0.44,"delta":0.06,"totalExamples":20,"bonus":0,"bonusSoFar":0},{"rt":null,"stimulus":"Sending examples to student... ","response":null,"trial_type":"html-keyboard-response","trial_index":21,"time_elapsed":372322,"internal_node_id":"0.0-17.0","params":{"nStudents":24,"maxFlips":30,"completionMinutes":45,"basePay":8,"maxBonus":9,"perTrialBonus":0.5,"perTrialBonusThreshold":0.05,"exampleCost":0.01},"classroomParams":{"A":{"a":1,"b":4},"B":{"a":4,"b":1},"C":{"a":2,"b":8},"D":{"a":8,"b":2}},"conditions":["nonSeqFull","nonSeqPartial","seqNoFeedback","seqFeedback"],"classroomPairings":[["A","B"],["C","D"]],"coinWeights":[0.2,0.5,0.8],"subjectId":"A13WTEQ06V3B6D","assignmentId":"33JKGHPFYDGB21GPOQTEY1S0ZYGMN1","hitId":"3SD15I2WD2G0NA4TSPXGB81L5S7630","url":"https://gershmanlab.com/experiments/alicia/teaching/experiment/?hitId=3SD15I2WD2G0NA4TSPXGB81L5S7630&workerId=A13WTEQ06V3B6D&assignmentId=33JKGHPFYDGB21GPOQTEY1S0ZYGMN1&a=FGJ39&tp_a=FGJ39&b=33JKGHPFYDGB21GPOQTEY1S0ZYGMN1&tp_b=33JKGHPFYDGB21GPOQTEY1S0ZYGMN1&c=365799&tp_c=365799"},{"rt":null,"stimulus":"Examples sent to student! Waiting for student...","response":null,"trial_type":"html-keyboard-response","trial_index":22,"time_elapsed":377835,"internal_node_id":"0.0-18.0","params":{"nStudents":24,"maxFlips":30,"completionMinutes":45,"basePay":8,"maxBonus":9,"perTrialBonus":0.5,"perTrialBonusThreshold":0.05,"exampleCost":0.01},"classroomParams":{"A":{"a":1,"b":4},"B":{"a":4,"b":1},"C":{"a":2,"b":8},"D":{"a":8,"b":2}},"conditions":["nonSeqFull","nonSeqPartial","seqNoFeedback","seqFeedback"],"classroomPairings":[["A","B"],["C","D"]],"coinWeights":[0.2,0.5,0.8],"subjectId":"A13WTEQ06V3B6D","assignmentId":"33JKGHPFYDGB21GPOQTEY1S0ZYGMN1","hitId":"3SD15I2WD2G0NA4TSPXGB81L5S7630","url":"https://gershmanlab.com/experiments/alicia/teaching/experiment/?hitId=3SD15I2WD2G0NA4TSPXGB81L5S7630&workerId=A13WTEQ06V3B6D&assignmentId=33JKGHPFYDGB21GPOQTEY1S0ZYGMN1&a=FGJ39&tp_a=FGJ39&b=33JKGHPFYDGB21GPOQTEY1S0ZYGMN1&tp_b=33JKGHPFYDGB21GPOQTEY1S0ZYGMN1&c=365799&tp_c=365799"},{"rt":3419,"stimulus":"\n                <p>Student's guess for coin weight: <b style=\"color:Tomato;\">0.44</b></p>\n                <p>You received a bonus of <b>$0</b>. Total bonus so far: <b>$0.00</b></b></p>\n                <p></p>\n                <p>Press any key to continue.</p>\n                ","response":" ","trial_type":"html-keyboard-response","trial_index":23,"time_elapsed":381256,"internal_node_id":"0.0-19.0","params":{"nStudents":24,"maxFlips":30,"completionMinutes":45,"basePay":8,"maxBonus":9,"perTrialBonus":0.5,"perTrialBonusThreshold":0.05,"exampleCost":0.01},"classroomParams":{"A":{"a":1,"b":4},"B":{"a":4,"b":1},"C":{"a":2,"b":8},"D":{"a":8,"b":2}},"conditions":["nonSeqFull","nonSeqPartial","seqNoFeedback","seqFeedback"],"classroomPairings":[["A","B"],["C","D"]],"coinWeights":[0.2,0.5,0.8],"subjectId":"A13WTEQ06V3B6D","assignmentId":"33JKGHPFYDGB21GPOQTEY1S0ZYGMN1","hitId":"3SD15I2WD2G0NA4TSPXGB81L5S7630","url":"https://gershmanlab.com/experiments/alicia/teaching/experiment/?hitId=3SD15I2WD2G0NA4TSPXGB81L5S7630&workerId=A13WTEQ06V3B6D&assignmentId=33JKGHPFYDGB21GPOQTEY1S0ZYGMN1&a=FGJ39&tp_a=FGJ39&b=33JKGHPFYDGB21GPOQTEY1S0ZYGMN1&tp_b=33JKGHPFYDGB21GPOQTEY1S0ZYGMN1&c=365799&tp_c=365799"},{"rt":null,"stimulus":"<div style=\"font-size:60px;\">Next student</div>","response":null,"trial_type":"html-keyboard-response","trial_index":24,"time_elapsed":383516,"internal_node_id":"0.0-20.0-0.0","params":{"nStudents":24,"maxFlips":30,"completionMinutes":45,"basePay":8,"maxBonus":9,"perTrialBonus":0.5,"perTrialBonusThreshold":0.05,"exampleCost":0.01},"classroomParams":{"A":{"a":1,"b":4},"B":{"a":4,"b":1},"C":{"a":2,"b":8},"D":{"a":8,"b":2}},"conditions":["nonSeqFull","nonSeqPartial","seqNoFeedback","seqFeedback"],"classroomPairings":[["A","B"],["C","D"]],"coinWeights":[0.2,0.5,0.8],"subjectId":"A13WTEQ06V3B6D","assignmentId":"33JKGHPFYDGB21GPOQTEY1S0ZYGMN1","hitId":"3SD15I2WD2G0NA4TSPXGB81L5S7630","url":"https://gershmanlab.com/experiments/alicia/teaching/experiment/?hitId=3SD15I2WD2G0NA4TSPXGB81L5S7630&workerId=A13WTEQ06V3B6D&assignmentId=33JKGHPFYDGB21GPOQTEY1S0ZYGMN1&a=FGJ39&tp_a=FGJ39&b=33JKGHPFYDGB21GPOQTEY1S0ZYGMN1&tp_b=33JKGHPFYDGB21GPOQTEY1S0ZYGMN1&c=365799&tp_c=365799"},{"rt":1837,"stimulus":"\n            <h4 style=\"color:Orange;\">Student 3</h4>\n            <h2>The weight of your coin is <b style=\"color:Tomato;\">0.2</b>.</h2>\n            <p>In this block, you will be giving <b>one</b> set of examples to Student 3.</p>\n                <p>You will receive feedback at the end of the block.</p>\n            <p></p>","response":0,"trial_type":"html-button-response","trial_index":25,"time_elapsed":385354,"internal_node_id":"0.0-21.0","params":{"nStudents":24,"maxFlips":30,"completionMinutes":45,"basePay":8,"maxBonus":9,"perTrialBonus":0.5,"perTrialBonusThreshold":0.05,"exampleCost":0.01},"classroomParams":{"A":{"a":1,"b":4},"B":{"a":4,"b":1},"C":{"a":2,"b":8},"D":{"a":8,"b":2}},"conditions":["nonSeqFull","nonSeqPartial","seqNoFeedback","seqFeedback"],"classroomPairings":[["A","B"],["C","D"]],"coinWeights":[0.2,0.5,0.8],"subjectId":"A13WTEQ06V3B6D","assignmentId":"33JKGHPFYDGB21GPOQTEY1S0ZYGMN1","hitId":"3SD15I2WD2G0NA4TSPXGB81L5S7630","url":"https://gershmanlab.com/experiments/alicia/teaching/experiment/?hitId=3SD15I2WD2G0NA4TSPXGB81L5S7630&workerId=A13WTEQ06V3B6D&assignmentId=33JKGHPFYDGB21GPOQTEY1S0ZYGMN1&a=FGJ39&tp_a=FGJ39&b=33JKGHPFYDGB21GPOQTEY1S0ZYGMN1&tp_b=33JKGHPFYDGB21GPOQTEY1S0ZYGMN1&c=365799&tp_c=365799"},{"rt":6626,"response":{"heads":"2","tails":"8"},"type":"response","condition":"nonSeqFull","trueTheta":0.2,"classrooms":["A","B"],"studentTrueClassroom":"A","exampleSet":"first","trial_type":"survey-html-form","trial_index":26,"time_elapsed":391982,"internal_node_id":"0.0-22.0-0.0","params":{"nStudents":24,"maxFlips":30,"completionMinutes":45,"basePay":8,"maxBonus":9,"perTrialBonus":0.5,"perTrialBonusThreshold":0.05,"exampleCost":0.01},"classroomParams":{"A":{"a":1,"b":4},"B":{"a":4,"b":1},"C":{"a":2,"b":8},"D":{"a":8,"b":2}},"conditions":["nonSeqFull","nonSeqPartial","seqNoFeedback","seqFeedback"],"classroomPairings":[["A","B"],["C","D"]],"coinWeights":[0.2,0.5,0.8],"subjectId":"A13WTEQ06V3B6D","assignmentId":"33JKGHPFYDGB21GPOQTEY1S0ZYGMN1","hitId":"3SD15I2WD2G0NA4TSPXGB81L5S7630","url":"https://gershmanlab.com/experiments/alicia/teaching/experiment/?hitId=3SD15I2WD2G0NA4TSPXGB81L5S7630&workerId=A13WTEQ06V3B6D&assignmentId=33JKGHPFYDGB21GPOQTEY1S0ZYGMN1&a=FGJ39&tp_a=FGJ39&b=33JKGHPFYDGB21GPOQTEY1S0ZYGMN1&tp_b=33JKGHPFYDGB21GPOQTEY1S0ZYGMN1&c=365799&tp_c=365799","heads":2,"tails":8,"studentIndex":2,"studentTrueHypers":{"a":1,"b":4},"studentGuess":0.2,"delta":0,"totalExamples":10,"bonus":0.4,"bonusSoFar":0.4},{"rt":null,"stimulus":"Sending examples to student... ","response":null,"trial_type":"html-keyboard-response","trial_index":27,"time_elapsed":393483,"internal_node_id":"0.0-23.0","params":{"nStudents":24,"maxFlips":30,"completionMinutes":45,"basePay":8,"maxBonus":9,"perTrialBonus":0.5,"perTrialBonusThreshold":0.05,"exampleCost":0.01},"classroomParams":{"A":{"a":1,"b":4},"B":{"a":4,"b":1},"C":{"a":2,"b":8},"D":{"a":8,"b":2}},"conditions":["nonSeqFull","nonSeqPartial","seqNoFeedback","seqFeedback"],"classroomPairings":[["A","B"],["C","D"]],"coinWeights":[0.2,0.5,0.8],"subjectId":"A13WTEQ06V3B6D","assignmentId":"33JKGHPFYDGB21GPOQTEY1S0ZYGMN1","hitId":"3SD15I2WD2G0NA4TSPXGB81L5S7630","url":"https://gershmanlab.com/experiments/alicia/teaching/experiment/?hitId=3SD15I2WD2G0NA4TSPXGB81L5S7630&workerId=A13WTEQ06V3B6D&assignmentId=33JKGHPFYDGB21GPOQTEY1S0ZYGMN1&a=FGJ39&tp_a=FGJ39&b=33JKGHPFYDGB21GPOQTEY1S0ZYGMN1&tp_b=33JKGHPFYDGB21GPOQTEY1S0ZYGMN1&c=365799&tp_c=365799"},{"rt":null,"stimulus":"Examples sent to student! Waiting for student...","response":null,"trial_type":"html-keyboard-response","trial_index":28,"time_elapsed":398984,"internal_node_id":"0.0-24.0","params":{"nStudents":24,"maxFlips":30,"completionMinutes":45,"basePay":8,"maxBonus":9,"perTrialBonus":0.5,"perTrialBonusThreshold":0.05,"exampleCost":0.01},"classroomParams":{"A":{"a":1,"b":4},"B":{"a":4,"b":1},"C":{"a":2,"b":8},"D":{"a":8,"b":2}},"conditions":["nonSeqFull","nonSeqPartial","seqNoFeedback","seqFeedback"],"classroomPairings":[["A","B"],["C","D"]],"coinWeights":[0.2,0.5,0.8],"subjectId":"A13WTEQ06V3B6D","assignmentId":"33JKGHPFYDGB21GPOQTEY1S0ZYGMN1","hitId":"3SD15I2WD2G0NA4TSPXGB81L5S7630","url":"https://gershmanlab.com/experiments/alicia/teaching/experiment/?hitId=3SD15I2WD2G0NA4TSPXGB81L5S7630&workerId=A13WTEQ06V3B6D&assignmentId=33JKGHPFYDGB21GPOQTEY1S0ZYGMN1&a=FGJ39&tp_a=FGJ39&b=33JKGHPFYDGB21GPOQTEY1S0ZYGMN1&tp_b=33JKGHPFYDGB21GPOQTEY1S0ZYGMN1&c=365799&tp_c=365799"},{"rt":2771,"stimulus":"\n                <p>Student's guess for coin weight: <b style=\"color:Tomato;\">0.20</b></p>\n                <p>You received a bonus of <b>$0.4</b>. Total bonus so far: <b>$0.40</b></b></p>\n                <p></p>\n                <p>Press any key to continue.</p>\n                ","response":" ","trial_type":"html-keyboard-response","trial_index":29,"time_elapsed":401756,"internal_node_id":"0.0-25.0","params":{"nStudents":24,"maxFlips":30,"completionMinutes":45,"basePay":8,"maxBonus":9,"perTrialBonus":0.5,"perTrialBonusThreshold":0.05,"exampleCost":0.01},"classroomParams":{"A":{"a":1,"b":4},"B":{"a":4,"b":1},"C":{"a":2,"b":8},"D":{"a":8,"b":2}},"conditions":["nonSeqFull","nonSeqPartial","seqNoFeedback","seqFeedback"],"classroomPairings":[["A","B"],["C","D"]],"coinWeights":[0.2,0.5,0.8],"subjectId":"A13WTEQ06V3B6D","assignmentId":"33JKGHPFYDGB21GPOQTEY1S0ZYGMN1","hitId":"3SD15I2WD2G0NA4TSPXGB81L5S7630","url":"https://gershmanlab.com/experiments/alicia/teaching/experiment/?hitId=3SD15I2WD2G0NA4TSPXGB81L5S7630&workerId=A13WTEQ06V3B6D&assignmentId=33JKGHPFYDGB21GPOQTEY1S0ZYGMN1&a=FGJ39&tp_a=FGJ39&b=33JKGHPFYDGB21GPOQTEY1S0ZYGMN1&tp_b=33JKGHPFYDGB21GPOQTEY1S0ZYGMN1&c=365799&tp_c=365799"},{"rt":null,"stimulus":"<div style=\"font-size:60px;\">Next student</div>","response":null,"trial_type":"html-keyboard-response","trial_index":30,"time_elapsed":404269,"internal_node_id":"0.0-26.0-0.0","params":{"nStudents":24,"maxFlips":30,"completionMinutes":45,"basePay":8,"maxBonus":9,"perTrialBonus":0.5,"perTrialBonusThreshold":0.05,"exampleCost":0.01},"classroomParams":{"A":{"a":1,"b":4},"B":{"a":4,"b":1},"C":{"a":2,"b":8},"D":{"a":8,"b":2}},"conditions":["nonSeqFull","nonSeqPartial","seqNoFeedback","seqFeedback"],"classroomPairings":[["A","B"],["C","D"]],"coinWeights":[0.2,0.5,0.8],"subjectId":"A13WTEQ06V3B6D","assignmentId":"33JKGHPFYDGB21GPOQTEY1S0ZYGMN1","hitId":"3SD15I2WD2G0NA4TSPXGB81L5S7630","url":"https://gershmanlab.com/experiments/alicia/teaching/experiment/?hitId=3SD15I2WD2G0NA4TSPXGB81L5S7630&workerId=A13WTEQ06V3B6D&assignmentId=33JKGHPFYDGB21GPOQTEY1S0ZYGMN1&a=FGJ39&tp_a=FGJ39&b=33JKGHPFYDGB21GPOQTEY1S0ZYGMN1&tp_b=33JKGHPFYDGB21GPOQTEY1S0ZYGMN1&c=365799&tp_c=365799"},{"rt":8164,"stimulus":"\n            <h4 style=\"color:Orange;\">Student 4</h4>\n            <h2>The weight of your coin is <b style=\"color:Tomato;\">0.2</b>.</h2>\n            <p>In this block, you will be giving <b>two</b> sets of examples to Student 4.</p>\n                <p>You will see the student's guess after the first set of examples. You will also receive feedback at the end of the block.</p>\n            <p>To earn the highest bonus, you will have to <b>take into consideration the student's guess</b> when you choose your second set of examples.</p>","response":0,"trial_type":"html-button-response","trial_index":31,"time_elapsed":412434,"internal_node_id":"0.0-27.0","params":{"nStudents":24,"maxFlips":30,"completionMinutes":45,"basePay":8,"maxBonus":9,"perTrialBonus":0.5,"perTrialBonusThreshold":0.05,"exampleCost":0.01},"classroomParams":{"A":{"a":1,"b":4},"B":{"a":4,"b":1},"C":{"a":2,"b":8},"D":{"a":8,"b":2}},"conditions":["nonSeqFull","nonSeqPartial","seqNoFeedback","seqFeedback"],"classroomPairings":[["A","B"],["C","D"]],"coinWeights":[0.2,0.5,0.8],"subjectId":"A13WTEQ06V3B6D","assignmentId":"33JKGHPFYDGB21GPOQTEY1S0ZYGMN1","hitId":"3SD15I2WD2G0NA4TSPXGB81L5S7630","url":"https://gershmanlab.com/experiments/alicia/teaching/experiment/?hitId=3SD15I2WD2G0NA4TSPXGB81L5S7630&workerId=A13WTEQ06V3B6D&assignmentId=33JKGHPFYDGB21GPOQTEY1S0ZYGMN1&a=FGJ39&tp_a=FGJ39&b=33JKGHPFYDGB21GPOQTEY1S0ZYGMN1&tp_b=33JKGHPFYDGB21GPOQTEY1S0ZYGMN1&c=365799&tp_c=365799"},{"rt":9314,"response":{"heads":"1","tails":"4"},"type":"response","condition":"seqFeedback","trueTheta":0.2,"classrooms":["C","D"],"studentTrueClassroom":"C","exampleSet":"first","trial_type":"survey-html-form","trial_index":32,"time_elapsed":421750,"internal_node_id":"0.0-28.0-0.0","params":{"nStudents":24,"maxFlips":30,"completionMinutes":45,"basePay":8,"maxBonus":9,"perTrialBonus":0.5,"perTrialBonusThreshold":0.05,"exampleCost":0.01},"classroomParams":{"A":{"a":1,"b":4},"B":{"a":4,"b":1},"C":{"a":2,"b":8},"D":{"a":8,"b":2}},"conditions":["nonSeqFull","nonSeqPartial","seqNoFeedback","seqFeedback"],"classroomPairings":[["A","B"],["C","D"]],"coinWeights":[0.2,0.5,0.8],"subjectId":"A13WTEQ06V3B6D","assignmentId":"33JKGHPFYDGB21GPOQTEY1S0ZYGMN1","hitId":"3SD15I2WD2G0NA4TSPXGB81L5S7630","url":"https://gershmanlab.com/experiments/alicia/teaching/experiment/?hitId=3SD15I2WD2G0NA4TSPXGB81L5S7630&workerId=A13WTEQ06V3B6D&assignmentId=33JKGHPFYDGB21GPOQTEY1S0ZYGMN1&a=FGJ39&tp_a=FGJ39&b=33JKGHPFYDGB21GPOQTEY1S0ZYGMN1&tp_b=33JKGHPFYDGB21GPOQTEY1S0ZYGMN1&c=365799&tp_c=365799","heads":1,"tails":4,"studentIndex":3,"studentTrueHypers":{"a":2,"b":8},"studentGuess":0.2,"delta":0,"totalExamples":5,"bonusSoFar":0.4},{"rt":null,"stimulus":"Sending examples to student... ","response":null,"trial_type":"html-keyboard-response","trial_index":33,"time_elapsed":423252,"internal_node_id":"0.0-29.0","params":{"nStudents":24,"maxFlips":30,"completionMinutes":45,"basePay":8,"maxBonus":9,"perTrialBonus":0.5,"perTrialBonusThreshold":0.05,"exampleCost":0.01},"classroomParams":{"A":{"a":1,"b":4},"B":{"a":4,"b":1},"C":{"a":2,"b":8},"D":{"a":8,"b":2}},"conditions":["nonSeqFull","nonSeqPartial","seqNoFeedback","seqFeedback"],"classroomPairings":[["A","B"],["C","D"]],"coinWeights":[0.2,0.5,0.8],"subjectId":"A13WTEQ06V3B6D","assignmentId":"33JKGHPFYDGB21GPOQTEY1S0ZYGMN1","hitId":"3SD15I2WD2G0NA4TSPXGB81L5S7630","url":"https://gershmanlab.com/experiments/alicia/teaching/experiment/?hitId=3SD15I2WD2G0NA4TSPXGB81L5S7630&workerId=A13WTEQ06V3B6D&assignmentId=33JKGHPFYDGB21GPOQTEY1S0ZYGMN1&a=FGJ39&tp_a=FGJ39&b=33JKGHPFYDGB21GPOQTEY1S0ZYGMN1&tp_b=33JKGHPFYDGB21GPOQTEY1S0ZYGMN1&c=365799&tp_c=365799"},{"rt":null,"stimulus":"Examples sent to student! Waiting for student...","response":null,"trial_type":"html-keyboard-response","trial_index":34,"time_elapsed":427763,"internal_node_id":"0.0-30.0","params":{"nStudents":24,"maxFlips":30,"completionMinutes":45,"basePay":8,"maxBonus":9,"perTrialBonus":0.5,"perTrialBonusThreshold":0.05,"exampleCost":0.01},"classroomParams":{"A":{"a":1,"b":4},"B":{"a":4,"b":1},"C":{"a":2,"b":8},"D":{"a":8,"b":2}},"conditions":["nonSeqFull","nonSeqPartial","seqNoFeedback","seqFeedback"],"classroomPairings":[["A","B"],["C","D"]],"coinWeights":[0.2,0.5,0.8],"subjectId":"A13WTEQ06V3B6D","assignmentId":"33JKGHPFYDGB21GPOQTEY1S0ZYGMN1","hitId":"3SD15I2WD2G0NA4TSPXGB81L5S7630","url":"https://gershmanlab.com/experiments/alicia/teaching/experiment/?hitId=3SD15I2WD2G0NA4TSPXGB81L5S7630&workerId=A13WTEQ06V3B6D&assignmentId=33JKGHPFYDGB21GPOQTEY1S0ZYGMN1&a=FGJ39&tp_a=FGJ39&b=33JKGHPFYDGB21GPOQTEY1S0ZYGMN1&tp_b=33JKGHPFYDGB21GPOQTEY1S0ZYGMN1&c=365799&tp_c=365799"},{"rt":4621,"stimulus":"\n                <p>Student's guess for coin weight: <b style=\"color:Tomato;\">0.20</b></p>\n                <p></b></p>\n                <p>You will now send another set of examples to your student. <b>Remember to take your student's guess into consideration so that you can earn the highest bonus possible!</b> </p>\n                <p>Press any key to continue.</p>\n                ","response":" ","trial_type":"html-keyboard-response","trial_index":35,"time_elapsed":432386,"internal_node_id":"0.0-31.0","params":{"nStudents":24,"maxFlips":30,"completionMinutes":45,"basePay":8,"maxBonus":9,"perTrialBonus":0.5,"perTrialBonusThreshold":0.05,"exampleCost":0.01},"classroomParams":{"A":{"a":1,"b":4},"B":{"a":4,"b":1},"C":{"a":2,"b":8},"D":{"a":8,"b":2}},"conditions":["nonSeqFull","nonSeqPartial","seqNoFeedback","seqFeedback"],"classroomPairings":[["A","B"],["C","D"]],"coinWeights":[0.2,0.5,0.8],"subjectId":"A13WTEQ06V3B6D","assignmentId":"33JKGHPFYDGB21GPOQTEY1S0ZYGMN1","hitId":"3SD15I2WD2G0NA4TSPXGB81L5S7630","url":"https://gershmanlab.com/experiments/alicia/teaching/experiment/?hitId=3SD15I2WD2G0NA4TSPXGB81L5S7630&workerId=A13WTEQ06V3B6D&assignmentId=33JKGHPFYDGB21GPOQTEY1S0ZYGMN1&a=FGJ39&tp_a=FGJ39&b=33JKGHPFYDGB21GPOQTEY1S0ZYGMN1&tp_b=33JKGHPFYDGB21GPOQTEY1S0ZYGMN1&c=365799&tp_c=365799"},{"rt":2780,"response":{"heads":"1","tails":"4"},"type":"response","condition":"seqFeedback","trueTheta":0.2,"classrooms":["C","D"],"studentTrueClassroom":"C","exampleSet":"second","trial_type":"survey-html-form","trial_index":36,"time_elapsed":435167,"internal_node_id":"0.0-32.0-0.0","params":{"nStudents":24,"maxFlips":30,"completionMinutes":45,"basePay":8,"maxBonus":9,"perTrialBonus":0.5,"perTrialBonusThreshold":0.05,"exampleCost":0.01},"classroomParams":{"A":{"a":1,"b":4},"B":{"a":4,"b":1},"C":{"a":2,"b":8},"D":{"a":8,"b":2}},"conditions":["nonSeqFull","nonSeqPartial","seqNoFeedback","seqFeedback"],"classroomPairings":[["A","B"],["C","D"]],"coinWeights":[0.2,0.5,0.8],"subjectId":"A13WTEQ06V3B6D","assignmentId":"33JKGHPFYDGB21GPOQTEY1S0ZYGMN1","hitId":"3SD15I2WD2G0NA4TSPXGB81L5S7630","url":"https://gershmanlab.com/experiments/alicia/teaching/experiment/?hitId=3SD15I2WD2G0NA4TSPXGB81L5S7630&workerId=A13WTEQ06V3B6D&assignmentId=33JKGHPFYDGB21GPOQTEY1S0ZYGMN1&a=FGJ39&tp_a=FGJ39&b=33JKGHPFYDGB21GPOQTEY1S0ZYGMN1&tp_b=33JKGHPFYDGB21GPOQTEY1S0ZYGMN1&c=365799&tp_c=365799","firstResponseHeads":1,"firstResponseTails":4,"secondResponseHeads":1,"secondResponseTails":4,"totalHeads":2,"totalTails":8,"studentIndex":3,"studentTrueHypers":{"a":2,"b":8},"studentGuess":0.2,"delta":0,"bonus":0.4,"bonusSoFar":0.8,"totalExamples":10},{"rt":null,"stimulus":"Sending examples to student... ","response":null,"trial_type":"html-keyboard-response","trial_index":37,"time_elapsed":436669,"internal_node_id":"0.0-33.0","params":{"nStudents":24,"maxFlips":30,"completionMinutes":45,"basePay":8,"maxBonus":9,"perTrialBonus":0.5,"perTrialBonusThreshold":0.05,"exampleCost":0.01},"classroomParams":{"A":{"a":1,"b":4},"B":{"a":4,"b":1},"C":{"a":2,"b":8},"D":{"a":8,"b":2}},"conditions":["nonSeqFull","nonSeqPartial","seqNoFeedback","seqFeedback"],"classroomPairings":[["A","B"],["C","D"]],"coinWeights":[0.2,0.5,0.8],"subjectId":"A13WTEQ06V3B6D","assignmentId":"33JKGHPFYDGB21GPOQTEY1S0ZYGMN1","hitId":"3SD15I2WD2G0NA4TSPXGB81L5S7630","url":"https://gershmanlab.com/experiments/alicia/teaching/experiment/?hitId=3SD15I2WD2G0NA4TSPXGB81L5S7630&workerId=A13WTEQ06V3B6D&assignmentId=33JKGHPFYDGB21GPOQTEY1S0ZYGMN1&a=FGJ39&tp_a=FGJ39&b=33JKGHPFYDGB21GPOQTEY1S0ZYGMN1&tp_b=33JKGHPFYDGB21GPOQTEY1S0ZYGMN1&c=365799&tp_c=365799"},{"rt":null,"stimulus":"Examples sent to student! Waiting for student...","response":null,"trial_type":"html-keyboard-response","trial_index":38,"time_elapsed":442171,"internal_node_id":"0.0-34.0","params":{"nStudents":24,"maxFlips":30,"completionMinutes":45,"basePay":8,"maxBonus":9,"perTrialBonus":0.5,"perTrialBonusThreshold":0.05,"exampleCost":0.01},"classroomParams":{"A":{"a":1,"b":4},"B":{"a":4,"b":1},"C":{"a":2,"b":8},"D":{"a":8,"b":2}},"conditions":["nonSeqFull","nonSeqPartial","seqNoFeedback","seqFeedback"],"classroomPairings":[["A","B"],["C","D"]],"coinWeights":[0.2,0.5,0.8],"subjectId":"A13WTEQ06V3B6D","assignmentId":"33JKGHPFYDGB21GPOQTEY1S0ZYGMN1","hitId":"3SD15I2WD2G0NA4TSPXGB81L5S7630","url":"https://gershmanlab.com/experiments/alicia/teaching/experiment/?hitId=3SD15I2WD2G0NA4TSPXGB81L5S7630&workerId=A13WTEQ06V3B6D&assignmentId=33JKGHPFYDGB21GPOQTEY1S0ZYGMN1&a=FGJ39&tp_a=FGJ39&b=33JKGHPFYDGB21GPOQTEY1S0ZYGMN1&tp_b=33JKGHPFYDGB21GPOQTEY1S0ZYGMN1&c=365799&tp_c=365799"},{"rt":1770,"stimulus":"\n                <p>Student 4's first guess for coin weight: <b style=\"color:Tomato\";>0.20</b></p>\n                <p>Student 4's second guess for coin weight: <b style=\"color:Tomato\";>0.20</b></p>\n                <p>You received a bonus of <b>$0.40</b> based on the student's second guess.</p>\n                <p>Total bonus so far: <b>$0.80</b></p>\n                <p>Press any key to continue.</p>\n                ","response":" ","trial_type":"html-keyboard-response","trial_index":39,"time_elapsed":443942,"internal_node_id":"0.0-35.0","params":{"nStudents":24,"maxFlips":30,"completionMinutes":45,"basePay":8,"maxBonus":9,"perTrialBonus":0.5,"perTrialBonusThreshold":0.05,"exampleCost":0.01},"classroomParams":{"A":{"a":1,"b":4},"B":{"a":4,"b":1},"C":{"a":2,"b":8},"D":{"a":8,"b":2}},"conditions":["nonSeqFull","nonSeqPartial","seqNoFeedback","seqFeedback"],"classroomPairings":[["A","B"],["C","D"]],"coinWeights":[0.2,0.5,0.8],"subjectId":"A13WTEQ06V3B6D","assignmentId":"33JKGHPFYDGB21GPOQTEY1S0ZYGMN1","hitId":"3SD15I2WD2G0NA4TSPXGB81L5S7630","url":"https://gershmanlab.com/experiments/alicia/teaching/experiment/?hitId=3SD15I2WD2G0NA4TSPXGB81L5S7630&workerId=A13WTEQ06V3B6D&assignmentId=33JKGHPFYDGB21GPOQTEY1S0ZYGMN1&a=FGJ39&tp_a=FGJ39&b=33JKGHPFYDGB21GPOQTEY1S0ZYGMN1&tp_b=33JKGHPFYDGB21GPOQTEY1S0ZYGMN1&c=365799&tp_c=365799"},{"rt":null,"stimulus":"<div style=\"font-size:60px;\">Next student</div>","response":null,"trial_type":"html-keyboard-response","trial_index":40,"time_elapsed":445945,"internal_node_id":"0.0-36.0-0.0","params":{"nStudents":24,"maxFlips":30,"completionMinutes":45,"basePay":8,"maxBonus":9,"perTrialBonus":0.5,"perTrialBonusThreshold":0.05,"exampleCost":0.01},"classroomParams":{"A":{"a":1,"b":4},"B":{"a":4,"b":1},"C":{"a":2,"b":8},"D":{"a":8,"b":2}},"conditions":["nonSeqFull","nonSeqPartial","seqNoFeedback","seqFeedback"],"classroomPairings":[["A","B"],["C","D"]],"coinWeights":[0.2,0.5,0.8],"subjectId":"A13WTEQ06V3B6D","assignmentId":"33JKGHPFYDGB21GPOQTEY1S0ZYGMN1","hitId":"3SD15I2WD2G0NA4TSPXGB81L5S7630","url":"https://gershmanlab.com/experiments/alicia/teaching/experiment/?hitId=3SD15I2WD2G0NA4TSPXGB81L5S7630&workerId=A13WTEQ06V3B6D&assignmentId=33JKGHPFYDGB21GPOQTEY1S0ZYGMN1&a=FGJ39&tp_a=FGJ39&b=33JKGHPFYDGB21GPOQTEY1S0ZYGMN1&tp_b=33JKGHPFYDGB21GPOQTEY1S0ZYGMN1&c=365799&tp_c=365799"},{"rt":1836,"stimulus":"\n            <h4 style=\"color:Orange;\">Student 5</h4>\n            <h2>The weight of your coin is <b style=\"color:Tomato;\">0.2</b>.</h2>\n            <p>In this block, you will be giving <b>two</b> sets of examples to Student 5.</p>\n                <p>You will receive feedback at the end of the block.</p>\n            <p></p>","response":0,"trial_type":"html-button-response","trial_index":41,"time_elapsed":447782,"internal_node_id":"0.0-37.0","params":{"nStudents":24,"maxFlips":30,"completionMinutes":45,"basePay":8,"maxBonus":9,"perTrialBonus":0.5,"perTrialBonusThreshold":0.05,"exampleCost":0.01},"classroomParams":{"A":{"a":1,"b":4},"B":{"a":4,"b":1},"C":{"a":2,"b":8},"D":{"a":8,"b":2}},"conditions":["nonSeqFull","nonSeqPartial","seqNoFeedback","seqFeedback"],"classroomPairings":[["A","B"],["C","D"]],"coinWeights":[0.2,0.5,0.8],"subjectId":"A13WTEQ06V3B6D","assignmentId":"33JKGHPFYDGB21GPOQTEY1S0ZYGMN1","hitId":"3SD15I2WD2G0NA4TSPXGB81L5S7630","url":"https://gershmanlab.com/experiments/alicia/teaching/experiment/?hitId=3SD15I2WD2G0NA4TSPXGB81L5S7630&workerId=A13WTEQ06V3B6D&assignmentId=33JKGHPFYDGB21GPOQTEY1S0ZYGMN1&a=FGJ39&tp_a=FGJ39&b=33JKGHPFYDGB21GPOQTEY1S0ZYGMN1&tp_b=33JKGHPFYDGB21GPOQTEY1S0ZYGMN1&c=365799&tp_c=365799"},{"rt":5455,"response":{"heads":"1","tails":"4"},"type":"response","condition":"seqNoFeedback","trueTheta":0.2,"classrooms":["C","D"],"studentTrueClassroom":"C","exampleSet":"first","trial_type":"survey-html-form","trial_index":42,"time_elapsed":453238,"internal_node_id":"0.0-38.0-0.0","params":{"nStudents":24,"maxFlips":30,"completionMinutes":45,"basePay":8,"maxBonus":9,"perTrialBonus":0.5,"perTrialBonusThreshold":0.05,"exampleCost":0.01},"classroomParams":{"A":{"a":1,"b":4},"B":{"a":4,"b":1},"C":{"a":2,"b":8},"D":{"a":8,"b":2}},"conditions":["nonSeqFull","nonSeqPartial","seqNoFeedback","seqFeedback"],"classroomPairings":[["A","B"],["C","D"]],"coinWeights":[0.2,0.5,0.8],"subjectId":"A13WTEQ06V3B6D","assignmentId":"33JKGHPFYDGB21GPOQTEY1S0ZYGMN1","hitId":"3SD15I2WD2G0NA4TSPXGB81L5S7630","url":"https://gershmanlab.com/experiments/alicia/teaching/experiment/?hitId=3SD15I2WD2G0NA4TSPXGB81L5S7630&workerId=A13WTEQ06V3B6D&assignmentId=33JKGHPFYDGB21GPOQTEY1S0ZYGMN1&a=FGJ39&tp_a=FGJ39&b=33JKGHPFYDGB21GPOQTEY1S0ZYGMN1&tp_b=33JKGHPFYDGB21GPOQTEY1S0ZYGMN1&c=365799&tp_c=365799","heads":1,"tails":4,"studentIndex":4,"studentTrueHypers":{"a":2,"b":8},"studentGuess":0.2,"delta":0,"totalExamples":5,"bonusSoFar":0.8},{"rt":null,"stimulus":"Sending examples to student... ","response":null,"trial_type":"html-keyboard-response","trial_index":43,"time_elapsed":454995,"internal_node_id":"0.0-39.0","params":{"nStudents":24,"maxFlips":30,"completionMinutes":45,"basePay":8,"maxBonus":9,"perTrialBonus":0.5,"perTrialBonusThreshold":0.05,"exampleCost":0.01},"classroomParams":{"A":{"a":1,"b":4},"B":{"a":4,"b":1},"C":{"a":2,"b":8},"D":{"a":8,"b":2}},"conditions":["nonSeqFull","nonSeqPartial","seqNoFeedback","seqFeedback"],"classroomPairings":[["A","B"],["C","D"]],"coinWeights":[0.2,0.5,0.8],"subjectId":"A13WTEQ06V3B6D","assignmentId":"33JKGHPFYDGB21GPOQTEY1S0ZYGMN1","hitId":"3SD15I2WD2G0NA4TSPXGB81L5S7630","url":"https://gershmanlab.com/experiments/alicia/teaching/experiment/?hitId=3SD15I2WD2G0NA4TSPXGB81L5S7630&workerId=A13WTEQ06V3B6D&assignmentId=33JKGHPFYDGB21GPOQTEY1S0ZYGMN1&a=FGJ39&tp_a=FGJ39&b=33JKGHPFYDGB21GPOQTEY1S0ZYGMN1&tp_b=33JKGHPFYDGB21GPOQTEY1S0ZYGMN1&c=365799&tp_c=365799"},{"rt":null,"stimulus":"Examples sent to student! Waiting for student...","response":null,"trial_type":"html-keyboard-response","trial_index":44,"time_elapsed":460596,"internal_node_id":"0.0-40.0","params":{"nStudents":24,"maxFlips":30,"completionMinutes":45,"basePay":8,"maxBonus":9,"perTrialBonus":0.5,"perTrialBonusThreshold":0.05,"exampleCost":0.01},"classroomParams":{"A":{"a":1,"b":4},"B":{"a":4,"b":1},"C":{"a":2,"b":8},"D":{"a":8,"b":2}},"conditions":["nonSeqFull","nonSeqPartial","seqNoFeedback","seqFeedback"],"classroomPairings":[["A","B"],["C","D"]],"coinWeights":[0.2,0.5,0.8],"subjectId":"A13WTEQ06V3B6D","assignmentId":"33JKGHPFYDGB21GPOQTEY1S0ZYGMN1","hitId":"3SD15I2WD2G0NA4TSPXGB81L5S7630","url":"https://gershmanlab.com/experiments/alicia/teaching/experiment/?hitId=3SD15I2WD2G0NA4TSPXGB81L5S7630&workerId=A13WTEQ06V3B6D&assignmentId=33JKGHPFYDGB21GPOQTEY1S0ZYGMN1&a=FGJ39&tp_a=FGJ39&b=33JKGHPFYDGB21GPOQTEY1S0ZYGMN1&tp_b=33JKGHPFYDGB21GPOQTEY1S0ZYGMN1&c=365799&tp_c=365799"},{"rt":6956,"response":{"heads":"1","tails":"4"},"type":"response","condition":"seqNoFeedback","trueTheta":0.2,"classrooms":["C","D"],"studentTrueClassroom":"C","exampleSet":"second","trial_type":"survey-html-form","trial_index":45,"time_elapsed":467553,"internal_node_id":"0.0-41.0-0.0","params":{"nStudents":24,"maxFlips":30,"completionMinutes":45,"basePay":8,"maxBonus":9,"perTrialBonus":0.5,"perTrialBonusThreshold":0.05,"exampleCost":0.01},"classroomParams":{"A":{"a":1,"b":4},"B":{"a":4,"b":1},"C":{"a":2,"b":8},"D":{"a":8,"b":2}},"conditions":["nonSeqFull","nonSeqPartial","seqNoFeedback","seqFeedback"],"classroomPairings":[["A","B"],["C","D"]],"coinWeights":[0.2,0.5,0.8],"subjectId":"A13WTEQ06V3B6D","assignmentId":"33JKGHPFYDGB21GPOQTEY1S0ZYGMN1","hitId":"3SD15I2WD2G0NA4TSPXGB81L5S7630","url":"https://gershmanlab.com/experiments/alicia/teaching/experiment/?hitId=3SD15I2WD2G0NA4TSPXGB81L5S7630&workerId=A13WTEQ06V3B6D&assignmentId=33JKGHPFYDGB21GPOQTEY1S0ZYGMN1&a=FGJ39&tp_a=FGJ39&b=33JKGHPFYDGB21GPOQTEY1S0ZYGMN1&tp_b=33JKGHPFYDGB21GPOQTEY1S0ZYGMN1&c=365799&tp_c=365799","firstResponseHeads":1,"firstResponseTails":4,"secondResponseHeads":1,"secondResponseTails":4,"totalHeads":2,"totalTails":8,"studentIndex":4,"studentTrueHypers":{"a":2,"b":8},"studentGuess":0.2,"delta":0,"bonus":0.4,"bonusSoFar":1.2,"totalExamples":10},{"rt":null,"stimulus":"Sending examples to student... ","response":null,"trial_type":"html-keyboard-response","trial_index":46,"time_elapsed":469054,"internal_node_id":"0.0-42.0","params":{"nStudents":24,"maxFlips":30,"completionMinutes":45,"basePay":8,"maxBonus":9,"perTrialBonus":0.5,"perTrialBonusThreshold":0.05,"exampleCost":0.01},"classroomParams":{"A":{"a":1,"b":4},"B":{"a":4,"b":1},"C":{"a":2,"b":8},"D":{"a":8,"b":2}},"conditions":["nonSeqFull","nonSeqPartial","seqNoFeedback","seqFeedback"],"classroomPairings":[["A","B"],["C","D"]],"coinWeights":[0.2,0.5,0.8],"subjectId":"A13WTEQ06V3B6D","assignmentId":"33JKGHPFYDGB21GPOQTEY1S0ZYGMN1","hitId":"3SD15I2WD2G0NA4TSPXGB81L5S7630","url":"https://gershmanlab.com/experiments/alicia/teaching/experiment/?hitId=3SD15I2WD2G0NA4TSPXGB81L5S7630&workerId=A13WTEQ06V3B6D&assignmentId=33JKGHPFYDGB21GPOQTEY1S0ZYGMN1&a=FGJ39&tp_a=FGJ39&b=33JKGHPFYDGB21GPOQTEY1S0ZYGMN1&tp_b=33JKGHPFYDGB21GPOQTEY1S0ZYGMN1&c=365799&tp_c=365799"},{"rt":null,"stimulus":"Examples sent to student! Waiting for student...","response":null,"trial_type":"html-keyboard-response","trial_index":47,"time_elapsed":474057,"internal_node_id":"0.0-43.0","params":{"nStudents":24,"maxFlips":30,"completionMinutes":45,"basePay":8,"maxBonus":9,"perTrialBonus":0.5,"perTrialBonusThreshold":0.05,"exampleCost":0.01},"classroomParams":{"A":{"a":1,"b":4},"B":{"a":4,"b":1},"C":{"a":2,"b":8},"D":{"a":8,"b":2}},"conditions":["nonSeqFull","nonSeqPartial","seqNoFeedback","seqFeedback"],"classroomPairings":[["A","B"],["C","D"]],"coinWeights":[0.2,0.5,0.8],"subjectId":"A13WTEQ06V3B6D","assignmentId":"33JKGHPFYDGB21GPOQTEY1S0ZYGMN1","hitId":"3SD15I2WD2G0NA4TSPXGB81L5S7630","url":"https://gershmanlab.com/experiments/alicia/teaching/experiment/?hitId=3SD15I2WD2G0NA4TSPXGB81L5S7630&workerId=A13WTEQ06V3B6D&assignmentId=33JKGHPFYDGB21GPOQTEY1S0ZYGMN1&a=FGJ39&tp_a=FGJ39&b=33JKGHPFYDGB21GPOQTEY1S0ZYGMN1&tp_b=33JKGHPFYDGB21GPOQTEY1S0ZYGMN1&c=365799&tp_c=365799"},{"rt":21808,"stimulus":"\n                <p>Student 5's first guess for coin weight: <b style=\"color:Tomato\";>0.20</b></p>\n                <p>Student 5's second guess for coin weight: <b style=\"color:Tomato\";>0.20</b></p>\n                <p>You received a bonus of <b>$0.40</b> based on the student's second guess.</p>\n                <p>Total bonus so far: <b>$1.20</b></p>\n                <p>Press any key to continue.</p>\n                ","response":" ","trial_type":"html-keyboard-response","trial_index":48,"time_elapsed":495867,"internal_node_id":"0.0-44.0","params":{"nStudents":24,"maxFlips":30,"completionMinutes":45,"basePay":8,"maxBonus":9,"perTrialBonus":0.5,"perTrialBonusThreshold":0.05,"exampleCost":0.01},"classroomParams":{"A":{"a":1,"b":4},"B":{"a":4,"b":1},"C":{"a":2,"b":8},"D":{"a":8,"b":2}},"conditions":["nonSeqFull","nonSeqPartial","seqNoFeedback","seqFeedback"],"classroomPairings":[["A","B"],["C","D"]],"coinWeights":[0.2,0.5,0.8],"subjectId":"A13WTEQ06V3B6D","assignmentId":"33JKGHPFYDGB21GPOQTEY1S0ZYGMN1","hitId":"3SD15I2WD2G0NA4TSPXGB81L5S7630","url":"https://gershmanlab.com/experiments/alicia/teaching/experiment/?hitId=3SD15I2WD2G0NA4TSPXGB81L5S7630&workerId=A13WTEQ06V3B6D&assignmentId=33JKGHPFYDGB21GPOQTEY1S0ZYGMN1&a=FGJ39&tp_a=FGJ39&b=33JKGHPFYDGB21GPOQTEY1S0ZYGMN1&tp_b=33JKGHPFYDGB21GPOQTEY1S0ZYGMN1&c=365799&tp_c=365799"},{"rt":null,"stimulus":"<div style=\"font-size:60px;\">Next student</div>","response":null,"trial_type":"html-keyboard-response","trial_index":49,"time_elapsed":498120,"internal_node_id":"0.0-45.0-0.0","params":{"nStudents":24,"maxFlips":30,"completionMinutes":45,"basePay":8,"maxBonus":9,"perTrialBonus":0.5,"perTrialBonusThreshold":0.05,"exampleCost":0.01},"classroomParams":{"A":{"a":1,"b":4},"B":{"a":4,"b":1},"C":{"a":2,"b":8},"D":{"a":8,"b":2}},"conditions":["nonSeqFull","nonSeqPartial","seqNoFeedback","seqFeedback"],"classroomPairings":[["A","B"],["C","D"]],"coinWeights":[0.2,0.5,0.8],"subjectId":"A13WTEQ06V3B6D","assignmentId":"33JKGHPFYDGB21GPOQTEY1S0ZYGMN1","hitId":"3SD15I2WD2G0NA4TSPXGB81L5S7630","url":"https://gershmanlab.com/experiments/alicia/teaching/experiment/?hitId=3SD15I2WD2G0NA4TSPXGB81L5S7630&workerId=A13WTEQ06V3B6D&assignmentId=33JKGHPFYDGB21GPOQTEY1S0ZYGMN1&a=FGJ39&tp_a=FGJ39&b=33JKGHPFYDGB21GPOQTEY1S0ZYGMN1&tp_b=33JKGHPFYDGB21GPOQTEY1S0ZYGMN1&c=365799&tp_c=365799"},{"rt":6248,"stimulus":"\n            <h4 style=\"color:Orange;\">Student 6</h4>\n            <h2>The weight of your coin is <b style=\"color:Tomato;\">0.8</b>.</h2>\n            <p>In this block, you will be giving <b>two</b> sets of examples to Student 6.</p>\n                <p>You will see the student's guess after the first set of examples. You will also receive feedback at the end of the block.</p>\n            <p>To earn the highest bonus, you will have to <b>take into consideration the student's guess</b> when you choose your second set of examples.</p>","response":0,"trial_type":"html-button-response","trial_index":50,"time_elapsed":504370,"internal_node_id":"0.0-46.0","params":{"nStudents":24,"maxFlips":30,"completionMinutes":45,"basePay":8,"maxBonus":9,"perTrialBonus":0.5,"perTrialBonusThreshold":0.05,"exampleCost":0.01},"classroomParams":{"A":{"a":1,"b":4},"B":{"a":4,"b":1},"C":{"a":2,"b":8},"D":{"a":8,"b":2}},"conditions":["nonSeqFull","nonSeqPartial","seqNoFeedback","seqFeedback"],"classroomPairings":[["A","B"],["C","D"]],"coinWeights":[0.2,0.5,0.8],"subjectId":"A13WTEQ06V3B6D","assignmentId":"33JKGHPFYDGB21GPOQTEY1S0ZYGMN1","hitId":"3SD15I2WD2G0NA4TSPXGB81L5S7630","url":"https://gershmanlab.com/experiments/alicia/teaching/experiment/?hitId=3SD15I2WD2G0NA4TSPXGB81L5S7630&workerId=A13WTEQ06V3B6D&assignmentId=33JKGHPFYDGB21GPOQTEY1S0ZYGMN1&a=FGJ39&tp_a=FGJ39&b=33JKGHPFYDGB21GPOQTEY1S0ZYGMN1&tp_b=33JKGHPFYDGB21GPOQTEY1S0ZYGMN1&c=365799&tp_c=365799"},{"rt":10736,"response":{"heads":"5","tails":"1"},"type":"response","condition":"seqFeedback","trueTheta":0.8,"classrooms":["A","B"],"studentTrueClassroom":"A","exampleSet":"first","trial_type":"survey-html-form","trial_index":51,"time_elapsed":515107,"internal_node_id":"0.0-47.0-0.0","params":{"nStudents":24,"maxFlips":30,"completionMinutes":45,"basePay":8,"maxBonus":9,"perTrialBonus":0.5,"perTrialBonusThreshold":0.05,"exampleCost":0.01},"classroomParams":{"A":{"a":1,"b":4},"B":{"a":4,"b":1},"C":{"a":2,"b":8},"D":{"a":8,"b":2}},"conditions":["nonSeqFull","nonSeqPartial","seqNoFeedback","seqFeedback"],"classroomPairings":[["A","B"],["C","D"]],"coinWeights":[0.2,0.5,0.8],"subjectId":"A13WTEQ06V3B6D","assignmentId":"33JKGHPFYDGB21GPOQTEY1S0ZYGMN1","hitId":"3SD15I2WD2G0NA4TSPXGB81L5S7630","url":"https://gershmanlab.com/experiments/alicia/teaching/experiment/?hitId=3SD15I2WD2G0NA4TSPXGB81L5S7630&workerId=A13WTEQ06V3B6D&assignmentId=33JKGHPFYDGB21GPOQTEY1S0ZYGMN1&a=FGJ39&tp_a=FGJ39&b=33JKGHPFYDGB21GPOQTEY1S0ZYGMN1&tp_b=33JKGHPFYDGB21GPOQTEY1S0ZYGMN1&c=365799&tp_c=365799","heads":5,"tails":1,"studentIndex":5,"studentTrueHypers":{"a":1,"b":4},"studentGuess":0.5454545454545454,"delta":0.25454545454545463,"totalExamples":6,"bonusSoFar":1.2},{"rt":null,"stimulus":"Sending examples to student... ","response":null,"trial_type":"html-keyboard-response","trial_index":52,"time_elapsed":516359,"internal_node_id":"0.0-48.0","params":{"nStudents":24,"maxFlips":30,"completionMinutes":45,"basePay":8,"maxBonus":9,"perTrialBonus":0.5,"perTrialBonusThreshold":0.05,"exampleCost":0.01},"classroomParams":{"A":{"a":1,"b":4},"B":{"a":4,"b":1},"C":{"a":2,"b":8},"D":{"a":8,"b":2}},"conditions":["nonSeqFull","nonSeqPartial","seqNoFeedback","seqFeedback"],"classroomPairings":[["A","B"],["C","D"]],"coinWeights":[0.2,0.5,0.8],"subjectId":"A13WTEQ06V3B6D","assignmentId":"33JKGHPFYDGB21GPOQTEY1S0ZYGMN1","hitId":"3SD15I2WD2G0NA4TSPXGB81L5S7630","url":"https://gershmanlab.com/experiments/alicia/teaching/experiment/?hitId=3SD15I2WD2G0NA4TSPXGB81L5S7630&workerId=A13WTEQ06V3B6D&assignmentId=33JKGHPFYDGB21GPOQTEY1S0ZYGMN1&a=FGJ39&tp_a=FGJ39&b=33JKGHPFYDGB21GPOQTEY1S0ZYGMN1&tp_b=33JKGHPFYDGB21GPOQTEY1S0ZYGMN1&c=365799&tp_c=365799"},{"rt":null,"stimulus":"Examples sent to student! Waiting for student...","response":null,"trial_type":"html-keyboard-response","trial_index":53,"time_elapsed":520874,"internal_node_id":"0.0-49.0","params":{"nStudents":24,"maxFlips":30,"completionMinutes":45,"basePay":8,"maxBonus":9,"perTrialBonus":0.5,"perTrialBonusThreshold":0.05,"exampleCost":0.01},"classroomParams":{"A":{"a":1,"b":4},"B":{"a":4,"b":1},"C":{"a":2,"b":8},"D":{"a":8,"b":2}},"conditions":["nonSeqFull","nonSeqPartial","seqNoFeedback","seqFeedback"],"classroomPairings":[["A","B"],["C","D"]],"coinWeights":[0.2,0.5,0.8],"subjectId":"A13WTEQ06V3B6D","assignmentId":"33JKGHPFYDGB21GPOQTEY1S0ZYGMN1","hitId":"3SD15I2WD2G0NA4TSPXGB81L5S7630","url":"https://gershmanlab.com/experiments/alicia/teaching/experiment/?hitId=3SD15I2WD2G0NA4TSPXGB81L5S7630&workerId=A13WTEQ06V3B6D&assignmentId=33JKGHPFYDGB21GPOQTEY1S0ZYGMN1&a=FGJ39&tp_a=FGJ39&b=33JKGHPFYDGB21GPOQTEY1S0ZYGMN1&tp_b=33JKGHPFYDGB21GPOQTEY1S0ZYGMN1&c=365799&tp_c=365799"},{"rt":3731,"stimulus":"\n                <p>Student's guess for coin weight: <b style=\"color:Tomato;\">0.55</b></p>\n                <p></b></p>\n                <p>You will now send another set of examples to your student. <b>Remember to take your student's guess into consideration so that you can earn the highest bonus possible!</b> </p>\n                <p>Press any key to continue.</p>\n                ","response":" ","trial_type":"html-keyboard-response","trial_index":54,"time_elapsed":524606,"internal_node_id":"0.0-50.0","params":{"nStudents":24,"maxFlips":30,"completionMinutes":45,"basePay":8,"maxBonus":9,"perTrialBonus":0.5,"perTrialBonusThreshold":0.05,"exampleCost":0.01},"classroomParams":{"A":{"a":1,"b":4},"B":{"a":4,"b":1},"C":{"a":2,"b":8},"D":{"a":8,"b":2}},"conditions":["nonSeqFull","nonSeqPartial","seqNoFeedback","seqFeedback"],"classroomPairings":[["A","B"],["C","D"]],"coinWeights":[0.2,0.5,0.8],"subjectId":"A13WTEQ06V3B6D","assignmentId":"33JKGHPFYDGB21GPOQTEY1S0ZYGMN1","hitId":"3SD15I2WD2G0NA4TSPXGB81L5S7630","url":"https://gershmanlab.com/experiments/alicia/teaching/experiment/?hitId=3SD15I2WD2G0NA4TSPXGB81L5S7630&workerId=A13WTEQ06V3B6D&assignmentId=33JKGHPFYDGB21GPOQTEY1S0ZYGMN1&a=FGJ39&tp_a=FGJ39&b=33JKGHPFYDGB21GPOQTEY1S0ZYGMN1&tp_b=33JKGHPFYDGB21GPOQTEY1S0ZYGMN1&c=365799&tp_c=365799"},{"rt":7470,"response":{"heads":"9","tails":"1"},"type":"response","condition":"seqFeedback","trueTheta":0.8,"classrooms":["A","B"],"studentTrueClassroom":"A","exampleSet":"second","trial_type":"survey-html-form","trial_index":55,"time_elapsed":532077,"internal_node_id":"0.0-51.0-0.0","params":{"nStudents":24,"maxFlips":30,"completionMinutes":45,"basePay":8,"maxBonus":9,"perTrialBonus":0.5,"perTrialBonusThreshold":0.05,"exampleCost":0.01},"classroomParams":{"A":{"a":1,"b":4},"B":{"a":4,"b":1},"C":{"a":2,"b":8},"D":{"a":8,"b":2}},"conditions":["nonSeqFull","nonSeqPartial","seqNoFeedback","seqFeedback"],"classroomPairings":[["A","B"],["C","D"]],"coinWeights":[0.2,0.5,0.8],"subjectId":"A13WTEQ06V3B6D","assignmentId":"33JKGHPFYDGB21GPOQTEY1S0ZYGMN1","hitId":"3SD15I2WD2G0NA4TSPXGB81L5S7630","url":"https://gershmanlab.com/experiments/alicia/teaching/experiment/?hitId=3SD15I2WD2G0NA4TSPXGB81L5S7630&workerId=A13WTEQ06V3B6D&assignmentId=33JKGHPFYDGB21GPOQTEY1S0ZYGMN1&a=FGJ39&tp_a=FGJ39&b=33JKGHPFYDGB21GPOQTEY1S0ZYGMN1&tp_b=33JKGHPFYDGB21GPOQTEY1S0ZYGMN1&c=365799&tp_c=365799","firstResponseHeads":5,"firstResponseTails":1,"secondResponseHeads":9,"secondResponseTails":1,"totalHeads":14,"totalTails":2,"studentIndex":5,"studentTrueHypers":{"a":1,"b":4},"studentGuess":0.7142857142857143,"delta":0.08571428571428574,"bonus":0,"bonusSoFar":1.2,"totalExamples":16},{"rt":null,"stimulus":"Sending examples to student... ","response":null,"trial_type":"html-keyboard-response","trial_index":56,"time_elapsed":534080,"internal_node_id":"0.0-52.0","params":{"nStudents":24,"maxFlips":30,"completionMinutes":45,"basePay":8,"maxBonus":9,"perTrialBonus":0.5,"perTrialBonusThreshold":0.05,"exampleCost":0.01},"classroomParams":{"A":{"a":1,"b":4},"B":{"a":4,"b":1},"C":{"a":2,"b":8},"D":{"a":8,"b":2}},"conditions":["nonSeqFull","nonSeqPartial","seqNoFeedback","seqFeedback"],"classroomPairings":[["A","B"],["C","D"]],"coinWeights":[0.2,0.5,0.8],"subjectId":"A13WTEQ06V3B6D","assignmentId":"33JKGHPFYDGB21GPOQTEY1S0ZYGMN1","hitId":"3SD15I2WD2G0NA4TSPXGB81L5S7630","url":"https://gershmanlab.com/experiments/alicia/teaching/experiment/?hitId=3SD15I2WD2G0NA4TSPXGB81L5S7630&workerId=A13WTEQ06V3B6D&assignmentId=33JKGHPFYDGB21GPOQTEY1S0ZYGMN1&a=FGJ39&tp_a=FGJ39&b=33JKGHPFYDGB21GPOQTEY1S0ZYGMN1&tp_b=33JKGHPFYDGB21GPOQTEY1S0ZYGMN1&c=365799&tp_c=365799"},{"rt":null,"stimulus":"Examples sent to student! Waiting for student...","response":null,"trial_type":"html-keyboard-response","trial_index":57,"time_elapsed":538091,"internal_node_id":"0.0-53.0","params":{"nStudents":24,"maxFlips":30,"completionMinutes":45,"basePay":8,"maxBonus":9,"perTrialBonus":0.5,"perTrialBonusThreshold":0.05,"exampleCost":0.01},"classroomParams":{"A":{"a":1,"b":4},"B":{"a":4,"b":1},"C":{"a":2,"b":8},"D":{"a":8,"b":2}},"conditions":["nonSeqFull","nonSeqPartial","seqNoFeedback","seqFeedback"],"classroomPairings":[["A","B"],["C","D"]],"coinWeights":[0.2,0.5,0.8],"subjectId":"A13WTEQ06V3B6D","assignmentId":"33JKGHPFYDGB21GPOQTEY1S0ZYGMN1","hitId":"3SD15I2WD2G0NA4TSPXGB81L5S7630","url":"https://gershmanlab.com/experiments/alicia/teaching/experiment/?hitId=3SD15I2WD2G0NA4TSPXGB81L5S7630&workerId=A13WTEQ06V3B6D&assignmentId=33JKGHPFYDGB21GPOQTEY1S0ZYGMN1&a=FGJ39&tp_a=FGJ39&b=33JKGHPFYDGB21GPOQTEY1S0ZYGMN1&tp_b=33JKGHPFYDGB21GPOQTEY1S0ZYGMN1&c=365799&tp_c=365799"},{"rt":4809,"stimulus":"\n                <p>Student 6's first guess for coin weight: <b style=\"color:Tomato\";>0.55</b></p>\n                <p>Student 6's second guess for coin weight: <b style=\"color:Tomato\";>0.71</b></p>\n                <p>You received a bonus of <b>$0.00</b> based on the student's second guess.</p>\n                <p>Total bonus so far: <b>$1.20</b></p>\n                <p>Press any key to continue.</p>\n                ","response":" ","trial_type":"html-keyboard-response","trial_index":58,"time_elapsed":542901,"internal_node_id":"0.0-54.0","params":{"nStudents":24,"maxFlips":30,"completionMinutes":45,"basePay":8,"maxBonus":9,"perTrialBonus":0.5,"perTrialBonusThreshold":0.05,"exampleCost":0.01},"classroomParams":{"A":{"a":1,"b":4},"B":{"a":4,"b":1},"C":{"a":2,"b":8},"D":{"a":8,"b":2}},"conditions":["nonSeqFull","nonSeqPartial","seqNoFeedback","seqFeedback"],"classroomPairings":[["A","B"],["C","D"]],"coinWeights":[0.2,0.5,0.8],"subjectId":"A13WTEQ06V3B6D","assignmentId":"33JKGHPFYDGB21GPOQTEY1S0ZYGMN1","hitId":"3SD15I2WD2G0NA4TSPXGB81L5S7630","url":"https://gershmanlab.com/experiments/alicia/teaching/experiment/?hitId=3SD15I2WD2G0NA4TSPXGB81L5S7630&workerId=A13WTEQ06V3B6D&assignmentId=33JKGHPFYDGB21GPOQTEY1S0ZYGMN1&a=FGJ39&tp_a=FGJ39&b=33JKGHPFYDGB21GPOQTEY1S0ZYGMN1&tp_b=33JKGHPFYDGB21GPOQTEY1S0ZYGMN1&c=365799&tp_c=365799"},{"rt":null,"stimulus":"<div style=\"font-size:60px;\">Next student</div>","response":null,"trial_type":"html-keyboard-response","trial_index":59,"time_elapsed":545167,"internal_node_id":"0.0-55.0-0.0","params":{"nStudents":24,"maxFlips":30,"completionMinutes":45,"basePay":8,"maxBonus":9,"perTrialBonus":0.5,"perTrialBonusThreshold":0.05,"exampleCost":0.01},"classroomParams":{"A":{"a":1,"b":4},"B":{"a":4,"b":1},"C":{"a":2,"b":8},"D":{"a":8,"b":2}},"conditions":["nonSeqFull","nonSeqPartial","seqNoFeedback","seqFeedback"],"classroomPairings":[["A","B"],["C","D"]],"coinWeights":[0.2,0.5,0.8],"subjectId":"A13WTEQ06V3B6D","assignmentId":"33JKGHPFYDGB21GPOQTEY1S0ZYGMN1","hitId":"3SD15I2WD2G0NA4TSPXGB81L5S7630","url":"https://gershmanlab.com/experiments/alicia/teaching/experiment/?hitId=3SD15I2WD2G0NA4TSPXGB81L5S7630&workerId=A13WTEQ06V3B6D&assignmentId=33JKGHPFYDGB21GPOQTEY1S0ZYGMN1&a=FGJ39&tp_a=FGJ39&b=33JKGHPFYDGB21GPOQTEY1S0ZYGMN1&tp_b=33JKGHPFYDGB21GPOQTEY1S0ZYGMN1&c=365799&tp_c=365799"},{"rt":1278,"stimulus":"\n            <h4 style=\"color:Orange;\">Student 7</h4>\n            <h2>The weight of your coin is <b style=\"color:Tomato;\">0.8</b>.</h2>\n            <p>In this block, you will be giving <b>one</b> set of examples to Student 7.</p>\n                <p>You will receive feedback at the end of the block.</p>\n            <p></p>","response":0,"trial_type":"html-button-response","trial_index":60,"time_elapsed":546446,"internal_node_id":"0.0-56.0","params":{"nStudents":24,"maxFlips":30,"completionMinutes":45,"basePay":8,"maxBonus":9,"perTrialBonus":0.5,"perTrialBonusThreshold":0.05,"exampleCost":0.01},"classroomParams":{"A":{"a":1,"b":4},"B":{"a":4,"b":1},"C":{"a":2,"b":8},"D":{"a":8,"b":2}},"conditions":["nonSeqFull","nonSeqPartial","seqNoFeedback","seqFeedback"],"classroomPairings":[["A","B"],["C","D"]],"coinWeights":[0.2,0.5,0.8],"subjectId":"A13WTEQ06V3B6D","assignmentId":"33JKGHPFYDGB21GPOQTEY1S0ZYGMN1","hitId":"3SD15I2WD2G0NA4TSPXGB81L5S7630","url":"https://gershmanlab.com/experiments/alicia/teaching/experiment/?hitId=3SD15I2WD2G0NA4TSPXGB81L5S7630&workerId=A13WTEQ06V3B6D&assignmentId=33JKGHPFYDGB21GPOQTEY1S0ZYGMN1&a=FGJ39&tp_a=FGJ39&b=33JKGHPFYDGB21GPOQTEY1S0ZYGMN1&tp_b=33JKGHPFYDGB21GPOQTEY1S0ZYGMN1&c=365799&tp_c=365799"},{"rt":4802,"response":{"heads":"8","tails":"1"},"type":"response","condition":"nonSeqFull","trueTheta":0.8,"classrooms":["A","B"],"studentTrueClassroom":"B","exampleSet":"first","trial_type":"survey-html-form","trial_index":61,"time_elapsed":551249,"internal_node_id":"0.0-57.0-0.0","params":{"nStudents":24,"maxFlips":30,"completionMinutes":45,"basePay":8,"maxBonus":9,"perTrialBonus":0.5,"perTrialBonusThreshold":0.05,"exampleCost":0.01},"classroomParams":{"A":{"a":1,"b":4},"B":{"a":4,"b":1},"C":{"a":2,"b":8},"D":{"a":8,"b":2}},"conditions":["nonSeqFull","nonSeqPartial","seqNoFeedback","seqFeedback"],"classroomPairings":[["A","B"],["C","D"]],"coinWeights":[0.2,0.5,0.8],"subjectId":"A13WTEQ06V3B6D","assignmentId":"33JKGHPFYDGB21GPOQTEY1S0ZYGMN1","hitId":"3SD15I2WD2G0NA4TSPXGB81L5S7630","url":"https://gershmanlab.com/experiments/alicia/teaching/experiment/?hitId=3SD15I2WD2G0NA4TSPXGB81L5S7630&workerId=A13WTEQ06V3B6D&assignmentId=33JKGHPFYDGB21GPOQTEY1S0ZYGMN1&a=FGJ39&tp_a=FGJ39&b=33JKGHPFYDGB21GPOQTEY1S0ZYGMN1&tp_b=33JKGHPFYDGB21GPOQTEY1S0ZYGMN1&c=365799&tp_c=365799","heads":8,"tails":1,"studentIndex":6,"studentTrueHypers":{"a":4,"b":1},"studentGuess":0.8571428571428571,"delta":0.05714285714285705,"totalExamples":9,"bonus":0,"bonusSoFar":1.2},{"rt":null,"stimulus":"Sending examples to student... ","response":null,"trial_type":"html-keyboard-response","trial_index":62,"time_elapsed":553255,"internal_node_id":"0.0-58.0","params":{"nStudents":24,"maxFlips":30,"completionMinutes":45,"basePay":8,"maxBonus":9,"perTrialBonus":0.5,"perTrialBonusThreshold":0.05,"exampleCost":0.01},"classroomParams":{"A":{"a":1,"b":4},"B":{"a":4,"b":1},"C":{"a":2,"b":8},"D":{"a":8,"b":2}},"conditions":["nonSeqFull","nonSeqPartial","seqNoFeedback","seqFeedback"],"classroomPairings":[["A","B"],["C","D"]],"coinWeights":[0.2,0.5,0.8],"subjectId":"A13WTEQ06V3B6D","assignmentId":"33JKGHPFYDGB21GPOQTEY1S0ZYGMN1","hitId":"3SD15I2WD2G0NA4TSPXGB81L5S7630","url":"https://gershmanlab.com/experiments/alicia/teaching/experiment/?hitId=3SD15I2WD2G0NA4TSPXGB81L5S7630&workerId=A13WTEQ06V3B6D&assignmentId=33JKGHPFYDGB21GPOQTEY1S0ZYGMN1&a=FGJ39&tp_a=FGJ39&b=33JKGHPFYDGB21GPOQTEY1S0ZYGMN1&tp_b=33JKGHPFYDGB21GPOQTEY1S0ZYGMN1&c=365799&tp_c=365799"},{"rt":null,"stimulus":"Examples sent to student! Waiting for student...","response":null,"trial_type":"html-keyboard-response","trial_index":63,"time_elapsed":558762,"internal_node_id":"0.0-59.0","params":{"nStudents":24,"maxFlips":30,"completionMinutes":45,"basePay":8,"maxBonus":9,"perTrialBonus":0.5,"perTrialBonusThreshold":0.05,"exampleCost":0.01},"classroomParams":{"A":{"a":1,"b":4},"B":{"a":4,"b":1},"C":{"a":2,"b":8},"D":{"a":8,"b":2}},"conditions":["nonSeqFull","nonSeqPartial","seqNoFeedback","seqFeedback"],"classroomPairings":[["A","B"],["C","D"]],"coinWeights":[0.2,0.5,0.8],"subjectId":"A13WTEQ06V3B6D","assignmentId":"33JKGHPFYDGB21GPOQTEY1S0ZYGMN1","hitId":"3SD15I2WD2G0NA4TSPXGB81L5S7630","url":"https://gershmanlab.com/experiments/alicia/teaching/experiment/?hitId=3SD15I2WD2G0NA4TSPXGB81L5S7630&workerId=A13WTEQ06V3B6D&assignmentId=33JKGHPFYDGB21GPOQTEY1S0ZYGMN1&a=FGJ39&tp_a=FGJ39&b=33JKGHPFYDGB21GPOQTEY1S0ZYGMN1&tp_b=33JKGHPFYDGB21GPOQTEY1S0ZYGMN1&c=365799&tp_c=365799"},{"rt":3490,"stimulus":"\n                <p>Student's guess for coin weight: <b style=\"color:Tomato;\">0.86</b></p>\n                <p>You received a bonus of <b>$0</b>. Total bonus so far: <b>$1.20</b></b></p>\n                <p></p>\n                <p>Press any key to continue.</p>\n                ","response":" ","trial_type":"html-keyboard-response","trial_index":64,"time_elapsed":562253,"internal_node_id":"0.0-60.0","params":{"nStudents":24,"maxFlips":30,"completionMinutes":45,"basePay":8,"maxBonus":9,"perTrialBonus":0.5,"perTrialBonusThreshold":0.05,"exampleCost":0.01},"classroomParams":{"A":{"a":1,"b":4},"B":{"a":4,"b":1},"C":{"a":2,"b":8},"D":{"a":8,"b":2}},"conditions":["nonSeqFull","nonSeqPartial","seqNoFeedback","seqFeedback"],"classroomPairings":[["A","B"],["C","D"]],"coinWeights":[0.2,0.5,0.8],"subjectId":"A13WTEQ06V3B6D","assignmentId":"33JKGHPFYDGB21GPOQTEY1S0ZYGMN1","hitId":"3SD15I2WD2G0NA4TSPXGB81L5S7630","url":"https://gershmanlab.com/experiments/alicia/teaching/experiment/?hitId=3SD15I2WD2G0NA4TSPXGB81L5S7630&workerId=A13WTEQ06V3B6D&assignmentId=33JKGHPFYDGB21GPOQTEY1S0ZYGMN1&a=FGJ39&tp_a=FGJ39&b=33JKGHPFYDGB21GPOQTEY1S0ZYGMN1&tp_b=33JKGHPFYDGB21GPOQTEY1S0ZYGMN1&c=365799&tp_c=365799"},{"rt":null,"stimulus":"<div style=\"font-size:60px;\">Next student</div>","response":null,"trial_type":"html-keyboard-response","trial_index":65,"time_elapsed":565268,"internal_node_id":"0.0-61.0-0.0","params":{"nStudents":24,"maxFlips":30,"completionMinutes":45,"basePay":8,"maxBonus":9,"perTrialBonus":0.5,"perTrialBonusThreshold":0.05,"exampleCost":0.01},"classroomParams":{"A":{"a":1,"b":4},"B":{"a":4,"b":1},"C":{"a":2,"b":8},"D":{"a":8,"b":2}},"conditions":["nonSeqFull","nonSeqPartial","seqNoFeedback","seqFeedback"],"classroomPairings":[["A","B"],["C","D"]],"coinWeights":[0.2,0.5,0.8],"subjectId":"A13WTEQ06V3B6D","assignmentId":"33JKGHPFYDGB21GPOQTEY1S0ZYGMN1","hitId":"3SD15I2WD2G0NA4TSPXGB81L5S7630","url":"https://gershmanlab.com/experiments/alicia/teaching/experiment/?hitId=3SD15I2WD2G0NA4TSPXGB81L5S7630&workerId=A13WTEQ06V3B6D&assignmentId=33JKGHPFYDGB21GPOQTEY1S0ZYGMN1&a=FGJ39&tp_a=FGJ39&b=33JKGHPFYDGB21GPOQTEY1S0ZYGMN1&tp_b=33JKGHPFYDGB21GPOQTEY1S0ZYGMN1&c=365799&tp_c=365799"},{"rt":923,"stimulus":"\n            <h4 style=\"color:Orange;\">Student 8</h4>\n            <h2>The weight of your coin is <b style=\"color:Tomato;\">0.2</b>.</h2>\n            <p>In this block, you will be giving <b>one</b> set of examples to Student 8.</p>\n                <p>You will receive feedback at the end of the block.</p>\n            <p></p>","response":0,"trial_type":"html-button-response","trial_index":66,"time_elapsed":566192,"internal_node_id":"0.0-62.0","params":{"nStudents":24,"maxFlips":30,"completionMinutes":45,"basePay":8,"maxBonus":9,"perTrialBonus":0.5,"perTrialBonusThreshold":0.05,"exampleCost":0.01},"classroomParams":{"A":{"a":1,"b":4},"B":{"a":4,"b":1},"C":{"a":2,"b":8},"D":{"a":8,"b":2}},"conditions":["nonSeqFull","nonSeqPartial","seqNoFeedback","seqFeedback"],"classroomPairings":[["A","B"],["C","D"]],"coinWeights":[0.2,0.5,0.8],"subjectId":"A13WTEQ06V3B6D","assignmentId":"33JKGHPFYDGB21GPOQTEY1S0ZYGMN1","hitId":"3SD15I2WD2G0NA4TSPXGB81L5S7630","url":"https://gershmanlab.com/experiments/alicia/teaching/experiment/?hitId=3SD15I2WD2G0NA4TSPXGB81L5S7630&workerId=A13WTEQ06V3B6D&assignmentId=33JKGHPFYDGB21GPOQTEY1S0ZYGMN1&a=FGJ39&tp_a=FGJ39&b=33JKGHPFYDGB21GPOQTEY1S0ZYGMN1&tp_b=33JKGHPFYDGB21GPOQTEY1S0ZYGMN1&c=365799&tp_c=365799"},{"rt":4021,"response":{"heads":"1","tails":"4"},"type":"response","condition":"nonSeqPartial","trueTheta":0.2,"classrooms":["C","D"],"studentTrueClassroom":"C","exampleSet":"first","trial_type":"survey-html-form","trial_index":67,"time_elapsed":570214,"internal_node_id":"0.0-63.0-0.0","params":{"nStudents":24,"maxFlips":30,"completionMinutes":45,"basePay":8,"maxBonus":9,"perTrialBonus":0.5,"perTrialBonusThreshold":0.05,"exampleCost":0.01},"classroomParams":{"A":{"a":1,"b":4},"B":{"a":4,"b":1},"C":{"a":2,"b":8},"D":{"a":8,"b":2}},"conditions":["nonSeqFull","nonSeqPartial","seqNoFeedback","seqFeedback"],"classroomPairings":[["A","B"],["C","D"]],"coinWeights":[0.2,0.5,0.8],"subjectId":"A13WTEQ06V3B6D","assignmentId":"33JKGHPFYDGB21GPOQTEY1S0ZYGMN1","hitId":"3SD15I2WD2G0NA4TSPXGB81L5S7630","url":"https://gershmanlab.com/experiments/alicia/teaching/experiment/?hitId=3SD15I2WD2G0NA4TSPXGB81L5S7630&workerId=A13WTEQ06V3B6D&assignmentId=33JKGHPFYDGB21GPOQTEY1S0ZYGMN1&a=FGJ39&tp_a=FGJ39&b=33JKGHPFYDGB21GPOQTEY1S0ZYGMN1&tp_b=33JKGHPFYDGB21GPOQTEY1S0ZYGMN1&c=365799&tp_c=365799","heads":1,"tails":4,"studentIndex":7,"studentTrueHypers":{"a":2,"b":8},"studentGuess":0.2,"delta":0,"totalExamples":5,"bonus":0.45,"bonusSoFar":1.65},{"rt":null,"stimulus":"Sending examples to student... ","response":null,"trial_type":"html-keyboard-response","trial_index":68,"time_elapsed":571467,"internal_node_id":"0.0-64.0","params":{"nStudents":24,"maxFlips":30,"completionMinutes":45,"basePay":8,"maxBonus":9,"perTrialBonus":0.5,"perTrialBonusThreshold":0.05,"exampleCost":0.01},"classroomParams":{"A":{"a":1,"b":4},"B":{"a":4,"b":1},"C":{"a":2,"b":8},"D":{"a":8,"b":2}},"conditions":["nonSeqFull","nonSeqPartial","seqNoFeedback","seqFeedback"],"classroomPairings":[["A","B"],["C","D"]],"coinWeights":[0.2,0.5,0.8],"subjectId":"A13WTEQ06V3B6D","assignmentId":"33JKGHPFYDGB21GPOQTEY1S0ZYGMN1","hitId":"3SD15I2WD2G0NA4TSPXGB81L5S7630","url":"https://gershmanlab.com/experiments/alicia/teaching/experiment/?hitId=3SD15I2WD2G0NA4TSPXGB81L5S7630&workerId=A13WTEQ06V3B6D&assignmentId=33JKGHPFYDGB21GPOQTEY1S0ZYGMN1&a=FGJ39&tp_a=FGJ39&b=33JKGHPFYDGB21GPOQTEY1S0ZYGMN1&tp_b=33JKGHPFYDGB21GPOQTEY1S0ZYGMN1&c=365799&tp_c=365799"},{"rt":null,"stimulus":"Examples sent to student! Waiting for student...","response":null,"trial_type":"html-keyboard-response","trial_index":69,"time_elapsed":576973,"internal_node_id":"0.0-65.0","params":{"nStudents":24,"maxFlips":30,"completionMinutes":45,"basePay":8,"maxBonus":9,"perTrialBonus":0.5,"perTrialBonusThreshold":0.05,"exampleCost":0.01},"classroomParams":{"A":{"a":1,"b":4},"B":{"a":4,"b":1},"C":{"a":2,"b":8},"D":{"a":8,"b":2}},"conditions":["nonSeqFull","nonSeqPartial","seqNoFeedback","seqFeedback"],"classroomPairings":[["A","B"],["C","D"]],"coinWeights":[0.2,0.5,0.8],"subjectId":"A13WTEQ06V3B6D","assignmentId":"33JKGHPFYDGB21GPOQTEY1S0ZYGMN1","hitId":"3SD15I2WD2G0NA4TSPXGB81L5S7630","url":"https://gershmanlab.com/experiments/alicia/teaching/experiment/?hitId=3SD15I2WD2G0NA4TSPXGB81L5S7630&workerId=A13WTEQ06V3B6D&assignmentId=33JKGHPFYDGB21GPOQTEY1S0ZYGMN1&a=FGJ39&tp_a=FGJ39&b=33JKGHPFYDGB21GPOQTEY1S0ZYGMN1&tp_b=33JKGHPFYDGB21GPOQTEY1S0ZYGMN1&c=365799&tp_c=365799"},{"rt":4712,"stimulus":"\n                <p>Student's guess for coin weight: <b style=\"color:Tomato;\">0.20</b></p>\n                <p>You received a bonus of <b>$0.45</b>. Total bonus so far: <b>$1.65</b></b></p>\n                <p></p>\n                <p>Press any key to continue.</p>\n                ","response":" ","trial_type":"html-keyboard-response","trial_index":70,"time_elapsed":581687,"internal_node_id":"0.0-66.0","params":{"nStudents":24,"maxFlips":30,"completionMinutes":45,"basePay":8,"maxBonus":9,"perTrialBonus":0.5,"perTrialBonusThreshold":0.05,"exampleCost":0.01},"classroomParams":{"A":{"a":1,"b":4},"B":{"a":4,"b":1},"C":{"a":2,"b":8},"D":{"a":8,"b":2}},"conditions":["nonSeqFull","nonSeqPartial","seqNoFeedback","seqFeedback"],"classroomPairings":[["A","B"],["C","D"]],"coinWeights":[0.2,0.5,0.8],"subjectId":"A13WTEQ06V3B6D","assignmentId":"33JKGHPFYDGB21GPOQTEY1S0ZYGMN1","hitId":"3SD15I2WD2G0NA4TSPXGB81L5S7630","url":"https://gershmanlab.com/experiments/alicia/teaching/experiment/?hitId=3SD15I2WD2G0NA4TSPXGB81L5S7630&workerId=A13WTEQ06V3B6D&assignmentId=33JKGHPFYDGB21GPOQTEY1S0ZYGMN1&a=FGJ39&tp_a=FGJ39&b=33JKGHPFYDGB21GPOQTEY1S0ZYGMN1&tp_b=33JKGHPFYDGB21GPOQTEY1S0ZYGMN1&c=365799&tp_c=365799"},{"rt":null,"stimulus":"<div style=\"font-size:60px;\">Next student</div>","response":null,"trial_type":"html-keyboard-response","trial_index":71,"time_elapsed":583947,"internal_node_id":"0.0-67.0-0.0","params":{"nStudents":24,"maxFlips":30,"completionMinutes":45,"basePay":8,"maxBonus":9,"perTrialBonus":0.5,"perTrialBonusThreshold":0.05,"exampleCost":0.01},"classroomParams":{"A":{"a":1,"b":4},"B":{"a":4,"b":1},"C":{"a":2,"b":8},"D":{"a":8,"b":2}},"conditions":["nonSeqFull","nonSeqPartial","seqNoFeedback","seqFeedback"],"classroomPairings":[["A","B"],["C","D"]],"coinWeights":[0.2,0.5,0.8],"subjectId":"A13WTEQ06V3B6D","assignmentId":"33JKGHPFYDGB21GPOQTEY1S0ZYGMN1","hitId":"3SD15I2WD2G0NA4TSPXGB81L5S7630","url":"https://gershmanlab.com/experiments/alicia/teaching/experiment/?hitId=3SD15I2WD2G0NA4TSPXGB81L5S7630&workerId=A13WTEQ06V3B6D&assignmentId=33JKGHPFYDGB21GPOQTEY1S0ZYGMN1&a=FGJ39&tp_a=FGJ39&b=33JKGHPFYDGB21GPOQTEY1S0ZYGMN1&tp_b=33JKGHPFYDGB21GPOQTEY1S0ZYGMN1&c=365799&tp_c=365799"},{"rt":7049,"stimulus":"\n            <h4 style=\"color:Orange;\">Student 9</h4>\n            <h2>The weight of your coin is <b style=\"color:Tomato;\">0.5</b>.</h2>\n            <p>In this block, you will be giving <b>two</b> sets of examples to Student 9.</p>\n                <p>You will see the student's guess after the first set of examples. You will also receive feedback at the end of the block.</p>\n            <p>To earn the highest bonus, you will have to <b>take into consideration the student's guess</b> when you choose your second set of examples.</p>","response":0,"trial_type":"html-button-response","trial_index":72,"time_elapsed":590997,"internal_node_id":"0.0-68.0","params":{"nStudents":24,"maxFlips":30,"completionMinutes":45,"basePay":8,"maxBonus":9,"perTrialBonus":0.5,"perTrialBonusThreshold":0.05,"exampleCost":0.01},"classroomParams":{"A":{"a":1,"b":4},"B":{"a":4,"b":1},"C":{"a":2,"b":8},"D":{"a":8,"b":2}},"conditions":["nonSeqFull","nonSeqPartial","seqNoFeedback","seqFeedback"],"classroomPairings":[["A","B"],["C","D"]],"coinWeights":[0.2,0.5,0.8],"subjectId":"A13WTEQ06V3B6D","assignmentId":"33JKGHPFYDGB21GPOQTEY1S0ZYGMN1","hitId":"3SD15I2WD2G0NA4TSPXGB81L5S7630","url":"https://gershmanlab.com/experiments/alicia/teaching/experiment/?hitId=3SD15I2WD2G0NA4TSPXGB81L5S7630&workerId=A13WTEQ06V3B6D&assignmentId=33JKGHPFYDGB21GPOQTEY1S0ZYGMN1&a=FGJ39&tp_a=FGJ39&b=33JKGHPFYDGB21GPOQTEY1S0ZYGMN1&tp_b=33JKGHPFYDGB21GPOQTEY1S0ZYGMN1&c=365799&tp_c=365799"},{"rt":2624,"response":{"heads":"2","tails":"2"},"type":"response","condition":"seqFeedback","trueTheta":0.5,"classrooms":["A","B"],"studentTrueClassroom":"B","exampleSet":"first","trial_type":"survey-html-form","trial_index":73,"time_elapsed":593621,"internal_node_id":"0.0-69.0-0.0","params":{"nStudents":24,"maxFlips":30,"completionMinutes":45,"basePay":8,"maxBonus":9,"perTrialBonus":0.5,"perTrialBonusThreshold":0.05,"exampleCost":0.01},"classroomParams":{"A":{"a":1,"b":4},"B":{"a":4,"b":1},"C":{"a":2,"b":8},"D":{"a":8,"b":2}},"conditions":["nonSeqFull","nonSeqPartial","seqNoFeedback","seqFeedback"],"classroomPairings":[["A","B"],["C","D"]],"coinWeights":[0.2,0.5,0.8],"subjectId":"A13WTEQ06V3B6D","assignmentId":"33JKGHPFYDGB21GPOQTEY1S0ZYGMN1","hitId":"3SD15I2WD2G0NA4TSPXGB81L5S7630","url":"https://gershmanlab.com/experiments/alicia/teaching/experiment/?hitId=3SD15I2WD2G0NA4TSPXGB81L5S7630&workerId=A13WTEQ06V3B6D&assignmentId=33JKGHPFYDGB21GPOQTEY1S0ZYGMN1&a=FGJ39&tp_a=FGJ39&b=33JKGHPFYDGB21GPOQTEY1S0ZYGMN1&tp_b=33JKGHPFYDGB21GPOQTEY1S0ZYGMN1&c=365799&tp_c=365799","heads":2,"tails":2,"studentIndex":8,"studentTrueHypers":{"a":4,"b":1},"studentGuess":0.6666666666666666,"delta":0.16666666666666663,"totalExamples":4,"bonusSoFar":1.65},{"rt":null,"stimulus":"Sending examples to student... ","response":null,"trial_type":"html-keyboard-response","trial_index":74,"time_elapsed":594880,"internal_node_id":"0.0-70.0","params":{"nStudents":24,"maxFlips":30,"completionMinutes":45,"basePay":8,"maxBonus":9,"perTrialBonus":0.5,"perTrialBonusThreshold":0.05,"exampleCost":0.01},"classroomParams":{"A":{"a":1,"b":4},"B":{"a":4,"b":1},"C":{"a":2,"b":8},"D":{"a":8,"b":2}},"conditions":["nonSeqFull","nonSeqPartial","seqNoFeedback","seqFeedback"],"classroomPairings":[["A","B"],["C","D"]],"coinWeights":[0.2,0.5,0.8],"subjectId":"A13WTEQ06V3B6D","assignmentId":"33JKGHPFYDGB21GPOQTEY1S0ZYGMN1","hitId":"3SD15I2WD2G0NA4TSPXGB81L5S7630","url":"https://gershmanlab.com/experiments/alicia/teaching/experiment/?hitId=3SD15I2WD2G0NA4TSPXGB81L5S7630&workerId=A13WTEQ06V3B6D&assignmentId=33JKGHPFYDGB21GPOQTEY1S0ZYGMN1&a=FGJ39&tp_a=FGJ39&b=33JKGHPFYDGB21GPOQTEY1S0ZYGMN1&tp_b=33JKGHPFYDGB21GPOQTEY1S0ZYGMN1&c=365799&tp_c=365799"},{"rt":null,"stimulus":"Examples sent to student! Waiting for student...","response":null,"trial_type":"html-keyboard-response","trial_index":75,"time_elapsed":600884,"internal_node_id":"0.0-71.0","params":{"nStudents":24,"maxFlips":30,"completionMinutes":45,"basePay":8,"maxBonus":9,"perTrialBonus":0.5,"perTrialBonusThreshold":0.05,"exampleCost":0.01},"classroomParams":{"A":{"a":1,"b":4},"B":{"a":4,"b":1},"C":{"a":2,"b":8},"D":{"a":8,"b":2}},"conditions":["nonSeqFull","nonSeqPartial","seqNoFeedback","seqFeedback"],"classroomPairings":[["A","B"],["C","D"]],"coinWeights":[0.2,0.5,0.8],"subjectId":"A13WTEQ06V3B6D","assignmentId":"33JKGHPFYDGB21GPOQTEY1S0ZYGMN1","hitId":"3SD15I2WD2G0NA4TSPXGB81L5S7630","url":"https://gershmanlab.com/experiments/alicia/teaching/experiment/?hitId=3SD15I2WD2G0NA4TSPXGB81L5S7630&workerId=A13WTEQ06V3B6D&assignmentId=33JKGHPFYDGB21GPOQTEY1S0ZYGMN1&a=FGJ39&tp_a=FGJ39&b=33JKGHPFYDGB21GPOQTEY1S0ZYGMN1&tp_b=33JKGHPFYDGB21GPOQTEY1S0ZYGMN1&c=365799&tp_c=365799"},{"rt":3744,"stimulus":"\n                <p>Student's guess for coin weight: <b style=\"color:Tomato;\">0.67</b></p>\n                <p></b></p>\n                <p>You will now send another set of examples to your student. <b>Remember to take your student's guess into consideration so that you can earn the highest bonus possible!</b> </p>\n                <p>Press any key to continue.</p>\n                ","response":" ","trial_type":"html-keyboard-response","trial_index":76,"time_elapsed":604628,"internal_node_id":"0.0-72.0","params":{"nStudents":24,"maxFlips":30,"completionMinutes":45,"basePay":8,"maxBonus":9,"perTrialBonus":0.5,"perTrialBonusThreshold":0.05,"exampleCost":0.01},"classroomParams":{"A":{"a":1,"b":4},"B":{"a":4,"b":1},"C":{"a":2,"b":8},"D":{"a":8,"b":2}},"conditions":["nonSeqFull","nonSeqPartial","seqNoFeedback","seqFeedback"],"classroomPairings":[["A","B"],["C","D"]],"coinWeights":[0.2,0.5,0.8],"subjectId":"A13WTEQ06V3B6D","assignmentId":"33JKGHPFYDGB21GPOQTEY1S0ZYGMN1","hitId":"3SD15I2WD2G0NA4TSPXGB81L5S7630","url":"https://gershmanlab.com/experiments/alicia/teaching/experiment/?hitId=3SD15I2WD2G0NA4TSPXGB81L5S7630&workerId=A13WTEQ06V3B6D&assignmentId=33JKGHPFYDGB21GPOQTEY1S0ZYGMN1&a=FGJ39&tp_a=FGJ39&b=33JKGHPFYDGB21GPOQTEY1S0ZYGMN1&tp_b=33JKGHPFYDGB21GPOQTEY1S0ZYGMN1&c=365799&tp_c=365799"},{"rt":3496,"response":{"heads":"4","tails":"4"},"type":"response","condition":"seqFeedback","trueTheta":0.5,"classrooms":["A","B"],"studentTrueClassroom":"B","exampleSet":"second","trial_type":"survey-html-form","trial_index":77,"time_elapsed":608125,"internal_node_id":"0.0-73.0-0.0","params":{"nStudents":24,"maxFlips":30,"completionMinutes":45,"basePay":8,"maxBonus":9,"perTrialBonus":0.5,"perTrialBonusThreshold":0.05,"exampleCost":0.01},"classroomParams":{"A":{"a":1,"b":4},"B":{"a":4,"b":1},"C":{"a":2,"b":8},"D":{"a":8,"b":2}},"conditions":["nonSeqFull","nonSeqPartial","seqNoFeedback","seqFeedback"],"classroomPairings":[["A","B"],["C","D"]],"coinWeights":[0.2,0.5,0.8],"subjectId":"A13WTEQ06V3B6D","assignmentId":"33JKGHPFYDGB21GPOQTEY1S0ZYGMN1","hitId":"3SD15I2WD2G0NA4TSPXGB81L5S7630","url":"https://gershmanlab.com/experiments/alicia/teaching/experiment/?hitId=3SD15I2WD2G0NA4TSPXGB81L5S7630&workerId=A13WTEQ06V3B6D&assignmentId=33JKGHPFYDGB21GPOQTEY1S0ZYGMN1&a=FGJ39&tp_a=FGJ39&b=33JKGHPFYDGB21GPOQTEY1S0ZYGMN1&tp_b=33JKGHPFYDGB21GPOQTEY1S0ZYGMN1&c=365799&tp_c=365799","firstResponseHeads":2,"firstResponseTails":2,"secondResponseHeads":4,"secondResponseTails":4,"totalHeads":6,"totalTails":6,"studentIndex":8,"studentTrueHypers":{"a":4,"b":1},"studentGuess":0.5882352941176471,"delta":0.08823529411764708,"bonus":0,"bonusSoFar":1.65,"totalExamples":12},{"rt":null,"stimulus":"Sending examples to student... ","response":null,"trial_type":"html-keyboard-response","trial_index":78,"time_elapsed":609636,"internal_node_id":"0.0-74.0","params":{"nStudents":24,"maxFlips":30,"completionMinutes":45,"basePay":8,"maxBonus":9,"perTrialBonus":0.5,"perTrialBonusThreshold":0.05,"exampleCost":0.01},"classroomParams":{"A":{"a":1,"b":4},"B":{"a":4,"b":1},"C":{"a":2,"b":8},"D":{"a":8,"b":2}},"conditions":["nonSeqFull","nonSeqPartial","seqNoFeedback","seqFeedback"],"classroomPairings":[["A","B"],["C","D"]],"coinWeights":[0.2,0.5,0.8],"subjectId":"A13WTEQ06V3B6D","assignmentId":"33JKGHPFYDGB21GPOQTEY1S0ZYGMN1","hitId":"3SD15I2WD2G0NA4TSPXGB81L5S7630","url":"https://gershmanlab.com/experiments/alicia/teaching/experiment/?hitId=3SD15I2WD2G0NA4TSPXGB81L5S7630&workerId=A13WTEQ06V3B6D&assignmentId=33JKGHPFYDGB21GPOQTEY1S0ZYGMN1&a=FGJ39&tp_a=FGJ39&b=33JKGHPFYDGB21GPOQTEY1S0ZYGMN1&tp_b=33JKGHPFYDGB21GPOQTEY1S0ZYGMN1&c=365799&tp_c=365799"},{"rt":null,"stimulus":"Examples sent to student! Waiting for student...","response":null,"trial_type":"html-keyboard-response","trial_index":79,"time_elapsed":615138,"internal_node_id":"0.0-75.0","params":{"nStudents":24,"maxFlips":30,"completionMinutes":45,"basePay":8,"maxBonus":9,"perTrialBonus":0.5,"perTrialBonusThreshold":0.05,"exampleCost":0.01},"classroomParams":{"A":{"a":1,"b":4},"B":{"a":4,"b":1},"C":{"a":2,"b":8},"D":{"a":8,"b":2}},"conditions":["nonSeqFull","nonSeqPartial","seqNoFeedback","seqFeedback"],"classroomPairings":[["A","B"],["C","D"]],"coinWeights":[0.2,0.5,0.8],"subjectId":"A13WTEQ06V3B6D","assignmentId":"33JKGHPFYDGB21GPOQTEY1S0ZYGMN1","hitId":"3SD15I2WD2G0NA4TSPXGB81L5S7630","url":"https://gershmanlab.com/experiments/alicia/teaching/experiment/?hitId=3SD15I2WD2G0NA4TSPXGB81L5S7630&workerId=A13WTEQ06V3B6D&assignmentId=33JKGHPFYDGB21GPOQTEY1S0ZYGMN1&a=FGJ39&tp_a=FGJ39&b=33JKGHPFYDGB21GPOQTEY1S0ZYGMN1&tp_b=33JKGHPFYDGB21GPOQTEY1S0ZYGMN1&c=365799&tp_c=365799"},{"rt":2913,"stimulus":"\n                <p>Student 9's first guess for coin weight: <b style=\"color:Tomato\";>0.67</b></p>\n                <p>Student 9's second guess for coin weight: <b style=\"color:Tomato\";>0.59</b></p>\n                <p>You received a bonus of <b>$0.00</b> based on the student's second guess.</p>\n                <p>Total bonus so far: <b>$1.65</b></p>\n                <p>Press any key to continue.</p>\n                ","response":" ","trial_type":"html-keyboard-response","trial_index":80,"time_elapsed":618053,"internal_node_id":"0.0-76.0","params":{"nStudents":24,"maxFlips":30,"completionMinutes":45,"basePay":8,"maxBonus":9,"perTrialBonus":0.5,"perTrialBonusThreshold":0.05,"exampleCost":0.01},"classroomParams":{"A":{"a":1,"b":4},"B":{"a":4,"b":1},"C":{"a":2,"b":8},"D":{"a":8,"b":2}},"conditions":["nonSeqFull","nonSeqPartial","seqNoFeedback","seqFeedback"],"classroomPairings":[["A","B"],["C","D"]],"coinWeights":[0.2,0.5,0.8],"subjectId":"A13WTEQ06V3B6D","assignmentId":"33JKGHPFYDGB21GPOQTEY1S0ZYGMN1","hitId":"3SD15I2WD2G0NA4TSPXGB81L5S7630","url":"https://gershmanlab.com/experiments/alicia/teaching/experiment/?hitId=3SD15I2WD2G0NA4TSPXGB81L5S7630&workerId=A13WTEQ06V3B6D&assignmentId=33JKGHPFYDGB21GPOQTEY1S0ZYGMN1&a=FGJ39&tp_a=FGJ39&b=33JKGHPFYDGB21GPOQTEY1S0ZYGMN1&tp_b=33JKGHPFYDGB21GPOQTEY1S0ZYGMN1&c=365799&tp_c=365799"},{"rt":null,"stimulus":"<div style=\"font-size:60px;\">Next student</div>","response":null,"trial_type":"html-keyboard-response","trial_index":81,"time_elapsed":620319,"internal_node_id":"0.0-77.0-0.0","params":{"nStudents":24,"maxFlips":30,"completionMinutes":45,"basePay":8,"maxBonus":9,"perTrialBonus":0.5,"perTrialBonusThreshold":0.05,"exampleCost":0.01},"classroomParams":{"A":{"a":1,"b":4},"B":{"a":4,"b":1},"C":{"a":2,"b":8},"D":{"a":8,"b":2}},"conditions":["nonSeqFull","nonSeqPartial","seqNoFeedback","seqFeedback"],"classroomPairings":[["A","B"],["C","D"]],"coinWeights":[0.2,0.5,0.8],"subjectId":"A13WTEQ06V3B6D","assignmentId":"33JKGHPFYDGB21GPOQTEY1S0ZYGMN1","hitId":"3SD15I2WD2G0NA4TSPXGB81L5S7630","url":"https://gershmanlab.com/experiments/alicia/teaching/experiment/?hitId=3SD15I2WD2G0NA4TSPXGB81L5S7630&workerId=A13WTEQ06V3B6D&assignmentId=33JKGHPFYDGB21GPOQTEY1S0ZYGMN1&a=FGJ39&tp_a=FGJ39&b=33JKGHPFYDGB21GPOQTEY1S0ZYGMN1&tp_b=33JKGHPFYDGB21GPOQTEY1S0ZYGMN1&c=365799&tp_c=365799"},{"rt":4286,"stimulus":"\n            <h4 style=\"color:Orange;\">Student 10</h4>\n            <h2>The weight of your coin is <b style=\"color:Tomato;\">0.5</b>.</h2>\n            <p>In this block, you will be giving <b>one</b> set of examples to Student 10.</p>\n                <p>You will receive feedback at the end of the block.</p>\n            <p></p>","response":0,"trial_type":"html-button-response","trial_index":82,"time_elapsed":624606,"internal_node_id":"0.0-78.0","params":{"nStudents":24,"maxFlips":30,"completionMinutes":45,"basePay":8,"maxBonus":9,"perTrialBonus":0.5,"perTrialBonusThreshold":0.05,"exampleCost":0.01},"classroomParams":{"A":{"a":1,"b":4},"B":{"a":4,"b":1},"C":{"a":2,"b":8},"D":{"a":8,"b":2}},"conditions":["nonSeqFull","nonSeqPartial","seqNoFeedback","seqFeedback"],"classroomPairings":[["A","B"],["C","D"]],"coinWeights":[0.2,0.5,0.8],"subjectId":"A13WTEQ06V3B6D","assignmentId":"33JKGHPFYDGB21GPOQTEY1S0ZYGMN1","hitId":"3SD15I2WD2G0NA4TSPXGB81L5S7630","url":"https://gershmanlab.com/experiments/alicia/teaching/experiment/?hitId=3SD15I2WD2G0NA4TSPXGB81L5S7630&workerId=A13WTEQ06V3B6D&assignmentId=33JKGHPFYDGB21GPOQTEY1S0ZYGMN1&a=FGJ39&tp_a=FGJ39&b=33JKGHPFYDGB21GPOQTEY1S0ZYGMN1&tp_b=33JKGHPFYDGB21GPOQTEY1S0ZYGMN1&c=365799&tp_c=365799"},{"rt":2692,"response":{"heads":"4","tails":"4"},"type":"response","condition":"nonSeqPartial","trueTheta":0.5,"classrooms":["C","D"],"studentTrueClassroom":"C","exampleSet":"first","trial_type":"survey-html-form","trial_index":83,"time_elapsed":627300,"internal_node_id":"0.0-79.0-0.0","params":{"nStudents":24,"maxFlips":30,"completionMinutes":45,"basePay":8,"maxBonus":9,"perTrialBonus":0.5,"perTrialBonusThreshold":0.05,"exampleCost":0.01},"classroomParams":{"A":{"a":1,"b":4},"B":{"a":4,"b":1},"C":{"a":2,"b":8},"D":{"a":8,"b":2}},"conditions":["nonSeqFull","nonSeqPartial","seqNoFeedback","seqFeedback"],"classroomPairings":[["A","B"],["C","D"]],"coinWeights":[0.2,0.5,0.8],"subjectId":"A13WTEQ06V3B6D","assignmentId":"33JKGHPFYDGB21GPOQTEY1S0ZYGMN1","hitId":"3SD15I2WD2G0NA4TSPXGB81L5S7630","url":"https://gershmanlab.com/experiments/alicia/teaching/experiment/?hitId=3SD15I2WD2G0NA4TSPXGB81L5S7630&workerId=A13WTEQ06V3B6D&assignmentId=33JKGHPFYDGB21GPOQTEY1S0ZYGMN1&a=FGJ39&tp_a=FGJ39&b=33JKGHPFYDGB21GPOQTEY1S0ZYGMN1&tp_b=33JKGHPFYDGB21GPOQTEY1S0ZYGMN1&c=365799&tp_c=365799","heads":4,"tails":4,"studentIndex":9,"studentTrueHypers":{"a":2,"b":8},"studentGuess":0.3333333333333333,"delta":0.16666666666666669,"totalExamples":8,"bonus":0,"bonusSoFar":1.65},{"rt":null,"stimulus":"Sending examples to student... ","response":null,"trial_type":"html-keyboard-response","trial_index":84,"time_elapsed":629054,"internal_node_id":"0.0-80.0","params":{"nStudents":24,"maxFlips":30,"completionMinutes":45,"basePay":8,"maxBonus":9,"perTrialBonus":0.5,"perTrialBonusThreshold":0.05,"exampleCost":0.01},"classroomParams":{"A":{"a":1,"b":4},"B":{"a":4,"b":1},"C":{"a":2,"b":8},"D":{"a":8,"b":2}},"conditions":["nonSeqFull","nonSeqPartial","seqNoFeedback","seqFeedback"],"classroomPairings":[["A","B"],["C","D"]],"coinWeights":[0.2,0.5,0.8],"subjectId":"A13WTEQ06V3B6D","assignmentId":"33JKGHPFYDGB21GPOQTEY1S0ZYGMN1","hitId":"3SD15I2WD2G0NA4TSPXGB81L5S7630","url":"https://gershmanlab.com/experiments/alicia/teaching/experiment/?hitId=3SD15I2WD2G0NA4TSPXGB81L5S76