[{"rt":2637,"stimulus":"Welcome to the experiment. Press any key to begin.","response":" ","trial_type":"html-keyboard-response","trial_index":0,"time_elapsed":2644,"internal_node_id":"0.0-0.0","params":{"nStudents":24,"maxFlips":30,"completionMinutes":45,"basePay":8,"maxBonus":9,"perTrialBonus":0.5,"perTrialBonusThreshold":0.05,"exampleCost":0.01},"classroomParams":{"A":{"a":1,"b":4},"B":{"a":4,"b":1},"C":{"a":2,"b":8},"D":{"a":8,"b":2}},"conditions":["nonSeqFull","nonSeqPartial","seqNoFeedback","seqFeedback"],"classroomPairings":[["A","B"],["C","D"]],"coinWeights":[0.2,0.5,0.8],"subjectId":"A16335MOISDG1F","assignmentId":"3YZ8UPK3VU8BO5O782BM90FIDG5CU1","hitId":"3E9VAUV7BW02QFDK7N7IH7ZKACRYAN","url":"https://gershmanlab.com/experiments/alicia/teaching/experiment/?hitId=3E9VAUV7BW02QFDK7N7IH7ZKACRYAN&workerId=A16335MOISDG1F&assignmentId=3YZ8UPK3VU8BO5O782BM90FIDG5CU1&a=3UZY9&tp_a=3UZY9&b=3YZ8UPK3VU8BO5O782BM90FIDG5CU1&tp_b=3YZ8UPK3VU8BO5O782BM90FIDG5CU1&c=365799&tp_c=365799"},{"rt":3748,"stimulus":"\n        <h3>Please read this consent agreement carefully before deciding whether to participate in this experiment.</h3>\n        <p><b>Purpose of the research:</b> To examine how people teach effectively.</p>\n        <p><b>What you will do in this research:</b> You will teach students the weights of different coins.</p>\n        <p><b>Time required:</b> This experiment will take 45 minutes to complete.</p>\n        <p><b>Risks:</b> There are no anticipated risks associated with participating in this study.             The effects of participating should be comparable to those you would experience from viewing a computer monitor             and using a mouse and keyboard for the duration of the experiment.</p>\n        <p><b>Benefits:</b> The study provides important information about the nature of teaching.</p>\n        <p><b>Compensation:</b> You will receive <b>$8</b> for completing the experiment and a performance bonus of up to <b>$9</b>.</p>\n        <p><b>Confidentiality:</b> Your participation in this study will remain confidential.             No personally identifiable information will be associated with your data.             Your de-identified data may be shared with other researchers and used in future projects.</p>\n        <p><b>Participation and withdrawal:</b> Your participation in this study is completely voluntary and             you may refuse to participate or you may choose to withdraw at any time without penalty or loss of\n            benefits to which you are otherwise entitled.</p>\n        <p><b>How to contact the researcher:</b> If you have questions or concerns about your participation            or payment, or want to request a summary of research findings, please contact\n            Alicia Chen, aliciachen@college.harvard.edu.</p>\n        <p><b>Whom to contact about your rights in this research:</b> For questions, concerns, suggestions,             or complaints that have not been or cannot be addressed by the researcher, or to report             research-related harm, please contact the Committee on the Use of Human Subjects in Research at Harvard University,             1414 Massachusetts Avenue, Second Floor, Cambridge, MA 02138. Phone: 617-496-2847. Email: cuhs@fas.harvard.edu.</p>\n        ","response":0,"trial_type":"html-button-response","trial_index":1,"time_elapsed":6394,"internal_node_id":"0.0-1.0","params":{"nStudents":24,"maxFlips":30,"completionMinutes":45,"basePay":8,"maxBonus":9,"perTrialBonus":0.5,"perTrialBonusThreshold":0.05,"exampleCost":0.01},"classroomParams":{"A":{"a":1,"b":4},"B":{"a":4,"b":1},"C":{"a":2,"b":8},"D":{"a":8,"b":2}},"conditions":["nonSeqFull","nonSeqPartial","seqNoFeedback","seqFeedback"],"classroomPairings":[["A","B"],["C","D"]],"coinWeights":[0.2,0.5,0.8],"subjectId":"A16335MOISDG1F","assignmentId":"3YZ8UPK3VU8BO5O782BM90FIDG5CU1","hitId":"3E9VAUV7BW02QFDK7N7IH7ZKACRYAN","url":"https://gershmanlab.com/experiments/alicia/teaching/experiment/?hitId=3E9VAUV7BW02QFDK7N7IH7ZKACRYAN&workerId=A16335MOISDG1F&assignmentId=3YZ8UPK3VU8BO5O782BM90FIDG5CU1&a=3UZY9&tp_a=3UZY9&b=3YZ8UPK3VU8BO5O782BM90FIDG5CU1&tp_b=3YZ8UPK3VU8BO5O782BM90FIDG5CU1&c=365799&tp_c=365799"},{"view_history":[{"page_index":0,"viewing_time":2689},{"page_index":1,"viewing_time":1582},{"page_index":0,"viewing_time":2509},{"page_index":1,"viewing_time":13521},{"page_index":0,"viewing_time":20258},{"page_index":1,"viewing_time":2082},{"page_index":2,"viewing_time":39890},{"page_index":3,"viewing_time":20746},{"page_index":4,"viewing_time":12309},{"page_index":5,"viewing_time":25559},{"page_index":6,"viewing_time":50433}],"rt":191578,"trial_type":"instructions","trial_index":2,"time_elapsed":197974,"internal_node_id":"0.0-2.0-0.0","params":{"nStudents":24,"maxFlips":30,"completionMinutes":45,"basePay":8,"maxBonus":9,"perTrialBonus":0.5,"perTrialBonusThreshold":0.05,"exampleCost":0.01},"classroomParams":{"A":{"a":1,"b":4},"B":{"a":4,"b":1},"C":{"a":2,"b":8},"D":{"a":8,"b":2}},"conditions":["nonSeqFull","nonSeqPartial","seqNoFeedback","seqFeedback"],"classroomPairings":[["A","B"],["C","D"]],"coinWeights":[0.2,0.5,0.8],"subjectId":"A16335MOISDG1F","assignmentId":"3YZ8UPK3VU8BO5O782BM90FIDG5CU1","hitId":"3E9VAUV7BW02QFDK7N7IH7ZKACRYAN","url":"https://gershmanlab.com/experiments/alicia/teaching/experiment/?hitId=3E9VAUV7BW02QFDK7N7IH7ZKACRYAN&workerId=A16335MOISDG1F&assignmentId=3YZ8UPK3VU8BO5O782BM90FIDG5CU1&a=3UZY9&tp_a=3UZY9&b=3YZ8UPK3VU8BO5O782BM90FIDG5CU1&tp_b=3YZ8UPK3VU8BO5O782BM90FIDG5CU1&c=365799&tp_c=365799"},{"rt":81116,"response":{"Q0":"Students in different classrooms will have seen a different number of heads and tails before seeing the examples you select for them.","Q1":"By <b>considering the student's classroom information</b> so that I can teach efficiently and accurately/helpfully at the same time (because each example I give to the student costs money!).","Q2":"The coin lands heads 90% of the time.","Q3":"Yes, I might encounter the same student twice.","Q4":"The students are also on the same alien planet as you, where coins can be unfair.","Q5":"Based on the student's second (and final) guess."},"question_order":[5,2,1,4,3,0],"trial_type":"survey-multi-choice","trial_index":3,"time_elapsed":279091,"internal_node_id":"0.0-2.0-1.0","params":{"nStudents":24,"maxFlips":30,"completionMinutes":45,"basePay":8,"maxBonus":9,"perTrialBonus":0.5,"perTrialBonusThreshold":0.05,"exampleCost":0.01},"classroomParams":{"A":{"a":1,"b":4},"B":{"a":4,"b":1},"C":{"a":2,"b":8},"D":{"a":8,"b":2}},"conditions":["nonSeqFull","nonSeqPartial","seqNoFeedback","seqFeedback"],"classroomPairings":[["A","B"],["C","D"]],"coinWeights":[0.2,0.5,0.8],"subjectId":"A16335MOISDG1F","assignmentId":"3YZ8UPK3VU8BO5O782BM90FIDG5CU1","hitId":"3E9VAUV7BW02QFDK7N7IH7ZKACRYAN","url":"https://gershmanlab.com/experiments/alicia/teaching/experiment/?hitId=3E9VAUV7BW02QFDK7N7IH7ZKACRYAN&workerId=A16335MOISDG1F&assignmentId=3YZ8UPK3VU8BO5O782BM90FIDG5CU1&a=3UZY9&tp_a=3UZY9&b=3YZ8UPK3VU8BO5O782BM90FIDG5CU1&tp_b=3YZ8UPK3VU8BO5O782BM90FIDG5CU1&c=365799&tp_c=365799","pass":false},{"rt":2897,"stimulus":"Oops, you have missed question(s) on the comprehension check! We'll show you the instructions again.","response":0,"trial_type":"html-button-response","trial_index":4,"time_elapsed":281991,"internal_node_id":"0.0-2.0-2.0-0.0","params":{"nStudents":24,"maxFlips":30,"completionMinutes":45,"basePay":8,"maxBonus":9,"perTrialBonus":0.5,"perTrialBonusThreshold":0.05,"exampleCost":0.01},"classroomParams":{"A":{"a":1,"b":4},"B":{"a":4,"b":1},"C":{"a":2,"b":8},"D":{"a":8,"b":2}},"conditions":["nonSeqFull","nonSeqPartial","seqNoFeedback","seqFeedback"],"classroomPairings":[["A","B"],["C","D"]],"coinWeights":[0.2,0.5,0.8],"subjectId":"A16335MOISDG1F","assignmentId":"3YZ8UPK3VU8BO5O782BM90FIDG5CU1","hitId":"3E9VAUV7BW02QFDK7N7IH7ZKACRYAN","url":"https://gershmanlab.com/experiments/alicia/teaching/experiment/?hitId=3E9VAUV7BW02QFDK7N7IH7ZKACRYAN&workerId=A16335MOISDG1F&assignmentId=3YZ8UPK3VU8BO5O782BM90FIDG5CU1&a=3UZY9&tp_a=3UZY9&b=3YZ8UPK3VU8BO5O782BM90FIDG5CU1&tp_b=3YZ8UPK3VU8BO5O782BM90FIDG5CU1&c=365799&tp_c=365799"},{"view_history":[{"page_index":0,"viewing_time":4228},{"page_index":1,"viewing_time":1686},{"page_index":2,"viewing_time":1797},{"page_index":1,"viewing_time":1440},{"page_index":2,"viewing_time":10945},{"page_index":3,"viewing_time":7965},{"page_index":4,"viewing_time":6730},{"page_index":5,"viewing_time":20261},{"page_index":6,"viewing_time":23206}],"rt":78258,"trial_type":"instructions","trial_index":5,"time_elapsed":360250,"internal_node_id":"0.0-2.1-0.1","params":{"nStudents":24,"maxFlips":30,"completionMinutes":45,"basePay":8,"maxBonus":9,"perTrialBonus":0.5,"perTrialBonusThreshold":0.05,"exampleCost":0.01},"classroomParams":{"A":{"a":1,"b":4},"B":{"a":4,"b":1},"C":{"a":2,"b":8},"D":{"a":8,"b":2}},"conditions":["nonSeqFull","nonSeqPartial","seqNoFeedback","seqFeedback"],"classroomPairings":[["A","B"],["C","D"]],"coinWeights":[0.2,0.5,0.8],"subjectId":"A16335MOISDG1F","assignmentId":"3YZ8UPK3VU8BO5O782BM90FIDG5CU1","hitId":"3E9VAUV7BW02QFDK7N7IH7ZKACRYAN","url":"https://gershmanlab.com/experiments/alicia/teaching/experiment/?hitId=3E9VAUV7BW02QFDK7N7IH7ZKACRYAN&workerId=A16335MOISDG1F&assignmentId=3YZ8UPK3VU8BO5O782BM90FIDG5CU1&a=3UZY9&tp_a=3UZY9&b=3YZ8UPK3VU8BO5O782BM90FIDG5CU1&tp_b=3YZ8UPK3VU8BO5O782BM90FIDG5CU1&c=365799&tp_c=365799"},{"rt":39420,"response":{"Q0":"Students in different classrooms will have seen a different number of heads and tails before seeing the examples you select for them.","Q1":"By <b>considering the student's classroom information</b> so that I can teach efficiently and accurately/helpfully at the same time (because each example I give to the student costs money!).","Q2":"The coin lands heads 90% of the time.","Q3":"No, I will teach a <b>new</b> student each time.","Q4":"The students are also on the same alien planet as you, where coins can be unfair.","Q5":"Based on the student's second (and final) guess."},"question_order":[3,2,4,0,5,1],"trial_type":"survey-multi-choice","trial_index":6,"time_elapsed":399671,"internal_node_id":"0.0-2.1-1.1","params":{"nStudents":24,"maxFlips":30,"completionMinutes":45,"basePay":8,"maxBonus":9,"perTrialBonus":0.5,"perTrialBonusThreshold":0.05,"exampleCost":0.01},"classroomParams":{"A":{"a":1,"b":4},"B":{"a":4,"b":1},"C":{"a":2,"b":8},"D":{"a":8,"b":2}},"conditions":["nonSeqFull","nonSeqPartial","seqNoFeedback","seqFeedback"],"classroomPairings":[["A","B"],["C","D"]],"coinWeights":[0.2,0.5,0.8],"subjectId":"A16335MOISDG1F","assignmentId":"3YZ8UPK3VU8BO5O782BM90FIDG5CU1","hitId":"3E9VAUV7BW02QFDK7N7IH7ZKACRYAN","url":"https://gershmanlab.com/experiments/alicia/teaching/experiment/?hitId=3E9VAUV7BW02QFDK7N7IH7ZKACRYAN&workerId=A16335MOISDG1F&assignmentId=3YZ8UPK3VU8BO5O782BM90FIDG5CU1&a=3UZY9&tp_a=3UZY9&b=3YZ8UPK3VU8BO5O782BM90FIDG5CU1&tp_b=3YZ8UPK3VU8BO5O782BM90FIDG5CU1&c=365799&tp_c=365799","pass":true},{"rt":null,"stimulus":"<div style=\"font-size:30px;\">Congrats on passing the comprehension quiz! The experiment will begin in a few seconds.</div>","response":null,"trial_type":"html-keyboard-response","trial_index":7,"time_elapsed":402674,"internal_node_id":"0.0-3.0","params":{"nStudents":24,"maxFlips":30,"completionMinutes":45,"basePay":8,"maxBonus":9,"perTrialBonus":0.5,"perTrialBonusThreshold":0.05,"exampleCost":0.01},"classroomParams":{"A":{"a":1,"b":4},"B":{"a":4,"b":1},"C":{"a":2,"b":8},"D":{"a":8,"b":2}},"conditions":["nonSeqFull","nonSeqPartial","seqNoFeedback","seqFeedback"],"classroomPairings":[["A","B"],["C","D"]],"coinWeights":[0.2,0.5,0.8],"subjectId":"A16335MOISDG1F","assignmentId":"3YZ8UPK3VU8BO5O782BM90FIDG5CU1","hitId":"3E9VAUV7BW02QFDK7N7IH7ZKACRYAN","url":"https://gershmanlab.com/experiments/alicia/teaching/experiment/?hitId=3E9VAUV7BW02QFDK7N7IH7ZKACRYAN&workerId=A16335MOISDG1F&assignmentId=3YZ8UPK3VU8BO5O782BM90FIDG5CU1&a=3UZY9&tp_a=3UZY9&b=3YZ8UPK3VU8BO5O782BM90FIDG5CU1&tp_b=3YZ8UPK3VU8BO5O782BM90FIDG5CU1&c=365799&tp_c=365799"},{"rt":null,"stimulus":"<div style=\"font-size:50px;\">First student</div>","response":null,"trial_type":"html-keyboard-response","trial_index":8,"time_elapsed":405685,"internal_node_id":"0.0-4.0","params":{"nStudents":24,"maxFlips":30,"completionMinutes":45,"basePay":8,"maxBonus":9,"perTrialBonus":0.5,"perTrialBonusThreshold":0.05,"exampleCost":0.01},"classroomParams":{"A":{"a":1,"b":4},"B":{"a":4,"b":1},"C":{"a":2,"b":8},"D":{"a":8,"b":2}},"conditions":["nonSeqFull","nonSeqPartial","seqNoFeedback","seqFeedback"],"classroomPairings":[["A","B"],["C","D"]],"coinWeights":[0.2,0.5,0.8],"subjectId":"A16335MOISDG1F","assignmentId":"3YZ8UPK3VU8BO5O782BM90FIDG5CU1","hitId":"3E9VAUV7BW02QFDK7N7IH7ZKACRYAN","url":"https://gershmanlab.com/experiments/alicia/teaching/experiment/?hitId=3E9VAUV7BW02QFDK7N7IH7ZKACRYAN&workerId=A16335MOISDG1F&assignmentId=3YZ8UPK3VU8BO5O782BM90FIDG5CU1&a=3UZY9&tp_a=3UZY9&b=3YZ8UPK3VU8BO5O782BM90FIDG5CU1&tp_b=3YZ8UPK3VU8BO5O782BM90FIDG5CU1&c=365799&tp_c=365799"},{"rt":8461,"stimulus":"\n            <h4 style=\"color:Orange;\">Student 1</h4>\n            <h2>The weight of your coin is <b style=\"color:Tomato;\">0.2</b>.</h2>\n            <p>In this block, you will be giving <b>one</b> set of examples to Student 1.</p>\n                <p>You will receive feedback at the end of the block.</p>\n            <p></p>","response":0,"trial_type":"html-button-response","trial_index":9,"time_elapsed":414149,"internal_node_id":"0.0-5.0","params":{"nStudents":24,"maxFlips":30,"completionMinutes":45,"basePay":8,"maxBonus":9,"perTrialBonus":0.5,"perTrialBonusThreshold":0.05,"exampleCost":0.01},"classroomParams":{"A":{"a":1,"b":4},"B":{"a":4,"b":1},"C":{"a":2,"b":8},"D":{"a":8,"b":2}},"conditions":["nonSeqFull","nonSeqPartial","seqNoFeedback","seqFeedback"],"classroomPairings":[["A","B"],["C","D"]],"coinWeights":[0.2,0.5,0.8],"subjectId":"A16335MOISDG1F","assignmentId":"3YZ8UPK3VU8BO5O782BM90FIDG5CU1","hitId":"3E9VAUV7BW02QFDK7N7IH7ZKACRYAN","url":"https://gershmanlab.com/experiments/alicia/teaching/experiment/?hitId=3E9VAUV7BW02QFDK7N7IH7ZKACRYAN&workerId=A16335MOISDG1F&assignmentId=3YZ8UPK3VU8BO5O782BM90FIDG5CU1&a=3UZY9&tp_a=3UZY9&b=3YZ8UPK3VU8BO5O782BM90FIDG5CU1&tp_b=3YZ8UPK3VU8BO5O782BM90FIDG5CU1&c=365799&tp_c=365799"},{"rt":34649,"response":{"heads":"2","tails":"8"},"type":"response","condition":"nonSeqPartial","trueTheta":0.2,"classrooms":["C","D"],"studentTrueClassroom":"C","exampleSet":"first","trial_type":"survey-html-form","trial_index":10,"time_elapsed":448798,"internal_node_id":"0.0-6.0-0.0","params":{"nStudents":24,"maxFlips":30,"completionMinutes":45,"basePay":8,"maxBonus":9,"perTrialBonus":0.5,"perTrialBonusThreshold":0.05,"exampleCost":0.01},"classroomParams":{"A":{"a":1,"b":4},"B":{"a":4,"b":1},"C":{"a":2,"b":8},"D":{"a":8,"b":2}},"conditions":["nonSeqFull","nonSeqPartial","seqNoFeedback","seqFeedback"],"classroomPairings":[["A","B"],["C","D"]],"coinWeights":[0.2,0.5,0.8],"subjectId":"A16335MOISDG1F","assignmentId":"3YZ8UPK3VU8BO5O782BM90FIDG5CU1","hitId":"3E9VAUV7BW02QFDK7N7IH7ZKACRYAN","url":"https://gershmanlab.com/experiments/alicia/teaching/experiment/?hitId=3E9VAUV7BW02QFDK7N7IH7ZKACRYAN&workerId=A16335MOISDG1F&assignmentId=3YZ8UPK3VU8BO5O782BM90FIDG5CU1&a=3UZY9&tp_a=3UZY9&b=3YZ8UPK3VU8BO5O782BM90FIDG5CU1&tp_b=3YZ8UPK3VU8BO5O782BM90FIDG5CU1&c=365799&tp_c=365799","heads":2,"tails":8,"studentIndex":0,"studentTrueHypers":{"a":2,"b":8},"studentGuess":0.2,"delta":0,"totalExamples":10,"bonus":0.4,"bonusSoFar":0.4},{"rt":null,"stimulus":"Sending examples to student... ","response":null,"trial_type":"html-keyboard-response","trial_index":11,"time_elapsed":450805,"internal_node_id":"0.0-7.0","params":{"nStudents":24,"maxFlips":30,"completionMinutes":45,"basePay":8,"maxBonus":9,"perTrialBonus":0.5,"perTrialBonusThreshold":0.05,"exampleCost":0.01},"classroomParams":{"A":{"a":1,"b":4},"B":{"a":4,"b":1},"C":{"a":2,"b":8},"D":{"a":8,"b":2}},"conditions":["nonSeqFull","nonSeqPartial","seqNoFeedback","seqFeedback"],"classroomPairings":[["A","B"],["C","D"]],"coinWeights":[0.2,0.5,0.8],"subjectId":"A16335MOISDG1F","assignmentId":"3YZ8UPK3VU8BO5O782BM90FIDG5CU1","hitId":"3E9VAUV7BW02QFDK7N7IH7ZKACRYAN","url":"https://gershmanlab.com/experiments/alicia/teaching/experiment/?hitId=3E9VAUV7BW02QFDK7N7IH7ZKACRYAN&workerId=A16335MOISDG1F&assignmentId=3YZ8UPK3VU8BO5O782BM90FIDG5CU1&a=3UZY9&tp_a=3UZY9&b=3YZ8UPK3VU8BO5O782BM90FIDG5CU1&tp_b=3YZ8UPK3VU8BO5O782BM90FIDG5CU1&c=365799&tp_c=365799"},{"rt":null,"stimulus":"Examples sent to student! Waiting for student...","response":null,"trial_type":"html-keyboard-response","trial_index":12,"time_elapsed":455822,"internal_node_id":"0.0-8.0","params":{"nStudents":24,"maxFlips":30,"completionMinutes":45,"basePay":8,"maxBonus":9,"perTrialBonus":0.5,"perTrialBonusThreshold":0.05,"exampleCost":0.01},"classroomParams":{"A":{"a":1,"b":4},"B":{"a":4,"b":1},"C":{"a":2,"b":8},"D":{"a":8,"b":2}},"conditions":["nonSeqFull","nonSeqPartial","seqNoFeedback","seqFeedback"],"classroomPairings":[["A","B"],["C","D"]],"coinWeights":[0.2,0.5,0.8],"subjectId":"A16335MOISDG1F","assignmentId":"3YZ8UPK3VU8BO5O782BM90FIDG5CU1","hitId":"3E9VAUV7BW02QFDK7N7IH7ZKACRYAN","url":"https://gershmanlab.com/experiments/alicia/teaching/experiment/?hitId=3E9VAUV7BW02QFDK7N7IH7ZKACRYAN&workerId=A16335MOISDG1F&assignmentId=3YZ8UPK3VU8BO5O782BM90FIDG5CU1&a=3UZY9&tp_a=3UZY9&b=3YZ8UPK3VU8BO5O782BM90FIDG5CU1&tp_b=3YZ8UPK3VU8BO5O782BM90FIDG5CU1&c=365799&tp_c=365799"},{"rt":5872,"stimulus":"\n                <p>Student's guess for coin weight: <b style=\"color:Tomato;\">0.20</b></p>\n                <p>You received a bonus of <b>$0.4</b>. Total bonus so far: <b>$0.40</b></b></p>\n                <p></p>\n                <p>Press any key to continue.</p>\n                ","response":" ","trial_type":"html-keyboard-response","trial_index":13,"time_elapsed":461695,"internal_node_id":"0.0-9.0","params":{"nStudents":24,"maxFlips":30,"completionMinutes":45,"basePay":8,"maxBonus":9,"perTrialBonus":0.5,"perTrialBonusThreshold":0.05,"exampleCost":0.01},"classroomParams":{"A":{"a":1,"b":4},"B":{"a":4,"b":1},"C":{"a":2,"b":8},"D":{"a":8,"b":2}},"conditions":["nonSeqFull","nonSeqPartial","seqNoFeedback","seqFeedback"],"classroomPairings":[["A","B"],["C","D"]],"coinWeights":[0.2,0.5,0.8],"subjectId":"A16335MOISDG1F","assignmentId":"3YZ8UPK3VU8BO5O782BM90FIDG5CU1","hitId":"3E9VAUV7BW02QFDK7N7IH7ZKACRYAN","url":"https://gershmanlab.com/experiments/alicia/teaching/experiment/?hitId=3E9VAUV7BW02QFDK7N7IH7ZKACRYAN&workerId=A16335MOISDG1F&assignmentId=3YZ8UPK3VU8BO5O782BM90FIDG5CU1&a=3UZY9&tp_a=3UZY9&b=3YZ8UPK3VU8BO5O782BM90FIDG5CU1&tp_b=3YZ8UPK3VU8BO5O782BM90FIDG5CU1&c=365799&tp_c=365799"},{"rt":null,"stimulus":"<div style=\"font-size:60px;\">Next student</div>","response":null,"trial_type":"html-keyboard-response","trial_index":14,"time_elapsed":464210,"internal_node_id":"0.0-10.0-0.0","params":{"nStudents":24,"maxFlips":30,"completionMinutes":45,"basePay":8,"maxBonus":9,"perTrialBonus":0.5,"perTrialBonusThreshold":0.05,"exampleCost":0.01},"classroomParams":{"A":{"a":1,"b":4},"B":{"a":4,"b":1},"C":{"a":2,"b":8},"D":{"a":8,"b":2}},"conditions":["nonSeqFull","nonSeqPartial","seqNoFeedback","seqFeedback"],"classroomPairings":[["A","B"],["C","D"]],"coinWeights":[0.2,0.5,0.8],"subjectId":"A16335MOISDG1F","assignmentId":"3YZ8UPK3VU8BO5O782BM90FIDG5CU1","hitId":"3E9VAUV7BW02QFDK7N7IH7ZKACRYAN","url":"https://gershmanlab.com/experiments/alicia/teaching/experiment/?hitId=3E9VAUV7BW02QFDK7N7IH7ZKACRYAN&workerId=A16335MOISDG1F&assignmentId=3YZ8UPK3VU8BO5O782BM90FIDG5CU1&a=3UZY9&tp_a=3UZY9&b=3YZ8UPK3VU8BO5O782BM90FIDG5CU1&tp_b=3YZ8UPK3VU8BO5O782BM90FIDG5CU1&c=365799&tp_c=365799"},{"rt":1847,"stimulus":"\n            <h4 style=\"color:Orange;\">Student 2</h4>\n            <h2>The weight of your coin is <b style=\"color:Tomato;\">0.8</b>.</h2>\n            <p>In this block, you will be giving <b>two</b> sets of examples to Student 2.</p>\n                <p>You will receive feedback at the end of the block.</p>\n            <p></p>","response":0,"trial_type":"html-button-response","trial_index":15,"time_elapsed":466059,"internal_node_id":"0.0-11.0","params":{"nStudents":24,"maxFlips":30,"completionMinutes":45,"basePay":8,"maxBonus":9,"perTrialBonus":0.5,"perTrialBonusThreshold":0.05,"exampleCost":0.01},"classroomParams":{"A":{"a":1,"b":4},"B":{"a":4,"b":1},"C":{"a":2,"b":8},"D":{"a":8,"b":2}},"conditions":["nonSeqFull","nonSeqPartial","seqNoFeedback","seqFeedback"],"classroomPairings":[["A","B"],["C","D"]],"coinWeights":[0.2,0.5,0.8],"subjectId":"A16335MOISDG1F","assignmentId":"3YZ8UPK3VU8BO5O782BM90FIDG5CU1","hitId":"3E9VAUV7BW02QFDK7N7IH7ZKACRYAN","url":"https://gershmanlab.com/experiments/alicia/teaching/experiment/?hitId=3E9VAUV7BW02QFDK7N7IH7ZKACRYAN&workerId=A16335MOISDG1F&assignmentId=3YZ8UPK3VU8BO5O782BM90FIDG5CU1&a=3UZY9&tp_a=3UZY9&b=3YZ8UPK3VU8BO5O782BM90FIDG5CU1&tp_b=3YZ8UPK3VU8BO5O782BM90FIDG5CU1&c=365799&tp_c=365799"},{"rt":7656,"response":{"heads":"8","tails":"2"},"type":"response","condition":"seqNoFeedback","trueTheta":0.8,"classrooms":["C","D"],"studentTrueClassroom":"C","exampleSet":"first","trial_type":"survey-html-form","trial_index":16,"time_elapsed":473716,"internal_node_id":"0.0-12.0-0.0","params":{"nStudents":24,"maxFlips":30,"completionMinutes":45,"basePay":8,"maxBonus":9,"perTrialBonus":0.5,"perTrialBonusThreshold":0.05,"exampleCost":0.01},"classroomParams":{"A":{"a":1,"b":4},"B":{"a":4,"b":1},"C":{"a":2,"b":8},"D":{"a":8,"b":2}},"conditions":["nonSeqFull","nonSeqPartial","seqNoFeedback","seqFeedback"],"classroomPairings":[["A","B"],["C","D"]],"coinWeights":[0.2,0.5,0.8],"subjectId":"A16335MOISDG1F","assignmentId":"3YZ8UPK3VU8BO5O782BM90FIDG5CU1","hitId":"3E9VAUV7BW02QFDK7N7IH7ZKACRYAN","url":"https://gershmanlab.com/experiments/alicia/teaching/experiment/?hitId=3E9VAUV7BW02QFDK7N7IH7ZKACRYAN&workerId=A16335MOISDG1F&assignmentId=3YZ8UPK3VU8BO5O782BM90FIDG5CU1&a=3UZY9&tp_a=3UZY9&b=3YZ8UPK3VU8BO5O782BM90FIDG5CU1&tp_b=3YZ8UPK3VU8BO5O782BM90FIDG5CU1&c=365799&tp_c=365799","heads":8,"tails":2,"studentIndex":1,"studentTrueHypers":{"a":2,"b":8},"studentGuess":0.5,"delta":0.30000000000000004,"totalExamples":10,"bonusSoFar":0.4},{"rt":null,"stimulus":"Sending examples to student... ","response":null,"trial_type":"html-keyboard-response","trial_index":17,"time_elapsed":475727,"internal_node_id":"0.0-13.0","params":{"nStudents":24,"maxFlips":30,"completionMinutes":45,"basePay":8,"maxBonus":9,"perTrialBonus":0.5,"perTrialBonusThreshold":0.05,"exampleCost":0.01},"classroomParams":{"A":{"a":1,"b":4},"B":{"a":4,"b":1},"C":{"a":2,"b":8},"D":{"a":8,"b":2}},"conditions":["nonSeqFull","nonSeqPartial","seqNoFeedback","seqFeedback"],"classroomPairings":[["A","B"],["C","D"]],"coinWeights":[0.2,0.5,0.8],"subjectId":"A16335MOISDG1F","assignmentId":"3YZ8UPK3VU8BO5O782BM90FIDG5CU1","hitId":"3E9VAUV7BW02QFDK7N7IH7ZKACRYAN","url":"https://gershmanlab.com/experiments/alicia/teaching/experiment/?hitId=3E9VAUV7BW02QFDK7N7IH7ZKACRYAN&workerId=A16335MOISDG1F&assignmentId=3YZ8UPK3VU8BO5O782BM90FIDG5CU1&a=3UZY9&tp_a=3UZY9&b=3YZ8UPK3VU8BO5O782BM90FIDG5CU1&tp_b=3YZ8UPK3VU8BO5O782BM90FIDG5CU1&c=365799&tp_c=365799"},{"rt":null,"stimulus":"Examples sent to student! Waiting for student...","response":null,"trial_type":"html-keyboard-response","trial_index":18,"time_elapsed":479730,"internal_node_id":"0.0-14.0","params":{"nStudents":24,"maxFlips":30,"completionMinutes":45,"basePay":8,"maxBonus":9,"perTrialBonus":0.5,"perTrialBonusThreshold":0.05,"exampleCost":0.01},"classroomParams":{"A":{"a":1,"b":4},"B":{"a":4,"b":1},"C":{"a":2,"b":8},"D":{"a":8,"b":2}},"conditions":["nonSeqFull","nonSeqPartial","seqNoFeedback","seqFeedback"],"classroomPairings":[["A","B"],["C","D"]],"coinWeights":[0.2,0.5,0.8],"subjectId":"A16335MOISDG1F","assignmentId":"3YZ8UPK3VU8BO5O782BM90FIDG5CU1","hitId":"3E9VAUV7BW02QFDK7N7IH7ZKACRYAN","url":"https://gershmanlab.com/experiments/alicia/teaching/experiment/?hitId=3E9VAUV7BW02QFDK7N7IH7ZKACRYAN&workerId=A16335MOISDG1F&assignmentId=3YZ8UPK3VU8BO5O782BM90FIDG5CU1&a=3UZY9&tp_a=3UZY9&b=3YZ8UPK3VU8BO5O782BM90FIDG5CU1&tp_b=3YZ8UPK3VU8BO5O782BM90FIDG5CU1&c=365799&tp_c=365799"},{"rt":12978,"response":{"heads":"8","tails":"2"},"type":"response","condition":"seqNoFeedback","trueTheta":0.8,"classrooms":["C","D"],"studentTrueClassroom":"C","exampleSet":"second","trial_type":"survey-html-form","trial_index":19,"time_elapsed":492709,"internal_node_id":"0.0-15.0-0.0","params":{"nStudents":24,"maxFlips":30,"completionMinutes":45,"basePay":8,"maxBonus":9,"perTrialBonus":0.5,"perTrialBonusThreshold":0.05,"exampleCost":0.01},"classroomParams":{"A":{"a":1,"b":4},"B":{"a":4,"b":1},"C":{"a":2,"b":8},"D":{"a":8,"b":2}},"conditions":["nonSeqFull","nonSeqPartial","seqNoFeedback","seqFeedback"],"classroomPairings":[["A","B"],["C","D"]],"coinWeights":[0.2,0.5,0.8],"subjectId":"A16335MOISDG1F","assignmentId":"3YZ8UPK3VU8BO5O782BM90FIDG5CU1","hitId":"3E9VAUV7BW02QFDK7N7IH7ZKACRYAN","url":"https://gershmanlab.com/experiments/alicia/teaching/experiment/?hitId=3E9VAUV7BW02QFDK7N7IH7ZKACRYAN&workerId=A16335MOISDG1F&assignmentId=3YZ8UPK3VU8BO5O782BM90FIDG5CU1&a=3UZY9&tp_a=3UZY9&b=3YZ8UPK3VU8BO5O782BM90FIDG5CU1&tp_b=3YZ8UPK3VU8BO5O782BM90FIDG5CU1&c=365799&tp_c=365799","firstResponseHeads":8,"firstResponseTails":2,"secondResponseHeads":8,"secondResponseTails":2,"totalHeads":16,"totalTails":4,"studentIndex":1,"studentTrueHypers":{"a":2,"b":8},"studentGuess":0.6,"delta":0.20000000000000007,"bonus":0,"bonusSoFar":0.4,"totalExamples":20},{"rt":null,"stimulus":"Sending examples to student... ","response":null,"trial_type":"html-keyboard-response","trial_index":20,"time_elapsed":494720,"internal_node_id":"0.0-16.0","params":{"nStudents":24,"maxFlips":30,"completionMinutes":45,"basePay":8,"maxBonus":9,"perTrialBonus":0.5,"perTrialBonusThreshold":0.05,"exampleCost":0.01},"classroomParams":{"A":{"a":1,"b":4},"B":{"a":4,"b":1},"C":{"a":2,"b":8},"D":{"a":8,"b":2}},"conditions":["nonSeqFull","nonSeqPartial","seqNoFeedback","seqFeedback"],"classroomPairings":[["A","B"],["C","D"]],"coinWeights":[0.2,0.5,0.8],"subjectId":"A16335MOISDG1F","assignmentId":"3YZ8UPK3VU8BO5O782BM90FIDG5CU1","hitId":"3E9VAUV7BW02QFDK7N7IH7ZKACRYAN","url":"https://gershmanlab.com/experiments/alicia/teaching/experiment/?hitId=3E9VAUV7BW02QFDK7N7IH7ZKACRYAN&workerId=A16335MOISDG1F&assignmentId=3YZ8UPK3VU8BO5O782BM90FIDG5CU1&a=3UZY9&tp_a=3UZY9&b=3YZ8UPK3VU8BO5O782BM90FIDG5CU1&tp_b=3YZ8UPK3VU8BO5O782BM90FIDG5CU1&c=365799&tp_c=365799"},{"rt":null,"stimulus":"Examples sent to student! Waiting for student...","response":null,"trial_type":"html-keyboard-response","trial_index":21,"time_elapsed":499735,"internal_node_id":"0.0-17.0","params":{"nStudents":24,"maxFlips":30,"completionMinutes":45,"basePay":8,"maxBonus":9,"perTrialBonus":0.5,"perTrialBonusThreshold":0.05,"exampleCost":0.01},"classroomParams":{"A":{"a":1,"b":4},"B":{"a":4,"b":1},"C":{"a":2,"b":8},"D":{"a":8,"b":2}},"conditions":["nonSeqFull","nonSeqPartial","seqNoFeedback","seqFeedback"],"classroomPairings":[["A","B"],["C","D"]],"coinWeights":[0.2,0.5,0.8],"subjectId":"A16335MOISDG1F","assignmentId":"3YZ8UPK3VU8BO5O782BM90FIDG5CU1","hitId":"3E9VAUV7BW02QFDK7N7IH7ZKACRYAN","url":"https://gershmanlab.com/experiments/alicia/teaching/experiment/?hitId=3E9VAUV7BW02QFDK7N7IH7ZKACRYAN&workerId=A16335MOISDG1F&assignmentId=3YZ8UPK3VU8BO5O782BM90FIDG5CU1&a=3UZY9&tp_a=3UZY9&b=3YZ8UPK3VU8BO5O782BM90FIDG5CU1&tp_b=3YZ8UPK3VU8BO5O782BM90FIDG5CU1&c=365799&tp_c=365799"},{"rt":5020,"stimulus":"\n                <p>Student 2's first guess for coin weight: <b style=\"color:Tomato\";>0.50</b></p>\n                <p>Student 2's second guess for coin weight: <b style=\"color:Tomato\";>0.60</b></p>\n                <p>You received a bonus of <b>$0.00</b> based on the student's second guess.</p>\n                <p>Total bonus so far: <b>$0.40</b></p>\n                <p>Press any key to continue.</p>\n                ","response":" ","trial_type":"html-keyboard-response","trial_index":22,"time_elapsed":504757,"internal_node_id":"0.0-18.0","params":{"nStudents":24,"maxFlips":30,"completionMinutes":45,"basePay":8,"maxBonus":9,"perTrialBonus":0.5,"perTrialBonusThreshold":0.05,"exampleCost":0.01},"classroomParams":{"A":{"a":1,"b":4},"B":{"a":4,"b":1},"C":{"a":2,"b":8},"D":{"a":8,"b":2}},"conditions":["nonSeqFull","nonSeqPartial","seqNoFeedback","seqFeedback"],"classroomPairings":[["A","B"],["C","D"]],"coinWeights":[0.2,0.5,0.8],"subjectId":"A16335MOISDG1F","assignmentId":"3YZ8UPK3VU8BO5O782BM90FIDG5CU1","hitId":"3E9VAUV7BW02QFDK7N7IH7ZKACRYAN","url":"https://gershmanlab.com/experiments/alicia/teaching/experiment/?hitId=3E9VAUV7BW02QFDK7N7IH7ZKACRYAN&workerId=A16335MOISDG1F&assignmentId=3YZ8UPK3VU8BO5O782BM90FIDG5CU1&a=3UZY9&tp_a=3UZY9&b=3YZ8UPK3VU8BO5O782BM90FIDG5CU1&tp_b=3YZ8UPK3VU8BO5O782BM90FIDG5CU1&c=365799&tp_c=365799"},{"rt":null,"stimulus":"<div style=\"font-size:60px;\">Next student</div>","response":null,"trial_type":"html-keyboard-response","trial_index":23,"time_elapsed":507769,"internal_node_id":"0.0-19.0-0.0","params":{"nStudents":24,"maxFlips":30,"completionMinutes":45,"basePay":8,"maxBonus":9,"perTrialBonus":0.5,"perTrialBonusThreshold":0.05,"exampleCost":0.01},"classroomParams":{"A":{"a":1,"b":4},"B":{"a":4,"b":1},"C":{"a":2,"b":8},"D":{"a":8,"b":2}},"conditions":["nonSeqFull","nonSeqPartial","seqNoFeedback","seqFeedback"],"classroomPairings":[["A","B"],["C","D"]],"coinWeights":[0.2,0.5,0.8],"subjectId":"A16335MOISDG1F","assignmentId":"3YZ8UPK3VU8BO5O782BM90FIDG5CU1","hitId":"3E9VAUV7BW02QFDK7N7IH7ZKACRYAN","url":"https://gershmanlab.com/experiments/alicia/teaching/experiment/?hitId=3E9VAUV7BW02QFDK7N7IH7ZKACRYAN&workerId=A16335MOISDG1F&assignmentId=3YZ8UPK3VU8BO5O782BM90FIDG5CU1&a=3UZY9&tp_a=3UZY9&b=3YZ8UPK3VU8BO5O782BM90FIDG5CU1&tp_b=3YZ8UPK3VU8BO5O782BM90FIDG5CU1&c=365799&tp_c=365799"},{"rt":1341,"stimulus":"\n            <h4 style=\"color:Orange;\">Student 3</h4>\n            <h2>The weight of your coin is <b style=\"color:Tomato;\">0.2</b>.</h2>\n            <p>In this block, you will be giving <b>two</b> sets of examples to Student 3.</p>\n                <p>You will receive feedback at the end of the block.</p>\n            <p></p>","response":0,"trial_type":"html-button-response","trial_index":24,"time_elapsed":509113,"internal_node_id":"0.0-20.0","params":{"nStudents":24,"maxFlips":30,"completionMinutes":45,"basePay":8,"maxBonus":9,"perTrialBonus":0.5,"perTrialBonusThreshold":0.05,"exampleCost":0.01},"classroomParams":{"A":{"a":1,"b":4},"B":{"a":4,"b":1},"C":{"a":2,"b":8},"D":{"a":8,"b":2}},"conditions":["nonSeqFull","nonSeqPartial","seqNoFeedback","seqFeedback"],"classroomPairings":[["A","B"],["C","D"]],"coinWeights":[0.2,0.5,0.8],"subjectId":"A16335MOISDG1F","assignmentId":"3YZ8UPK3VU8BO5O782BM90FIDG5CU1","hitId":"3E9VAUV7BW02QFDK7N7IH7ZKACRYAN","url":"https://gershmanlab.com/experiments/alicia/teaching/experiment/?hitId=3E9VAUV7BW02QFDK7N7IH7ZKACRYAN&workerId=A16335MOISDG1F&assignmentId=3YZ8UPK3VU8BO5O782BM90FIDG5CU1&a=3UZY9&tp_a=3UZY9&b=3YZ8UPK3VU8BO5O782BM90FIDG5CU1&tp_b=3YZ8UPK3VU8BO5O782BM90FIDG5CU1&c=365799&tp_c=365799"},{"rt":7935,"response":{"heads":"2","tails":"8"},"type":"response","condition":"seqNoFeedback","trueTheta":0.2,"classrooms":["A","B"],"studentTrueClassroom":"B","exampleSet":"first","trial_type":"survey-html-form","trial_index":25,"time_elapsed":517049,"internal_node_id":"0.0-21.0-0.0","params":{"nStudents":24,"maxFlips":30,"completionMinutes":45,"basePay":8,"maxBonus":9,"perTrialBonus":0.5,"perTrialBonusThreshold":0.05,"exampleCost":0.01},"classroomParams":{"A":{"a":1,"b":4},"B":{"a":4,"b":1},"C":{"a":2,"b":8},"D":{"a":8,"b":2}},"conditions":["nonSeqFull","nonSeqPartial","seqNoFeedback","seqFeedback"],"classroomPairings":[["A","B"],["C","D"]],"coinWeights":[0.2,0.5,0.8],"subjectId":"A16335MOISDG1F","assignmentId":"3YZ8UPK3VU8BO5O782BM90FIDG5CU1","hitId":"3E9VAUV7BW02QFDK7N7IH7ZKACRYAN","url":"https://gershmanlab.com/experiments/alicia/teaching/experiment/?hitId=3E9VAUV7BW02QFDK7N7IH7ZKACRYAN&workerId=A16335MOISDG1F&assignmentId=3YZ8UPK3VU8BO5O782BM90FIDG5CU1&a=3UZY9&tp_a=3UZY9&b=3YZ8UPK3VU8BO5O782BM90FIDG5CU1&tp_b=3YZ8UPK3VU8BO5O782BM90FIDG5CU1&c=365799&tp_c=365799","heads":2,"tails":8,"studentIndex":2,"studentTrueHypers":{"a":4,"b":1},"studentGuess":0.4,"delta":0.2,"totalExamples":10,"bonusSoFar":0.4},{"rt":null,"stimulus":"Sending examples to student... ","response":null,"trial_type":"html-keyboard-response","trial_index":26,"time_elapsed":518302,"internal_node_id":"0.0-22.0","params":{"nStudents":24,"maxFlips":30,"completionMinutes":45,"basePay":8,"maxBonus":9,"perTrialBonus":0.5,"perTrialBonusThreshold":0.05,"exampleCost":0.01},"classroomParams":{"A":{"a":1,"b":4},"B":{"a":4,"b":1},"C":{"a":2,"b":8},"D":{"a":8,"b":2}},"conditions":["nonSeqFull","nonSeqPartial","seqNoFeedback","seqFeedback"],"classroomPairings":[["A","B"],["C","D"]],"coinWeights":[0.2,0.5,0.8],"subjectId":"A16335MOISDG1F","assignmentId":"3YZ8UPK3VU8BO5O782BM90FIDG5CU1","hitId":"3E9VAUV7BW02QFDK7N7IH7ZKACRYAN","url":"https://gershmanlab.com/experiments/alicia/teaching/experiment/?hitId=3E9VAUV7BW02QFDK7N7IH7ZKACRYAN&workerId=A16335MOISDG1F&assignmentId=3YZ8UPK3VU8BO5O782BM90FIDG5CU1&a=3UZY9&tp_a=3UZY9&b=3YZ8UPK3VU8BO5O782BM90FIDG5CU1&tp_b=3YZ8UPK3VU8BO5O782BM90FIDG5CU1&c=365799&tp_c=365799"},{"rt":null,"stimulus":"Examples sent to student! Waiting for student...","response":null,"trial_type":"html-keyboard-response","trial_index":27,"time_elapsed":523804,"internal_node_id":"0.0-23.0","params":{"nStudents":24,"maxFlips":30,"completionMinutes":45,"basePay":8,"maxBonus":9,"perTrialBonus":0.5,"perTrialBonusThreshold":0.05,"exampleCost":0.01},"classroomParams":{"A":{"a":1,"b":4},"B":{"a":4,"b":1},"C":{"a":2,"b":8},"D":{"a":8,"b":2}},"conditions":["nonSeqFull","nonSeqPartial","seqNoFeedback","seqFeedback"],"classroomPairings":[["A","B"],["C","D"]],"coinWeights":[0.2,0.5,0.8],"subjectId":"A16335MOISDG1F","assignmentId":"3YZ8UPK3VU8BO5O782BM90FIDG5CU1","hitId":"3E9VAUV7BW02QFDK7N7IH7ZKACRYAN","url":"https://gershmanlab.com/experiments/alicia/teaching/experiment/?hitId=3E9VAUV7BW02QFDK7N7IH7ZKACRYAN&workerId=A16335MOISDG1F&assignmentId=3YZ8UPK3VU8BO5O782BM90FIDG5CU1&a=3UZY9&tp_a=3UZY9&b=3YZ8UPK3VU8BO5O782BM90FIDG5CU1&tp_b=3YZ8UPK3VU8BO5O782BM90FIDG5CU1&c=365799&tp_c=365799"},{"rt":8389,"response":{"heads":"2","tails":"8"},"type":"response","condition":"seqNoFeedback","trueTheta":0.2,"classrooms":["A","B"],"studentTrueClassroom":"B","exampleSet":"second","trial_type":"survey-html-form","trial_index":28,"time_elapsed":532195,"internal_node_id":"0.0-24.0-0.0","params":{"nStudents":24,"maxFlips":30,"completionMinutes":45,"basePay":8,"maxBonus":9,"perTrialBonus":0.5,"perTrialBonusThreshold":0.05,"exampleCost":0.01},"classroomParams":{"A":{"a":1,"b":4},"B":{"a":4,"b":1},"C":{"a":2,"b":8},"D":{"a":8,"b":2}},"conditions":["nonSeqFull","nonSeqPartial","seqNoFeedback","seqFeedback"],"classroomPairings":[["A","B"],["C","D"]],"coinWeights":[0.2,0.5,0.8],"subjectId":"A16335MOISDG1F","assignmentId":"3YZ8UPK3VU8BO5O782BM90FIDG5CU1","hitId":"3E9VAUV7BW02QFDK7N7IH7ZKACRYAN","url":"https://gershmanlab.com/experiments/alicia/teaching/experiment/?hitId=3E9VAUV7BW02QFDK7N7IH7ZKACRYAN&workerId=A16335MOISDG1F&assignmentId=3YZ8UPK3VU8BO5O782BM90FIDG5CU1&a=3UZY9&tp_a=3UZY9&b=3YZ8UPK3VU8BO5O782BM90FIDG5CU1&tp_b=3YZ8UPK3VU8BO5O782BM90FIDG5CU1&c=365799&tp_c=365799","firstResponseHeads":2,"firstResponseTails":8,"secondResponseHeads":2,"secondResponseTails":8,"totalHeads":4,"totalTails":16,"studentIndex":2,"studentTrueHypers":{"a":4,"b":1},"studentGuess":0.32,"delta":0.12,"bonus":0,"bonusSoFar":0.4,"totalExamples":20},{"rt":null,"stimulus":"Sending examples to student... ","response":null,"trial_type":"html-keyboard-response","trial_index":29,"time_elapsed":533696,"internal_node_id":"0.0-25.0","params":{"nStudents":24,"maxFlips":30,"completionMinutes":45,"basePay":8,"maxBonus":9,"perTrialBonus":0.5,"perTrialBonusThreshold":0.05,"exampleCost":0.01},"classroomParams":{"A":{"a":1,"b":4},"B":{"a":4,"b":1},"C":{"a":2,"b":8},"D":{"a":8,"b":2}},"conditions":["nonSeqFull","nonSeqPartial","seqNoFeedback","seqFeedback"],"classroomPairings":[["A","B"],["C","D"]],"coinWeights":[0.2,0.5,0.8],"subjectId":"A16335MOISDG1F","assignmentId":"3YZ8UPK3VU8BO5O782BM90FIDG5CU1","hitId":"3E9VAUV7BW02QFDK7N7IH7ZKACRYAN","url":"https://gershmanlab.com/experiments/alicia/teaching/experiment/?hitId=3E9VAUV7BW02QFDK7N7IH7ZKACRYAN&workerId=A16335MOISDG1F&assignmentId=3YZ8UPK3VU8BO5O782BM90FIDG5CU1&a=3UZY9&tp_a=3UZY9&b=3YZ8UPK3VU8BO5O782BM90FIDG5CU1&tp_b=3YZ8UPK3VU8BO5O782BM90FIDG5CU1&c=365799&tp_c=365799"},{"rt":null,"stimulus":"Examples sent to student! Waiting for student...","response":null,"trial_type":"html-keyboard-response","trial_index":30,"time_elapsed":538710,"internal_node_id":"0.0-26.0","params":{"nStudents":24,"maxFlips":30,"completionMinutes":45,"basePay":8,"maxBonus":9,"perTrialBonus":0.5,"perTrialBonusThreshold":0.05,"exampleCost":0.01},"classroomParams":{"A":{"a":1,"b":4},"B":{"a":4,"b":1},"C":{"a":2,"b":8},"D":{"a":8,"b":2}},"conditions":["nonSeqFull","nonSeqPartial","seqNoFeedback","seqFeedback"],"classroomPairings":[["A","B"],["C","D"]],"coinWeights":[0.2,0.5,0.8],"subjectId":"A16335MOISDG1F","assignmentId":"3YZ8UPK3VU8BO5O782BM90FIDG5CU1","hitId":"3E9VAUV7BW02QFDK7N7IH7ZKACRYAN","url":"https://gershmanlab.com/experiments/alicia/teaching/experiment/?hitId=3E9VAUV7BW02QFDK7N7IH7ZKACRYAN&workerId=A16335MOISDG1F&assignmentId=3YZ8UPK3VU8BO5O782BM90FIDG5CU1&a=3UZY9&tp_a=3UZY9&b=3YZ8UPK3VU8BO5O782BM90FIDG5CU1&tp_b=3YZ8UPK3VU8BO5O782BM90FIDG5CU1&c=365799&tp_c=365799"},{"rt":8507,"stimulus":"\n                <p>Student 3's first guess for coin weight: <b style=\"color:Tomato\";>0.40</b></p>\n                <p>Student 3's second guess for coin weight: <b style=\"color:Tomato\";>0.32</b></p>\n                <p>You received a bonus of <b>$0.00</b> based on the student's second guess.</p>\n                <p>Total bonus so far: <b>$0.40</b></p>\n                <p>Press any key to continue.</p>\n                ","response":" ","trial_type":"html-keyboard-response","trial_index":31,"time_elapsed":547218,"internal_node_id":"0.0-27.0","params":{"nStudents":24,"maxFlips":30,"completionMinutes":45,"basePay":8,"maxBonus":9,"perTrialBonus":0.5,"perTrialBonusThreshold":0.05,"exampleCost":0.01},"classroomParams":{"A":{"a":1,"b":4},"B":{"a":4,"b":1},"C":{"a":2,"b":8},"D":{"a":8,"b":2}},"conditions":["nonSeqFull","nonSeqPartial","seqNoFeedback","seqFeedback"],"classroomPairings":[["A","B"],["C","D"]],"coinWeights":[0.2,0.5,0.8],"subjectId":"A16335MOISDG1F","assignmentId":"3YZ8UPK3VU8BO5O782BM90FIDG5CU1","hitId":"3E9VAUV7BW02QFDK7N7IH7ZKACRYAN","url":"https://gershmanlab.com/experiments/alicia/teaching/experiment/?hitId=3E9VAUV7BW02QFDK7N7IH7ZKACRYAN&workerId=A16335MOISDG1F&assignmentId=3YZ8UPK3VU8BO5O782BM90FIDG5CU1&a=3UZY9&tp_a=3UZY9&b=3YZ8UPK3VU8BO5O782BM90FIDG5CU1&tp_b=3YZ8UPK3VU8BO5O782BM90FIDG5CU1&c=365799&tp_c=365799"},{"rt":null,"stimulus":"<div style=\"font-size:60px;\">Next student</div>","response":null,"trial_type":"html-keyboard-response","trial_index":32,"time_elapsed":549724,"internal_node_id":"0.0-28.0-0.0","params":{"nStudents":24,"maxFlips":30,"completionMinutes":45,"basePay":8,"maxBonus":9,"perTrialBonus":0.5,"perTrialBonusThreshold":0.05,"exampleCost":0.01},"classroomParams":{"A":{"a":1,"b":4},"B":{"a":4,"b":1},"C":{"a":2,"b":8},"D":{"a":8,"b":2}},"conditions":["nonSeqFull","nonSeqPartial","seqNoFeedback","seqFeedback"],"classroomPairings":[["A","B"],["C","D"]],"coinWeights":[0.2,0.5,0.8],"subjectId":"A16335MOISDG1F","assignmentId":"3YZ8UPK3VU8BO5O782BM90FIDG5CU1","hitId":"3E9VAUV7BW02QFDK7N7IH7ZKACRYAN","url":"https://gershmanlab.com/experiments/alicia/teaching/experiment/?hitId=3E9VAUV7BW02QFDK7N7IH7ZKACRYAN&workerId=A16335MOISDG1F&assignmentId=3YZ8UPK3VU8BO5O782BM90FIDG5CU1&a=3UZY9&tp_a=3UZY9&b=3YZ8UPK3VU8BO5O782BM90FIDG5CU1&tp_b=3YZ8UPK3VU8BO5O782BM90FIDG5CU1&c=365799&tp_c=365799"},{"rt":1025,"stimulus":"\n            <h4 style=\"color:Orange;\">Student 4</h4>\n            <h2>The weight of your coin is <b style=\"color:Tomato;\">0.8</b>.</h2>\n            <p>In this block, you will be giving <b>two</b> sets of examples to Student 4.</p>\n                <p>You will receive feedback at the end of the block.</p>\n            <p></p>","response":0,"trial_type":"html-button-response","trial_index":33,"time_elapsed":550751,"internal_node_id":"0.0-29.0","params":{"nStudents":24,"maxFlips":30,"completionMinutes":45,"basePay":8,"maxBonus":9,"perTrialBonus":0.5,"perTrialBonusThreshold":0.05,"exampleCost":0.01},"classroomParams":{"A":{"a":1,"b":4},"B":{"a":4,"b":1},"C":{"a":2,"b":8},"D":{"a":8,"b":2}},"conditions":["nonSeqFull","nonSeqPartial","seqNoFeedback","seqFeedback"],"classroomPairings":[["A","B"],["C","D"]],"coinWeights":[0.2,0.5,0.8],"subjectId":"A16335MOISDG1F","assignmentId":"3YZ8UPK3VU8BO5O782BM90FIDG5CU1","hitId":"3E9VAUV7BW02QFDK7N7IH7ZKACRYAN","url":"https://gershmanlab.com/experiments/alicia/teaching/experiment/?hitId=3E9VAUV7BW02QFDK7N7IH7ZKACRYAN&workerId=A16335MOISDG1F&assignmentId=3YZ8UPK3VU8BO5O782BM90FIDG5CU1&a=3UZY9&tp_a=3UZY9&b=3YZ8UPK3VU8BO5O782BM90FIDG5CU1&tp_b=3YZ8UPK3VU8BO5O782BM90FIDG5CU1&c=365799&tp_c=365799"},{"rt":7769,"response":{"heads":"9","tails":"1"},"type":"response","condition":"seqNoFeedback","trueTheta":0.8,"classrooms":["A","B"],"studentTrueClassroom":"B","exampleSet":"first","trial_type":"survey-html-form","trial_index":34,"time_elapsed":558521,"internal_node_id":"0.0-30.0-0.0","params":{"nStudents":24,"maxFlips":30,"completionMinutes":45,"basePay":8,"maxBonus":9,"perTrialBonus":0.5,"perTrialBonusThreshold":0.05,"exampleCost":0.01},"classroomParams":{"A":{"a":1,"b":4},"B":{"a":4,"b":1},"C":{"a":2,"b":8},"D":{"a":8,"b":2}},"conditions":["nonSeqFull","nonSeqPartial","seqNoFeedback","seqFeedback"],"classroomPairings":[["A","B"],["C","D"]],"coinWeights":[0.2,0.5,0.8],"subjectId":"A16335MOISDG1F","assignmentId":"3YZ8UPK3VU8BO5O782BM90FIDG5CU1","hitId":"3E9VAUV7BW02QFDK7N7IH7ZKACRYAN","url":"https://gershmanlab.com/experiments/alicia/teaching/experiment/?hitId=3E9VAUV7BW02QFDK7N7IH7ZKACRYAN&workerId=A16335MOISDG1F&assignmentId=3YZ8UPK3VU8BO5O782BM90FIDG5CU1&a=3UZY9&tp_a=3UZY9&b=3YZ8UPK3VU8BO5O782BM90FIDG5CU1&tp_b=3YZ8UPK3VU8BO5O782BM90FIDG5CU1&c=365799&tp_c=365799","heads":9,"tails":1,"studentIndex":3,"studentTrueHypers":{"a":4,"b":1},"studentGuess":0.8666666666666667,"delta":0.06666666666666665,"totalExamples":10,"bonusSoFar":0.4},{"rt":null,"stimulus":"Sending examples to student... ","response":null,"trial_type":"html-keyboard-response","trial_index":35,"time_elapsed":560023,"internal_node_id":"0.0-31.0","params":{"nStudents":24,"maxFlips":30,"completionMinutes":45,"basePay":8,"maxBonus":9,"perTrialBonus":0.5,"perTrialBonusThreshold":0.05,"exampleCost":0.01},"classroomParams":{"A":{"a":1,"b":4},"B":{"a":4,"b":1},"C":{"a":2,"b":8},"D":{"a":8,"b":2}},"conditions":["nonSeqFull","nonSeqPartial","seqNoFeedback","seqFeedback"],"classroomPairings":[["A","B"],["C","D"]],"coinWeights":[0.2,0.5,0.8],"subjectId":"A16335MOISDG1F","assignmentId":"3YZ8UPK3VU8BO5O782BM90FIDG5CU1","hitId":"3E9VAUV7BW02QFDK7N7IH7ZKACRYAN","url":"https://gershmanlab.com/experiments/alicia/teaching/experiment/?hitId=3E9VAUV7BW02QFDK7N7IH7ZKACRYAN&workerId=A16335MOISDG1F&assignmentId=3YZ8UPK3VU8BO5O782BM90FIDG5CU1&a=3UZY9&tp_a=3UZY9&b=3YZ8UPK3VU8BO5O782BM90FIDG5CU1&tp_b=3YZ8UPK3VU8BO5O782BM90FIDG5CU1&c=365799&tp_c=365799"},{"rt":null,"stimulus":"Examples sent to student! Waiting for student...","response":null,"trial_type":"html-keyboard-response","trial_index":36,"time_elapsed":564526,"internal_node_id":"0.0-32.0","params":{"nStudents":24,"maxFlips":30,"completionMinutes":45,"basePay":8,"maxBonus":9,"perTrialBonus":0.5,"perTrialBonusThreshold":0.05,"exampleCost":0.01},"classroomParams":{"A":{"a":1,"b":4},"B":{"a":4,"b":1},"C":{"a":2,"b":8},"D":{"a":8,"b":2}},"conditions":["nonSeqFull","nonSeqPartial","seqNoFeedback","seqFeedback"],"classroomPairings":[["A","B"],["C","D"]],"coinWeights":[0.2,0.5,0.8],"subjectId":"A16335MOISDG1F","assignmentId":"3YZ8UPK3VU8BO5O782BM90FIDG5CU1","hitId":"3E9VAUV7BW02QFDK7N7IH7ZKACRYAN","url":"https://gershmanlab.com/experiments/alicia/teaching/experiment/?hitId=3E9VAUV7BW02QFDK7N7IH7ZKACRYAN&workerId=A16335MOISDG1F&assignmentId=3YZ8UPK3VU8BO5O782BM90FIDG5CU1&a=3UZY9&tp_a=3UZY9&b=3YZ8UPK3VU8BO5O782BM90FIDG5CU1&tp_b=3YZ8UPK3VU8BO5O782BM90FIDG5CU1&c=365799&tp_c=365799"},{"rt":7457,"response":{"heads":"9","tails":"1"},"type":"response","condition":"seqNoFeedback","trueTheta":0.8,"classrooms":["A","B"],"studentTrueClassroom":"B","exampleSet":"second","trial_type":"survey-html-form","trial_index":37,"time_elapsed":571984,"internal_node_id":"0.0-33.0-0.0","params":{"nStudents":24,"maxFlips":30,"completionMinutes":45,"basePay":8,"maxBonus":9,"perTrialBonus":0.5,"perTrialBonusThreshold":0.05,"exampleCost":0.01},"classroomParams":{"A":{"a":1,"b":4},"B":{"a":4,"b":1},"C":{"a":2,"b":8},"D":{"a":8,"b":2}},"conditions":["nonSeqFull","nonSeqPartial","seqNoFeedback","seqFeedback"],"classroomPairings":[["A","B"],["C","D"]],"coinWeights":[0.2,0.5,0.8],"subjectId":"A16335MOISDG1F","assignmentId":"3YZ8UPK3VU8BO5O782BM90FIDG5CU1","hitId":"3E9VAUV7BW02QFDK7N7IH7ZKACRYAN","url":"https://gershmanlab.com/experiments/alicia/teaching/experiment/?hitId=3E9VAUV7BW02QFDK7N7IH7ZKACRYAN&workerId=A16335MOISDG1F&assignmentId=3YZ8UPK3VU8BO5O782BM90FIDG5CU1&a=3UZY9&tp_a=3UZY9&b=3YZ8UPK3VU8BO5O782BM90FIDG5CU1&tp_b=3YZ8UPK3VU8BO5O782BM90FIDG5CU1&c=365799&tp_c=365799","firstResponseHeads":9,"firstResponseTails":1,"secondResponseHeads":9,"secondResponseTails":1,"totalHeads":18,"totalTails":2,"studentIndex":3,"studentTrueHypers":{"a":4,"b":1},"studentGuess":0.88,"delta":0.07999999999999996,"bonus":0,"bonusSoFar":0.4,"totalExamples":20},{"rt":null,"stimulus":"Sending examples to student... ","response":null,"trial_type":"html-keyboard-response","trial_index":38,"time_elapsed":573491,"internal_node_id":"0.0-34.0","params":{"nStudents":24,"maxFlips":30,"completionMinutes":45,"basePay":8,"maxBonus":9,"perTrialBonus":0.5,"perTrialBonusThreshold":0.05,"exampleCost":0.01},"classroomParams":{"A":{"a":1,"b":4},"B":{"a":4,"b":1},"C":{"a":2,"b":8},"D":{"a":8,"b":2}},"conditions":["nonSeqFull","nonSeqPartial","seqNoFeedback","seqFeedback"],"classroomPairings":[["A","B"],["C","D"]],"coinWeights":[0.2,0.5,0.8],"subjectId":"A16335MOISDG1F","assignmentId":"3YZ8UPK3VU8BO5O782BM90FIDG5CU1","hitId":"3E9VAUV7BW02QFDK7N7IH7ZKACRYAN","url":"https://gershmanlab.com/experiments/alicia/teaching/experiment/?hitId=3E9VAUV7BW02QFDK7N7IH7ZKACRYAN&workerId=A16335MOISDG1F&assignmentId=3YZ8UPK3VU8BO5O782BM90FIDG5CU1&a=3UZY9&tp_a=3UZY9&b=3YZ8UPK3VU8BO5O782BM90FIDG5CU1&tp_b=3YZ8UPK3VU8BO5O782BM90FIDG5CU1&c=365799&tp_c=365799"},{"rt":null,"stimulus":"Examples sent to student! Waiting for student...","response":null,"trial_type":"html-keyboard-response","trial_index":39,"time_elapsed":578993,"internal_node_id":"0.0-35.0","params":{"nStudents":24,"maxFlips":30,"completionMinutes":45,"basePay":8,"maxBonus":9,"perTrialBonus":0.5,"perTrialBonusThreshold":0.05,"exampleCost":0.01},"classroomParams":{"A":{"a":1,"b":4},"B":{"a":4,"b":1},"C":{"a":2,"b":8},"D":{"a":8,"b":2}},"conditions":["nonSeqFull","nonSeqPartial","seqNoFeedback","seqFeedback"],"classroomPairings":[["A","B"],["C","D"]],"coinWeights":[0.2,0.5,0.8],"subjectId":"A16335MOISDG1F","assignmentId":"3YZ8UPK3VU8BO5O782BM90FIDG5CU1","hitId":"3E9VAUV7BW02QFDK7N7IH7ZKACRYAN","url":"https://gershmanlab.com/experiments/alicia/teaching/experiment/?hitId=3E9VAUV7BW02QFDK7N7IH7ZKACRYAN&workerId=A16335MOISDG1F&assignmentId=3YZ8UPK3VU8BO5O782BM90FIDG5CU1&a=3UZY9&tp_a=3UZY9&b=3YZ8UPK3VU8BO5O782BM90FIDG5CU1&tp_b=3YZ8UPK3VU8BO5O782BM90FIDG5CU1&c=365799&tp_c=365799"},{"rt":5101,"stimulus":"\n                <p>Student 4's first guess for coin weight: <b style=\"color:Tomato\";>0.87</b></p>\n                <p>Student 4's second guess for coin weight: <b style=\"color:Tomato\";>0.88</b></p>\n                <p>You received a bonus of <b>$0.00</b> based on the student's second guess.</p>\n                <p>Total bonus so far: <b>$0.40</b></p>\n                <p>Press any key to continue.</p>\n                ","response":" ","trial_type":"html-keyboard-response","trial_index":40,"time_elapsed":584095,"internal_node_id":"0.0-36.0","params":{"nStudents":24,"maxFlips":30,"completionMinutes":45,"basePay":8,"maxBonus":9,"perTrialBonus":0.5,"perTrialBonusThreshold":0.05,"exampleCost":0.01},"classroomParams":{"A":{"a":1,"b":4},"B":{"a":4,"b":1},"C":{"a":2,"b":8},"D":{"a":8,"b":2}},"conditions":["nonSeqFull","nonSeqPartial","seqNoFeedback","seqFeedback"],"classroomPairings":[["A","B"],["C","D"]],"coinWeights":[0.2,0.5,0.8],"subjectId":"A16335MOISDG1F","assignmentId":"3YZ8UPK3VU8BO5O782BM90FIDG5CU1","hitId":"3E9VAUV7BW02QFDK7N7IH7ZKACRYAN","url":"https://gershmanlab.com/experiments/alicia/teaching/experiment/?hitId=3E9VAUV7BW02QFDK7N7IH7ZKACRYAN&workerId=A16335MOISDG1F&assignmentId=3YZ8UPK3VU8BO5O782BM90FIDG5CU1&a=3UZY9&tp_a=3UZY9&b=3YZ8UPK3VU8BO5O782BM90FIDG5CU1&tp_b=3YZ8UPK3VU8BO5O782BM90FIDG5CU1&c=365799&tp_c=365799"},{"rt":null,"stimulus":"<div style=\"font-size:60px;\">Next student</div>","response":null,"trial_type":"html-keyboard-response","trial_index":41,"time_elapsed":587110,"internal_node_id":"0.0-37.0-0.0","params":{"nStudents":24,"maxFlips":30,"completionMinutes":45,"basePay":8,"maxBonus":9,"perTrialBonus":0.5,"perTrialBonusThreshold":0.05,"exampleCost":0.01},"classroomParams":{"A":{"a":1,"b":4},"B":{"a":4,"b":1},"C":{"a":2,"b":8},"D":{"a":8,"b":2}},"conditions":["nonSeqFull","nonSeqPartial","seqNoFeedback","seqFeedback"],"classroomPairings":[["A","B"],["C","D"]],"coinWeights":[0.2,0.5,0.8],"subjectId":"A16335MOISDG1F","assignmentId":"3YZ8UPK3VU8BO5O782BM90FIDG5CU1","hitId":"3E9VAUV7BW02QFDK7N7IH7ZKACRYAN","url":"https://gershmanlab.com/experiments/alicia/teaching/experiment/?hitId=3E9VAUV7BW02QFDK7N7IH7ZKACRYAN&workerId=A16335MOISDG1F&assignmentId=3YZ8UPK3VU8BO5O782BM90FIDG5CU1&a=3UZY9&tp_a=3UZY9&b=3YZ8UPK3VU8BO5O782BM90FIDG5CU1&tp_b=3YZ8UPK3VU8BO5O782BM90FIDG5CU1&c=365799&tp_c=365799"},{"rt":3751,"stimulus":"\n            <h4 style=\"color:Orange;\">Student 5</h4>\n            <h2>The weight of your coin is <b style=\"color:Tomato;\">0.5</b>.</h2>\n            <p>In this block, you will be giving <b>one</b> set of examples to Student 5.</p>\n                <p>You will receive feedback at the end of the block.</p>\n            <p></p>","response":0,"trial_type":"html-button-response","trial_index":42,"time_elapsed":590862,"internal_node_id":"0.0-38.0","params":{"nStudents":24,"maxFlips":30,"completionMinutes":45,"basePay":8,"maxBonus":9,"perTrialBonus":0.5,"perTrialBonusThreshold":0.05,"exampleCost":0.01},"classroomParams":{"A":{"a":1,"b":4},"B":{"a":4,"b":1},"C":{"a":2,"b":8},"D":{"a":8,"b":2}},"conditions":["nonSeqFull","nonSeqPartial","seqNoFeedback","seqFeedback"],"classroomPairings":[["A","B"],["C","D"]],"coinWeights":[0.2,0.5,0.8],"subjectId":"A16335MOISDG1F","assignmentId":"3YZ8UPK3VU8BO5O782BM90FIDG5CU1","hitId":"3E9VAUV7BW02QFDK7N7IH7ZKACRYAN","url":"https://gershmanlab.com/experiments/alicia/teaching/experiment/?hitId=3E9VAUV7BW02QFDK7N7IH7ZKACRYAN&workerId=A16335MOISDG1F&assignmentId=3YZ8UPK3VU8BO5O782BM90FIDG5CU1&a=3UZY9&tp_a=3UZY9&b=3YZ8UPK3VU8BO5O782BM90FIDG5CU1&tp_b=3YZ8UPK3VU8BO5O782BM90FIDG5CU1&c=365799&tp_c=365799"},{"rt":6232,"response":{"heads":"5","tails":"5"},"type":"response","condition":"nonSeqPartial","trueTheta":0.5,"classrooms":["C","D"],"studentTrueClassroom":"D","exampleSet":"first","trial_type":"survey-html-form","trial_index":43,"time_elapsed":597095,"internal_node_id":"0.0-39.0-0.0","params":{"nStudents":24,"maxFlips":30,"completionMinutes":45,"basePay":8,"maxBonus":9,"perTrialBonus":0.5,"perTrialBonusThreshold":0.05,"exampleCost":0.01},"classroomParams":{"A":{"a":1,"b":4},"B":{"a":4,"b":1},"C":{"a":2,"b":8},"D":{"a":8,"b":2}},"conditions":["nonSeqFull","nonSeqPartial","seqNoFeedback","seqFeedback"],"classroomPairings":[["A","B"],["C","D"]],"coinWeights":[0.2,0.5,0.8],"subjectId":"A16335MOISDG1F","assignmentId":"3YZ8UPK3VU8BO5O782BM90FIDG5CU1","hitId":"3E9VAUV7BW02QFDK7N7IH7ZKACRYAN","url":"https://gershmanlab.com/experiments/alicia/teaching/experiment/?hitId=3E9VAUV7BW02QFDK7N7IH7ZKACRYAN&workerId=A16335MOISDG1F&assignmentId=3YZ8UPK3VU8BO5O782BM90FIDG5CU1&a=3UZY9&tp_a=3UZY9&b=3YZ8UPK3VU8BO5O782BM90FIDG5CU1&tp_b=3YZ8UPK3VU8BO5O782BM90FIDG5CU1&c=365799&tp_c=365799","heads":5,"tails":5,"studentIndex":4,"studentTrueHypers":{"a":8,"b":2},"studentGuess":0.65,"delta":0.15000000000000002,"totalExamples":10,"bonus":0,"bonusSoFar":0.4},{"rt":null,"stimulus":"Sending examples to student... ","response":null,"trial_type":"html-keyboard-response","trial_index":44,"time_elapsed":598360,"internal_node_id":"0.0-40.0","params":{"nStudents":24,"maxFlips":30,"completionMinutes":45,"basePay":8,"maxBonus":9,"perTrialBonus":0.5,"perTrialBonusThreshold":0.05,"exampleCost":0.01},"classroomParams":{"A":{"a":1,"b":4},"B":{"a":4,"b":1},"C":{"a":2,"b":8},"D":{"a":8,"b":2}},"conditions":["nonSeqFull","nonSeqPartial","seqNoFeedback","seqFeedback"],"classroomPairings":[["A","B"],["C","D"]],"coinWeights":[0.2,0.5,0.8],"subjectId":"A16335MOISDG1F","assignmentId":"3YZ8UPK3VU8BO5O782BM90FIDG5CU1","hitId":"3E9VAUV7BW02QFDK7N7IH7ZKACRYAN","url":"https://gershmanlab.com/experiments/alicia/teaching/experiment/?hitId=3E9VAUV7BW02QFDK7N7IH7ZKACRYAN&workerId=A16335MOISDG1F&assignmentId=3YZ8UPK3VU8BO5O782BM90FIDG5CU1&a=3UZY9&tp_a=3UZY9&b=3YZ8UPK3VU8BO5O782BM90FIDG5CU1&tp_b=3YZ8UPK3VU8BO5O782BM90FIDG5CU1&c=365799&tp_c=365799"},{"rt":null,"stimulus":"Examples sent to student! Waiting for student...","response":null,"trial_type":"html-keyboard-response","trial_index":45,"time_elapsed":603363,"internal_node_id":"0.0-41.0","params":{"nStudents":24,"maxFlips":30,"completionMinutes":45,"basePay":8,"maxBonus":9,"perTrialBonus":0.5,"perTrialBonusThreshold":0.05,"exampleCost":0.01},"classroomParams":{"A":{"a":1,"b":4},"B":{"a":4,"b":1},"C":{"a":2,"b":8},"D":{"a":8,"b":2}},"conditions":["nonSeqFull","nonSeqPartial","seqNoFeedback","seqFeedback"],"classroomPairings":[["A","B"],["C","D"]],"coinWeights":[0.2,0.5,0.8],"subjectId":"A16335MOISDG1F","assignmentId":"3YZ8UPK3VU8BO5O782BM90FIDG5CU1","hitId":"3E9VAUV7BW02QFDK7N7IH7ZKACRYAN","url":"https://gershmanlab.com/experiments/alicia/teaching/experiment/?hitId=3E9VAUV7BW02QFDK7N7IH7ZKACRYAN&workerId=A16335MOISDG1F&assignmentId=3YZ8UPK3VU8BO5O782BM90FIDG5CU1&a=3UZY9&tp_a=3UZY9&b=3YZ8UPK3VU8BO5O782BM90FIDG5CU1&tp_b=3YZ8UPK3VU8BO5O782BM90FIDG5CU1&c=365799&tp_c=365799"},{"rt":2055,"stimulus":"\n                <p>Student's guess for coin weight: <b style=\"color:Tomato;\">0.65</b></p>\n                <p>You received a bonus of <b>$0</b>. Total bonus so far: <b>$0.40</b></b></p>\n                <p></p>\n                <p>Press any key to continue.</p>\n                ","response":" ","trial_type":"html-keyboard-response","trial_index":46,"time_elapsed":605420,"internal_node_id":"0.0-42.0","params":{"nStudents":24,"maxFlips":30,"completionMinutes":45,"basePay":8,"maxBonus":9,"perTrialBonus":0.5,"perTrialBonusThreshold":0.05,"exampleCost":0.01},"classroomParams":{"A":{"a":1,"b":4},"B":{"a":4,"b":1},"C":{"a":2,"b":8},"D":{"a":8,"b":2}},"conditions":["nonSeqFull","nonSeqPartial","seqNoFeedback","seqFeedback"],"classroomPairings":[["A","B"],["C","D"]],"coinWeights":[0.2,0.5,0.8],"subjectId":"A16335MOISDG1F","assignmentId":"3YZ8UPK3VU8BO5O782BM90FIDG5CU1","hitId":"3E9VAUV7BW02QFDK7N7IH7ZKACRYAN","url":"https://gershmanlab.com/experiments/alicia/teaching/experiment/?hitId=3E9VAUV7BW02QFDK7N7IH7ZKACRYAN&workerId=A16335MOISDG1F&assignmentId=3YZ8UPK3VU8BO5O782BM90FIDG5CU1&a=3UZY9&tp_a=3UZY9&b=3YZ8UPK3VU8BO5O782BM90FIDG5CU1&tp_b=3YZ8UPK3VU8BO5O782BM90FIDG5CU1&c=365799&tp_c=365799"},{"rt":null,"stimulus":"<div style=\"font-size:60px;\">Next student</div>","response":null,"trial_type":"html-keyboard-response","trial_index":47,"time_elapsed":607921,"internal_node_id":"0.0-43.0-0.0","params":{"nStudents":24,"maxFlips":30,"completionMinutes":45,"basePay":8,"maxBonus":9,"perTrialBonus":0.5,"perTrialBonusThreshold":0.05,"exampleCost":0.01},"classroomParams":{"A":{"a":1,"b":4},"B":{"a":4,"b":1},"C":{"a":2,"b":8},"D":{"a":8,"b":2}},"conditions":["nonSeqFull","nonSeqPartial","seqNoFeedback","seqFeedback"],"classroomPairings":[["A","B"],["C","D"]],"coinWeights":[0.2,0.5,0.8],"subjectId":"A16335MOISDG1F","assignmentId":"3YZ8UPK3VU8BO5O782BM90FIDG5CU1","hitId":"3E9VAUV7BW02QFDK7N7IH7ZKACRYAN","url":"https://gershmanlab.com/experiments/alicia/teaching/experiment/?hitId=3E9VAUV7BW02QFDK7N7IH7ZKACRYAN&workerId=A16335MOISDG1F&assignmentId=3YZ8UPK3VU8BO5O782BM90FIDG5CU1&a=3UZY9&tp_a=3UZY9&b=3YZ8UPK3VU8BO5O782BM90FIDG5CU1&tp_b=3YZ8UPK3VU8BO5O782BM90FIDG5CU1&c=365799&tp_c=365799"},{"rt":1243,"stimulus":"\n            <h4 style=\"color:Orange;\">Student 6</h4>\n            <h2>The weight of your coin is <b style=\"color:Tomato;\">0.2</b>.</h2>\n            <p>In this block, you will be giving <b>one</b> set of examples to Student 6.</p>\n                <p>You will receive feedback at the end of the block.</p>\n            <p></p>","response":0,"trial_type":"html-button-response","trial_index":48,"time_elapsed":609165,"internal_node_id":"0.0-44.0","params":{"nStudents":24,"maxFlips":30,"completionMinutes":45,"basePay":8,"maxBonus":9,"perTrialBonus":0.5,"perTrialBonusThreshold":0.05,"exampleCost":0.01},"classroomParams":{"A":{"a":1,"b":4},"B":{"a":4,"b":1},"C":{"a":2,"b":8},"D":{"a":8,"b":2}},"conditions":["nonSeqFull","nonSeqPartial","seqNoFeedback","seqFeedback"],"classroomPairings":[["A","B"],["C","D"]],"coinWeights":[0.2,0.5,0.8],"subjectId":"A16335MOISDG1F","assignmentId":"3YZ8UPK3VU8BO5O782BM90FIDG5CU1","hitId":"3E9VAUV7BW02QFDK7N7IH7ZKACRYAN","url":"https://gershmanlab.com/experiments/alicia/teaching/experiment/?hitId=3E9VAUV7BW02QFDK7N7IH7ZKACRYAN&workerId=A16335MOISDG1F&assignmentId=3YZ8UPK3VU8BO5O782BM90FIDG5CU1&a=3UZY9&tp_a=3UZY9&b=3YZ8UPK3VU8BO5O782BM90FIDG5CU1&tp_b=3YZ8UPK3VU8BO5O782BM90FIDG5CU1&c=365799&tp_c=365799"},{"rt":10320,"response":{"heads":"2","tails":"8"},"type":"response","condition":"nonSeqFull","trueTheta":0.2,"classrooms":["C","D"],"studentTrueClassroom":"D","exampleSet":"first","trial_type":"survey-html-form","trial_index":49,"time_elapsed":619486,"internal_node_id":"0.0-45.0-0.0","params":{"nStudents":24,"maxFlips":30,"completionMinutes":45,"basePay":8,"maxBonus":9,"perTrialBonus":0.5,"perTrialBonusThreshold":0.05,"exampleCost":0.01},"classroomParams":{"A":{"a":1,"b":4},"B":{"a":4,"b":1},"C":{"a":2,"b":8},"D":{"a":8,"b":2}},"conditions":["nonSeqFull","nonSeqPartial","seqNoFeedback","seqFeedback"],"classroomPairings":[["A","B"],["C","D"]],"coinWeights":[0.2,0.5,0.8],"subjectId":"A16335MOISDG1F","assignmentId":"3YZ8UPK3VU8BO5O782BM90FIDG5CU1","hitId":"3E9VAUV7BW02QFDK7N7IH7ZKACRYAN","url":"https://gershmanlab.com/experiments/alicia/teaching/experiment/?hitId=3E9VAUV7BW02QFDK7N7IH7ZKACRYAN&workerId=A16335MOISDG1F&assignmentId=3YZ8UPK3VU8BO5O782BM90FIDG5CU1&a=3UZY9&tp_a=3UZY9&b=3YZ8UPK3VU8BO5O782BM90FIDG5CU1&tp_b=3YZ8UPK3VU8BO5O782BM90FIDG5CU1&c=365799&tp_c=365799","heads":2,"tails":8,"studentIndex":5,"studentTrueHypers":{"a":8,"b":2},"studentGuess":0.5,"delta":0.3,"totalExamples":10,"bonus":0,"bonusSoFar":0.4},{"rt":null,"stimulus":"Sending examples to student... ","response":null,"trial_type":"html-keyboard-response","trial_index":50,"time_elapsed":621495,"internal_node_id":"0.0-46.0","params":{"nStudents":24,"maxFlips":30,"completionMinutes":45,"basePay":8,"maxBonus":9,"perTrialBonus":0.5,"perTrialBonusThreshold":0.05,"exampleCost":0.01},"classroomParams":{"A":{"a":1,"b":4},"B":{"a":4,"b":1},"C":{"a":2,"b":8},"D":{"a":8,"b":2}},"conditions":["nonSeqFull","nonSeqPartial","seqNoFeedback","seqFeedback"],"classroomPairings":[["A","B"],["C","D"]],"coinWeights":[0.2,0.5,0.8],"subjectId":"A16335MOISDG1F","assignmentId":"3YZ8UPK3VU8BO5O782BM90FIDG5CU1","hitId":"3E9VAUV7BW02QFDK7N7IH7ZKACRYAN","url":"https://gershmanlab.com/experiments/alicia/teaching/experiment/?hitId=3E9VAUV7BW02QFDK7N7IH7ZKACRYAN&workerId=A16335MOISDG1F&assignmentId=3YZ8UPK3VU8BO5O782BM90FIDG5CU1&a=3UZY9&tp_a=3UZY9&b=3YZ8UPK3VU8BO5O782BM90FIDG5CU1&tp_b=3YZ8UPK3VU8BO5O782BM90FIDG5CU1&c=365799&tp_c=365799"},{"rt":null,"stimulus":"Examples sent to student! Waiting for student...","response":null,"trial_type":"html-keyboard-response","trial_index":51,"time_elapsed":627496,"internal_node_id":"0.0-47.0","params":{"nStudents":24,"maxFlips":30,"completionMinutes":45,"basePay":8,"maxBonus":9,"perTrialBonus":0.5,"perTrialBonusThreshold":0.05,"exampleCost":0.01},"classroomParams":{"A":{"a":1,"b":4},"B":{"a":4,"b":1},"C":{"a":2,"b":8},"D":{"a":8,"b":2}},"conditions":["nonSeqFull","nonSeqPartial","seqNoFeedback","seqFeedback"],"classroomPairings":[["A","B"],["C","D"]],"coinWeights":[0.2,0.5,0.8],"subjectId":"A16335MOISDG1F","assignmentId":"3YZ8UPK3VU8BO5O782BM90FIDG5CU1","hitId":"3E9VAUV7BW02QFDK7N7IH7ZKACRYAN","url":"https://gershmanlab.com/experiments/alicia/teaching/experiment/?hitId=3E9VAUV7BW02QFDK7N7IH7ZKACRYAN&workerId=A16335MOISDG1F&assignmentId=3YZ8UPK3VU8BO5O782BM90FIDG5CU1&a=3UZY9&tp_a=3UZY9&b=3YZ8UPK3VU8BO5O782BM90FIDG5CU1&tp_b=3YZ8UPK3VU8BO5O782BM90FIDG5CU1&c=365799&tp_c=365799"},{"rt":4000,"stimulus":"\n                <p>Student's guess for coin weight: <b style=\"color:Tomato;\">0.50</b></p>\n                <p>You received a bonus of <b>$0</b>. Total bonus so far: <b>$0.40</b></b></p>\n                <p></p>\n                <p>Press any key to continue.</p>\n                ","response":" ","trial_type":"html-keyboard-response","trial_index":52,"time_elapsed":631498,"internal_node_id":"0.0-48.0","params":{"nStudents":24,"maxFlips":30,"completionMinutes":45,"basePay":8,"maxBonus":9,"perTrialBonus":0.5,"perTrialBonusThreshold":0.05,"exampleCost":0.01},"classroomParams":{"A":{"a":1,"b":4},"B":{"a":4,"b":1},"C":{"a":2,"b":8},"D":{"a":8,"b":2}},"conditions":["nonSeqFull","nonSeqPartial","seqNoFeedback","seqFeedback"],"classroomPairings":[["A","B"],["C","D"]],"coinWeights":[0.2,0.5,0.8],"subjectId":"A16335MOISDG1F","assignmentId":"3YZ8UPK3VU8BO5O782BM90FIDG5CU1","hitId":"3E9VAUV7BW02QFDK7N7IH7ZKACRYAN","url":"https://gershmanlab.com/experiments/alicia/teaching/experiment/?hitId=3E9VAUV7BW02QFDK7N7IH7ZKACRYAN&workerId=A16335MOISDG1F&assignmentId=3YZ8UPK3VU8BO5O782BM90FIDG5CU1&a=3UZY9&tp_a=3UZY9&b=3YZ8UPK3VU8BO5O782BM90FIDG5CU1&tp_b=3YZ8UPK3VU8BO5O782BM90FIDG5CU1&c=365799&tp_c=365799"},{"rt":null,"stimulus":"<div style=\"font-size:60px;\">Next student</div>","response":null,"trial_type":"html-keyboard-response","trial_index":53,"time_elapsed":634500,"internal_node_id":"0.0-49.0-0.0","params":{"nStudents":24,"maxFlips":30,"completionMinutes":45,"basePay":8,"maxBonus":9,"perTrialBonus":0.5,"perTrialBonusThreshold":0.05,"exampleCost":0.01},"classroomParams":{"A":{"a":1,"b":4},"B":{"a":4,"b":1},"C":{"a":2,"b":8},"D":{"a":8,"b":2}},"conditions":["nonSeqFull","nonSeqPartial","seqNoFeedback","seqFeedback"],"classroomPairings":[["A","B"],["C","D"]],"coinWeights":[0.2,0.5,0.8],"subjectId":"A16335MOISDG1F","assignmentId":"3YZ8UPK3VU8BO5O782BM90FIDG5CU1","hitId":"3E9VAUV7BW02QFDK7N7IH7ZKACRYAN","url":"https://gershmanlab.com/experiments/alicia/teaching/experiment/?hitId=3E9VAUV7BW02QFDK7N7IH7ZKACRYAN&workerId=A16335MOISDG1F&assignmentId=3YZ8UPK3VU8BO5O782BM90FIDG5CU1&a=3UZY9&tp_a=3UZY9&b=3YZ8UPK3VU8BO5O782BM90FIDG5CU1&tp_b=3YZ8UPK3VU8BO5O782BM90FIDG5CU1&c=365799&tp_c=365799"},{"rt":14283,"stimulus":"\n            <h4 style=\"color:Orange;\">Student 7</h4>\n            <h2>The weight of your coin is <b style=\"color:Tomato;\">0.8</b>.</h2>\n            <p>In this block, you will be giving <b>two</b> sets of examples to Student 7.</p>\n                <p>You will see the student's guess after the first set of examples. You will also receive feedback at the end of the block.</p>\n            <p>To earn the highest bonus, you will have to <b>take into consideration the student's guess</b> when you choose your second set of examples.</p>","response":0,"trial_type":"html-button-response","trial_index":54,"time_elapsed":648784,"internal_node_id":"0.0-50.0","params":{"nStudents":24,"maxFlips":30,"completionMinutes":45,"basePay":8,"maxBonus":9,"perTrialBonus":0.5,"perTrialBonusThreshold":0.05,"exampleCost":0.01},"classroomParams":{"A":{"a":1,"b":4},"B":{"a":4,"b":1},"C":{"a":2,"b":8},"D":{"a":8,"b":2}},"conditions":["nonSeqFull","nonSeqPartial","seqNoFeedback","seqFeedback"],"classroomPairings":[["A","B"],["C","D"]],"coinWeights":[0.2,0.5,0.8],"subjectId":"A16335MOISDG1F","assignmentId":"3YZ8UPK3VU8BO5O782BM90FIDG5CU1","hitId":"3E9VAUV7BW02QFDK7N7IH7ZKACRYAN","url":"https://gershmanlab.com/experiments/alicia/teaching/experiment/?hitId=3E9VAUV7BW02QFDK7N7IH7ZKACRYAN&workerId=A16335MOISDG1F&assignmentId=3YZ8UPK3VU8BO5O782BM90FIDG5CU1&a=3UZY9&tp_a=3UZY9&b=3YZ8UPK3VU8BO5O782BM90FIDG5CU1&tp_b=3YZ8UPK3VU8BO5O782BM90FIDG5CU1&c=365799&tp_c=365799"},{"rt":43379,"response":{"heads":"8","tails":"2"},"type":"response","condition":"seqFeedback","trueTheta":0.8,"classrooms":["C","D"],"studentTrueClassroom":"D","exampleSet":"first","trial_type":"survey-html-form","trial_index":55,"time_elapsed":692164,"internal_node_id":"0.0-51.0-0.0","params":{"nStudents":24,"maxFlips":30,"completionMinutes":45,"basePay":8,"maxBonus":9,"perTrialBonus":0.5,"perTrialBonusThreshold":0.05,"exampleCost":0.01},"classroomParams":{"A":{"a":1,"b":4},"B":{"a":4,"b":1},"C":{"a":2,"b":8},"D":{"a":8,"b":2}},"conditions":["nonSeqFull","nonSeqPartial","seqNoFeedback","seqFeedback"],"classroomPairings":[["A","B"],["C","D"]],"coinWeights":[0.2,0.5,0.8],"subjectId":"A16335MOISDG1F","assignmentId":"3YZ8UPK3VU8BO5O782BM90FIDG5CU1","hitId":"3E9VAUV7BW02QFDK7N7IH7ZKACRYAN","url":"https://gershmanlab.com/experiments/alicia/teaching/experiment/?hitId=3E9VAUV7BW02QFDK7N7IH7ZKACRYAN&workerId=A16335MOISDG1F&assignmentId=3YZ8UPK3VU8BO5O782BM90FIDG5CU1&a=3UZY9&tp_a=3UZY9&b=3YZ8UPK3VU8BO5O782BM90FIDG5CU1&tp_b=3YZ8UPK3VU8BO5O782BM90FIDG5CU1&c=365799&tp_c=365799","heads":8,"tails":2,"studentIndex":6,"studentTrueHypers":{"a":8,"b":2},"studentGuess":0.8,"delta":0,"totalExamples":10,"bonusSoFar":0.4},{"rt":null,"stimulus":"Sending examples to student... ","response":null,"trial_type":"html-keyboard-response","trial_index":56,"time_elapsed":693418,"internal_node_id":"0.0-52.0","params":{"nStudents":24,"maxFlips":30,"completionMinutes":45,"basePay":8,"maxBonus":9,"perTrialBonus":0.5,"perTrialBonusThreshold":0.05,"exampleCost":0.01},"classroomParams":{"A":{"a":1,"b":4},"B":{"a":4,"b":1},"C":{"a":2,"b":8},"D":{"a":8,"b":2}},"conditions":["nonSeqFull","nonSeqPartial","seqNoFeedback","seqFeedback"],"classroomPairings":[["A","B"],["C","D"]],"coinWeights":[0.2,0.5,0.8],"subjectId":"A16335MOISDG1F","assignmentId":"3YZ8UPK3VU8BO5O782BM90FIDG5CU1","hitId":"3E9VAUV7BW02QFDK7N7IH7ZKACRYAN","url":"https://gershmanlab.com/experiments/alicia/teaching/experiment/?hitId=3E9VAUV7BW02QFDK7N7IH7ZKACRYAN&workerId=A16335MOISDG1F&assignmentId=3YZ8UPK3VU8BO5O782BM90FIDG5CU1&a=3UZY9&tp_a=3UZY9&b=3YZ8UPK3VU8BO5O782BM90FIDG5CU1&tp_b=3YZ8UPK3VU8BO5O782BM90FIDG5CU1&c=365799&tp_c=365799"},{"rt":null,"stimulus":"Examples sent to student! Waiting for student...","response":null,"trial_type":"html-keyboard-response","trial_index":57,"time_elapsed":697420,"internal_node_id":"0.0-53.0","params":{"nStudents":24,"maxFlips":30,"completionMinutes":45,"basePay":8,"maxBonus":9,"perTrialBonus":0.5,"perTrialBonusThreshold":0.05,"exampleCost":0.01},"classroomParams":{"A":{"a":1,"b":4},"B":{"a":4,"b":1},"C":{"a":2,"b":8},"D":{"a":8,"b":2}},"conditions":["nonSeqFull","nonSeqPartial","seqNoFeedback","seqFeedback"],"classroomPairings":[["A","B"],["C","D"]],"coinWeights":[0.2,0.5,0.8],"subjectId":"A16335MOISDG1F","assignmentId":"3YZ8UPK3VU8BO5O782BM90FIDG5CU1","hitId":"3E9VAUV7BW02QFDK7N7IH7ZKACRYAN","url":"https://gershmanlab.com/experiments/alicia/teaching/experiment/?hitId=3E9VAUV7BW02QFDK7N7IH7ZKACRYAN&workerId=A16335MOISDG1F&assignmentId=3YZ8UPK3VU8BO5O782BM90FIDG5CU1&a=3UZY9&tp_a=3UZY9&b=3YZ8UPK3VU8BO5O782BM90FIDG5CU1&tp_b=3YZ8UPK3VU8BO5O782BM90FIDG5CU1&c=365799&tp_c=365799"},{"rt":6067,"stimulus":"\n                <p>Student's guess for coin weight: <b style=\"color:Tomato;\">0.80</b></p>\n                <p></b></p>\n                <p>You will now send another set of examples to your student. <b>Remember to take your student's guess into consideration so that you can earn the highest bonus possible!</b> </p>\n                <p>Press any key to continue.</p>\n                ","response":" ","trial_type":"html-keyboard-response","trial_index":58,"time_elapsed":703488,"internal_node_id":"0.0-54.0","params":{"nStudents":24,"maxFlips":30,"completionMinutes":45,"basePay":8,"maxBonus":9,"perTrialBonus":0.5,"perTrialBonusThreshold":0.05,"exampleCost":0.01},"classroomParams":{"A":{"a":1,"b":4},"B":{"a":4,"b":1},"C":{"a":2,"b":8},"D":{"a":8,"b":2}},"conditions":["nonSeqFull","nonSeqPartial","seqNoFeedback","seqFeedback"],"classroomPairings":[["A","B"],["C","D"]],"coinWeights":[0.2,0.5,0.8],"subjectId":"A16335MOISDG1F","assignmentId":"3YZ8UPK3VU8BO5O782BM90FIDG5CU1","hitId":"3E9VAUV7BW02QFDK7N7IH7ZKACRYAN","url":"https://gershmanlab.com/experiments/alicia/teaching/experiment/?hitId=3E9VAUV7BW02QFDK7N7IH7ZKACRYAN&workerId=A16335MOISDG1F&assignmentId=3YZ8UPK3VU8BO5O782BM90FIDG5CU1&a=3UZY9&tp_a=3UZY9&b=3YZ8UPK3VU8BO5O782BM90FIDG5CU1&tp_b=3YZ8UPK3VU8BO5O782BM90FIDG5CU1&c=365799&tp_c=365799"},{"rt":5134,"response":{"heads":"8","tails":"2"},"type":"response","condition":"seqFeedback","trueTheta":0.8,"classrooms":["C","D"],"studentTrueClassroom":"D","exampleSet":"second","trial_type":"survey-html-form","trial_index":59,"time_elapsed":708623,"internal_node_id":"0.0-55.0-0.0","params":{"nStudents":24,"maxFlips":30,"completionMinutes":45,"basePay":8,"maxBonus":9,"perTrialBonus":0.5,"perTrialBonusThreshold":0.05,"exampleCost":0.01},"classroomParams":{"A":{"a":1,"b":4},"B":{"a":4,"b":1},"C":{"a":2,"b":8},"D":{"a":8,"b":2}},"conditions":["nonSeqFull","nonSeqPartial","seqNoFeedback","seqFeedback"],"classroomPairings":[["A","B"],["C","D"]],"coinWeights":[0.2,0.5,0.8],"subjectId":"A16335MOISDG1F","assignmentId":"3YZ8UPK3VU8BO5O782BM90FIDG5CU1","hitId":"3E9VAUV7BW02QFDK7N7IH7ZKACRYAN","url":"https://gershmanlab.com/experiments/alicia/teaching/experiment/?hitId=3E9VAUV7BW02QFDK7N7IH7ZKACRYAN&workerId=A16335MOISDG1F&assignmentId=3YZ8UPK3VU8BO5O782BM90FIDG5CU1&a=3UZY9&tp_a=3UZY9&b=3YZ8UPK3VU8BO5O782BM90FIDG5CU1&tp_b=3YZ8UPK3VU8BO5O782BM90FIDG5CU1&c=365799&tp_c=365799","firstResponseHeads":8,"firstResponseTails":2,"secondResponseHeads":8,"secondResponseTails":2,"totalHeads":16,"totalTails":4,"studentIndex":6,"studentTrueHypers":{"a":8,"b":2},"studentGuess":0.8,"delta":0,"bonus":0.3,"bonusSoFar":0.7,"totalExamples":20},{"rt":null,"stimulus":"Sending examples to student... ","response":null,"trial_type":"html-keyboard-response","trial_index":60,"time_elapsed":710125,"internal_node_id":"0.0-56.0","params":{"nStudents":24,"maxFlips":30,"completionMinutes":45,"basePay":8,"maxBonus":9,"perTrialBonus":0.5,"perTrialBonusThreshold":0.05,"exampleCost":0.01},"classroomParams":{"A":{"a":1,"b":4},"B":{"a":4,"b":1},"C":{"a":2,"b":8},"D":{"a":8,"b":2}},"conditions":["nonSeqFull","nonSeqPartial","seqNoFeedback","seqFeedback"],"classroomPairings":[["A","B"],["C","D"]],"coinWeights":[0.2,0.5,0.8],"subjectId":"A16335MOISDG1F","assignmentId":"3YZ8UPK3VU8BO5O782BM90FIDG5CU1","hitId":"3E9VAUV7BW02QFDK7N7IH7ZKACRYAN","url":"https://gershmanlab.com/experiments/alicia/teaching/experiment/?hitId=3E9VAUV7BW02QFDK7N7IH7ZKACRYAN&workerId=A16335MOISDG1F&assignmentId=3YZ8UPK3VU8BO5O782BM90FIDG5CU1&a=3UZY9&tp_a=3UZY9&b=3YZ8UPK3VU8BO5O782BM90FIDG5CU1&tp_b=3YZ8UPK3VU8BO5O782BM90FIDG5CU1&c=365799&tp_c=365799"},{"rt":null,"stimulus":"Examples sent to student! Waiting for student...","response":null,"trial_type":"html-keyboard-response","trial_index":61,"time_elapsed":715127,"internal_node_id":"0.0-57.0","params":{"nStudents":24,"maxFlips":30,"completionMinutes":45,"basePay":8,"maxBonus":9,"perTrialBonus":0.5,"perTrialBonusThreshold":0.05,"exampleCost":0.01},"classroomParams":{"A":{"a":1,"b":4},"B":{"a":4,"b":1},"C":{"a":2,"b":8},"D":{"a":8,"b":2}},"conditions":["nonSeqFull","nonSeqPartial","seqNoFeedback","seqFeedback"],"classroomPairings":[["A","B"],["C","D"]],"coinWeights":[0.2,0.5,0.8],"subjectId":"A16335MOISDG1F","assignmentId":"3YZ8UPK3VU8BO5O782BM90FIDG5CU1","hitId":"3E9VAUV7BW02QFDK7N7IH7ZKACRYAN","url":"https://gershmanlab.com/experiments/alicia/teaching/experiment/?hitId=3E9VAUV7BW02QFDK7N7IH7ZKACRYAN&workerId=A16335MOISDG1F&assignmentId=3YZ8UPK3VU8BO5O782BM90FIDG5CU1&a=3UZY9&tp_a=3UZY9&b=3YZ8UPK3VU8BO5O782BM90FIDG5CU1&tp_b=3YZ8UPK3VU8BO5O782BM90FIDG5CU1&c=365799&tp_c=365799"},{"rt":2674,"stimulus":"\n                <p>Student 7's first guess for coin weight: <b style=\"color:Tomato\";>0.80</b></p>\n                <p>Student 7's second guess for coin weight: <b style=\"color:Tomato\";>0.80</b></p>\n                <p>You received a bonus of <b>$0.30</b> based on the student's second guess.</p>\n                <p>Total bonus so far: <b>$0.70</b></p>\n                <p>Press any key to continue.</p>\n                ","response":" ","trial_type":"html-keyboard-response","trial_index":62,"time_elapsed":717803,"internal_node_id":"0.0-58.0","params":{"nStudents":24,"maxFlips":30,"completionMinutes":45,"basePay":8,"maxBonus":9,"perTrialBonus":0.5,"perTrialBonusThreshold":0.05,"exampleCost":0.01},"classroomParams":{"A":{"a":1,"b":4},"B":{"a":4,"b":1},"C":{"a":2,"b":8},"D":{"a":8,"b":2}},"conditions":["nonSeqFull","nonSeqPartial","seqNoFeedback","seqFeedback"],"classroomPairings":[["A","B"],["C","D"]],"coinWeights":[0.2,0.5,0.8],"subjectId":"A16335MOISDG1F","assignmentId":"3YZ8UPK3VU8BO5O782BM90FIDG5CU1","hitId":"3E9VAUV7BW02QFDK7N7IH7ZKACRYAN","url":"https://gershmanlab.com/experiments/alicia/teaching/experiment/?hitId=3E9VAUV7BW02QFDK7N7IH7ZKACRYAN&workerId=A16335MOISDG1F&assignmentId=3YZ8UPK3VU8BO5O782BM90FIDG5CU1&a=3UZY9&tp_a=3UZY9&b=3YZ8UPK3VU8BO5O782BM90FIDG5CU1&tp_b=3YZ8UPK3VU8BO5O782BM90FIDG5CU1&c=365799&tp_c=365799"},{"rt":null,"stimulus":"<div style=\"font-size:60px;\">Next student</div>","response":null,"trial_type":"html-keyboard-response","trial_index":63,"time_elapsed":720310,"internal_node_id":"0.0-59.0-0.0","params":{"nStudents":24,"maxFlips":30,"completionMinutes":45,"basePay":8,"maxBonus":9,"perTrialBonus":0.5,"perTrialBonusThreshold":0.05,"exampleCost":0.01},"classroomParams":{"A":{"a":1,"b":4},"B":{"a":4,"b":1},"C":{"a":2,"b":8},"D":{"a":8,"b":2}},"conditions":["nonSeqFull","nonSeqPartial","seqNoFeedback","seqFeedback"],"classroomPairings":[["A","B"],["C","D"]],"coinWeights":[0.2,0.5,0.8],"subjectId":"A16335MOISDG1F","assignmentId":"3YZ8UPK3VU8BO5O782BM90FIDG5CU1","hitId":"3E9VAUV7BW02QFDK7N7IH7ZKACRYAN","url":"https://gershmanlab.com/experiments/alicia/teaching/experiment/?hitId=3E9VAUV7BW02QFDK7N7IH7ZKACRYAN&workerId=A16335MOISDG1F&assignmentId=3YZ8UPK3VU8BO5O782BM90FIDG5CU1&a=3UZY9&tp_a=3UZY9&b=3YZ8UPK3VU8BO5O782BM90FIDG5CU1&tp_b=3YZ8UPK3VU8BO5O782BM90FIDG5CU1&c=365799&tp_c=365799"},{"rt":1323,"stimulus":"\n            <h4 style=\"color:Orange;\">Student 8</h4>\n            <h2>The weight of your coin is <b style=\"color:Tomato;\">0.2</b>.</h2>\n            <p>In this block, you will be giving <b>two</b> sets of examples to Student 8.</p>\n                <p>You will see the student's guess after the first set of examples. You will also receive feedback at the end of the block.</p>\n            <p>To earn the highest bonus, you will have to <b>take into consideration the student's guess</b> when you choose your second set of examples.</p>","response":0,"trial_type":"html-button-response","trial_index":64,"time_elapsed":721635,"internal_node_id":"0.0-60.0","params":{"nStudents":24,"maxFlips":30,"completionMinutes":45,"basePay":8,"maxBonus":9,"perTrialBonus":0.5,"perTrialBonusThreshold":0.05,"exampleCost":0.01},"classroomParams":{"A":{"a":1,"b":4},"B":{"a":4,"b":1},"C":{"a":2,"b":8},"D":{"a":8,"b":2}},"conditions":["nonSeqFull","nonSeqPartial","seqNoFeedback","seqFeedback"],"classroomPairings":[["A","B"],["C","D"]],"coinWeights":[0.2,0.5,0.8],"subjectId":"A16335MOISDG1F","assignmentId":"3YZ8UPK3VU8BO5O782BM90FIDG5CU1","hitId":"3E9VAUV7BW02QFDK7N7IH7ZKACRYAN","url":"https://gershmanlab.com/experiments/alicia/teaching/experiment/?hitId=3E9VAUV7BW02QFDK7N7IH7ZKACRYAN&workerId=A16335MOISDG1F&assignmentId=3YZ8UPK3VU8BO5O782BM90FIDG5CU1&a=3UZY9&tp_a=3UZY9&b=3YZ8UPK3VU8BO5O782BM90FIDG5CU1&tp_b=3YZ8UPK3VU8BO5O782BM90FIDG5CU1&c=365799&tp_c=365799"},{"rt":9848,"response":{"heads":"1","tails":"4"},"type":"response","condition":"seqFeedback","trueTheta":0.2,"classrooms":["A","B"],"studentTrueClassroom":"B","exampleSet":"first","trial_type":"survey-html-form","trial_index":65,"time_elapsed":731484,"internal_node_id":"0.0-61.0-0.0","params":{"nStudents":24,"maxFlips":30,"completionMinutes":45,"basePay":8,"maxBonus":9,"perTrialBonus":0.5,"perTrialBonusThreshold":0.05,"exampleCost":0.01},"classroomParams":{"A":{"a":1,"b":4},"B":{"a":4,"b":1},"C":{"a":2,"b":8},"D":{"a":8,"b":2}},"conditions":["nonSeqFull","nonSeqPartial","seqNoFeedback","seqFeedback"],"classroomPairings":[["A","B"],["C","D"]],"coinWeights":[0.2,0.5,0.8],"subjectId":"A16335MOISDG1F","assignmentId":"3YZ8UPK3VU8BO5O782BM90FIDG5CU1","hitId":"3E9VAUV7BW02QFDK7N7IH7ZKACRYAN","url":"https://gershmanlab.com/experiments/alicia/teaching/experiment/?hitId=3E9VAUV7BW02QFDK7N7IH7ZKACRYAN&workerId=A16335MOISDG1F&assignmentId=3YZ8UPK3VU8BO5O782BM90FIDG5CU1&a=3UZY9&tp_a=3UZY9&b=3YZ8UPK3VU8BO5O782BM90FIDG5CU1&tp_b=3YZ8UPK3VU8BO5O782BM90FIDG5CU1&c=365799&tp_c=365799","heads":1,"tails":4,"studentIndex":7,"studentTrueHypers":{"a":4,"b":1},"studentGuess":0.5,"delta":0.3,"totalExamples":5,"bonusSoFar":0.7},{"rt":null,"stimulus":"Sending examples to student... ","response":null,"trial_type":"html-keyboard-response","trial_index":66,"time_elapsed":733486,"internal_node_id":"0.0-62.0","params":{"nStudents":24,"maxFlips":30,"completionMinutes":45,"basePay":8,"maxBonus":9,"perTrialBonus":0.5,"perTrialBonusThreshold":0.05,"exampleCost":0.01},"classroomParams":{"A":{"a":1,"b":4},"B":{"a":4,"b":1},"C":{"a":2,"b":8},"D":{"a":8,"b":2}},"conditions":["nonSeqFull","nonSeqPartial","seqNoFeedback","seqFeedback"],"classroomPairings":[["A","B"],["C","D"]],"coinWeights":[0.2,0.5,0.8],"subjectId":"A16335MOISDG1F","assignmentId":"3YZ8UPK3VU8BO5O782BM90FIDG5CU1","hitId":"3E9VAUV7BW02QFDK7N7IH7ZKACRYAN","url":"https://gershmanlab.com/experiments/alicia/teaching/experiment/?hitId=3E9VAUV7BW02QFDK7N7IH7ZKACRYAN&workerId=A16335MOISDG1F&assignmentId=3YZ8UPK3VU8BO5O782BM90FIDG5CU1&a=3UZY9&tp_a=3UZY9&b=3YZ8UPK3VU8BO5O782BM90FIDG5CU1&tp_b=3YZ8UPK3VU8BO5O782BM90FIDG5CU1&c=365799&tp_c=365799"},{"rt":null,"stimulus":"Examples sent to student! Waiting for student...","response":null,"trial_type":"html-keyboard-response","trial_index":67,"time_elapsed":738487,"internal_node_id":"0.0-63.0","params":{"nStudents":24,"maxFlips":30,"completionMinutes":45,"basePay":8,"maxBonus":9,"perTrialBonus":0.5,"perTrialBonusThreshold":0.05,"exampleCost":0.01},"classroomParams":{"A":{"a":1,"b":4},"B":{"a":4,"b":1},"C":{"a":2,"b":8},"D":{"a":8,"b":2}},"conditions":["nonSeqFull","nonSeqPartial","seqNoFeedback","seqFeedback"],"classroomPairings":[["A","B"],["C","D"]],"coinWeights":[0.2,0.5,0.8],"subjectId":"A16335MOISDG1F","assignmentId":"3YZ8UPK3VU8BO5O782BM90FIDG5CU1","hitId":"3E9VAUV7BW02QFDK7N7IH7ZKACRYAN","url":"https://gershmanlab.com/experiments/alicia/teaching/experiment/?hitId=3E9VAUV7BW02QFDK7N7IH7ZKACRYAN&workerId=A16335MOISDG1F&assignmentId=3YZ8UPK3VU8BO5O782BM90FIDG5CU1&a=3UZY9&tp_a=3UZY9&b=3YZ8UPK3VU8BO5O782BM90FIDG5CU1&tp_b=3YZ8UPK3VU8BO5O782BM90FIDG5CU1&c=365799&tp_c=365799"},{"rt":3688,"stimulus":"\n                <p>Student's guess for coin weight: <b style=\"color:Tomato;\">0.50</b></p>\n                <p></b></p>\n                <p>You will now send another set of examples to your student. <b>Remember to take your student's guess into consideration so that you can earn the highest bonus possible!</b> </p>\n                <p>Press any key to continue.</p>\n                ","response":" ","trial_type":"html-keyboard-response","trial_index":68,"time_elapsed":742176,"internal_node_id":"0.0-64.0","params":{"nStudents":24,"maxFlips":30,"completionMinutes":45,"basePay":8,"maxBonus":9,"perTrialBonus":0.5,"perTrialBonusThreshold":0.05,"exampleCost":0.01},"classroomParams":{"A":{"a":1,"b":4},"B":{"a":4,"b":1},"C":{"a":2,"b":8},"D":{"a":8,"b":2}},"conditions":["nonSeqFull","nonSeqPartial","seqNoFeedback","seqFeedback"],"classroomPairings":[["A","B"],["C","D"]],"coinWeights":[0.2,0.5,0.8],"subjectId":"A16335MOISDG1F","assignmentId":"3YZ8UPK3VU8BO5O782BM90FIDG5CU1","hitId":"3E9VAUV7BW02QFDK7N7IH7ZKACRYAN","url":"https://gershmanlab.com/experiments/alicia/teaching/experiment/?hitId=3E9VAUV7BW02QFDK7N7IH7ZKACRYAN&workerId=A16335MOISDG1F&assignmentId=3YZ8UPK3VU8BO5O782BM90FIDG5CU1&a=3UZY9&tp_a=3UZY9&b=3YZ8UPK3VU8BO5O782BM90FIDG5CU1&tp_b=3YZ8UPK3VU8BO5O782BM90FIDG5CU1&c=365799&tp_c=365799"},{"rt":18957,"response":{"heads":"1","tails":"4"},"type":"response","condition":"seqFeedback","trueTheta":0.2,"classrooms":["A","B"],"studentTrueClassroom":"B","exampleSet":"second","trial_type":"survey-html-form","trial_index":69,"time_elapsed":761135,"internal_node_id":"0.0-65.0-0.0","params":{"nStudents":24,"maxFlips":30,"completionMinutes":45,"basePay":8,"maxBonus":9,"perTrialBonus":0.5,"perTrialBonusThreshold":0.05,"exampleCost":0.01},"classroomParams":{"A":{"a":1,"b":4},"B":{"a":4,"b":1},"C":{"a":2,"b":8},"D":{"a":8,"b":2}},"conditions":["nonSeqFull","nonSeqPartial","seqNoFeedback","seqFeedback"],"classroomPairings":[["A","B"],["C","D"]],"coinWeights":[0.2,0.5,0.8],"subjectId":"A16335MOISDG1F","assignmentId":"3YZ8UPK3VU8BO5O782BM90FIDG5CU1","hitId":"3E9VAUV7BW02QFDK7N7IH7ZKACRYAN","url":"https://gershmanlab.com/experiments/alicia/teaching/experiment/?hitId=3E9VAUV7BW02QFDK7N7IH7ZKACRYAN&workerId=A16335MOISDG1F&assignmentId=3YZ8UPK3VU8BO5O782BM90FIDG5CU1&a=3UZY9&tp_a=3UZY9&b=3YZ8UPK3VU8BO5O782BM90FIDG5CU1&tp_b=3YZ8UPK3VU8BO5O782BM90FIDG5CU1&c=365799&tp_c=365799","firstResponseHeads":1,"firstResponseTails":4,"secondResponseHeads":1,"secondResponseTails":4,"totalHeads":2,"totalTails":8,"studentIndex":7,"studentTrueHypers":{"a":4,"b":1},"studentGuess":0.4,"delta":0.2,"bonus":0,"bonusSoFar":0.7,"totalExamples":10},{"rt":null,"stimulus":"Sending examples to student... ","response":null,"trial_type":"html-keyboard-response","trial_index":70,"time_elapsed":763136,"internal_node_id":"0.0-66.0","params":{"nStudents":24,"maxFlips":30,"completionMinutes":45,"basePay":8,"maxBonus":9,"perTrialBonus":0.5,"perTrialBonusThreshold":0.05,"exampleCost":0.01},"classroomParams":{"A":{"a":1,"b":4},"B":{"a":4,"b":1},"C":{"a":2,"b":8},"D":{"a":8,"b":2}},"conditions":["nonSeqFull","nonSeqPartial","seqNoFeedback","seqFeedback"],"classroomPairings":[["A","B"],["C","D"]],"coinWeights":[0.2,0.5,0.8],"subjectId":"A16335MOISDG1F","assignmentId":"3YZ8UPK3VU8BO5O782BM90FIDG5CU1","hitId":"3E9VAUV7BW02QFDK7N7IH7ZKACRYAN","url":"https://gershmanlab.com/experiments/alicia/teaching/experiment/?hitId=3E9VAUV7BW02QFDK7N7IH7ZKACRYAN&workerId=A16335MOISDG1F&assignmentId=3YZ8UPK3VU8BO5O782BM90FIDG5CU1&a=3UZY9&tp_a=3UZY9&b=3YZ8UPK3VU8BO5O782BM90FIDG5CU1&tp_b=3YZ8UPK3VU8BO5O782BM90FIDG5CU1&c=365799&tp_c=365799"},{"rt":null,"stimulus":"Examples sent to student! Waiting for student...","response":null,"trial_type":"html-keyboard-response","trial_index":71,"time_elapsed":768146,"internal_node_id":"0.0-67.0","params":{"nStudents":24,"maxFlips":30,"completionMinutes":45,"basePay":8,"maxBonus":9,"perTrialBonus":0.5,"perTrialBonusThreshold":0.05,"exampleCost":0.01},"classroomParams":{"A":{"a":1,"b":4},"B":{"a":4,"b":1},"C":{"a":2,"b":8},"D":{"a":8,"b":2}},"conditions":["nonSeqFull","nonSeqPartial","seqNoFeedback","seqFeedback"],"classroomPairings":[["A","B"],["C","D"]],"coinWeights":[0.2,0.5,0.8],"subjectId":"A16335MOISDG1F","assignmentId":"3YZ8UPK3VU8BO5O782BM90FIDG5CU1","hitId":"3E9VAUV7BW02QFDK7N7IH7ZKACRYAN","url":"https://gershmanlab.com/experiments/alicia/teaching/experiment/?hitId=3E9VAUV7BW02QFDK7N7IH7ZKACRYAN&workerId=A16335MOISDG1F&assignmentId=3YZ8UPK3VU8BO5O782BM90FIDG5CU1&a=3UZY9&tp_a=3UZY9&b=3YZ8UPK3VU8BO5O782BM90FIDG5CU1&tp_b=3YZ8UPK3VU8BO5O782BM90FIDG5CU1&c=365799&tp_c=365799"},{"rt":5102,"stimulus":"\n                <p>Student 8's first guess for coin weight: <b style=\"color:Tomato\";>0.50</b></p>\n                <p>Student 8's second guess for coin weight: <b style=\"color:Tomato\";>0.40</b></p>\n                <p>You received a bonus of <b>$0.00</b> based on the student's second guess.</p>\n                <p>Total bonus so far: <b>$0.70</b></p>\n                <p>Press any key to continue.</p>\n                ","response":" ","trial_type":"html-keyboard-response","trial_index":72,"time_elapsed":773249,"internal_node_id":"0.0-68.0","params":{"nStudents":24,"maxFlips":30,"completionMinutes":45,"basePay":8,"maxBonus":9,"perTrialBonus":0.5,"perTrialBonusThreshold":0.05,"exampleCost":0.01},"classroomParams":{"A":{"a":1,"b":4},"B":{"a":4,"b":1},"C":{"a":2,"b":8},"D":{"a":8,"b":2}},"conditions":["nonSeqFull","nonSeqPartial","seqNoFeedback","seqFeedback"],"classroomPairings":[["A","B"],["C","D"]],"coinWeights":[0.2,0.5,0.8],"subjectId":"A16335MOISDG1F","assignmentId":"3YZ8UPK3VU8BO5O782BM90FIDG5CU1","hitId":"3E9VAUV7BW02QFDK7N7IH7ZKACRYAN","url":"https://gershmanlab.com/experiments/alicia/teaching/experiment/?hitId=3E9VAUV7BW02QFDK7N7IH7ZKACRYAN&workerId=A16335MOISDG1F&assignmentId=3YZ8UPK3VU8BO5O782BM90FIDG5CU1&a=3UZY9&tp_a=3UZY9&b=3YZ8UPK3VU8BO5O782BM90FIDG5CU1&tp_b=3YZ8UPK3VU8BO5O782BM90FIDG5CU1&c=365799&tp_c=365799"},{"rt":null,"stimulus":"<div style=\"font-size:60px;\">Next student</div>","response":null,"trial_type":"html-keyboard-response","trial_index":73,"time_elapsed":775508,"internal_node_id":"0.0-69.0-0.0","params":{"nStudents":24,"maxFlips":30,"completionMinutes":45,"basePay":8,"maxBonus":9,"perTrialBonus":0.5,"perTrialBonusThreshold":0.05,"exampleCost":0.01},"classroomParams":{"A":{"a":1,"b":4},"B":{"a":4,"b":1},"C":{"a":2,"b":8},"D":{"a":8,"b":2}},"conditions":["nonSeqFull","nonSeqPartial","seqNoFeedback","seqFeedback"],"classroomPairings":[["A","B"],["C","D"]],"coinWeights":[0.2,0.5,0.8],"subjectId":"A16335MOISDG1F","assignmentId":"3YZ8UPK3VU8BO5O782BM90FIDG5CU1","hitId":"3E9VAUV7BW02QFDK7N7IH7ZKACRYAN","url":"https://gershmanlab.com/experiments/alicia/teaching/experiment/?hitId=3E9VAUV7BW02QFDK7N7IH7ZKACRYAN&workerId=A16335MOISDG1F&assignmentId=3YZ8UPK3VU8BO5O782BM90FIDG5CU1&a=3UZY9&tp_a=3UZY9&b=3YZ8UPK3VU8BO5O782BM90FIDG5CU1&tp_b=3YZ8UPK3VU8BO5O782BM90FIDG5CU1&c=365799&tp_c=365799"},{"rt":1171,"stimulus":"\n            <h4 style=\"color:Orange;\">Student 9</h4>\n            <h2>The weight of your coin is <b style=\"color:Tomato;\">0.8</b>.</h2>\n            <p>In this block, you will be giving <b>two</b> sets of examples to Student 9.</p>\n                <p>You will see the student's guess after the first set of examples. You will also receive feedback at the end of the block.</p>\n            <p>To earn the highest bonus, you will have to <b>take into consideration the student's guess</b> when you choose your second set of examples.</p>","response":0,"trial_type":"html-button-response","trial_index":74,"time_elapsed":776680,"internal_node_id":"0.0-70.0","params":{"nStudents":24,"maxFlips":30,"completionMinutes":45,"basePay":8,"maxBonus":9,"perTrialBonus":0.5,"perTrialBonusThreshold":0.05,"exampleCost":0.01},"classroomParams":{"A":{"a":1,"b":4},"B":{"a":4,"b":1},"C":{"a":2,"b":8},"D":{"a":8,"b":2}},"conditions":["nonSeqFull","nonSeqPartial","seqNoFeedback","seqFeedback"],"classroomPairings":[["A","B"],["C","D"]],"coinWeights":[0.2,0.5,0.8],"subjectId":"A16335MOISDG1F","assignmentId":"3YZ8UPK3VU8BO5O782BM90FIDG5CU1","hitId":"3E9VAUV7BW02QFDK7N7IH7ZKACRYAN","url":"https://gershmanlab.com/experiments/alicia/teaching/experiment/?hitId=3E9VAUV7BW02QFDK7N7IH7ZKACRYAN&workerId=A16335MOISDG1F&assignmentId=3YZ8UPK3VU8BO5O782BM90FIDG5CU1&a=3UZY9&tp_a=3UZY9&b=3YZ8UPK3VU8BO5O782BM90FIDG5CU1&tp_b=3YZ8UPK3VU8BO5O782BM90FIDG5CU1&c=365799&tp_c=365799"},{"rt":8444,"response":{"heads":"4","tails":"1"},"type":"response","condition":"seqFeedback","trueTheta":0.8,"classrooms":["A","B"],"studentTrueClassroom":"B","exampleSet":"first","trial_type":"survey-html-form","trial_index":75,"time_elapsed":785125,"internal_node_id":"0.0-71.0-0.0","params":{"nStudents":24,"maxFlips":30,"completionMinutes":45,"basePay":8,"maxBonus":9,"perTrialBonus":0.5,"perTrialBonusThreshold":0.05,"exampleCost":0.01},"classroomParams":{"A":{"a":1,"b":4},"B":{"a":4,"b":1},"C":{"a":2,"b":8},"D":{"a":8,"b":2}},"conditions":["nonSeqFull","nonSeqPartial","seqNoFeedback","seqFeedback"],"classroomPairings":[["A","B"],["C","D"]],"coinWeights":[0.2,0.5,0.8],"subjectId":"A16335MOISDG1F","assignmentId":"3YZ8UPK3VU8BO5O782BM90FIDG5CU1","hitId":"3E9VAUV7BW02QFDK7N7IH7ZKACRYAN","url":"https://gershmanlab.com/experiments/alicia/teaching/experiment/?hitId=3E9VAUV7BW02QFDK7N7IH7ZKACRYAN&workerId=A16335MOISDG1F&assignmentId=3YZ8UPK3VU8BO5O782BM90FIDG5CU1&a=3UZY9&tp_a=3UZY9&b=3YZ8UPK3VU8BO5O782BM90FIDG5CU1&tp_b=3YZ8UPK3VU8BO5O782BM90FIDG5CU1&c=365799&tp_c=365799","heads":4,"tails":1,"studentIndex":8,"studentTrueHypers":{"a":4,"b":1},"studentGuess":0.8,"delta":0,"totalExamples":5,"bonusSoFar":0.7},{"rt":null,"stimulus":"Sending examples to student... ","response":null,"trial_type":"html-keyboard-response","trial_index":76,"time_elapsed":786376,"internal_node_id":"0.0-72.0","params":{"nStudents":24,"maxFlips":30,"completionMinutes":45,"basePay":8,"maxBonus":9,"perTrialBonus":0.5,"perTrialBonusThreshold":0.05,"exampleCost":0.01},"classroomParams":{"A":{"a":1,"b":4},"B":{"a":4,"b":1},"C":{"a":2,"b":8},"D":{"a":8,"b":2}},"conditions":["nonSeqFull","nonSeqPartial","seqNoFeedback","seqFeedback"],"classroomPairings":[["A","B"],["C","D"]],"coinWeights":[0.2,0.5,0.8],"subjectId":"A16335MOISDG1F","assignmentId":"3YZ8UPK3VU8BO5O782BM90FIDG5CU1","hitId":"3E9VAUV7BW02QFDK7N7IH7ZKACRYAN","url":"https://gershmanlab.com/experiments/alicia/teaching/experiment/?hitId=3E9VAUV7BW02QFDK7N7IH7ZKACRYAN&workerId=A16335MOISDG1F&assignmentId=3YZ8UPK3VU8BO5O782BM90FIDG5CU1&a=3UZY9&tp_a=3UZY9&b=3YZ8UPK3VU8BO5O782BM90FIDG5CU1&tp_b=3YZ8UPK3VU8BO5O782BM90FIDG5CU1&c=365799&tp_c=365799"},{"rt":null,"stimulus":"Examples sent to student! Waiting for student...","response":null,"trial_type":"html-keyboard-response","trial_index":77,"time_elapsed":791381,"internal_node_id":"0.0-73.0","params":{"nStudents":24,"maxFlips":30,"completionMinutes":45,"basePay":8,"maxBonus":9,"perTrialBonus":0.5,"perTrialBonusThreshold":0.05,"exampleCost":0.01},"classroomParams":{"A":{"a":1,"b":4},"B":{"a":4,"b":1},"C":{"a":2,"b":8},"D":{"a":8,"b":2}},"conditions":["nonSeqFull","nonSeqPartial","seqNoFeedback","seqFeedback"],"classroomPairings":[["A","B"],["C","D"]],"coinWeights":[0.2,0.5,0.8],"subjectId":"A16335MOISDG1F","assignmentId":"3YZ8UPK3VU8BO5O782BM90FIDG5CU1","hitId":"3E9VAUV7BW02QFDK7N7IH7ZKACRYAN","url":"https://gershmanlab.com/experiments/alicia/teaching/experiment/?hitId=3E9VAUV7BW02QFDK7N7IH7ZKACRYAN&workerId=A16335MOISDG1F&assignmentId=3YZ8UPK3VU8BO5O782BM90FIDG5CU1&a=3UZY9&tp_a=3UZY9&b=3YZ8UPK3VU8BO5O782BM90FIDG5CU1&tp_b=3YZ8UPK3VU8BO5O782BM90FIDG5CU1&c=365799&tp_c=365799"},{"rt":1778,"stimulus":"\n                <p>Student's guess for coin weight: <b style=\"color:Tomato;\">0.80</b></p>\n                <p></b></p>\n                <p>You will now send another set of examples to your student. <b>Remember to take your student's guess into consideration so that you can earn the highest bonus possible!</b> </p>\n                <p>Press any key to continue.</p>\n                ","response":" ","trial_type":"html-keyboard-response","trial_index":78,"time_elapsed":793160,"internal_node_id":"0.0-74.0","params":{"nStudents":24,"maxFlips":30,"completionMinutes":45,"basePay":8,"maxBonus":9,"perTrialBonus":0.5,"perTrialBonusThreshold":0.05,"exampleCost":0.01},"classroomParams":{"A":{"a":1,"b":4},"B":{"a":4,"b":1},"C":{"a":2,"b":8},"D":{"a":8,"b":2}},"conditions":["nonSeqFull","nonSeqPartial","seqNoFeedback","seqFeedback"],"classroomPairings":[["A","B"],["C","D"]],"coinWeights":[0.2,0.5,0.8],"subjectId":"A16335MOISDG1F","assignmentId":"3YZ8UPK3VU8BO5O782BM90FIDG5CU1","hitId":"3E9VAUV7BW02QFDK7N7IH7ZKACRYAN","url":"https://gershmanlab.com/experiments/alicia/teaching/experiment/?hitId=3E9VAUV7BW02QFDK7N7IH7ZKACRYAN&workerId=A16335MOISDG1F&assignmentId=3YZ8UPK3VU8BO5O782BM90FIDG5CU1&a=3UZY9&tp_a=3UZY9&b=3YZ8UPK3VU8BO5O782BM90FIDG5CU1&tp_b=3YZ8UPK3VU8BO5O782BM90FIDG5CU1&c=365799&tp_c=365799"},{"rt":3629,"response":{"heads":"4","tails":"1"},"type":"response","condition":"seqFeedback","trueTheta":0.8,"classrooms":["A","B"],"studentTrueClassroom":"B","exampleSet":"second","trial_type":"survey-html-form","trial_index":79,"time_elapsed":796791,"internal_node_id":"0.0-75.0-0.0","params":{"nStudents":24,"maxFlips":30,"completionMinutes":45,"basePay":8,"maxBonus":9,"perTrialBonus":0.5,"perTrialBonusThreshold":0.05,"exampleCost":0.01},"classroomParams":{"A":{"a":1,"b":4},"B":{"a":4,"b":1},"C":{"a":2,"b":8},"D":{"a":8,"b":2}},"conditions":["nonSeqFull","nonSeqPartial","seqNoFeedback","seqFeedback"],"classroomPairings":[["A","B"],["C","D"]],"coinWeights":[0.2,0.5,0.8],"subjectId":"A16335MOISDG1F","assignmentId":"3YZ8UPK3VU8BO5O782BM90FIDG5CU1","hitId":"3E9VAUV7BW02QFDK7N7IH7ZKACRYAN","url":"https://gershmanlab.com/experiments/alicia/teaching/experiment/?hitId=3E9VAUV7BW02QFDK7N7IH7ZKACRYAN&workerId=A16335MOISDG1F&assignmentId=3YZ8UPK3VU8BO5O782BM90FIDG5CU1&a=3UZY9&tp_a=3UZY9&b=3YZ8UPK3VU8BO5O782BM90FIDG5CU1&tp_b=3YZ8UPK3VU8BO5O782BM90FIDG5CU1&c=365799&tp_c=365799","firstResponseHeads":4,"firstResponseTails":1,"secondResponseHeads":4,"secondResponseTails":1,"totalHeads":8,"totalTails":2,"studentIndex":8,"studentTrueHypers":{"a":4,"b":1},"studentGuess":0.8,"delta":0,"bonus":0.4,"bonusSoFar":1.1,"totalExamples":10},{"rt":null,"stimulus":"Sending examples to student... ","response":null,"trial_type":"html-keyboard-response","trial_index":80,"time_elapsed":798043,"internal_node_id":"0.0-76.0","params":{"nStudents":24,"maxFlips":30,"completionMinutes":45,"basePay":8,"maxBonus":9,"perTrialBonus":0.5,"perTrialBonusThreshold":0.05,"exampleCost":0.01},"classroomParams":{"A":{"a":1,"b":4},"B":{"a":4,"b":1},"C":{"a":2,"b":8},"D":{"a":8,"b":2}},"conditions":["nonSeqFull","nonSeqPartial","seqNoFeedback","seqFeedback"],"classroomPairings":[["A","B"],["C","D"]],"coinWeights":[0.2,0.5,0.8],"subjectId":"A16335MOISDG1F","assignmentId":"3YZ8UPK3VU8BO5O782BM90FIDG5CU1","hitId":"3E9VAUV7BW02QFDK7N7IH7ZKACRYAN","url":"https://gershmanlab.com/experiments/alicia/teaching/experiment/?hitId=3E9VAUV7BW02QFDK7N7IH7ZKACRYAN&workerId=A16335MOISDG1F&assignmentId=3YZ8UPK3VU8BO5O782BM90FIDG5CU1&a=3UZY9&tp_a=3UZY9&b=3YZ8UPK3VU8BO5O782BM90FIDG5CU1&tp_b=3YZ8UPK3VU8BO5O782BM90FIDG5CU1&c=365799&tp_c=365799"},{"rt":null,"stimulus":"Examples sent to student! Waiting for student...","response":null,"trial_type":"html-keyboard-response","trial_index":81,"time_elapsed":803046,"internal_node_id":"0.0-77.0","params":{"nStudents":24,"maxFlips":30,"completionMinutes":45,"basePay":8,"maxBonus":9,"perTrialBonus":0.5,"perTrialBonusThreshold":0.05,"exampleCost":0.01},"classroomParams":{"A":{"a":1,"b":4},"B":{"a":4,"b":1},"C":{"a":2,"b":8},"D":{"a":8,"b":2}},"conditions":["nonSeqFull","nonSeqPartial","seqNoFeedback","seqFeedback"],"classroomPairings":[["A","B"],["C","D"]],"coinWeights":[0.2,0.5,0.8],"subjectId":"A16335MOISDG1F","assignmentId":"3YZ8UPK3VU8BO5O782BM90FIDG5CU1","hitId":"3E9VAUV7BW02QFDK7N7IH7ZKACRYAN","url":"https://gershmanlab.com/experiments/alicia/teaching/experiment/?hitId=3E9VAUV7BW02QFDK7N7IH7ZKACRYAN&workerId=A16335MOISDG1F&assignmentId=3YZ8UPK3VU8BO5O782BM90FIDG5CU1&a=3UZY9&tp_a=3UZY9&b=3YZ8UPK3VU8BO5O782BM90FIDG5CU1&tp_b=3YZ8UPK3VU8BO5O782BM90FIDG5CU1&c=365799&tp_c=365799"},{"rt":1515,"stimulus":"\n                <p>Student 9's first guess for coin weight: <b style=\"color:Tomato\";>0.80</b></p>\n                <p>Student 9's second guess for coin weight: <b style=\"color:Tomato\";>0.80</b></p>\n                <p>You received a bonus of <b>$0.40</b> based on the student's second guess.</p>\n                <p>Total bonus so far: <b>$1.10</b></p>\n                <p>Press any key to continue.</p>\n                ","response":" ","trial_type":"html-keyboard-response","trial_index":82,"time_elapsed":804563,"internal_node_id":"0.0-78.0","params":{"nStudents":24,"maxFlips":30,"completionMinutes":45,"basePay":8,"maxBonus":9,"perTrialBonus":0.5,"perTrialBonusThreshold":0.05,"exampleCost":0.01},"classroomParams":{"A":{"a":1,"b":4},"B":{"a":4,"b":1},"C":{"a":2,"b":8},"D":{"a":8,"b":2}},"conditions":["nonSeqFull","nonSeqPartial","seqNoFeedback","seqFeedback"],"classroomPairings":[["A","B"],["C","D"]],"coinWeights":[0.2,0.5,0.8],"subjectId":"A16335MOISDG1F","assignmentId":"3YZ8UPK3VU8BO5O782BM90FIDG5CU1","hitId":"3E9VAUV7BW02QFDK7N7IH7ZKACRYAN","url":"https://gershmanlab.com/experiments/alicia/teaching/experiment/?hitId=3E9VAUV7BW02QFDK7N7IH7ZKACRYAN&workerId=A16335MOISDG1F&assignmentId=3YZ8UPK3VU8BO5O782BM90FIDG5CU1&a=3UZY9&tp_a=3UZY9&b=3YZ8UPK3VU8BO5O782BM90FIDG5CU1&tp_b=3YZ8UPK3VU8BO5O782BM90FIDG5CU1&c=365799&tp_c=365799"},{"rt":null,"stimulus":"<div style=\"font-size:60px;\">Next student</div>","response":null,"trial_type":"html-keyboard-response","trial_index":83,"time_elapsed":806815,"internal_node_id":"0.0-79.0-0.0","params":{"nStudents":24,"maxFlips":30,"completionMinutes":45,"basePay":8,"maxBonus":9,"perTrialBonus":0.5,"perTrialBonusThreshold":0.05,"exampleCost":0.01},"classroomParams":{"A":{"a":1,"b":4},"B":{"a":4,"b":1},"C":{"a":2,"b":8},"D":{"a":8,"b":2}},"conditions":["nonSeqFull","nonSeqPartial","seqNoFeedback","seqFeedback"],"classroomPairings":[["A","B"],["C","D"]],"coinWeights":[0.2,0.5,0.8],"subjectId":"A16335MOISDG1F","assignmentId":"3YZ8UPK3VU8BO5O782BM90FIDG5CU1","hitId":"3E9VAUV7BW02QFDK7N7IH7ZKACRYAN","url":"https://gershmanlab.com/experiments/alicia/teaching/experiment/?hitId=3E9VAUV7BW02QFDK7N7IH7ZKACRYAN&workerId=A16335MOISDG1F&assignmentId=3YZ8UPK3VU8BO5O782BM90FIDG5CU1&a=3UZY9&tp_a=3UZY9&b=3YZ8UPK3VU8BO5O782BM90FIDG5CU1&tp_b=3YZ8UPK3VU8BO5O782BM90FIDG5CU1&c=365799&tp_c=365799"},{"rt":1504,"stimulus":"\n            <h4 style=\"color:Orange;\">Student 10</h4>\n            <h2>The weight of your coin is <b style=\"color:Tomato;\">0.5</b>.</h2>\n            <p>In this block, you will be giving <b>two</b> sets of examples to Student 10.</p>\n                <p>You will see the student's guess after the first set of examples. You will also receive feedback at the end of the block.</p>\n            <p>To earn the highest bonus, you will have to <b>take into consideration the student's guess</b> when you choose your second set of examples.</p>","response":0,"trial_type":"html-button-response","trial_index":84,"time_elapsed":808320,"internal_node_id":"0.0-80.0","params":{"nStudents":24,"maxFlips":30,"completionMinutes":45,"basePay":8,"maxBonus":9,"perTrialBonus":0.5,"perTrialBonusThreshold":0.05,"exampleCost":0.01},"classroomParams":{"A":{"a":1,"b":4},"B":{"a":4,"b":1},"C":{"a":2,"b":8},"D":{"a":8,"b":2}},"conditions":["nonSeqFull","nonSeqPartial","seqNoFeedback","seqFeedback"],"classroomPairings":[["A","B"],["C","D"]],"coinWeights":[0.2,0.5,0.8],"subjectId":"A16335MOISDG1F","assignmentId":"3YZ8UPK3VU8BO5O782BM90FIDG5CU1","hitId":"3E9VAUV7BW02QFDK7N7IH7ZKACRYAN","url":"https://gershmanlab.com/experiments/alicia/teaching/experiment/?hitId=3E