[{"rt":2550,"stimulus":"Welcome to the experiment. Press any key to begin.","response":" ","trial_type":"html-keyboard-response","trial_index":0,"time_elapsed":2564,"internal_node_id":"0.0-0.0","params":{"nStudents":24,"maxFlips":30,"completionMinutes":45,"basePay":8,"maxBonus":9,"perTrialBonus":0.5,"perTrialBonusThreshold":0.05,"exampleCost":0.01},"classroomParams":{"A":{"a":1,"b":4},"B":{"a":4,"b":1},"C":{"a":2,"b":8},"D":{"a":8,"b":2}},"conditions":["nonSeqFull","nonSeqPartial","seqNoFeedback","seqFeedback"],"classroomPairings":[["A","B"],["C","D"]],"coinWeights":[0.2,0.5,0.8],"subjectId":"A16G6PPH1INQL8","assignmentId":"3IQ1VMJRYU6PBY36QDK4792G0SAA96","hitId":"32TZXEA1OL6QYKM0MXQIQH2ABHN14I","url":"https://gershmanlab.com/experiments/alicia/teaching/experiment/?hitId=32TZXEA1OL6QYKM0MXQIQH2ABHN14I&workerId=A16G6PPH1INQL8&assignmentId=3IQ1VMJRYU6PBY36QDK4792G0SAA96&a=RVQI9&tp_a=RVQI9&b=3IQ1VMJRYU6PBY36QDK4792G0SAA96&tp_b=3IQ1VMJRYU6PBY36QDK4792G0SAA96&c=365799&tp_c=365799"},{"rt":8141,"stimulus":"\n        <h3>Please read this consent agreement carefully before deciding whether to participate in this experiment.</h3>\n        <p><b>Purpose of the research:</b> To examine how people teach effectively.</p>\n        <p><b>What you will do in this research:</b> You will teach students the weights of different coins.</p>\n        <p><b>Time required:</b> This experiment will take 45 minutes to complete.</p>\n        <p><b>Risks:</b> There are no anticipated risks associated with participating in this study.             The effects of participating should be comparable to those you would experience from viewing a computer monitor             and using a mouse and keyboard for the duration of the experiment.</p>\n        <p><b>Benefits:</b> The study provides important information about the nature of teaching.</p>\n        <p><b>Compensation:</b> You will receive <b>$8</b> for completing the experiment and a performance bonus of up to <b>$9</b>.</p>\n        <p><b>Confidentiality:</b> Your participation in this study will remain confidential.             No personally identifiable information will be associated with your data.             Your de-identified data may be shared with other researchers and used in future projects.</p>\n        <p><b>Participation and withdrawal:</b> Your participation in this study is completely voluntary and             you may refuse to participate or you may choose to withdraw at any time without penalty or loss of\n            benefits to which you are otherwise entitled.</p>\n        <p><b>How to contact the researcher:</b> If you have questions or concerns about your participation            or payment, or want to request a summary of research findings, please contact\n            Alicia Chen, aliciachen@college.harvard.edu.</p>\n        <p><b>Whom to contact about your rights in this research:</b> For questions, concerns, suggestions,             or complaints that have not been or cannot be addressed by the researcher, or to report             research-related harm, please contact the Committee on the Use of Human Subjects in Research at Harvard University,             1414 Massachusetts Avenue, Second Floor, Cambridge, MA 02138. Phone: 617-496-2847. Email: cuhs@fas.harvard.edu.</p>\n        ","response":0,"trial_type":"html-button-response","trial_index":1,"time_elapsed":10706,"internal_node_id":"0.0-1.0","params":{"nStudents":24,"maxFlips":30,"completionMinutes":45,"basePay":8,"maxBonus":9,"perTrialBonus":0.5,"perTrialBonusThreshold":0.05,"exampleCost":0.01},"classroomParams":{"A":{"a":1,"b":4},"B":{"a":4,"b":1},"C":{"a":2,"b":8},"D":{"a":8,"b":2}},"conditions":["nonSeqFull","nonSeqPartial","seqNoFeedback","seqFeedback"],"classroomPairings":[["A","B"],["C","D"]],"coinWeights":[0.2,0.5,0.8],"subjectId":"A16G6PPH1INQL8","assignmentId":"3IQ1VMJRYU6PBY36QDK4792G0SAA96","hitId":"32TZXEA1OL6QYKM0MXQIQH2ABHN14I","url":"https://gershmanlab.com/experiments/alicia/teaching/experiment/?hitId=32TZXEA1OL6QYKM0MXQIQH2ABHN14I&workerId=A16G6PPH1INQL8&assignmentId=3IQ1VMJRYU6PBY36QDK4792G0SAA96&a=RVQI9&tp_a=RVQI9&b=3IQ1VMJRYU6PBY36QDK4792G0SAA96&tp_b=3IQ1VMJRYU6PBY36QDK4792G0SAA96&c=365799&tp_c=365799"},{"view_history":[{"page_index":0,"viewing_time":4852},{"page_index":1,"viewing_time":3894},{"page_index":2,"viewing_time":577998},{"page_index":3,"viewing_time":44450},{"page_index":4,"viewing_time":4900},{"page_index":3,"viewing_time":1468},{"page_index":2,"viewing_time":3016},{"page_index":1,"viewing_time":1046},{"page_index":2,"viewing_time":1240},{"page_index":3,"viewing_time":12718},{"page_index":4,"viewing_time":129462},{"page_index":5,"viewing_time":62212},{"page_index":6,"viewing_time":27934}],"rt":875191,"trial_type":"instructions","trial_index":2,"time_elapsed":885901,"internal_node_id":"0.0-2.0-0.0","params":{"nStudents":24,"maxFlips":30,"completionMinutes":45,"basePay":8,"maxBonus":9,"perTrialBonus":0.5,"perTrialBonusThreshold":0.05,"exampleCost":0.01},"classroomParams":{"A":{"a":1,"b":4},"B":{"a":4,"b":1},"C":{"a":2,"b":8},"D":{"a":8,"b":2}},"conditions":["nonSeqFull","nonSeqPartial","seqNoFeedback","seqFeedback"],"classroomPairings":[["A","B"],["C","D"]],"coinWeights":[0.2,0.5,0.8],"subjectId":"A16G6PPH1INQL8","assignmentId":"3IQ1VMJRYU6PBY36QDK4792G0SAA96","hitId":"32TZXEA1OL6QYKM0MXQIQH2ABHN14I","url":"https://gershmanlab.com/experiments/alicia/teaching/experiment/?hitId=32TZXEA1OL6QYKM0MXQIQH2ABHN14I&workerId=A16G6PPH1INQL8&assignmentId=3IQ1VMJRYU6PBY36QDK4792G0SAA96&a=RVQI9&tp_a=RVQI9&b=3IQ1VMJRYU6PBY36QDK4792G0SAA96&tp_b=3IQ1VMJRYU6PBY36QDK4792G0SAA96&c=365799&tp_c=365799"},{"rt":203721,"response":{"Q0":"Students in different classrooms will have seen a different number of heads and tails before seeing the examples you select for them.","Q1":"By <b>considering the student's classroom information</b> so that I can teach efficiently and accurately/helpfully at the same time (because each example I give to the student costs money!).","Q2":"The coin lands heads 90% of the time.","Q3":"Yes, I might encounter the same student twice.","Q4":"The students are also on the same alien planet as you, where coins can be unfair.","Q5":"Based on the student's second (and final) guess."},"question_order":[5,4,2,1,0,3],"trial_type":"survey-multi-choice","trial_index":3,"time_elapsed":1089626,"internal_node_id":"0.0-2.0-1.0","params":{"nStudents":24,"maxFlips":30,"completionMinutes":45,"basePay":8,"maxBonus":9,"perTrialBonus":0.5,"perTrialBonusThreshold":0.05,"exampleCost":0.01},"classroomParams":{"A":{"a":1,"b":4},"B":{"a":4,"b":1},"C":{"a":2,"b":8},"D":{"a":8,"b":2}},"conditions":["nonSeqFull","nonSeqPartial","seqNoFeedback","seqFeedback"],"classroomPairings":[["A","B"],["C","D"]],"coinWeights":[0.2,0.5,0.8],"subjectId":"A16G6PPH1INQL8","assignmentId":"3IQ1VMJRYU6PBY36QDK4792G0SAA96","hitId":"32TZXEA1OL6QYKM0MXQIQH2ABHN14I","url":"https://gershmanlab.com/experiments/alicia/teaching/experiment/?hitId=32TZXEA1OL6QYKM0MXQIQH2ABHN14I&workerId=A16G6PPH1INQL8&assignmentId=3IQ1VMJRYU6PBY36QDK4792G0SAA96&a=RVQI9&tp_a=RVQI9&b=3IQ1VMJRYU6PBY36QDK4792G0SAA96&tp_b=3IQ1VMJRYU6PBY36QDK4792G0SAA96&c=365799&tp_c=365799","pass":false},{"rt":1963,"stimulus":"Oops, you have missed question(s) on the comprehension check! We'll show you the instructions again.","response":0,"trial_type":"html-button-response","trial_index":4,"time_elapsed":1091595,"internal_node_id":"0.0-2.0-2.0-0.0","params":{"nStudents":24,"maxFlips":30,"completionMinutes":45,"basePay":8,"maxBonus":9,"perTrialBonus":0.5,"perTrialBonusThreshold":0.05,"exampleCost":0.01},"classroomParams":{"A":{"a":1,"b":4},"B":{"a":4,"b":1},"C":{"a":2,"b":8},"D":{"a":8,"b":2}},"conditions":["nonSeqFull","nonSeqPartial","seqNoFeedback","seqFeedback"],"classroomPairings":[["A","B"],["C","D"]],"coinWeights":[0.2,0.5,0.8],"subjectId":"A16G6PPH1INQL8","assignmentId":"3IQ1VMJRYU6PBY36QDK4792G0SAA96","hitId":"32TZXEA1OL6QYKM0MXQIQH2ABHN14I","url":"https://gershmanlab.com/experiments/alicia/teaching/experiment/?hitId=32TZXEA1OL6QYKM0MXQIQH2ABHN14I&workerId=A16G6PPH1INQL8&assignmentId=3IQ1VMJRYU6PBY36QDK4792G0SAA96&a=RVQI9&tp_a=RVQI9&b=3IQ1VMJRYU6PBY36QDK4792G0SAA96&tp_b=3IQ1VMJRYU6PBY36QDK4792G0SAA96&c=365799&tp_c=365799"},{"view_history":[{"page_index":0,"viewing_time":1298},{"page_index":1,"viewing_time":524},{"page_index":2,"viewing_time":1576},{"page_index":3,"viewing_time":1240},{"page_index":4,"viewing_time":10084},{"page_index":5,"viewing_time":2932},{"page_index":6,"viewing_time":1546}],"rt":19200,"trial_type":"instructions","trial_index":5,"time_elapsed":1110796,"internal_node_id":"0.0-2.1-0.1","params":{"nStudents":24,"maxFlips":30,"completionMinutes":45,"basePay":8,"maxBonus":9,"perTrialBonus":0.5,"perTrialBonusThreshold":0.05,"exampleCost":0.01},"classroomParams":{"A":{"a":1,"b":4},"B":{"a":4,"b":1},"C":{"a":2,"b":8},"D":{"a":8,"b":2}},"conditions":["nonSeqFull","nonSeqPartial","seqNoFeedback","seqFeedback"],"classroomPairings":[["A","B"],["C","D"]],"coinWeights":[0.2,0.5,0.8],"subjectId":"A16G6PPH1INQL8","assignmentId":"3IQ1VMJRYU6PBY36QDK4792G0SAA96","hitId":"32TZXEA1OL6QYKM0MXQIQH2ABHN14I","url":"https://gershmanlab.com/experiments/alicia/teaching/experiment/?hitId=32TZXEA1OL6QYKM0MXQIQH2ABHN14I&workerId=A16G6PPH1INQL8&assignmentId=3IQ1VMJRYU6PBY36QDK4792G0SAA96&a=RVQI9&tp_a=RVQI9&b=3IQ1VMJRYU6PBY36QDK4792G0SAA96&tp_b=3IQ1VMJRYU6PBY36QDK4792G0SAA96&c=365799&tp_c=365799"},{"rt":92560,"response":{"Q0":"Students in different classrooms have seen a different proportion of fair and unfair coins before seeing the examples you select for them.","Q1":"By <b>considering the student's classroom information</b> so that I can teach efficiently and accurately/helpfully at the same time (because each example I give to the student costs money!).","Q2":"The coin lands heads 90% of the time.","Q3":"No, I will teach a <b>new</b> student each time.","Q4":"The students are all on planet Earth, where they tend to believe the vast majority of coins will be fair.","Q5":"Based on the student's second (and final) guess."},"question_order":[2,1,0,5,4,3],"trial_type":"survey-multi-choice","trial_index":6,"time_elapsed":1203358,"internal_node_id":"0.0-2.1-1.1","params":{"nStudents":24,"maxFlips":30,"completionMinutes":45,"basePay":8,"maxBonus":9,"perTrialBonus":0.5,"perTrialBonusThreshold":0.05,"exampleCost":0.01},"classroomParams":{"A":{"a":1,"b":4},"B":{"a":4,"b":1},"C":{"a":2,"b":8},"D":{"a":8,"b":2}},"conditions":["nonSeqFull","nonSeqPartial","seqNoFeedback","seqFeedback"],"classroomPairings":[["A","B"],["C","D"]],"coinWeights":[0.2,0.5,0.8],"subjectId":"A16G6PPH1INQL8","assignmentId":"3IQ1VMJRYU6PBY36QDK4792G0SAA96","hitId":"32TZXEA1OL6QYKM0MXQIQH2ABHN14I","url":"https://gershmanlab.com/experiments/alicia/teaching/experiment/?hitId=32TZXEA1OL6QYKM0MXQIQH2ABHN14I&workerId=A16G6PPH1INQL8&assignmentId=3IQ1VMJRYU6PBY36QDK4792G0SAA96&a=RVQI9&tp_a=RVQI9&b=3IQ1VMJRYU6PBY36QDK4792G0SAA96&tp_b=3IQ1VMJRYU6PBY36QDK4792G0SAA96&c=365799&tp_c=365799","pass":false},{"rt":1910,"stimulus":"Oops, you have missed question(s) on the comprehension check! We'll show you the instructions again.","response":0,"trial_type":"html-button-response","trial_index":7,"time_elapsed":1205274,"internal_node_id":"0.0-2.1-2.1-0.1","params":{"nStudents":24,"maxFlips":30,"completionMinutes":45,"basePay":8,"maxBonus":9,"perTrialBonus":0.5,"perTrialBonusThreshold":0.05,"exampleCost":0.01},"classroomParams":{"A":{"a":1,"b":4},"B":{"a":4,"b":1},"C":{"a":2,"b":8},"D":{"a":8,"b":2}},"conditions":["nonSeqFull","nonSeqPartial","seqNoFeedback","seqFeedback"],"classroomPairings":[["A","B"],["C","D"]],"coinWeights":[0.2,0.5,0.8],"subjectId":"A16G6PPH1INQL8","assignmentId":"3IQ1VMJRYU6PBY36QDK4792G0SAA96","hitId":"32TZXEA1OL6QYKM0MXQIQH2ABHN14I","url":"https://gershmanlab.com/experiments/alicia/teaching/experiment/?hitId=32TZXEA1OL6QYKM0MXQIQH2ABHN14I&workerId=A16G6PPH1INQL8&assignmentId=3IQ1VMJRYU6PBY36QDK4792G0SAA96&a=RVQI9&tp_a=RVQI9&b=3IQ1VMJRYU6PBY36QDK4792G0SAA96&tp_b=3IQ1VMJRYU6PBY36QDK4792G0SAA96&c=365799&tp_c=365799"},{"view_history":[{"page_index":0,"viewing_time":1321},{"page_index":1,"viewing_time":586},{"page_index":2,"viewing_time":1560},{"page_index":1,"viewing_time":1616},{"page_index":2,"viewing_time":4470},{"page_index":3,"viewing_time":3000},{"page_index":4,"viewing_time":3554},{"page_index":5,"viewing_time":11470},{"page_index":6,"viewing_time":5376}],"rt":32953,"trial_type":"instructions","trial_index":8,"time_elapsed":1238228,"internal_node_id":"0.0-2.2-0.2","params":{"nStudents":24,"maxFlips":30,"completionMinutes":45,"basePay":8,"maxBonus":9,"perTrialBonus":0.5,"perTrialBonusThreshold":0.05,"exampleCost":0.01},"classroomParams":{"A":{"a":1,"b":4},"B":{"a":4,"b":1},"C":{"a":2,"b":8},"D":{"a":8,"b":2}},"conditions":["nonSeqFull","nonSeqPartial","seqNoFeedback","seqFeedback"],"classroomPairings":[["A","B"],["C","D"]],"coinWeights":[0.2,0.5,0.8],"subjectId":"A16G6PPH1INQL8","assignmentId":"3IQ1VMJRYU6PBY36QDK4792G0SAA96","hitId":"32TZXEA1OL6QYKM0MXQIQH2ABHN14I","url":"https://gershmanlab.com/experiments/alicia/teaching/experiment/?hitId=32TZXEA1OL6QYKM0MXQIQH2ABHN14I&workerId=A16G6PPH1INQL8&assignmentId=3IQ1VMJRYU6PBY36QDK4792G0SAA96&a=RVQI9&tp_a=RVQI9&b=3IQ1VMJRYU6PBY36QDK4792G0SAA96&tp_b=3IQ1VMJRYU6PBY36QDK4792G0SAA96&c=365799&tp_c=365799"},{"rt":104781,"response":{"Q0":"Students in different classrooms will have seen a different number of heads and tails before seeing the examples you select for them.","Q1":"By <b>considering the student's classroom information</b> so that I can teach efficiently and accurately/helpfully at the same time (because each example I give to the student costs money!).","Q2":"The coin lands heads 90% of the time.","Q3":"Yes, I might encounter the same student twice.","Q4":"The students are all on planet Earth, where they tend to believe the vast majority of coins will be fair.","Q5":"Based on the student's second (and final) guess."},"question_order":[1,3,4,0,2,5],"trial_type":"survey-multi-choice","trial_index":9,"time_elapsed":1343011,"internal_node_id":"0.0-2.2-1.2","params":{"nStudents":24,"maxFlips":30,"completionMinutes":45,"basePay":8,"maxBonus":9,"perTrialBonus":0.5,"perTrialBonusThreshold":0.05,"exampleCost":0.01},"classroomParams":{"A":{"a":1,"b":4},"B":{"a":4,"b":1},"C":{"a":2,"b":8},"D":{"a":8,"b":2}},"conditions":["nonSeqFull","nonSeqPartial","seqNoFeedback","seqFeedback"],"classroomPairings":[["A","B"],["C","D"]],"coinWeights":[0.2,0.5,0.8],"subjectId":"A16G6PPH1INQL8","assignmentId":"3IQ1VMJRYU6PBY36QDK4792G0SAA96","hitId":"32TZXEA1OL6QYKM0MXQIQH2ABHN14I","url":"https://gershmanlab.com/experiments/alicia/teaching/experiment/?hitId=32TZXEA1OL6QYKM0MXQIQH2ABHN14I&workerId=A16G6PPH1INQL8&assignmentId=3IQ1VMJRYU6PBY36QDK4792G0SAA96&a=RVQI9&tp_a=RVQI9&b=3IQ1VMJRYU6PBY36QDK4792G0SAA96&tp_b=3IQ1VMJRYU6PBY36QDK4792G0SAA96&c=365799&tp_c=365799","pass":false},{"rt":2534,"stimulus":"Oops, you have missed question(s) on the comprehension check! We'll show you the instructions again.","response":0,"trial_type":"html-button-response","trial_index":10,"time_elapsed":1345550,"internal_node_id":"0.0-2.2-2.2-0.2","params":{"nStudents":24,"maxFlips":30,"completionMinutes":45,"basePay":8,"maxBonus":9,"perTrialBonus":0.5,"perTrialBonusThreshold":0.05,"exampleCost":0.01},"classroomParams":{"A":{"a":1,"b":4},"B":{"a":4,"b":1},"C":{"a":2,"b":8},"D":{"a":8,"b":2}},"conditions":["nonSeqFull","nonSeqPartial","seqNoFeedback","seqFeedback"],"classroomPairings":[["A","B"],["C","D"]],"coinWeights":[0.2,0.5,0.8],"subjectId":"A16G6PPH1INQL8","assignmentId":"3IQ1VMJRYU6PBY36QDK4792G0SAA96","hitId":"32TZXEA1OL6QYKM0MXQIQH2ABHN14I","url":"https://gershmanlab.com/experiments/alicia/teaching/experiment/?hitId=32TZXEA1OL6QYKM0MXQIQH2ABHN14I&workerId=A16G6PPH1INQL8&assignmentId=3IQ1VMJRYU6PBY36QDK4792G0SAA96&a=RVQI9&tp_a=RVQI9&b=3IQ1VMJRYU6PBY36QDK4792G0SAA96&tp_b=3IQ1VMJRYU6PBY36QDK4792G0SAA96&c=365799&tp_c=365799"},{"view_history":[{"page_index":0,"viewing_time":1929},{"page_index":1,"viewing_time":254},{"page_index":2,"viewing_time":1338},{"page_index":3,"viewing_time":908},{"page_index":4,"viewing_time":1292},{"page_index":5,"viewing_time":1162},{"page_index":6,"viewing_time":2178},{"page_index":5,"viewing_time":2146},{"page_index":6,"viewing_time":3346}],"rt":14553,"trial_type":"instructions","trial_index":11,"time_elapsed":1360104,"internal_node_id":"0.0-2.3-0.3","params":{"nStudents":24,"maxFlips":30,"completionMinutes":45,"basePay":8,"maxBonus":9,"perTrialBonus":0.5,"perTrialBonusThreshold":0.05,"exampleCost":0.01},"classroomParams":{"A":{"a":1,"b":4},"B":{"a":4,"b":1},"C":{"a":2,"b":8},"D":{"a":8,"b":2}},"conditions":["nonSeqFull","nonSeqPartial","seqNoFeedback","seqFeedback"],"classroomPairings":[["A","B"],["C","D"]],"coinWeights":[0.2,0.5,0.8],"subjectId":"A16G6PPH1INQL8","assignmentId":"3IQ1VMJRYU6PBY36QDK4792G0SAA96","hitId":"32TZXEA1OL6QYKM0MXQIQH2ABHN14I","url":"https://gershmanlab.com/experiments/alicia/teaching/experiment/?hitId=32TZXEA1OL6QYKM0MXQIQH2ABHN14I&workerId=A16G6PPH1INQL8&assignmentId=3IQ1VMJRYU6PBY36QDK4792G0SAA96&a=RVQI9&tp_a=RVQI9&b=3IQ1VMJRYU6PBY36QDK4792G0SAA96&tp_b=3IQ1VMJRYU6PBY36QDK4792G0SAA96&c=365799&tp_c=365799"},{"rt":25135,"response":{"Q0":"Students in different classrooms will have seen a different number of heads and tails before seeing the examples you select for them.","Q1":"By <b>considering the student's classroom information</b> so that I can teach efficiently and accurately/helpfully at the same time (because each example I give to the student costs money!).","Q2":"The coin lands heads 90% of the time.","Q3":"No, I will teach a <b>new</b> student each time.","Q4":"The students are also on the same alien planet as you, where coins can be unfair.","Q5":"Based on the student's second (and final) guess."},"question_order":[3,5,4,1,2,0],"trial_type":"survey-multi-choice","trial_index":12,"time_elapsed":1385241,"internal_node_id":"0.0-2.3-1.3","params":{"nStudents":24,"maxFlips":30,"completionMinutes":45,"basePay":8,"maxBonus":9,"perTrialBonus":0.5,"perTrialBonusThreshold":0.05,"exampleCost":0.01},"classroomParams":{"A":{"a":1,"b":4},"B":{"a":4,"b":1},"C":{"a":2,"b":8},"D":{"a":8,"b":2}},"conditions":["nonSeqFull","nonSeqPartial","seqNoFeedback","seqFeedback"],"classroomPairings":[["A","B"],["C","D"]],"coinWeights":[0.2,0.5,0.8],"subjectId":"A16G6PPH1INQL8","assignmentId":"3IQ1VMJRYU6PBY36QDK4792G0SAA96","hitId":"32TZXEA1OL6QYKM0MXQIQH2ABHN14I","url":"https://gershmanlab.com/experiments/alicia/teaching/experiment/?hitId=32TZXEA1OL6QYKM0MXQIQH2ABHN14I&workerId=A16G6PPH1INQL8&assignmentId=3IQ1VMJRYU6PBY36QDK4792G0SAA96&a=RVQI9&tp_a=RVQI9&b=3IQ1VMJRYU6PBY36QDK4792G0SAA96&tp_b=3IQ1VMJRYU6PBY36QDK4792G0SAA96&c=365799&tp_c=365799","pass":true},{"rt":null,"stimulus":"<div style=\"font-size:30px;\">Congrats on passing the comprehension quiz! The experiment will begin in a few seconds.</div>","response":null,"trial_type":"html-keyboard-response","trial_index":13,"time_elapsed":1388258,"internal_node_id":"0.0-3.0","params":{"nStudents":24,"maxFlips":30,"completionMinutes":45,"basePay":8,"maxBonus":9,"perTrialBonus":0.5,"perTrialBonusThreshold":0.05,"exampleCost":0.01},"classroomParams":{"A":{"a":1,"b":4},"B":{"a":4,"b":1},"C":{"a":2,"b":8},"D":{"a":8,"b":2}},"conditions":["nonSeqFull","nonSeqPartial","seqNoFeedback","seqFeedback"],"classroomPairings":[["A","B"],["C","D"]],"coinWeights":[0.2,0.5,0.8],"subjectId":"A16G6PPH1INQL8","assignmentId":"3IQ1VMJRYU6PBY36QDK4792G0SAA96","hitId":"32TZXEA1OL6QYKM0MXQIQH2ABHN14I","url":"https://gershmanlab.com/experiments/alicia/teaching/experiment/?hitId=32TZXEA1OL6QYKM0MXQIQH2ABHN14I&workerId=A16G6PPH1INQL8&assignmentId=3IQ1VMJRYU6PBY36QDK4792G0SAA96&a=RVQI9&tp_a=RVQI9&b=3IQ1VMJRYU6PBY36QDK4792G0SAA96&tp_b=3IQ1VMJRYU6PBY36QDK4792G0SAA96&c=365799&tp_c=365799"},{"rt":null,"stimulus":"<div style=\"font-size:50px;\">First student</div>","response":null,"trial_type":"html-keyboard-response","trial_index":14,"time_elapsed":1391262,"internal_node_id":"0.0-4.0","params":{"nStudents":24,"maxFlips":30,"completionMinutes":45,"basePay":8,"maxBonus":9,"perTrialBonus":0.5,"perTrialBonusThreshold":0.05,"exampleCost":0.01},"classroomParams":{"A":{"a":1,"b":4},"B":{"a":4,"b":1},"C":{"a":2,"b":8},"D":{"a":8,"b":2}},"conditions":["nonSeqFull","nonSeqPartial","seqNoFeedback","seqFeedback"],"classroomPairings":[["A","B"],["C","D"]],"coinWeights":[0.2,0.5,0.8],"subjectId":"A16G6PPH1INQL8","assignmentId":"3IQ1VMJRYU6PBY36QDK4792G0SAA96","hitId":"32TZXEA1OL6QYKM0MXQIQH2ABHN14I","url":"https://gershmanlab.com/experiments/alicia/teaching/experiment/?hitId=32TZXEA1OL6QYKM0MXQIQH2ABHN14I&workerId=A16G6PPH1INQL8&assignmentId=3IQ1VMJRYU6PBY36QDK4792G0SAA96&a=RVQI9&tp_a=RVQI9&b=3IQ1VMJRYU6PBY36QDK4792G0SAA96&tp_b=3IQ1VMJRYU6PBY36QDK4792G0SAA96&c=365799&tp_c=365799"},{"rt":4999,"stimulus":"\n            <h4 style=\"color:Orange;\">Student 1</h4>\n            <h2>The weight of your coin is <b style=\"color:Tomato;\">0.5</b>.</h2>\n            <p>In this block, you will be giving <b>one</b> set of examples to Student 1.</p>\n                <p>You will receive feedback at the end of the block.</p>\n            <p></p>","response":0,"trial_type":"html-button-response","trial_index":15,"time_elapsed":1396263,"internal_node_id":"0.0-5.0","params":{"nStudents":24,"maxFlips":30,"completionMinutes":45,"basePay":8,"maxBonus":9,"perTrialBonus":0.5,"perTrialBonusThreshold":0.05,"exampleCost":0.01},"classroomParams":{"A":{"a":1,"b":4},"B":{"a":4,"b":1},"C":{"a":2,"b":8},"D":{"a":8,"b":2}},"conditions":["nonSeqFull","nonSeqPartial","seqNoFeedback","seqFeedback"],"classroomPairings":[["A","B"],["C","D"]],"coinWeights":[0.2,0.5,0.8],"subjectId":"A16G6PPH1INQL8","assignmentId":"3IQ1VMJRYU6PBY36QDK4792G0SAA96","hitId":"32TZXEA1OL6QYKM0MXQIQH2ABHN14I","url":"https://gershmanlab.com/experiments/alicia/teaching/experiment/?hitId=32TZXEA1OL6QYKM0MXQIQH2ABHN14I&workerId=A16G6PPH1INQL8&assignmentId=3IQ1VMJRYU6PBY36QDK4792G0SAA96&a=RVQI9&tp_a=RVQI9&b=3IQ1VMJRYU6PBY36QDK4792G0SAA96&tp_b=3IQ1VMJRYU6PBY36QDK4792G0SAA96&c=365799&tp_c=365799"},{"rt":38936,"response":{"heads":"2","tails":"2"},"type":"response","condition":"nonSeqPartial","trueTheta":0.5,"classrooms":["C","D"],"studentTrueClassroom":"C","exampleSet":"first","trial_type":"survey-html-form","trial_index":16,"time_elapsed":1435202,"internal_node_id":"0.0-6.0-0.0","params":{"nStudents":24,"maxFlips":30,"completionMinutes":45,"basePay":8,"maxBonus":9,"perTrialBonus":0.5,"perTrialBonusThreshold":0.05,"exampleCost":0.01},"classroomParams":{"A":{"a":1,"b":4},"B":{"a":4,"b":1},"C":{"a":2,"b":8},"D":{"a":8,"b":2}},"conditions":["nonSeqFull","nonSeqPartial","seqNoFeedback","seqFeedback"],"classroomPairings":[["A","B"],["C","D"]],"coinWeights":[0.2,0.5,0.8],"subjectId":"A16G6PPH1INQL8","assignmentId":"3IQ1VMJRYU6PBY36QDK4792G0SAA96","hitId":"32TZXEA1OL6QYKM0MXQIQH2ABHN14I","url":"https://gershmanlab.com/experiments/alicia/teaching/experiment/?hitId=32TZXEA1OL6QYKM0MXQIQH2ABHN14I&workerId=A16G6PPH1INQL8&assignmentId=3IQ1VMJRYU6PBY36QDK4792G0SAA96&a=RVQI9&tp_a=RVQI9&b=3IQ1VMJRYU6PBY36QDK4792G0SAA96&tp_b=3IQ1VMJRYU6PBY36QDK4792G0SAA96&c=365799&tp_c=365799","heads":2,"tails":2,"studentIndex":0,"studentTrueHypers":{"a":2,"b":8},"studentGuess":0.2857142857142857,"delta":0.2142857142857143,"totalExamples":4,"bonus":0,"bonusSoFar":0},{"rt":null,"stimulus":"Sending examples to student... ","response":null,"trial_type":"html-keyboard-response","trial_index":17,"time_elapsed":1436720,"internal_node_id":"0.0-7.0","params":{"nStudents":24,"maxFlips":30,"completionMinutes":45,"basePay":8,"maxBonus":9,"perTrialBonus":0.5,"perTrialBonusThreshold":0.05,"exampleCost":0.01},"classroomParams":{"A":{"a":1,"b":4},"B":{"a":4,"b":1},"C":{"a":2,"b":8},"D":{"a":8,"b":2}},"conditions":["nonSeqFull","nonSeqPartial","seqNoFeedback","seqFeedback"],"classroomPairings":[["A","B"],["C","D"]],"coinWeights":[0.2,0.5,0.8],"subjectId":"A16G6PPH1INQL8","assignmentId":"3IQ1VMJRYU6PBY36QDK4792G0SAA96","hitId":"32TZXEA1OL6QYKM0MXQIQH2ABHN14I","url":"https://gershmanlab.com/experiments/alicia/teaching/experiment/?hitId=32TZXEA1OL6QYKM0MXQIQH2ABHN14I&workerId=A16G6PPH1INQL8&assignmentId=3IQ1VMJRYU6PBY36QDK4792G0SAA96&a=RVQI9&tp_a=RVQI9&b=3IQ1VMJRYU6PBY36QDK4792G0SAA96&tp_b=3IQ1VMJRYU6PBY36QDK4792G0SAA96&c=365799&tp_c=365799"},{"rt":null,"stimulus":"Examples sent to student! Waiting for student...","response":null,"trial_type":"html-keyboard-response","trial_index":18,"time_elapsed":1440730,"internal_node_id":"0.0-8.0","params":{"nStudents":24,"maxFlips":30,"completionMinutes":45,"basePay":8,"maxBonus":9,"perTrialBonus":0.5,"perTrialBonusThreshold":0.05,"exampleCost":0.01},"classroomParams":{"A":{"a":1,"b":4},"B":{"a":4,"b":1},"C":{"a":2,"b":8},"D":{"a":8,"b":2}},"conditions":["nonSeqFull","nonSeqPartial","seqNoFeedback","seqFeedback"],"classroomPairings":[["A","B"],["C","D"]],"coinWeights":[0.2,0.5,0.8],"subjectId":"A16G6PPH1INQL8","assignmentId":"3IQ1VMJRYU6PBY36QDK4792G0SAA96","hitId":"32TZXEA1OL6QYKM0MXQIQH2ABHN14I","url":"https://gershmanlab.com/experiments/alicia/teaching/experiment/?hitId=32TZXEA1OL6QYKM0MXQIQH2ABHN14I&workerId=A16G6PPH1INQL8&assignmentId=3IQ1VMJRYU6PBY36QDK4792G0SAA96&a=RVQI9&tp_a=RVQI9&b=3IQ1VMJRYU6PBY36QDK4792G0SAA96&tp_b=3IQ1VMJRYU6PBY36QDK4792G0SAA96&c=365799&tp_c=365799"},{"rt":4502,"stimulus":"\n                <p>Student's guess for coin weight: <b style=\"color:Tomato;\">0.29</b></p>\n                <p>You received a bonus of <b>$0</b>. Total bonus so far: <b>$0.00</b></b></p>\n                <p></p>\n                <p>Press any key to continue.</p>\n                ","response":" ","trial_type":"html-keyboard-response","trial_index":19,"time_elapsed":1445233,"internal_node_id":"0.0-9.0","params":{"nStudents":24,"maxFlips":30,"completionMinutes":45,"basePay":8,"maxBonus":9,"perTrialBonus":0.5,"perTrialBonusThreshold":0.05,"exampleCost":0.01},"classroomParams":{"A":{"a":1,"b":4},"B":{"a":4,"b":1},"C":{"a":2,"b":8},"D":{"a":8,"b":2}},"conditions":["nonSeqFull","nonSeqPartial","seqNoFeedback","seqFeedback"],"classroomPairings":[["A","B"],["C","D"]],"coinWeights":[0.2,0.5,0.8],"subjectId":"A16G6PPH1INQL8","assignmentId":"3IQ1VMJRYU6PBY36QDK4792G0SAA96","hitId":"32TZXEA1OL6QYKM0MXQIQH2ABHN14I","url":"https://gershmanlab.com/experiments/alicia/teaching/experiment/?hitId=32TZXEA1OL6QYKM0MXQIQH2ABHN14I&workerId=A16G6PPH1INQL8&assignmentId=3IQ1VMJRYU6PBY36QDK4792G0SAA96&a=RVQI9&tp_a=RVQI9&b=3IQ1VMJRYU6PBY36QDK4792G0SAA96&tp_b=3IQ1VMJRYU6PBY36QDK4792G0SAA96&c=365799&tp_c=365799"},{"rt":null,"stimulus":"<div style=\"font-size:60px;\">Next student</div>","response":null,"trial_type":"html-keyboard-response","trial_index":20,"time_elapsed":1448241,"internal_node_id":"0.0-10.0-0.0","params":{"nStudents":24,"maxFlips":30,"completionMinutes":45,"basePay":8,"maxBonus":9,"perTrialBonus":0.5,"perTrialBonusThreshold":0.05,"exampleCost":0.01},"classroomParams":{"A":{"a":1,"b":4},"B":{"a":4,"b":1},"C":{"a":2,"b":8},"D":{"a":8,"b":2}},"conditions":["nonSeqFull","nonSeqPartial","seqNoFeedback","seqFeedback"],"classroomPairings":[["A","B"],["C","D"]],"coinWeights":[0.2,0.5,0.8],"subjectId":"A16G6PPH1INQL8","assignmentId":"3IQ1VMJRYU6PBY36QDK4792G0SAA96","hitId":"32TZXEA1OL6QYKM0MXQIQH2ABHN14I","url":"https://gershmanlab.com/experiments/alicia/teaching/experiment/?hitId=32TZXEA1OL6QYKM0MXQIQH2ABHN14I&workerId=A16G6PPH1INQL8&assignmentId=3IQ1VMJRYU6PBY36QDK4792G0SAA96&a=RVQI9&tp_a=RVQI9&b=3IQ1VMJRYU6PBY36QDK4792G0SAA96&tp_b=3IQ1VMJRYU6PBY36QDK4792G0SAA96&c=365799&tp_c=365799"},{"rt":2452,"stimulus":"\n            <h4 style=\"color:Orange;\">Student 2</h4>\n            <h2>The weight of your coin is <b style=\"color:Tomato;\">0.8</b>.</h2>\n            <p>In this block, you will be giving <b>one</b> set of examples to Student 2.</p>\n                <p>You will receive feedback at the end of the block.</p>\n            <p></p>","response":0,"trial_type":"html-button-response","trial_index":21,"time_elapsed":1450694,"internal_node_id":"0.0-11.0","params":{"nStudents":24,"maxFlips":30,"completionMinutes":45,"basePay":8,"maxBonus":9,"perTrialBonus":0.5,"perTrialBonusThreshold":0.05,"exampleCost":0.01},"classroomParams":{"A":{"a":1,"b":4},"B":{"a":4,"b":1},"C":{"a":2,"b":8},"D":{"a":8,"b":2}},"conditions":["nonSeqFull","nonSeqPartial","seqNoFeedback","seqFeedback"],"classroomPairings":[["A","B"],["C","D"]],"coinWeights":[0.2,0.5,0.8],"subjectId":"A16G6PPH1INQL8","assignmentId":"3IQ1VMJRYU6PBY36QDK4792G0SAA96","hitId":"32TZXEA1OL6QYKM0MXQIQH2ABHN14I","url":"https://gershmanlab.com/experiments/alicia/teaching/experiment/?hitId=32TZXEA1OL6QYKM0MXQIQH2ABHN14I&workerId=A16G6PPH1INQL8&assignmentId=3IQ1VMJRYU6PBY36QDK4792G0SAA96&a=RVQI9&tp_a=RVQI9&b=3IQ1VMJRYU6PBY36QDK4792G0SAA96&tp_b=3IQ1VMJRYU6PBY36QDK4792G0SAA96&c=365799&tp_c=365799"},{"rt":23023,"response":{"heads":"5","tails":"0"},"type":"response","condition":"nonSeqPartial","trueTheta":0.8,"classrooms":["C","D"],"studentTrueClassroom":"D","exampleSet":"first","trial_type":"survey-html-form","trial_index":22,"time_elapsed":1473719,"internal_node_id":"0.0-12.0-0.0","params":{"nStudents":24,"maxFlips":30,"completionMinutes":45,"basePay":8,"maxBonus":9,"perTrialBonus":0.5,"perTrialBonusThreshold":0.05,"exampleCost":0.01},"classroomParams":{"A":{"a":1,"b":4},"B":{"a":4,"b":1},"C":{"a":2,"b":8},"D":{"a":8,"b":2}},"conditions":["nonSeqFull","nonSeqPartial","seqNoFeedback","seqFeedback"],"classroomPairings":[["A","B"],["C","D"]],"coinWeights":[0.2,0.5,0.8],"subjectId":"A16G6PPH1INQL8","assignmentId":"3IQ1VMJRYU6PBY36QDK4792G0SAA96","hitId":"32TZXEA1OL6QYKM0MXQIQH2ABHN14I","url":"https://gershmanlab.com/experiments/alicia/teaching/experiment/?hitId=32TZXEA1OL6QYKM0MXQIQH2ABHN14I&workerId=A16G6PPH1INQL8&assignmentId=3IQ1VMJRYU6PBY36QDK4792G0SAA96&a=RVQI9&tp_a=RVQI9&b=3IQ1VMJRYU6PBY36QDK4792G0SAA96&tp_b=3IQ1VMJRYU6PBY36QDK4792G0SAA96&c=365799&tp_c=365799","heads":5,"tails":0,"studentIndex":1,"studentTrueHypers":{"a":8,"b":2},"studentGuess":0.8666666666666667,"delta":0.06666666666666665,"totalExamples":5,"bonus":0,"bonusSoFar":0},{"rt":null,"stimulus":"Sending examples to student... ","response":null,"trial_type":"html-keyboard-response","trial_index":23,"time_elapsed":1474971,"internal_node_id":"0.0-13.0","params":{"nStudents":24,"maxFlips":30,"completionMinutes":45,"basePay":8,"maxBonus":9,"perTrialBonus":0.5,"perTrialBonusThreshold":0.05,"exampleCost":0.01},"classroomParams":{"A":{"a":1,"b":4},"B":{"a":4,"b":1},"C":{"a":2,"b":8},"D":{"a":8,"b":2}},"conditions":["nonSeqFull","nonSeqPartial","seqNoFeedback","seqFeedback"],"classroomPairings":[["A","B"],["C","D"]],"coinWeights":[0.2,0.5,0.8],"subjectId":"A16G6PPH1INQL8","assignmentId":"3IQ1VMJRYU6PBY36QDK4792G0SAA96","hitId":"32TZXEA1OL6QYKM0MXQIQH2ABHN14I","url":"https://gershmanlab.com/experiments/alicia/teaching/experiment/?hitId=32TZXEA1OL6QYKM0MXQIQH2ABHN14I&workerId=A16G6PPH1INQL8&assignmentId=3IQ1VMJRYU6PBY36QDK4792G0SAA96&a=RVQI9&tp_a=RVQI9&b=3IQ1VMJRYU6PBY36QDK4792G0SAA96&tp_b=3IQ1VMJRYU6PBY36QDK4792G0SAA96&c=365799&tp_c=365799"},{"rt":null,"stimulus":"Examples sent to student! Waiting for student...","response":null,"trial_type":"html-keyboard-response","trial_index":24,"time_elapsed":1479477,"internal_node_id":"0.0-14.0","params":{"nStudents":24,"maxFlips":30,"completionMinutes":45,"basePay":8,"maxBonus":9,"perTrialBonus":0.5,"perTrialBonusThreshold":0.05,"exampleCost":0.01},"classroomParams":{"A":{"a":1,"b":4},"B":{"a":4,"b":1},"C":{"a":2,"b":8},"D":{"a":8,"b":2}},"conditions":["nonSeqFull","nonSeqPartial","seqNoFeedback","seqFeedback"],"classroomPairings":[["A","B"],["C","D"]],"coinWeights":[0.2,0.5,0.8],"subjectId":"A16G6PPH1INQL8","assignmentId":"3IQ1VMJRYU6PBY36QDK4792G0SAA96","hitId":"32TZXEA1OL6QYKM0MXQIQH2ABHN14I","url":"https://gershmanlab.com/experiments/alicia/teaching/experiment/?hitId=32TZXEA1OL6QYKM0MXQIQH2ABHN14I&workerId=A16G6PPH1INQL8&assignmentId=3IQ1VMJRYU6PBY36QDK4792G0SAA96&a=RVQI9&tp_a=RVQI9&b=3IQ1VMJRYU6PBY36QDK4792G0SAA96&tp_b=3IQ1VMJRYU6PBY36QDK4792G0SAA96&c=365799&tp_c=365799"},{"rt":2302,"stimulus":"\n                <p>Student's guess for coin weight: <b style=\"color:Tomato;\">0.87</b></p>\n                <p>You received a bonus of <b>$0</b>. Total bonus so far: <b>$0.00</b></b></p>\n                <p></p>\n                <p>Press any key to continue.</p>\n                ","response":" ","trial_type":"html-keyboard-response","trial_index":25,"time_elapsed":1481780,"internal_node_id":"0.0-15.0","params":{"nStudents":24,"maxFlips":30,"completionMinutes":45,"basePay":8,"maxBonus":9,"perTrialBonus":0.5,"perTrialBonusThreshold":0.05,"exampleCost":0.01},"classroomParams":{"A":{"a":1,"b":4},"B":{"a":4,"b":1},"C":{"a":2,"b":8},"D":{"a":8,"b":2}},"conditions":["nonSeqFull","nonSeqPartial","seqNoFeedback","seqFeedback"],"classroomPairings":[["A","B"],["C","D"]],"coinWeights":[0.2,0.5,0.8],"subjectId":"A16G6PPH1INQL8","assignmentId":"3IQ1VMJRYU6PBY36QDK4792G0SAA96","hitId":"32TZXEA1OL6QYKM0MXQIQH2ABHN14I","url":"https://gershmanlab.com/experiments/alicia/teaching/experiment/?hitId=32TZXEA1OL6QYKM0MXQIQH2ABHN14I&workerId=A16G6PPH1INQL8&assignmentId=3IQ1VMJRYU6PBY36QDK4792G0SAA96&a=RVQI9&tp_a=RVQI9&b=3IQ1VMJRYU6PBY36QDK4792G0SAA96&tp_b=3IQ1VMJRYU6PBY36QDK4792G0SAA96&c=365799&tp_c=365799"},{"rt":null,"stimulus":"<div style=\"font-size:60px;\">Next student</div>","response":null,"trial_type":"html-keyboard-response","trial_index":26,"time_elapsed":1484283,"internal_node_id":"0.0-16.0-0.0","params":{"nStudents":24,"maxFlips":30,"completionMinutes":45,"basePay":8,"maxBonus":9,"perTrialBonus":0.5,"perTrialBonusThreshold":0.05,"exampleCost":0.01},"classroomParams":{"A":{"a":1,"b":4},"B":{"a":4,"b":1},"C":{"a":2,"b":8},"D":{"a":8,"b":2}},"conditions":["nonSeqFull","nonSeqPartial","seqNoFeedback","seqFeedback"],"classroomPairings":[["A","B"],["C","D"]],"coinWeights":[0.2,0.5,0.8],"subjectId":"A16G6PPH1INQL8","assignmentId":"3IQ1VMJRYU6PBY36QDK4792G0SAA96","hitId":"32TZXEA1OL6QYKM0MXQIQH2ABHN14I","url":"https://gershmanlab.com/experiments/alicia/teaching/experiment/?hitId=32TZXEA1OL6QYKM0MXQIQH2ABHN14I&workerId=A16G6PPH1INQL8&assignmentId=3IQ1VMJRYU6PBY36QDK4792G0SAA96&a=RVQI9&tp_a=RVQI9&b=3IQ1VMJRYU6PBY36QDK4792G0SAA96&tp_b=3IQ1VMJRYU6PBY36QDK4792G0SAA96&c=365799&tp_c=365799"},{"rt":3886,"stimulus":"\n            <h4 style=\"color:Orange;\">Student 3</h4>\n            <h2>The weight of your coin is <b style=\"color:Tomato;\">0.5</b>.</h2>\n            <p>In this block, you will be giving <b>one</b> set of examples to Student 3.</p>\n                <p>You will receive feedback at the end of the block.</p>\n            <p></p>","response":0,"trial_type":"html-button-response","trial_index":27,"time_elapsed":1488170,"internal_node_id":"0.0-17.0","params":{"nStudents":24,"maxFlips":30,"completionMinutes":45,"basePay":8,"maxBonus":9,"perTrialBonus":0.5,"perTrialBonusThreshold":0.05,"exampleCost":0.01},"classroomParams":{"A":{"a":1,"b":4},"B":{"a":4,"b":1},"C":{"a":2,"b":8},"D":{"a":8,"b":2}},"conditions":["nonSeqFull","nonSeqPartial","seqNoFeedback","seqFeedback"],"classroomPairings":[["A","B"],["C","D"]],"coinWeights":[0.2,0.5,0.8],"subjectId":"A16G6PPH1INQL8","assignmentId":"3IQ1VMJRYU6PBY36QDK4792G0SAA96","hitId":"32TZXEA1OL6QYKM0MXQIQH2ABHN14I","url":"https://gershmanlab.com/experiments/alicia/teaching/experiment/?hitId=32TZXEA1OL6QYKM0MXQIQH2ABHN14I&workerId=A16G6PPH1INQL8&assignmentId=3IQ1VMJRYU6PBY36QDK4792G0SAA96&a=RVQI9&tp_a=RVQI9&b=3IQ1VMJRYU6PBY36QDK4792G0SAA96&tp_b=3IQ1VMJRYU6PBY36QDK4792G0SAA96&c=365799&tp_c=365799"},{"rt":16113,"response":{"heads":"1","tails":"5"},"type":"response","condition":"nonSeqPartial","trueTheta":0.5,"classrooms":["A","B"],"studentTrueClassroom":"A","exampleSet":"first","trial_type":"survey-html-form","trial_index":28,"time_elapsed":1504285,"internal_node_id":"0.0-18.0-0.0","params":{"nStudents":24,"maxFlips":30,"completionMinutes":45,"basePay":8,"maxBonus":9,"perTrialBonus":0.5,"perTrialBonusThreshold":0.05,"exampleCost":0.01},"classroomParams":{"A":{"a":1,"b":4},"B":{"a":4,"b":1},"C":{"a":2,"b":8},"D":{"a":8,"b":2}},"conditions":["nonSeqFull","nonSeqPartial","seqNoFeedback","seqFeedback"],"classroomPairings":[["A","B"],["C","D"]],"coinWeights":[0.2,0.5,0.8],"subjectId":"A16G6PPH1INQL8","assignmentId":"3IQ1VMJRYU6PBY36QDK4792G0SAA96","hitId":"32TZXEA1OL6QYKM0MXQIQH2ABHN14I","url":"https://gershmanlab.com/experiments/alicia/teaching/experiment/?hitId=32TZXEA1OL6QYKM0MXQIQH2ABHN14I&workerId=A16G6PPH1INQL8&assignmentId=3IQ1VMJRYU6PBY36QDK4792G0SAA96&a=RVQI9&tp_a=RVQI9&b=3IQ1VMJRYU6PBY36QDK4792G0SAA96&tp_b=3IQ1VMJRYU6PBY36QDK4792G0SAA96&c=365799&tp_c=365799","heads":1,"tails":5,"studentIndex":2,"studentTrueHypers":{"a":1,"b":4},"studentGuess":0.18181818181818182,"delta":0.3181818181818182,"totalExamples":6,"bonus":0,"bonusSoFar":0},{"rt":null,"stimulus":"Sending examples to student... ","response":null,"trial_type":"html-keyboard-response","trial_index":29,"time_elapsed":1506050,"internal_node_id":"0.0-19.0","params":{"nStudents":24,"maxFlips":30,"completionMinutes":45,"basePay":8,"maxBonus":9,"perTrialBonus":0.5,"perTrialBonusThreshold":0.05,"exampleCost":0.01},"classroomParams":{"A":{"a":1,"b":4},"B":{"a":4,"b":1},"C":{"a":2,"b":8},"D":{"a":8,"b":2}},"conditions":["nonSeqFull","nonSeqPartial","seqNoFeedback","seqFeedback"],"classroomPairings":[["A","B"],["C","D"]],"coinWeights":[0.2,0.5,0.8],"subjectId":"A16G6PPH1INQL8","assignmentId":"3IQ1VMJRYU6PBY36QDK4792G0SAA96","hitId":"32TZXEA1OL6QYKM0MXQIQH2ABHN14I","url":"https://gershmanlab.com/experiments/alicia/teaching/experiment/?hitId=32TZXEA1OL6QYKM0MXQIQH2ABHN14I&workerId=A16G6PPH1INQL8&assignmentId=3IQ1VMJRYU6PBY36QDK4792G0SAA96&a=RVQI9&tp_a=RVQI9&b=3IQ1VMJRYU6PBY36QDK4792G0SAA96&tp_b=3IQ1VMJRYU6PBY36QDK4792G0SAA96&c=365799&tp_c=365799"},{"rt":null,"stimulus":"Examples sent to student! Waiting for student...","response":null,"trial_type":"html-keyboard-response","trial_index":30,"time_elapsed":1510055,"internal_node_id":"0.0-20.0","params":{"nStudents":24,"maxFlips":30,"completionMinutes":45,"basePay":8,"maxBonus":9,"perTrialBonus":0.5,"perTrialBonusThreshold":0.05,"exampleCost":0.01},"classroomParams":{"A":{"a":1,"b":4},"B":{"a":4,"b":1},"C":{"a":2,"b":8},"D":{"a":8,"b":2}},"conditions":["nonSeqFull","nonSeqPartial","seqNoFeedback","seqFeedback"],"classroomPairings":[["A","B"],["C","D"]],"coinWeights":[0.2,0.5,0.8],"subjectId":"A16G6PPH1INQL8","assignmentId":"3IQ1VMJRYU6PBY36QDK4792G0SAA96","hitId":"32TZXEA1OL6QYKM0MXQIQH2ABHN14I","url":"https://gershmanlab.com/experiments/alicia/teaching/experiment/?hitId=32TZXEA1OL6QYKM0MXQIQH2ABHN14I&workerId=A16G6PPH1INQL8&assignmentId=3IQ1VMJRYU6PBY36QDK4792G0SAA96&a=RVQI9&tp_a=RVQI9&b=3IQ1VMJRYU6PBY36QDK4792G0SAA96&tp_b=3IQ1VMJRYU6PBY36QDK4792G0SAA96&c=365799&tp_c=365799"},{"rt":2460,"stimulus":"\n                <p>Student's guess for coin weight: <b style=\"color:Tomato;\">0.18</b></p>\n                <p>You received a bonus of <b>$0</b>. Total bonus so far: <b>$0.00</b></b></p>\n                <p></p>\n                <p>Press any key to continue.</p>\n                ","response":" ","trial_type":"html-keyboard-response","trial_index":31,"time_elapsed":1512516,"internal_node_id":"0.0-21.0","params":{"nStudents":24,"maxFlips":30,"completionMinutes":45,"basePay":8,"maxBonus":9,"perTrialBonus":0.5,"perTrialBonusThreshold":0.05,"exampleCost":0.01},"classroomParams":{"A":{"a":1,"b":4},"B":{"a":4,"b":1},"C":{"a":2,"b":8},"D":{"a":8,"b":2}},"conditions":["nonSeqFull","nonSeqPartial","seqNoFeedback","seqFeedback"],"classroomPairings":[["A","B"],["C","D"]],"coinWeights":[0.2,0.5,0.8],"subjectId":"A16G6PPH1INQL8","assignmentId":"3IQ1VMJRYU6PBY36QDK4792G0SAA96","hitId":"32TZXEA1OL6QYKM0MXQIQH2ABHN14I","url":"https://gershmanlab.com/experiments/alicia/teaching/experiment/?hitId=32TZXEA1OL6QYKM0MXQIQH2ABHN14I&workerId=A16G6PPH1INQL8&assignmentId=3IQ1VMJRYU6PBY36QDK4792G0SAA96&a=RVQI9&tp_a=RVQI9&b=3IQ1VMJRYU6PBY36QDK4792G0SAA96&tp_b=3IQ1VMJRYU6PBY36QDK4792G0SAA96&c=365799&tp_c=365799"},{"rt":null,"stimulus":"<div style=\"font-size:60px;\">Next student</div>","response":null,"trial_type":"html-keyboard-response","trial_index":32,"time_elapsed":1515017,"internal_node_id":"0.0-22.0-0.0","params":{"nStudents":24,"maxFlips":30,"completionMinutes":45,"basePay":8,"maxBonus":9,"perTrialBonus":0.5,"perTrialBonusThreshold":0.05,"exampleCost":0.01},"classroomParams":{"A":{"a":1,"b":4},"B":{"a":4,"b":1},"C":{"a":2,"b":8},"D":{"a":8,"b":2}},"conditions":["nonSeqFull","nonSeqPartial","seqNoFeedback","seqFeedback"],"classroomPairings":[["A","B"],["C","D"]],"coinWeights":[0.2,0.5,0.8],"subjectId":"A16G6PPH1INQL8","assignmentId":"3IQ1VMJRYU6PBY36QDK4792G0SAA96","hitId":"32TZXEA1OL6QYKM0MXQIQH2ABHN14I","url":"https://gershmanlab.com/experiments/alicia/teaching/experiment/?hitId=32TZXEA1OL6QYKM0MXQIQH2ABHN14I&workerId=A16G6PPH1INQL8&assignmentId=3IQ1VMJRYU6PBY36QDK4792G0SAA96&a=RVQI9&tp_a=RVQI9&b=3IQ1VMJRYU6PBY36QDK4792G0SAA96&tp_b=3IQ1VMJRYU6PBY36QDK4792G0SAA96&c=365799&tp_c=365799"},{"rt":1650,"stimulus":"\n            <h4 style=\"color:Orange;\">Student 4</h4>\n            <h2>The weight of your coin is <b style=\"color:Tomato;\">0.5</b>.</h2>\n            <p>In this block, you will be giving <b>one</b> set of examples to Student 4.</p>\n                <p>You will receive feedback at the end of the block.</p>\n            <p></p>","response":0,"trial_type":"html-button-response","trial_index":33,"time_elapsed":1516668,"internal_node_id":"0.0-23.0","params":{"nStudents":24,"maxFlips":30,"completionMinutes":45,"basePay":8,"maxBonus":9,"perTrialBonus":0.5,"perTrialBonusThreshold":0.05,"exampleCost":0.01},"classroomParams":{"A":{"a":1,"b":4},"B":{"a":4,"b":1},"C":{"a":2,"b":8},"D":{"a":8,"b":2}},"conditions":["nonSeqFull","nonSeqPartial","seqNoFeedback","seqFeedback"],"classroomPairings":[["A","B"],["C","D"]],"coinWeights":[0.2,0.5,0.8],"subjectId":"A16G6PPH1INQL8","assignmentId":"3IQ1VMJRYU6PBY36QDK4792G0SAA96","hitId":"32TZXEA1OL6QYKM0MXQIQH2ABHN14I","url":"https://gershmanlab.com/experiments/alicia/teaching/experiment/?hitId=32TZXEA1OL6QYKM0MXQIQH2ABHN14I&workerId=A16G6PPH1INQL8&assignmentId=3IQ1VMJRYU6PBY36QDK4792G0SAA96&a=RVQI9&tp_a=RVQI9&b=3IQ1VMJRYU6PBY36QDK4792G0SAA96&tp_b=3IQ1VMJRYU6PBY36QDK4792G0SAA96&c=365799&tp_c=365799"},{"rt":13927,"response":{"heads":"15","tails":"15"},"type":"response","condition":"nonSeqFull","trueTheta":0.5,"classrooms":["C","D"],"studentTrueClassroom":"D","exampleSet":"first","trial_type":"survey-html-form","trial_index":34,"time_elapsed":1530597,"internal_node_id":"0.0-24.0-0.0","params":{"nStudents":24,"maxFlips":30,"completionMinutes":45,"basePay":8,"maxBonus":9,"perTrialBonus":0.5,"perTrialBonusThreshold":0.05,"exampleCost":0.01},"classroomParams":{"A":{"a":1,"b":4},"B":{"a":4,"b":1},"C":{"a":2,"b":8},"D":{"a":8,"b":2}},"conditions":["nonSeqFull","nonSeqPartial","seqNoFeedback","seqFeedback"],"classroomPairings":[["A","B"],["C","D"]],"coinWeights":[0.2,0.5,0.8],"subjectId":"A16G6PPH1INQL8","assignmentId":"3IQ1VMJRYU6PBY36QDK4792G0SAA96","hitId":"32TZXEA1OL6QYKM0MXQIQH2ABHN14I","url":"https://gershmanlab.com/experiments/alicia/teaching/experiment/?hitId=32TZXEA1OL6QYKM0MXQIQH2ABHN14I&workerId=A16G6PPH1INQL8&assignmentId=3IQ1VMJRYU6PBY36QDK4792G0SAA96&a=RVQI9&tp_a=RVQI9&b=3IQ1VMJRYU6PBY36QDK4792G0SAA96&tp_b=3IQ1VMJRYU6PBY36QDK4792G0SAA96&c=365799&tp_c=365799","heads":15,"tails":15,"studentIndex":3,"studentTrueHypers":{"a":8,"b":2},"studentGuess":0.575,"delta":0.07499999999999996,"totalExamples":30,"bonus":0,"bonusSoFar":0},{"rt":null,"stimulus":"Sending examples to student... ","response":null,"trial_type":"html-keyboard-response","trial_index":35,"time_elapsed":1532106,"internal_node_id":"0.0-25.0","params":{"nStudents":24,"maxFlips":30,"completionMinutes":45,"basePay":8,"maxBonus":9,"perTrialBonus":0.5,"perTrialBonusThreshold":0.05,"exampleCost":0.01},"classroomParams":{"A":{"a":1,"b":4},"B":{"a":4,"b":1},"C":{"a":2,"b":8},"D":{"a":8,"b":2}},"conditions":["nonSeqFull","nonSeqPartial","seqNoFeedback","seqFeedback"],"classroomPairings":[["A","B"],["C","D"]],"coinWeights":[0.2,0.5,0.8],"subjectId":"A16G6PPH1INQL8","assignmentId":"3IQ1VMJRYU6PBY36QDK4792G0SAA96","hitId":"32TZXEA1OL6QYKM0MXQIQH2ABHN14I","url":"https://gershmanlab.com/experiments/alicia/teaching/experiment/?hitId=32TZXEA1OL6QYKM0MXQIQH2ABHN14I&workerId=A16G6PPH1INQL8&assignmentId=3IQ1VMJRYU6PBY36QDK4792G0SAA96&a=RVQI9&tp_a=RVQI9&b=3IQ1VMJRYU6PBY36QDK4792G0SAA96&tp_b=3IQ1VMJRYU6PBY36QDK4792G0SAA96&c=365799&tp_c=365799"},{"rt":null,"stimulus":"Examples sent to student! Waiting for student...","response":null,"trial_type":"html-keyboard-response","trial_index":36,"time_elapsed":1537637,"internal_node_id":"0.0-26.0","params":{"nStudents":24,"maxFlips":30,"completionMinutes":45,"basePay":8,"maxBonus":9,"perTrialBonus":0.5,"perTrialBonusThreshold":0.05,"exampleCost":0.01},"classroomParams":{"A":{"a":1,"b":4},"B":{"a":4,"b":1},"C":{"a":2,"b":8},"D":{"a":8,"b":2}},"conditions":["nonSeqFull","nonSeqPartial","seqNoFeedback","seqFeedback"],"classroomPairings":[["A","B"],["C","D"]],"coinWeights":[0.2,0.5,0.8],"subjectId":"A16G6PPH1INQL8","assignmentId":"3IQ1VMJRYU6PBY36QDK4792G0SAA96","hitId":"32TZXEA1OL6QYKM0MXQIQH2ABHN14I","url":"https://gershmanlab.com/experiments/alicia/teaching/experiment/?hitId=32TZXEA1OL6QYKM0MXQIQH2ABHN14I&workerId=A16G6PPH1INQL8&assignmentId=3IQ1VMJRYU6PBY36QDK4792G0SAA96&a=RVQI9&tp_a=RVQI9&b=3IQ1VMJRYU6PBY36QDK4792G0SAA96&tp_b=3IQ1VMJRYU6PBY36QDK4792G0SAA96&c=365799&tp_c=365799"},{"rt":3337,"stimulus":"\n                <p>Student's guess for coin weight: <b style=\"color:Tomato;\">0.57</b></p>\n                <p>You received a bonus of <b>$0</b>. Total bonus so far: <b>$0.00</b></b></p>\n                <p></p>\n                <p>Press any key to continue.</p>\n                ","response":" ","trial_type":"html-keyboard-response","trial_index":37,"time_elapsed":1540975,"internal_node_id":"0.0-27.0","params":{"nStudents":24,"maxFlips":30,"completionMinutes":45,"basePay":8,"maxBonus":9,"perTrialBonus":0.5,"perTrialBonusThreshold":0.05,"exampleCost":0.01},"classroomParams":{"A":{"a":1,"b":4},"B":{"a":4,"b":1},"C":{"a":2,"b":8},"D":{"a":8,"b":2}},"conditions":["nonSeqFull","nonSeqPartial","seqNoFeedback","seqFeedback"],"classroomPairings":[["A","B"],["C","D"]],"coinWeights":[0.2,0.5,0.8],"subjectId":"A16G6PPH1INQL8","assignmentId":"3IQ1VMJRYU6PBY36QDK4792G0SAA96","hitId":"32TZXEA1OL6QYKM0MXQIQH2ABHN14I","url":"https://gershmanlab.com/experiments/alicia/teaching/experiment/?hitId=32TZXEA1OL6QYKM0MXQIQH2ABHN14I&workerId=A16G6PPH1INQL8&assignmentId=3IQ1VMJRYU6PBY36QDK4792G0SAA96&a=RVQI9&tp_a=RVQI9&b=3IQ1VMJRYU6PBY36QDK4792G0SAA96&tp_b=3IQ1VMJRYU6PBY36QDK4792G0SAA96&c=365799&tp_c=365799"},{"rt":null,"stimulus":"<div style=\"font-size:60px;\">Next student</div>","response":null,"trial_type":"html-keyboard-response","trial_index":38,"time_elapsed":1543236,"internal_node_id":"0.0-28.0-0.0","params":{"nStudents":24,"maxFlips":30,"completionMinutes":45,"basePay":8,"maxBonus":9,"perTrialBonus":0.5,"perTrialBonusThreshold":0.05,"exampleCost":0.01},"classroomParams":{"A":{"a":1,"b":4},"B":{"a":4,"b":1},"C":{"a":2,"b":8},"D":{"a":8,"b":2}},"conditions":["nonSeqFull","nonSeqPartial","seqNoFeedback","seqFeedback"],"classroomPairings":[["A","B"],["C","D"]],"coinWeights":[0.2,0.5,0.8],"subjectId":"A16G6PPH1INQL8","assignmentId":"3IQ1VMJRYU6PBY36QDK4792G0SAA96","hitId":"32TZXEA1OL6QYKM0MXQIQH2ABHN14I","url":"https://gershmanlab.com/experiments/alicia/teaching/experiment/?hitId=32TZXEA1OL6QYKM0MXQIQH2ABHN14I&workerId=A16G6PPH1INQL8&assignmentId=3IQ1VMJRYU6PBY36QDK4792G0SAA96&a=RVQI9&tp_a=RVQI9&b=3IQ1VMJRYU6PBY36QDK4792G0SAA96&tp_b=3IQ1VMJRYU6PBY36QDK4792G0SAA96&c=365799&tp_c=365799"},{"rt":2451,"stimulus":"\n            <h4 style=\"color:Orange;\">Student 5</h4>\n            <h2>The weight of your coin is <b style=\"color:Tomato;\">0.8</b>.</h2>\n            <p>In this block, you will be giving <b>one</b> set of examples to Student 5.</p>\n                <p>You will receive feedback at the end of the block.</p>\n            <p></p>","response":0,"trial_type":"html-button-response","trial_index":39,"time_elapsed":1545688,"internal_node_id":"0.0-29.0","params":{"nStudents":24,"maxFlips":30,"completionMinutes":45,"basePay":8,"maxBonus":9,"perTrialBonus":0.5,"perTrialBonusThreshold":0.05,"exampleCost":0.01},"classroomParams":{"A":{"a":1,"b":4},"B":{"a":4,"b":1},"C":{"a":2,"b":8},"D":{"a":8,"b":2}},"conditions":["nonSeqFull","nonSeqPartial","seqNoFeedback","seqFeedback"],"classroomPairings":[["A","B"],["C","D"]],"coinWeights":[0.2,0.5,0.8],"subjectId":"A16G6PPH1INQL8","assignmentId":"3IQ1VMJRYU6PBY36QDK4792G0SAA96","hitId":"32TZXEA1OL6QYKM0MXQIQH2ABHN14I","url":"https://gershmanlab.com/experiments/alicia/teaching/experiment/?hitId=32TZXEA1OL6QYKM0MXQIQH2ABHN14I&workerId=A16G6PPH1INQL8&assignmentId=3IQ1VMJRYU6PBY36QDK4792G0SAA96&a=RVQI9&tp_a=RVQI9&b=3IQ1VMJRYU6PBY36QDK4792G0SAA96&tp_b=3IQ1VMJRYU6PBY36QDK4792G0SAA96&c=365799&tp_c=365799"},{"rt":16729,"response":{"heads":"5","tails":"10"},"type":"response","condition":"nonSeqPartial","trueTheta":0.8,"classrooms":["A","B"],"studentTrueClassroom":"A","exampleSet":"first","trial_type":"survey-html-form","trial_index":40,"time_elapsed":1562419,"internal_node_id":"0.0-30.0-0.0","params":{"nStudents":24,"maxFlips":30,"completionMinutes":45,"basePay":8,"maxBonus":9,"perTrialBonus":0.5,"perTrialBonusThreshold":0.05,"exampleCost":0.01},"classroomParams":{"A":{"a":1,"b":4},"B":{"a":4,"b":1},"C":{"a":2,"b":8},"D":{"a":8,"b":2}},"conditions":["nonSeqFull","nonSeqPartial","seqNoFeedback","seqFeedback"],"classroomPairings":[["A","B"],["C","D"]],"coinWeights":[0.2,0.5,0.8],"subjectId":"A16G6PPH1INQL8","assignmentId":"3IQ1VMJRYU6PBY36QDK4792G0SAA96","hitId":"32TZXEA1OL6QYKM0MXQIQH2ABHN14I","url":"https://gershmanlab.com/experiments/alicia/teaching/experiment/?hitId=32TZXEA1OL6QYKM0MXQIQH2ABHN14I&workerId=A16G6PPH1INQL8&assignmentId=3IQ1VMJRYU6PBY36QDK4792G0SAA96&a=RVQI9&tp_a=RVQI9&b=3IQ1VMJRYU6PBY36QDK4792G0SAA96&tp_b=3IQ1VMJRYU6PBY36QDK4792G0SAA96&c=365799&tp_c=365799","heads":5,"tails":10,"studentIndex":4,"studentTrueHypers":{"a":1,"b":4},"studentGuess":0.3,"delta":0.5,"totalExamples":15,"bonus":0,"bonusSoFar":0},{"rt":null,"stimulus":"Sending examples to student... ","response":null,"trial_type":"html-keyboard-response","trial_index":41,"time_elapsed":1564420,"internal_node_id":"0.0-31.0","params":{"nStudents":24,"maxFlips":30,"completionMinutes":45,"basePay":8,"maxBonus":9,"perTrialBonus":0.5,"perTrialBonusThreshold":0.05,"exampleCost":0.01},"classroomParams":{"A":{"a":1,"b":4},"B":{"a":4,"b":1},"C":{"a":2,"b":8},"D":{"a":8,"b":2}},"conditions":["nonSeqFull","nonSeqPartial","seqNoFeedback","seqFeedback"],"classroomPairings":[["A","B"],["C","D"]],"coinWeights":[0.2,0.5,0.8],"subjectId":"A16G6PPH1INQL8","assignmentId":"3IQ1VMJRYU6PBY36QDK4792G0SAA96","hitId":"32TZXEA1OL6QYKM0MXQIQH2ABHN14I","url":"https://gershmanlab.com/experiments/alicia/teaching/experiment/?hitId=32TZXEA1OL6QYKM0MXQIQH2ABHN14I&workerId=A16G6PPH1INQL8&assignmentId=3IQ1VMJRYU6PBY36QDK4792G0SAA96&a=RVQI9&tp_a=RVQI9&b=3IQ1VMJRYU6PBY36QDK4792G0SAA96&tp_b=3IQ1VMJRYU6PBY36QDK4792G0SAA96&c=365799&tp_c=365799"},{"rt":null,"stimulus":"Examples sent to student! Waiting for student...","response":null,"trial_type":"html-keyboard-response","trial_index":42,"time_elapsed":1568929,"internal_node_id":"0.0-32.0","params":{"nStudents":24,"maxFlips":30,"completionMinutes":45,"basePay":8,"maxBonus":9,"perTrialBonus":0.5,"perTrialBonusThreshold":0.05,"exampleCost":0.01},"classroomParams":{"A":{"a":1,"b":4},"B":{"a":4,"b":1},"C":{"a":2,"b":8},"D":{"a":8,"b":2}},"conditions":["nonSeqFull","nonSeqPartial","seqNoFeedback","seqFeedback"],"classroomPairings":[["A","B"],["C","D"]],"coinWeights":[0.2,0.5,0.8],"subjectId":"A16G6PPH1INQL8","assignmentId":"3IQ1VMJRYU6PBY36QDK4792G0SAA96","hitId":"32TZXEA1OL6QYKM0MXQIQH2ABHN14I","url":"https://gershmanlab.com/experiments/alicia/teaching/experiment/?hitId=32TZXEA1OL6QYKM0MXQIQH2ABHN14I&workerId=A16G6PPH1INQL8&assignmentId=3IQ1VMJRYU6PBY36QDK4792G0SAA96&a=RVQI9&tp_a=RVQI9&b=3IQ1VMJRYU6PBY36QDK4792G0SAA96&tp_b=3IQ1VMJRYU6PBY36QDK4792G0SAA96&c=365799&tp_c=365799"},{"rt":2273,"stimulus":"\n                <p>Student's guess for coin weight: <b style=\"color:Tomato;\">0.30</b></p>\n                <p>You received a bonus of <b>$0</b>. Total bonus so far: <b>$0.00</b></b></p>\n                <p></p>\n                <p>Press any key to continue.</p>\n                ","response":" ","trial_type":"html-keyboard-response","trial_index":43,"time_elapsed":1571204,"internal_node_id":"0.0-33.0","params":{"nStudents":24,"maxFlips":30,"completionMinutes":45,"basePay":8,"maxBonus":9,"perTrialBonus":0.5,"perTrialBonusThreshold":0.05,"exampleCost":0.01},"classroomParams":{"A":{"a":1,"b":4},"B":{"a":4,"b":1},"C":{"a":2,"b":8},"D":{"a":8,"b":2}},"conditions":["nonSeqFull","nonSeqPartial","seqNoFeedback","seqFeedback"],"classroomPairings":[["A","B"],["C","D"]],"coinWeights":[0.2,0.5,0.8],"subjectId":"A16G6PPH1INQL8","assignmentId":"3IQ1VMJRYU6PBY36QDK4792G0SAA96","hitId":"32TZXEA1OL6QYKM0MXQIQH2ABHN14I","url":"https://gershmanlab.com/experiments/alicia/teaching/experiment/?hitId=32TZXEA1OL6QYKM0MXQIQH2ABHN14I&workerId=A16G6PPH1INQL8&assignmentId=3IQ1VMJRYU6PBY36QDK4792G0SAA96&a=RVQI9&tp_a=RVQI9&b=3IQ1VMJRYU6PBY36QDK4792G0SAA96&tp_b=3IQ1VMJRYU6PBY36QDK4792G0SAA96&c=365799&tp_c=365799"},{"rt":null,"stimulus":"<div style=\"font-size:60px;\">Next student</div>","response":null,"trial_type":"html-keyboard-response","trial_index":44,"time_elapsed":1573460,"internal_node_id":"0.0-34.0-0.0","params":{"nStudents":24,"maxFlips":30,"completionMinutes":45,"basePay":8,"maxBonus":9,"perTrialBonus":0.5,"perTrialBonusThreshold":0.05,"exampleCost":0.01},"classroomParams":{"A":{"a":1,"b":4},"B":{"a":4,"b":1},"C":{"a":2,"b":8},"D":{"a":8,"b":2}},"conditions":["nonSeqFull","nonSeqPartial","seqNoFeedback","seqFeedback"],"classroomPairings":[["A","B"],["C","D"]],"coinWeights":[0.2,0.5,0.8],"subjectId":"A16G6PPH1INQL8","assignmentId":"3IQ1VMJRYU6PBY36QDK4792G0SAA96","hitId":"32TZXEA1OL6QYKM0MXQIQH2ABHN14I","url":"https://gershmanlab.com/experiments/alicia/teaching/experiment/?hitId=32TZXEA1OL6QYKM0MXQIQH2ABHN14I&workerId=A16G6PPH1INQL8&assignmentId=3IQ1VMJRYU6PBY36QDK4792G0SAA96&a=RVQI9&tp_a=RVQI9&b=3IQ1VMJRYU6PBY36QDK4792G0SAA96&tp_b=3IQ1VMJRYU6PBY36QDK4792G0SAA96&c=365799&tp_c=365799"},{"rt":1919,"stimulus":"\n            <h4 style=\"color:Orange;\">Student 6</h4>\n            <h2>The weight of your coin is <b style=\"color:Tomato;\">0.2</b>.</h2>\n            <p>In this block, you will be giving <b>one</b> set of examples to Student 6.</p>\n                <p>You will receive feedback at the end of the block.</p>\n            <p></p>","response":0,"trial_type":"html-button-response","trial_index":45,"time_elapsed":1575380,"internal_node_id":"0.0-35.0","params":{"nStudents":24,"maxFlips":30,"completionMinutes":45,"basePay":8,"maxBonus":9,"perTrialBonus":0.5,"perTrialBonusThreshold":0.05,"exampleCost":0.01},"classroomParams":{"A":{"a":1,"b":4},"B":{"a":4,"b":1},"C":{"a":2,"b":8},"D":{"a":8,"b":2}},"conditions":["nonSeqFull","nonSeqPartial","seqNoFeedback","seqFeedback"],"classroomPairings":[["A","B"],["C","D"]],"coinWeights":[0.2,0.5,0.8],"subjectId":"A16G6PPH1INQL8","assignmentId":"3IQ1VMJRYU6PBY36QDK4792G0SAA96","hitId":"32TZXEA1OL6QYKM0MXQIQH2ABHN14I","url":"https://gershmanlab.com/experiments/alicia/teaching/experiment/?hitId=32TZXEA1OL6QYKM0MXQIQH2ABHN14I&workerId=A16G6PPH1INQL8&assignmentId=3IQ1VMJRYU6PBY36QDK4792G0SAA96&a=RVQI9&tp_a=RVQI9&b=3IQ1VMJRYU6PBY36QDK4792G0SAA96&tp_b=3IQ1VMJRYU6PBY36QDK4792G0SAA96&c=365799&tp_c=365799"},{"rt":9229,"response":{"heads":"1","tails":"10"},"type":"response","condition":"nonSeqFull","trueTheta":0.2,"classrooms":["A","B"],"studentTrueClassroom":"B","exampleSet":"first","trial_type":"survey-html-form","trial_index":46,"time_elapsed":1584611,"internal_node_id":"0.0-36.0-0.0","params":{"nStudents":24,"maxFlips":30,"completionMinutes":45,"basePay":8,"maxBonus":9,"perTrialBonus":0.5,"perTrialBonusThreshold":0.05,"exampleCost":0.01},"classroomParams":{"A":{"a":1,"b":4},"B":{"a":4,"b":1},"C":{"a":2,"b":8},"D":{"a":8,"b":2}},"conditions":["nonSeqFull","nonSeqPartial","seqNoFeedback","seqFeedback"],"classroomPairings":[["A","B"],["C","D"]],"coinWeights":[0.2,0.5,0.8],"subjectId":"A16G6PPH1INQL8","assignmentId":"3IQ1VMJRYU6PBY36QDK4792G0SAA96","hitId":"32TZXEA1OL6QYKM0MXQIQH2ABHN14I","url":"https://gershmanlab.com/experiments/alicia/teaching/experiment/?hitId=32TZXEA1OL6QYKM0MXQIQH2ABHN14I&workerId=A16G6PPH1INQL8&assignmentId=3IQ1VMJRYU6PBY36QDK4792G0SAA96&a=RVQI9&tp_a=RVQI9&b=3IQ1VMJRYU6PBY36QDK4792G0SAA96&tp_b=3IQ1VMJRYU6PBY36QDK4792G0SAA96&c=365799&tp_c=365799","heads":1,"tails":10,"studentIndex":5,"studentTrueHypers":{"a":4,"b":1},"studentGuess":0.3125,"delta":0.11249999999999999,"totalExamples":11,"bonus":0,"bonusSoFar":0},{"rt":null,"stimulus":"Sending examples to student... ","response":null,"trial_type":"html-keyboard-response","trial_index":47,"time_elapsed":1586126,"internal_node_id":"0.0-37.0","params":{"nStudents":24,"maxFlips":30,"completionMinutes":45,"basePay":8,"maxBonus":9,"perTrialBonus":0.5,"perTrialBonusThreshold":0.05,"exampleCost":0.01},"classroomParams":{"A":{"a":1,"b":4},"B":{"a":4,"b":1},"C":{"a":2,"b":8},"D":{"a":8,"b":2}},"conditions":["nonSeqFull","nonSeqPartial","seqNoFeedback","seqFeedback"],"classroomPairings":[["A","B"],["C","D"]],"coinWeights":[0.2,0.5,0.8],"subjectId":"A16G6PPH1INQL8","assignmentId":"3IQ1VMJRYU6PBY36QDK4792G0SAA96","hitId":"32TZXEA1OL6QYKM0MXQIQH2ABHN14I","url":"https://gershmanlab.com/experiments/alicia/teaching/experiment/?hitId=32TZXEA1OL6QYKM0MXQIQH2ABHN14I&workerId=A16G6PPH1INQL8&assignmentId=3IQ1VMJRYU6PBY36QDK4792G0SAA96&a=RVQI9&tp_a=RVQI9&b=3IQ1VMJRYU6PBY36QDK4792G0SAA96&tp_b=3IQ1VMJRYU6PBY36QDK4792G0SAA96&c=365799&tp_c=365799"},{"rt":null,"stimulus":"Examples sent to student! Waiting for student...","response":null,"trial_type":"html-keyboard-response","trial_index":48,"time_elapsed":1592141,"internal_node_id":"0.0-38.0","params":{"nStudents":24,"maxFlips":30,"completionMinutes":45,"basePay":8,"maxBonus":9,"perTrialBonus":0.5,"perTrialBonusThreshold":0.05,"exampleCost":0.01},"classroomParams":{"A":{"a":1,"b":4},"B":{"a":4,"b":1},"C":{"a":2,"b":8},"D":{"a":8,"b":2}},"conditions":["nonSeqFull","nonSeqPartial","seqNoFeedback","seqFeedback"],"classroomPairings":[["A","B"],["C","D"]],"coinWeights":[0.2,0.5,0.8],"subjectId":"A16G6PPH1INQL8","assignmentId":"3IQ1VMJRYU6PBY36QDK4792G0SAA96","hitId":"32TZXEA1OL6QYKM0MXQIQH2ABHN14I","url":"https://gershmanlab.com/experiments/alicia/teaching/experiment/?hitId=32TZXEA1OL6QYKM0MXQIQH2ABHN14I&workerId=A16G6PPH1INQL8&assignmentId=3IQ1VMJRYU6PBY36QDK4792G0SAA96&a=RVQI9&tp_a=RVQI9&b=3IQ1VMJRYU6PBY36QDK4792G0SAA96&tp_b=3IQ1VMJRYU6PBY36QDK4792G0SAA96&c=365799&tp_c=365799"},{"rt":2399,"stimulus":"\n                <p>Student's guess for coin weight: <b style=\"color:Tomato;\">0.31</b></p>\n                <p>You received a bonus of <b>$0</b>. Total bonus so far: <b>$0.00</b></b></p>\n                <p></p>\n                <p>Press any key to continue.</p>\n                ","response":" ","trial_type":"html-keyboard-response","trial_index":49,"time_elapsed":1594541,"internal_node_id":"0.0-39.0","params":{"nStudents":24,"maxFlips":30,"completionMinutes":45,"basePay":8,"maxBonus":9,"perTrialBonus":0.5,"perTrialBonusThreshold":0.05,"exampleCost":0.01},"classroomParams":{"A":{"a":1,"b":4},"B":{"a":4,"b":1},"C":{"a":2,"b":8},"D":{"a":8,"b":2}},"conditions":["nonSeqFull","nonSeqPartial","seqNoFeedback","seqFeedback"],"classroomPairings":[["A","B"],["C","D"]],"coinWeights":[0.2,0.5,0.8],"subjectId":"A16G6PPH1INQL8","assignmentId":"3IQ1VMJRYU6PBY36QDK4792G0SAA96","hitId":"32TZXEA1OL6QYKM0MXQIQH2ABHN14I","url":"https://gershmanlab.com/experiments/alicia/teaching/experiment/?hitId=32TZXEA1OL6QYKM0MXQIQH2ABHN14I&workerId=A16G6PPH1INQL8&assignmentId=3IQ1VMJRYU6PBY36QDK4792G0SAA96&a=RVQI9&tp_a=RVQI9&b=3IQ1VMJRYU6PBY36QDK4792G0SAA96&tp_b=3IQ1VMJRYU6PBY36QDK4792G0SAA96&c=365799&tp_c=365799"},{"rt":null,"stimulus":"<div style=\"font-size:60px;\">Next student</div>","response":null,"trial_type":"html-keyboard-response","trial_index":50,"time_elapsed":1597043,"internal_node_id":"0.0-40.0-0.0","params":{"nStudents":24,"maxFlips":30,"completionMinutes":45,"basePay":8,"maxBonus":9,"perTrialBonus":0.5,"perTrialBonusThreshold":0.05,"exampleCost":0.01},"classroomParams":{"A":{"a":1,"b":4},"B":{"a":4,"b":1},"C":{"a":2,"b":8},"D":{"a":8,"b":2}},"conditions":["nonSeqFull","nonSeqPartial","seqNoFeedback","seqFeedback"],"classroomPairings":[["A","B"],["C","D"]],"coinWeights":[0.2,0.5,0.8],"subjectId":"A16G6PPH1INQL8","assignmentId":"3IQ1VMJRYU6PBY36QDK4792G0SAA96","hitId":"32TZXEA1OL6QYKM0MXQIQH2ABHN14I","url":"https://gershmanlab.com/experiments/alicia/teaching/experiment/?hitId=32TZXEA1OL6QYKM0MXQIQH2ABHN14I&workerId=A16G6PPH1INQL8&assignmentId=3IQ1VMJRYU6PBY36QDK4792G0SAA96&a=RVQI9&tp_a=RVQI9&b=3IQ1VMJRYU6PBY36QDK4792G0SAA96&tp_b=3IQ1VMJRYU6PBY36QDK4792G0SAA96&c=365799&tp_c=365799"},{"rt":1882,"stimulus":"\n            <h4 style=\"color:Orange;\">Student 7</h4>\n            <h2>The weight of your coin is <b style=\"color:Tomato;\">0.2</b>.</h2>\n            <p>In this block, you will be giving <b>one</b> set of examples to Student 7.</p>\n                <p>You will receive feedback at the end of the block.</p>\n            <p></p>","response":0,"trial_type":"html-button-response","trial_index":51,"time_elapsed":1598926,"internal_node_id":"0.0-41.0","params":{"nStudents":24,"maxFlips":30,"completionMinutes":45,"basePay":8,"maxBonus":9,"perTrialBonus":0.5,"perTrialBonusThreshold":0.05,"exampleCost":0.01},"classroomParams":{"A":{"a":1,"b":4},"B":{"a":4,"b":1},"C":{"a":2,"b":8},"D":{"a":8,"b":2}},"conditions":["nonSeqFull","nonSeqPartial","seqNoFeedback","seqFeedback"],"classroomPairings":[["A","B"],["C","D"]],"coinWeights":[0.2,0.5,0.8],"subjectId":"A16G6PPH1INQL8","assignmentId":"3IQ1VMJRYU6PBY36QDK4792G0SAA96","hitId":"32TZXEA1OL6QYKM0MXQIQH2ABHN14I","url":"https://gershmanlab.com/experiments/alicia/teaching/experiment/?hitId=32TZXEA1OL6QYKM0MXQIQH2ABHN14I&workerId=A16G6PPH1INQL8&assignmentId=3IQ1VMJRYU6PBY36QDK4792G0SAA96&a=RVQI9&tp_a=RVQI9&b=3IQ1VMJRYU6PBY36QDK4792G0SAA96&tp_b=3IQ1VMJRYU6PBY36QDK4792G0SAA96&c=365799&tp_c=365799"},{"rt":44563,"response":{"heads":"2","tails":"10"},"type":"response","condition":"nonSeqPartial","trueTheta":0.2,"classrooms":["C","D"],"studentTrueClassroom":"D","exampleSet":"first","trial_type":"survey-html-form","trial_index":52,"time_elapsed":1643491,"internal_node_id":"0.0-42.0-0.0","params":{"nStudents":24,"maxFlips":30,"completionMinutes":45,"basePay":8,"maxBonus":9,"perTrialBonus":0.5,"perTrialBonusThreshold":0.05,"exampleCost":0.01},"classroomParams":{"A":{"a":1,"b":4},"B":{"a":4,"b":1},"C":{"a":2,"b":8},"D":{"a":8,"b":2}},"conditions":["nonSeqFull","nonSeqPartial","seqNoFeedback","seqFeedback"],"classroomPairings":[["A","B"],["C","D"]],"coinWeights":[0.2,0.5,0.8],"subjectId":"A16G6PPH1INQL8","assignmentId":"3IQ1VMJRYU6PBY36QDK4792G0SAA96","hitId":"32TZXEA1OL6QYKM0MXQIQH2ABHN14I","url":"https://gershmanlab.com/experiments/alicia/teaching/experiment/?hitId=32TZXEA1OL6QYKM0MXQIQH2ABHN14I&workerId=A16G6PPH1INQL8&assignmentId=3IQ1VMJRYU6PBY36QDK4792G0SAA96&a=RVQI9&tp_a=RVQI9&b=3IQ1VMJRYU6PBY36QDK4792G0SAA96&tp_b=3IQ1VMJRYU6PBY36QDK4792G0SAA96&c=365799&tp_c=365799","heads":2,"tails":10,"studentIndex":6,"studentTrueHypers":{"a":8,"b":2},"studentGuess":0.45454545454545453,"delta":0.2545454545454545,"totalExamples":12,"bonus":0,"bonusSoFar":0},{"rt":null,"stimulus":"Sending examples to student... ","response":null,"trial_type":"html-keyboard-response","trial_index":53,"time_elapsed":1645256,"internal_node_id":"0.0-43.0","params":{"nStudents":24,"maxFlips":30,"completionMinutes":45,"basePay":8,"maxBonus":9,"perTrialBonus":0.5,"perTrialBonusThreshold":0.05,"exampleCost":0.01},"classroomParams":{"A":{"a":1,"b":4},"B":{"a":4,"b":1},"C":{"a":2,"b":8},"D":{"a":8,"b":2}},"conditions":["nonSeqFull","nonSeqPartial","seqNoFeedback","seqFeedback"],"classroomPairings":[["A","B"],["C","D"]],"coinWeights":[0.2,0.5,0.8],"subjectId":"A16G6PPH1INQL8","assignmentId":"3IQ1VMJRYU6PBY36QDK4792G0SAA96","hitId":"32TZXEA1OL6QYKM0MXQIQH2ABHN14I","url":"https://gershmanlab.com/experiments/alicia/teaching/experiment/?hitId=32TZXEA1OL6QYKM0MXQIQH2ABHN14I&workerId=A16G6PPH1INQL8&assignmentId=3IQ1VMJRYU6PBY36QDK4792G0SAA96&a=RVQI9&tp_a=RVQI9&b=3IQ1VMJRYU6PBY36QDK4792G0SAA96&tp_b=3IQ1VMJRYU6PBY36QDK4792G0SAA96&c=365799&tp_c=365799"},{"rt":null,"stimulus":"Examples sent to student! Waiting for student...","response":null,"trial_type":"html-keyboard-response","trial_index":54,"time_elapsed":1649764,"internal_node_id":"0.0-44.0","params":{"nStudents":24,"maxFlips":30,"completionMinutes":45,"basePay":8,"maxBonus":9,"perTrialBonus":0.5,"perTrialBonusThreshold":0.05,"exampleCost":0.01},"classroomParams":{"A":{"a":1,"b":4},"B":{"a":4,"b":1},"C":{"a":2,"b":8},"D":{"a":8,"b":2}},"conditions":["nonSeqFull","nonSeqPartial","seqNoFeedback","seqFeedback"],"classroomPairings":[["A","B"],["C","D"]],"coinWeights":[0.2,0.5,0.8],"subjectId":"A16G6PPH1INQL8","assignmentId":"3IQ1VMJRYU6PBY36QDK4792G0SAA96","hitId":"32TZXEA1OL6QYKM0MXQIQH2ABHN14I","url":"https://gershmanlab.com/experiments/alicia/teaching/experiment/?hitId=32TZXEA1OL6QYKM0MXQIQH2ABHN14I&workerId=A16G6PPH1INQL8&assignmentId=3IQ1VMJRYU6PBY36QDK4792G0SAA96&a=RVQI9&tp_a=RVQI9&b=3IQ1VMJRYU6PBY36QDK4792G0SAA96&tp_b=3IQ1VMJRYU6PBY36QDK4792G0SAA96&c=365799&tp_c=365799"},{"rt":1811,"stimulus":"\n                <p>Student's guess for coin weight: <b style=\"color:Tomato;\">0.45</b></p>\n                <p>You received a bonus of <b>$0</b>. Total bonus so far: <b>$0.00</b></b></p>\n                <p></p>\n                <p>Press any key to continue.</p>\n                ","response":" ","trial_type":"html-keyboard-response","trial_index":55,"time_elapsed":1651576,"internal_node_id":"0.0-45.0","params":{"nStudents":24,"maxFlips":30,"completionMinutes":45,"basePay":8,"maxBonus":9,"perTrialBonus":0.5,"perTrialBonusThreshold":0.05,"exampleCost":0.01},"classroomParams":{"A":{"a":1,"b":4},"B":{"a":4,"b":1},"C":{"a":2,"b":8},"D":{"a":8,"b":2}},"conditions":["nonSeqFull","nonSeqPartial","seqNoFeedback","seqFeedback"],"classroomPairings":[["A","B"],["C","D"]],"coinWeights":[0.2,0.5,0.8],"subjectId":"A16G6PPH1INQL8","assignmentId":"3IQ1VMJRYU6PBY36QDK4792G0SAA96","hitId":"32TZXEA1OL6QYKM0MXQIQH2ABHN14I","url":"https://gershmanlab.com/experiments/alicia/teaching/experiment/?hitId=32TZXEA1OL6QYKM0MXQIQH2ABHN14I&workerId=A16G6PPH1INQL8&assignmentId=3IQ1VMJRYU6PBY36QDK4792G0SAA96&a=RVQI9&tp_a=RVQI9&b=3IQ1VMJRYU6PBY36QDK4792G0SAA96&tp_b=3IQ1VMJRYU6PBY36QDK4792G0SAA96&c=365799&tp_c=365799"},{"rt":null,"stimulus":"<div style=\"font-size:60px;\">Next student</div>","response":null,"trial_type":"html-keyboard-response","trial_index":56,"time_elapsed":1654078,"internal_node_id":"0.0-46.0-0.0","params":{"nStudents":24,"maxFlips":30,"completionMinutes":45,"basePay":8,"maxBonus":9,"perTrialBonus":0.5,"perTrialBonusThreshold":0.05,"exampleCost":0.01},"classroomParams":{"A":{"a":1,"b":4},"B":{"a":4,"b":1},"C":{"a":2,"b":8},"D":{"a":8,"b":2}},"conditions":["nonSeqFull","nonSeqPartial","seqNoFeedback","seqFeedback"],"classroomPairings":[["A","B"],["C","D"]],"coinWeights":[0.2,0.5,0.8],"subjectId":"A16G6PPH1INQL8","assignmentId":"3IQ1VMJRYU6PBY36QDK4792G0SAA96","hitId":"32TZXEA1OL6QYKM0MXQIQH2ABHN14I","url":"https://gershmanlab.com/experiments/alicia/teaching/experiment/?hitId=32TZXEA1OL6QYKM0MXQIQH2ABHN14I&workerId=A16G6PPH1INQL8&assignmentId=3IQ1VMJRYU6PBY36QDK4792G0SAA96&a=RVQI9&tp_a=RVQI9&b=3IQ1VMJRYU6PBY36QDK4792G0SAA96&tp_b=3IQ1VMJRYU6PBY36QDK4792G0SAA96&c=365799&tp_c=365799"},{"rt":2363,"stimulus":"\n            <h4 style=\"color:Orange;\">Student 8</h4>\n            <h2>The weight of your coin is <b style=\"color:Tomato;\">0.8</b>.</h2>\n            <p>In this block, you will be giving <b>one</b> set of examples to Student 8.</p>\n                <p>You will receive feedback at the end of the block.</p>\n            <p></p>","response":0,"trial_type":"html-button-response","trial_index":57,"time_elapsed":1656442,"internal_node_id":"0.0-47.0","params":{"nStudents":24,"maxFlips":30,"completionMinutes":45,"basePay":8,"maxBonus":9,"perTrialBonus":0.5,"perTrialBonusThreshold":0.05,"exampleCost":0.01},"classroomParams":{"A":{"a":1,"b":4},"B":{"a":4,"b":1},"C":{"a":2,"b":8},"D":{"a":8,"b":2}},"conditions":["nonSeqFull","nonSeqPartial","seqNoFeedback","seqFeedback"],"classroomPairings":[["A","B"],["C","D"]],"coinWeights":[0.2,0.5,0.8],"subjectId":"A16G6PPH1INQL8","assignmentId":"3IQ1VMJRYU6PBY36QDK4792G0SAA96","hitId":"32TZXEA1OL6QYKM0MXQIQH2ABHN14I","url":"https://gershmanlab.com/experiments/alicia/teaching/experiment/?hitId=32TZXEA1OL6QYKM0MXQIQH2ABHN14I&workerId=A16G6PPH1INQL8&assignmentId=3IQ1VMJRYU6PBY36QDK4792G0SAA96&a=RVQI9&tp_a=RVQI9&b=3IQ1VMJRYU6PBY36QDK4792G0SAA96&tp_b=3IQ1VMJRYU6PBY36QDK4792G0SAA96&c=365799&tp_c=365799"},{"rt":17497,"response":{"heads":"8","tails":"0"},"type":"response","condition":"nonSeqFull","trueTheta":0.8,"classrooms":["C","D"],"studentTrueClassroom":"C","exampleSet":"first","trial_type":"survey-html-form","trial_index":58,"time_elapsed":1673941,"internal_node_id":"0.0-48.0-0.0","params":{"nStudents":24,"maxFlips":30,"completionMinutes":45,"basePay":8,"maxBonus":9,"perTrialBonus":0.5,"perTrialBonusThreshold":0.05,"exampleCost":0.01},"classroomParams":{"A":{"a":1,"b":4},"B":{"a":4,"b":1},"C":{"a":2,"b":8},"D":{"a":8,"b":2}},"conditions":["nonSeqFull","nonSeqPartial","seqNoFeedback","seqFeedback"],"classroomPairings":[["A","B"],["C","D"]],"coinWeights":[0.2,0.5,0.8],"subjectId":"A16G6PPH1INQL8","assignmentId":"3IQ1VMJRYU6PBY36QDK4792G0SAA96","hitId":"32TZXEA1OL6QYKM0MXQIQH2ABHN14I","url":"https://gershmanlab.com/experiments/alicia/teaching/experiment/?hitId=32TZXEA1OL6QYKM0MXQIQH2ABHN14I&workerId=A16G6PPH1INQL8&assignmentId=3IQ1VMJRYU6PBY36QDK4792G0SAA96&a=RVQI9&tp_a=RVQI9&b=3IQ1VMJRYU6PBY36QDK4792G0SAA96&tp_b=3IQ1VMJRYU6PBY36QDK4792G0SAA96&c=365799&tp_c=365799","heads":8,"tails":0,"studentIndex":7,"studentTrueHypers":{"a":2,"b":8},"studentGuess":0.5555555555555556,"delta":0.24444444444444446,"totalExamples":8,"bonus":0,"bonusSoFar":0},{"rt":null,"stimulus":"Sending examples to student... ","response":null,"trial_type":"html-keyboard-response","trial_index":59,"time_elapsed":1675195,"internal_node_id":"0.0-49.0","params":{"nStudents":24,"maxFlips":30,"completionMinutes":45,"basePay":8,"maxBonus":9,"perTrialBonus":0.5,"perTrialBonusThreshold":0.05,"exampleCost":0.01},"classroomParams":{"A":{"a":1,"b":4},"B":{"a":4,"b":1},"C":{"a":2,"b":8},"D":{"a":8,"b":2}},"conditions":["nonSeqFull","nonSeqPartial","seqNoFeedback","seqFeedback"],"classroomPairings":[["A","B"],["C","D"]],"coinWeights":[0.2,0.5,0.8],"subjectId":"A16G6PPH1INQL8","assignmentId":"3IQ1VMJRYU6PBY36QDK4792G0SAA96","hitId":"32TZXEA1OL6QYKM0MXQIQH2ABHN14I","url":"https://gershmanlab.com/experiments/alicia/teaching/experiment/?hitId=32TZXEA1OL6QYKM0MXQIQH2ABHN14I&workerId=A16G6PPH1INQL8&assignmentId=3IQ1VMJRYU6PBY36QDK4792G0SAA96&a=RVQI9&tp_a=RVQI9&b=3IQ1VMJRYU6PBY36QDK4792G0SAA96&tp_b=3IQ1VMJRYU6PBY36QDK4792G0SAA96&c=365799&tp_c=365799"},{"rt":null,"stimulus":"Examples sent to student! Waiting for student...","response":null,"trial_type":"html-keyboard-response","trial_index":60,"time_elapsed":1679712,"internal_node_id":"0.0-50.0","params":{"nStudents":24,"maxFlips":30,"completionMinutes":45,"basePay":8,"maxBonus":9,"perTrialBonus":0.5,"perTrialBonusThreshold":0.05,"exampleCost":0.01},"classroomParams":{"A":{"a":1,"b":4},"B":{"a":4,"b":1},"C":{"a":2,"b":8},"D":{"a":8,"b":2}},"conditions":["nonSeqFull","nonSeqPartial","seqNoFeedback","seqFeedback"],"classroomPairings":[["A","B"],["C","D"]],"coinWeights":[0.2,0.5,0.8],"subjectId":"A16G6PPH1INQL8","assignmentId":"3IQ1VMJRYU6PBY36QDK4792G0SAA96","hitId":"32TZXEA1OL6QYKM0MXQIQH2ABHN14I","url":"https://gershmanlab.com/experiments/alicia/teaching/experiment/?hitId=32TZXEA1OL6QYKM0MXQIQH2ABHN14I&workerId=A16G6PPH1INQL8&assignmentId=3IQ1VMJRYU6PBY36QDK4792G0SAA96&a=RVQI9&tp_a=RVQI9&b=3IQ1VMJRYU6PBY36QDK4792G0SAA96&tp_b=3IQ1VMJRYU6PBY36QDK4792G0SAA96&c=365799&tp_c=365799"},{"rt":8560,"stimulus":"\n                <p>Student's guess for coin weight: <b style=\"color:Tomato;\">0.56</b></p>\n                <p>You received a bonus of <b>$0</b>. Total bonus so far: <b>$0.00</b></b></p>\n                <p></p>\n                <p>Press any key to continue.</p>\n                ","response":" ","trial_type":"html-keyboard-response","trial_index":61,"time_elapsed":1688273,"internal_node_id":"0.0-51.0","params":{"nStudents":24,"maxFlips":30,"completionMinutes":45,"basePay":8,"maxBonus":9,"perTrialBonus":0.5,"perTrialBonusThreshold":0.05,"exampleCost":0.01},"classroomParams":{"A":{"a":1,"b":4},"B":{"a":4,"b":1},"C":{"a":2,"b":8},"D":{"a":8,"b":2}},"conditions":["nonSeqFull","nonSeqPartial","seqNoFeedback","seqFeedback"],"classroomPairings":[["A","B"],["C","D"]],"coinWeights":[0.2,0.5,0.8],"subjectId":"A16G6PPH1INQL8","assignmentId":"3IQ1VMJRYU6PBY36QDK4792G0SAA96","hitId":"32TZXEA1OL6QYKM0MXQIQH2ABHN14I","url":"https://gershmanlab.com/experiments/alicia/teaching/experiment/?hitId=32TZXEA1OL6QYKM0MXQIQH2ABHN14I&workerId=A16G6PPH1INQL8&assignmentId=3IQ1VMJRYU6PBY36QDK4792G0SAA96&a=RVQI9&tp_a=RVQI9&b=3IQ1VMJRYU6PBY36QDK4792G0SAA96&tp_b=3IQ1VMJRYU6PBY36QDK4792G0SAA96&c=365799&tp_c=365799"},{"rt":null,"stimulus":"<div style=\"font-size:60px;\">Next student</div>","response":null,"trial_type":"html-keyboard-response","trial_index":62,"time_elapsed":1690285,"internal_node_id":"0.0-52.0-0.0","params":{"nStudents":24,"maxFlips":30,"completionMinutes":45,"basePay":8,"maxBonus":9,"perTrialBonus":0.5,"perTrialBonusThreshold":0.05,"exampleCost":0.01},"classroomParams":{"A":{"a":1,"b":4},"B":{"a":4,"b":1},"C":{"a":2,"b":8},"D":{"a":8,"b":2}},"conditions":["nonSeqFull","nonSeqPartial","seqNoFeedback","seqFeedback"],"classroomPairings":[["A","B"],["C","D"]],"coinWeights":[0.2,0.5,0.8],"subjectId":"A16G6PPH1INQL8","assignmentId":"3IQ1VMJRYU6PBY36QDK4792G0SAA96","hitId":"32TZXEA1OL6QYKM0MXQIQH2ABHN14I","url":"https://gershmanlab.com/experiments/alicia/teaching/experiment/?hitId=32TZXEA1OL6QYKM0MXQIQH2ABHN14I&workerId=A16G6PPH1INQL8&assignmentId=3IQ1VMJRYU6PBY36QDK4792G0SAA96&a=RVQI9&tp_a=RVQI9&b=3IQ1VMJRYU6PBY36QDK4792G0SAA96&tp_b=3IQ1VMJRYU6PBY36QDK4792G0SAA96&c=365799&tp_c=365799"},{"rt":5801,"stimulus":"\n            <h4 style=\"color:Orange;\">Student 9</h4>\n            <h2>The weight of your coin is <b style=\"color:Tomato;\">0.2</b>.</h2>\n            <p>In this block, you will be giving <b>two</b> sets of examples to Student 9.</p>\n                <p>You will see the student's guess after the first set of examples. You will also receive feedback at the end of the block.</p>\n            <p>To earn the highest bonus, you will have to <b>take into consideration the student's guess</b> when you choose your second set of examples.</p>","response":0,"trial_type":"html-button-response","trial_index":63,"time_elapsed":1696086,"internal_node_id":"0.0-53.0","params":{"nStudents":24,"maxFlips":30,"completionMinutes":45,"basePay":8,"maxBonus":9,"perTrialBonus":0.5,"perTrialBonusThreshold":0.05,"exampleCost":0.01},"classroomParams":{"A":{"a":1,"b":4},"B":{"a":4,"b":1},"C":{"a":2,"b":8},"D":{"a":8,"b":2}},"conditions":["nonSeqFull","nonSeqPartial","seqNoFeedback","seqFeedback"],"classroomPairings":[["A","B"],["C","D"]],"coinWeights":[0.2,0.5,0.8],"subjectId":"A16G6PPH1INQL8","assignmentId":"3IQ1VMJRYU6PBY36QDK4792G0SAA96","hitId":"32TZXEA1OL6QYKM0MXQIQH2ABHN14I","url":"https://gershmanlab.com/experiments/alicia/teaching/experiment/?hitId=32TZXEA1OL6QYKM0MXQIQH2ABHN14I&workerId=A16G6PPH1INQL8&assignmentId=3IQ1VMJRYU6PBY36QDK4792G0SAA96&a=RVQI9&tp_a=RVQI9&b=3IQ1VMJRYU6PBY36QDK4792G0SAA96&tp_b=3IQ1VMJRYU6PBY36QDK4792G0SAA96&c=365799&tp_c=365799"},{"rt":65477,"response":{"heads":"1","tails":"10"},"type":"response","condition":"seqFeedback","trueTheta":0.2,"classrooms":["C","D"],"studentTrueClassroom":"C","exampleSet":"first","trial_type":"survey-html-form","trial_index":64,"time_elapsed":1761565,"internal_node_id":"0.0-54.0-0.0","params":{"nStudents":24,"maxFlips":30,"completionMinutes":45,"basePay":8,"maxBonus":9,"perTrialBonus":0.5,"perTrialBonusThreshold":0.05,"exampleCost":0.01},"classroomParams":{"A":{"a":1,"b":4},"B":{"a":4,"b":1},"C":{"a":2,"b":8},"D":{"a":8,"b":2}},"conditions":["nonSeqFull","nonSeqPartial","seqNoFeedback","seqFeedback"],"classroomPairings":[["A","B"],["C","D"]],"coinWeights":[0.2,0.5,0.8],"subjectId":"A16G6PPH1INQL8","assignmentId":"3IQ1VMJRYU6PBY36QDK4792G0SAA96","hitId":"32TZXEA1OL6QYKM0MXQIQH2ABHN14I","url":"https://gershmanlab.com/experiments/alicia/teaching/experiment/?hitId=32TZXEA1OL6QYKM0MXQIQH2ABHN14I&workerId=A16G6PPH1INQL8&assignmentId=3IQ1VMJRYU6PBY36QDK4792G0SAA96&a=RVQI9&tp_a=RVQI9&b=3IQ1VMJRYU6PBY36QDK4792G0SAA96&tp_b=3IQ1VMJRYU6PBY36QDK4792G0SAA96&c=365799&tp_c=365799","heads":1,"tails":10,"studentIndex":8,"studentTrueHypers":{"a":2,"b":8},"studentGuess":0.14285714285714285,"delta":0.05714285714285716,"totalExamples":11,"bonusSoFar":0},{"rt":null,"stimulus":"Sending examples to student... ","response":null,"trial_type":"html-keyboard-response","trial_index":65,"time_elapsed":1763581,"internal_node_id":"0.0-55.0","params":{"nStudents":24,"maxFlips":30,"completionMinutes":45,"basePay":8,"maxBonus":9,"perTrialBonus":0.5,"perTrialBonusThreshold":0.05,"exampleCost":0.01},"classroomParams":{"A":{"a":1,"b":4},"B":{"a":4,"b":1},"C":{"a":2,"b":8},"D":{"a":8,"b":2}},"conditions":["nonSeqFull","nonSeqPartial","seqNoFeedback","seqFeedback"],"classroomPairings":[["A","B"],["C","D"]],"coinWeights":[0.2,0.5,0.8],"subjectId":"A16G6PPH1INQL8","assignmentId":"3IQ1VMJRYU6PBY36QDK4792G0SAA96","hitId":"32TZXEA1OL6QYKM0MXQIQH2ABHN14I","url":"https://gershmanlab.com/experiments/alicia/teaching/experiment/?hitId=32TZXEA1OL6QYKM0MXQIQH2ABHN14I&workerId=A16G6PPH1INQL8&assignmentId=3IQ1VMJRYU6PBY36QDK4792G0SAA96&a=RVQI9&tp_a=RVQI9&b=3IQ1VMJRYU6PBY36QDK4792G0SAA96&tp_b=3IQ1VMJRYU6PBY36QDK4792G0SAA96&c=365799&tp_c=365799"},{"rt":null,"stimulus":"Examples sent to student! Waiting for student...","response":null,"trial_type":"html-keyboard-response","trial_index":66,"time_elapsed":1769087,"internal_node_id":"0.0-56.0","params":{"nStudents":24,"maxFlips":30,"completionMinutes":45,"basePay":8,"maxBonus":9,"perTrialBonus":0.5,"perTrialBonusThreshold":0.05,"exampleCost":0.01},"classroomParams":{"A":{"a":1,"b":4},"B":{"a":4,"b":1},"C":{"a":2,"b":8},"D":{"a":8,"b":2}},"conditions":["nonSeqFull","nonSeqPartial","seqNoFeedback","seqFeedback"],"classroomPairings":[["A","B"],["C","D"]],"coinWeights":[0.2,0.5,0.8],"subjectId":"A16G6PPH1INQL8","assignmentId":"3IQ1VMJRYU6PBY36QDK4792G0SAA96","hitId":"32TZXEA1OL6QYKM0MXQIQH2ABHN14I","url":"https://gershmanlab.com/experiments/alicia/teaching/experiment/?hitId=32TZXEA1OL6QYKM0MXQIQH2ABHN14I&workerId=A16G6PPH1INQL8&assignmentId=3IQ1VMJRYU6PBY36QDK4792G0SAA96&a=RVQI9&tp_a=RVQI9&b=3IQ1VMJRYU6PBY36QDK4792G0SAA96&tp_b=3IQ1VMJRYU6PBY36QDK4792G0SAA96&c=365799&tp_c=365799"},{"rt":8290,"stimulus":"\n                <p>Student's guess for coin weight: <b style=\"color:Tomato;\">0.14</b></p>\n                <p></b></p>\n                <p>You will now send another set of examples to your student. <b>Remember to take your student's guess into consideration so that you can earn the highest bonus possible!</b> </p>\n                <p>Press any key to continue.</p>\n                ","response":" ","trial_type":"html-keyboard-response","trial_index":67,"time_elapsed":1777378,"internal_node_id":"0.0-57.0","params":{"nStudents":24,"maxFlips":30,"completionMinutes":45,"basePay":8,"maxBonus":9,"perTrialBonus":0.5,"perTrialBonusThreshold":0.05,"exampleCost":0.01},"classroomParams":{"A":{"a":1,"b":4},"B":{"a":4,"b":1},"C":{"a":2,"b":8},"D":{"a":8,"b":2}},"conditions":["nonSeqFull","nonSeqPartial","seqNoFeedback","seqFeedback"],"classroomPairings":[["A","B"],["C","D"]],"coinWeights":[0.2,0.5,0.8],"subjectId":"A16G6PPH1INQL8","assignmentId":"3IQ1VMJRYU6PBY36QDK4792G0SAA96","hitId":"32TZXEA1OL6QYKM0MXQIQH2ABHN14I","url":"https://gershmanlab.com/experiments/alicia/teaching/experiment/?hitId=32TZXEA1OL6QYKM0MXQIQH2ABHN14I&workerId=A16G6PPH1INQL8&assignmentId=3IQ1VMJRYU6PBY36QDK4792G0SAA96&a=RVQI9&tp_a=RVQI9&b=3IQ1VMJRYU6PBY36QDK4792G0SAA96&tp_b=3IQ1VMJRYU6PBY36QDK4792G0SAA96&c=365799&tp_c=365799"},{"rt":13217,"response":{"heads":"1","tails":"20"},"type":"response","condition":"seqFeedback","trueTheta":0.2,"classrooms":["C","D"],"studentTrueClassroom":"C","exampleSet":"second","trial_type":"survey-html-form","trial_index":68,"time_elapsed":1790597,"internal_node_id":"0.0-58.0-0.0","params":{"nStudents":24,"maxFlips":30,"completionMinutes":45,"basePay":8,"maxBonus":9,"perTrialBonus":0.5,"perTrialBonusThreshold":0.05,"exampleCost":0.01},"classroomParams":{"A":{"a":1,"b":4},"B":{"a":4,"b":1},"C":{"a":2,"b":8},"D":{"a":8,"b":2}},"conditions":["nonSeqFull","nonSeqPartial","seqNoFeedback","seqFeedback"],"classroomPairings":[["A","B"],["C","D"]],"coinWeights":[0.2,0.5,0.8],"subjectId":"A16G6PPH1INQL8","assignmentId":"3IQ1VMJRYU6PBY36QDK4792G0SAA96","hitId":"32TZXEA1OL6QYKM0MXQIQH2ABHN14I","url":"https://gershmanlab.com/experiments/alicia/teaching/experiment/?hitId=32TZXEA1OL6QYKM0MXQIQH2ABHN14I&workerId=A16G6PPH1INQL8&assignmentId=3IQ1VMJRYU6PBY36QDK4792G0SAA96&a=RVQI9&tp_a=RVQI9&b=3IQ1VMJRYU6PBY36QDK4792G0SAA96&tp_b=3IQ1VMJRYU6PBY36QDK4792G0SAA96&c=365799&tp_c=365799","firstResponseHeads":1,"firstResponseTails":10,"secondResponseHeads":1,"secondResponseTails":20,"totalHeads":2,"totalTails":30,"studentIndex":8,"studentTrueHypers":{"a":2,"b":8},"studentGuess":0.09523809523809523,"delta":0.10476190476190478,"bonus":0,"bonusSoFar":0,"totalExamples":32},{"rt":null,"stimulus":"Sending examples to student... ","response":null,"trial_type":"html-keyboard-response","trial_index":69,"time_elapsed":1792604,"internal_node_id":"0.0-59.0","params":{"nStudents":24,"maxFlips":30,"completionMinutes":45,"basePay":8,"maxBonus":9,"perTrialBonus":0.5,"perTrialBonusThreshold":0.05,"exampleCost":0.01},"classroomParams":{"A":{"a":1,"b":4},"B":{"a":4,"b":1},"C":{"a":2,"b":8},"D":{"a":8,"b":2}},"conditions":["nonSeqFull","nonSeqPartial","seqNoFeedback","seqFeedback"],"classroomPairings":[["A","B"],["C","D"]],"coinWeights":[0.2,0.5,0.8],"subjectId":"A16G6PPH1INQL8","assignmentId":"3IQ1VMJRYU6PBY36QDK4792G0SAA96","hitId":"32TZXEA1OL6QYKM0MXQIQH2ABHN14I","url":"https://gershmanlab.com/experiments/alicia/teaching/experiment/?hitId=32TZXEA1OL6QYKM0MXQIQH2ABHN14I&workerId=A16G6PPH1INQL8&assignmentId=3IQ1VMJRYU6PBY36QDK4792G0SAA96&a=RVQI9&tp_a=RVQI9&b=3IQ1VMJRYU6PBY36QDK4792G0SAA96&tp_b=3IQ1VMJRYU6PBY36QDK4792G0SAA96&c=365799&tp_c=365799"},{"rt":null,"stimulus":"Examples sent to student! Waiting for student...","response":null,"trial_type":"html-keyboard-response","trial_index":70,"time_elapsed":1798113,"internal_node_id":"0.0-60.0","params":{"nStudents":24,"maxFlips":30,"completionMinutes":45,"basePay":8,"maxBonus":9,"perTrialBonus":0.5,"perTrialBonusThreshold":0.05,"exampleCost":0.01},"classroomParams":{"A":{"a":1,"b":4},"B":{"a":4,"b":1},"C":{"a":2,"b":8},"D":{"a":8,"b":2}},"conditions":["nonSeqFull","nonSeqPartial","seqNoFeedback","seqFeedback"],"classroomPairings":[["A","B"],["C","D"]],"coinWeights":[0.2,0.5,0.8],"subjectId":"A16G6PPH1INQL8","assignmentId":"3IQ1VMJRYU6PBY36QDK4792G0SAA96","hitId":"32TZXEA1OL6QYKM0MXQIQH2ABHN14I","url":"https://gershmanlab.com/experiments/alicia/teaching/experiment/?hitId=32TZXEA1OL6QYKM0MXQIQH2ABHN14I&workerId=A16G6PPH1INQL8&assignmentId=3IQ1VMJRYU6PBY36QDK4792G0SAA96&a=RVQI9&tp_a=RVQI9&b=3IQ1VMJRYU6PBY36QDK4792G0SAA96&tp_b=3IQ1VMJRYU6PBY36QDK4792G0SAA96&c=365799&tp_c=365799"},{"rt":3604,"stimulus":"\n                <p>Student 9's first guess for coin weight: <b style=\"color:Tomato\";>0.14</b></p>\n                <p>Student 9's second guess for coin weight: <b style=\"color:Tomato\";>0.10</b></p>\n                <p>You received a bonus of <b>$0.00</b> based on the student's second guess.</p>\n                <p>Total bonus so far: <b>$0.00</b></p>\n                <p>Press any key to continue.</p>\n                ","response":" ","trial_type":"html-keyboard-response","trial_index":71,"time_elapsed":1801719,"internal_node_id":"0.0-61.0","params":{"nStudents":24,"maxFlips":30,"completionMinutes":45,"basePay":8,"maxBonus":9,"perTrialBonus":0.5,"perTrialBonusThreshold":0.05,"exampleCost":0.01},"classroomParams":{"A":{"a":1,"b":4},"B":{"a":4,"b":1},"C":{"a":2,"b":8},"D":{"a":8,"b":2}},"conditions":["nonSeqFull","nonSeqPartial","seqNoFeedback","seqFeedback"],"classroomPairings":[["A","B"],["C","D"]],"coinWeights":[0.2,0.5,0.8],"subjectId":"A16G6PPH1INQL8","assignmentId":"3IQ1VMJRYU6PBY36QDK4792G0SAA96","hitId":"32TZXEA1OL6QYKM0MXQIQH2ABHN14I","url":"https://gershmanlab.com/experiments/alicia/teaching/experiment/?hitId=32TZXEA1OL6QYKM0MXQIQH2ABHN14I&workerId=A16G6PPH1INQL8&assignmentId=3IQ1VMJRYU6PBY36QDK4792G0SAA96&a=RVQI9&tp_a=RVQI9&b=3IQ1VMJRYU6PBY36QDK4792G0SAA96&tp_b=3IQ1VMJRYU6PBY36QDK4792G0SAA96&c=365799&tp_c=365799"},{"rt":null,"stimulus":"<div style=\"font-size:60px;\">Next student</div>","response":null,"trial_type":"html-keyboard-response","trial_index":72,"time_elapsed":1803970,"internal_node_id":"0.0-62.0-0.0","params":{"nStudents":24,"maxFlips":30,"completionMinutes":45,"basePay":8,"maxBonus":9,"perTrialBonus":0.5,"perTrialBonusThreshold":0.05,"exampleCost":0.01},"classroomParams":{"A":{"a":1,"b":4},"B":{"a":4,"b":1},"C":{"a":2,"b":8},"D":{"a":8,"b":2}},"conditions":["nonSeqFull","nonSeqPartial","seqNoFeedback","seqFeedback"],"classroomPairings":[["A","B"],["C","D"]],"coinWeights":[0.2,0.5,0.8],"subjectId":"A16G6PPH1INQL8","assignmentId":"3IQ1VMJRYU6PBY36QDK4792G0SAA96","hitId":"32TZXEA1OL6QYKM0MXQIQH2ABHN14I","url":"https://gershmanlab.com/experiments/alicia/teaching/experiment/?hitId=32TZXEA1OL6QYKM0MXQIQH2ABHN14I&workerId=A16G6PPH1INQL8&assignmentId=3IQ1VMJRYU6PBY36QDK4792G0SAA96&a=RVQI9&tp_a=RVQI9&b=3IQ1VMJRYU6PBY36QDK4792G0SAA96&tp_b=3IQ1VMJRYU6PBY36QDK4792G0SAA96&c=365799&tp_c=365799"},{"rt":2519,"stimulus":"\n            <h4 style=\"color:Orange;\">Student 10</h4>\n            <h2>The weight of your coin is <b style=\"color:Tomato;\">0.2</b>.</h2>\n            <p>In this block, you will be giving <b>one</b> set of examples to Student 10.</p>\n                <p>You will receive feedback at the end of the block.</p>\n            <p></p>","response":0,"trial_type":"html-button-response","trial_index":73,"time_elapsed":1806491,"internal_node_id":"0.0-63.0","params":{"nStudents":24,"maxFlips":30,"completionMinutes":45,"basePay":8,"maxBonus":9,"perTrialBonus":0.5,"perTrialBonusThreshold":0.05,"exampleCost":0.01},"classroomParams":{"A":{"a":1,"b":4},"B":{"a":4,"b":1},"C":{"a":2,"b":8},"D":{"a":8,"b":2}},"conditions":["nonSeqFull","nonSeqPartial","seqNoFeedback","seqFeedback"],"classroomPairings":[["A","B"],["C","D"]],"coinWeights":[0.2,0.5,0.8],"subjectId":"A16G6PPH1INQL8","assignmentId":"3IQ1VMJRYU6PBY36QDK4792G0SAA96","hitId":"32TZXEA1OL6QYKM0MXQIQH2ABHN14I","url":"https://gershmanlab.com/experiments/alicia/teaching/experiment/?hitId=32TZXEA1OL6QYKM0MXQIQH2ABHN14I&workerId=A16G6PPH1INQL8&assignmentId=3IQ1VMJRYU6PBY36QDK4792G0SAA96&a=RVQI9&tp_a=RVQI9&b=3IQ1VMJRYU6PBY36QDK4792G0SAA96&tp_b=3IQ1VMJRYU6PBY36QDK4792G0SAA96&c=365799&tp_c=365799"},{"rt":23279,"response":{"heads":"0","tails":"30"},"type":"response","condition":"nonSeqFull","trueTheta":0.2,"classrooms":["C","D"],"studentTrueClassroom":"D","exampleSet":"first","trial_type":"survey-html-form","trial_index":74,"time_elapsed":1829772,"internal_node_id":"0.0-64.0-0.0","params":{"nStudents":24,"maxFlips":30,"completionMinutes":45,"basePay":8,"maxBonus":9,"perTrialBonus":0.5,"perTrialBonusThreshold":0.05,"exampleCost":0.01},"classroomParams":{"A":{"a":1,"b":4},"B":{"a":4,"b":1},"C":{"a":2,"b":8},"D":{"a":8,"b":2}},"conditions":["nonSeqFull","nonSeqPartial","seqNoFeedback","seqFeedback"],"classroomPairings":[["A","B"],["C","D"]],"coinWeights":[0.2,0.5,0.8],"subjectId":"A16G6PPH1INQL8","assignmentId":"3IQ1VMJRYU6PBY36QDK4792G0SAA96","hitId":"32TZXEA1OL6QYKM0MXQIQH2ABHN14I","url":"https://gershmanlab.com/experiments/alicia/teaching/experiment/?hitId=32TZXEA1OL6QYKM0MXQIQH2ABHN14I&workerId=A16G6PPH1INQL8&assignmentId=3IQ1VMJRYU6PBY36QDK4792G0SAA96&a=RVQI9&tp_a=RVQI9&b=3IQ1VMJRYU6PBY36QDK4792G0SAA96&tp_b=3IQ1VMJRYU6PBY36QDK4792G0SAA96&c=365799&tp_c=365799","heads":0,"tails":30,"studentIndex":9,"studentTrueHypers":{"a":8,"b":2},"studentGuess":0.2,"delta":0,"totalExamples":30,"bonus":0.2,"bonusSoFar":0.2},{"rt":null,"stimulus":"Sending examples to student... ","response":null,"trial_type":"html-keyboard-response","trial_index":75,"time_elapsed":1831527,"internal_node_id":"0.0-65.0","params":{"nStudents":24,"maxFlips":30,"completionMinutes":45,"basePay":8,"maxBonus":9,"perTrialBonus":0.5,"perTrialBonusThreshold":0.05,"exampleCost":0.01},"classroomParams":{"A":{"a":1,"b":4},"B":{"a":4,"b":1},"C":{"a":2,"b":8},"D":{"a":8,"b":2}},"conditions":["nonSeqFull","nonSeqPartial","seqNoFeedback","seqFeedback"],"classroomPairings":[["A","B"],["C","D"]],"coinWeights":[0.2,0.5,0.8],"subjectId":"A16G6PPH1INQL8","assignmentId":"3IQ1VMJRYU6PBY36QDK4792G0SAA96","hitId":"32TZXEA1OL6QYKM0MXQIQH2ABHN14I","url":"https://gershmanlab.com/experiments/alicia/teaching/experiment/?hitId=32TZXEA1OL6QYKM0MXQIQH2ABHN14I&workerId=A16G6PPH1INQL8&assignmentId=3IQ1VMJRYU6PBY36QDK4792G0SAA96&a=RVQI9&tp_a=RVQI9&b=3IQ1VMJRYU6PBY36QDK4792G0SAA96&tp_b=3IQ1VMJRYU6PBY36QDK4792G0SAA96&c=365799&tp_c=365799"},{"rt":null,"stimulus":"Examples sent to student! Waiting for student...","response":null,"trial_type":"html-keyboard-response","trial_index":76,"time_elapsed":1836533,"internal_node_id":"0.0-66.0","params":{"nStudents":24,"maxFlips":30,"completionMinutes":45,"basePay":8,"maxBonus":9,"perTrialBonus":0.5,"perTrialBonusThreshold":0.05,"exampleCost":0.01},"classroomParams":{"A":{"a":1,"b":4},"B":{"a":4,"b":1},"C":{"a":2,"b":8},"D":{"a":8,"b":2}},"conditions":["nonSeqFull","nonSeqPartial","seqNoFeedback","seqFeedback"],"classroomPairings":[["A","B"],["C","D"]],"coinWeights":[0.2,0.5,0.8],"subjectId":"A16G6PPH1INQL8","assignmentId":"3IQ1VMJRYU6PBY36QDK4792G0SAA96","hitId":"32TZXEA1OL6QYKM0MXQIQH2ABHN14I","url":"https://gershmanlab.com/experiments/alicia/teaching/experiment/?hitId=32TZXEA1OL6QYKM0MXQIQH2ABHN14I&workerId=A16G6PPH1INQL8&assignmentId=3IQ1VMJRYU6PBY36QDK4792G0SAA96&a=RVQI9&tp_a=RVQI9&b=3IQ1VMJRYU6PBY36QDK4792G0SAA96&tp_b=3IQ1VMJRYU6PBY36QDK4792G0SAA96&c=365799&tp_c=365799"},{"rt":3909,"stimulus":"\n                <p>Student's guess for coin weight: <b style=\"color:Tomato;\">0.20</b></p>\n                <p>You received a bonus of <b>$0.2</b>. Total bonus so far: <b>$0.20</b></b></p>\n                <p></p>\n                <p>Press any key to continue.</p>\n                ","response":" ","trial_type":"html-keyboard-response","trial_index":77,"time_elapsed":1840443,"internal_node_id":"0.0-67.0","params":{"nStudents":24,"maxFlips":30,"completionMinutes":45,"basePay":8,"maxBonus":9,"perTrialBonus":0.5,"perTrialBonusThreshold":0.05,"exampleCost":0.01},"classroomParams":{"A":{"a":1,"b":4},"B":{"a":4,"b":1},"C":{"a":2,"b":8},"D":{"a":8,"b":2}},"conditions":["nonSeqFull","nonSeqPartial","seqNoFeedback","seqFeedback"],"classroomPairings":[["A","B"],["C","D"]],"coinWeights":[0.2,0.5,0.8],"subjectId":"A16G6PPH1INQL8","assignmentId":"3IQ1VMJRYU6PBY36QDK4792G0SAA96","hitId":"32TZXEA1OL6QYKM0MXQIQH2ABHN14I","url":"https://gershmanlab.com/experiments/alicia/teaching/experiment/?hitId=32TZXEA1OL6QYKM0MXQIQH2ABHN14I&workerId=A16G6PPH1INQL8&assignmentId=3IQ1VMJRYU6PBY36QDK4792G0SAA96&a=RVQI9&tp_a=RVQI9&b=3IQ1VMJRYU6PBY36QDK4792G0SAA96&tp_b=3IQ1VMJRYU6PBY36QDK4792G0SAA96&c=365799&tp_c=365799"},{"rt":null,"stimulus":"<div style=\"font-size:60px;\">Next student</div>","response":null,"trial_type":"html-keyboard-response","trial_index":78,"time_elapsed":1842694,"internal_node_id":"0.0-68.0-0.0","params":{"nStudents":24,"maxFlips":30,"completionMinutes":45,"basePay":8,"maxBonus":9,"perTrialBonus":0.5,"perTrialBonusThreshold":0.05,"exampleCost":0.01},"classroomParams":{"A":{"a":1,"b":4},"B":{"a":4,"b":1},"C":{"a":2,"b":8},"D":{"a":8,"b":2}},"conditions":["nonSeqFull","nonSeqPartial","seqNoFeedback","seqFeedback"],"classroomPairings":[["A","B"],["C","D"]],"coinWeights":[0.2,0.5,0.8],"subjectId":"A16G6PPH1INQL8","assignmentId":"3IQ1VMJRYU6PBY36QDK4792G0SAA96","hitId":"32TZXEA1OL6QYKM0MXQIQH2ABHN14I","url":"https://gershmanlab.com/experiments/alicia/teaching/experiment/?hitId=32TZXEA1OL6QYKM0MXQIQH2ABHN14I&workerId=A16G6PPH1INQL8&assignmentId=3IQ1VMJRYU6PBY36QDK4792G0SAA96&a=RVQI9&tp_a=RVQI9&b=3IQ1VMJRYU6PBY36QDK4792G0SAA96&tp_b=3IQ1VMJRYU6PBY36QDK4792G0SAA96&c=365799&tp_c=365799"},{"rt":1906,"stimulus":"\n            <h4 style=\"color:Orange;\">Student 11</h4>\n            <h2>The weight of your coin is <b style=\"color:Tomato;\">0.8</b>.</h2>\n            <p>In this block, you will be giving <b>one</b> set of examples to Student 11.</p>\n                <p>You will receive feedback at the end of the block.</p>\n            <p></p>","response":0,"trial_type":"html-button-response","trial_index":79,"time_elapsed":1844600,"internal_node_id":"0.0-69.0","params":{"nStudents":24,"maxFlips":30,"completionMinutes":45,"basePay":8,"maxBonus":9,"perTrialBonus":0.5,"perTrialBonusThreshold":0.05,"exampleCost":0.01},"classroomParams":{"A":{"a":1,"b":4},"B":{"a":4,"b":1},"C":{"a":2,"b":8},"D":{"a":8,"b":2}},"conditions":["nonSeqFull","nonSeqPartial","seqNoFeedback","seqFeedback"],"classroomPairings":[["A","B"],["C","D"]],"coinWeights":[0.2,0.5,0.8],"subjectId":"A16G6PPH1INQL8","assignmentId":"3IQ1VMJRYU6PBY36QDK4792G0SAA96","hitId":"32TZXEA1OL6QYKM0MXQIQH2ABHN14I","url":"https://gershmanlab.com/experiments/alicia/teaching/experiment/?hitId=32TZXEA1OL6QYKM0MXQIQH2ABHN14I&workerId=A16G6PPH1INQL8&assignmentId=3IQ1VMJRYU6PBY36QDK4792G0SAA96&a=RVQI9&tp_a=RVQI9&b=3IQ1VMJRYU6PBY36QDK4792G0SAA96&tp_b=3IQ1VMJRYU6PBY36QDK4792G0SAA96&c=365799&tp_c=365799"},{"rt":7811,"response":{"heads":"30","tails":"0"},"type":"response","condition":"nonSeqFull","trueTheta":0.8,"classrooms":["A","B"],"studentTrueClassroom":"B","exampleSet":"first","trial_type":"survey-html-form","trial_index":80,"time_elapsed":1852413,"internal_node_id":"0.0-70.0-0.0","params":{"nStudents":24,"maxFlips":30,"completionMinutes":45,"basePay":8,"maxBonus":9,"perTrialBonus":0.5,"perTrialBonusThreshold":0.05,"exampleCost":0.01},"classroomParams":{"A":{"a":1,"b":4},"B":{"a":4,"b":1},"C":{"a":2,"b":8},"D":{"a":8,"b":2}},"conditions":["nonSeqFull","nonSeqPartial","seqNoFeedback","seqFeedback"],"classroomPairings":[["A","B"],["C","D"]],"coinWeights":[0.2,0.5,0.8],"subjectId":"A16G6PPH1INQL8","assignmentId":"3IQ1VMJRYU6PBY36QDK4792G0SAA96","hitId":"32TZXEA1OL6QYKM0MXQIQH2ABHN14I","url":"https://gershmanlab.com/experiments/alicia/teaching/experiment/?hitId=32TZXEA1OL6QYKM0MXQIQH2ABHN14I&workerId=A16G6PPH1INQL8&assignmentId=3IQ1VMJRYU6PBY36QDK4792G0SAA96&a=RVQI9&tp_a=RVQI9&b=3IQ1VMJRYU6PBY36QDK4792G0SAA96&tp_b=3IQ1VMJRYU6PBY36QDK4792G0SAA96&c=365799&tp_c=365799","heads":30,"tails":0,"studentIndex":10,"studentTrueHypers":{"a":4,"b":1},"studentGuess":0.9714285714285714,"delta":0.17142857142857137,"totalExamples":30,"bonus":0,"bonusSoFar":0.2},{"rt":null,"stimulus":"Sending examples to student... ","response":null,"trial_type":"html-keyboard-response","trial_index":81,"time_elapsed":1853921,"internal_node_id":"0.0-71.0","params":{"nStudents":24,"maxFlips":30,"completionMinutes":45,"basePay":8,"maxBonus":9,"perTrialBonus":0.5,"perTrialBonusThreshold":0.05,"exampleCost":0.01},"classroomParams":{"A":{"a":1,"b":4},"B":{"a":4,"b":1},"C":{"a":2,"b":8},"D":{"a":8,"b":2}},"conditions":["nonSeqFull","nonSeqPartial","seqNoFeedback","seqFeedback"],"classroomPairings":[["A","B"],["C","D"]],"coinWeights":[0.2,0.5,0.8],"subjectId":"A16G6PPH1INQL8","assignmentId":"3IQ1VMJRYU6PBY36QDK4792G0SAA96","hitId":"32TZXEA1OL6QYKM0MXQIQH2ABHN14I","url":"https://gershmanlab.com/experiments/alicia/teaching/experiment/?hitId=32TZXEA1OL6QYKM0MXQIQH2ABHN14I&workerId=A16G6PPH1INQL8&assignmentId=3IQ1VMJRYU6PBY36QDK4792G0SAA96&a=RVQI9&tp_a=RVQI9&b=3IQ1VMJRYU6PBY36QDK4792G0SAA96&tp_b=3IQ1VMJRYU6PBY36QDK4792G0SAA96&c=365799&tp_c=365799"},{"rt":null,"stimulus":"Examples sent to student! Waiting for student...","response":null,"trial_type":"html-keyboard-response","trial_index":82,"time_elapsed":1857932,"internal_node_id":"0.0-72.0","params":{"nStudents":24,"maxFlips":30,"completionMinutes":45,"basePay":8,"maxBonus":9,"perTrialBonus":0.5,"perTrialBonusThreshold":0.05,"exampleCost":0.01},"classroomParams":{"A":{"a":1,"b":4},"B":{"a":4,"b":1},"C":{"a":2,"b":8},"D":{"a":8,"b":2}},"conditions":["nonSeqFull","nonSeqPartial","seqNoFeedback","seqFeedback"],"classroomPairings":[["A","B"],["C","D"]],"coinWeights":[0.2,0.5,0.8],"subjectId":"A16G6PPH1INQL8","assignmentId":"3IQ1VMJRYU6PBY36QDK4792G0SAA96","hitId":"32TZXEA1OL6QYKM0MXQIQH2ABHN14I","url":"https://gershmanlab.com/experiments/alicia/teaching/experiment/?hitId=32TZXEA1OL6QYKM0MXQIQH2ABHN14I&workerId=A16G6PPH1INQL8&assignmentId=3IQ1VMJRYU6PBY36QDK4792G0SAA96&a=RVQI9&tp_a=RVQI9&b=3IQ1VMJRYU6PBY36QDK4792G0SAA96&tp_b=3IQ1VMJRYU6PBY36QDK4792G0SAA96&c=365799&tp_c=365799"},{"rt":4125,"stimulus":"\n                <p>Student's guess for coin weight: <b style=\"color:Tomato;\">0.97</b></p>\n                <p>You received a bonus of <b>$0</b>. Total bonus so far: <b>$0.20</b></b></p>\n                <p></p>\n                <p>Press any key to continue.</p>\n                ","response":" ","trial_type":"html-keyboard-response","trial_index":83,"time_elapsed":1862057,"internal_node_id":"0.0-73.0","params":{"nStudents":24,"maxFlips":30,"completionMinutes":45,"basePay":8,"maxBonus":9,"perTrialBonus":0.5,"perTrialBonusThreshold":0.05,"exampleCost":0.01},"classroomParams":{"A":{"a":1,"b":4},"B":{"a":4,"b":1},"C":{"a":2,"b":8},"D":{"a":8,"b":2}},"conditions":["nonSeqFull","nonSeqPartial","seqNoFeedback","seqFeedback"],"classroomPairings":[["A","B"],["C","D"]],"coinWeights":[0.2,0.5,0.8],"subjectId":"A16G6PPH1INQL8","assignmentId":"3IQ1VMJRYU6PBY36QDK4792G0SAA96","hitId":"32TZXEA1OL6QYKM0MXQIQH2ABHN14I","url":"https://gershmanlab.com/experiments/alicia/teaching/experiment/?hitId=32TZXEA1OL6QYKM0MXQIQH2ABHN14I&workerId=A16G6PPH1INQL8&assignmentId=3IQ1VMJRYU6PBY36QDK4792G0SAA96&a=RVQI9&tp_a=RVQI9&b=3IQ1VMJRYU6PBY36QDK4792G0SAA96&tp_b=3IQ1VMJRYU6PBY36QDK4792G0SAA96&c=365799&tp_c=365799"},{"rt":null,"stimulus":"<div style=\"font-size:60px;\">Next student</div>","response":null,"trial_type":"html-keyboard-response","trial_index":84,"time_elapsed":1865058,"internal_node_id":"0.0-74.0-0.0","params":{"nStudents":24,"maxFlips":30,"completionMinutes":45,"basePay":8,"maxBonus":9,"perTrialBonus":0.5,"perTrialBonusThreshold":0.05,"exampleCost":0.01},"classroomParams":{"A":{"a":1,"b":4},"B":{"a":4,"b":1},"C":{"a":2,"b":8},"D":{"a":8,"b":2}},"conditions":["nonSeqFull","nonSeqPartial","seqNoFeedback","seqFeedback"],"classroomPairings":[["A","B"],["C","D"]],"coinWeights":[0.2,0.5,0.8],"subjectId":"A16G6PPH1INQL8","assignmentId":"3IQ1VMJRYU6PBY36QDK4792G0SAA96","hitId":"32TZXEA1OL6QYKM0MXQIQH2ABHN14I","url":"https://gershmanlab.com/experiments/alicia/teaching/experiment/?hitId=32TZXEA1OL6QYKM0MXQIQH2ABHN14I&workerId=A16G6PPH1INQL8&assignmentId=3IQ1VMJRYU6PBY36QDK4792G0SAA96&a=RVQI9&tp_a=RVQI9&b=3IQ1VMJRYU6PBY36QDK4792G0SAA96&tp_b=3IQ1VMJRYU6PBY36QDK4792G0SAA96&c=365799&tp_c=365799"},{"rt":2327,"stimulus":"\n            <h4 style=\"color:Orange;\">Student 12</h4>\n            <h2>The weight of your 