[{"rt":1763,"stimulus":"Welcome to the experiment. Press any key to begin.","response":" ","trial_type":"html-keyboard-response","trial_index":0,"time_elapsed":1806,"internal_node_id":"0.0-0.0","params":{"nStudents":24,"maxFlips":30,"completionMinutes":45,"basePay":8,"maxBonus":9,"perTrialBonus":0.5,"perTrialBonusThreshold":0.05,"exampleCost":0.01},"classroomParams":{"A":{"a":1,"b":4},"B":{"a":4,"b":1},"C":{"a":2,"b":8},"D":{"a":8,"b":2}},"conditions":["nonSeqFull","nonSeqPartial","seqNoFeedback","seqFeedback"],"classroomPairings":[["A","B"],["C","D"]],"coinWeights":[0.2,0.5,0.8],"subjectId":"A1969Q0R4Y0E3J","assignmentId":"3TEM0PF1Q6J5DBI5ARSD4Z9TIRDD0Z","hitId":"3AQN9REUTF20OMGWRXYK787QVFOYDP","url":"https://gershmanlab.com/experiments/alicia/teaching/experiment/?hitId=3AQN9REUTF20OMGWRXYK787QVFOYDP&workerId=A1969Q0R4Y0E3J&assignmentId=3TEM0PF1Q6J5DBI5ARSD4Z9TIRDD0Z&a=10ET9&tp_a=10ET9&b=3TEM0PF1Q6J5DBI5ARSD4Z9TIRDD0Z&tp_b=3TEM0PF1Q6J5DBI5ARSD4Z9TIRDD0Z&c=365799&tp_c=365799"},{"rt":844404,"stimulus":"\n        <h3>Please read this consent agreement carefully before deciding whether to participate in this experiment.</h3>\n        <p><b>Purpose of the research:</b> To examine how people teach effectively.</p>\n        <p><b>What you will do in this research:</b> You will teach students the weights of different coins.</p>\n        <p><b>Time required:</b> This experiment will take 45 minutes to complete.</p>\n        <p><b>Risks:</b> There are no anticipated risks associated with participating in this study.             The effects of participating should be comparable to those you would experience from viewing a computer monitor             and using a mouse and keyboard for the duration of the experiment.</p>\n        <p><b>Benefits:</b> The study provides important information about the nature of teaching.</p>\n        <p><b>Compensation:</b> You will receive <b>$8</b> for completing the experiment and a performance bonus of up to <b>$9</b>.</p>\n        <p><b>Confidentiality:</b> Your participation in this study will remain confidential.             No personally identifiable information will be associated with your data.             Your de-identified data may be shared with other researchers and used in future projects.</p>\n        <p><b>Participation and withdrawal:</b> Your participation in this study is completely voluntary and             you may refuse to participate or you may choose to withdraw at any time without penalty or loss of\n            benefits to which you are otherwise entitled.</p>\n        <p><b>How to contact the researcher:</b> If you have questions or concerns about your participation            or payment, or want to request a summary of research findings, please contact\n            Alicia Chen, aliciachen@college.harvard.edu.</p>\n        <p><b>Whom to contact about your rights in this research:</b> For questions, concerns, suggestions,             or complaints that have not been or cannot be addressed by the researcher, or to report             research-related harm, please contact the Committee on the Use of Human Subjects in Research at Harvard University,             1414 Massachusetts Avenue, Second Floor, Cambridge, MA 02138. Phone: 617-496-2847. Email: cuhs@fas.harvard.edu.</p>\n        ","response":0,"trial_type":"html-button-response","trial_index":1,"time_elapsed":846217,"internal_node_id":"0.0-1.0","params":{"nStudents":24,"maxFlips":30,"completionMinutes":45,"basePay":8,"maxBonus":9,"perTrialBonus":0.5,"perTrialBonusThreshold":0.05,"exampleCost":0.01},"classroomParams":{"A":{"a":1,"b":4},"B":{"a":4,"b":1},"C":{"a":2,"b":8},"D":{"a":8,"b":2}},"conditions":["nonSeqFull","nonSeqPartial","seqNoFeedback","seqFeedback"],"classroomPairings":[["A","B"],["C","D"]],"coinWeights":[0.2,0.5,0.8],"subjectId":"A1969Q0R4Y0E3J","assignmentId":"3TEM0PF1Q6J5DBI5ARSD4Z9TIRDD0Z","hitId":"3AQN9REUTF20OMGWRXYK787QVFOYDP","url":"https://gershmanlab.com/experiments/alicia/teaching/experiment/?hitId=3AQN9REUTF20OMGWRXYK787QVFOYDP&workerId=A1969Q0R4Y0E3J&assignmentId=3TEM0PF1Q6J5DBI5ARSD4Z9TIRDD0Z&a=10ET9&tp_a=10ET9&b=3TEM0PF1Q6J5DBI5ARSD4Z9TIRDD0Z&tp_b=3TEM0PF1Q6J5DBI5ARSD4Z9TIRDD0Z&c=365799&tp_c=365799"},{"view_history":[{"page_index":0,"viewing_time":142690},{"page_index":1,"viewing_time":28743},{"page_index":2,"viewing_time":166489},{"page_index":3,"viewing_time":32680},{"page_index":4,"viewing_time":16450},{"page_index":5,"viewing_time":24644},{"page_index":6,"viewing_time":50338}],"rt":462034,"trial_type":"instructions","trial_index":2,"time_elapsed":1308256,"internal_node_id":"0.0-2.0-0.0","params":{"nStudents":24,"maxFlips":30,"completionMinutes":45,"basePay":8,"maxBonus":9,"perTrialBonus":0.5,"perTrialBonusThreshold":0.05,"exampleCost":0.01},"classroomParams":{"A":{"a":1,"b":4},"B":{"a":4,"b":1},"C":{"a":2,"b":8},"D":{"a":8,"b":2}},"conditions":["nonSeqFull","nonSeqPartial","seqNoFeedback","seqFeedback"],"classroomPairings":[["A","B"],["C","D"]],"coinWeights":[0.2,0.5,0.8],"subjectId":"A1969Q0R4Y0E3J","assignmentId":"3TEM0PF1Q6J5DBI5ARSD4Z9TIRDD0Z","hitId":"3AQN9REUTF20OMGWRXYK787QVFOYDP","url":"https://gershmanlab.com/experiments/alicia/teaching/experiment/?hitId=3AQN9REUTF20OMGWRXYK787QVFOYDP&workerId=A1969Q0R4Y0E3J&assignmentId=3TEM0PF1Q6J5DBI5ARSD4Z9TIRDD0Z&a=10ET9&tp_a=10ET9&b=3TEM0PF1Q6J5DBI5ARSD4Z9TIRDD0Z&tp_b=3TEM0PF1Q6J5DBI5ARSD4Z9TIRDD0Z&c=365799&tp_c=365799"},{"rt":221172,"response":{"Q0":"Students in different classrooms will have seen a different number of heads and tails before seeing the examples you select for them.","Q1":"By <b>considering the student's classroom information</b> so that I can teach efficiently and accurately/helpfully at the same time (because each example I give to the student costs money!).","Q2":"The coin lands heads 90% of the time.","Q3":"Yes, I might encounter the same student twice.","Q4":"The students are also on the same alien planet as you, where coins can be unfair.","Q5":"Based on the student's second (and final) guess."},"question_order":[0,5,1,4,3,2],"trial_type":"survey-multi-choice","trial_index":3,"time_elapsed":1529428,"internal_node_id":"0.0-2.0-1.0","params":{"nStudents":24,"maxFlips":30,"completionMinutes":45,"basePay":8,"maxBonus":9,"perTrialBonus":0.5,"perTrialBonusThreshold":0.05,"exampleCost":0.01},"classroomParams":{"A":{"a":1,"b":4},"B":{"a":4,"b":1},"C":{"a":2,"b":8},"D":{"a":8,"b":2}},"conditions":["nonSeqFull","nonSeqPartial","seqNoFeedback","seqFeedback"],"classroomPairings":[["A","B"],["C","D"]],"coinWeights":[0.2,0.5,0.8],"subjectId":"A1969Q0R4Y0E3J","assignmentId":"3TEM0PF1Q6J5DBI5ARSD4Z9TIRDD0Z","hitId":"3AQN9REUTF20OMGWRXYK787QVFOYDP","url":"https://gershmanlab.com/experiments/alicia/teaching/experiment/?hitId=3AQN9REUTF20OMGWRXYK787QVFOYDP&workerId=A1969Q0R4Y0E3J&assignmentId=3TEM0PF1Q6J5DBI5ARSD4Z9TIRDD0Z&a=10ET9&tp_a=10ET9&b=3TEM0PF1Q6J5DBI5ARSD4Z9TIRDD0Z&tp_b=3TEM0PF1Q6J5DBI5ARSD4Z9TIRDD0Z&c=365799&tp_c=365799","pass":false},{"rt":2524,"stimulus":"Oops, you have missed question(s) on the comprehension check! We'll show you the instructions again.","response":0,"trial_type":"html-button-response","trial_index":4,"time_elapsed":1531961,"internal_node_id":"0.0-2.0-2.0-0.0","params":{"nStudents":24,"maxFlips":30,"completionMinutes":45,"basePay":8,"maxBonus":9,"perTrialBonus":0.5,"perTrialBonusThreshold":0.05,"exampleCost":0.01},"classroomParams":{"A":{"a":1,"b":4},"B":{"a":4,"b":1},"C":{"a":2,"b":8},"D":{"a":8,"b":2}},"conditions":["nonSeqFull","nonSeqPartial","seqNoFeedback","seqFeedback"],"classroomPairings":[["A","B"],["C","D"]],"coinWeights":[0.2,0.5,0.8],"subjectId":"A1969Q0R4Y0E3J","assignmentId":"3TEM0PF1Q6J5DBI5ARSD4Z9TIRDD0Z","hitId":"3AQN9REUTF20OMGWRXYK787QVFOYDP","url":"https://gershmanlab.com/experiments/alicia/teaching/experiment/?hitId=3AQN9REUTF20OMGWRXYK787QVFOYDP&workerId=A1969Q0R4Y0E3J&assignmentId=3TEM0PF1Q6J5DBI5ARSD4Z9TIRDD0Z&a=10ET9&tp_a=10ET9&b=3TEM0PF1Q6J5DBI5ARSD4Z9TIRDD0Z&tp_b=3TEM0PF1Q6J5DBI5ARSD4Z9TIRDD0Z&c=365799&tp_c=365799"},{"view_history":[{"page_index":0,"viewing_time":2433},{"page_index":1,"viewing_time":286},{"page_index":2,"viewing_time":962},{"page_index":3,"viewing_time":626},{"page_index":4,"viewing_time":909},{"page_index":5,"viewing_time":1068},{"page_index":4,"viewing_time":10004},{"page_index":5,"viewing_time":1603},{"page_index":6,"viewing_time":1233}],"rt":19125,"trial_type":"instructions","trial_index":5,"time_elapsed":1551087,"internal_node_id":"0.0-2.1-0.1","params":{"nStudents":24,"maxFlips":30,"completionMinutes":45,"basePay":8,"maxBonus":9,"perTrialBonus":0.5,"perTrialBonusThreshold":0.05,"exampleCost":0.01},"classroomParams":{"A":{"a":1,"b":4},"B":{"a":4,"b":1},"C":{"a":2,"b":8},"D":{"a":8,"b":2}},"conditions":["nonSeqFull","nonSeqPartial","seqNoFeedback","seqFeedback"],"classroomPairings":[["A","B"],["C","D"]],"coinWeights":[0.2,0.5,0.8],"subjectId":"A1969Q0R4Y0E3J","assignmentId":"3TEM0PF1Q6J5DBI5ARSD4Z9TIRDD0Z","hitId":"3AQN9REUTF20OMGWRXYK787QVFOYDP","url":"https://gershmanlab.com/experiments/alicia/teaching/experiment/?hitId=3AQN9REUTF20OMGWRXYK787QVFOYDP&workerId=A1969Q0R4Y0E3J&assignmentId=3TEM0PF1Q6J5DBI5ARSD4Z9TIRDD0Z&a=10ET9&tp_a=10ET9&b=3TEM0PF1Q6J5DBI5ARSD4Z9TIRDD0Z&tp_b=3TEM0PF1Q6J5DBI5ARSD4Z9TIRDD0Z&c=365799&tp_c=365799"},{"rt":45707,"response":{"Q0":"Students in different classrooms will have seen a different number of heads and tails before seeing the examples you select for them.","Q1":"By <b>considering the student's classroom information</b> so that I can teach efficiently and accurately/helpfully at the same time (because each example I give to the student costs money!).","Q2":"The coin lands heads 90% of the time.","Q3":"No, I will teach a <b>new</b> student each time.","Q4":"The students are also on the same alien planet as you, where coins can be unfair.","Q5":"Based on the student's second (and final) guess."},"question_order":[0,1,4,2,3,5],"trial_type":"survey-multi-choice","trial_index":6,"time_elapsed":1596797,"internal_node_id":"0.0-2.1-1.1","params":{"nStudents":24,"maxFlips":30,"completionMinutes":45,"basePay":8,"maxBonus":9,"perTrialBonus":0.5,"perTrialBonusThreshold":0.05,"exampleCost":0.01},"classroomParams":{"A":{"a":1,"b":4},"B":{"a":4,"b":1},"C":{"a":2,"b":8},"D":{"a":8,"b":2}},"conditions":["nonSeqFull","nonSeqPartial","seqNoFeedback","seqFeedback"],"classroomPairings":[["A","B"],["C","D"]],"coinWeights":[0.2,0.5,0.8],"subjectId":"A1969Q0R4Y0E3J","assignmentId":"3TEM0PF1Q6J5DBI5ARSD4Z9TIRDD0Z","hitId":"3AQN9REUTF20OMGWRXYK787QVFOYDP","url":"https://gershmanlab.com/experiments/alicia/teaching/experiment/?hitId=3AQN9REUTF20OMGWRXYK787QVFOYDP&workerId=A1969Q0R4Y0E3J&assignmentId=3TEM0PF1Q6J5DBI5ARSD4Z9TIRDD0Z&a=10ET9&tp_a=10ET9&b=3TEM0PF1Q6J5DBI5ARSD4Z9TIRDD0Z&tp_b=3TEM0PF1Q6J5DBI5ARSD4Z9TIRDD0Z&c=365799&tp_c=365799","pass":true},{"rt":null,"stimulus":"<div style=\"font-size:30px;\">Congrats on passing the comprehension quiz! The experiment will begin in a few seconds.</div>","response":null,"trial_type":"html-keyboard-response","trial_index":7,"time_elapsed":1599805,"internal_node_id":"0.0-3.0","params":{"nStudents":24,"maxFlips":30,"completionMinutes":45,"basePay":8,"maxBonus":9,"perTrialBonus":0.5,"perTrialBonusThreshold":0.05,"exampleCost":0.01},"classroomParams":{"A":{"a":1,"b":4},"B":{"a":4,"b":1},"C":{"a":2,"b":8},"D":{"a":8,"b":2}},"conditions":["nonSeqFull","nonSeqPartial","seqNoFeedback","seqFeedback"],"classroomPairings":[["A","B"],["C","D"]],"coinWeights":[0.2,0.5,0.8],"subjectId":"A1969Q0R4Y0E3J","assignmentId":"3TEM0PF1Q6J5DBI5ARSD4Z9TIRDD0Z","hitId":"3AQN9REUTF20OMGWRXYK787QVFOYDP","url":"https://gershmanlab.com/experiments/alicia/teaching/experiment/?hitId=3AQN9REUTF20OMGWRXYK787QVFOYDP&workerId=A1969Q0R4Y0E3J&assignmentId=3TEM0PF1Q6J5DBI5ARSD4Z9TIRDD0Z&a=10ET9&tp_a=10ET9&b=3TEM0PF1Q6J5DBI5ARSD4Z9TIRDD0Z&tp_b=3TEM0PF1Q6J5DBI5ARSD4Z9TIRDD0Z&c=365799&tp_c=365799"},{"rt":null,"stimulus":"<div style=\"font-size:50px;\">First student</div>","response":null,"trial_type":"html-keyboard-response","trial_index":8,"time_elapsed":1602817,"internal_node_id":"0.0-4.0","params":{"nStudents":24,"maxFlips":30,"completionMinutes":45,"basePay":8,"maxBonus":9,"perTrialBonus":0.5,"perTrialBonusThreshold":0.05,"exampleCost":0.01},"classroomParams":{"A":{"a":1,"b":4},"B":{"a":4,"b":1},"C":{"a":2,"b":8},"D":{"a":8,"b":2}},"conditions":["nonSeqFull","nonSeqPartial","seqNoFeedback","seqFeedback"],"classroomPairings":[["A","B"],["C","D"]],"coinWeights":[0.2,0.5,0.8],"subjectId":"A1969Q0R4Y0E3J","assignmentId":"3TEM0PF1Q6J5DBI5ARSD4Z9TIRDD0Z","hitId":"3AQN9REUTF20OMGWRXYK787QVFOYDP","url":"https://gershmanlab.com/experiments/alicia/teaching/experiment/?hitId=3AQN9REUTF20OMGWRXYK787QVFOYDP&workerId=A1969Q0R4Y0E3J&assignmentId=3TEM0PF1Q6J5DBI5ARSD4Z9TIRDD0Z&a=10ET9&tp_a=10ET9&b=3TEM0PF1Q6J5DBI5ARSD4Z9TIRDD0Z&tp_b=3TEM0PF1Q6J5DBI5ARSD4Z9TIRDD0Z&c=365799&tp_c=365799"},{"rt":13385,"stimulus":"\n            <h4 style=\"color:Orange;\">Student 1</h4>\n            <h2>The weight of your coin is <b style=\"color:Tomato;\">0.5</b>.</h2>\n            <p>In this block, you will be giving <b>one</b> set of examples to Student 1.</p>\n                <p>You will receive feedback at the end of the block.</p>\n            <p></p>","response":0,"trial_type":"html-button-response","trial_index":9,"time_elapsed":1616204,"internal_node_id":"0.0-5.0","params":{"nStudents":24,"maxFlips":30,"completionMinutes":45,"basePay":8,"maxBonus":9,"perTrialBonus":0.5,"perTrialBonusThreshold":0.05,"exampleCost":0.01},"classroomParams":{"A":{"a":1,"b":4},"B":{"a":4,"b":1},"C":{"a":2,"b":8},"D":{"a":8,"b":2}},"conditions":["nonSeqFull","nonSeqPartial","seqNoFeedback","seqFeedback"],"classroomPairings":[["A","B"],["C","D"]],"coinWeights":[0.2,0.5,0.8],"subjectId":"A1969Q0R4Y0E3J","assignmentId":"3TEM0PF1Q6J5DBI5ARSD4Z9TIRDD0Z","hitId":"3AQN9REUTF20OMGWRXYK787QVFOYDP","url":"https://gershmanlab.com/experiments/alicia/teaching/experiment/?hitId=3AQN9REUTF20OMGWRXYK787QVFOYDP&workerId=A1969Q0R4Y0E3J&assignmentId=3TEM0PF1Q6J5DBI5ARSD4Z9TIRDD0Z&a=10ET9&tp_a=10ET9&b=3TEM0PF1Q6J5DBI5ARSD4Z9TIRDD0Z&tp_b=3TEM0PF1Q6J5DBI5ARSD4Z9TIRDD0Z&c=365799&tp_c=365799"},{"rt":110735,"response":{"heads":"15","tails":"15"},"type":"response","condition":"nonSeqFull","trueTheta":0.5,"classrooms":["C","D"],"studentTrueClassroom":"C","exampleSet":"first","trial_type":"survey-html-form","trial_index":10,"time_elapsed":1726947,"internal_node_id":"0.0-6.0-0.0","params":{"nStudents":24,"maxFlips":30,"completionMinutes":45,"basePay":8,"maxBonus":9,"perTrialBonus":0.5,"perTrialBonusThreshold":0.05,"exampleCost":0.01},"classroomParams":{"A":{"a":1,"b":4},"B":{"a":4,"b":1},"C":{"a":2,"b":8},"D":{"a":8,"b":2}},"conditions":["nonSeqFull","nonSeqPartial","seqNoFeedback","seqFeedback"],"classroomPairings":[["A","B"],["C","D"]],"coinWeights":[0.2,0.5,0.8],"subjectId":"A1969Q0R4Y0E3J","assignmentId":"3TEM0PF1Q6J5DBI5ARSD4Z9TIRDD0Z","hitId":"3AQN9REUTF20OMGWRXYK787QVFOYDP","url":"https://gershmanlab.com/experiments/alicia/teaching/experiment/?hitId=3AQN9REUTF20OMGWRXYK787QVFOYDP&workerId=A1969Q0R4Y0E3J&assignmentId=3TEM0PF1Q6J5DBI5ARSD4Z9TIRDD0Z&a=10ET9&tp_a=10ET9&b=3TEM0PF1Q6J5DBI5ARSD4Z9TIRDD0Z&tp_b=3TEM0PF1Q6J5DBI5ARSD4Z9TIRDD0Z&c=365799&tp_c=365799","heads":15,"tails":15,"studentIndex":0,"studentTrueHypers":{"a":2,"b":8},"studentGuess":0.425,"delta":0.07500000000000001,"totalExamples":30,"bonus":0,"bonusSoFar":0},{"rt":null,"stimulus":"Sending examples to student... ","response":null,"trial_type":"html-keyboard-response","trial_index":11,"time_elapsed":1728972,"internal_node_id":"0.0-7.0","params":{"nStudents":24,"maxFlips":30,"completionMinutes":45,"basePay":8,"maxBonus":9,"perTrialBonus":0.5,"perTrialBonusThreshold":0.05,"exampleCost":0.01},"classroomParams":{"A":{"a":1,"b":4},"B":{"a":4,"b":1},"C":{"a":2,"b":8},"D":{"a":8,"b":2}},"conditions":["nonSeqFull","nonSeqPartial","seqNoFeedback","seqFeedback"],"classroomPairings":[["A","B"],["C","D"]],"coinWeights":[0.2,0.5,0.8],"subjectId":"A1969Q0R4Y0E3J","assignmentId":"3TEM0PF1Q6J5DBI5ARSD4Z9TIRDD0Z","hitId":"3AQN9REUTF20OMGWRXYK787QVFOYDP","url":"https://gershmanlab.com/experiments/alicia/teaching/experiment/?hitId=3AQN9REUTF20OMGWRXYK787QVFOYDP&workerId=A1969Q0R4Y0E3J&assignmentId=3TEM0PF1Q6J5DBI5ARSD4Z9TIRDD0Z&a=10ET9&tp_a=10ET9&b=3TEM0PF1Q6J5DBI5ARSD4Z9TIRDD0Z&tp_b=3TEM0PF1Q6J5DBI5ARSD4Z9TIRDD0Z&c=365799&tp_c=365799"},{"rt":null,"stimulus":"Examples sent to student! Waiting for student...","response":null,"trial_type":"html-keyboard-response","trial_index":12,"time_elapsed":1732981,"internal_node_id":"0.0-8.0","params":{"nStudents":24,"maxFlips":30,"completionMinutes":45,"basePay":8,"maxBonus":9,"perTrialBonus":0.5,"perTrialBonusThreshold":0.05,"exampleCost":0.01},"classroomParams":{"A":{"a":1,"b":4},"B":{"a":4,"b":1},"C":{"a":2,"b":8},"D":{"a":8,"b":2}},"conditions":["nonSeqFull","nonSeqPartial","seqNoFeedback","seqFeedback"],"classroomPairings":[["A","B"],["C","D"]],"coinWeights":[0.2,0.5,0.8],"subjectId":"A1969Q0R4Y0E3J","assignmentId":"3TEM0PF1Q6J5DBI5ARSD4Z9TIRDD0Z","hitId":"3AQN9REUTF20OMGWRXYK787QVFOYDP","url":"https://gershmanlab.com/experiments/alicia/teaching/experiment/?hitId=3AQN9REUTF20OMGWRXYK787QVFOYDP&workerId=A1969Q0R4Y0E3J&assignmentId=3TEM0PF1Q6J5DBI5ARSD4Z9TIRDD0Z&a=10ET9&tp_a=10ET9&b=3TEM0PF1Q6J5DBI5ARSD4Z9TIRDD0Z&tp_b=3TEM0PF1Q6J5DBI5ARSD4Z9TIRDD0Z&c=365799&tp_c=365799"},{"rt":6875,"stimulus":"\n                <p>Student's guess for coin weight: <b style=\"color:Tomato;\">0.42</b></p>\n                <p>You received a bonus of <b>$0</b>. Total bonus so far: <b>$0.00</b></b></p>\n                <p></p>\n                <p>Press any key to continue.</p>\n                ","response":"m","trial_type":"html-keyboard-response","trial_index":13,"time_elapsed":1739860,"internal_node_id":"0.0-9.0","params":{"nStudents":24,"maxFlips":30,"completionMinutes":45,"basePay":8,"maxBonus":9,"perTrialBonus":0.5,"perTrialBonusThreshold":0.05,"exampleCost":0.01},"classroomParams":{"A":{"a":1,"b":4},"B":{"a":4,"b":1},"C":{"a":2,"b":8},"D":{"a":8,"b":2}},"conditions":["nonSeqFull","nonSeqPartial","seqNoFeedback","seqFeedback"],"classroomPairings":[["A","B"],["C","D"]],"coinWeights":[0.2,0.5,0.8],"subjectId":"A1969Q0R4Y0E3J","assignmentId":"3TEM0PF1Q6J5DBI5ARSD4Z9TIRDD0Z","hitId":"3AQN9REUTF20OMGWRXYK787QVFOYDP","url":"https://gershmanlab.com/experiments/alicia/teaching/experiment/?hitId=3AQN9REUTF20OMGWRXYK787QVFOYDP&workerId=A1969Q0R4Y0E3J&assignmentId=3TEM0PF1Q6J5DBI5ARSD4Z9TIRDD0Z&a=10ET9&tp_a=10ET9&b=3TEM0PF1Q6J5DBI5ARSD4Z9TIRDD0Z&tp_b=3TEM0PF1Q6J5DBI5ARSD4Z9TIRDD0Z&c=365799&tp_c=365799"},{"rt":null,"stimulus":"<div style=\"font-size:60px;\">Next student</div>","response":null,"trial_type":"html-keyboard-response","trial_index":14,"time_elapsed":1742113,"internal_node_id":"0.0-10.0-0.0","params":{"nStudents":24,"maxFlips":30,"completionMinutes":45,"basePay":8,"maxBonus":9,"perTrialBonus":0.5,"perTrialBonusThreshold":0.05,"exampleCost":0.01},"classroomParams":{"A":{"a":1,"b":4},"B":{"a":4,"b":1},"C":{"a":2,"b":8},"D":{"a":8,"b":2}},"conditions":["nonSeqFull","nonSeqPartial","seqNoFeedback","seqFeedback"],"classroomPairings":[["A","B"],["C","D"]],"coinWeights":[0.2,0.5,0.8],"subjectId":"A1969Q0R4Y0E3J","assignmentId":"3TEM0PF1Q6J5DBI5ARSD4Z9TIRDD0Z","hitId":"3AQN9REUTF20OMGWRXYK787QVFOYDP","url":"https://gershmanlab.com/experiments/alicia/teaching/experiment/?hitId=3AQN9REUTF20OMGWRXYK787QVFOYDP&workerId=A1969Q0R4Y0E3J&assignmentId=3TEM0PF1Q6J5DBI5ARSD4Z9TIRDD0Z&a=10ET9&tp_a=10ET9&b=3TEM0PF1Q6J5DBI5ARSD4Z9TIRDD0Z&tp_b=3TEM0PF1Q6J5DBI5ARSD4Z9TIRDD0Z&c=365799&tp_c=365799"},{"rt":18061,"stimulus":"\n            <h4 style=\"color:Orange;\">Student 2</h4>\n            <h2>The weight of your coin is <b style=\"color:Tomato;\">0.5</b>.</h2>\n            <p>In this block, you will be giving <b>two</b> sets of examples to Student 2.</p>\n                <p>You will see the student's guess after the first set of examples. You will also receive feedback at the end of the block.</p>\n            <p>To earn the highest bonus, you will have to <b>take into consideration the student's guess</b> when you choose your second set of examples.</p>","response":0,"trial_type":"html-button-response","trial_index":15,"time_elapsed":1760173,"internal_node_id":"0.0-11.0","params":{"nStudents":24,"maxFlips":30,"completionMinutes":45,"basePay":8,"maxBonus":9,"perTrialBonus":0.5,"perTrialBonusThreshold":0.05,"exampleCost":0.01},"classroomParams":{"A":{"a":1,"b":4},"B":{"a":4,"b":1},"C":{"a":2,"b":8},"D":{"a":8,"b":2}},"conditions":["nonSeqFull","nonSeqPartial","seqNoFeedback","seqFeedback"],"classroomPairings":[["A","B"],["C","D"]],"coinWeights":[0.2,0.5,0.8],"subjectId":"A1969Q0R4Y0E3J","assignmentId":"3TEM0PF1Q6J5DBI5ARSD4Z9TIRDD0Z","hitId":"3AQN9REUTF20OMGWRXYK787QVFOYDP","url":"https://gershmanlab.com/experiments/alicia/teaching/experiment/?hitId=3AQN9REUTF20OMGWRXYK787QVFOYDP&workerId=A1969Q0R4Y0E3J&assignmentId=3TEM0PF1Q6J5DBI5ARSD4Z9TIRDD0Z&a=10ET9&tp_a=10ET9&b=3TEM0PF1Q6J5DBI5ARSD4Z9TIRDD0Z&tp_b=3TEM0PF1Q6J5DBI5ARSD4Z9TIRDD0Z&c=365799&tp_c=365799"},{"rt":24160,"response":{"heads":"15","tails":"15"},"type":"response","condition":"seqFeedback","trueTheta":0.5,"classrooms":["A","B"],"studentTrueClassroom":"A","exampleSet":"first","trial_type":"survey-html-form","trial_index":16,"time_elapsed":1784338,"internal_node_id":"0.0-12.0-0.0","params":{"nStudents":24,"maxFlips":30,"completionMinutes":45,"basePay":8,"maxBonus":9,"perTrialBonus":0.5,"perTrialBonusThreshold":0.05,"exampleCost":0.01},"classroomParams":{"A":{"a":1,"b":4},"B":{"a":4,"b":1},"C":{"a":2,"b":8},"D":{"a":8,"b":2}},"conditions":["nonSeqFull","nonSeqPartial","seqNoFeedback","seqFeedback"],"classroomPairings":[["A","B"],["C","D"]],"coinWeights":[0.2,0.5,0.8],"subjectId":"A1969Q0R4Y0E3J","assignmentId":"3TEM0PF1Q6J5DBI5ARSD4Z9TIRDD0Z","hitId":"3AQN9REUTF20OMGWRXYK787QVFOYDP","url":"https://gershmanlab.com/experiments/alicia/teaching/experiment/?hitId=3AQN9REUTF20OMGWRXYK787QVFOYDP&workerId=A1969Q0R4Y0E3J&assignmentId=3TEM0PF1Q6J5DBI5ARSD4Z9TIRDD0Z&a=10ET9&tp_a=10ET9&b=3TEM0PF1Q6J5DBI5ARSD4Z9TIRDD0Z&tp_b=3TEM0PF1Q6J5DBI5ARSD4Z9TIRDD0Z&c=365799&tp_c=365799","heads":15,"tails":15,"studentIndex":1,"studentTrueHypers":{"a":1,"b":4},"studentGuess":0.45714285714285713,"delta":0.04285714285714287,"totalExamples":30,"bonusSoFar":0},{"rt":null,"stimulus":"Sending examples to student... ","response":null,"trial_type":"html-keyboard-response","trial_index":17,"time_elapsed":1785601,"internal_node_id":"0.0-13.0","params":{"nStudents":24,"maxFlips":30,"completionMinutes":45,"basePay":8,"maxBonus":9,"perTrialBonus":0.5,"perTrialBonusThreshold":0.05,"exampleCost":0.01},"classroomParams":{"A":{"a":1,"b":4},"B":{"a":4,"b":1},"C":{"a":2,"b":8},"D":{"a":8,"b":2}},"conditions":["nonSeqFull","nonSeqPartial","seqNoFeedback","seqFeedback"],"classroomPairings":[["A","B"],["C","D"]],"coinWeights":[0.2,0.5,0.8],"subjectId":"A1969Q0R4Y0E3J","assignmentId":"3TEM0PF1Q6J5DBI5ARSD4Z9TIRDD0Z","hitId":"3AQN9REUTF20OMGWRXYK787QVFOYDP","url":"https://gershmanlab.com/experiments/alicia/teaching/experiment/?hitId=3AQN9REUTF20OMGWRXYK787QVFOYDP&workerId=A1969Q0R4Y0E3J&assignmentId=3TEM0PF1Q6J5DBI5ARSD4Z9TIRDD0Z&a=10ET9&tp_a=10ET9&b=3TEM0PF1Q6J5DBI5ARSD4Z9TIRDD0Z&tp_b=3TEM0PF1Q6J5DBI5ARSD4Z9TIRDD0Z&c=365799&tp_c=365799"},{"rt":null,"stimulus":"Examples sent to student! Waiting for student...","response":null,"trial_type":"html-keyboard-response","trial_index":18,"time_elapsed":1790112,"internal_node_id":"0.0-14.0","params":{"nStudents":24,"maxFlips":30,"completionMinutes":45,"basePay":8,"maxBonus":9,"perTrialBonus":0.5,"perTrialBonusThreshold":0.05,"exampleCost":0.01},"classroomParams":{"A":{"a":1,"b":4},"B":{"a":4,"b":1},"C":{"a":2,"b":8},"D":{"a":8,"b":2}},"conditions":["nonSeqFull","nonSeqPartial","seqNoFeedback","seqFeedback"],"classroomPairings":[["A","B"],["C","D"]],"coinWeights":[0.2,0.5,0.8],"subjectId":"A1969Q0R4Y0E3J","assignmentId":"3TEM0PF1Q6J5DBI5ARSD4Z9TIRDD0Z","hitId":"3AQN9REUTF20OMGWRXYK787QVFOYDP","url":"https://gershmanlab.com/experiments/alicia/teaching/experiment/?hitId=3AQN9REUTF20OMGWRXYK787QVFOYDP&workerId=A1969Q0R4Y0E3J&assignmentId=3TEM0PF1Q6J5DBI5ARSD4Z9TIRDD0Z&a=10ET9&tp_a=10ET9&b=3TEM0PF1Q6J5DBI5ARSD4Z9TIRDD0Z&tp_b=3TEM0PF1Q6J5DBI5ARSD4Z9TIRDD0Z&c=365799&tp_c=365799"},{"rt":7586,"stimulus":"\n                <p>Student's guess for coin weight: <b style=\"color:Tomato;\">0.46</b></p>\n                <p></b></p>\n                <p>You will now send another set of examples to your student. <b>Remember to take your student's guess into consideration so that you can earn the highest bonus possible!</b> </p>\n                <p>Press any key to continue.</p>\n                ","response":"m","trial_type":"html-keyboard-response","trial_index":19,"time_elapsed":1797699,"internal_node_id":"0.0-15.0","params":{"nStudents":24,"maxFlips":30,"completionMinutes":45,"basePay":8,"maxBonus":9,"perTrialBonus":0.5,"perTrialBonusThreshold":0.05,"exampleCost":0.01},"classroomParams":{"A":{"a":1,"b":4},"B":{"a":4,"b":1},"C":{"a":2,"b":8},"D":{"a":8,"b":2}},"conditions":["nonSeqFull","nonSeqPartial","seqNoFeedback","seqFeedback"],"classroomPairings":[["A","B"],["C","D"]],"coinWeights":[0.2,0.5,0.8],"subjectId":"A1969Q0R4Y0E3J","assignmentId":"3TEM0PF1Q6J5DBI5ARSD4Z9TIRDD0Z","hitId":"3AQN9REUTF20OMGWRXYK787QVFOYDP","url":"https://gershmanlab.com/experiments/alicia/teaching/experiment/?hitId=3AQN9REUTF20OMGWRXYK787QVFOYDP&workerId=A1969Q0R4Y0E3J&assignmentId=3TEM0PF1Q6J5DBI5ARSD4Z9TIRDD0Z&a=10ET9&tp_a=10ET9&b=3TEM0PF1Q6J5DBI5ARSD4Z9TIRDD0Z&tp_b=3TEM0PF1Q6J5DBI5ARSD4Z9TIRDD0Z&c=365799&tp_c=365799"},{"rt":27696,"response":{"heads":"18","tails":"12"},"type":"response","condition":"seqFeedback","trueTheta":0.5,"classrooms":["A","B"],"studentTrueClassroom":"A","exampleSet":"second","trial_type":"survey-html-form","trial_index":20,"time_elapsed":1825401,"internal_node_id":"0.0-16.0-0.0","params":{"nStudents":24,"maxFlips":30,"completionMinutes":45,"basePay":8,"maxBonus":9,"perTrialBonus":0.5,"perTrialBonusThreshold":0.05,"exampleCost":0.01},"classroomParams":{"A":{"a":1,"b":4},"B":{"a":4,"b":1},"C":{"a":2,"b":8},"D":{"a":8,"b":2}},"conditions":["nonSeqFull","nonSeqPartial","seqNoFeedback","seqFeedback"],"classroomPairings":[["A","B"],["C","D"]],"coinWeights":[0.2,0.5,0.8],"subjectId":"A1969Q0R4Y0E3J","assignmentId":"3TEM0PF1Q6J5DBI5ARSD4Z9TIRDD0Z","hitId":"3AQN9REUTF20OMGWRXYK787QVFOYDP","url":"https://gershmanlab.com/experiments/alicia/teaching/experiment/?hitId=3AQN9REUTF20OMGWRXYK787QVFOYDP&workerId=A1969Q0R4Y0E3J&assignmentId=3TEM0PF1Q6J5DBI5ARSD4Z9TIRDD0Z&a=10ET9&tp_a=10ET9&b=3TEM0PF1Q6J5DBI5ARSD4Z9TIRDD0Z&tp_b=3TEM0PF1Q6J5DBI5ARSD4Z9TIRDD0Z&c=365799&tp_c=365799","firstResponseHeads":15,"firstResponseTails":15,"secondResponseHeads":18,"secondResponseTails":12,"totalHeads":33,"totalTails":27,"studentIndex":1,"studentTrueHypers":{"a":1,"b":4},"studentGuess":0.5230769230769231,"delta":0.023076923076923106,"bonus":0,"bonusSoFar":0,"totalExamples":60},{"rt":null,"stimulus":"Sending examples to student... ","response":null,"trial_type":"html-keyboard-response","trial_index":21,"time_elapsed":1826914,"internal_node_id":"0.0-17.0","params":{"nStudents":24,"maxFlips":30,"completionMinutes":45,"basePay":8,"maxBonus":9,"perTrialBonus":0.5,"perTrialBonusThreshold":0.05,"exampleCost":0.01},"classroomParams":{"A":{"a":1,"b":4},"B":{"a":4,"b":1},"C":{"a":2,"b":8},"D":{"a":8,"b":2}},"conditions":["nonSeqFull","nonSeqPartial","seqNoFeedback","seqFeedback"],"classroomPairings":[["A","B"],["C","D"]],"coinWeights":[0.2,0.5,0.8],"subjectId":"A1969Q0R4Y0E3J","assignmentId":"3TEM0PF1Q6J5DBI5ARSD4Z9TIRDD0Z","hitId":"3AQN9REUTF20OMGWRXYK787QVFOYDP","url":"https://gershmanlab.com/experiments/alicia/teaching/experiment/?hitId=3AQN9REUTF20OMGWRXYK787QVFOYDP&workerId=A1969Q0R4Y0E3J&assignmentId=3TEM0PF1Q6J5DBI5ARSD4Z9TIRDD0Z&a=10ET9&tp_a=10ET9&b=3TEM0PF1Q6J5DBI5ARSD4Z9TIRDD0Z&tp_b=3TEM0PF1Q6J5DBI5ARSD4Z9TIRDD0Z&c=365799&tp_c=365799"},{"rt":null,"stimulus":"Examples sent to student! Waiting for student...","response":null,"trial_type":"html-keyboard-response","trial_index":22,"time_elapsed":1832923,"internal_node_id":"0.0-18.0","params":{"nStudents":24,"maxFlips":30,"completionMinutes":45,"basePay":8,"maxBonus":9,"perTrialBonus":0.5,"perTrialBonusThreshold":0.05,"exampleCost":0.01},"classroomParams":{"A":{"a":1,"b":4},"B":{"a":4,"b":1},"C":{"a":2,"b":8},"D":{"a":8,"b":2}},"conditions":["nonSeqFull","nonSeqPartial","seqNoFeedback","seqFeedback"],"classroomPairings":[["A","B"],["C","D"]],"coinWeights":[0.2,0.5,0.8],"subjectId":"A1969Q0R4Y0E3J","assignmentId":"3TEM0PF1Q6J5DBI5ARSD4Z9TIRDD0Z","hitId":"3AQN9REUTF20OMGWRXYK787QVFOYDP","url":"https://gershmanlab.com/experiments/alicia/teaching/experiment/?hitId=3AQN9REUTF20OMGWRXYK787QVFOYDP&workerId=A1969Q0R4Y0E3J&assignmentId=3TEM0PF1Q6J5DBI5ARSD4Z9TIRDD0Z&a=10ET9&tp_a=10ET9&b=3TEM0PF1Q6J5DBI5ARSD4Z9TIRDD0Z&tp_b=3TEM0PF1Q6J5DBI5ARSD4Z9TIRDD0Z&c=365799&tp_c=365799"},{"rt":5743,"stimulus":"\n                <p>Student 2's first guess for coin weight: <b style=\"color:Tomato\";>0.46</b></p>\n                <p>Student 2's second guess for coin weight: <b style=\"color:Tomato\";>0.52</b></p>\n                <p>You received a bonus of <b>$0.00</b> based on the student's second guess.</p>\n                <p>Total bonus so far: <b>$0.00</b></p>\n                <p>Press any key to continue.</p>\n                ","response":"n","trial_type":"html-keyboard-response","trial_index":23,"time_elapsed":1838669,"internal_node_id":"0.0-19.0","params":{"nStudents":24,"maxFlips":30,"completionMinutes":45,"basePay":8,"maxBonus":9,"perTrialBonus":0.5,"perTrialBonusThreshold":0.05,"exampleCost":0.01},"classroomParams":{"A":{"a":1,"b":4},"B":{"a":4,"b":1},"C":{"a":2,"b":8},"D":{"a":8,"b":2}},"conditions":["nonSeqFull","nonSeqPartial","seqNoFeedback","seqFeedback"],"classroomPairings":[["A","B"],["C","D"]],"coinWeights":[0.2,0.5,0.8],"subjectId":"A1969Q0R4Y0E3J","assignmentId":"3TEM0PF1Q6J5DBI5ARSD4Z9TIRDD0Z","hitId":"3AQN9REUTF20OMGWRXYK787QVFOYDP","url":"https://gershmanlab.com/experiments/alicia/teaching/experiment/?hitId=3AQN9REUTF20OMGWRXYK787QVFOYDP&workerId=A1969Q0R4Y0E3J&assignmentId=3TEM0PF1Q6J5DBI5ARSD4Z9TIRDD0Z&a=10ET9&tp_a=10ET9&b=3TEM0PF1Q6J5DBI5ARSD4Z9TIRDD0Z&tp_b=3TEM0PF1Q6J5DBI5ARSD4Z9TIRDD0Z&c=365799&tp_c=365799"},{"rt":null,"stimulus":"<div style=\"font-size:60px;\">Next student</div>","response":null,"trial_type":"html-keyboard-response","trial_index":24,"time_elapsed":1841673,"internal_node_id":"0.0-20.0-0.0","params":{"nStudents":24,"maxFlips":30,"completionMinutes":45,"basePay":8,"maxBonus":9,"perTrialBonus":0.5,"perTrialBonusThreshold":0.05,"exampleCost":0.01},"classroomParams":{"A":{"a":1,"b":4},"B":{"a":4,"b":1},"C":{"a":2,"b":8},"D":{"a":8,"b":2}},"conditions":["nonSeqFull","nonSeqPartial","seqNoFeedback","seqFeedback"],"classroomPairings":[["A","B"],["C","D"]],"coinWeights":[0.2,0.5,0.8],"subjectId":"A1969Q0R4Y0E3J","assignmentId":"3TEM0PF1Q6J5DBI5ARSD4Z9TIRDD0Z","hitId":"3AQN9REUTF20OMGWRXYK787QVFOYDP","url":"https://gershmanlab.com/experiments/alicia/teaching/experiment/?hitId=3AQN9REUTF20OMGWRXYK787QVFOYDP&workerId=A1969Q0R4Y0E3J&assignmentId=3TEM0PF1Q6J5DBI5ARSD4Z9TIRDD0Z&a=10ET9&tp_a=10ET9&b=3TEM0PF1Q6J5DBI5ARSD4Z9TIRDD0Z&tp_b=3TEM0PF1Q6J5DBI5ARSD4Z9TIRDD0Z&c=365799&tp_c=365799"},{"rt":3562,"stimulus":"\n            <h4 style=\"color:Orange;\">Student 3</h4>\n            <h2>The weight of your coin is <b style=\"color:Tomato;\">0.5</b>.</h2>\n            <p>In this block, you will be giving <b>one</b> set of examples to Student 3.</p>\n                <p>You will receive feedback at the end of the block.</p>\n            <p></p>","response":0,"trial_type":"html-button-response","trial_index":25,"time_elapsed":1845236,"internal_node_id":"0.0-21.0","params":{"nStudents":24,"maxFlips":30,"completionMinutes":45,"basePay":8,"maxBonus":9,"perTrialBonus":0.5,"perTrialBonusThreshold":0.05,"exampleCost":0.01},"classroomParams":{"A":{"a":1,"b":4},"B":{"a":4,"b":1},"C":{"a":2,"b":8},"D":{"a":8,"b":2}},"conditions":["nonSeqFull","nonSeqPartial","seqNoFeedback","seqFeedback"],"classroomPairings":[["A","B"],["C","D"]],"coinWeights":[0.2,0.5,0.8],"subjectId":"A1969Q0R4Y0E3J","assignmentId":"3TEM0PF1Q6J5DBI5ARSD4Z9TIRDD0Z","hitId":"3AQN9REUTF20OMGWRXYK787QVFOYDP","url":"https://gershmanlab.com/experiments/alicia/teaching/experiment/?hitId=3AQN9REUTF20OMGWRXYK787QVFOYDP&workerId=A1969Q0R4Y0E3J&assignmentId=3TEM0PF1Q6J5DBI5ARSD4Z9TIRDD0Z&a=10ET9&tp_a=10ET9&b=3TEM0PF1Q6J5DBI5ARSD4Z9TIRDD0Z&tp_b=3TEM0PF1Q6J5DBI5ARSD4Z9TIRDD0Z&c=365799&tp_c=365799"},{"rt":10737,"response":{"heads":"15","tails":"15"},"type":"response","condition":"nonSeqPartial","trueTheta":0.5,"classrooms":["C","D"],"studentTrueClassroom":"C","exampleSet":"first","trial_type":"survey-html-form","trial_index":26,"time_elapsed":1855976,"internal_node_id":"0.0-22.0-0.0","params":{"nStudents":24,"maxFlips":30,"completionMinutes":45,"basePay":8,"maxBonus":9,"perTrialBonus":0.5,"perTrialBonusThreshold":0.05,"exampleCost":0.01},"classroomParams":{"A":{"a":1,"b":4},"B":{"a":4,"b":1},"C":{"a":2,"b":8},"D":{"a":8,"b":2}},"conditions":["nonSeqFull","nonSeqPartial","seqNoFeedback","seqFeedback"],"classroomPairings":[["A","B"],["C","D"]],"coinWeights":[0.2,0.5,0.8],"subjectId":"A1969Q0R4Y0E3J","assignmentId":"3TEM0PF1Q6J5DBI5ARSD4Z9TIRDD0Z","hitId":"3AQN9REUTF20OMGWRXYK787QVFOYDP","url":"https://gershmanlab.com/experiments/alicia/teaching/experiment/?hitId=3AQN9REUTF20OMGWRXYK787QVFOYDP&workerId=A1969Q0R4Y0E3J&assignmentId=3TEM0PF1Q6J5DBI5ARSD4Z9TIRDD0Z&a=10ET9&tp_a=10ET9&b=3TEM0PF1Q6J5DBI5ARSD4Z9TIRDD0Z&tp_b=3TEM0PF1Q6J5DBI5ARSD4Z9TIRDD0Z&c=365799&tp_c=365799","heads":15,"tails":15,"studentIndex":2,"studentTrueHypers":{"a":2,"b":8},"studentGuess":0.425,"delta":0.07500000000000001,"totalExamples":30,"bonus":0,"bonusSoFar":0},{"rt":null,"stimulus":"Sending examples to student... ","response":null,"trial_type":"html-keyboard-response","trial_index":27,"time_elapsed":1857234,"internal_node_id":"0.0-23.0","params":{"nStudents":24,"maxFlips":30,"completionMinutes":45,"basePay":8,"maxBonus":9,"perTrialBonus":0.5,"perTrialBonusThreshold":0.05,"exampleCost":0.01},"classroomParams":{"A":{"a":1,"b":4},"B":{"a":4,"b":1},"C":{"a":2,"b":8},"D":{"a":8,"b":2}},"conditions":["nonSeqFull","nonSeqPartial","seqNoFeedback","seqFeedback"],"classroomPairings":[["A","B"],["C","D"]],"coinWeights":[0.2,0.5,0.8],"subjectId":"A1969Q0R4Y0E3J","assignmentId":"3TEM0PF1Q6J5DBI5ARSD4Z9TIRDD0Z","hitId":"3AQN9REUTF20OMGWRXYK787QVFOYDP","url":"https://gershmanlab.com/experiments/alicia/teaching/experiment/?hitId=3AQN9REUTF20OMGWRXYK787QVFOYDP&workerId=A1969Q0R4Y0E3J&assignmentId=3TEM0PF1Q6J5DBI5ARSD4Z9TIRDD0Z&a=10ET9&tp_a=10ET9&b=3TEM0PF1Q6J5DBI5ARSD4Z9TIRDD0Z&tp_b=3TEM0PF1Q6J5DBI5ARSD4Z9TIRDD0Z&c=365799&tp_c=365799"},{"rt":null,"stimulus":"Examples sent to student! Waiting for student...","response":null,"trial_type":"html-keyboard-response","trial_index":28,"time_elapsed":1861747,"internal_node_id":"0.0-24.0","params":{"nStudents":24,"maxFlips":30,"completionMinutes":45,"basePay":8,"maxBonus":9,"perTrialBonus":0.5,"perTrialBonusThreshold":0.05,"exampleCost":0.01},"classroomParams":{"A":{"a":1,"b":4},"B":{"a":4,"b":1},"C":{"a":2,"b":8},"D":{"a":8,"b":2}},"conditions":["nonSeqFull","nonSeqPartial","seqNoFeedback","seqFeedback"],"classroomPairings":[["A","B"],["C","D"]],"coinWeights":[0.2,0.5,0.8],"subjectId":"A1969Q0R4Y0E3J","assignmentId":"3TEM0PF1Q6J5DBI5ARSD4Z9TIRDD0Z","hitId":"3AQN9REUTF20OMGWRXYK787QVFOYDP","url":"https://gershmanlab.com/experiments/alicia/teaching/experiment/?hitId=3AQN9REUTF20OMGWRXYK787QVFOYDP&workerId=A1969Q0R4Y0E3J&assignmentId=3TEM0PF1Q6J5DBI5ARSD4Z9TIRDD0Z&a=10ET9&tp_a=10ET9&b=3TEM0PF1Q6J5DBI5ARSD4Z9TIRDD0Z&tp_b=3TEM0PF1Q6J5DBI5ARSD4Z9TIRDD0Z&c=365799&tp_c=365799"},{"rt":10000,"stimulus":"\n                <p>Student's guess for coin weight: <b style=\"color:Tomato;\">0.42</b></p>\n                <p>You received a bonus of <b>$0</b>. Total bonus so far: <b>$0.00</b></b></p>\n                <p></p>\n                <p>Press any key to continue.</p>\n                ","response":"c","trial_type":"html-keyboard-response","trial_index":29,"time_elapsed":1871748,"internal_node_id":"0.0-25.0","params":{"nStudents":24,"maxFlips":30,"completionMinutes":45,"basePay":8,"maxBonus":9,"perTrialBonus":0.5,"perTrialBonusThreshold":0.05,"exampleCost":0.01},"classroomParams":{"A":{"a":1,"b":4},"B":{"a":4,"b":1},"C":{"a":2,"b":8},"D":{"a":8,"b":2}},"conditions":["nonSeqFull","nonSeqPartial","seqNoFeedback","seqFeedback"],"classroomPairings":[["A","B"],["C","D"]],"coinWeights":[0.2,0.5,0.8],"subjectId":"A1969Q0R4Y0E3J","assignmentId":"3TEM0PF1Q6J5DBI5ARSD4Z9TIRDD0Z","hitId":"3AQN9REUTF20OMGWRXYK787QVFOYDP","url":"https://gershmanlab.com/experiments/alicia/teaching/experiment/?hitId=3AQN9REUTF20OMGWRXYK787QVFOYDP&workerId=A1969Q0R4Y0E3J&assignmentId=3TEM0PF1Q6J5DBI5ARSD4Z9TIRDD0Z&a=10ET9&tp_a=10ET9&b=3TEM0PF1Q6J5DBI5ARSD4Z9TIRDD0Z&tp_b=3TEM0PF1Q6J5DBI5ARSD4Z9TIRDD0Z&c=365799&tp_c=365799"},{"rt":null,"stimulus":"<div style=\"font-size:60px;\">Next student</div>","response":null,"trial_type":"html-keyboard-response","trial_index":30,"time_elapsed":1874003,"internal_node_id":"0.0-26.0-0.0","params":{"nStudents":24,"maxFlips":30,"completionMinutes":45,"basePay":8,"maxBonus":9,"perTrialBonus":0.5,"perTrialBonusThreshold":0.05,"exampleCost":0.01},"classroomParams":{"A":{"a":1,"b":4},"B":{"a":4,"b":1},"C":{"a":2,"b":8},"D":{"a":8,"b":2}},"conditions":["nonSeqFull","nonSeqPartial","seqNoFeedback","seqFeedback"],"classroomPairings":[["A","B"],["C","D"]],"coinWeights":[0.2,0.5,0.8],"subjectId":"A1969Q0R4Y0E3J","assignmentId":"3TEM0PF1Q6J5DBI5ARSD4Z9TIRDD0Z","hitId":"3AQN9REUTF20OMGWRXYK787QVFOYDP","url":"https://gershmanlab.com/experiments/alicia/teaching/experiment/?hitId=3AQN9REUTF20OMGWRXYK787QVFOYDP&workerId=A1969Q0R4Y0E3J&assignmentId=3TEM0PF1Q6J5DBI5ARSD4Z9TIRDD0Z&a=10ET9&tp_a=10ET9&b=3TEM0PF1Q6J5DBI5ARSD4Z9TIRDD0Z&tp_b=3TEM0PF1Q6J5DBI5ARSD4Z9TIRDD0Z&c=365799&tp_c=365799"},{"rt":6025,"stimulus":"\n            <h4 style=\"color:Orange;\">Student 4</h4>\n            <h2>The weight of your coin is <b style=\"color:Tomato;\">0.2</b>.</h2>\n            <p>In this block, you will be giving <b>two</b> sets of examples to Student 4.</p>\n                <p>You will see the student's guess after the first set of examples. You will also receive feedback at the end of the block.</p>\n            <p>To earn the highest bonus, you will have to <b>take into consideration the student's guess</b> when you choose your second set of examples.</p>","response":0,"trial_type":"html-button-response","trial_index":31,"time_elapsed":1880032,"internal_node_id":"0.0-27.0","params":{"nStudents":24,"maxFlips":30,"completionMinutes":45,"basePay":8,"maxBonus":9,"perTrialBonus":0.5,"perTrialBonusThreshold":0.05,"exampleCost":0.01},"classroomParams":{"A":{"a":1,"b":4},"B":{"a":4,"b":1},"C":{"a":2,"b":8},"D":{"a":8,"b":2}},"conditions":["nonSeqFull","nonSeqPartial","seqNoFeedback","seqFeedback"],"classroomPairings":[["A","B"],["C","D"]],"coinWeights":[0.2,0.5,0.8],"subjectId":"A1969Q0R4Y0E3J","assignmentId":"3TEM0PF1Q6J5DBI5ARSD4Z9TIRDD0Z","hitId":"3AQN9REUTF20OMGWRXYK787QVFOYDP","url":"https://gershmanlab.com/experiments/alicia/teaching/experiment/?hitId=3AQN9REUTF20OMGWRXYK787QVFOYDP&workerId=A1969Q0R4Y0E3J&assignmentId=3TEM0PF1Q6J5DBI5ARSD4Z9TIRDD0Z&a=10ET9&tp_a=10ET9&b=3TEM0PF1Q6J5DBI5ARSD4Z9TIRDD0Z&tp_b=3TEM0PF1Q6J5DBI5ARSD4Z9TIRDD0Z&c=365799&tp_c=365799"},{"rt":12138,"response":{"heads":"8","tails":"22"},"type":"response","condition":"seqFeedback","trueTheta":0.2,"classrooms":["C","D"],"studentTrueClassroom":"C","exampleSet":"first","trial_type":"survey-html-form","trial_index":32,"time_elapsed":1892173,"internal_node_id":"0.0-28.0-0.0","params":{"nStudents":24,"maxFlips":30,"completionMinutes":45,"basePay":8,"maxBonus":9,"perTrialBonus":0.5,"perTrialBonusThreshold":0.05,"exampleCost":0.01},"classroomParams":{"A":{"a":1,"b":4},"B":{"a":4,"b":1},"C":{"a":2,"b":8},"D":{"a":8,"b":2}},"conditions":["nonSeqFull","nonSeqPartial","seqNoFeedback","seqFeedback"],"classroomPairings":[["A","B"],["C","D"]],"coinWeights":[0.2,0.5,0.8],"subjectId":"A1969Q0R4Y0E3J","assignmentId":"3TEM0PF1Q6J5DBI5ARSD4Z9TIRDD0Z","hitId":"3AQN9REUTF20OMGWRXYK787QVFOYDP","url":"https://gershmanlab.com/experiments/alicia/teaching/experiment/?hitId=3AQN9REUTF20OMGWRXYK787QVFOYDP&workerId=A1969Q0R4Y0E3J&assignmentId=3TEM0PF1Q6J5DBI5ARSD4Z9TIRDD0Z&a=10ET9&tp_a=10ET9&b=3TEM0PF1Q6J5DBI5ARSD4Z9TIRDD0Z&tp_b=3TEM0PF1Q6J5DBI5ARSD4Z9TIRDD0Z&c=365799&tp_c=365799","heads":8,"tails":22,"studentIndex":3,"studentTrueHypers":{"a":2,"b":8},"studentGuess":0.25,"delta":0.04999999999999999,"totalExamples":30,"bonusSoFar":0},{"rt":null,"stimulus":"Sending examples to student... ","response":null,"trial_type":"html-keyboard-response","trial_index":33,"time_elapsed":1893439,"internal_node_id":"0.0-29.0","params":{"nStudents":24,"maxFlips":30,"completionMinutes":45,"basePay":8,"maxBonus":9,"perTrialBonus":0.5,"perTrialBonusThreshold":0.05,"exampleCost":0.01},"classroomParams":{"A":{"a":1,"b":4},"B":{"a":4,"b":1},"C":{"a":2,"b":8},"D":{"a":8,"b":2}},"conditions":["nonSeqFull","nonSeqPartial","seqNoFeedback","seqFeedback"],"classroomPairings":[["A","B"],["C","D"]],"coinWeights":[0.2,0.5,0.8],"subjectId":"A1969Q0R4Y0E3J","assignmentId":"3TEM0PF1Q6J5DBI5ARSD4Z9TIRDD0Z","hitId":"3AQN9REUTF20OMGWRXYK787QVFOYDP","url":"https://gershmanlab.com/experiments/alicia/teaching/experiment/?hitId=3AQN9REUTF20OMGWRXYK787QVFOYDP&workerId=A1969Q0R4Y0E3J&assignmentId=3TEM0PF1Q6J5DBI5ARSD4Z9TIRDD0Z&a=10ET9&tp_a=10ET9&b=3TEM0PF1Q6J5DBI5ARSD4Z9TIRDD0Z&tp_b=3TEM0PF1Q6J5DBI5ARSD4Z9TIRDD0Z&c=365799&tp_c=365799"},{"rt":null,"stimulus":"Examples sent to student! Waiting for student...","response":null,"trial_type":"html-keyboard-response","trial_index":34,"time_elapsed":1899455,"internal_node_id":"0.0-30.0","params":{"nStudents":24,"maxFlips":30,"completionMinutes":45,"basePay":8,"maxBonus":9,"perTrialBonus":0.5,"perTrialBonusThreshold":0.05,"exampleCost":0.01},"classroomParams":{"A":{"a":1,"b":4},"B":{"a":4,"b":1},"C":{"a":2,"b":8},"D":{"a":8,"b":2}},"conditions":["nonSeqFull","nonSeqPartial","seqNoFeedback","seqFeedback"],"classroomPairings":[["A","B"],["C","D"]],"coinWeights":[0.2,0.5,0.8],"subjectId":"A1969Q0R4Y0E3J","assignmentId":"3TEM0PF1Q6J5DBI5ARSD4Z9TIRDD0Z","hitId":"3AQN9REUTF20OMGWRXYK787QVFOYDP","url":"https://gershmanlab.com/experiments/alicia/teaching/experiment/?hitId=3AQN9REUTF20OMGWRXYK787QVFOYDP&workerId=A1969Q0R4Y0E3J&assignmentId=3TEM0PF1Q6J5DBI5ARSD4Z9TIRDD0Z&a=10ET9&tp_a=10ET9&b=3TEM0PF1Q6J5DBI5ARSD4Z9TIRDD0Z&tp_b=3TEM0PF1Q6J5DBI5ARSD4Z9TIRDD0Z&c=365799&tp_c=365799"},{"rt":4663,"stimulus":"\n                <p>Student's guess for coin weight: <b style=\"color:Tomato;\">0.25</b></p>\n                <p></b></p>\n                <p>You will now send another set of examples to your student. <b>Remember to take your student's guess into consideration so that you can earn the highest bonus possible!</b> </p>\n                <p>Press any key to continue.</p>\n                ","response":"c","trial_type":"html-keyboard-response","trial_index":35,"time_elapsed":1904120,"internal_node_id":"0.0-31.0","params":{"nStudents":24,"maxFlips":30,"completionMinutes":45,"basePay":8,"maxBonus":9,"perTrialBonus":0.5,"perTrialBonusThreshold":0.05,"exampleCost":0.01},"classroomParams":{"A":{"a":1,"b":4},"B":{"a":4,"b":1},"C":{"a":2,"b":8},"D":{"a":8,"b":2}},"conditions":["nonSeqFull","nonSeqPartial","seqNoFeedback","seqFeedback"],"classroomPairings":[["A","B"],["C","D"]],"coinWeights":[0.2,0.5,0.8],"subjectId":"A1969Q0R4Y0E3J","assignmentId":"3TEM0PF1Q6J5DBI5ARSD4Z9TIRDD0Z","hitId":"3AQN9REUTF20OMGWRXYK787QVFOYDP","url":"https://gershmanlab.com/experiments/alicia/teaching/experiment/?hitId=3AQN9REUTF20OMGWRXYK787QVFOYDP&workerId=A1969Q0R4Y0E3J&assignmentId=3TEM0PF1Q6J5DBI5ARSD4Z9TIRDD0Z&a=10ET9&tp_a=10ET9&b=3TEM0PF1Q6J5DBI5ARSD4Z9TIRDD0Z&tp_b=3TEM0PF1Q6J5DBI5ARSD4Z9TIRDD0Z&c=365799&tp_c=365799"},{"rt":11336,"response":{"heads":"6","tails":"24"},"type":"response","condition":"seqFeedback","trueTheta":0.2,"classrooms":["C","D"],"studentTrueClassroom":"C","exampleSet":"second","trial_type":"survey-html-form","trial_index":36,"time_elapsed":1915459,"internal_node_id":"0.0-32.0-0.0","params":{"nStudents":24,"maxFlips":30,"completionMinutes":45,"basePay":8,"maxBonus":9,"perTrialBonus":0.5,"perTrialBonusThreshold":0.05,"exampleCost":0.01},"classroomParams":{"A":{"a":1,"b":4},"B":{"a":4,"b":1},"C":{"a":2,"b":8},"D":{"a":8,"b":2}},"conditions":["nonSeqFull","nonSeqPartial","seqNoFeedback","seqFeedback"],"classroomPairings":[["A","B"],["C","D"]],"coinWeights":[0.2,0.5,0.8],"subjectId":"A1969Q0R4Y0E3J","assignmentId":"3TEM0PF1Q6J5DBI5ARSD4Z9TIRDD0Z","hitId":"3AQN9REUTF20OMGWRXYK787QVFOYDP","url":"https://gershmanlab.com/experiments/alicia/teaching/experiment/?hitId=3AQN9REUTF20OMGWRXYK787QVFOYDP&workerId=A1969Q0R4Y0E3J&assignmentId=3TEM0PF1Q6J5DBI5ARSD4Z9TIRDD0Z&a=10ET9&tp_a=10ET9&b=3TEM0PF1Q6J5DBI5ARSD4Z9TIRDD0Z&tp_b=3TEM0PF1Q6J5DBI5ARSD4Z9TIRDD0Z&c=365799&tp_c=365799","firstResponseHeads":8,"firstResponseTails":22,"secondResponseHeads":6,"secondResponseTails":24,"totalHeads":14,"totalTails":46,"studentIndex":3,"studentTrueHypers":{"a":2,"b":8},"studentGuess":0.22857142857142856,"delta":0.028571428571428553,"bonus":0,"bonusSoFar":0,"totalExamples":60},{"rt":null,"stimulus":"Sending examples to student... ","response":null,"trial_type":"html-keyboard-response","trial_index":37,"time_elapsed":1917213,"internal_node_id":"0.0-33.0","params":{"nStudents":24,"maxFlips":30,"completionMinutes":45,"basePay":8,"maxBonus":9,"perTrialBonus":0.5,"perTrialBonusThreshold":0.05,"exampleCost":0.01},"classroomParams":{"A":{"a":1,"b":4},"B":{"a":4,"b":1},"C":{"a":2,"b":8},"D":{"a":8,"b":2}},"conditions":["nonSeqFull","nonSeqPartial","seqNoFeedback","seqFeedback"],"classroomPairings":[["A","B"],["C","D"]],"coinWeights":[0.2,0.5,0.8],"subjectId":"A1969Q0R4Y0E3J","assignmentId":"3TEM0PF1Q6J5DBI5ARSD4Z9TIRDD0Z","hitId":"3AQN9REUTF20OMGWRXYK787QVFOYDP","url":"https://gershmanlab.com/experiments/alicia/teaching/experiment/?hitId=3AQN9REUTF20OMGWRXYK787QVFOYDP&workerId=A1969Q0R4Y0E3J&assignmentId=3TEM0PF1Q6J5DBI5ARSD4Z9TIRDD0Z&a=10ET9&tp_a=10ET9&b=3TEM0PF1Q6J5DBI5ARSD4Z9TIRDD0Z&tp_b=3TEM0PF1Q6J5DBI5ARSD4Z9TIRDD0Z&c=365799&tp_c=365799"},{"rt":null,"stimulus":"Examples sent to student! Waiting for student...","response":null,"trial_type":"html-keyboard-response","trial_index":38,"time_elapsed":1923225,"internal_node_id":"0.0-34.0","params":{"nStudents":24,"maxFlips":30,"completionMinutes":45,"basePay":8,"maxBonus":9,"perTrialBonus":0.5,"perTrialBonusThreshold":0.05,"exampleCost":0.01},"classroomParams":{"A":{"a":1,"b":4},"B":{"a":4,"b":1},"C":{"a":2,"b":8},"D":{"a":8,"b":2}},"conditions":["nonSeqFull","nonSeqPartial","seqNoFeedback","seqFeedback"],"classroomPairings":[["A","B"],["C","D"]],"coinWeights":[0.2,0.5,0.8],"subjectId":"A1969Q0R4Y0E3J","assignmentId":"3TEM0PF1Q6J5DBI5ARSD4Z9TIRDD0Z","hitId":"3AQN9REUTF20OMGWRXYK787QVFOYDP","url":"https://gershmanlab.com/experiments/alicia/teaching/experiment/?hitId=3AQN9REUTF20OMGWRXYK787QVFOYDP&workerId=A1969Q0R4Y0E3J&assignmentId=3TEM0PF1Q6J5DBI5ARSD4Z9TIRDD0Z&a=10ET9&tp_a=10ET9&b=3TEM0PF1Q6J5DBI5ARSD4Z9TIRDD0Z&tp_b=3TEM0PF1Q6J5DBI5ARSD4Z9TIRDD0Z&c=365799&tp_c=365799"},{"rt":4006,"stimulus":"\n                <p>Student 4's first guess for coin weight: <b style=\"color:Tomato\";>0.25</b></p>\n                <p>Student 4's second guess for coin weight: <b style=\"color:Tomato\";>0.23</b></p>\n                <p>You received a bonus of <b>$0.00</b> based on the student's second guess.</p>\n                <p>Total bonus so far: <b>$0.00</b></p>\n                <p>Press any key to continue.</p>\n                ","response":"c","trial_type":"html-keyboard-response","trial_index":39,"time_elapsed":1927233,"internal_node_id":"0.0-35.0","params":{"nStudents":24,"maxFlips":30,"completionMinutes":45,"basePay":8,"maxBonus":9,"perTrialBonus":0.5,"perTrialBonusThreshold":0.05,"exampleCost":0.01},"classroomParams":{"A":{"a":1,"b":4},"B":{"a":4,"b":1},"C":{"a":2,"b":8},"D":{"a":8,"b":2}},"conditions":["nonSeqFull","nonSeqPartial","seqNoFeedback","seqFeedback"],"classroomPairings":[["A","B"],["C","D"]],"coinWeights":[0.2,0.5,0.8],"subjectId":"A1969Q0R4Y0E3J","assignmentId":"3TEM0PF1Q6J5DBI5ARSD4Z9TIRDD0Z","hitId":"3AQN9REUTF20OMGWRXYK787QVFOYDP","url":"https://gershmanlab.com/experiments/alicia/teaching/experiment/?hitId=3AQN9REUTF20OMGWRXYK787QVFOYDP&workerId=A1969Q0R4Y0E3J&assignmentId=3TEM0PF1Q6J5DBI5ARSD4Z9TIRDD0Z&a=10ET9&tp_a=10ET9&b=3TEM0PF1Q6J5DBI5ARSD4Z9TIRDD0Z&tp_b=3TEM0PF1Q6J5DBI5ARSD4Z9TIRDD0Z&c=365799&tp_c=365799"},{"rt":null,"stimulus":"<div style=\"font-size:60px;\">Next student</div>","response":null,"trial_type":"html-keyboard-response","trial_index":40,"time_elapsed":1929246,"internal_node_id":"0.0-36.0-0.0","params":{"nStudents":24,"maxFlips":30,"completionMinutes":45,"basePay":8,"maxBonus":9,"perTrialBonus":0.5,"perTrialBonusThreshold":0.05,"exampleCost":0.01},"classroomParams":{"A":{"a":1,"b":4},"B":{"a":4,"b":1},"C":{"a":2,"b":8},"D":{"a":8,"b":2}},"conditions":["nonSeqFull","nonSeqPartial","seqNoFeedback","seqFeedback"],"classroomPairings":[["A","B"],["C","D"]],"coinWeights":[0.2,0.5,0.8],"subjectId":"A1969Q0R4Y0E3J","assignmentId":"3TEM0PF1Q6J5DBI5ARSD4Z9TIRDD0Z","hitId":"3AQN9REUTF20OMGWRXYK787QVFOYDP","url":"https://gershmanlab.com/experiments/alicia/teaching/experiment/?hitId=3AQN9REUTF20OMGWRXYK787QVFOYDP&workerId=A1969Q0R4Y0E3J&assignmentId=3TEM0PF1Q6J5DBI5ARSD4Z9TIRDD0Z&a=10ET9&tp_a=10ET9&b=3TEM0PF1Q6J5DBI5ARSD4Z9TIRDD0Z&tp_b=3TEM0PF1Q6J5DBI5ARSD4Z9TIRDD0Z&c=365799&tp_c=365799"},{"rt":1814,"stimulus":"\n            <h4 style=\"color:Orange;\">Student 5</h4>\n            <h2>The weight of your coin is <b style=\"color:Tomato;\">0.5</b>.</h2>\n            <p>In this block, you will be giving <b>two</b> sets of examples to Student 5.</p>\n                <p>You will receive feedback at the end of the block.</p>\n            <p></p>","response":0,"trial_type":"html-button-response","trial_index":41,"time_elapsed":1931064,"internal_node_id":"0.0-37.0","params":{"nStudents":24,"maxFlips":30,"completionMinutes":45,"basePay":8,"maxBonus":9,"perTrialBonus":0.5,"perTrialBonusThreshold":0.05,"exampleCost":0.01},"classroomParams":{"A":{"a":1,"b":4},"B":{"a":4,"b":1},"C":{"a":2,"b":8},"D":{"a":8,"b":2}},"conditions":["nonSeqFull","nonSeqPartial","seqNoFeedback","seqFeedback"],"classroomPairings":[["A","B"],["C","D"]],"coinWeights":[0.2,0.5,0.8],"subjectId":"A1969Q0R4Y0E3J","assignmentId":"3TEM0PF1Q6J5DBI5ARSD4Z9TIRDD0Z","hitId":"3AQN9REUTF20OMGWRXYK787QVFOYDP","url":"https://gershmanlab.com/experiments/alicia/teaching/experiment/?hitId=3AQN9REUTF20OMGWRXYK787QVFOYDP&workerId=A1969Q0R4Y0E3J&assignmentId=3TEM0PF1Q6J5DBI5ARSD4Z9TIRDD0Z&a=10ET9&tp_a=10ET9&b=3TEM0PF1Q6J5DBI5ARSD4Z9TIRDD0Z&tp_b=3TEM0PF1Q6J5DBI5ARSD4Z9TIRDD0Z&c=365799&tp_c=365799"},{"rt":16047,"response":{"heads":"14","tails":"16"},"type":"response","condition":"seqNoFeedback","trueTheta":0.5,"classrooms":["C","D"],"studentTrueClassroom":"C","exampleSet":"first","trial_type":"survey-html-form","trial_index":42,"time_elapsed":1947110,"internal_node_id":"0.0-38.0-0.0","params":{"nStudents":24,"maxFlips":30,"completionMinutes":45,"basePay":8,"maxBonus":9,"perTrialBonus":0.5,"perTrialBonusThreshold":0.05,"exampleCost":0.01},"classroomParams":{"A":{"a":1,"b":4},"B":{"a":4,"b":1},"C":{"a":2,"b":8},"D":{"a":8,"b":2}},"conditions":["nonSeqFull","nonSeqPartial","seqNoFeedback","seqFeedback"],"classroomPairings":[["A","B"],["C","D"]],"coinWeights":[0.2,0.5,0.8],"subjectId":"A1969Q0R4Y0E3J","assignmentId":"3TEM0PF1Q6J5DBI5ARSD4Z9TIRDD0Z","hitId":"3AQN9REUTF20OMGWRXYK787QVFOYDP","url":"https://gershmanlab.com/experiments/alicia/teaching/experiment/?hitId=3AQN9REUTF20OMGWRXYK787QVFOYDP&workerId=A1969Q0R4Y0E3J&assignmentId=3TEM0PF1Q6J5DBI5ARSD4Z9TIRDD0Z&a=10ET9&tp_a=10ET9&b=3TEM0PF1Q6J5DBI5ARSD4Z9TIRDD0Z&tp_b=3TEM0PF1Q6J5DBI5ARSD4Z9TIRDD0Z&c=365799&tp_c=365799","heads":14,"tails":16,"studentIndex":4,"studentTrueHypers":{"a":2,"b":8},"studentGuess":0.4,"delta":0.09999999999999998,"totalExamples":30,"bonusSoFar":0},{"rt":null,"stimulus":"Sending examples to student... ","response":null,"trial_type":"html-keyboard-response","trial_index":43,"time_elapsed":1948870,"internal_node_id":"0.0-39.0","params":{"nStudents":24,"maxFlips":30,"completionMinutes":45,"basePay":8,"maxBonus":9,"perTrialBonus":0.5,"perTrialBonusThreshold":0.05,"exampleCost":0.01},"classroomParams":{"A":{"a":1,"b":4},"B":{"a":4,"b":1},"C":{"a":2,"b":8},"D":{"a":8,"b":2}},"conditions":["nonSeqFull","nonSeqPartial","seqNoFeedback","seqFeedback"],"classroomPairings":[["A","B"],["C","D"]],"coinWeights":[0.2,0.5,0.8],"subjectId":"A1969Q0R4Y0E3J","assignmentId":"3TEM0PF1Q6J5DBI5ARSD4Z9TIRDD0Z","hitId":"3AQN9REUTF20OMGWRXYK787QVFOYDP","url":"https://gershmanlab.com/experiments/alicia/teaching/experiment/?hitId=3AQN9REUTF20OMGWRXYK787QVFOYDP&workerId=A1969Q0R4Y0E3J&assignmentId=3TEM0PF1Q6J5DBI5ARSD4Z9TIRDD0Z&a=10ET9&tp_a=10ET9&b=3TEM0PF1Q6J5DBI5ARSD4Z9TIRDD0Z&tp_b=3TEM0PF1Q6J5DBI5ARSD4Z9TIRDD0Z&c=365799&tp_c=365799"},{"rt":null,"stimulus":"Examples sent to student! Waiting for student...","response":null,"trial_type":"html-keyboard-response","trial_index":44,"time_elapsed":1953885,"internal_node_id":"0.0-40.0","params":{"nStudents":24,"maxFlips":30,"completionMinutes":45,"basePay":8,"maxBonus":9,"perTrialBonus":0.5,"perTrialBonusThreshold":0.05,"exampleCost":0.01},"classroomParams":{"A":{"a":1,"b":4},"B":{"a":4,"b":1},"C":{"a":2,"b":8},"D":{"a":8,"b":2}},"conditions":["nonSeqFull","nonSeqPartial","seqNoFeedback","seqFeedback"],"classroomPairings":[["A","B"],["C","D"]],"coinWeights":[0.2,0.5,0.8],"subjectId":"A1969Q0R4Y0E3J","assignmentId":"3TEM0PF1Q6J5DBI5ARSD4Z9TIRDD0Z","hitId":"3AQN9REUTF20OMGWRXYK787QVFOYDP","url":"https://gershmanlab.com/experiments/alicia/teaching/experiment/?hitId=3AQN9REUTF20OMGWRXYK787QVFOYDP&workerId=A1969Q0R4Y0E3J&assignmentId=3TEM0PF1Q6J5DBI5ARSD4Z9TIRDD0Z&a=10ET9&tp_a=10ET9&b=3TEM0PF1Q6J5DBI5ARSD4Z9TIRDD0Z&tp_b=3TEM0PF1Q6J5DBI5ARSD4Z9TIRDD0Z&c=365799&tp_c=365799"},{"rt":39802,"response":{"heads":"2","tails":"2"},"type":"response","condition":"seqNoFeedback","trueTheta":0.5,"classrooms":["C","D"],"studentTrueClassroom":"C","exampleSet":"second","trial_type":"survey-html-form","trial_index":45,"time_elapsed":1993689,"internal_node_id":"0.0-41.0-0.0","params":{"nStudents":24,"maxFlips":30,"completionMinutes":45,"basePay":8,"maxBonus":9,"perTrialBonus":0.5,"perTrialBonusThreshold":0.05,"exampleCost":0.01},"classroomParams":{"A":{"a":1,"b":4},"B":{"a":4,"b":1},"C":{"a":2,"b":8},"D":{"a":8,"b":2}},"conditions":["nonSeqFull","nonSeqPartial","seqNoFeedback","seqFeedback"],"classroomPairings":[["A","B"],["C","D"]],"coinWeights":[0.2,0.5,0.8],"subjectId":"A1969Q0R4Y0E3J","assignmentId":"3TEM0PF1Q6J5DBI5ARSD4Z9TIRDD0Z","hitId":"3AQN9REUTF20OMGWRXYK787QVFOYDP","url":"https://gershmanlab.com/experiments/alicia/teaching/experiment/?hitId=3AQN9REUTF20OMGWRXYK787QVFOYDP&workerId=A1969Q0R4Y0E3J&assignmentId=3TEM0PF1Q6J5DBI5ARSD4Z9TIRDD0Z&a=10ET9&tp_a=10ET9&b=3TEM0PF1Q6J5DBI5ARSD4Z9TIRDD0Z&tp_b=3TEM0PF1Q6J5DBI5ARSD4Z9TIRDD0Z&c=365799&tp_c=365799","firstResponseHeads":14,"firstResponseTails":16,"secondResponseHeads":2,"secondResponseTails":2,"totalHeads":16,"totalTails":18,"studentIndex":4,"studentTrueHypers":{"a":2,"b":8},"studentGuess":0.4090909090909091,"delta":0.09090909090909088,"bonus":0,"bonusSoFar":0,"totalExamples":34},{"rt":null,"stimulus":"Sending examples to student... ","response":null,"trial_type":"html-keyboard-response","trial_index":46,"time_elapsed":1995445,"internal_node_id":"0.0-42.0","params":{"nStudents":24,"maxFlips":30,"completionMinutes":45,"basePay":8,"maxBonus":9,"perTrialBonus":0.5,"perTrialBonusThreshold":0.05,"exampleCost":0.01},"classroomParams":{"A":{"a":1,"b":4},"B":{"a":4,"b":1},"C":{"a":2,"b":8},"D":{"a":8,"b":2}},"conditions":["nonSeqFull","nonSeqPartial","seqNoFeedback","seqFeedback"],"classroomPairings":[["A","B"],["C","D"]],"coinWeights":[0.2,0.5,0.8],"subjectId":"A1969Q0R4Y0E3J","assignmentId":"3TEM0PF1Q6J5DBI5ARSD4Z9TIRDD0Z","hitId":"3AQN9REUTF20OMGWRXYK787QVFOYDP","url":"https://gershmanlab.com/experiments/alicia/teaching/experiment/?hitId=3AQN9REUTF20OMGWRXYK787QVFOYDP&workerId=A1969Q0R4Y0E3J&assignmentId=3TEM0PF1Q6J5DBI5ARSD4Z9TIRDD0Z&a=10ET9&tp_a=10ET9&b=3TEM0PF1Q6J5DBI5ARSD4Z9TIRDD0Z&tp_b=3TEM0PF1Q6J5DBI5ARSD4Z9TIRDD0Z&c=365799&tp_c=365799"},{"rt":null,"stimulus":"Examples sent to student! Waiting for student...","response":null,"trial_type":"html-keyboard-response","trial_index":47,"time_elapsed":1999469,"internal_node_id":"0.0-43.0","params":{"nStudents":24,"maxFlips":30,"completionMinutes":45,"basePay":8,"maxBonus":9,"perTrialBonus":0.5,"perTrialBonusThreshold":0.05,"exampleCost":0.01},"classroomParams":{"A":{"a":1,"b":4},"B":{"a":4,"b":1},"C":{"a":2,"b":8},"D":{"a":8,"b":2}},"conditions":["nonSeqFull","nonSeqPartial","seqNoFeedback","seqFeedback"],"classroomPairings":[["A","B"],["C","D"]],"coinWeights":[0.2,0.5,0.8],"subjectId":"A1969Q0R4Y0E3J","assignmentId":"3TEM0PF1Q6J5DBI5ARSD4Z9TIRDD0Z","hitId":"3AQN9REUTF20OMGWRXYK787QVFOYDP","url":"https://gershmanlab.com/experiments/alicia/teaching/experiment/?hitId=3AQN9REUTF20OMGWRXYK787QVFOYDP&workerId=A1969Q0R4Y0E3J&assignmentId=3TEM0PF1Q6J5DBI5ARSD4Z9TIRDD0Z&a=10ET9&tp_a=10ET9&b=3TEM0PF1Q6J5DBI5ARSD4Z9TIRDD0Z&tp_b=3TEM0PF1Q6J5DBI5ARSD4Z9TIRDD0Z&c=365799&tp_c=365799"},{"rt":4170,"stimulus":"\n                <p>Student 5's first guess for coin weight: <b style=\"color:Tomato\";>0.40</b></p>\n                <p>Student 5's second guess for coin weight: <b style=\"color:Tomato\";>0.41</b></p>\n                <p>You received a bonus of <b>$0.00</b> based on the student's second guess.</p>\n                <p>Total bonus so far: <b>$0.00</b></p>\n                <p>Press any key to continue.</p>\n                ","response":"c","trial_type":"html-keyboard-response","trial_index":48,"time_elapsed":2003643,"internal_node_id":"0.0-44.0","params":{"nStudents":24,"maxFlips":30,"completionMinutes":45,"basePay":8,"maxBonus":9,"perTrialBonus":0.5,"perTrialBonusThreshold":0.05,"exampleCost":0.01},"classroomParams":{"A":{"a":1,"b":4},"B":{"a":4,"b":1},"C":{"a":2,"b":8},"D":{"a":8,"b":2}},"conditions":["nonSeqFull","nonSeqPartial","seqNoFeedback","seqFeedback"],"classroomPairings":[["A","B"],["C","D"]],"coinWeights":[0.2,0.5,0.8],"subjectId":"A1969Q0R4Y0E3J","assignmentId":"3TEM0PF1Q6J5DBI5ARSD4Z9TIRDD0Z","hitId":"3AQN9REUTF20OMGWRXYK787QVFOYDP","url":"https://gershmanlab.com/experiments/alicia/teaching/experiment/?hitId=3AQN9REUTF20OMGWRXYK787QVFOYDP&workerId=A1969Q0R4Y0E3J&assignmentId=3TEM0PF1Q6J5DBI5ARSD4Z9TIRDD0Z&a=10ET9&tp_a=10ET9&b=3TEM0PF1Q6J5DBI5ARSD4Z9TIRDD0Z&tp_b=3TEM0PF1Q6J5DBI5ARSD4Z9TIRDD0Z&c=365799&tp_c=365799"},{"rt":null,"stimulus":"<div style=\"font-size:60px;\">Next student</div>","response":null,"trial_type":"html-keyboard-response","trial_index":49,"time_elapsed":2006158,"internal_node_id":"0.0-45.0-0.0","params":{"nStudents":24,"maxFlips":30,"completionMinutes":45,"basePay":8,"maxBonus":9,"perTrialBonus":0.5,"perTrialBonusThreshold":0.05,"exampleCost":0.01},"classroomParams":{"A":{"a":1,"b":4},"B":{"a":4,"b":1},"C":{"a":2,"b":8},"D":{"a":8,"b":2}},"conditions":["nonSeqFull","nonSeqPartial","seqNoFeedback","seqFeedback"],"classroomPairings":[["A","B"],["C","D"]],"coinWeights":[0.2,0.5,0.8],"subjectId":"A1969Q0R4Y0E3J","assignmentId":"3TEM0PF1Q6J5DBI5ARSD4Z9TIRDD0Z","hitId":"3AQN9REUTF20OMGWRXYK787QVFOYDP","url":"https://gershmanlab.com/experiments/alicia/teaching/experiment/?hitId=3AQN9REUTF20OMGWRXYK787QVFOYDP&workerId=A1969Q0R4Y0E3J&assignmentId=3TEM0PF1Q6J5DBI5ARSD4Z9TIRDD0Z&a=10ET9&tp_a=10ET9&b=3TEM0PF1Q6J5DBI5ARSD4Z9TIRDD0Z&tp_b=3TEM0PF1Q6J5DBI5ARSD4Z9TIRDD0Z&c=365799&tp_c=365799"},{"rt":1983,"stimulus":"\n            <h4 style=\"color:Orange;\">Student 6</h4>\n            <h2>The weight of your coin is <b style=\"color:Tomato;\">0.2</b>.</h2>\n            <p>In this block, you will be giving <b>two</b> sets of examples to Student 6.</p>\n                <p>You will see the student's guess after the first set of examples. You will also receive feedback at the end of the block.</p>\n            <p>To earn the highest bonus, you will have to <b>take into consideration the student's guess</b> when you choose your second set of examples.</p>","response":0,"trial_type":"html-button-response","trial_index":50,"time_elapsed":2008143,"internal_node_id":"0.0-46.0","params":{"nStudents":24,"maxFlips":30,"completionMinutes":45,"basePay":8,"maxBonus":9,"perTrialBonus":0.5,"perTrialBonusThreshold":0.05,"exampleCost":0.01},"classroomParams":{"A":{"a":1,"b":4},"B":{"a":4,"b":1},"C":{"a":2,"b":8},"D":{"a":8,"b":2}},"conditions":["nonSeqFull","nonSeqPartial","seqNoFeedback","seqFeedback"],"classroomPairings":[["A","B"],["C","D"]],"coinWeights":[0.2,0.5,0.8],"subjectId":"A1969Q0R4Y0E3J","assignmentId":"3TEM0PF1Q6J5DBI5ARSD4Z9TIRDD0Z","hitId":"3AQN9REUTF20OMGWRXYK787QVFOYDP","url":"https://gershmanlab.com/experiments/alicia/teaching/experiment/?hitId=3AQN9REUTF20OMGWRXYK787QVFOYDP&workerId=A1969Q0R4Y0E3J&assignmentId=3TEM0PF1Q6J5DBI5ARSD4Z9TIRDD0Z&a=10ET9&tp_a=10ET9&b=3TEM0PF1Q6J5DBI5ARSD4Z9TIRDD0Z&tp_b=3TEM0PF1Q6J5DBI5ARSD4Z9TIRDD0Z&c=365799&tp_c=365799"},{"rt":18186,"response":{"heads":"1","tails":"3"},"type":"response","condition":"seqFeedback","trueTheta":0.2,"classrooms":["A","B"],"studentTrueClassroom":"A","exampleSet":"first","trial_type":"survey-html-form","trial_index":51,"time_elapsed":2026333,"internal_node_id":"0.0-47.0-0.0","params":{"nStudents":24,"maxFlips":30,"completionMinutes":45,"basePay":8,"maxBonus":9,"perTrialBonus":0.5,"perTrialBonusThreshold":0.05,"exampleCost":0.01},"classroomParams":{"A":{"a":1,"b":4},"B":{"a":4,"b":1},"C":{"a":2,"b":8},"D":{"a":8,"b":2}},"conditions":["nonSeqFull","nonSeqPartial","seqNoFeedback","seqFeedback"],"classroomPairings":[["A","B"],["C","D"]],"coinWeights":[0.2,0.5,0.8],"subjectId":"A1969Q0R4Y0E3J","assignmentId":"3TEM0PF1Q6J5DBI5ARSD4Z9TIRDD0Z","hitId":"3AQN9REUTF20OMGWRXYK787QVFOYDP","url":"https://gershmanlab.com/experiments/alicia/teaching/experiment/?hitId=3AQN9REUTF20OMGWRXYK787QVFOYDP&workerId=A1969Q0R4Y0E3J&assignmentId=3TEM0PF1Q6J5DBI5ARSD4Z9TIRDD0Z&a=10ET9&tp_a=10ET9&b=3TEM0PF1Q6J5DBI5ARSD4Z9TIRDD0Z&tp_b=3TEM0PF1Q6J5DBI5ARSD4Z9TIRDD0Z&c=365799&tp_c=365799","heads":1,"tails":3,"studentIndex":5,"studentTrueHypers":{"a":1,"b":4},"studentGuess":0.2222222222222222,"delta":0.0222222222222222,"totalExamples":4,"bonusSoFar":0},{"rt":null,"stimulus":"Sending examples to student... ","response":null,"trial_type":"html-keyboard-response","trial_index":52,"time_elapsed":2027587,"internal_node_id":"0.0-48.0","params":{"nStudents":24,"maxFlips":30,"completionMinutes":45,"basePay":8,"maxBonus":9,"perTrialBonus":0.5,"perTrialBonusThreshold":0.05,"exampleCost":0.01},"classroomParams":{"A":{"a":1,"b":4},"B":{"a":4,"b":1},"C":{"a":2,"b":8},"D":{"a":8,"b":2}},"conditions":["nonSeqFull","nonSeqPartial","seqNoFeedback","seqFeedback"],"classroomPairings":[["A","B"],["C","D"]],"coinWeights":[0.2,0.5,0.8],"subjectId":"A1969Q0R4Y0E3J","assignmentId":"3TEM0PF1Q6J5DBI5ARSD4Z9TIRDD0Z","hitId":"3AQN9REUTF20OMGWRXYK787QVFOYDP","url":"https://gershmanlab.com/experiments/alicia/teaching/experiment/?hitId=3AQN9REUTF20OMGWRXYK787QVFOYDP&workerId=A1969Q0R4Y0E3J&assignmentId=3TEM0PF1Q6J5DBI5ARSD4Z9TIRDD0Z&a=10ET9&tp_a=10ET9&b=3TEM0PF1Q6J5DBI5ARSD4Z9TIRDD0Z&tp_b=3TEM0PF1Q6J5DBI5ARSD4Z9TIRDD0Z&c=365799&tp_c=365799"},{"rt":null,"stimulus":"Examples sent to student! Waiting for student...","response":null,"trial_type":"html-keyboard-response","trial_index":53,"time_elapsed":2032602,"internal_node_id":"0.0-49.0","params":{"nStudents":24,"maxFlips":30,"completionMinutes":45,"basePay":8,"maxBonus":9,"perTrialBonus":0.5,"perTrialBonusThreshold":0.05,"exampleCost":0.01},"classroomParams":{"A":{"a":1,"b":4},"B":{"a":4,"b":1},"C":{"a":2,"b":8},"D":{"a":8,"b":2}},"conditions":["nonSeqFull","nonSeqPartial","seqNoFeedback","seqFeedback"],"classroomPairings":[["A","B"],["C","D"]],"coinWeights":[0.2,0.5,0.8],"subjectId":"A1969Q0R4Y0E3J","assignmentId":"3TEM0PF1Q6J5DBI5ARSD4Z9TIRDD0Z","hitId":"3AQN9REUTF20OMGWRXYK787QVFOYDP","url":"https://gershmanlab.com/experiments/alicia/teaching/experiment/?hitId=3AQN9REUTF20OMGWRXYK787QVFOYDP&workerId=A1969Q0R4Y0E3J&assignmentId=3TEM0PF1Q6J5DBI5ARSD4Z9TIRDD0Z&a=10ET9&tp_a=10ET9&b=3TEM0PF1Q6J5DBI5ARSD4Z9TIRDD0Z&tp_b=3TEM0PF1Q6J5DBI5ARSD4Z9TIRDD0Z&c=365799&tp_c=365799"},{"rt":4404,"stimulus":"\n                <p>Student's guess for coin weight: <b style=\"color:Tomato;\">0.22</b></p>\n                <p></b></p>\n                <p>You will now send another set of examples to your student. <b>Remember to take your student's guess into consideration so that you can earn the highest bonus possible!</b> </p>\n                <p>Press any key to continue.</p>\n                ","response":"c","trial_type":"html-keyboard-response","trial_index":54,"time_elapsed":2037009,"internal_node_id":"0.0-50.0","params":{"nStudents":24,"maxFlips":30,"completionMinutes":45,"basePay":8,"maxBonus":9,"perTrialBonus":0.5,"perTrialBonusThreshold":0.05,"exampleCost":0.01},"classroomParams":{"A":{"a":1,"b":4},"B":{"a":4,"b":1},"C":{"a":2,"b":8},"D":{"a":8,"b":2}},"conditions":["nonSeqFull","nonSeqPartial","seqNoFeedback","seqFeedback"],"classroomPairings":[["A","B"],["C","D"]],"coinWeights":[0.2,0.5,0.8],"subjectId":"A1969Q0R4Y0E3J","assignmentId":"3TEM0PF1Q6J5DBI5ARSD4Z9TIRDD0Z","hitId":"3AQN9REUTF20OMGWRXYK787QVFOYDP","url":"https://gershmanlab.com/experiments/alicia/teaching/experiment/?hitId=3AQN9REUTF20OMGWRXYK787QVFOYDP&workerId=A1969Q0R4Y0E3J&assignmentId=3TEM0PF1Q6J5DBI5ARSD4Z9TIRDD0Z&a=10ET9&tp_a=10ET9&b=3TEM0PF1Q6J5DBI5ARSD4Z9TIRDD0Z&tp_b=3TEM0PF1Q6J5DBI5ARSD4Z9TIRDD0Z&c=365799&tp_c=365799"},{"rt":13808,"response":{"heads":"1","tails":"2"},"type":"response","condition":"seqFeedback","trueTheta":0.2,"classrooms":["A","B"],"studentTrueClassroom":"A","exampleSet":"second","trial_type":"survey-html-form","trial_index":55,"time_elapsed":2050822,"internal_node_id":"0.0-51.0-0.0","params":{"nStudents":24,"maxFlips":30,"completionMinutes":45,"basePay":8,"maxBonus":9,"perTrialBonus":0.5,"perTrialBonusThreshold":0.05,"exampleCost":0.01},"classroomParams":{"A":{"a":1,"b":4},"B":{"a":4,"b":1},"C":{"a":2,"b":8},"D":{"a":8,"b":2}},"conditions":["nonSeqFull","nonSeqPartial","seqNoFeedback","seqFeedback"],"classroomPairings":[["A","B"],["C","D"]],"coinWeights":[0.2,0.5,0.8],"subjectId":"A1969Q0R4Y0E3J","assignmentId":"3TEM0PF1Q6J5DBI5ARSD4Z9TIRDD0Z","hitId":"3AQN9REUTF20OMGWRXYK787QVFOYDP","url":"https://gershmanlab.com/experiments/alicia/teaching/experiment/?hitId=3AQN9REUTF20OMGWRXYK787QVFOYDP&workerId=A1969Q0R4Y0E3J&assignmentId=3TEM0PF1Q6J5DBI5ARSD4Z9TIRDD0Z&a=10ET9&tp_a=10ET9&b=3TEM0PF1Q6J5DBI5ARSD4Z9TIRDD0Z&tp_b=3TEM0PF1Q6J5DBI5ARSD4Z9TIRDD0Z&c=365799&tp_c=365799","firstResponseHeads":1,"firstResponseTails":3,"secondResponseHeads":1,"secondResponseTails":2,"totalHeads":2,"totalTails":5,"studentIndex":5,"studentTrueHypers":{"a":1,"b":4},"studentGuess":0.25,"delta":0.04999999999999999,"bonus":0.43,"bonusSoFar":0.43,"totalExamples":7},{"rt":null,"stimulus":"Sending examples to student... ","response":null,"trial_type":"html-keyboard-response","trial_index":56,"time_elapsed":2052328,"internal_node_id":"0.0-52.0","params":{"nStudents":24,"maxFlips":30,"completionMinutes":45,"basePay":8,"maxBonus":9,"perTrialBonus":0.5,"perTrialBonusThreshold":0.05,"exampleCost":0.01},"classroomParams":{"A":{"a":1,"b":4},"B":{"a":4,"b":1},"C":{"a":2,"b":8},"D":{"a":8,"b":2}},"conditions":["nonSeqFull","nonSeqPartial","seqNoFeedback","seqFeedback"],"classroomPairings":[["A","B"],["C","D"]],"coinWeights":[0.2,0.5,0.8],"subjectId":"A1969Q0R4Y0E3J","assignmentId":"3TEM0PF1Q6J5DBI5ARSD4Z9TIRDD0Z","hitId":"3AQN9REUTF20OMGWRXYK787QVFOYDP","url":"https://gershmanlab.com/experiments/alicia/teaching/experiment/?hitId=3AQN9REUTF20OMGWRXYK787QVFOYDP&workerId=A1969Q0R4Y0E3J&assignmentId=3TEM0PF1Q6J5DBI5ARSD4Z9TIRDD0Z&a=10ET9&tp_a=10ET9&b=3TEM0PF1Q6J5DBI5ARSD4Z9TIRDD0Z&tp_b=3TEM0PF1Q6J5DBI5ARSD4Z9TIRDD0Z&c=365799&tp_c=365799"},{"rt":null,"stimulus":"Examples sent to student! Waiting for student...","response":null,"trial_type":"html-keyboard-response","trial_index":57,"time_elapsed":2057334,"internal_node_id":"0.0-53.0","params":{"nStudents":24,"maxFlips":30,"completionMinutes":45,"basePay":8,"maxBonus":9,"perTrialBonus":0.5,"perTrialBonusThreshold":0.05,"exampleCost":0.01},"classroomParams":{"A":{"a":1,"b":4},"B":{"a":4,"b":1},"C":{"a":2,"b":8},"D":{"a":8,"b":2}},"conditions":["nonSeqFull","nonSeqPartial","seqNoFeedback","seqFeedback"],"classroomPairings":[["A","B"],["C","D"]],"coinWeights":[0.2,0.5,0.8],"subjectId":"A1969Q0R4Y0E3J","assignmentId":"3TEM0PF1Q6J5DBI5ARSD4Z9TIRDD0Z","hitId":"3AQN9REUTF20OMGWRXYK787QVFOYDP","url":"https://gershmanlab.com/experiments/alicia/teaching/experiment/?hitId=3AQN9REUTF20OMGWRXYK787QVFOYDP&workerId=A1969Q0R4Y0E3J&assignmentId=3TEM0PF1Q6J5DBI5ARSD4Z9TIRDD0Z&a=10ET9&tp_a=10ET9&b=3TEM0PF1Q6J5DBI5ARSD4Z9TIRDD0Z&tp_b=3TEM0PF1Q6J5DBI5ARSD4Z9TIRDD0Z&c=365799&tp_c=365799"},{"rt":null,"stimulus":"\n                <p>Student 6's first guess for coin weight: <b style=\"color:Tomato\";>0.22</b></p>\n                <p>Student 6's second guess for coin weight: <b style=\"color:Tomato\";>0.25</b></p>\n                <p>You received a bonus of <b>$0.43</b> based on the student's second guess.</p>\n                <p>Total bonus so far: <b>$0.43</b></p>\n                <p>Press any key to continue.</p>\n                ","response":null,"trial_type":"html-keyboard-response","trial_index":58,"time_elapsed":2087354,"internal_node_id":"0.0-54.0","params":{"nStudents":24,"maxFlips":30,"completionMinutes":45,"basePay":8,"maxBonus":9,"perTrialBonus":0.5,"perTrialBonusThreshold":0.05,"exampleCost":0.01},"classroomParams":{"A":{"a":1,"b":4},"B":{"a":4,"b":1},"C":{"a":2,"b":8},"D":{"a":8,"b":2}},"conditions":["nonSeqFull","nonSeqPartial","seqNoFeedback","seqFeedback"],"classroomPairings":[["A","B"],["C","D"]],"coinWeights":[0.2,0.5,0.8],"subjectId":"A1969Q0R4Y0E3J","assignmentId":"3TEM0PF1Q6J5DBI5ARSD4Z9TIRDD0Z","hitId":"3AQN9REUTF20OMGWRXYK787QVFOYDP","url":"https://gershmanlab.com/experiments/alicia/teaching/experiment/?hitId=3AQN9REUTF20OMGWRXYK787QVFOYDP&workerId=A1969Q0R4Y0E3J&assignmentId=3TEM0PF1Q6J5DBI5ARSD4Z9TIRDD0Z&a=10ET9&tp_a=10ET9&b=3TEM0PF1Q6J5DBI5ARSD4Z9TIRDD0Z&tp_b=3TEM0PF1Q6J5DBI5ARSD4Z9TIRDD0Z&c=365799&tp_c=365799"},{"rt":null,"stimulus":"<div style=\"font-size:60px;\">Next student</div>","response":null,"trial_type":"html-keyboard-response","trial_index":59,"time_elapsed":2089863,"internal_node_id":"0.0-55.0-0.0","params":{"nStudents":24,"maxFlips":30,"completionMinutes":45,"basePay":8,"maxBonus":9,"perTrialBonus":0.5,"perTrialBonusThreshold":0.05,"exampleCost":0.01},"classroomParams":{"A":{"a":1,"b":4},"B":{"a":4,"b":1},"C":{"a":2,"b":8},"D":{"a":8,"b":2}},"conditions":["nonSeqFull","nonSeqPartial","seqNoFeedback","seqFeedback"],"classroomPairings":[["A","B"],["C","D"]],"coinWeights":[0.2,0.5,0.8],"subjectId":"A1969Q0R4Y0E3J","assignmentId":"3TEM0PF1Q6J5DBI5ARSD4Z9TIRDD0Z","hitId":"3AQN9REUTF20OMGWRXYK787QVFOYDP","url":"https://gershmanlab.com/experiments/alicia/teaching/experiment/?hitId=3AQN9REUTF20OMGWRXYK787QVFOYDP&workerId=A1969Q0R4Y0E3J&assignmentId=3TEM0PF1Q6J5DBI5ARSD4Z9TIRDD0Z&a=10ET9&tp_a=10ET9&b=3TEM0PF1Q6J5DBI5ARSD4Z9TIRDD0Z&tp_b=3TEM0PF1Q6J5DBI5ARSD4Z9TIRDD0Z&c=365799&tp_c=365799"},{"rt":37073,"stimulus":"\n            <h4 style=\"color:Orange;\">Student 7</h4>\n            <h2>The weight of your coin is <b style=\"color:Tomato;\">0.8</b>.</h2>\n            <p>In this block, you will be giving <b>one</b> set of examples to Student 7.</p>\n                <p>You will receive feedback at the end of the block.</p>\n            <p></p>","response":0,"trial_type":"html-button-response","trial_index":60,"time_elapsed":2126939,"internal_node_id":"0.0-56.0","params":{"nStudents":24,"maxFlips":30,"completionMinutes":45,"basePay":8,"maxBonus":9,"perTrialBonus":0.5,"perTrialBonusThreshold":0.05,"exampleCost":0.01},"classroomParams":{"A":{"a":1,"b":4},"B":{"a":4,"b":1},"C":{"a":2,"b":8},"D":{"a":8,"b":2}},"conditions":["nonSeqFull","nonSeqPartial","seqNoFeedback","seqFeedback"],"classroomPairings":[["A","B"],["C","D"]],"coinWeights":[0.2,0.5,0.8],"subjectId":"A1969Q0R4Y0E3J","assignmentId":"3TEM0PF1Q6J5DBI5ARSD4Z9TIRDD0Z","hitId":"3AQN9REUTF20OMGWRXYK787QVFOYDP","url":"https://gershmanlab.com/experiments/alicia/teaching/experiment/?hitId=3AQN9REUTF20OMGWRXYK787QVFOYDP&workerId=A1969Q0R4Y0E3J&assignmentId=3TEM0PF1Q6J5DBI5ARSD4Z9TIRDD0Z&a=10ET9&tp_a=10ET9&b=3TEM0PF1Q6J5DBI5ARSD4Z9TIRDD0Z&tp_b=3TEM0PF1Q6J5DBI5ARSD4Z9TIRDD0Z&c=365799&tp_c=365799"},{"rt":12348,"response":{"heads":"8","tails":"2"},"type":"response","condition":"nonSeqPartial","trueTheta":0.8,"classrooms":["C","D"],"studentTrueClassroom":"D","exampleSet":"first","trial_type":"survey-html-form","trial_index":61,"time_elapsed":2139291,"internal_node_id":"0.0-57.0-0.0","params":{"nStudents":24,"maxFlips":30,"completionMinutes":45,"basePay":8,"maxBonus":9,"perTrialBonus":0.5,"perTrialBonusThreshold":0.05,"exampleCost":0.01},"classroomParams":{"A":{"a":1,"b":4},"B":{"a":4,"b":1},"C":{"a":2,"b":8},"D":{"a":8,"b":2}},"conditions":["nonSeqFull","nonSeqPartial","seqNoFeedback","seqFeedback"],"classroomPairings":[["A","B"],["C","D"]],"coinWeights":[0.2,0.5,0.8],"subjectId":"A1969Q0R4Y0E3J","assignmentId":"3TEM0PF1Q6J5DBI5ARSD4Z9TIRDD0Z","hitId":"3AQN9REUTF20OMGWRXYK787QVFOYDP","url":"https://gershmanlab.com/experiments/alicia/teaching/experiment/?hitId=3AQN9REUTF20OMGWRXYK787QVFOYDP&workerId=A1969Q0R4Y0E3J&assignmentId=3TEM0PF1Q6J5DBI5ARSD4Z9TIRDD0Z&a=10ET9&tp_a=10ET9&b=3TEM0PF1Q6J5DBI5ARSD4Z9TIRDD0Z&tp_b=3TEM0PF1Q6J5DBI5ARSD4Z9TIRDD0Z&c=365799&tp_c=365799","heads":8,"tails":2,"studentIndex":6,"studentTrueHypers":{"a":8,"b":2},"studentGuess":0.8,"delta":0,"totalExamples":10,"bonus":0.4,"bonusSoFar":0.83},{"rt":null,"stimulus":"Sending examples to student... ","response":null,"trial_type":"html-keyboard-response","trial_index":62,"time_elapsed":2141303,"internal_node_id":"0.0-58.0","params":{"nStudents":24,"maxFlips":30,"completionMinutes":45,"basePay":8,"maxBonus":9,"perTrialBonus":0.5,"perTrialBonusThreshold":0.05,"exampleCost":0.01},"classroomParams":{"A":{"a":1,"b":4},"B":{"a":4,"b":1},"C":{"a":2,"b":8},"D":{"a":8,"b":2}},"conditions":["nonSeqFull","nonSeqPartial","seqNoFeedback","seqFeedback"],"classroomPairings":[["A","B"],["C","D"]],"coinWeights":[0.2,0.5,0.8],"subjectId":"A1969Q0R4Y0E3J","assignmentId":"3TEM0PF1Q6J5DBI5ARSD4Z9TIRDD0Z","hitId":"3AQN9REUTF20OMGWRXYK787QVFOYDP","url":"https://gershmanlab.com/experiments/alicia/teaching/experiment/?hitId=3AQN9REUTF20OMGWRXYK787QVFOYDP&workerId=A1969Q0R4Y0E3J&assignmentId=3TEM0PF1Q6J5DBI5ARSD4Z9TIRDD0Z&a=10ET9&tp_a=10ET9&b=3TEM0PF1Q6J5DBI5ARSD4Z9TIRDD0Z&tp_b=3TEM0PF1Q6J5DBI5ARSD4Z9TIRDD0Z&c=365799&tp_c=365799"},{"rt":null,"stimulus":"Examples sent to student! Waiting for student...","response":null,"trial_type":"html-keyboard-response","trial_index":63,"time_elapsed":2145324,"internal_node_id":"0.0-59.0","params":{"nStudents":24,"maxFlips":30,"completionMinutes":45,"basePay":8,"maxBonus":9,"perTrialBonus":0.5,"perTrialBonusThreshold":0.05,"exampleCost":0.01},"classroomParams":{"A":{"a":1,"b":4},"B":{"a":4,"b":1},"C":{"a":2,"b":8},"D":{"a":8,"b":2}},"conditions":["nonSeqFull","nonSeqPartial","seqNoFeedback","seqFeedback"],"classroomPairings":[["A","B"],["C","D"]],"coinWeights":[0.2,0.5,0.8],"subjectId":"A1969Q0R4Y0E3J","assignmentId":"3TEM0PF1Q6J5DBI5ARSD4Z9TIRDD0Z","hitId":"3AQN9REUTF20OMGWRXYK787QVFOYDP","url":"https://gershmanlab.com/experiments/alicia/teaching/experiment/?hitId=3AQN9REUTF20OMGWRXYK787QVFOYDP&workerId=A1969Q0R4Y0E3J&assignmentId=3TEM0PF1Q6J5DBI5ARSD4Z9TIRDD0Z&a=10ET9&tp_a=10ET9&b=3TEM0PF1Q6J5DBI5ARSD4Z9TIRDD0Z&tp_b=3TEM0PF1Q6J5DBI5ARSD4Z9TIRDD0Z&c=365799&tp_c=365799"},{"rt":2734,"stimulus":"\n                <p>Student's guess for coin weight: <b style=\"color:Tomato;\">0.80</b></p>\n                <p>You received a bonus of <b>$0.4</b>. Total bonus so far: <b>$0.83</b></b></p>\n                <p></p>\n                <p>Press any key to continue.</p>\n                ","response":"f","trial_type":"html-keyboard-response","trial_index":64,"time_elapsed":2148053,"internal_node_id":"0.0-60.0","params":{"nStudents":24,"maxFlips":30,"completionMinutes":45,"basePay":8,"maxBonus":9,"perTrialBonus":0.5,"perTrialBonusThreshold":0.05,"exampleCost":0.01},"classroomParams":{"A":{"a":1,"b":4},"B":{"a":4,"b":1},"C":{"a":2,"b":8},"D":{"a":8,"b":2}},"conditions":["nonSeqFull","nonSeqPartial","seqNoFeedback","seqFeedback"],"classroomPairings":[["A","B"],["C","D"]],"coinWeights":[0.2,0.5,0.8],"subjectId":"A1969Q0R4Y0E3J","assignmentId":"3TEM0PF1Q6J5DBI5ARSD4Z9TIRDD0Z","hitId":"3AQN9REUTF20OMGWRXYK787QVFOYDP","url":"https://gershmanlab.com/experiments/alicia/teaching/experiment/?hitId=3AQN9REUTF20OMGWRXYK787QVFOYDP&workerId=A1969Q0R4Y0E3J&assignmentId=3TEM0PF1Q6J5DBI5ARSD4Z9TIRDD0Z&a=10ET9&tp_a=10ET9&b=3TEM0PF1Q6J5DBI5ARSD4Z9TIRDD0Z&tp_b=3TEM0PF1Q6J5DBI5ARSD4Z9TIRDD0Z&c=365799&tp_c=365799"},{"rt":null,"stimulus":"<div style=\"font-size:60px;\">Next student</div>","response":null,"trial_type":"html-keyboard-response","trial_index":65,"time_elapsed":2150186,"internal_node_id":"0.0-61.0-0.0","params":{"nStudents":24,"maxFlips":30,"completionMinutes":45,"basePay":8,"maxBonus":9,"perTrialBonus":0.5,"perTrialBonusThreshold":0.05,"exampleCost":0.01},"classroomParams":{"A":{"a":1,"b":4},"B":{"a":4,"b":1},"C":{"a":2,"b":8},"D":{"a":8,"b":2}},"conditions":["nonSeqFull","nonSeqPartial","seqNoFeedback","seqFeedback"],"classroomPairings":[["A","B"],["C","D"]],"coinWeights":[0.2,0.5,0.8],"subjectId":"A1969Q0R4Y0E3J","assignmentId":"3TEM0PF1Q6J5DBI5ARSD4Z9TIRDD0Z","hitId":"3AQN9REUTF20OMGWRXYK787QVFOYDP","url":"https://gershmanlab.com/experiments/alicia/teaching/experiment/?hitId=3AQN9REUTF20OMGWRXYK787QVFOYDP&workerId=A1969Q0R4Y0E3J&assignmentId=3TEM0PF1Q6J5DBI5ARSD4Z9TIRDD0Z&a=10ET9&tp_a=10ET9&b=3TEM0PF1Q6J5DBI5ARSD4Z9TIRDD0Z&tp_b=3TEM0PF1Q6J5DBI5ARSD4Z9TIRDD0Z&c=365799&tp_c=365799"},{"rt":202046,"stimulus":"\n            <h4 style=\"color:Orange;\">Student 8</h4>\n            <h2>The weight of your coin is <b style=\"color:Tomato;\">0.8</b>.</h2>\n            <p>In this block, you will be giving <b>two</b> sets of examples to Student 8.</p>\n                <p>You will see the student's guess after the first set of examples. You will also receive feedback at the end of the block.</p>\n            <p>To earn the highest bonus, you will have to <b>take into consideration the student's guess</b> when you choose your second set of examples.</p>","response":0,"trial_type":"html-button-response","trial_index":66,"time_elapsed":2352238,"internal_node_id":"0.0-62.0","params":{"nStudents":24,"maxFlips":30,"completionMinutes":45,"basePay":8,"maxBonus":9,"perTrialBonus":0.5,"perTrialBonusThreshold":0.05,"exampleCost":0.01},"classroomParams":{"A":{"a":1,"b":4},"B":{"a":4,"b":1},"C":{"a":2,"b":8},"D":{"a":8,"b":2}},"conditions":["nonSeqFull","nonSeqPartial","seqNoFeedback","seqFeedback"],"classroomPairings":[["A","B"],["C","D"]],"coinWeights":[0.2,0.5,0.8],"subjectId":"A1969Q0R4Y0E3J","assignmentId":"3TEM0PF1Q6J5DBI5ARSD4Z9TIRDD0Z","hitId":"3AQN9REUTF20OMGWRXYK787QVFOYDP","url":"https://gershmanlab.com/experiments/alicia/teaching/experiment/?hitId=3AQN9REUTF20OMGWRXYK787QVFOYDP&workerId=A1969Q0R4Y0E3J&assignmentId=3TEM0PF1Q6J5DBI5ARSD4Z9TIRDD0Z&a=10ET9&tp_a=10ET9&b=3TEM0PF1Q6J5DBI5ARSD4Z9TIRDD0Z&tp_b=3TEM0PF1Q6J5DBI5ARSD4Z9TIRDD0Z&c=365799&tp_c=365799"},{"rt":21193,"response":{"heads":"4","tails":"1"},"type":"response","condition":"seqFeedback","trueTheta":0.8,"classrooms":["A","B"],"studentTrueClassroom":"B","exampleSet":"first","trial_type":"survey-html-form","trial_index":67,"time_elapsed":2373434,"internal_node_id":"0.0-63.0-0.0","params":{"nStudents":24,"maxFlips":30,"completionMinutes":45,"basePay":8,"maxBonus":9,"perTrialBonus":0.5,"perTrialBonusThreshold":0.05,"exampleCost":0.01},"classroomParams":{"A":{"a":1,"b":4},"B":{"a":4,"b":1},"C":{"a":2,"b":8},"D":{"a":8,"b":2}},"conditions":["nonSeqFull","nonSeqPartial","seqNoFeedback","seqFeedback"],"classroomPairings":[["A","B"],["C","D"]],"coinWeights":[0.2,0.5,0.8],"subjectId":"A1969Q0R4Y0E3J","assignmentId":"3TEM0PF1Q6J5DBI5ARSD4Z9TIRDD0Z","hitId":"3AQN9REUTF20OMGWRXYK787QVFOYDP","url":"https://gershmanlab.com/experiments/alicia/teaching/experiment/?hitId=3AQN9REUTF20OMGWRXYK787QVFOYDP&workerId=A1969Q0R4Y0E3J&assignmentId=3TEM0PF1Q6J5DBI5ARSD4Z9TIRDD0Z&a=10ET9&tp_a=10ET9&b=3TEM0PF1Q6J5DBI5ARSD4Z9TIRDD0Z&tp_b=3TEM0PF1Q6J5DBI5ARSD4Z9TIRDD0Z&c=365799&tp_c=365799","heads":4,"tails":1,"studentIndex":7,"studentTrueHypers":{"a":4,"b":1},"studentGuess":0.8,"delta":0,"totalExamples":5,"bonusSoFar":0.83},{"rt":null,"stimulus":"Sending examples to student... ","response":null,"trial_type":"html-keyboard-response","trial_index":68,"time_elapsed":2374697,"internal_node_id":"0.0-64.0","params":{"nStudents":24,"maxFlips":30,"completionMinutes":45,"basePay":8,"maxBonus":9,"perTrialBonus":0.5,"perTrialBonusThreshold":0.05,"exampleCost":0.01},"classroomParams":{"A":{"a":1,"b":4},"B":{"a":4,"b":1},"C":{"a":2,"b":8},"D":{"a":8,"b":2}},"conditions":["nonSeqFull","nonSeqPartial","seqNoFeedback","seqFeedback"],"classroomPairings":[["A","B"],["C","D"]],"coinWeights":[0.2,0.5,0.8],"subjectId":"A1969Q0R4Y0E3J","assignmentId":"3TEM0PF1Q6J5DBI5ARSD4Z9TIRDD0Z","hitId":"3AQN9REUTF20OMGWRXYK787QVFOYDP","url":"https://gershmanlab.com/experiments/alicia/teaching/experiment/?hitId=3AQN9REUTF20OMGWRXYK787QVFOYDP&workerId=A1969Q0R4Y0E3J&assignmentId=3TEM0PF1Q6J5DBI5ARSD4Z9TIRDD0Z&a=10ET9&tp_a=10ET9&b=3TEM0PF1Q6J5DBI5ARSD4Z9TIRDD0Z&tp_b=3TEM0PF1Q6J5DBI5ARSD4Z9TIRDD0Z&c=365799&tp_c=365799"},{"rt":null,"stimulus":"Examples sent to student! Waiting for student...","response":null,"trial_type":"html-keyboard-response","trial_index":69,"time_elapsed":2380212,"internal_node_id":"0.0-65.0","params":{"nStudents":24,"maxFlips":30,"completionMinutes":45,"basePay":8,"maxBonus":9,"perTrialBonus":0.5,"perTrialBonusThreshold":0.05,"exampleCost":0.01},"classroomParams":{"A":{"a":1,"b":4},"B":{"a":4,"b":1},"C":{"a":2,"b":8},"D":{"a":8,"b":2}},"conditions":["nonSeqFull","nonSeqPartial","seqNoFeedback","seqFeedback"],"classroomPairings":[["A","B"],["C","D"]],"coinWeights":[0.2,0.5,0.8],"subjectId":"A1969Q0R4Y0E3J","assignmentId":"3TEM0PF1Q6J5DBI5ARSD4Z9TIRDD0Z","hitId":"3AQN9REUTF20OMGWRXYK787QVFOYDP","url":"https://gershmanlab.com/experiments/alicia/teaching/experiment/?hitId=3AQN9REUTF20OMGWRXYK787QVFOYDP&workerId=A1969Q0R4Y0E3J&assignmentId=3TEM0PF1Q6J5DBI5ARSD4Z9TIRDD0Z&a=10ET9&tp_a=10ET9&b=3TEM0PF1Q6J5DBI5ARSD4Z9TIRDD0Z&tp_b=3TEM0PF1Q6J5DBI5ARSD4Z9TIRDD0Z&c=365799&tp_c=365799"},{"rt":2166,"stimulus":"\n                <p>Student's guess for coin weight: <b style=\"color:Tomato;\">0.80</b></p>\n                <p></b></p>\n                <p>You will now send another set of examples to your student. <b>Remember to take your student's guess into consideration so that you can earn the highest bonus possible!</b> </p>\n                <p>Press any key to continue.</p>\n                ","response":" ","trial_type":"html-keyboard-response","trial_index":70,"time_elapsed":2382381,"internal_node_id":"0.0-66.0","params":{"nStudents":24,"maxFlips":30,"completionMinutes":45,"basePay":8,"maxBonus":9,"perTrialBonus":0.5,"perTrialBonusThreshold":0.05,"exampleCost":0.01},"classroomParams":{"A":{"a":1,"b":4},"B":{"a":4,"b":1},"C":{"a":2,"b":8},"D":{"a":8,"b":2}},"conditions":["nonSeqFull","nonSeqPartial","seqNoFeedback","seqFeedback"],"classroomPairings":[["A","B"],["C","D"]],"coinWeights":[0.2,0.5,0.8],"subjectId":"A1969Q0R4Y0E3J","assignmentId":"3TEM0PF1Q6J5DBI5ARSD4Z9TIRDD0Z","hitId":"3AQN9REUTF20OMGWRXYK787QVFOYDP","url":"https://gershmanlab.com/experiments/alicia/teaching/experiment/?hitId=3AQN9REUTF20OMGWRXYK787QVFOYDP&workerId=A1969Q0R4Y0E3J&assignmentId=3TEM0PF1Q6J5DBI5ARSD4Z9TIRDD0Z&a=10ET9&tp_a=10ET9&b=3TEM0PF1Q6J5DBI5ARSD4Z9TIRDD0Z&tp_b=3TEM0PF1Q6J5DBI5ARSD4Z9TIRDD0Z&c=365799&tp_c=365799"},{"rt":16677,"response":{"heads":"4","tails":"1"},"type":"response","condition":"seqFeedback","trueTheta":0.8,"classrooms":["A","B"],"studentTrueClassroom":"B","exampleSet":"second","trial_type":"survey-html-form","trial_index":71,"time_elapsed":2399063,"internal_node_id":"0.0-67.0-0.0","params":{"nStudents":24,"maxFlips":30,"completionMinutes":45,"basePay":8,"maxBonus":9,"perTrialBonus":0.5,"perTrialBonusThreshold":0.05,"exampleCost":0.01},"classroomParams":{"A":{"a":1,"b":4},"B":{"a":4,"b":1},"C":{"a":2,"b":8},"D":{"a":8,"b":2}},"conditions":["nonSeqFull","nonSeqPartial","seqNoFeedback","seqFeedback"],"classroomPairings":[["A","B"],["C","D"]],"coinWeights":[0.2,0.5,0.8],"subjectId":"A1969Q0R4Y0E3J","assignmentId":"3TEM0PF1Q6J5DBI5ARSD4Z9TIRDD0Z","hitId":"3AQN9REUTF20OMGWRXYK787QVFOYDP","url":"https://gershmanlab.com/experiments/alicia/teaching/experiment/?hitId=3AQN9REUTF20OMGWRXYK787QVFOYDP&workerId=A1969Q0R4Y0E3J&assignmentId=3TEM0PF1Q6J5DBI5ARSD4Z9TIRDD0Z&a=10ET9&tp_a=10ET9&b=3TEM0PF1Q6J5DBI5ARSD4Z9TIRDD0Z&tp_b=3TEM0PF1Q6J5DBI5ARSD4Z9TIRDD0Z&c=365799&tp_c=365799","firstResponseHeads":4,"firstResponseTails":1,"secondResponseHeads":4,"secondResponseTails":1,"totalHeads":8,"totalTails":2,"studentIndex":7,"studentTrueHypers":{"a":4,"b":1},"studentGuess":0.8,"delta":0,"bonus":0.4,"bonusSoFar":1.23,"totalExamples":10},{"rt":null,"stimulus":"Sending examples to student... ","response":null,"trial_type":"html-keyboard-response","trial_index":72,"time_elapsed":2401065,"internal_node_id":"0.0-68.0","params":{"nStudents":24,"maxFlips":30,"completionMinutes":45,"basePay":8,"maxBonus":9,"perTrialBonus":0.5,"perTrialBonusThreshold":0.05,"exampleCost":0.01},"classroomParams":{"A":{"a":1,"b":4},"B":{"a":4,"b":1},"C":{"a":2,"b":8},"D":{"a":8,"b":2}},"conditions":["nonSeqFull","nonSeqPartial","seqNoFeedback","seqFeedback"],"classroomPairings":[["A","B"],["C","D"]],"coinWeights":[0.2,0.5,0.8],"subjectId":"A1969Q0R4Y0E3J","assignmentId":"3TEM0PF1Q6J5DBI5ARSD4Z9TIRDD0Z","hitId":"3AQN9REUTF20OMGWRXYK787QVFOYDP","url":"https://gershmanlab.com/experiments/alicia/teaching/experiment/?hitId=3AQN9REUTF20OMGWRXYK787QVFOYDP&workerId=A1969Q0R4Y0E3J&assignmentId=3TEM0PF1Q6J5DBI5ARSD4Z9TIRDD0Z&a=10ET9&tp_a=10ET9&b=3TEM0PF1Q6J5DBI5ARSD4Z9TIRDD0Z&tp_b=3TEM0PF1Q6J5DBI5ARSD4Z9TIRDD0Z&c=365799&tp_c=365799"},{"rt":null,"stimulus":"Examples sent to student! Waiting for student...","response":null,"trial_type":"html-keyboard-response","trial_index":73,"time_elapsed":2405070,"internal_node_id":"0.0-69.0","params":{"nStudents":24,"maxFlips":30,"completionMinutes":45,"basePay":8,"maxBonus":9,"perTrialBonus":0.5,"perTrialBonusThreshold":0.05,"exampleCost":0.01},"classroomParams":{"A":{"a":1,"b":4},"B":{"a":4,"b":1},"C":{"a":2,"b":8},"D":{"a":8,"b":2}},"conditions":["nonSeqFull","nonSeqPartial","seqNoFeedback","seqFeedback"],"classroomPairings":[["A","B"],["C","D"]],"coinWeights":[0.2,0.5,0.8],"subjectId":"A1969Q0R4Y0E3J","assignmentId":"3TEM0PF1Q6J5DBI5ARSD4Z9TIRDD0Z","hitId":"3AQN9REUTF20OMGWRXYK787QVFOYDP","url":"https://gershmanlab.com/experiments/alicia/teaching/experiment/?hitId=3AQN9REUTF20OMGWRXYK787QVFOYDP&workerId=A1969Q0R4Y0E3J&assignmentId=3TEM0PF1Q6J5DBI5ARSD4Z9TIRDD0Z&a=10ET9&tp_a=10ET9&b=3TEM0PF1Q6J5DBI5ARSD4Z9TIRDD0Z&tp_b=3TEM0PF1Q6J5DBI5ARSD4Z9TIRDD0Z&c=365799&tp_c=365799"},{"rt":4415,"stimulus":"\n                <p>Student 8's first guess for coin weight: <b style=\"color:Tomato\";>0.80</b></p>\n                <p>Student 8's second guess for coin weight: <b style=\"color:Tomato\";>0.80</b></p>\n                <p>You received a bonus of <b>$0.40</b> based on the student's second guess.</p>\n                <p>Total bonus so far: <b>$1.23</b></p>\n                <p>Press any key to continue.</p>\n                ","response":"c","trial_type":"html-keyboard-response","trial_index":74,"time_elapsed":2409488,"internal_node_id":"0.0-70.0","params":{"nStudents":24,"maxFlips":30,"completionMinutes":45,"basePay":8,"maxBonus":9,"perTrialBonus":0.5,"perTrialBonusThreshold":0.05,"exampleCost":0.01},"classroomParams":{"A":{"a":1,"b":4},"B":{"a":4,"b":1},"C":{"a":2,"b":8},"D":{"a":8,"b":2}},"conditions":["nonSeqFull","nonSeqPartial","seqNoFeedback","seqFeedback"],"classroomPairings":[["A","B"],["C","D"]],"coinWeights":[0.2,0.5,0.8],"subjectId":"A1969Q0R4Y0E3J","assignmentId":"3TEM0PF1Q6J5DBI5ARSD4Z9TIRDD0Z","hitId":"3AQN9REUTF20OMGWRXYK787QVFOYDP","url":"https://gershmanlab.com/experiments/alicia/teaching/experiment/?hitId=3AQN9REUTF20OMGWRXYK787QVFOYDP&workerId=A1969Q0R4Y0E3J&assignmentId=3TEM0PF1Q6J5DBI5ARSD4Z9TIRDD0Z&a=10ET9&tp_a=10ET9&b=3TEM0PF1Q6J5DBI5ARSD4Z9TIRDD0Z&tp_b=3TEM0PF1Q6J5DBI5ARSD4Z9TIRDD0Z&c=365799&tp_c=365799"},{"rt":null,"stimulus":"<div style=\"font-size:60px;\">Next student</div>","response":null,"trial_type":"html-keyboard-response","trial_index":75,"time_elapsed":2411998,"internal_node_id":"0.0-71.0-0.0","params":{"nStudents":24,"maxFlips":30,"completionMinutes":45,"basePay":8,"maxBonus":9,"perTrialBonus":0.5,"perTrialBonusThreshold":0.05,"exampleCost":0.01},"classroomParams":{"A":{"a":1,"b":4},"B":{"a":4,"b":1},"C":{"a":2,"b":8},"D":{"a":8,"b":2}},"conditions":["nonSeqFull","nonSeqPartial","seqNoFeedback","seqFeedback"],"classroomPairings":[["A","B"],["C","D"]],"coinWeights":[0.2,0.5,0.8],"subjectId":"A1969Q0R4Y0E3J","assignmentId":"3TEM0PF1Q6J5DBI5ARSD4Z9TIRDD0Z","hitId":"3AQN9REUTF20OMGWRXYK787QVFOYDP","url":"https://gershmanlab.com/experiments/alicia/teaching/experiment/?hitId=3AQN9REUTF20OMGWRXYK787QVFOYDP&workerId=A1969Q0R4Y0E3J&assignmentId=3TEM0PF1Q6J5DBI5ARSD4Z9TIRDD0Z&a=10ET9&tp_a=10ET9&b=3TEM0PF1Q6J5DBI5ARSD4Z9TIRDD0Z&tp_b=3TEM0PF1Q6J5DBI5ARSD4Z9TIRDD0Z&c=365799&tp_c=365799"},{"rt":3361,"stimulus":"\n            <h4 style=\"color:Orange;\">Student 9</h4>\n            <h2>The weight of your coin is <b style=\"color:Tomato;\">0.5</b>.</h2>\n            <p>In this block, you will be giving <b>two</b> sets of examples to Student 9.</p>\n                <p>You will receive feedback at the end of the block.</p>\n            <p></p>","response":0,"trial_type":"html-button-response","trial_index":76,"time_elapsed":2415363,"internal_node_id":"0.0-72.0","params":{"nStudents":24,"maxFlips":30,"completionMinutes":45,"basePay":8,"maxBonus":9,"perTrialBonus":0.5,"perTrialBonusThreshold":0.05,"exampleCost":0.01},"classroomParams":{"A":{"a":1,"b":4},"B":{"a":4,"b":1},"C":{"a":2,"b":8},"D":{"a":8,"b":2}},"conditions":["nonSeqFull","nonSeqPartial","seqNoFeedback","seqFeedback"],"classroomPairings":[["A","B"],["C","D"]],"coinWeights":[0.2,0.5,0.8],"subjectId":"A1969Q0R4Y0E3J","assignmentId":"3TEM0PF1Q6J5DBI5ARSD4Z9TIRDD0Z","hitId":"3AQN9REUTF20OMGWRXYK787QVFOYDP","url":"https://gershmanlab.com/experiments/alicia/teaching/experiment/?hitId=3AQN9REUTF20OMGWRXYK787QVFOYDP&workerId=A1969Q0R4Y0E3J&assignmentId=3TEM0PF1Q6J5DBI5ARSD4Z9TIRDD0Z&a=10ET9&tp_a=10ET9&b=3TEM0PF1Q6J5DBI5ARSD4Z9TIRDD0Z&tp_b=3TEM0PF1Q6J5DBI5ARSD4Z9TIRDD0Z&c=365799&tp_c=365799"},{"rt":6518,"response":{"heads":"2","tails":"2"},"type":"response","condition":"seqNoFeedback","trueTheta":0.5,"classrooms":["A","B"],"studentTrueClassroom":"B","exampleSet":"first","trial_type":"survey-html-form","trial_index":77,"time_elapsed":2421885,"internal_node_id":"0.0-73.0-0.0","params":{"nStudents":24,"maxFlips":30,"completionMinutes":45,"basePay":8,"maxBonus":9,"perTrialBonus":0.5,"perTrialBonusThreshold":0.05,"exampleCost":0.01},"classroomParams":{"A":{"a":1,"b":4},"B":{"a":4,"b":1},"C":{"a":2,"b":8},"D":{"a":8,"b":2}},"conditions":["nonSeqFull","nonSeqPartial","seqNoFeedback","seqFeedback"],"classroomPairings":[["A","B"],["C","D"]],"coinWeights":[0.2,0.5,0.8],"subjectId":"A1969Q0R4Y0E3J","assignmentId":"3TEM0PF1Q6J5DBI5ARSD4Z9TIRDD0Z","hitId":"3AQN9REUTF20OMGWRXYK787QVFOYDP","url":"https://gershmanlab.com/experiments/alicia/teaching/experiment/?hitId=3AQN9REUTF20OMGWRXYK787QVFOYDP&workerId=A1969Q0R4Y0E3J&assignmentId=3TEM0PF1Q6J5DBI5ARSD4Z9TIRDD0Z&a=10ET9&tp_a=10ET9&b=3TEM0PF1Q6J5DBI5ARSD4Z9TIRDD0Z&tp_b=3TEM0PF1Q6J5DBI5ARSD4Z9TIRDD0Z&c=365799&tp_c=365799","heads":2,"tails":2,"studentIndex":8,"studentTrueHypers":{"a":4,"b":1},"studentGuess":0.6666666666666666,"delta":0.16666666666666663,"totalExamples":4,"bonusSoFar":1.23},{"rt":null,"stimulus":"Sending examples to student... ","response":null,"trial_type":"html-keyboard-response","trial_index":78,"time_elapsed":2423642,"internal_node_id":"0.0-74.0","params":{"nStudents":24,"maxFlips":30,"completionMinutes":45,"basePay":8,"maxBonus":9,"perTrialBonus":0.5,"perTrialBonusThreshold":0.05,"exampleCost":0.01},"classroomParams":{"A":{"a":1,"b":4},"B":{"a":4,"b":1},"C":{"a":2,"b":8},"D":{"a":8,"b":2}},"conditions":["nonSeqFull","nonSeqPartial","seqNoFeedback","seqFeedback"],"classroomPairings":[["A","B"],["C","D"]],"coinWeights":[0.2,0.5,0.8],"subjectId":"A1969Q0R4Y0E3J","assignmentId":"3TEM0PF1Q6J5DBI5ARSD4Z9TIRDD0Z","hitId":"3AQN9REUTF20OMGWRXYK787QVFOYDP","url":"https://gershmanlab.com/experiments/alicia/teaching/experiment/?hitId=3AQN9REUTF20OMGWRXYK787QVFOYDP&workerId=A1969Q0R4Y0E3J&assignmentId=3TEM0PF1Q6J5DBI5ARSD4Z9TIRDD0Z&a=10ET9&tp_a=10ET9&b=3TEM0PF1Q6J5DBI5ARSD4Z9TIRDD0Z&tp_b=3TEM0PF1Q6J5DBI5ARSD4Z9TIRDD0Z&c=365799&tp_c=365799"},{"rt":null,"stimulus":"Examples sent to student! Waiting for student...","response":null,"trial_type":"html-keyboard-response","trial_index":79,"time_elapsed":2428146,"internal_node_id":"0.0-75.0","params":{"nStudents":24,"maxFlips":30,"completionMinutes":45,"basePay":8,"maxBonus":9,"perTrialBonus":0.5,"perTrialBonusThreshold":0.05,"exampleCost":0.01},"classroomParams":{"A":{"a":1,"b":4},"B":{"a":4,"b":1},"C":{"a":2,"b":8},"D":{"a":8,"b":2}},"conditions":["nonSeqFull","nonSeqPartial","seqNoFeedback","seqFeedback"],"classroomPairings":[["A","B"],["C","D"]],"coinWeights":[0.2,0.5,0.8],"subjectId":"A1969Q0R4Y0E3J","assignmentId":"3TEM0PF1Q6J5DBI5ARSD4Z9TIRDD0Z","hitId":"3AQN9REUTF20OMGWRXYK787QVFOYDP","url":"https://gershmanlab.com/experiments/alicia/teaching/experiment/?hitId=3AQN9REUTF20OMGWRXYK787QVFOYDP&workerId=A1969Q0R4Y0E3J&assignmentId=3TEM0PF1Q6J5DBI5ARSD4Z9TIRDD0Z&a=10ET9&tp_a=10ET9&b=3TEM0PF1Q6J5DBI5ARSD4Z9TIRDD0Z&tp_b=3TEM0PF1Q6J5DBI5ARSD4Z9TIRDD0Z&c=365799&tp_c=365799"},{"rt":4777,"response":{"heads":"2","tails":"2"},"type":"response","condition":"seqNoFeedback","trueTheta":0.5,"classrooms":["A","B"],"studentTrueClassroom":"B","exampleSet":"second","trial_type":"survey-html-form","trial_index":80,"time_elapsed":2432927,"internal_node_id":"0.0-76.0-0.0","params":{"nStudents":24,"maxFlips":30,"completionMinutes":45,"basePay":8,"maxBonus":9,"perTrialBonus":0.5,"perTrialBonusThreshold":0.05,"exampleCost":0.01},"classroomParams":{"A":{"a":1,"b":4},"B":{"a":4,"b":1},"C":{"a":2,"b":8},"D":{"a":8,"b":2}},"conditions":["nonSeqFull","nonSeqPartial","seqNoFeedback","seqFeedback"],"classroomPairings":[["A","B"],["C","D"]],"coinWeights":[0.2,0.5,0.8],"subjectId":"A1969Q0R4Y0E3J","assignmentId":"3TEM0PF1Q6J5DBI5ARSD4Z9TIRDD0Z","hitId":"3AQN9REUTF20OMGWRXYK787QVFOYDP","url":"https://gershmanlab.com/experiments/alicia/teaching/experiment/?hitId=3AQN9REUTF20OMGWRXYK787QVFOYDP&workerId=A1969Q0R4Y0E3J&assignmentId=3TEM0PF1Q6J5DBI5ARSD4Z9TIRDD0Z&a=10ET9&tp_a=10ET9&b=3TEM0PF1Q6J5DBI5ARSD4Z9TIRDD0Z&tp_b=3TEM0PF1Q6J5DBI5ARSD4Z9TIRDD0Z&c=365799&tp_c=365799","firstResponseHeads":2,"firstResponseTails":2,"secondResponseHeads":2,"secondResponseTails":2,"totalHeads":4,"totalTails":4,"studentIndex":8,"studentTrueHypers":{"a":4,"b":1},"studentGuess":0.6153846153846154,"delta":0.11538461538461542,"bonus":0,"bonusSoFar":1.23,"totalExamples":8},{"rt":null,"stimulus":"Sending examples to student... ","response":null,"trial_type":"html-keyboard-response","trial_index":81,"time_elapsed":2434434,"internal_node_id":"0.0-77.0","params":{"nStudents":24,"maxFlips":30,"completionMinutes":45,"basePay":8,"maxBonus":9,"perTrialBonus":0.5,"perTrialBonusThreshold":0.05,"exampleCost":0.01},"classroomParams":{"A":{"a":1,"b":4},"B":{"a":4,"b":1},"C":{"a":2,"b":8},"D":{"a":8,"b":2}},"conditions":["nonSeqFull","nonSeqPartial","seqNoFeedback","seqFeedback"],"classroomPairings":[["A","B"],["C","D"]],"coinWeights":[0.2,0.5,0.8],"subjectId":"A1969Q0R4Y0E3J","assignmentId":"3TEM0PF1Q6J5DBI5ARSD4Z9TIRDD0Z","hitId":"3AQN9REUTF20OMGWRXYK787QVFOYDP","url":"https://gershmanlab.com/experiments/alicia/teaching/experiment/?hitId=3AQN9REUTF20OMGWRXYK787QVFOYDP&workerId=A1969Q0R4Y0E3J&assignmentId=3TEM0PF1Q6J5DBI5ARSD4Z9TIRDD0Z&a=10ET9&tp_a=10ET9&b=3TEM0PF1Q6J5DBI5ARSD4Z9TIRDD0Z&tp_b=3TEM0PF1Q6J5DBI5ARSD4Z9TIRDD0Z&c=365799&tp_c=365799"},{"rt":null,"stimulus":"Examples sent to student! Waiting for student...","response":null,"trial_type":"html-keyboard-response","trial_index":82,"time_elapsed":2439444,"internal_node_id":"0.0-78.0","params":{"nStudents":24,"maxFlips":30,"completionMinutes":45,"basePay":8,"maxBonus":9,"perTrialBonus":0.5,"perTrialBonusThreshold":0.05,"exampleCost":0.01},"classroomParams":{"A":{"a":1,"b":4},"B":{"a":4,"b":1},"C":{"a":2,"b":8},"D":{"a":8,"b":2}},"conditions":["nonSeqFull","nonSeqPartial","seqNoFeedback","seqFeedback"],"classroomPairings":[["A","B"],["C","D"]],"coinWeights":[0.2,0.5,0.8],"subjectId":"A1969Q0R4Y0E3J","assignmentId":"3TEM0PF1Q6J5DBI5ARSD4Z9TIRDD0Z","hitId":"3AQN9REUTF20OMGWRXYK787QVFOYDP","url":"https://gershmanlab.com/experiments/alicia/teaching/experiment/?hitId=3AQN9REUTF20OMGWRXYK787QVFOYDP&workerId=A1969Q0R4Y0E3J&assignmentId=3TEM0PF1Q6J5DBI5ARSD4Z9TIRDD0Z&a=10ET9&tp_a=10ET9&b=3TEM0PF1Q6J5DBI5ARSD4Z9TIRDD0Z&tp_b=3TEM0PF1Q6J5DBI5ARSD4Z9TIRDD0Z&c=365799&tp_c=365799"},{"rt":3400,"stimulus":"\n                <p>Student 9's first guess for coin weight: <b style=\"color:Tomato\";>0.67</b></p>\n                <p>Student 9's second guess for coin weight: <b style=\"color:Tomato\";>0.62</b></p>\n                <p>You received a bonus of <b>$0.00</b> based on the student's second guess.</p>\n                <p>Total bonus so far: <b>$1.23</b></p>\n                <p>Press any key to continue.</p>\n                ","response":"c","trial_type":"html-keyboard-response","trial_index":83,"time_elapsed":2442846,"internal_node_id":"0.0-79.0","params":{"nStudents":24,"maxFlips":30,"completionMinutes":45,"basePay":8,"maxBonus":9,"perTrialBonus":0.5,"perTrialBonusThreshold":0.05,"exampleCost":0.01},"classroomParams":{"A":{"a":1,"b":4},"B":{"a":4,"b":1},"C":{"a":2,"b":8},"D":{"a":8,"b":2}},"conditions":["nonSeqFull","nonSeqPartial","seqNoFeedback","seqFeedback"],"classroomPairings":[["A","B"],["C","D"]],"coinWeights":[0.2,0.5,0.8],"subjectId":"A1969Q0R4Y0E3J","assignmentId":"3TEM0PF1Q6J5DBI5ARSD4Z9TIRDD0Z","hitId":"3AQN9REUTF20OMGWRXYK787QVFOYDP","url":"https://gershmanlab.com/experiments/alicia/teaching/experiment/?hitId=3AQN9REUTF20OMGWRXYK787QVFOYDP&workerId=A1969Q0R4Y0E3J&assignmentId=3TEM0PF1Q6J5DBI5ARSD4Z9TIRDD0Z&a=10ET9&tp_a=10ET9&b=3TEM0PF1Q6J5DBI5ARSD4Z9TIRDD0Z&tp_b=3TEM0PF1Q6J5DBI5ARSD4Z9TIRDD0Z&c=365799&tp_c=365799"},{"rt":null,"stimulus":"<div style=\"font-size:60px;\">Next student</div>","response":null,"trial_type":"html-keyboard-response","trial_index":84,"time_elapsed":2445854,"internal_node_id":"0.0-80.0-0.0","params":{"nStudents":24,"maxFlips":30,"completionMinutes":45,"basePay":8,"maxBonus":9,"perTrialBonus":0.5,"perTrialBonusThreshold":0.05,"exampleCost":0.01},"classroomParams":{"A":{"a":1,"b":4},"B":{"a":4,"b":1},"C":{"a":2,"b":8},"D":{"a":8,"b":2}},"conditions":["nonSeqFull","nonSeqPartial","seqNoFeedback","seqFeedback"],"classroomPairings":[["A","B"],["C"