[{"rt":12092,"stimulus":"Welcome to the experiment. Press any key to begin.","response":"h","trial_type":"html-keyboard-response","trial_index":0,"time_elapsed":12098,"internal_node_id":"0.0-0.0","params":{"nStudents":24,"maxFlips":30,"completionMinutes":45,"basePay":8,"maxBonus":9,"perTrialBonus":0.5,"perTrialBonusThreshold":0.05,"exampleCost":0.01},"classroomParams":{"A":{"a":1,"b":4},"B":{"a":4,"b":1},"C":{"a":2,"b":8},"D":{"a":8,"b":2}},"conditions":["nonSeqFull","nonSeqPartial","seqNoFeedback","seqFeedback"],"classroomPairings":[["A","B"],["C","D"]],"coinWeights":[0.2,0.5,0.8],"subjectId":"A19ZWBQT8A3LIR","assignmentId":"3TVSS0C0E2M52QFNPOLDGY0JMIHWT4","hitId":"3SD15I2WD2G0NA4TSPXGB81L5S7630","url":"https://gershmanlab.com/experiments/alicia/teaching/experiment/?hitId=3SD15I2WD2G0NA4TSPXGB81L5S7630&workerId=A19ZWBQT8A3LIR&assignmentId=3TVSS0C0E2M52QFNPOLDGY0JMIHWT4&a=0SVT9&tp_a=0SVT9&b=3TVSS0C0E2M52QFNPOLDGY0JMIHWT4&tp_b=3TVSS0C0E2M52QFNPOLDGY0JMIHWT4&c=365799&tp_c=365799"},{"rt":7447,"stimulus":"\n        <h3>Please read this consent agreement carefully before deciding whether to participate in this experiment.</h3>\n        <p><b>Purpose of the research:</b> To examine how people teach effectively.</p>\n        <p><b>What you will do in this research:</b> You will teach students the weights of different coins.</p>\n        <p><b>Time required:</b> This experiment will take 45 minutes to complete.</p>\n        <p><b>Risks:</b> There are no anticipated risks associated with participating in this study.             The effects of participating should be comparable to those you would experience from viewing a computer monitor             and using a mouse and keyboard for the duration of the experiment.</p>\n        <p><b>Benefits:</b> The study provides important information about the nature of teaching.</p>\n        <p><b>Compensation:</b> You will receive <b>$8</b> for completing the experiment and a performance bonus of up to <b>$9</b>.</p>\n        <p><b>Confidentiality:</b> Your participation in this study will remain confidential.             No personally identifiable information will be associated with your data.             Your de-identified data may be shared with other researchers and used in future projects.</p>\n        <p><b>Participation and withdrawal:</b> Your participation in this study is completely voluntary and             you may refuse to participate or you may choose to withdraw at any time without penalty or loss of\n            benefits to which you are otherwise entitled.</p>\n        <p><b>How to contact the researcher:</b> If you have questions or concerns about your participation            or payment, or want to request a summary of research findings, please contact\n            Alicia Chen, aliciachen@college.harvard.edu.</p>\n        <p><b>Whom to contact about your rights in this research:</b> For questions, concerns, suggestions,             or complaints that have not been or cannot be addressed by the researcher, or to report             research-related harm, please contact the Committee on the Use of Human Subjects in Research at Harvard University,             1414 Massachusetts Avenue, Second Floor, Cambridge, MA 02138. Phone: 617-496-2847. Email: cuhs@fas.harvard.edu.</p>\n        ","response":0,"trial_type":"html-button-response","trial_index":1,"time_elapsed":19547,"internal_node_id":"0.0-1.0","params":{"nStudents":24,"maxFlips":30,"completionMinutes":45,"basePay":8,"maxBonus":9,"perTrialBonus":0.5,"perTrialBonusThreshold":0.05,"exampleCost":0.01},"classroomParams":{"A":{"a":1,"b":4},"B":{"a":4,"b":1},"C":{"a":2,"b":8},"D":{"a":8,"b":2}},"conditions":["nonSeqFull","nonSeqPartial","seqNoFeedback","seqFeedback"],"classroomPairings":[["A","B"],["C","D"]],"coinWeights":[0.2,0.5,0.8],"subjectId":"A19ZWBQT8A3LIR","assignmentId":"3TVSS0C0E2M52QFNPOLDGY0JMIHWT4","hitId":"3SD15I2WD2G0NA4TSPXGB81L5S7630","url":"https://gershmanlab.com/experiments/alicia/teaching/experiment/?hitId=3SD15I2WD2G0NA4TSPXGB81L5S7630&workerId=A19ZWBQT8A3LIR&assignmentId=3TVSS0C0E2M52QFNPOLDGY0JMIHWT4&a=0SVT9&tp_a=0SVT9&b=3TVSS0C0E2M52QFNPOLDGY0JMIHWT4&tp_b=3TVSS0C0E2M52QFNPOLDGY0JMIHWT4&c=365799&tp_c=365799"},{"view_history":[{"page_index":0,"viewing_time":5905},{"page_index":1,"viewing_time":3494},{"page_index":2,"viewing_time":26476},{"page_index":3,"viewing_time":20730},{"page_index":4,"viewing_time":9856},{"page_index":5,"viewing_time":13948},{"page_index":6,"viewing_time":33676}],"rt":114086,"trial_type":"instructions","trial_index":2,"time_elapsed":133630,"internal_node_id":"0.0-2.0-0.0","params":{"nStudents":24,"maxFlips":30,"completionMinutes":45,"basePay":8,"maxBonus":9,"perTrialBonus":0.5,"perTrialBonusThreshold":0.05,"exampleCost":0.01},"classroomParams":{"A":{"a":1,"b":4},"B":{"a":4,"b":1},"C":{"a":2,"b":8},"D":{"a":8,"b":2}},"conditions":["nonSeqFull","nonSeqPartial","seqNoFeedback","seqFeedback"],"classroomPairings":[["A","B"],["C","D"]],"coinWeights":[0.2,0.5,0.8],"subjectId":"A19ZWBQT8A3LIR","assignmentId":"3TVSS0C0E2M52QFNPOLDGY0JMIHWT4","hitId":"3SD15I2WD2G0NA4TSPXGB81L5S7630","url":"https://gershmanlab.com/experiments/alicia/teaching/experiment/?hitId=3SD15I2WD2G0NA4TSPXGB81L5S7630&workerId=A19ZWBQT8A3LIR&assignmentId=3TVSS0C0E2M52QFNPOLDGY0JMIHWT4&a=0SVT9&tp_a=0SVT9&b=3TVSS0C0E2M52QFNPOLDGY0JMIHWT4&tp_b=3TVSS0C0E2M52QFNPOLDGY0JMIHWT4&c=365799&tp_c=365799"},{"rt":28047,"response":{"Q0":"Students in different classrooms will have seen a different number of heads and tails before seeing the examples you select for them.","Q1":"By <b>considering the student's classroom information</b> so that I can teach efficiently and accurately/helpfully at the same time (because each example I give to the student costs money!).","Q2":"The coin lands heads 90% of the time.","Q3":"No, I will teach a <b>new</b> student each time.","Q4":"The students are also on the same alien planet as you, where coins can be unfair.","Q5":"Based on both guesses."},"question_order":[1,3,4,2,0,5],"trial_type":"survey-multi-choice","trial_index":3,"time_elapsed":161682,"internal_node_id":"0.0-2.0-1.0","params":{"nStudents":24,"maxFlips":30,"completionMinutes":45,"basePay":8,"maxBonus":9,"perTrialBonus":0.5,"perTrialBonusThreshold":0.05,"exampleCost":0.01},"classroomParams":{"A":{"a":1,"b":4},"B":{"a":4,"b":1},"C":{"a":2,"b":8},"D":{"a":8,"b":2}},"conditions":["nonSeqFull","nonSeqPartial","seqNoFeedback","seqFeedback"],"classroomPairings":[["A","B"],["C","D"]],"coinWeights":[0.2,0.5,0.8],"subjectId":"A19ZWBQT8A3LIR","assignmentId":"3TVSS0C0E2M52QFNPOLDGY0JMIHWT4","hitId":"3SD15I2WD2G0NA4TSPXGB81L5S7630","url":"https://gershmanlab.com/experiments/alicia/teaching/experiment/?hitId=3SD15I2WD2G0NA4TSPXGB81L5S7630&workerId=A19ZWBQT8A3LIR&assignmentId=3TVSS0C0E2M52QFNPOLDGY0JMIHWT4&a=0SVT9&tp_a=0SVT9&b=3TVSS0C0E2M52QFNPOLDGY0JMIHWT4&tp_b=3TVSS0C0E2M52QFNPOLDGY0JMIHWT4&c=365799&tp_c=365799","pass":false},{"rt":2732,"stimulus":"Oops, you have missed question(s) on the comprehension check! We'll show you the instructions again.","response":0,"trial_type":"html-button-response","trial_index":4,"time_elapsed":164423,"internal_node_id":"0.0-2.0-2.0-0.0","params":{"nStudents":24,"maxFlips":30,"completionMinutes":45,"basePay":8,"maxBonus":9,"perTrialBonus":0.5,"perTrialBonusThreshold":0.05,"exampleCost":0.01},"classroomParams":{"A":{"a":1,"b":4},"B":{"a":4,"b":1},"C":{"a":2,"b":8},"D":{"a":8,"b":2}},"conditions":["nonSeqFull","nonSeqPartial","seqNoFeedback","seqFeedback"],"classroomPairings":[["A","B"],["C","D"]],"coinWeights":[0.2,0.5,0.8],"subjectId":"A19ZWBQT8A3LIR","assignmentId":"3TVSS0C0E2M52QFNPOLDGY0JMIHWT4","hitId":"3SD15I2WD2G0NA4TSPXGB81L5S7630","url":"https://gershmanlab.com/experiments/alicia/teaching/experiment/?hitId=3SD15I2WD2G0NA4TSPXGB81L5S7630&workerId=A19ZWBQT8A3LIR&assignmentId=3TVSS0C0E2M52QFNPOLDGY0JMIHWT4&a=0SVT9&tp_a=0SVT9&b=3TVSS0C0E2M52QFNPOLDGY0JMIHWT4&tp_b=3TVSS0C0E2M52QFNPOLDGY0JMIHWT4&c=365799&tp_c=365799"},{"view_history":[{"page_index":0,"viewing_time":1501},{"page_index":1,"viewing_time":810},{"page_index":2,"viewing_time":3046},{"page_index":3,"viewing_time":1305},{"page_index":4,"viewing_time":1575},{"page_index":5,"viewing_time":1096},{"page_index":6,"viewing_time":1185}],"rt":10517,"trial_type":"instructions","trial_index":5,"time_elapsed":174940,"internal_node_id":"0.0-2.1-0.1","params":{"nStudents":24,"maxFlips":30,"completionMinutes":45,"basePay":8,"maxBonus":9,"perTrialBonus":0.5,"perTrialBonusThreshold":0.05,"exampleCost":0.01},"classroomParams":{"A":{"a":1,"b":4},"B":{"a":4,"b":1},"C":{"a":2,"b":8},"D":{"a":8,"b":2}},"conditions":["nonSeqFull","nonSeqPartial","seqNoFeedback","seqFeedback"],"classroomPairings":[["A","B"],["C","D"]],"coinWeights":[0.2,0.5,0.8],"subjectId":"A19ZWBQT8A3LIR","assignmentId":"3TVSS0C0E2M52QFNPOLDGY0JMIHWT4","hitId":"3SD15I2WD2G0NA4TSPXGB81L5S7630","url":"https://gershmanlab.com/experiments/alicia/teaching/experiment/?hitId=3SD15I2WD2G0NA4TSPXGB81L5S7630&workerId=A19ZWBQT8A3LIR&assignmentId=3TVSS0C0E2M52QFNPOLDGY0JMIHWT4&a=0SVT9&tp_a=0SVT9&b=3TVSS0C0E2M52QFNPOLDGY0JMIHWT4&tp_b=3TVSS0C0E2M52QFNPOLDGY0JMIHWT4&c=365799&tp_c=365799"},{"rt":44099,"response":{"Q0":"Students in different classrooms have seen a different proportion of fair and unfair coins before seeing the examples you select for them.","Q1":"By <b>considering the student's classroom information</b> so that I can teach efficiently and accurately/helpfully at the same time (because each example I give to the student costs money!).","Q2":"The coin lands heads 90% of the time.","Q3":"No, I will teach a <b>new</b> student each time.","Q4":"The students are also on the same alien planet as you, where coins can be unfair.","Q5":"Based on both guesses."},"question_order":[1,4,2,5,3,0],"trial_type":"survey-multi-choice","trial_index":6,"time_elapsed":219039,"internal_node_id":"0.0-2.1-1.1","params":{"nStudents":24,"maxFlips":30,"completionMinutes":45,"basePay":8,"maxBonus":9,"perTrialBonus":0.5,"perTrialBonusThreshold":0.05,"exampleCost":0.01},"classroomParams":{"A":{"a":1,"b":4},"B":{"a":4,"b":1},"C":{"a":2,"b":8},"D":{"a":8,"b":2}},"conditions":["nonSeqFull","nonSeqPartial","seqNoFeedback","seqFeedback"],"classroomPairings":[["A","B"],["C","D"]],"coinWeights":[0.2,0.5,0.8],"subjectId":"A19ZWBQT8A3LIR","assignmentId":"3TVSS0C0E2M52QFNPOLDGY0JMIHWT4","hitId":"3SD15I2WD2G0NA4TSPXGB81L5S7630","url":"https://gershmanlab.com/experiments/alicia/teaching/experiment/?hitId=3SD15I2WD2G0NA4TSPXGB81L5S7630&workerId=A19ZWBQT8A3LIR&assignmentId=3TVSS0C0E2M52QFNPOLDGY0JMIHWT4&a=0SVT9&tp_a=0SVT9&b=3TVSS0C0E2M52QFNPOLDGY0JMIHWT4&tp_b=3TVSS0C0E2M52QFNPOLDGY0JMIHWT4&c=365799&tp_c=365799","pass":false},{"rt":1520,"stimulus":"Oops, you have missed question(s) on the comprehension check! We'll show you the instructions again.","response":0,"trial_type":"html-button-response","trial_index":7,"time_elapsed":220569,"internal_node_id":"0.0-2.1-2.1-0.1","params":{"nStudents":24,"maxFlips":30,"completionMinutes":45,"basePay":8,"maxBonus":9,"perTrialBonus":0.5,"perTrialBonusThreshold":0.05,"exampleCost":0.01},"classroomParams":{"A":{"a":1,"b":4},"B":{"a":4,"b":1},"C":{"a":2,"b":8},"D":{"a":8,"b":2}},"conditions":["nonSeqFull","nonSeqPartial","seqNoFeedback","seqFeedback"],"classroomPairings":[["A","B"],["C","D"]],"coinWeights":[0.2,0.5,0.8],"subjectId":"A19ZWBQT8A3LIR","assignmentId":"3TVSS0C0E2M52QFNPOLDGY0JMIHWT4","hitId":"3SD15I2WD2G0NA4TSPXGB81L5S7630","url":"https://gershmanlab.com/experiments/alicia/teaching/experiment/?hitId=3SD15I2WD2G0NA4TSPXGB81L5S7630&workerId=A19ZWBQT8A3LIR&assignmentId=3TVSS0C0E2M52QFNPOLDGY0JMIHWT4&a=0SVT9&tp_a=0SVT9&b=3TVSS0C0E2M52QFNPOLDGY0JMIHWT4&tp_b=3TVSS0C0E2M52QFNPOLDGY0JMIHWT4&c=365799&tp_c=365799"},{"view_history":[{"page_index":0,"viewing_time":1544},{"page_index":1,"viewing_time":2174},{"page_index":2,"viewing_time":8207},{"page_index":3,"viewing_time":4528},{"page_index":4,"viewing_time":5205},{"page_index":5,"viewing_time":17221},{"page_index":6,"viewing_time":10694}],"rt":49575,"trial_type":"instructions","trial_index":8,"time_elapsed":270143,"internal_node_id":"0.0-2.2-0.2","params":{"nStudents":24,"maxFlips":30,"completionMinutes":45,"basePay":8,"maxBonus":9,"perTrialBonus":0.5,"perTrialBonusThreshold":0.05,"exampleCost":0.01},"classroomParams":{"A":{"a":1,"b":4},"B":{"a":4,"b":1},"C":{"a":2,"b":8},"D":{"a":8,"b":2}},"conditions":["nonSeqFull","nonSeqPartial","seqNoFeedback","seqFeedback"],"classroomPairings":[["A","B"],["C","D"]],"coinWeights":[0.2,0.5,0.8],"subjectId":"A19ZWBQT8A3LIR","assignmentId":"3TVSS0C0E2M52QFNPOLDGY0JMIHWT4","hitId":"3SD15I2WD2G0NA4TSPXGB81L5S7630","url":"https://gershmanlab.com/experiments/alicia/teaching/experiment/?hitId=3SD15I2WD2G0NA4TSPXGB81L5S7630&workerId=A19ZWBQT8A3LIR&assignmentId=3TVSS0C0E2M52QFNPOLDGY0JMIHWT4&a=0SVT9&tp_a=0SVT9&b=3TVSS0C0E2M52QFNPOLDGY0JMIHWT4&tp_b=3TVSS0C0E2M52QFNPOLDGY0JMIHWT4&c=365799&tp_c=365799"},{"rt":20024,"response":{"Q0":"Students in different classrooms will have seen a different number of heads and tails before seeing the examples you select for them.","Q1":"By <b>considering the student's classroom information</b> so that I can teach efficiently and accurately/helpfully at the same time (because each example I give to the student costs money!).","Q2":"The coin lands heads 90% of the time.","Q3":"No, I will teach a <b>new</b> student each time.","Q4":"The students are also on the same alien planet as you, where coins can be unfair.","Q5":"Based on the student's second (and final) guess."},"question_order":[5,4,0,1,3,2],"trial_type":"survey-multi-choice","trial_index":9,"time_elapsed":290169,"internal_node_id":"0.0-2.2-1.2","params":{"nStudents":24,"maxFlips":30,"completionMinutes":45,"basePay":8,"maxBonus":9,"perTrialBonus":0.5,"perTrialBonusThreshold":0.05,"exampleCost":0.01},"classroomParams":{"A":{"a":1,"b":4},"B":{"a":4,"b":1},"C":{"a":2,"b":8},"D":{"a":8,"b":2}},"conditions":["nonSeqFull","nonSeqPartial","seqNoFeedback","seqFeedback"],"classroomPairings":[["A","B"],["C","D"]],"coinWeights":[0.2,0.5,0.8],"subjectId":"A19ZWBQT8A3LIR","assignmentId":"3TVSS0C0E2M52QFNPOLDGY0JMIHWT4","hitId":"3SD15I2WD2G0NA4TSPXGB81L5S7630","url":"https://gershmanlab.com/experiments/alicia/teaching/experiment/?hitId=3SD15I2WD2G0NA4TSPXGB81L5S7630&workerId=A19ZWBQT8A3LIR&assignmentId=3TVSS0C0E2M52QFNPOLDGY0JMIHWT4&a=0SVT9&tp_a=0SVT9&b=3TVSS0C0E2M52QFNPOLDGY0JMIHWT4&tp_b=3TVSS0C0E2M52QFNPOLDGY0JMIHWT4&c=365799&tp_c=365799","pass":true},{"rt":null,"stimulus":"<div style=\"font-size:30px;\">Congrats on passing the comprehension quiz! The experiment will begin in a few seconds.</div>","response":null,"trial_type":"html-keyboard-response","trial_index":10,"time_elapsed":293185,"internal_node_id":"0.0-3.0","params":{"nStudents":24,"maxFlips":30,"completionMinutes":45,"basePay":8,"maxBonus":9,"perTrialBonus":0.5,"perTrialBonusThreshold":0.05,"exampleCost":0.01},"classroomParams":{"A":{"a":1,"b":4},"B":{"a":4,"b":1},"C":{"a":2,"b":8},"D":{"a":8,"b":2}},"conditions":["nonSeqFull","nonSeqPartial","seqNoFeedback","seqFeedback"],"classroomPairings":[["A","B"],["C","D"]],"coinWeights":[0.2,0.5,0.8],"subjectId":"A19ZWBQT8A3LIR","assignmentId":"3TVSS0C0E2M52QFNPOLDGY0JMIHWT4","hitId":"3SD15I2WD2G0NA4TSPXGB81L5S7630","url":"https://gershmanlab.com/experiments/alicia/teaching/experiment/?hitId=3SD15I2WD2G0NA4TSPXGB81L5S7630&workerId=A19ZWBQT8A3LIR&assignmentId=3TVSS0C0E2M52QFNPOLDGY0JMIHWT4&a=0SVT9&tp_a=0SVT9&b=3TVSS0C0E2M52QFNPOLDGY0JMIHWT4&tp_b=3TVSS0C0E2M52QFNPOLDGY0JMIHWT4&c=365799&tp_c=365799"},{"rt":null,"stimulus":"<div style=\"font-size:50px;\">First student</div>","response":null,"trial_type":"html-keyboard-response","trial_index":11,"time_elapsed":296186,"internal_node_id":"0.0-4.0","params":{"nStudents":24,"maxFlips":30,"completionMinutes":45,"basePay":8,"maxBonus":9,"perTrialBonus":0.5,"perTrialBonusThreshold":0.05,"exampleCost":0.01},"classroomParams":{"A":{"a":1,"b":4},"B":{"a":4,"b":1},"C":{"a":2,"b":8},"D":{"a":8,"b":2}},"conditions":["nonSeqFull","nonSeqPartial","seqNoFeedback","seqFeedback"],"classroomPairings":[["A","B"],["C","D"]],"coinWeights":[0.2,0.5,0.8],"subjectId":"A19ZWBQT8A3LIR","assignmentId":"3TVSS0C0E2M52QFNPOLDGY0JMIHWT4","hitId":"3SD15I2WD2G0NA4TSPXGB81L5S7630","url":"https://gershmanlab.com/experiments/alicia/teaching/experiment/?hitId=3SD15I2WD2G0NA4TSPXGB81L5S7630&workerId=A19ZWBQT8A3LIR&assignmentId=3TVSS0C0E2M52QFNPOLDGY0JMIHWT4&a=0SVT9&tp_a=0SVT9&b=3TVSS0C0E2M52QFNPOLDGY0JMIHWT4&tp_b=3TVSS0C0E2M52QFNPOLDGY0JMIHWT4&c=365799&tp_c=365799"},{"rt":10871,"stimulus":"\n            <h4 style=\"color:Orange;\">Student 1</h4>\n            <h2>The weight of your coin is <b style=\"color:Tomato;\">0.2</b>.</h2>\n            <p>In this block, you will be giving <b>two</b> sets of examples to Student 1.</p>\n                <p>You will see the student's guess after the first set of examples. You will also receive feedback at the end of the block.</p>\n            <p>To earn the highest bonus, you will have to <b>take into consideration the student's guess</b> when you choose your second set of examples.</p>","response":0,"trial_type":"html-button-response","trial_index":12,"time_elapsed":307058,"internal_node_id":"0.0-5.0","params":{"nStudents":24,"maxFlips":30,"completionMinutes":45,"basePay":8,"maxBonus":9,"perTrialBonus":0.5,"perTrialBonusThreshold":0.05,"exampleCost":0.01},"classroomParams":{"A":{"a":1,"b":4},"B":{"a":4,"b":1},"C":{"a":2,"b":8},"D":{"a":8,"b":2}},"conditions":["nonSeqFull","nonSeqPartial","seqNoFeedback","seqFeedback"],"classroomPairings":[["A","B"],["C","D"]],"coinWeights":[0.2,0.5,0.8],"subjectId":"A19ZWBQT8A3LIR","assignmentId":"3TVSS0C0E2M52QFNPOLDGY0JMIHWT4","hitId":"3SD15I2WD2G0NA4TSPXGB81L5S7630","url":"https://gershmanlab.com/experiments/alicia/teaching/experiment/?hitId=3SD15I2WD2G0NA4TSPXGB81L5S7630&workerId=A19ZWBQT8A3LIR&assignmentId=3TVSS0C0E2M52QFNPOLDGY0JMIHWT4&a=0SVT9&tp_a=0SVT9&b=3TVSS0C0E2M52QFNPOLDGY0JMIHWT4&tp_b=3TVSS0C0E2M52QFNPOLDGY0JMIHWT4&c=365799&tp_c=365799"},{"rt":22181,"response":{"heads":"2","tails":"2"},"type":"response","condition":"seqFeedback","trueTheta":0.2,"classrooms":["A","B"],"studentTrueClassroom":"B","exampleSet":"first","trial_type":"survey-html-form","trial_index":13,"time_elapsed":329243,"internal_node_id":"0.0-6.0-0.0","params":{"nStudents":24,"maxFlips":30,"completionMinutes":45,"basePay":8,"maxBonus":9,"perTrialBonus":0.5,"perTrialBonusThreshold":0.05,"exampleCost":0.01},"classroomParams":{"A":{"a":1,"b":4},"B":{"a":4,"b":1},"C":{"a":2,"b":8},"D":{"a":8,"b":2}},"conditions":["nonSeqFull","nonSeqPartial","seqNoFeedback","seqFeedback"],"classroomPairings":[["A","B"],["C","D"]],"coinWeights":[0.2,0.5,0.8],"subjectId":"A19ZWBQT8A3LIR","assignmentId":"3TVSS0C0E2M52QFNPOLDGY0JMIHWT4","hitId":"3SD15I2WD2G0NA4TSPXGB81L5S7630","url":"https://gershmanlab.com/experiments/alicia/teaching/experiment/?hitId=3SD15I2WD2G0NA4TSPXGB81L5S7630&workerId=A19ZWBQT8A3LIR&assignmentId=3TVSS0C0E2M52QFNPOLDGY0JMIHWT4&a=0SVT9&tp_a=0SVT9&b=3TVSS0C0E2M52QFNPOLDGY0JMIHWT4&tp_b=3TVSS0C0E2M52QFNPOLDGY0JMIHWT4&c=365799&tp_c=365799","heads":2,"tails":2,"studentIndex":0,"studentTrueHypers":{"a":4,"b":1},"studentGuess":0.6666666666666666,"delta":0.4666666666666666,"totalExamples":4,"bonusSoFar":0},{"rt":null,"stimulus":"Sending examples to student... ","response":null,"trial_type":"html-keyboard-response","trial_index":14,"time_elapsed":330497,"internal_node_id":"0.0-7.0","params":{"nStudents":24,"maxFlips":30,"completionMinutes":45,"basePay":8,"maxBonus":9,"perTrialBonus":0.5,"perTrialBonusThreshold":0.05,"exampleCost":0.01},"classroomParams":{"A":{"a":1,"b":4},"B":{"a":4,"b":1},"C":{"a":2,"b":8},"D":{"a":8,"b":2}},"conditions":["nonSeqFull","nonSeqPartial","seqNoFeedback","seqFeedback"],"classroomPairings":[["A","B"],["C","D"]],"coinWeights":[0.2,0.5,0.8],"subjectId":"A19ZWBQT8A3LIR","assignmentId":"3TVSS0C0E2M52QFNPOLDGY0JMIHWT4","hitId":"3SD15I2WD2G0NA4TSPXGB81L5S7630","url":"https://gershmanlab.com/experiments/alicia/teaching/experiment/?hitId=3SD15I2WD2G0NA4TSPXGB81L5S7630&workerId=A19ZWBQT8A3LIR&assignmentId=3TVSS0C0E2M52QFNPOLDGY0JMIHWT4&a=0SVT9&tp_a=0SVT9&b=3TVSS0C0E2M52QFNPOLDGY0JMIHWT4&tp_b=3TVSS0C0E2M52QFNPOLDGY0JMIHWT4&c=365799&tp_c=365799"},{"rt":null,"stimulus":"Examples sent to student! Waiting for student...","response":null,"trial_type":"html-keyboard-response","trial_index":15,"time_elapsed":335500,"internal_node_id":"0.0-8.0","params":{"nStudents":24,"maxFlips":30,"completionMinutes":45,"basePay":8,"maxBonus":9,"perTrialBonus":0.5,"perTrialBonusThreshold":0.05,"exampleCost":0.01},"classroomParams":{"A":{"a":1,"b":4},"B":{"a":4,"b":1},"C":{"a":2,"b":8},"D":{"a":8,"b":2}},"conditions":["nonSeqFull","nonSeqPartial","seqNoFeedback","seqFeedback"],"classroomPairings":[["A","B"],["C","D"]],"coinWeights":[0.2,0.5,0.8],"subjectId":"A19ZWBQT8A3LIR","assignmentId":"3TVSS0C0E2M52QFNPOLDGY0JMIHWT4","hitId":"3SD15I2WD2G0NA4TSPXGB81L5S7630","url":"https://gershmanlab.com/experiments/alicia/teaching/experiment/?hitId=3SD15I2WD2G0NA4TSPXGB81L5S7630&workerId=A19ZWBQT8A3LIR&assignmentId=3TVSS0C0E2M52QFNPOLDGY0JMIHWT4&a=0SVT9&tp_a=0SVT9&b=3TVSS0C0E2M52QFNPOLDGY0JMIHWT4&tp_b=3TVSS0C0E2M52QFNPOLDGY0JMIHWT4&c=365799&tp_c=365799"},{"rt":4258,"stimulus":"\n                <p>Student's guess for coin weight: <b style=\"color:Tomato;\">0.67</b></p>\n                <p></b></p>\n                <p>You will now send another set of examples to your student. <b>Remember to take your student's guess into consideration so that you can earn the highest bonus possible!</b> </p>\n                <p>Press any key to continue.</p>\n                ","response":"g","trial_type":"html-keyboard-response","trial_index":16,"time_elapsed":339760,"internal_node_id":"0.0-9.0","params":{"nStudents":24,"maxFlips":30,"completionMinutes":45,"basePay":8,"maxBonus":9,"perTrialBonus":0.5,"perTrialBonusThreshold":0.05,"exampleCost":0.01},"classroomParams":{"A":{"a":1,"b":4},"B":{"a":4,"b":1},"C":{"a":2,"b":8},"D":{"a":8,"b":2}},"conditions":["nonSeqFull","nonSeqPartial","seqNoFeedback","seqFeedback"],"classroomPairings":[["A","B"],["C","D"]],"coinWeights":[0.2,0.5,0.8],"subjectId":"A19ZWBQT8A3LIR","assignmentId":"3TVSS0C0E2M52QFNPOLDGY0JMIHWT4","hitId":"3SD15I2WD2G0NA4TSPXGB81L5S7630","url":"https://gershmanlab.com/experiments/alicia/teaching/experiment/?hitId=3SD15I2WD2G0NA4TSPXGB81L5S7630&workerId=A19ZWBQT8A3LIR&assignmentId=3TVSS0C0E2M52QFNPOLDGY0JMIHWT4&a=0SVT9&tp_a=0SVT9&b=3TVSS0C0E2M52QFNPOLDGY0JMIHWT4&tp_b=3TVSS0C0E2M52QFNPOLDGY0JMIHWT4&c=365799&tp_c=365799"},{"rt":12730,"response":{"heads":"1","tails":"1"},"type":"response","condition":"seqFeedback","trueTheta":0.2,"classrooms":["A","B"],"studentTrueClassroom":"B","exampleSet":"second","trial_type":"survey-html-form","trial_index":17,"time_elapsed":352492,"internal_node_id":"0.0-10.0-0.0","params":{"nStudents":24,"maxFlips":30,"completionMinutes":45,"basePay":8,"maxBonus":9,"perTrialBonus":0.5,"perTrialBonusThreshold":0.05,"exampleCost":0.01},"classroomParams":{"A":{"a":1,"b":4},"B":{"a":4,"b":1},"C":{"a":2,"b":8},"D":{"a":8,"b":2}},"conditions":["nonSeqFull","nonSeqPartial","seqNoFeedback","seqFeedback"],"classroomPairings":[["A","B"],["C","D"]],"coinWeights":[0.2,0.5,0.8],"subjectId":"A19ZWBQT8A3LIR","assignmentId":"3TVSS0C0E2M52QFNPOLDGY0JMIHWT4","hitId":"3SD15I2WD2G0NA4TSPXGB81L5S7630","url":"https://gershmanlab.com/experiments/alicia/teaching/experiment/?hitId=3SD15I2WD2G0NA4TSPXGB81L5S7630&workerId=A19ZWBQT8A3LIR&assignmentId=3TVSS0C0E2M52QFNPOLDGY0JMIHWT4&a=0SVT9&tp_a=0SVT9&b=3TVSS0C0E2M52QFNPOLDGY0JMIHWT4&tp_b=3TVSS0C0E2M52QFNPOLDGY0JMIHWT4&c=365799&tp_c=365799","firstResponseHeads":2,"firstResponseTails":2,"secondResponseHeads":1,"secondResponseTails":1,"totalHeads":3,"totalTails":3,"studentIndex":0,"studentTrueHypers":{"a":4,"b":1},"studentGuess":0.6363636363636364,"delta":0.43636363636363634,"bonus":0,"bonusSoFar":0,"totalExamples":6},{"rt":null,"stimulus":"Sending examples to student... ","response":null,"trial_type":"html-keyboard-response","trial_index":18,"time_elapsed":354494,"internal_node_id":"0.0-11.0","params":{"nStudents":24,"maxFlips":30,"completionMinutes":45,"basePay":8,"maxBonus":9,"perTrialBonus":0.5,"perTrialBonusThreshold":0.05,"exampleCost":0.01},"classroomParams":{"A":{"a":1,"b":4},"B":{"a":4,"b":1},"C":{"a":2,"b":8},"D":{"a":8,"b":2}},"conditions":["nonSeqFull","nonSeqPartial","seqNoFeedback","seqFeedback"],"classroomPairings":[["A","B"],["C","D"]],"coinWeights":[0.2,0.5,0.8],"subjectId":"A19ZWBQT8A3LIR","assignmentId":"3TVSS0C0E2M52QFNPOLDGY0JMIHWT4","hitId":"3SD15I2WD2G0NA4TSPXGB81L5S7630","url":"https://gershmanlab.com/experiments/alicia/teaching/experiment/?hitId=3SD15I2WD2G0NA4TSPXGB81L5S7630&workerId=A19ZWBQT8A3LIR&assignmentId=3TVSS0C0E2M52QFNPOLDGY0JMIHWT4&a=0SVT9&tp_a=0SVT9&b=3TVSS0C0E2M52QFNPOLDGY0JMIHWT4&tp_b=3TVSS0C0E2M52QFNPOLDGY0JMIHWT4&c=365799&tp_c=365799"},{"rt":null,"stimulus":"Examples sent to student! Waiting for student...","response":null,"trial_type":"html-keyboard-response","trial_index":19,"time_elapsed":360000,"internal_node_id":"0.0-12.0","params":{"nStudents":24,"maxFlips":30,"completionMinutes":45,"basePay":8,"maxBonus":9,"perTrialBonus":0.5,"perTrialBonusThreshold":0.05,"exampleCost":0.01},"classroomParams":{"A":{"a":1,"b":4},"B":{"a":4,"b":1},"C":{"a":2,"b":8},"D":{"a":8,"b":2}},"conditions":["nonSeqFull","nonSeqPartial","seqNoFeedback","seqFeedback"],"classroomPairings":[["A","B"],["C","D"]],"coinWeights":[0.2,0.5,0.8],"subjectId":"A19ZWBQT8A3LIR","assignmentId":"3TVSS0C0E2M52QFNPOLDGY0JMIHWT4","hitId":"3SD15I2WD2G0NA4TSPXGB81L5S7630","url":"https://gershmanlab.com/experiments/alicia/teaching/experiment/?hitId=3SD15I2WD2G0NA4TSPXGB81L5S7630&workerId=A19ZWBQT8A3LIR&assignmentId=3TVSS0C0E2M52QFNPOLDGY0JMIHWT4&a=0SVT9&tp_a=0SVT9&b=3TVSS0C0E2M52QFNPOLDGY0JMIHWT4&tp_b=3TVSS0C0E2M52QFNPOLDGY0JMIHWT4&c=365799&tp_c=365799"},{"rt":9460,"stimulus":"\n                <p>Student 1's first guess for coin weight: <b style=\"color:Tomato\";>0.67</b></p>\n                <p>Student 1's second guess for coin weight: <b style=\"color:Tomato\";>0.64</b></p>\n                <p>You received a bonus of <b>$0.00</b> based on the student's second guess.</p>\n                <p>Total bonus so far: <b>$0.00</b></p>\n                <p>Press any key to continue.</p>\n                ","response":"f","trial_type":"html-keyboard-response","trial_index":20,"time_elapsed":369462,"internal_node_id":"0.0-13.0","params":{"nStudents":24,"maxFlips":30,"completionMinutes":45,"basePay":8,"maxBonus":9,"perTrialBonus":0.5,"perTrialBonusThreshold":0.05,"exampleCost":0.01},"classroomParams":{"A":{"a":1,"b":4},"B":{"a":4,"b":1},"C":{"a":2,"b":8},"D":{"a":8,"b":2}},"conditions":["nonSeqFull","nonSeqPartial","seqNoFeedback","seqFeedback"],"classroomPairings":[["A","B"],["C","D"]],"coinWeights":[0.2,0.5,0.8],"subjectId":"A19ZWBQT8A3LIR","assignmentId":"3TVSS0C0E2M52QFNPOLDGY0JMIHWT4","hitId":"3SD15I2WD2G0NA4TSPXGB81L5S7630","url":"https://gershmanlab.com/experiments/alicia/teaching/experiment/?hitId=3SD15I2WD2G0NA4TSPXGB81L5S7630&workerId=A19ZWBQT8A3LIR&assignmentId=3TVSS0C0E2M52QFNPOLDGY0JMIHWT4&a=0SVT9&tp_a=0SVT9&b=3TVSS0C0E2M52QFNPOLDGY0JMIHWT4&tp_b=3TVSS0C0E2M52QFNPOLDGY0JMIHWT4&c=365799&tp_c=365799"},{"rt":null,"stimulus":"<div style=\"font-size:60px;\">Next student</div>","response":null,"trial_type":"html-keyboard-response","trial_index":21,"time_elapsed":371466,"internal_node_id":"0.0-14.0-0.0","params":{"nStudents":24,"maxFlips":30,"completionMinutes":45,"basePay":8,"maxBonus":9,"perTrialBonus":0.5,"perTrialBonusThreshold":0.05,"exampleCost":0.01},"classroomParams":{"A":{"a":1,"b":4},"B":{"a":4,"b":1},"C":{"a":2,"b":8},"D":{"a":8,"b":2}},"conditions":["nonSeqFull","nonSeqPartial","seqNoFeedback","seqFeedback"],"classroomPairings":[["A","B"],["C","D"]],"coinWeights":[0.2,0.5,0.8],"subjectId":"A19ZWBQT8A3LIR","assignmentId":"3TVSS0C0E2M52QFNPOLDGY0JMIHWT4","hitId":"3SD15I2WD2G0NA4TSPXGB81L5S7630","url":"https://gershmanlab.com/experiments/alicia/teaching/experiment/?hitId=3SD15I2WD2G0NA4TSPXGB81L5S7630&workerId=A19ZWBQT8A3LIR&assignmentId=3TVSS0C0E2M52QFNPOLDGY0JMIHWT4&a=0SVT9&tp_a=0SVT9&b=3TVSS0C0E2M52QFNPOLDGY0JMIHWT4&tp_b=3TVSS0C0E2M52QFNPOLDGY0JMIHWT4&c=365799&tp_c=365799"},{"rt":2505,"stimulus":"\n            <h4 style=\"color:Orange;\">Student 2</h4>\n            <h2>The weight of your coin is <b style=\"color:Tomato;\">0.2</b>.</h2>\n            <p>In this block, you will be giving <b>one</b> set of examples to Student 2.</p>\n                <p>You will receive feedback at the end of the block.</p>\n            <p></p>","response":0,"trial_type":"html-button-response","trial_index":22,"time_elapsed":373972,"internal_node_id":"0.0-15.0","params":{"nStudents":24,"maxFlips":30,"completionMinutes":45,"basePay":8,"maxBonus":9,"perTrialBonus":0.5,"perTrialBonusThreshold":0.05,"exampleCost":0.01},"classroomParams":{"A":{"a":1,"b":4},"B":{"a":4,"b":1},"C":{"a":2,"b":8},"D":{"a":8,"b":2}},"conditions":["nonSeqFull","nonSeqPartial","seqNoFeedback","seqFeedback"],"classroomPairings":[["A","B"],["C","D"]],"coinWeights":[0.2,0.5,0.8],"subjectId":"A19ZWBQT8A3LIR","assignmentId":"3TVSS0C0E2M52QFNPOLDGY0JMIHWT4","hitId":"3SD15I2WD2G0NA4TSPXGB81L5S7630","url":"https://gershmanlab.com/experiments/alicia/teaching/experiment/?hitId=3SD15I2WD2G0NA4TSPXGB81L5S7630&workerId=A19ZWBQT8A3LIR&assignmentId=3TVSS0C0E2M52QFNPOLDGY0JMIHWT4&a=0SVT9&tp_a=0SVT9&b=3TVSS0C0E2M52QFNPOLDGY0JMIHWT4&tp_b=3TVSS0C0E2M52QFNPOLDGY0JMIHWT4&c=365799&tp_c=365799"},{"rt":16559,"response":{"heads":"1","tails":"1"},"type":"response","condition":"nonSeqPartial","trueTheta":0.2,"classrooms":["C","D"],"studentTrueClassroom":"C","exampleSet":"first","trial_type":"survey-html-form","trial_index":23,"time_elapsed":390532,"internal_node_id":"0.0-16.0-0.0","params":{"nStudents":24,"maxFlips":30,"completionMinutes":45,"basePay":8,"maxBonus":9,"perTrialBonus":0.5,"perTrialBonusThreshold":0.05,"exampleCost":0.01},"classroomParams":{"A":{"a":1,"b":4},"B":{"a":4,"b":1},"C":{"a":2,"b":8},"D":{"a":8,"b":2}},"conditions":["nonSeqFull","nonSeqPartial","seqNoFeedback","seqFeedback"],"classroomPairings":[["A","B"],["C","D"]],"coinWeights":[0.2,0.5,0.8],"subjectId":"A19ZWBQT8A3LIR","assignmentId":"3TVSS0C0E2M52QFNPOLDGY0JMIHWT4","hitId":"3SD15I2WD2G0NA4TSPXGB81L5S7630","url":"https://gershmanlab.com/experiments/alicia/teaching/experiment/?hitId=3SD15I2WD2G0NA4TSPXGB81L5S7630&workerId=A19ZWBQT8A3LIR&assignmentId=3TVSS0C0E2M52QFNPOLDGY0JMIHWT4&a=0SVT9&tp_a=0SVT9&b=3TVSS0C0E2M52QFNPOLDGY0JMIHWT4&tp_b=3TVSS0C0E2M52QFNPOLDGY0JMIHWT4&c=365799&tp_c=365799","heads":1,"tails":1,"studentIndex":1,"studentTrueHypers":{"a":2,"b":8},"studentGuess":0.25,"delta":0.04999999999999999,"totalExamples":2,"bonus":0.48,"bonusSoFar":0.48},{"rt":null,"stimulus":"Sending examples to student... ","response":null,"trial_type":"html-keyboard-response","trial_index":24,"time_elapsed":393333,"internal_node_id":"0.0-17.0","params":{"nStudents":24,"maxFlips":30,"completionMinutes":45,"basePay":8,"maxBonus":9,"perTrialBonus":0.5,"perTrialBonusThreshold":0.05,"exampleCost":0.01},"classroomParams":{"A":{"a":1,"b":4},"B":{"a":4,"b":1},"C":{"a":2,"b":8},"D":{"a":8,"b":2}},"conditions":["nonSeqFull","nonSeqPartial","seqNoFeedback","seqFeedback"],"classroomPairings":[["A","B"],["C","D"]],"coinWeights":[0.2,0.5,0.8],"subjectId":"A19ZWBQT8A3LIR","assignmentId":"3TVSS0C0E2M52QFNPOLDGY0JMIHWT4","hitId":"3SD15I2WD2G0NA4TSPXGB81L5S7630","url":"https://gershmanlab.com/experiments/alicia/teaching/experiment/?hitId=3SD15I2WD2G0NA4TSPXGB81L5S7630&workerId=A19ZWBQT8A3LIR&assignmentId=3TVSS0C0E2M52QFNPOLDGY0JMIHWT4&a=0SVT9&tp_a=0SVT9&b=3TVSS0C0E2M52QFNPOLDGY0JMIHWT4&tp_b=3TVSS0C0E2M52QFNPOLDGY0JMIHWT4&c=365799&tp_c=365799"},{"rt":null,"stimulus":"Examples sent to student! Waiting for student...","response":null,"trial_type":"html-keyboard-response","trial_index":25,"time_elapsed":398337,"internal_node_id":"0.0-18.0","params":{"nStudents":24,"maxFlips":30,"completionMinutes":45,"basePay":8,"maxBonus":9,"perTrialBonus":0.5,"perTrialBonusThreshold":0.05,"exampleCost":0.01},"classroomParams":{"A":{"a":1,"b":4},"B":{"a":4,"b":1},"C":{"a":2,"b":8},"D":{"a":8,"b":2}},"conditions":["nonSeqFull","nonSeqPartial","seqNoFeedback","seqFeedback"],"classroomPairings":[["A","B"],["C","D"]],"coinWeights":[0.2,0.5,0.8],"subjectId":"A19ZWBQT8A3LIR","assignmentId":"3TVSS0C0E2M52QFNPOLDGY0JMIHWT4","hitId":"3SD15I2WD2G0NA4TSPXGB81L5S7630","url":"https://gershmanlab.com/experiments/alicia/teaching/experiment/?hitId=3SD15I2WD2G0NA4TSPXGB81L5S7630&workerId=A19ZWBQT8A3LIR&assignmentId=3TVSS0C0E2M52QFNPOLDGY0JMIHWT4&a=0SVT9&tp_a=0SVT9&b=3TVSS0C0E2M52QFNPOLDGY0JMIHWT4&tp_b=3TVSS0C0E2M52QFNPOLDGY0JMIHWT4&c=365799&tp_c=365799"},{"rt":3408,"stimulus":"\n                <p>Student's guess for coin weight: <b style=\"color:Tomato;\">0.25</b></p>\n                <p>You received a bonus of <b>$0.48</b>. Total bonus so far: <b>$0.48</b></b></p>\n                <p></p>\n                <p>Press any key to continue.</p>\n                ","response":"d","trial_type":"html-keyboard-response","trial_index":26,"time_elapsed":401747,"internal_node_id":"0.0-19.0","params":{"nStudents":24,"maxFlips":30,"completionMinutes":45,"basePay":8,"maxBonus":9,"perTrialBonus":0.5,"perTrialBonusThreshold":0.05,"exampleCost":0.01},"classroomParams":{"A":{"a":1,"b":4},"B":{"a":4,"b":1},"C":{"a":2,"b":8},"D":{"a":8,"b":2}},"conditions":["nonSeqFull","nonSeqPartial","seqNoFeedback","seqFeedback"],"classroomPairings":[["A","B"],["C","D"]],"coinWeights":[0.2,0.5,0.8],"subjectId":"A19ZWBQT8A3LIR","assignmentId":"3TVSS0C0E2M52QFNPOLDGY0JMIHWT4","hitId":"3SD15I2WD2G0NA4TSPXGB81L5S7630","url":"https://gershmanlab.com/experiments/alicia/teaching/experiment/?hitId=3SD15I2WD2G0NA4TSPXGB81L5S7630&workerId=A19ZWBQT8A3LIR&assignmentId=3TVSS0C0E2M52QFNPOLDGY0JMIHWT4&a=0SVT9&tp_a=0SVT9&b=3TVSS0C0E2M52QFNPOLDGY0JMIHWT4&tp_b=3TVSS0C0E2M52QFNPOLDGY0JMIHWT4&c=365799&tp_c=365799"},{"rt":null,"stimulus":"<div style=\"font-size:60px;\">Next student</div>","response":null,"trial_type":"html-keyboard-response","trial_index":27,"time_elapsed":403999,"internal_node_id":"0.0-20.0-0.0","params":{"nStudents":24,"maxFlips":30,"completionMinutes":45,"basePay":8,"maxBonus":9,"perTrialBonus":0.5,"perTrialBonusThreshold":0.05,"exampleCost":0.01},"classroomParams":{"A":{"a":1,"b":4},"B":{"a":4,"b":1},"C":{"a":2,"b":8},"D":{"a":8,"b":2}},"conditions":["nonSeqFull","nonSeqPartial","seqNoFeedback","seqFeedback"],"classroomPairings":[["A","B"],["C","D"]],"coinWeights":[0.2,0.5,0.8],"subjectId":"A19ZWBQT8A3LIR","assignmentId":"3TVSS0C0E2M52QFNPOLDGY0JMIHWT4","hitId":"3SD15I2WD2G0NA4TSPXGB81L5S7630","url":"https://gershmanlab.com/experiments/alicia/teaching/experiment/?hitId=3SD15I2WD2G0NA4TSPXGB81L5S7630&workerId=A19ZWBQT8A3LIR&assignmentId=3TVSS0C0E2M52QFNPOLDGY0JMIHWT4&a=0SVT9&tp_a=0SVT9&b=3TVSS0C0E2M52QFNPOLDGY0JMIHWT4&tp_b=3TVSS0C0E2M52QFNPOLDGY0JMIHWT4&c=365799&tp_c=365799"},{"rt":2385,"stimulus":"\n            <h4 style=\"color:Orange;\">Student 3</h4>\n            <h2>The weight of your coin is <b style=\"color:Tomato;\">0.8</b>.</h2>\n            <p>In this block, you will be giving <b>two</b> sets of examples to Student 3.</p>\n                <p>You will receive feedback at the end of the block.</p>\n            <p></p>","response":0,"trial_type":"html-button-response","trial_index":28,"time_elapsed":406386,"internal_node_id":"0.0-21.0","params":{"nStudents":24,"maxFlips":30,"completionMinutes":45,"basePay":8,"maxBonus":9,"perTrialBonus":0.5,"perTrialBonusThreshold":0.05,"exampleCost":0.01},"classroomParams":{"A":{"a":1,"b":4},"B":{"a":4,"b":1},"C":{"a":2,"b":8},"D":{"a":8,"b":2}},"conditions":["nonSeqFull","nonSeqPartial","seqNoFeedback","seqFeedback"],"classroomPairings":[["A","B"],["C","D"]],"coinWeights":[0.2,0.5,0.8],"subjectId":"A19ZWBQT8A3LIR","assignmentId":"3TVSS0C0E2M52QFNPOLDGY0JMIHWT4","hitId":"3SD15I2WD2G0NA4TSPXGB81L5S7630","url":"https://gershmanlab.com/experiments/alicia/teaching/experiment/?hitId=3SD15I2WD2G0NA4TSPXGB81L5S7630&workerId=A19ZWBQT8A3LIR&assignmentId=3TVSS0C0E2M52QFNPOLDGY0JMIHWT4&a=0SVT9&tp_a=0SVT9&b=3TVSS0C0E2M52QFNPOLDGY0JMIHWT4&tp_b=3TVSS0C0E2M52QFNPOLDGY0JMIHWT4&c=365799&tp_c=365799"},{"rt":8144,"response":{"heads":"1","tails":"1"},"type":"response","condition":"seqNoFeedback","trueTheta":0.8,"classrooms":["A","B"],"studentTrueClassroom":"A","exampleSet":"first","trial_type":"survey-html-form","trial_index":29,"time_elapsed":414532,"internal_node_id":"0.0-22.0-0.0","params":{"nStudents":24,"maxFlips":30,"completionMinutes":45,"basePay":8,"maxBonus":9,"perTrialBonus":0.5,"perTrialBonusThreshold":0.05,"exampleCost":0.01},"classroomParams":{"A":{"a":1,"b":4},"B":{"a":4,"b":1},"C":{"a":2,"b":8},"D":{"a":8,"b":2}},"conditions":["nonSeqFull","nonSeqPartial","seqNoFeedback","seqFeedback"],"classroomPairings":[["A","B"],["C","D"]],"coinWeights":[0.2,0.5,0.8],"subjectId":"A19ZWBQT8A3LIR","assignmentId":"3TVSS0C0E2M52QFNPOLDGY0JMIHWT4","hitId":"3SD15I2WD2G0NA4TSPXGB81L5S7630","url":"https://gershmanlab.com/experiments/alicia/teaching/experiment/?hitId=3SD15I2WD2G0NA4TSPXGB81L5S7630&workerId=A19ZWBQT8A3LIR&assignmentId=3TVSS0C0E2M52QFNPOLDGY0JMIHWT4&a=0SVT9&tp_a=0SVT9&b=3TVSS0C0E2M52QFNPOLDGY0JMIHWT4&tp_b=3TVSS0C0E2M52QFNPOLDGY0JMIHWT4&c=365799&tp_c=365799","heads":1,"tails":1,"studentIndex":2,"studentTrueHypers":{"a":1,"b":4},"studentGuess":0.2857142857142857,"delta":0.5142857142857143,"totalExamples":2,"bonusSoFar":0.48},{"rt":null,"stimulus":"Sending examples to student... ","response":null,"trial_type":"html-keyboard-response","trial_index":30,"time_elapsed":416034,"internal_node_id":"0.0-23.0","params":{"nStudents":24,"maxFlips":30,"completionMinutes":45,"basePay":8,"maxBonus":9,"perTrialBonus":0.5,"perTrialBonusThreshold":0.05,"exampleCost":0.01},"classroomParams":{"A":{"a":1,"b":4},"B":{"a":4,"b":1},"C":{"a":2,"b":8},"D":{"a":8,"b":2}},"conditions":["nonSeqFull","nonSeqPartial","seqNoFeedback","seqFeedback"],"classroomPairings":[["A","B"],["C","D"]],"coinWeights":[0.2,0.5,0.8],"subjectId":"A19ZWBQT8A3LIR","assignmentId":"3TVSS0C0E2M52QFNPOLDGY0JMIHWT4","hitId":"3SD15I2WD2G0NA4TSPXGB81L5S7630","url":"https://gershmanlab.com/experiments/alicia/teaching/experiment/?hitId=3SD15I2WD2G0NA4TSPXGB81L5S7630&workerId=A19ZWBQT8A3LIR&assignmentId=3TVSS0C0E2M52QFNPOLDGY0JMIHWT4&a=0SVT9&tp_a=0SVT9&b=3TVSS0C0E2M52QFNPOLDGY0JMIHWT4&tp_b=3TVSS0C0E2M52QFNPOLDGY0JMIHWT4&c=365799&tp_c=365799"},{"rt":null,"stimulus":"Examples sent to student! Waiting for student...","response":null,"trial_type":"html-keyboard-response","trial_index":31,"time_elapsed":421535,"internal_node_id":"0.0-24.0","params":{"nStudents":24,"maxFlips":30,"completionMinutes":45,"basePay":8,"maxBonus":9,"perTrialBonus":0.5,"perTrialBonusThreshold":0.05,"exampleCost":0.01},"classroomParams":{"A":{"a":1,"b":4},"B":{"a":4,"b":1},"C":{"a":2,"b":8},"D":{"a":8,"b":2}},"conditions":["nonSeqFull","nonSeqPartial","seqNoFeedback","seqFeedback"],"classroomPairings":[["A","B"],["C","D"]],"coinWeights":[0.2,0.5,0.8],"subjectId":"A19ZWBQT8A3LIR","assignmentId":"3TVSS0C0E2M52QFNPOLDGY0JMIHWT4","hitId":"3SD15I2WD2G0NA4TSPXGB81L5S7630","url":"https://gershmanlab.com/experiments/alicia/teaching/experiment/?hitId=3SD15I2WD2G0NA4TSPXGB81L5S7630&workerId=A19ZWBQT8A3LIR&assignmentId=3TVSS0C0E2M52QFNPOLDGY0JMIHWT4&a=0SVT9&tp_a=0SVT9&b=3TVSS0C0E2M52QFNPOLDGY0JMIHWT4&tp_b=3TVSS0C0E2M52QFNPOLDGY0JMIHWT4&c=365799&tp_c=365799"},{"rt":8040,"response":{"heads":"1","tails":"1"},"type":"response","condition":"seqNoFeedback","trueTheta":0.8,"classrooms":["A","B"],"studentTrueClassroom":"A","exampleSet":"second","trial_type":"survey-html-form","trial_index":32,"time_elapsed":429576,"internal_node_id":"0.0-25.0-0.0","params":{"nStudents":24,"maxFlips":30,"completionMinutes":45,"basePay":8,"maxBonus":9,"perTrialBonus":0.5,"perTrialBonusThreshold":0.05,"exampleCost":0.01},"classroomParams":{"A":{"a":1,"b":4},"B":{"a":4,"b":1},"C":{"a":2,"b":8},"D":{"a":8,"b":2}},"conditions":["nonSeqFull","nonSeqPartial","seqNoFeedback","seqFeedback"],"classroomPairings":[["A","B"],["C","D"]],"coinWeights":[0.2,0.5,0.8],"subjectId":"A19ZWBQT8A3LIR","assignmentId":"3TVSS0C0E2M52QFNPOLDGY0JMIHWT4","hitId":"3SD15I2WD2G0NA4TSPXGB81L5S7630","url":"https://gershmanlab.com/experiments/alicia/teaching/experiment/?hitId=3SD15I2WD2G0NA4TSPXGB81L5S7630&workerId=A19ZWBQT8A3LIR&assignmentId=3TVSS0C0E2M52QFNPOLDGY0JMIHWT4&a=0SVT9&tp_a=0SVT9&b=3TVSS0C0E2M52QFNPOLDGY0JMIHWT4&tp_b=3TVSS0C0E2M52QFNPOLDGY0JMIHWT4&c=365799&tp_c=365799","firstResponseHeads":1,"firstResponseTails":1,"secondResponseHeads":1,"secondResponseTails":1,"totalHeads":2,"totalTails":2,"studentIndex":2,"studentTrueHypers":{"a":1,"b":4},"studentGuess":0.3333333333333333,"delta":0.46666666666666673,"bonus":0,"bonusSoFar":0.48,"totalExamples":4},{"rt":null,"stimulus":"Sending examples to student... ","response":null,"trial_type":"html-keyboard-response","trial_index":33,"time_elapsed":431583,"internal_node_id":"0.0-26.0","params":{"nStudents":24,"maxFlips":30,"completionMinutes":45,"basePay":8,"maxBonus":9,"perTrialBonus":0.5,"perTrialBonusThreshold":0.05,"exampleCost":0.01},"classroomParams":{"A":{"a":1,"b":4},"B":{"a":4,"b":1},"C":{"a":2,"b":8},"D":{"a":8,"b":2}},"conditions":["nonSeqFull","nonSeqPartial","seqNoFeedback","seqFeedback"],"classroomPairings":[["A","B"],["C","D"]],"coinWeights":[0.2,0.5,0.8],"subjectId":"A19ZWBQT8A3LIR","assignmentId":"3TVSS0C0E2M52QFNPOLDGY0JMIHWT4","hitId":"3SD15I2WD2G0NA4TSPXGB81L5S7630","url":"https://gershmanlab.com/experiments/alicia/teaching/experiment/?hitId=3SD15I2WD2G0NA4TSPXGB81L5S7630&workerId=A19ZWBQT8A3LIR&assignmentId=3TVSS0C0E2M52QFNPOLDGY0JMIHWT4&a=0SVT9&tp_a=0SVT9&b=3TVSS0C0E2M52QFNPOLDGY0JMIHWT4&tp_b=3TVSS0C0E2M52QFNPOLDGY0JMIHWT4&c=365799&tp_c=365799"},{"rt":null,"stimulus":"Examples sent to student! Waiting for student...","response":null,"trial_type":"html-keyboard-response","trial_index":34,"time_elapsed":436087,"internal_node_id":"0.0-27.0","params":{"nStudents":24,"maxFlips":30,"completionMinutes":45,"basePay":8,"maxBonus":9,"perTrialBonus":0.5,"perTrialBonusThreshold":0.05,"exampleCost":0.01},"classroomParams":{"A":{"a":1,"b":4},"B":{"a":4,"b":1},"C":{"a":2,"b":8},"D":{"a":8,"b":2}},"conditions":["nonSeqFull","nonSeqPartial","seqNoFeedback","seqFeedback"],"classroomPairings":[["A","B"],["C","D"]],"coinWeights":[0.2,0.5,0.8],"subjectId":"A19ZWBQT8A3LIR","assignmentId":"3TVSS0C0E2M52QFNPOLDGY0JMIHWT4","hitId":"3SD15I2WD2G0NA4TSPXGB81L5S7630","url":"https://gershmanlab.com/experiments/alicia/teaching/experiment/?hitId=3SD15I2WD2G0NA4TSPXGB81L5S7630&workerId=A19ZWBQT8A3LIR&assignmentId=3TVSS0C0E2M52QFNPOLDGY0JMIHWT4&a=0SVT9&tp_a=0SVT9&b=3TVSS0C0E2M52QFNPOLDGY0JMIHWT4&tp_b=3TVSS0C0E2M52QFNPOLDGY0JMIHWT4&c=365799&tp_c=365799"},{"rt":4565,"stimulus":"\n                <p>Student 3's first guess for coin weight: <b style=\"color:Tomato\";>0.29</b></p>\n                <p>Student 3's second guess for coin weight: <b style=\"color:Tomato\";>0.33</b></p>\n                <p>You received a bonus of <b>$0.00</b> based on the student's second guess.</p>\n                <p>Total bonus so far: <b>$0.48</b></p>\n                <p>Press any key to continue.</p>\n                ","response":"d","trial_type":"html-keyboard-response","trial_index":35,"time_elapsed":440654,"internal_node_id":"0.0-28.0","params":{"nStudents":24,"maxFlips":30,"completionMinutes":45,"basePay":8,"maxBonus":9,"perTrialBonus":0.5,"perTrialBonusThreshold":0.05,"exampleCost":0.01},"classroomParams":{"A":{"a":1,"b":4},"B":{"a":4,"b":1},"C":{"a":2,"b":8},"D":{"a":8,"b":2}},"conditions":["nonSeqFull","nonSeqPartial","seqNoFeedback","seqFeedback"],"classroomPairings":[["A","B"],["C","D"]],"coinWeights":[0.2,0.5,0.8],"subjectId":"A19ZWBQT8A3LIR","assignmentId":"3TVSS0C0E2M52QFNPOLDGY0JMIHWT4","hitId":"3SD15I2WD2G0NA4TSPXGB81L5S7630","url":"https://gershmanlab.com/experiments/alicia/teaching/experiment/?hitId=3SD15I2WD2G0NA4TSPXGB81L5S7630&workerId=A19ZWBQT8A3LIR&assignmentId=3TVSS0C0E2M52QFNPOLDGY0JMIHWT4&a=0SVT9&tp_a=0SVT9&b=3TVSS0C0E2M52QFNPOLDGY0JMIHWT4&tp_b=3TVSS0C0E2M52QFNPOLDGY0JMIHWT4&c=365799&tp_c=365799"},{"rt":null,"stimulus":"<div style=\"font-size:60px;\">Next student</div>","response":null,"trial_type":"html-keyboard-response","trial_index":36,"time_elapsed":442655,"internal_node_id":"0.0-29.0-0.0","params":{"nStudents":24,"maxFlips":30,"completionMinutes":45,"basePay":8,"maxBonus":9,"perTrialBonus":0.5,"perTrialBonusThreshold":0.05,"exampleCost":0.01},"classroomParams":{"A":{"a":1,"b":4},"B":{"a":4,"b":1},"C":{"a":2,"b":8},"D":{"a":8,"b":2}},"conditions":["nonSeqFull","nonSeqPartial","seqNoFeedback","seqFeedback"],"classroomPairings":[["A","B"],["C","D"]],"coinWeights":[0.2,0.5,0.8],"subjectId":"A19ZWBQT8A3LIR","assignmentId":"3TVSS0C0E2M52QFNPOLDGY0JMIHWT4","hitId":"3SD15I2WD2G0NA4TSPXGB81L5S7630","url":"https://gershmanlab.com/experiments/alicia/teaching/experiment/?hitId=3SD15I2WD2G0NA4TSPXGB81L5S7630&workerId=A19ZWBQT8A3LIR&assignmentId=3TVSS0C0E2M52QFNPOLDGY0JMIHWT4&a=0SVT9&tp_a=0SVT9&b=3TVSS0C0E2M52QFNPOLDGY0JMIHWT4&tp_b=3TVSS0C0E2M52QFNPOLDGY0JMIHWT4&c=365799&tp_c=365799"},{"rt":3929,"stimulus":"\n            <h4 style=\"color:Orange;\">Student 4</h4>\n            <h2>The weight of your coin is <b style=\"color:Tomato;\">0.2</b>.</h2>\n            <p>In this block, you will be giving <b>two</b> sets of examples to Student 4.</p>\n                <p>You will see the student's guess after the first set of examples. You will also receive feedback at the end of the block.</p>\n            <p>To earn the highest bonus, you will have to <b>take into consideration the student's guess</b> when you choose your second set of examples.</p>","response":0,"trial_type":"html-button-response","trial_index":37,"time_elapsed":446586,"internal_node_id":"0.0-30.0","params":{"nStudents":24,"maxFlips":30,"completionMinutes":45,"basePay":8,"maxBonus":9,"perTrialBonus":0.5,"perTrialBonusThreshold":0.05,"exampleCost":0.01},"classroomParams":{"A":{"a":1,"b":4},"B":{"a":4,"b":1},"C":{"a":2,"b":8},"D":{"a":8,"b":2}},"conditions":["nonSeqFull","nonSeqPartial","seqNoFeedback","seqFeedback"],"classroomPairings":[["A","B"],["C","D"]],"coinWeights":[0.2,0.5,0.8],"subjectId":"A19ZWBQT8A3LIR","assignmentId":"3TVSS0C0E2M52QFNPOLDGY0JMIHWT4","hitId":"3SD15I2WD2G0NA4TSPXGB81L5S7630","url":"https://gershmanlab.com/experiments/alicia/teaching/experiment/?hitId=3SD15I2WD2G0NA4TSPXGB81L5S7630&workerId=A19ZWBQT8A3LIR&assignmentId=3TVSS0C0E2M52QFNPOLDGY0JMIHWT4&a=0SVT9&tp_a=0SVT9&b=3TVSS0C0E2M52QFNPOLDGY0JMIHWT4&tp_b=3TVSS0C0E2M52QFNPOLDGY0JMIHWT4&c=365799&tp_c=365799"},{"rt":10844,"response":{"heads":"2","tails":"2"},"type":"response","condition":"seqFeedback","trueTheta":0.2,"classrooms":["C","D"],"studentTrueClassroom":"D","exampleSet":"first","trial_type":"survey-html-form","trial_index":38,"time_elapsed":457431,"internal_node_id":"0.0-31.0-0.0","params":{"nStudents":24,"maxFlips":30,"completionMinutes":45,"basePay":8,"maxBonus":9,"perTrialBonus":0.5,"perTrialBonusThreshold":0.05,"exampleCost":0.01},"classroomParams":{"A":{"a":1,"b":4},"B":{"a":4,"b":1},"C":{"a":2,"b":8},"D":{"a":8,"b":2}},"conditions":["nonSeqFull","nonSeqPartial","seqNoFeedback","seqFeedback"],"classroomPairings":[["A","B"],["C","D"]],"coinWeights":[0.2,0.5,0.8],"subjectId":"A19ZWBQT8A3LIR","assignmentId":"3TVSS0C0E2M52QFNPOLDGY0JMIHWT4","hitId":"3SD15I2WD2G0NA4TSPXGB81L5S7630","url":"https://gershmanlab.com/experiments/alicia/teaching/experiment/?hitId=3SD15I2WD2G0NA4TSPXGB81L5S7630&workerId=A19ZWBQT8A3LIR&assignmentId=3TVSS0C0E2M52QFNPOLDGY0JMIHWT4&a=0SVT9&tp_a=0SVT9&b=3TVSS0C0E2M52QFNPOLDGY0JMIHWT4&tp_b=3TVSS0C0E2M52QFNPOLDGY0JMIHWT4&c=365799&tp_c=365799","heads":2,"tails":2,"studentIndex":3,"studentTrueHypers":{"a":8,"b":2},"studentGuess":0.7142857142857143,"delta":0.5142857142857142,"totalExamples":4,"bonusSoFar":0.48},{"rt":null,"stimulus":"Sending examples to student... ","response":null,"trial_type":"html-keyboard-response","trial_index":39,"time_elapsed":458685,"internal_node_id":"0.0-32.0","params":{"nStudents":24,"maxFlips":30,"completionMinutes":45,"basePay":8,"maxBonus":9,"perTrialBonus":0.5,"perTrialBonusThreshold":0.05,"exampleCost":0.01},"classroomParams":{"A":{"a":1,"b":4},"B":{"a":4,"b":1},"C":{"a":2,"b":8},"D":{"a":8,"b":2}},"conditions":["nonSeqFull","nonSeqPartial","seqNoFeedback","seqFeedback"],"classroomPairings":[["A","B"],["C","D"]],"coinWeights":[0.2,0.5,0.8],"subjectId":"A19ZWBQT8A3LIR","assignmentId":"3TVSS0C0E2M52QFNPOLDGY0JMIHWT4","hitId":"3SD15I2WD2G0NA4TSPXGB81L5S7630","url":"https://gershmanlab.com/experiments/alicia/teaching/experiment/?hitId=3SD15I2WD2G0NA4TSPXGB81L5S7630&workerId=A19ZWBQT8A3LIR&assignmentId=3TVSS0C0E2M52QFNPOLDGY0JMIHWT4&a=0SVT9&tp_a=0SVT9&b=3TVSS0C0E2M52QFNPOLDGY0JMIHWT4&tp_b=3TVSS0C0E2M52QFNPOLDGY0JMIHWT4&c=365799&tp_c=365799"},{"rt":null,"stimulus":"Examples sent to student! Waiting for student...","response":null,"trial_type":"html-keyboard-response","trial_index":40,"time_elapsed":464688,"internal_node_id":"0.0-33.0","params":{"nStudents":24,"maxFlips":30,"completionMinutes":45,"basePay":8,"maxBonus":9,"perTrialBonus":0.5,"perTrialBonusThreshold":0.05,"exampleCost":0.01},"classroomParams":{"A":{"a":1,"b":4},"B":{"a":4,"b":1},"C":{"a":2,"b":8},"D":{"a":8,"b":2}},"conditions":["nonSeqFull","nonSeqPartial","seqNoFeedback","seqFeedback"],"classroomPairings":[["A","B"],["C","D"]],"coinWeights":[0.2,0.5,0.8],"subjectId":"A19ZWBQT8A3LIR","assignmentId":"3TVSS0C0E2M52QFNPOLDGY0JMIHWT4","hitId":"3SD15I2WD2G0NA4TSPXGB81L5S7630","url":"https://gershmanlab.com/experiments/alicia/teaching/experiment/?hitId=3SD15I2WD2G0NA4TSPXGB81L5S7630&workerId=A19ZWBQT8A3LIR&assignmentId=3TVSS0C0E2M52QFNPOLDGY0JMIHWT4&a=0SVT9&tp_a=0SVT9&b=3TVSS0C0E2M52QFNPOLDGY0JMIHWT4&tp_b=3TVSS0C0E2M52QFNPOLDGY0JMIHWT4&c=365799&tp_c=365799"},{"rt":6322,"stimulus":"\n                <p>Student's guess for coin weight: <b style=\"color:Tomato;\">0.71</b></p>\n                <p></b></p>\n                <p>You will now send another set of examples to your student. <b>Remember to take your student's guess into consideration so that you can earn the highest bonus possible!</b> </p>\n                <p>Press any key to continue.</p>\n                ","response":"f","trial_type":"html-keyboard-response","trial_index":41,"time_elapsed":471098,"internal_node_id":"0.0-34.0","params":{"nStudents":24,"maxFlips":30,"completionMinutes":45,"basePay":8,"maxBonus":9,"perTrialBonus":0.5,"perTrialBonusThreshold":0.05,"exampleCost":0.01},"classroomParams":{"A":{"a":1,"b":4},"B":{"a":4,"b":1},"C":{"a":2,"b":8},"D":{"a":8,"b":2}},"conditions":["nonSeqFull","nonSeqPartial","seqNoFeedback","seqFeedback"],"classroomPairings":[["A","B"],["C","D"]],"coinWeights":[0.2,0.5,0.8],"subjectId":"A19ZWBQT8A3LIR","assignmentId":"3TVSS0C0E2M52QFNPOLDGY0JMIHWT4","hitId":"3SD15I2WD2G0NA4TSPXGB81L5S7630","url":"https://gershmanlab.com/experiments/alicia/teaching/experiment/?hitId=3SD15I2WD2G0NA4TSPXGB81L5S7630&workerId=A19ZWBQT8A3LIR&assignmentId=3TVSS0C0E2M52QFNPOLDGY0JMIHWT4&a=0SVT9&tp_a=0SVT9&b=3TVSS0C0E2M52QFNPOLDGY0JMIHWT4&tp_b=3TVSS0C0E2M52QFNPOLDGY0JMIHWT4&c=365799&tp_c=365799"},{"rt":9306,"response":{"heads":"1","tails":"1"},"type":"response","condition":"seqFeedback","trueTheta":0.2,"classrooms":["C","D"],"studentTrueClassroom":"D","exampleSet":"second","trial_type":"survey-html-form","trial_index":42,"time_elapsed":480406,"internal_node_id":"0.0-35.0-0.0","params":{"nStudents":24,"maxFlips":30,"completionMinutes":45,"basePay":8,"maxBonus":9,"perTrialBonus":0.5,"perTrialBonusThreshold":0.05,"exampleCost":0.01},"classroomParams":{"A":{"a":1,"b":4},"B":{"a":4,"b":1},"C":{"a":2,"b":8},"D":{"a":8,"b":2}},"conditions":["nonSeqFull","nonSeqPartial","seqNoFeedback","seqFeedback"],"classroomPairings":[["A","B"],["C","D"]],"coinWeights":[0.2,0.5,0.8],"subjectId":"A19ZWBQT8A3LIR","assignmentId":"3TVSS0C0E2M52QFNPOLDGY0JMIHWT4","hitId":"3SD15I2WD2G0NA4TSPXGB81L5S7630","url":"https://gershmanlab.com/experiments/alicia/teaching/experiment/?hitId=3SD15I2WD2G0NA4TSPXGB81L5S7630&workerId=A19ZWBQT8A3LIR&assignmentId=3TVSS0C0E2M52QFNPOLDGY0JMIHWT4&a=0SVT9&tp_a=0SVT9&b=3TVSS0C0E2M52QFNPOLDGY0JMIHWT4&tp_b=3TVSS0C0E2M52QFNPOLDGY0JMIHWT4&c=365799&tp_c=365799","firstResponseHeads":2,"firstResponseTails":2,"secondResponseHeads":1,"secondResponseTails":1,"totalHeads":3,"totalTails":3,"studentIndex":3,"studentTrueHypers":{"a":8,"b":2},"studentGuess":0.6875,"delta":0.4875,"bonus":0,"bonusSoFar":0.48,"totalExamples":6},{"rt":null,"stimulus":"Sending examples to student... ","response":null,"trial_type":"html-keyboard-response","trial_index":43,"time_elapsed":482158,"internal_node_id":"0.0-36.0","params":{"nStudents":24,"maxFlips":30,"completionMinutes":45,"basePay":8,"maxBonus":9,"perTrialBonus":0.5,"perTrialBonusThreshold":0.05,"exampleCost":0.01},"classroomParams":{"A":{"a":1,"b":4},"B":{"a":4,"b":1},"C":{"a":2,"b":8},"D":{"a":8,"b":2}},"conditions":["nonSeqFull","nonSeqPartial","seqNoFeedback","seqFeedback"],"classroomPairings":[["A","B"],["C","D"]],"coinWeights":[0.2,0.5,0.8],"subjectId":"A19ZWBQT8A3LIR","assignmentId":"3TVSS0C0E2M52QFNPOLDGY0JMIHWT4","hitId":"3SD15I2WD2G0NA4TSPXGB81L5S7630","url":"https://gershmanlab.com/experiments/alicia/teaching/experiment/?hitId=3SD15I2WD2G0NA4TSPXGB81L5S7630&workerId=A19ZWBQT8A3LIR&assignmentId=3TVSS0C0E2M52QFNPOLDGY0JMIHWT4&a=0SVT9&tp_a=0SVT9&b=3TVSS0C0E2M52QFNPOLDGY0JMIHWT4&tp_b=3TVSS0C0E2M52QFNPOLDGY0JMIHWT4&c=365799&tp_c=365799"},{"rt":null,"stimulus":"Examples sent to student! Waiting for student...","response":null,"trial_type":"html-keyboard-response","trial_index":44,"time_elapsed":487162,"internal_node_id":"0.0-37.0","params":{"nStudents":24,"maxFlips":30,"completionMinutes":45,"basePay":8,"maxBonus":9,"perTrialBonus":0.5,"perTrialBonusThreshold":0.05,"exampleCost":0.01},"classroomParams":{"A":{"a":1,"b":4},"B":{"a":4,"b":1},"C":{"a":2,"b":8},"D":{"a":8,"b":2}},"conditions":["nonSeqFull","nonSeqPartial","seqNoFeedback","seqFeedback"],"classroomPairings":[["A","B"],["C","D"]],"coinWeights":[0.2,0.5,0.8],"subjectId":"A19ZWBQT8A3LIR","assignmentId":"3TVSS0C0E2M52QFNPOLDGY0JMIHWT4","hitId":"3SD15I2WD2G0NA4TSPXGB81L5S7630","url":"https://gershmanlab.com/experiments/alicia/teaching/experiment/?hitId=3SD15I2WD2G0NA4TSPXGB81L5S7630&workerId=A19ZWBQT8A3LIR&assignmentId=3TVSS0C0E2M52QFNPOLDGY0JMIHWT4&a=0SVT9&tp_a=0SVT9&b=3TVSS0C0E2M52QFNPOLDGY0JMIHWT4&tp_b=3TVSS0C0E2M52QFNPOLDGY0JMIHWT4&c=365799&tp_c=365799"},{"rt":5034,"stimulus":"\n                <p>Student 4's first guess for coin weight: <b style=\"color:Tomato\";>0.71</b></p>\n                <p>Student 4's second guess for coin weight: <b style=\"color:Tomato\";>0.69</b></p>\n                <p>You received a bonus of <b>$0.00</b> based on the student's second guess.</p>\n                <p>Total bonus so far: <b>$0.48</b></p>\n                <p>Press any key to continue.</p>\n                ","response":"d","trial_type":"html-keyboard-response","trial_index":45,"time_elapsed":492198,"internal_node_id":"0.0-38.0","params":{"nStudents":24,"maxFlips":30,"completionMinutes":45,"basePay":8,"maxBonus":9,"perTrialBonus":0.5,"perTrialBonusThreshold":0.05,"exampleCost":0.01},"classroomParams":{"A":{"a":1,"b":4},"B":{"a":4,"b":1},"C":{"a":2,"b":8},"D":{"a":8,"b":2}},"conditions":["nonSeqFull","nonSeqPartial","seqNoFeedback","seqFeedback"],"classroomPairings":[["A","B"],["C","D"]],"coinWeights":[0.2,0.5,0.8],"subjectId":"A19ZWBQT8A3LIR","assignmentId":"3TVSS0C0E2M52QFNPOLDGY0JMIHWT4","hitId":"3SD15I2WD2G0NA4TSPXGB81L5S7630","url":"https://gershmanlab.com/experiments/alicia/teaching/experiment/?hitId=3SD15I2WD2G0NA4TSPXGB81L5S7630&workerId=A19ZWBQT8A3LIR&assignmentId=3TVSS0C0E2M52QFNPOLDGY0JMIHWT4&a=0SVT9&tp_a=0SVT9&b=3TVSS0C0E2M52QFNPOLDGY0JMIHWT4&tp_b=3TVSS0C0E2M52QFNPOLDGY0JMIHWT4&c=365799&tp_c=365799"},{"rt":null,"stimulus":"<div style=\"font-size:60px;\">Next student</div>","response":null,"trial_type":"html-keyboard-response","trial_index":46,"time_elapsed":494202,"internal_node_id":"0.0-39.0-0.0","params":{"nStudents":24,"maxFlips":30,"completionMinutes":45,"basePay":8,"maxBonus":9,"perTrialBonus":0.5,"perTrialBonusThreshold":0.05,"exampleCost":0.01},"classroomParams":{"A":{"a":1,"b":4},"B":{"a":4,"b":1},"C":{"a":2,"b":8},"D":{"a":8,"b":2}},"conditions":["nonSeqFull","nonSeqPartial","seqNoFeedback","seqFeedback"],"classroomPairings":[["A","B"],["C","D"]],"coinWeights":[0.2,0.5,0.8],"subjectId":"A19ZWBQT8A3LIR","assignmentId":"3TVSS0C0E2M52QFNPOLDGY0JMIHWT4","hitId":"3SD15I2WD2G0NA4TSPXGB81L5S7630","url":"https://gershmanlab.com/experiments/alicia/teaching/experiment/?hitId=3SD15I2WD2G0NA4TSPXGB81L5S7630&workerId=A19ZWBQT8A3LIR&assignmentId=3TVSS0C0E2M52QFNPOLDGY0JMIHWT4&a=0SVT9&tp_a=0SVT9&b=3TVSS0C0E2M52QFNPOLDGY0JMIHWT4&tp_b=3TVSS0C0E2M52QFNPOLDGY0JMIHWT4&c=365799&tp_c=365799"},{"rt":2447,"stimulus":"\n            <h4 style=\"color:Orange;\">Student 5</h4>\n            <h2>The weight of your coin is <b style=\"color:Tomato;\">0.8</b>.</h2>\n            <p>In this block, you will be giving <b>two</b> sets of examples to Student 5.</p>\n                <p>You will see the student's guess after the first set of examples. You will also receive feedback at the end of the block.</p>\n            <p>To earn the highest bonus, you will have to <b>take into consideration the student's guess</b> when you choose your second set of examples.</p>","response":0,"trial_type":"html-button-response","trial_index":47,"time_elapsed":496652,"internal_node_id":"0.0-40.0","params":{"nStudents":24,"maxFlips":30,"completionMinutes":45,"basePay":8,"maxBonus":9,"perTrialBonus":0.5,"perTrialBonusThreshold":0.05,"exampleCost":0.01},"classroomParams":{"A":{"a":1,"b":4},"B":{"a":4,"b":1},"C":{"a":2,"b":8},"D":{"a":8,"b":2}},"conditions":["nonSeqFull","nonSeqPartial","seqNoFeedback","seqFeedback"],"classroomPairings":[["A","B"],["C","D"]],"coinWeights":[0.2,0.5,0.8],"subjectId":"A19ZWBQT8A3LIR","assignmentId":"3TVSS0C0E2M52QFNPOLDGY0JMIHWT4","hitId":"3SD15I2WD2G0NA4TSPXGB81L5S7630","url":"https://gershmanlab.com/experiments/alicia/teaching/experiment/?hitId=3SD15I2WD2G0NA4TSPXGB81L5S7630&workerId=A19ZWBQT8A3LIR&assignmentId=3TVSS0C0E2M52QFNPOLDGY0JMIHWT4&a=0SVT9&tp_a=0SVT9&b=3TVSS0C0E2M52QFNPOLDGY0JMIHWT4&tp_b=3TVSS0C0E2M52QFNPOLDGY0JMIHWT4&c=365799&tp_c=365799"},{"rt":7004,"response":{"heads":"3","tails":"3"},"type":"response","condition":"seqFeedback","trueTheta":0.8,"classrooms":["C","D"],"studentTrueClassroom":"C","exampleSet":"first","trial_type":"survey-html-form","trial_index":48,"time_elapsed":503657,"internal_node_id":"0.0-41.0-0.0","params":{"nStudents":24,"maxFlips":30,"completionMinutes":45,"basePay":8,"maxBonus":9,"perTrialBonus":0.5,"perTrialBonusThreshold":0.05,"exampleCost":0.01},"classroomParams":{"A":{"a":1,"b":4},"B":{"a":4,"b":1},"C":{"a":2,"b":8},"D":{"a":8,"b":2}},"conditions":["nonSeqFull","nonSeqPartial","seqNoFeedback","seqFeedback"],"classroomPairings":[["A","B"],["C","D"]],"coinWeights":[0.2,0.5,0.8],"subjectId":"A19ZWBQT8A3LIR","assignmentId":"3TVSS0C0E2M52QFNPOLDGY0JMIHWT4","hitId":"3SD15I2WD2G0NA4TSPXGB81L5S7630","url":"https://gershmanlab.com/experiments/alicia/teaching/experiment/?hitId=3SD15I2WD2G0NA4TSPXGB81L5S7630&workerId=A19ZWBQT8A3LIR&assignmentId=3TVSS0C0E2M52QFNPOLDGY0JMIHWT4&a=0SVT9&tp_a=0SVT9&b=3TVSS0C0E2M52QFNPOLDGY0JMIHWT4&tp_b=3TVSS0C0E2M52QFNPOLDGY0JMIHWT4&c=365799&tp_c=365799","heads":3,"tails":3,"studentIndex":4,"studentTrueHypers":{"a":2,"b":8},"studentGuess":0.3125,"delta":0.48750000000000004,"totalExamples":6,"bonusSoFar":0.48},{"rt":null,"stimulus":"Sending examples to student... ","response":null,"trial_type":"html-keyboard-response","trial_index":49,"time_elapsed":505160,"internal_node_id":"0.0-42.0","params":{"nStudents":24,"maxFlips":30,"completionMinutes":45,"basePay":8,"maxBonus":9,"perTrialBonus":0.5,"perTrialBonusThreshold":0.05,"exampleCost":0.01},"classroomParams":{"A":{"a":1,"b":4},"B":{"a":4,"b":1},"C":{"a":2,"b":8},"D":{"a":8,"b":2}},"conditions":["nonSeqFull","nonSeqPartial","seqNoFeedback","seqFeedback"],"classroomPairings":[["A","B"],["C","D"]],"coinWeights":[0.2,0.5,0.8],"subjectId":"A19ZWBQT8A3LIR","assignmentId":"3TVSS0C0E2M52QFNPOLDGY0JMIHWT4","hitId":"3SD15I2WD2G0NA4TSPXGB81L5S7630","url":"https://gershmanlab.com/experiments/alicia/teaching/experiment/?hitId=3SD15I2WD2G0NA4TSPXGB81L5S7630&workerId=A19ZWBQT8A3LIR&assignmentId=3TVSS0C0E2M52QFNPOLDGY0JMIHWT4&a=0SVT9&tp_a=0SVT9&b=3TVSS0C0E2M52QFNPOLDGY0JMIHWT4&tp_b=3TVSS0C0E2M52QFNPOLDGY0JMIHWT4&c=365799&tp_c=365799"},{"rt":null,"stimulus":"Examples sent to student! Waiting for student...","response":null,"trial_type":"html-keyboard-response","trial_index":50,"time_elapsed":509163,"internal_node_id":"0.0-43.0","params":{"nStudents":24,"maxFlips":30,"completionMinutes":45,"basePay":8,"maxBonus":9,"perTrialBonus":0.5,"perTrialBonusThreshold":0.05,"exampleCost":0.01},"classroomParams":{"A":{"a":1,"b":4},"B":{"a":4,"b":1},"C":{"a":2,"b":8},"D":{"a":8,"b":2}},"conditions":["nonSeqFull","nonSeqPartial","seqNoFeedback","seqFeedback"],"classroomPairings":[["A","B"],["C","D"]],"coinWeights":[0.2,0.5,0.8],"subjectId":"A19ZWBQT8A3LIR","assignmentId":"3TVSS0C0E2M52QFNPOLDGY0JMIHWT4","hitId":"3SD15I2WD2G0NA4TSPXGB81L5S7630","url":"https://gershmanlab.com/experiments/alicia/teaching/experiment/?hitId=3SD15I2WD2G0NA4TSPXGB81L5S7630&workerId=A19ZWBQT8A3LIR&assignmentId=3TVSS0C0E2M52QFNPOLDGY0JMIHWT4&a=0SVT9&tp_a=0SVT9&b=3TVSS0C0E2M52QFNPOLDGY0JMIHWT4&tp_b=3TVSS0C0E2M52QFNPOLDGY0JMIHWT4&c=365799&tp_c=365799"},{"rt":2349,"stimulus":"\n                <p>Student's guess for coin weight: <b style=\"color:Tomato;\">0.31</b></p>\n                <p></b></p>\n                <p>You will now send another set of examples to your student. <b>Remember to take your student's guess into consideration so that you can earn the highest bonus possible!</b> </p>\n                <p>Press any key to continue.</p>\n                ","response":"v","trial_type":"html-keyboard-response","trial_index":51,"time_elapsed":511514,"internal_node_id":"0.0-44.0","params":{"nStudents":24,"maxFlips":30,"completionMinutes":45,"basePay":8,"maxBonus":9,"perTrialBonus":0.5,"perTrialBonusThreshold":0.05,"exampleCost":0.01},"classroomParams":{"A":{"a":1,"b":4},"B":{"a":4,"b":1},"C":{"a":2,"b":8},"D":{"a":8,"b":2}},"conditions":["nonSeqFull","nonSeqPartial","seqNoFeedback","seqFeedback"],"classroomPairings":[["A","B"],["C","D"]],"coinWeights":[0.2,0.5,0.8],"subjectId":"A19ZWBQT8A3LIR","assignmentId":"3TVSS0C0E2M52QFNPOLDGY0JMIHWT4","hitId":"3SD15I2WD2G0NA4TSPXGB81L5S7630","url":"https://gershmanlab.com/experiments/alicia/teaching/experiment/?hitId=3SD15I2WD2G0NA4TSPXGB81L5S7630&workerId=A19ZWBQT8A3LIR&assignmentId=3TVSS0C0E2M52QFNPOLDGY0JMIHWT4&a=0SVT9&tp_a=0SVT9&b=3TVSS0C0E2M52QFNPOLDGY0JMIHWT4&tp_b=3TVSS0C0E2M52QFNPOLDGY0JMIHWT4&c=365799&tp_c=365799"},{"rt":5206,"response":{"heads":"3","tails":"3"},"type":"response","condition":"seqFeedback","trueTheta":0.8,"classrooms":["C","D"],"studentTrueClassroom":"C","exampleSet":"second","trial_type":"survey-html-form","trial_index":52,"time_elapsed":516722,"internal_node_id":"0.0-45.0-0.0","params":{"nStudents":24,"maxFlips":30,"completionMinutes":45,"basePay":8,"maxBonus":9,"perTrialBonus":0.5,"perTrialBonusThreshold":0.05,"exampleCost":0.01},"classroomParams":{"A":{"a":1,"b":4},"B":{"a":4,"b":1},"C":{"a":2,"b":8},"D":{"a":8,"b":2}},"conditions":["nonSeqFull","nonSeqPartial","seqNoFeedback","seqFeedback"],"classroomPairings":[["A","B"],["C","D"]],"coinWeights":[0.2,0.5,0.8],"subjectId":"A19ZWBQT8A3LIR","assignmentId":"3TVSS0C0E2M52QFNPOLDGY0JMIHWT4","hitId":"3SD15I2WD2G0NA4TSPXGB81L5S7630","url":"https://gershmanlab.com/experiments/alicia/teaching/experiment/?hitId=3SD15I2WD2G0NA4TSPXGB81L5S7630&workerId=A19ZWBQT8A3LIR&assignmentId=3TVSS0C0E2M52QFNPOLDGY0JMIHWT4&a=0SVT9&tp_a=0SVT9&b=3TVSS0C0E2M52QFNPOLDGY0JMIHWT4&tp_b=3TVSS0C0E2M52QFNPOLDGY0JMIHWT4&c=365799&tp_c=365799","firstResponseHeads":3,"firstResponseTails":3,"secondResponseHeads":3,"secondResponseTails":3,"totalHeads":6,"totalTails":6,"studentIndex":4,"studentTrueHypers":{"a":2,"b":8},"studentGuess":0.36363636363636365,"delta":0.4363636363636364,"bonus":0,"bonusSoFar":0.48,"totalExamples":12},{"rt":null,"stimulus":"Sending examples to student... ","response":null,"trial_type":"html-keyboard-response","trial_index":53,"time_elapsed":518223,"internal_node_id":"0.0-46.0","params":{"nStudents":24,"maxFlips":30,"completionMinutes":45,"basePay":8,"maxBonus":9,"perTrialBonus":0.5,"perTrialBonusThreshold":0.05,"exampleCost":0.01},"classroomParams":{"A":{"a":1,"b":4},"B":{"a":4,"b":1},"C":{"a":2,"b":8},"D":{"a":8,"b":2}},"conditions":["nonSeqFull","nonSeqPartial","seqNoFeedback","seqFeedback"],"classroomPairings":[["A","B"],["C","D"]],"coinWeights":[0.2,0.5,0.8],"subjectId":"A19ZWBQT8A3LIR","assignmentId":"3TVSS0C0E2M52QFNPOLDGY0JMIHWT4","hitId":"3SD15I2WD2G0NA4TSPXGB81L5S7630","url":"https://gershmanlab.com/experiments/alicia/teaching/experiment/?hitId=3SD15I2WD2G0NA4TSPXGB81L5S7630&workerId=A19ZWBQT8A3LIR&assignmentId=3TVSS0C0E2M52QFNPOLDGY0JMIHWT4&a=0SVT9&tp_a=0SVT9&b=3TVSS0C0E2M52QFNPOLDGY0JMIHWT4&tp_b=3TVSS0C0E2M52QFNPOLDGY0JMIHWT4&c=365799&tp_c=365799"},{"rt":null,"stimulus":"Examples sent to student! Waiting for student...","response":null,"trial_type":"html-keyboard-response","trial_index":54,"time_elapsed":522226,"internal_node_id":"0.0-47.0","params":{"nStudents":24,"maxFlips":30,"completionMinutes":45,"basePay":8,"maxBonus":9,"perTrialBonus":0.5,"perTrialBonusThreshold":0.05,"exampleCost":0.01},"classroomParams":{"A":{"a":1,"b":4},"B":{"a":4,"b":1},"C":{"a":2,"b":8},"D":{"a":8,"b":2}},"conditions":["nonSeqFull","nonSeqPartial","seqNoFeedback","seqFeedback"],"classroomPairings":[["A","B"],["C","D"]],"coinWeights":[0.2,0.5,0.8],"subjectId":"A19ZWBQT8A3LIR","assignmentId":"3TVSS0C0E2M52QFNPOLDGY0JMIHWT4","hitId":"3SD15I2WD2G0NA4TSPXGB81L5S7630","url":"https://gershmanlab.com/experiments/alicia/teaching/experiment/?hitId=3SD15I2WD2G0NA4TSPXGB81L5S7630&workerId=A19ZWBQT8A3LIR&assignmentId=3TVSS0C0E2M52QFNPOLDGY0JMIHWT4&a=0SVT9&tp_a=0SVT9&b=3TVSS0C0E2M52QFNPOLDGY0JMIHWT4&tp_b=3TVSS0C0E2M52QFNPOLDGY0JMIHWT4&c=365799&tp_c=365799"},{"rt":3481,"stimulus":"\n                <p>Student 5's first guess for coin weight: <b style=\"color:Tomato\";>0.31</b></p>\n                <p>Student 5's second guess for coin weight: <b style=\"color:Tomato\";>0.36</b></p>\n                <p>You received a bonus of <b>$0.00</b> based on the student's second guess.</p>\n                <p>Total bonus so far: <b>$0.48</b></p>\n                <p>Press any key to continue.</p>\n                ","response":"f","trial_type":"html-keyboard-response","trial_index":55,"time_elapsed":525709,"internal_node_id":"0.0-48.0","params":{"nStudents":24,"maxFlips":30,"completionMinutes":45,"basePay":8,"maxBonus":9,"perTrialBonus":0.5,"perTrialBonusThreshold":0.05,"exampleCost":0.01},"classroomParams":{"A":{"a":1,"b":4},"B":{"a":4,"b":1},"C":{"a":2,"b":8},"D":{"a":8,"b":2}},"conditions":["nonSeqFull","nonSeqPartial","seqNoFeedback","seqFeedback"],"classroomPairings":[["A","B"],["C","D"]],"coinWeights":[0.2,0.5,0.8],"subjectId":"A19ZWBQT8A3LIR","assignmentId":"3TVSS0C0E2M52QFNPOLDGY0JMIHWT4","hitId":"3SD15I2WD2G0NA4TSPXGB81L5S7630","url":"https://gershmanlab.com/experiments/alicia/teaching/experiment/?hitId=3SD15I2WD2G0NA4TSPXGB81L5S7630&workerId=A19ZWBQT8A3LIR&assignmentId=3TVSS0C0E2M52QFNPOLDGY0JMIHWT4&a=0SVT9&tp_a=0SVT9&b=3TVSS0C0E2M52QFNPOLDGY0JMIHWT4&tp_b=3TVSS0C0E2M52QFNPOLDGY0JMIHWT4&c=365799&tp_c=365799"},{"rt":null,"stimulus":"<div style=\"font-size:60px;\">Next student</div>","response":null,"trial_type":"html-keyboard-response","trial_index":56,"time_elapsed":528711,"internal_node_id":"0.0-49.0-0.0","params":{"nStudents":24,"maxFlips":30,"completionMinutes":45,"basePay":8,"maxBonus":9,"perTrialBonus":0.5,"perTrialBonusThreshold":0.05,"exampleCost":0.01},"classroomParams":{"A":{"a":1,"b":4},"B":{"a":4,"b":1},"C":{"a":2,"b":8},"D":{"a":8,"b":2}},"conditions":["nonSeqFull","nonSeqPartial","seqNoFeedback","seqFeedback"],"classroomPairings":[["A","B"],["C","D"]],"coinWeights":[0.2,0.5,0.8],"subjectId":"A19ZWBQT8A3LIR","assignmentId":"3TVSS0C0E2M52QFNPOLDGY0JMIHWT4","hitId":"3SD15I2WD2G0NA4TSPXGB81L5S7630","url":"https://gershmanlab.com/experiments/alicia/teaching/experiment/?hitId=3SD15I2WD2G0NA4TSPXGB81L5S7630&workerId=A19ZWBQT8A3LIR&assignmentId=3TVSS0C0E2M52QFNPOLDGY0JMIHWT4&a=0SVT9&tp_a=0SVT9&b=3TVSS0C0E2M52QFNPOLDGY0JMIHWT4&tp_b=3TVSS0C0E2M52QFNPOLDGY0JMIHWT4&c=365799&tp_c=365799"},{"rt":1870,"stimulus":"\n            <h4 style=\"color:Orange;\">Student 6</h4>\n            <h2>The weight of your coin is <b style=\"color:Tomato;\">0.2</b>.</h2>\n            <p>In this block, you will be giving <b>one</b> set of examples to Student 6.</p>\n                <p>You will receive feedback at the end of the block.</p>\n            <p></p>","response":0,"trial_type":"html-button-response","trial_index":57,"time_elapsed":530583,"internal_node_id":"0.0-50.0","params":{"nStudents":24,"maxFlips":30,"completionMinutes":45,"basePay":8,"maxBonus":9,"perTrialBonus":0.5,"perTrialBonusThreshold":0.05,"exampleCost":0.01},"classroomParams":{"A":{"a":1,"b":4},"B":{"a":4,"b":1},"C":{"a":2,"b":8},"D":{"a":8,"b":2}},"conditions":["nonSeqFull","nonSeqPartial","seqNoFeedback","seqFeedback"],"classroomPairings":[["A","B"],["C","D"]],"coinWeights":[0.2,0.5,0.8],"subjectId":"A19ZWBQT8A3LIR","assignmentId":"3TVSS0C0E2M52QFNPOLDGY0JMIHWT4","hitId":"3SD15I2WD2G0NA4TSPXGB81L5S7630","url":"https://gershmanlab.com/experiments/alicia/teaching/experiment/?hitId=3SD15I2WD2G0NA4TSPXGB81L5S7630&workerId=A19ZWBQT8A3LIR&assignmentId=3TVSS0C0E2M52QFNPOLDGY0JMIHWT4&a=0SVT9&tp_a=0SVT9&b=3TVSS0C0E2M52QFNPOLDGY0JMIHWT4&tp_b=3TVSS0C0E2M52QFNPOLDGY0JMIHWT4&c=365799&tp_c=365799"},{"rt":7737,"response":{"heads":"5","tails":"5"},"type":"response","condition":"nonSeqPartial","trueTheta":0.2,"classrooms":["A","B"],"studentTrueClassroom":"A","exampleSet":"first","trial_type":"survey-html-form","trial_index":58,"time_elapsed":538323,"internal_node_id":"0.0-51.0-0.0","params":{"nStudents":24,"maxFlips":30,"completionMinutes":45,"basePay":8,"maxBonus":9,"perTrialBonus":0.5,"perTrialBonusThreshold":0.05,"exampleCost":0.01},"classroomParams":{"A":{"a":1,"b":4},"B":{"a":4,"b":1},"C":{"a":2,"b":8},"D":{"a":8,"b":2}},"conditions":["nonSeqFull","nonSeqPartial","seqNoFeedback","seqFeedback"],"classroomPairings":[["A","B"],["C","D"]],"coinWeights":[0.2,0.5,0.8],"subjectId":"A19ZWBQT8A3LIR","assignmentId":"3TVSS0C0E2M52QFNPOLDGY0JMIHWT4","hitId":"3SD15I2WD2G0NA4TSPXGB81L5S7630","url":"https://gershmanlab.com/experiments/alicia/teaching/experiment/?hitId=3SD15I2WD2G0NA4TSPXGB81L5S7630&workerId=A19ZWBQT8A3LIR&assignmentId=3TVSS0C0E2M52QFNPOLDGY0JMIHWT4&a=0SVT9&tp_a=0SVT9&b=3TVSS0C0E2M52QFNPOLDGY0JMIHWT4&tp_b=3TVSS0C0E2M52QFNPOLDGY0JMIHWT4&c=365799&tp_c=365799","heads":5,"tails":5,"studentIndex":5,"studentTrueHypers":{"a":1,"b":4},"studentGuess":0.4,"delta":0.2,"totalExamples":10,"bonus":0,"bonusSoFar":0.48},{"rt":null,"stimulus":"Sending examples to student... ","response":null,"trial_type":"html-keyboard-response","trial_index":59,"time_elapsed":540079,"internal_node_id":"0.0-52.0","params":{"nStudents":24,"maxFlips":30,"completionMinutes":45,"basePay":8,"maxBonus":9,"perTrialBonus":0.5,"perTrialBonusThreshold":0.05,"exampleCost":0.01},"classroomParams":{"A":{"a":1,"b":4},"B":{"a":4,"b":1},"C":{"a":2,"b":8},"D":{"a":8,"b":2}},"conditions":["nonSeqFull","nonSeqPartial","seqNoFeedback","seqFeedback"],"classroomPairings":[["A","B"],["C","D"]],"coinWeights":[0.2,0.5,0.8],"subjectId":"A19ZWBQT8A3LIR","assignmentId":"3TVSS0C0E2M52QFNPOLDGY0JMIHWT4","hitId":"3SD15I2WD2G0NA4TSPXGB81L5S7630","url":"https://gershmanlab.com/experiments/alicia/teaching/experiment/?hitId=3SD15I2WD2G0NA4TSPXGB81L5S7630&workerId=A19ZWBQT8A3LIR&assignmentId=3TVSS0C0E2M52QFNPOLDGY0JMIHWT4&a=0SVT9&tp_a=0SVT9&b=3TVSS0C0E2M52QFNPOLDGY0JMIHWT4&tp_b=3TVSS0C0E2M52QFNPOLDGY0JMIHWT4&c=365799&tp_c=365799"},{"rt":null,"stimulus":"Examples sent to student! Waiting for student...","response":null,"trial_type":"html-keyboard-response","trial_index":60,"time_elapsed":546082,"internal_node_id":"0.0-53.0","params":{"nStudents":24,"maxFlips":30,"completionMinutes":45,"basePay":8,"maxBonus":9,"perTrialBonus":0.5,"perTrialBonusThreshold":0.05,"exampleCost":0.01},"classroomParams":{"A":{"a":1,"b":4},"B":{"a":4,"b":1},"C":{"a":2,"b":8},"D":{"a":8,"b":2}},"conditions":["nonSeqFull","nonSeqPartial","seqNoFeedback","seqFeedback"],"classroomPairings":[["A","B"],["C","D"]],"coinWeights":[0.2,0.5,0.8],"subjectId":"A19ZWBQT8A3LIR","assignmentId":"3TVSS0C0E2M52QFNPOLDGY0JMIHWT4","hitId":"3SD15I2WD2G0NA4TSPXGB81L5S7630","url":"https://gershmanlab.com/experiments/alicia/teaching/experiment/?hitId=3SD15I2WD2G0NA4TSPXGB81L5S7630&workerId=A19ZWBQT8A3LIR&assignmentId=3TVSS0C0E2M52QFNPOLDGY0JMIHWT4&a=0SVT9&tp_a=0SVT9&b=3TVSS0C0E2M52QFNPOLDGY0JMIHWT4&tp_b=3TVSS0C0E2M52QFNPOLDGY0JMIHWT4&c=365799&tp_c=365799"},{"rt":2944,"stimulus":"\n                <p>Student's guess for coin weight: <b style=\"color:Tomato;\">0.40</b></p>\n                <p>You received a bonus of <b>$0</b>. Total bonus so far: <b>$0.48</b></b></p>\n                <p></p>\n                <p>Press any key to continue.</p>\n                ","response":"v","trial_type":"html-keyboard-response","trial_index":61,"time_elapsed":549028,"internal_node_id":"0.0-54.0","params":{"nStudents":24,"maxFlips":30,"completionMinutes":45,"basePay":8,"maxBonus":9,"perTrialBonus":0.5,"perTrialBonusThreshold":0.05,"exampleCost":0.01},"classroomParams":{"A":{"a":1,"b":4},"B":{"a":4,"b":1},"C":{"a":2,"b":8},"D":{"a":8,"b":2}},"conditions":["nonSeqFull","nonSeqPartial","seqNoFeedback","seqFeedback"],"classroomPairings":[["A","B"],["C","D"]],"coinWeights":[0.2,0.5,0.8],"subjectId":"A19ZWBQT8A3LIR","assignmentId":"3TVSS0C0E2M52QFNPOLDGY0JMIHWT4","hitId":"3SD15I2WD2G0NA4TSPXGB81L5S7630","url":"https://gershmanlab.com/experiments/alicia/teaching/experiment/?hitId=3SD15I2WD2G0NA4TSPXGB81L5S7630&workerId=A19ZWBQT8A3LIR&assignmentId=3TVSS0C0E2M52QFNPOLDGY0JMIHWT4&a=0SVT9&tp_a=0SVT9&b=3TVSS0C0E2M52QFNPOLDGY0JMIHWT4&tp_b=3TVSS0C0E2M52QFNPOLDGY0JMIHWT4&c=365799&tp_c=365799"},{"rt":null,"stimulus":"<div style=\"font-size:60px;\">Next student</div>","response":null,"trial_type":"html-keyboard-response","trial_index":62,"time_elapsed":552030,"internal_node_id":"0.0-55.0-0.0","params":{"nStudents":24,"maxFlips":30,"completionMinutes":45,"basePay":8,"maxBonus":9,"perTrialBonus":0.5,"perTrialBonusThreshold":0.05,"exampleCost":0.01},"classroomParams":{"A":{"a":1,"b":4},"B":{"a":4,"b":1},"C":{"a":2,"b":8},"D":{"a":8,"b":2}},"conditions":["nonSeqFull","nonSeqPartial","seqNoFeedback","seqFeedback"],"classroomPairings":[["A","B"],["C","D"]],"coinWeights":[0.2,0.5,0.8],"subjectId":"A19ZWBQT8A3LIR","assignmentId":"3TVSS0C0E2M52QFNPOLDGY0JMIHWT4","hitId":"3SD15I2WD2G0NA4TSPXGB81L5S7630","url":"https://gershmanlab.com/experiments/alicia/teaching/experiment/?hitId=3SD15I2WD2G0NA4TSPXGB81L5S7630&workerId=A19ZWBQT8A3LIR&assignmentId=3TVSS0C0E2M52QFNPOLDGY0JMIHWT4&a=0SVT9&tp_a=0SVT9&b=3TVSS0C0E2M52QFNPOLDGY0JMIHWT4&tp_b=3TVSS0C0E2M52QFNPOLDGY0JMIHWT4&c=365799&tp_c=365799"},{"rt":1110,"stimulus":"\n            <h4 style=\"color:Orange;\">Student 7</h4>\n            <h2>The weight of your coin is <b style=\"color:Tomato;\">0.5</b>.</h2>\n            <p>In this block, you will be giving <b>two</b> sets of examples to Student 7.</p>\n                <p>You will receive feedback at the end of the block.</p>\n            <p></p>","response":0,"trial_type":"html-button-response","trial_index":63,"time_elapsed":553141,"internal_node_id":"0.0-56.0","params":{"nStudents":24,"maxFlips":30,"completionMinutes":45,"basePay":8,"maxBonus":9,"perTrialBonus":0.5,"perTrialBonusThreshold":0.05,"exampleCost":0.01},"classroomParams":{"A":{"a":1,"b":4},"B":{"a":4,"b":1},"C":{"a":2,"b":8},"D":{"a":8,"b":2}},"conditions":["nonSeqFull","nonSeqPartial","seqNoFeedback","seqFeedback"],"classroomPairings":[["A","B"],["C","D"]],"coinWeights":[0.2,0.5,0.8],"subjectId":"A19ZWBQT8A3LIR","assignmentId":"3TVSS0C0E2M52QFNPOLDGY0JMIHWT4","hitId":"3SD15I2WD2G0NA4TSPXGB81L5S7630","url":"https://gershmanlab.com/experiments/alicia/teaching/experiment/?hitId=3SD15I2WD2G0NA4TSPXGB81L5S7630&workerId=A19ZWBQT8A3LIR&assignmentId=3TVSS0C0E2M52QFNPOLDGY0JMIHWT4&a=0SVT9&tp_a=0SVT9&b=3TVSS0C0E2M52QFNPOLDGY0JMIHWT4&tp_b=3TVSS0C0E2M52QFNPOLDGY0JMIHWT4&c=365799&tp_c=365799"},{"rt":5596,"response":{"heads":"6","tails":"6"},"type":"response","condition":"seqNoFeedback","trueTheta":0.5,"classrooms":["A","B"],"studentTrueClassroom":"B","exampleSet":"first","trial_type":"survey-html-form","trial_index":64,"time_elapsed":558738,"internal_node_id":"0.0-57.0-0.0","params":{"nStudents":24,"maxFlips":30,"completionMinutes":45,"basePay":8,"maxBonus":9,"perTrialBonus":0.5,"perTrialBonusThreshold":0.05,"exampleCost":0.01},"classroomParams":{"A":{"a":1,"b":4},"B":{"a":4,"b":1},"C":{"a":2,"b":8},"D":{"a":8,"b":2}},"conditions":["nonSeqFull","nonSeqPartial","seqNoFeedback","seqFeedback"],"classroomPairings":[["A","B"],["C","D"]],"coinWeights":[0.2,0.5,0.8],"subjectId":"A19ZWBQT8A3LIR","assignmentId":"3TVSS0C0E2M52QFNPOLDGY0JMIHWT4","hitId":"3SD15I2WD2G0NA4TSPXGB81L5S7630","url":"https://gershmanlab.com/experiments/alicia/teaching/experiment/?hitId=3SD15I2WD2G0NA4TSPXGB81L5S7630&workerId=A19ZWBQT8A3LIR&assignmentId=3TVSS0C0E2M52QFNPOLDGY0JMIHWT4&a=0SVT9&tp_a=0SVT9&b=3TVSS0C0E2M52QFNPOLDGY0JMIHWT4&tp_b=3TVSS0C0E2M52QFNPOLDGY0JMIHWT4&c=365799&tp_c=365799","heads":6,"tails":6,"studentIndex":6,"studentTrueHypers":{"a":4,"b":1},"studentGuess":0.5882352941176471,"delta":0.08823529411764708,"totalExamples":12,"bonusSoFar":0.48},{"rt":null,"stimulus":"Sending examples to student... ","response":null,"trial_type":"html-keyboard-response","trial_index":65,"time_elapsed":560241,"internal_node_id":"0.0-58.0","params":{"nStudents":24,"maxFlips":30,"completionMinutes":45,"basePay":8,"maxBonus":9,"perTrialBonus":0.5,"perTrialBonusThreshold":0.05,"exampleCost":0.01},"classroomParams":{"A":{"a":1,"b":4},"B":{"a":4,"b":1},"C":{"a":2,"b":8},"D":{"a":8,"b":2}},"conditions":["nonSeqFull","nonSeqPartial","seqNoFeedback","seqFeedback"],"classroomPairings":[["A","B"],["C","D"]],"coinWeights":[0.2,0.5,0.8],"subjectId":"A19ZWBQT8A3LIR","assignmentId":"3TVSS0C0E2M52QFNPOLDGY0JMIHWT4","hitId":"3SD15I2WD2G0NA4TSPXGB81L5S7630","url":"https://gershmanlab.com/experiments/alicia/teaching/experiment/?hitId=3SD15I2WD2G0NA4TSPXGB81L5S7630&workerId=A19ZWBQT8A3LIR&assignmentId=3TVSS0C0E2M52QFNPOLDGY0JMIHWT4&a=0SVT9&tp_a=0SVT9&b=3TVSS0C0E2M52QFNPOLDGY0JMIHWT4&tp_b=3TVSS0C0E2M52QFNPOLDGY0JMIHWT4&c=365799&tp_c=365799"},{"rt":null,"stimulus":"Examples sent to student! Waiting for student...","response":null,"trial_type":"html-keyboard-response","trial_index":66,"time_elapsed":565744,"internal_node_id":"0.0-59.0","params":{"nStudents":24,"maxFlips":30,"completionMinutes":45,"basePay":8,"maxBonus":9,"perTrialBonus":0.5,"perTrialBonusThreshold":0.05,"exampleCost":0.01},"classroomParams":{"A":{"a":1,"b":4},"B":{"a":4,"b":1},"C":{"a":2,"b":8},"D":{"a":8,"b":2}},"conditions":["nonSeqFull","nonSeqPartial","seqNoFeedback","seqFeedback"],"classroomPairings":[["A","B"],["C","D"]],"coinWeights":[0.2,0.5,0.8],"subjectId":"A19ZWBQT8A3LIR","assignmentId":"3TVSS0C0E2M52QFNPOLDGY0JMIHWT4","hitId":"3SD15I2WD2G0NA4TSPXGB81L5S7630","url":"https://gershmanlab.com/experiments/alicia/teaching/experiment/?hitId=3SD15I2WD2G0NA4TSPXGB81L5S7630&workerId=A19ZWBQT8A3LIR&assignmentId=3TVSS0C0E2M52QFNPOLDGY0JMIHWT4&a=0SVT9&tp_a=0SVT9&b=3TVSS0C0E2M52QFNPOLDGY0JMIHWT4&tp_b=3TVSS0C0E2M52QFNPOLDGY0JMIHWT4&c=365799&tp_c=365799"},{"rt":5532,"response":{"heads":"6","tails":"6"},"type":"response","condition":"seqNoFeedback","trueTheta":0.5,"classrooms":["A","B"],"studentTrueClassroom":"B","exampleSet":"second","trial_type":"survey-html-form","trial_index":67,"time_elapsed":571278,"internal_node_id":"0.0-60.0-0.0","params":{"nStudents":24,"maxFlips":30,"completionMinutes":45,"basePay":8,"maxBonus":9,"perTrialBonus":0.5,"perTrialBonusThreshold":0.05,"exampleCost":0.01},"classroomParams":{"A":{"a":1,"b":4},"B":{"a":4,"b":1},"C":{"a":2,"b":8},"D":{"a":8,"b":2}},"conditions":["nonSeqFull","nonSeqPartial","seqNoFeedback","seqFeedback"],"classroomPairings":[["A","B"],["C","D"]],"coinWeights":[0.2,0.5,0.8],"subjectId":"A19ZWBQT8A3LIR","assignmentId":"3TVSS0C0E2M52QFNPOLDGY0JMIHWT4","hitId":"3SD15I2WD2G0NA4TSPXGB81L5S7630","url":"https://gershmanlab.com/experiments/alicia/teaching/experiment/?hitId=3SD15I2WD2G0NA4TSPXGB81L5S7630&workerId=A19ZWBQT8A3LIR&assignmentId=3TVSS0C0E2M52QFNPOLDGY0JMIHWT4&a=0SVT9&tp_a=0SVT9&b=3TVSS0C0E2M52QFNPOLDGY0JMIHWT4&tp_b=3TVSS0C0E2M52QFNPOLDGY0JMIHWT4&c=365799&tp_c=365799","firstResponseHeads":6,"firstResponseTails":6,"secondResponseHeads":6,"secondResponseTails":6,"totalHeads":12,"totalTails":12,"studentIndex":6,"studentTrueHypers":{"a":4,"b":1},"studentGuess":0.5517241379310345,"delta":0.051724137931034475,"bonus":0,"bonusSoFar":0.48,"totalExamples":24},{"rt":null,"stimulus":"Sending examples to student... ","response":null,"trial_type":"html-keyboard-response","trial_index":68,"time_elapsed":572780,"internal_node_id":"0.0-61.0","params":{"nStudents":24,"maxFlips":30,"completionMinutes":45,"basePay":8,"maxBonus":9,"perTrialBonus":0.5,"perTrialBonusThreshold":0.05,"exampleCost":0.01},"classroomParams":{"A":{"a":1,"b":4},"B":{"a":4,"b":1},"C":{"a":2,"b":8},"D":{"a":8,"b":2}},"conditions":["nonSeqFull","nonSeqPartial","seqNoFeedback","seqFeedback"],"classroomPairings":[["A","B"],["C","D"]],"coinWeights":[0.2,0.5,0.8],"subjectId":"A19ZWBQT8A3LIR","assignmentId":"3TVSS0C0E2M52QFNPOLDGY0JMIHWT4","hitId":"3SD15I2WD2G0NA4TSPXGB81L5S7630","url":"https://gershmanlab.com/experiments/alicia/teaching/experiment/?hitId=3SD15I2WD2G0NA4TSPXGB81L5S7630&workerId=A19ZWBQT8A3LIR&assignmentId=3TVSS0C0E2M52QFNPOLDGY0JMIHWT4&a=0SVT9&tp_a=0SVT9&b=3TVSS0C0E2M52QFNPOLDGY0JMIHWT4&tp_b=3TVSS0C0E2M52QFNPOLDGY0JMIHWT4&c=365799&tp_c=365799"},{"rt":null,"stimulus":"Examples sent to student! Waiting for student...","response":null,"trial_type":"html-keyboard-response","trial_index":69,"time_elapsed":577783,"internal_node_id":"0.0-62.0","params":{"nStudents":24,"maxFlips":30,"completionMinutes":45,"basePay":8,"maxBonus":9,"perTrialBonus":0.5,"perTrialBonusThreshold":0.05,"exampleCost":0.01},"classroomParams":{"A":{"a":1,"b":4},"B":{"a":4,"b":1},"C":{"a":2,"b":8},"D":{"a":8,"b":2}},"conditions":["nonSeqFull","nonSeqPartial","seqNoFeedback","seqFeedback"],"classroomPairings":[["A","B"],["C","D"]],"coinWeights":[0.2,0.5,0.8],"subjectId":"A19ZWBQT8A3LIR","assignmentId":"3TVSS0C0E2M52QFNPOLDGY0JMIHWT4","hitId":"3SD15I2WD2G0NA4TSPXGB81L5S7630","url":"https://gershmanlab.com/experiments/alicia/teaching/experiment/?hitId=3SD15I2WD2G0NA4TSPXGB81L5S7630&workerId=A19ZWBQT8A3LIR&assignmentId=3TVSS0C0E2M52QFNPOLDGY0JMIHWT4&a=0SVT9&tp_a=0SVT9&b=3TVSS0C0E2M52QFNPOLDGY0JMIHWT4&tp_b=3TVSS0C0E2M52QFNPOLDGY0JMIHWT4&c=365799&tp_c=365799"},{"rt":1935,"stimulus":"\n                <p>Student 7's first guess for coin weight: <b style=\"color:Tomato\";>0.59</b></p>\n                <p>Student 7's second guess for coin weight: <b style=\"color:Tomato\";>0.55</b></p>\n                <p>You received a bonus of <b>$0.00</b> based on the student's second guess.</p>\n                <p>Total bonus so far: <b>$0.48</b></p>\n                <p>Press any key to continue.</p>\n                ","response":"g","trial_type":"html-keyboard-response","trial_index":70,"time_elapsed":579720,"internal_node_id":"0.0-63.0","params":{"nStudents":24,"maxFlips":30,"completionMinutes":45,"basePay":8,"maxBonus":9,"perTrialBonus":0.5,"perTrialBonusThreshold":0.05,"exampleCost":0.01},"classroomParams":{"A":{"a":1,"b":4},"B":{"a":4,"b":1},"C":{"a":2,"b":8},"D":{"a":8,"b":2}},"conditions":["nonSeqFull","nonSeqPartial","seqNoFeedback","seqFeedback"],"classroomPairings":[["A","B"],["C","D"]],"coinWeights":[0.2,0.5,0.8],"subjectId":"A19ZWBQT8A3LIR","assignmentId":"3TVSS0C0E2M52QFNPOLDGY0JMIHWT4","hitId":"3SD15I2WD2G0NA4TSPXGB81L5S7630","url":"https://gershmanlab.com/experiments/alicia/teaching/experiment/?hitId=3SD15I2WD2G0NA4TSPXGB81L5S7630&workerId=A19ZWBQT8A3LIR&assignmentId=3TVSS0C0E2M52QFNPOLDGY0JMIHWT4&a=0SVT9&tp_a=0SVT9&b=3TVSS0C0E2M52QFNPOLDGY0JMIHWT4&tp_b=3TVSS0C0E2M52QFNPOLDGY0JMIHWT4&c=365799&tp_c=365799"},{"rt":null,"stimulus":"<div style=\"font-size:60px;\">Next student</div>","response":null,"trial_type":"html-keyboard-response","trial_index":71,"time_elapsed":581972,"internal_node_id":"0.0-64.0-0.0","params":{"nStudents":24,"maxFlips":30,"completionMinutes":45,"basePay":8,"maxBonus":9,"perTrialBonus":0.5,"perTrialBonusThreshold":0.05,"exampleCost":0.01},"classroomParams":{"A":{"a":1,"b":4},"B":{"a":4,"b":1},"C":{"a":2,"b":8},"D":{"a":8,"b":2}},"conditions":["nonSeqFull","nonSeqPartial","seqNoFeedback","seqFeedback"],"classroomPairings":[["A","B"],["C","D"]],"coinWeights":[0.2,0.5,0.8],"subjectId":"A19ZWBQT8A3LIR","assignmentId":"3TVSS0C0E2M52QFNPOLDGY0JMIHWT4","hitId":"3SD15I2WD2G0NA4TSPXGB81L5S7630","url":"https://gershmanlab.com/experiments/alicia/teaching/experiment/?hitId=3SD15I2WD2G0NA4TSPXGB81L5S7630&workerId=A19ZWBQT8A3LIR&assignmentId=3TVSS0C0E2M52QFNPOLDGY0JMIHWT4&a=0SVT9&tp_a=0SVT9&b=3TVSS0C0E2M52QFNPOLDGY0JMIHWT4&tp_b=3TVSS0C0E2M52QFNPOLDGY0JMIHWT4&c=365799&tp_c=365799"},{"rt":1273,"stimulus":"\n            <h4 style=\"color:Orange;\">Student 8</h4>\n            <h2>The weight of your coin is <b style=\"color:Tomato;\">0.5</b>.</h2>\n            <p>In this block, you will be giving <b>one</b> set of examples to Student 8.</p>\n                <p>You will receive feedback at the end of the block.</p>\n            <p></p>","response":0,"trial_type":"html-button-response","trial_index":72,"time_elapsed":583248,"internal_node_id":"0.0-65.0","params":{"nStudents":24,"maxFlips":30,"completionMinutes":45,"basePay":8,"maxBonus":9,"perTrialBonus":0.5,"perTrialBonusThreshold":0.05,"exampleCost":0.01},"classroomParams":{"A":{"a":1,"b":4},"B":{"a":4,"b":1},"C":{"a":2,"b":8},"D":{"a":8,"b":2}},"conditions":["nonSeqFull","nonSeqPartial","seqNoFeedback","seqFeedback"],"classroomPairings":[["A","B"],["C","D"]],"coinWeights":[0.2,0.5,0.8],"subjectId":"A19ZWBQT8A3LIR","assignmentId":"3TVSS0C0E2M52QFNPOLDGY0JMIHWT4","hitId":"3SD15I2WD2G0NA4TSPXGB81L5S7630","url":"https://gershmanlab.com/experiments/alicia/teaching/experiment/?hitId=3SD15I2WD2G0NA4TSPXGB81L5S7630&workerId=A19ZWBQT8A3LIR&assignmentId=3TVSS0C0E2M52QFNPOLDGY0JMIHWT4&a=0SVT9&tp_a=0SVT9&b=3TVSS0C0E2M52QFNPOLDGY0JMIHWT4&tp_b=3TVSS0C0E2M52QFNPOLDGY0JMIHWT4&c=365799&tp_c=365799"},{"rt":6178,"response":{"heads":"7","tails":"7"},"type":"response","condition":"nonSeqPartial","trueTheta":0.5,"classrooms":["A","B"],"studentTrueClassroom":"B","exampleSet":"first","trial_type":"survey-html-form","trial_index":73,"time_elapsed":589429,"internal_node_id":"0.0-66.0-0.0","params":{"nStudents":24,"maxFlips":30,"completionMinutes":45,"basePay":8,"maxBonus":9,"perTrialBonus":0.5,"perTrialBonusThreshold":0.05,"exampleCost":0.01},"classroomParams":{"A":{"a":1,"b":4},"B":{"a":4,"b":1},"C":{"a":2,"b":8},"D":{"a":8,"b":2}},"conditions":["nonSeqFull","nonSeqPartial","seqNoFeedback","seqFeedback"],"classroomPairings":[["A","B"],["C","D"]],"coinWeights":[0.2,0.5,0.8],"subjectId":"A19ZWBQT8A3LIR","assignmentId":"3TVSS0C0E2M52QFNPOLDGY0JMIHWT4","hitId":"3SD15I2WD2G0NA4TSPXGB81L5S7630","url":"https://gershmanlab.com/experiments/alicia/teaching/experiment/?hitId=3SD15I2WD2G0NA4TSPXGB81L5S7630&workerId=A19ZWBQT8A3LIR&assignmentId=3TVSS0C0E2M52QFNPOLDGY0JMIHWT4&a=0SVT9&tp_a=0SVT9&b=3TVSS0C0E2M52QFNPOLDGY0JMIHWT4&tp_b=3TVSS0C0E2M52QFNPOLDGY0JMIHWT4&c=365799&tp_c=365799","heads":7,"tails":7,"studentIndex":7,"studentTrueHypers":{"a":4,"b":1},"studentGuess":0.5789473684210527,"delta":0.07894736842105265,"totalExamples":14,"bonus":0,"bonusSoFar":0.48},{"rt":null,"stimulus":"Sending examples to student... ","response":null,"trial_type":"html-keyboard-response","trial_index":74,"time_elapsed":591435,"internal_node_id":"0.0-67.0","params":{"nStudents":24,"maxFlips":30,"completionMinutes":45,"basePay":8,"maxBonus":9,"perTrialBonus":0.5,"perTrialBonusThreshold":0.05,"exampleCost":0.01},"classroomParams":{"A":{"a":1,"b":4},"B":{"a":4,"b":1},"C":{"a":2,"b":8},"D":{"a":8,"b":2}},"conditions":["nonSeqFull","nonSeqPartial","seqNoFeedback","seqFeedback"],"classroomPairings":[["A","B"],["C","D"]],"coinWeights":[0.2,0.5,0.8],"subjectId":"A19ZWBQT8A3LIR","assignmentId":"3TVSS0C0E2M52QFNPOLDGY0JMIHWT4","hitId":"3SD15I2WD2G0NA4TSPXGB81L5S7630","url":"https://gershmanlab.com/experiments/alicia/teaching/experiment/?hitId=3SD15I2WD2G0NA4TSPXGB81L5S7630&workerId=A19ZWBQT8A3LIR&assignmentId=3TVSS0C0E2M52QFNPOLDGY0JMIHWT4&a=0SVT9&tp_a=0SVT9&b=3TVSS0C0E2M52QFNPOLDGY0JMIHWT4&tp_b=3TVSS0C0E2M52QFNPOLDGY0JMIHWT4&c=365799&tp_c=365799"},{"rt":null,"stimulus":"Examples sent to student! Waiting for student...","response":null,"trial_type":"html-keyboard-response","trial_index":75,"time_elapsed":596939,"internal_node_id":"0.0-68.0","params":{"nStudents":24,"maxFlips":30,"completionMinutes":45,"basePay":8,"maxBonus":9,"perTrialBonus":0.5,"perTrialBonusThreshold":0.05,"exampleCost":0.01},"classroomParams":{"A":{"a":1,"b":4},"B":{"a":4,"b":1},"C":{"a":2,"b":8},"D":{"a":8,"b":2}},"conditions":["nonSeqFull","nonSeqPartial","seqNoFeedback","seqFeedback"],"classroomPairings":[["A","B"],["C","D"]],"coinWeights":[0.2,0.5,0.8],"subjectId":"A19ZWBQT8A3LIR","assignmentId":"3TVSS0C0E2M52QFNPOLDGY0JMIHWT4","hitId":"3SD15I2WD2G0NA4TSPXGB81L5S7630","url":"https://gershmanlab.com/experiments/alicia/teaching/experiment/?hitId=3SD15I2WD2G0NA4TSPXGB81L5S7630&workerId=A19ZWBQT8A3LIR&assignmentId=3TVSS0C0E2M52QFNPOLDGY0JMIHWT4&a=0SVT9&tp_a=0SVT9&b=3TVSS0C0E2M52QFNPOLDGY0JMIHWT4&tp_b=3TVSS0C0E2M52QFNPOLDGY0JMIHWT4&c=365799&tp_c=365799"},{"rt":1957,"stimulus":"\n                <p>Student's guess for coin weight: <b style=\"color:Tomato;\">0.58</b></p>\n                <p>You received a bonus of <b>$0</b>. Total bonus so far: <b>$0.48</b></b></p>\n                <p></p>\n                <p>Press any key to continue.</p>\n                ","response":"g","trial_type":"html-keyboard-response","trial_index":76,"time_elapsed":598898,"internal_node_id":"0.0-69.0","params":{"nStudents":24,"maxFlips":30,"completionMinutes":45,"basePay":8,"maxBonus":9,"perTrialBonus":0.5,"perTrialBonusThreshold":0.05,"exampleCost":0.01},"classroomParams":{"A":{"a":1,"b":4},"B":{"a":4,"b":1},"C":{"a":2,"b":8},"D":{"a":8,"b":2}},"conditions":["nonSeqFull","nonSeqPartial","seqNoFeedback","seqFeedback"],"classroomPairings":[["A","B"],["C","D"]],"coinWeights":[0.2,0.5,0.8],"subjectId":"A19ZWBQT8A3LIR","assignmentId":"3TVSS0C0E2M52QFNPOLDGY0JMIHWT4","hitId":"3SD15I2WD2G0NA4TSPXGB81L5S7630","url":"https://gershmanlab.com/experiments/alicia/teaching/experiment/?hitId=3SD15I2WD2G0NA4TSPXGB81L5S7630&workerId=A19ZWBQT8A3LIR&assignmentId=3TVSS0C0E2M52QFNPOLDGY0JMIHWT4&a=0SVT9&tp_a=0SVT9&b=3TVSS0C0E2M52QFNPOLDGY0JMIHWT4&tp_b=3TVSS0C0E2M52QFNPOLDGY0JMIHWT4&c=365799&tp_c=365799"},{"rt":null,"stimulus":"<div style=\"font-size:60px;\">Next student</div>","response":null,"trial_type":"html-keyboard-response","trial_index":77,"time_elapsed":601155,"internal_node_id":"0.0-70.0-0.0","params":{"nStudents":24,"maxFlips":30,"completionMinutes":45,"basePay":8,"maxBonus":9,"perTrialBonus":0.5,"perTrialBonusThreshold":0.05,"exampleCost":0.01},"classroomParams":{"A":{"a":1,"b":4},"B":{"a":4,"b":1},"C":{"a":2,"b":8},"D":{"a":8,"b":2}},"conditions":["nonSeqFull","nonSeqPartial","seqNoFeedback","seqFeedback"],"classroomPairings":[["A","B"],["C","D"]],"coinWeights":[0.2,0.5,0.8],"subjectId":"A19ZWBQT8A3LIR","assignmentId":"3TVSS0C0E2M52QFNPOLDGY0JMIHWT4","hitId":"3SD15I2WD2G0NA4TSPXGB81L5S7630","url":"https://gershmanlab.com/experiments/alicia/teaching/experiment/?hitId=3SD15I2WD2G0NA4TSPXGB81L5S7630&workerId=A19ZWBQT8A3LIR&assignmentId=3TVSS0C0E2M52QFNPOLDGY0JMIHWT4&a=0SVT9&tp_a=0SVT9&b=3TVSS0C0E2M52QFNPOLDGY0JMIHWT4&tp_b=3TVSS0C0E2M52QFNPOLDGY0JMIHWT4&c=365799&tp_c=365799"},{"rt":1142,"stimulus":"\n            <h4 style=\"color:Orange;\">Student 9</h4>\n            <h2>The weight of your coin is <b style=\"color:Tomato;\">0.5</b>.</h2>\n            <p>In this block, you will be giving <b>one</b> set of examples to Student 9.</p>\n                <p>You will receive feedback at the end of the block.</p>\n            <p></p>","response":0,"trial_type":"html-button-response","trial_index":78,"time_elapsed":602298,"internal_node_id":"0.0-71.0","params":{"nStudents":24,"maxFlips":30,"completionMinutes":45,"basePay":8,"maxBonus":9,"perTrialBonus":0.5,"perTrialBonusThreshold":0.05,"exampleCost":0.01},"classroomParams":{"A":{"a":1,"b":4},"B":{"a":4,"b":1},"C":{"a":2,"b":8},"D":{"a":8,"b":2}},"conditions":["nonSeqFull","nonSeqPartial","seqNoFeedback","seqFeedback"],"classroomPairings":[["A","B"],["C","D"]],"coinWeights":[0.2,0.5,0.8],"subjectId":"A19ZWBQT8A3LIR","assignmentId":"3TVSS0C0E2M52QFNPOLDGY0JMIHWT4","hitId":"3SD15I2WD2G0NA4TSPXGB81L5S7630","url":"https://gershmanlab.com/experiments/alicia/teaching/experiment/?hitId=3SD15I2WD2G0NA4TSPXGB81L5S7630&workerId=A19ZWBQT8A3LIR&assignmentId=3TVSS0C0E2M52QFNPOLDGY0JMIHWT4&a=0SVT9&tp_a=0SVT9&b=3TVSS0C0E2M52QFNPOLDGY0JMIHWT4&tp_b=3TVSS0C0E2M52QFNPOLDGY0JMIHWT4&c=365799&tp_c=365799"},{"rt":5773,"response":{"heads":"8","tails":"8"},"type":"response","condition":"nonSeqPartial","trueTheta":0.5,"classrooms":["C","D"],"studentTrueClassroom":"C","exampleSet":"first","trial_type":"survey-html-form","trial_index":79,"time_elapsed":608073,"internal_node_id":"0.0-72.0-0.0","params":{"nStudents":24,"maxFlips":30,"completionMinutes":45,"basePay":8,"maxBonus":9,"perTrialBonus":0.5,"perTrialBonusThreshold":0.05,"exampleCost":0.01},"classroomParams":{"A":{"a":1,"b":4},"B":{"a":4,"b":1},"C":{"a":2,"b":8},"D":{"a":8,"b":2}},"conditions":["nonSeqFull","nonSeqPartial","seqNoFeedback","seqFeedback"],"classroomPairings":[["A","B"],["C","D"]],"coinWeights":[0.2,0.5,0.8],"subjectId":"A19ZWBQT8A3LIR","assignmentId":"3TVSS0C0E2M52QFNPOLDGY0JMIHWT4","hitId":"3SD15I2WD2G0NA4TSPXGB81L5S7630","url":"https://gershmanlab.com/experiments/alicia/teaching/experiment/?hitId=3SD15I2WD2G0NA4TSPXGB81L5S7630&workerId=A19ZWBQT8A3LIR&assignmentId=3TVSS0C0E2M52QFNPOLDGY0JMIHWT4&a=0SVT9&tp_a=0SVT9&b=3TVSS0C0E2M52QFNPOLDGY0JMIHWT4&tp_b=3TVSS0C0E2M52QFNPOLDGY0JMIHWT4&c=365799&tp_c=365799","heads":8,"tails":8,"studentIndex":8,"studentTrueHypers":{"a":2,"b":8},"studentGuess":0.38461538461538464,"delta":0.11538461538461536,"totalExamples":16,"bonus":0,"bonusSoFar":0.48},{"rt":null,"stimulus":"Sending examples to student... ","response":null,"trial_type":"html-keyboard-response","trial_index":80,"time_elapsed":610076,"internal_node_id":"0.0-73.0","params":{"nStudents":24,"maxFlips":30,"completionMinutes":45,"basePay":8,"maxBonus":9,"perTrialBonus":0.5,"perTrialBonusThreshold":0.05,"exampleCost":0.01},"classroomParams":{"A":{"a":1,"b":4},"B":{"a":4,"b":1},"C":{"a":2,"b":8},"D":{"a":8,"b":2}},"conditions":["nonSeqFull","nonSeqPartial","seqNoFeedback","seqFeedback"],"classroomPairings":[["A","B"],["C","D"]],"coinWeights":[0.2,0.5,0.8],"subjectId":"A19ZWBQT8A3LIR","assignmentId":"3TVSS0C0E2M52QFNPOLDGY0JMIHWT4","hitId":"3SD15I2WD2G0NA4TSPXGB81L5S7630","url":"https://gershmanlab.com/experiments/alicia/teaching/experiment/?hitId=3SD15I2WD2G0NA4TSPXGB81L5S7630&workerId=A19ZWBQT8A3LIR&assignmentId=3TVSS0C0E2M52QFNPOLDGY0JMIHWT4&a=0SVT9&tp_a=0SVT9&b=3TVSS0C0E2M52QFNPOLDGY0JMIHWT4&tp_b=3TVSS0C0E2M52QFNPOLDGY0JMIHWT4&c=365799&tp_c=365799"},{"rt":null,"stimulus":"Examples sent to student! Waiting for student...","response":null,"trial_type":"html-keyboard-response","trial_index":81,"time_elapsed":615077,"internal_node_id":"0.0-74.0","params":{"nStudents":24,"maxFlips":30,"completionMinutes":45,"basePay":8,"maxBonus":9,"perTrialBonus":0.5,"perTrialBonusThreshold":0.05,"exampleCost":0.01},"classroomParams":{"A":{"a":1,"b":4},"B":{"a":4,"b":1},"C":{"a":2,"b":8},"D":{"a":8,"b":2}},"conditions":["nonSeqFull","nonSeqPartial","seqNoFeedback","seqFeedback"],"classroomPairings":[["A","B"],["C","D"]],"coinWeights":[0.2,0.5,0.8],"subjectId":"A19ZWBQT8A3LIR","assignmentId":"3TVSS0C0E2M52QFNPOLDGY0JMIHWT4","hitId":"3SD15I2WD2G0NA4TSPXGB81L5S7630","url":"https://gershmanlab.com/experiments/alicia/teaching/experiment/?hitId=3SD15I2WD2G0NA4TSPXGB81L5S7630&workerId=A19ZWBQT8A3LIR&assignmentId=3TVSS0C0E2M52QFNPOLDGY0JMIHWT4&a=0SVT9&tp_a=0SVT9&b=3TVSS0C0E2M52QFNPOLDGY0JMIHWT4&tp_b=3TVSS0C0E2M52QFNPOLDGY0JMIHWT4&c=365799&tp_c=365799"},{"rt":3046,"stimulus":"\n                <p>Student's guess for coin weight: <b style=\"color:Tomato;\">0.38</b></p>\n                <p>You received a bonus of <b>$0</b>. Total bonus so far: <b>$0.48</b></b></p>\n                <p></p>\n                <p>Press any key to continue.</p>\n                ","response":"d","trial_type":"html-keyboard-response","trial_index":82,"time_elapsed":618125,"internal_node_id":"0.0-75.0","params":{"nStudents":24,"maxFlips":30,"completionMinutes":45,"basePay":8,"maxBonus":9,"perTrialBonus":0.5,"perTrialBonusThreshold":0.05,"exampleCost":0.01},"classroomParams":{"A":{"a":1,"b":4},"B":{"a":4,"b":1},"C":{"a":2,"b":8},"D":{"a":8,"b":2}},"conditions":["nonSeqFull","nonSeqPartial","seqNoFeedback","seqFeedback"],"classroomPairings":[["A","B"],["C","D"]],"coinWeights":[0.2,0.5,0.8],"subjectId":"A19ZWBQT8A3LIR","assignmentId":"3TVSS0C0E2M52QFNPOLDGY0JMIHWT4","hitId":"3SD15I2WD2G0NA4TSPXGB81L5S7630","url":"https://gershmanlab.com/experiments/alicia/teaching/experiment/?hitId=3SD15I2WD2G0NA4TSPXGB81L5S7630&workerId=A19ZWBQT8A3LIR&assignmentId=3TVSS0C0E2M52QFNPOLDGY0JMIHWT4&a=0SVT9&tp_a=0SVT9&b=3TVSS0C0E2M52QFNPOLDGY0JMIHWT4&tp_b=3TVSS0C0E2M52QFNPOLDGY0JMIHWT4&c=365799&tp_c=365799"},{"rt":null,"stimulus":"<div style=\"font-size:60px;\">Next student</div>","response":null,"trial_type":"html-keyboard-response","trial_index":83,"time_elapsed":620377,"internal_node_id":"0.0-76.0-0.0","params":{"nStudents":24,"maxFlips":30,"completionMinutes":45,"basePay":8,"maxBonus":9,"perTrialBonus":0.5,"perTrialBonusThreshold":0.05,"exampleCost":0.01},"classroomParams":{"A":{"a":1,"b":4},"B":{"a":4,"b":1},"C":{"a":2,"b":8},"D":{"a":8,"b":2}},"conditions":["nonSeqFull","nonSeqPartial","seqNoFeedback","seqFeedback"],"classroomPairings":[["A","B"],["C","D"]],"coinWeights":[0.2,0.5,0.8],"subjectId":"A19ZWBQT8A3LIR","assignmentId":"3TVSS0C0E2M52QFNPOLDGY0JMIHWT4","hitId":"3SD15I2WD2G0NA4TSPXGB81L5S7630","url":"https://gershmanlab.com/experiments/alicia/teaching/experiment/?hitId=3SD15I2WD2G0NA4TSPXGB81L5S7630&workerId=A19ZWBQT8A3LIR&assignmentId=3TVSS0C0E2M52QFNPOLDGY0JMIHWT4&a=0SVT9&tp_a=0SVT9&b=3TVSS0C0E2M52QFNPOLDGY0JMIHWT4&tp_b=3TVSS0C0E2M52QFNPOLDGY0JMIHWT4&c=365799&tp_c=365799"},{"rt":1194,"stimulus":"\n            <h4 style=\"color:Orange;\">Student 10</h4>\n            <h2>The weight of your coin is <b style=\"color:Tomato;\">0.8</b>.</h2>\n            <p>In this block, you will be giving <b>one</b> set of examples to Student 10.</p>\n                <p>You will receive feedback at the end of the block.</p>\n            <p></p>","response":0,"trial_type":"html-button-response","trial_index":84,"time_elapsed":621573,"internal_node_id":"0.0-77.0","params":{"nStudents":24,"maxFlips":30,"completionMinutes":45,"basePay":8,"maxBonus":9,"perTrialBonus":0.5,"perTrialBonusThreshold":0.05,"exampleCost":0.01},"classroomParams":{"A":{"a":1,"b":4},"B":{"a":4,"b":1},"C":{"a":2,"b":8},"D":{"a":8,"b":2}},"conditions":["nonSeqFull","nonSeqPartial","seqNoFeedback","seqFeedback"],"classroomPairings":[["A","B"],["C","D"]],"coinWeights":[0.2,0.5,0.8],"subjectId":"A19ZWBQT8A3LIR","assignmentId":"3TVSS0C0E2M52QFNPOLD