[{"rt":4345,"stimulus":"Welcome to the experiment. Press any key to begin.","response":" ","trial_type":"html-keyboard-response","trial_index":0,"time_elapsed":4377,"internal_node_id":"0.0-0.0","params":{"nStudents":24,"maxFlips":30,"completionMinutes":45,"basePay":8,"maxBonus":9,"perTrialBonus":0.5,"perTrialBonusThreshold":0.05,"exampleCost":0.01},"classroomParams":{"A":{"a":1,"b":4},"B":{"a":4,"b":1},"C":{"a":2,"b":8},"D":{"a":8,"b":2}},"conditions":["nonSeqFull","nonSeqPartial","seqNoFeedback","seqFeedback"],"classroomPairings":[["A","B"],["C","D"]],"coinWeights":[0.2,0.5,0.8],"subjectId":"A1BE5NGDU9B9JG","assignmentId":"3SB5N7Y3O4Q8PVSWCHTLAKCQVI9G0Q","hitId":"34XASH8KLQ89J2U8D314D7180O4PMV","url":"https://gershmanlab.com/experiments/alicia/teaching/experiment/?hitId=34XASH8KLQ89J2U8D314D7180O4PMV&workerId=A1BE5NGDU9B9JG&assignmentId=3SB5N7Y3O4Q8PVSWCHTLAKCQVI9G0Q&a=3NBS7&tp_a=3NBS7&b=3SB5N7Y3O4Q8PVSWCHTLAKCQVI9G0Q&tp_b=3SB5N7Y3O4Q8PVSWCHTLAKCQVI9G0Q&c=365717&tp_c=365717"},{"rt":10331,"stimulus":"\n        <h3>Please read this consent agreement carefully before deciding whether to participate in this experiment.</h3>\n        <p><b>Purpose of the research:</b> To examine how people teach effectively.</p>\n        <p><b>What you will do in this research:</b> You will teach students the weights of different coins.</p>\n        <p><b>Time required:</b> This experiment will take 45 minutes to complete.</p>\n        <p><b>Risks:</b> There are no anticipated risks associated with participating in this study.             The effects of participating should be comparable to those you would experience from viewing a computer monitor             and using a mouse and keyboard for the duration of the experiment.</p>\n        <p><b>Benefits:</b> The study provides important information about the nature of teaching.</p>\n        <p><b>Compensation:</b> You will receive <b>$8</b> for completing the experiment and a performance bonus of up to <b>$9</b>.</p>\n        <p><b>Confidentiality:</b> Your participation in this study will remain confidential.             No personally identifiable information will be associated with your data.             Your de-identified data may be shared with other researchers and used in future projects.</p>\n        <p><b>Participation and withdrawal:</b> Your participation in this study is completely voluntary and             you may refuse to participate or you may choose to withdraw at any time without penalty or loss of\n            benefits to which you are otherwise entitled.</p>\n        <p><b>How to contact the researcher:</b> If you have questions or concerns about your participation            or payment, or want to request a summary of research findings, please contact\n            Alicia Chen, aliciachen@college.harvard.edu.</p>\n        <p><b>Whom to contact about your rights in this research:</b> For questions, concerns, suggestions,             or complaints that have not been or cannot be addressed by the researcher, or to report             research-related harm, please contact the Committee on the Use of Human Subjects in Research at Harvard University,             1414 Massachusetts Avenue, Second Floor, Cambridge, MA 02138. Phone: 617-496-2847. Email: cuhs@fas.harvard.edu.</p>\n        ","response":0,"trial_type":"html-button-response","trial_index":1,"time_elapsed":14710,"internal_node_id":"0.0-1.0","params":{"nStudents":24,"maxFlips":30,"completionMinutes":45,"basePay":8,"maxBonus":9,"perTrialBonus":0.5,"perTrialBonusThreshold":0.05,"exampleCost":0.01},"classroomParams":{"A":{"a":1,"b":4},"B":{"a":4,"b":1},"C":{"a":2,"b":8},"D":{"a":8,"b":2}},"conditions":["nonSeqFull","nonSeqPartial","seqNoFeedback","seqFeedback"],"classroomPairings":[["A","B"],["C","D"]],"coinWeights":[0.2,0.5,0.8],"subjectId":"A1BE5NGDU9B9JG","assignmentId":"3SB5N7Y3O4Q8PVSWCHTLAKCQVI9G0Q","hitId":"34XASH8KLQ89J2U8D314D7180O4PMV","url":"https://gershmanlab.com/experiments/alicia/teaching/experiment/?hitId=34XASH8KLQ89J2U8D314D7180O4PMV&workerId=A1BE5NGDU9B9JG&assignmentId=3SB5N7Y3O4Q8PVSWCHTLAKCQVI9G0Q&a=3NBS7&tp_a=3NBS7&b=3SB5N7Y3O4Q8PVSWCHTLAKCQVI9G0Q&tp_b=3SB5N7Y3O4Q8PVSWCHTLAKCQVI9G0Q&c=365717&tp_c=365717"},{"view_history":[{"page_index":0,"viewing_time":4708},{"page_index":1,"viewing_time":2655},{"page_index":2,"viewing_time":27944},{"page_index":3,"viewing_time":8919},{"page_index":4,"viewing_time":10098},{"page_index":5,"viewing_time":15378},{"page_index":6,"viewing_time":23461}],"rt":93164,"trial_type":"instructions","trial_index":2,"time_elapsed":107875,"internal_node_id":"0.0-2.0-0.0","params":{"nStudents":24,"maxFlips":30,"completionMinutes":45,"basePay":8,"maxBonus":9,"perTrialBonus":0.5,"perTrialBonusThreshold":0.05,"exampleCost":0.01},"classroomParams":{"A":{"a":1,"b":4},"B":{"a":4,"b":1},"C":{"a":2,"b":8},"D":{"a":8,"b":2}},"conditions":["nonSeqFull","nonSeqPartial","seqNoFeedback","seqFeedback"],"classroomPairings":[["A","B"],["C","D"]],"coinWeights":[0.2,0.5,0.8],"subjectId":"A1BE5NGDU9B9JG","assignmentId":"3SB5N7Y3O4Q8PVSWCHTLAKCQVI9G0Q","hitId":"34XASH8KLQ89J2U8D314D7180O4PMV","url":"https://gershmanlab.com/experiments/alicia/teaching/experiment/?hitId=34XASH8KLQ89J2U8D314D7180O4PMV&workerId=A1BE5NGDU9B9JG&assignmentId=3SB5N7Y3O4Q8PVSWCHTLAKCQVI9G0Q&a=3NBS7&tp_a=3NBS7&b=3SB5N7Y3O4Q8PVSWCHTLAKCQVI9G0Q&tp_b=3SB5N7Y3O4Q8PVSWCHTLAKCQVI9G0Q&c=365717&tp_c=365717"},{"rt":47639,"response":{"Q0":"Students in different classrooms will have seen a different number of heads and tails before seeing the examples you select for them.","Q1":"By <b>considering the student's classroom information</b> so that I can teach efficiently and accurately/helpfully at the same time (because each example I give to the student costs money!).","Q2":"The coin lands heads 90% of the time.","Q3":"No, I will teach a <b>new</b> student each time.","Q4":"The students are also on the same alien planet as you, where coins can be unfair.","Q5":"Based on the student's first guess."},"question_order":[5,2,3,4,0,1],"trial_type":"survey-multi-choice","trial_index":3,"time_elapsed":155516,"internal_node_id":"0.0-2.0-1.0","params":{"nStudents":24,"maxFlips":30,"completionMinutes":45,"basePay":8,"maxBonus":9,"perTrialBonus":0.5,"perTrialBonusThreshold":0.05,"exampleCost":0.01},"classroomParams":{"A":{"a":1,"b":4},"B":{"a":4,"b":1},"C":{"a":2,"b":8},"D":{"a":8,"b":2}},"conditions":["nonSeqFull","nonSeqPartial","seqNoFeedback","seqFeedback"],"classroomPairings":[["A","B"],["C","D"]],"coinWeights":[0.2,0.5,0.8],"subjectId":"A1BE5NGDU9B9JG","assignmentId":"3SB5N7Y3O4Q8PVSWCHTLAKCQVI9G0Q","hitId":"34XASH8KLQ89J2U8D314D7180O4PMV","url":"https://gershmanlab.com/experiments/alicia/teaching/experiment/?hitId=34XASH8KLQ89J2U8D314D7180O4PMV&workerId=A1BE5NGDU9B9JG&assignmentId=3SB5N7Y3O4Q8PVSWCHTLAKCQVI9G0Q&a=3NBS7&tp_a=3NBS7&b=3SB5N7Y3O4Q8PVSWCHTLAKCQVI9G0Q&tp_b=3SB5N7Y3O4Q8PVSWCHTLAKCQVI9G0Q&c=365717&tp_c=365717","pass":false},{"rt":4115,"stimulus":"Oops, you have missed question(s) on the comprehension check! We'll show you the instructions again.","response":0,"trial_type":"html-button-response","trial_index":4,"time_elapsed":159636,"internal_node_id":"0.0-2.0-2.0-0.0","params":{"nStudents":24,"maxFlips":30,"completionMinutes":45,"basePay":8,"maxBonus":9,"perTrialBonus":0.5,"perTrialBonusThreshold":0.05,"exampleCost":0.01},"classroomParams":{"A":{"a":1,"b":4},"B":{"a":4,"b":1},"C":{"a":2,"b":8},"D":{"a":8,"b":2}},"conditions":["nonSeqFull","nonSeqPartial","seqNoFeedback","seqFeedback"],"classroomPairings":[["A","B"],["C","D"]],"coinWeights":[0.2,0.5,0.8],"subjectId":"A1BE5NGDU9B9JG","assignmentId":"3SB5N7Y3O4Q8PVSWCHTLAKCQVI9G0Q","hitId":"34XASH8KLQ89J2U8D314D7180O4PMV","url":"https://gershmanlab.com/experiments/alicia/teaching/experiment/?hitId=34XASH8KLQ89J2U8D314D7180O4PMV&workerId=A1BE5NGDU9B9JG&assignmentId=3SB5N7Y3O4Q8PVSWCHTLAKCQVI9G0Q&a=3NBS7&tp_a=3NBS7&b=3SB5N7Y3O4Q8PVSWCHTLAKCQVI9G0Q&tp_b=3SB5N7Y3O4Q8PVSWCHTLAKCQVI9G0Q&c=365717&tp_c=365717"},{"view_history":[{"page_index":0,"viewing_time":2098},{"page_index":1,"viewing_time":2263},{"page_index":2,"viewing_time":7393},{"page_index":3,"viewing_time":9277},{"page_index":4,"viewing_time":6748},{"page_index":5,"viewing_time":4065},{"page_index":6,"viewing_time":1900}],"rt":33744,"trial_type":"instructions","trial_index":5,"time_elapsed":193381,"internal_node_id":"0.0-2.1-0.1","params":{"nStudents":24,"maxFlips":30,"completionMinutes":45,"basePay":8,"maxBonus":9,"perTrialBonus":0.5,"perTrialBonusThreshold":0.05,"exampleCost":0.01},"classroomParams":{"A":{"a":1,"b":4},"B":{"a":4,"b":1},"C":{"a":2,"b":8},"D":{"a":8,"b":2}},"conditions":["nonSeqFull","nonSeqPartial","seqNoFeedback","seqFeedback"],"classroomPairings":[["A","B"],["C","D"]],"coinWeights":[0.2,0.5,0.8],"subjectId":"A1BE5NGDU9B9JG","assignmentId":"3SB5N7Y3O4Q8PVSWCHTLAKCQVI9G0Q","hitId":"34XASH8KLQ89J2U8D314D7180O4PMV","url":"https://gershmanlab.com/experiments/alicia/teaching/experiment/?hitId=34XASH8KLQ89J2U8D314D7180O4PMV&workerId=A1BE5NGDU9B9JG&assignmentId=3SB5N7Y3O4Q8PVSWCHTLAKCQVI9G0Q&a=3NBS7&tp_a=3NBS7&b=3SB5N7Y3O4Q8PVSWCHTLAKCQVI9G0Q&tp_b=3SB5N7Y3O4Q8PVSWCHTLAKCQVI9G0Q&c=365717&tp_c=365717"},{"rt":23073,"response":{"Q0":"Students in different classrooms will have seen a different number of heads and tails before seeing the examples you select for them.","Q1":"By giving 30 examples (the maximum) on each trial so I can make sure that the students' guesses are as accurate as possible.","Q2":"The coin lands heads 90% of the time.","Q3":"No, I will teach a <b>new</b> student each time.","Q4":"The students are also on the same alien planet as you, where coins can be unfair.","Q5":"Based on the student's first guess."},"question_order":[5,1,0,4,2,3],"trial_type":"survey-multi-choice","trial_index":6,"time_elapsed":216456,"internal_node_id":"0.0-2.1-1.1","params":{"nStudents":24,"maxFlips":30,"completionMinutes":45,"basePay":8,"maxBonus":9,"perTrialBonus":0.5,"perTrialBonusThreshold":0.05,"exampleCost":0.01},"classroomParams":{"A":{"a":1,"b":4},"B":{"a":4,"b":1},"C":{"a":2,"b":8},"D":{"a":8,"b":2}},"conditions":["nonSeqFull","nonSeqPartial","seqNoFeedback","seqFeedback"],"classroomPairings":[["A","B"],["C","D"]],"coinWeights":[0.2,0.5,0.8],"subjectId":"A1BE5NGDU9B9JG","assignmentId":"3SB5N7Y3O4Q8PVSWCHTLAKCQVI9G0Q","hitId":"34XASH8KLQ89J2U8D314D7180O4PMV","url":"https://gershmanlab.com/experiments/alicia/teaching/experiment/?hitId=34XASH8KLQ89J2U8D314D7180O4PMV&workerId=A1BE5NGDU9B9JG&assignmentId=3SB5N7Y3O4Q8PVSWCHTLAKCQVI9G0Q&a=3NBS7&tp_a=3NBS7&b=3SB5N7Y3O4Q8PVSWCHTLAKCQVI9G0Q&tp_b=3SB5N7Y3O4Q8PVSWCHTLAKCQVI9G0Q&c=365717&tp_c=365717","pass":false},{"rt":2180,"stimulus":"Oops, you have missed question(s) on the comprehension check! We'll show you the instructions again.","response":0,"trial_type":"html-button-response","trial_index":7,"time_elapsed":218639,"internal_node_id":"0.0-2.1-2.1-0.1","params":{"nStudents":24,"maxFlips":30,"completionMinutes":45,"basePay":8,"maxBonus":9,"perTrialBonus":0.5,"perTrialBonusThreshold":0.05,"exampleCost":0.01},"classroomParams":{"A":{"a":1,"b":4},"B":{"a":4,"b":1},"C":{"a":2,"b":8},"D":{"a":8,"b":2}},"conditions":["nonSeqFull","nonSeqPartial","seqNoFeedback","seqFeedback"],"classroomPairings":[["A","B"],["C","D"]],"coinWeights":[0.2,0.5,0.8],"subjectId":"A1BE5NGDU9B9JG","assignmentId":"3SB5N7Y3O4Q8PVSWCHTLAKCQVI9G0Q","hitId":"34XASH8KLQ89J2U8D314D7180O4PMV","url":"https://gershmanlab.com/experiments/alicia/teaching/experiment/?hitId=34XASH8KLQ89J2U8D314D7180O4PMV&workerId=A1BE5NGDU9B9JG&assignmentId=3SB5N7Y3O4Q8PVSWCHTLAKCQVI9G0Q&a=3NBS7&tp_a=3NBS7&b=3SB5N7Y3O4Q8PVSWCHTLAKCQVI9G0Q&tp_b=3SB5N7Y3O4Q8PVSWCHTLAKCQVI9G0Q&c=365717&tp_c=365717"},{"view_history":[{"page_index":0,"viewing_time":2406},{"page_index":1,"viewing_time":1725},{"page_index":2,"viewing_time":10951},{"page_index":3,"viewing_time":10301},{"page_index":4,"viewing_time":7280},{"page_index":5,"viewing_time":11196},{"page_index":6,"viewing_time":3718}],"rt":47577,"trial_type":"instructions","trial_index":8,"time_elapsed":266217,"internal_node_id":"0.0-2.2-0.2","params":{"nStudents":24,"maxFlips":30,"completionMinutes":45,"basePay":8,"maxBonus":9,"perTrialBonus":0.5,"perTrialBonusThreshold":0.05,"exampleCost":0.01},"classroomParams":{"A":{"a":1,"b":4},"B":{"a":4,"b":1},"C":{"a":2,"b":8},"D":{"a":8,"b":2}},"conditions":["nonSeqFull","nonSeqPartial","seqNoFeedback","seqFeedback"],"classroomPairings":[["A","B"],["C","D"]],"coinWeights":[0.2,0.5,0.8],"subjectId":"A1BE5NGDU9B9JG","assignmentId":"3SB5N7Y3O4Q8PVSWCHTLAKCQVI9G0Q","hitId":"34XASH8KLQ89J2U8D314D7180O4PMV","url":"https://gershmanlab.com/experiments/alicia/teaching/experiment/?hitId=34XASH8KLQ89J2U8D314D7180O4PMV&workerId=A1BE5NGDU9B9JG&assignmentId=3SB5N7Y3O4Q8PVSWCHTLAKCQVI9G0Q&a=3NBS7&tp_a=3NBS7&b=3SB5N7Y3O4Q8PVSWCHTLAKCQVI9G0Q&tp_b=3SB5N7Y3O4Q8PVSWCHTLAKCQVI9G0Q&c=365717&tp_c=365717"},{"rt":46098,"response":{"Q0":"Students in different classrooms will have seen a different number of heads and tails before seeing the examples you select for them.","Q1":"By <b>considering the student's classroom information</b> so that I can teach efficiently and accurately/helpfully at the same time (because each example I give to the student costs money!).","Q2":"The coin lands heads 90% of the time.","Q3":"No, I will teach a <b>new</b> student each time.","Q4":"The students are also on the same alien planet as you, where coins can be unfair.","Q5":"Based on the student's second (and final) guess."},"question_order":[3,0,1,2,5,4],"trial_type":"survey-multi-choice","trial_index":9,"time_elapsed":312315,"internal_node_id":"0.0-2.2-1.2","params":{"nStudents":24,"maxFlips":30,"completionMinutes":45,"basePay":8,"maxBonus":9,"perTrialBonus":0.5,"perTrialBonusThreshold":0.05,"exampleCost":0.01},"classroomParams":{"A":{"a":1,"b":4},"B":{"a":4,"b":1},"C":{"a":2,"b":8},"D":{"a":8,"b":2}},"conditions":["nonSeqFull","nonSeqPartial","seqNoFeedback","seqFeedback"],"classroomPairings":[["A","B"],["C","D"]],"coinWeights":[0.2,0.5,0.8],"subjectId":"A1BE5NGDU9B9JG","assignmentId":"3SB5N7Y3O4Q8PVSWCHTLAKCQVI9G0Q","hitId":"34XASH8KLQ89J2U8D314D7180O4PMV","url":"https://gershmanlab.com/experiments/alicia/teaching/experiment/?hitId=34XASH8KLQ89J2U8D314D7180O4PMV&workerId=A1BE5NGDU9B9JG&assignmentId=3SB5N7Y3O4Q8PVSWCHTLAKCQVI9G0Q&a=3NBS7&tp_a=3NBS7&b=3SB5N7Y3O4Q8PVSWCHTLAKCQVI9G0Q&tp_b=3SB5N7Y3O4Q8PVSWCHTLAKCQVI9G0Q&c=365717&tp_c=365717","pass":true},{"rt":null,"stimulus":"<div style=\"font-size:30px;\">Congrats on passing the comprehension quiz! The experiment will begin in a few seconds.</div>","response":null,"trial_type":"html-keyboard-response","trial_index":10,"time_elapsed":315332,"internal_node_id":"0.0-3.0","params":{"nStudents":24,"maxFlips":30,"completionMinutes":45,"basePay":8,"maxBonus":9,"perTrialBonus":0.5,"perTrialBonusThreshold":0.05,"exampleCost":0.01},"classroomParams":{"A":{"a":1,"b":4},"B":{"a":4,"b":1},"C":{"a":2,"b":8},"D":{"a":8,"b":2}},"conditions":["nonSeqFull","nonSeqPartial","seqNoFeedback","seqFeedback"],"classroomPairings":[["A","B"],["C","D"]],"coinWeights":[0.2,0.5,0.8],"subjectId":"A1BE5NGDU9B9JG","assignmentId":"3SB5N7Y3O4Q8PVSWCHTLAKCQVI9G0Q","hitId":"34XASH8KLQ89J2U8D314D7180O4PMV","url":"https://gershmanlab.com/experiments/alicia/teaching/experiment/?hitId=34XASH8KLQ89J2U8D314D7180O4PMV&workerId=A1BE5NGDU9B9JG&assignmentId=3SB5N7Y3O4Q8PVSWCHTLAKCQVI9G0Q&a=3NBS7&tp_a=3NBS7&b=3SB5N7Y3O4Q8PVSWCHTLAKCQVI9G0Q&tp_b=3SB5N7Y3O4Q8PVSWCHTLAKCQVI9G0Q&c=365717&tp_c=365717"},{"rt":null,"stimulus":"<div style=\"font-size:50px;\">First student</div>","response":null,"trial_type":"html-keyboard-response","trial_index":11,"time_elapsed":318339,"internal_node_id":"0.0-4.0","params":{"nStudents":24,"maxFlips":30,"completionMinutes":45,"basePay":8,"maxBonus":9,"perTrialBonus":0.5,"perTrialBonusThreshold":0.05,"exampleCost":0.01},"classroomParams":{"A":{"a":1,"b":4},"B":{"a":4,"b":1},"C":{"a":2,"b":8},"D":{"a":8,"b":2}},"conditions":["nonSeqFull","nonSeqPartial","seqNoFeedback","seqFeedback"],"classroomPairings":[["A","B"],["C","D"]],"coinWeights":[0.2,0.5,0.8],"subjectId":"A1BE5NGDU9B9JG","assignmentId":"3SB5N7Y3O4Q8PVSWCHTLAKCQVI9G0Q","hitId":"34XASH8KLQ89J2U8D314D7180O4PMV","url":"https://gershmanlab.com/experiments/alicia/teaching/experiment/?hitId=34XASH8KLQ89J2U8D314D7180O4PMV&workerId=A1BE5NGDU9B9JG&assignmentId=3SB5N7Y3O4Q8PVSWCHTLAKCQVI9G0Q&a=3NBS7&tp_a=3NBS7&b=3SB5N7Y3O4Q8PVSWCHTLAKCQVI9G0Q&tp_b=3SB5N7Y3O4Q8PVSWCHTLAKCQVI9G0Q&c=365717&tp_c=365717"},{"rt":6285,"stimulus":"\n            <h4 style=\"color:Orange;\">Student 1</h4>\n            <h2>The weight of your coin is <b style=\"color:Tomato;\">0.8</b>.</h2>\n            <p>In this block, you will be giving <b>one</b> set of examples to Student 1.</p>\n                <p>You will receive feedback at the end of the block.</p>\n            <p></p>","response":0,"trial_type":"html-button-response","trial_index":12,"time_elapsed":324625,"internal_node_id":"0.0-5.0","params":{"nStudents":24,"maxFlips":30,"completionMinutes":45,"basePay":8,"maxBonus":9,"perTrialBonus":0.5,"perTrialBonusThreshold":0.05,"exampleCost":0.01},"classroomParams":{"A":{"a":1,"b":4},"B":{"a":4,"b":1},"C":{"a":2,"b":8},"D":{"a":8,"b":2}},"conditions":["nonSeqFull","nonSeqPartial","seqNoFeedback","seqFeedback"],"classroomPairings":[["A","B"],["C","D"]],"coinWeights":[0.2,0.5,0.8],"subjectId":"A1BE5NGDU9B9JG","assignmentId":"3SB5N7Y3O4Q8PVSWCHTLAKCQVI9G0Q","hitId":"34XASH8KLQ89J2U8D314D7180O4PMV","url":"https://gershmanlab.com/experiments/alicia/teaching/experiment/?hitId=34XASH8KLQ89J2U8D314D7180O4PMV&workerId=A1BE5NGDU9B9JG&assignmentId=3SB5N7Y3O4Q8PVSWCHTLAKCQVI9G0Q&a=3NBS7&tp_a=3NBS7&b=3SB5N7Y3O4Q8PVSWCHTLAKCQVI9G0Q&tp_b=3SB5N7Y3O4Q8PVSWCHTLAKCQVI9G0Q&c=365717&tp_c=365717"},{"rt":27535,"response":{"heads":"25","tails":"5"},"type":"response","condition":"nonSeqPartial","trueTheta":0.8,"classrooms":["C","D"],"studentTrueClassroom":"C","exampleSet":"first","trial_type":"survey-html-form","trial_index":13,"time_elapsed":352161,"internal_node_id":"0.0-6.0-0.0","params":{"nStudents":24,"maxFlips":30,"completionMinutes":45,"basePay":8,"maxBonus":9,"perTrialBonus":0.5,"perTrialBonusThreshold":0.05,"exampleCost":0.01},"classroomParams":{"A":{"a":1,"b":4},"B":{"a":4,"b":1},"C":{"a":2,"b":8},"D":{"a":8,"b":2}},"conditions":["nonSeqFull","nonSeqPartial","seqNoFeedback","seqFeedback"],"classroomPairings":[["A","B"],["C","D"]],"coinWeights":[0.2,0.5,0.8],"subjectId":"A1BE5NGDU9B9JG","assignmentId":"3SB5N7Y3O4Q8PVSWCHTLAKCQVI9G0Q","hitId":"34XASH8KLQ89J2U8D314D7180O4PMV","url":"https://gershmanlab.com/experiments/alicia/teaching/experiment/?hitId=34XASH8KLQ89J2U8D314D7180O4PMV&workerId=A1BE5NGDU9B9JG&assignmentId=3SB5N7Y3O4Q8PVSWCHTLAKCQVI9G0Q&a=3NBS7&tp_a=3NBS7&b=3SB5N7Y3O4Q8PVSWCHTLAKCQVI9G0Q&tp_b=3SB5N7Y3O4Q8PVSWCHTLAKCQVI9G0Q&c=365717&tp_c=365717","heads":25,"tails":5,"studentIndex":0,"studentTrueHypers":{"a":2,"b":8},"studentGuess":0.675,"delta":0.125,"totalExamples":30,"bonus":0,"bonusSoFar":0},{"rt":null,"stimulus":"Sending examples to student... ","response":null,"trial_type":"html-keyboard-response","trial_index":14,"time_elapsed":353412,"internal_node_id":"0.0-7.0","params":{"nStudents":24,"maxFlips":30,"completionMinutes":45,"basePay":8,"maxBonus":9,"perTrialBonus":0.5,"perTrialBonusThreshold":0.05,"exampleCost":0.01},"classroomParams":{"A":{"a":1,"b":4},"B":{"a":4,"b":1},"C":{"a":2,"b":8},"D":{"a":8,"b":2}},"conditions":["nonSeqFull","nonSeqPartial","seqNoFeedback","seqFeedback"],"classroomPairings":[["A","B"],["C","D"]],"coinWeights":[0.2,0.5,0.8],"subjectId":"A1BE5NGDU9B9JG","assignmentId":"3SB5N7Y3O4Q8PVSWCHTLAKCQVI9G0Q","hitId":"34XASH8KLQ89J2U8D314D7180O4PMV","url":"https://gershmanlab.com/experiments/alicia/teaching/experiment/?hitId=34XASH8KLQ89J2U8D314D7180O4PMV&workerId=A1BE5NGDU9B9JG&assignmentId=3SB5N7Y3O4Q8PVSWCHTLAKCQVI9G0Q&a=3NBS7&tp_a=3NBS7&b=3SB5N7Y3O4Q8PVSWCHTLAKCQVI9G0Q&tp_b=3SB5N7Y3O4Q8PVSWCHTLAKCQVI9G0Q&c=365717&tp_c=365717"},{"rt":null,"stimulus":"Examples sent to student! Waiting for student...","response":null,"trial_type":"html-keyboard-response","trial_index":15,"time_elapsed":358927,"internal_node_id":"0.0-8.0","params":{"nStudents":24,"maxFlips":30,"completionMinutes":45,"basePay":8,"maxBonus":9,"perTrialBonus":0.5,"perTrialBonusThreshold":0.05,"exampleCost":0.01},"classroomParams":{"A":{"a":1,"b":4},"B":{"a":4,"b":1},"C":{"a":2,"b":8},"D":{"a":8,"b":2}},"conditions":["nonSeqFull","nonSeqPartial","seqNoFeedback","seqFeedback"],"classroomPairings":[["A","B"],["C","D"]],"coinWeights":[0.2,0.5,0.8],"subjectId":"A1BE5NGDU9B9JG","assignmentId":"3SB5N7Y3O4Q8PVSWCHTLAKCQVI9G0Q","hitId":"34XASH8KLQ89J2U8D314D7180O4PMV","url":"https://gershmanlab.com/experiments/alicia/teaching/experiment/?hitId=34XASH8KLQ89J2U8D314D7180O4PMV&workerId=A1BE5NGDU9B9JG&assignmentId=3SB5N7Y3O4Q8PVSWCHTLAKCQVI9G0Q&a=3NBS7&tp_a=3NBS7&b=3SB5N7Y3O4Q8PVSWCHTLAKCQVI9G0Q&tp_b=3SB5N7Y3O4Q8PVSWCHTLAKCQVI9G0Q&c=365717&tp_c=365717"},{"rt":6259,"stimulus":"\n                <p>Student's guess for coin weight: <b style=\"color:Tomato;\">0.68</b></p>\n                <p>You received a bonus of <b>$0</b>. Total bonus so far: <b>$0.00</b></b></p>\n                <p></p>\n                <p>Press any key to continue.</p>\n                ","response":" ","trial_type":"html-keyboard-response","trial_index":16,"time_elapsed":365188,"internal_node_id":"0.0-9.0","params":{"nStudents":24,"maxFlips":30,"completionMinutes":45,"basePay":8,"maxBonus":9,"perTrialBonus":0.5,"perTrialBonusThreshold":0.05,"exampleCost":0.01},"classroomParams":{"A":{"a":1,"b":4},"B":{"a":4,"b":1},"C":{"a":2,"b":8},"D":{"a":8,"b":2}},"conditions":["nonSeqFull","nonSeqPartial","seqNoFeedback","seqFeedback"],"classroomPairings":[["A","B"],["C","D"]],"coinWeights":[0.2,0.5,0.8],"subjectId":"A1BE5NGDU9B9JG","assignmentId":"3SB5N7Y3O4Q8PVSWCHTLAKCQVI9G0Q","hitId":"34XASH8KLQ89J2U8D314D7180O4PMV","url":"https://gershmanlab.com/experiments/alicia/teaching/experiment/?hitId=34XASH8KLQ89J2U8D314D7180O4PMV&workerId=A1BE5NGDU9B9JG&assignmentId=3SB5N7Y3O4Q8PVSWCHTLAKCQVI9G0Q&a=3NBS7&tp_a=3NBS7&b=3SB5N7Y3O4Q8PVSWCHTLAKCQVI9G0Q&tp_b=3SB5N7Y3O4Q8PVSWCHTLAKCQVI9G0Q&c=365717&tp_c=365717"},{"rt":null,"stimulus":"<div style=\"font-size:60px;\">Next student</div>","response":null,"trial_type":"html-keyboard-response","trial_index":17,"time_elapsed":367700,"internal_node_id":"0.0-10.0-0.0","params":{"nStudents":24,"maxFlips":30,"completionMinutes":45,"basePay":8,"maxBonus":9,"perTrialBonus":0.5,"perTrialBonusThreshold":0.05,"exampleCost":0.01},"classroomParams":{"A":{"a":1,"b":4},"B":{"a":4,"b":1},"C":{"a":2,"b":8},"D":{"a":8,"b":2}},"conditions":["nonSeqFull","nonSeqPartial","seqNoFeedback","seqFeedback"],"classroomPairings":[["A","B"],["C","D"]],"coinWeights":[0.2,0.5,0.8],"subjectId":"A1BE5NGDU9B9JG","assignmentId":"3SB5N7Y3O4Q8PVSWCHTLAKCQVI9G0Q","hitId":"34XASH8KLQ89J2U8D314D7180O4PMV","url":"https://gershmanlab.com/experiments/alicia/teaching/experiment/?hitId=34XASH8KLQ89J2U8D314D7180O4PMV&workerId=A1BE5NGDU9B9JG&assignmentId=3SB5N7Y3O4Q8PVSWCHTLAKCQVI9G0Q&a=3NBS7&tp_a=3NBS7&b=3SB5N7Y3O4Q8PVSWCHTLAKCQVI9G0Q&tp_b=3SB5N7Y3O4Q8PVSWCHTLAKCQVI9G0Q&c=365717&tp_c=365717"},{"rt":2113,"stimulus":"\n            <h4 style=\"color:Orange;\">Student 2</h4>\n            <h2>The weight of your coin is <b style=\"color:Tomato;\">0.2</b>.</h2>\n            <p>In this block, you will be giving <b>one</b> set of examples to Student 2.</p>\n                <p>You will receive feedback at the end of the block.</p>\n            <p></p>","response":0,"trial_type":"html-button-response","trial_index":18,"time_elapsed":369814,"internal_node_id":"0.0-11.0","params":{"nStudents":24,"maxFlips":30,"completionMinutes":45,"basePay":8,"maxBonus":9,"perTrialBonus":0.5,"perTrialBonusThreshold":0.05,"exampleCost":0.01},"classroomParams":{"A":{"a":1,"b":4},"B":{"a":4,"b":1},"C":{"a":2,"b":8},"D":{"a":8,"b":2}},"conditions":["nonSeqFull","nonSeqPartial","seqNoFeedback","seqFeedback"],"classroomPairings":[["A","B"],["C","D"]],"coinWeights":[0.2,0.5,0.8],"subjectId":"A1BE5NGDU9B9JG","assignmentId":"3SB5N7Y3O4Q8PVSWCHTLAKCQVI9G0Q","hitId":"34XASH8KLQ89J2U8D314D7180O4PMV","url":"https://gershmanlab.com/experiments/alicia/teaching/experiment/?hitId=34XASH8KLQ89J2U8D314D7180O4PMV&workerId=A1BE5NGDU9B9JG&assignmentId=3SB5N7Y3O4Q8PVSWCHTLAKCQVI9G0Q&a=3NBS7&tp_a=3NBS7&b=3SB5N7Y3O4Q8PVSWCHTLAKCQVI9G0Q&tp_b=3SB5N7Y3O4Q8PVSWCHTLAKCQVI9G0Q&c=365717&tp_c=365717"},{"rt":16718,"response":{"heads":"3","tails":"27"},"type":"response","condition":"nonSeqPartial","trueTheta":0.2,"classrooms":["C","D"],"studentTrueClassroom":"D","exampleSet":"first","trial_type":"survey-html-form","trial_index":19,"time_elapsed":386533,"internal_node_id":"0.0-12.0-0.0","params":{"nStudents":24,"maxFlips":30,"completionMinutes":45,"basePay":8,"maxBonus":9,"perTrialBonus":0.5,"perTrialBonusThreshold":0.05,"exampleCost":0.01},"classroomParams":{"A":{"a":1,"b":4},"B":{"a":4,"b":1},"C":{"a":2,"b":8},"D":{"a":8,"b":2}},"conditions":["nonSeqFull","nonSeqPartial","seqNoFeedback","seqFeedback"],"classroomPairings":[["A","B"],["C","D"]],"coinWeights":[0.2,0.5,0.8],"subjectId":"A1BE5NGDU9B9JG","assignmentId":"3SB5N7Y3O4Q8PVSWCHTLAKCQVI9G0Q","hitId":"34XASH8KLQ89J2U8D314D7180O4PMV","url":"https://gershmanlab.com/experiments/alicia/teaching/experiment/?hitId=34XASH8KLQ89J2U8D314D7180O4PMV&workerId=A1BE5NGDU9B9JG&assignmentId=3SB5N7Y3O4Q8PVSWCHTLAKCQVI9G0Q&a=3NBS7&tp_a=3NBS7&b=3SB5N7Y3O4Q8PVSWCHTLAKCQVI9G0Q&tp_b=3SB5N7Y3O4Q8PVSWCHTLAKCQVI9G0Q&c=365717&tp_c=365717","heads":3,"tails":27,"studentIndex":1,"studentTrueHypers":{"a":8,"b":2},"studentGuess":0.275,"delta":0.07500000000000001,"totalExamples":30,"bonus":0,"bonusSoFar":0},{"rt":null,"stimulus":"Sending examples to student... ","response":null,"trial_type":"html-keyboard-response","trial_index":20,"time_elapsed":387795,"internal_node_id":"0.0-13.0","params":{"nStudents":24,"maxFlips":30,"completionMinutes":45,"basePay":8,"maxBonus":9,"perTrialBonus":0.5,"perTrialBonusThreshold":0.05,"exampleCost":0.01},"classroomParams":{"A":{"a":1,"b":4},"B":{"a":4,"b":1},"C":{"a":2,"b":8},"D":{"a":8,"b":2}},"conditions":["nonSeqFull","nonSeqPartial","seqNoFeedback","seqFeedback"],"classroomPairings":[["A","B"],["C","D"]],"coinWeights":[0.2,0.5,0.8],"subjectId":"A1BE5NGDU9B9JG","assignmentId":"3SB5N7Y3O4Q8PVSWCHTLAKCQVI9G0Q","hitId":"34XASH8KLQ89J2U8D314D7180O4PMV","url":"https://gershmanlab.com/experiments/alicia/teaching/experiment/?hitId=34XASH8KLQ89J2U8D314D7180O4PMV&workerId=A1BE5NGDU9B9JG&assignmentId=3SB5N7Y3O4Q8PVSWCHTLAKCQVI9G0Q&a=3NBS7&tp_a=3NBS7&b=3SB5N7Y3O4Q8PVSWCHTLAKCQVI9G0Q&tp_b=3SB5N7Y3O4Q8PVSWCHTLAKCQVI9G0Q&c=365717&tp_c=365717"},{"rt":null,"stimulus":"Examples sent to student! Waiting for student...","response":null,"trial_type":"html-keyboard-response","trial_index":21,"time_elapsed":392809,"internal_node_id":"0.0-14.0","params":{"nStudents":24,"maxFlips":30,"completionMinutes":45,"basePay":8,"maxBonus":9,"perTrialBonus":0.5,"perTrialBonusThreshold":0.05,"exampleCost":0.01},"classroomParams":{"A":{"a":1,"b":4},"B":{"a":4,"b":1},"C":{"a":2,"b":8},"D":{"a":8,"b":2}},"conditions":["nonSeqFull","nonSeqPartial","seqNoFeedback","seqFeedback"],"classroomPairings":[["A","B"],["C","D"]],"coinWeights":[0.2,0.5,0.8],"subjectId":"A1BE5NGDU9B9JG","assignmentId":"3SB5N7Y3O4Q8PVSWCHTLAKCQVI9G0Q","hitId":"34XASH8KLQ89J2U8D314D7180O4PMV","url":"https://gershmanlab.com/experiments/alicia/teaching/experiment/?hitId=34XASH8KLQ89J2U8D314D7180O4PMV&workerId=A1BE5NGDU9B9JG&assignmentId=3SB5N7Y3O4Q8PVSWCHTLAKCQVI9G0Q&a=3NBS7&tp_a=3NBS7&b=3SB5N7Y3O4Q8PVSWCHTLAKCQVI9G0Q&tp_b=3SB5N7Y3O4Q8PVSWCHTLAKCQVI9G0Q&c=365717&tp_c=365717"},{"rt":7959,"stimulus":"\n                <p>Student's guess for coin weight: <b style=\"color:Tomato;\">0.28</b></p>\n                <p>You received a bonus of <b>$0</b>. Total bonus so far: <b>$0.00</b></b></p>\n                <p></p>\n                <p>Press any key to continue.</p>\n                ","response":" ","trial_type":"html-keyboard-response","trial_index":22,"time_elapsed":400770,"internal_node_id":"0.0-15.0","params":{"nStudents":24,"maxFlips":30,"completionMinutes":45,"basePay":8,"maxBonus":9,"perTrialBonus":0.5,"perTrialBonusThreshold":0.05,"exampleCost":0.01},"classroomParams":{"A":{"a":1,"b":4},"B":{"a":4,"b":1},"C":{"a":2,"b":8},"D":{"a":8,"b":2}},"conditions":["nonSeqFull","nonSeqPartial","seqNoFeedback","seqFeedback"],"classroomPairings":[["A","B"],["C","D"]],"coinWeights":[0.2,0.5,0.8],"subjectId":"A1BE5NGDU9B9JG","assignmentId":"3SB5N7Y3O4Q8PVSWCHTLAKCQVI9G0Q","hitId":"34XASH8KLQ89J2U8D314D7180O4PMV","url":"https://gershmanlab.com/experiments/alicia/teaching/experiment/?hitId=34XASH8KLQ89J2U8D314D7180O4PMV&workerId=A1BE5NGDU9B9JG&assignmentId=3SB5N7Y3O4Q8PVSWCHTLAKCQVI9G0Q&a=3NBS7&tp_a=3NBS7&b=3SB5N7Y3O4Q8PVSWCHTLAKCQVI9G0Q&tp_b=3SB5N7Y3O4Q8PVSWCHTLAKCQVI9G0Q&c=365717&tp_c=365717"},{"rt":null,"stimulus":"<div style=\"font-size:60px;\">Next student</div>","response":null,"trial_type":"html-keyboard-response","trial_index":23,"time_elapsed":403282,"internal_node_id":"0.0-16.0-0.0","params":{"nStudents":24,"maxFlips":30,"completionMinutes":45,"basePay":8,"maxBonus":9,"perTrialBonus":0.5,"perTrialBonusThreshold":0.05,"exampleCost":0.01},"classroomParams":{"A":{"a":1,"b":4},"B":{"a":4,"b":1},"C":{"a":2,"b":8},"D":{"a":8,"b":2}},"conditions":["nonSeqFull","nonSeqPartial","seqNoFeedback","seqFeedback"],"classroomPairings":[["A","B"],["C","D"]],"coinWeights":[0.2,0.5,0.8],"subjectId":"A1BE5NGDU9B9JG","assignmentId":"3SB5N7Y3O4Q8PVSWCHTLAKCQVI9G0Q","hitId":"34XASH8KLQ89J2U8D314D7180O4PMV","url":"https://gershmanlab.com/experiments/alicia/teaching/experiment/?hitId=34XASH8KLQ89J2U8D314D7180O4PMV&workerId=A1BE5NGDU9B9JG&assignmentId=3SB5N7Y3O4Q8PVSWCHTLAKCQVI9G0Q&a=3NBS7&tp_a=3NBS7&b=3SB5N7Y3O4Q8PVSWCHTLAKCQVI9G0Q&tp_b=3SB5N7Y3O4Q8PVSWCHTLAKCQVI9G0Q&c=365717&tp_c=365717"},{"rt":3827,"stimulus":"\n            <h4 style=\"color:Orange;\">Student 3</h4>\n            <h2>The weight of your coin is <b style=\"color:Tomato;\">0.5</b>.</h2>\n            <p>In this block, you will be giving <b>one</b> set of examples to Student 3.</p>\n                <p>You will receive feedback at the end of the block.</p>\n            <p></p>","response":0,"trial_type":"html-button-response","trial_index":24,"time_elapsed":407110,"internal_node_id":"0.0-17.0","params":{"nStudents":24,"maxFlips":30,"completionMinutes":45,"basePay":8,"maxBonus":9,"perTrialBonus":0.5,"perTrialBonusThreshold":0.05,"exampleCost":0.01},"classroomParams":{"A":{"a":1,"b":4},"B":{"a":4,"b":1},"C":{"a":2,"b":8},"D":{"a":8,"b":2}},"conditions":["nonSeqFull","nonSeqPartial","seqNoFeedback","seqFeedback"],"classroomPairings":[["A","B"],["C","D"]],"coinWeights":[0.2,0.5,0.8],"subjectId":"A1BE5NGDU9B9JG","assignmentId":"3SB5N7Y3O4Q8PVSWCHTLAKCQVI9G0Q","hitId":"34XASH8KLQ89J2U8D314D7180O4PMV","url":"https://gershmanlab.com/experiments/alicia/teaching/experiment/?hitId=34XASH8KLQ89J2U8D314D7180O4PMV&workerId=A1BE5NGDU9B9JG&assignmentId=3SB5N7Y3O4Q8PVSWCHTLAKCQVI9G0Q&a=3NBS7&tp_a=3NBS7&b=3SB5N7Y3O4Q8PVSWCHTLAKCQVI9G0Q&tp_b=3SB5N7Y3O4Q8PVSWCHTLAKCQVI9G0Q&c=365717&tp_c=365717"},{"rt":3025,"response":{"heads":"15","tails":"15"},"type":"response","condition":"nonSeqFull","trueTheta":0.5,"classrooms":["A","B"],"studentTrueClassroom":"B","exampleSet":"first","trial_type":"survey-html-form","trial_index":25,"time_elapsed":410136,"internal_node_id":"0.0-18.0-0.0","params":{"nStudents":24,"maxFlips":30,"completionMinutes":45,"basePay":8,"maxBonus":9,"perTrialBonus":0.5,"perTrialBonusThreshold":0.05,"exampleCost":0.01},"classroomParams":{"A":{"a":1,"b":4},"B":{"a":4,"b":1},"C":{"a":2,"b":8},"D":{"a":8,"b":2}},"conditions":["nonSeqFull","nonSeqPartial","seqNoFeedback","seqFeedback"],"classroomPairings":[["A","B"],["C","D"]],"coinWeights":[0.2,0.5,0.8],"subjectId":"A1BE5NGDU9B9JG","assignmentId":"3SB5N7Y3O4Q8PVSWCHTLAKCQVI9G0Q","hitId":"34XASH8KLQ89J2U8D314D7180O4PMV","url":"https://gershmanlab.com/experiments/alicia/teaching/experiment/?hitId=34XASH8KLQ89J2U8D314D7180O4PMV&workerId=A1BE5NGDU9B9JG&assignmentId=3SB5N7Y3O4Q8PVSWCHTLAKCQVI9G0Q&a=3NBS7&tp_a=3NBS7&b=3SB5N7Y3O4Q8PVSWCHTLAKCQVI9G0Q&tp_b=3SB5N7Y3O4Q8PVSWCHTLAKCQVI9G0Q&c=365717&tp_c=365717","heads":15,"tails":15,"studentIndex":2,"studentTrueHypers":{"a":4,"b":1},"studentGuess":0.5428571428571428,"delta":0.042857142857142816,"totalExamples":30,"bonus":0.2,"bonusSoFar":0.2},{"rt":null,"stimulus":"Sending examples to student... ","response":null,"trial_type":"html-keyboard-response","trial_index":26,"time_elapsed":411398,"internal_node_id":"0.0-19.0","params":{"nStudents":24,"maxFlips":30,"completionMinutes":45,"basePay":8,"maxBonus":9,"perTrialBonus":0.5,"perTrialBonusThreshold":0.05,"exampleCost":0.01},"classroomParams":{"A":{"a":1,"b":4},"B":{"a":4,"b":1},"C":{"a":2,"b":8},"D":{"a":8,"b":2}},"conditions":["nonSeqFull","nonSeqPartial","seqNoFeedback","seqFeedback"],"classroomPairings":[["A","B"],["C","D"]],"coinWeights":[0.2,0.5,0.8],"subjectId":"A1BE5NGDU9B9JG","assignmentId":"3SB5N7Y3O4Q8PVSWCHTLAKCQVI9G0Q","hitId":"34XASH8KLQ89J2U8D314D7180O4PMV","url":"https://gershmanlab.com/experiments/alicia/teaching/experiment/?hitId=34XASH8KLQ89J2U8D314D7180O4PMV&workerId=A1BE5NGDU9B9JG&assignmentId=3SB5N7Y3O4Q8PVSWCHTLAKCQVI9G0Q&a=3NBS7&tp_a=3NBS7&b=3SB5N7Y3O4Q8PVSWCHTLAKCQVI9G0Q&tp_b=3SB5N7Y3O4Q8PVSWCHTLAKCQVI9G0Q&c=365717&tp_c=365717"},{"rt":null,"stimulus":"Examples sent to student! Waiting for student...","response":null,"trial_type":"html-keyboard-response","trial_index":27,"time_elapsed":416913,"internal_node_id":"0.0-20.0","params":{"nStudents":24,"maxFlips":30,"completionMinutes":45,"basePay":8,"maxBonus":9,"perTrialBonus":0.5,"perTrialBonusThreshold":0.05,"exampleCost":0.01},"classroomParams":{"A":{"a":1,"b":4},"B":{"a":4,"b":1},"C":{"a":2,"b":8},"D":{"a":8,"b":2}},"conditions":["nonSeqFull","nonSeqPartial","seqNoFeedback","seqFeedback"],"classroomPairings":[["A","B"],["C","D"]],"coinWeights":[0.2,0.5,0.8],"subjectId":"A1BE5NGDU9B9JG","assignmentId":"3SB5N7Y3O4Q8PVSWCHTLAKCQVI9G0Q","hitId":"34XASH8KLQ89J2U8D314D7180O4PMV","url":"https://gershmanlab.com/experiments/alicia/teaching/experiment/?hitId=34XASH8KLQ89J2U8D314D7180O4PMV&workerId=A1BE5NGDU9B9JG&assignmentId=3SB5N7Y3O4Q8PVSWCHTLAKCQVI9G0Q&a=3NBS7&tp_a=3NBS7&b=3SB5N7Y3O4Q8PVSWCHTLAKCQVI9G0Q&tp_b=3SB5N7Y3O4Q8PVSWCHTLAKCQVI9G0Q&c=365717&tp_c=365717"},{"rt":4021,"stimulus":"\n                <p>Student's guess for coin weight: <b style=\"color:Tomato;\">0.54</b></p>\n                <p>You received a bonus of <b>$0.2</b>. Total bonus so far: <b>$0.20</b></b></p>\n                <p></p>\n                <p>Press any key to continue.</p>\n                ","response":" ","trial_type":"html-keyboard-response","trial_index":28,"time_elapsed":420935,"internal_node_id":"0.0-21.0","params":{"nStudents":24,"maxFlips":30,"completionMinutes":45,"basePay":8,"maxBonus":9,"perTrialBonus":0.5,"perTrialBonusThreshold":0.05,"exampleCost":0.01},"classroomParams":{"A":{"a":1,"b":4},"B":{"a":4,"b":1},"C":{"a":2,"b":8},"D":{"a":8,"b":2}},"conditions":["nonSeqFull","nonSeqPartial","seqNoFeedback","seqFeedback"],"classroomPairings":[["A","B"],["C","D"]],"coinWeights":[0.2,0.5,0.8],"subjectId":"A1BE5NGDU9B9JG","assignmentId":"3SB5N7Y3O4Q8PVSWCHTLAKCQVI9G0Q","hitId":"34XASH8KLQ89J2U8D314D7180O4PMV","url":"https://gershmanlab.com/experiments/alicia/teaching/experiment/?hitId=34XASH8KLQ89J2U8D314D7180O4PMV&workerId=A1BE5NGDU9B9JG&assignmentId=3SB5N7Y3O4Q8PVSWCHTLAKCQVI9G0Q&a=3NBS7&tp_a=3NBS7&b=3SB5N7Y3O4Q8PVSWCHTLAKCQVI9G0Q&tp_b=3SB5N7Y3O4Q8PVSWCHTLAKCQVI9G0Q&c=365717&tp_c=365717"},{"rt":null,"stimulus":"<div style=\"font-size:60px;\">Next student</div>","response":null,"trial_type":"html-keyboard-response","trial_index":29,"time_elapsed":423937,"internal_node_id":"0.0-22.0-0.0","params":{"nStudents":24,"maxFlips":30,"completionMinutes":45,"basePay":8,"maxBonus":9,"perTrialBonus":0.5,"perTrialBonusThreshold":0.05,"exampleCost":0.01},"classroomParams":{"A":{"a":1,"b":4},"B":{"a":4,"b":1},"C":{"a":2,"b":8},"D":{"a":8,"b":2}},"conditions":["nonSeqFull","nonSeqPartial","seqNoFeedback","seqFeedback"],"classroomPairings":[["A","B"],["C","D"]],"coinWeights":[0.2,0.5,0.8],"subjectId":"A1BE5NGDU9B9JG","assignmentId":"3SB5N7Y3O4Q8PVSWCHTLAKCQVI9G0Q","hitId":"34XASH8KLQ89J2U8D314D7180O4PMV","url":"https://gershmanlab.com/experiments/alicia/teaching/experiment/?hitId=34XASH8KLQ89J2U8D314D7180O4PMV&workerId=A1BE5NGDU9B9JG&assignmentId=3SB5N7Y3O4Q8PVSWCHTLAKCQVI9G0Q&a=3NBS7&tp_a=3NBS7&b=3SB5N7Y3O4Q8PVSWCHTLAKCQVI9G0Q&tp_b=3SB5N7Y3O4Q8PVSWCHTLAKCQVI9G0Q&c=365717&tp_c=365717"},{"rt":1255,"stimulus":"\n            <h4 style=\"color:Orange;\">Student 4</h4>\n            <h2>The weight of your coin is <b style=\"color:Tomato;\">0.2</b>.</h2>\n            <p>In this block, you will be giving <b>one</b> set of examples to Student 4.</p>\n                <p>You will receive feedback at the end of the block.</p>\n            <p></p>","response":0,"trial_type":"html-button-response","trial_index":30,"time_elapsed":425193,"internal_node_id":"0.0-23.0","params":{"nStudents":24,"maxFlips":30,"completionMinutes":45,"basePay":8,"maxBonus":9,"perTrialBonus":0.5,"perTrialBonusThreshold":0.05,"exampleCost":0.01},"classroomParams":{"A":{"a":1,"b":4},"B":{"a":4,"b":1},"C":{"a":2,"b":8},"D":{"a":8,"b":2}},"conditions":["nonSeqFull","nonSeqPartial","seqNoFeedback","seqFeedback"],"classroomPairings":[["A","B"],["C","D"]],"coinWeights":[0.2,0.5,0.8],"subjectId":"A1BE5NGDU9B9JG","assignmentId":"3SB5N7Y3O4Q8PVSWCHTLAKCQVI9G0Q","hitId":"34XASH8KLQ89J2U8D314D7180O4PMV","url":"https://gershmanlab.com/experiments/alicia/teaching/experiment/?hitId=34XASH8KLQ89J2U8D314D7180O4PMV&workerId=A1BE5NGDU9B9JG&assignmentId=3SB5N7Y3O4Q8PVSWCHTLAKCQVI9G0Q&a=3NBS7&tp_a=3NBS7&b=3SB5N7Y3O4Q8PVSWCHTLAKCQVI9G0Q&tp_b=3SB5N7Y3O4Q8PVSWCHTLAKCQVI9G0Q&c=365717&tp_c=365717"},{"rt":13344,"response":{"heads":"10","tails":"2"},"type":"response","condition":"nonSeqFull","trueTheta":0.2,"classrooms":["C","D"],"studentTrueClassroom":"D","exampleSet":"first","trial_type":"survey-html-form","trial_index":31,"time_elapsed":438538,"internal_node_id":"0.0-24.0-0.0","params":{"nStudents":24,"maxFlips":30,"completionMinutes":45,"basePay":8,"maxBonus":9,"perTrialBonus":0.5,"perTrialBonusThreshold":0.05,"exampleCost":0.01},"classroomParams":{"A":{"a":1,"b":4},"B":{"a":4,"b":1},"C":{"a":2,"b":8},"D":{"a":8,"b":2}},"conditions":["nonSeqFull","nonSeqPartial","seqNoFeedback","seqFeedback"],"classroomPairings":[["A","B"],["C","D"]],"coinWeights":[0.2,0.5,0.8],"subjectId":"A1BE5NGDU9B9JG","assignmentId":"3SB5N7Y3O4Q8PVSWCHTLAKCQVI9G0Q","hitId":"34XASH8KLQ89J2U8D314D7180O4PMV","url":"https://gershmanlab.com/experiments/alicia/teaching/experiment/?hitId=34XASH8KLQ89J2U8D314D7180O4PMV&workerId=A1BE5NGDU9B9JG&assignmentId=3SB5N7Y3O4Q8PVSWCHTLAKCQVI9G0Q&a=3NBS7&tp_a=3NBS7&b=3SB5N7Y3O4Q8PVSWCHTLAKCQVI9G0Q&tp_b=3SB5N7Y3O4Q8PVSWCHTLAKCQVI9G0Q&c=365717&tp_c=365717","heads":10,"tails":2,"studentIndex":3,"studentTrueHypers":{"a":8,"b":2},"studentGuess":0.8181818181818182,"delta":0.6181818181818182,"totalExamples":12,"bonus":0,"bonusSoFar":0.2},{"rt":null,"stimulus":"Sending examples to student... ","response":null,"trial_type":"html-keyboard-response","trial_index":32,"time_elapsed":440294,"internal_node_id":"0.0-25.0","params":{"nStudents":24,"maxFlips":30,"completionMinutes":45,"basePay":8,"maxBonus":9,"perTrialBonus":0.5,"perTrialBonusThreshold":0.05,"exampleCost":0.01},"classroomParams":{"A":{"a":1,"b":4},"B":{"a":4,"b":1},"C":{"a":2,"b":8},"D":{"a":8,"b":2}},"conditions":["nonSeqFull","nonSeqPartial","seqNoFeedback","seqFeedback"],"classroomPairings":[["A","B"],["C","D"]],"coinWeights":[0.2,0.5,0.8],"subjectId":"A1BE5NGDU9B9JG","assignmentId":"3SB5N7Y3O4Q8PVSWCHTLAKCQVI9G0Q","hitId":"34XASH8KLQ89J2U8D314D7180O4PMV","url":"https://gershmanlab.com/experiments/alicia/teaching/experiment/?hitId=34XASH8KLQ89J2U8D314D7180O4PMV&workerId=A1BE5NGDU9B9JG&assignmentId=3SB5N7Y3O4Q8PVSWCHTLAKCQVI9G0Q&a=3NBS7&tp_a=3NBS7&b=3SB5N7Y3O4Q8PVSWCHTLAKCQVI9G0Q&tp_b=3SB5N7Y3O4Q8PVSWCHTLAKCQVI9G0Q&c=365717&tp_c=365717"},{"rt":null,"stimulus":"Examples sent to student! Waiting for student...","response":null,"trial_type":"html-keyboard-response","trial_index":33,"time_elapsed":445304,"internal_node_id":"0.0-26.0","params":{"nStudents":24,"maxFlips":30,"completionMinutes":45,"basePay":8,"maxBonus":9,"perTrialBonus":0.5,"perTrialBonusThreshold":0.05,"exampleCost":0.01},"classroomParams":{"A":{"a":1,"b":4},"B":{"a":4,"b":1},"C":{"a":2,"b":8},"D":{"a":8,"b":2}},"conditions":["nonSeqFull","nonSeqPartial","seqNoFeedback","seqFeedback"],"classroomPairings":[["A","B"],["C","D"]],"coinWeights":[0.2,0.5,0.8],"subjectId":"A1BE5NGDU9B9JG","assignmentId":"3SB5N7Y3O4Q8PVSWCHTLAKCQVI9G0Q","hitId":"34XASH8KLQ89J2U8D314D7180O4PMV","url":"https://gershmanlab.com/experiments/alicia/teaching/experiment/?hitId=34XASH8KLQ89J2U8D314D7180O4PMV&workerId=A1BE5NGDU9B9JG&assignmentId=3SB5N7Y3O4Q8PVSWCHTLAKCQVI9G0Q&a=3NBS7&tp_a=3NBS7&b=3SB5N7Y3O4Q8PVSWCHTLAKCQVI9G0Q&tp_b=3SB5N7Y3O4Q8PVSWCHTLAKCQVI9G0Q&c=365717&tp_c=365717"},{"rt":6423,"stimulus":"\n                <p>Student's guess for coin weight: <b style=\"color:Tomato;\">0.82</b></p>\n                <p>You received a bonus of <b>$0</b>. Total bonus so far: <b>$0.20</b></b></p>\n                <p></p>\n                <p>Press any key to continue.</p>\n                ","response":" ","trial_type":"html-keyboard-response","trial_index":34,"time_elapsed":451728,"internal_node_id":"0.0-27.0","params":{"nStudents":24,"maxFlips":30,"completionMinutes":45,"basePay":8,"maxBonus":9,"perTrialBonus":0.5,"perTrialBonusThreshold":0.05,"exampleCost":0.01},"classroomParams":{"A":{"a":1,"b":4},"B":{"a":4,"b":1},"C":{"a":2,"b":8},"D":{"a":8,"b":2}},"conditions":["nonSeqFull","nonSeqPartial","seqNoFeedback","seqFeedback"],"classroomPairings":[["A","B"],["C","D"]],"coinWeights":[0.2,0.5,0.8],"subjectId":"A1BE5NGDU9B9JG","assignmentId":"3SB5N7Y3O4Q8PVSWCHTLAKCQVI9G0Q","hitId":"34XASH8KLQ89J2U8D314D7180O4PMV","url":"https://gershmanlab.com/experiments/alicia/teaching/experiment/?hitId=34XASH8KLQ89J2U8D314D7180O4PMV&workerId=A1BE5NGDU9B9JG&assignmentId=3SB5N7Y3O4Q8PVSWCHTLAKCQVI9G0Q&a=3NBS7&tp_a=3NBS7&b=3SB5N7Y3O4Q8PVSWCHTLAKCQVI9G0Q&tp_b=3SB5N7Y3O4Q8PVSWCHTLAKCQVI9G0Q&c=365717&tp_c=365717"},{"rt":null,"stimulus":"<div style=\"font-size:60px;\">Next student</div>","response":null,"trial_type":"html-keyboard-response","trial_index":35,"time_elapsed":454729,"internal_node_id":"0.0-28.0-0.0","params":{"nStudents":24,"maxFlips":30,"completionMinutes":45,"basePay":8,"maxBonus":9,"perTrialBonus":0.5,"perTrialBonusThreshold":0.05,"exampleCost":0.01},"classroomParams":{"A":{"a":1,"b":4},"B":{"a":4,"b":1},"C":{"a":2,"b":8},"D":{"a":8,"b":2}},"conditions":["nonSeqFull","nonSeqPartial","seqNoFeedback","seqFeedback"],"classroomPairings":[["A","B"],["C","D"]],"coinWeights":[0.2,0.5,0.8],"subjectId":"A1BE5NGDU9B9JG","assignmentId":"3SB5N7Y3O4Q8PVSWCHTLAKCQVI9G0Q","hitId":"34XASH8KLQ89J2U8D314D7180O4PMV","url":"https://gershmanlab.com/experiments/alicia/teaching/experiment/?hitId=34XASH8KLQ89J2U8D314D7180O4PMV&workerId=A1BE5NGDU9B9JG&assignmentId=3SB5N7Y3O4Q8PVSWCHTLAKCQVI9G0Q&a=3NBS7&tp_a=3NBS7&b=3SB5N7Y3O4Q8PVSWCHTLAKCQVI9G0Q&tp_b=3SB5N7Y3O4Q8PVSWCHTLAKCQVI9G0Q&c=365717&tp_c=365717"},{"rt":3599,"stimulus":"\n            <h4 style=\"color:Orange;\">Student 5</h4>\n            <h2>The weight of your coin is <b style=\"color:Tomato;\">0.8</b>.</h2>\n            <p>In this block, you will be giving <b>two</b> sets of examples to Student 5.</p>\n                <p>You will receive feedback at the end of the block.</p>\n            <p></p>","response":0,"trial_type":"html-button-response","trial_index":36,"time_elapsed":458329,"internal_node_id":"0.0-29.0","params":{"nStudents":24,"maxFlips":30,"completionMinutes":45,"basePay":8,"maxBonus":9,"perTrialBonus":0.5,"perTrialBonusThreshold":0.05,"exampleCost":0.01},"classroomParams":{"A":{"a":1,"b":4},"B":{"a":4,"b":1},"C":{"a":2,"b":8},"D":{"a":8,"b":2}},"conditions":["nonSeqFull","nonSeqPartial","seqNoFeedback","seqFeedback"],"classroomPairings":[["A","B"],["C","D"]],"coinWeights":[0.2,0.5,0.8],"subjectId":"A1BE5NGDU9B9JG","assignmentId":"3SB5N7Y3O4Q8PVSWCHTLAKCQVI9G0Q","hitId":"34XASH8KLQ89J2U8D314D7180O4PMV","url":"https://gershmanlab.com/experiments/alicia/teaching/experiment/?hitId=34XASH8KLQ89J2U8D314D7180O4PMV&workerId=A1BE5NGDU9B9JG&assignmentId=3SB5N7Y3O4Q8PVSWCHTLAKCQVI9G0Q&a=3NBS7&tp_a=3NBS7&b=3SB5N7Y3O4Q8PVSWCHTLAKCQVI9G0Q&tp_b=3SB5N7Y3O4Q8PVSWCHTLAKCQVI9G0Q&c=365717&tp_c=365717"},{"rt":7743,"response":{"heads":"10","tails":"2"},"type":"response","condition":"seqNoFeedback","trueTheta":0.8,"classrooms":["C","D"],"studentTrueClassroom":"D","exampleSet":"first","trial_type":"survey-html-form","trial_index":37,"time_elapsed":466073,"internal_node_id":"0.0-30.0-0.0","params":{"nStudents":24,"maxFlips":30,"completionMinutes":45,"basePay":8,"maxBonus":9,"perTrialBonus":0.5,"perTrialBonusThreshold":0.05,"exampleCost":0.01},"classroomParams":{"A":{"a":1,"b":4},"B":{"a":4,"b":1},"C":{"a":2,"b":8},"D":{"a":8,"b":2}},"conditions":["nonSeqFull","nonSeqPartial","seqNoFeedback","seqFeedback"],"classroomPairings":[["A","B"],["C","D"]],"coinWeights":[0.2,0.5,0.8],"subjectId":"A1BE5NGDU9B9JG","assignmentId":"3SB5N7Y3O4Q8PVSWCHTLAKCQVI9G0Q","hitId":"34XASH8KLQ89J2U8D314D7180O4PMV","url":"https://gershmanlab.com/experiments/alicia/teaching/experiment/?hitId=34XASH8KLQ89J2U8D314D7180O4PMV&workerId=A1BE5NGDU9B9JG&assignmentId=3SB5N7Y3O4Q8PVSWCHTLAKCQVI9G0Q&a=3NBS7&tp_a=3NBS7&b=3SB5N7Y3O4Q8PVSWCHTLAKCQVI9G0Q&tp_b=3SB5N7Y3O4Q8PVSWCHTLAKCQVI9G0Q&c=365717&tp_c=365717","heads":10,"tails":2,"studentIndex":4,"studentTrueHypers":{"a":8,"b":2},"studentGuess":0.8181818181818182,"delta":0.018181818181818188,"totalExamples":12,"bonusSoFar":0.2},{"rt":null,"stimulus":"Sending examples to student... ","response":null,"trial_type":"html-keyboard-response","trial_index":38,"time_elapsed":468082,"internal_node_id":"0.0-31.0","params":{"nStudents":24,"maxFlips":30,"completionMinutes":45,"basePay":8,"maxBonus":9,"perTrialBonus":0.5,"perTrialBonusThreshold":0.05,"exampleCost":0.01},"classroomParams":{"A":{"a":1,"b":4},"B":{"a":4,"b":1},"C":{"a":2,"b":8},"D":{"a":8,"b":2}},"conditions":["nonSeqFull","nonSeqPartial","seqNoFeedback","seqFeedback"],"classroomPairings":[["A","B"],["C","D"]],"coinWeights":[0.2,0.5,0.8],"subjectId":"A1BE5NGDU9B9JG","assignmentId":"3SB5N7Y3O4Q8PVSWCHTLAKCQVI9G0Q","hitId":"34XASH8KLQ89J2U8D314D7180O4PMV","url":"https://gershmanlab.com/experiments/alicia/teaching/experiment/?hitId=34XASH8KLQ89J2U8D314D7180O4PMV&workerId=A1BE5NGDU9B9JG&assignmentId=3SB5N7Y3O4Q8PVSWCHTLAKCQVI9G0Q&a=3NBS7&tp_a=3NBS7&b=3SB5N7Y3O4Q8PVSWCHTLAKCQVI9G0Q&tp_b=3SB5N7Y3O4Q8PVSWCHTLAKCQVI9G0Q&c=365717&tp_c=365717"},{"rt":null,"stimulus":"Examples sent to student! Waiting for student...","response":null,"trial_type":"html-keyboard-response","trial_index":39,"time_elapsed":473085,"internal_node_id":"0.0-32.0","params":{"nStudents":24,"maxFlips":30,"completionMinutes":45,"basePay":8,"maxBonus":9,"perTrialBonus":0.5,"perTrialBonusThreshold":0.05,"exampleCost":0.01},"classroomParams":{"A":{"a":1,"b":4},"B":{"a":4,"b":1},"C":{"a":2,"b":8},"D":{"a":8,"b":2}},"conditions":["nonSeqFull","nonSeqPartial","seqNoFeedback","seqFeedback"],"classroomPairings":[["A","B"],["C","D"]],"coinWeights":[0.2,0.5,0.8],"subjectId":"A1BE5NGDU9B9JG","assignmentId":"3SB5N7Y3O4Q8PVSWCHTLAKCQVI9G0Q","hitId":"34XASH8KLQ89J2U8D314D7180O4PMV","url":"https://gershmanlab.com/experiments/alicia/teaching/experiment/?hitId=34XASH8KLQ89J2U8D314D7180O4PMV&workerId=A1BE5NGDU9B9JG&assignmentId=3SB5N7Y3O4Q8PVSWCHTLAKCQVI9G0Q&a=3NBS7&tp_a=3NBS7&b=3SB5N7Y3O4Q8PVSWCHTLAKCQVI9G0Q&tp_b=3SB5N7Y3O4Q8PVSWCHTLAKCQVI9G0Q&c=365717&tp_c=365717"},{"rt":14720,"response":{"heads":"12","tails":"2"},"type":"response","condition":"seqNoFeedback","trueTheta":0.8,"classrooms":["C","D"],"studentTrueClassroom":"D","exampleSet":"second","trial_type":"survey-html-form","trial_index":40,"time_elapsed":487806,"internal_node_id":"0.0-33.0-0.0","params":{"nStudents":24,"maxFlips":30,"completionMinutes":45,"basePay":8,"maxBonus":9,"perTrialBonus":0.5,"perTrialBonusThreshold":0.05,"exampleCost":0.01},"classroomParams":{"A":{"a":1,"b":4},"B":{"a":4,"b":1},"C":{"a":2,"b":8},"D":{"a":8,"b":2}},"conditions":["nonSeqFull","nonSeqPartial","seqNoFeedback","seqFeedback"],"classroomPairings":[["A","B"],["C","D"]],"coinWeights":[0.2,0.5,0.8],"subjectId":"A1BE5NGDU9B9JG","assignmentId":"3SB5N7Y3O4Q8PVSWCHTLAKCQVI9G0Q","hitId":"34XASH8KLQ89J2U8D314D7180O4PMV","url":"https://gershmanlab.com/experiments/alicia/teaching/experiment/?hitId=34XASH8KLQ89J2U8D314D7180O4PMV&workerId=A1BE5NGDU9B9JG&assignmentId=3SB5N7Y3O4Q8PVSWCHTLAKCQVI9G0Q&a=3NBS7&tp_a=3NBS7&b=3SB5N7Y3O4Q8PVSWCHTLAKCQVI9G0Q&tp_b=3SB5N7Y3O4Q8PVSWCHTLAKCQVI9G0Q&c=365717&tp_c=365717","firstResponseHeads":10,"firstResponseTails":2,"secondResponseHeads":12,"secondResponseTails":2,"totalHeads":22,"totalTails":4,"studentIndex":4,"studentTrueHypers":{"a":8,"b":2},"studentGuess":0.8333333333333334,"delta":0.033333333333333326,"bonus":0.24,"bonusSoFar":0.44,"totalExamples":26},{"rt":null,"stimulus":"Sending examples to student... ","response":null,"trial_type":"html-keyboard-response","trial_index":41,"time_elapsed":489065,"internal_node_id":"0.0-34.0","params":{"nStudents":24,"maxFlips":30,"completionMinutes":45,"basePay":8,"maxBonus":9,"perTrialBonus":0.5,"perTrialBonusThreshold":0.05,"exampleCost":0.01},"classroomParams":{"A":{"a":1,"b":4},"B":{"a":4,"b":1},"C":{"a":2,"b":8},"D":{"a":8,"b":2}},"conditions":["nonSeqFull","nonSeqPartial","seqNoFeedback","seqFeedback"],"classroomPairings":[["A","B"],["C","D"]],"coinWeights":[0.2,0.5,0.8],"subjectId":"A1BE5NGDU9B9JG","assignmentId":"3SB5N7Y3O4Q8PVSWCHTLAKCQVI9G0Q","hitId":"34XASH8KLQ89J2U8D314D7180O4PMV","url":"https://gershmanlab.com/experiments/alicia/teaching/experiment/?hitId=34XASH8KLQ89J2U8D314D7180O4PMV&workerId=A1BE5NGDU9B9JG&assignmentId=3SB5N7Y3O4Q8PVSWCHTLAKCQVI9G0Q&a=3NBS7&tp_a=3NBS7&b=3SB5N7Y3O4Q8PVSWCHTLAKCQVI9G0Q&tp_b=3SB5N7Y3O4Q8PVSWCHTLAKCQVI9G0Q&c=365717&tp_c=365717"},{"rt":null,"stimulus":"Examples sent to student! Waiting for student...","response":null,"trial_type":"html-keyboard-response","trial_index":42,"time_elapsed":493076,"internal_node_id":"0.0-35.0","params":{"nStudents":24,"maxFlips":30,"completionMinutes":45,"basePay":8,"maxBonus":9,"perTrialBonus":0.5,"perTrialBonusThreshold":0.05,"exampleCost":0.01},"classroomParams":{"A":{"a":1,"b":4},"B":{"a":4,"b":1},"C":{"a":2,"b":8},"D":{"a":8,"b":2}},"conditions":["nonSeqFull","nonSeqPartial","seqNoFeedback","seqFeedback"],"classroomPairings":[["A","B"],["C","D"]],"coinWeights":[0.2,0.5,0.8],"subjectId":"A1BE5NGDU9B9JG","assignmentId":"3SB5N7Y3O4Q8PVSWCHTLAKCQVI9G0Q","hitId":"34XASH8KLQ89J2U8D314D7180O4PMV","url":"https://gershmanlab.com/experiments/alicia/teaching/experiment/?hitId=34XASH8KLQ89J2U8D314D7180O4PMV&workerId=A1BE5NGDU9B9JG&assignmentId=3SB5N7Y3O4Q8PVSWCHTLAKCQVI9G0Q&a=3NBS7&tp_a=3NBS7&b=3SB5N7Y3O4Q8PVSWCHTLAKCQVI9G0Q&tp_b=3SB5N7Y3O4Q8PVSWCHTLAKCQVI9G0Q&c=365717&tp_c=365717"},{"rt":8807,"stimulus":"\n                <p>Student 5's first guess for coin weight: <b style=\"color:Tomato\";>0.82</b></p>\n                <p>Student 5's second guess for coin weight: <b style=\"color:Tomato\";>0.83</b></p>\n                <p>You received a bonus of <b>$0.24</b> based on the student's second guess.</p>\n                <p>Total bonus so far: <b>$0.44</b></p>\n                <p>Press any key to continue.</p>\n                ","response":" ","trial_type":"html-keyboard-response","trial_index":43,"time_elapsed":501885,"internal_node_id":"0.0-36.0","params":{"nStudents":24,"maxFlips":30,"completionMinutes":45,"basePay":8,"maxBonus":9,"perTrialBonus":0.5,"perTrialBonusThreshold":0.05,"exampleCost":0.01},"classroomParams":{"A":{"a":1,"b":4},"B":{"a":4,"b":1},"C":{"a":2,"b":8},"D":{"a":8,"b":2}},"conditions":["nonSeqFull","nonSeqPartial","seqNoFeedback","seqFeedback"],"classroomPairings":[["A","B"],["C","D"]],"coinWeights":[0.2,0.5,0.8],"subjectId":"A1BE5NGDU9B9JG","assignmentId":"3SB5N7Y3O4Q8PVSWCHTLAKCQVI9G0Q","hitId":"34XASH8KLQ89J2U8D314D7180O4PMV","url":"https://gershmanlab.com/experiments/alicia/teaching/experiment/?hitId=34XASH8KLQ89J2U8D314D7180O4PMV&workerId=A1BE5NGDU9B9JG&assignmentId=3SB5N7Y3O4Q8PVSWCHTLAKCQVI9G0Q&a=3NBS7&tp_a=3NBS7&b=3SB5N7Y3O4Q8PVSWCHTLAKCQVI9G0Q&tp_b=3SB5N7Y3O4Q8PVSWCHTLAKCQVI9G0Q&c=365717&tp_c=365717"},{"rt":null,"stimulus":"<div style=\"font-size:60px;\">Next student</div>","response":null,"trial_type":"html-keyboard-response","trial_index":44,"time_elapsed":504895,"internal_node_id":"0.0-37.0-0.0","params":{"nStudents":24,"maxFlips":30,"completionMinutes":45,"basePay":8,"maxBonus":9,"perTrialBonus":0.5,"perTrialBonusThreshold":0.05,"exampleCost":0.01},"classroomParams":{"A":{"a":1,"b":4},"B":{"a":4,"b":1},"C":{"a":2,"b":8},"D":{"a":8,"b":2}},"conditions":["nonSeqFull","nonSeqPartial","seqNoFeedback","seqFeedback"],"classroomPairings":[["A","B"],["C","D"]],"coinWeights":[0.2,0.5,0.8],"subjectId":"A1BE5NGDU9B9JG","assignmentId":"3SB5N7Y3O4Q8PVSWCHTLAKCQVI9G0Q","hitId":"34XASH8KLQ89J2U8D314D7180O4PMV","url":"https://gershmanlab.com/experiments/alicia/teaching/experiment/?hitId=34XASH8KLQ89J2U8D314D7180O4PMV&workerId=A1BE5NGDU9B9JG&assignmentId=3SB5N7Y3O4Q8PVSWCHTLAKCQVI9G0Q&a=3NBS7&tp_a=3NBS7&b=3SB5N7Y3O4Q8PVSWCHTLAKCQVI9G0Q&tp_b=3SB5N7Y3O4Q8PVSWCHTLAKCQVI9G0Q&c=365717&tp_c=365717"},{"rt":6761,"stimulus":"\n            <h4 style=\"color:Orange;\">Student 6</h4>\n            <h2>The weight of your coin is <b style=\"color:Tomato;\">0.5</b>.</h2>\n            <p>In this block, you will be giving <b>one</b> set of examples to Student 6.</p>\n                <p>You will receive feedback at the end of the block.</p>\n            <p></p>","response":0,"trial_type":"html-button-response","trial_index":45,"time_elapsed":511657,"internal_node_id":"0.0-38.0","params":{"nStudents":24,"maxFlips":30,"completionMinutes":45,"basePay":8,"maxBonus":9,"perTrialBonus":0.5,"perTrialBonusThreshold":0.05,"exampleCost":0.01},"classroomParams":{"A":{"a":1,"b":4},"B":{"a":4,"b":1},"C":{"a":2,"b":8},"D":{"a":8,"b":2}},"conditions":["nonSeqFull","nonSeqPartial","seqNoFeedback","seqFeedback"],"classroomPairings":[["A","B"],["C","D"]],"coinWeights":[0.2,0.5,0.8],"subjectId":"A1BE5NGDU9B9JG","assignmentId":"3SB5N7Y3O4Q8PVSWCHTLAKCQVI9G0Q","hitId":"34XASH8KLQ89J2U8D314D7180O4PMV","url":"https://gershmanlab.com/experiments/alicia/teaching/experiment/?hitId=34XASH8KLQ89J2U8D314D7180O4PMV&workerId=A1BE5NGDU9B9JG&assignmentId=3SB5N7Y3O4Q8PVSWCHTLAKCQVI9G0Q&a=3NBS7&tp_a=3NBS7&b=3SB5N7Y3O4Q8PVSWCHTLAKCQVI9G0Q&tp_b=3SB5N7Y3O4Q8PVSWCHTLAKCQVI9G0Q&c=365717&tp_c=365717"},{"rt":9004,"response":{"heads":"4","tails":"4"},"type":"response","condition":"nonSeqPartial","trueTheta":0.5,"classrooms":["A","B"],"studentTrueClassroom":"A","exampleSet":"first","trial_type":"survey-html-form","trial_index":46,"time_elapsed":520662,"internal_node_id":"0.0-39.0-0.0","params":{"nStudents":24,"maxFlips":30,"completionMinutes":45,"basePay":8,"maxBonus":9,"perTrialBonus":0.5,"perTrialBonusThreshold":0.05,"exampleCost":0.01},"classroomParams":{"A":{"a":1,"b":4},"B":{"a":4,"b":1},"C":{"a":2,"b":8},"D":{"a":8,"b":2}},"conditions":["nonSeqFull","nonSeqPartial","seqNoFeedback","seqFeedback"],"classroomPairings":[["A","B"],["C","D"]],"coinWeights":[0.2,0.5,0.8],"subjectId":"A1BE5NGDU9B9JG","assignmentId":"3SB5N7Y3O4Q8PVSWCHTLAKCQVI9G0Q","hitId":"34XASH8KLQ89J2U8D314D7180O4PMV","url":"https://gershmanlab.com/experiments/alicia/teaching/experiment/?hitId=34XASH8KLQ89J2U8D314D7180O4PMV&workerId=A1BE5NGDU9B9JG&assignmentId=3SB5N7Y3O4Q8PVSWCHTLAKCQVI9G0Q&a=3NBS7&tp_a=3NBS7&b=3SB5N7Y3O4Q8PVSWCHTLAKCQVI9G0Q&tp_b=3SB5N7Y3O4Q8PVSWCHTLAKCQVI9G0Q&c=365717&tp_c=365717","heads":4,"tails":4,"studentIndex":5,"studentTrueHypers":{"a":1,"b":4},"studentGuess":0.38461538461538464,"delta":0.11538461538461536,"totalExamples":8,"bonus":0,"bonusSoFar":0.44},{"rt":null,"stimulus":"Sending examples to student... ","response":null,"trial_type":"html-keyboard-response","trial_index":47,"time_elapsed":521926,"internal_node_id":"0.0-40.0","params":{"nStudents":24,"maxFlips":30,"completionMinutes":45,"basePay":8,"maxBonus":9,"perTrialBonus":0.5,"perTrialBonusThreshold":0.05,"exampleCost":0.01},"classroomParams":{"A":{"a":1,"b":4},"B":{"a":4,"b":1},"C":{"a":2,"b":8},"D":{"a":8,"b":2}},"conditions":["nonSeqFull","nonSeqPartial","seqNoFeedback","seqFeedback"],"classroomPairings":[["A","B"],["C","D"]],"coinWeights":[0.2,0.5,0.8],"subjectId":"A1BE5NGDU9B9JG","assignmentId":"3SB5N7Y3O4Q8PVSWCHTLAKCQVI9G0Q","hitId":"34XASH8KLQ89J2U8D314D7180O4PMV","url":"https://gershmanlab.com/experiments/alicia/teaching/experiment/?hitId=34XASH8KLQ89J2U8D314D7180O4PMV&workerId=A1BE5NGDU9B9JG&assignmentId=3SB5N7Y3O4Q8PVSWCHTLAKCQVI9G0Q&a=3NBS7&tp_a=3NBS7&b=3SB5N7Y3O4Q8PVSWCHTLAKCQVI9G0Q&tp_b=3SB5N7Y3O4Q8PVSWCHTLAKCQVI9G0Q&c=365717&tp_c=365717"},{"rt":null,"stimulus":"Examples sent to student! Waiting for student...","response":null,"trial_type":"html-keyboard-response","trial_index":48,"time_elapsed":526937,"internal_node_id":"0.0-41.0","params":{"nStudents":24,"maxFlips":30,"completionMinutes":45,"basePay":8,"maxBonus":9,"perTrialBonus":0.5,"perTrialBonusThreshold":0.05,"exampleCost":0.01},"classroomParams":{"A":{"a":1,"b":4},"B":{"a":4,"b":1},"C":{"a":2,"b":8},"D":{"a":8,"b":2}},"conditions":["nonSeqFull","nonSeqPartial","seqNoFeedback","seqFeedback"],"classroomPairings":[["A","B"],["C","D"]],"coinWeights":[0.2,0.5,0.8],"subjectId":"A1BE5NGDU9B9JG","assignmentId":"3SB5N7Y3O4Q8PVSWCHTLAKCQVI9G0Q","hitId":"34XASH8KLQ89J2U8D314D7180O4PMV","url":"https://gershmanlab.com/experiments/alicia/teaching/experiment/?hitId=34XASH8KLQ89J2U8D314D7180O4PMV&workerId=A1BE5NGDU9B9JG&assignmentId=3SB5N7Y3O4Q8PVSWCHTLAKCQVI9G0Q&a=3NBS7&tp_a=3NBS7&b=3SB5N7Y3O4Q8PVSWCHTLAKCQVI9G0Q&tp_b=3SB5N7Y3O4Q8PVSWCHTLAKCQVI9G0Q&c=365717&tp_c=365717"},{"rt":5936,"stimulus":"\n                <p>Student's guess for coin weight: <b style=\"color:Tomato;\">0.38</b></p>\n                <p>You received a bonus of <b>$0</b>. Total bonus so far: <b>$0.44</b></b></p>\n                <p></p>\n                <p>Press any key to continue.</p>\n                ","response":" ","trial_type":"html-keyboard-response","trial_index":49,"time_elapsed":532873,"internal_node_id":"0.0-42.0","params":{"nStudents":24,"maxFlips":30,"completionMinutes":45,"basePay":8,"maxBonus":9,"perTrialBonus":0.5,"perTrialBonusThreshold":0.05,"exampleCost":0.01},"classroomParams":{"A":{"a":1,"b":4},"B":{"a":4,"b":1},"C":{"a":2,"b":8},"D":{"a":8,"b":2}},"conditions":["nonSeqFull","nonSeqPartial","seqNoFeedback","seqFeedback"],"classroomPairings":[["A","B"],["C","D"]],"coinWeights":[0.2,0.5,0.8],"subjectId":"A1BE5NGDU9B9JG","assignmentId":"3SB5N7Y3O4Q8PVSWCHTLAKCQVI9G0Q","hitId":"34XASH8KLQ89J2U8D314D7180O4PMV","url":"https://gershmanlab.com/experiments/alicia/teaching/experiment/?hitId=34XASH8KLQ89J2U8D314D7180O4PMV&workerId=A1BE5NGDU9B9JG&assignmentId=3SB5N7Y3O4Q8PVSWCHTLAKCQVI9G0Q&a=3NBS7&tp_a=3NBS7&b=3SB5N7Y3O4Q8PVSWCHTLAKCQVI9G0Q&tp_b=3SB5N7Y3O4Q8PVSWCHTLAKCQVI9G0Q&c=365717&tp_c=365717"},{"rt":null,"stimulus":"<div style=\"font-size:60px;\">Next student</div>","response":null,"trial_type":"html-keyboard-response","trial_index":50,"time_elapsed":534889,"internal_node_id":"0.0-43.0-0.0","params":{"nStudents":24,"maxFlips":30,"completionMinutes":45,"basePay":8,"maxBonus":9,"perTrialBonus":0.5,"perTrialBonusThreshold":0.05,"exampleCost":0.01},"classroomParams":{"A":{"a":1,"b":4},"B":{"a":4,"b":1},"C":{"a":2,"b":8},"D":{"a":8,"b":2}},"conditions":["nonSeqFull","nonSeqPartial","seqNoFeedback","seqFeedback"],"classroomPairings":[["A","B"],["C","D"]],"coinWeights":[0.2,0.5,0.8],"subjectId":"A1BE5NGDU9B9JG","assignmentId":"3SB5N7Y3O4Q8PVSWCHTLAKCQVI9G0Q","hitId":"34XASH8KLQ89J2U8D314D7180O4PMV","url":"https://gershmanlab.com/experiments/alicia/teaching/experiment/?hitId=34XASH8KLQ89J2U8D314D7180O4PMV&workerId=A1BE5NGDU9B9JG&assignmentId=3SB5N7Y3O4Q8PVSWCHTLAKCQVI9G0Q&a=3NBS7&tp_a=3NBS7&b=3SB5N7Y3O4Q8PVSWCHTLAKCQVI9G0Q&tp_b=3SB5N7Y3O4Q8PVSWCHTLAKCQVI9G0Q&c=365717&tp_c=365717"},{"rt":3064,"stimulus":"\n            <h4 style=\"color:Orange;\">Student 7</h4>\n            <h2>The weight of your coin is <b style=\"color:Tomato;\">0.2</b>.</h2>\n            <p>In this block, you will be giving <b>one</b> set of examples to Student 7.</p>\n                <p>You will receive feedback at the end of the block.</p>\n            <p></p>","response":0,"trial_type":"html-button-response","trial_index":51,"time_elapsed":537954,"internal_node_id":"0.0-44.0","params":{"nStudents":24,"maxFlips":30,"completionMinutes":45,"basePay":8,"maxBonus":9,"perTrialBonus":0.5,"perTrialBonusThreshold":0.05,"exampleCost":0.01},"classroomParams":{"A":{"a":1,"b":4},"B":{"a":4,"b":1},"C":{"a":2,"b":8},"D":{"a":8,"b":2}},"conditions":["nonSeqFull","nonSeqPartial","seqNoFeedback","seqFeedback"],"classroomPairings":[["A","B"],["C","D"]],"coinWeights":[0.2,0.5,0.8],"subjectId":"A1BE5NGDU9B9JG","assignmentId":"3SB5N7Y3O4Q8PVSWCHTLAKCQVI9G0Q","hitId":"34XASH8KLQ89J2U8D314D7180O4PMV","url":"https://gershmanlab.com/experiments/alicia/teaching/experiment/?hitId=34XASH8KLQ89J2U8D314D7180O4PMV&workerId=A1BE5NGDU9B9JG&assignmentId=3SB5N7Y3O4Q8PVSWCHTLAKCQVI9G0Q&a=3NBS7&tp_a=3NBS7&b=3SB5N7Y3O4Q8PVSWCHTLAKCQVI9G0Q&tp_b=3SB5N7Y3O4Q8PVSWCHTLAKCQVI9G0Q&c=365717&tp_c=365717"},{"rt":9968,"response":{"heads":"9","tails":"2"},"type":"response","condition":"nonSeqPartial","trueTheta":0.2,"classrooms":["A","B"],"studentTrueClassroom":"A","exampleSet":"first","trial_type":"survey-html-form","trial_index":52,"time_elapsed":547923,"internal_node_id":"0.0-45.0-0.0","params":{"nStudents":24,"maxFlips":30,"completionMinutes":45,"basePay":8,"maxBonus":9,"perTrialBonus":0.5,"perTrialBonusThreshold":0.05,"exampleCost":0.01},"classroomParams":{"A":{"a":1,"b":4},"B":{"a":4,"b":1},"C":{"a":2,"b":8},"D":{"a":8,"b":2}},"conditions":["nonSeqFull","nonSeqPartial","seqNoFeedback","seqFeedback"],"classroomPairings":[["A","B"],["C","D"]],"coinWeights":[0.2,0.5,0.8],"subjectId":"A1BE5NGDU9B9JG","assignmentId":"3SB5N7Y3O4Q8PVSWCHTLAKCQVI9G0Q","hitId":"34XASH8KLQ89J2U8D314D7180O4PMV","url":"https://gershmanlab.com/experiments/alicia/teaching/experiment/?hitId=34XASH8KLQ89J2U8D314D7180O4PMV&workerId=A1BE5NGDU9B9JG&assignmentId=3SB5N7Y3O4Q8PVSWCHTLAKCQVI9G0Q&a=3NBS7&tp_a=3NBS7&b=3SB5N7Y3O4Q8PVSWCHTLAKCQVI9G0Q&tp_b=3SB5N7Y3O4Q8PVSWCHTLAKCQVI9G0Q&c=365717&tp_c=365717","heads":9,"tails":2,"studentIndex":6,"studentTrueHypers":{"a":1,"b":4},"studentGuess":0.625,"delta":0.425,"totalExamples":11,"bonus":0,"bonusSoFar":0.44},{"rt":null,"stimulus":"Sending examples to student... ","response":null,"trial_type":"html-keyboard-response","trial_index":53,"time_elapsed":549436,"internal_node_id":"0.0-46.0","params":{"nStudents":24,"maxFlips":30,"completionMinutes":45,"basePay":8,"maxBonus":9,"perTrialBonus":0.5,"perTrialBonusThreshold":0.05,"exampleCost":0.01},"classroomParams":{"A":{"a":1,"b":4},"B":{"a":4,"b":1},"C":{"a":2,"b":8},"D":{"a":8,"b":2}},"conditions":["nonSeqFull","nonSeqPartial","seqNoFeedback","seqFeedback"],"classroomPairings":[["A","B"],["C","D"]],"coinWeights":[0.2,0.5,0.8],"subjectId":"A1BE5NGDU9B9JG","assignmentId":"3SB5N7Y3O4Q8PVSWCHTLAKCQVI9G0Q","hitId":"34XASH8KLQ89J2U8D314D7180O4PMV","url":"https://gershmanlab.com/experiments/alicia/teaching/experiment/?hitId=34XASH8KLQ89J2U8D314D7180O4PMV&workerId=A1BE5NGDU9B9JG&assignmentId=3SB5N7Y3O4Q8PVSWCHTLAKCQVI9G0Q&a=3NBS7&tp_a=3NBS7&b=3SB5N7Y3O4Q8PVSWCHTLAKCQVI9G0Q&tp_b=3SB5N7Y3O4Q8PVSWCHTLAKCQVI9G0Q&c=365717&tp_c=365717"},{"rt":null,"stimulus":"Examples sent to student! Waiting for student...","response":null,"trial_type":"html-keyboard-response","trial_index":54,"time_elapsed":553443,"internal_node_id":"0.0-47.0","params":{"nStudents":24,"maxFlips":30,"completionMinutes":45,"basePay":8,"maxBonus":9,"perTrialBonus":0.5,"perTrialBonusThreshold":0.05,"exampleCost":0.01},"classroomParams":{"A":{"a":1,"b":4},"B":{"a":4,"b":1},"C":{"a":2,"b":8},"D":{"a":8,"b":2}},"conditions":["nonSeqFull","nonSeqPartial","seqNoFeedback","seqFeedback"],"classroomPairings":[["A","B"],["C","D"]],"coinWeights":[0.2,0.5,0.8],"subjectId":"A1BE5NGDU9B9JG","assignmentId":"3SB5N7Y3O4Q8PVSWCHTLAKCQVI9G0Q","hitId":"34XASH8KLQ89J2U8D314D7180O4PMV","url":"https://gershmanlab.com/experiments/alicia/teaching/experiment/?hitId=34XASH8KLQ89J2U8D314D7180O4PMV&workerId=A1BE5NGDU9B9JG&assignmentId=3SB5N7Y3O4Q8PVSWCHTLAKCQVI9G0Q&a=3NBS7&tp_a=3NBS7&b=3SB5N7Y3O4Q8PVSWCHTLAKCQVI9G0Q&tp_b=3SB5N7Y3O4Q8PVSWCHTLAKCQVI9G0Q&c=365717&tp_c=365717"},{"rt":2991,"stimulus":"\n                <p>Student's guess for coin weight: <b style=\"color:Tomato;\">0.63</b></p>\n                <p>You received a bonus of <b>$0</b>. Total bonus so far: <b>$0.44</b></b></p>\n                <p></p>\n                <p>Press any key to continue.</p>\n                ","response":" ","trial_type":"html-keyboard-response","trial_index":55,"time_elapsed":556435,"internal_node_id":"0.0-48.0","params":{"nStudents":24,"maxFlips":30,"completionMinutes":45,"basePay":8,"maxBonus":9,"perTrialBonus":0.5,"perTrialBonusThreshold":0.05,"exampleCost":0.01},"classroomParams":{"A":{"a":1,"b":4},"B":{"a":4,"b":1},"C":{"a":2,"b":8},"D":{"a":8,"b":2}},"conditions":["nonSeqFull","nonSeqPartial","seqNoFeedback","seqFeedback"],"classroomPairings":[["A","B"],["C","D"]],"coinWeights":[0.2,0.5,0.8],"subjectId":"A1BE5NGDU9B9JG","assignmentId":"3SB5N7Y3O4Q8PVSWCHTLAKCQVI9G0Q","hitId":"34XASH8KLQ89J2U8D314D7180O4PMV","url":"https://gershmanlab.com/experiments/alicia/teaching/experiment/?hitId=34XASH8KLQ89J2U8D314D7180O4PMV&workerId=A1BE5NGDU9B9JG&assignmentId=3SB5N7Y3O4Q8PVSWCHTLAKCQVI9G0Q&a=3NBS7&tp_a=3NBS7&b=3SB5N7Y3O4Q8PVSWCHTLAKCQVI9G0Q&tp_b=3SB5N7Y3O4Q8PVSWCHTLAKCQVI9G0Q&c=365717&tp_c=365717"},{"rt":null,"stimulus":"<div style=\"font-size:60px;\">Next student</div>","response":null,"trial_type":"html-keyboard-response","trial_index":56,"time_elapsed":558439,"internal_node_id":"0.0-49.0-0.0","params":{"nStudents":24,"maxFlips":30,"completionMinutes":45,"basePay":8,"maxBonus":9,"perTrialBonus":0.5,"perTrialBonusThreshold":0.05,"exampleCost":0.01},"classroomParams":{"A":{"a":1,"b":4},"B":{"a":4,"b":1},"C":{"a":2,"b":8},"D":{"a":8,"b":2}},"conditions":["nonSeqFull","nonSeqPartial","seqNoFeedback","seqFeedback"],"classroomPairings":[["A","B"],["C","D"]],"coinWeights":[0.2,0.5,0.8],"subjectId":"A1BE5NGDU9B9JG","assignmentId":"3SB5N7Y3O4Q8PVSWCHTLAKCQVI9G0Q","hitId":"34XASH8KLQ89J2U8D314D7180O4PMV","url":"https://gershmanlab.com/experiments/alicia/teaching/experiment/?hitId=34XASH8KLQ89J2U8D314D7180O4PMV&workerId=A1BE5NGDU9B9JG&assignmentId=3SB5N7Y3O4Q8PVSWCHTLAKCQVI9G0Q&a=3NBS7&tp_a=3NBS7&b=3SB5N7Y3O4Q8PVSWCHTLAKCQVI9G0Q&tp_b=3SB5N7Y3O4Q8PVSWCHTLAKCQVI9G0Q&c=365717&tp_c=365717"},{"rt":15385,"stimulus":"\n            <h4 style=\"color:Orange;\">Student 8</h4>\n            <h2>The weight of your coin is <b style=\"color:Tomato;\">0.5</b>.</h2>\n            <p>In this block, you will be giving <b>two</b> sets of examples to Student 8.</p>\n                <p>You will see the student's guess after the first set of examples. You will also receive feedback at the end of the block.</p>\n            <p>To earn the highest bonus, you will have to <b>take into consideration the student's guess</b> when you choose your second set of examples.</p>","response":0,"trial_type":"html-button-response","trial_index":57,"time_elapsed":573826,"internal_node_id":"0.0-50.0","params":{"nStudents":24,"maxFlips":30,"completionMinutes":45,"basePay":8,"maxBonus":9,"perTrialBonus":0.5,"perTrialBonusThreshold":0.05,"exampleCost":0.01},"classroomParams":{"A":{"a":1,"b":4},"B":{"a":4,"b":1},"C":{"a":2,"b":8},"D":{"a":8,"b":2}},"conditions":["nonSeqFull","nonSeqPartial","seqNoFeedback","seqFeedback"],"classroomPairings":[["A","B"],["C","D"]],"coinWeights":[0.2,0.5,0.8],"subjectId":"A1BE5NGDU9B9JG","assignmentId":"3SB5N7Y3O4Q8PVSWCHTLAKCQVI9G0Q","hitId":"34XASH8KLQ89J2U8D314D7180O4PMV","url":"https://gershmanlab.com/experiments/alicia/teaching/experiment/?hitId=34XASH8KLQ89J2U8D314D7180O4PMV&workerId=A1BE5NGDU9B9JG&assignmentId=3SB5N7Y3O4Q8PVSWCHTLAKCQVI9G0Q&a=3NBS7&tp_a=3NBS7&b=3SB5N7Y3O4Q8PVSWCHTLAKCQVI9G0Q&tp_b=3SB5N7Y3O4Q8PVSWCHTLAKCQVI9G0Q&c=365717&tp_c=365717"},{"rt":15264,"response":{"heads":"4","tails":"4"},"type":"response","condition":"seqFeedback","trueTheta":0.5,"classrooms":["A","B"],"studentTrueClassroom":"B","exampleSet":"first","trial_type":"survey-html-form","trial_index":58,"time_elapsed":589091,"internal_node_id":"0.0-51.0-0.0","params":{"nStudents":24,"maxFlips":30,"completionMinutes":45,"basePay":8,"maxBonus":9,"perTrialBonus":0.5,"perTrialBonusThreshold":0.05,"exampleCost":0.01},"classroomParams":{"A":{"a":1,"b":4},"B":{"a":4,"b":1},"C":{"a":2,"b":8},"D":{"a":8,"b":2}},"conditions":["nonSeqFull","nonSeqPartial","seqNoFeedback","seqFeedback"],"classroomPairings":[["A","B"],["C","D"]],"coinWeights":[0.2,0.5,0.8],"subjectId":"A1BE5NGDU9B9JG","assignmentId":"3SB5N7Y3O4Q8PVSWCHTLAKCQVI9G0Q","hitId":"34XASH8KLQ89J2U8D314D7180O4PMV","url":"https://gershmanlab.com/experiments/alicia/teaching/experiment/?hitId=34XASH8KLQ89J2U8D314D7180O4PMV&workerId=A1BE5NGDU9B9JG&assignmentId=3SB5N7Y3O4Q8PVSWCHTLAKCQVI9G0Q&a=3NBS7&tp_a=3NBS7&b=3SB5N7Y3O4Q8PVSWCHTLAKCQVI9G0Q&tp_b=3SB5N7Y3O4Q8PVSWCHTLAKCQVI9G0Q&c=365717&tp_c=365717","heads":4,"tails":4,"studentIndex":7,"studentTrueHypers":{"a":4,"b":1},"studentGuess":0.6153846153846154,"delta":0.11538461538461542,"totalExamples":8,"bonusSoFar":0.44},{"rt":null,"stimulus":"Sending examples to student... ","response":null,"trial_type":"html-keyboard-response","trial_index":59,"time_elapsed":590843,"internal_node_id":"0.0-52.0","params":{"nStudents":24,"maxFlips":30,"completionMinutes":45,"basePay":8,"maxBonus":9,"perTrialBonus":0.5,"perTrialBonusThreshold":0.05,"exampleCost":0.01},"classroomParams":{"A":{"a":1,"b":4},"B":{"a":4,"b":1},"C":{"a":2,"b":8},"D":{"a":8,"b":2}},"conditions":["nonSeqFull","nonSeqPartial","seqNoFeedback","seqFeedback"],"classroomPairings":[["A","B"],["C","D"]],"coinWeights":[0.2,0.5,0.8],"subjectId":"A1BE5NGDU9B9JG","assignmentId":"3SB5N7Y3O4Q8PVSWCHTLAKCQVI9G0Q","hitId":"34XASH8KLQ89J2U8D314D7180O4PMV","url":"https://gershmanlab.com/experiments/alicia/teaching/experiment/?hitId=34XASH8KLQ89J2U8D314D7180O4PMV&workerId=A1BE5NGDU9B9JG&assignmentId=3SB5N7Y3O4Q8PVSWCHTLAKCQVI9G0Q&a=3NBS7&tp_a=3NBS7&b=3SB5N7Y3O4Q8PVSWCHTLAKCQVI9G0Q&tp_b=3SB5N7Y3O4Q8PVSWCHTLAKCQVI9G0Q&c=365717&tp_c=365717"},{"rt":null,"stimulus":"Examples sent to student! Waiting for student...","response":null,"trial_type":"html-keyboard-response","trial_index":60,"time_elapsed":596349,"internal_node_id":"0.0-53.0","params":{"nStudents":24,"maxFlips":30,"completionMinutes":45,"basePay":8,"maxBonus":9,"perTrialBonus":0.5,"perTrialBonusThreshold":0.05,"exampleCost":0.01},"classroomParams":{"A":{"a":1,"b":4},"B":{"a":4,"b":1},"C":{"a":2,"b":8},"D":{"a":8,"b":2}},"conditions":["nonSeqFull","nonSeqPartial","seqNoFeedback","seqFeedback"],"classroomPairings":[["A","B"],["C","D"]],"coinWeights":[0.2,0.5,0.8],"subjectId":"A1BE5NGDU9B9JG","assignmentId":"3SB5N7Y3O4Q8PVSWCHTLAKCQVI9G0Q","hitId":"34XASH8KLQ89J2U8D314D7180O4PMV","url":"https://gershmanlab.com/experiments/alicia/teaching/experiment/?hitId=34XASH8KLQ89J2U8D314D7180O4PMV&workerId=A1BE5NGDU9B9JG&assignmentId=3SB5N7Y3O4Q8PVSWCHTLAKCQVI9G0Q&a=3NBS7&tp_a=3NBS7&b=3SB5N7Y3O4Q8PVSWCHTLAKCQVI9G0Q&tp_b=3SB5N7Y3O4Q8PVSWCHTLAKCQVI9G0Q&c=365717&tp_c=365717"},{"rt":8227,"stimulus":"\n                <p>Student's guess for coin weight: <b style=\"color:Tomato;\">0.62</b></p>\n                <p></b></p>\n                <p>You will now send another set of examples to your student. <b>Remember to take your student's guess into consideration so that you can earn the highest bonus possible!</b> </p>\n                <p>Press any key to continue.</p>\n                ","response":" ","trial_type":"html-keyboard-response","trial_index":61,"time_elapsed":604576,"internal_node_id":"0.0-54.0","params":{"nStudents":24,"maxFlips":30,"completionMinutes":45,"basePay":8,"maxBonus":9,"perTrialBonus":0.5,"perTrialBonusThreshold":0.05,"exampleCost":0.01},"classroomParams":{"A":{"a":1,"b":4},"B":{"a":4,"b":1},"C":{"a":2,"b":8},"D":{"a":8,"b":2}},"conditions":["nonSeqFull","nonSeqPartial","seqNoFeedback","seqFeedback"],"classroomPairings":[["A","B"],["C","D"]],"coinWeights":[0.2,0.5,0.8],"subjectId":"A1BE5NGDU9B9JG","assignmentId":"3SB5N7Y3O4Q8PVSWCHTLAKCQVI9G0Q","hitId":"34XASH8KLQ89J2U8D314D7180O4PMV","url":"https://gershmanlab.com/experiments/alicia/teaching/experiment/?hitId=34XASH8KLQ89J2U8D314D7180O4PMV&workerId=A1BE5NGDU9B9JG&assignmentId=3SB5N7Y3O4Q8PVSWCHTLAKCQVI9G0Q&a=3NBS7&tp_a=3NBS7&b=3SB5N7Y3O4Q8PVSWCHTLAKCQVI9G0Q&tp_b=3SB5N7Y3O4Q8PVSWCHTLAKCQVI9G0Q&c=365717&tp_c=365717"},{"rt":11464,"response":{"heads":"4","tails":"6"},"type":"response","condition":"seqFeedback","trueTheta":0.5,"classrooms":["A","B"],"studentTrueClassroom":"B","exampleSet":"second","trial_type":"survey-html-form","trial_index":62,"time_elapsed":616041,"internal_node_id":"0.0-55.0-0.0","params":{"nStudents":24,"maxFlips":30,"completionMinutes":45,"basePay":8,"maxBonus":9,"perTrialBonus":0.5,"perTrialBonusThreshold":0.05,"exampleCost":0.01},"classroomParams":{"A":{"a":1,"b":4},"B":{"a":4,"b":1},"C":{"a":2,"b":8},"D":{"a":8,"b":2}},"conditions":["nonSeqFull","nonSeqPartial","seqNoFeedback","seqFeedback"],"classroomPairings":[["A","B"],["C","D"]],"coinWeights":[0.2,0.5,0.8],"subjectId":"A1BE5NGDU9B9JG","assignmentId":"3SB5N7Y3O4Q8PVSWCHTLAKCQVI9G0Q","hitId":"34XASH8KLQ89J2U8D314D7180O4PMV","url":"https://gershmanlab.com/experiments/alicia/teaching/experiment/?hitId=34XASH8KLQ89J2U8D314D7180O4PMV&workerId=A1BE5NGDU9B9JG&assignmentId=3SB5N7Y3O4Q8PVSWCHTLAKCQVI9G0Q&a=3NBS7&tp_a=3NBS7&b=3SB5N7Y3O4Q8PVSWCHTLAKCQVI9G0Q&tp_b=3SB5N7Y3O4Q8PVSWCHTLAKCQVI9G0Q&c=365717&tp_c=365717","firstResponseHeads":4,"firstResponseTails":4,"secondResponseHeads":4,"secondResponseTails":6,"totalHeads":8,"totalTails":10,"studentIndex":7,"studentTrueHypers":{"a":4,"b":1},"studentGuess":0.5217391304347826,"delta":0.021739130434782594,"bonus":0.32,"bonusSoFar":0.76,"totalExamples":18},{"rt":null,"stimulus":"Sending examples to student... ","response":null,"trial_type":"html-keyboard-response","trial_index":63,"time_elapsed":617797,"internal_node_id":"0.0-56.0","params":{"nStudents":24,"maxFlips":30,"completionMinutes":45,"basePay":8,"maxBonus":9,"perTrialBonus":0.5,"perTrialBonusThreshold":0.05,"exampleCost":0.01},"classroomParams":{"A":{"a":1,"b":4},"B":{"a":4,"b":1},"C":{"a":2,"b":8},"D":{"a":8,"b":2}},"conditions":["nonSeqFull","nonSeqPartial","seqNoFeedback","seqFeedback"],"classroomPairings":[["A","B"],["C","D"]],"coinWeights":[0.2,0.5,0.8],"subjectId":"A1BE5NGDU9B9JG","assignmentId":"3SB5N7Y3O4Q8PVSWCHTLAKCQVI9G0Q","hitId":"34XASH8KLQ89J2U8D314D7180O4PMV","url":"https://gershmanlab.com/experiments/alicia/teaching/experiment/?hitId=34XASH8KLQ89J2U8D314D7180O4PMV&workerId=A1BE5NGDU9B9JG&assignmentId=3SB5N7Y3O4Q8PVSWCHTLAKCQVI9G0Q&a=3NBS7&tp_a=3NBS7&b=3SB5N7Y3O4Q8PVSWCHTLAKCQVI9G0Q&tp_b=3SB5N7Y3O4Q8PVSWCHTLAKCQVI9G0Q&c=365717&tp_c=365717"},{"rt":null,"stimulus":"Examples sent to student! Waiting for student...","response":null,"trial_type":"html-keyboard-response","trial_index":64,"time_elapsed":621805,"internal_node_id":"0.0-57.0","params":{"nStudents":24,"maxFlips":30,"completionMinutes":45,"basePay":8,"maxBonus":9,"perTrialBonus":0.5,"perTrialBonusThreshold":0.05,"exampleCost":0.01},"classroomParams":{"A":{"a":1,"b":4},"B":{"a":4,"b":1},"C":{"a":2,"b":8},"D":{"a":8,"b":2}},"conditions":["nonSeqFull","nonSeqPartial","seqNoFeedback","seqFeedback"],"classroomPairings":[["A","B"],["C","D"]],"coinWeights":[0.2,0.5,0.8],"subjectId":"A1BE5NGDU9B9JG","assignmentId":"3SB5N7Y3O4Q8PVSWCHTLAKCQVI9G0Q","hitId":"34XASH8KLQ89J2U8D314D7180O4PMV","url":"https://gershmanlab.com/experiments/alicia/teaching/experiment/?hitId=34XASH8KLQ89J2U8D314D7180O4PMV&workerId=A1BE5NGDU9B9JG&assignmentId=3SB5N7Y3O4Q8PVSWCHTLAKCQVI9G0Q&a=3NBS7&tp_a=3NBS7&b=3SB5N7Y3O4Q8PVSWCHTLAKCQVI9G0Q&tp_b=3SB5N7Y3O4Q8PVSWCHTLAKCQVI9G0Q&c=365717&tp_c=365717"},{"rt":5113,"stimulus":"\n                <p>Student 8's first guess for coin weight: <b style=\"color:Tomato\";>0.62</b></p>\n                <p>Student 8's second guess for coin weight: <b style=\"color:Tomato\";>0.52</b></p>\n                <p>You received a bonus of <b>$0.32</b> based on the student's second guess.</p>\n                <p>Total bonus so far: <b>$0.76</b></p>\n                <p>Press any key to continue.</p>\n                ","response":" ","trial_type":"html-keyboard-response","trial_index":65,"time_elapsed":626919,"internal_node_id":"0.0-58.0","params":{"nStudents":24,"maxFlips":30,"completionMinutes":45,"basePay":8,"maxBonus":9,"perTrialBonus":0.5,"perTrialBonusThreshold":0.05,"exampleCost":0.01},"classroomParams":{"A":{"a":1,"b":4},"B":{"a":4,"b":1},"C":{"a":2,"b":8},"D":{"a":8,"b":2}},"conditions":["nonSeqFull","nonSeqPartial","seqNoFeedback","seqFeedback"],"classroomPairings":[["A","B"],["C","D"]],"coinWeights":[0.2,0.5,0.8],"subjectId":"A1BE5NGDU9B9JG","assignmentId":"3SB5N7Y3O4Q8PVSWCHTLAKCQVI9G0Q","hitId":"34XASH8KLQ89J2U8D314D7180O4PMV","url":"https://gershmanlab.com/experiments/alicia/teaching/experiment/?hitId=34XASH8KLQ89J2U8D314D7180O4PMV&workerId=A1BE5NGDU9B9JG&assignmentId=3SB5N7Y3O4Q8PVSWCHTLAKCQVI9G0Q&a=3NBS7&tp_a=3NBS7&b=3SB5N7Y3O4Q8PVSWCHTLAKCQVI9G0Q&tp_b=3SB5N7Y3O4Q8PVSWCHTLAKCQVI9G0Q&c=365717&tp_c=365717"},{"rt":null,"stimulus":"<div style=\"font-size:60px;\">Next student</div>","response":null,"trial_type":"html-keyboard-response","trial_index":66,"time_elapsed":629181,"internal_node_id":"0.0-59.0-0.0","params":{"nStudents":24,"maxFlips":30,"completionMinutes":45,"basePay":8,"maxBonus":9,"perTrialBonus":0.5,"perTrialBonusThreshold":0.05,"exampleCost":0.01},"classroomParams":{"A":{"a":1,"b":4},"B":{"a":4,"b":1},"C":{"a":2,"b":8},"D":{"a":8,"b":2}},"conditions":["nonSeqFull","nonSeqPartial","seqNoFeedback","seqFeedback"],"classroomPairings":[["A","B"],["C","D"]],"coinWeights":[0.2,0.5,0.8],"subjectId":"A1BE5NGDU9B9JG","assignmentId":"3SB5N7Y3O4Q8PVSWCHTLAKCQVI9G0Q","hitId":"34XASH8KLQ89J2U8D314D7180O4PMV","url":"https://gershmanlab.com/experiments/alicia/teaching/experiment/?hitId=34XASH8KLQ89J2U8D314D7180O4PMV&workerId=A1BE5NGDU9B9JG&assignmentId=3SB5N7Y3O4Q8PVSWCHTLAKCQVI9G0Q&a=3NBS7&tp_a=3NBS7&b=3SB5N7Y3O4Q8PVSWCHTLAKCQVI9G0Q&tp_b=3SB5N7Y3O4Q8PVSWCHTLAKCQVI9G0Q&c=365717&tp_c=365717"},{"rt":1745,"stimulus":"\n            <h4 style=\"color:Orange;\">Student 9</h4>\n            <h2>The weight of your coin is <b style=\"color:Tomato;\">0.8</b>.</h2>\n            <p>In this block, you will be giving <b>one</b> set of examples to Student 9.</p>\n                <p>You will receive feedback at the end of the block.</p>\n            <p></p>","response":0,"trial_type":"html-button-response","trial_index":67,"time_elapsed":630927,"internal_node_id":"0.0-60.0","params":{"nStudents":24,"maxFlips":30,"completionMinutes":45,"basePay":8,"maxBonus":9,"perTrialBonus":0.5,"perTrialBonusThreshold":0.05,"exampleCost":0.01},"classroomParams":{"A":{"a":1,"b":4},"B":{"a":4,"b":1},"C":{"a":2,"b":8},"D":{"a":8,"b":2}},"conditions":["nonSeqFull","nonSeqPartial","seqNoFeedback","seqFeedback"],"classroomPairings":[["A","B"],["C","D"]],"coinWeights":[0.2,0.5,0.8],"subjectId":"A1BE5NGDU9B9JG","assignmentId":"3SB5N7Y3O4Q8PVSWCHTLAKCQVI9G0Q","hitId":"34XASH8KLQ89J2U8D314D7180O4PMV","url":"https://gershmanlab.com/experiments/alicia/teaching/experiment/?hitId=34XASH8KLQ89J2U8D314D7180O4PMV&workerId=A1BE5NGDU9B9JG&assignmentId=3SB5N7Y3O4Q8PVSWCHTLAKCQVI9G0Q&a=3NBS7&tp_a=3NBS7&b=3SB5N7Y3O4Q8PVSWCHTLAKCQVI9G0Q&tp_b=3SB5N7Y3O4Q8PVSWCHTLAKCQVI9G0Q&c=365717&tp_c=365717"},{"rt":22018,"response":{"heads":"8","tails":"2"},"type":"response","condition":"nonSeqFull","trueTheta":0.8,"classrooms":["A","B"],"studentTrueClassroom":"B","exampleSet":"first","trial_type":"survey-html-form","trial_index":68,"time_elapsed":652946,"internal_node_id":"0.0-61.0-0.0","params":{"nStudents":24,"maxFlips":30,"completionMinutes":45,"basePay":8,"maxBonus":9,"perTrialBonus":0.5,"perTrialBonusThreshold":0.05,"exampleCost":0.01},"classroomParams":{"A":{"a":1,"b":4},"B":{"a":4,"b":1},"C":{"a":2,"b":8},"D":{"a":8,"b":2}},"conditions":["nonSeqFull","nonSeqPartial","seqNoFeedback","seqFeedback"],"classroomPairings":[["A","B"],["C","D"]],"coinWeights":[0.2,0.5,0.8],"subjectId":"A1BE5NGDU9B9JG","assignmentId":"3SB5N7Y3O4Q8PVSWCHTLAKCQVI9G0Q","hitId":"34XASH8KLQ89J2U8D314D7180O4PMV","url":"https://gershmanlab.com/experiments/alicia/teaching/experiment/?hitId=34XASH8KLQ89J2U8D314D7180O4PMV&workerId=A1BE5NGDU9B9JG&assignmentId=3SB5N7Y3O4Q8PVSWCHTLAKCQVI9G0Q&a=3NBS7&tp_a=3NBS7&b=3SB5N7Y3O4Q8PVSWCHTLAKCQVI9G0Q&tp_b=3SB5N7Y3O4Q8PVSWCHTLAKCQVI9G0Q&c=365717&tp_c=365717","heads":8,"tails":2,"studentIndex":8,"studentTrueHypers":{"a":4,"b":1},"studentGuess":0.8,"delta":0,"totalExamples":10,"bonus":0.4,"bonusSoFar":1.16},{"rt":null,"stimulus":"Sending examples to student... ","response":null,"trial_type":"html-keyboard-response","trial_index":69,"time_elapsed":654203,"internal_node_id":"0.0-62.0","params":{"nStudents":24,"maxFlips":30,"completionMinutes":45,"basePay":8,"maxBonus":9,"perTrialBonus":0.5,"perTrialBonusThreshold":0.05,"exampleCost":0.01},"classroomParams":{"A":{"a":1,"b":4},"B":{"a":4,"b":1},"C":{"a":2,"b":8},"D":{"a":8,"b":2}},"conditions":["nonSeqFull","nonSeqPartial","seqNoFeedback","seqFeedback"],"classroomPairings":[["A","B"],["C","D"]],"coinWeights":[0.2,0.5,0.8],"subjectId":"A1BE5NGDU9B9JG","assignmentId":"3SB5N7Y3O4Q8PVSWCHTLAKCQVI9G0Q","hitId":"34XASH8KLQ89J2U8D314D7180O4PMV","url":"https://gershmanlab.com/experiments/alicia/teaching/experiment/?hitId=34XASH8KLQ89J2U8D314D7180O4PMV&workerId=A1BE5NGDU9B9JG&assignmentId=3SB5N7Y3O4Q8PVSWCHTLAKCQVI9G0Q&a=3NBS7&tp_a=3NBS7&b=3SB5N7Y3O4Q8PVSWCHTLAKCQVI9G0Q&tp_b=3SB5N7Y3O4Q8PVSWCHTLAKCQVI9G0Q&c=365717&tp_c=365717"},{"rt":null,"stimulus":"Examples sent to student! Waiting for student...","response":null,"trial_type":"html-keyboard-response","trial_index":70,"time_elapsed":660204,"internal_node_id":"0.0-63.0","params":{"nStudents":24,"maxFlips":30,"completionMinutes":45,"basePay":8,"maxBonus":9,"perTrialBonus":0.5,"perTrialBonusThreshold":0.05,"exampleCost":0.01},"classroomParams":{"A":{"a":1,"b":4},"B":{"a":4,"b":1},"C":{"a":2,"b":8},"D":{"a":8,"b":2}},"conditions":["nonSeqFull","nonSeqPartial","seqNoFeedback","seqFeedback"],"classroomPairings":[["A","B"],["C","D"]],"coinWeights":[0.2,0.5,0.8],"subjectId":"A1BE5NGDU9B9JG","assignmentId":"3SB5N7Y3O4Q8PVSWCHTLAKCQVI9G0Q","hitId":"34XASH8KLQ89J2U8D314D7180O4PMV","url":"https://gershmanlab.com/experiments/alicia/teaching/experiment/?hitId=34XASH8KLQ89J2U8D314D7180O4PMV&workerId=A1BE5NGDU9B9JG&assignmentId=3SB5N7Y3O4Q8PVSWCHTLAKCQVI9G0Q&a=3NBS7&tp_a=3NBS7&b=3SB5N7Y3O4Q8PVSWCHTLAKCQVI9G0Q&tp_b=3SB5N7Y3O4Q8PVSWCHTLAKCQVI9G0Q&c=365717&tp_c=365717"},{"rt":5041,"stimulus":"\n                <p>Student's guess for coin weight: <b style=\"color:Tomato;\">0.80</b></p>\n                <p>You received a bonus of <b>$0.4</b>. Total bonus so far: <b>$1.16</b></b></p>\n                <p></p>\n                <p>Press any key to continue.</p>\n                ","response":" ","trial_type":"html-keyboard-response","trial_index":71,"time_elapsed":665246,"internal_node_id":"0.0-64.0","params":{"nStudents":24,"maxFlips":30,"completionMinutes":45,"basePay":8,"maxBonus":9,"perTrialBonus":0.5,"perTrialBonusThreshold":0.05,"exampleCost":0.01},"classroomParams":{"A":{"a":1,"b":4},"B":{"a":4,"b":1},"C":{"a":2,"b":8},"D":{"a":8,"b":2}},"conditions":["nonSeqFull","nonSeqPartial","seqNoFeedback","seqFeedback"],"classroomPairings":[["A","B"],["C","D"]],"coinWeights":[0.2,0.5,0.8],"subjectId":"A1BE5NGDU9B9JG","assignmentId":"3SB5N7Y3O4Q8PVSWCHTLAKCQVI9G0Q","hitId":"34XASH8KLQ89J2U8D314D7180O4PMV","url":"https://gershmanlab.com/experiments/alicia/teaching/experiment/?hitId=34XASH8KLQ89J2U8D314D7180O4PMV&workerId=A1BE5NGDU9B9JG&assignmentId=3SB5N7Y3O4Q8PVSWCHTLAKCQVI9G0Q&a=3NBS7&tp_a=3NBS7&b=3SB5N7Y3O4Q8PVSWCHTLAKCQVI9G0Q&tp_b=3SB5N7Y3O4Q8PVSWCHTLAKCQVI9G0Q&c=365717&tp_c=365717"},{"rt":null,"stimulus":"<div style=\"font-size:60px;\">Next student</div>","response":null,"trial_type":"html-keyboard-response","trial_index":72,"time_elapsed":667939,"internal_node_id":"0.0-65.0-0.0","params":{"nStudents":24,"maxFlips":30,"completionMinutes":45,"basePay":8,"maxBonus":9,"perTrialBonus":0.5,"perTrialBonusThreshold":0.05,"exampleCost":0.01},"classroomParams":{"A":{"a":1,"b":4},"B":{"a":4,"b":1},"C":{"a":2,"b":8},"D":{"a":8,"b":2}},"conditions":["nonSeqFull","nonSeqPartial","seqNoFeedback","seqFeedback"],"classroomPairings":[["A","B"],["C","D"]],"coinWeights":[0.2,0.5,0.8],"subjectId":"A1BE5NGDU9B9JG","assignmentId":"3SB5N7Y3O4Q8PVSWCHTLAKCQVI9G0Q","hitId":"34XASH8KLQ89J2U8D314D7180O4PMV","url":"https://gershmanlab.com/experiments/alicia/teaching/experiment/?hitId=34XASH8KLQ89J2U8D314D7180O4PMV&workerId=A1BE5NGDU9B9JG&assignmentId=3SB5N7Y3O4Q8PVSWCHTLAKCQVI9G0Q&a=3NBS7&tp_a=3NBS7&b=3SB5N7Y3O4Q8PVSWCHTLAKCQVI9G0Q&tp_b=3SB5N7Y3O4Q8PVSWCHTLAKCQVI9G0Q&c=365717&tp_c=365717"},{"rt":2848,"stimulus":"\n            <h4 style=\"color:Orange;\">Student 10</h4>\n            <h2>The weight of your coin is <b style=\"color:Tomato;\">0.8</b>.</h2>\n            <p>In this block, you will be giving <b>two</b> sets of examples to Student 10.</p>\n                <p>You will see the student's guess after the first set of examples. You will also receive feedback at the end of the block.</p>\n            <p>To earn the highest bonus, you will have to <b>take into consideration the student's guess</b> when you choose your second set of examples.</p>","response":0,"trial_type":"html-button-response","trial_index":73,"time_elapsed":670789,"internal_node_id":"0.0-66.0","params":{"nStudents":24,"maxFlips":30,"completionMinutes":45,"basePay":8,"maxBonus":9,"perTrialBonus":0.5,"perTrialBonusThreshold":0.05,"exampleCost":0.01},"classroomParams":{"A":{"a":1,"b":4},"B":{"a":4,"b":1},"C":{"a":2,"b":8},"D":{"a":8,"b":2}},"conditions":["nonSeqFull","nonSeqPartial","seqNoFeedback","seqFeedback"],"classroomPairings":[["A","B"],["C","D"]],"coinWeights":[0.2,0.5,0.8],"subjectId":"A1BE5NGDU9B9JG","assignmentId":"3SB5N7Y3O4Q8PVSWCHTLAKCQVI9G0Q","hitId":"34XASH8KLQ89J2U8D314D7180O4PMV","url":"https://gershmanlab.com/experiments/alicia/teaching/experiment/?hitId=34XASH8KLQ89J2U8D314D7180O4PMV&workerId=A1BE5NGDU9B9JG&assignmentId=3SB5N7Y3O4Q8PVSWCHTLAKCQVI9G0Q&a=3NBS7&tp_a=3NBS7&b=3SB5N7Y3O4Q8PVSWCHTLAKCQVI9G0Q&tp_b=3SB5N7Y3O4Q8PVSWCHTLAKCQVI9G0Q&c=365717&tp_c=365717"},{"rt":10872,"response":{"heads":"9","tails":"2"},"type":"response","condition":"seqFeedback","trueTheta":0.8,"classrooms":["A","B"],"studentTrueClassroom":"A","exampleSet":"first","trial_type":"survey-html-form","trial_index":74,"time_elapsed":681661,"internal_node_id":"0.0-67.0-0.0","params":{"nStudents":24,"maxFlips":30,"completionMinutes":45,"basePay":8,"maxBonus":9,"perTrialBonus":0.5,"perTrialBonusThreshold":0.05,"exampleCost":0.01},"classroomParams":{"A":{"a":1,"b":4},"B":{"a":4,"b":1},"C":{"a":2,"b":8},"D":{"a":8,"b":2}},"conditions":["nonSeqFull","nonSeqPartial","seqNoFeedback","seqFeedback"],"classroomPairings":[["A","B"],["C","D"]],"coinWeights":[0.2,0.5,0.8],"subjectId":"A1BE5NGDU9B9JG","assignmentId":"3SB5N7Y3O4Q8PVSWCHTLAKCQVI9G0Q","hitId":"34XASH8KLQ89J2U8D314D7180O4PMV","url":"https://gershmanlab.com/experiments/alicia/teaching/experiment/?hitId=34XASH8KLQ89J2U8D314D7180O4PMV&workerId=A1BE5NGDU9B9JG&assignmentId=3SB5N7Y3O4Q8PVSWCHTLAKCQVI9G0Q&a=3NBS7&tp_a=3NBS7&b=3SB5N7Y3O4Q8PVSWCHTLAKCQVI9G0Q&tp_b=3SB5N7Y3O4Q8PVSWCHTLAKCQVI9G0Q&c=365717&tp_c=365717","heads":9,"tails":2,"studentIndex":9,"studentTrueHypers":{"a":1,"b":4},"studentGuess":0.625,"delta":0.17500000000000004,"totalExamples":11,"bonusSoFar":1.16},{"rt":null,"stimulus":"Sending examples to student... ","response":null,"trial_type":"html-keyboard-response","trial_index":75,"time_elapsed":683167,"internal_node_id":"0.0-68.0","params":{"nStudents":24,"maxFlips":30,"completionMinutes":45,"basePay":8,"maxBonus":9,"perTrialBonus":0.5,"perTrialBonusThreshold":0.05,"exampleCost":0.01},"classroomParams":{"A":{"a":1,"b":4},"B":{"a":4,"b":1},"C":{"a":2,"b":8},"D":{"a":8,"b":2}},"conditions":["nonSeqFull","nonSeqPartial","seqNoFeedback","seqFeedback"],"classroomPairings":[["A","B"],["C","D"]],"coinWeights":[0.2,0.5,0.8],"subjectId":"A1BE5NGDU9B9JG","assignmentId":"3SB5N7Y3O4Q8PVSWCHTLAKCQVI9G0Q","hitId":"34XASH8KLQ89J2U8D314D7180O4PMV","url":"https://gershmanlab.com/experiments/alicia/teaching/experiment/?hitId=34XASH8KLQ89J2U8D314D7180O4PMV&workerId=A1BE5NGDU9B9JG&assignmentId=3SB5N7Y3O4Q8PVSWCHTLAKCQVI9G0Q&a=3NBS7&tp_a=3NBS7&b=3SB5N7Y3O4Q8PVSWCHTLAKCQVI9G0Q&tp_b=3SB5N7Y3O4Q8PVSWCHTLAKCQVI9G0Q&c=365717&tp_c=365717"},{"rt":null,"stimulus":"Examples sent to student! Waiting for student...","response":null,"trial_type":"html-keyboard-response","trial_index":76,"time_elapsed":687182,"internal_node_id":"0.0-69.0","params":{"nStudents":24,"maxFlips":30,"completionMinutes":45,"basePay":8,"maxBonus":9,"perTrialBonus":0.5,"perTrialBonusThreshold":0.05,"exampleCost":0.01},"classroomParams":{"A":{"a":1,"b":4},"B":{"a":4,"b":1},"C":{"a":2,"b":8},"D":{"a":8,"b":2}},"conditions":["nonSeqFull","nonSeqPartial","seqNoFeedback","seqFeedback"],"classroomPairings":[["A","B"],["C","D"]],"coinWeights":[0.2,0.5,0.8],"subjectId":"A1BE5NGDU9B9JG","assignmentId":"3SB5N7Y3O4Q8PVSWCHTLAKCQVI9G0Q","hitId":"34XASH8KLQ89J2U8D314D7180O4PMV","url":"https://gershmanlab.com/experiments/alicia/teaching/experiment/?hitId=34XASH8KLQ89J2U8D314D7180O4PMV&workerId=A1BE5NGDU9B9JG&assignmentId=3SB5N7Y3O4Q8PVSWCHTLAKCQVI9G0Q&a=3NBS7&tp_a=3NBS7&b=3SB5N7Y3O4Q8PVSWCHTLAKCQVI9G0Q&tp_b=3SB5N7Y3O4Q8PVSWCHTLAKCQVI9G0Q&c=365717&tp_c=365717"},{"rt":4210,"stimulus":"\n                <p>Student's guess for coin weight: <b style=\"color:Tomato;\">0.63</b></p>\n                <p></b></p>\n                <p>You will now send another set of examples to your student. <b>Remember to take your student's guess into consideration so that you can earn the highest bonus possible!</b> </p>\n                <p>Press any key to continue.</p>\n                ","response":" ","trial_type":"html-keyboard-response","trial_index":77,"time_elapsed":691392,"internal_node_id":"0.0-70.0","params":{"nStudents":24,"maxFlips":30,"completionMinutes":45,"basePay":8,"maxBonus":9,"perTrialBonus":0.5,"perTrialBonusThreshold":0.05,"exampleCost":0.01},"classroomParams":{"A":{"a":1,"b":4},"B":{"a":4,"b":1},"C":{"a":2,"b":8},"D":{"a":8,"b":2}},"conditions":["nonSeqFull","nonSeqPartial","seqNoFeedback","seqFeedback"],"classroomPairings":[["A","B"],["C","D"]],"coinWeights":[0.2,0.5,0.8],"subjectId":"A1BE5NGDU9B9JG","assignmentId":"3SB5N7Y3O4Q8PVSWCHTLAKCQVI9G0Q","hitId":"34XASH8KLQ89J2U8D314D7180O4PMV","url":"https://gershmanlab.com/experiments/alicia/teaching/experiment/?hitId=34XASH8KLQ89J2U8D314D7180O4PMV&workerId=A1BE5NGDU9B9JG&assignmentId=3SB5N7Y3O4Q8PVSWCHTLAKCQVI9G0Q&a=3NBS7&tp_a=3NBS7&b=3SB5N7Y3O4Q8PVSWCHTLAKCQVI9G0Q&tp_b=3SB5N7Y3O4Q8PVSWCHTLAKCQVI9G0Q&c=365717&tp_c=365717"},{"rt":15532,"response":{"heads":"12","tails":"3"},"type":"response","condition":"seqFeedback","trueTheta":0.8,"classrooms":["A","B"],"studentTrueClassroom":"A","exampleSet":"second","trial_type":"survey-html-form","trial_index":78,"time_elapsed":706925,"internal_node_id":"0.0-71.0-0.0","params":{"nStudents":24,"maxFlips":30,"completionMinutes":45,"basePay":8,"maxBonus":9,"perTrialBonus":0.5,"perTrialBonusThreshold":0.05,"exampleCost":0.01},"classroomParams":{"A":{"a":1,"b":4},"B":{"a":4,"b":1},"C":{"a":2,"b":8},"D":{"a":8,"b":2}},"conditions":["nonSeqFull","nonSeqPartial","seqNoFeedback","seqFeedback"],"classroomPairings":[["A","B"],["C","D"]],"coinWeights":[0.2,0.5,0.8],"subjectId":"A1BE5NGDU9B9JG","assignmentId":"3SB5N7Y3O4Q8PVSWCHTLAKCQVI9G0Q","hitId":"34XASH8KLQ89J2U8D314D7180O4PMV","url":"https://gershmanlab.com/experiments/alicia/teaching/experiment/?hitId=34XASH8KLQ89J2U8D314D7180O4PMV&workerId=A1BE5NGDU9B9JG&assignmentId=3SB5N7Y3O4Q8PVSWCHTLAKCQVI9G0Q&a=3NBS7&tp_a=3NBS7&b=3SB5N7Y3O4Q8PVSWCHTLAKCQVI9G0Q&tp_b=3SB5N7Y3O4Q8PVSWCHTLAKCQVI9G0Q&c=365717&tp_c=365717","firstResponseHeads":9,"firstResponseTails":2,"secondResponseHeads":12,"secondResponseTails":3,"totalHeads":21,"totalTails":5,"studentIndex":9,"studentTrueHypers":{"a":1,"b":4},"studentGuess":0.7096774193548387,"delta":0.0903225806451613,"bonus":0,"bonusSoFar":1.16,"totalExamples":26},{"rt":null,"stimulus":"Sending examples to student... ","response":null,"trial_type":"html-keyboard-response","trial_index":79,"time_elapsed":708937,"internal_node_id":"0.0-72.0","params":{"nStudents":24,"maxFlips":30,"completionMinutes":45,"basePay":8,"maxBonus":9,"perTrialBonus":0.5,"perTrialBonusThreshold":0.05,"exampleCost":0.01},"classroomParams":{"A":{"a":1,"b":4},"B":{"a":4,"b":1},"C":{"a":2,"b":8},"D":{"a":8,"b":2}},"conditions":["nonSeqFull","nonSeqPartial","seqNoFeedback","seqFeedback"],"classroomPairings":[["A","B"],["C","D"]],"coinWeights":[0.2,0.5,0.8],"subjectId":"A1BE5NGDU9B9JG","assignmentId":"3SB5N7Y3O4Q8PVSWCHTLAKCQVI9G0Q","hitId":"34XASH8KLQ89J2U8D314D7180O4PMV","url":"https://gershmanlab.com/experiments/alicia/teaching/experiment/?hitId=34XASH8KLQ89J2U8D314D7180O4PMV&workerId=A1BE5NGDU9B9JG&assignmentId=3SB5N7Y3O4Q8PVSWCHTLAKCQVI9G0Q&a=3NBS7&tp_a=3NBS7&b=3SB5N7Y3O4Q8PVSWCHTLAKCQVI9G0Q&tp_b=3SB5N7Y3O4Q8PVSWCHTLAKCQVI9G0Q&c=365717&tp_c=365717"},{"rt":null,"stimulus":"Examples sent to student! Waiting for student...","response":null,"trial_type":"html-keyboard-response","trial_index":80,"time_elapsed":712950,"internal_node_id":"0.0-73.0","params":{"nStudents":24,"maxFlips":30,"completionMinutes":45,"basePay":8,"maxBonus":9,"perTrialBonus":0.5,"perTrialBonusThreshold":0.05,"exampleCost":0.01},"classroomParams":{"A":{"a":1,"b":4},"B":{"a":4,"b":1},"C":{"a":2,"b":8},"D":{"a":8,"b":2}},"conditions":["nonSeqFull","nonSeqPartial","seqNoFeedback","seqFeedback"],"classroomPairings":[["A","B"],["C","D"]],"coinWeights":[0.2,0.5,0.8],"subjectId":"A1BE5NGDU9B9JG","assignmentId":"3SB5N7Y3O4Q8PVSWCHTLAKCQVI9G0Q","hitId":"34XASH8KLQ89J2U8D314D7180O4PMV","url":"https://gershmanlab.com/experiments/alicia/teaching/experiment/?hitId=34XASH8KLQ89J2U8D314D7180O4PMV&workerId=A1BE5NGDU9B9JG&assignmentId=3SB5N7Y3O4Q8PVSWCHTLAKCQVI9G0Q&a=3NBS7&tp_a=3NBS7&b=3SB5N7Y3O4Q8PVSWCHTLAKCQVI9G0Q&tp_b=3SB5N7Y3O4Q8PVSWCHTLAKCQVI9G0Q&c=365717&tp_c=365717"},{"rt":4394,"stimulus":"\n                <p>Student 10's first guess for coin weight: <b style=\"color:Tomato\";>0.63</b></p>\n                <p>Student 10's second guess for coin weight: <b style=\"color:Tomato\";>0.71</b></p>\n                <p>You received a bonus of <b>$0.00</b> based on the student's second guess.</p>\n                <p>Total bonus so far: <b>$1.16</b></p>\n                <p>Press any key to continue.</p>\n                ","response":" ","trial_type":"html-keyboard-response","trial_index":81,"time_elapsed":717344,"internal_node_id":"0.0-74.0","params":{"nStudents":24,"maxFlips":30,"completionMinutes":45,"basePay":8,"maxBonus":9,"perTrialBonus":0.5,"perTrialBonusThreshold":0.05,"exampleCost":0.01},"classroomParams":{"A":{"a":1,"b":4},"B":{"a":4,"b":1},"C":{"a":2,"b":8},"D":{"a":8,"b":2}},"conditions":["nonSeqFull","nonSeqPartial","seqNoFeedback","seqFeedback"],"classroomPairings":[["A","B"],["C","D"]],"coinWeights":[0.2,0.5,0.8],"subjectId":"A1BE5NGDU9B9JG","assignmentId":"3SB5N7Y3O4Q8PVSWCHTLAKCQVI9G0Q","hitId":"34XASH8KLQ89J2U8D314D7180O4PMV","url":"https://gershmanlab.com/experiments/alicia/teaching/experiment/?hitId=34XASH8KLQ89J2U8D314D7180O4PMV&workerId=A1BE5NGDU9B9JG&assignmentId=3SB5N7Y3O4Q8PVSWCHTLAKCQVI9G0Q&a=3NBS7&tp_a=3NBS7&b=3SB5N7Y3O4Q8PVSWCHTLAKCQVI9G0Q&tp_b=3SB5N7Y3O4Q8PVSWCHTLAKCQVI9G0Q&c=365717&tp_c=365717"},{"rt":null,"stimulus":"<div style=\"font-size:60px;\">Next student</div>","response":null,"trial_type":"html-keyboard-response","trial_index":82,"time_elapsed":719852,"internal_node_id":"0.0-75.0-0.0","params":{"nStudents":24,"maxFlips":30,"completionMinutes":45,"basePay":8,"maxBonus":9,"perTrialBonus":0.5,"perTrialBonusThreshold":0.05,"exampleCost":0.01},"classroomParams":{"A":{"a":1,"b":4},"B":{"a":4,"b":1},"C":{"a":2,"b":8},"D":{"a":8,"b":2}},"conditions":["nonSeqFull","nonSeqPartial","seqNoFeedback","seqFeedback"],"classroomPairings":[["A","B"],["C","D"]],"coinWeights":[0.2,0.5,0.8],"subjectId":"A1BE5NGDU9B9JG","assignmentId":"3SB5N7Y3O4Q8PVSWCHTLAKCQVI9G0Q","hitId":"34XASH8KLQ89J2U8D314D7180O4PMV","url":"https://gershmanlab.com/experiments/alicia/teaching/experiment/?hitId=34XASH8KLQ89J2U8D314D7180O4PMV&workerId=A1BE5NGDU9B9JG&assignmentId=3SB5N7Y3O4Q8PVSWCHTLAKCQVI9G0Q&a=3NBS7&tp_a=3NBS7&b=3SB5N7Y3O4Q8PVSWCHTLAKCQVI9G0Q&tp_b=3SB5N7Y3O4Q8PVSWCHTLAKCQVI9G0Q&c=365717&tp_c=365717"},{"rt":1894,"stimulus":"\n            <h4 style=\"color:Orange;\">Student 11</h4>\n            <h2>The weight of your coin is <b style=\"color:Tomato;\">0.5</b>.</h2>\n            <p>In this block, you will be giving <b>one</b> set of examples to Student 11.</p>\n                <p>You will receive feedback at the end of the block.</p>\n            <p></p>","response":0,"trial_type":"html-button-response","trial_index":83,"time_elapsed":721747,"internal_node_id":"0.0-76.0","params":{"nStudents":24,"maxFlips":30,"completionMinutes":45,"basePay":8,"maxBonus":9,"perTrialBonus":0.5,"perTrialBonusThreshold":0.05,"exampleCost":0.01},"classroomParams":{"A":{"a":1,"b":4},"B":{"a":4,"b":1},"C":{"a":2,"b":8},"D":{"a":8,"b":2}},"conditions":["nonSeqFull","nonSeqPartial","seqNoFeedback","seqFeedback"],"classroomPairings":[["A","B"],["C","D"]],"coinWeights":[0.2,0.5,0.8],"subjectId":"A1BE5NGDU9B9JG","assignmentId":"3SB5N7Y3O4Q8PVSWCHTLAKCQVI9G0Q","hitId":"34XASH8KLQ89J2U8D314D7180O4PMV","url":"https://gershmanlab.com/experiments/alicia/teaching/experiment/?hitId=34XASH8KLQ89J2U8D314D7180O4PMV&workerId=A1BE5NGDU9B9JG&assignmentId=3SB5N7Y3O4Q8PVSWCHTLAKCQVI9G0Q&a=3NBS7&tp_a=3NBS7&b=3SB5N7Y3O4Q8PVSWCHTLAKCQVI9G0Q&tp_b=3SB5N7Y3O4Q8PVSWCHTLAKCQVI9G0Q&c=365717&tp_c=365717"},{"rt":21581,"response":{"heads":"12","tails":"6"},"type":"response","condition":"nonSeqPartial","trueTheta":0.5,"classrooms":["C","D"],"studentTrueClassroom":"D","exampleSet":"first","trial_type":"survey-html-form","trial_index":84,"time_elapsed":743328,"internal_node_id":"0.0-77.0-0.0","params":{"nStudents":24,"maxFlips":30,"completionMinutes":45,"basePay":8,"maxBonus":9,"perTrialBonus":0.5,"perTrialBonusThreshold":0.05,"exampleCost":0.01},"classroomParams":{"A":{"a":1,"b":4},"B":{"a":4,"b":1},"C":{"a":2,"b":8},"D":{"a":8,"b":2}},"conditions":["nonSeqFull","nonSeqPartial","seqNoFeedback","seqFeedback"],"classroomPairings":[["A","B"],["C","D"]],"coinWeights":[0.2,0.5,0.8],"subjectId":"A1BE5NGDU9B9JG","assignmentId":"3SB5N7Y3O4Q8PVSWCHTLAKCQVI9G0Q","hitId":"34XASH8KLQ89J2U8D314D7180O4PMV","url":"https://gershmanlab.com/experiments/alicia/teaching/experiment/?hitId=34XASH8KLQ89J2U8D314D7180O4PMV&workerId=A1BE5NGDU9B9JG&assignmentId=3SB5N7Y3O4Q8PVSWCHTLAKCQVI9G0Q&a=3NBS7&tp_a=3NBS7&b=3SB5N7Y3O4Q8PVSWCHTLAKCQVI9G0Q&tp_b=3SB5N7Y3O4Q8PVSWCHTLAKCQVI9G0Q&c=365717&tp_c=365717","heads":12,"tails":6,"studentIndex":10,"studentTrueHypers":{"a":8,"b":2},"studentGuess":0.7142857142857143,"delta":0.2142857142857143,"totalExamples":18,"bonus":0,"bonusSoFar":1.16},{"rt":null,"stimulus":"Sending examples to student... ","response":null,"trial_type":"html-keyboard-response","trial_index":85,"time_elapsed":745093,"internal_node_id":"0.0-78.0","params":{"