[{"rt":3099,"stimulus":"Welcome to the experiment. Press any key to begin.","response":" ","trial_type":"html-keyboard-response","trial_index":0,"time_elapsed":3115,"internal_node_id":"0.0-0.0","params":{"nStudents":24,"maxFlips":30,"completionMinutes":45,"basePay":8,"maxBonus":9,"perTrialBonus":0.5,"perTrialBonusThreshold":0.05,"exampleCost":0.01},"classroomParams":{"A":{"a":1,"b":4},"B":{"a":4,"b":1},"C":{"a":2,"b":8},"D":{"a":8,"b":2}},"conditions":["nonSeqFull","nonSeqPartial","seqNoFeedback","seqFeedback"],"classroomPairings":[["A","B"],["C","D"]],"coinWeights":[0.2,0.5,0.8],"subjectId":"A1DUPOUC9RNU4L","assignmentId":"3VZLGYJEYMWGD2TC5L6H45F7GFNXZQ","hitId":"34XASH8KLQ89J2U8D314D7180O4PMV","url":"https://gershmanlab.com/experiments/alicia/teaching/experiment/?hitId=34XASH8KLQ89J2U8D314D7180O4PMV&workerId=A1DUPOUC9RNU4L&assignmentId=3VZLGYJEYMWGD2TC5L6H45F7GFNXZQ&a=EGZV7&tp_a=EGZV7&b=3VZLGYJEYMWGD2TC5L6H45F7GFNXZQ&tp_b=3VZLGYJEYMWGD2TC5L6H45F7GFNXZQ&c=365717&tp_c=365717"},{"rt":9347,"stimulus":"\n        <h3>Please read this consent agreement carefully before deciding whether to participate in this experiment.</h3>\n        <p><b>Purpose of the research:</b> To examine how people teach effectively.</p>\n        <p><b>What you will do in this research:</b> You will teach students the weights of different coins.</p>\n        <p><b>Time required:</b> This experiment will take 45 minutes to complete.</p>\n        <p><b>Risks:</b> There are no anticipated risks associated with participating in this study.             The effects of participating should be comparable to those you would experience from viewing a computer monitor             and using a mouse and keyboard for the duration of the experiment.</p>\n        <p><b>Benefits:</b> The study provides important information about the nature of teaching.</p>\n        <p><b>Compensation:</b> You will receive <b>$8</b> for completing the experiment and a performance bonus of up to <b>$9</b>.</p>\n        <p><b>Confidentiality:</b> Your participation in this study will remain confidential.             No personally identifiable information will be associated with your data.             Your de-identified data may be shared with other researchers and used in future projects.</p>\n        <p><b>Participation and withdrawal:</b> Your participation in this study is completely voluntary and             you may refuse to participate or you may choose to withdraw at any time without penalty or loss of\n            benefits to which you are otherwise entitled.</p>\n        <p><b>How to contact the researcher:</b> If you have questions or concerns about your participation            or payment, or want to request a summary of research findings, please contact\n            Alicia Chen, aliciachen@college.harvard.edu.</p>\n        <p><b>Whom to contact about your rights in this research:</b> For questions, concerns, suggestions,             or complaints that have not been or cannot be addressed by the researcher, or to report             research-related harm, please contact the Committee on the Use of Human Subjects in Research at Harvard University,             1414 Massachusetts Avenue, Second Floor, Cambridge, MA 02138. Phone: 617-496-2847. Email: cuhs@fas.harvard.edu.</p>\n        ","response":0,"trial_type":"html-button-response","trial_index":1,"time_elapsed":12464,"internal_node_id":"0.0-1.0","params":{"nStudents":24,"maxFlips":30,"completionMinutes":45,"basePay":8,"maxBonus":9,"perTrialBonus":0.5,"perTrialBonusThreshold":0.05,"exampleCost":0.01},"classroomParams":{"A":{"a":1,"b":4},"B":{"a":4,"b":1},"C":{"a":2,"b":8},"D":{"a":8,"b":2}},"conditions":["nonSeqFull","nonSeqPartial","seqNoFeedback","seqFeedback"],"classroomPairings":[["A","B"],["C","D"]],"coinWeights":[0.2,0.5,0.8],"subjectId":"A1DUPOUC9RNU4L","assignmentId":"3VZLGYJEYMWGD2TC5L6H45F7GFNXZQ","hitId":"34XASH8KLQ89J2U8D314D7180O4PMV","url":"https://gershmanlab.com/experiments/alicia/teaching/experiment/?hitId=34XASH8KLQ89J2U8D314D7180O4PMV&workerId=A1DUPOUC9RNU4L&assignmentId=3VZLGYJEYMWGD2TC5L6H45F7GFNXZQ&a=EGZV7&tp_a=EGZV7&b=3VZLGYJEYMWGD2TC5L6H45F7GFNXZQ&tp_b=3VZLGYJEYMWGD2TC5L6H45F7GFNXZQ&c=365717&tp_c=365717"},{"view_history":[{"page_index":0,"viewing_time":5825},{"page_index":1,"viewing_time":4078},{"page_index":2,"viewing_time":40464},{"page_index":3,"viewing_time":29306},{"page_index":4,"viewing_time":14196},{"page_index":5,"viewing_time":25212},{"page_index":6,"viewing_time":34284}],"rt":153364,"trial_type":"instructions","trial_index":2,"time_elapsed":165831,"internal_node_id":"0.0-2.0-0.0","params":{"nStudents":24,"maxFlips":30,"completionMinutes":45,"basePay":8,"maxBonus":9,"perTrialBonus":0.5,"perTrialBonusThreshold":0.05,"exampleCost":0.01},"classroomParams":{"A":{"a":1,"b":4},"B":{"a":4,"b":1},"C":{"a":2,"b":8},"D":{"a":8,"b":2}},"conditions":["nonSeqFull","nonSeqPartial","seqNoFeedback","seqFeedback"],"classroomPairings":[["A","B"],["C","D"]],"coinWeights":[0.2,0.5,0.8],"subjectId":"A1DUPOUC9RNU4L","assignmentId":"3VZLGYJEYMWGD2TC5L6H45F7GFNXZQ","hitId":"34XASH8KLQ89J2U8D314D7180O4PMV","url":"https://gershmanlab.com/experiments/alicia/teaching/experiment/?hitId=34XASH8KLQ89J2U8D314D7180O4PMV&workerId=A1DUPOUC9RNU4L&assignmentId=3VZLGYJEYMWGD2TC5L6H45F7GFNXZQ&a=EGZV7&tp_a=EGZV7&b=3VZLGYJEYMWGD2TC5L6H45F7GFNXZQ&tp_b=3VZLGYJEYMWGD2TC5L6H45F7GFNXZQ&c=365717&tp_c=365717"},{"rt":68876,"response":{"Q0":"Students in different classrooms will have seen a different number of heads and tails before seeing the examples you select for them.","Q1":"By <b>considering the student's classroom information</b> so that I can teach efficiently and accurately/helpfully at the same time (because each example I give to the student costs money!).","Q2":"The coin lands heads 90% of the time.","Q3":"No, I will teach a <b>new</b> student each time.","Q4":"The students are also on the same alien planet as you, where coins can be unfair.","Q5":"Based on the student's second (and final) guess."},"question_order":[3,0,2,4,5,1],"trial_type":"survey-multi-choice","trial_index":3,"time_elapsed":234709,"internal_node_id":"0.0-2.0-1.0","params":{"nStudents":24,"maxFlips":30,"completionMinutes":45,"basePay":8,"maxBonus":9,"perTrialBonus":0.5,"perTrialBonusThreshold":0.05,"exampleCost":0.01},"classroomParams":{"A":{"a":1,"b":4},"B":{"a":4,"b":1},"C":{"a":2,"b":8},"D":{"a":8,"b":2}},"conditions":["nonSeqFull","nonSeqPartial","seqNoFeedback","seqFeedback"],"classroomPairings":[["A","B"],["C","D"]],"coinWeights":[0.2,0.5,0.8],"subjectId":"A1DUPOUC9RNU4L","assignmentId":"3VZLGYJEYMWGD2TC5L6H45F7GFNXZQ","hitId":"34XASH8KLQ89J2U8D314D7180O4PMV","url":"https://gershmanlab.com/experiments/alicia/teaching/experiment/?hitId=34XASH8KLQ89J2U8D314D7180O4PMV&workerId=A1DUPOUC9RNU4L&assignmentId=3VZLGYJEYMWGD2TC5L6H45F7GFNXZQ&a=EGZV7&tp_a=EGZV7&b=3VZLGYJEYMWGD2TC5L6H45F7GFNXZQ&tp_b=3VZLGYJEYMWGD2TC5L6H45F7GFNXZQ&c=365717&tp_c=365717","pass":true},{"rt":null,"stimulus":"<div style=\"font-size:30px;\">Congrats on passing the comprehension quiz! The experiment will begin in a few seconds.</div>","response":null,"trial_type":"html-keyboard-response","trial_index":4,"time_elapsed":237718,"internal_node_id":"0.0-3.0","params":{"nStudents":24,"maxFlips":30,"completionMinutes":45,"basePay":8,"maxBonus":9,"perTrialBonus":0.5,"perTrialBonusThreshold":0.05,"exampleCost":0.01},"classroomParams":{"A":{"a":1,"b":4},"B":{"a":4,"b":1},"C":{"a":2,"b":8},"D":{"a":8,"b":2}},"conditions":["nonSeqFull","nonSeqPartial","seqNoFeedback","seqFeedback"],"classroomPairings":[["A","B"],["C","D"]],"coinWeights":[0.2,0.5,0.8],"subjectId":"A1DUPOUC9RNU4L","assignmentId":"3VZLGYJEYMWGD2TC5L6H45F7GFNXZQ","hitId":"34XASH8KLQ89J2U8D314D7180O4PMV","url":"https://gershmanlab.com/experiments/alicia/teaching/experiment/?hitId=34XASH8KLQ89J2U8D314D7180O4PMV&workerId=A1DUPOUC9RNU4L&assignmentId=3VZLGYJEYMWGD2TC5L6H45F7GFNXZQ&a=EGZV7&tp_a=EGZV7&b=3VZLGYJEYMWGD2TC5L6H45F7GFNXZQ&tp_b=3VZLGYJEYMWGD2TC5L6H45F7GFNXZQ&c=365717&tp_c=365717"},{"rt":null,"stimulus":"<div style=\"font-size:50px;\">First student</div>","response":null,"trial_type":"html-keyboard-response","trial_index":5,"time_elapsed":240729,"internal_node_id":"0.0-4.0","params":{"nStudents":24,"maxFlips":30,"completionMinutes":45,"basePay":8,"maxBonus":9,"perTrialBonus":0.5,"perTrialBonusThreshold":0.05,"exampleCost":0.01},"classroomParams":{"A":{"a":1,"b":4},"B":{"a":4,"b":1},"C":{"a":2,"b":8},"D":{"a":8,"b":2}},"conditions":["nonSeqFull","nonSeqPartial","seqNoFeedback","seqFeedback"],"classroomPairings":[["A","B"],["C","D"]],"coinWeights":[0.2,0.5,0.8],"subjectId":"A1DUPOUC9RNU4L","assignmentId":"3VZLGYJEYMWGD2TC5L6H45F7GFNXZQ","hitId":"34XASH8KLQ89J2U8D314D7180O4PMV","url":"https://gershmanlab.com/experiments/alicia/teaching/experiment/?hitId=34XASH8KLQ89J2U8D314D7180O4PMV&workerId=A1DUPOUC9RNU4L&assignmentId=3VZLGYJEYMWGD2TC5L6H45F7GFNXZQ&a=EGZV7&tp_a=EGZV7&b=3VZLGYJEYMWGD2TC5L6H45F7GFNXZQ&tp_b=3VZLGYJEYMWGD2TC5L6H45F7GFNXZQ&c=365717&tp_c=365717"},{"rt":18839,"stimulus":"\n            <h4 style=\"color:Orange;\">Student 1</h4>\n            <h2>The weight of your coin is <b style=\"color:Tomato;\">0.5</b>.</h2>\n            <p>In this block, you will be giving <b>two</b> sets of examples to Student 1.</p>\n                <p>You will see the student's guess after the first set of examples. You will also receive feedback at the end of the block.</p>\n            <p>To earn the highest bonus, you will have to <b>take into consideration the student's guess</b> when you choose your second set of examples.</p>","response":0,"trial_type":"html-button-response","trial_index":6,"time_elapsed":259570,"internal_node_id":"0.0-5.0","params":{"nStudents":24,"maxFlips":30,"completionMinutes":45,"basePay":8,"maxBonus":9,"perTrialBonus":0.5,"perTrialBonusThreshold":0.05,"exampleCost":0.01},"classroomParams":{"A":{"a":1,"b":4},"B":{"a":4,"b":1},"C":{"a":2,"b":8},"D":{"a":8,"b":2}},"conditions":["nonSeqFull","nonSeqPartial","seqNoFeedback","seqFeedback"],"classroomPairings":[["A","B"],["C","D"]],"coinWeights":[0.2,0.5,0.8],"subjectId":"A1DUPOUC9RNU4L","assignmentId":"3VZLGYJEYMWGD2TC5L6H45F7GFNXZQ","hitId":"34XASH8KLQ89J2U8D314D7180O4PMV","url":"https://gershmanlab.com/experiments/alicia/teaching/experiment/?hitId=34XASH8KLQ89J2U8D314D7180O4PMV&workerId=A1DUPOUC9RNU4L&assignmentId=3VZLGYJEYMWGD2TC5L6H45F7GFNXZQ&a=EGZV7&tp_a=EGZV7&b=3VZLGYJEYMWGD2TC5L6H45F7GFNXZQ&tp_b=3VZLGYJEYMWGD2TC5L6H45F7GFNXZQ&c=365717&tp_c=365717"},{"rt":38466,"response":{"heads":"1","tails":"0"},"type":"response","condition":"seqFeedback","trueTheta":0.5,"classrooms":["A","B"],"studentTrueClassroom":"A","exampleSet":"first","trial_type":"survey-html-form","trial_index":7,"time_elapsed":298038,"internal_node_id":"0.0-6.0-0.0","params":{"nStudents":24,"maxFlips":30,"completionMinutes":45,"basePay":8,"maxBonus":9,"perTrialBonus":0.5,"perTrialBonusThreshold":0.05,"exampleCost":0.01},"classroomParams":{"A":{"a":1,"b":4},"B":{"a":4,"b":1},"C":{"a":2,"b":8},"D":{"a":8,"b":2}},"conditions":["nonSeqFull","nonSeqPartial","seqNoFeedback","seqFeedback"],"classroomPairings":[["A","B"],["C","D"]],"coinWeights":[0.2,0.5,0.8],"subjectId":"A1DUPOUC9RNU4L","assignmentId":"3VZLGYJEYMWGD2TC5L6H45F7GFNXZQ","hitId":"34XASH8KLQ89J2U8D314D7180O4PMV","url":"https://gershmanlab.com/experiments/alicia/teaching/experiment/?hitId=34XASH8KLQ89J2U8D314D7180O4PMV&workerId=A1DUPOUC9RNU4L&assignmentId=3VZLGYJEYMWGD2TC5L6H45F7GFNXZQ&a=EGZV7&tp_a=EGZV7&b=3VZLGYJEYMWGD2TC5L6H45F7GFNXZQ&tp_b=3VZLGYJEYMWGD2TC5L6H45F7GFNXZQ&c=365717&tp_c=365717","heads":1,"tails":0,"studentIndex":0,"studentTrueHypers":{"a":1,"b":4},"studentGuess":0.3333333333333333,"delta":0.16666666666666669,"totalExamples":1,"bonusSoFar":0},{"rt":null,"stimulus":"Sending examples to student... ","response":null,"trial_type":"html-keyboard-response","trial_index":8,"time_elapsed":300041,"internal_node_id":"0.0-7.0","params":{"nStudents":24,"maxFlips":30,"completionMinutes":45,"basePay":8,"maxBonus":9,"perTrialBonus":0.5,"perTrialBonusThreshold":0.05,"exampleCost":0.01},"classroomParams":{"A":{"a":1,"b":4},"B":{"a":4,"b":1},"C":{"a":2,"b":8},"D":{"a":8,"b":2}},"conditions":["nonSeqFull","nonSeqPartial","seqNoFeedback","seqFeedback"],"classroomPairings":[["A","B"],["C","D"]],"coinWeights":[0.2,0.5,0.8],"subjectId":"A1DUPOUC9RNU4L","assignmentId":"3VZLGYJEYMWGD2TC5L6H45F7GFNXZQ","hitId":"34XASH8KLQ89J2U8D314D7180O4PMV","url":"https://gershmanlab.com/experiments/alicia/teaching/experiment/?hitId=34XASH8KLQ89J2U8D314D7180O4PMV&workerId=A1DUPOUC9RNU4L&assignmentId=3VZLGYJEYMWGD2TC5L6H45F7GFNXZQ&a=EGZV7&tp_a=EGZV7&b=3VZLGYJEYMWGD2TC5L6H45F7GFNXZQ&tp_b=3VZLGYJEYMWGD2TC5L6H45F7GFNXZQ&c=365717&tp_c=365717"},{"rt":null,"stimulus":"Examples sent to student! Waiting for student...","response":null,"trial_type":"html-keyboard-response","trial_index":9,"time_elapsed":306043,"internal_node_id":"0.0-8.0","params":{"nStudents":24,"maxFlips":30,"completionMinutes":45,"basePay":8,"maxBonus":9,"perTrialBonus":0.5,"perTrialBonusThreshold":0.05,"exampleCost":0.01},"classroomParams":{"A":{"a":1,"b":4},"B":{"a":4,"b":1},"C":{"a":2,"b":8},"D":{"a":8,"b":2}},"conditions":["nonSeqFull","nonSeqPartial","seqNoFeedback","seqFeedback"],"classroomPairings":[["A","B"],["C","D"]],"coinWeights":[0.2,0.5,0.8],"subjectId":"A1DUPOUC9RNU4L","assignmentId":"3VZLGYJEYMWGD2TC5L6H45F7GFNXZQ","hitId":"34XASH8KLQ89J2U8D314D7180O4PMV","url":"https://gershmanlab.com/experiments/alicia/teaching/experiment/?hitId=34XASH8KLQ89J2U8D314D7180O4PMV&workerId=A1DUPOUC9RNU4L&assignmentId=3VZLGYJEYMWGD2TC5L6H45F7GFNXZQ&a=EGZV7&tp_a=EGZV7&b=3VZLGYJEYMWGD2TC5L6H45F7GFNXZQ&tp_b=3VZLGYJEYMWGD2TC5L6H45F7GFNXZQ&c=365717&tp_c=365717"},{"rt":8562,"stimulus":"\n                <p>Student's guess for coin weight: <b style=\"color:Tomato;\">0.33</b></p>\n                <p></b></p>\n                <p>You will now send another set of examples to your student. <b>Remember to take your student's guess into consideration so that you can earn the highest bonus possible!</b> </p>\n                <p>Press any key to continue.</p>\n                ","response":" ","trial_type":"html-keyboard-response","trial_index":10,"time_elapsed":314607,"internal_node_id":"0.0-9.0","params":{"nStudents":24,"maxFlips":30,"completionMinutes":45,"basePay":8,"maxBonus":9,"perTrialBonus":0.5,"perTrialBonusThreshold":0.05,"exampleCost":0.01},"classroomParams":{"A":{"a":1,"b":4},"B":{"a":4,"b":1},"C":{"a":2,"b":8},"D":{"a":8,"b":2}},"conditions":["nonSeqFull","nonSeqPartial","seqNoFeedback","seqFeedback"],"classroomPairings":[["A","B"],["C","D"]],"coinWeights":[0.2,0.5,0.8],"subjectId":"A1DUPOUC9RNU4L","assignmentId":"3VZLGYJEYMWGD2TC5L6H45F7GFNXZQ","hitId":"34XASH8KLQ89J2U8D314D7180O4PMV","url":"https://gershmanlab.com/experiments/alicia/teaching/experiment/?hitId=34XASH8KLQ89J2U8D314D7180O4PMV&workerId=A1DUPOUC9RNU4L&assignmentId=3VZLGYJEYMWGD2TC5L6H45F7GFNXZQ&a=EGZV7&tp_a=EGZV7&b=3VZLGYJEYMWGD2TC5L6H45F7GFNXZQ&tp_b=3VZLGYJEYMWGD2TC5L6H45F7GFNXZQ&c=365717&tp_c=365717"},{"rt":14208,"response":{"heads":"2","tails":"0"},"type":"response","condition":"seqFeedback","trueTheta":0.5,"classrooms":["A","B"],"studentTrueClassroom":"A","exampleSet":"second","trial_type":"survey-html-form","trial_index":11,"time_elapsed":328816,"internal_node_id":"0.0-10.0-0.0","params":{"nStudents":24,"maxFlips":30,"completionMinutes":45,"basePay":8,"maxBonus":9,"perTrialBonus":0.5,"perTrialBonusThreshold":0.05,"exampleCost":0.01},"classroomParams":{"A":{"a":1,"b":4},"B":{"a":4,"b":1},"C":{"a":2,"b":8},"D":{"a":8,"b":2}},"conditions":["nonSeqFull","nonSeqPartial","seqNoFeedback","seqFeedback"],"classroomPairings":[["A","B"],["C","D"]],"coinWeights":[0.2,0.5,0.8],"subjectId":"A1DUPOUC9RNU4L","assignmentId":"3VZLGYJEYMWGD2TC5L6H45F7GFNXZQ","hitId":"34XASH8KLQ89J2U8D314D7180O4PMV","url":"https://gershmanlab.com/experiments/alicia/teaching/experiment/?hitId=34XASH8KLQ89J2U8D314D7180O4PMV&workerId=A1DUPOUC9RNU4L&assignmentId=3VZLGYJEYMWGD2TC5L6H45F7GFNXZQ&a=EGZV7&tp_a=EGZV7&b=3VZLGYJEYMWGD2TC5L6H45F7GFNXZQ&tp_b=3VZLGYJEYMWGD2TC5L6H45F7GFNXZQ&c=365717&tp_c=365717","firstResponseHeads":1,"firstResponseTails":0,"secondResponseHeads":2,"secondResponseTails":0,"totalHeads":3,"totalTails":0,"studentIndex":0,"studentTrueHypers":{"a":1,"b":4},"studentGuess":0.5,"delta":0,"bonus":0.47,"bonusSoFar":0.47,"totalExamples":3},{"rt":null,"stimulus":"Sending examples to student... ","response":null,"trial_type":"html-keyboard-response","trial_index":12,"time_elapsed":330818,"internal_node_id":"0.0-11.0","params":{"nStudents":24,"maxFlips":30,"completionMinutes":45,"basePay":8,"maxBonus":9,"perTrialBonus":0.5,"perTrialBonusThreshold":0.05,"exampleCost":0.01},"classroomParams":{"A":{"a":1,"b":4},"B":{"a":4,"b":1},"C":{"a":2,"b":8},"D":{"a":8,"b":2}},"conditions":["nonSeqFull","nonSeqPartial","seqNoFeedback","seqFeedback"],"classroomPairings":[["A","B"],["C","D"]],"coinWeights":[0.2,0.5,0.8],"subjectId":"A1DUPOUC9RNU4L","assignmentId":"3VZLGYJEYMWGD2TC5L6H45F7GFNXZQ","hitId":"34XASH8KLQ89J2U8D314D7180O4PMV","url":"https://gershmanlab.com/experiments/alicia/teaching/experiment/?hitId=34XASH8KLQ89J2U8D314D7180O4PMV&workerId=A1DUPOUC9RNU4L&assignmentId=3VZLGYJEYMWGD2TC5L6H45F7GFNXZQ&a=EGZV7&tp_a=EGZV7&b=3VZLGYJEYMWGD2TC5L6H45F7GFNXZQ&tp_b=3VZLGYJEYMWGD2TC5L6H45F7GFNXZQ&c=365717&tp_c=365717"},{"rt":null,"stimulus":"Examples sent to student! Waiting for student...","response":null,"trial_type":"html-keyboard-response","trial_index":13,"time_elapsed":335329,"internal_node_id":"0.0-12.0","params":{"nStudents":24,"maxFlips":30,"completionMinutes":45,"basePay":8,"maxBonus":9,"perTrialBonus":0.5,"perTrialBonusThreshold":0.05,"exampleCost":0.01},"classroomParams":{"A":{"a":1,"b":4},"B":{"a":4,"b":1},"C":{"a":2,"b":8},"D":{"a":8,"b":2}},"conditions":["nonSeqFull","nonSeqPartial","seqNoFeedback","seqFeedback"],"classroomPairings":[["A","B"],["C","D"]],"coinWeights":[0.2,0.5,0.8],"subjectId":"A1DUPOUC9RNU4L","assignmentId":"3VZLGYJEYMWGD2TC5L6H45F7GFNXZQ","hitId":"34XASH8KLQ89J2U8D314D7180O4PMV","url":"https://gershmanlab.com/experiments/alicia/teaching/experiment/?hitId=34XASH8KLQ89J2U8D314D7180O4PMV&workerId=A1DUPOUC9RNU4L&assignmentId=3VZLGYJEYMWGD2TC5L6H45F7GFNXZQ&a=EGZV7&tp_a=EGZV7&b=3VZLGYJEYMWGD2TC5L6H45F7GFNXZQ&tp_b=3VZLGYJEYMWGD2TC5L6H45F7GFNXZQ&c=365717&tp_c=365717"},{"rt":7501,"stimulus":"\n                <p>Student 1's first guess for coin weight: <b style=\"color:Tomato\";>0.33</b></p>\n                <p>Student 1's second guess for coin weight: <b style=\"color:Tomato\";>0.50</b></p>\n                <p>You received a bonus of <b>$0.47</b> based on the student's second guess.</p>\n                <p>Total bonus so far: <b>$0.47</b></p>\n                <p>Press any key to continue.</p>\n                ","response":" ","trial_type":"html-keyboard-response","trial_index":14,"time_elapsed":342831,"internal_node_id":"0.0-13.0","params":{"nStudents":24,"maxFlips":30,"completionMinutes":45,"basePay":8,"maxBonus":9,"perTrialBonus":0.5,"perTrialBonusThreshold":0.05,"exampleCost":0.01},"classroomParams":{"A":{"a":1,"b":4},"B":{"a":4,"b":1},"C":{"a":2,"b":8},"D":{"a":8,"b":2}},"conditions":["nonSeqFull","nonSeqPartial","seqNoFeedback","seqFeedback"],"classroomPairings":[["A","B"],["C","D"]],"coinWeights":[0.2,0.5,0.8],"subjectId":"A1DUPOUC9RNU4L","assignmentId":"3VZLGYJEYMWGD2TC5L6H45F7GFNXZQ","hitId":"34XASH8KLQ89J2U8D314D7180O4PMV","url":"https://gershmanlab.com/experiments/alicia/teaching/experiment/?hitId=34XASH8KLQ89J2U8D314D7180O4PMV&workerId=A1DUPOUC9RNU4L&assignmentId=3VZLGYJEYMWGD2TC5L6H45F7GFNXZQ&a=EGZV7&tp_a=EGZV7&b=3VZLGYJEYMWGD2TC5L6H45F7GFNXZQ&tp_b=3VZLGYJEYMWGD2TC5L6H45F7GFNXZQ&c=365717&tp_c=365717"},{"rt":null,"stimulus":"<div style=\"font-size:60px;\">Next student</div>","response":null,"trial_type":"html-keyboard-response","trial_index":15,"time_elapsed":345087,"internal_node_id":"0.0-14.0-0.0","params":{"nStudents":24,"maxFlips":30,"completionMinutes":45,"basePay":8,"maxBonus":9,"perTrialBonus":0.5,"perTrialBonusThreshold":0.05,"exampleCost":0.01},"classroomParams":{"A":{"a":1,"b":4},"B":{"a":4,"b":1},"C":{"a":2,"b":8},"D":{"a":8,"b":2}},"conditions":["nonSeqFull","nonSeqPartial","seqNoFeedback","seqFeedback"],"classroomPairings":[["A","B"],["C","D"]],"coinWeights":[0.2,0.5,0.8],"subjectId":"A1DUPOUC9RNU4L","assignmentId":"3VZLGYJEYMWGD2TC5L6H45F7GFNXZQ","hitId":"34XASH8KLQ89J2U8D314D7180O4PMV","url":"https://gershmanlab.com/experiments/alicia/teaching/experiment/?hitId=34XASH8KLQ89J2U8D314D7180O4PMV&workerId=A1DUPOUC9RNU4L&assignmentId=3VZLGYJEYMWGD2TC5L6H45F7GFNXZQ&a=EGZV7&tp_a=EGZV7&b=3VZLGYJEYMWGD2TC5L6H45F7GFNXZQ&tp_b=3VZLGYJEYMWGD2TC5L6H45F7GFNXZQ&c=365717&tp_c=365717"},{"rt":5530,"stimulus":"\n            <h4 style=\"color:Orange;\">Student 2</h4>\n            <h2>The weight of your coin is <b style=\"color:Tomato;\">0.8</b>.</h2>\n            <p>In this block, you will be giving <b>one</b> set of examples to Student 2.</p>\n                <p>You will receive feedback at the end of the block.</p>\n            <p></p>","response":0,"trial_type":"html-button-response","trial_index":16,"time_elapsed":350619,"internal_node_id":"0.0-15.0","params":{"nStudents":24,"maxFlips":30,"completionMinutes":45,"basePay":8,"maxBonus":9,"perTrialBonus":0.5,"perTrialBonusThreshold":0.05,"exampleCost":0.01},"classroomParams":{"A":{"a":1,"b":4},"B":{"a":4,"b":1},"C":{"a":2,"b":8},"D":{"a":8,"b":2}},"conditions":["nonSeqFull","nonSeqPartial","seqNoFeedback","seqFeedback"],"classroomPairings":[["A","B"],["C","D"]],"coinWeights":[0.2,0.5,0.8],"subjectId":"A1DUPOUC9RNU4L","assignmentId":"3VZLGYJEYMWGD2TC5L6H45F7GFNXZQ","hitId":"34XASH8KLQ89J2U8D314D7180O4PMV","url":"https://gershmanlab.com/experiments/alicia/teaching/experiment/?hitId=34XASH8KLQ89J2U8D314D7180O4PMV&workerId=A1DUPOUC9RNU4L&assignmentId=3VZLGYJEYMWGD2TC5L6H45F7GFNXZQ&a=EGZV7&tp_a=EGZV7&b=3VZLGYJEYMWGD2TC5L6H45F7GFNXZQ&tp_b=3VZLGYJEYMWGD2TC5L6H45F7GFNXZQ&c=365717&tp_c=365717"},{"rt":20895,"response":{"heads":"7","tails":"0"},"type":"response","condition":"nonSeqFull","trueTheta":0.8,"classrooms":["C","D"],"studentTrueClassroom":"C","exampleSet":"first","trial_type":"survey-html-form","trial_index":17,"time_elapsed":371515,"internal_node_id":"0.0-16.0-0.0","params":{"nStudents":24,"maxFlips":30,"completionMinutes":45,"basePay":8,"maxBonus":9,"perTrialBonus":0.5,"perTrialBonusThreshold":0.05,"exampleCost":0.01},"classroomParams":{"A":{"a":1,"b":4},"B":{"a":4,"b":1},"C":{"a":2,"b":8},"D":{"a":8,"b":2}},"conditions":["nonSeqFull","nonSeqPartial","seqNoFeedback","seqFeedback"],"classroomPairings":[["A","B"],["C","D"]],"coinWeights":[0.2,0.5,0.8],"subjectId":"A1DUPOUC9RNU4L","assignmentId":"3VZLGYJEYMWGD2TC5L6H45F7GFNXZQ","hitId":"34XASH8KLQ89J2U8D314D7180O4PMV","url":"https://gershmanlab.com/experiments/alicia/teaching/experiment/?hitId=34XASH8KLQ89J2U8D314D7180O4PMV&workerId=A1DUPOUC9RNU4L&assignmentId=3VZLGYJEYMWGD2TC5L6H45F7GFNXZQ&a=EGZV7&tp_a=EGZV7&b=3VZLGYJEYMWGD2TC5L6H45F7GFNXZQ&tp_b=3VZLGYJEYMWGD2TC5L6H45F7GFNXZQ&c=365717&tp_c=365717","heads":7,"tails":0,"studentIndex":1,"studentTrueHypers":{"a":2,"b":8},"studentGuess":0.5294117647058824,"delta":0.2705882352941177,"totalExamples":7,"bonus":0,"bonusSoFar":0.47},{"rt":null,"stimulus":"Sending examples to student... ","response":null,"trial_type":"html-keyboard-response","trial_index":18,"time_elapsed":373024,"internal_node_id":"0.0-17.0","params":{"nStudents":24,"maxFlips":30,"completionMinutes":45,"basePay":8,"maxBonus":9,"perTrialBonus":0.5,"perTrialBonusThreshold":0.05,"exampleCost":0.01},"classroomParams":{"A":{"a":1,"b":4},"B":{"a":4,"b":1},"C":{"a":2,"b":8},"D":{"a":8,"b":2}},"conditions":["nonSeqFull","nonSeqPartial","seqNoFeedback","seqFeedback"],"classroomPairings":[["A","B"],["C","D"]],"coinWeights":[0.2,0.5,0.8],"subjectId":"A1DUPOUC9RNU4L","assignmentId":"3VZLGYJEYMWGD2TC5L6H45F7GFNXZQ","hitId":"34XASH8KLQ89J2U8D314D7180O4PMV","url":"https://gershmanlab.com/experiments/alicia/teaching/experiment/?hitId=34XASH8KLQ89J2U8D314D7180O4PMV&workerId=A1DUPOUC9RNU4L&assignmentId=3VZLGYJEYMWGD2TC5L6H45F7GFNXZQ&a=EGZV7&tp_a=EGZV7&b=3VZLGYJEYMWGD2TC5L6H45F7GFNXZQ&tp_b=3VZLGYJEYMWGD2TC5L6H45F7GFNXZQ&c=365717&tp_c=365717"},{"rt":null,"stimulus":"Examples sent to student! Waiting for student...","response":null,"trial_type":"html-keyboard-response","trial_index":19,"time_elapsed":377028,"internal_node_id":"0.0-18.0","params":{"nStudents":24,"maxFlips":30,"completionMinutes":45,"basePay":8,"maxBonus":9,"perTrialBonus":0.5,"perTrialBonusThreshold":0.05,"exampleCost":0.01},"classroomParams":{"A":{"a":1,"b":4},"B":{"a":4,"b":1},"C":{"a":2,"b":8},"D":{"a":8,"b":2}},"conditions":["nonSeqFull","nonSeqPartial","seqNoFeedback","seqFeedback"],"classroomPairings":[["A","B"],["C","D"]],"coinWeights":[0.2,0.5,0.8],"subjectId":"A1DUPOUC9RNU4L","assignmentId":"3VZLGYJEYMWGD2TC5L6H45F7GFNXZQ","hitId":"34XASH8KLQ89J2U8D314D7180O4PMV","url":"https://gershmanlab.com/experiments/alicia/teaching/experiment/?hitId=34XASH8KLQ89J2U8D314D7180O4PMV&workerId=A1DUPOUC9RNU4L&assignmentId=3VZLGYJEYMWGD2TC5L6H45F7GFNXZQ&a=EGZV7&tp_a=EGZV7&b=3VZLGYJEYMWGD2TC5L6H45F7GFNXZQ&tp_b=3VZLGYJEYMWGD2TC5L6H45F7GFNXZQ&c=365717&tp_c=365717"},{"rt":2761,"stimulus":"\n                <p>Student's guess for coin weight: <b style=\"color:Tomato;\">0.53</b></p>\n                <p>You received a bonus of <b>$0</b>. Total bonus so far: <b>$0.47</b></b></p>\n                <p></p>\n                <p>Press any key to continue.</p>\n                ","response":" ","trial_type":"html-keyboard-response","trial_index":20,"time_elapsed":379790,"internal_node_id":"0.0-19.0","params":{"nStudents":24,"maxFlips":30,"completionMinutes":45,"basePay":8,"maxBonus":9,"perTrialBonus":0.5,"perTrialBonusThreshold":0.05,"exampleCost":0.01},"classroomParams":{"A":{"a":1,"b":4},"B":{"a":4,"b":1},"C":{"a":2,"b":8},"D":{"a":8,"b":2}},"conditions":["nonSeqFull","nonSeqPartial","seqNoFeedback","seqFeedback"],"classroomPairings":[["A","B"],["C","D"]],"coinWeights":[0.2,0.5,0.8],"subjectId":"A1DUPOUC9RNU4L","assignmentId":"3VZLGYJEYMWGD2TC5L6H45F7GFNXZQ","hitId":"34XASH8KLQ89J2U8D314D7180O4PMV","url":"https://gershmanlab.com/experiments/alicia/teaching/experiment/?hitId=34XASH8KLQ89J2U8D314D7180O4PMV&workerId=A1DUPOUC9RNU4L&assignmentId=3VZLGYJEYMWGD2TC5L6H45F7GFNXZQ&a=EGZV7&tp_a=EGZV7&b=3VZLGYJEYMWGD2TC5L6H45F7GFNXZQ&tp_b=3VZLGYJEYMWGD2TC5L6H45F7GFNXZQ&c=365717&tp_c=365717"},{"rt":null,"stimulus":"<div style=\"font-size:60px;\">Next student</div>","response":null,"trial_type":"html-keyboard-response","trial_index":21,"time_elapsed":382801,"internal_node_id":"0.0-20.0-0.0","params":{"nStudents":24,"maxFlips":30,"completionMinutes":45,"basePay":8,"maxBonus":9,"perTrialBonus":0.5,"perTrialBonusThreshold":0.05,"exampleCost":0.01},"classroomParams":{"A":{"a":1,"b":4},"B":{"a":4,"b":1},"C":{"a":2,"b":8},"D":{"a":8,"b":2}},"conditions":["nonSeqFull","nonSeqPartial","seqNoFeedback","seqFeedback"],"classroomPairings":[["A","B"],["C","D"]],"coinWeights":[0.2,0.5,0.8],"subjectId":"A1DUPOUC9RNU4L","assignmentId":"3VZLGYJEYMWGD2TC5L6H45F7GFNXZQ","hitId":"34XASH8KLQ89J2U8D314D7180O4PMV","url":"https://gershmanlab.com/experiments/alicia/teaching/experiment/?hitId=34XASH8KLQ89J2U8D314D7180O4PMV&workerId=A1DUPOUC9RNU4L&assignmentId=3VZLGYJEYMWGD2TC5L6H45F7GFNXZQ&a=EGZV7&tp_a=EGZV7&b=3VZLGYJEYMWGD2TC5L6H45F7GFNXZQ&tp_b=3VZLGYJEYMWGD2TC5L6H45F7GFNXZQ&c=365717&tp_c=365717"},{"rt":2765,"stimulus":"\n            <h4 style=\"color:Orange;\">Student 3</h4>\n            <h2>The weight of your coin is <b style=\"color:Tomato;\">0.8</b>.</h2>\n            <p>In this block, you will be giving <b>one</b> set of examples to Student 3.</p>\n                <p>You will receive feedback at the end of the block.</p>\n            <p></p>","response":0,"trial_type":"html-button-response","trial_index":22,"time_elapsed":385567,"internal_node_id":"0.0-21.0","params":{"nStudents":24,"maxFlips":30,"completionMinutes":45,"basePay":8,"maxBonus":9,"perTrialBonus":0.5,"perTrialBonusThreshold":0.05,"exampleCost":0.01},"classroomParams":{"A":{"a":1,"b":4},"B":{"a":4,"b":1},"C":{"a":2,"b":8},"D":{"a":8,"b":2}},"conditions":["nonSeqFull","nonSeqPartial","seqNoFeedback","seqFeedback"],"classroomPairings":[["A","B"],["C","D"]],"coinWeights":[0.2,0.5,0.8],"subjectId":"A1DUPOUC9RNU4L","assignmentId":"3VZLGYJEYMWGD2TC5L6H45F7GFNXZQ","hitId":"34XASH8KLQ89J2U8D314D7180O4PMV","url":"https://gershmanlab.com/experiments/alicia/teaching/experiment/?hitId=34XASH8KLQ89J2U8D314D7180O4PMV&workerId=A1DUPOUC9RNU4L&assignmentId=3VZLGYJEYMWGD2TC5L6H45F7GFNXZQ&a=EGZV7&tp_a=EGZV7&b=3VZLGYJEYMWGD2TC5L6H45F7GFNXZQ&tp_b=3VZLGYJEYMWGD2TC5L6H45F7GFNXZQ&c=365717&tp_c=365717"},{"rt":20765,"response":{"heads":"5","tails":"0"},"type":"response","condition":"nonSeqPartial","trueTheta":0.8,"classrooms":["A","B"],"studentTrueClassroom":"B","exampleSet":"first","trial_type":"survey-html-form","trial_index":23,"time_elapsed":406333,"internal_node_id":"0.0-22.0-0.0","params":{"nStudents":24,"maxFlips":30,"completionMinutes":45,"basePay":8,"maxBonus":9,"perTrialBonus":0.5,"perTrialBonusThreshold":0.05,"exampleCost":0.01},"classroomParams":{"A":{"a":1,"b":4},"B":{"a":4,"b":1},"C":{"a":2,"b":8},"D":{"a":8,"b":2}},"conditions":["nonSeqFull","nonSeqPartial","seqNoFeedback","seqFeedback"],"classroomPairings":[["A","B"],["C","D"]],"coinWeights":[0.2,0.5,0.8],"subjectId":"A1DUPOUC9RNU4L","assignmentId":"3VZLGYJEYMWGD2TC5L6H45F7GFNXZQ","hitId":"34XASH8KLQ89J2U8D314D7180O4PMV","url":"https://gershmanlab.com/experiments/alicia/teaching/experiment/?hitId=34XASH8KLQ89J2U8D314D7180O4PMV&workerId=A1DUPOUC9RNU4L&assignmentId=3VZLGYJEYMWGD2TC5L6H45F7GFNXZQ&a=EGZV7&tp_a=EGZV7&b=3VZLGYJEYMWGD2TC5L6H45F7GFNXZQ&tp_b=3VZLGYJEYMWGD2TC5L6H45F7GFNXZQ&c=365717&tp_c=365717","heads":5,"tails":0,"studentIndex":2,"studentTrueHypers":{"a":4,"b":1},"studentGuess":0.9,"delta":0.09999999999999998,"totalExamples":5,"bonus":0,"bonusSoFar":0.47},{"rt":null,"stimulus":"Sending examples to student... ","response":null,"trial_type":"html-keyboard-response","trial_index":24,"time_elapsed":407589,"internal_node_id":"0.0-23.0","params":{"nStudents":24,"maxFlips":30,"completionMinutes":45,"basePay":8,"maxBonus":9,"perTrialBonus":0.5,"perTrialBonusThreshold":0.05,"exampleCost":0.01},"classroomParams":{"A":{"a":1,"b":4},"B":{"a":4,"b":1},"C":{"a":2,"b":8},"D":{"a":8,"b":2}},"conditions":["nonSeqFull","nonSeqPartial","seqNoFeedback","seqFeedback"],"classroomPairings":[["A","B"],["C","D"]],"coinWeights":[0.2,0.5,0.8],"subjectId":"A1DUPOUC9RNU4L","assignmentId":"3VZLGYJEYMWGD2TC5L6H45F7GFNXZQ","hitId":"34XASH8KLQ89J2U8D314D7180O4PMV","url":"https://gershmanlab.com/experiments/alicia/teaching/experiment/?hitId=34XASH8KLQ89J2U8D314D7180O4PMV&workerId=A1DUPOUC9RNU4L&assignmentId=3VZLGYJEYMWGD2TC5L6H45F7GFNXZQ&a=EGZV7&tp_a=EGZV7&b=3VZLGYJEYMWGD2TC5L6H45F7GFNXZQ&tp_b=3VZLGYJEYMWGD2TC5L6H45F7GFNXZQ&c=365717&tp_c=365717"},{"rt":null,"stimulus":"Examples sent to student! Waiting for student...","response":null,"trial_type":"html-keyboard-response","trial_index":25,"time_elapsed":412601,"internal_node_id":"0.0-24.0","params":{"nStudents":24,"maxFlips":30,"completionMinutes":45,"basePay":8,"maxBonus":9,"perTrialBonus":0.5,"perTrialBonusThreshold":0.05,"exampleCost":0.01},"classroomParams":{"A":{"a":1,"b":4},"B":{"a":4,"b":1},"C":{"a":2,"b":8},"D":{"a":8,"b":2}},"conditions":["nonSeqFull","nonSeqPartial","seqNoFeedback","seqFeedback"],"classroomPairings":[["A","B"],["C","D"]],"coinWeights":[0.2,0.5,0.8],"subjectId":"A1DUPOUC9RNU4L","assignmentId":"3VZLGYJEYMWGD2TC5L6H45F7GFNXZQ","hitId":"34XASH8KLQ89J2U8D314D7180O4PMV","url":"https://gershmanlab.com/experiments/alicia/teaching/experiment/?hitId=34XASH8KLQ89J2U8D314D7180O4PMV&workerId=A1DUPOUC9RNU4L&assignmentId=3VZLGYJEYMWGD2TC5L6H45F7GFNXZQ&a=EGZV7&tp_a=EGZV7&b=3VZLGYJEYMWGD2TC5L6H45F7GFNXZQ&tp_b=3VZLGYJEYMWGD2TC5L6H45F7GFNXZQ&c=365717&tp_c=365717"},{"rt":5372,"stimulus":"\n                <p>Student's guess for coin weight: <b style=\"color:Tomato;\">0.90</b></p>\n                <p>You received a bonus of <b>$0</b>. Total bonus so far: <b>$0.47</b></b></p>\n                <p></p>\n                <p>Press any key to continue.</p>\n                ","response":" ","trial_type":"html-keyboard-response","trial_index":26,"time_elapsed":417974,"internal_node_id":"0.0-25.0","params":{"nStudents":24,"maxFlips":30,"completionMinutes":45,"basePay":8,"maxBonus":9,"perTrialBonus":0.5,"perTrialBonusThreshold":0.05,"exampleCost":0.01},"classroomParams":{"A":{"a":1,"b":4},"B":{"a":4,"b":1},"C":{"a":2,"b":8},"D":{"a":8,"b":2}},"conditions":["nonSeqFull","nonSeqPartial","seqNoFeedback","seqFeedback"],"classroomPairings":[["A","B"],["C","D"]],"coinWeights":[0.2,0.5,0.8],"subjectId":"A1DUPOUC9RNU4L","assignmentId":"3VZLGYJEYMWGD2TC5L6H45F7GFNXZQ","hitId":"34XASH8KLQ89J2U8D314D7180O4PMV","url":"https://gershmanlab.com/experiments/alicia/teaching/experiment/?hitId=34XASH8KLQ89J2U8D314D7180O4PMV&workerId=A1DUPOUC9RNU4L&assignmentId=3VZLGYJEYMWGD2TC5L6H45F7GFNXZQ&a=EGZV7&tp_a=EGZV7&b=3VZLGYJEYMWGD2TC5L6H45F7GFNXZQ&tp_b=3VZLGYJEYMWGD2TC5L6H45F7GFNXZQ&c=365717&tp_c=365717"},{"rt":null,"stimulus":"<div style=\"font-size:60px;\">Next student</div>","response":null,"trial_type":"html-keyboard-response","trial_index":27,"time_elapsed":419985,"internal_node_id":"0.0-26.0-0.0","params":{"nStudents":24,"maxFlips":30,"completionMinutes":45,"basePay":8,"maxBonus":9,"perTrialBonus":0.5,"perTrialBonusThreshold":0.05,"exampleCost":0.01},"classroomParams":{"A":{"a":1,"b":4},"B":{"a":4,"b":1},"C":{"a":2,"b":8},"D":{"a":8,"b":2}},"conditions":["nonSeqFull","nonSeqPartial","seqNoFeedback","seqFeedback"],"classroomPairings":[["A","B"],["C","D"]],"coinWeights":[0.2,0.5,0.8],"subjectId":"A1DUPOUC9RNU4L","assignmentId":"3VZLGYJEYMWGD2TC5L6H45F7GFNXZQ","hitId":"34XASH8KLQ89J2U8D314D7180O4PMV","url":"https://gershmanlab.com/experiments/alicia/teaching/experiment/?hitId=34XASH8KLQ89J2U8D314D7180O4PMV&workerId=A1DUPOUC9RNU4L&assignmentId=3VZLGYJEYMWGD2TC5L6H45F7GFNXZQ&a=EGZV7&tp_a=EGZV7&b=3VZLGYJEYMWGD2TC5L6H45F7GFNXZQ&tp_b=3VZLGYJEYMWGD2TC5L6H45F7GFNXZQ&c=365717&tp_c=365717"},{"rt":8039,"stimulus":"\n            <h4 style=\"color:Orange;\">Student 4</h4>\n            <h2>The weight of your coin is <b style=\"color:Tomato;\">0.8</b>.</h2>\n            <p>In this block, you will be giving <b>two</b> sets of examples to Student 4.</p>\n                <p>You will see the student's guess after the first set of examples. You will also receive feedback at the end of the block.</p>\n            <p>To earn the highest bonus, you will have to <b>take into consideration the student's guess</b> when you choose your second set of examples.</p>","response":0,"trial_type":"html-button-response","trial_index":28,"time_elapsed":428025,"internal_node_id":"0.0-27.0","params":{"nStudents":24,"maxFlips":30,"completionMinutes":45,"basePay":8,"maxBonus":9,"perTrialBonus":0.5,"perTrialBonusThreshold":0.05,"exampleCost":0.01},"classroomParams":{"A":{"a":1,"b":4},"B":{"a":4,"b":1},"C":{"a":2,"b":8},"D":{"a":8,"b":2}},"conditions":["nonSeqFull","nonSeqPartial","seqNoFeedback","seqFeedback"],"classroomPairings":[["A","B"],["C","D"]],"coinWeights":[0.2,0.5,0.8],"subjectId":"A1DUPOUC9RNU4L","assignmentId":"3VZLGYJEYMWGD2TC5L6H45F7GFNXZQ","hitId":"34XASH8KLQ89J2U8D314D7180O4PMV","url":"https://gershmanlab.com/experiments/alicia/teaching/experiment/?hitId=34XASH8KLQ89J2U8D314D7180O4PMV&workerId=A1DUPOUC9RNU4L&assignmentId=3VZLGYJEYMWGD2TC5L6H45F7GFNXZQ&a=EGZV7&tp_a=EGZV7&b=3VZLGYJEYMWGD2TC5L6H45F7GFNXZQ&tp_b=3VZLGYJEYMWGD2TC5L6H45F7GFNXZQ&c=365717&tp_c=365717"},{"rt":18287,"response":{"heads":"6","tails":"0"},"type":"response","condition":"seqFeedback","trueTheta":0.8,"classrooms":["A","B"],"studentTrueClassroom":"A","exampleSet":"first","trial_type":"survey-html-form","trial_index":29,"time_elapsed":446313,"internal_node_id":"0.0-28.0-0.0","params":{"nStudents":24,"maxFlips":30,"completionMinutes":45,"basePay":8,"maxBonus":9,"perTrialBonus":0.5,"perTrialBonusThreshold":0.05,"exampleCost":0.01},"classroomParams":{"A":{"a":1,"b":4},"B":{"a":4,"b":1},"C":{"a":2,"b":8},"D":{"a":8,"b":2}},"conditions":["nonSeqFull","nonSeqPartial","seqNoFeedback","seqFeedback"],"classroomPairings":[["A","B"],["C","D"]],"coinWeights":[0.2,0.5,0.8],"subjectId":"A1DUPOUC9RNU4L","assignmentId":"3VZLGYJEYMWGD2TC5L6H45F7GFNXZQ","hitId":"34XASH8KLQ89J2U8D314D7180O4PMV","url":"https://gershmanlab.com/experiments/alicia/teaching/experiment/?hitId=34XASH8KLQ89J2U8D314D7180O4PMV&workerId=A1DUPOUC9RNU4L&assignmentId=3VZLGYJEYMWGD2TC5L6H45F7GFNXZQ&a=EGZV7&tp_a=EGZV7&b=3VZLGYJEYMWGD2TC5L6H45F7GFNXZQ&tp_b=3VZLGYJEYMWGD2TC5L6H45F7GFNXZQ&c=365717&tp_c=365717","heads":6,"tails":0,"studentIndex":3,"studentTrueHypers":{"a":1,"b":4},"studentGuess":0.6363636363636364,"delta":0.1636363636363637,"totalExamples":6,"bonusSoFar":0.47},{"rt":null,"stimulus":"Sending examples to student... ","response":null,"trial_type":"html-keyboard-response","trial_index":30,"time_elapsed":447580,"internal_node_id":"0.0-29.0","params":{"nStudents":24,"maxFlips":30,"completionMinutes":45,"basePay":8,"maxBonus":9,"perTrialBonus":0.5,"perTrialBonusThreshold":0.05,"exampleCost":0.01},"classroomParams":{"A":{"a":1,"b":4},"B":{"a":4,"b":1},"C":{"a":2,"b":8},"D":{"a":8,"b":2}},"conditions":["nonSeqFull","nonSeqPartial","seqNoFeedback","seqFeedback"],"classroomPairings":[["A","B"],["C","D"]],"coinWeights":[0.2,0.5,0.8],"subjectId":"A1DUPOUC9RNU4L","assignmentId":"3VZLGYJEYMWGD2TC5L6H45F7GFNXZQ","hitId":"34XASH8KLQ89J2U8D314D7180O4PMV","url":"https://gershmanlab.com/experiments/alicia/teaching/experiment/?hitId=34XASH8KLQ89J2U8D314D7180O4PMV&workerId=A1DUPOUC9RNU4L&assignmentId=3VZLGYJEYMWGD2TC5L6H45F7GFNXZQ&a=EGZV7&tp_a=EGZV7&b=3VZLGYJEYMWGD2TC5L6H45F7GFNXZQ&tp_b=3VZLGYJEYMWGD2TC5L6H45F7GFNXZQ&c=365717&tp_c=365717"},{"rt":null,"stimulus":"Examples sent to student! Waiting for student...","response":null,"trial_type":"html-keyboard-response","trial_index":31,"time_elapsed":453082,"internal_node_id":"0.0-30.0","params":{"nStudents":24,"maxFlips":30,"completionMinutes":45,"basePay":8,"maxBonus":9,"perTrialBonus":0.5,"perTrialBonusThreshold":0.05,"exampleCost":0.01},"classroomParams":{"A":{"a":1,"b":4},"B":{"a":4,"b":1},"C":{"a":2,"b":8},"D":{"a":8,"b":2}},"conditions":["nonSeqFull","nonSeqPartial","seqNoFeedback","seqFeedback"],"classroomPairings":[["A","B"],["C","D"]],"coinWeights":[0.2,0.5,0.8],"subjectId":"A1DUPOUC9RNU4L","assignmentId":"3VZLGYJEYMWGD2TC5L6H45F7GFNXZQ","hitId":"34XASH8KLQ89J2U8D314D7180O4PMV","url":"https://gershmanlab.com/experiments/alicia/teaching/experiment/?hitId=34XASH8KLQ89J2U8D314D7180O4PMV&workerId=A1DUPOUC9RNU4L&assignmentId=3VZLGYJEYMWGD2TC5L6H45F7GFNXZQ&a=EGZV7&tp_a=EGZV7&b=3VZLGYJEYMWGD2TC5L6H45F7GFNXZQ&tp_b=3VZLGYJEYMWGD2TC5L6H45F7GFNXZQ&c=365717&tp_c=365717"},{"rt":6627,"stimulus":"\n                <p>Student's guess for coin weight: <b style=\"color:Tomato;\">0.64</b></p>\n                <p></b></p>\n                <p>You will now send another set of examples to your student. <b>Remember to take your student's guess into consideration so that you can earn the highest bonus possible!</b> </p>\n                <p>Press any key to continue.</p>\n                ","response":" ","trial_type":"html-keyboard-response","trial_index":32,"time_elapsed":459710,"internal_node_id":"0.0-31.0","params":{"nStudents":24,"maxFlips":30,"completionMinutes":45,"basePay":8,"maxBonus":9,"perTrialBonus":0.5,"perTrialBonusThreshold":0.05,"exampleCost":0.01},"classroomParams":{"A":{"a":1,"b":4},"B":{"a":4,"b":1},"C":{"a":2,"b":8},"D":{"a":8,"b":2}},"conditions":["nonSeqFull","nonSeqPartial","seqNoFeedback","seqFeedback"],"classroomPairings":[["A","B"],["C","D"]],"coinWeights":[0.2,0.5,0.8],"subjectId":"A1DUPOUC9RNU4L","assignmentId":"3VZLGYJEYMWGD2TC5L6H45F7GFNXZQ","hitId":"34XASH8KLQ89J2U8D314D7180O4PMV","url":"https://gershmanlab.com/experiments/alicia/teaching/experiment/?hitId=34XASH8KLQ89J2U8D314D7180O4PMV&workerId=A1DUPOUC9RNU4L&assignmentId=3VZLGYJEYMWGD2TC5L6H45F7GFNXZQ&a=EGZV7&tp_a=EGZV7&b=3VZLGYJEYMWGD2TC5L6H45F7GFNXZQ&tp_b=3VZLGYJEYMWGD2TC5L6H45F7GFNXZQ&c=365717&tp_c=365717"},{"rt":4590,"response":{"heads":"7","tails":"0"},"type":"response","condition":"seqFeedback","trueTheta":0.8,"classrooms":["A","B"],"studentTrueClassroom":"A","exampleSet":"second","trial_type":"survey-html-form","trial_index":33,"time_elapsed":464301,"internal_node_id":"0.0-32.0-0.0","params":{"nStudents":24,"maxFlips":30,"completionMinutes":45,"basePay":8,"maxBonus":9,"perTrialBonus":0.5,"perTrialBonusThreshold":0.05,"exampleCost":0.01},"classroomParams":{"A":{"a":1,"b":4},"B":{"a":4,"b":1},"C":{"a":2,"b":8},"D":{"a":8,"b":2}},"conditions":["nonSeqFull","nonSeqPartial","seqNoFeedback","seqFeedback"],"classroomPairings":[["A","B"],["C","D"]],"coinWeights":[0.2,0.5,0.8],"subjectId":"A1DUPOUC9RNU4L","assignmentId":"3VZLGYJEYMWGD2TC5L6H45F7GFNXZQ","hitId":"34XASH8KLQ89J2U8D314D7180O4PMV","url":"https://gershmanlab.com/experiments/alicia/teaching/experiment/?hitId=34XASH8KLQ89J2U8D314D7180O4PMV&workerId=A1DUPOUC9RNU4L&assignmentId=3VZLGYJEYMWGD2TC5L6H45F7GFNXZQ&a=EGZV7&tp_a=EGZV7&b=3VZLGYJEYMWGD2TC5L6H45F7GFNXZQ&tp_b=3VZLGYJEYMWGD2TC5L6H45F7GFNXZQ&c=365717&tp_c=365717","firstResponseHeads":6,"firstResponseTails":0,"secondResponseHeads":7,"secondResponseTails":0,"totalHeads":13,"totalTails":0,"studentIndex":3,"studentTrueHypers":{"a":1,"b":4},"studentGuess":0.7777777777777778,"delta":0.022222222222222254,"bonus":0.37,"bonusSoFar":0.84,"totalExamples":13},{"rt":null,"stimulus":"Sending examples to student... ","response":null,"trial_type":"html-keyboard-response","trial_index":34,"time_elapsed":466068,"internal_node_id":"0.0-33.0","params":{"nStudents":24,"maxFlips":30,"completionMinutes":45,"basePay":8,"maxBonus":9,"perTrialBonus":0.5,"perTrialBonusThreshold":0.05,"exampleCost":0.01},"classroomParams":{"A":{"a":1,"b":4},"B":{"a":4,"b":1},"C":{"a":2,"b":8},"D":{"a":8,"b":2}},"conditions":["nonSeqFull","nonSeqPartial","seqNoFeedback","seqFeedback"],"classroomPairings":[["A","B"],["C","D"]],"coinWeights":[0.2,0.5,0.8],"subjectId":"A1DUPOUC9RNU4L","assignmentId":"3VZLGYJEYMWGD2TC5L6H45F7GFNXZQ","hitId":"34XASH8KLQ89J2U8D314D7180O4PMV","url":"https://gershmanlab.com/experiments/alicia/teaching/experiment/?hitId=34XASH8KLQ89J2U8D314D7180O4PMV&workerId=A1DUPOUC9RNU4L&assignmentId=3VZLGYJEYMWGD2TC5L6H45F7GFNXZQ&a=EGZV7&tp_a=EGZV7&b=3VZLGYJEYMWGD2TC5L6H45F7GFNXZQ&tp_b=3VZLGYJEYMWGD2TC5L6H45F7GFNXZQ&c=365717&tp_c=365717"},{"rt":null,"stimulus":"Examples sent to student! Waiting for student...","response":null,"trial_type":"html-keyboard-response","trial_index":35,"time_elapsed":470078,"internal_node_id":"0.0-34.0","params":{"nStudents":24,"maxFlips":30,"completionMinutes":45,"basePay":8,"maxBonus":9,"perTrialBonus":0.5,"perTrialBonusThreshold":0.05,"exampleCost":0.01},"classroomParams":{"A":{"a":1,"b":4},"B":{"a":4,"b":1},"C":{"a":2,"b":8},"D":{"a":8,"b":2}},"conditions":["nonSeqFull","nonSeqPartial","seqNoFeedback","seqFeedback"],"classroomPairings":[["A","B"],["C","D"]],"coinWeights":[0.2,0.5,0.8],"subjectId":"A1DUPOUC9RNU4L","assignmentId":"3VZLGYJEYMWGD2TC5L6H45F7GFNXZQ","hitId":"34XASH8KLQ89J2U8D314D7180O4PMV","url":"https://gershmanlab.com/experiments/alicia/teaching/experiment/?hitId=34XASH8KLQ89J2U8D314D7180O4PMV&workerId=A1DUPOUC9RNU4L&assignmentId=3VZLGYJEYMWGD2TC5L6H45F7GFNXZQ&a=EGZV7&tp_a=EGZV7&b=3VZLGYJEYMWGD2TC5L6H45F7GFNXZQ&tp_b=3VZLGYJEYMWGD2TC5L6H45F7GFNXZQ&c=365717&tp_c=365717"},{"rt":3055,"stimulus":"\n                <p>Student 4's first guess for coin weight: <b style=\"color:Tomato\";>0.64</b></p>\n                <p>Student 4's second guess for coin weight: <b style=\"color:Tomato\";>0.78</b></p>\n                <p>You received a bonus of <b>$0.37</b> based on the student's second guess.</p>\n                <p>Total bonus so far: <b>$0.84</b></p>\n                <p>Press any key to continue.</p>\n                ","response":" ","trial_type":"html-keyboard-response","trial_index":36,"time_elapsed":473135,"internal_node_id":"0.0-35.0","params":{"nStudents":24,"maxFlips":30,"completionMinutes":45,"basePay":8,"maxBonus":9,"perTrialBonus":0.5,"perTrialBonusThreshold":0.05,"exampleCost":0.01},"classroomParams":{"A":{"a":1,"b":4},"B":{"a":4,"b":1},"C":{"a":2,"b":8},"D":{"a":8,"b":2}},"conditions":["nonSeqFull","nonSeqPartial","seqNoFeedback","seqFeedback"],"classroomPairings":[["A","B"],["C","D"]],"coinWeights":[0.2,0.5,0.8],"subjectId":"A1DUPOUC9RNU4L","assignmentId":"3VZLGYJEYMWGD2TC5L6H45F7GFNXZQ","hitId":"34XASH8KLQ89J2U8D314D7180O4PMV","url":"https://gershmanlab.com/experiments/alicia/teaching/experiment/?hitId=34XASH8KLQ89J2U8D314D7180O4PMV&workerId=A1DUPOUC9RNU4L&assignmentId=3VZLGYJEYMWGD2TC5L6H45F7GFNXZQ&a=EGZV7&tp_a=EGZV7&b=3VZLGYJEYMWGD2TC5L6H45F7GFNXZQ&tp_b=3VZLGYJEYMWGD2TC5L6H45F7GFNXZQ&c=365717&tp_c=365717"},{"rt":null,"stimulus":"<div style=\"font-size:60px;\">Next student</div>","response":null,"trial_type":"html-keyboard-response","trial_index":37,"time_elapsed":475145,"internal_node_id":"0.0-36.0-0.0","params":{"nStudents":24,"maxFlips":30,"completionMinutes":45,"basePay":8,"maxBonus":9,"perTrialBonus":0.5,"perTrialBonusThreshold":0.05,"exampleCost":0.01},"classroomParams":{"A":{"a":1,"b":4},"B":{"a":4,"b":1},"C":{"a":2,"b":8},"D":{"a":8,"b":2}},"conditions":["nonSeqFull","nonSeqPartial","seqNoFeedback","seqFeedback"],"classroomPairings":[["A","B"],["C","D"]],"coinWeights":[0.2,0.5,0.8],"subjectId":"A1DUPOUC9RNU4L","assignmentId":"3VZLGYJEYMWGD2TC5L6H45F7GFNXZQ","hitId":"34XASH8KLQ89J2U8D314D7180O4PMV","url":"https://gershmanlab.com/experiments/alicia/teaching/experiment/?hitId=34XASH8KLQ89J2U8D314D7180O4PMV&workerId=A1DUPOUC9RNU4L&assignmentId=3VZLGYJEYMWGD2TC5L6H45F7GFNXZQ&a=EGZV7&tp_a=EGZV7&b=3VZLGYJEYMWGD2TC5L6H45F7GFNXZQ&tp_b=3VZLGYJEYMWGD2TC5L6H45F7GFNXZQ&c=365717&tp_c=365717"},{"rt":4944,"stimulus":"\n            <h4 style=\"color:Orange;\">Student 5</h4>\n            <h2>The weight of your coin is <b style=\"color:Tomato;\">0.5</b>.</h2>\n            <p>In this block, you will be giving <b>one</b> set of examples to Student 5.</p>\n                <p>You will receive feedback at the end of the block.</p>\n            <p></p>","response":0,"trial_type":"html-button-response","trial_index":38,"time_elapsed":480091,"internal_node_id":"0.0-37.0","params":{"nStudents":24,"maxFlips":30,"completionMinutes":45,"basePay":8,"maxBonus":9,"perTrialBonus":0.5,"perTrialBonusThreshold":0.05,"exampleCost":0.01},"classroomParams":{"A":{"a":1,"b":4},"B":{"a":4,"b":1},"C":{"a":2,"b":8},"D":{"a":8,"b":2}},"conditions":["nonSeqFull","nonSeqPartial","seqNoFeedback","seqFeedback"],"classroomPairings":[["A","B"],["C","D"]],"coinWeights":[0.2,0.5,0.8],"subjectId":"A1DUPOUC9RNU4L","assignmentId":"3VZLGYJEYMWGD2TC5L6H45F7GFNXZQ","hitId":"34XASH8KLQ89J2U8D314D7180O4PMV","url":"https://gershmanlab.com/experiments/alicia/teaching/experiment/?hitId=34XASH8KLQ89J2U8D314D7180O4PMV&workerId=A1DUPOUC9RNU4L&assignmentId=3VZLGYJEYMWGD2TC5L6H45F7GFNXZQ&a=EGZV7&tp_a=EGZV7&b=3VZLGYJEYMWGD2TC5L6H45F7GFNXZQ&tp_b=3VZLGYJEYMWGD2TC5L6H45F7GFNXZQ&c=365717&tp_c=365717"},{"rt":20223,"response":{"heads":"6","tails":"0"},"type":"response","condition":"nonSeqFull","trueTheta":0.5,"classrooms":["C","D"],"studentTrueClassroom":"C","exampleSet":"first","trial_type":"survey-html-form","trial_index":39,"time_elapsed":500315,"internal_node_id":"0.0-38.0-0.0","params":{"nStudents":24,"maxFlips":30,"completionMinutes":45,"basePay":8,"maxBonus":9,"perTrialBonus":0.5,"perTrialBonusThreshold":0.05,"exampleCost":0.01},"classroomParams":{"A":{"a":1,"b":4},"B":{"a":4,"b":1},"C":{"a":2,"b":8},"D":{"a":8,"b":2}},"conditions":["nonSeqFull","nonSeqPartial","seqNoFeedback","seqFeedback"],"classroomPairings":[["A","B"],["C","D"]],"coinWeights":[0.2,0.5,0.8],"subjectId":"A1DUPOUC9RNU4L","assignmentId":"3VZLGYJEYMWGD2TC5L6H45F7GFNXZQ","hitId":"34XASH8KLQ89J2U8D314D7180O4PMV","url":"https://gershmanlab.com/experiments/alicia/teaching/experiment/?hitId=34XASH8KLQ89J2U8D314D7180O4PMV&workerId=A1DUPOUC9RNU4L&assignmentId=3VZLGYJEYMWGD2TC5L6H45F7GFNXZQ&a=EGZV7&tp_a=EGZV7&b=3VZLGYJEYMWGD2TC5L6H45F7GFNXZQ&tp_b=3VZLGYJEYMWGD2TC5L6H45F7GFNXZQ&c=365717&tp_c=365717","heads":6,"tails":0,"studentIndex":4,"studentTrueHypers":{"a":2,"b":8},"studentGuess":0.5,"delta":0,"totalExamples":6,"bonus":0.44,"bonusSoFar":1.28},{"rt":null,"stimulus":"Sending examples to student... ","response":null,"trial_type":"html-keyboard-response","trial_index":40,"time_elapsed":501830,"internal_node_id":"0.0-39.0","params":{"nStudents":24,"maxFlips":30,"completionMinutes":45,"basePay":8,"maxBonus":9,"perTrialBonus":0.5,"perTrialBonusThreshold":0.05,"exampleCost":0.01},"classroomParams":{"A":{"a":1,"b":4},"B":{"a":4,"b":1},"C":{"a":2,"b":8},"D":{"a":8,"b":2}},"conditions":["nonSeqFull","nonSeqPartial","seqNoFeedback","seqFeedback"],"classroomPairings":[["A","B"],["C","D"]],"coinWeights":[0.2,0.5,0.8],"subjectId":"A1DUPOUC9RNU4L","assignmentId":"3VZLGYJEYMWGD2TC5L6H45F7GFNXZQ","hitId":"34XASH8KLQ89J2U8D314D7180O4PMV","url":"https://gershmanlab.com/experiments/alicia/teaching/experiment/?hitId=34XASH8KLQ89J2U8D314D7180O4PMV&workerId=A1DUPOUC9RNU4L&assignmentId=3VZLGYJEYMWGD2TC5L6H45F7GFNXZQ&a=EGZV7&tp_a=EGZV7&b=3VZLGYJEYMWGD2TC5L6H45F7GFNXZQ&tp_b=3VZLGYJEYMWGD2TC5L6H45F7GFNXZQ&c=365717&tp_c=365717"},{"rt":null,"stimulus":"Examples sent to student! Waiting for student...","response":null,"trial_type":"html-keyboard-response","trial_index":41,"time_elapsed":507838,"internal_node_id":"0.0-40.0","params":{"nStudents":24,"maxFlips":30,"completionMinutes":45,"basePay":8,"maxBonus":9,"perTrialBonus":0.5,"perTrialBonusThreshold":0.05,"exampleCost":0.01},"classroomParams":{"A":{"a":1,"b":4},"B":{"a":4,"b":1},"C":{"a":2,"b":8},"D":{"a":8,"b":2}},"conditions":["nonSeqFull","nonSeqPartial","seqNoFeedback","seqFeedback"],"classroomPairings":[["A","B"],["C","D"]],"coinWeights":[0.2,0.5,0.8],"subjectId":"A1DUPOUC9RNU4L","assignmentId":"3VZLGYJEYMWGD2TC5L6H45F7GFNXZQ","hitId":"34XASH8KLQ89J2U8D314D7180O4PMV","url":"https://gershmanlab.com/experiments/alicia/teaching/experiment/?hitId=34XASH8KLQ89J2U8D314D7180O4PMV&workerId=A1DUPOUC9RNU4L&assignmentId=3VZLGYJEYMWGD2TC5L6H45F7GFNXZQ&a=EGZV7&tp_a=EGZV7&b=3VZLGYJEYMWGD2TC5L6H45F7GFNXZQ&tp_b=3VZLGYJEYMWGD2TC5L6H45F7GFNXZQ&c=365717&tp_c=365717"},{"rt":5567,"stimulus":"\n                <p>Student's guess for coin weight: <b style=\"color:Tomato;\">0.50</b></p>\n                <p>You received a bonus of <b>$0.44</b>. Total bonus so far: <b>$1.28</b></b></p>\n                <p></p>\n                <p>Press any key to continue.</p>\n                ","response":" ","trial_type":"html-keyboard-response","trial_index":42,"time_elapsed":513406,"internal_node_id":"0.0-41.0","params":{"nStudents":24,"maxFlips":30,"completionMinutes":45,"basePay":8,"maxBonus":9,"perTrialBonus":0.5,"perTrialBonusThreshold":0.05,"exampleCost":0.01},"classroomParams":{"A":{"a":1,"b":4},"B":{"a":4,"b":1},"C":{"a":2,"b":8},"D":{"a":8,"b":2}},"conditions":["nonSeqFull","nonSeqPartial","seqNoFeedback","seqFeedback"],"classroomPairings":[["A","B"],["C","D"]],"coinWeights":[0.2,0.5,0.8],"subjectId":"A1DUPOUC9RNU4L","assignmentId":"3VZLGYJEYMWGD2TC5L6H45F7GFNXZQ","hitId":"34XASH8KLQ89J2U8D314D7180O4PMV","url":"https://gershmanlab.com/experiments/alicia/teaching/experiment/?hitId=34XASH8KLQ89J2U8D314D7180O4PMV&workerId=A1DUPOUC9RNU4L&assignmentId=3VZLGYJEYMWGD2TC5L6H45F7GFNXZQ&a=EGZV7&tp_a=EGZV7&b=3VZLGYJEYMWGD2TC5L6H45F7GFNXZQ&tp_b=3VZLGYJEYMWGD2TC5L6H45F7GFNXZQ&c=365717&tp_c=365717"},{"rt":null,"stimulus":"<div style=\"font-size:60px;\">Next student</div>","response":null,"trial_type":"html-keyboard-response","trial_index":43,"time_elapsed":515409,"internal_node_id":"0.0-42.0-0.0","params":{"nStudents":24,"maxFlips":30,"completionMinutes":45,"basePay":8,"maxBonus":9,"perTrialBonus":0.5,"perTrialBonusThreshold":0.05,"exampleCost":0.01},"classroomParams":{"A":{"a":1,"b":4},"B":{"a":4,"b":1},"C":{"a":2,"b":8},"D":{"a":8,"b":2}},"conditions":["nonSeqFull","nonSeqPartial","seqNoFeedback","seqFeedback"],"classroomPairings":[["A","B"],["C","D"]],"coinWeights":[0.2,0.5,0.8],"subjectId":"A1DUPOUC9RNU4L","assignmentId":"3VZLGYJEYMWGD2TC5L6H45F7GFNXZQ","hitId":"34XASH8KLQ89J2U8D314D7180O4PMV","url":"https://gershmanlab.com/experiments/alicia/teaching/experiment/?hitId=34XASH8KLQ89J2U8D314D7180O4PMV&workerId=A1DUPOUC9RNU4L&assignmentId=3VZLGYJEYMWGD2TC5L6H45F7GFNXZQ&a=EGZV7&tp_a=EGZV7&b=3VZLGYJEYMWGD2TC5L6H45F7GFNXZQ&tp_b=3VZLGYJEYMWGD2TC5L6H45F7GFNXZQ&c=365717&tp_c=365717"},{"rt":2352,"stimulus":"\n            <h4 style=\"color:Orange;\">Student 6</h4>\n            <h2>The weight of your coin is <b style=\"color:Tomato;\">0.2</b>.</h2>\n            <p>In this block, you will be giving <b>two</b> sets of examples to Student 6.</p>\n                <p>You will see the student's guess after the first set of examples. You will also receive feedback at the end of the block.</p>\n            <p>To earn the highest bonus, you will have to <b>take into consideration the student's guess</b> when you choose your second set of examples.</p>","response":0,"trial_type":"html-button-response","trial_index":44,"time_elapsed":517763,"internal_node_id":"0.0-43.0","params":{"nStudents":24,"maxFlips":30,"completionMinutes":45,"basePay":8,"maxBonus":9,"perTrialBonus":0.5,"perTrialBonusThreshold":0.05,"exampleCost":0.01},"classroomParams":{"A":{"a":1,"b":4},"B":{"a":4,"b":1},"C":{"a":2,"b":8},"D":{"a":8,"b":2}},"conditions":["nonSeqFull","nonSeqPartial","seqNoFeedback","seqFeedback"],"classroomPairings":[["A","B"],["C","D"]],"coinWeights":[0.2,0.5,0.8],"subjectId":"A1DUPOUC9RNU4L","assignmentId":"3VZLGYJEYMWGD2TC5L6H45F7GFNXZQ","hitId":"34XASH8KLQ89J2U8D314D7180O4PMV","url":"https://gershmanlab.com/experiments/alicia/teaching/experiment/?hitId=34XASH8KLQ89J2U8D314D7180O4PMV&workerId=A1DUPOUC9RNU4L&assignmentId=3VZLGYJEYMWGD2TC5L6H45F7GFNXZQ&a=EGZV7&tp_a=EGZV7&b=3VZLGYJEYMWGD2TC5L6H45F7GFNXZQ&tp_b=3VZLGYJEYMWGD2TC5L6H45F7GFNXZQ&c=365717&tp_c=365717"},{"rt":19873,"response":{"heads":"0","tails":"5"},"type":"response","condition":"seqFeedback","trueTheta":0.2,"classrooms":["A","B"],"studentTrueClassroom":"A","exampleSet":"first","trial_type":"survey-html-form","trial_index":45,"time_elapsed":537637,"internal_node_id":"0.0-44.0-0.0","params":{"nStudents":24,"maxFlips":30,"completionMinutes":45,"basePay":8,"maxBonus":9,"perTrialBonus":0.5,"perTrialBonusThreshold":0.05,"exampleCost":0.01},"classroomParams":{"A":{"a":1,"b":4},"B":{"a":4,"b":1},"C":{"a":2,"b":8},"D":{"a":8,"b":2}},"conditions":["nonSeqFull","nonSeqPartial","seqNoFeedback","seqFeedback"],"classroomPairings":[["A","B"],["C","D"]],"coinWeights":[0.2,0.5,0.8],"subjectId":"A1DUPOUC9RNU4L","assignmentId":"3VZLGYJEYMWGD2TC5L6H45F7GFNXZQ","hitId":"34XASH8KLQ89J2U8D314D7180O4PMV","url":"https://gershmanlab.com/experiments/alicia/teaching/experiment/?hitId=34XASH8KLQ89J2U8D314D7180O4PMV&workerId=A1DUPOUC9RNU4L&assignmentId=3VZLGYJEYMWGD2TC5L6H45F7GFNXZQ&a=EGZV7&tp_a=EGZV7&b=3VZLGYJEYMWGD2TC5L6H45F7GFNXZQ&tp_b=3VZLGYJEYMWGD2TC5L6H45F7GFNXZQ&c=365717&tp_c=365717","heads":0,"tails":5,"studentIndex":5,"studentTrueHypers":{"a":1,"b":4},"studentGuess":0.1,"delta":0.1,"totalExamples":5,"bonusSoFar":1.28},{"rt":null,"stimulus":"Sending examples to student... ","response":null,"trial_type":"html-keyboard-response","trial_index":46,"time_elapsed":539146,"internal_node_id":"0.0-45.0","params":{"nStudents":24,"maxFlips":30,"completionMinutes":45,"basePay":8,"maxBonus":9,"perTrialBonus":0.5,"perTrialBonusThreshold":0.05,"exampleCost":0.01},"classroomParams":{"A":{"a":1,"b":4},"B":{"a":4,"b":1},"C":{"a":2,"b":8},"D":{"a":8,"b":2}},"conditions":["nonSeqFull","nonSeqPartial","seqNoFeedback","seqFeedback"],"classroomPairings":[["A","B"],["C","D"]],"coinWeights":[0.2,0.5,0.8],"subjectId":"A1DUPOUC9RNU4L","assignmentId":"3VZLGYJEYMWGD2TC5L6H45F7GFNXZQ","hitId":"34XASH8KLQ89J2U8D314D7180O4PMV","url":"https://gershmanlab.com/experiments/alicia/teaching/experiment/?hitId=34XASH8KLQ89J2U8D314D7180O4PMV&workerId=A1DUPOUC9RNU4L&assignmentId=3VZLGYJEYMWGD2TC5L6H45F7GFNXZQ&a=EGZV7&tp_a=EGZV7&b=3VZLGYJEYMWGD2TC5L6H45F7GFNXZQ&tp_b=3VZLGYJEYMWGD2TC5L6H45F7GFNXZQ&c=365717&tp_c=365717"},{"rt":null,"stimulus":"Examples sent to student! Waiting for student...","response":null,"trial_type":"html-keyboard-response","trial_index":47,"time_elapsed":543652,"internal_node_id":"0.0-46.0","params":{"nStudents":24,"maxFlips":30,"completionMinutes":45,"basePay":8,"maxBonus":9,"perTrialBonus":0.5,"perTrialBonusThreshold":0.05,"exampleCost":0.01},"classroomParams":{"A":{"a":1,"b":4},"B":{"a":4,"b":1},"C":{"a":2,"b":8},"D":{"a":8,"b":2}},"conditions":["nonSeqFull","nonSeqPartial","seqNoFeedback","seqFeedback"],"classroomPairings":[["A","B"],["C","D"]],"coinWeights":[0.2,0.5,0.8],"subjectId":"A1DUPOUC9RNU4L","assignmentId":"3VZLGYJEYMWGD2TC5L6H45F7GFNXZQ","hitId":"34XASH8KLQ89J2U8D314D7180O4PMV","url":"https://gershmanlab.com/experiments/alicia/teaching/experiment/?hitId=34XASH8KLQ89J2U8D314D7180O4PMV&workerId=A1DUPOUC9RNU4L&assignmentId=3VZLGYJEYMWGD2TC5L6H45F7GFNXZQ&a=EGZV7&tp_a=EGZV7&b=3VZLGYJEYMWGD2TC5L6H45F7GFNXZQ&tp_b=3VZLGYJEYMWGD2TC5L6H45F7GFNXZQ&c=365717&tp_c=365717"},{"rt":4561,"stimulus":"\n                <p>Student's guess for coin weight: <b style=\"color:Tomato;\">0.10</b></p>\n                <p></b></p>\n                <p>You will now send another set of examples to your student. <b>Remember to take your student's guess into consideration so that you can earn the highest bonus possible!</b> </p>\n                <p>Press any key to continue.</p>\n                ","response":" ","trial_type":"html-keyboard-response","trial_index":48,"time_elapsed":548214,"internal_node_id":"0.0-47.0","params":{"nStudents":24,"maxFlips":30,"completionMinutes":45,"basePay":8,"maxBonus":9,"perTrialBonus":0.5,"perTrialBonusThreshold":0.05,"exampleCost":0.01},"classroomParams":{"A":{"a":1,"b":4},"B":{"a":4,"b":1},"C":{"a":2,"b":8},"D":{"a":8,"b":2}},"conditions":["nonSeqFull","nonSeqPartial","seqNoFeedback","seqFeedback"],"classroomPairings":[["A","B"],["C","D"]],"coinWeights":[0.2,0.5,0.8],"subjectId":"A1DUPOUC9RNU4L","assignmentId":"3VZLGYJEYMWGD2TC5L6H45F7GFNXZQ","hitId":"34XASH8KLQ89J2U8D314D7180O4PMV","url":"https://gershmanlab.com/experiments/alicia/teaching/experiment/?hitId=34XASH8KLQ89J2U8D314D7180O4PMV&workerId=A1DUPOUC9RNU4L&assignmentId=3VZLGYJEYMWGD2TC5L6H45F7GFNXZQ&a=EGZV7&tp_a=EGZV7&b=3VZLGYJEYMWGD2TC5L6H45F7GFNXZQ&tp_b=3VZLGYJEYMWGD2TC5L6H45F7GFNXZQ&c=365717&tp_c=365717"},{"rt":4014,"response":{"heads":"0","tails":"4"},"type":"response","condition":"seqFeedback","trueTheta":0.2,"classrooms":["A","B"],"studentTrueClassroom":"A","exampleSet":"second","trial_type":"survey-html-form","trial_index":49,"time_elapsed":552231,"internal_node_id":"0.0-48.0-0.0","params":{"nStudents":24,"maxFlips":30,"completionMinutes":45,"basePay":8,"maxBonus":9,"perTrialBonus":0.5,"perTrialBonusThreshold":0.05,"exampleCost":0.01},"classroomParams":{"A":{"a":1,"b":4},"B":{"a":4,"b":1},"C":{"a":2,"b":8},"D":{"a":8,"b":2}},"conditions":["nonSeqFull","nonSeqPartial","seqNoFeedback","seqFeedback"],"classroomPairings":[["A","B"],["C","D"]],"coinWeights":[0.2,0.5,0.8],"subjectId":"A1DUPOUC9RNU4L","assignmentId":"3VZLGYJEYMWGD2TC5L6H45F7GFNXZQ","hitId":"34XASH8KLQ89J2U8D314D7180O4PMV","url":"https://gershmanlab.com/experiments/alicia/teaching/experiment/?hitId=34XASH8KLQ89J2U8D314D7180O4PMV&workerId=A1DUPOUC9RNU4L&assignmentId=3VZLGYJEYMWGD2TC5L6H45F7GFNXZQ&a=EGZV7&tp_a=EGZV7&b=3VZLGYJEYMWGD2TC5L6H45F7GFNXZQ&tp_b=3VZLGYJEYMWGD2TC5L6H45F7GFNXZQ&c=365717&tp_c=365717","firstResponseHeads":0,"firstResponseTails":5,"secondResponseHeads":0,"secondResponseTails":4,"totalHeads":0,"totalTails":9,"studentIndex":5,"studentTrueHypers":{"a":1,"b":4},"studentGuess":0.07142857142857142,"delta":0.1285714285714286,"bonus":0,"bonusSoFar":1.28,"totalExamples":9},{"rt":null,"stimulus":"Sending examples to student... ","response":null,"trial_type":"html-keyboard-response","trial_index":50,"time_elapsed":553983,"internal_node_id":"0.0-49.0","params":{"nStudents":24,"maxFlips":30,"completionMinutes":45,"basePay":8,"maxBonus":9,"perTrialBonus":0.5,"perTrialBonusThreshold":0.05,"exampleCost":0.01},"classroomParams":{"A":{"a":1,"b":4},"B":{"a":4,"b":1},"C":{"a":2,"b":8},"D":{"a":8,"b":2}},"conditions":["nonSeqFull","nonSeqPartial","seqNoFeedback","seqFeedback"],"classroomPairings":[["A","B"],["C","D"]],"coinWeights":[0.2,0.5,0.8],"subjectId":"A1DUPOUC9RNU4L","assignmentId":"3VZLGYJEYMWGD2TC5L6H45F7GFNXZQ","hitId":"34XASH8KLQ89J2U8D314D7180O4PMV","url":"https://gershmanlab.com/experiments/alicia/teaching/experiment/?hitId=34XASH8KLQ89J2U8D314D7180O4PMV&workerId=A1DUPOUC9RNU4L&assignmentId=3VZLGYJEYMWGD2TC5L6H45F7GFNXZQ&a=EGZV7&tp_a=EGZV7&b=3VZLGYJEYMWGD2TC5L6H45F7GFNXZQ&tp_b=3VZLGYJEYMWGD2TC5L6H45F7GFNXZQ&c=365717&tp_c=365717"},{"rt":null,"stimulus":"Examples sent to student! Waiting for student...","response":null,"trial_type":"html-keyboard-response","trial_index":51,"time_elapsed":559487,"internal_node_id":"0.0-50.0","params":{"nStudents":24,"maxFlips":30,"completionMinutes":45,"basePay":8,"maxBonus":9,"perTrialBonus":0.5,"perTrialBonusThreshold":0.05,"exampleCost":0.01},"classroomParams":{"A":{"a":1,"b":4},"B":{"a":4,"b":1},"C":{"a":2,"b":8},"D":{"a":8,"b":2}},"conditions":["nonSeqFull","nonSeqPartial","seqNoFeedback","seqFeedback"],"classroomPairings":[["A","B"],["C","D"]],"coinWeights":[0.2,0.5,0.8],"subjectId":"A1DUPOUC9RNU4L","assignmentId":"3VZLGYJEYMWGD2TC5L6H45F7GFNXZQ","hitId":"34XASH8KLQ89J2U8D314D7180O4PMV","url":"https://gershmanlab.com/experiments/alicia/teaching/experiment/?hitId=34XASH8KLQ89J2U8D314D7180O4PMV&workerId=A1DUPOUC9RNU4L&assignmentId=3VZLGYJEYMWGD2TC5L6H45F7GFNXZQ&a=EGZV7&tp_a=EGZV7&b=3VZLGYJEYMWGD2TC5L6H45F7GFNXZQ&tp_b=3VZLGYJEYMWGD2TC5L6H45F7GFNXZQ&c=365717&tp_c=365717"},{"rt":3398,"stimulus":"\n                <p>Student 6's first guess for coin weight: <b style=\"color:Tomato\";>0.10</b></p>\n                <p>Student 6's second guess for coin weight: <b style=\"color:Tomato\";>0.07</b></p>\n                <p>You received a bonus of <b>$0.00</b> based on the student's second guess.</p>\n                <p>Total bonus so far: <b>$1.28</b></p>\n                <p>Press any key to continue.</p>\n                ","response":" ","trial_type":"html-keyboard-response","trial_index":52,"time_elapsed":562886,"internal_node_id":"0.0-51.0","params":{"nStudents":24,"maxFlips":30,"completionMinutes":45,"basePay":8,"maxBonus":9,"perTrialBonus":0.5,"perTrialBonusThreshold":0.05,"exampleCost":0.01},"classroomParams":{"A":{"a":1,"b":4},"B":{"a":4,"b":1},"C":{"a":2,"b":8},"D":{"a":8,"b":2}},"conditions":["nonSeqFull","nonSeqPartial","seqNoFeedback","seqFeedback"],"classroomPairings":[["A","B"],["C","D"]],"coinWeights":[0.2,0.5,0.8],"subjectId":"A1DUPOUC9RNU4L","assignmentId":"3VZLGYJEYMWGD2TC5L6H45F7GFNXZQ","hitId":"34XASH8KLQ89J2U8D314D7180O4PMV","url":"https://gershmanlab.com/experiments/alicia/teaching/experiment/?hitId=34XASH8KLQ89J2U8D314D7180O4PMV&workerId=A1DUPOUC9RNU4L&assignmentId=3VZLGYJEYMWGD2TC5L6H45F7GFNXZQ&a=EGZV7&tp_a=EGZV7&b=3VZLGYJEYMWGD2TC5L6H45F7GFNXZQ&tp_b=3VZLGYJEYMWGD2TC5L6H45F7GFNXZQ&c=365717&tp_c=365717"},{"rt":null,"stimulus":"<div style=\"font-size:60px;\">Next student</div>","response":null,"trial_type":"html-keyboard-response","trial_index":53,"time_elapsed":565144,"internal_node_id":"0.0-52.0-0.0","params":{"nStudents":24,"maxFlips":30,"completionMinutes":45,"basePay":8,"maxBonus":9,"perTrialBonus":0.5,"perTrialBonusThreshold":0.05,"exampleCost":0.01},"classroomParams":{"A":{"a":1,"b":4},"B":{"a":4,"b":1},"C":{"a":2,"b":8},"D":{"a":8,"b":2}},"conditions":["nonSeqFull","nonSeqPartial","seqNoFeedback","seqFeedback"],"classroomPairings":[["A","B"],["C","D"]],"coinWeights":[0.2,0.5,0.8],"subjectId":"A1DUPOUC9RNU4L","assignmentId":"3VZLGYJEYMWGD2TC5L6H45F7GFNXZQ","hitId":"34XASH8KLQ89J2U8D314D7180O4PMV","url":"https://gershmanlab.com/experiments/alicia/teaching/experiment/?hitId=34XASH8KLQ89J2U8D314D7180O4PMV&workerId=A1DUPOUC9RNU4L&assignmentId=3VZLGYJEYMWGD2TC5L6H45F7GFNXZQ&a=EGZV7&tp_a=EGZV7&b=3VZLGYJEYMWGD2TC5L6H45F7GFNXZQ&tp_b=3VZLGYJEYMWGD2TC5L6H45F7GFNXZQ&c=365717&tp_c=365717"},{"rt":2243,"stimulus":"\n            <h4 style=\"color:Orange;\">Student 7</h4>\n            <h2>The weight of your coin is <b style=\"color:Tomato;\">0.8</b>.</h2>\n            <p>In this block, you will be giving <b>two</b> sets of examples to Student 7.</p>\n                <p>You will receive feedback at the end of the block.</p>\n            <p></p>","response":0,"trial_type":"html-button-response","trial_index":54,"time_elapsed":567388,"internal_node_id":"0.0-53.0","params":{"nStudents":24,"maxFlips":30,"completionMinutes":45,"basePay":8,"maxBonus":9,"perTrialBonus":0.5,"perTrialBonusThreshold":0.05,"exampleCost":0.01},"classroomParams":{"A":{"a":1,"b":4},"B":{"a":4,"b":1},"C":{"a":2,"b":8},"D":{"a":8,"b":2}},"conditions":["nonSeqFull","nonSeqPartial","seqNoFeedback","seqFeedback"],"classroomPairings":[["A","B"],["C","D"]],"coinWeights":[0.2,0.5,0.8],"subjectId":"A1DUPOUC9RNU4L","assignmentId":"3VZLGYJEYMWGD2TC5L6H45F7GFNXZQ","hitId":"34XASH8KLQ89J2U8D314D7180O4PMV","url":"https://gershmanlab.com/experiments/alicia/teaching/experiment/?hitId=34XASH8KLQ89J2U8D314D7180O4PMV&workerId=A1DUPOUC9RNU4L&assignmentId=3VZLGYJEYMWGD2TC5L6H45F7GFNXZQ&a=EGZV7&tp_a=EGZV7&b=3VZLGYJEYMWGD2TC5L6H45F7GFNXZQ&tp_b=3VZLGYJEYMWGD2TC5L6H45F7GFNXZQ&c=365717&tp_c=365717"},{"rt":20237,"response":{"heads":"7","tails":"0"},"type":"response","condition":"seqNoFeedback","trueTheta":0.8,"classrooms":["A","B"],"studentTrueClassroom":"B","exampleSet":"first","trial_type":"survey-html-form","trial_index":55,"time_elapsed":587627,"internal_node_id":"0.0-54.0-0.0","params":{"nStudents":24,"maxFlips":30,"completionMinutes":45,"basePay":8,"maxBonus":9,"perTrialBonus":0.5,"perTrialBonusThreshold":0.05,"exampleCost":0.01},"classroomParams":{"A":{"a":1,"b":4},"B":{"a":4,"b":1},"C":{"a":2,"b":8},"D":{"a":8,"b":2}},"conditions":["nonSeqFull","nonSeqPartial","seqNoFeedback","seqFeedback"],"classroomPairings":[["A","B"],["C","D"]],"coinWeights":[0.2,0.5,0.8],"subjectId":"A1DUPOUC9RNU4L","assignmentId":"3VZLGYJEYMWGD2TC5L6H45F7GFNXZQ","hitId":"34XASH8KLQ89J2U8D314D7180O4PMV","url":"https://gershmanlab.com/experiments/alicia/teaching/experiment/?hitId=34XASH8KLQ89J2U8D314D7180O4PMV&workerId=A1DUPOUC9RNU4L&assignmentId=3VZLGYJEYMWGD2TC5L6H45F7GFNXZQ&a=EGZV7&tp_a=EGZV7&b=3VZLGYJEYMWGD2TC5L6H45F7GFNXZQ&tp_b=3VZLGYJEYMWGD2TC5L6H45F7GFNXZQ&c=365717&tp_c=365717","heads":7,"tails":0,"studentIndex":6,"studentTrueHypers":{"a":4,"b":1},"studentGuess":0.9166666666666666,"delta":0.11666666666666659,"totalExamples":7,"bonusSoFar":1.28},{"rt":null,"stimulus":"Sending examples to student... ","response":null,"trial_type":"html-keyboard-response","trial_index":56,"time_elapsed":589396,"internal_node_id":"0.0-55.0","params":{"nStudents":24,"maxFlips":30,"completionMinutes":45,"basePay":8,"maxBonus":9,"perTrialBonus":0.5,"perTrialBonusThreshold":0.05,"exampleCost":0.01},"classroomParams":{"A":{"a":1,"b":4},"B":{"a":4,"b":1},"C":{"a":2,"b":8},"D":{"a":8,"b":2}},"conditions":["nonSeqFull","nonSeqPartial","seqNoFeedback","seqFeedback"],"classroomPairings":[["A","B"],["C","D"]],"coinWeights":[0.2,0.5,0.8],"subjectId":"A1DUPOUC9RNU4L","assignmentId":"3VZLGYJEYMWGD2TC5L6H45F7GFNXZQ","hitId":"34XASH8KLQ89J2U8D314D7180O4PMV","url":"https://gershmanlab.com/experiments/alicia/teaching/experiment/?hitId=34XASH8KLQ89J2U8D314D7180O4PMV&workerId=A1DUPOUC9RNU4L&assignmentId=3VZLGYJEYMWGD2TC5L6H45F7GFNXZQ&a=EGZV7&tp_a=EGZV7&b=3VZLGYJEYMWGD2TC5L6H45F7GFNXZQ&tp_b=3VZLGYJEYMWGD2TC5L6H45F7GFNXZQ&c=365717&tp_c=365717"},{"rt":null,"stimulus":"Examples sent to student! Waiting for student...","response":null,"trial_type":"html-keyboard-response","trial_index":57,"time_elapsed":593898,"internal_node_id":"0.0-56.0","params":{"nStudents":24,"maxFlips":30,"completionMinutes":45,"basePay":8,"maxBonus":9,"perTrialBonus":0.5,"perTrialBonusThreshold":0.05,"exampleCost":0.01},"classroomParams":{"A":{"a":1,"b":4},"B":{"a":4,"b":1},"C":{"a":2,"b":8},"D":{"a":8,"b":2}},"conditions":["nonSeqFull","nonSeqPartial","seqNoFeedback","seqFeedback"],"classroomPairings":[["A","B"],["C","D"]],"coinWeights":[0.2,0.5,0.8],"subjectId":"A1DUPOUC9RNU4L","assignmentId":"3VZLGYJEYMWGD2TC5L6H45F7GFNXZQ","hitId":"34XASH8KLQ89J2U8D314D7180O4PMV","url":"https://gershmanlab.com/experiments/alicia/teaching/experiment/?hitId=34XASH8KLQ89J2U8D314D7180O4PMV&workerId=A1DUPOUC9RNU4L&assignmentId=3VZLGYJEYMWGD2TC5L6H45F7GFNXZQ&a=EGZV7&tp_a=EGZV7&b=3VZLGYJEYMWGD2TC5L6H45F7GFNXZQ&tp_b=3VZLGYJEYMWGD2TC5L6H45F7GFNXZQ&c=365717&tp_c=365717"},{"rt":17241,"response":{"heads":"6","tails":"0"},"type":"response","condition":"seqNoFeedback","trueTheta":0.8,"classrooms":["A","B"],"studentTrueClassroom":"B","exampleSet":"second","trial_type":"survey-html-form","trial_index":58,"time_elapsed":611140,"internal_node_id":"0.0-57.0-0.0","params":{"nStudents":24,"maxFlips":30,"completionMinutes":45,"basePay":8,"maxBonus":9,"perTrialBonus":0.5,"perTrialBonusThreshold":0.05,"exampleCost":0.01},"classroomParams":{"A":{"a":1,"b":4},"B":{"a":4,"b":1},"C":{"a":2,"b":8},"D":{"a":8,"b":2}},"conditions":["nonSeqFull","nonSeqPartial","seqNoFeedback","seqFeedback"],"classroomPairings":[["A","B"],["C","D"]],"coinWeights":[0.2,0.5,0.8],"subjectId":"A1DUPOUC9RNU4L","assignmentId":"3VZLGYJEYMWGD2TC5L6H45F7GFNXZQ","hitId":"34XASH8KLQ89J2U8D314D7180O4PMV","url":"https://gershmanlab.com/experiments/alicia/teaching/experiment/?hitId=34XASH8KLQ89J2U8D314D7180O4PMV&workerId=A1DUPOUC9RNU4L&assignmentId=3VZLGYJEYMWGD2TC5L6H45F7GFNXZQ&a=EGZV7&tp_a=EGZV7&b=3VZLGYJEYMWGD2TC5L6H45F7GFNXZQ&tp_b=3VZLGYJEYMWGD2TC5L6H45F7GFNXZQ&c=365717&tp_c=365717","firstResponseHeads":7,"firstResponseTails":0,"secondResponseHeads":6,"secondResponseTails":0,"totalHeads":13,"totalTails":0,"studentIndex":6,"studentTrueHypers":{"a":4,"b":1},"studentGuess":0.9444444444444444,"delta":0.14444444444444438,"bonus":0,"bonusSoFar":1.28,"totalExamples":13},{"rt":null,"stimulus":"Sending examples to student... ","response":null,"trial_type":"html-keyboard-response","trial_index":59,"time_elapsed":612409,"internal_node_id":"0.0-58.0","params":{"nStudents":24,"maxFlips":30,"completionMinutes":45,"basePay":8,"maxBonus":9,"perTrialBonus":0.5,"perTrialBonusThreshold":0.05,"exampleCost":0.01},"classroomParams":{"A":{"a":1,"b":4},"B":{"a":4,"b":1},"C":{"a":2,"b":8},"D":{"a":8,"b":2}},"conditions":["nonSeqFull","nonSeqPartial","seqNoFeedback","seqFeedback"],"classroomPairings":[["A","B"],["C","D"]],"coinWeights":[0.2,0.5,0.8],"subjectId":"A1DUPOUC9RNU4L","assignmentId":"3VZLGYJEYMWGD2TC5L6H45F7GFNXZQ","hitId":"34XASH8KLQ89J2U8D314D7180O4PMV","url":"https://gershmanlab.com/experiments/alicia/teaching/experiment/?hitId=34XASH8KLQ89J2U8D314D7180O4PMV&workerId=A1DUPOUC9RNU4L&assignmentId=3VZLGYJEYMWGD2TC5L6H45F7GFNXZQ&a=EGZV7&tp_a=EGZV7&b=3VZLGYJEYMWGD2TC5L6H45F7GFNXZQ&tp_b=3VZLGYJEYMWGD2TC5L6H45F7GFNXZQ&c=365717&tp_c=365717"},{"rt":null,"stimulus":"Examples sent to student! Waiting for student...","response":null,"trial_type":"html-keyboard-response","trial_index":60,"time_elapsed":617423,"internal_node_id":"0.0-59.0","params":{"nStudents":24,"maxFlips":30,"completionMinutes":45,"basePay":8,"maxBonus":9,"perTrialBonus":0.5,"perTrialBonusThreshold":0.05,"exampleCost":0.01},"classroomParams":{"A":{"a":1,"b":4},"B":{"a":4,"b":1},"C":{"a":2,"b":8},"D":{"a":8,"b":2}},"conditions":["nonSeqFull","nonSeqPartial","seqNoFeedback","seqFeedback"],"classroomPairings":[["A","B"],["C","D"]],"coinWeights":[0.2,0.5,0.8],"subjectId":"A1DUPOUC9RNU4L","assignmentId":"3VZLGYJEYMWGD2TC5L6H45F7GFNXZQ","hitId":"34XASH8KLQ89J2U8D314D7180O4PMV","url":"https://gershmanlab.com/experiments/alicia/teaching/experiment/?hitId=34XASH8KLQ89J2U8D314D7180O4PMV&workerId=A1DUPOUC9RNU4L&assignmentId=3VZLGYJEYMWGD2TC5L6H45F7GFNXZQ&a=EGZV7&tp_a=EGZV7&b=3VZLGYJEYMWGD2TC5L6H45F7GFNXZQ&tp_b=3VZLGYJEYMWGD2TC5L6H45F7GFNXZQ&c=365717&tp_c=365717"},{"rt":4445,"stimulus":"\n                <p>Student 7's first guess for coin weight: <b style=\"color:Tomato\";>0.92</b></p>\n                <p>Student 7's second guess for coin weight: <b style=\"color:Tomato\";>0.94</b></p>\n                <p>You received a bonus of <b>$0.00</b> based on the student's second guess.</p>\n                <p>Total bonus so far: <b>$1.28</b></p>\n                <p>Press any key to continue.</p>\n                ","response":" ","trial_type":"html-keyboard-response","trial_index":61,"time_elapsed":621870,"internal_node_id":"0.0-60.0","params":{"nStudents":24,"maxFlips":30,"completionMinutes":45,"basePay":8,"maxBonus":9,"perTrialBonus":0.5,"perTrialBonusThreshold":0.05,"exampleCost":0.01},"classroomParams":{"A":{"a":1,"b":4},"B":{"a":4,"b":1},"C":{"a":2,"b":8},"D":{"a":8,"b":2}},"conditions":["nonSeqFull","nonSeqPartial","seqNoFeedback","seqFeedback"],"classroomPairings":[["A","B"],["C","D"]],"coinWeights":[0.2,0.5,0.8],"subjectId":"A1DUPOUC9RNU4L","assignmentId":"3VZLGYJEYMWGD2TC5L6H45F7GFNXZQ","hitId":"34XASH8KLQ89J2U8D314D7180O4PMV","url":"https://gershmanlab.com/experiments/alicia/teaching/experiment/?hitId=34XASH8KLQ89J2U8D314D7180O4PMV&workerId=A1DUPOUC9RNU4L&assignmentId=3VZLGYJEYMWGD2TC5L6H45F7GFNXZQ&a=EGZV7&tp_a=EGZV7&b=3VZLGYJEYMWGD2TC5L6H45F7GFNXZQ&tp_b=3VZLGYJEYMWGD2TC5L6H45F7GFNXZQ&c=365717&tp_c=365717"},{"rt":null,"stimulus":"<div style=\"font-size:60px;\">Next student</div>","response":null,"trial_type":"html-keyboard-response","trial_index":62,"time_elapsed":623881,"internal_node_id":"0.0-61.0-0.0","params":{"nStudents":24,"maxFlips":30,"completionMinutes":45,"basePay":8,"maxBonus":9,"perTrialBonus":0.5,"perTrialBonusThreshold":0.05,"exampleCost":0.01},"classroomParams":{"A":{"a":1,"b":4},"B":{"a":4,"b":1},"C":{"a":2,"b":8},"D":{"a":8,"b":2}},"conditions":["nonSeqFull","nonSeqPartial","seqNoFeedback","seqFeedback"],"classroomPairings":[["A","B"],["C","D"]],"coinWeights":[0.2,0.5,0.8],"subjectId":"A1DUPOUC9RNU4L","assignmentId":"3VZLGYJEYMWGD2TC5L6H45F7GFNXZQ","hitId":"34XASH8KLQ89J2U8D314D7180O4PMV","url":"https://gershmanlab.com/experiments/alicia/teaching/experiment/?hitId=34XASH8KLQ89J2U8D314D7180O4PMV&workerId=A1DUPOUC9RNU4L&assignmentId=3VZLGYJEYMWGD2TC5L6H45F7GFNXZQ&a=EGZV7&tp_a=EGZV7&b=3VZLGYJEYMWGD2TC5L6H45F7GFNXZQ&tp_b=3VZLGYJEYMWGD2TC5L6H45F7GFNXZQ&c=365717&tp_c=365717"},{"rt":2308,"stimulus":"\n            <h4 style=\"color:Orange;\">Student 8</h4>\n            <h2>The weight of your coin is <b style=\"color:Tomato;\">0.5</b>.</h2>\n            <p>In this block, you will be giving <b>two</b> sets of examples to Student 8.</p>\n                <p>You will see the student's guess after the first set of examples. You will also receive feedback at the end of the block.</p>\n            <p>To earn the highest bonus, you will have to <b>take into consideration the student's guess</b> when you choose your second set of examples.</p>","response":0,"trial_type":"html-button-response","trial_index":63,"time_elapsed":626190,"internal_node_id":"0.0-62.0","params":{"nStudents":24,"maxFlips":30,"completionMinutes":45,"basePay":8,"maxBonus":9,"perTrialBonus":0.5,"perTrialBonusThreshold":0.05,"exampleCost":0.01},"classroomParams":{"A":{"a":1,"b":4},"B":{"a":4,"b":1},"C":{"a":2,"b":8},"D":{"a":8,"b":2}},"conditions":["nonSeqFull","nonSeqPartial","seqNoFeedback","seqFeedback"],"classroomPairings":[["A","B"],["C","D"]],"coinWeights":[0.2,0.5,0.8],"subjectId":"A1DUPOUC9RNU4L","assignmentId":"3VZLGYJEYMWGD2TC5L6H45F7GFNXZQ","hitId":"34XASH8KLQ89J2U8D314D7180O4PMV","url":"https://gershmanlab.com/experiments/alicia/teaching/experiment/?hitId=34XASH8KLQ89J2U8D314D7180O4PMV&workerId=A1DUPOUC9RNU4L&assignmentId=3VZLGYJEYMWGD2TC5L6H45F7GFNXZQ&a=EGZV7&tp_a=EGZV7&b=3VZLGYJEYMWGD2TC5L6H45F7GFNXZQ&tp_b=3VZLGYJEYMWGD2TC5L6H45F7GFNXZQ&c=365717&tp_c=365717"},{"rt":41947,"response":{"heads":"6","tails":"6"},"type":"response","condition":"seqFeedback","trueTheta":0.5,"classrooms":["C","D"],"studentTrueClassroom":"D","exampleSet":"first","trial_type":"survey-html-form","trial_index":64,"time_elapsed":668138,"internal_node_id":"0.0-63.0-0.0","params":{"nStudents":24,"maxFlips":30,"completionMinutes":45,"basePay":8,"maxBonus":9,"perTrialBonus":0.5,"perTrialBonusThreshold":0.05,"exampleCost":0.01},"classroomParams":{"A":{"a":1,"b":4},"B":{"a":4,"b":1},"C":{"a":2,"b":8},"D":{"a":8,"b":2}},"conditions":["nonSeqFull","nonSeqPartial","seqNoFeedback","seqFeedback"],"classroomPairings":[["A","B"],["C","D"]],"coinWeights":[0.2,0.5,0.8],"subjectId":"A1DUPOUC9RNU4L","assignmentId":"3VZLGYJEYMWGD2TC5L6H45F7GFNXZQ","hitId":"34XASH8KLQ89J2U8D314D7180O4PMV","url":"https://gershmanlab.com/experiments/alicia/teaching/experiment/?hitId=34XASH8KLQ89J2U8D314D7180O4PMV&workerId=A1DUPOUC9RNU4L&assignmentId=3VZLGYJEYMWGD2TC5L6H45F7GFNXZQ&a=EGZV7&tp_a=EGZV7&b=3VZLGYJEYMWGD2TC5L6H45F7GFNXZQ&tp_b=3VZLGYJEYMWGD2TC5L6H45F7GFNXZQ&c=365717&tp_c=365717","heads":6,"tails":6,"studentIndex":7,"studentTrueHypers":{"a":8,"b":2},"studentGuess":0.6363636363636364,"delta":0.13636363636363635,"totalExamples":12,"bonusSoFar":1.28},{"rt":null,"stimulus":"Sending examples to student... ","response":null,"trial_type":"html-keyboard-response","trial_index":65,"time_elapsed":669655,"internal_node_id":"0.0-64.0","params":{"nStudents":24,"maxFlips":30,"completionMinutes":45,"basePay":8,"maxBonus":9,"perTrialBonus":0.5,"perTrialBonusThreshold":0.05,"exampleCost":0.01},"classroomParams":{"A":{"a":1,"b":4},"B":{"a":4,"b":1},"C":{"a":2,"b":8},"D":{"a":8,"b":2}},"conditions":["nonSeqFull","nonSeqPartial","seqNoFeedback","seqFeedback"],"classroomPairings":[["A","B"],["C","D"]],"coinWeights":[0.2,0.5,0.8],"subjectId":"A1DUPOUC9RNU4L","assignmentId":"3VZLGYJEYMWGD2TC5L6H45F7GFNXZQ","hitId":"34XASH8KLQ89J2U8D314D7180O4PMV","url":"https://gershmanlab.com/experiments/alicia/teaching/experiment/?hitId=34XASH8KLQ89J2U8D314D7180O4PMV&workerId=A1DUPOUC9RNU4L&assignmentId=3VZLGYJEYMWGD2TC5L6H45F7GFNXZQ&a=EGZV7&tp_a=EGZV7&b=3VZLGYJEYMWGD2TC5L6H45F7GFNXZQ&tp_b=3VZLGYJEYMWGD2TC5L6H45F7GFNXZQ&c=365717&tp_c=365717"},{"rt":null,"stimulus":"Examples sent to student! Waiting for student...","response":null,"trial_type":"html-keyboard-response","trial_index":66,"time_elapsed":674156,"internal_node_id":"0.0-65.0","params":{"nStudents":24,"maxFlips":30,"completionMinutes":45,"basePay":8,"maxBonus":9,"perTrialBonus":0.5,"perTrialBonusThreshold":0.05,"exampleCost":0.01},"classroomParams":{"A":{"a":1,"b":4},"B":{"a":4,"b":1},"C":{"a":2,"b":8},"D":{"a":8,"b":2}},"conditions":["nonSeqFull","nonSeqPartial","seqNoFeedback","seqFeedback"],"classroomPairings":[["A","B"],["C","D"]],"coinWeights":[0.2,0.5,0.8],"subjectId":"A1DUPOUC9RNU4L","assignmentId":"3VZLGYJEYMWGD2TC5L6H45F7GFNXZQ","hitId":"34XASH8KLQ89J2U8D314D7180O4PMV","url":"https://gershmanlab.com/experiments/alicia/teaching/experiment/?hitId=34XASH8KLQ89J2U8D314D7180O4PMV&workerId=A1DUPOUC9RNU4L&assignmentId=3VZLGYJEYMWGD2TC5L6H45F7GFNXZQ&a=EGZV7&tp_a=EGZV7&b=3VZLGYJEYMWGD2TC5L6H45F7GFNXZQ&tp_b=3VZLGYJEYMWGD2TC5L6H45F7GFNXZQ&c=365717&tp_c=365717"},{"rt":5280,"stimulus":"\n                <p>Student's guess for coin weight: <b style=\"color:Tomato;\">0.64</b></p>\n                <p></b></p>\n                <p>You will now send another set of examples to your student. <b>Remember to take your student's guess into consideration so that you can earn the highest bonus possible!</b> </p>\n                <p>Press any key to continue.</p>\n                ","response":" ","trial_type":"html-keyboard-response","trial_index":67,"time_elapsed":679437,"internal_node_id":"0.0-66.0","params":{"nStudents":24,"maxFlips":30,"completionMinutes":45,"basePay":8,"maxBonus":9,"perTrialBonus":0.5,"perTrialBonusThreshold":0.05,"exampleCost":0.01},"classroomParams":{"A":{"a":1,"b":4},"B":{"a":4,"b":1},"C":{"a":2,"b":8},"D":{"a":8,"b":2}},"conditions":["nonSeqFull","nonSeqPartial","seqNoFeedback","seqFeedback"],"classroomPairings":[["A","B"],["C","D"]],"coinWeights":[0.2,0.5,0.8],"subjectId":"A1DUPOUC9RNU4L","assignmentId":"3VZLGYJEYMWGD2TC5L6H45F7GFNXZQ","hitId":"34XASH8KLQ89J2U8D314D7180O4PMV","url":"https://gershmanlab.com/experiments/alicia/teaching/experiment/?hitId=34XASH8KLQ89J2U8D314D7180O4PMV&workerId=A1DUPOUC9RNU4L&assignmentId=3VZLGYJEYMWGD2TC5L6H45F7GFNXZQ&a=EGZV7&tp_a=EGZV7&b=3VZLGYJEYMWGD2TC5L6H45F7GFNXZQ&tp_b=3VZLGYJEYMWGD2TC5L6H45F7GFNXZQ&c=365717&tp_c=365717"},{"rt":19305,"response":{"heads":"5","tails":"5"},"type":"response","condition":"seqFeedback","trueTheta":0.5,"classrooms":["C","D"],"studentTrueClassroom":"D","exampleSet":"second","trial_type":"survey-html-form","trial_index":68,"time_elapsed":698744,"internal_node_id":"0.0-67.0-0.0","params":{"nStudents":24,"maxFlips":30,"completionMinutes":45,"basePay":8,"maxBonus":9,"perTrialBonus":0.5,"perTrialBonusThreshold":0.05,"exampleCost":0.01},"classroomParams":{"A":{"a":1,"b":4},"B":{"a":4,"b":1},"C":{"a":2,"b":8},"D":{"a":8,"b":2}},"conditions":["nonSeqFull","nonSeqPartial","seqNoFeedback","seqFeedback"],"classroomPairings":[["A","B"],["C","D"]],"coinWeights":[0.2,0.5,0.8],"subjectId":"A1DUPOUC9RNU4L","assignmentId":"3VZLGYJEYMWGD2TC5L6H45F7GFNXZQ","hitId":"34XASH8KLQ89J2U8D314D7180O4PMV","url":"https://gershmanlab.com/experiments/alicia/teaching/experiment/?hitId=34XASH8KLQ89J2U8D314D7180O4PMV&workerId=A1DUPOUC9RNU4L&assignmentId=3VZLGYJEYMWGD2TC5L6H45F7GFNXZQ&a=EGZV7&tp_a=EGZV7&b=3VZLGYJEYMWGD2TC5L6H45F7GFNXZQ&tp_b=3VZLGYJEYMWGD2TC5L6H45F7GFNXZQ&c=365717&tp_c=365717","firstResponseHeads":6,"firstResponseTails":6,"secondResponseHeads":5,"secondResponseTails":5,"totalHeads":11,"totalTails":11,"studentIndex":7,"studentTrueHypers":{"a":8,"b":2},"studentGuess":0.59375,"delta":0.09375,"bonus":0,"bonusSoFar":1.28,"totalExamples":22},{"rt":null,"stimulus":"Sending examples to student... ","response":null,"trial_type":"html-keyboard-response","trial_index":69,"time_elapsed":700003,"internal_node_id":"0.0-68.0","params":{"nStudents":24,"maxFlips":30,"completionMinutes":45,"basePay":8,"maxBonus":9,"perTrialBonus":0.5,"perTrialBonusThreshold":0.05,"exampleCost":0.01},"classroomParams":{"A":{"a":1,"b":4},"B":{"a":4,"b":1},"C":{"a":2,"b":8},"D":{"a":8,"b":2}},"conditions":["nonSeqFull","nonSeqPartial","seqNoFeedback","seqFeedback"],"classroomPairings":[["A","B"],["C","D"]],"coinWeights":[0.2,0.5,0.8],"subjectId":"A1DUPOUC9RNU4L","assignmentId":"3VZLGYJEYMWGD2TC5L6H45F7GFNXZQ","hitId":"34XASH8KLQ89J2U8D314D7180O4PMV","url":"https://gershmanlab.com/experiments/alicia/teaching/experiment/?hitId=34XASH8KLQ89J2U8D314D7180O4PMV&workerId=A1DUPOUC9RNU4L&assignmentId=3VZLGYJEYMWGD2TC5L6H45F7GFNXZQ&a=EGZV7&tp_a=EGZV7&b=3VZLGYJEYMWGD2TC5L6H45F7GFNXZQ&tp_b=3VZLGYJEYMWGD2TC5L6H45F7GFNXZQ&c=365717&tp_c=365717"},{"rt":null,"stimulus":"Examples sent to student! Waiting for student...","response":null,"trial_type":"html-keyboard-response","trial_index":70,"time_elapsed":704520,"internal_node_id":"0.0-69.0","params":{"nStudents":24,"maxFlips":30,"completionMinutes":45,"basePay":8,"maxBonus":9,"perTrialBonus":0.5,"perTrialBonusThreshold":0.05,"exampleCost":0.01},"classroomParams":{"A":{"a":1,"b":4},"B":{"a":4,"b":1},"C":{"a":2,"b":8},"D":{"a":8,"b":2}},"conditions":["nonSeqFull","nonSeqPartial","seqNoFeedback","seqFeedback"],"classroomPairings":[["A","B"],["C","D"]],"coinWeights":[0.2,0.5,0.8],"subjectId":"A1DUPOUC9RNU4L","assignmentId":"3VZLGYJEYMWGD2TC5L6H45F7GFNXZQ","hitId":"34XASH8KLQ89J2U8D314D7180O4PMV","url":"https://gershmanlab.com/experiments/alicia/teaching/experiment/?hitId=34XASH8KLQ89J2U8D314D7180O4PMV&workerId=A1DUPOUC9RNU4L&assignmentId=3VZLGYJEYMWGD2TC5L6H45F7GFNXZQ&a=EGZV7&tp_a=EGZV7&b=3VZLGYJEYMWGD2TC5L6H45F7GFNXZQ&tp_b=3VZLGYJEYMWGD2TC5L6H45F7GFNXZQ&c=365717&tp_c=365717"},{"rt":2570,"stimulus":"\n                <p>Student 8's first guess for coin weight: <b style=\"color:Tomato\";>0.64</b></p>\n                <p>Student 8's second guess for coin weight: <b style=\"color:Tomato\";>0.59</b></p>\n                <p>You received a bonus of <b>$0.00</b> based on the student's second guess.</p>\n                <p>Total bonus so far: <b>$1.28</b></p>\n                <p>Press any key to continue.</p>\n                ","response":" ","trial_type":"html-keyboard-response","trial_index":71,"time_elapsed":707092,"internal_node_id":"0.0-70.0","params":{"nStudents":24,"maxFlips":30,"completionMinutes":45,"basePay":8,"maxBonus":9,"perTrialBonus":0.5,"perTrialBonusThreshold":0.05,"exampleCost":0.01},"classroomParams":{"A":{"a":1,"b":4},"B":{"a":4,"b":1},"C":{"a":2,"b":8},"D":{"a":8,"b":2}},"conditions":["nonSeqFull","nonSeqPartial","seqNoFeedback","seqFeedback"],"classroomPairings":[["A","B"],["C","D"]],"coinWeights":[0.2,0.5,0.8],"subjectId":"A1DUPOUC9RNU4L","assignmentId":"3VZLGYJEYMWGD2TC5L6H45F7GFNXZQ","hitId":"34XASH8KLQ89J2U8D314D7180O4PMV","url":"https://gershmanlab.com/experiments/alicia/teaching/experiment/?hitId=34XASH8KLQ89J2U8D314D7180O4PMV&workerId=A1DUPOUC9RNU4L&assignmentId=3VZLGYJEYMWGD2TC5L6H45F7GFNXZQ&a=EGZV7&tp_a=EGZV7&b=3VZLGYJEYMWGD2TC5L6H45F7GFNXZQ&tp_b=3VZLGYJEYMWGD2TC5L6H45F7GFNXZQ&c=365717&tp_c=365717"},{"rt":null,"stimulus":"<div style=\"font-size:60px;\">Next student</div>","response":null,"trial_type":"html-keyboard-response","trial_index":72,"time_elapsed":709094,"internal_node_id":"0.0-71.0-0.0","params":{"nStudents":24,"maxFlips":30,"completionMinutes":45,"basePay":8,"maxBonus":9,"perTrialBonus":0.5,"perTrialBonusThreshold":0.05,"exampleCost":0.01},"classroomParams":{"A":{"a":1,"b":4},"B":{"a":4,"b":1},"C":{"a":2,"b":8},"D":{"a":8,"b":2}},"conditions":["nonSeqFull","nonSeqPartial","seqNoFeedback","seqFeedback"],"classroomPairings":[["A","B"],["C","D"]],"coinWeights":[0.2,0.5,0.8],"subjectId":"A1DUPOUC9RNU4L","assignmentId":"3VZLGYJEYMWGD2TC5L6H45F7GFNXZQ","hitId":"34XASH8KLQ89J2U8D314D7180O4PMV","url":"https://gershmanlab.com/experiments/alicia/teaching/experiment/?hitId=34XASH8KLQ89J2U8D314D7180O4PMV&workerId=A1DUPOUC9RNU4L&assignmentId=3VZLGYJEYMWGD2TC5L6H45F7GFNXZQ&a=EGZV7&tp_a=EGZV7&b=3VZLGYJEYMWGD2TC5L6H45F7GFNXZQ&tp_b=3VZLGYJEYMWGD2TC5L6H45F7GFNXZQ&c=365717&tp_c=365717"},{"rt":1556,"stimulus":"\n            <h4 style=\"color:Orange;\">Student 9</h4>\n            <h2>The weight of your coin is <b style=\"color:Tomato;\">0.5</b>.</h2>\n            <p>In this block, you will be giving <b>one</b> set of examples to Student 9.</p>\n                <p>You will receive feedback at the end of the block.</p>\n            <p></p>","response":0,"trial_type":"html-button-response","trial_index":73,"time_elapsed":710652,"internal_node_id":"0.0-72.0","params":{"nStudents":24,"maxFlips":30,"completionMinutes":45,"basePay":8,"maxBonus":9,"perTrialBonus":0.5,"perTrialBonusThreshold":0.05,"exampleCost":0.01},"classroomParams":{"A":{"a":1,"b":4},"B":{"a":4,"b":1},"C":{"a":2,"b":8},"D":{"a":8,"b":2}},"conditions":["nonSeqFull","nonSeqPartial","seqNoFeedback","seqFeedback"],"classroomPairings":[["A","B"],["C","D"]],"coinWeights":[0.2,0.5,0.8],"subjectId":"A1DUPOUC9RNU4L","assignmentId":"3VZLGYJEYMWGD2TC5L6H45F7GFNXZQ","hitId":"34XASH8KLQ89J2U8D314D7180O4PMV","url":"https://gershmanlab.com/experiments/alicia/teaching/experiment/?hitId=34XASH8KLQ89J2U8D314D7180O4PMV&workerId=A1DUPOUC9RNU4L&assignmentId=3VZLGYJEYMWGD2TC5L6H45F7GFNXZQ&a=EGZV7&tp_a=EGZV7&b=3VZLGYJEYMWGD2TC5L6H45F7GFNXZQ&tp_b=3VZLGYJEYMWGD2TC5L6H45F7GFNXZQ&c=365717&tp_c=365717"},{"rt":23111,"response":{"heads":"3","tails":"0"},"type":"response","condition":"nonSeqFull","trueTheta":0.5,"classrooms":["A","B"],"studentTrueClassroom":"A","exampleSet":"first","trial_type":"survey-html-form","trial_index":74,"time_elapsed":733763,"internal_node_id":"0.0-73.0-0.0","params":{"nStudents":24,"maxFlips":30,"completionMinutes":45,"basePay":8,"maxBonus":9,"perTrialBonus":0.5,"perTrialBonusThreshold":0.05,"exampleCost":0.01},"classroomParams":{"A":{"a":1,"b":4},"B":{"a":4,"b":1},"C":{"a":2,"b":8},"D":{"a":8,"b":2}},"conditions":["nonSeqFull","nonSeqPartial","seqNoFeedback","seqFeedback"],"classroomPairings":[["A","B"],["C","D"]],"coinWeights":[0.2,0.5,0.8],"subjectId":"A1DUPOUC9RNU4L","assignmentId":"3VZLGYJEYMWGD2TC5L6H45F7GFNXZQ","hitId":"34XASH8KLQ89J2U8D314D7180O4PMV","url":"https://gershmanlab.com/experiments/alicia/teaching/experiment/?hitId=34XASH8KLQ89J2U8D314D7180O4PMV&workerId=A1DUPOUC9RNU4L&assignmentId=3VZLGYJEYMWGD2TC5L6H45F7GFNXZQ&a=EGZV7&tp_a=EGZV7&b=3VZLGYJEYMWGD2TC5L6H45F7GFNXZQ&tp_b=3VZLGYJEYMWGD2TC5L6H45F7GFNXZQ&c=365717&tp_c=365717","heads":3,"tails":0,"studentIndex":8,"studentTrueHypers":{"a":1,"b":4},"studentGuess":0.5,"delta":0,"totalExamples":3,"bonus":0.47,"bonusSoFar":1.75},{"rt":null,"stimulus":"Sending examples to student... ","response":null,"trial_type":"html-keyboard-response","trial_index":75,"time_elapsed":735778,"internal_node_id":"0.0-74.0","params":{"nStudents":24,"maxFlips":30,"completionMinutes":45,"basePay":8,"maxBonus":9,"perTrialBonus":0.5,"perTrialBonusThreshold":0.05,"exampleCost":0.01},"classroomParams":{"A":{"a":1,"b":4},"B":{"a":4,"b":1},"C":{"a":2,"b":8},"D":{"a":8,"b":2}},"conditions":["nonSeqFull","nonSeqPartial","seqNoFeedback","seqFeedback"],"classroomPairings":[["A","B"],["C","D"]],"coinWeights":[0.2,0.5,0.8],"subjectId":"A1DUPOUC9RNU4L","assignmentId":"3VZLGYJEYMWGD2TC5L6H45F7GFNXZQ","hitId":"34XASH8KLQ89J2U8D314D7180O4PMV","url":"https://gershmanlab.com/experiments/alicia/teaching/experiment/?hitId=34XASH8KLQ89J2U8D314D7180O4PMV&workerId=A1DUPOUC9RNU4L&assignmentId=3VZLGYJEYMWGD2TC5L6H45F7GFNXZQ&a=EGZV7&tp_a=EGZV7&b=3VZLGYJEYMWGD2TC5L6H45F7GFNXZQ&tp_b=3VZLGYJEYMWGD2TC5L6H45F7GFNXZQ&c=365717&tp_c=365717"},{"rt":null,"stimulus":"Examples sent to student! Waiting for student...","response":null,"trial_type":"html-keyboard-response","trial_index":76,"time_elapsed":741780,"internal_node_id":"0.0-75.0","params":{"nStudents":24,"maxFlips":30,"completionMinutes":45,"basePay":8,"maxBonus":9,"perTrialBonus":0.5,"perTrialBonusThreshold":0.05,"exampleCost":0.01},"classroomParams":{"A":{"a":1,"b":4},"B":{"a":4,"b":1},"C":{"a":2,"b":8},"D":{"a":8,"b":2}},"conditions":["nonSeqFull","nonSeqPartial","seqNoFeedback","seqFeedback"],"classroomPairings":[["A","B"],["C","D"]],"coinWeights":[0.2,0.5,0.8],"subjectId":"A1DUPOUC9RNU4L","assignmentId":"3VZLGYJEYMWGD2TC5L6H45F7GFNXZQ","hitId":"34XASH8KLQ89J2U8D314D7180O4PMV","url":"https://gershmanlab.com/experiments/alicia/teaching/experiment/?hitId=34XASH8KLQ89J2U8D314D7180O4PMV&workerId=A1DUPOUC9RNU4L&assignmentId=3VZLGYJEYMWGD2TC5L6H45F7GFNXZQ&a=EGZV7&tp_a=EGZV7&b=3VZLGYJEYMWGD2TC5L6H45F7GFNXZQ&tp_b=3VZLGYJEYMWGD2TC5L6H45F7GFNXZQ&c=365717&tp_c=365717"},{"rt":3311,"stimulus":"\n                <p>Student's guess for coin weight: <b style=\"color:Tomato;\">0.50</b></p>\n                <p>You received a bonus of <b>$0.47</b>. Total bonus so far: <b>$1.75</b></b></p>\n                <p></p>\n                <p>Press any key to continue.</p>\n                ","response":" ","trial_type":"html-keyboard-response","trial_index":77,"time_elapsed":745093,"internal_node_id":"0.0-76.0","params":{"nStudents":24,"maxFlips":30,"completionMinutes":45,"basePay":8,"maxBonus":9,"perTrialBonus":0.5,"perTrialBonusThreshold":0.05,"exampleCost":0.01},"classroomParams":{"A":{"a":1,"b":4},"B":{"a":4,"b":1},"C":{"a":2,"b":8},"D":{"a":8,"b":2}},"conditions":["nonSeqFull","nonSeqPartial","seqNoFeedback","seqFeedback"],"classroomPairings":[["A","B"],["C","D"]],"coinWeights":[0.2,0.5,0.8],"subjectId":"A1DUPOUC9RNU4L","assignmentId":"3VZLGYJEYMWGD2TC5L6H45F7GFNXZQ","hitId":"34XASH8KLQ89J2U8D314D7180O4PMV","url":"https://gershmanlab.com/experiments/alicia/teaching/experiment/?hitId=34XASH8KLQ89J2U8D314D7180O4PMV&workerId=A1DUPOUC9RNU4L&assignmentId=3VZLGYJEYMWGD2TC5L6H45F7GFNXZQ&a=EGZV7&tp_a=EGZV7&b=3VZLGYJEYMWGD2TC5L6H45F7GFNXZQ&tp_b=3VZLGYJEYMWGD2TC5L6H45F7GFNXZQ&c=365717&tp_c=365717"},{"rt":null,"stimulus":"<div style=\"font-size:60px;\">Next student</div>","response":null,"trial_type":"html-keyboard-response","trial_index":78,"time_elapsed":747098,"internal_node_id":"0.0-77.0-0.0","params":{"nStudents":24,"maxFlips":30,"completionMinutes":45,"basePay":8,"maxBonus":9,"perTrialBonus":0.5,"perTrialBonusThreshold":0.05,"exampleCost":0.01},"classroomParams":{"A":{"a":1,"b":4},"B":{"a":4,"b":1},"C":{"a":2,"b":8},"D":{"a":8,"b":2}},"conditions":["nonSeqFull","nonSeqPartial","seqNoFeedback","seqFeedback"],"classroomPairings":[["A","B"],["C","D"]],"coinWeights":[0.2,0.5,0.8],"subjectId":"A1DUPOUC9RNU4L","assignmentId":"3VZLGYJEYMWGD2TC5L6H45F7GFNXZQ","hitId":"34XASH8KLQ89J2U8D314D7180O4PMV","url":"https://gershmanlab.com/experiments/alicia/teaching/experiment/?hitId=34XASH8KLQ89J2U8D314D7180O4PMV&workerId=A1DUPOUC9RNU4L&assignmentId=3VZLGYJEYMWGD2TC5L6H45F7GFNXZQ&a=EGZV7&tp_a=EGZV7&b=3VZLGYJEYMWGD2TC5L6H45F7GFNXZQ&tp_b=3VZLGYJEYMWGD2TC5L6H45F7GFNXZQ&c=365717&tp_c=365717"},{"rt":1344,"stimulus":"\n            <h4 style=\"color:Orange;\">Student 10</h4>\n            <h2>The weight of your coin is <b style=\"color:Tomato;\">0.5</b>.</h2>\n            <p>In this block, you will be giving <b>one</b> set of examples to Student 10.</p>\n                <p>You will receive feedback at the end of the block.</p>\n            <p></p>","response":0,"trial_type":"html-button-response","trial_index":79,"time_elapsed":748443,"internal_node_id":"0.0-78.0","params":{"nStudents":24,"maxFlips":30,"completionMinutes":45,"basePay":8,"maxBonus":9,"perTrialBonus":0.5,"perTrialBonusThreshold":0.05,"exampleCost":0.01},"classroomParams":{"A":{"a":1,"b":4},"B":{"a":4,"b":1},"C":{"a":2,"b":8},"D":{"a":8,"b":2}},"conditions":["nonSeqFull","nonSeqPartial","seqNoFeedback","seqFeedback"],"classroomPairings":[["A","B"],["C","D"]],"coinWeights":[0.2,0.5,0.8],"subjectId":"A1DUPOUC9RNU4L","assignmentId":"3VZLGYJEYMWGD2TC5L6H45F7GFNXZQ","hitId":"34XASH8KLQ89J2U8D314D7180O4PMV","url":"https://gershmanlab.com/experiments/alicia/teaching/experiment/?hitId=34XASH8KLQ89J2U8D314D7180O4PMV&workerId=A1DUPOUC9RNU4L&assignmentId=3VZLGYJEYMWGD2TC5L6H45F7GFNXZQ&a=EGZV7&tp_a=EGZV7&b=3VZLGYJEYMWGD2TC5L6H45F7GFNXZQ&tp_b=3VZLGYJEYMWGD2TC5L6H45F7GFNXZQ&c=365717&tp_c=365717"},{"rt":27819,"response":{"heads":"3","tails":"0"},"type":"response","condition":"nonSeqPartial","trueTheta":0.5,"classrooms":["A","B"],"studentTrueClassroom":"A","exampleSet":"first","trial_type":"survey-html-form","trial_index":80,"time_elapsed":776263,"internal_node_id":"0.0-79.0-0.0","params":{"nStudents":24,"maxFlips":30,"completionMinutes":45,"basePay":8,"maxBonus":9,"perTrialBonus":0.5,"perTrialBonusThreshold":0.05,"exampleCost":0.01},"classroomParams":{"A":{"a":1,"b":4},"B":{"a":4,"b":1},"C":{"a":2,"b":8},"D":{"a":8,"b":2}},"conditions":["nonSeqFull","nonSeqPartial","seqNoFeedback","seqFeedback"],"classroomPairings":[["A","B"],["C","D"]],"coinWeights":[0.2,0.5,0.8],"subjectId":"A1DUPOUC9RNU4L","assignmentId":"3VZLGYJEYMWGD2TC5L6H45F7GFNXZQ","hitId":"34XASH8KLQ89J2U8D314D7180O4PMV","url":"https://gershmanlab.com/experiments/alicia/teaching/experiment/?hitId=34XASH8KLQ89J2U8D314D7180O4PMV&workerId=A1DUPOUC9RNU4L&assignmentId=3VZLGYJEYMWGD2TC5L6H45F7GFNXZQ&a=EGZV7&tp_a=EGZV7&b=3VZLGYJEYMWGD2TC5L6H45F7GFNXZQ&tp_b=3VZLGYJEYMWGD2TC5L6H45F7GFNXZQ&c=365717&tp_c=365717","heads":3,"tails":0,"studentIndex":9,"studentTrueHypers":{"a":1,"b":4},"studentGuess":0.5,"delta":0,"totalExamples":3,"bonus":0.47,"bonusSoFar":2.22},{"rt":null,"stimulus":"Sending examples to student... ","response":null,"trial_type":"html-keyboard-response","trial_index":81,"time_elapsed":778266,"internal_node_id":"0.0-80.0","params":{"nStudents":24,"maxFlips":30,"completionMinutes":45,"basePay":8,"maxBonus":9,"perTrialBonus":0.5,"perTrialBonusThreshold":0.05,"exampleCost":0.01},"classroomParams":{"A":{"a":1,"b":4},"B":{"a":4,"b":1},"C":{"a":2,"b":8},"D":{"a":8,"b":2}},"conditions":["nonSeqFull","nonSeqPartial","seqNoFeedback","seqFeedback"],"classroomPairings":[["A","B"],["C","D"]],"coinWeights":[0.2,0.5,0.8],"subjectId":"A1DUPOUC9RNU4L","assignmentId":"3VZLGYJEYMWGD2TC5L6H45F7GFNXZQ","hitId":"34XASH8KLQ89J2U8D314D7180O4PMV","url":"https://gershmanlab.com/experiments/alicia/teaching/experiment/?hitId=34XASH8KLQ89J2U8D314D7180O4PMV&workerId=A1DUPOUC9RNU4L&assignmentId=3VZLGYJEYMWGD2TC5L6H45F7GFNXZQ&a=EGZV7&tp_a=EGZV7&b=3VZLGYJEYMWGD2TC5L6H45F7GFNXZQ&tp_b=3VZLGYJEYMWGD2TC5L6H45F7GFNXZQ&c=365717&tp_c=365717"},{"rt":null,"stimulus":"Examples sent to student! Waiting for student...","response":null,"trial_type":"html-keyboard-response","trial_index":82,"time_elapsed":784277,"internal_node_id":"0.0-81.0","params":{"nStudents":24,"maxFlips":30,"completionMinutes":45,"basePay":8,"maxBonus":9,"perTrialBonus":0.5,"perTrialBonusThreshold":0.05,"exampleCost":0.01},"classroomParams":{"A":{"a":1,"b":4},"B":{"a":4,"b":1},"C":{"a":2,"b":8},"D":{"a":8,"b":2}},"conditions":["nonSeqFull","nonSeqPartial","seqNoFeedback","seqFeedback"],"classroomPairings":[["A","B"],["C","D"]],"coinWeights":[0.2,0.5,0.8],"subjectId":"A1DUPOUC9RNU4L","assignmentId":"3VZLGYJEYMWGD2TC5L6H45F7GFNXZQ","hitId":"34XASH8KLQ89J2U8D314D7180O4PMV","url":"https://gershmanlab.com/experiments/alicia/teaching/experiment/?hitId=34XASH8KLQ89J2U8D314D7180O4PMV&workerId=A1DUPOUC9RNU4L&assignmentId=3VZLGYJEYMWGD2TC5L6H45F7GFNXZQ&a=EGZV7&tp_a=EGZV7&b=3VZLGYJEYMWGD2TC5L6H45F7GFNXZQ&tp_b=3VZLGYJEYMWGD2TC5L6H45F7GFNXZQ&c=365717&tp_c=365717"},{"rt":3343,"stimulus":"\n                <p>Student's guess for coin weight: <b style=\"color:Tomato;\">0.50</b></p>\n                <p>You received a bonus of <b>$0.47</b>. Total bonus so far: <b>$2.22</b></b></p>\n                <p></p>\n                <p>Press any key to continue.</p>\n                ","response":" ","trial_type":"html-keyboard-response","trial_index":83,"time_elapsed":787620,"internal_node_id":"0.0-82.0","params":{"nStudents":24,"maxFlips":30,"completionMinutes":45,"basePay":8,"maxBonus":9,"perTrialBonus":0.5,"perTrialBonusThreshold":0.05,"exampleCost":0.01},"classroomParams":{"A":{"a":1,"b":4},"B":{"a":4,"b":1},"C":{"a":2,"b":8},"D":{"a":8,"b":2}},"conditions":["nonSeqFull","nonSeqPartial","seqNoFeedback","seqFeedback"],"classroomPairings":[["A","B"],["C","D"]],"coinWeights":[0.2,0.5,0.8],"subjectId":"A1DUPOUC9RNU4L","assignmentId":"3VZLGYJEYMWGD2TC5L6H45F7GFNXZQ","hitId":"34XASH8KLQ89J2U8D314D7180O4PMV","url":"https://gershmanlab.com/experiments/alicia/teaching/experiment/?hitId=34XASH8KLQ89J2U8D314D7180O4PMV&workerId=A1DUPOUC9RNU4L&assignmentId=3VZLGYJEYMWGD2TC5L6H45F7GFNXZQ&a=EGZV7&tp_a=EGZV7&b=3VZLGYJEYMWGD2TC5L6H45F7GFNXZQ&tp_b=3VZLGYJEYMWGD2TC5L6H45F7GFNXZQ&c=365717&tp_c=365717"},{"rt":null,"stimulus":"<div style=\"font-size:60px;\">Next student</div>","response":null,"trial_type":"html-keyboard-response","trial_index":84,"time_elapsed":790127,"internal_node_id":"0.0-83.0-0.0","params":{"nStudents":24,"maxFlips":30,"completionMinutes":45,"basePay":8,"maxBonus":9,"perTrialBonus":0.5,"perTrialBonusThreshold":0.05,"exampleCost":0.01},"classroomParams":{"A":{"a":1,"b":4},"B":{"a":4,"b":1},"C":{"a":2,"b":8},"D":{"a":8,"b":2}},"conditions":["nonSeqFull","nonSeqPartial","seqNoFeedback","seqFeedback"],"classroomPairings":[["A","B"],["C","D"]],"coinWeights":[0.2,0.5,0.8],"subjectId":"A1DUPOUC9RNU4L","assignmentId":"3VZLGYJEYMWGD2TC5L6H45F7GFNXZQ","hitId":"34XASH8KLQ89J2U8D314D7180O4PMV","url":"https://gershmanlab.com/experiments/alicia/teaching/experiment/?hitId=34XASH8KLQ89J2U8D314D7180O4PMV&workerId=A1DUPOUC9RNU4L&assignmentId=3VZLGYJEYMWGD2TC5L6H45F7GFNXZQ&a=EGZV7&tp_a=EGZV7&b=3VZLGYJEYMWGD2TC5L6H45F7GFNXZQ&tp_b=3VZLGYJEYMWGD2TC5L6H45F7GFNXZQ&c=365717&tp_c=365717"},{"rt":1844,"stimulus":"\n            <h4 style=\"color:Orange;\">Student 11</h4>\n            <h2>The weight of your coin is <b style=\"color:Tomato;\">0.8</b>.</h2>\n            <p>In this block, you will be giving <b>one</b> set of examples to Student 11.</p>\n                <p>You will receive 