[{"rt":14941,"stimulus":"Welcome to the experiment. Press any key to begin.","response":" ","trial_type":"html-keyboard-response","trial_index":0,"time_elapsed":14945,"internal_node_id":"0.0-0.0","params":{"nStudents":24,"maxFlips":30,"completionMinutes":45,"basePay":8,"maxBonus":9,"perTrialBonus":0.5,"perTrialBonusThreshold":0.05,"exampleCost":0.01},"classroomParams":{"A":{"a":1,"b":4},"B":{"a":4,"b":1},"C":{"a":2,"b":8},"D":{"a":8,"b":2}},"conditions":["nonSeqFull","nonSeqPartial","seqNoFeedback","seqFeedback"],"classroomPairings":[["A","B"],["C","D"]],"coinWeights":[0.2,0.5,0.8],"subjectId":"A1F1BIPJR11LSR","assignmentId":"31QNSG6A5SF7ERMYEI26XM5FFEN78O","hitId":"3UDTAB6HH6LRO17U79I9TKUGSHV90J","url":"https://gershmanlab.com/experiments/alicia/teaching/experiment/?hitId=3UDTAB6HH6LRO17U79I9TKUGSHV90J&workerId=A1F1BIPJR11LSR&assignmentId=31QNSG6A5SF7ERMYEI26XM5FFEN78O&a=ASQ19&tp_a=ASQ19&b=31QNSG6A5SF7ERMYEI26XM5FFEN78O&tp_b=31QNSG6A5SF7ERMYEI26XM5FFEN78O&c=365799&tp_c=365799"},{"rt":2832,"stimulus":"\n        <h3>Please read this consent agreement carefully before deciding whether to participate in this experiment.</h3>\n        <p><b>Purpose of the research:</b> To examine how people teach effectively.</p>\n        <p><b>What you will do in this research:</b> You will teach students the weights of different coins.</p>\n        <p><b>Time required:</b> This experiment will take 45 minutes to complete.</p>\n        <p><b>Risks:</b> There are no anticipated risks associated with participating in this study.             The effects of participating should be comparable to those you would experience from viewing a computer monitor             and using a mouse and keyboard for the duration of the experiment.</p>\n        <p><b>Benefits:</b> The study provides important information about the nature of teaching.</p>\n        <p><b>Compensation:</b> You will receive <b>$8</b> for completing the experiment and a performance bonus of up to <b>$9</b>.</p>\n        <p><b>Confidentiality:</b> Your participation in this study will remain confidential.             No personally identifiable information will be associated with your data.             Your de-identified data may be shared with other researchers and used in future projects.</p>\n        <p><b>Participation and withdrawal:</b> Your participation in this study is completely voluntary and             you may refuse to participate or you may choose to withdraw at any time without penalty or loss of\n            benefits to which you are otherwise entitled.</p>\n        <p><b>How to contact the researcher:</b> If you have questions or concerns about your participation            or payment, or want to request a summary of research findings, please contact\n            Alicia Chen, aliciachen@college.harvard.edu.</p>\n        <p><b>Whom to contact about your rights in this research:</b> For questions, concerns, suggestions,             or complaints that have not been or cannot be addressed by the researcher, or to report             research-related harm, please contact the Committee on the Use of Human Subjects in Research at Harvard University,             1414 Massachusetts Avenue, Second Floor, Cambridge, MA 02138. Phone: 617-496-2847. Email: cuhs@fas.harvard.edu.</p>\n        ","response":0,"trial_type":"html-button-response","trial_index":1,"time_elapsed":17780,"internal_node_id":"0.0-1.0","params":{"nStudents":24,"maxFlips":30,"completionMinutes":45,"basePay":8,"maxBonus":9,"perTrialBonus":0.5,"perTrialBonusThreshold":0.05,"exampleCost":0.01},"classroomParams":{"A":{"a":1,"b":4},"B":{"a":4,"b":1},"C":{"a":2,"b":8},"D":{"a":8,"b":2}},"conditions":["nonSeqFull","nonSeqPartial","seqNoFeedback","seqFeedback"],"classroomPairings":[["A","B"],["C","D"]],"coinWeights":[0.2,0.5,0.8],"subjectId":"A1F1BIPJR11LSR","assignmentId":"31QNSG6A5SF7ERMYEI26XM5FFEN78O","hitId":"3UDTAB6HH6LRO17U79I9TKUGSHV90J","url":"https://gershmanlab.com/experiments/alicia/teaching/experiment/?hitId=3UDTAB6HH6LRO17U79I9TKUGSHV90J&workerId=A1F1BIPJR11LSR&assignmentId=31QNSG6A5SF7ERMYEI26XM5FFEN78O&a=ASQ19&tp_a=ASQ19&b=31QNSG6A5SF7ERMYEI26XM5FFEN78O&tp_b=31QNSG6A5SF7ERMYEI26XM5FFEN78O&c=365799&tp_c=365799"},{"view_history":[{"page_index":0,"viewing_time":2678},{"page_index":1,"viewing_time":1812},{"page_index":2,"viewing_time":123313},{"page_index":3,"viewing_time":52320},{"page_index":4,"viewing_time":2129},{"page_index":3,"viewing_time":28361},{"page_index":4,"viewing_time":9250},{"page_index":5,"viewing_time":35127},{"page_index":6,"viewing_time":28278}],"rt":283268,"trial_type":"instructions","trial_index":2,"time_elapsed":301050,"internal_node_id":"0.0-2.0-0.0","params":{"nStudents":24,"maxFlips":30,"completionMinutes":45,"basePay":8,"maxBonus":9,"perTrialBonus":0.5,"perTrialBonusThreshold":0.05,"exampleCost":0.01},"classroomParams":{"A":{"a":1,"b":4},"B":{"a":4,"b":1},"C":{"a":2,"b":8},"D":{"a":8,"b":2}},"conditions":["nonSeqFull","nonSeqPartial","seqNoFeedback","seqFeedback"],"classroomPairings":[["A","B"],["C","D"]],"coinWeights":[0.2,0.5,0.8],"subjectId":"A1F1BIPJR11LSR","assignmentId":"31QNSG6A5SF7ERMYEI26XM5FFEN78O","hitId":"3UDTAB6HH6LRO17U79I9TKUGSHV90J","url":"https://gershmanlab.com/experiments/alicia/teaching/experiment/?hitId=3UDTAB6HH6LRO17U79I9TKUGSHV90J&workerId=A1F1BIPJR11LSR&assignmentId=31QNSG6A5SF7ERMYEI26XM5FFEN78O&a=ASQ19&tp_a=ASQ19&b=31QNSG6A5SF7ERMYEI26XM5FFEN78O&tp_b=31QNSG6A5SF7ERMYEI26XM5FFEN78O&c=365799&tp_c=365799"},{"rt":43751,"response":{"Q0":"Students in different classrooms have seen a different proportion of fair and unfair coins before seeing the examples you select for them.","Q1":"By <b>considering the student's classroom information</b> so that I can teach efficiently and accurately/helpfully at the same time (because each example I give to the student costs money!).","Q2":"The coin lands heads 90% of the time.","Q3":"Yes, I might encounter the same student twice.","Q4":"The students are also on the same alien planet as you, where coins can be unfair.","Q5":"Based on the student's second (and final) guess."},"question_order":[4,1,2,0,5,3],"trial_type":"survey-multi-choice","trial_index":3,"time_elapsed":344805,"internal_node_id":"0.0-2.0-1.0","params":{"nStudents":24,"maxFlips":30,"completionMinutes":45,"basePay":8,"maxBonus":9,"perTrialBonus":0.5,"perTrialBonusThreshold":0.05,"exampleCost":0.01},"classroomParams":{"A":{"a":1,"b":4},"B":{"a":4,"b":1},"C":{"a":2,"b":8},"D":{"a":8,"b":2}},"conditions":["nonSeqFull","nonSeqPartial","seqNoFeedback","seqFeedback"],"classroomPairings":[["A","B"],["C","D"]],"coinWeights":[0.2,0.5,0.8],"subjectId":"A1F1BIPJR11LSR","assignmentId":"31QNSG6A5SF7ERMYEI26XM5FFEN78O","hitId":"3UDTAB6HH6LRO17U79I9TKUGSHV90J","url":"https://gershmanlab.com/experiments/alicia/teaching/experiment/?hitId=3UDTAB6HH6LRO17U79I9TKUGSHV90J&workerId=A1F1BIPJR11LSR&assignmentId=31QNSG6A5SF7ERMYEI26XM5FFEN78O&a=ASQ19&tp_a=ASQ19&b=31QNSG6A5SF7ERMYEI26XM5FFEN78O&tp_b=31QNSG6A5SF7ERMYEI26XM5FFEN78O&c=365799&tp_c=365799","pass":false},{"rt":2154,"stimulus":"Oops, you have missed question(s) on the comprehension check! We'll show you the instructions again.","response":0,"trial_type":"html-button-response","trial_index":4,"time_elapsed":346962,"internal_node_id":"0.0-2.0-2.0-0.0","params":{"nStudents":24,"maxFlips":30,"completionMinutes":45,"basePay":8,"maxBonus":9,"perTrialBonus":0.5,"perTrialBonusThreshold":0.05,"exampleCost":0.01},"classroomParams":{"A":{"a":1,"b":4},"B":{"a":4,"b":1},"C":{"a":2,"b":8},"D":{"a":8,"b":2}},"conditions":["nonSeqFull","nonSeqPartial","seqNoFeedback","seqFeedback"],"classroomPairings":[["A","B"],["C","D"]],"coinWeights":[0.2,0.5,0.8],"subjectId":"A1F1BIPJR11LSR","assignmentId":"31QNSG6A5SF7ERMYEI26XM5FFEN78O","hitId":"3UDTAB6HH6LRO17U79I9TKUGSHV90J","url":"https://gershmanlab.com/experiments/alicia/teaching/experiment/?hitId=3UDTAB6HH6LRO17U79I9TKUGSHV90J&workerId=A1F1BIPJR11LSR&assignmentId=31QNSG6A5SF7ERMYEI26XM5FFEN78O&a=ASQ19&tp_a=ASQ19&b=31QNSG6A5SF7ERMYEI26XM5FFEN78O&tp_b=31QNSG6A5SF7ERMYEI26XM5FFEN78O&c=365799&tp_c=365799"},{"view_history":[{"page_index":0,"viewing_time":1409},{"page_index":1,"viewing_time":1331},{"page_index":2,"viewing_time":9359},{"page_index":3,"viewing_time":5341},{"page_index":4,"viewing_time":5304},{"page_index":5,"viewing_time":14645},{"page_index":6,"viewing_time":18850}],"rt":56239,"trial_type":"instructions","trial_index":5,"time_elapsed":403202,"internal_node_id":"0.0-2.1-0.1","params":{"nStudents":24,"maxFlips":30,"completionMinutes":45,"basePay":8,"maxBonus":9,"perTrialBonus":0.5,"perTrialBonusThreshold":0.05,"exampleCost":0.01},"classroomParams":{"A":{"a":1,"b":4},"B":{"a":4,"b":1},"C":{"a":2,"b":8},"D":{"a":8,"b":2}},"conditions":["nonSeqFull","nonSeqPartial","seqNoFeedback","seqFeedback"],"classroomPairings":[["A","B"],["C","D"]],"coinWeights":[0.2,0.5,0.8],"subjectId":"A1F1BIPJR11LSR","assignmentId":"31QNSG6A5SF7ERMYEI26XM5FFEN78O","hitId":"3UDTAB6HH6LRO17U79I9TKUGSHV90J","url":"https://gershmanlab.com/experiments/alicia/teaching/experiment/?hitId=3UDTAB6HH6LRO17U79I9TKUGSHV90J&workerId=A1F1BIPJR11LSR&assignmentId=31QNSG6A5SF7ERMYEI26XM5FFEN78O&a=ASQ19&tp_a=ASQ19&b=31QNSG6A5SF7ERMYEI26XM5FFEN78O&tp_b=31QNSG6A5SF7ERMYEI26XM5FFEN78O&c=365799&tp_c=365799"},{"rt":35964,"response":{"Q0":"Students in different classrooms will have seen a different number of heads and tails before seeing the examples you select for them.","Q1":"By <b>considering the student's classroom information</b> so that I can teach efficiently and accurately/helpfully at the same time (because each example I give to the student costs money!).","Q2":"The coin lands heads 90% of the time.","Q3":"Yes, I might encounter the same student twice.","Q4":"The students are also on the same alien planet as you, where coins can be unfair.","Q5":"Based on the student's second (and final) guess."},"question_order":[5,2,3,0,4,1],"trial_type":"survey-multi-choice","trial_index":6,"time_elapsed":439170,"internal_node_id":"0.0-2.1-1.1","params":{"nStudents":24,"maxFlips":30,"completionMinutes":45,"basePay":8,"maxBonus":9,"perTrialBonus":0.5,"perTrialBonusThreshold":0.05,"exampleCost":0.01},"classroomParams":{"A":{"a":1,"b":4},"B":{"a":4,"b":1},"C":{"a":2,"b":8},"D":{"a":8,"b":2}},"conditions":["nonSeqFull","nonSeqPartial","seqNoFeedback","seqFeedback"],"classroomPairings":[["A","B"],["C","D"]],"coinWeights":[0.2,0.5,0.8],"subjectId":"A1F1BIPJR11LSR","assignmentId":"31QNSG6A5SF7ERMYEI26XM5FFEN78O","hitId":"3UDTAB6HH6LRO17U79I9TKUGSHV90J","url":"https://gershmanlab.com/experiments/alicia/teaching/experiment/?hitId=3UDTAB6HH6LRO17U79I9TKUGSHV90J&workerId=A1F1BIPJR11LSR&assignmentId=31QNSG6A5SF7ERMYEI26XM5FFEN78O&a=ASQ19&tp_a=ASQ19&b=31QNSG6A5SF7ERMYEI26XM5FFEN78O&tp_b=31QNSG6A5SF7ERMYEI26XM5FFEN78O&c=365799&tp_c=365799","pass":false},{"rt":1270,"stimulus":"Oops, you have missed question(s) on the comprehension check! We'll show you the instructions again.","response":0,"trial_type":"html-button-response","trial_index":7,"time_elapsed":440440,"internal_node_id":"0.0-2.1-2.1-0.1","params":{"nStudents":24,"maxFlips":30,"completionMinutes":45,"basePay":8,"maxBonus":9,"perTrialBonus":0.5,"perTrialBonusThreshold":0.05,"exampleCost":0.01},"classroomParams":{"A":{"a":1,"b":4},"B":{"a":4,"b":1},"C":{"a":2,"b":8},"D":{"a":8,"b":2}},"conditions":["nonSeqFull","nonSeqPartial","seqNoFeedback","seqFeedback"],"classroomPairings":[["A","B"],["C","D"]],"coinWeights":[0.2,0.5,0.8],"subjectId":"A1F1BIPJR11LSR","assignmentId":"31QNSG6A5SF7ERMYEI26XM5FFEN78O","hitId":"3UDTAB6HH6LRO17U79I9TKUGSHV90J","url":"https://gershmanlab.com/experiments/alicia/teaching/experiment/?hitId=3UDTAB6HH6LRO17U79I9TKUGSHV90J&workerId=A1F1BIPJR11LSR&assignmentId=31QNSG6A5SF7ERMYEI26XM5FFEN78O&a=ASQ19&tp_a=ASQ19&b=31QNSG6A5SF7ERMYEI26XM5FFEN78O&tp_b=31QNSG6A5SF7ERMYEI26XM5FFEN78O&c=365799&tp_c=365799"},{"view_history":[{"page_index":0,"viewing_time":1558},{"page_index":1,"viewing_time":1662},{"page_index":2,"viewing_time":3870},{"page_index":3,"viewing_time":4084},{"page_index":4,"viewing_time":3268},{"page_index":5,"viewing_time":10502},{"page_index":6,"viewing_time":6590}],"rt":31534,"trial_type":"instructions","trial_index":8,"time_elapsed":471976,"internal_node_id":"0.0-2.2-0.2","params":{"nStudents":24,"maxFlips":30,"completionMinutes":45,"basePay":8,"maxBonus":9,"perTrialBonus":0.5,"perTrialBonusThreshold":0.05,"exampleCost":0.01},"classroomParams":{"A":{"a":1,"b":4},"B":{"a":4,"b":1},"C":{"a":2,"b":8},"D":{"a":8,"b":2}},"conditions":["nonSeqFull","nonSeqPartial","seqNoFeedback","seqFeedback"],"classroomPairings":[["A","B"],["C","D"]],"coinWeights":[0.2,0.5,0.8],"subjectId":"A1F1BIPJR11LSR","assignmentId":"31QNSG6A5SF7ERMYEI26XM5FFEN78O","hitId":"3UDTAB6HH6LRO17U79I9TKUGSHV90J","url":"https://gershmanlab.com/experiments/alicia/teaching/experiment/?hitId=3UDTAB6HH6LRO17U79I9TKUGSHV90J&workerId=A1F1BIPJR11LSR&assignmentId=31QNSG6A5SF7ERMYEI26XM5FFEN78O&a=ASQ19&tp_a=ASQ19&b=31QNSG6A5SF7ERMYEI26XM5FFEN78O&tp_b=31QNSG6A5SF7ERMYEI26XM5FFEN78O&c=365799&tp_c=365799"},{"rt":32270,"response":{"Q0":"Students in different classrooms will have seen a different number of heads and tails before seeing the examples you select for them.","Q1":"By <b>considering the student's classroom information</b> so that I can teach efficiently and accurately/helpfully at the same time (because each example I give to the student costs money!).","Q2":"The coin lands heads 90% of the time.","Q3":"Yes, I might encounter the same student twice.","Q4":"The students are all on planet Earth, where they tend to believe the vast majority of coins will be fair.","Q5":"Based on the student's second (and final) guess."},"question_order":[5,1,3,2,4,0],"trial_type":"survey-multi-choice","trial_index":9,"time_elapsed":504248,"internal_node_id":"0.0-2.2-1.2","params":{"nStudents":24,"maxFlips":30,"completionMinutes":45,"basePay":8,"maxBonus":9,"perTrialBonus":0.5,"perTrialBonusThreshold":0.05,"exampleCost":0.01},"classroomParams":{"A":{"a":1,"b":4},"B":{"a":4,"b":1},"C":{"a":2,"b":8},"D":{"a":8,"b":2}},"conditions":["nonSeqFull","nonSeqPartial","seqNoFeedback","seqFeedback"],"classroomPairings":[["A","B"],["C","D"]],"coinWeights":[0.2,0.5,0.8],"subjectId":"A1F1BIPJR11LSR","assignmentId":"31QNSG6A5SF7ERMYEI26XM5FFEN78O","hitId":"3UDTAB6HH6LRO17U79I9TKUGSHV90J","url":"https://gershmanlab.com/experiments/alicia/teaching/experiment/?hitId=3UDTAB6HH6LRO17U79I9TKUGSHV90J&workerId=A1F1BIPJR11LSR&assignmentId=31QNSG6A5SF7ERMYEI26XM5FFEN78O&a=ASQ19&tp_a=ASQ19&b=31QNSG6A5SF7ERMYEI26XM5FFEN78O&tp_b=31QNSG6A5SF7ERMYEI26XM5FFEN78O&c=365799&tp_c=365799","pass":false},{"rt":2416,"stimulus":"Oops, you have missed question(s) on the comprehension check! We'll show you the instructions again.","response":0,"trial_type":"html-button-response","trial_index":10,"time_elapsed":506665,"internal_node_id":"0.0-2.2-2.2-0.2","params":{"nStudents":24,"maxFlips":30,"completionMinutes":45,"basePay":8,"maxBonus":9,"perTrialBonus":0.5,"perTrialBonusThreshold":0.05,"exampleCost":0.01},"classroomParams":{"A":{"a":1,"b":4},"B":{"a":4,"b":1},"C":{"a":2,"b":8},"D":{"a":8,"b":2}},"conditions":["nonSeqFull","nonSeqPartial","seqNoFeedback","seqFeedback"],"classroomPairings":[["A","B"],["C","D"]],"coinWeights":[0.2,0.5,0.8],"subjectId":"A1F1BIPJR11LSR","assignmentId":"31QNSG6A5SF7ERMYEI26XM5FFEN78O","hitId":"3UDTAB6HH6LRO17U79I9TKUGSHV90J","url":"https://gershmanlab.com/experiments/alicia/teaching/experiment/?hitId=3UDTAB6HH6LRO17U79I9TKUGSHV90J&workerId=A1F1BIPJR11LSR&assignmentId=31QNSG6A5SF7ERMYEI26XM5FFEN78O&a=ASQ19&tp_a=ASQ19&b=31QNSG6A5SF7ERMYEI26XM5FFEN78O&tp_b=31QNSG6A5SF7ERMYEI26XM5FFEN78O&c=365799&tp_c=365799"},{"view_history":[{"page_index":0,"viewing_time":779},{"page_index":1,"viewing_time":433},{"page_index":2,"viewing_time":916},{"page_index":3,"viewing_time":245},{"page_index":4,"viewing_time":833},{"page_index":5,"viewing_time":754},{"page_index":6,"viewing_time":1010}],"rt":4970,"trial_type":"instructions","trial_index":11,"time_elapsed":511637,"internal_node_id":"0.0-2.3-0.3","params":{"nStudents":24,"maxFlips":30,"completionMinutes":45,"basePay":8,"maxBonus":9,"perTrialBonus":0.5,"perTrialBonusThreshold":0.05,"exampleCost":0.01},"classroomParams":{"A":{"a":1,"b":4},"B":{"a":4,"b":1},"C":{"a":2,"b":8},"D":{"a":8,"b":2}},"conditions":["nonSeqFull","nonSeqPartial","seqNoFeedback","seqFeedback"],"classroomPairings":[["A","B"],["C","D"]],"coinWeights":[0.2,0.5,0.8],"subjectId":"A1F1BIPJR11LSR","assignmentId":"31QNSG6A5SF7ERMYEI26XM5FFEN78O","hitId":"3UDTAB6HH6LRO17U79I9TKUGSHV90J","url":"https://gershmanlab.com/experiments/alicia/teaching/experiment/?hitId=3UDTAB6HH6LRO17U79I9TKUGSHV90J&workerId=A1F1BIPJR11LSR&assignmentId=31QNSG6A5SF7ERMYEI26XM5FFEN78O&a=ASQ19&tp_a=ASQ19&b=31QNSG6A5SF7ERMYEI26XM5FFEN78O&tp_b=31QNSG6A5SF7ERMYEI26XM5FFEN78O&c=365799&tp_c=365799"},{"rt":54348,"response":{"Q0":"Students in different classrooms have seen a different proportion of fair and unfair coins before seeing the examples you select for them.","Q1":"By <b>considering the student's classroom information</b> so that I can teach efficiently and accurately/helpfully at the same time (because each example I give to the student costs money!).","Q2":"The coin lands heads 90% of the time.","Q3":"Yes, I might encounter the same student twice.","Q4":"The students are also on the same alien planet as you, where coins can be unfair.","Q5":"Based on the student's second (and final) guess."},"question_order":[2,0,3,5,4,1],"trial_type":"survey-multi-choice","trial_index":12,"time_elapsed":565989,"internal_node_id":"0.0-2.3-1.3","params":{"nStudents":24,"maxFlips":30,"completionMinutes":45,"basePay":8,"maxBonus":9,"perTrialBonus":0.5,"perTrialBonusThreshold":0.05,"exampleCost":0.01},"classroomParams":{"A":{"a":1,"b":4},"B":{"a":4,"b":1},"C":{"a":2,"b":8},"D":{"a":8,"b":2}},"conditions":["nonSeqFull","nonSeqPartial","seqNoFeedback","seqFeedback"],"classroomPairings":[["A","B"],["C","D"]],"coinWeights":[0.2,0.5,0.8],"subjectId":"A1F1BIPJR11LSR","assignmentId":"31QNSG6A5SF7ERMYEI26XM5FFEN78O","hitId":"3UDTAB6HH6LRO17U79I9TKUGSHV90J","url":"https://gershmanlab.com/experiments/alicia/teaching/experiment/?hitId=3UDTAB6HH6LRO17U79I9TKUGSHV90J&workerId=A1F1BIPJR11LSR&assignmentId=31QNSG6A5SF7ERMYEI26XM5FFEN78O&a=ASQ19&tp_a=ASQ19&b=31QNSG6A5SF7ERMYEI26XM5FFEN78O&tp_b=31QNSG6A5SF7ERMYEI26XM5FFEN78O&c=365799&tp_c=365799","pass":false},{"rt":32120,"stimulus":"Oops, you have missed question(s) on the comprehension check! We'll show you the instructions again.","response":0,"trial_type":"html-button-response","trial_index":13,"time_elapsed":598110,"internal_node_id":"0.0-2.3-2.3-0.3","params":{"nStudents":24,"maxFlips":30,"completionMinutes":45,"basePay":8,"maxBonus":9,"perTrialBonus":0.5,"perTrialBonusThreshold":0.05,"exampleCost":0.01},"classroomParams":{"A":{"a":1,"b":4},"B":{"a":4,"b":1},"C":{"a":2,"b":8},"D":{"a":8,"b":2}},"conditions":["nonSeqFull","nonSeqPartial","seqNoFeedback","seqFeedback"],"classroomPairings":[["A","B"],["C","D"]],"coinWeights":[0.2,0.5,0.8],"subjectId":"A1F1BIPJR11LSR","assignmentId":"31QNSG6A5SF7ERMYEI26XM5FFEN78O","hitId":"3UDTAB6HH6LRO17U79I9TKUGSHV90J","url":"https://gershmanlab.com/experiments/alicia/teaching/experiment/?hitId=3UDTAB6HH6LRO17U79I9TKUGSHV90J&workerId=A1F1BIPJR11LSR&assignmentId=31QNSG6A5SF7ERMYEI26XM5FFEN78O&a=ASQ19&tp_a=ASQ19&b=31QNSG6A5SF7ERMYEI26XM5FFEN78O&tp_b=31QNSG6A5SF7ERMYEI26XM5FFEN78O&c=365799&tp_c=365799"},{"view_history":[{"page_index":0,"viewing_time":5118},{"page_index":1,"viewing_time":1620},{"page_index":2,"viewing_time":13090},{"page_index":3,"viewing_time":10387},{"page_index":4,"viewing_time":6906},{"page_index":5,"viewing_time":11592},{"page_index":6,"viewing_time":6578}],"rt":55291,"trial_type":"instructions","trial_index":14,"time_elapsed":653401,"internal_node_id":"0.0-2.4-0.4","params":{"nStudents":24,"maxFlips":30,"completionMinutes":45,"basePay":8,"maxBonus":9,"perTrialBonus":0.5,"perTrialBonusThreshold":0.05,"exampleCost":0.01},"classroomParams":{"A":{"a":1,"b":4},"B":{"a":4,"b":1},"C":{"a":2,"b":8},"D":{"a":8,"b":2}},"conditions":["nonSeqFull","nonSeqPartial","seqNoFeedback","seqFeedback"],"classroomPairings":[["A","B"],["C","D"]],"coinWeights":[0.2,0.5,0.8],"subjectId":"A1F1BIPJR11LSR","assignmentId":"31QNSG6A5SF7ERMYEI26XM5FFEN78O","hitId":"3UDTAB6HH6LRO17U79I9TKUGSHV90J","url":"https://gershmanlab.com/experiments/alicia/teaching/experiment/?hitId=3UDTAB6HH6LRO17U79I9TKUGSHV90J&workerId=A1F1BIPJR11LSR&assignmentId=31QNSG6A5SF7ERMYEI26XM5FFEN78O&a=ASQ19&tp_a=ASQ19&b=31QNSG6A5SF7ERMYEI26XM5FFEN78O&tp_b=31QNSG6A5SF7ERMYEI26XM5FFEN78O&c=365799&tp_c=365799"},{"rt":23650,"response":{"Q0":"Students in different classrooms will have seen a different number of heads and tails before seeing the examples you select for them.","Q1":"By <b>considering the student's classroom information</b> so that I can teach efficiently and accurately/helpfully at the same time (because each example I give to the student costs money!).","Q2":"The coin lands heads 90% of the time.","Q3":"Yes, I might encounter the same student twice.","Q4":"The students are also on the same alien planet as you, where coins can be unfair.","Q5":"Based on the student's second (and final) guess."},"question_order":[5,0,2,1,4,3],"trial_type":"survey-multi-choice","trial_index":15,"time_elapsed":677054,"internal_node_id":"0.0-2.4-1.4","params":{"nStudents":24,"maxFlips":30,"completionMinutes":45,"basePay":8,"maxBonus":9,"perTrialBonus":0.5,"perTrialBonusThreshold":0.05,"exampleCost":0.01},"classroomParams":{"A":{"a":1,"b":4},"B":{"a":4,"b":1},"C":{"a":2,"b":8},"D":{"a":8,"b":2}},"conditions":["nonSeqFull","nonSeqPartial","seqNoFeedback","seqFeedback"],"classroomPairings":[["A","B"],["C","D"]],"coinWeights":[0.2,0.5,0.8],"subjectId":"A1F1BIPJR11LSR","assignmentId":"31QNSG6A5SF7ERMYEI26XM5FFEN78O","hitId":"3UDTAB6HH6LRO17U79I9TKUGSHV90J","url":"https://gershmanlab.com/experiments/alicia/teaching/experiment/?hitId=3UDTAB6HH6LRO17U79I9TKUGSHV90J&workerId=A1F1BIPJR11LSR&assignmentId=31QNSG6A5SF7ERMYEI26XM5FFEN78O&a=ASQ19&tp_a=ASQ19&b=31QNSG6A5SF7ERMYEI26XM5FFEN78O&tp_b=31QNSG6A5SF7ERMYEI26XM5FFEN78O&c=365799&tp_c=365799","pass":false},{"rt":7790,"stimulus":"Oops, you have missed question(s) on the comprehension check! We'll show you the instructions again.","response":0,"trial_type":"html-button-response","trial_index":16,"time_elapsed":684845,"internal_node_id":"0.0-2.4-2.4-0.4","params":{"nStudents":24,"maxFlips":30,"completionMinutes":45,"basePay":8,"maxBonus":9,"perTrialBonus":0.5,"perTrialBonusThreshold":0.05,"exampleCost":0.01},"classroomParams":{"A":{"a":1,"b":4},"B":{"a":4,"b":1},"C":{"a":2,"b":8},"D":{"a":8,"b":2}},"conditions":["nonSeqFull","nonSeqPartial","seqNoFeedback","seqFeedback"],"classroomPairings":[["A","B"],["C","D"]],"coinWeights":[0.2,0.5,0.8],"subjectId":"A1F1BIPJR11LSR","assignmentId":"31QNSG6A5SF7ERMYEI26XM5FFEN78O","hitId":"3UDTAB6HH6LRO17U79I9TKUGSHV90J","url":"https://gershmanlab.com/experiments/alicia/teaching/experiment/?hitId=3UDTAB6HH6LRO17U79I9TKUGSHV90J&workerId=A1F1BIPJR11LSR&assignmentId=31QNSG6A5SF7ERMYEI26XM5FFEN78O&a=ASQ19&tp_a=ASQ19&b=31QNSG6A5SF7ERMYEI26XM5FFEN78O&tp_b=31QNSG6A5SF7ERMYEI26XM5FFEN78O&c=365799&tp_c=365799"},{"view_history":[{"page_index":0,"viewing_time":904},{"page_index":1,"viewing_time":173},{"page_index":2,"viewing_time":825},{"page_index":3,"viewing_time":451},{"page_index":4,"viewing_time":644},{"page_index":5,"viewing_time":1101},{"page_index":6,"viewing_time":680}],"rt":4778,"trial_type":"instructions","trial_index":17,"time_elapsed":689623,"internal_node_id":"0.0-2.5-0.5","params":{"nStudents":24,"maxFlips":30,"completionMinutes":45,"basePay":8,"maxBonus":9,"perTrialBonus":0.5,"perTrialBonusThreshold":0.05,"exampleCost":0.01},"classroomParams":{"A":{"a":1,"b":4},"B":{"a":4,"b":1},"C":{"a":2,"b":8},"D":{"a":8,"b":2}},"conditions":["nonSeqFull","nonSeqPartial","seqNoFeedback","seqFeedback"],"classroomPairings":[["A","B"],["C","D"]],"coinWeights":[0.2,0.5,0.8],"subjectId":"A1F1BIPJR11LSR","assignmentId":"31QNSG6A5SF7ERMYEI26XM5FFEN78O","hitId":"3UDTAB6HH6LRO17U79I9TKUGSHV90J","url":"https://gershmanlab.com/experiments/alicia/teaching/experiment/?hitId=3UDTAB6HH6LRO17U79I9TKUGSHV90J&workerId=A1F1BIPJR11LSR&assignmentId=31QNSG6A5SF7ERMYEI26XM5FFEN78O&a=ASQ19&tp_a=ASQ19&b=31QNSG6A5SF7ERMYEI26XM5FFEN78O&tp_b=31QNSG6A5SF7ERMYEI26XM5FFEN78O&c=365799&tp_c=365799"},{"rt":24511,"response":{"Q0":"Students in different classrooms will have seen a different number of heads and tails before seeing the examples you select for them.","Q1":"By giving as few examples as possible.","Q2":"The coin lands heads 90% of the time.","Q3":"Yes, I might encounter the same student twice.","Q4":"The students are also on the same alien planet as you, where coins can be unfair.","Q5":"Based on the student's second (and final) guess."},"question_order":[0,4,1,2,5,3],"trial_type":"survey-multi-choice","trial_index":18,"time_elapsed":714135,"internal_node_id":"0.0-2.5-1.5","params":{"nStudents":24,"maxFlips":30,"completionMinutes":45,"basePay":8,"maxBonus":9,"perTrialBonus":0.5,"perTrialBonusThreshold":0.05,"exampleCost":0.01},"classroomParams":{"A":{"a":1,"b":4},"B":{"a":4,"b":1},"C":{"a":2,"b":8},"D":{"a":8,"b":2}},"conditions":["nonSeqFull","nonSeqPartial","seqNoFeedback","seqFeedback"],"classroomPairings":[["A","B"],["C","D"]],"coinWeights":[0.2,0.5,0.8],"subjectId":"A1F1BIPJR11LSR","assignmentId":"31QNSG6A5SF7ERMYEI26XM5FFEN78O","hitId":"3UDTAB6HH6LRO17U79I9TKUGSHV90J","url":"https://gershmanlab.com/experiments/alicia/teaching/experiment/?hitId=3UDTAB6HH6LRO17U79I9TKUGSHV90J&workerId=A1F1BIPJR11LSR&assignmentId=31QNSG6A5SF7ERMYEI26XM5FFEN78O&a=ASQ19&tp_a=ASQ19&b=31QNSG6A5SF7ERMYEI26XM5FFEN78O&tp_b=31QNSG6A5SF7ERMYEI26XM5FFEN78O&c=365799&tp_c=365799","pass":false},{"rt":1868,"stimulus":"Oops, you have missed question(s) on the comprehension check! We'll show you the instructions again.","response":0,"trial_type":"html-button-response","trial_index":19,"time_elapsed":716005,"internal_node_id":"0.0-2.5-2.5-0.5","params":{"nStudents":24,"maxFlips":30,"completionMinutes":45,"basePay":8,"maxBonus":9,"perTrialBonus":0.5,"perTrialBonusThreshold":0.05,"exampleCost":0.01},"classroomParams":{"A":{"a":1,"b":4},"B":{"a":4,"b":1},"C":{"a":2,"b":8},"D":{"a":8,"b":2}},"conditions":["nonSeqFull","nonSeqPartial","seqNoFeedback","seqFeedback"],"classroomPairings":[["A","B"],["C","D"]],"coinWeights":[0.2,0.5,0.8],"subjectId":"A1F1BIPJR11LSR","assignmentId":"31QNSG6A5SF7ERMYEI26XM5FFEN78O","hitId":"3UDTAB6HH6LRO17U79I9TKUGSHV90J","url":"https://gershmanlab.com/experiments/alicia/teaching/experiment/?hitId=3UDTAB6HH6LRO17U79I9TKUGSHV90J&workerId=A1F1BIPJR11LSR&assignmentId=31QNSG6A5SF7ERMYEI26XM5FFEN78O&a=ASQ19&tp_a=ASQ19&b=31QNSG6A5SF7ERMYEI26XM5FFEN78O&tp_b=31QNSG6A5SF7ERMYEI26XM5FFEN78O&c=365799&tp_c=365799"},{"view_history":[{"page_index":0,"viewing_time":1101},{"page_index":1,"viewing_time":855},{"page_index":2,"viewing_time":1739},{"page_index":3,"viewing_time":3964},{"page_index":4,"viewing_time":3596},{"page_index":5,"viewing_time":8370},{"page_index":6,"viewing_time":14273}],"rt":33898,"trial_type":"instructions","trial_index":20,"time_elapsed":749903,"internal_node_id":"0.0-2.6-0.6","params":{"nStudents":24,"maxFlips":30,"completionMinutes":45,"basePay":8,"maxBonus":9,"perTrialBonus":0.5,"perTrialBonusThreshold":0.05,"exampleCost":0.01},"classroomParams":{"A":{"a":1,"b":4},"B":{"a":4,"b":1},"C":{"a":2,"b":8},"D":{"a":8,"b":2}},"conditions":["nonSeqFull","nonSeqPartial","seqNoFeedback","seqFeedback"],"classroomPairings":[["A","B"],["C","D"]],"coinWeights":[0.2,0.5,0.8],"subjectId":"A1F1BIPJR11LSR","assignmentId":"31QNSG6A5SF7ERMYEI26XM5FFEN78O","hitId":"3UDTAB6HH6LRO17U79I9TKUGSHV90J","url":"https://gershmanlab.com/experiments/alicia/teaching/experiment/?hitId=3UDTAB6HH6LRO17U79I9TKUGSHV90J&workerId=A1F1BIPJR11LSR&assignmentId=31QNSG6A5SF7ERMYEI26XM5FFEN78O&a=ASQ19&tp_a=ASQ19&b=31QNSG6A5SF7ERMYEI26XM5FFEN78O&tp_b=31QNSG6A5SF7ERMYEI26XM5FFEN78O&c=365799&tp_c=365799"},{"rt":30976,"response":{"Q0":"Students in different classrooms will have seen a different number of heads and tails before seeing the examples you select for them.","Q1":"By <b>considering the student's classroom information</b> so that I can teach efficiently and accurately/helpfully at the same time (because each example I give to the student costs money!).","Q2":"The coin lands heads 90% of the time.","Q3":"No, I will teach a <b>new</b> student each time.","Q4":"The students are also on the same alien planet as you, where coins can be unfair.","Q5":"Based on the student's second (and final) guess."},"question_order":[2,5,0,3,1,4],"trial_type":"survey-multi-choice","trial_index":21,"time_elapsed":780881,"internal_node_id":"0.0-2.6-1.6","params":{"nStudents":24,"maxFlips":30,"completionMinutes":45,"basePay":8,"maxBonus":9,"perTrialBonus":0.5,"perTrialBonusThreshold":0.05,"exampleCost":0.01},"classroomParams":{"A":{"a":1,"b":4},"B":{"a":4,"b":1},"C":{"a":2,"b":8},"D":{"a":8,"b":2}},"conditions":["nonSeqFull","nonSeqPartial","seqNoFeedback","seqFeedback"],"classroomPairings":[["A","B"],["C","D"]],"coinWeights":[0.2,0.5,0.8],"subjectId":"A1F1BIPJR11LSR","assignmentId":"31QNSG6A5SF7ERMYEI26XM5FFEN78O","hitId":"3UDTAB6HH6LRO17U79I9TKUGSHV90J","url":"https://gershmanlab.com/experiments/alicia/teaching/experiment/?hitId=3UDTAB6HH6LRO17U79I9TKUGSHV90J&workerId=A1F1BIPJR11LSR&assignmentId=31QNSG6A5SF7ERMYEI26XM5FFEN78O&a=ASQ19&tp_a=ASQ19&b=31QNSG6A5SF7ERMYEI26XM5FFEN78O&tp_b=31QNSG6A5SF7ERMYEI26XM5FFEN78O&c=365799&tp_c=365799","pass":true},{"rt":null,"stimulus":"<div style=\"font-size:30px;\">Congrats on passing the comprehension quiz! The experiment will begin in a few seconds.</div>","response":null,"trial_type":"html-keyboard-response","trial_index":22,"time_elapsed":783889,"internal_node_id":"0.0-3.0","params":{"nStudents":24,"maxFlips":30,"completionMinutes":45,"basePay":8,"maxBonus":9,"perTrialBonus":0.5,"perTrialBonusThreshold":0.05,"exampleCost":0.01},"classroomParams":{"A":{"a":1,"b":4},"B":{"a":4,"b":1},"C":{"a":2,"b":8},"D":{"a":8,"b":2}},"conditions":["nonSeqFull","nonSeqPartial","seqNoFeedback","seqFeedback"],"classroomPairings":[["A","B"],["C","D"]],"coinWeights":[0.2,0.5,0.8],"subjectId":"A1F1BIPJR11LSR","assignmentId":"31QNSG6A5SF7ERMYEI26XM5FFEN78O","hitId":"3UDTAB6HH6LRO17U79I9TKUGSHV90J","url":"https://gershmanlab.com/experiments/alicia/teaching/experiment/?hitId=3UDTAB6HH6LRO17U79I9TKUGSHV90J&workerId=A1F1BIPJR11LSR&assignmentId=31QNSG6A5SF7ERMYEI26XM5FFEN78O&a=ASQ19&tp_a=ASQ19&b=31QNSG6A5SF7ERMYEI26XM5FFEN78O&tp_b=31QNSG6A5SF7ERMYEI26XM5FFEN78O&c=365799&tp_c=365799"},{"rt":null,"stimulus":"<div style=\"font-size:50px;\">First student</div>","response":null,"trial_type":"html-keyboard-response","trial_index":23,"time_elapsed":786898,"internal_node_id":"0.0-4.0","params":{"nStudents":24,"maxFlips":30,"completionMinutes":45,"basePay":8,"maxBonus":9,"perTrialBonus":0.5,"perTrialBonusThreshold":0.05,"exampleCost":0.01},"classroomParams":{"A":{"a":1,"b":4},"B":{"a":4,"b":1},"C":{"a":2,"b":8},"D":{"a":8,"b":2}},"conditions":["nonSeqFull","nonSeqPartial","seqNoFeedback","seqFeedback"],"classroomPairings":[["A","B"],["C","D"]],"coinWeights":[0.2,0.5,0.8],"subjectId":"A1F1BIPJR11LSR","assignmentId":"31QNSG6A5SF7ERMYEI26XM5FFEN78O","hitId":"3UDTAB6HH6LRO17U79I9TKUGSHV90J","url":"https://gershmanlab.com/experiments/alicia/teaching/experiment/?hitId=3UDTAB6HH6LRO17U79I9TKUGSHV90J&workerId=A1F1BIPJR11LSR&assignmentId=31QNSG6A5SF7ERMYEI26XM5FFEN78O&a=ASQ19&tp_a=ASQ19&b=31QNSG6A5SF7ERMYEI26XM5FFEN78O&tp_b=31QNSG6A5SF7ERMYEI26XM5FFEN78O&c=365799&tp_c=365799"},{"rt":4451,"stimulus":"\n            <h4 style=\"color:Orange;\">Student 1</h4>\n            <h2>The weight of your coin is <b style=\"color:Tomato;\">0.2</b>.</h2>\n            <p>In this block, you will be giving <b>one</b> set of examples to Student 1.</p>\n                <p>You will receive feedback at the end of the block.</p>\n            <p></p>","response":0,"trial_type":"html-button-response","trial_index":24,"time_elapsed":791349,"internal_node_id":"0.0-5.0","params":{"nStudents":24,"maxFlips":30,"completionMinutes":45,"basePay":8,"maxBonus":9,"perTrialBonus":0.5,"perTrialBonusThreshold":0.05,"exampleCost":0.01},"classroomParams":{"A":{"a":1,"b":4},"B":{"a":4,"b":1},"C":{"a":2,"b":8},"D":{"a":8,"b":2}},"conditions":["nonSeqFull","nonSeqPartial","seqNoFeedback","seqFeedback"],"classroomPairings":[["A","B"],["C","D"]],"coinWeights":[0.2,0.5,0.8],"subjectId":"A1F1BIPJR11LSR","assignmentId":"31QNSG6A5SF7ERMYEI26XM5FFEN78O","hitId":"3UDTAB6HH6LRO17U79I9TKUGSHV90J","url":"https://gershmanlab.com/experiments/alicia/teaching/experiment/?hitId=3UDTAB6HH6LRO17U79I9TKUGSHV90J&workerId=A1F1BIPJR11LSR&assignmentId=31QNSG6A5SF7ERMYEI26XM5FFEN78O&a=ASQ19&tp_a=ASQ19&b=31QNSG6A5SF7ERMYEI26XM5FFEN78O&tp_b=31QNSG6A5SF7ERMYEI26XM5FFEN78O&c=365799&tp_c=365799"},{"rt":156885,"response":{"heads":"2","tails":"8"},"type":"response","condition":"nonSeqPartial","trueTheta":0.2,"classrooms":["C","D"],"studentTrueClassroom":"C","exampleSet":"first","trial_type":"survey-html-form","trial_index":25,"time_elapsed":948241,"internal_node_id":"0.0-6.0-0.0","params":{"nStudents":24,"maxFlips":30,"completionMinutes":45,"basePay":8,"maxBonus":9,"perTrialBonus":0.5,"perTrialBonusThreshold":0.05,"exampleCost":0.01},"classroomParams":{"A":{"a":1,"b":4},"B":{"a":4,"b":1},"C":{"a":2,"b":8},"D":{"a":8,"b":2}},"conditions":["nonSeqFull","nonSeqPartial","seqNoFeedback","seqFeedback"],"classroomPairings":[["A","B"],["C","D"]],"coinWeights":[0.2,0.5,0.8],"subjectId":"A1F1BIPJR11LSR","assignmentId":"31QNSG6A5SF7ERMYEI26XM5FFEN78O","hitId":"3UDTAB6HH6LRO17U79I9TKUGSHV90J","url":"https://gershmanlab.com/experiments/alicia/teaching/experiment/?hitId=3UDTAB6HH6LRO17U79I9TKUGSHV90J&workerId=A1F1BIPJR11LSR&assignmentId=31QNSG6A5SF7ERMYEI26XM5FFEN78O&a=ASQ19&tp_a=ASQ19&b=31QNSG6A5SF7ERMYEI26XM5FFEN78O&tp_b=31QNSG6A5SF7ERMYEI26XM5FFEN78O&c=365799&tp_c=365799","heads":2,"tails":8,"studentIndex":0,"studentTrueHypers":{"a":2,"b":8},"studentGuess":0.2,"delta":0,"totalExamples":10,"bonus":0.4,"bonusSoFar":0.4},{"rt":null,"stimulus":"Sending examples to student... ","response":null,"trial_type":"html-keyboard-response","trial_index":26,"time_elapsed":949502,"internal_node_id":"0.0-7.0","params":{"nStudents":24,"maxFlips":30,"completionMinutes":45,"basePay":8,"maxBonus":9,"perTrialBonus":0.5,"perTrialBonusThreshold":0.05,"exampleCost":0.01},"classroomParams":{"A":{"a":1,"b":4},"B":{"a":4,"b":1},"C":{"a":2,"b":8},"D":{"a":8,"b":2}},"conditions":["nonSeqFull","nonSeqPartial","seqNoFeedback","seqFeedback"],"classroomPairings":[["A","B"],["C","D"]],"coinWeights":[0.2,0.5,0.8],"subjectId":"A1F1BIPJR11LSR","assignmentId":"31QNSG6A5SF7ERMYEI26XM5FFEN78O","hitId":"3UDTAB6HH6LRO17U79I9TKUGSHV90J","url":"https://gershmanlab.com/experiments/alicia/teaching/experiment/?hitId=3UDTAB6HH6LRO17U79I9TKUGSHV90J&workerId=A1F1BIPJR11LSR&assignmentId=31QNSG6A5SF7ERMYEI26XM5FFEN78O&a=ASQ19&tp_a=ASQ19&b=31QNSG6A5SF7ERMYEI26XM5FFEN78O&tp_b=31QNSG6A5SF7ERMYEI26XM5FFEN78O&c=365799&tp_c=365799"},{"rt":null,"stimulus":"Examples sent to student! Waiting for student...","response":null,"trial_type":"html-keyboard-response","trial_index":27,"time_elapsed":954006,"internal_node_id":"0.0-8.0","params":{"nStudents":24,"maxFlips":30,"completionMinutes":45,"basePay":8,"maxBonus":9,"perTrialBonus":0.5,"perTrialBonusThreshold":0.05,"exampleCost":0.01},"classroomParams":{"A":{"a":1,"b":4},"B":{"a":4,"b":1},"C":{"a":2,"b":8},"D":{"a":8,"b":2}},"conditions":["nonSeqFull","nonSeqPartial","seqNoFeedback","seqFeedback"],"classroomPairings":[["A","B"],["C","D"]],"coinWeights":[0.2,0.5,0.8],"subjectId":"A1F1BIPJR11LSR","assignmentId":"31QNSG6A5SF7ERMYEI26XM5FFEN78O","hitId":"3UDTAB6HH6LRO17U79I9TKUGSHV90J","url":"https://gershmanlab.com/experiments/alicia/teaching/experiment/?hitId=3UDTAB6HH6LRO17U79I9TKUGSHV90J&workerId=A1F1BIPJR11LSR&assignmentId=31QNSG6A5SF7ERMYEI26XM5FFEN78O&a=ASQ19&tp_a=ASQ19&b=31QNSG6A5SF7ERMYEI26XM5FFEN78O&tp_b=31QNSG6A5SF7ERMYEI26XM5FFEN78O&c=365799&tp_c=365799"},{"rt":3191,"stimulus":"\n                <p>Student's guess for coin weight: <b style=\"color:Tomato;\">0.20</b></p>\n                <p>You received a bonus of <b>$0.4</b>. Total bonus so far: <b>$0.40</b></b></p>\n                <p></p>\n                <p>Press any key to continue.</p>\n                ","response":" ","trial_type":"html-keyboard-response","trial_index":28,"time_elapsed":957197,"internal_node_id":"0.0-9.0","params":{"nStudents":24,"maxFlips":30,"completionMinutes":45,"basePay":8,"maxBonus":9,"perTrialBonus":0.5,"perTrialBonusThreshold":0.05,"exampleCost":0.01},"classroomParams":{"A":{"a":1,"b":4},"B":{"a":4,"b":1},"C":{"a":2,"b":8},"D":{"a":8,"b":2}},"conditions":["nonSeqFull","nonSeqPartial","seqNoFeedback","seqFeedback"],"classroomPairings":[["A","B"],["C","D"]],"coinWeights":[0.2,0.5,0.8],"subjectId":"A1F1BIPJR11LSR","assignmentId":"31QNSG6A5SF7ERMYEI26XM5FFEN78O","hitId":"3UDTAB6HH6LRO17U79I9TKUGSHV90J","url":"https://gershmanlab.com/experiments/alicia/teaching/experiment/?hitId=3UDTAB6HH6LRO17U79I9TKUGSHV90J&workerId=A1F1BIPJR11LSR&assignmentId=31QNSG6A5SF7ERMYEI26XM5FFEN78O&a=ASQ19&tp_a=ASQ19&b=31QNSG6A5SF7ERMYEI26XM5FFEN78O&tp_b=31QNSG6A5SF7ERMYEI26XM5FFEN78O&c=365799&tp_c=365799"},{"rt":null,"stimulus":"<div style=\"font-size:60px;\">Next student</div>","response":null,"trial_type":"html-keyboard-response","trial_index":29,"time_elapsed":959212,"internal_node_id":"0.0-10.0-0.0","params":{"nStudents":24,"maxFlips":30,"completionMinutes":45,"basePay":8,"maxBonus":9,"perTrialBonus":0.5,"perTrialBonusThreshold":0.05,"exampleCost":0.01},"classroomParams":{"A":{"a":1,"b":4},"B":{"a":4,"b":1},"C":{"a":2,"b":8},"D":{"a":8,"b":2}},"conditions":["nonSeqFull","nonSeqPartial","seqNoFeedback","seqFeedback"],"classroomPairings":[["A","B"],["C","D"]],"coinWeights":[0.2,0.5,0.8],"subjectId":"A1F1BIPJR11LSR","assignmentId":"31QNSG6A5SF7ERMYEI26XM5FFEN78O","hitId":"3UDTAB6HH6LRO17U79I9TKUGSHV90J","url":"https://gershmanlab.com/experiments/alicia/teaching/experiment/?hitId=3UDTAB6HH6LRO17U79I9TKUGSHV90J&workerId=A1F1BIPJR11LSR&assignmentId=31QNSG6A5SF7ERMYEI26XM5FFEN78O&a=ASQ19&tp_a=ASQ19&b=31QNSG6A5SF7ERMYEI26XM5FFEN78O&tp_b=31QNSG6A5SF7ERMYEI26XM5FFEN78O&c=365799&tp_c=365799"},{"rt":4884,"stimulus":"\n            <h4 style=\"color:Orange;\">Student 2</h4>\n            <h2>The weight of your coin is <b style=\"color:Tomato;\">0.5</b>.</h2>\n            <p>In this block, you will be giving <b>one</b> set of examples to Student 2.</p>\n                <p>You will receive feedback at the end of the block.</p>\n            <p></p>","response":0,"trial_type":"html-button-response","trial_index":30,"time_elapsed":964098,"internal_node_id":"0.0-11.0","params":{"nStudents":24,"maxFlips":30,"completionMinutes":45,"basePay":8,"maxBonus":9,"perTrialBonus":0.5,"perTrialBonusThreshold":0.05,"exampleCost":0.01},"classroomParams":{"A":{"a":1,"b":4},"B":{"a":4,"b":1},"C":{"a":2,"b":8},"D":{"a":8,"b":2}},"conditions":["nonSeqFull","nonSeqPartial","seqNoFeedback","seqFeedback"],"classroomPairings":[["A","B"],["C","D"]],"coinWeights":[0.2,0.5,0.8],"subjectId":"A1F1BIPJR11LSR","assignmentId":"31QNSG6A5SF7ERMYEI26XM5FFEN78O","hitId":"3UDTAB6HH6LRO17U79I9TKUGSHV90J","url":"https://gershmanlab.com/experiments/alicia/teaching/experiment/?hitId=3UDTAB6HH6LRO17U79I9TKUGSHV90J&workerId=A1F1BIPJR11LSR&assignmentId=31QNSG6A5SF7ERMYEI26XM5FFEN78O&a=ASQ19&tp_a=ASQ19&b=31QNSG6A5SF7ERMYEI26XM5FFEN78O&tp_b=31QNSG6A5SF7ERMYEI26XM5FFEN78O&c=365799&tp_c=365799"},{"rt":12088,"response":{"heads":"1","tails":"2"},"type":"response","condition":"nonSeqPartial","trueTheta":0.5,"classrooms":["C","D"],"studentTrueClassroom":"D","exampleSet":"first","trial_type":"survey-html-form","trial_index":31,"time_elapsed":976189,"internal_node_id":"0.0-12.0-0.0","params":{"nStudents":24,"maxFlips":30,"completionMinutes":45,"basePay":8,"maxBonus":9,"perTrialBonus":0.5,"perTrialBonusThreshold":0.05,"exampleCost":0.01},"classroomParams":{"A":{"a":1,"b":4},"B":{"a":4,"b":1},"C":{"a":2,"b":8},"D":{"a":8,"b":2}},"conditions":["nonSeqFull","nonSeqPartial","seqNoFeedback","seqFeedback"],"classroomPairings":[["A","B"],["C","D"]],"coinWeights":[0.2,0.5,0.8],"subjectId":"A1F1BIPJR11LSR","assignmentId":"31QNSG6A5SF7ERMYEI26XM5FFEN78O","hitId":"3UDTAB6HH6LRO17U79I9TKUGSHV90J","url":"https://gershmanlab.com/experiments/alicia/teaching/experiment/?hitId=3UDTAB6HH6LRO17U79I9TKUGSHV90J&workerId=A1F1BIPJR11LSR&assignmentId=31QNSG6A5SF7ERMYEI26XM5FFEN78O&a=ASQ19&tp_a=ASQ19&b=31QNSG6A5SF7ERMYEI26XM5FFEN78O&tp_b=31QNSG6A5SF7ERMYEI26XM5FFEN78O&c=365799&tp_c=365799","heads":1,"tails":2,"studentIndex":1,"studentTrueHypers":{"a":8,"b":2},"studentGuess":0.6923076923076923,"delta":0.1923076923076923,"totalExamples":3,"bonus":0,"bonusSoFar":0.4},{"rt":null,"stimulus":"Sending examples to student... ","response":null,"trial_type":"html-keyboard-response","trial_index":32,"time_elapsed":977698,"internal_node_id":"0.0-13.0","params":{"nStudents":24,"maxFlips":30,"completionMinutes":45,"basePay":8,"maxBonus":9,"perTrialBonus":0.5,"perTrialBonusThreshold":0.05,"exampleCost":0.01},"classroomParams":{"A":{"a":1,"b":4},"B":{"a":4,"b":1},"C":{"a":2,"b":8},"D":{"a":8,"b":2}},"conditions":["nonSeqFull","nonSeqPartial","seqNoFeedback","seqFeedback"],"classroomPairings":[["A","B"],["C","D"]],"coinWeights":[0.2,0.5,0.8],"subjectId":"A1F1BIPJR11LSR","assignmentId":"31QNSG6A5SF7ERMYEI26XM5FFEN78O","hitId":"3UDTAB6HH6LRO17U79I9TKUGSHV90J","url":"https://gershmanlab.com/experiments/alicia/teaching/experiment/?hitId=3UDTAB6HH6LRO17U79I9TKUGSHV90J&workerId=A1F1BIPJR11LSR&assignmentId=31QNSG6A5SF7ERMYEI26XM5FFEN78O&a=ASQ19&tp_a=ASQ19&b=31QNSG6A5SF7ERMYEI26XM5FFEN78O&tp_b=31QNSG6A5SF7ERMYEI26XM5FFEN78O&c=365799&tp_c=365799"},{"rt":null,"stimulus":"Examples sent to student! Waiting for student...","response":null,"trial_type":"html-keyboard-response","trial_index":33,"time_elapsed":982209,"internal_node_id":"0.0-14.0","params":{"nStudents":24,"maxFlips":30,"completionMinutes":45,"basePay":8,"maxBonus":9,"perTrialBonus":0.5,"perTrialBonusThreshold":0.05,"exampleCost":0.01},"classroomParams":{"A":{"a":1,"b":4},"B":{"a":4,"b":1},"C":{"a":2,"b":8},"D":{"a":8,"b":2}},"conditions":["nonSeqFull","nonSeqPartial","seqNoFeedback","seqFeedback"],"classroomPairings":[["A","B"],["C","D"]],"coinWeights":[0.2,0.5,0.8],"subjectId":"A1F1BIPJR11LSR","assignmentId":"31QNSG6A5SF7ERMYEI26XM5FFEN78O","hitId":"3UDTAB6HH6LRO17U79I9TKUGSHV90J","url":"https://gershmanlab.com/experiments/alicia/teaching/experiment/?hitId=3UDTAB6HH6LRO17U79I9TKUGSHV90J&workerId=A1F1BIPJR11LSR&assignmentId=31QNSG6A5SF7ERMYEI26XM5FFEN78O&a=ASQ19&tp_a=ASQ19&b=31QNSG6A5SF7ERMYEI26XM5FFEN78O&tp_b=31QNSG6A5SF7ERMYEI26XM5FFEN78O&c=365799&tp_c=365799"},{"rt":7635,"stimulus":"\n                <p>Student's guess for coin weight: <b style=\"color:Tomato;\">0.69</b></p>\n                <p>You received a bonus of <b>$0</b>. Total bonus so far: <b>$0.40</b></b></p>\n                <p></p>\n                <p>Press any key to continue.</p>\n                ","response":" ","trial_type":"html-keyboard-response","trial_index":34,"time_elapsed":989845,"internal_node_id":"0.0-15.0","params":{"nStudents":24,"maxFlips":30,"completionMinutes":45,"basePay":8,"maxBonus":9,"perTrialBonus":0.5,"perTrialBonusThreshold":0.05,"exampleCost":0.01},"classroomParams":{"A":{"a":1,"b":4},"B":{"a":4,"b":1},"C":{"a":2,"b":8},"D":{"a":8,"b":2}},"conditions":["nonSeqFull","nonSeqPartial","seqNoFeedback","seqFeedback"],"classroomPairings":[["A","B"],["C","D"]],"coinWeights":[0.2,0.5,0.8],"subjectId":"A1F1BIPJR11LSR","assignmentId":"31QNSG6A5SF7ERMYEI26XM5FFEN78O","hitId":"3UDTAB6HH6LRO17U79I9TKUGSHV90J","url":"https://gershmanlab.com/experiments/alicia/teaching/experiment/?hitId=3UDTAB6HH6LRO17U79I9TKUGSHV90J&workerId=A1F1BIPJR11LSR&assignmentId=31QNSG6A5SF7ERMYEI26XM5FFEN78O&a=ASQ19&tp_a=ASQ19&b=31QNSG6A5SF7ERMYEI26XM5FFEN78O&tp_b=31QNSG6A5SF7ERMYEI26XM5FFEN78O&c=365799&tp_c=365799"},{"rt":null,"stimulus":"<div style=\"font-size:60px;\">Next student</div>","response":null,"trial_type":"html-keyboard-response","trial_index":35,"time_elapsed":992096,"internal_node_id":"0.0-16.0-0.0","params":{"nStudents":24,"maxFlips":30,"completionMinutes":45,"basePay":8,"maxBonus":9,"perTrialBonus":0.5,"perTrialBonusThreshold":0.05,"exampleCost":0.01},"classroomParams":{"A":{"a":1,"b":4},"B":{"a":4,"b":1},"C":{"a":2,"b":8},"D":{"a":8,"b":2}},"conditions":["nonSeqFull","nonSeqPartial","seqNoFeedback","seqFeedback"],"classroomPairings":[["A","B"],["C","D"]],"coinWeights":[0.2,0.5,0.8],"subjectId":"A1F1BIPJR11LSR","assignmentId":"31QNSG6A5SF7ERMYEI26XM5FFEN78O","hitId":"3UDTAB6HH6LRO17U79I9TKUGSHV90J","url":"https://gershmanlab.com/experiments/alicia/teaching/experiment/?hitId=3UDTAB6HH6LRO17U79I9TKUGSHV90J&workerId=A1F1BIPJR11LSR&assignmentId=31QNSG6A5SF7ERMYEI26XM5FFEN78O&a=ASQ19&tp_a=ASQ19&b=31QNSG6A5SF7ERMYEI26XM5FFEN78O&tp_b=31QNSG6A5SF7ERMYEI26XM5FFEN78O&c=365799&tp_c=365799"},{"rt":1797,"stimulus":"\n            <h4 style=\"color:Orange;\">Student 3</h4>\n            <h2>The weight of your coin is <b style=\"color:Tomato;\">0.8</b>.</h2>\n            <p>In this block, you will be giving <b>one</b> set of examples to Student 3.</p>\n                <p>You will receive feedback at the end of the block.</p>\n            <p></p>","response":0,"trial_type":"html-button-response","trial_index":36,"time_elapsed":993894,"internal_node_id":"0.0-17.0","params":{"nStudents":24,"maxFlips":30,"completionMinutes":45,"basePay":8,"maxBonus":9,"perTrialBonus":0.5,"perTrialBonusThreshold":0.05,"exampleCost":0.01},"classroomParams":{"A":{"a":1,"b":4},"B":{"a":4,"b":1},"C":{"a":2,"b":8},"D":{"a":8,"b":2}},"conditions":["nonSeqFull","nonSeqPartial","seqNoFeedback","seqFeedback"],"classroomPairings":[["A","B"],["C","D"]],"coinWeights":[0.2,0.5,0.8],"subjectId":"A1F1BIPJR11LSR","assignmentId":"31QNSG6A5SF7ERMYEI26XM5FFEN78O","hitId":"3UDTAB6HH6LRO17U79I9TKUGSHV90J","url":"https://gershmanlab.com/experiments/alicia/teaching/experiment/?hitId=3UDTAB6HH6LRO17U79I9TKUGSHV90J&workerId=A1F1BIPJR11LSR&assignmentId=31QNSG6A5SF7ERMYEI26XM5FFEN78O&a=ASQ19&tp_a=ASQ19&b=31QNSG6A5SF7ERMYEI26XM5FFEN78O&tp_b=31QNSG6A5SF7ERMYEI26XM5FFEN78O&c=365799&tp_c=365799"},{"rt":6843,"response":{"heads":"8","tails":"2"},"type":"response","condition":"nonSeqFull","trueTheta":0.8,"classrooms":["C","D"],"studentTrueClassroom":"C","exampleSet":"first","trial_type":"survey-html-form","trial_index":37,"time_elapsed":1000741,"internal_node_id":"0.0-18.0-0.0","params":{"nStudents":24,"maxFlips":30,"completionMinutes":45,"basePay":8,"maxBonus":9,"perTrialBonus":0.5,"perTrialBonusThreshold":0.05,"exampleCost":0.01},"classroomParams":{"A":{"a":1,"b":4},"B":{"a":4,"b":1},"C":{"a":2,"b":8},"D":{"a":8,"b":2}},"conditions":["nonSeqFull","nonSeqPartial","seqNoFeedback","seqFeedback"],"classroomPairings":[["A","B"],["C","D"]],"coinWeights":[0.2,0.5,0.8],"subjectId":"A1F1BIPJR11LSR","assignmentId":"31QNSG6A5SF7ERMYEI26XM5FFEN78O","hitId":"3UDTAB6HH6LRO17U79I9TKUGSHV90J","url":"https://gershmanlab.com/experiments/alicia/teaching/experiment/?hitId=3UDTAB6HH6LRO17U79I9TKUGSHV90J&workerId=A1F1BIPJR11LSR&assignmentId=31QNSG6A5SF7ERMYEI26XM5FFEN78O&a=ASQ19&tp_a=ASQ19&b=31QNSG6A5SF7ERMYEI26XM5FFEN78O&tp_b=31QNSG6A5SF7ERMYEI26XM5FFEN78O&c=365799&tp_c=365799","heads":8,"tails":2,"studentIndex":2,"studentTrueHypers":{"a":2,"b":8},"studentGuess":0.5,"delta":0.30000000000000004,"totalExamples":10,"bonus":0,"bonusSoFar":0.4},{"rt":null,"stimulus":"Sending examples to student... ","response":null,"trial_type":"html-keyboard-response","trial_index":38,"time_elapsed":1002498,"internal_node_id":"0.0-19.0","params":{"nStudents":24,"maxFlips":30,"completionMinutes":45,"basePay":8,"maxBonus":9,"perTrialBonus":0.5,"perTrialBonusThreshold":0.05,"exampleCost":0.01},"classroomParams":{"A":{"a":1,"b":4},"B":{"a":4,"b":1},"C":{"a":2,"b":8},"D":{"a":8,"b":2}},"conditions":["nonSeqFull","nonSeqPartial","seqNoFeedback","seqFeedback"],"classroomPairings":[["A","B"],["C","D"]],"coinWeights":[0.2,0.5,0.8],"subjectId":"A1F1BIPJR11LSR","assignmentId":"31QNSG6A5SF7ERMYEI26XM5FFEN78O","hitId":"3UDTAB6HH6LRO17U79I9TKUGSHV90J","url":"https://gershmanlab.com/experiments/alicia/teaching/experiment/?hitId=3UDTAB6HH6LRO17U79I9TKUGSHV90J&workerId=A1F1BIPJR11LSR&assignmentId=31QNSG6A5SF7ERMYEI26XM5FFEN78O&a=ASQ19&tp_a=ASQ19&b=31QNSG6A5SF7ERMYEI26XM5FFEN78O&tp_b=31QNSG6A5SF7ERMYEI26XM5FFEN78O&c=365799&tp_c=365799"},{"rt":null,"stimulus":"Examples sent to student! Waiting for student...","response":null,"trial_type":"html-keyboard-response","trial_index":39,"time_elapsed":1007008,"internal_node_id":"0.0-20.0","params":{"nStudents":24,"maxFlips":30,"completionMinutes":45,"basePay":8,"maxBonus":9,"perTrialBonus":0.5,"perTrialBonusThreshold":0.05,"exampleCost":0.01},"classroomParams":{"A":{"a":1,"b":4},"B":{"a":4,"b":1},"C":{"a":2,"b":8},"D":{"a":8,"b":2}},"conditions":["nonSeqFull","nonSeqPartial","seqNoFeedback","seqFeedback"],"classroomPairings":[["A","B"],["C","D"]],"coinWeights":[0.2,0.5,0.8],"subjectId":"A1F1BIPJR11LSR","assignmentId":"31QNSG6A5SF7ERMYEI26XM5FFEN78O","hitId":"3UDTAB6HH6LRO17U79I9TKUGSHV90J","url":"https://gershmanlab.com/experiments/alicia/teaching/experiment/?hitId=3UDTAB6HH6LRO17U79I9TKUGSHV90J&workerId=A1F1BIPJR11LSR&assignmentId=31QNSG6A5SF7ERMYEI26XM5FFEN78O&a=ASQ19&tp_a=ASQ19&b=31QNSG6A5SF7ERMYEI26XM5FFEN78O&tp_b=31QNSG6A5SF7ERMYEI26XM5FFEN78O&c=365799&tp_c=365799"},{"rt":3628,"stimulus":"\n                <p>Student's guess for coin weight: <b style=\"color:Tomato;\">0.50</b></p>\n                <p>You received a bonus of <b>$0</b>. Total bonus so far: <b>$0.40</b></b></p>\n                <p></p>\n                <p>Press any key to continue.</p>\n                ","response":" ","trial_type":"html-keyboard-response","trial_index":40,"time_elapsed":1010637,"internal_node_id":"0.0-21.0","params":{"nStudents":24,"maxFlips":30,"completionMinutes":45,"basePay":8,"maxBonus":9,"perTrialBonus":0.5,"perTrialBonusThreshold":0.05,"exampleCost":0.01},"classroomParams":{"A":{"a":1,"b":4},"B":{"a":4,"b":1},"C":{"a":2,"b":8},"D":{"a":8,"b":2}},"conditions":["nonSeqFull","nonSeqPartial","seqNoFeedback","seqFeedback"],"classroomPairings":[["A","B"],["C","D"]],"coinWeights":[0.2,0.5,0.8],"subjectId":"A1F1BIPJR11LSR","assignmentId":"31QNSG6A5SF7ERMYEI26XM5FFEN78O","hitId":"3UDTAB6HH6LRO17U79I9TKUGSHV90J","url":"https://gershmanlab.com/experiments/alicia/teaching/experiment/?hitId=3UDTAB6HH6LRO17U79I9TKUGSHV90J&workerId=A1F1BIPJR11LSR&assignmentId=31QNSG6A5SF7ERMYEI26XM5FFEN78O&a=ASQ19&tp_a=ASQ19&b=31QNSG6A5SF7ERMYEI26XM5FFEN78O&tp_b=31QNSG6A5SF7ERMYEI26XM5FFEN78O&c=365799&tp_c=365799"},{"rt":null,"stimulus":"<div style=\"font-size:60px;\">Next student</div>","response":null,"trial_type":"html-keyboard-response","trial_index":41,"time_elapsed":1013638,"internal_node_id":"0.0-22.0-0.0","params":{"nStudents":24,"maxFlips":30,"completionMinutes":45,"basePay":8,"maxBonus":9,"perTrialBonus":0.5,"perTrialBonusThreshold":0.05,"exampleCost":0.01},"classroomParams":{"A":{"a":1,"b":4},"B":{"a":4,"b":1},"C":{"a":2,"b":8},"D":{"a":8,"b":2}},"conditions":["nonSeqFull","nonSeqPartial","seqNoFeedback","seqFeedback"],"classroomPairings":[["A","B"],["C","D"]],"coinWeights":[0.2,0.5,0.8],"subjectId":"A1F1BIPJR11LSR","assignmentId":"31QNSG6A5SF7ERMYEI26XM5FFEN78O","hitId":"3UDTAB6HH6LRO17U79I9TKUGSHV90J","url":"https://gershmanlab.com/experiments/alicia/teaching/experiment/?hitId=3UDTAB6HH6LRO17U79I9TKUGSHV90J&workerId=A1F1BIPJR11LSR&assignmentId=31QNSG6A5SF7ERMYEI26XM5FFEN78O&a=ASQ19&tp_a=ASQ19&b=31QNSG6A5SF7ERMYEI26XM5FFEN78O&tp_b=31QNSG6A5SF7ERMYEI26XM5FFEN78O&c=365799&tp_c=365799"},{"rt":3838,"stimulus":"\n            <h4 style=\"color:Orange;\">Student 4</h4>\n            <h2>The weight of your coin is <b style=\"color:Tomato;\">0.5</b>.</h2>\n            <p>In this block, you will be giving <b>one</b> set of examples to Student 4.</p>\n                <p>You will receive feedback at the end of the block.</p>\n            <p></p>","response":0,"trial_type":"html-button-response","trial_index":42,"time_elapsed":1017477,"internal_node_id":"0.0-23.0","params":{"nStudents":24,"maxFlips":30,"completionMinutes":45,"basePay":8,"maxBonus":9,"perTrialBonus":0.5,"perTrialBonusThreshold":0.05,"exampleCost":0.01},"classroomParams":{"A":{"a":1,"b":4},"B":{"a":4,"b":1},"C":{"a":2,"b":8},"D":{"a":8,"b":2}},"conditions":["nonSeqFull","nonSeqPartial","seqNoFeedback","seqFeedback"],"classroomPairings":[["A","B"],["C","D"]],"coinWeights":[0.2,0.5,0.8],"subjectId":"A1F1BIPJR11LSR","assignmentId":"31QNSG6A5SF7ERMYEI26XM5FFEN78O","hitId":"3UDTAB6HH6LRO17U79I9TKUGSHV90J","url":"https://gershmanlab.com/experiments/alicia/teaching/experiment/?hitId=3UDTAB6HH6LRO17U79I9TKUGSHV90J&workerId=A1F1BIPJR11LSR&assignmentId=31QNSG6A5SF7ERMYEI26XM5FFEN78O&a=ASQ19&tp_a=ASQ19&b=31QNSG6A5SF7ERMYEI26XM5FFEN78O&tp_b=31QNSG6A5SF7ERMYEI26XM5FFEN78O&c=365799&tp_c=365799"},{"rt":21379,"response":{"heads":"5","tails":"5"},"type":"response","condition":"nonSeqFull","trueTheta":0.5,"classrooms":["A","B"],"studentTrueClassroom":"A","exampleSet":"first","trial_type":"survey-html-form","trial_index":43,"time_elapsed":1038860,"internal_node_id":"0.0-24.0-0.0","params":{"nStudents":24,"maxFlips":30,"completionMinutes":45,"basePay":8,"maxBonus":9,"perTrialBonus":0.5,"perTrialBonusThreshold":0.05,"exampleCost":0.01},"classroomParams":{"A":{"a":1,"b":4},"B":{"a":4,"b":1},"C":{"a":2,"b":8},"D":{"a":8,"b":2}},"conditions":["nonSeqFull","nonSeqPartial","seqNoFeedback","seqFeedback"],"classroomPairings":[["A","B"],["C","D"]],"coinWeights":[0.2,0.5,0.8],"subjectId":"A1F1BIPJR11LSR","assignmentId":"31QNSG6A5SF7ERMYEI26XM5FFEN78O","hitId":"3UDTAB6HH6LRO17U79I9TKUGSHV90J","url":"https://gershmanlab.com/experiments/alicia/teaching/experiment/?hitId=3UDTAB6HH6LRO17U79I9TKUGSHV90J&workerId=A1F1BIPJR11LSR&assignmentId=31QNSG6A5SF7ERMYEI26XM5FFEN78O&a=ASQ19&tp_a=ASQ19&b=31QNSG6A5SF7ERMYEI26XM5FFEN78O&tp_b=31QNSG6A5SF7ERMYEI26XM5FFEN78O&c=365799&tp_c=365799","heads":5,"tails":5,"studentIndex":3,"studentTrueHypers":{"a":1,"b":4},"studentGuess":0.4,"delta":0.09999999999999998,"totalExamples":10,"bonus":0,"bonusSoFar":0.4},{"rt":null,"stimulus":"Sending examples to student... ","response":null,"trial_type":"html-keyboard-response","trial_index":44,"time_elapsed":1040119,"internal_node_id":"0.0-25.0","params":{"nStudents":24,"maxFlips":30,"completionMinutes":45,"basePay":8,"maxBonus":9,"perTrialBonus":0.5,"perTrialBonusThreshold":0.05,"exampleCost":0.01},"classroomParams":{"A":{"a":1,"b":4},"B":{"a":4,"b":1},"C":{"a":2,"b":8},"D":{"a":8,"b":2}},"conditions":["nonSeqFull","nonSeqPartial","seqNoFeedback","seqFeedback"],"classroomPairings":[["A","B"],["C","D"]],"coinWeights":[0.2,0.5,0.8],"subjectId":"A1F1BIPJR11LSR","assignmentId":"31QNSG6A5SF7ERMYEI26XM5FFEN78O","hitId":"3UDTAB6HH6LRO17U79I9TKUGSHV90J","url":"https://gershmanlab.com/experiments/alicia/teaching/experiment/?hitId=3UDTAB6HH6LRO17U79I9TKUGSHV90J&workerId=A1F1BIPJR11LSR&assignmentId=31QNSG6A5SF7ERMYEI26XM5FFEN78O&a=ASQ19&tp_a=ASQ19&b=31QNSG6A5SF7ERMYEI26XM5FFEN78O&tp_b=31QNSG6A5SF7ERMYEI26XM5FFEN78O&c=365799&tp_c=365799"},{"rt":null,"stimulus":"Examples sent to student! Waiting for student...","response":null,"trial_type":"html-keyboard-response","trial_index":45,"time_elapsed":1045632,"internal_node_id":"0.0-26.0","params":{"nStudents":24,"maxFlips":30,"completionMinutes":45,"basePay":8,"maxBonus":9,"perTrialBonus":0.5,"perTrialBonusThreshold":0.05,"exampleCost":0.01},"classroomParams":{"A":{"a":1,"b":4},"B":{"a":4,"b":1},"C":{"a":2,"b":8},"D":{"a":8,"b":2}},"conditions":["nonSeqFull","nonSeqPartial","seqNoFeedback","seqFeedback"],"classroomPairings":[["A","B"],["C","D"]],"coinWeights":[0.2,0.5,0.8],"subjectId":"A1F1BIPJR11LSR","assignmentId":"31QNSG6A5SF7ERMYEI26XM5FFEN78O","hitId":"3UDTAB6HH6LRO17U79I9TKUGSHV90J","url":"https://gershmanlab.com/experiments/alicia/teaching/experiment/?hitId=3UDTAB6HH6LRO17U79I9TKUGSHV90J&workerId=A1F1BIPJR11LSR&assignmentId=31QNSG6A5SF7ERMYEI26XM5FFEN78O&a=ASQ19&tp_a=ASQ19&b=31QNSG6A5SF7ERMYEI26XM5FFEN78O&tp_b=31QNSG6A5SF7ERMYEI26XM5FFEN78O&c=365799&tp_c=365799"},{"rt":5051,"stimulus":"\n                <p>Student's guess for coin weight: <b style=\"color:Tomato;\">0.40</b></p>\n                <p>You received a bonus of <b>$0</b>. Total bonus so far: <b>$0.40</b></b></p>\n                <p></p>\n                <p>Press any key to continue.</p>\n                ","response":" ","trial_type":"html-keyboard-response","trial_index":46,"time_elapsed":1050683,"internal_node_id":"0.0-27.0","params":{"nStudents":24,"maxFlips":30,"completionMinutes":45,"basePay":8,"maxBonus":9,"perTrialBonus":0.5,"perTrialBonusThreshold":0.05,"exampleCost":0.01},"classroomParams":{"A":{"a":1,"b":4},"B":{"a":4,"b":1},"C":{"a":2,"b":8},"D":{"a":8,"b":2}},"conditions":["nonSeqFull","nonSeqPartial","seqNoFeedback","seqFeedback"],"classroomPairings":[["A","B"],["C","D"]],"coinWeights":[0.2,0.5,0.8],"subjectId":"A1F1BIPJR11LSR","assignmentId":"31QNSG6A5SF7ERMYEI26XM5FFEN78O","hitId":"3UDTAB6HH6LRO17U79I9TKUGSHV90J","url":"https://gershmanlab.com/experiments/alicia/teaching/experiment/?hitId=3UDTAB6HH6LRO17U79I9TKUGSHV90J&workerId=A1F1BIPJR11LSR&assignmentId=31QNSG6A5SF7ERMYEI26XM5FFEN78O&a=ASQ19&tp_a=ASQ19&b=31QNSG6A5SF7ERMYEI26XM5FFEN78O&tp_b=31QNSG6A5SF7ERMYEI26XM5FFEN78O&c=365799&tp_c=365799"},{"rt":null,"stimulus":"<div style=\"font-size:60px;\">Next student</div>","response":null,"trial_type":"html-keyboard-response","trial_index":47,"time_elapsed":1053694,"internal_node_id":"0.0-28.0-0.0","params":{"nStudents":24,"maxFlips":30,"completionMinutes":45,"basePay":8,"maxBonus":9,"perTrialBonus":0.5,"perTrialBonusThreshold":0.05,"exampleCost":0.01},"classroomParams":{"A":{"a":1,"b":4},"B":{"a":4,"b":1},"C":{"a":2,"b":8},"D":{"a":8,"b":2}},"conditions":["nonSeqFull","nonSeqPartial","seqNoFeedback","seqFeedback"],"classroomPairings":[["A","B"],["C","D"]],"coinWeights":[0.2,0.5,0.8],"subjectId":"A1F1BIPJR11LSR","assignmentId":"31QNSG6A5SF7ERMYEI26XM5FFEN78O","hitId":"3UDTAB6HH6LRO17U79I9TKUGSHV90J","url":"https://gershmanlab.com/experiments/alicia/teaching/experiment/?hitId=3UDTAB6HH6LRO17U79I9TKUGSHV90J&workerId=A1F1BIPJR11LSR&assignmentId=31QNSG6A5SF7ERMYEI26XM5FFEN78O&a=ASQ19&tp_a=ASQ19&b=31QNSG6A5SF7ERMYEI26XM5FFEN78O&tp_b=31QNSG6A5SF7ERMYEI26XM5FFEN78O&c=365799&tp_c=365799"},{"rt":5790,"stimulus":"\n            <h4 style=\"color:Orange;\">Student 5</h4>\n            <h2>The weight of your coin is <b style=\"color:Tomato;\">0.8</b>.</h2>\n            <p>In this block, you will be giving <b>two</b> sets of examples to Student 5.</p>\n                <p>You will see the student's guess after the first set of examples. You will also receive feedback at the end of the block.</p>\n            <p>To earn the highest bonus, you will have to <b>take into consideration the student's guess</b> when you choose your second set of examples.</p>","response":0,"trial_type":"html-button-response","trial_index":48,"time_elapsed":1059484,"internal_node_id":"0.0-29.0","params":{"nStudents":24,"maxFlips":30,"completionMinutes":45,"basePay":8,"maxBonus":9,"perTrialBonus":0.5,"perTrialBonusThreshold":0.05,"exampleCost":0.01},"classroomParams":{"A":{"a":1,"b":4},"B":{"a":4,"b":1},"C":{"a":2,"b":8},"D":{"a":8,"b":2}},"conditions":["nonSeqFull","nonSeqPartial","seqNoFeedback","seqFeedback"],"classroomPairings":[["A","B"],["C","D"]],"coinWeights":[0.2,0.5,0.8],"subjectId":"A1F1BIPJR11LSR","assignmentId":"31QNSG6A5SF7ERMYEI26XM5FFEN78O","hitId":"3UDTAB6HH6LRO17U79I9TKUGSHV90J","url":"https://gershmanlab.com/experiments/alicia/teaching/experiment/?hitId=3UDTAB6HH6LRO17U79I9TKUGSHV90J&workerId=A1F1BIPJR11LSR&assignmentId=31QNSG6A5SF7ERMYEI26XM5FFEN78O&a=ASQ19&tp_a=ASQ19&b=31QNSG6A5SF7ERMYEI26XM5FFEN78O&tp_b=31QNSG6A5SF7ERMYEI26XM5FFEN78O&c=365799&tp_c=365799"},{"rt":10200,"response":{"heads":"8","tails":"2"},"type":"response","condition":"seqFeedback","trueTheta":0.8,"classrooms":["C","D"],"studentTrueClassroom":"C","exampleSet":"first","trial_type":"survey-html-form","trial_index":49,"time_elapsed":1069687,"internal_node_id":"0.0-30.0-0.0","params":{"nStudents":24,"maxFlips":30,"completionMinutes":45,"basePay":8,"maxBonus":9,"perTrialBonus":0.5,"perTrialBonusThreshold":0.05,"exampleCost":0.01},"classroomParams":{"A":{"a":1,"b":4},"B":{"a":4,"b":1},"C":{"a":2,"b":8},"D":{"a":8,"b":2}},"conditions":["nonSeqFull","nonSeqPartial","seqNoFeedback","seqFeedback"],"classroomPairings":[["A","B"],["C","D"]],"coinWeights":[0.2,0.5,0.8],"subjectId":"A1F1BIPJR11LSR","assignmentId":"31QNSG6A5SF7ERMYEI26XM5FFEN78O","hitId":"3UDTAB6HH6LRO17U79I9TKUGSHV90J","url":"https://gershmanlab.com/experiments/alicia/teaching/experiment/?hitId=3UDTAB6HH6LRO17U79I9TKUGSHV90J&workerId=A1F1BIPJR11LSR&assignmentId=31QNSG6A5SF7ERMYEI26XM5FFEN78O&a=ASQ19&tp_a=ASQ19&b=31QNSG6A5SF7ERMYEI26XM5FFEN78O&tp_b=31QNSG6A5SF7ERMYEI26XM5FFEN78O&c=365799&tp_c=365799","heads":8,"tails":2,"studentIndex":4,"studentTrueHypers":{"a":2,"b":8},"studentGuess":0.5,"delta":0.30000000000000004,"totalExamples":10,"bonusSoFar":0.4},{"rt":null,"stimulus":"Sending examples to student... ","response":null,"trial_type":"html-keyboard-response","trial_index":50,"time_elapsed":1071201,"internal_node_id":"0.0-31.0","params":{"nStudents":24,"maxFlips":30,"completionMinutes":45,"basePay":8,"maxBonus":9,"perTrialBonus":0.5,"perTrialBonusThreshold":0.05,"exampleCost":0.01},"classroomParams":{"A":{"a":1,"b":4},"B":{"a":4,"b":1},"C":{"a":2,"b":8},"D":{"a":8,"b":2}},"conditions":["nonSeqFull","nonSeqPartial","seqNoFeedback","seqFeedback"],"classroomPairings":[["A","B"],["C","D"]],"coinWeights":[0.2,0.5,0.8],"subjectId":"A1F1BIPJR11LSR","assignmentId":"31QNSG6A5SF7ERMYEI26XM5FFEN78O","hitId":"3UDTAB6HH6LRO17U79I9TKUGSHV90J","url":"https://gershmanlab.com/experiments/alicia/teaching/experiment/?hitId=3UDTAB6HH6LRO17U79I9TKUGSHV90J&workerId=A1F1BIPJR11LSR&assignmentId=31QNSG6A5SF7ERMYEI26XM5FFEN78O&a=ASQ19&tp_a=ASQ19&b=31QNSG6A5SF7ERMYEI26XM5FFEN78O&tp_b=31QNSG6A5SF7ERMYEI26XM5FFEN78O&c=365799&tp_c=365799"},{"rt":null,"stimulus":"Examples sent to student! Waiting for student...","response":null,"trial_type":"html-keyboard-response","trial_index":51,"time_elapsed":1075715,"internal_node_id":"0.0-32.0","params":{"nStudents":24,"maxFlips":30,"completionMinutes":45,"basePay":8,"maxBonus":9,"perTrialBonus":0.5,"perTrialBonusThreshold":0.05,"exampleCost":0.01},"classroomParams":{"A":{"a":1,"b":4},"B":{"a":4,"b":1},"C":{"a":2,"b":8},"D":{"a":8,"b":2}},"conditions":["nonSeqFull","nonSeqPartial","seqNoFeedback","seqFeedback"],"classroomPairings":[["A","B"],["C","D"]],"coinWeights":[0.2,0.5,0.8],"subjectId":"A1F1BIPJR11LSR","assignmentId":"31QNSG6A5SF7ERMYEI26XM5FFEN78O","hitId":"3UDTAB6HH6LRO17U79I9TKUGSHV90J","url":"https://gershmanlab.com/experiments/alicia/teaching/experiment/?hitId=3UDTAB6HH6LRO17U79I9TKUGSHV90J&workerId=A1F1BIPJR11LSR&assignmentId=31QNSG6A5SF7ERMYEI26XM5FFEN78O&a=ASQ19&tp_a=ASQ19&b=31QNSG6A5SF7ERMYEI26XM5FFEN78O&tp_b=31QNSG6A5SF7ERMYEI26XM5FFEN78O&c=365799&tp_c=365799"},{"rt":8089,"stimulus":"\n                <p>Student's guess for coin weight: <b style=\"color:Tomato;\">0.50</b></p>\n                <p></b></p>\n                <p>You will now send another set of examples to your student. <b>Remember to take your student's guess into consideration so that you can earn the highest bonus possible!</b> </p>\n                <p>Press any key to continue.</p>\n                ","response":" ","trial_type":"html-keyboard-response","trial_index":52,"time_elapsed":1083804,"internal_node_id":"0.0-33.0","params":{"nStudents":24,"maxFlips":30,"completionMinutes":45,"basePay":8,"maxBonus":9,"perTrialBonus":0.5,"perTrialBonusThreshold":0.05,"exampleCost":0.01},"classroomParams":{"A":{"a":1,"b":4},"B":{"a":4,"b":1},"C":{"a":2,"b":8},"D":{"a":8,"b":2}},"conditions":["nonSeqFull","nonSeqPartial","seqNoFeedback","seqFeedback"],"classroomPairings":[["A","B"],["C","D"]],"coinWeights":[0.2,0.5,0.8],"subjectId":"A1F1BIPJR11LSR","assignmentId":"31QNSG6A5SF7ERMYEI26XM5FFEN78O","hitId":"3UDTAB6HH6LRO17U79I9TKUGSHV90J","url":"https://gershmanlab.com/experiments/alicia/teaching/experiment/?hitId=3UDTAB6HH6LRO17U79I9TKUGSHV90J&workerId=A1F1BIPJR11LSR&assignmentId=31QNSG6A5SF7ERMYEI26XM5FFEN78O&a=ASQ19&tp_a=ASQ19&b=31QNSG6A5SF7ERMYEI26XM5FFEN78O&tp_b=31QNSG6A5SF7ERMYEI26XM5FFEN78O&c=365799&tp_c=365799"},{"rt":137767,"response":{"heads":"8","tails":"2"},"type":"response","condition":"seqFeedback","trueTheta":0.8,"classrooms":["C","D"],"studentTrueClassroom":"C","exampleSet":"second","trial_type":"survey-html-form","trial_index":53,"time_elapsed":1221574,"internal_node_id":"0.0-34.0-0.0","params":{"nStudents":24,"maxFlips":30,"completionMinutes":45,"basePay":8,"maxBonus":9,"perTrialBonus":0.5,"perTrialBonusThreshold":0.05,"exampleCost":0.01},"classroomParams":{"A":{"a":1,"b":4},"B":{"a":4,"b":1},"C":{"a":2,"b":8},"D":{"a":8,"b":2}},"conditions":["nonSeqFull","nonSeqPartial","seqNoFeedback","seqFeedback"],"classroomPairings":[["A","B"],["C","D"]],"coinWeights":[0.2,0.5,0.8],"subjectId":"A1F1BIPJR11LSR","assignmentId":"31QNSG6A5SF7ERMYEI26XM5FFEN78O","hitId":"3UDTAB6HH6LRO17U79I9TKUGSHV90J","url":"https://gershmanlab.com/experiments/alicia/teaching/experiment/?hitId=3UDTAB6HH6LRO17U79I9TKUGSHV90J&workerId=A1F1BIPJR11LSR&assignmentId=31QNSG6A5SF7ERMYEI26XM5FFEN78O&a=ASQ19&tp_a=ASQ19&b=31QNSG6A5SF7ERMYEI26XM5FFEN78O&tp_b=31QNSG6A5SF7ERMYEI26XM5FFEN78O&c=365799&tp_c=365799","firstResponseHeads":8,"firstResponseTails":2,"secondResponseHeads":8,"secondResponseTails":2,"totalHeads":16,"totalTails":4,"studentIndex":4,"studentTrueHypers":{"a":2,"b":8},"studentGuess":0.6,"delta":0.20000000000000007,"bonus":0,"bonusSoFar":0.4,"totalExamples":20},{"rt":null,"stimulus":"Sending examples to student... ","response":null,"trial_type":"html-keyboard-response","trial_index":54,"time_elapsed":1223079,"internal_node_id":"0.0-35.0","params":{"nStudents":24,"maxFlips":30,"completionMinutes":45,"basePay":8,"maxBonus":9,"perTrialBonus":0.5,"perTrialBonusThreshold":0.05,"exampleCost":0.01},"classroomParams":{"A":{"a":1,"b":4},"B":{"a":4,"b":1},"C":{"a":2,"b":8},"D":{"a":8,"b":2}},"conditions":["nonSeqFull","nonSeqPartial","seqNoFeedback","seqFeedback"],"classroomPairings":[["A","B"],["C","D"]],"coinWeights":[0.2,0.5,0.8],"subjectId":"A1F1BIPJR11LSR","assignmentId":"31QNSG6A5SF7ERMYEI26XM5FFEN78O","hitId":"3UDTAB6HH6LRO17U79I9TKUGSHV90J","url":"https://gershmanlab.com/experiments/alicia/teaching/experiment/?hitId=3UDTAB6HH6LRO17U79I9TKUGSHV90J&workerId=A1F1BIPJR11LSR&assignmentId=31QNSG6A5SF7ERMYEI26XM5FFEN78O&a=ASQ19&tp_a=ASQ19&b=31QNSG6A5SF7ERMYEI26XM5FFEN78O&tp_b=31QNSG6A5SF7ERMYEI26XM5FFEN78O&c=365799&tp_c=365799"},{"rt":null,"stimulus":"Examples sent to student! Waiting for student...","response":null,"trial_type":"html-keyboard-response","trial_index":55,"time_elapsed":1228099,"internal_node_id":"0.0-36.0","params":{"nStudents":24,"maxFlips":30,"completionMinutes":45,"basePay":8,"maxBonus":9,"perTrialBonus":0.5,"perTrialBonusThreshold":0.05,"exampleCost":0.01},"classroomParams":{"A":{"a":1,"b":4},"B":{"a":4,"b":1},"C":{"a":2,"b":8},"D":{"a":8,"b":2}},"conditions":["nonSeqFull","nonSeqPartial","seqNoFeedback","seqFeedback"],"classroomPairings":[["A","B"],["C","D"]],"coinWeights":[0.2,0.5,0.8],"subjectId":"A1F1BIPJR11LSR","assignmentId":"31QNSG6A5SF7ERMYEI26XM5FFEN78O","hitId":"3UDTAB6HH6LRO17U79I9TKUGSHV90J","url":"https://gershmanlab.com/experiments/alicia/teaching/experiment/?hitId=3UDTAB6HH6LRO17U79I9TKUGSHV90J&workerId=A1F1BIPJR11LSR&assignmentId=31QNSG6A5SF7ERMYEI26XM5FFEN78O&a=ASQ19&tp_a=ASQ19&b=31QNSG6A5SF7ERMYEI26XM5FFEN78O&tp_b=31QNSG6A5SF7ERMYEI26XM5FFEN78O&c=365799&tp_c=365799"},{"rt":null,"stimulus":"\n                <p>Student 5's first guess for coin weight: <b style=\"color:Tomato\";>0.50</b></p>\n                <p>Student 5's second guess for coin weight: <b style=\"color:Tomato\";>0.60</b></p>\n                <p>You received a bonus of <b>$0.00</b> based on the student's second guess.</p>\n                <p>Total bonus so far: <b>$0.40</b></p>\n                <p>Press any key to continue.</p>\n                ","response":null,"trial_type":"html-keyboard-response","trial_index":56,"time_elapsed":1258119,"internal_node_id":"0.0-37.0","params":{"nStudents":24,"maxFlips":30,"completionMinutes":45,"basePay":8,"maxBonus":9,"perTrialBonus":0.5,"perTrialBonusThreshold":0.05,"exampleCost":0.01},"classroomParams":{"A":{"a":1,"b":4},"B":{"a":4,"b":1},"C":{"a":2,"b":8},"D":{"a":8,"b":2}},"conditions":["nonSeqFull","nonSeqPartial","seqNoFeedback","seqFeedback"],"classroomPairings":[["A","B"],["C","D"]],"coinWeights":[0.2,0.5,0.8],"subjectId":"A1F1BIPJR11LSR","assignmentId":"31QNSG6A5SF7ERMYEI26XM5FFEN78O","hitId":"3UDTAB6HH6LRO17U79I9TKUGSHV90J","url":"https://gershmanlab.com/experiments/alicia/teaching/experiment/?hitId=3UDTAB6HH6LRO17U79I9TKUGSHV90J&workerId=A1F1BIPJR11LSR&assignmentId=31QNSG6A5SF7ERMYEI26XM5FFEN78O&a=ASQ19&tp_a=ASQ19&b=31QNSG6A5SF7ERMYEI26XM5FFEN78O&tp_b=31QNSG6A5SF7ERMYEI26XM5FFEN78O&c=365799&tp_c=365799"},{"rt":null,"stimulus":"<div style=\"font-size:60px;\">Next student</div>","response":null,"trial_type":"html-keyboard-response","trial_index":57,"time_elapsed":1260129,"internal_node_id":"0.0-38.0-0.0","params":{"nStudents":24,"maxFlips":30,"completionMinutes":45,"basePay":8,"maxBonus":9,"perTrialBonus":0.5,"perTrialBonusThreshold":0.05,"exampleCost":0.01},"classroomParams":{"A":{"a":1,"b":4},"B":{"a":4,"b":1},"C":{"a":2,"b":8},"D":{"a":8,"b":2}},"conditions":["nonSeqFull","nonSeqPartial","seqNoFeedback","seqFeedback"],"classroomPairings":[["A","B"],["C","D"]],"coinWeights":[0.2,0.5,0.8],"subjectId":"A1F1BIPJR11LSR","assignmentId":"31QNSG6A5SF7ERMYEI26XM5FFEN78O","hitId":"3UDTAB6HH6LRO17U79I9TKUGSHV90J","url":"https://gershmanlab.com/experiments/alicia/teaching/experiment/?hitId=3UDTAB6HH6LRO17U79I9TKUGSHV90J&workerId=A1F1BIPJR11LSR&assignmentId=31QNSG6A5SF7ERMYEI26XM5FFEN78O&a=ASQ19&tp_a=ASQ19&b=31QNSG6A5SF7ERMYEI26XM5FFEN78O&tp_b=31QNSG6A5SF7ERMYEI26XM5FFEN78O&c=365799&tp_c=365799"},{"rt":458629,"stimulus":"\n            <h4 style=\"color:Orange;\">Student 6</h4>\n            <h2>The weight of your coin is <b style=\"color:Tomato;\">0.5</b>.</h2>\n            <p>In this block, you will be giving <b>one</b> set of examples to Student 6.</p>\n                <p>You will receive feedback at the end of the block.</p>\n            <p></p>","response":0,"trial_type":"html-button-response","trial_index":58,"time_elapsed":1718759,"internal_node_id":"0.0-39.0","params":{"nStudents":24,"maxFlips":30,"completionMinutes":45,"basePay":8,"maxBonus":9,"perTrialBonus":0.5,"perTrialBonusThreshold":0.05,"exampleCost":0.01},"classroomParams":{"A":{"a":1,"b":4},"B":{"a":4,"b":1},"C":{"a":2,"b":8},"D":{"a":8,"b":2}},"conditions":["nonSeqFull","nonSeqPartial","seqNoFeedback","seqFeedback"],"classroomPairings":[["A","B"],["C","D"]],"coinWeights":[0.2,0.5,0.8],"subjectId":"A1F1BIPJR11LSR","assignmentId":"31QNSG6A5SF7ERMYEI26XM5FFEN78O","hitId":"3UDTAB6HH6LRO17U79I9TKUGSHV90J","url":"https://gershmanlab.com/experiments/alicia/teaching/experiment/?hitId=3UDTAB6HH6LRO17U79I9TKUGSHV90J&workerId=A1F1BIPJR11LSR&assignmentId=31QNSG6A5SF7ERMYEI26XM5FFEN78O&a=ASQ19&tp_a=ASQ19&b=31QNSG6A5SF7ERMYEI26XM5FFEN78O&tp_b=31QNSG6A5SF7ERMYEI26XM5FFEN78O&c=365799&tp_c=365799"},{"rt":13789,"response":{"heads":"5","tails":"5"},"type":"response","condition":"nonSeqPartial","trueTheta":0.5,"classrooms":["A","B"],"studentTrueClassroom":"B","exampleSet":"first","trial_type":"survey-html-form","trial_index":59,"time_elapsed":1732554,"internal_node_id":"0.0-40.0-0.0","params":{"nStudents":24,"maxFlips":30,"completionMinutes":45,"basePay":8,"maxBonus":9,"perTrialBonus":0.5,"perTrialBonusThreshold":0.05,"exampleCost":0.01},"classroomParams":{"A":{"a":1,"b":4},"B":{"a":4,"b":1},"C":{"a":2,"b":8},"D":{"a":8,"b":2}},"conditions":["nonSeqFull","nonSeqPartial","seqNoFeedback","seqFeedback"],"classroomPairings":[["A","B"],["C","D"]],"coinWeights":[0.2,0.5,0.8],"subjectId":"A1F1BIPJR11LSR","assignmentId":"31QNSG6A5SF7ERMYEI26XM5FFEN78O","hitId":"3UDTAB6HH6LRO17U79I9TKUGSHV90J","url":"https://gershmanlab.com/experiments/alicia/teaching/experiment/?hitId=3UDTAB6HH6LRO17U79I9TKUGSHV90J&workerId=A1F1BIPJR11LSR&assignmentId=31QNSG6A5SF7ERMYEI26XM5FFEN78O&a=ASQ19&tp_a=ASQ19&b=31QNSG6A5SF7ERMYEI26XM5FFEN78O&tp_b=31QNSG6A5SF7ERMYEI26XM5FFEN78O&c=365799&tp_c=365799","heads":5,"tails":5,"studentIndex":5,"studentTrueHypers":{"a":4,"b":1},"studentGuess":0.6,"delta":0.09999999999999998,"totalExamples":10,"bonus":0,"bonusSoFar":0.4},{"rt":null,"stimulus":"Sending examples to student... ","response":null,"trial_type":"html-keyboard-response","trial_index":60,"time_elapsed":1734063,"internal_node_id":"0.0-41.0","params":{"nStudents":24,"maxFlips":30,"completionMinutes":45,"basePay":8,"maxBonus":9,"perTrialBonus":0.5,"perTrialBonusThreshold":0.05,"exampleCost":0.01},"classroomParams":{"A":{"a":1,"b":4},"B":{"a":4,"b":1},"C":{"a":2,"b":8},"D":{"a":8,"b":2}},"conditions":["nonSeqFull","nonSeqPartial","seqNoFeedback","seqFeedback"],"classroomPairings":[["A","B"],["C","D"]],"coinWeights":[0.2,0.5,0.8],"subjectId":"A1F1BIPJR11LSR","assignmentId":"31QNSG6A5SF7ERMYEI26XM5FFEN78O","hitId":"3UDTAB6HH6LRO17U79I9TKUGSHV90J","url":"https://gershmanlab.com/experiments/alicia/teaching/experiment/?hitId=3UDTAB6HH6LRO17U79I9TKUGSHV90J&workerId=A1F1BIPJR11LSR&assignmentId=31QNSG6A5SF7ERMYEI26XM5FFEN78O&a=ASQ19&tp_a=ASQ19&b=31QNSG6A5SF7ERMYEI26XM5FFEN78O&tp_b=31QNSG6A5SF7ERMYEI26XM5FFEN78O&c=365799&tp_c=365799"},{"rt":null,"stimulus":"Examples sent to student! Waiting for student...","response":null,"trial_type":"html-keyboard-response","trial_index":61,"time_elapsed":1740073,"internal_node_id":"0.0-42.0","params":{"nStudents":24,"maxFlips":30,"completionMinutes":45,"basePay":8,"maxBonus":9,"perTrialBonus":0.5,"perTrialBonusThreshold":0.05,"exampleCost":0.01},"classroomParams":{"A":{"a":1,"b":4},"B":{"a":4,"b":1},"C":{"a":2,"b":8},"D":{"a":8,"b":2}},"conditions":["nonSeqFull","nonSeqPartial","seqNoFeedback","seqFeedback"],"classroomPairings":[["A","B"],["C","D"]],"coinWeights":[0.2,0.5,0.8],"subjectId":"A1F1BIPJR11LSR","assignmentId":"31QNSG6A5SF7ERMYEI26XM5FFEN78O","hitId":"3UDTAB6HH6LRO17U79I9TKUGSHV90J","url":"https://gershmanlab.com/experiments/alicia/teaching/experiment/?hitId=3UDTAB6HH6LRO17U79I9TKUGSHV90J&workerId=A1F1BIPJR11LSR&assignmentId=31QNSG6A5SF7ERMYEI26XM5FFEN78O&a=ASQ19&tp_a=ASQ19&b=31QNSG6A5SF7ERMYEI26XM5FFEN78O&tp_b=31QNSG6A5SF7ERMYEI26XM5FFEN78O&c=365799&tp_c=365799"},{"rt":8121,"stimulus":"\n                <p>Student's guess for coin weight: <b style=\"color:Tomato;\">0.60</b></p>\n                <p>You received a bonus of <b>$0</b>. Total bonus so far: <b>$0.40</b></b></p>\n                <p></p>\n                <p>Press any key to continue.</p>\n                ","response":" ","trial_type":"html-keyboard-response","trial_index":62,"time_elapsed":1748196,"internal_node_id":"0.0-43.0","params":{"nStudents":24,"maxFlips":30,"completionMinutes":45,"basePay":8,"maxBonus":9,"perTrialBonus":0.5,"perTrialBonusThreshold":0.05,"exampleCost":0.01},"classroomParams":{"A":{"a":1,"b":4},"B":{"a":4,"b":1},"C":{"a":2,"b":8},"D":{"a":8,"b":2}},"conditions":["nonSeqFull","nonSeqPartial","seqNoFeedback","seqFeedback"],"classroomPairings":[["A","B"],["C","D"]],"coinWeights":[0.2,0.5,0.8],"subjectId":"A1F1BIPJR11LSR","assignmentId":"31QNSG6A5SF7ERMYEI26XM5FFEN78O","hitId":"3UDTAB6HH6LRO17U79I9TKUGSHV90J","url":"https://gershmanlab.com/experiments/alicia/teaching/experiment/?hitId=3UDTAB6HH6LRO17U79I9TKUGSHV90J&workerId=A1F1BIPJR11LSR&assignmentId=31QNSG6A5SF7ERMYEI26XM5FFEN78O&a=ASQ19&tp_a=ASQ19&b=31QNSG6A5SF7ERMYEI26XM5FFEN78O&tp_b=31QNSG6A5SF7ERMYEI26XM5FFEN78O&c=365799&tp_c=365799"},{"rt":null,"stimulus":"<div style=\"font-size:60px;\">Next student</div>","response":null,"trial_type":"html-keyboard-response","trial_index":63,"time_elapsed":1750453,"internal_node_id":"0.0-44.0-0.0","params":{"nStudents":24,"maxFlips":30,"completionMinutes":45,"basePay":8,"maxBonus":9,"perTrialBonus":0.5,"perTrialBonusThreshold":0.05,"exampleCost":0.01},"classroomParams":{"A":{"a":1,"b":4},"B":{"a":4,"b":1},"C":{"a":2,"b":8},"D":{"a":8,"b":2}},"conditions":["nonSeqFull","nonSeqPartial","seqNoFeedback","seqFeedback"],"classroomPairings":[["A","B"],["C","D"]],"coinWeights":[0.2,0.5,0.8],"subjectId":"A1F1BIPJR11LSR","assignmentId":"31QNSG6A5SF7ERMYEI26XM5FFEN78O","hitId":"3UDTAB6HH6LRO17U79I9TKUGSHV90J","url":"https://gershmanlab.com/experiments/alicia/teaching/experiment/?hitId=3UDTAB6HH6LRO17U79I9TKUGSHV90J&workerId=A1F1BIPJR11LSR&assignmentId=31QNSG6A5SF7ERMYEI26XM5FFEN78O&a=ASQ19&tp_a=ASQ19&b=31QNSG6A5SF7ERMYEI26XM5FFEN78O&tp_b=31QNSG6A5SF7ERMYEI26XM5FFEN78O&c=365799&tp_c=365799"},{"rt":4288,"stimulus":"\n            <h4 style=\"color:Orange;\">Student 7</h4>\n            <h2>The weight of your coin is <b style=\"color:Tomato;\">0.5</b>.</h2>\n            <p>In this block, you will be giving <b>two</b> sets of examples to Student 7.</p>\n                <p>You will see the student's guess after the first set of examples. You will also receive feedback at the end of the block.</p>\n            <p>To earn the highest bonus, you will have to <b>take into consideration the student's guess</b> when you choose your second set of examples.</p>","response":0,"trial_type":"html-button-response","trial_index":64,"time_elapsed":1754742,"internal_node_id":"0.0-45.0","params":{"nStudents":24,"maxFlips":30,"completionMinutes":45,"basePay":8,"maxBonus":9,"perTrialBonus":0.5,"perTrialBonusThreshold":0.05,"exampleCost":0.01},"classroomParams":{"A":{"a":1,"b":4},"B":{"a":4,"b":1},"C":{"a":2,"b":8},"D":{"a":8,"b":2}},"conditions":["nonSeqFull","nonSeqPartial","seqNoFeedback","seqFeedback"],"classroomPairings":[["A","B"],["C","D"]],"coinWeights":[0.2,0.5,0.8],"subjectId":"A1F1BIPJR11LSR","assignmentId":"31QNSG6A5SF7ERMYEI26XM5FFEN78O","hitId":"3UDTAB6HH6LRO17U79I9TKUGSHV90J","url":"https://gershmanlab.com/experiments/alicia/teaching/experiment/?hitId=3UDTAB6HH6LRO17U79I9TKUGSHV90J&workerId=A1F1BIPJR11LSR&assignmentId=31QNSG6A5SF7ERMYEI26XM5FFEN78O&a=ASQ19&tp_a=ASQ19&b=31QNSG6A5SF7ERMYEI26XM5FFEN78O&tp_b=31QNSG6A5SF7ERMYEI26XM5FFEN78O&c=365799&tp_c=365799"},{"rt":15109,"response":{"heads":"7","tails":"7"},"type":"response","condition":"seqFeedback","trueTheta":0.5,"classrooms":["C","D"],"studentTrueClassroom":"C","exampleSet":"first","trial_type":"survey-html-form","trial_index":65,"time_elapsed":1769858,"internal_node_id":"0.0-46.0-0.0","params":{"nStudents":24,"maxFlips":30,"completionMinutes":45,"basePay":8,"maxBonus":9,"perTrialBonus":0.5,"perTrialBonusThreshold":0.05,"exampleCost":0.01},"classroomParams":{"A":{"a":1,"b":4},"B":{"a":4,"b":1},"C":{"a":2,"b":8},"D":{"a":8,"b":2}},"conditions":["nonSeqFull","nonSeqPartial","seqNoFeedback","seqFeedback"],"classroomPairings":[["A","B"],["C","D"]],"coinWeights":[0.2,0.5,0.8],"subjectId":"A1F1BIPJR11LSR","assignmentId":"31QNSG6A5SF7ERMYEI26XM5FFEN78O","hitId":"3UDTAB6HH6LRO17U79I9TKUGSHV90J","url":"https://gershmanlab.com/experiments/alicia/teaching/experiment/?hitId=3UDTAB6HH6LRO17U79I9TKUGSHV90J&workerId=A1F1BIPJR11LSR&assignmentId=31QNSG6A5SF7ERMYEI26XM5FFEN78O&a=ASQ19&tp_a=ASQ19&b=31QNSG6A5SF7ERMYEI26XM5FFEN78O&tp_b=31QNSG6A5SF7ERMYEI26XM5FFEN78O&c=365799&tp_c=365799","heads":7,"tails":7,"studentIndex":6,"studentTrueHypers":{"a":2,"b":8},"studentGuess":0.375,"delta":0.125,"totalExamples":14,"bonusSoFar":0.4},{"rt":null,"stimulus":"Sending examples to student... ","response":null,"trial_type":"html-keyboard-response","trial_index":66,"time_elapsed":1771862,"internal_node_id":"0.0-47.0","params":{"nStudents":24,"maxFlips":30,"completionMinutes":45,"basePay":8,"maxBonus":9,"perTrialBonus":0.5,"perTrialBonusThreshold":0.05,"exampleCost":0.01},"classroomParams":{"A":{"a":1,"b":4},"B":{"a":4,"b":1},"C":{"a":2,"b":8},"D":{"a":8,"b":2}},"conditions":["nonSeqFull","nonSeqPartial","seqNoFeedback","seqFeedback"],"classroomPairings":[["A","B"],["C","D"]],"coinWeights":[0.2,0.5,0.8],"subjectId":"A1F1BIPJR11LSR","assignmentId":"31QNSG6A5SF7ERMYEI26XM5FFEN78O","hitId":"3UDTAB6HH6LRO17U79I9TKUGSHV90J","url":"https://gershmanlab.com/experiments/alicia/teaching/experiment/?hitId=3UDTAB6HH6LRO17U79I9TKUGSHV90J&workerId=A1F1BIPJR11LSR&assignmentId=31QNSG6A5SF7ERMYEI26XM5FFEN78O&a=ASQ19&tp_a=ASQ19&b=31QNSG6A5SF7ERMYEI26XM5FFEN78O&tp_b=31QNSG6A5SF7ERMYEI26XM5FFEN78O&c=365799&tp_c=365799"},{"rt":null,"stimulus":"Examples sent to student! Waiting for student...","response":null,"trial_type":"html-keyboard-response","trial_index":67,"time_elapsed":1776383,"internal_node_id":"0.0-48.0","params":{"nStudents":24,"maxFlips":30,"completionMinutes":45,"basePay":8,"maxBonus":9,"perTrialBonus":0.5,"perTrialBonusThreshold":0.05,"exampleCost":0.01},"classroomParams":{"A":{"a":1,"b":4},"B":{"a":4,"b":1},"C":{"a":2,"b":8},"D":{"a":8,"b":2}},"conditions":["nonSeqFull","nonSeqPartial","seqNoFeedback","seqFeedback"],"classroomPairings":[["A","B"],["C","D"]],"coinWeights":[0.2,0.5,0.8],"subjectId":"A1F1BIPJR11LSR","assignmentId":"31QNSG6A5SF7ERMYEI26XM5FFEN78O","hitId":"3UDTAB6HH6LRO17U79I9TKUGSHV90J","url":"https://gershmanlab.com/experiments/alicia/teaching/experiment/?hitId=3UDTAB6HH6LRO17U79I9TKUGSHV90J&workerId=A1F1BIPJR11LSR&assignmentId=31QNSG6A5SF7ERMYEI26XM5FFEN78O&a=ASQ19&tp_a=ASQ19&b=31QNSG6A5SF7ERMYEI26XM5FFEN78O&tp_b=31QNSG6A5SF7ERMYEI26XM5FFEN78O&c=365799&tp_c=365799"},{"rt":11373,"stimulus":"\n                <p>Student's guess for coin weight: <b style=\"color:Tomato;\">0.38</b></p>\n                <p></b></p>\n                <p>You will now send another set of examples to your student. <b>Remember to take your student's guess into consideration so that you can earn the highest bonus possible!</b> </p>\n                <p>Press any key to continue.</p>\n                ","response":" ","trial_type":"html-keyboard-response","trial_index":68,"time_elapsed":1787756,"internal_node_id":"0.0-49.0","params":{"nStudents":24,"maxFlips":30,"completionMinutes":45,"basePay":8,"maxBonus":9,"perTrialBonus":0.5,"perTrialBonusThreshold":0.05,"exampleCost":0.01},"classroomParams":{"A":{"a":1,"b":4},"B":{"a":4,"b":1},"C":{"a":2,"b":8},"D":{"a":8,"b":2}},"conditions":["nonSeqFull","nonSeqPartial","seqNoFeedback","seqFeedback"],"classroomPairings":[["A","B"],["C","D"]],"coinWeights":[0.2,0.5,0.8],"subjectId":"A1F1BIPJR11LSR","assignmentId":"31QNSG6A5SF7ERMYEI26XM5FFEN78O","hitId":"3UDTAB6HH6LRO17U79I9TKUGSHV90J","url":"https://gershmanlab.com/experiments/alicia/teaching/experiment/?hitId=3UDTAB6HH6LRO17U79I9TKUGSHV90J&workerId=A1F1BIPJR11LSR&assignmentId=31QNSG6A5SF7ERMYEI26XM5FFEN78O&a=ASQ19&tp_a=ASQ19&b=31QNSG6A5SF7ERMYEI26XM5FFEN78O&tp_b=31QNSG6A5SF7ERMYEI26XM5FFEN78O&c=365799&tp_c=365799"},{"rt":25009,"response":{"heads":"8","tails":"5"},"type":"response","condition":"seqFeedback","trueTheta":0.5,"classrooms":["C","D"],"studentTrueClassroom":"C","exampleSet":"second","trial_type":"survey-html-form","trial_index":69,"time_elapsed":1812770,"internal_node_id":"0.0-50.0-0.0","params":{"nStudents":24,"maxFlips":30,"completionMinutes":45,"basePay":8,"maxBonus":9,"perTrialBonus":0.5,"perTrialBonusThreshold":0.05,"exampleCost":0.01},"classroomParams":{"A":{"a":1,"b":4},"B":{"a":4,"b":1},"C":{"a":2,"b":8},"D":{"a":8,"b":2}},"conditions":["nonSeqFull","nonSeqPartial","seqNoFeedback","seqFeedback"],"classroomPairings":[["A","B"],["C","D"]],"coinWeights":[0.2,0.5,0.8],"subjectId":"A1F1BIPJR11LSR","assignmentId":"31QNSG6A5SF7ERMYEI26XM5FFEN78O","hitId":"3UDTAB6HH6LRO17U79I9TKUGSHV90J","url":"https://gershmanlab.com/experiments/alicia/teaching/experiment/?hitId=3UDTAB6HH6LRO17U79I9TKUGSHV90J&workerId=A1F1BIPJR11LSR&assignmentId=31QNSG6A5SF7ERMYEI26XM5FFEN78O&a=ASQ19&tp_a=ASQ19&b=31QNSG6A5SF7ERMYEI26XM5FFEN78O&tp_b=31QNSG6A5SF7ERMYEI26XM5FFEN78O&c=365799&tp_c=365799","firstResponseHeads":7,"firstResponseTails":7,"secondResponseHeads":8,"secondResponseTails":5,"totalHeads":15,"totalTails":12,"studentIndex":6,"studentTrueHypers":{"a":2,"b":8},"studentGuess":0.4594594594594595,"delta":0.040540540540540515,"bonus":0.23,"bonusSoFar":0.63,"totalExamples":27},{"rt":null,"stimulus":"Sending examples to student... ","response":null,"trial_type":"html-keyboard-response","trial_index":70,"time_elapsed":1814522,"internal_node_id":"0.0-51.0","params":{"nStudents":24,"maxFlips":30,"completionMinutes":45,"basePay":8,"maxBonus":9,"perTrialBonus":0.5,"perTrialBonusThreshold":0.05,"exampleCost":0.01},"classroomParams":{"A":{"a":1,"b":4},"B":{"a":4,"b":1},"C":{"a":2,"b":8},"D":{"a":8,"b":2}},"conditions":["nonSeqFull","nonSeqPartial","seqNoFeedback","seqFeedback"],"classroomPairings":[["A","B"],["C","D"]],"coinWeights":[0.2,0.5,0.8],"subjectId":"A1F1BIPJR11LSR","assignmentId":"31QNSG6A5SF7ERMYEI26XM5FFEN78O","hitId":"3UDTAB6HH6LRO17U79I9TKUGSHV90J","url":"https://gershmanlab.com/experiments/alicia/teaching/experiment/?hitId=3UDTAB6HH6LRO17U79I9TKUGSHV90J&workerId=A1F1BIPJR11LSR&assignmentId=31QNSG6A5SF7ERMYEI26XM5FFEN78O&a=ASQ19&tp_a=ASQ19&b=31QNSG6A5SF7ERMYEI26XM5FFEN78O&tp_b=31QNSG6A5SF7ERMYEI26XM5FFEN78O&c=365799&tp_c=365799"},{"rt":null,"stimulus":"Examples sent to student! Waiting for student...","response":null,"trial_type":"html-keyboard-response","trial_index":71,"time_elapsed":1819539,"internal_node_id":"0.0-52.0","params":{"nStudents":24,"maxFlips":30,"completionMinutes":45,"basePay":8,"maxBonus":9,"perTrialBonus":0.5,"perTrialBonusThreshold":0.05,"exampleCost":0.01},"classroomParams":{"A":{"a":1,"b":4},"B":{"a":4,"b":1},"C":{"a":2,"b":8},"D":{"a":8,"b":2}},"conditions":["nonSeqFull","nonSeqPartial","seqNoFeedback","seqFeedback"],"classroomPairings":[["A","B"],["C","D"]],"coinWeights":[0.2,0.5,0.8],"subjectId":"A1F1BIPJR11LSR","assignmentId":"31QNSG6A5SF7ERMYEI26XM5FFEN78O","hitId":"3UDTAB6HH6LRO17U79I9TKUGSHV90J","url":"https://gershmanlab.com/experiments/alicia/teaching/experiment/?hitId=3UDTAB6HH6LRO17U79I9TKUGSHV90J&workerId=A1F1BIPJR11LSR&assignmentId=31QNSG6A5SF7ERMYEI26XM5FFEN78O&a=ASQ19&tp_a=ASQ19&b=31QNSG6A5SF7ERMYEI26XM5FFEN78O&tp_b=31QNSG6A5SF7ERMYEI26XM5FFEN78O&c=365799&tp_c=365799"},{"rt":9263,"stimulus":"\n                <p>Student 7's first guess for coin weight: <b style=\"color:Tomato\";>0.38</b></p>\n                <p>Student 7's second guess for coin weight: <b style=\"color:Tomato\";>0.46</b></p>\n                <p>You received a bonus of <b>$0.23</b> based on the student's second guess.</p>\n                <p>Total bonus so far: <b>$0.63</b></p>\n                <p>Press any key to continue.</p>\n                ","response":" ","trial_type":"html-keyboard-response","trial_index":72,"time_elapsed":1828804,"internal_node_id":"0.0-53.0","params":{"nStudents":24,"maxFlips":30,"completionMinutes":45,"basePay":8,"maxBonus":9,"perTrialBonus":0.5,"perTrialBonusThreshold":0.05,"exampleCost":0.01},"classroomParams":{"A":{"a":1,"b":4},"B":{"a":4,"b":1},"C":{"a":2,"b":8},"D":{"a":8,"b":2}},"conditions":["nonSeqFull","nonSeqPartial","seqNoFeedback","seqFeedback"],"classroomPairings":[["A","B"],["C","D"]],"coinWeights":[0.2,0.5,0.8],"subjectId":"A1F1BIPJR11LSR","assignmentId":"31QNSG6A5SF7ERMYEI26XM5FFEN78O","hitId":"3UDTAB6HH6LRO17U79I9TKUGSHV90J","url":"https://gershmanlab.com/experiments/alicia/teaching/experiment/?hitId=3UDTAB6HH6LRO17U79I9TKUGSHV90J&workerId=A1F1BIPJR11LSR&assignmentId=31QNSG6A5SF7ERMYEI26XM5FFEN78O&a=ASQ19&tp_a=ASQ19&b=31QNSG6A5SF7ERMYEI26XM5FFEN78O&tp_b=31QNSG6A5SF7ERMYEI26XM5FFEN78O&c=365799&tp_c=365799"},{"rt":null,"stimulus":"<div style=\"font-size:60px;\">Next student</div>","response":null,"trial_type":"html-keyboard-response","trial_index":73,"time_elapsed":1830822,"internal_node_id":"0.0-54.0-0.0","params":{"nStudents":24,"maxFlips":30,"completionMinutes":45,"basePay":8,"maxBonus":9,"perTrialBonus":0.5,"perTrialBonusThreshold":0.05,"exampleCost":0.01},"classroomParams":{"A":{"a":1,"b":4},"B":{"a":4,"b":1},"C":{"a":2,"b":8},"D":{"a":8,"b":2}},"conditions":["nonSeqFull","nonSeqPartial","seqNoFeedback","seqFeedback"],"classroomPairings":[["A","B"],["C","D"]],"coinWeights":[0.2,0.5,0.8],"subjectId":"A1F1BIPJR11LSR","assignmentId":"31QNSG6A5SF7ERMYEI26XM5FFEN78O","hitId":"3UDTAB6HH6LRO17U79I9TKUGSHV90J","url":"https://gershmanlab.com/experiments/alicia/teaching/experiment/?hitId=3UDTAB6HH6LRO17U79I9TKUGSHV90J&workerId=A1F1BIPJR11LSR&assignmentId=31QNSG6A5SF7ERMYEI26XM5FFEN78O&a=ASQ19&tp_a=ASQ19&b=31QNSG6A5SF7ERMYEI26XM5FFEN78O&tp_b=31QNSG6A5SF7ERMYEI26XM5FFEN78O&c=365799&tp_c=365799"},{"rt":1347,"stimulus":"\n            <h4 style=\"color:Orange;\">Student 8</h4>\n            <h2>The weight of your coin is <b style=\"color:Tomato;\">0.2</b>.</h2>\n            <p>In this block, you will be giving <b>two</b> sets of examples to Student 8.</p>\n                <p>You will receive feedback at the end of the block.</p>\n            <p></p>","response":0,"trial_type":"html-button-response","trial_index":74,"time_elapsed":1832169,"internal_node_id":"0.0-55.0","params":{"nStudents":24,"maxFlips":30,"completionMinutes":45,"basePay":8,"maxBonus":9,"perTrialBonus":0.5,"perTrialBonusThreshold":0.05,"exampleCost":0.01},"classroomParams":{"A":{"a":1,"b":4},"B":{"a":4,"b":1},"C":{"a":2,"b":8},"D":{"a":8,"b":2}},"conditions":["nonSeqFull","nonSeqPartial","seqNoFeedback","seqFeedback"],"classroomPairings":[["A","B"],["C","D"]],"coinWeights":[0.2,0.5,0.8],"subjectId":"A1F1BIPJR11LSR","assignmentId":"31QNSG6A5SF7ERMYEI26XM5FFEN78O","hitId":"3UDTAB6HH6LRO17U79I9TKUGSHV90J","url":"https://gershmanlab.com/experiments/alicia/teaching/experiment/?hitId=3UDTAB6HH6LRO17U79I9TKUGSHV90J&workerId=A1F1BIPJR11LSR&assignmentId=31QNSG6A5SF7ERMYEI26XM5FFEN78O&a=ASQ19&tp_a=ASQ19&b=31QNSG6A5SF7ERMYEI26XM5FFEN78O&tp_b=31QNSG6A5SF7ERMYEI26XM5FFEN78O&c=365799&tp_c=365799"},{"rt":10318,"response":{"heads":"2","tails":"8"},"type":"response","condition":"seqNoFeedback","trueTheta":0.2,"classrooms":["C","D"],"studentTrueClassroom":"C","exampleSet":"first","trial_type":"survey-html-form","trial_index":75,"time_elapsed":1842492,"internal_node_id":"0.0-56.0-0.0","params":{"nStudents":24,"maxFlips":30,"completionMinutes":45,"basePay":8,"maxBonus":9,"perTrialBonus":0.5,"perTrialBonusThreshold":0.05,"exampleCost":0.01},"classroomParams":{"A":{"a":1,"b":4},"B":{"a":4,"b":1},"C":{"a":2,"b":8},"D":{"a":8,"b":2}},"conditions":["nonSeqFull","nonSeqPartial","seqNoFeedback","seqFeedback"],"classroomPairings":[["A","B"],["C","D"]],"coinWeights":[0.2,0.5,0.8],"subjectId":"A1F1BIPJR11LSR","assignmentId":"31QNSG6A5SF7ERMYEI26XM5FFEN78O","hitId":"3UDTAB6HH6LRO17U79I9TKUGSHV90J","url":"https://gershmanlab.com/experiments/alicia/teaching/experiment/?hitId=3UDTAB6HH6LRO17U79I9TKUGSHV90J&workerId=A1F1BIPJR11LSR&assignmentId=31QNSG6A5SF7ERMYEI26XM5FFEN78O&a=ASQ19&tp_a=ASQ19&b=31QNSG6A5SF7ERMYEI26XM5FFEN78O&tp_b=31QNSG6A5SF7ERMYEI26XM5FFEN78O&c=365799&tp_c=365799","heads":2,"tails":8,"studentIndex":7,"studentTrueHypers":{"a":2,"b":8},"studentGuess":0.2,"delta":0,"totalExamples":10,"bonusSoFar":0.63},{"rt":null,"stimulus":"Sending examples to student... ","response":null,"trial_type":"html-keyboard-response","trial_index":76,"time_elapsed":1843762,"internal_node_id":"0.0-57.0","params":{"nStudents":24,"maxFlips":30,"completionMinutes":45,"basePay":8,"maxBonus":9,"perTrialBonus":0.5,"perTrialBonusThreshold":0.05,"exampleCost":0.01},"classroomParams":{"A":{"a":1,"b":4},"B":{"a":4,"b":1},"C":{"a":2,"b":8},"D":{"a":8,"b":2}},"conditions":["nonSeqFull","nonSeqPartial","seqNoFeedback","seqFeedback"],"classroomPairings":[["A","B"],["C","D"]],"coinWeights":[0.2,0.5,0.8],"subjectId":"A1F1BIPJR11LSR","assignmentId":"31QNSG6A5SF7ERMYEI26XM5FFEN78O","hitId":"3UDTAB6HH6LRO17U79I9TKUGSHV90J","url":"https://gershmanlab.com/experiments/alicia/teaching/experiment/?hitId=3UDTAB6HH6LRO17U79I9TKUGSHV90J&workerId=A1F1BIPJR11LSR&assignmentId=31QNSG6A5SF7ERMYEI26XM5FFEN78O&a=ASQ19&tp_a=ASQ19&b=31QNSG6A5SF7ERMYEI26XM5FFEN78O&tp_b=31QNSG6A5SF7ERMYEI26XM5FFEN78O&c=365799&tp_c=365799"},{"rt":null,"stimulus":"Examples sent to student! Waiting for student...","response":null,"trial_type":"html-keyboard-response","trial_index":77,"time_elapsed":1848281,"internal_node_id":"0.0-58.0","params":{"nStudents":24,"maxFlips":30,"completionMinutes":45,"basePay":8,"maxBonus":9,"perTrialBonus":0.5,"perTrialBonusThreshold":0.05,"exampleCost":0.01},"classroomParams":{"A":{"a":1,"b":4},"B":{"a":4,"b":1},"C":{"a":2,"b":8},"D":{"a":8,"b":2}},"conditions":["nonSeqFull","nonSeqPartial","seqNoFeedback","seqFeedback"],"classroomPairings":[["A","B"],["C","D"]],"coinWeights":[0.2,0.5,0.8],"subjectId":"A1F1BIPJR11LSR","assignmentId":"31QNSG6A5SF7ERMYEI26XM5FFEN78O","hitId":"3UDTAB6HH6LRO17U79I9TKUGSHV90J","url":"https://gershmanlab.com/experiments/alicia/teaching/experiment/?hitId=3UDTAB6HH6LRO17U79I9TKUGSHV90J&workerId=A1F1BIPJR11LSR&assignmentId=31QNSG6A5SF7ERMYEI26XM5FFEN78O&a=ASQ19&tp_a=ASQ19&b=31QNSG6A5SF7ERMYEI26XM5FFEN78O&tp_b=31QNSG6A5SF7ERMYEI26XM5FFEN78O&c=365799&tp_c=365799"},{"rt":12706,"response":{"heads":"2","tails":"8"},"type":"response","condition":"seqNoFeedback","trueTheta":0.2,"classrooms":["C","D"],"studentTrueClassroom":"C","exampleSet":"second","trial_type":"survey-html-form","trial_index":78,"time_elapsed":1860992,"internal_node_id":"0.0-59.0-0.0","params":{"nStudents":24,"maxFlips":30,"completionMinutes":45,"basePay":8,"maxBonus":9,"perTrialBonus":0.5,"perTrialBonusThreshold":0.05,"exampleCost":0.01},"classroomParams":{"A":{"a":1,"b":4},"B":{"a":4,"b":1},"C":{"a":2,"b":8},"D":{"a":8,"b":2}},"conditions":["nonSeqFull","nonSeqPartial","seqNoFeedback","seqFeedback"],"classroomPairings":[["A","B"],["C","D"]],"coinWeights":[0.2,0.5,0.8],"subjectId":"A1F1BIPJR11LSR","assignmentId":"31QNSG6A5SF7ERMYEI26XM5FFEN78O","hitId":"3UDTAB6HH6LRO17U79I9TKUGSHV90J","url":"https://gershmanlab.com/experiments/alicia/teaching/experiment/?hitId=3UDTAB6HH6LRO17U79I9TKUGSHV90J&workerId=A1F1BIPJR11LSR&assignmentId=31QNSG6A5SF7ERMYEI26XM5FFEN78O&a=ASQ19&tp_a=ASQ19&b=31QNSG6A5SF7ERMYEI26XM5FFEN78O&tp_b=31QNSG6A5SF7ERMYEI26XM5FFEN78O&c=365799&tp_c=365799","firstResponseHeads":2,"firstResponseTails":8,"secondResponseHeads":2,"secondResponseTails":8,"totalHeads":4,"totalTails":16,"studentIndex":7,"studentTrueHypers":{"a":2,"b":8},"studentGuess":0.2,"delta":0,"bonus":0.3,"bonusSoFar":0.93,"totalExamples":20},{"rt":null,"stimulus":"Sending examples to student... ","response":null,"trial_type":"html-keyboard-response","trial_index":79,"time_elapsed":1863002,"internal_node_id":"0.0-60.0","params":{"nStudents":24,"maxFlips":30,"completionMinutes":45,"basePay":8,"maxBonus":9,"perTrialBonus":0.5,"perTrialBonusThreshold":0.05,"exampleCost":0.01},"classroomParams":{"A":{"a":1,"b":4},"B":{"a":4,"b":1},"C":{"a":2,"b":8},"D":{"a":8,"b":2}},"conditions":["nonSeqFull","nonSeqPartial","seqNoFeedback","seqFeedback"],"classroomPairings":[["A","B"],["C","D"]],"coinWeights":[0.2,0.5,0.8],"subjectId":"A1F1BIPJR11LSR","assignmentId":"31QNSG6A5SF7ERMYEI26XM5FFEN78O","hitId":"3UDTAB6HH6LRO17U79I9TKUGSHV90J","url":"https://gershmanlab.com/experiments/alicia/teaching/experiment/?hitId=3UDTAB6HH6LRO17U79I9TKUGSHV90J&workerId=A1F1BIPJR11LSR&assignmentId=31QNSG6A5SF7ERMYEI26XM5FFEN78O&a=ASQ19&tp_a=ASQ19&b=31QNSG6A5SF7ERMYEI26XM5FFEN78O&tp_b=31QNSG6A5SF7ERMYEI26XM5FFEN78O&c=365799&tp_c=365799"},{"rt":null,"stimulus":"Examples sent to student! Waiting for student...","response":null,"trial_type":"html-keyboard-response","trial_index":80,"time_elapsed":1868521,"internal_node_id":"0.0-61.0","params":{"nStudents":24,"maxFlips":30,"completionMinutes":45,"basePay":8,"maxBonus":9,"perTrialBonus":0.5,"perTrialBonusThreshold":0.05,"exampleCost":0.01},"classroomParams":{"A":{"a":1,"b":4},"B":{"a":4,"b":1},"C":{"a":2,"b":8},"D":{"a":8,"b":2}},"conditions":["nonSeqFull","nonSeqPartial","seqNoFeedback","seqFeedback"],"classroomPairings":[["A","B"],["C","D"]],"coinWeights":[0.2,0.5,0.8],"subjectId":"A1F1BIPJR11LSR","assignmentId":"31QNSG6A5SF7ERMYEI26XM5FFEN78O","hitId":"3UDTAB6HH6LRO17U79I9TKUGSHV90J","url":"https://gershmanlab.com/experiments/alicia/teaching/experiment/?hitId=3UDTAB6HH6LRO17U79I9TKUGSHV90J&workerId=A1F1BIPJR11LSR&assignmentId=31QNSG6A5SF7ERMYEI26XM5FFEN78O&a=ASQ19&tp_a=ASQ19&b=31QNSG6A5SF7ERMYEI26XM5FFEN78O&tp_b=31QNSG6A5SF7ERMYEI26XM5FFEN78O&c=365799&tp_c=365799"},{"rt":3216,"stimulus":"\n                <p>Student 8's first guess for coin weight: <b style=\"color:Tomato\";>0.20</b></p>\n                <p>Student 8's second guess for coin weight: <b style=\"color:Tomato\";>0.20</b></p>\n                <p>You received a bonus of <b>$0.30</b> based on the student's second guess.</p>\n                <p>Total bonus so far: <b>$0.93</b></p>\n                <p>Press any key to continue.</p>\n                ","response":" ","trial_type":"html-keyboard-response","trial_index":81,"time_elapsed":1871739,"internal_node_id":"0.0-62.0","params":{"nStudents":24,"maxFlips":30,"completionMinutes":45,"basePay":8,"maxBonus":9,"perTrialBonus":0.5,"perTrialBonusThreshold":0.05,"exampleCost":0.01},"classroomParams":{"A":{"a":1,"b":4},"B":{"a":4,"b":1},"C":{"a":2,"b":8},"D":{"a":8,"b":2}},"conditions":["nonSeqFull","nonSeqPartial","seqNoFeedback","seqFeedback"],"classroomPairings":[["A","B"],["C","D"]],"coinWeights":[0.2,0.5,0.8],"subjectId":"A1F1BIPJR11LSR","assignmentId":"31QNSG6A5SF7ERMYEI26XM5FFEN78O","hitId":"3UDTAB6HH6LRO17U79I9TKUGSHV90J","url":"https://gershmanlab.com/experiments/alicia/teaching/experiment/?hitId=3UDTAB6HH6LRO17U79I9TKUGSHV90J&workerId=A1F1BIPJR11LSR&assignmentId=31QNSG6A5SF7ERMYEI26XM5FFEN78O&a=ASQ19&tp_a=ASQ19&b=31QNSG6A5SF7ERMYEI26XM5FFEN78O&tp_b=31QNSG6A5SF7ERMYEI26XM5FFEN78O&c=365799&tp_c=365799"},{"rt":null,"stimulus":"<div style=\"font-size:60px;\">Next student</div>","response":null,"trial_type":"html-keyboard-response","trial_index":82,"time_elapsed":1874742,"internal_node_id":"0.0-63.0-0.0","params":{"nStudents":24,"maxFlips":30,"completionMinutes":45,"basePay":8,"maxBonus":9,"perTrialBonus":0.5,"perTrialBonusThreshold":0.05,"exampleCost":0.01},"classroomParams":{"A":{"a":1,"b":4},"B":{"a":4,"b":1},"C":{"a":2,"b":8},"D":{"a":8,"b":2}},"conditions":["nonSeqFull","nonSeqPartial","seqNoFeedback","seqFeedback"],"classroomPairings":[["A","B"],["C","D"]],"coinWeights":[0.2,0.5,0.8],"subjectId":"A1F1BIPJR11LSR","assignmentId":"31QNSG6A5SF7ERMYEI26XM5FFEN78O","hitId":"3UDTAB6HH6LRO17U79I9TKUGSHV90J","url":"https://gershmanlab.com/experiments/alicia/teaching/experiment/?hitId=3UDTAB6HH6LRO17U79I9TKUGSHV90J&workerId=A1F1BIPJR11LSR&assignmentId=31QNSG6A5SF7ERMYEI26XM5FFEN78O&a=ASQ19&tp_a=ASQ19&b=31QNSG6A5SF7ERMYEI26XM5FFEN78O&tp_b=31QNSG6A5SF7ERMYEI26XM5FFEN78O&c=365799&tp_c=365799"},{"rt":2782,"stimulus":"\n            <h4 style=\"color:Orange;\">Student 9</h4>\n            <h2>The weight of your coin is <b style=\"color:Tomato;\">0.8</b>.</h2>\n            <p>In this block, you will be giving <b>two</b> sets of examples to Student 9.</p>\n                <p>You will see the student's guess after the first set of examples. You will also receive feedback at the end of the block.</p>\n            <p>To earn the highest bonus, you will have to <b>take into consideration the student's guess</b> when you choose your second set of examples.</p>","response":0,"trial_type":"html-button-response","trial_index":83,"time_elapsed":1877523,"internal_node_id":"0.0-64.0","params":{"nStudents":24,"maxFlips":30,"completionMinutes":45,"basePay":8,"maxBonus":9,"perTrialBonus":0.5,"perTrialBonusThreshold":0.05,"exampleCost":0.01},"classroomParams":{"A":{"a":1,"b":4},"B":{"a":4,"b":1},"C":{"a":2,"b":8},"D":{"a":8,"b":2}},"conditions":["nonSeqFull","nonSeqPartial","seqNoFeedback","seqFeedback"],"classroomPairings":[["A","B"],["C","D"]],"coinWe