[{"rt":null,"stimulus":"Welcome to the experiment. Press any key to begin.","response":null,"trial_type":"html-keyboard-response","trial_index":0,"time_elapsed":30030,"internal_node_id":"0.0-0.0","params":{"nStudents":24,"maxFlips":30,"completionMinutes":45,"basePay":8,"maxBonus":9,"perTrialBonus":0.5,"perTrialBonusThreshold":0.05,"exampleCost":0.01},"classroomParams":{"A":{"a":1,"b":4},"B":{"a":4,"b":1},"C":{"a":2,"b":8},"D":{"a":8,"b":2}},"conditions":["nonSeqFull","nonSeqPartial","seqNoFeedback","seqFeedback"],"classroomPairings":[["A","B"],["C","D"]],"coinWeights":[0.2,0.5,0.8],"subjectId":"A1F2APQMJSQVFK","assignmentId":"3Y5140Z9DY2P932BJQ8EAXQEI4XIPD","hitId":"3JGHED38EDDK7DFM0KVY7GXU94LY7W","url":"https://gershmanlab.com/experiments/alicia/teaching/experiment/?hitId=3JGHED38EDDK7DFM0KVY7GXU94LY7W&workerId=A1F2APQMJSQVFK&assignmentId=3Y5140Z9DY2P932BJQ8EAXQEI4XIPD&a=945Y9&tp_a=945Y9&b=3Y5140Z9DY2P932BJQ8EAXQEI4XIPD&tp_b=3Y5140Z9DY2P932BJQ8EAXQEI4XIPD&c=365799&tp_c=365799"},{"rt":60892,"stimulus":"\n        <h3>Please read this consent agreement carefully before deciding whether to participate in this experiment.</h3>\n        <p><b>Purpose of the research:</b> To examine how people teach effectively.</p>\n        <p><b>What you will do in this research:</b> You will teach students the weights of different coins.</p>\n        <p><b>Time required:</b> This experiment will take 45 minutes to complete.</p>\n        <p><b>Risks:</b> There are no anticipated risks associated with participating in this study.             The effects of participating should be comparable to those you would experience from viewing a computer monitor             and using a mouse and keyboard for the duration of the experiment.</p>\n        <p><b>Benefits:</b> The study provides important information about the nature of teaching.</p>\n        <p><b>Compensation:</b> You will receive <b>$8</b> for completing the experiment and a performance bonus of up to <b>$9</b>.</p>\n        <p><b>Confidentiality:</b> Your participation in this study will remain confidential.             No personally identifiable information will be associated with your data.             Your de-identified data may be shared with other researchers and used in future projects.</p>\n        <p><b>Participation and withdrawal:</b> Your participation in this study is completely voluntary and             you may refuse to participate or you may choose to withdraw at any time without penalty or loss of\n            benefits to which you are otherwise entitled.</p>\n        <p><b>How to contact the researcher:</b> If you have questions or concerns about your participation            or payment, or want to request a summary of research findings, please contact\n            Alicia Chen, aliciachen@college.harvard.edu.</p>\n        <p><b>Whom to contact about your rights in this research:</b> For questions, concerns, suggestions,             or complaints that have not been or cannot be addressed by the researcher, or to report             research-related harm, please contact the Committee on the Use of Human Subjects in Research at Harvard University,             1414 Massachusetts Avenue, Second Floor, Cambridge, MA 02138. Phone: 617-496-2847. Email: cuhs@fas.harvard.edu.</p>\n        ","response":0,"trial_type":"html-button-response","trial_index":1,"time_elapsed":90925,"internal_node_id":"0.0-1.0","params":{"nStudents":24,"maxFlips":30,"completionMinutes":45,"basePay":8,"maxBonus":9,"perTrialBonus":0.5,"perTrialBonusThreshold":0.05,"exampleCost":0.01},"classroomParams":{"A":{"a":1,"b":4},"B":{"a":4,"b":1},"C":{"a":2,"b":8},"D":{"a":8,"b":2}},"conditions":["nonSeqFull","nonSeqPartial","seqNoFeedback","seqFeedback"],"classroomPairings":[["A","B"],["C","D"]],"coinWeights":[0.2,0.5,0.8],"subjectId":"A1F2APQMJSQVFK","assignmentId":"3Y5140Z9DY2P932BJQ8EAXQEI4XIPD","hitId":"3JGHED38EDDK7DFM0KVY7GXU94LY7W","url":"https://gershmanlab.com/experiments/alicia/teaching/experiment/?hitId=3JGHED38EDDK7DFM0KVY7GXU94LY7W&workerId=A1F2APQMJSQVFK&assignmentId=3Y5140Z9DY2P932BJQ8EAXQEI4XIPD&a=945Y9&tp_a=945Y9&b=3Y5140Z9DY2P932BJQ8EAXQEI4XIPD&tp_b=3Y5140Z9DY2P932BJQ8EAXQEI4XIPD&c=365799&tp_c=365799"},{"view_history":[{"page_index":0,"viewing_time":4290},{"page_index":1,"viewing_time":4192},{"page_index":2,"viewing_time":41372},{"page_index":3,"viewing_time":18947},{"page_index":4,"viewing_time":11282},{"page_index":5,"viewing_time":22978},{"page_index":6,"viewing_time":26629}],"rt":129690,"trial_type":"instructions","trial_index":2,"time_elapsed":220617,"internal_node_id":"0.0-2.0-0.0","params":{"nStudents":24,"maxFlips":30,"completionMinutes":45,"basePay":8,"maxBonus":9,"perTrialBonus":0.5,"perTrialBonusThreshold":0.05,"exampleCost":0.01},"classroomParams":{"A":{"a":1,"b":4},"B":{"a":4,"b":1},"C":{"a":2,"b":8},"D":{"a":8,"b":2}},"conditions":["nonSeqFull","nonSeqPartial","seqNoFeedback","seqFeedback"],"classroomPairings":[["A","B"],["C","D"]],"coinWeights":[0.2,0.5,0.8],"subjectId":"A1F2APQMJSQVFK","assignmentId":"3Y5140Z9DY2P932BJQ8EAXQEI4XIPD","hitId":"3JGHED38EDDK7DFM0KVY7GXU94LY7W","url":"https://gershmanlab.com/experiments/alicia/teaching/experiment/?hitId=3JGHED38EDDK7DFM0KVY7GXU94LY7W&workerId=A1F2APQMJSQVFK&assignmentId=3Y5140Z9DY2P932BJQ8EAXQEI4XIPD&a=945Y9&tp_a=945Y9&b=3Y5140Z9DY2P932BJQ8EAXQEI4XIPD&tp_b=3Y5140Z9DY2P932BJQ8EAXQEI4XIPD&c=365799&tp_c=365799"},{"rt":192159,"response":{"Q0":"Students in different classrooms will have seen a different number of heads and tails before seeing the examples you select for them.","Q1":"By <b>considering the student's classroom information</b> so that I can teach efficiently and accurately/helpfully at the same time (because each example I give to the student costs money!).","Q2":"The coin lands heads 90% of the time.","Q3":"Yes, I might encounter the same student twice.","Q4":"The students are also on the same alien planet as you, where coins can be unfair.","Q5":"Based on the student's second (and final) guess."},"question_order":[2,5,4,0,3,1],"trial_type":"survey-multi-choice","trial_index":3,"time_elapsed":412782,"internal_node_id":"0.0-2.0-1.0","params":{"nStudents":24,"maxFlips":30,"completionMinutes":45,"basePay":8,"maxBonus":9,"perTrialBonus":0.5,"perTrialBonusThreshold":0.05,"exampleCost":0.01},"classroomParams":{"A":{"a":1,"b":4},"B":{"a":4,"b":1},"C":{"a":2,"b":8},"D":{"a":8,"b":2}},"conditions":["nonSeqFull","nonSeqPartial","seqNoFeedback","seqFeedback"],"classroomPairings":[["A","B"],["C","D"]],"coinWeights":[0.2,0.5,0.8],"subjectId":"A1F2APQMJSQVFK","assignmentId":"3Y5140Z9DY2P932BJQ8EAXQEI4XIPD","hitId":"3JGHED38EDDK7DFM0KVY7GXU94LY7W","url":"https://gershmanlab.com/experiments/alicia/teaching/experiment/?hitId=3JGHED38EDDK7DFM0KVY7GXU94LY7W&workerId=A1F2APQMJSQVFK&assignmentId=3Y5140Z9DY2P932BJQ8EAXQEI4XIPD&a=945Y9&tp_a=945Y9&b=3Y5140Z9DY2P932BJQ8EAXQEI4XIPD&tp_b=3Y5140Z9DY2P932BJQ8EAXQEI4XIPD&c=365799&tp_c=365799","pass":false},{"rt":4409,"stimulus":"Oops, you have missed question(s) on the comprehension check! We'll show you the instructions again.","response":0,"trial_type":"html-button-response","trial_index":4,"time_elapsed":417205,"internal_node_id":"0.0-2.0-2.0-0.0","params":{"nStudents":24,"maxFlips":30,"completionMinutes":45,"basePay":8,"maxBonus":9,"perTrialBonus":0.5,"perTrialBonusThreshold":0.05,"exampleCost":0.01},"classroomParams":{"A":{"a":1,"b":4},"B":{"a":4,"b":1},"C":{"a":2,"b":8},"D":{"a":8,"b":2}},"conditions":["nonSeqFull","nonSeqPartial","seqNoFeedback","seqFeedback"],"classroomPairings":[["A","B"],["C","D"]],"coinWeights":[0.2,0.5,0.8],"subjectId":"A1F2APQMJSQVFK","assignmentId":"3Y5140Z9DY2P932BJQ8EAXQEI4XIPD","hitId":"3JGHED38EDDK7DFM0KVY7GXU94LY7W","url":"https://gershmanlab.com/experiments/alicia/teaching/experiment/?hitId=3JGHED38EDDK7DFM0KVY7GXU94LY7W&workerId=A1F2APQMJSQVFK&assignmentId=3Y5140Z9DY2P932BJQ8EAXQEI4XIPD&a=945Y9&tp_a=945Y9&b=3Y5140Z9DY2P932BJQ8EAXQEI4XIPD&tp_b=3Y5140Z9DY2P932BJQ8EAXQEI4XIPD&c=365799&tp_c=365799"},{"view_history":[{"page_index":0,"viewing_time":3393},{"page_index":1,"viewing_time":2501},{"page_index":2,"viewing_time":13127},{"page_index":3,"viewing_time":11909},{"page_index":4,"viewing_time":12622},{"page_index":5,"viewing_time":10963},{"page_index":6,"viewing_time":12898}],"rt":67413,"trial_type":"instructions","trial_index":5,"time_elapsed":484622,"internal_node_id":"0.0-2.1-0.1","params":{"nStudents":24,"maxFlips":30,"completionMinutes":45,"basePay":8,"maxBonus":9,"perTrialBonus":0.5,"perTrialBonusThreshold":0.05,"exampleCost":0.01},"classroomParams":{"A":{"a":1,"b":4},"B":{"a":4,"b":1},"C":{"a":2,"b":8},"D":{"a":8,"b":2}},"conditions":["nonSeqFull","nonSeqPartial","seqNoFeedback","seqFeedback"],"classroomPairings":[["A","B"],["C","D"]],"coinWeights":[0.2,0.5,0.8],"subjectId":"A1F2APQMJSQVFK","assignmentId":"3Y5140Z9DY2P932BJQ8EAXQEI4XIPD","hitId":"3JGHED38EDDK7DFM0KVY7GXU94LY7W","url":"https://gershmanlab.com/experiments/alicia/teaching/experiment/?hitId=3JGHED38EDDK7DFM0KVY7GXU94LY7W&workerId=A1F2APQMJSQVFK&assignmentId=3Y5140Z9DY2P932BJQ8EAXQEI4XIPD&a=945Y9&tp_a=945Y9&b=3Y5140Z9DY2P932BJQ8EAXQEI4XIPD&tp_b=3Y5140Z9DY2P932BJQ8EAXQEI4XIPD&c=365799&tp_c=365799"},{"rt":145036,"response":{"Q0":"Students in different classrooms have seen a different proportion of fair and unfair coins before seeing the examples you select for them.","Q1":"By <b>considering the student's classroom information</b> so that I can teach efficiently and accurately/helpfully at the same time (because each example I give to the student costs money!).","Q2":"The coin lands heads 90% of the time.","Q3":"Yes, I might encounter the same student twice.","Q4":"The students are also on the same alien planet as you, where coins can be unfair.","Q5":"Based on the student's second (and final) guess."},"question_order":[5,4,2,0,1,3],"trial_type":"survey-multi-choice","trial_index":6,"time_elapsed":629664,"internal_node_id":"0.0-2.1-1.1","params":{"nStudents":24,"maxFlips":30,"completionMinutes":45,"basePay":8,"maxBonus":9,"perTrialBonus":0.5,"perTrialBonusThreshold":0.05,"exampleCost":0.01},"classroomParams":{"A":{"a":1,"b":4},"B":{"a":4,"b":1},"C":{"a":2,"b":8},"D":{"a":8,"b":2}},"conditions":["nonSeqFull","nonSeqPartial","seqNoFeedback","seqFeedback"],"classroomPairings":[["A","B"],["C","D"]],"coinWeights":[0.2,0.5,0.8],"subjectId":"A1F2APQMJSQVFK","assignmentId":"3Y5140Z9DY2P932BJQ8EAXQEI4XIPD","hitId":"3JGHED38EDDK7DFM0KVY7GXU94LY7W","url":"https://gershmanlab.com/experiments/alicia/teaching/experiment/?hitId=3JGHED38EDDK7DFM0KVY7GXU94LY7W&workerId=A1F2APQMJSQVFK&assignmentId=3Y5140Z9DY2P932BJQ8EAXQEI4XIPD&a=945Y9&tp_a=945Y9&b=3Y5140Z9DY2P932BJQ8EAXQEI4XIPD&tp_b=3Y5140Z9DY2P932BJQ8EAXQEI4XIPD&c=365799&tp_c=365799","pass":false},{"rt":9381,"stimulus":"Oops, you have missed question(s) on the comprehension check! We'll show you the instructions again.","response":0,"trial_type":"html-button-response","trial_index":7,"time_elapsed":639060,"internal_node_id":"0.0-2.1-2.1-0.1","params":{"nStudents":24,"maxFlips":30,"completionMinutes":45,"basePay":8,"maxBonus":9,"perTrialBonus":0.5,"perTrialBonusThreshold":0.05,"exampleCost":0.01},"classroomParams":{"A":{"a":1,"b":4},"B":{"a":4,"b":1},"C":{"a":2,"b":8},"D":{"a":8,"b":2}},"conditions":["nonSeqFull","nonSeqPartial","seqNoFeedback","seqFeedback"],"classroomPairings":[["A","B"],["C","D"]],"coinWeights":[0.2,0.5,0.8],"subjectId":"A1F2APQMJSQVFK","assignmentId":"3Y5140Z9DY2P932BJQ8EAXQEI4XIPD","hitId":"3JGHED38EDDK7DFM0KVY7GXU94LY7W","url":"https://gershmanlab.com/experiments/alicia/teaching/experiment/?hitId=3JGHED38EDDK7DFM0KVY7GXU94LY7W&workerId=A1F2APQMJSQVFK&assignmentId=3Y5140Z9DY2P932BJQ8EAXQEI4XIPD&a=945Y9&tp_a=945Y9&b=3Y5140Z9DY2P932BJQ8EAXQEI4XIPD&tp_b=3Y5140Z9DY2P932BJQ8EAXQEI4XIPD&c=365799&tp_c=365799"},{"view_history":[{"page_index":0,"viewing_time":5063},{"page_index":1,"viewing_time":929},{"page_index":2,"viewing_time":8579},{"page_index":3,"viewing_time":8387},{"page_index":4,"viewing_time":15644},{"page_index":3,"viewing_time":5577},{"page_index":4,"viewing_time":8205},{"page_index":5,"viewing_time":17051},{"page_index":6,"viewing_time":25778}],"rt":95214,"trial_type":"instructions","trial_index":8,"time_elapsed":734275,"internal_node_id":"0.0-2.2-0.2","params":{"nStudents":24,"maxFlips":30,"completionMinutes":45,"basePay":8,"maxBonus":9,"perTrialBonus":0.5,"perTrialBonusThreshold":0.05,"exampleCost":0.01},"classroomParams":{"A":{"a":1,"b":4},"B":{"a":4,"b":1},"C":{"a":2,"b":8},"D":{"a":8,"b":2}},"conditions":["nonSeqFull","nonSeqPartial","seqNoFeedback","seqFeedback"],"classroomPairings":[["A","B"],["C","D"]],"coinWeights":[0.2,0.5,0.8],"subjectId":"A1F2APQMJSQVFK","assignmentId":"3Y5140Z9DY2P932BJQ8EAXQEI4XIPD","hitId":"3JGHED38EDDK7DFM0KVY7GXU94LY7W","url":"https://gershmanlab.com/experiments/alicia/teaching/experiment/?hitId=3JGHED38EDDK7DFM0KVY7GXU94LY7W&workerId=A1F2APQMJSQVFK&assignmentId=3Y5140Z9DY2P932BJQ8EAXQEI4XIPD&a=945Y9&tp_a=945Y9&b=3Y5140Z9DY2P932BJQ8EAXQEI4XIPD&tp_b=3Y5140Z9DY2P932BJQ8EAXQEI4XIPD&c=365799&tp_c=365799"},{"rt":29009,"response":{"Q0":"Students in different classrooms will have seen a different number of heads and tails before seeing the examples you select for them.","Q1":"By <b>considering the student's classroom information</b> so that I can teach efficiently and accurately/helpfully at the same time (because each example I give to the student costs money!).","Q2":"The coin lands heads 90% of the time.","Q3":"No, I will teach a <b>new</b> student each time.","Q4":"The students are also on the same alien planet as you, where coins can be unfair.","Q5":"Based on the student's second (and final) guess."},"question_order":[1,4,0,2,5,3],"trial_type":"survey-multi-choice","trial_index":9,"time_elapsed":763290,"internal_node_id":"0.0-2.2-1.2","params":{"nStudents":24,"maxFlips":30,"completionMinutes":45,"basePay":8,"maxBonus":9,"perTrialBonus":0.5,"perTrialBonusThreshold":0.05,"exampleCost":0.01},"classroomParams":{"A":{"a":1,"b":4},"B":{"a":4,"b":1},"C":{"a":2,"b":8},"D":{"a":8,"b":2}},"conditions":["nonSeqFull","nonSeqPartial","seqNoFeedback","seqFeedback"],"classroomPairings":[["A","B"],["C","D"]],"coinWeights":[0.2,0.5,0.8],"subjectId":"A1F2APQMJSQVFK","assignmentId":"3Y5140Z9DY2P932BJQ8EAXQEI4XIPD","hitId":"3JGHED38EDDK7DFM0KVY7GXU94LY7W","url":"https://gershmanlab.com/experiments/alicia/teaching/experiment/?hitId=3JGHED38EDDK7DFM0KVY7GXU94LY7W&workerId=A1F2APQMJSQVFK&assignmentId=3Y5140Z9DY2P932BJQ8EAXQEI4XIPD&a=945Y9&tp_a=945Y9&b=3Y5140Z9DY2P932BJQ8EAXQEI4XIPD&tp_b=3Y5140Z9DY2P932BJQ8EAXQEI4XIPD&c=365799&tp_c=365799","pass":true},{"rt":null,"stimulus":"<div style=\"font-size:30px;\">Congrats on passing the comprehension quiz! The experiment will begin in a few seconds.</div>","response":null,"trial_type":"html-keyboard-response","trial_index":10,"time_elapsed":766306,"internal_node_id":"0.0-3.0","params":{"nStudents":24,"maxFlips":30,"completionMinutes":45,"basePay":8,"maxBonus":9,"perTrialBonus":0.5,"perTrialBonusThreshold":0.05,"exampleCost":0.01},"classroomParams":{"A":{"a":1,"b":4},"B":{"a":4,"b":1},"C":{"a":2,"b":8},"D":{"a":8,"b":2}},"conditions":["nonSeqFull","nonSeqPartial","seqNoFeedback","seqFeedback"],"classroomPairings":[["A","B"],["C","D"]],"coinWeights":[0.2,0.5,0.8],"subjectId":"A1F2APQMJSQVFK","assignmentId":"3Y5140Z9DY2P932BJQ8EAXQEI4XIPD","hitId":"3JGHED38EDDK7DFM0KVY7GXU94LY7W","url":"https://gershmanlab.com/experiments/alicia/teaching/experiment/?hitId=3JGHED38EDDK7DFM0KVY7GXU94LY7W&workerId=A1F2APQMJSQVFK&assignmentId=3Y5140Z9DY2P932BJQ8EAXQEI4XIPD&a=945Y9&tp_a=945Y9&b=3Y5140Z9DY2P932BJQ8EAXQEI4XIPD&tp_b=3Y5140Z9DY2P932BJQ8EAXQEI4XIPD&c=365799&tp_c=365799"},{"rt":null,"stimulus":"<div style=\"font-size:50px;\">First student</div>","response":null,"trial_type":"html-keyboard-response","trial_index":11,"time_elapsed":769316,"internal_node_id":"0.0-4.0","params":{"nStudents":24,"maxFlips":30,"completionMinutes":45,"basePay":8,"maxBonus":9,"perTrialBonus":0.5,"perTrialBonusThreshold":0.05,"exampleCost":0.01},"classroomParams":{"A":{"a":1,"b":4},"B":{"a":4,"b":1},"C":{"a":2,"b":8},"D":{"a":8,"b":2}},"conditions":["nonSeqFull","nonSeqPartial","seqNoFeedback","seqFeedback"],"classroomPairings":[["A","B"],["C","D"]],"coinWeights":[0.2,0.5,0.8],"subjectId":"A1F2APQMJSQVFK","assignmentId":"3Y5140Z9DY2P932BJQ8EAXQEI4XIPD","hitId":"3JGHED38EDDK7DFM0KVY7GXU94LY7W","url":"https://gershmanlab.com/experiments/alicia/teaching/experiment/?hitId=3JGHED38EDDK7DFM0KVY7GXU94LY7W&workerId=A1F2APQMJSQVFK&assignmentId=3Y5140Z9DY2P932BJQ8EAXQEI4XIPD&a=945Y9&tp_a=945Y9&b=3Y5140Z9DY2P932BJQ8EAXQEI4XIPD&tp_b=3Y5140Z9DY2P932BJQ8EAXQEI4XIPD&c=365799&tp_c=365799"},{"rt":7365,"stimulus":"\n            <h4 style=\"color:Orange;\">Student 1</h4>\n            <h2>The weight of your coin is <b style=\"color:Tomato;\">0.8</b>.</h2>\n            <p>In this block, you will be giving <b>one</b> set of examples to Student 1.</p>\n                <p>You will receive feedback at the end of the block.</p>\n            <p></p>","response":0,"trial_type":"html-button-response","trial_index":12,"time_elapsed":776684,"internal_node_id":"0.0-5.0","params":{"nStudents":24,"maxFlips":30,"completionMinutes":45,"basePay":8,"maxBonus":9,"perTrialBonus":0.5,"perTrialBonusThreshold":0.05,"exampleCost":0.01},"classroomParams":{"A":{"a":1,"b":4},"B":{"a":4,"b":1},"C":{"a":2,"b":8},"D":{"a":8,"b":2}},"conditions":["nonSeqFull","nonSeqPartial","seqNoFeedback","seqFeedback"],"classroomPairings":[["A","B"],["C","D"]],"coinWeights":[0.2,0.5,0.8],"subjectId":"A1F2APQMJSQVFK","assignmentId":"3Y5140Z9DY2P932BJQ8EAXQEI4XIPD","hitId":"3JGHED38EDDK7DFM0KVY7GXU94LY7W","url":"https://gershmanlab.com/experiments/alicia/teaching/experiment/?hitId=3JGHED38EDDK7DFM0KVY7GXU94LY7W&workerId=A1F2APQMJSQVFK&assignmentId=3Y5140Z9DY2P932BJQ8EAXQEI4XIPD&a=945Y9&tp_a=945Y9&b=3Y5140Z9DY2P932BJQ8EAXQEI4XIPD&tp_b=3Y5140Z9DY2P932BJQ8EAXQEI4XIPD&c=365799&tp_c=365799"},{"rt":38824,"response":{"heads":"9","tails":"2"},"type":"response","condition":"nonSeqPartial","trueTheta":0.8,"classrooms":["C","D"],"studentTrueClassroom":"C","exampleSet":"first","trial_type":"survey-html-form","trial_index":13,"time_elapsed":815515,"internal_node_id":"0.0-6.0-0.0","params":{"nStudents":24,"maxFlips":30,"completionMinutes":45,"basePay":8,"maxBonus":9,"perTrialBonus":0.5,"perTrialBonusThreshold":0.05,"exampleCost":0.01},"classroomParams":{"A":{"a":1,"b":4},"B":{"a":4,"b":1},"C":{"a":2,"b":8},"D":{"a":8,"b":2}},"conditions":["nonSeqFull","nonSeqPartial","seqNoFeedback","seqFeedback"],"classroomPairings":[["A","B"],["C","D"]],"coinWeights":[0.2,0.5,0.8],"subjectId":"A1F2APQMJSQVFK","assignmentId":"3Y5140Z9DY2P932BJQ8EAXQEI4XIPD","hitId":"3JGHED38EDDK7DFM0KVY7GXU94LY7W","url":"https://gershmanlab.com/experiments/alicia/teaching/experiment/?hitId=3JGHED38EDDK7DFM0KVY7GXU94LY7W&workerId=A1F2APQMJSQVFK&assignmentId=3Y5140Z9DY2P932BJQ8EAXQEI4XIPD&a=945Y9&tp_a=945Y9&b=3Y5140Z9DY2P932BJQ8EAXQEI4XIPD&tp_b=3Y5140Z9DY2P932BJQ8EAXQEI4XIPD&c=365799&tp_c=365799","heads":9,"tails":2,"studentIndex":0,"studentTrueHypers":{"a":2,"b":8},"studentGuess":0.5238095238095238,"delta":0.2761904761904762,"totalExamples":11,"bonus":0,"bonusSoFar":0},{"rt":null,"stimulus":"Sending examples to student... ","response":null,"trial_type":"html-keyboard-response","trial_index":14,"time_elapsed":817520,"internal_node_id":"0.0-7.0","params":{"nStudents":24,"maxFlips":30,"completionMinutes":45,"basePay":8,"maxBonus":9,"perTrialBonus":0.5,"perTrialBonusThreshold":0.05,"exampleCost":0.01},"classroomParams":{"A":{"a":1,"b":4},"B":{"a":4,"b":1},"C":{"a":2,"b":8},"D":{"a":8,"b":2}},"conditions":["nonSeqFull","nonSeqPartial","seqNoFeedback","seqFeedback"],"classroomPairings":[["A","B"],["C","D"]],"coinWeights":[0.2,0.5,0.8],"subjectId":"A1F2APQMJSQVFK","assignmentId":"3Y5140Z9DY2P932BJQ8EAXQEI4XIPD","hitId":"3JGHED38EDDK7DFM0KVY7GXU94LY7W","url":"https://gershmanlab.com/experiments/alicia/teaching/experiment/?hitId=3JGHED38EDDK7DFM0KVY7GXU94LY7W&workerId=A1F2APQMJSQVFK&assignmentId=3Y5140Z9DY2P932BJQ8EAXQEI4XIPD&a=945Y9&tp_a=945Y9&b=3Y5140Z9DY2P932BJQ8EAXQEI4XIPD&tp_b=3Y5140Z9DY2P932BJQ8EAXQEI4XIPD&c=365799&tp_c=365799"},{"rt":null,"stimulus":"Examples sent to student! Waiting for student...","response":null,"trial_type":"html-keyboard-response","trial_index":15,"time_elapsed":823533,"internal_node_id":"0.0-8.0","params":{"nStudents":24,"maxFlips":30,"completionMinutes":45,"basePay":8,"maxBonus":9,"perTrialBonus":0.5,"perTrialBonusThreshold":0.05,"exampleCost":0.01},"classroomParams":{"A":{"a":1,"b":4},"B":{"a":4,"b":1},"C":{"a":2,"b":8},"D":{"a":8,"b":2}},"conditions":["nonSeqFull","nonSeqPartial","seqNoFeedback","seqFeedback"],"classroomPairings":[["A","B"],["C","D"]],"coinWeights":[0.2,0.5,0.8],"subjectId":"A1F2APQMJSQVFK","assignmentId":"3Y5140Z9DY2P932BJQ8EAXQEI4XIPD","hitId":"3JGHED38EDDK7DFM0KVY7GXU94LY7W","url":"https://gershmanlab.com/experiments/alicia/teaching/experiment/?hitId=3JGHED38EDDK7DFM0KVY7GXU94LY7W&workerId=A1F2APQMJSQVFK&assignmentId=3Y5140Z9DY2P932BJQ8EAXQEI4XIPD&a=945Y9&tp_a=945Y9&b=3Y5140Z9DY2P932BJQ8EAXQEI4XIPD&tp_b=3Y5140Z9DY2P932BJQ8EAXQEI4XIPD&c=365799&tp_c=365799"},{"rt":10558,"stimulus":"\n                <p>Student's guess for coin weight: <b style=\"color:Tomato;\">0.52</b></p>\n                <p>You received a bonus of <b>$0</b>. Total bonus so far: <b>$0.00</b></b></p>\n                <p></p>\n                <p>Press any key to continue.</p>\n                ","response":" ","trial_type":"html-keyboard-response","trial_index":16,"time_elapsed":834093,"internal_node_id":"0.0-9.0","params":{"nStudents":24,"maxFlips":30,"completionMinutes":45,"basePay":8,"maxBonus":9,"perTrialBonus":0.5,"perTrialBonusThreshold":0.05,"exampleCost":0.01},"classroomParams":{"A":{"a":1,"b":4},"B":{"a":4,"b":1},"C":{"a":2,"b":8},"D":{"a":8,"b":2}},"conditions":["nonSeqFull","nonSeqPartial","seqNoFeedback","seqFeedback"],"classroomPairings":[["A","B"],["C","D"]],"coinWeights":[0.2,0.5,0.8],"subjectId":"A1F2APQMJSQVFK","assignmentId":"3Y5140Z9DY2P932BJQ8EAXQEI4XIPD","hitId":"3JGHED38EDDK7DFM0KVY7GXU94LY7W","url":"https://gershmanlab.com/experiments/alicia/teaching/experiment/?hitId=3JGHED38EDDK7DFM0KVY7GXU94LY7W&workerId=A1F2APQMJSQVFK&assignmentId=3Y5140Z9DY2P932BJQ8EAXQEI4XIPD&a=945Y9&tp_a=945Y9&b=3Y5140Z9DY2P932BJQ8EAXQEI4XIPD&tp_b=3Y5140Z9DY2P932BJQ8EAXQEI4XIPD&c=365799&tp_c=365799"},{"rt":null,"stimulus":"<div style=\"font-size:60px;\">Next student</div>","response":null,"trial_type":"html-keyboard-response","trial_index":17,"time_elapsed":837108,"internal_node_id":"0.0-10.0-0.0","params":{"nStudents":24,"maxFlips":30,"completionMinutes":45,"basePay":8,"maxBonus":9,"perTrialBonus":0.5,"perTrialBonusThreshold":0.05,"exampleCost":0.01},"classroomParams":{"A":{"a":1,"b":4},"B":{"a":4,"b":1},"C":{"a":2,"b":8},"D":{"a":8,"b":2}},"conditions":["nonSeqFull","nonSeqPartial","seqNoFeedback","seqFeedback"],"classroomPairings":[["A","B"],["C","D"]],"coinWeights":[0.2,0.5,0.8],"subjectId":"A1F2APQMJSQVFK","assignmentId":"3Y5140Z9DY2P932BJQ8EAXQEI4XIPD","hitId":"3JGHED38EDDK7DFM0KVY7GXU94LY7W","url":"https://gershmanlab.com/experiments/alicia/teaching/experiment/?hitId=3JGHED38EDDK7DFM0KVY7GXU94LY7W&workerId=A1F2APQMJSQVFK&assignmentId=3Y5140Z9DY2P932BJQ8EAXQEI4XIPD&a=945Y9&tp_a=945Y9&b=3Y5140Z9DY2P932BJQ8EAXQEI4XIPD&tp_b=3Y5140Z9DY2P932BJQ8EAXQEI4XIPD&c=365799&tp_c=365799"},{"rt":5406,"stimulus":"\n            <h4 style=\"color:Orange;\">Student 2</h4>\n            <h2>The weight of your coin is <b style=\"color:Tomato;\">0.5</b>.</h2>\n            <p>In this block, you will be giving <b>one</b> set of examples to Student 2.</p>\n                <p>You will receive feedback at the end of the block.</p>\n            <p></p>","response":0,"trial_type":"html-button-response","trial_index":18,"time_elapsed":842518,"internal_node_id":"0.0-11.0","params":{"nStudents":24,"maxFlips":30,"completionMinutes":45,"basePay":8,"maxBonus":9,"perTrialBonus":0.5,"perTrialBonusThreshold":0.05,"exampleCost":0.01},"classroomParams":{"A":{"a":1,"b":4},"B":{"a":4,"b":1},"C":{"a":2,"b":8},"D":{"a":8,"b":2}},"conditions":["nonSeqFull","nonSeqPartial","seqNoFeedback","seqFeedback"],"classroomPairings":[["A","B"],["C","D"]],"coinWeights":[0.2,0.5,0.8],"subjectId":"A1F2APQMJSQVFK","assignmentId":"3Y5140Z9DY2P932BJQ8EAXQEI4XIPD","hitId":"3JGHED38EDDK7DFM0KVY7GXU94LY7W","url":"https://gershmanlab.com/experiments/alicia/teaching/experiment/?hitId=3JGHED38EDDK7DFM0KVY7GXU94LY7W&workerId=A1F2APQMJSQVFK&assignmentId=3Y5140Z9DY2P932BJQ8EAXQEI4XIPD&a=945Y9&tp_a=945Y9&b=3Y5140Z9DY2P932BJQ8EAXQEI4XIPD&tp_b=3Y5140Z9DY2P932BJQ8EAXQEI4XIPD&c=365799&tp_c=365799"},{"rt":30799,"response":{"heads":"5","tails":"0"},"type":"response","condition":"nonSeqPartial","trueTheta":0.5,"classrooms":["A","B"],"studentTrueClassroom":"A","exampleSet":"first","trial_type":"survey-html-form","trial_index":19,"time_elapsed":873321,"internal_node_id":"0.0-12.0-0.0","params":{"nStudents":24,"maxFlips":30,"completionMinutes":45,"basePay":8,"maxBonus":9,"perTrialBonus":0.5,"perTrialBonusThreshold":0.05,"exampleCost":0.01},"classroomParams":{"A":{"a":1,"b":4},"B":{"a":4,"b":1},"C":{"a":2,"b":8},"D":{"a":8,"b":2}},"conditions":["nonSeqFull","nonSeqPartial","seqNoFeedback","seqFeedback"],"classroomPairings":[["A","B"],["C","D"]],"coinWeights":[0.2,0.5,0.8],"subjectId":"A1F2APQMJSQVFK","assignmentId":"3Y5140Z9DY2P932BJQ8EAXQEI4XIPD","hitId":"3JGHED38EDDK7DFM0KVY7GXU94LY7W","url":"https://gershmanlab.com/experiments/alicia/teaching/experiment/?hitId=3JGHED38EDDK7DFM0KVY7GXU94LY7W&workerId=A1F2APQMJSQVFK&assignmentId=3Y5140Z9DY2P932BJQ8EAXQEI4XIPD&a=945Y9&tp_a=945Y9&b=3Y5140Z9DY2P932BJQ8EAXQEI4XIPD&tp_b=3Y5140Z9DY2P932BJQ8EAXQEI4XIPD&c=365799&tp_c=365799","heads":5,"tails":0,"studentIndex":1,"studentTrueHypers":{"a":1,"b":4},"studentGuess":0.6,"delta":0.09999999999999998,"totalExamples":5,"bonus":0,"bonusSoFar":0},{"rt":null,"stimulus":"Sending examples to student... ","response":null,"trial_type":"html-keyboard-response","trial_index":20,"time_elapsed":874576,"internal_node_id":"0.0-13.0","params":{"nStudents":24,"maxFlips":30,"completionMinutes":45,"basePay":8,"maxBonus":9,"perTrialBonus":0.5,"perTrialBonusThreshold":0.05,"exampleCost":0.01},"classroomParams":{"A":{"a":1,"b":4},"B":{"a":4,"b":1},"C":{"a":2,"b":8},"D":{"a":8,"b":2}},"conditions":["nonSeqFull","nonSeqPartial","seqNoFeedback","seqFeedback"],"classroomPairings":[["A","B"],["C","D"]],"coinWeights":[0.2,0.5,0.8],"subjectId":"A1F2APQMJSQVFK","assignmentId":"3Y5140Z9DY2P932BJQ8EAXQEI4XIPD","hitId":"3JGHED38EDDK7DFM0KVY7GXU94LY7W","url":"https://gershmanlab.com/experiments/alicia/teaching/experiment/?hitId=3JGHED38EDDK7DFM0KVY7GXU94LY7W&workerId=A1F2APQMJSQVFK&assignmentId=3Y5140Z9DY2P932BJQ8EAXQEI4XIPD&a=945Y9&tp_a=945Y9&b=3Y5140Z9DY2P932BJQ8EAXQEI4XIPD&tp_b=3Y5140Z9DY2P932BJQ8EAXQEI4XIPD&c=365799&tp_c=365799"},{"rt":null,"stimulus":"Examples sent to student! Waiting for student...","response":null,"trial_type":"html-keyboard-response","trial_index":21,"time_elapsed":878586,"internal_node_id":"0.0-14.0","params":{"nStudents":24,"maxFlips":30,"completionMinutes":45,"basePay":8,"maxBonus":9,"perTrialBonus":0.5,"perTrialBonusThreshold":0.05,"exampleCost":0.01},"classroomParams":{"A":{"a":1,"b":4},"B":{"a":4,"b":1},"C":{"a":2,"b":8},"D":{"a":8,"b":2}},"conditions":["nonSeqFull","nonSeqPartial","seqNoFeedback","seqFeedback"],"classroomPairings":[["A","B"],["C","D"]],"coinWeights":[0.2,0.5,0.8],"subjectId":"A1F2APQMJSQVFK","assignmentId":"3Y5140Z9DY2P932BJQ8EAXQEI4XIPD","hitId":"3JGHED38EDDK7DFM0KVY7GXU94LY7W","url":"https://gershmanlab.com/experiments/alicia/teaching/experiment/?hitId=3JGHED38EDDK7DFM0KVY7GXU94LY7W&workerId=A1F2APQMJSQVFK&assignmentId=3Y5140Z9DY2P932BJQ8EAXQEI4XIPD&a=945Y9&tp_a=945Y9&b=3Y5140Z9DY2P932BJQ8EAXQEI4XIPD&tp_b=3Y5140Z9DY2P932BJQ8EAXQEI4XIPD&c=365799&tp_c=365799"},{"rt":6135,"stimulus":"\n                <p>Student's guess for coin weight: <b style=\"color:Tomato;\">0.60</b></p>\n                <p>You received a bonus of <b>$0</b>. Total bonus so far: <b>$0.00</b></b></p>\n                <p></p>\n                <p>Press any key to continue.</p>\n                ","response":" ","trial_type":"html-keyboard-response","trial_index":22,"time_elapsed":884723,"internal_node_id":"0.0-15.0","params":{"nStudents":24,"maxFlips":30,"completionMinutes":45,"basePay":8,"maxBonus":9,"perTrialBonus":0.5,"perTrialBonusThreshold":0.05,"exampleCost":0.01},"classroomParams":{"A":{"a":1,"b":4},"B":{"a":4,"b":1},"C":{"a":2,"b":8},"D":{"a":8,"b":2}},"conditions":["nonSeqFull","nonSeqPartial","seqNoFeedback","seqFeedback"],"classroomPairings":[["A","B"],["C","D"]],"coinWeights":[0.2,0.5,0.8],"subjectId":"A1F2APQMJSQVFK","assignmentId":"3Y5140Z9DY2P932BJQ8EAXQEI4XIPD","hitId":"3JGHED38EDDK7DFM0KVY7GXU94LY7W","url":"https://gershmanlab.com/experiments/alicia/teaching/experiment/?hitId=3JGHED38EDDK7DFM0KVY7GXU94LY7W&workerId=A1F2APQMJSQVFK&assignmentId=3Y5140Z9DY2P932BJQ8EAXQEI4XIPD&a=945Y9&tp_a=945Y9&b=3Y5140Z9DY2P932BJQ8EAXQEI4XIPD&tp_b=3Y5140Z9DY2P932BJQ8EAXQEI4XIPD&c=365799&tp_c=365799"},{"rt":null,"stimulus":"<div style=\"font-size:60px;\">Next student</div>","response":null,"trial_type":"html-keyboard-response","trial_index":23,"time_elapsed":886978,"internal_node_id":"0.0-16.0-0.0","params":{"nStudents":24,"maxFlips":30,"completionMinutes":45,"basePay":8,"maxBonus":9,"perTrialBonus":0.5,"perTrialBonusThreshold":0.05,"exampleCost":0.01},"classroomParams":{"A":{"a":1,"b":4},"B":{"a":4,"b":1},"C":{"a":2,"b":8},"D":{"a":8,"b":2}},"conditions":["nonSeqFull","nonSeqPartial","seqNoFeedback","seqFeedback"],"classroomPairings":[["A","B"],["C","D"]],"coinWeights":[0.2,0.5,0.8],"subjectId":"A1F2APQMJSQVFK","assignmentId":"3Y5140Z9DY2P932BJQ8EAXQEI4XIPD","hitId":"3JGHED38EDDK7DFM0KVY7GXU94LY7W","url":"https://gershmanlab.com/experiments/alicia/teaching/experiment/?hitId=3JGHED38EDDK7DFM0KVY7GXU94LY7W&workerId=A1F2APQMJSQVFK&assignmentId=3Y5140Z9DY2P932BJQ8EAXQEI4XIPD&a=945Y9&tp_a=945Y9&b=3Y5140Z9DY2P932BJQ8EAXQEI4XIPD&tp_b=3Y5140Z9DY2P932BJQ8EAXQEI4XIPD&c=365799&tp_c=365799"},{"rt":3551,"stimulus":"\n            <h4 style=\"color:Orange;\">Student 3</h4>\n            <h2>The weight of your coin is <b style=\"color:Tomato;\">0.2</b>.</h2>\n            <p>In this block, you will be giving <b>one</b> set of examples to Student 3.</p>\n                <p>You will receive feedback at the end of the block.</p>\n            <p></p>","response":0,"trial_type":"html-button-response","trial_index":24,"time_elapsed":890530,"internal_node_id":"0.0-17.0","params":{"nStudents":24,"maxFlips":30,"completionMinutes":45,"basePay":8,"maxBonus":9,"perTrialBonus":0.5,"perTrialBonusThreshold":0.05,"exampleCost":0.01},"classroomParams":{"A":{"a":1,"b":4},"B":{"a":4,"b":1},"C":{"a":2,"b":8},"D":{"a":8,"b":2}},"conditions":["nonSeqFull","nonSeqPartial","seqNoFeedback","seqFeedback"],"classroomPairings":[["A","B"],["C","D"]],"coinWeights":[0.2,0.5,0.8],"subjectId":"A1F2APQMJSQVFK","assignmentId":"3Y5140Z9DY2P932BJQ8EAXQEI4XIPD","hitId":"3JGHED38EDDK7DFM0KVY7GXU94LY7W","url":"https://gershmanlab.com/experiments/alicia/teaching/experiment/?hitId=3JGHED38EDDK7DFM0KVY7GXU94LY7W&workerId=A1F2APQMJSQVFK&assignmentId=3Y5140Z9DY2P932BJQ8EAXQEI4XIPD&a=945Y9&tp_a=945Y9&b=3Y5140Z9DY2P932BJQ8EAXQEI4XIPD&tp_b=3Y5140Z9DY2P932BJQ8EAXQEI4XIPD&c=365799&tp_c=365799"},{"rt":8173,"response":{"heads":"0","tails":"3"},"type":"response","condition":"nonSeqFull","trueTheta":0.2,"classrooms":["C","D"],"studentTrueClassroom":"D","exampleSet":"first","trial_type":"survey-html-form","trial_index":25,"time_elapsed":898706,"internal_node_id":"0.0-18.0-0.0","params":{"nStudents":24,"maxFlips":30,"completionMinutes":45,"basePay":8,"maxBonus":9,"perTrialBonus":0.5,"perTrialBonusThreshold":0.05,"exampleCost":0.01},"classroomParams":{"A":{"a":1,"b":4},"B":{"a":4,"b":1},"C":{"a":2,"b":8},"D":{"a":8,"b":2}},"conditions":["nonSeqFull","nonSeqPartial","seqNoFeedback","seqFeedback"],"classroomPairings":[["A","B"],["C","D"]],"coinWeights":[0.2,0.5,0.8],"subjectId":"A1F2APQMJSQVFK","assignmentId":"3Y5140Z9DY2P932BJQ8EAXQEI4XIPD","hitId":"3JGHED38EDDK7DFM0KVY7GXU94LY7W","url":"https://gershmanlab.com/experiments/alicia/teaching/experiment/?hitId=3JGHED38EDDK7DFM0KVY7GXU94LY7W&workerId=A1F2APQMJSQVFK&assignmentId=3Y5140Z9DY2P932BJQ8EAXQEI4XIPD&a=945Y9&tp_a=945Y9&b=3Y5140Z9DY2P932BJQ8EAXQEI4XIPD&tp_b=3Y5140Z9DY2P932BJQ8EAXQEI4XIPD&c=365799&tp_c=365799","heads":0,"tails":3,"studentIndex":2,"studentTrueHypers":{"a":8,"b":2},"studentGuess":0.6153846153846154,"delta":0.4153846153846154,"totalExamples":3,"bonus":0,"bonusSoFar":0},{"rt":null,"stimulus":"Sending examples to student... ","response":null,"trial_type":"html-keyboard-response","trial_index":26,"time_elapsed":899973,"internal_node_id":"0.0-19.0","params":{"nStudents":24,"maxFlips":30,"completionMinutes":45,"basePay":8,"maxBonus":9,"perTrialBonus":0.5,"perTrialBonusThreshold":0.05,"exampleCost":0.01},"classroomParams":{"A":{"a":1,"b":4},"B":{"a":4,"b":1},"C":{"a":2,"b":8},"D":{"a":8,"b":2}},"conditions":["nonSeqFull","nonSeqPartial","seqNoFeedback","seqFeedback"],"classroomPairings":[["A","B"],["C","D"]],"coinWeights":[0.2,0.5,0.8],"subjectId":"A1F2APQMJSQVFK","assignmentId":"3Y5140Z9DY2P932BJQ8EAXQEI4XIPD","hitId":"3JGHED38EDDK7DFM0KVY7GXU94LY7W","url":"https://gershmanlab.com/experiments/alicia/teaching/experiment/?hitId=3JGHED38EDDK7DFM0KVY7GXU94LY7W&workerId=A1F2APQMJSQVFK&assignmentId=3Y5140Z9DY2P932BJQ8EAXQEI4XIPD&a=945Y9&tp_a=945Y9&b=3Y5140Z9DY2P932BJQ8EAXQEI4XIPD&tp_b=3Y5140Z9DY2P932BJQ8EAXQEI4XIPD&c=365799&tp_c=365799"},{"rt":null,"stimulus":"Examples sent to student! Waiting for student...","response":null,"trial_type":"html-keyboard-response","trial_index":27,"time_elapsed":905980,"internal_node_id":"0.0-20.0","params":{"nStudents":24,"maxFlips":30,"completionMinutes":45,"basePay":8,"maxBonus":9,"perTrialBonus":0.5,"perTrialBonusThreshold":0.05,"exampleCost":0.01},"classroomParams":{"A":{"a":1,"b":4},"B":{"a":4,"b":1},"C":{"a":2,"b":8},"D":{"a":8,"b":2}},"conditions":["nonSeqFull","nonSeqPartial","seqNoFeedback","seqFeedback"],"classroomPairings":[["A","B"],["C","D"]],"coinWeights":[0.2,0.5,0.8],"subjectId":"A1F2APQMJSQVFK","assignmentId":"3Y5140Z9DY2P932BJQ8EAXQEI4XIPD","hitId":"3JGHED38EDDK7DFM0KVY7GXU94LY7W","url":"https://gershmanlab.com/experiments/alicia/teaching/experiment/?hitId=3JGHED38EDDK7DFM0KVY7GXU94LY7W&workerId=A1F2APQMJSQVFK&assignmentId=3Y5140Z9DY2P932BJQ8EAXQEI4XIPD&a=945Y9&tp_a=945Y9&b=3Y5140Z9DY2P932BJQ8EAXQEI4XIPD&tp_b=3Y5140Z9DY2P932BJQ8EAXQEI4XIPD&c=365799&tp_c=365799"},{"rt":4764,"stimulus":"\n                <p>Student's guess for coin weight: <b style=\"color:Tomato;\">0.62</b></p>\n                <p>You received a bonus of <b>$0</b>. Total bonus so far: <b>$0.00</b></b></p>\n                <p></p>\n                <p>Press any key to continue.</p>\n                ","response":" ","trial_type":"html-keyboard-response","trial_index":28,"time_elapsed":910746,"internal_node_id":"0.0-21.0","params":{"nStudents":24,"maxFlips":30,"completionMinutes":45,"basePay":8,"maxBonus":9,"perTrialBonus":0.5,"perTrialBonusThreshold":0.05,"exampleCost":0.01},"classroomParams":{"A":{"a":1,"b":4},"B":{"a":4,"b":1},"C":{"a":2,"b":8},"D":{"a":8,"b":2}},"conditions":["nonSeqFull","nonSeqPartial","seqNoFeedback","seqFeedback"],"classroomPairings":[["A","B"],["C","D"]],"coinWeights":[0.2,0.5,0.8],"subjectId":"A1F2APQMJSQVFK","assignmentId":"3Y5140Z9DY2P932BJQ8EAXQEI4XIPD","hitId":"3JGHED38EDDK7DFM0KVY7GXU94LY7W","url":"https://gershmanlab.com/experiments/alicia/teaching/experiment/?hitId=3JGHED38EDDK7DFM0KVY7GXU94LY7W&workerId=A1F2APQMJSQVFK&assignmentId=3Y5140Z9DY2P932BJQ8EAXQEI4XIPD&a=945Y9&tp_a=945Y9&b=3Y5140Z9DY2P932BJQ8EAXQEI4XIPD&tp_b=3Y5140Z9DY2P932BJQ8EAXQEI4XIPD&c=365799&tp_c=365799"},{"rt":null,"stimulus":"<div style=\"font-size:60px;\">Next student</div>","response":null,"trial_type":"html-keyboard-response","trial_index":29,"time_elapsed":912754,"internal_node_id":"0.0-22.0-0.0","params":{"nStudents":24,"maxFlips":30,"completionMinutes":45,"basePay":8,"maxBonus":9,"perTrialBonus":0.5,"perTrialBonusThreshold":0.05,"exampleCost":0.01},"classroomParams":{"A":{"a":1,"b":4},"B":{"a":4,"b":1},"C":{"a":2,"b":8},"D":{"a":8,"b":2}},"conditions":["nonSeqFull","nonSeqPartial","seqNoFeedback","seqFeedback"],"classroomPairings":[["A","B"],["C","D"]],"coinWeights":[0.2,0.5,0.8],"subjectId":"A1F2APQMJSQVFK","assignmentId":"3Y5140Z9DY2P932BJQ8EAXQEI4XIPD","hitId":"3JGHED38EDDK7DFM0KVY7GXU94LY7W","url":"https://gershmanlab.com/experiments/alicia/teaching/experiment/?hitId=3JGHED38EDDK7DFM0KVY7GXU94LY7W&workerId=A1F2APQMJSQVFK&assignmentId=3Y5140Z9DY2P932BJQ8EAXQEI4XIPD&a=945Y9&tp_a=945Y9&b=3Y5140Z9DY2P932BJQ8EAXQEI4XIPD&tp_b=3Y5140Z9DY2P932BJQ8EAXQEI4XIPD&c=365799&tp_c=365799"},{"rt":4506,"stimulus":"\n            <h4 style=\"color:Orange;\">Student 4</h4>\n            <h2>The weight of your coin is <b style=\"color:Tomato;\">0.2</b>.</h2>\n            <p>In this block, you will be giving <b>one</b> set of examples to Student 4.</p>\n                <p>You will receive feedback at the end of the block.</p>\n            <p></p>","response":0,"trial_type":"html-button-response","trial_index":30,"time_elapsed":917264,"internal_node_id":"0.0-23.0","params":{"nStudents":24,"maxFlips":30,"completionMinutes":45,"basePay":8,"maxBonus":9,"perTrialBonus":0.5,"perTrialBonusThreshold":0.05,"exampleCost":0.01},"classroomParams":{"A":{"a":1,"b":4},"B":{"a":4,"b":1},"C":{"a":2,"b":8},"D":{"a":8,"b":2}},"conditions":["nonSeqFull","nonSeqPartial","seqNoFeedback","seqFeedback"],"classroomPairings":[["A","B"],["C","D"]],"coinWeights":[0.2,0.5,0.8],"subjectId":"A1F2APQMJSQVFK","assignmentId":"3Y5140Z9DY2P932BJQ8EAXQEI4XIPD","hitId":"3JGHED38EDDK7DFM0KVY7GXU94LY7W","url":"https://gershmanlab.com/experiments/alicia/teaching/experiment/?hitId=3JGHED38EDDK7DFM0KVY7GXU94LY7W&workerId=A1F2APQMJSQVFK&assignmentId=3Y5140Z9DY2P932BJQ8EAXQEI4XIPD&a=945Y9&tp_a=945Y9&b=3Y5140Z9DY2P932BJQ8EAXQEI4XIPD&tp_b=3Y5140Z9DY2P932BJQ8EAXQEI4XIPD&c=365799&tp_c=365799"},{"rt":12377,"response":{"heads":"02","tails":"08"},"type":"response","condition":"nonSeqPartial","trueTheta":0.2,"classrooms":["C","D"],"studentTrueClassroom":"D","exampleSet":"first","trial_type":"survey-html-form","trial_index":31,"time_elapsed":929646,"internal_node_id":"0.0-24.0-0.0","params":{"nStudents":24,"maxFlips":30,"completionMinutes":45,"basePay":8,"maxBonus":9,"perTrialBonus":0.5,"perTrialBonusThreshold":0.05,"exampleCost":0.01},"classroomParams":{"A":{"a":1,"b":4},"B":{"a":4,"b":1},"C":{"a":2,"b":8},"D":{"a":8,"b":2}},"conditions":["nonSeqFull","nonSeqPartial","seqNoFeedback","seqFeedback"],"classroomPairings":[["A","B"],["C","D"]],"coinWeights":[0.2,0.5,0.8],"subjectId":"A1F2APQMJSQVFK","assignmentId":"3Y5140Z9DY2P932BJQ8EAXQEI4XIPD","hitId":"3JGHED38EDDK7DFM0KVY7GXU94LY7W","url":"https://gershmanlab.com/experiments/alicia/teaching/experiment/?hitId=3JGHED38EDDK7DFM0KVY7GXU94LY7W&workerId=A1F2APQMJSQVFK&assignmentId=3Y5140Z9DY2P932BJQ8EAXQEI4XIPD&a=945Y9&tp_a=945Y9&b=3Y5140Z9DY2P932BJQ8EAXQEI4XIPD&tp_b=3Y5140Z9DY2P932BJQ8EAXQEI4XIPD&c=365799&tp_c=365799","heads":2,"tails":8,"studentIndex":3,"studentTrueHypers":{"a":8,"b":2},"studentGuess":0.5,"delta":0.3,"totalExamples":10,"bonus":0,"bonusSoFar":0},{"rt":null,"stimulus":"Sending examples to student... ","response":null,"trial_type":"html-keyboard-response","trial_index":32,"time_elapsed":931414,"internal_node_id":"0.0-25.0","params":{"nStudents":24,"maxFlips":30,"completionMinutes":45,"basePay":8,"maxBonus":9,"perTrialBonus":0.5,"perTrialBonusThreshold":0.05,"exampleCost":0.01},"classroomParams":{"A":{"a":1,"b":4},"B":{"a":4,"b":1},"C":{"a":2,"b":8},"D":{"a":8,"b":2}},"conditions":["nonSeqFull","nonSeqPartial","seqNoFeedback","seqFeedback"],"classroomPairings":[["A","B"],["C","D"]],"coinWeights":[0.2,0.5,0.8],"subjectId":"A1F2APQMJSQVFK","assignmentId":"3Y5140Z9DY2P932BJQ8EAXQEI4XIPD","hitId":"3JGHED38EDDK7DFM0KVY7GXU94LY7W","url":"https://gershmanlab.com/experiments/alicia/teaching/experiment/?hitId=3JGHED38EDDK7DFM0KVY7GXU94LY7W&workerId=A1F2APQMJSQVFK&assignmentId=3Y5140Z9DY2P932BJQ8EAXQEI4XIPD&a=945Y9&tp_a=945Y9&b=3Y5140Z9DY2P932BJQ8EAXQEI4XIPD&tp_b=3Y5140Z9DY2P932BJQ8EAXQEI4XIPD&c=365799&tp_c=365799"},{"rt":null,"stimulus":"Examples sent to student! Waiting for student...","response":null,"trial_type":"html-keyboard-response","trial_index":33,"time_elapsed":935421,"internal_node_id":"0.0-26.0","params":{"nStudents":24,"maxFlips":30,"completionMinutes":45,"basePay":8,"maxBonus":9,"perTrialBonus":0.5,"perTrialBonusThreshold":0.05,"exampleCost":0.01},"classroomParams":{"A":{"a":1,"b":4},"B":{"a":4,"b":1},"C":{"a":2,"b":8},"D":{"a":8,"b":2}},"conditions":["nonSeqFull","nonSeqPartial","seqNoFeedback","seqFeedback"],"classroomPairings":[["A","B"],["C","D"]],"coinWeights":[0.2,0.5,0.8],"subjectId":"A1F2APQMJSQVFK","assignmentId":"3Y5140Z9DY2P932BJQ8EAXQEI4XIPD","hitId":"3JGHED38EDDK7DFM0KVY7GXU94LY7W","url":"https://gershmanlab.com/experiments/alicia/teaching/experiment/?hitId=3JGHED38EDDK7DFM0KVY7GXU94LY7W&workerId=A1F2APQMJSQVFK&assignmentId=3Y5140Z9DY2P932BJQ8EAXQEI4XIPD&a=945Y9&tp_a=945Y9&b=3Y5140Z9DY2P932BJQ8EAXQEI4XIPD&tp_b=3Y5140Z9DY2P932BJQ8EAXQEI4XIPD&c=365799&tp_c=365799"},{"rt":5169,"stimulus":"\n                <p>Student's guess for coin weight: <b style=\"color:Tomato;\">0.50</b></p>\n                <p>You received a bonus of <b>$0</b>. Total bonus so far: <b>$0.00</b></b></p>\n                <p></p>\n                <p>Press any key to continue.</p>\n                ","response":" ","trial_type":"html-keyboard-response","trial_index":34,"time_elapsed":940593,"internal_node_id":"0.0-27.0","params":{"nStudents":24,"maxFlips":30,"completionMinutes":45,"basePay":8,"maxBonus":9,"perTrialBonus":0.5,"perTrialBonusThreshold":0.05,"exampleCost":0.01},"classroomParams":{"A":{"a":1,"b":4},"B":{"a":4,"b":1},"C":{"a":2,"b":8},"D":{"a":8,"b":2}},"conditions":["nonSeqFull","nonSeqPartial","seqNoFeedback","seqFeedback"],"classroomPairings":[["A","B"],["C","D"]],"coinWeights":[0.2,0.5,0.8],"subjectId":"A1F2APQMJSQVFK","assignmentId":"3Y5140Z9DY2P932BJQ8EAXQEI4XIPD","hitId":"3JGHED38EDDK7DFM0KVY7GXU94LY7W","url":"https://gershmanlab.com/experiments/alicia/teaching/experiment/?hitId=3JGHED38EDDK7DFM0KVY7GXU94LY7W&workerId=A1F2APQMJSQVFK&assignmentId=3Y5140Z9DY2P932BJQ8EAXQEI4XIPD&a=945Y9&tp_a=945Y9&b=3Y5140Z9DY2P932BJQ8EAXQEI4XIPD&tp_b=3Y5140Z9DY2P932BJQ8EAXQEI4XIPD&c=365799&tp_c=365799"},{"rt":null,"stimulus":"<div style=\"font-size:60px;\">Next student</div>","response":null,"trial_type":"html-keyboard-response","trial_index":35,"time_elapsed":942847,"internal_node_id":"0.0-28.0-0.0","params":{"nStudents":24,"maxFlips":30,"completionMinutes":45,"basePay":8,"maxBonus":9,"perTrialBonus":0.5,"perTrialBonusThreshold":0.05,"exampleCost":0.01},"classroomParams":{"A":{"a":1,"b":4},"B":{"a":4,"b":1},"C":{"a":2,"b":8},"D":{"a":8,"b":2}},"conditions":["nonSeqFull","nonSeqPartial","seqNoFeedback","seqFeedback"],"classroomPairings":[["A","B"],["C","D"]],"coinWeights":[0.2,0.5,0.8],"subjectId":"A1F2APQMJSQVFK","assignmentId":"3Y5140Z9DY2P932BJQ8EAXQEI4XIPD","hitId":"3JGHED38EDDK7DFM0KVY7GXU94LY7W","url":"https://gershmanlab.com/experiments/alicia/teaching/experiment/?hitId=3JGHED38EDDK7DFM0KVY7GXU94LY7W&workerId=A1F2APQMJSQVFK&assignmentId=3Y5140Z9DY2P932BJQ8EAXQEI4XIPD&a=945Y9&tp_a=945Y9&b=3Y5140Z9DY2P932BJQ8EAXQEI4XIPD&tp_b=3Y5140Z9DY2P932BJQ8EAXQEI4XIPD&c=365799&tp_c=365799"},{"rt":10287,"stimulus":"\n            <h4 style=\"color:Orange;\">Student 5</h4>\n            <h2>The weight of your coin is <b style=\"color:Tomato;\">0.5</b>.</h2>\n            <p>In this block, you will be giving <b>two</b> sets of examples to Student 5.</p>\n                <p>You will see the student's guess after the first set of examples. You will also receive feedback at the end of the block.</p>\n            <p>To earn the highest bonus, you will have to <b>take into consideration the student's guess</b> when you choose your second set of examples.</p>","response":0,"trial_type":"html-button-response","trial_index":36,"time_elapsed":953136,"internal_node_id":"0.0-29.0","params":{"nStudents":24,"maxFlips":30,"completionMinutes":45,"basePay":8,"maxBonus":9,"perTrialBonus":0.5,"perTrialBonusThreshold":0.05,"exampleCost":0.01},"classroomParams":{"A":{"a":1,"b":4},"B":{"a":4,"b":1},"C":{"a":2,"b":8},"D":{"a":8,"b":2}},"conditions":["nonSeqFull","nonSeqPartial","seqNoFeedback","seqFeedback"],"classroomPairings":[["A","B"],["C","D"]],"coinWeights":[0.2,0.5,0.8],"subjectId":"A1F2APQMJSQVFK","assignmentId":"3Y5140Z9DY2P932BJQ8EAXQEI4XIPD","hitId":"3JGHED38EDDK7DFM0KVY7GXU94LY7W","url":"https://gershmanlab.com/experiments/alicia/teaching/experiment/?hitId=3JGHED38EDDK7DFM0KVY7GXU94LY7W&workerId=A1F2APQMJSQVFK&assignmentId=3Y5140Z9DY2P932BJQ8EAXQEI4XIPD&a=945Y9&tp_a=945Y9&b=3Y5140Z9DY2P932BJQ8EAXQEI4XIPD&tp_b=3Y5140Z9DY2P932BJQ8EAXQEI4XIPD&c=365799&tp_c=365799"},{"rt":11714,"response":{"heads":"05","tails":"03"},"type":"response","condition":"seqFeedback","trueTheta":0.5,"classrooms":["C","D"],"studentTrueClassroom":"C","exampleSet":"first","trial_type":"survey-html-form","trial_index":37,"time_elapsed":964852,"internal_node_id":"0.0-30.0-0.0","params":{"nStudents":24,"maxFlips":30,"completionMinutes":45,"basePay":8,"maxBonus":9,"perTrialBonus":0.5,"perTrialBonusThreshold":0.05,"exampleCost":0.01},"classroomParams":{"A":{"a":1,"b":4},"B":{"a":4,"b":1},"C":{"a":2,"b":8},"D":{"a":8,"b":2}},"conditions":["nonSeqFull","nonSeqPartial","seqNoFeedback","seqFeedback"],"classroomPairings":[["A","B"],["C","D"]],"coinWeights":[0.2,0.5,0.8],"subjectId":"A1F2APQMJSQVFK","assignmentId":"3Y5140Z9DY2P932BJQ8EAXQEI4XIPD","hitId":"3JGHED38EDDK7DFM0KVY7GXU94LY7W","url":"https://gershmanlab.com/experiments/alicia/teaching/experiment/?hitId=3JGHED38EDDK7DFM0KVY7GXU94LY7W&workerId=A1F2APQMJSQVFK&assignmentId=3Y5140Z9DY2P932BJQ8EAXQEI4XIPD&a=945Y9&tp_a=945Y9&b=3Y5140Z9DY2P932BJQ8EAXQEI4XIPD&tp_b=3Y5140Z9DY2P932BJQ8EAXQEI4XIPD&c=365799&tp_c=365799","heads":5,"tails":3,"studentIndex":4,"studentTrueHypers":{"a":2,"b":8},"studentGuess":0.3888888888888889,"delta":0.1111111111111111,"totalExamples":8,"bonusSoFar":0},{"rt":null,"stimulus":"Sending examples to student... ","response":null,"trial_type":"html-keyboard-response","trial_index":38,"time_elapsed":966368,"internal_node_id":"0.0-31.0","params":{"nStudents":24,"maxFlips":30,"completionMinutes":45,"basePay":8,"maxBonus":9,"perTrialBonus":0.5,"perTrialBonusThreshold":0.05,"exampleCost":0.01},"classroomParams":{"A":{"a":1,"b":4},"B":{"a":4,"b":1},"C":{"a":2,"b":8},"D":{"a":8,"b":2}},"conditions":["nonSeqFull","nonSeqPartial","seqNoFeedback","seqFeedback"],"classroomPairings":[["A","B"],["C","D"]],"coinWeights":[0.2,0.5,0.8],"subjectId":"A1F2APQMJSQVFK","assignmentId":"3Y5140Z9DY2P932BJQ8EAXQEI4XIPD","hitId":"3JGHED38EDDK7DFM0KVY7GXU94LY7W","url":"https://gershmanlab.com/experiments/alicia/teaching/experiment/?hitId=3JGHED38EDDK7DFM0KVY7GXU94LY7W&workerId=A1F2APQMJSQVFK&assignmentId=3Y5140Z9DY2P932BJQ8EAXQEI4XIPD&a=945Y9&tp_a=945Y9&b=3Y5140Z9DY2P932BJQ8EAXQEI4XIPD&tp_b=3Y5140Z9DY2P932BJQ8EAXQEI4XIPD&c=365799&tp_c=365799"},{"rt":null,"stimulus":"Examples sent to student! Waiting for student...","response":null,"trial_type":"html-keyboard-response","trial_index":39,"time_elapsed":972371,"internal_node_id":"0.0-32.0","params":{"nStudents":24,"maxFlips":30,"completionMinutes":45,"basePay":8,"maxBonus":9,"perTrialBonus":0.5,"perTrialBonusThreshold":0.05,"exampleCost":0.01},"classroomParams":{"A":{"a":1,"b":4},"B":{"a":4,"b":1},"C":{"a":2,"b":8},"D":{"a":8,"b":2}},"conditions":["nonSeqFull","nonSeqPartial","seqNoFeedback","seqFeedback"],"classroomPairings":[["A","B"],["C","D"]],"coinWeights":[0.2,0.5,0.8],"subjectId":"A1F2APQMJSQVFK","assignmentId":"3Y5140Z9DY2P932BJQ8EAXQEI4XIPD","hitId":"3JGHED38EDDK7DFM0KVY7GXU94LY7W","url":"https://gershmanlab.com/experiments/alicia/teaching/experiment/?hitId=3JGHED38EDDK7DFM0KVY7GXU94LY7W&workerId=A1F2APQMJSQVFK&assignmentId=3Y5140Z9DY2P932BJQ8EAXQEI4XIPD&a=945Y9&tp_a=945Y9&b=3Y5140Z9DY2P932BJQ8EAXQEI4XIPD&tp_b=3Y5140Z9DY2P932BJQ8EAXQEI4XIPD&c=365799&tp_c=365799"},{"rt":6507,"stimulus":"\n                <p>Student's guess for coin weight: <b style=\"color:Tomato;\">0.39</b></p>\n                <p></b></p>\n                <p>You will now send another set of examples to your student. <b>Remember to take your student's guess into consideration so that you can earn the highest bonus possible!</b> </p>\n                <p>Press any key to continue.</p>\n                ","response":" ","trial_type":"html-keyboard-response","trial_index":40,"time_elapsed":978880,"internal_node_id":"0.0-33.0","params":{"nStudents":24,"maxFlips":30,"completionMinutes":45,"basePay":8,"maxBonus":9,"perTrialBonus":0.5,"perTrialBonusThreshold":0.05,"exampleCost":0.01},"classroomParams":{"A":{"a":1,"b":4},"B":{"a":4,"b":1},"C":{"a":2,"b":8},"D":{"a":8,"b":2}},"conditions":["nonSeqFull","nonSeqPartial","seqNoFeedback","seqFeedback"],"classroomPairings":[["A","B"],["C","D"]],"coinWeights":[0.2,0.5,0.8],"subjectId":"A1F2APQMJSQVFK","assignmentId":"3Y5140Z9DY2P932BJQ8EAXQEI4XIPD","hitId":"3JGHED38EDDK7DFM0KVY7GXU94LY7W","url":"https://gershmanlab.com/experiments/alicia/teaching/experiment/?hitId=3JGHED38EDDK7DFM0KVY7GXU94LY7W&workerId=A1F2APQMJSQVFK&assignmentId=3Y5140Z9DY2P932BJQ8EAXQEI4XIPD&a=945Y9&tp_a=945Y9&b=3Y5140Z9DY2P932BJQ8EAXQEI4XIPD&tp_b=3Y5140Z9DY2P932BJQ8EAXQEI4XIPD&c=365799&tp_c=365799"},{"rt":9630,"response":{"heads":"08","tails":"03"},"type":"response","condition":"seqFeedback","trueTheta":0.5,"classrooms":["C","D"],"studentTrueClassroom":"C","exampleSet":"second","trial_type":"survey-html-form","trial_index":41,"time_elapsed":988512,"internal_node_id":"0.0-34.0-0.0","params":{"nStudents":24,"maxFlips":30,"completionMinutes":45,"basePay":8,"maxBonus":9,"perTrialBonus":0.5,"perTrialBonusThreshold":0.05,"exampleCost":0.01},"classroomParams":{"A":{"a":1,"b":4},"B":{"a":4,"b":1},"C":{"a":2,"b":8},"D":{"a":8,"b":2}},"conditions":["nonSeqFull","nonSeqPartial","seqNoFeedback","seqFeedback"],"classroomPairings":[["A","B"],["C","D"]],"coinWeights":[0.2,0.5,0.8],"subjectId":"A1F2APQMJSQVFK","assignmentId":"3Y5140Z9DY2P932BJQ8EAXQEI4XIPD","hitId":"3JGHED38EDDK7DFM0KVY7GXU94LY7W","url":"https://gershmanlab.com/experiments/alicia/teaching/experiment/?hitId=3JGHED38EDDK7DFM0KVY7GXU94LY7W&workerId=A1F2APQMJSQVFK&assignmentId=3Y5140Z9DY2P932BJQ8EAXQEI4XIPD&a=945Y9&tp_a=945Y9&b=3Y5140Z9DY2P932BJQ8EAXQEI4XIPD&tp_b=3Y5140Z9DY2P932BJQ8EAXQEI4XIPD&c=365799&tp_c=365799","firstResponseHeads":5,"firstResponseTails":3,"secondResponseHeads":8,"secondResponseTails":3,"totalHeads":13,"totalTails":6,"studentIndex":4,"studentTrueHypers":{"a":2,"b":8},"studentGuess":0.5172413793103449,"delta":0.017241379310344862,"bonus":0.31,"bonusSoFar":0.31,"totalExamples":19},{"rt":null,"stimulus":"Sending examples to student... ","response":null,"trial_type":"html-keyboard-response","trial_index":42,"time_elapsed":989777,"internal_node_id":"0.0-35.0","params":{"nStudents":24,"maxFlips":30,"completionMinutes":45,"basePay":8,"maxBonus":9,"perTrialBonus":0.5,"perTrialBonusThreshold":0.05,"exampleCost":0.01},"classroomParams":{"A":{"a":1,"b":4},"B":{"a":4,"b":1},"C":{"a":2,"b":8},"D":{"a":8,"b":2}},"conditions":["nonSeqFull","nonSeqPartial","seqNoFeedback","seqFeedback"],"classroomPairings":[["A","B"],["C","D"]],"coinWeights":[0.2,0.5,0.8],"subjectId":"A1F2APQMJSQVFK","assignmentId":"3Y5140Z9DY2P932BJQ8EAXQEI4XIPD","hitId":"3JGHED38EDDK7DFM0KVY7GXU94LY7W","url":"https://gershmanlab.com/experiments/alicia/teaching/experiment/?hitId=3JGHED38EDDK7DFM0KVY7GXU94LY7W&workerId=A1F2APQMJSQVFK&assignmentId=3Y5140Z9DY2P932BJQ8EAXQEI4XIPD&a=945Y9&tp_a=945Y9&b=3Y5140Z9DY2P932BJQ8EAXQEI4XIPD&tp_b=3Y5140Z9DY2P932BJQ8EAXQEI4XIPD&c=365799&tp_c=365799"},{"rt":null,"stimulus":"Examples sent to student! Waiting for student...","response":null,"trial_type":"html-keyboard-response","trial_index":43,"time_elapsed":993790,"internal_node_id":"0.0-36.0","params":{"nStudents":24,"maxFlips":30,"completionMinutes":45,"basePay":8,"maxBonus":9,"perTrialBonus":0.5,"perTrialBonusThreshold":0.05,"exampleCost":0.01},"classroomParams":{"A":{"a":1,"b":4},"B":{"a":4,"b":1},"C":{"a":2,"b":8},"D":{"a":8,"b":2}},"conditions":["nonSeqFull","nonSeqPartial","seqNoFeedback","seqFeedback"],"classroomPairings":[["A","B"],["C","D"]],"coinWeights":[0.2,0.5,0.8],"subjectId":"A1F2APQMJSQVFK","assignmentId":"3Y5140Z9DY2P932BJQ8EAXQEI4XIPD","hitId":"3JGHED38EDDK7DFM0KVY7GXU94LY7W","url":"https://gershmanlab.com/experiments/alicia/teaching/experiment/?hitId=3JGHED38EDDK7DFM0KVY7GXU94LY7W&workerId=A1F2APQMJSQVFK&assignmentId=3Y5140Z9DY2P932BJQ8EAXQEI4XIPD&a=945Y9&tp_a=945Y9&b=3Y5140Z9DY2P932BJQ8EAXQEI4XIPD&tp_b=3Y5140Z9DY2P932BJQ8EAXQEI4XIPD&c=365799&tp_c=365799"},{"rt":8616,"stimulus":"\n                <p>Student 5's first guess for coin weight: <b style=\"color:Tomato\";>0.39</b></p>\n                <p>Student 5's second guess for coin weight: <b style=\"color:Tomato\";>0.52</b></p>\n                <p>You received a bonus of <b>$0.31</b> based on the student's second guess.</p>\n                <p>Total bonus so far: <b>$0.31</b></p>\n                <p>Press any key to continue.</p>\n                ","response":" ","trial_type":"html-keyboard-response","trial_index":44,"time_elapsed":1002410,"internal_node_id":"0.0-37.0","params":{"nStudents":24,"maxFlips":30,"completionMinutes":45,"basePay":8,"maxBonus":9,"perTrialBonus":0.5,"perTrialBonusThreshold":0.05,"exampleCost":0.01},"classroomParams":{"A":{"a":1,"b":4},"B":{"a":4,"b":1},"C":{"a":2,"b":8},"D":{"a":8,"b":2}},"conditions":["nonSeqFull","nonSeqPartial","seqNoFeedback","seqFeedback"],"classroomPairings":[["A","B"],["C","D"]],"coinWeights":[0.2,0.5,0.8],"subjectId":"A1F2APQMJSQVFK","assignmentId":"3Y5140Z9DY2P932BJQ8EAXQEI4XIPD","hitId":"3JGHED38EDDK7DFM0KVY7GXU94LY7W","url":"https://gershmanlab.com/experiments/alicia/teaching/experiment/?hitId=3JGHED38EDDK7DFM0KVY7GXU94LY7W&workerId=A1F2APQMJSQVFK&assignmentId=3Y5140Z9DY2P932BJQ8EAXQEI4XIPD&a=945Y9&tp_a=945Y9&b=3Y5140Z9DY2P932BJQ8EAXQEI4XIPD&tp_b=3Y5140Z9DY2P932BJQ8EAXQEI4XIPD&c=365799&tp_c=365799"},{"rt":null,"stimulus":"<div style=\"font-size:60px;\">Next student</div>","response":null,"trial_type":"html-keyboard-response","trial_index":45,"time_elapsed":1004928,"internal_node_id":"0.0-38.0-0.0","params":{"nStudents":24,"maxFlips":30,"completionMinutes":45,"basePay":8,"maxBonus":9,"perTrialBonus":0.5,"perTrialBonusThreshold":0.05,"exampleCost":0.01},"classroomParams":{"A":{"a":1,"b":4},"B":{"a":4,"b":1},"C":{"a":2,"b":8},"D":{"a":8,"b":2}},"conditions":["nonSeqFull","nonSeqPartial","seqNoFeedback","seqFeedback"],"classroomPairings":[["A","B"],["C","D"]],"coinWeights":[0.2,0.5,0.8],"subjectId":"A1F2APQMJSQVFK","assignmentId":"3Y5140Z9DY2P932BJQ8EAXQEI4XIPD","hitId":"3JGHED38EDDK7DFM0KVY7GXU94LY7W","url":"https://gershmanlab.com/experiments/alicia/teaching/experiment/?hitId=3JGHED38EDDK7DFM0KVY7GXU94LY7W&workerId=A1F2APQMJSQVFK&assignmentId=3Y5140Z9DY2P932BJQ8EAXQEI4XIPD&a=945Y9&tp_a=945Y9&b=3Y5140Z9DY2P932BJQ8EAXQEI4XIPD&tp_b=3Y5140Z9DY2P932BJQ8EAXQEI4XIPD&c=365799&tp_c=365799"},{"rt":3800,"stimulus":"\n            <h4 style=\"color:Orange;\">Student 6</h4>\n            <h2>The weight of your coin is <b style=\"color:Tomato;\">0.2</b>.</h2>\n            <p>In this block, you will be giving <b>two</b> sets of examples to Student 6.</p>\n                <p>You will see the student's guess after the first set of examples. You will also receive feedback at the end of the block.</p>\n            <p>To earn the highest bonus, you will have to <b>take into consideration the student's guess</b> when you choose your second set of examples.</p>","response":0,"trial_type":"html-button-response","trial_index":46,"time_elapsed":1008730,"internal_node_id":"0.0-39.0","params":{"nStudents":24,"maxFlips":30,"completionMinutes":45,"basePay":8,"maxBonus":9,"perTrialBonus":0.5,"perTrialBonusThreshold":0.05,"exampleCost":0.01},"classroomParams":{"A":{"a":1,"b":4},"B":{"a":4,"b":1},"C":{"a":2,"b":8},"D":{"a":8,"b":2}},"conditions":["nonSeqFull","nonSeqPartial","seqNoFeedback","seqFeedback"],"classroomPairings":[["A","B"],["C","D"]],"coinWeights":[0.2,0.5,0.8],"subjectId":"A1F2APQMJSQVFK","assignmentId":"3Y5140Z9DY2P932BJQ8EAXQEI4XIPD","hitId":"3JGHED38EDDK7DFM0KVY7GXU94LY7W","url":"https://gershmanlab.com/experiments/alicia/teaching/experiment/?hitId=3JGHED38EDDK7DFM0KVY7GXU94LY7W&workerId=A1F2APQMJSQVFK&assignmentId=3Y5140Z9DY2P932BJQ8EAXQEI4XIPD&a=945Y9&tp_a=945Y9&b=3Y5140Z9DY2P932BJQ8EAXQEI4XIPD&tp_b=3Y5140Z9DY2P932BJQ8EAXQEI4XIPD&c=365799&tp_c=365799"},{"rt":16654,"response":{"heads":"02","tails":"06"},"type":"response","condition":"seqFeedback","trueTheta":0.2,"classrooms":["C","D"],"studentTrueClassroom":"C","exampleSet":"first","trial_type":"survey-html-form","trial_index":47,"time_elapsed":1025386,"internal_node_id":"0.0-40.0-0.0","params":{"nStudents":24,"maxFlips":30,"completionMinutes":45,"basePay":8,"maxBonus":9,"perTrialBonus":0.5,"perTrialBonusThreshold":0.05,"exampleCost":0.01},"classroomParams":{"A":{"a":1,"b":4},"B":{"a":4,"b":1},"C":{"a":2,"b":8},"D":{"a":8,"b":2}},"conditions":["nonSeqFull","nonSeqPartial","seqNoFeedback","seqFeedback"],"classroomPairings":[["A","B"],["C","D"]],"coinWeights":[0.2,0.5,0.8],"subjectId":"A1F2APQMJSQVFK","assignmentId":"3Y5140Z9DY2P932BJQ8EAXQEI4XIPD","hitId":"3JGHED38EDDK7DFM0KVY7GXU94LY7W","url":"https://gershmanlab.com/experiments/alicia/teaching/experiment/?hitId=3JGHED38EDDK7DFM0KVY7GXU94LY7W&workerId=A1F2APQMJSQVFK&assignmentId=3Y5140Z9DY2P932BJQ8EAXQEI4XIPD&a=945Y9&tp_a=945Y9&b=3Y5140Z9DY2P932BJQ8EAXQEI4XIPD&tp_b=3Y5140Z9DY2P932BJQ8EAXQEI4XIPD&c=365799&tp_c=365799","heads":2,"tails":6,"studentIndex":5,"studentTrueHypers":{"a":2,"b":8},"studentGuess":0.2222222222222222,"delta":0.0222222222222222,"totalExamples":8,"bonusSoFar":0.31},{"rt":null,"stimulus":"Sending examples to student... ","response":null,"trial_type":"html-keyboard-response","trial_index":48,"time_elapsed":1027153,"internal_node_id":"0.0-41.0","params":{"nStudents":24,"maxFlips":30,"completionMinutes":45,"basePay":8,"maxBonus":9,"perTrialBonus":0.5,"perTrialBonusThreshold":0.05,"exampleCost":0.01},"classroomParams":{"A":{"a":1,"b":4},"B":{"a":4,"b":1},"C":{"a":2,"b":8},"D":{"a":8,"b":2}},"conditions":["nonSeqFull","nonSeqPartial","seqNoFeedback","seqFeedback"],"classroomPairings":[["A","B"],["C","D"]],"coinWeights":[0.2,0.5,0.8],"subjectId":"A1F2APQMJSQVFK","assignmentId":"3Y5140Z9DY2P932BJQ8EAXQEI4XIPD","hitId":"3JGHED38EDDK7DFM0KVY7GXU94LY7W","url":"https://gershmanlab.com/experiments/alicia/teaching/experiment/?hitId=3JGHED38EDDK7DFM0KVY7GXU94LY7W&workerId=A1F2APQMJSQVFK&assignmentId=3Y5140Z9DY2P932BJQ8EAXQEI4XIPD&a=945Y9&tp_a=945Y9&b=3Y5140Z9DY2P932BJQ8EAXQEI4XIPD&tp_b=3Y5140Z9DY2P932BJQ8EAXQEI4XIPD&c=365799&tp_c=365799"},{"rt":null,"stimulus":"Examples sent to student! Waiting for student...","response":null,"trial_type":"html-keyboard-response","trial_index":49,"time_elapsed":1032166,"internal_node_id":"0.0-42.0","params":{"nStudents":24,"maxFlips":30,"completionMinutes":45,"basePay":8,"maxBonus":9,"perTrialBonus":0.5,"perTrialBonusThreshold":0.05,"exampleCost":0.01},"classroomParams":{"A":{"a":1,"b":4},"B":{"a":4,"b":1},"C":{"a":2,"b":8},"D":{"a":8,"b":2}},"conditions":["nonSeqFull","nonSeqPartial","seqNoFeedback","seqFeedback"],"classroomPairings":[["A","B"],["C","D"]],"coinWeights":[0.2,0.5,0.8],"subjectId":"A1F2APQMJSQVFK","assignmentId":"3Y5140Z9DY2P932BJQ8EAXQEI4XIPD","hitId":"3JGHED38EDDK7DFM0KVY7GXU94LY7W","url":"https://gershmanlab.com/experiments/alicia/teaching/experiment/?hitId=3JGHED38EDDK7DFM0KVY7GXU94LY7W&workerId=A1F2APQMJSQVFK&assignmentId=3Y5140Z9DY2P932BJQ8EAXQEI4XIPD&a=945Y9&tp_a=945Y9&b=3Y5140Z9DY2P932BJQ8EAXQEI4XIPD&tp_b=3Y5140Z9DY2P932BJQ8EAXQEI4XIPD&c=365799&tp_c=365799"},{"rt":4642,"stimulus":"\n                <p>Student's guess for coin weight: <b style=\"color:Tomato;\">0.22</b></p>\n                <p></b></p>\n                <p>You will now send another set of examples to your student. <b>Remember to take your student's guess into consideration so that you can earn the highest bonus possible!</b> </p>\n                <p>Press any key to continue.</p>\n                ","response":" ","trial_type":"html-keyboard-response","trial_index":50,"time_elapsed":1036810,"internal_node_id":"0.0-43.0","params":{"nStudents":24,"maxFlips":30,"completionMinutes":45,"basePay":8,"maxBonus":9,"perTrialBonus":0.5,"perTrialBonusThreshold":0.05,"exampleCost":0.01},"classroomParams":{"A":{"a":1,"b":4},"B":{"a":4,"b":1},"C":{"a":2,"b":8},"D":{"a":8,"b":2}},"conditions":["nonSeqFull","nonSeqPartial","seqNoFeedback","seqFeedback"],"classroomPairings":[["A","B"],["C","D"]],"coinWeights":[0.2,0.5,0.8],"subjectId":"A1F2APQMJSQVFK","assignmentId":"3Y5140Z9DY2P932BJQ8EAXQEI4XIPD","hitId":"3JGHED38EDDK7DFM0KVY7GXU94LY7W","url":"https://gershmanlab.com/experiments/alicia/teaching/experiment/?hitId=3JGHED38EDDK7DFM0KVY7GXU94LY7W&workerId=A1F2APQMJSQVFK&assignmentId=3Y5140Z9DY2P932BJQ8EAXQEI4XIPD&a=945Y9&tp_a=945Y9&b=3Y5140Z9DY2P932BJQ8EAXQEI4XIPD&tp_b=3Y5140Z9DY2P932BJQ8EAXQEI4XIPD&c=365799&tp_c=365799"},{"rt":7267,"response":{"heads":"02","tails":"06"},"type":"response","condition":"seqFeedback","trueTheta":0.2,"classrooms":["C","D"],"studentTrueClassroom":"C","exampleSet":"second","trial_type":"survey-html-form","trial_index":51,"time_elapsed":1044081,"internal_node_id":"0.0-44.0-0.0","params":{"nStudents":24,"maxFlips":30,"completionMinutes":45,"basePay":8,"maxBonus":9,"perTrialBonus":0.5,"perTrialBonusThreshold":0.05,"exampleCost":0.01},"classroomParams":{"A":{"a":1,"b":4},"B":{"a":4,"b":1},"C":{"a":2,"b":8},"D":{"a":8,"b":2}},"conditions":["nonSeqFull","nonSeqPartial","seqNoFeedback","seqFeedback"],"classroomPairings":[["A","B"],["C","D"]],"coinWeights":[0.2,0.5,0.8],"subjectId":"A1F2APQMJSQVFK","assignmentId":"3Y5140Z9DY2P932BJQ8EAXQEI4XIPD","hitId":"3JGHED38EDDK7DFM0KVY7GXU94LY7W","url":"https://gershmanlab.com/experiments/alicia/teaching/experiment/?hitId=3JGHED38EDDK7DFM0KVY7GXU94LY7W&workerId=A1F2APQMJSQVFK&assignmentId=3Y5140Z9DY2P932BJQ8EAXQEI4XIPD&a=945Y9&tp_a=945Y9&b=3Y5140Z9DY2P932BJQ8EAXQEI4XIPD&tp_b=3Y5140Z9DY2P932BJQ8EAXQEI4XIPD&c=365799&tp_c=365799","firstResponseHeads":2,"firstResponseTails":6,"secondResponseHeads":2,"secondResponseTails":6,"totalHeads":4,"totalTails":12,"studentIndex":5,"studentTrueHypers":{"a":2,"b":8},"studentGuess":0.23076923076923078,"delta":0.03076923076923077,"bonus":0.34,"bonusSoFar":0.65,"totalExamples":16},{"rt":null,"stimulus":"Sending examples to student... ","response":null,"trial_type":"html-keyboard-response","trial_index":52,"time_elapsed":1046093,"internal_node_id":"0.0-45.0","params":{"nStudents":24,"maxFlips":30,"completionMinutes":45,"basePay":8,"maxBonus":9,"perTrialBonus":0.5,"perTrialBonusThreshold":0.05,"exampleCost":0.01},"classroomParams":{"A":{"a":1,"b":4},"B":{"a":4,"b":1},"C":{"a":2,"b":8},"D":{"a":8,"b":2}},"conditions":["nonSeqFull","nonSeqPartial","seqNoFeedback","seqFeedback"],"classroomPairings":[["A","B"],["C","D"]],"coinWeights":[0.2,0.5,0.8],"subjectId":"A1F2APQMJSQVFK","assignmentId":"3Y5140Z9DY2P932BJQ8EAXQEI4XIPD","hitId":"3JGHED38EDDK7DFM0KVY7GXU94LY7W","url":"https://gershmanlab.com/experiments/alicia/teaching/experiment/?hitId=3JGHED38EDDK7DFM0KVY7GXU94LY7W&workerId=A1F2APQMJSQVFK&assignmentId=3Y5140Z9DY2P932BJQ8EAXQEI4XIPD&a=945Y9&tp_a=945Y9&b=3Y5140Z9DY2P932BJQ8EAXQEI4XIPD&tp_b=3Y5140Z9DY2P932BJQ8EAXQEI4XIPD&c=365799&tp_c=365799"},{"rt":null,"stimulus":"Examples sent to student! Waiting for student...","response":null,"trial_type":"html-keyboard-response","trial_index":53,"time_elapsed":1050110,"internal_node_id":"0.0-46.0","params":{"nStudents":24,"maxFlips":30,"completionMinutes":45,"basePay":8,"maxBonus":9,"perTrialBonus":0.5,"perTrialBonusThreshold":0.05,"exampleCost":0.01},"classroomParams":{"A":{"a":1,"b":4},"B":{"a":4,"b":1},"C":{"a":2,"b":8},"D":{"a":8,"b":2}},"conditions":["nonSeqFull","nonSeqPartial","seqNoFeedback","seqFeedback"],"classroomPairings":[["A","B"],["C","D"]],"coinWeights":[0.2,0.5,0.8],"subjectId":"A1F2APQMJSQVFK","assignmentId":"3Y5140Z9DY2P932BJQ8EAXQEI4XIPD","hitId":"3JGHED38EDDK7DFM0KVY7GXU94LY7W","url":"https://gershmanlab.com/experiments/alicia/teaching/experiment/?hitId=3JGHED38EDDK7DFM0KVY7GXU94LY7W&workerId=A1F2APQMJSQVFK&assignmentId=3Y5140Z9DY2P932BJQ8EAXQEI4XIPD&a=945Y9&tp_a=945Y9&b=3Y5140Z9DY2P932BJQ8EAXQEI4XIPD&tp_b=3Y5140Z9DY2P932BJQ8EAXQEI4XIPD&c=365799&tp_c=365799"},{"rt":3221,"stimulus":"\n                <p>Student 6's first guess for coin weight: <b style=\"color:Tomato\";>0.22</b></p>\n                <p>Student 6's second guess for coin weight: <b style=\"color:Tomato\";>0.23</b></p>\n                <p>You received a bonus of <b>$0.34</b> based on the student's second guess.</p>\n                <p>Total bonus so far: <b>$0.65</b></p>\n                <p>Press any key to continue.</p>\n                ","response":" ","trial_type":"html-keyboard-response","trial_index":54,"time_elapsed":1053334,"internal_node_id":"0.0-47.0","params":{"nStudents":24,"maxFlips":30,"completionMinutes":45,"basePay":8,"maxBonus":9,"perTrialBonus":0.5,"perTrialBonusThreshold":0.05,"exampleCost":0.01},"classroomParams":{"A":{"a":1,"b":4},"B":{"a":4,"b":1},"C":{"a":2,"b":8},"D":{"a":8,"b":2}},"conditions":["nonSeqFull","nonSeqPartial","seqNoFeedback","seqFeedback"],"classroomPairings":[["A","B"],["C","D"]],"coinWeights":[0.2,0.5,0.8],"subjectId":"A1F2APQMJSQVFK","assignmentId":"3Y5140Z9DY2P932BJQ8EAXQEI4XIPD","hitId":"3JGHED38EDDK7DFM0KVY7GXU94LY7W","url":"https://gershmanlab.com/experiments/alicia/teaching/experiment/?hitId=3JGHED38EDDK7DFM0KVY7GXU94LY7W&workerId=A1F2APQMJSQVFK&assignmentId=3Y5140Z9DY2P932BJQ8EAXQEI4XIPD&a=945Y9&tp_a=945Y9&b=3Y5140Z9DY2P932BJQ8EAXQEI4XIPD&tp_b=3Y5140Z9DY2P932BJQ8EAXQEI4XIPD&c=365799&tp_c=365799"},{"rt":null,"stimulus":"<div style=\"font-size:60px;\">Next student</div>","response":null,"trial_type":"html-keyboard-response","trial_index":55,"time_elapsed":1056339,"internal_node_id":"0.0-48.0-0.0","params":{"nStudents":24,"maxFlips":30,"completionMinutes":45,"basePay":8,"maxBonus":9,"perTrialBonus":0.5,"perTrialBonusThreshold":0.05,"exampleCost":0.01},"classroomParams":{"A":{"a":1,"b":4},"B":{"a":4,"b":1},"C":{"a":2,"b":8},"D":{"a":8,"b":2}},"conditions":["nonSeqFull","nonSeqPartial","seqNoFeedback","seqFeedback"],"classroomPairings":[["A","B"],["C","D"]],"coinWeights":[0.2,0.5,0.8],"subjectId":"A1F2APQMJSQVFK","assignmentId":"3Y5140Z9DY2P932BJQ8EAXQEI4XIPD","hitId":"3JGHED38EDDK7DFM0KVY7GXU94LY7W","url":"https://gershmanlab.com/experiments/alicia/teaching/experiment/?hitId=3JGHED38EDDK7DFM0KVY7GXU94LY7W&workerId=A1F2APQMJSQVFK&assignmentId=3Y5140Z9DY2P932BJQ8EAXQEI4XIPD&a=945Y9&tp_a=945Y9&b=3Y5140Z9DY2P932BJQ8EAXQEI4XIPD&tp_b=3Y5140Z9DY2P932BJQ8EAXQEI4XIPD&c=365799&tp_c=365799"},{"rt":6022,"stimulus":"\n            <h4 style=\"color:Orange;\">Student 7</h4>\n            <h2>The weight of your coin is <b style=\"color:Tomato;\">0.8</b>.</h2>\n            <p>In this block, you will be giving <b>one</b> set of examples to Student 7.</p>\n                <p>You will receive feedback at the end of the block.</p>\n            <p></p>","response":0,"trial_type":"html-button-response","trial_index":56,"time_elapsed":1062363,"internal_node_id":"0.0-49.0","params":{"nStudents":24,"maxFlips":30,"completionMinutes":45,"basePay":8,"maxBonus":9,"perTrialBonus":0.5,"perTrialBonusThreshold":0.05,"exampleCost":0.01},"classroomParams":{"A":{"a":1,"b":4},"B":{"a":4,"b":1},"C":{"a":2,"b":8},"D":{"a":8,"b":2}},"conditions":["nonSeqFull","nonSeqPartial","seqNoFeedback","seqFeedback"],"classroomPairings":[["A","B"],["C","D"]],"coinWeights":[0.2,0.5,0.8],"subjectId":"A1F2APQMJSQVFK","assignmentId":"3Y5140Z9DY2P932BJQ8EAXQEI4XIPD","hitId":"3JGHED38EDDK7DFM0KVY7GXU94LY7W","url":"https://gershmanlab.com/experiments/alicia/teaching/experiment/?hitId=3JGHED38EDDK7DFM0KVY7GXU94LY7W&workerId=A1F2APQMJSQVFK&assignmentId=3Y5140Z9DY2P932BJQ8EAXQEI4XIPD&a=945Y9&tp_a=945Y9&b=3Y5140Z9DY2P932BJQ8EAXQEI4XIPD&tp_b=3Y5140Z9DY2P932BJQ8EAXQEI4XIPD&c=365799&tp_c=365799"},{"rt":9673,"response":{"heads":"12","tails":"3"},"type":"response","condition":"nonSeqPartial","trueTheta":0.8,"classrooms":["A","B"],"studentTrueClassroom":"A","exampleSet":"first","trial_type":"survey-html-form","trial_index":57,"time_elapsed":1072040,"internal_node_id":"0.0-50.0-0.0","params":{"nStudents":24,"maxFlips":30,"completionMinutes":45,"basePay":8,"maxBonus":9,"perTrialBonus":0.5,"perTrialBonusThreshold":0.05,"exampleCost":0.01},"classroomParams":{"A":{"a":1,"b":4},"B":{"a":4,"b":1},"C":{"a":2,"b":8},"D":{"a":8,"b":2}},"conditions":["nonSeqFull","nonSeqPartial","seqNoFeedback","seqFeedback"],"classroomPairings":[["A","B"],["C","D"]],"coinWeights":[0.2,0.5,0.8],"subjectId":"A1F2APQMJSQVFK","assignmentId":"3Y5140Z9DY2P932BJQ8EAXQEI4XIPD","hitId":"3JGHED38EDDK7DFM0KVY7GXU94LY7W","url":"https://gershmanlab.com/experiments/alicia/teaching/experiment/?hitId=3JGHED38EDDK7DFM0KVY7GXU94LY7W&workerId=A1F2APQMJSQVFK&assignmentId=3Y5140Z9DY2P932BJQ8EAXQEI4XIPD&a=945Y9&tp_a=945Y9&b=3Y5140Z9DY2P932BJQ8EAXQEI4XIPD&tp_b=3Y5140Z9DY2P932BJQ8EAXQEI4XIPD&c=365799&tp_c=365799","heads":12,"tails":3,"studentIndex":6,"studentTrueHypers":{"a":1,"b":4},"studentGuess":0.65,"delta":0.15000000000000002,"totalExamples":15,"bonus":0,"bonusSoFar":0.65},{"rt":null,"stimulus":"Sending examples to student... ","response":null,"trial_type":"html-keyboard-response","trial_index":58,"time_elapsed":1073543,"internal_node_id":"0.0-51.0","params":{"nStudents":24,"maxFlips":30,"completionMinutes":45,"basePay":8,"maxBonus":9,"perTrialBonus":0.5,"perTrialBonusThreshold":0.05,"exampleCost":0.01},"classroomParams":{"A":{"a":1,"b":4},"B":{"a":4,"b":1},"C":{"a":2,"b":8},"D":{"a":8,"b":2}},"conditions":["nonSeqFull","nonSeqPartial","seqNoFeedback","seqFeedback"],"classroomPairings":[["A","B"],["C","D"]],"coinWeights":[0.2,0.5,0.8],"subjectId":"A1F2APQMJSQVFK","assignmentId":"3Y5140Z9DY2P932BJQ8EAXQEI4XIPD","hitId":"3JGHED38EDDK7DFM0KVY7GXU94LY7W","url":"https://gershmanlab.com/experiments/alicia/teaching/experiment/?hitId=3JGHED38EDDK7DFM0KVY7GXU94LY7W&workerId=A1F2APQMJSQVFK&assignmentId=3Y5140Z9DY2P932BJQ8EAXQEI4XIPD&a=945Y9&tp_a=945Y9&b=3Y5140Z9DY2P932BJQ8EAXQEI4XIPD&tp_b=3Y5140Z9DY2P932BJQ8EAXQEI4XIPD&c=365799&tp_c=365799"},{"rt":null,"stimulus":"Examples sent to student! Waiting for student...","response":null,"trial_type":"html-keyboard-response","trial_index":59,"time_elapsed":1077548,"internal_node_id":"0.0-52.0","params":{"nStudents":24,"maxFlips":30,"completionMinutes":45,"basePay":8,"maxBonus":9,"perTrialBonus":0.5,"perTrialBonusThreshold":0.05,"exampleCost":0.01},"classroomParams":{"A":{"a":1,"b":4},"B":{"a":4,"b":1},"C":{"a":2,"b":8},"D":{"a":8,"b":2}},"conditions":["nonSeqFull","nonSeqPartial","seqNoFeedback","seqFeedback"],"classroomPairings":[["A","B"],["C","D"]],"coinWeights":[0.2,0.5,0.8],"subjectId":"A1F2APQMJSQVFK","assignmentId":"3Y5140Z9DY2P932BJQ8EAXQEI4XIPD","hitId":"3JGHED38EDDK7DFM0KVY7GXU94LY7W","url":"https://gershmanlab.com/experiments/alicia/teaching/experiment/?hitId=3JGHED38EDDK7DFM0KVY7GXU94LY7W&workerId=A1F2APQMJSQVFK&assignmentId=3Y5140Z9DY2P932BJQ8EAXQEI4XIPD&a=945Y9&tp_a=945Y9&b=3Y5140Z9DY2P932BJQ8EAXQEI4XIPD&tp_b=3Y5140Z9DY2P932BJQ8EAXQEI4XIPD&c=365799&tp_c=365799"},{"rt":6427,"stimulus":"\n                <p>Student's guess for coin weight: <b style=\"color:Tomato;\">0.65</b></p>\n                <p>You received a bonus of <b>$0</b>. Total bonus so far: <b>$0.65</b></b></p>\n                <p></p>\n                <p>Press any key to continue.</p>\n                ","response":" ","trial_type":"html-keyboard-response","trial_index":60,"time_elapsed":1083976,"internal_node_id":"0.0-53.0","params":{"nStudents":24,"maxFlips":30,"completionMinutes":45,"basePay":8,"maxBonus":9,"perTrialBonus":0.5,"perTrialBonusThreshold":0.05,"exampleCost":0.01},"classroomParams":{"A":{"a":1,"b":4},"B":{"a":4,"b":1},"C":{"a":2,"b":8},"D":{"a":8,"b":2}},"conditions":["nonSeqFull","nonSeqPartial","seqNoFeedback","seqFeedback"],"classroomPairings":[["A","B"],["C","D"]],"coinWeights":[0.2,0.5,0.8],"subjectId":"A1F2APQMJSQVFK","assignmentId":"3Y5140Z9DY2P932BJQ8EAXQEI4XIPD","hitId":"3JGHED38EDDK7DFM0KVY7GXU94LY7W","url":"https://gershmanlab.com/experiments/alicia/teaching/experiment/?hitId=3JGHED38EDDK7DFM0KVY7GXU94LY7W&workerId=A1F2APQMJSQVFK&assignmentId=3Y5140Z9DY2P932BJQ8EAXQEI4XIPD&a=945Y9&tp_a=945Y9&b=3Y5140Z9DY2P932BJQ8EAXQEI4XIPD&tp_b=3Y5140Z9DY2P932BJQ8EAXQEI4XIPD&c=365799&tp_c=365799"},{"rt":null,"stimulus":"<div style=\"font-size:60px;\">Next student</div>","response":null,"trial_type":"html-keyboard-response","trial_index":61,"time_elapsed":1086986,"internal_node_id":"0.0-54.0-0.0","params":{"nStudents":24,"maxFlips":30,"completionMinutes":45,"basePay":8,"maxBonus":9,"perTrialBonus":0.5,"perTrialBonusThreshold":0.05,"exampleCost":0.01},"classroomParams":{"A":{"a":1,"b":4},"B":{"a":4,"b":1},"C":{"a":2,"b":8},"D":{"a":8,"b":2}},"conditions":["nonSeqFull","nonSeqPartial","seqNoFeedback","seqFeedback"],"classroomPairings":[["A","B"],["C","D"]],"coinWeights":[0.2,0.5,0.8],"subjectId":"A1F2APQMJSQVFK","assignmentId":"3Y5140Z9DY2P932BJQ8EAXQEI4XIPD","hitId":"3JGHED38EDDK7DFM0KVY7GXU94LY7W","url":"https://gershmanlab.com/experiments/alicia/teaching/experiment/?hitId=3JGHED38EDDK7DFM0KVY7GXU94LY7W&workerId=A1F2APQMJSQVFK&assignmentId=3Y5140Z9DY2P932BJQ8EAXQEI4XIPD&a=945Y9&tp_a=945Y9&b=3Y5140Z9DY2P932BJQ8EAXQEI4XIPD&tp_b=3Y5140Z9DY2P932BJQ8EAXQEI4XIPD&c=365799&tp_c=365799"},{"rt":2780,"stimulus":"\n            <h4 style=\"color:Orange;\">Student 8</h4>\n            <h2>The weight of your coin is <b style=\"color:Tomato;\">0.8</b>.</h2>\n            <p>In this block, you will be giving <b>two</b> sets of examples to Student 8.</p>\n                <p>You will receive feedback at the end of the block.</p>\n            <p></p>","response":0,"trial_type":"html-button-response","trial_index":62,"time_elapsed":1089767,"internal_node_id":"0.0-55.0","params":{"nStudents":24,"maxFlips":30,"completionMinutes":45,"basePay":8,"maxBonus":9,"perTrialBonus":0.5,"perTrialBonusThreshold":0.05,"exampleCost":0.01},"classroomParams":{"A":{"a":1,"b":4},"B":{"a":4,"b":1},"C":{"a":2,"b":8},"D":{"a":8,"b":2}},"conditions":["nonSeqFull","nonSeqPartial","seqNoFeedback","seqFeedback"],"classroomPairings":[["A","B"],["C","D"]],"coinWeights":[0.2,0.5,0.8],"subjectId":"A1F2APQMJSQVFK","assignmentId":"3Y5140Z9DY2P932BJQ8EAXQEI4XIPD","hitId":"3JGHED38EDDK7DFM0KVY7GXU94LY7W","url":"https://gershmanlab.com/experiments/alicia/teaching/experiment/?hitId=3JGHED38EDDK7DFM0KVY7GXU94LY7W&workerId=A1F2APQMJSQVFK&assignmentId=3Y5140Z9DY2P932BJQ8EAXQEI4XIPD&a=945Y9&tp_a=945Y9&b=3Y5140Z9DY2P932BJQ8EAXQEI4XIPD&tp_b=3Y5140Z9DY2P932BJQ8EAXQEI4XIPD&c=365799&tp_c=365799"},{"rt":13123,"response":{"heads":"08","tails":"01"},"type":"response","condition":"seqNoFeedback","trueTheta":0.8,"classrooms":["A","B"],"studentTrueClassroom":"B","exampleSet":"first","trial_type":"survey-html-form","trial_index":63,"time_elapsed":1102893,"internal_node_id":"0.0-56.0-0.0","params":{"nStudents":24,"maxFlips":30,"completionMinutes":45,"basePay":8,"maxBonus":9,"perTrialBonus":0.5,"perTrialBonusThreshold":0.05,"exampleCost":0.01},"classroomParams":{"A":{"a":1,"b":4},"B":{"a":4,"b":1},"C":{"a":2,"b":8},"D":{"a":8,"b":2}},"conditions":["nonSeqFull","nonSeqPartial","seqNoFeedback","seqFeedback"],"classroomPairings":[["A","B"],["C","D"]],"coinWeights":[0.2,0.5,0.8],"subjectId":"A1F2APQMJSQVFK","assignmentId":"3Y5140Z9DY2P932BJQ8EAXQEI4XIPD","hitId":"3JGHED38EDDK7DFM0KVY7GXU94LY7W","url":"https://gershmanlab.com/experiments/alicia/teaching/experiment/?hitId=3JGHED38EDDK7DFM0KVY7GXU94LY7W&workerId=A1F2APQMJSQVFK&assignmentId=3Y5140Z9DY2P932BJQ8EAXQEI4XIPD&a=945Y9&tp_a=945Y9&b=3Y5140Z9DY2P932BJQ8EAXQEI4XIPD&tp_b=3Y5140Z9DY2P932BJQ8EAXQEI4XIPD&c=365799&tp_c=365799","heads":8,"tails":1,"studentIndex":7,"studentTrueHypers":{"a":4,"b":1},"studentGuess":0.8571428571428571,"delta":0.05714285714285705,"totalExamples":9,"bonusSoFar":0.65},{"rt":null,"stimulus":"Sending examples to student... ","response":null,"trial_type":"html-keyboard-response","trial_index":64,"time_elapsed":1104648,"internal_node_id":"0.0-57.0","params":{"nStudents":24,"maxFlips":30,"completionMinutes":45,"basePay":8,"maxBonus":9,"perTrialBonus":0.5,"perTrialBonusThreshold":0.05,"exampleCost":0.01},"classroomParams":{"A":{"a":1,"b":4},"B":{"a":4,"b":1},"C":{"a":2,"b":8},"D":{"a":8,"b":2}},"conditions":["nonSeqFull","nonSeqPartial","seqNoFeedback","seqFeedback"],"classroomPairings":[["A","B"],["C","D"]],"coinWeights":[0.2,0.5,0.8],"subjectId":"A1F2APQMJSQVFK","assignmentId":"3Y5140Z9DY2P932BJQ8EAXQEI4XIPD","hitId":"3JGHED38EDDK7DFM0KVY7GXU94LY7W","url":"https://gershmanlab.com/experiments/alicia/teaching/experiment/?hitId=3JGHED38EDDK7DFM0KVY7GXU94LY7W&workerId=A1F2APQMJSQVFK&assignmentId=3Y5140Z9DY2P932BJQ8EAXQEI4XIPD&a=945Y9&tp_a=945Y9&b=3Y5140Z9DY2P932BJQ8EAXQEI4XIPD&tp_b=3Y5140Z9DY2P932BJQ8EAXQEI4XIPD&c=365799&tp_c=365799"},{"rt":null,"stimulus":"Examples sent to student! Waiting for student...","response":null,"trial_type":"html-keyboard-response","trial_index":65,"time_elapsed":1108662,"internal_node_id":"0.0-58.0","params":{"nStudents":24,"maxFlips":30,"completionMinutes":45,"basePay":8,"maxBonus":9,"perTrialBonus":0.5,"perTrialBonusThreshold":0.05,"exampleCost":0.01},"classroomParams":{"A":{"a":1,"b":4},"B":{"a":4,"b":1},"C":{"a":2,"b":8},"D":{"a":8,"b":2}},"conditions":["nonSeqFull","nonSeqPartial","seqNoFeedback","seqFeedback"],"classroomPairings":[["A","B"],["C","D"]],"coinWeights":[0.2,0.5,0.8],"subjectId":"A1F2APQMJSQVFK","assignmentId":"3Y5140Z9DY2P932BJQ8EAXQEI4XIPD","hitId":"3JGHED38EDDK7DFM0KVY7GXU94LY7W","url":"https://gershmanlab.com/experiments/alicia/teaching/experiment/?hitId=3JGHED38EDDK7DFM0KVY7GXU94LY7W&workerId=A1F2APQMJSQVFK&assignmentId=3Y5140Z9DY2P932BJQ8EAXQEI4XIPD&a=945Y9&tp_a=945Y9&b=3Y5140Z9DY2P932BJQ8EAXQEI4XIPD&tp_b=3Y5140Z9DY2P932BJQ8EAXQEI4XIPD&c=365799&tp_c=365799"},{"rt":14414,"response":{"heads":"09","tails":"01"},"type":"response","condition":"seqNoFeedback","trueTheta":0.8,"classrooms":["A","B"],"studentTrueClassroom":"B","exampleSet":"second","trial_type":"survey-html-form","trial_index":66,"time_elapsed":1123078,"internal_node_id":"0.0-59.0-0.0","params":{"nStudents":24,"maxFlips":30,"completionMinutes":45,"basePay":8,"maxBonus":9,"perTrialBonus":0.5,"perTrialBonusThreshold":0.05,"exampleCost":0.01},"classroomParams":{"A":{"a":1,"b":4},"B":{"a":4,"b":1},"C":{"a":2,"b":8},"D":{"a":8,"b":2}},"conditions":["nonSeqFull","nonSeqPartial","seqNoFeedback","seqFeedback"],"classroomPairings":[["A","B"],["C","D"]],"coinWeights":[0.2,0.5,0.8],"subjectId":"A1F2APQMJSQVFK","assignmentId":"3Y5140Z9DY2P932BJQ8EAXQEI4XIPD","hitId":"3JGHED38EDDK7DFM0KVY7GXU94LY7W","url":"https://gershmanlab.com/experiments/alicia/teaching/experiment/?hitId=3JGHED38EDDK7DFM0KVY7GXU94LY7W&workerId=A1F2APQMJSQVFK&assignmentId=3Y5140Z9DY2P932BJQ8EAXQEI4XIPD&a=945Y9&tp_a=945Y9&b=3Y5140Z9DY2P932BJQ8EAXQEI4XIPD&tp_b=3Y5140Z9DY2P932BJQ8EAXQEI4XIPD&c=365799&tp_c=365799","firstResponseHeads":8,"firstResponseTails":1,"secondResponseHeads":9,"secondResponseTails":1,"totalHeads":17,"totalTails":2,"studentIndex":7,"studentTrueHypers":{"a":4,"b":1},"studentGuess":0.875,"delta":0.07499999999999996,"bonus":0,"bonusSoFar":0.65,"totalExamples":19},{"rt":null,"stimulus":"Sending examples to student... ","response":null,"trial_type":"html-keyboard-response","trial_index":67,"time_elapsed":1124838,"internal_node_id":"0.0-60.0","params":{"nStudents":24,"maxFlips":30,"completionMinutes":45,"basePay":8,"maxBonus":9,"perTrialBonus":0.5,"perTrialBonusThreshold":0.05,"exampleCost":0.01},"classroomParams":{"A":{"a":1,"b":4},"B":{"a":4,"b":1},"C":{"a":2,"b":8},"D":{"a":8,"b":2}},"conditions":["nonSeqFull","nonSeqPartial","seqNoFeedback","seqFeedback"],"classroomPairings":[["A","B"],["C","D"]],"coinWeights":[0.2,0.5,0.8],"subjectId":"A1F2APQMJSQVFK","assignmentId":"3Y5140Z9DY2P932BJQ8EAXQEI4XIPD","hitId":"3JGHED38EDDK7DFM0KVY7GXU94LY7W","url":"https://gershmanlab.com/experiments/alicia/teaching/experiment/?hitId=3JGHED38EDDK7DFM0KVY7GXU94LY7W&workerId=A1F2APQMJSQVFK&assignmentId=3Y5140Z9DY2P932BJQ8EAXQEI4XIPD&a=945Y9&tp_a=945Y9&b=3Y5140Z9DY2P932BJQ8EAXQEI4XIPD&tp_b=3Y5140Z9DY2P932BJQ8EAXQEI4XIPD&c=365799&tp_c=365799"},{"rt":null,"stimulus":"Examples sent to student! Waiting for student...","response":null,"trial_type":"html-keyboard-response","trial_index":68,"time_elapsed":1128842,"internal_node_id":"0.0-61.0","params":{"nStudents":24,"maxFlips":30,"completionMinutes":45,"basePay":8,"maxBonus":9,"perTrialBonus":0.5,"perTrialBonusThreshold":0.05,"exampleCost":0.01},"classroomParams":{"A":{"a":1,"b":4},"B":{"a":4,"b":1},"C":{"a":2,"b":8},"D":{"a":8,"b":2}},"conditions":["nonSeqFull","nonSeqPartial","seqNoFeedback","seqFeedback"],"classroomPairings":[["A","B"],["C","D"]],"coinWeights":[0.2,0.5,0.8],"subjectId":"A1F2APQMJSQVFK","assignmentId":"3Y5140Z9DY2P932BJQ8EAXQEI4XIPD","hitId":"3JGHED38EDDK7DFM0KVY7GXU94LY7W","url":"https://gershmanlab.com/experiments/alicia/teaching/experiment/?hitId=3JGHED38EDDK7DFM0KVY7GXU94LY7W&workerId=A1F2APQMJSQVFK&assignmentId=3Y5140Z9DY2P932BJQ8EAXQEI4XIPD&a=945Y9&tp_a=945Y9&b=3Y5140Z9DY2P932BJQ8EAXQEI4XIPD&tp_b=3Y5140Z9DY2P932BJQ8EAXQEI4XIPD&c=365799&tp_c=365799"},{"rt":null,"stimulus":"\n                <p>Student 8's first guess for coin weight: <b style=\"color:Tomato\";>0.86</b></p>\n                <p>Student 8's second guess for coin weight: <b style=\"color:Tomato\";>0.88</b></p>\n                <p>You received a bonus of <b>$0.00</b> based on the student's second guess.</p>\n                <p>Total bonus so far: <b>$0.65</b></p>\n                <p>Press any key to continue.</p>\n                ","response":null,"trial_type":"html-keyboard-response","trial_index":69,"time_elapsed":1158857,"internal_node_id":"0.0-62.0","params":{"nStudents":24,"maxFlips":30,"completionMinutes":45,"basePay":8,"maxBonus":9,"perTrialBonus":0.5,"perTrialBonusThreshold":0.05,"exampleCost":0.01},"classroomParams":{"A":{"a":1,"b":4},"B":{"a":4,"b":1},"C":{"a":2,"b":8},"D":{"a":8,"b":2}},"conditions":["nonSeqFull","nonSeqPartial","seqNoFeedback","seqFeedback"],"classroomPairings":[["A","B"],["C","D"]],"coinWeights":[0.2,0.5,0.8],"subjectId":"A1F2APQMJSQVFK","assignmentId":"3Y5140Z9DY2P932BJQ8EAXQEI4XIPD","hitId":"3JGHED38EDDK7DFM0KVY7GXU94LY7W","url":"https://gershmanlab.com/experiments/alicia/teaching/experiment/?hitId=3JGHED38EDDK7DFM0KVY7GXU94LY7W&workerId=A1F2APQMJSQVFK&assignmentId=3Y5140Z9DY2P932BJQ8EAXQEI4XIPD&a=945Y9&tp_a=945Y9&b=3Y5140Z9DY2P932BJQ8EAXQEI4XIPD&tp_b=3Y5140Z9DY2P932BJQ8EAXQEI4XIPD&c=365799&tp_c=365799"},{"rt":null,"stimulus":"<div style=\"font-size:60px;\">Next student</div>","response":null,"trial_type":"html-keyboard-response","trial_index":70,"time_elapsed":1161871,"internal_node_id":"0.0-63.0-0.0","params":{"nStudents":24,"maxFlips":30,"completionMinutes":45,"basePay":8,"maxBonus":9,"perTrialBonus":0.5,"perTrialBonusThreshold":0.05,"exampleCost":0.01},"classroomParams":{"A":{"a":1,"b":4},"B":{"a":4,"b":1},"C":{"a":2,"b":8},"D":{"a":8,"b":2}},"conditions":["nonSeqFull","nonSeqPartial","seqNoFeedback","seqFeedback"],"classroomPairings":[["A","B"],["C","D"]],"coinWeights":[0.2,0.5,0.8],"subjectId":"A1F2APQMJSQVFK","assignmentId":"3Y5140Z9DY2P932BJQ8EAXQEI4XIPD","hitId":"3JGHED38EDDK7DFM0KVY7GXU94LY7W","url":"https://gershmanlab.com/experiments/alicia/teaching/experiment/?hitId=3JGHED38EDDK7DFM0KVY7GXU94LY7W&workerId=A1F2APQMJSQVFK&assignmentId=3Y5140Z9DY2P932BJQ8EAXQEI4XIPD&a=945Y9&tp_a=945Y9&b=3Y5140Z9DY2P932BJQ8EAXQEI4XIPD&tp_b=3Y5140Z9DY2P932BJQ8EAXQEI4XIPD&c=365799&tp_c=365799"},{"rt":2903,"stimulus":"\n            <h4 style=\"color:Orange;\">Student 9</h4>\n            <h2>The weight of your coin is <b style=\"color:Tomato;\">0.2</b>.</h2>\n            <p>In this block, you will be giving <b>two</b> sets of examples to Student 9.</p>\n                <p>You will receive feedback at the end of the block.</p>\n            <p></p>","response":0,"trial_type":"html-button-response","trial_index":71,"time_elapsed":1164777,"internal_node_id":"0.0-64.0","params":{"nStudents":24,"maxFlips":30,"completionMinutes":45,"basePay":8,"maxBonus":9,"perTrialBonus":0.5,"perTrialBonusThreshold":0.05,"exampleCost":0.01},"classroomParams":{"A":{"a":1,"b":4},"B":{"a":4,"b":1},"C":{"a":2,"b":8},"D":{"a":8,"b":2}},"conditions":["nonSeqFull","nonSeqPartial","seqNoFeedback","seqFeedback"],"classroomPairings":[["A","B"],["C","D"]],"coinWeights":[0.2,0.5,0.8],"subjectId":"A1F2APQMJSQVFK","assignmentId":"3Y5140Z9DY2P932BJQ8EAXQEI4XIPD","hitId":"3JGHED38EDDK7DFM0KVY7GXU94LY7W","url":"https://gershmanlab.com/experiments/alicia/teaching/experiment/?hitId=3JGHED38EDDK7DFM0KVY7GXU94LY7W&workerId=A1F2APQMJSQVFK&assignmentId=3Y5140Z9DY2P932BJQ8EAXQEI4XIPD&a=945Y9&tp_a=945Y9&b=3Y5140Z9DY2P932BJQ8EAXQEI4XIPD&tp_b=3Y5140Z9DY2P932BJQ8EAXQEI4XIPD&c=365799&tp_c=365799"},{"rt":12997,"response":{"heads":"02","tails":"08"},"type":"response","condition":"seqNoFeedback","trueTheta":0.2,"classrooms":["A","B"],"studentTrueClassroom":"A","exampleSet":"first","trial_type":"survey-html-form","trial_index":72,"time_elapsed":1177779,"internal_node_id":"0.0-65.0-0.0","params":{"nStudents":24,"maxFlips":30,"completionMinutes":45,"basePay":8,"maxBonus":9,"perTrialBonus":0.5,"perTrialBonusThreshold":0.05,"exampleCost":0.01},"classroomParams":{"A":{"a":1,"b":4},"B":{"a":4,"b":1},"C":{"a":2,"b":8},"D":{"a":8,"b":2}},"conditions":["nonSeqFull","nonSeqPartial","seqNoFeedback","seqFeedback"],"classroomPairings":[["A","B"],["C","D"]],"coinWeights":[0.2,0.5,0.8],"subjectId":"A1F2APQMJSQVFK","assignmentId":"3Y5140Z9DY2P932BJQ8EAXQEI4XIPD","hitId":"3JGHED38EDDK7DFM0KVY7GXU94LY7W","url":"https://gershmanlab.com/experiments/alicia/teaching/experiment/?hitId=3JGHED38EDDK7DFM0KVY7GXU94LY7W&workerId=A1F2APQMJSQVFK&assignmentId=3Y5140Z9DY2P932BJQ8EAXQEI4XIPD&a=945Y9&tp_a=945Y9&b=3Y5140Z9DY2P932BJQ8EAXQEI4XIPD&tp_b=3Y5140Z9DY2P932BJQ8EAXQEI4XIPD&c=365799&tp_c=365799","heads":2,"tails":8,"studentIndex":8,"studentTrueHypers":{"a":1,"b":4},"studentGuess":0.2,"delta":0,"totalExamples":10,"bonusSoFar":0.65},{"rt":null,"stimulus":"Sending examples to student... ","response":null,"trial_type":"html-keyboard-response","trial_index":73,"time_elapsed":1179543,"internal_node_id":"0.0-66.0","params":{"nStudents":24,"maxFlips":30,"completionMinutes":45,"basePay":8,"maxBonus":9,"perTrialBonus":0.5,"perTrialBonusThreshold":0.05,"exampleCost":0.01},"classroomParams":{"A":{"a":1,"b":4},"B":{"a":4,"b":1},"C":{"a":2,"b":8},"D":{"a":8,"b":2}},"conditions":["nonSeqFull","nonSeqPartial","seqNoFeedback","seqFeedback"],"classroomPairings":[["A","B"],["C","D"]],"coinWeights":[0.2,0.5,0.8],"subjectId":"A1F2APQMJSQVFK","assignmentId":"3Y5140Z9DY2P932BJQ8EAXQEI4XIPD","hitId":"3JGHED38EDDK7DFM0KVY7GXU94LY7W","url":"https://gershmanlab.com/experiments/alicia/teaching/experiment/?hitId=3JGHED38EDDK7DFM0KVY7GXU94LY7W&workerId=A1F2APQMJSQVFK&assignmentId=3Y5140Z9DY2P932BJQ8EAXQEI4XIPD&a=945Y9&tp_a=945Y9&b=3Y5140Z9DY2P932BJQ8EAXQEI4XIPD&tp_b=3Y5140Z9DY2P932BJQ8EAXQEI4XIPD&c=365799&tp_c=365799"},{"rt":null,"stimulus":"Examples sent to student! Waiting for student...","response":null,"trial_type":"html-keyboard-response","trial_index":74,"time_elapsed":1183558,"internal_node_id":"0.0-67.0","params":{"nStudents":24,"maxFlips":30,"completionMinutes":45,"basePay":8,"maxBonus":9,"perTrialBonus":0.5,"perTrialBonusThreshold":0.05,"exampleCost":0.01},"classroomParams":{"A":{"a":1,"b":4},"B":{"a":4,"b":1},"C":{"a":2,"b":8},"D":{"a":8,"b":2}},"conditions":["nonSeqFull","nonSeqPartial","seqNoFeedback","seqFeedback"],"classroomPairings":[["A","B"],["C","D"]],"coinWeights":[0.2,0.5,0.8],"subjectId":"A1F2APQMJSQVFK","assignmentId":"3Y5140Z9DY2P932BJQ8EAXQEI4XIPD","hitId":"3JGHED38EDDK7DFM0KVY7GXU94LY7W","url":"https://gershmanlab.com/experiments/alicia/teaching/experiment/?hitId=3JGHED38EDDK7DFM0KVY7GXU94LY7W&workerId=A1F2APQMJSQVFK&assignmentId=3Y5140Z9DY2P932BJQ8EAXQEI4XIPD&a=945Y9&tp_a=945Y9&b=3Y5140Z9DY2P932BJQ8EAXQEI4XIPD&tp_b=3Y5140Z9DY2P932BJQ8EAXQEI4XIPD&c=365799&tp_c=365799"},{"rt":11845,"response":{"heads":"01","tails":"07"},"type":"response","condition":"seqNoFeedback","trueTheta":0.2,"classrooms":["A","B"],"studentTrueClassroom":"A","exampleSet":"second","trial_type":"survey-html-form","trial_index":75,"time_elapsed":1195406,"internal_node_id":"0.0-68.0-0.0","params":{"nStudents":24,"maxFlips":30,"completionMinutes":45,"basePay":8,"maxBonus":9,"perTrialBonus":0.5,"perTrialBonusThreshold":0.05,"exampleCost":0.01},"classroomParams":{"A":{"a":1,"b":4},"B":{"a":4,"b":1},"C":{"a":2,"b":8},"D":{"a":8,"b":2}},"conditions":["nonSeqFull","nonSeqPartial","seqNoFeedback","seqFeedback"],"classroomPairings":[["A","B"],["C","D"]],"coinWeights":[0.2,0.5,0.8],"subjectId":"A1F2APQMJSQVFK","assignmentId":"3Y5140Z9DY2P932BJQ8EAXQEI4XIPD","hitId":"3JGHED38EDDK7DFM0KVY7GXU94LY7W","url":"https://gershmanlab.com/experiments/alicia/teaching/experiment/?hitId=3JGHED38EDDK7DFM0KVY7GXU94LY7W&workerId=A1F2APQMJSQVFK&assignmentId=3Y5140Z9DY2P932BJQ8EAXQEI4XIPD&a=945Y9&tp_a=945Y9&b=3Y5140Z9DY2P932BJQ8EAXQEI4XIPD&tp_b=3Y5140Z9DY2P932BJQ8EAXQEI4XIPD&c=365799&tp_c=365799","firstResponseHeads":2,"firstResponseTails":8,"secondResponseHeads":1,"secondResponseTails":7,"totalHeads":3,"totalTails":15,"studentIndex":8,"studentTrueHypers":{"a":1,"b":4},"studentGuess":0.17391304347826086,"delta":0.026086956521739146,"bonus":0.32,"bonusSoFar":0.97,"totalExamples":18},{"rt":null,"stimulus":"Sending examples to student... ","response":null,"trial_type":"html-keyboard-response","trial_index":76,"time_elapsed":1197159,"internal_node_id":"0.0-69.0","params":{"nStudents":24,"maxFlips":30,"completionMinutes":45,"basePay":8,"maxBonus":9,"perTrialBonus":0.5,"perTrialBonusThreshold":0.05,"exampleCost":0.01},"classroomParams":{"A":{"a":1,"b":4},"B":{"a":4,"b":1},"C":{"a":2,"b":8},"D":{"a":8,"b":2}},"conditions":["nonSeqFull","nonSeqPartial","seqNoFeedback","seqFeedback"],"classroomPairings":[["A","B"],["C","D"]],"coinWeights":[0.2,0.5,0.8],"subjectId":"A1F2APQMJSQVFK","assignmentId":"3Y5140Z9DY2P932BJQ8EAXQEI4XIPD","hitId":"3JGHED38EDDK7DFM0KVY7GXU94LY7W","url":"https://gershmanlab.com/experiments/alicia/teaching/experiment/?hitId=3JGHED38EDDK7DFM0KVY7GXU94LY7W&workerId=A1F2APQMJSQVFK&assignmentId=3Y5140Z9DY2P932BJQ8EAXQEI4XIPD&a=945Y9&tp_a=945Y9&b=3Y5140Z9DY2P932BJQ8EAXQEI4XIPD&tp_b=3Y5140Z9DY2P932BJQ8EAXQEI4XIPD&c=365799&tp_c=365799"},{"rt":null,"stimulus":"Examples sent to student! Waiting for student...","response":null,"trial_type":"html-keyboard-response","trial_index":77,"time_elapsed":1201168,"internal_node_id":"0.0-70.0","params":{"nStudents":24,"maxFlips":30,"completionMinutes":45,"basePay":8,"maxBonus":9,"perTrialBonus":0.5,"perTrialBonusThreshold":0.05,"exampleCost":0.01},"classroomParams":{"A":{"a":1,"b":4},"B":{"a":4,"b":1},"C":{"a":2,"b":8},"D":{"a":8,"b":2}},"conditions":["nonSeqFull","nonSeqPartial","seqNoFeedback","seqFeedback"],"classroomPairings":[["A","B"],["C","D"]],"coinWeights":[0.2,0.5,0.8],"subjectId":"A1F2APQMJSQVFK","assignmentId":"3Y5140Z9DY2P932BJQ8EAXQEI4XIPD","hitId":"3JGHED38EDDK7DFM0KVY7GXU94LY7W","url":"https://gershmanlab.com/experiments/alicia/teaching/experiment/?hitId=3JGHED38EDDK7DFM0KVY7GXU94LY7W&workerId=A1F2APQMJSQVFK&assignmentId=3Y5140Z9DY2P932BJQ8EAXQEI4XIPD&a=945Y9&tp_a=945Y9&b=3Y5140Z9DY2P932BJQ8EAXQEI4XIPD&tp_b=3Y5140Z9DY2P932BJQ8EAXQEI4XIPD&c=365799&tp_c=365799"},{"rt":15500,"stimulus":"\n                <p>Student 9's first guess for coin weight: <b style=\"color:Tomato\";>0.20</b></p>\n                <p>Student 9's second guess for coin weight: <b style=\"color:Tomato\";>0.17</b></p>\n                <p>You received a bonus of <b>$0.32</b> based on the student's second guess.</p>\n                <p>Total bonus so far: <b>$0.97</b></p>\n                <p>Press any key to continue.</p>\n                ","response":" ","trial_type":"html-keyboard-response","trial_index":78,"time_elapsed":1216670,"internal_node_id":"0.0-71.0","params":{"nStudents":24,"maxFlips":30,"completionMinutes":45,"basePay":8,"maxBonus":9,"perTrialBonus":0.5,"perTrialBonusThreshold":0.05,"exampleCost":0.01},"classroomParams":{"A":{"a":1,"b":4},"B":{"a":4,"b":1},"C":{"a":2,"b":8},"D":{"a":8,"b":2}},"conditions":["nonSeqFull","nonSeqPartial","seqNoFeedback","seqFeedback"],"classroomPairings":[["A","B"],["C","D"]],"coinWeights":[0.2,0.5,0.8],"subjectId":"A1F2APQMJSQVFK","assignmentId":"3Y5140Z9DY2P932BJQ8EAXQEI4XIPD","hitId":"3JGHED38EDDK7DFM0KVY7GXU94LY7W","url":"https://gershmanlab.com/experiments/alicia/teaching/experiment/?hitId=3JGHED38EDDK7DFM0KVY7GXU94LY7W&workerId=A1F2APQMJSQVFK&assignmentId=3Y5140Z9DY2P932BJQ8EAXQEI4XIPD&a=945Y9&tp_a=945Y9&b=3Y5140Z9DY2P932BJQ8EAXQEI4XIPD&tp_b=3Y5140Z9DY2P932BJQ8EAXQEI4XIPD&c=365799&tp_c=365799"},{"rt":null,"stimulus":"<div style=\"font-size:60px;\">Next student</div>","response":null,"trial_type":"html-keyboard-response","trial_index":79,"time_elapsed":1219181,"internal_node_id":"0.0-72.0-0.0","params":{"nStudents":24,"maxFlips":30,"completionMinutes":45,"basePay":8,"maxBonus":9,"perTrialBonus":0.5,"perTrialBonusThreshold":0.05,"exampleCost":0.01},"classroomParams":{"A":{"a":1,"b":4},"B":{"a":4,"b":1},"C":{"a":2,"b":8},"D":{"a":8,"b":2}},"conditions":["nonSeqFull","nonSeqPartial","seqNoFeedback","seqFeedback"],"classroomPairings":[["A","B"],["C","D"]],"coinWeights":[0.2,0.5,0.8],"subjectId":"A1F2APQMJSQVFK","assignmentId":"3Y5140Z9DY2P932BJQ8EAXQEI4XIPD","hitId":"3JGHED38EDDK7DFM0KVY7GXU94LY7W","url":"https://gershmanlab.com/experiments/alicia/teaching/experiment/?hitId=3JGHED38EDDK7DFM0KVY7GXU94LY7W&workerId=A1F2APQMJSQVFK&assignmentId=3Y5140Z9DY2P932BJQ8EAXQEI4XIPD&a=945Y9&tp_a=945Y9&b=3Y5140Z9DY2P932BJQ8EAXQEI4XIPD&tp_b=3Y5140Z9DY2P932BJQ8EAXQEI4XIPD&c=365799&tp_c=365799"},{"rt":2843,"stimulus":"\n            <h4 style=\"color:Orange;\">Student 10</h4>\n            <h2>The weight of your coin is <b style=\"color:Tomato;\">0.5</b>.</h2>\n            <p>In this block, you will be giving <b>one</b> set of examples to Student 10.</p>\n                <p>You will receive feedback at the end of the block.</p>\n            <p></p>","response":0,"trial_type":"html-button-response","trial_index":80,"time_elapsed":1222026,"internal_node_id":"0.0-73.0","params":{"nStudents":24,"maxFlips":30,"completionMinutes":45,"basePay":8,"maxBonus":9,"perTrialBonus":0.5,"perTrialBonusThreshold":0.05,"exampleCost":0.01},"classroomParams":{"A":{"a":1,"b":4},"B":{"a":4,"b":1},"C":{"a":2,"b":8},"D":{"a":8,"b":2}},"conditions":["nonSeqFull","nonSeqPartial","seqNoFeedback","seqFeedback"],"classroomPairings":[["A","B"],["C","D"]],"coinWeights":[0.2,0.5,0.8],"subjectId":"A1F2APQMJSQVFK","assignmentId":"3Y5140Z9DY2P932BJQ8EAXQEI4XIPD","hitId":"3JGHED38EDDK7DFM0KVY7GXU94LY7W","url":"https://gershmanlab.com/experiments/alicia/teaching/experiment/?hitId=3JGHED38EDDK7DFM0KVY7GXU94LY7W&workerId=A1F2APQMJSQVFK&assignmentId=3Y5140Z9DY2P932BJQ8EAXQEI4XIPD&a=945Y9&tp_a=945Y9&b=3Y5140Z9DY2P932BJQ8EAXQEI4XIPD&tp_b=3Y5140Z9DY2P932BJQ8EAXQEI4XIPD&c=365799&tp_c=365799"},{"rt":18079,"response":{"heads":"06","tails":"04"},"type":"response","condition":"nonSeqFull","trueTheta":0.5,"classrooms":["C","D"],"studentTrueClassroom":"D","exampleSet":"first","trial_type":"survey-html-form","trial_index":81,"time_elapsed":1240106,"internal_node_id":"0.0-74.0-0.0","params":{"nStudents":24,"maxFlips":30,"completionMinutes":45,"basePay":8,"maxBonus":9,"perTrialBonus":0.5,"perTrialBonusThreshold":0.05,"exampleCost":0.01},"classroomParams":{"A":{"a":1,"b":4},"B":{"a":4,"b":1},"C":{"a":2,"b":8},"D":{"a":8,"b":2}},"conditions":["nonSeqFull","nonSeqPartial","seqNoFeedback","seqFeedback"],"classroomPairings":[["A","B"],["C","D"]],"coinWeights":[0.2,0.5,0.8],"subjectId":"A1F2APQMJSQVFK","assignmentId":"3Y5140Z9DY2P932BJQ8EAXQEI4XIPD","hitId":"3JGHED38EDDK7DFM0KVY7GXU94LY7W","url":"https://gershmanlab.com/experiments/alicia/teaching/experiment/?hitId=3JGHED38EDDK7DFM0KVY7GXU94LY7W&workerId=A1F2APQMJSQVFK&assignmentId=3Y5140Z9DY2P932BJQ8EAXQEI4XIPD&a=945Y9&tp_a=945Y9&b=3Y5140Z9DY2P932BJQ8EAXQEI4XIPD&tp_b=3Y5140Z9DY2P932BJQ8EAXQEI4XIPD&c=365799&tp_c=365799","heads":6,"tails":4,"studentIndex":9,"studentTrueHypers":{"a":8,"b":2},"studentGuess":0.7,"delta":0.19999999999999996,"totalExamples":10,"bonus":0,"bonusSoFar":0.97},{"rt":null,"stimulus":"Sending examples to student... ","response":null,"trial_type":"html-keyboard-response","trial_index":82,"time_elapsed":1242121,"internal_node_id":"0.0-75.0","params":{"nStudents":24,"maxFlips":30,"completionMinutes":45,"basePay":8,"maxBonus":9,"perTrialBonus":0.5,"perTrialBonusThreshold":0.05,"exampleCost":0.01},"classroomParams":{"A":{"a":1,"b":4},"B":{"a":4,"b":1},"C":{"a":2,"b":8},"D":{"a":8,"b":2}},"conditions":["nonSeqFull","nonSeqPartial","seqNoFeedback","seqFeedback"],"classroomPairings":[["A","B"],["C","D"]],"coinWeights":[0.2,0.5,0.8],"subjectId":"A1F2APQMJSQVFK","assignmentId":"3Y5140Z9DY2P932BJQ8EAXQEI4XIPD","hitId":"3JGHED38EDDK7DFM0KVY7GXU94LY7W","url":"https://gershmanlab.com/experiments/alicia/teaching/experiment/?hitId=3JGHED38EDDK7DFM0KVY7GXU94LY7W&workerId=A1F2APQMJSQVFK&assignmentId=3Y5140Z9DY2P932BJQ8EAXQEI4XIPD&a=945Y9&tp_a=945Y9&b=3Y5140Z9DY2P932BJQ8EAXQEI4XIPD&tp_b=3Y5140Z9DY2P932BJQ8EAXQEI4XIPD&c=365799&tp_c=365799"},{"rt":null,"stimulus":"Examples sent to student! Waiting for student...","response":null,"trial_type":"html-keyboard-response","trial_index":83,"time_elapsed":1248131,"internal_node_id":"0.0-76.0","params":{"nStudents":24,"maxFlips":30,"completionMinutes":45,"basePay":8,"maxBonus":9,"perTrialBonus":0.5,"perTrialBonusThreshold":0.05,"exampleCost":0.01},"classroomParams":{"A":{"a":1,"b":4},"B":{"a":4,"b":1},"C":{"a":2,"b":8},"D":{"a":8,"b":2}},"conditions":["nonSeqFull","nonSeqPartial","seqNoFeedback","seqFeedback"],"classroomPairings":[["A","B"],["C","D"]],"coinWeights":[0.2,0.5,0.8],"subjectId":"A1F2APQMJSQVFK","assignmentId":"3Y5140Z9DY2P932BJQ8EAXQEI4XIPD","hitId":"3JGHED38EDDK7DFM0KVY7GXU94LY7W","url":"https://gershmanlab.com/experiments/alicia/teaching/experiment/?hitId=3JGHED38EDDK7DFM0KVY7GXU94LY7W&workerId=A1F2APQMJSQVFK&assignmentId=3Y5140Z9DY2P932BJQ8EAXQEI4XIPD&a=945Y9&tp_a=945Y9&b=3Y5140Z9DY2P932BJQ8EAXQEI4XIPD&tp_b=3Y5140Z9DY2P932BJQ8EAXQEI4XIPD&c=365799&tp_c=365799"},{"rt":10664,"stimulus":"\n                <p>Student's guess for coin weight: <b style=\"color:Tomato;\">0.70</b></p>\n                <p>You received a bonus of <b>$0</b>. Total bonus so far: <b>$0.97</b></b></p>\n                <p></p>\n                <p>Press any key to continue.</p>\n                ","response":" ","trial_type":"html-keyboard-response","trial_index":84,"time_elapsed":1258797,"internal_node_id":"0.0-77.0","params":{"nStudents":24,"maxFlips":30,"completionMinutes":45,"basePay":8,"maxBonus":9,"perTrialBonus":0.5,"perTrialBonusThreshold":0.05,"exampleCost":0.01},"classroomParams":{"A":{"a":1,"b":4},"B":{"a":4,"b":1},"C":{"a":2,"b":8},"D":{"a":8,"b":2}},"conditions":["nonSeqFull","nonSeqPartial","seqNoFeedback","seqFeedback"],"classroomPairings":[["A","B"],["C","D"]],"coinWeights":[0.2,0.5,0.8],"subjectId":"A1F2APQMJSQVFK","assignmentId":"3Y5140Z9DY2P932BJQ8EAXQEI4XIPD","hitId":"3JGHED38EDDK7DFM0KVY7GXU94LY7W","url":"https://gershmanlab.com/experiments/alicia/teaching/experiment/?hitId=3JGHED38EDDK7DFM0KVY7GXU94LY7W&workerId=A1F2APQMJSQVFK&assignmentId=3Y5140Z9DY2P932BJQ8EAXQEI4XIPD&a=945Y9&tp_a=945Y9&b=3Y5140Z9DY2P932BJQ8EAXQEI4XIPD&tp_b=3Y5140Z9DY2P932BJQ8EAXQEI4XIPD&c=365799&tp_c=365799"},{"rt":null,"stimulus":"<div style=\"font-size:60px;