[{"rt":3441,"stimulus":"Welcome to the experiment. Press any key to begin.","response":" ","trial_type":"html-keyboard-response","trial_index":0,"time_elapsed":3466,"internal_node_id":"0.0-0.0","params":{"nStudents":24,"maxFlips":30,"completionMinutes":45,"basePay":8,"maxBonus":9,"perTrialBonus":0.5,"perTrialBonusThreshold":0.05,"exampleCost":0.01},"classroomParams":{"A":{"a":1,"b":4},"B":{"a":4,"b":1},"C":{"a":2,"b":8},"D":{"a":8,"b":2}},"conditions":["nonSeqFull","nonSeqPartial","seqNoFeedback","seqFeedback"],"classroomPairings":[["A","B"],["C","D"]],"coinWeights":[0.2,0.5,0.8],"subjectId":"A1FDFJCZ4B5N9S","assignmentId":"3YHH42UU5C1OBN6XN8Q1NCHYRZV0LG","hitId":"3FJ2RVH25ZSYKBA8MWMNC8NVPF629N","url":"https://gershmanlab.com/experiments/alicia/teaching/experiment/?hitId=3FJ2RVH25ZSYKBA8MWMNC8NVPF629N&workerId=A1FDFJCZ4B5N9S&assignmentId=3YHH42UU5C1OBN6XN8Q1NCHYRZV0LG&a=U4HY7&tp_a=U4HY7&b=3YHH42UU5C1OBN6XN8Q1NCHYRZV0LG&tp_b=3YHH42UU5C1OBN6XN8Q1NCHYRZV0LG&c=365717&tp_c=365717"},{"rt":132630,"stimulus":"\n        <h3>Please read this consent agreement carefully before deciding whether to participate in this experiment.</h3>\n        <p><b>Purpose of the research:</b> To examine how people teach effectively.</p>\n        <p><b>What you will do in this research:</b> You will teach students the weights of different coins.</p>\n        <p><b>Time required:</b> This experiment will take 45 minutes to complete.</p>\n        <p><b>Risks:</b> There are no anticipated risks associated with participating in this study.             The effects of participating should be comparable to those you would experience from viewing a computer monitor             and using a mouse and keyboard for the duration of the experiment.</p>\n        <p><b>Benefits:</b> The study provides important information about the nature of teaching.</p>\n        <p><b>Compensation:</b> You will receive <b>$8</b> for completing the experiment and a performance bonus of up to <b>$9</b>.</p>\n        <p><b>Confidentiality:</b> Your participation in this study will remain confidential.             No personally identifiable information will be associated with your data.             Your de-identified data may be shared with other researchers and used in future projects.</p>\n        <p><b>Participation and withdrawal:</b> Your participation in this study is completely voluntary and             you may refuse to participate or you may choose to withdraw at any time without penalty or loss of\n            benefits to which you are otherwise entitled.</p>\n        <p><b>How to contact the researcher:</b> If you have questions or concerns about your participation            or payment, or want to request a summary of research findings, please contact\n            Alicia Chen, aliciachen@college.harvard.edu.</p>\n        <p><b>Whom to contact about your rights in this research:</b> For questions, concerns, suggestions,             or complaints that have not been or cannot be addressed by the researcher, or to report             research-related harm, please contact the Committee on the Use of Human Subjects in Research at Harvard University,             1414 Massachusetts Avenue, Second Floor, Cambridge, MA 02138. Phone: 617-496-2847. Email: cuhs@fas.harvard.edu.</p>\n        ","response":0,"trial_type":"html-button-response","trial_index":1,"time_elapsed":136098,"internal_node_id":"0.0-1.0","params":{"nStudents":24,"maxFlips":30,"completionMinutes":45,"basePay":8,"maxBonus":9,"perTrialBonus":0.5,"perTrialBonusThreshold":0.05,"exampleCost":0.01},"classroomParams":{"A":{"a":1,"b":4},"B":{"a":4,"b":1},"C":{"a":2,"b":8},"D":{"a":8,"b":2}},"conditions":["nonSeqFull","nonSeqPartial","seqNoFeedback","seqFeedback"],"classroomPairings":[["A","B"],["C","D"]],"coinWeights":[0.2,0.5,0.8],"subjectId":"A1FDFJCZ4B5N9S","assignmentId":"3YHH42UU5C1OBN6XN8Q1NCHYRZV0LG","hitId":"3FJ2RVH25ZSYKBA8MWMNC8NVPF629N","url":"https://gershmanlab.com/experiments/alicia/teaching/experiment/?hitId=3FJ2RVH25ZSYKBA8MWMNC8NVPF629N&workerId=A1FDFJCZ4B5N9S&assignmentId=3YHH42UU5C1OBN6XN8Q1NCHYRZV0LG&a=U4HY7&tp_a=U4HY7&b=3YHH42UU5C1OBN6XN8Q1NCHYRZV0LG&tp_b=3YHH42UU5C1OBN6XN8Q1NCHYRZV0LG&c=365717&tp_c=365717"},{"view_history":[{"page_index":0,"viewing_time":7235},{"page_index":1,"viewing_time":3452},{"page_index":2,"viewing_time":41472},{"page_index":3,"viewing_time":2842},{"page_index":4,"viewing_time":2299},{"page_index":5,"viewing_time":2747},{"page_index":6,"viewing_time":1785}],"rt":61833,"trial_type":"instructions","trial_index":2,"time_elapsed":197933,"internal_node_id":"0.0-2.0-0.0","params":{"nStudents":24,"maxFlips":30,"completionMinutes":45,"basePay":8,"maxBonus":9,"perTrialBonus":0.5,"perTrialBonusThreshold":0.05,"exampleCost":0.01},"classroomParams":{"A":{"a":1,"b":4},"B":{"a":4,"b":1},"C":{"a":2,"b":8},"D":{"a":8,"b":2}},"conditions":["nonSeqFull","nonSeqPartial","seqNoFeedback","seqFeedback"],"classroomPairings":[["A","B"],["C","D"]],"coinWeights":[0.2,0.5,0.8],"subjectId":"A1FDFJCZ4B5N9S","assignmentId":"3YHH42UU5C1OBN6XN8Q1NCHYRZV0LG","hitId":"3FJ2RVH25ZSYKBA8MWMNC8NVPF629N","url":"https://gershmanlab.com/experiments/alicia/teaching/experiment/?hitId=3FJ2RVH25ZSYKBA8MWMNC8NVPF629N&workerId=A1FDFJCZ4B5N9S&assignmentId=3YHH42UU5C1OBN6XN8Q1NCHYRZV0LG&a=U4HY7&tp_a=U4HY7&b=3YHH42UU5C1OBN6XN8Q1NCHYRZV0LG&tp_b=3YHH42UU5C1OBN6XN8Q1NCHYRZV0LG&c=365717&tp_c=365717"},{"rt":18156,"response":{"Q0":"Students in different classrooms will have seen a different number of heads and tails before seeing the examples you select for them.","Q1":"By giving 30 examples (the maximum) on each trial so I can make sure that the students' guesses are as accurate as possible.","Q2":"The coin lands heads 90% of the time.","Q3":"Yes, I might encounter the same student twice.","Q4":"The students are all on planet Earth, where they tend to believe the vast majority of coins will be fair.","Q5":"Based on the student's first guess."},"question_order":[0,1,2,5,3,4],"trial_type":"survey-multi-choice","trial_index":3,"time_elapsed":216092,"internal_node_id":"0.0-2.0-1.0","params":{"nStudents":24,"maxFlips":30,"completionMinutes":45,"basePay":8,"maxBonus":9,"perTrialBonus":0.5,"perTrialBonusThreshold":0.05,"exampleCost":0.01},"classroomParams":{"A":{"a":1,"b":4},"B":{"a":4,"b":1},"C":{"a":2,"b":8},"D":{"a":8,"b":2}},"conditions":["nonSeqFull","nonSeqPartial","seqNoFeedback","seqFeedback"],"classroomPairings":[["A","B"],["C","D"]],"coinWeights":[0.2,0.5,0.8],"subjectId":"A1FDFJCZ4B5N9S","assignmentId":"3YHH42UU5C1OBN6XN8Q1NCHYRZV0LG","hitId":"3FJ2RVH25ZSYKBA8MWMNC8NVPF629N","url":"https://gershmanlab.com/experiments/alicia/teaching/experiment/?hitId=3FJ2RVH25ZSYKBA8MWMNC8NVPF629N&workerId=A1FDFJCZ4B5N9S&assignmentId=3YHH42UU5C1OBN6XN8Q1NCHYRZV0LG&a=U4HY7&tp_a=U4HY7&b=3YHH42UU5C1OBN6XN8Q1NCHYRZV0LG&tp_b=3YHH42UU5C1OBN6XN8Q1NCHYRZV0LG&c=365717&tp_c=365717","pass":false},{"rt":3393,"stimulus":"Oops, you have missed question(s) on the comprehension check! We'll show you the instructions again.","response":0,"trial_type":"html-button-response","trial_index":4,"time_elapsed":219491,"internal_node_id":"0.0-2.0-2.0-0.0","params":{"nStudents":24,"maxFlips":30,"completionMinutes":45,"basePay":8,"maxBonus":9,"perTrialBonus":0.5,"perTrialBonusThreshold":0.05,"exampleCost":0.01},"classroomParams":{"A":{"a":1,"b":4},"B":{"a":4,"b":1},"C":{"a":2,"b":8},"D":{"a":8,"b":2}},"conditions":["nonSeqFull","nonSeqPartial","seqNoFeedback","seqFeedback"],"classroomPairings":[["A","B"],["C","D"]],"coinWeights":[0.2,0.5,0.8],"subjectId":"A1FDFJCZ4B5N9S","assignmentId":"3YHH42UU5C1OBN6XN8Q1NCHYRZV0LG","hitId":"3FJ2RVH25ZSYKBA8MWMNC8NVPF629N","url":"https://gershmanlab.com/experiments/alicia/teaching/experiment/?hitId=3FJ2RVH25ZSYKBA8MWMNC8NVPF629N&workerId=A1FDFJCZ4B5N9S&assignmentId=3YHH42UU5C1OBN6XN8Q1NCHYRZV0LG&a=U4HY7&tp_a=U4HY7&b=3YHH42UU5C1OBN6XN8Q1NCHYRZV0LG&tp_b=3YHH42UU5C1OBN6XN8Q1NCHYRZV0LG&c=365717&tp_c=365717"},{"view_history":[{"page_index":0,"viewing_time":27871},{"page_index":1,"viewing_time":1672},{"page_index":0,"viewing_time":2728},{"page_index":1,"viewing_time":7848},{"page_index":2,"viewing_time":58569},{"page_index":1,"viewing_time":3176},{"page_index":2,"viewing_time":1417},{"page_index":3,"viewing_time":8416},{"page_index":4,"viewing_time":6336},{"page_index":5,"viewing_time":5881},{"page_index":6,"viewing_time":7976}],"rt":131889,"trial_type":"instructions","trial_index":5,"time_elapsed":351380,"internal_node_id":"0.0-2.1-0.1","params":{"nStudents":24,"maxFlips":30,"completionMinutes":45,"basePay":8,"maxBonus":9,"perTrialBonus":0.5,"perTrialBonusThreshold":0.05,"exampleCost":0.01},"classroomParams":{"A":{"a":1,"b":4},"B":{"a":4,"b":1},"C":{"a":2,"b":8},"D":{"a":8,"b":2}},"conditions":["nonSeqFull","nonSeqPartial","seqNoFeedback","seqFeedback"],"classroomPairings":[["A","B"],["C","D"]],"coinWeights":[0.2,0.5,0.8],"subjectId":"A1FDFJCZ4B5N9S","assignmentId":"3YHH42UU5C1OBN6XN8Q1NCHYRZV0LG","hitId":"3FJ2RVH25ZSYKBA8MWMNC8NVPF629N","url":"https://gershmanlab.com/experiments/alicia/teaching/experiment/?hitId=3FJ2RVH25ZSYKBA8MWMNC8NVPF629N&workerId=A1FDFJCZ4B5N9S&assignmentId=3YHH42UU5C1OBN6XN8Q1NCHYRZV0LG&a=U4HY7&tp_a=U4HY7&b=3YHH42UU5C1OBN6XN8Q1NCHYRZV0LG&tp_b=3YHH42UU5C1OBN6XN8Q1NCHYRZV0LG&c=365717&tp_c=365717"},{"rt":656672,"response":{"Q0":"Students in different classrooms have seen a different proportion of fair and unfair coins before seeing the examples you select for them.","Q1":"By giving 30 examples (the maximum) on each trial so I can make sure that the students' guesses are as accurate as possible.","Q2":"The coin lands heads 90% of the time.","Q3":"No, I will teach a <b>new</b> student each time.","Q4":"The students are also on the same alien planet as you, where coins can be unfair.","Q5":"Based on the student's second (and final) guess."},"question_order":[5,3,1,2,0,4],"trial_type":"survey-multi-choice","trial_index":6,"time_elapsed":1008049,"internal_node_id":"0.0-2.1-1.1","params":{"nStudents":24,"maxFlips":30,"completionMinutes":45,"basePay":8,"maxBonus":9,"perTrialBonus":0.5,"perTrialBonusThreshold":0.05,"exampleCost":0.01},"classroomParams":{"A":{"a":1,"b":4},"B":{"a":4,"b":1},"C":{"a":2,"b":8},"D":{"a":8,"b":2}},"conditions":["nonSeqFull","nonSeqPartial","seqNoFeedback","seqFeedback"],"classroomPairings":[["A","B"],["C","D"]],"coinWeights":[0.2,0.5,0.8],"subjectId":"A1FDFJCZ4B5N9S","assignmentId":"3YHH42UU5C1OBN6XN8Q1NCHYRZV0LG","hitId":"3FJ2RVH25ZSYKBA8MWMNC8NVPF629N","url":"https://gershmanlab.com/experiments/alicia/teaching/experiment/?hitId=3FJ2RVH25ZSYKBA8MWMNC8NVPF629N&workerId=A1FDFJCZ4B5N9S&assignmentId=3YHH42UU5C1OBN6XN8Q1NCHYRZV0LG&a=U4HY7&tp_a=U4HY7&b=3YHH42UU5C1OBN6XN8Q1NCHYRZV0LG&tp_b=3YHH42UU5C1OBN6XN8Q1NCHYRZV0LG&c=365717&tp_c=365717","pass":false},{"rt":2945,"stimulus":"Oops, you have missed question(s) on the comprehension check! We'll show you the instructions again.","response":0,"trial_type":"html-button-response","trial_index":7,"time_elapsed":1011001,"internal_node_id":"0.0-2.1-2.1-0.1","params":{"nStudents":24,"maxFlips":30,"completionMinutes":45,"basePay":8,"maxBonus":9,"perTrialBonus":0.5,"perTrialBonusThreshold":0.05,"exampleCost":0.01},"classroomParams":{"A":{"a":1,"b":4},"B":{"a":4,"b":1},"C":{"a":2,"b":8},"D":{"a":8,"b":2}},"conditions":["nonSeqFull","nonSeqPartial","seqNoFeedback","seqFeedback"],"classroomPairings":[["A","B"],["C","D"]],"coinWeights":[0.2,0.5,0.8],"subjectId":"A1FDFJCZ4B5N9S","assignmentId":"3YHH42UU5C1OBN6XN8Q1NCHYRZV0LG","hitId":"3FJ2RVH25ZSYKBA8MWMNC8NVPF629N","url":"https://gershmanlab.com/experiments/alicia/teaching/experiment/?hitId=3FJ2RVH25ZSYKBA8MWMNC8NVPF629N&workerId=A1FDFJCZ4B5N9S&assignmentId=3YHH42UU5C1OBN6XN8Q1NCHYRZV0LG&a=U4HY7&tp_a=U4HY7&b=3YHH42UU5C1OBN6XN8Q1NCHYRZV0LG&tp_b=3YHH42UU5C1OBN6XN8Q1NCHYRZV0LG&c=365717&tp_c=365717"},{"view_history":[{"page_index":0,"viewing_time":1190},{"page_index":1,"viewing_time":193},{"page_index":2,"viewing_time":1393},{"page_index":3,"viewing_time":199},{"page_index":4,"viewing_time":1376},{"page_index":5,"viewing_time":1808},{"page_index":6,"viewing_time":1368}],"rt":7527,"trial_type":"instructions","trial_index":8,"time_elapsed":1018530,"internal_node_id":"0.0-2.2-0.2","params":{"nStudents":24,"maxFlips":30,"completionMinutes":45,"basePay":8,"maxBonus":9,"perTrialBonus":0.5,"perTrialBonusThreshold":0.05,"exampleCost":0.01},"classroomParams":{"A":{"a":1,"b":4},"B":{"a":4,"b":1},"C":{"a":2,"b":8},"D":{"a":8,"b":2}},"conditions":["nonSeqFull","nonSeqPartial","seqNoFeedback","seqFeedback"],"classroomPairings":[["A","B"],["C","D"]],"coinWeights":[0.2,0.5,0.8],"subjectId":"A1FDFJCZ4B5N9S","assignmentId":"3YHH42UU5C1OBN6XN8Q1NCHYRZV0LG","hitId":"3FJ2RVH25ZSYKBA8MWMNC8NVPF629N","url":"https://gershmanlab.com/experiments/alicia/teaching/experiment/?hitId=3FJ2RVH25ZSYKBA8MWMNC8NVPF629N&workerId=A1FDFJCZ4B5N9S&assignmentId=3YHH42UU5C1OBN6XN8Q1NCHYRZV0LG&a=U4HY7&tp_a=U4HY7&b=3YHH42UU5C1OBN6XN8Q1NCHYRZV0LG&tp_b=3YHH42UU5C1OBN6XN8Q1NCHYRZV0LG&c=365717&tp_c=365717"},{"rt":66607,"response":{"Q0":"The classrooms are all the same and aren't helpful for deciding how to teach.","Q1":"By giving 30 examples (the maximum) on each trial so I can make sure that the students' guesses are as accurate as possible.","Q2":"The coin lands heads 90% of the time.","Q3":"No, I will teach a <b>new</b> student each time.","Q4":"The students are also on the same alien planet as you, where coins can be unfair.","Q5":"Based on the student's second (and final) guess."},"question_order":[1,0,2,5,3,4],"trial_type":"survey-multi-choice","trial_index":9,"time_elapsed":1085138,"internal_node_id":"0.0-2.2-1.2","params":{"nStudents":24,"maxFlips":30,"completionMinutes":45,"basePay":8,"maxBonus":9,"perTrialBonus":0.5,"perTrialBonusThreshold":0.05,"exampleCost":0.01},"classroomParams":{"A":{"a":1,"b":4},"B":{"a":4,"b":1},"C":{"a":2,"b":8},"D":{"a":8,"b":2}},"conditions":["nonSeqFull","nonSeqPartial","seqNoFeedback","seqFeedback"],"classroomPairings":[["A","B"],["C","D"]],"coinWeights":[0.2,0.5,0.8],"subjectId":"A1FDFJCZ4B5N9S","assignmentId":"3YHH42UU5C1OBN6XN8Q1NCHYRZV0LG","hitId":"3FJ2RVH25ZSYKBA8MWMNC8NVPF629N","url":"https://gershmanlab.com/experiments/alicia/teaching/experiment/?hitId=3FJ2RVH25ZSYKBA8MWMNC8NVPF629N&workerId=A1FDFJCZ4B5N9S&assignmentId=3YHH42UU5C1OBN6XN8Q1NCHYRZV0LG&a=U4HY7&tp_a=U4HY7&b=3YHH42UU5C1OBN6XN8Q1NCHYRZV0LG&tp_b=3YHH42UU5C1OBN6XN8Q1NCHYRZV0LG&c=365717&tp_c=365717","pass":false},{"rt":2860,"stimulus":"Oops, you have missed question(s) on the comprehension check! We'll show you the instructions again.","response":0,"trial_type":"html-button-response","trial_index":10,"time_elapsed":1088002,"internal_node_id":"0.0-2.2-2.2-0.2","params":{"nStudents":24,"maxFlips":30,"completionMinutes":45,"basePay":8,"maxBonus":9,"perTrialBonus":0.5,"perTrialBonusThreshold":0.05,"exampleCost":0.01},"classroomParams":{"A":{"a":1,"b":4},"B":{"a":4,"b":1},"C":{"a":2,"b":8},"D":{"a":8,"b":2}},"conditions":["nonSeqFull","nonSeqPartial","seqNoFeedback","seqFeedback"],"classroomPairings":[["A","B"],["C","D"]],"coinWeights":[0.2,0.5,0.8],"subjectId":"A1FDFJCZ4B5N9S","assignmentId":"3YHH42UU5C1OBN6XN8Q1NCHYRZV0LG","hitId":"3FJ2RVH25ZSYKBA8MWMNC8NVPF629N","url":"https://gershmanlab.com/experiments/alicia/teaching/experiment/?hitId=3FJ2RVH25ZSYKBA8MWMNC8NVPF629N&workerId=A1FDFJCZ4B5N9S&assignmentId=3YHH42UU5C1OBN6XN8Q1NCHYRZV0LG&a=U4HY7&tp_a=U4HY7&b=3YHH42UU5C1OBN6XN8Q1NCHYRZV0LG&tp_b=3YHH42UU5C1OBN6XN8Q1NCHYRZV0LG&c=365717&tp_c=365717"},{"view_history":[{"page_index":0,"viewing_time":1246},{"page_index":1,"viewing_time":800},{"page_index":2,"viewing_time":1241},{"page_index":3,"viewing_time":912},{"page_index":4,"viewing_time":1175},{"page_index":5,"viewing_time":1496},{"page_index":6,"viewing_time":1554}],"rt":8424,"trial_type":"instructions","trial_index":11,"time_elapsed":1096427,"internal_node_id":"0.0-2.3-0.3","params":{"nStudents":24,"maxFlips":30,"completionMinutes":45,"basePay":8,"maxBonus":9,"perTrialBonus":0.5,"perTrialBonusThreshold":0.05,"exampleCost":0.01},"classroomParams":{"A":{"a":1,"b":4},"B":{"a":4,"b":1},"C":{"a":2,"b":8},"D":{"a":8,"b":2}},"conditions":["nonSeqFull","nonSeqPartial","seqNoFeedback","seqFeedback"],"classroomPairings":[["A","B"],["C","D"]],"coinWeights":[0.2,0.5,0.8],"subjectId":"A1FDFJCZ4B5N9S","assignmentId":"3YHH42UU5C1OBN6XN8Q1NCHYRZV0LG","hitId":"3FJ2RVH25ZSYKBA8MWMNC8NVPF629N","url":"https://gershmanlab.com/experiments/alicia/teaching/experiment/?hitId=3FJ2RVH25ZSYKBA8MWMNC8NVPF629N&workerId=A1FDFJCZ4B5N9S&assignmentId=3YHH42UU5C1OBN6XN8Q1NCHYRZV0LG&a=U4HY7&tp_a=U4HY7&b=3YHH42UU5C1OBN6XN8Q1NCHYRZV0LG&tp_b=3YHH42UU5C1OBN6XN8Q1NCHYRZV0LG&c=365717&tp_c=365717"},{"rt":20789,"response":{"Q0":"Students in different classrooms will have seen a different number of heads and tails before seeing the examples you select for them.","Q1":"By giving 30 examples (the maximum) on each trial so I can make sure that the students' guesses are as accurate as possible.","Q2":"The coin lands heads 90% of the time.","Q3":"No, I will teach a <b>new</b> student each time.","Q4":"The students are all on planet Earth, where they tend to believe the vast majority of coins will be fair.","Q5":"Based on the student's second (and final) guess."},"question_order":[4,0,1,3,2,5],"trial_type":"survey-multi-choice","trial_index":12,"time_elapsed":1117219,"internal_node_id":"0.0-2.3-1.3","params":{"nStudents":24,"maxFlips":30,"completionMinutes":45,"basePay":8,"maxBonus":9,"perTrialBonus":0.5,"perTrialBonusThreshold":0.05,"exampleCost":0.01},"classroomParams":{"A":{"a":1,"b":4},"B":{"a":4,"b":1},"C":{"a":2,"b":8},"D":{"a":8,"b":2}},"conditions":["nonSeqFull","nonSeqPartial","seqNoFeedback","seqFeedback"],"classroomPairings":[["A","B"],["C","D"]],"coinWeights":[0.2,0.5,0.8],"subjectId":"A1FDFJCZ4B5N9S","assignmentId":"3YHH42UU5C1OBN6XN8Q1NCHYRZV0LG","hitId":"3FJ2RVH25ZSYKBA8MWMNC8NVPF629N","url":"https://gershmanlab.com/experiments/alicia/teaching/experiment/?hitId=3FJ2RVH25ZSYKBA8MWMNC8NVPF629N&workerId=A1FDFJCZ4B5N9S&assignmentId=3YHH42UU5C1OBN6XN8Q1NCHYRZV0LG&a=U4HY7&tp_a=U4HY7&b=3YHH42UU5C1OBN6XN8Q1NCHYRZV0LG&tp_b=3YHH42UU5C1OBN6XN8Q1NCHYRZV0LG&c=365717&tp_c=365717","pass":false},{"rt":1483,"stimulus":"Oops, you have missed question(s) on the comprehension check! We'll show you the instructions again.","response":0,"trial_type":"html-button-response","trial_index":13,"time_elapsed":1118707,"internal_node_id":"0.0-2.3-2.3-0.3","params":{"nStudents":24,"maxFlips":30,"completionMinutes":45,"basePay":8,"maxBonus":9,"perTrialBonus":0.5,"perTrialBonusThreshold":0.05,"exampleCost":0.01},"classroomParams":{"A":{"a":1,"b":4},"B":{"a":4,"b":1},"C":{"a":2,"b":8},"D":{"a":8,"b":2}},"conditions":["nonSeqFull","nonSeqPartial","seqNoFeedback","seqFeedback"],"classroomPairings":[["A","B"],["C","D"]],"coinWeights":[0.2,0.5,0.8],"subjectId":"A1FDFJCZ4B5N9S","assignmentId":"3YHH42UU5C1OBN6XN8Q1NCHYRZV0LG","hitId":"3FJ2RVH25ZSYKBA8MWMNC8NVPF629N","url":"https://gershmanlab.com/experiments/alicia/teaching/experiment/?hitId=3FJ2RVH25ZSYKBA8MWMNC8NVPF629N&workerId=A1FDFJCZ4B5N9S&assignmentId=3YHH42UU5C1OBN6XN8Q1NCHYRZV0LG&a=U4HY7&tp_a=U4HY7&b=3YHH42UU5C1OBN6XN8Q1NCHYRZV0LG&tp_b=3YHH42UU5C1OBN6XN8Q1NCHYRZV0LG&c=365717&tp_c=365717"},{"view_history":[{"page_index":0,"viewing_time":194376},{"page_index":1,"viewing_time":712},{"page_index":2,"viewing_time":25675},{"page_index":3,"viewing_time":20438},{"page_index":4,"viewing_time":8064},{"page_index":5,"viewing_time":5487},{"page_index":6,"viewing_time":18666}],"rt":273419,"trial_type":"instructions","trial_index":14,"time_elapsed":1392122,"internal_node_id":"0.0-2.4-0.4","params":{"nStudents":24,"maxFlips":30,"completionMinutes":45,"basePay":8,"maxBonus":9,"perTrialBonus":0.5,"perTrialBonusThreshold":0.05,"exampleCost":0.01},"classroomParams":{"A":{"a":1,"b":4},"B":{"a":4,"b":1},"C":{"a":2,"b":8},"D":{"a":8,"b":2}},"conditions":["nonSeqFull","nonSeqPartial","seqNoFeedback","seqFeedback"],"classroomPairings":[["A","B"],["C","D"]],"coinWeights":[0.2,0.5,0.8],"subjectId":"A1FDFJCZ4B5N9S","assignmentId":"3YHH42UU5C1OBN6XN8Q1NCHYRZV0LG","hitId":"3FJ2RVH25ZSYKBA8MWMNC8NVPF629N","url":"https://gershmanlab.com/experiments/alicia/teaching/experiment/?hitId=3FJ2RVH25ZSYKBA8MWMNC8NVPF629N&workerId=A1FDFJCZ4B5N9S&assignmentId=3YHH42UU5C1OBN6XN8Q1NCHYRZV0LG&a=U4HY7&tp_a=U4HY7&b=3YHH42UU5C1OBN6XN8Q1NCHYRZV0LG&tp_b=3YHH42UU5C1OBN6XN8Q1NCHYRZV0LG&c=365717&tp_c=365717"},{"rt":42974,"response":{"Q0":"Students in different classrooms will have seen a different number of heads and tails before seeing the examples you select for them.","Q1":"By giving 30 examples (the maximum) on each trial so I can make sure that the students' guesses are as accurate as possible.","Q2":"The coin lands heads 90% of the time.","Q3":"No, I will teach a <b>new</b> student each time.","Q4":"The students are also on the same alien planet as you, where coins can be unfair.","Q5":"Based on the student's second (and final) guess."},"question_order":[1,0,2,4,3,5],"trial_type":"survey-multi-choice","trial_index":15,"time_elapsed":1435098,"internal_node_id":"0.0-2.4-1.4","params":{"nStudents":24,"maxFlips":30,"completionMinutes":45,"basePay":8,"maxBonus":9,"perTrialBonus":0.5,"perTrialBonusThreshold":0.05,"exampleCost":0.01},"classroomParams":{"A":{"a":1,"b":4},"B":{"a":4,"b":1},"C":{"a":2,"b":8},"D":{"a":8,"b":2}},"conditions":["nonSeqFull","nonSeqPartial","seqNoFeedback","seqFeedback"],"classroomPairings":[["A","B"],["C","D"]],"coinWeights":[0.2,0.5,0.8],"subjectId":"A1FDFJCZ4B5N9S","assignmentId":"3YHH42UU5C1OBN6XN8Q1NCHYRZV0LG","hitId":"3FJ2RVH25ZSYKBA8MWMNC8NVPF629N","url":"https://gershmanlab.com/experiments/alicia/teaching/experiment/?hitId=3FJ2RVH25ZSYKBA8MWMNC8NVPF629N&workerId=A1FDFJCZ4B5N9S&assignmentId=3YHH42UU5C1OBN6XN8Q1NCHYRZV0LG&a=U4HY7&tp_a=U4HY7&b=3YHH42UU5C1OBN6XN8Q1NCHYRZV0LG&tp_b=3YHH42UU5C1OBN6XN8Q1NCHYRZV0LG&c=365717&tp_c=365717","pass":false},{"rt":3243,"stimulus":"Oops, you have missed question(s) on the comprehension check! We'll show you the instructions again.","response":0,"trial_type":"html-button-response","trial_index":16,"time_elapsed":1438345,"internal_node_id":"0.0-2.4-2.4-0.4","params":{"nStudents":24,"maxFlips":30,"completionMinutes":45,"basePay":8,"maxBonus":9,"perTrialBonus":0.5,"perTrialBonusThreshold":0.05,"exampleCost":0.01},"classroomParams":{"A":{"a":1,"b":4},"B":{"a":4,"b":1},"C":{"a":2,"b":8},"D":{"a":8,"b":2}},"conditions":["nonSeqFull","nonSeqPartial","seqNoFeedback","seqFeedback"],"classroomPairings":[["A","B"],["C","D"]],"coinWeights":[0.2,0.5,0.8],"subjectId":"A1FDFJCZ4B5N9S","assignmentId":"3YHH42UU5C1OBN6XN8Q1NCHYRZV0LG","hitId":"3FJ2RVH25ZSYKBA8MWMNC8NVPF629N","url":"https://gershmanlab.com/experiments/alicia/teaching/experiment/?hitId=3FJ2RVH25ZSYKBA8MWMNC8NVPF629N&workerId=A1FDFJCZ4B5N9S&assignmentId=3YHH42UU5C1OBN6XN8Q1NCHYRZV0LG&a=U4HY7&tp_a=U4HY7&b=3YHH42UU5C1OBN6XN8Q1NCHYRZV0LG&tp_b=3YHH42UU5C1OBN6XN8Q1NCHYRZV0LG&c=365717&tp_c=365717"},{"view_history":[{"page_index":0,"viewing_time":1656},{"page_index":1,"viewing_time":279},{"page_index":2,"viewing_time":1169},{"page_index":3,"viewing_time":703},{"page_index":4,"viewing_time":1625},{"page_index":5,"viewing_time":1320},{"page_index":6,"viewing_time":1681}],"rt":8433,"trial_type":"instructions","trial_index":17,"time_elapsed":1446779,"internal_node_id":"0.0-2.5-0.5","params":{"nStudents":24,"maxFlips":30,"completionMinutes":45,"basePay":8,"maxBonus":9,"perTrialBonus":0.5,"perTrialBonusThreshold":0.05,"exampleCost":0.01},"classroomParams":{"A":{"a":1,"b":4},"B":{"a":4,"b":1},"C":{"a":2,"b":8},"D":{"a":8,"b":2}},"conditions":["nonSeqFull","nonSeqPartial","seqNoFeedback","seqFeedback"],"classroomPairings":[["A","B"],["C","D"]],"coinWeights":[0.2,0.5,0.8],"subjectId":"A1FDFJCZ4B5N9S","assignmentId":"3YHH42UU5C1OBN6XN8Q1NCHYRZV0LG","hitId":"3FJ2RVH25ZSYKBA8MWMNC8NVPF629N","url":"https://gershmanlab.com/experiments/alicia/teaching/experiment/?hitId=3FJ2RVH25ZSYKBA8MWMNC8NVPF629N&workerId=A1FDFJCZ4B5N9S&assignmentId=3YHH42UU5C1OBN6XN8Q1NCHYRZV0LG&a=U4HY7&tp_a=U4HY7&b=3YHH42UU5C1OBN6XN8Q1NCHYRZV0LG&tp_b=3YHH42UU5C1OBN6XN8Q1NCHYRZV0LG&c=365717&tp_c=365717"},{"rt":263785,"response":{"Q0":"Students in different classrooms will have seen a different number of heads and tails before seeing the examples you select for them.","Q1":"By giving 30 examples (the maximum) on each trial so I can make sure that the students' guesses are as accurate as possible.","Q2":"The coin lands heads 90% of the time.","Q3":"No, I will teach a <b>new</b> student each time.","Q4":"The students are also on the same alien planet as you, where coins can be unfair.","Q5":"Based on the student's second (and final) guess."},"question_order":[5,1,3,2,4,0],"trial_type":"survey-multi-choice","trial_index":18,"time_elapsed":1710564,"internal_node_id":"0.0-2.5-1.5","params":{"nStudents":24,"maxFlips":30,"completionMinutes":45,"basePay":8,"maxBonus":9,"perTrialBonus":0.5,"perTrialBonusThreshold":0.05,"exampleCost":0.01},"classroomParams":{"A":{"a":1,"b":4},"B":{"a":4,"b":1},"C":{"a":2,"b":8},"D":{"a":8,"b":2}},"conditions":["nonSeqFull","nonSeqPartial","seqNoFeedback","seqFeedback"],"classroomPairings":[["A","B"],["C","D"]],"coinWeights":[0.2,0.5,0.8],"subjectId":"A1FDFJCZ4B5N9S","assignmentId":"3YHH42UU5C1OBN6XN8Q1NCHYRZV0LG","hitId":"3FJ2RVH25ZSYKBA8MWMNC8NVPF629N","url":"https://gershmanlab.com/experiments/alicia/teaching/experiment/?hitId=3FJ2RVH25ZSYKBA8MWMNC8NVPF629N&workerId=A1FDFJCZ4B5N9S&assignmentId=3YHH42UU5C1OBN6XN8Q1NCHYRZV0LG&a=U4HY7&tp_a=U4HY7&b=3YHH42UU5C1OBN6XN8Q1NCHYRZV0LG&tp_b=3YHH42UU5C1OBN6XN8Q1NCHYRZV0LG&c=365717&tp_c=365717","pass":false},{"rt":2036,"stimulus":"Oops, you have missed question(s) on the comprehension check! We'll show you the instructions again.","response":0,"trial_type":"html-button-response","trial_index":19,"time_elapsed":1712605,"internal_node_id":"0.0-2.5-2.5-0.5","params":{"nStudents":24,"maxFlips":30,"completionMinutes":45,"basePay":8,"maxBonus":9,"perTrialBonus":0.5,"perTrialBonusThreshold":0.05,"exampleCost":0.01},"classroomParams":{"A":{"a":1,"b":4},"B":{"a":4,"b":1},"C":{"a":2,"b":8},"D":{"a":8,"b":2}},"conditions":["nonSeqFull","nonSeqPartial","seqNoFeedback","seqFeedback"],"classroomPairings":[["A","B"],["C","D"]],"coinWeights":[0.2,0.5,0.8],"subjectId":"A1FDFJCZ4B5N9S","assignmentId":"3YHH42UU5C1OBN6XN8Q1NCHYRZV0LG","hitId":"3FJ2RVH25ZSYKBA8MWMNC8NVPF629N","url":"https://gershmanlab.com/experiments/alicia/teaching/experiment/?hitId=3FJ2RVH25ZSYKBA8MWMNC8NVPF629N&workerId=A1FDFJCZ4B5N9S&assignmentId=3YHH42UU5C1OBN6XN8Q1NCHYRZV0LG&a=U4HY7&tp_a=U4HY7&b=3YHH42UU5C1OBN6XN8Q1NCHYRZV0LG&tp_b=3YHH42UU5C1OBN6XN8Q1NCHYRZV0LG&c=365717&tp_c=365717"},{"view_history":[{"page_index":0,"viewing_time":1678},{"page_index":1,"viewing_time":823},{"page_index":2,"viewing_time":1472},{"page_index":3,"viewing_time":865},{"page_index":4,"viewing_time":1456},{"page_index":5,"viewing_time":1288},{"page_index":6,"viewing_time":1544}],"rt":9127,"trial_type":"instructions","trial_index":20,"time_elapsed":1721733,"internal_node_id":"0.0-2.6-0.6","params":{"nStudents":24,"maxFlips":30,"completionMinutes":45,"basePay":8,"maxBonus":9,"perTrialBonus":0.5,"perTrialBonusThreshold":0.05,"exampleCost":0.01},"classroomParams":{"A":{"a":1,"b":4},"B":{"a":4,"b":1},"C":{"a":2,"b":8},"D":{"a":8,"b":2}},"conditions":["nonSeqFull","nonSeqPartial","seqNoFeedback","seqFeedback"],"classroomPairings":[["A","B"],["C","D"]],"coinWeights":[0.2,0.5,0.8],"subjectId":"A1FDFJCZ4B5N9S","assignmentId":"3YHH42UU5C1OBN6XN8Q1NCHYRZV0LG","hitId":"3FJ2RVH25ZSYKBA8MWMNC8NVPF629N","url":"https://gershmanlab.com/experiments/alicia/teaching/experiment/?hitId=3FJ2RVH25ZSYKBA8MWMNC8NVPF629N&workerId=A1FDFJCZ4B5N9S&assignmentId=3YHH42UU5C1OBN6XN8Q1NCHYRZV0LG&a=U4HY7&tp_a=U4HY7&b=3YHH42UU5C1OBN6XN8Q1NCHYRZV0LG&tp_b=3YHH42UU5C1OBN6XN8Q1NCHYRZV0LG&c=365717&tp_c=365717"},{"rt":17887,"response":{"Q0":"Students in different classrooms have seen a different proportion of fair and unfair coins before seeing the examples you select for them.","Q1":"By giving 30 examples (the maximum) on each trial so I can make sure that the students' guesses are as accurate as possible.","Q2":"The coin lands heads 90% of the time.","Q3":"No, I will teach a <b>new</b> student each time.","Q4":"The students are also on the same alien planet as you, where coins can be unfair.","Q5":"Based on the student's second (and final) guess."},"question_order":[5,3,0,1,2,4],"trial_type":"survey-multi-choice","trial_index":21,"time_elapsed":1739621,"internal_node_id":"0.0-2.6-1.6","params":{"nStudents":24,"maxFlips":30,"completionMinutes":45,"basePay":8,"maxBonus":9,"perTrialBonus":0.5,"perTrialBonusThreshold":0.05,"exampleCost":0.01},"classroomParams":{"A":{"a":1,"b":4},"B":{"a":4,"b":1},"C":{"a":2,"b":8},"D":{"a":8,"b":2}},"conditions":["nonSeqFull","nonSeqPartial","seqNoFeedback","seqFeedback"],"classroomPairings":[["A","B"],["C","D"]],"coinWeights":[0.2,0.5,0.8],"subjectId":"A1FDFJCZ4B5N9S","assignmentId":"3YHH42UU5C1OBN6XN8Q1NCHYRZV0LG","hitId":"3FJ2RVH25ZSYKBA8MWMNC8NVPF629N","url":"https://gershmanlab.com/experiments/alicia/teaching/experiment/?hitId=3FJ2RVH25ZSYKBA8MWMNC8NVPF629N&workerId=A1FDFJCZ4B5N9S&assignmentId=3YHH42UU5C1OBN6XN8Q1NCHYRZV0LG&a=U4HY7&tp_a=U4HY7&b=3YHH42UU5C1OBN6XN8Q1NCHYRZV0LG&tp_b=3YHH42UU5C1OBN6XN8Q1NCHYRZV0LG&c=365717&tp_c=365717","pass":false},{"rt":1763,"stimulus":"Oops, you have missed question(s) on the comprehension check! We'll show you the instructions again.","response":0,"trial_type":"html-button-response","trial_index":22,"time_elapsed":1741388,"internal_node_id":"0.0-2.6-2.6-0.6","params":{"nStudents":24,"maxFlips":30,"completionMinutes":45,"basePay":8,"maxBonus":9,"perTrialBonus":0.5,"perTrialBonusThreshold":0.05,"exampleCost":0.01},"classroomParams":{"A":{"a":1,"b":4},"B":{"a":4,"b":1},"C":{"a":2,"b":8},"D":{"a":8,"b":2}},"conditions":["nonSeqFull","nonSeqPartial","seqNoFeedback","seqFeedback"],"classroomPairings":[["A","B"],["C","D"]],"coinWeights":[0.2,0.5,0.8],"subjectId":"A1FDFJCZ4B5N9S","assignmentId":"3YHH42UU5C1OBN6XN8Q1NCHYRZV0LG","hitId":"3FJ2RVH25ZSYKBA8MWMNC8NVPF629N","url":"https://gershmanlab.com/experiments/alicia/teaching/experiment/?hitId=3FJ2RVH25ZSYKBA8MWMNC8NVPF629N&workerId=A1FDFJCZ4B5N9S&assignmentId=3YHH42UU5C1OBN6XN8Q1NCHYRZV0LG&a=U4HY7&tp_a=U4HY7&b=3YHH42UU5C1OBN6XN8Q1NCHYRZV0LG&tp_b=3YHH42UU5C1OBN6XN8Q1NCHYRZV0LG&c=365717&tp_c=365717"},{"view_history":[{"page_index":0,"viewing_time":1606},{"page_index":1,"viewing_time":784},{"page_index":2,"viewing_time":1984},{"page_index":3,"viewing_time":953},{"page_index":4,"viewing_time":1495},{"page_index":5,"viewing_time":1249},{"page_index":6,"viewing_time":1304}],"rt":9375,"trial_type":"instructions","trial_index":23,"time_elapsed":1750764,"internal_node_id":"0.0-2.7-0.7","params":{"nStudents":24,"maxFlips":30,"completionMinutes":45,"basePay":8,"maxBonus":9,"perTrialBonus":0.5,"perTrialBonusThreshold":0.05,"exampleCost":0.01},"classroomParams":{"A":{"a":1,"b":4},"B":{"a":4,"b":1},"C":{"a":2,"b":8},"D":{"a":8,"b":2}},"conditions":["nonSeqFull","nonSeqPartial","seqNoFeedback","seqFeedback"],"classroomPairings":[["A","B"],["C","D"]],"coinWeights":[0.2,0.5,0.8],"subjectId":"A1FDFJCZ4B5N9S","assignmentId":"3YHH42UU5C1OBN6XN8Q1NCHYRZV0LG","hitId":"3FJ2RVH25ZSYKBA8MWMNC8NVPF629N","url":"https://gershmanlab.com/experiments/alicia/teaching/experiment/?hitId=3FJ2RVH25ZSYKBA8MWMNC8NVPF629N&workerId=A1FDFJCZ4B5N9S&assignmentId=3YHH42UU5C1OBN6XN8Q1NCHYRZV0LG&a=U4HY7&tp_a=U4HY7&b=3YHH42UU5C1OBN6XN8Q1NCHYRZV0LG&tp_b=3YHH42UU5C1OBN6XN8Q1NCHYRZV0LG&c=365717&tp_c=365717"},{"rt":23199,"response":{"Q0":"The classrooms are all the same and aren't helpful for deciding how to teach.","Q1":"By giving 30 examples (the maximum) on each trial so I can make sure that the students' guesses are as accurate as possible.","Q2":"The coin lands heads 90% of the time.","Q3":"No, I will teach a <b>new</b> student each time.","Q4":"The students are also on the same alien planet as you, where coins can be unfair.","Q5":"Based on the student's second (and final) guess."},"question_order":[4,2,5,1,0,3],"trial_type":"survey-multi-choice","trial_index":24,"time_elapsed":1773966,"internal_node_id":"0.0-2.7-1.7","params":{"nStudents":24,"maxFlips":30,"completionMinutes":45,"basePay":8,"maxBonus":9,"perTrialBonus":0.5,"perTrialBonusThreshold":0.05,"exampleCost":0.01},"classroomParams":{"A":{"a":1,"b":4},"B":{"a":4,"b":1},"C":{"a":2,"b":8},"D":{"a":8,"b":2}},"conditions":["nonSeqFull","nonSeqPartial","seqNoFeedback","seqFeedback"],"classroomPairings":[["A","B"],["C","D"]],"coinWeights":[0.2,0.5,0.8],"subjectId":"A1FDFJCZ4B5N9S","assignmentId":"3YHH42UU5C1OBN6XN8Q1NCHYRZV0LG","hitId":"3FJ2RVH25ZSYKBA8MWMNC8NVPF629N","url":"https://gershmanlab.com/experiments/alicia/teaching/experiment/?hitId=3FJ2RVH25ZSYKBA8MWMNC8NVPF629N&workerId=A1FDFJCZ4B5N9S&assignmentId=3YHH42UU5C1OBN6XN8Q1NCHYRZV0LG&a=U4HY7&tp_a=U4HY7&b=3YHH42UU5C1OBN6XN8Q1NCHYRZV0LG&tp_b=3YHH42UU5C1OBN6XN8Q1NCHYRZV0LG&c=365717&tp_c=365717","pass":false},{"rt":1809,"stimulus":"Oops, you have missed question(s) on the comprehension check! We'll show you the instructions again.","response":0,"trial_type":"html-button-response","trial_index":25,"time_elapsed":1775781,"internal_node_id":"0.0-2.7-2.7-0.7","params":{"nStudents":24,"maxFlips":30,"completionMinutes":45,"basePay":8,"maxBonus":9,"perTrialBonus":0.5,"perTrialBonusThreshold":0.05,"exampleCost":0.01},"classroomParams":{"A":{"a":1,"b":4},"B":{"a":4,"b":1},"C":{"a":2,"b":8},"D":{"a":8,"b":2}},"conditions":["nonSeqFull","nonSeqPartial","seqNoFeedback","seqFeedback"],"classroomPairings":[["A","B"],["C","D"]],"coinWeights":[0.2,0.5,0.8],"subjectId":"A1FDFJCZ4B5N9S","assignmentId":"3YHH42UU5C1OBN6XN8Q1NCHYRZV0LG","hitId":"3FJ2RVH25ZSYKBA8MWMNC8NVPF629N","url":"https://gershmanlab.com/experiments/alicia/teaching/experiment/?hitId=3FJ2RVH25ZSYKBA8MWMNC8NVPF629N&workerId=A1FDFJCZ4B5N9S&assignmentId=3YHH42UU5C1OBN6XN8Q1NCHYRZV0LG&a=U4HY7&tp_a=U4HY7&b=3YHH42UU5C1OBN6XN8Q1NCHYRZV0LG&tp_b=3YHH42UU5C1OBN6XN8Q1NCHYRZV0LG&c=365717&tp_c=365717"},{"view_history":[{"page_index":0,"viewing_time":1127},{"page_index":1,"viewing_time":263},{"page_index":2,"viewing_time":1280},{"page_index":3,"viewing_time":265},{"page_index":4,"viewing_time":1768},{"page_index":5,"viewing_time":1296},{"page_index":6,"viewing_time":1958}],"rt":7959,"trial_type":"instructions","trial_index":26,"time_elapsed":1783741,"internal_node_id":"0.0-2.8-0.8","params":{"nStudents":24,"maxFlips":30,"completionMinutes":45,"basePay":8,"maxBonus":9,"perTrialBonus":0.5,"perTrialBonusThreshold":0.05,"exampleCost":0.01},"classroomParams":{"A":{"a":1,"b":4},"B":{"a":4,"b":1},"C":{"a":2,"b":8},"D":{"a":8,"b":2}},"conditions":["nonSeqFull","nonSeqPartial","seqNoFeedback","seqFeedback"],"classroomPairings":[["A","B"],["C","D"]],"coinWeights":[0.2,0.5,0.8],"subjectId":"A1FDFJCZ4B5N9S","assignmentId":"3YHH42UU5C1OBN6XN8Q1NCHYRZV0LG","hitId":"3FJ2RVH25ZSYKBA8MWMNC8NVPF629N","url":"https://gershmanlab.com/experiments/alicia/teaching/experiment/?hitId=3FJ2RVH25ZSYKBA8MWMNC8NVPF629N&workerId=A1FDFJCZ4B5N9S&assignmentId=3YHH42UU5C1OBN6XN8Q1NCHYRZV0LG&a=U4HY7&tp_a=U4HY7&b=3YHH42UU5C1OBN6XN8Q1NCHYRZV0LG&tp_b=3YHH42UU5C1OBN6XN8Q1NCHYRZV0LG&c=365717&tp_c=365717"},{"rt":20470,"response":{"Q0":"Students in different classrooms will have seen a different number of heads and tails before seeing the examples you select for them.","Q1":"By <b>considering the student's classroom information</b> so that I can teach efficiently and accurately/helpfully at the same time (because each example I give to the student costs money!).","Q2":"The coin lands heads 90% of the time.","Q3":"No, I will teach a <b>new</b> student each time.","Q4":"The students are also on the same alien planet as you, where coins can be unfair.","Q5":"Based on the student's second (and final) guess."},"question_order":[2,4,3,1,0,5],"trial_type":"survey-multi-choice","trial_index":27,"time_elapsed":1804213,"internal_node_id":"0.0-2.8-1.8","params":{"nStudents":24,"maxFlips":30,"completionMinutes":45,"basePay":8,"maxBonus":9,"perTrialBonus":0.5,"perTrialBonusThreshold":0.05,"exampleCost":0.01},"classroomParams":{"A":{"a":1,"b":4},"B":{"a":4,"b":1},"C":{"a":2,"b":8},"D":{"a":8,"b":2}},"conditions":["nonSeqFull","nonSeqPartial","seqNoFeedback","seqFeedback"],"classroomPairings":[["A","B"],["C","D"]],"coinWeights":[0.2,0.5,0.8],"subjectId":"A1FDFJCZ4B5N9S","assignmentId":"3YHH42UU5C1OBN6XN8Q1NCHYRZV0LG","hitId":"3FJ2RVH25ZSYKBA8MWMNC8NVPF629N","url":"https://gershmanlab.com/experiments/alicia/teaching/experiment/?hitId=3FJ2RVH25ZSYKBA8MWMNC8NVPF629N&workerId=A1FDFJCZ4B5N9S&assignmentId=3YHH42UU5C1OBN6XN8Q1NCHYRZV0LG&a=U4HY7&tp_a=U4HY7&b=3YHH42UU5C1OBN6XN8Q1NCHYRZV0LG&tp_b=3YHH42UU5C1OBN6XN8Q1NCHYRZV0LG&c=365717&tp_c=365717","pass":true},{"rt":null,"stimulus":"<div style=\"font-size:30px;\">Congrats on passing the comprehension quiz! The experiment will begin in a few seconds.</div>","response":null,"trial_type":"html-keyboard-response","trial_index":28,"time_elapsed":1807227,"internal_node_id":"0.0-3.0","params":{"nStudents":24,"maxFlips":30,"completionMinutes":45,"basePay":8,"maxBonus":9,"perTrialBonus":0.5,"perTrialBonusThreshold":0.05,"exampleCost":0.01},"classroomParams":{"A":{"a":1,"b":4},"B":{"a":4,"b":1},"C":{"a":2,"b":8},"D":{"a":8,"b":2}},"conditions":["nonSeqFull","nonSeqPartial","seqNoFeedback","seqFeedback"],"classroomPairings":[["A","B"],["C","D"]],"coinWeights":[0.2,0.5,0.8],"subjectId":"A1FDFJCZ4B5N9S","assignmentId":"3YHH42UU5C1OBN6XN8Q1NCHYRZV0LG","hitId":"3FJ2RVH25ZSYKBA8MWMNC8NVPF629N","url":"https://gershmanlab.com/experiments/alicia/teaching/experiment/?hitId=3FJ2RVH25ZSYKBA8MWMNC8NVPF629N&workerId=A1FDFJCZ4B5N9S&assignmentId=3YHH42UU5C1OBN6XN8Q1NCHYRZV0LG&a=U4HY7&tp_a=U4HY7&b=3YHH42UU5C1OBN6XN8Q1NCHYRZV0LG&tp_b=3YHH42UU5C1OBN6XN8Q1NCHYRZV0LG&c=365717&tp_c=365717"},{"rt":null,"stimulus":"<div style=\"font-size:50px;\">First student</div>","response":null,"trial_type":"html-keyboard-response","trial_index":29,"time_elapsed":1810240,"internal_node_id":"0.0-4.0","params":{"nStudents":24,"maxFlips":30,"completionMinutes":45,"basePay":8,"maxBonus":9,"perTrialBonus":0.5,"perTrialBonusThreshold":0.05,"exampleCost":0.01},"classroomParams":{"A":{"a":1,"b":4},"B":{"a":4,"b":1},"C":{"a":2,"b":8},"D":{"a":8,"b":2}},"conditions":["nonSeqFull","nonSeqPartial","seqNoFeedback","seqFeedback"],"classroomPairings":[["A","B"],["C","D"]],"coinWeights":[0.2,0.5,0.8],"subjectId":"A1FDFJCZ4B5N9S","assignmentId":"3YHH42UU5C1OBN6XN8Q1NCHYRZV0LG","hitId":"3FJ2RVH25ZSYKBA8MWMNC8NVPF629N","url":"https://gershmanlab.com/experiments/alicia/teaching/experiment/?hitId=3FJ2RVH25ZSYKBA8MWMNC8NVPF629N&workerId=A1FDFJCZ4B5N9S&assignmentId=3YHH42UU5C1OBN6XN8Q1NCHYRZV0LG&a=U4HY7&tp_a=U4HY7&b=3YHH42UU5C1OBN6XN8Q1NCHYRZV0LG&tp_b=3YHH42UU5C1OBN6XN8Q1NCHYRZV0LG&c=365717&tp_c=365717"},{"rt":15203,"stimulus":"\n            <h4 style=\"color:Orange;\">Student 1</h4>\n            <h2>The weight of your coin is <b style=\"color:Tomato;\">0.2</b>.</h2>\n            <p>In this block, you will be giving <b>one</b> set of examples to Student 1.</p>\n                <p>You will receive feedback at the end of the block.</p>\n            <p></p>","response":0,"trial_type":"html-button-response","trial_index":30,"time_elapsed":1825445,"internal_node_id":"0.0-5.0","params":{"nStudents":24,"maxFlips":30,"completionMinutes":45,"basePay":8,"maxBonus":9,"perTrialBonus":0.5,"perTrialBonusThreshold":0.05,"exampleCost":0.01},"classroomParams":{"A":{"a":1,"b":4},"B":{"a":4,"b":1},"C":{"a":2,"b":8},"D":{"a":8,"b":2}},"conditions":["nonSeqFull","nonSeqPartial","seqNoFeedback","seqFeedback"],"classroomPairings":[["A","B"],["C","D"]],"coinWeights":[0.2,0.5,0.8],"subjectId":"A1FDFJCZ4B5N9S","assignmentId":"3YHH42UU5C1OBN6XN8Q1NCHYRZV0LG","hitId":"3FJ2RVH25ZSYKBA8MWMNC8NVPF629N","url":"https://gershmanlab.com/experiments/alicia/teaching/experiment/?hitId=3FJ2RVH25ZSYKBA8MWMNC8NVPF629N&workerId=A1FDFJCZ4B5N9S&assignmentId=3YHH42UU5C1OBN6XN8Q1NCHYRZV0LG&a=U4HY7&tp_a=U4HY7&b=3YHH42UU5C1OBN6XN8Q1NCHYRZV0LG&tp_b=3YHH42UU5C1OBN6XN8Q1NCHYRZV0LG&c=365717&tp_c=365717"},{"rt":8663,"response":{"heads":"2","tails":"1"},"type":"response","condition":"nonSeqPartial","trueTheta":0.2,"classrooms":["A","B"],"studentTrueClassroom":"A","exampleSet":"first","trial_type":"survey-html-form","trial_index":31,"time_elapsed":1834111,"internal_node_id":"0.0-6.0-0.0","params":{"nStudents":24,"maxFlips":30,"completionMinutes":45,"basePay":8,"maxBonus":9,"perTrialBonus":0.5,"perTrialBonusThreshold":0.05,"exampleCost":0.01},"classroomParams":{"A":{"a":1,"b":4},"B":{"a":4,"b":1},"C":{"a":2,"b":8},"D":{"a":8,"b":2}},"conditions":["nonSeqFull","nonSeqPartial","seqNoFeedback","seqFeedback"],"classroomPairings":[["A","B"],["C","D"]],"coinWeights":[0.2,0.5,0.8],"subjectId":"A1FDFJCZ4B5N9S","assignmentId":"3YHH42UU5C1OBN6XN8Q1NCHYRZV0LG","hitId":"3FJ2RVH25ZSYKBA8MWMNC8NVPF629N","url":"https://gershmanlab.com/experiments/alicia/teaching/experiment/?hitId=3FJ2RVH25ZSYKBA8MWMNC8NVPF629N&workerId=A1FDFJCZ4B5N9S&assignmentId=3YHH42UU5C1OBN6XN8Q1NCHYRZV0LG&a=U4HY7&tp_a=U4HY7&b=3YHH42UU5C1OBN6XN8Q1NCHYRZV0LG&tp_b=3YHH42UU5C1OBN6XN8Q1NCHYRZV0LG&c=365717&tp_c=365717","heads":2,"tails":1,"studentIndex":0,"studentTrueHypers":{"a":1,"b":4},"studentGuess":0.375,"delta":0.175,"totalExamples":3,"bonus":0,"bonusSoFar":0},{"rt":null,"stimulus":"Sending examples to student... ","response":null,"trial_type":"html-keyboard-response","trial_index":32,"time_elapsed":1836122,"internal_node_id":"0.0-7.0","params":{"nStudents":24,"maxFlips":30,"completionMinutes":45,"basePay":8,"maxBonus":9,"perTrialBonus":0.5,"perTrialBonusThreshold":0.05,"exampleCost":0.01},"classroomParams":{"A":{"a":1,"b":4},"B":{"a":4,"b":1},"C":{"a":2,"b":8},"D":{"a":8,"b":2}},"conditions":["nonSeqFull","nonSeqPartial","seqNoFeedback","seqFeedback"],"classroomPairings":[["A","B"],["C","D"]],"coinWeights":[0.2,0.5,0.8],"subjectId":"A1FDFJCZ4B5N9S","assignmentId":"3YHH42UU5C1OBN6XN8Q1NCHYRZV0LG","hitId":"3FJ2RVH25ZSYKBA8MWMNC8NVPF629N","url":"https://gershmanlab.com/experiments/alicia/teaching/experiment/?hitId=3FJ2RVH25ZSYKBA8MWMNC8NVPF629N&workerId=A1FDFJCZ4B5N9S&assignmentId=3YHH42UU5C1OBN6XN8Q1NCHYRZV0LG&a=U4HY7&tp_a=U4HY7&b=3YHH42UU5C1OBN6XN8Q1NCHYRZV0LG&tp_b=3YHH42UU5C1OBN6XN8Q1NCHYRZV0LG&c=365717&tp_c=365717"},{"rt":null,"stimulus":"Examples sent to student! Waiting for student...","response":null,"trial_type":"html-keyboard-response","trial_index":33,"time_elapsed":1842138,"internal_node_id":"0.0-8.0","params":{"nStudents":24,"maxFlips":30,"completionMinutes":45,"basePay":8,"maxBonus":9,"perTrialBonus":0.5,"perTrialBonusThreshold":0.05,"exampleCost":0.01},"classroomParams":{"A":{"a":1,"b":4},"B":{"a":4,"b":1},"C":{"a":2,"b":8},"D":{"a":8,"b":2}},"conditions":["nonSeqFull","nonSeqPartial","seqNoFeedback","seqFeedback"],"classroomPairings":[["A","B"],["C","D"]],"coinWeights":[0.2,0.5,0.8],"subjectId":"A1FDFJCZ4B5N9S","assignmentId":"3YHH42UU5C1OBN6XN8Q1NCHYRZV0LG","hitId":"3FJ2RVH25ZSYKBA8MWMNC8NVPF629N","url":"https://gershmanlab.com/experiments/alicia/teaching/experiment/?hitId=3FJ2RVH25ZSYKBA8MWMNC8NVPF629N&workerId=A1FDFJCZ4B5N9S&assignmentId=3YHH42UU5C1OBN6XN8Q1NCHYRZV0LG&a=U4HY7&tp_a=U4HY7&b=3YHH42UU5C1OBN6XN8Q1NCHYRZV0LG&tp_b=3YHH42UU5C1OBN6XN8Q1NCHYRZV0LG&c=365717&tp_c=365717"},{"rt":1434,"stimulus":"\n                <p>Student's guess for coin weight: <b style=\"color:Tomato;\">0.38</b></p>\n                <p>You received a bonus of <b>$0</b>. Total bonus so far: <b>$0.00</b></b></p>\n                <p></p>\n                <p>Press any key to continue.</p>\n                ","response":" ","trial_type":"html-keyboard-response","trial_index":34,"time_elapsed":1843574,"internal_node_id":"0.0-9.0","params":{"nStudents":24,"maxFlips":30,"completionMinutes":45,"basePay":8,"maxBonus":9,"perTrialBonus":0.5,"perTrialBonusThreshold":0.05,"exampleCost":0.01},"classroomParams":{"A":{"a":1,"b":4},"B":{"a":4,"b":1},"C":{"a":2,"b":8},"D":{"a":8,"b":2}},"conditions":["nonSeqFull","nonSeqPartial","seqNoFeedback","seqFeedback"],"classroomPairings":[["A","B"],["C","D"]],"coinWeights":[0.2,0.5,0.8],"subjectId":"A1FDFJCZ4B5N9S","assignmentId":"3YHH42UU5C1OBN6XN8Q1NCHYRZV0LG","hitId":"3FJ2RVH25ZSYKBA8MWMNC8NVPF629N","url":"https://gershmanlab.com/experiments/alicia/teaching/experiment/?hitId=3FJ2RVH25ZSYKBA8MWMNC8NVPF629N&workerId=A1FDFJCZ4B5N9S&assignmentId=3YHH42UU5C1OBN6XN8Q1NCHYRZV0LG&a=U4HY7&tp_a=U4HY7&b=3YHH42UU5C1OBN6XN8Q1NCHYRZV0LG&tp_b=3YHH42UU5C1OBN6XN8Q1NCHYRZV0LG&c=365717&tp_c=365717"},{"rt":null,"stimulus":"<div style=\"font-size:60px;\">Next student</div>","response":null,"trial_type":"html-keyboard-response","trial_index":35,"time_elapsed":1846577,"internal_node_id":"0.0-10.0-0.0","params":{"nStudents":24,"maxFlips":30,"completionMinutes":45,"basePay":8,"maxBonus":9,"perTrialBonus":0.5,"perTrialBonusThreshold":0.05,"exampleCost":0.01},"classroomParams":{"A":{"a":1,"b":4},"B":{"a":4,"b":1},"C":{"a":2,"b":8},"D":{"a":8,"b":2}},"conditions":["nonSeqFull","nonSeqPartial","seqNoFeedback","seqFeedback"],"classroomPairings":[["A","B"],["C","D"]],"coinWeights":[0.2,0.5,0.8],"subjectId":"A1FDFJCZ4B5N9S","assignmentId":"3YHH42UU5C1OBN6XN8Q1NCHYRZV0LG","hitId":"3FJ2RVH25ZSYKBA8MWMNC8NVPF629N","url":"https://gershmanlab.com/experiments/alicia/teaching/experiment/?hitId=3FJ2RVH25ZSYKBA8MWMNC8NVPF629N&workerId=A1FDFJCZ4B5N9S&assignmentId=3YHH42UU5C1OBN6XN8Q1NCHYRZV0LG&a=U4HY7&tp_a=U4HY7&b=3YHH42UU5C1OBN6XN8Q1NCHYRZV0LG&tp_b=3YHH42UU5C1OBN6XN8Q1NCHYRZV0LG&c=365717&tp_c=365717"},{"rt":1317,"stimulus":"\n            <h4 style=\"color:Orange;\">Student 2</h4>\n            <h2>The weight of your coin is <b style=\"color:Tomato;\">0.2</b>.</h2>\n            <p>In this block, you will be giving <b>two</b> sets of examples to Student 2.</p>\n                <p>You will see the student's guess after the first set of examples. You will also receive feedback at the end of the block.</p>\n            <p>To earn the highest bonus, you will have to <b>take into consideration the student's guess</b> when you choose your second set of examples.</p>","response":0,"trial_type":"html-button-response","trial_index":36,"time_elapsed":1847895,"internal_node_id":"0.0-11.0","params":{"nStudents":24,"maxFlips":30,"completionMinutes":45,"basePay":8,"maxBonus":9,"perTrialBonus":0.5,"perTrialBonusThreshold":0.05,"exampleCost":0.01},"classroomParams":{"A":{"a":1,"b":4},"B":{"a":4,"b":1},"C":{"a":2,"b":8},"D":{"a":8,"b":2}},"conditions":["nonSeqFull","nonSeqPartial","seqNoFeedback","seqFeedback"],"classroomPairings":[["A","B"],["C","D"]],"coinWeights":[0.2,0.5,0.8],"subjectId":"A1FDFJCZ4B5N9S","assignmentId":"3YHH42UU5C1OBN6XN8Q1NCHYRZV0LG","hitId":"3FJ2RVH25ZSYKBA8MWMNC8NVPF629N","url":"https://gershmanlab.com/experiments/alicia/teaching/experiment/?hitId=3FJ2RVH25ZSYKBA8MWMNC8NVPF629N&workerId=A1FDFJCZ4B5N9S&assignmentId=3YHH42UU5C1OBN6XN8Q1NCHYRZV0LG&a=U4HY7&tp_a=U4HY7&b=3YHH42UU5C1OBN6XN8Q1NCHYRZV0LG&tp_b=3YHH42UU5C1OBN6XN8Q1NCHYRZV0LG&c=365717&tp_c=365717"},{"rt":9117,"response":{"heads":"2","tails":"2"},"type":"response","condition":"seqFeedback","trueTheta":0.2,"classrooms":["A","B"],"studentTrueClassroom":"B","exampleSet":"first","trial_type":"survey-html-form","trial_index":37,"time_elapsed":1857014,"internal_node_id":"0.0-12.0-0.0","params":{"nStudents":24,"maxFlips":30,"completionMinutes":45,"basePay":8,"maxBonus":9,"perTrialBonus":0.5,"perTrialBonusThreshold":0.05,"exampleCost":0.01},"classroomParams":{"A":{"a":1,"b":4},"B":{"a":4,"b":1},"C":{"a":2,"b":8},"D":{"a":8,"b":2}},"conditions":["nonSeqFull","nonSeqPartial","seqNoFeedback","seqFeedback"],"classroomPairings":[["A","B"],["C","D"]],"coinWeights":[0.2,0.5,0.8],"subjectId":"A1FDFJCZ4B5N9S","assignmentId":"3YHH42UU5C1OBN6XN8Q1NCHYRZV0LG","hitId":"3FJ2RVH25ZSYKBA8MWMNC8NVPF629N","url":"https://gershmanlab.com/experiments/alicia/teaching/experiment/?hitId=3FJ2RVH25ZSYKBA8MWMNC8NVPF629N&workerId=A1FDFJCZ4B5N9S&assignmentId=3YHH42UU5C1OBN6XN8Q1NCHYRZV0LG&a=U4HY7&tp_a=U4HY7&b=3YHH42UU5C1OBN6XN8Q1NCHYRZV0LG&tp_b=3YHH42UU5C1OBN6XN8Q1NCHYRZV0LG&c=365717&tp_c=365717","heads":2,"tails":2,"studentIndex":1,"studentTrueHypers":{"a":4,"b":1},"studentGuess":0.6666666666666666,"delta":0.4666666666666666,"totalExamples":4,"bonusSoFar":0},{"rt":null,"stimulus":"Sending examples to student... ","response":null,"trial_type":"html-keyboard-response","trial_index":38,"time_elapsed":1858766,"internal_node_id":"0.0-13.0","params":{"nStudents":24,"maxFlips":30,"completionMinutes":45,"basePay":8,"maxBonus":9,"perTrialBonus":0.5,"perTrialBonusThreshold":0.05,"exampleCost":0.01},"classroomParams":{"A":{"a":1,"b":4},"B":{"a":4,"b":1},"C":{"a":2,"b":8},"D":{"a":8,"b":2}},"conditions":["nonSeqFull","nonSeqPartial","seqNoFeedback","seqFeedback"],"classroomPairings":[["A","B"],["C","D"]],"coinWeights":[0.2,0.5,0.8],"subjectId":"A1FDFJCZ4B5N9S","assignmentId":"3YHH42UU5C1OBN6XN8Q1NCHYRZV0LG","hitId":"3FJ2RVH25ZSYKBA8MWMNC8NVPF629N","url":"https://gershmanlab.com/experiments/alicia/teaching/experiment/?hitId=3FJ2RVH25ZSYKBA8MWMNC8NVPF629N&workerId=A1FDFJCZ4B5N9S&assignmentId=3YHH42UU5C1OBN6XN8Q1NCHYRZV0LG&a=U4HY7&tp_a=U4HY7&b=3YHH42UU5C1OBN6XN8Q1NCHYRZV0LG&tp_b=3YHH42UU5C1OBN6XN8Q1NCHYRZV0LG&c=365717&tp_c=365717"},{"rt":null,"stimulus":"Examples sent to student! Waiting for student...","response":null,"trial_type":"html-keyboard-response","trial_index":39,"time_elapsed":1864268,"internal_node_id":"0.0-14.0","params":{"nStudents":24,"maxFlips":30,"completionMinutes":45,"basePay":8,"maxBonus":9,"perTrialBonus":0.5,"perTrialBonusThreshold":0.05,"exampleCost":0.01},"classroomParams":{"A":{"a":1,"b":4},"B":{"a":4,"b":1},"C":{"a":2,"b":8},"D":{"a":8,"b":2}},"conditions":["nonSeqFull","nonSeqPartial","seqNoFeedback","seqFeedback"],"classroomPairings":[["A","B"],["C","D"]],"coinWeights":[0.2,0.5,0.8],"subjectId":"A1FDFJCZ4B5N9S","assignmentId":"3YHH42UU5C1OBN6XN8Q1NCHYRZV0LG","hitId":"3FJ2RVH25ZSYKBA8MWMNC8NVPF629N","url":"https://gershmanlab.com/experiments/alicia/teaching/experiment/?hitId=3FJ2RVH25ZSYKBA8MWMNC8NVPF629N&workerId=A1FDFJCZ4B5N9S&assignmentId=3YHH42UU5C1OBN6XN8Q1NCHYRZV0LG&a=U4HY7&tp_a=U4HY7&b=3YHH42UU5C1OBN6XN8Q1NCHYRZV0LG&tp_b=3YHH42UU5C1OBN6XN8Q1NCHYRZV0LG&c=365717&tp_c=365717"},{"rt":1683,"stimulus":"\n                <p>Student's guess for coin weight: <b style=\"color:Tomato;\">0.67</b></p>\n                <p></b></p>\n                <p>You will now send another set of examples to your student. <b>Remember to take your student's guess into consideration so that you can earn the highest bonus possible!</b> </p>\n                <p>Press any key to continue.</p>\n                ","response":" ","trial_type":"html-keyboard-response","trial_index":40,"time_elapsed":1865952,"internal_node_id":"0.0-15.0","params":{"nStudents":24,"maxFlips":30,"completionMinutes":45,"basePay":8,"maxBonus":9,"perTrialBonus":0.5,"perTrialBonusThreshold":0.05,"exampleCost":0.01},"classroomParams":{"A":{"a":1,"b":4},"B":{"a":4,"b":1},"C":{"a":2,"b":8},"D":{"a":8,"b":2}},"conditions":["nonSeqFull","nonSeqPartial","seqNoFeedback","seqFeedback"],"classroomPairings":[["A","B"],["C","D"]],"coinWeights":[0.2,0.5,0.8],"subjectId":"A1FDFJCZ4B5N9S","assignmentId":"3YHH42UU5C1OBN6XN8Q1NCHYRZV0LG","hitId":"3FJ2RVH25ZSYKBA8MWMNC8NVPF629N","url":"https://gershmanlab.com/experiments/alicia/teaching/experiment/?hitId=3FJ2RVH25ZSYKBA8MWMNC8NVPF629N&workerId=A1FDFJCZ4B5N9S&assignmentId=3YHH42UU5C1OBN6XN8Q1NCHYRZV0LG&a=U4HY7&tp_a=U4HY7&b=3YHH42UU5C1OBN6XN8Q1NCHYRZV0LG&tp_b=3YHH42UU5C1OBN6XN8Q1NCHYRZV0LG&c=365717&tp_c=365717"},{"rt":7396,"response":{"heads":"2","tails":"2"},"type":"response","condition":"seqFeedback","trueTheta":0.2,"classrooms":["A","B"],"studentTrueClassroom":"B","exampleSet":"second","trial_type":"survey-html-form","trial_index":41,"time_elapsed":1873349,"internal_node_id":"0.0-16.0-0.0","params":{"nStudents":24,"maxFlips":30,"completionMinutes":45,"basePay":8,"maxBonus":9,"perTrialBonus":0.5,"perTrialBonusThreshold":0.05,"exampleCost":0.01},"classroomParams":{"A":{"a":1,"b":4},"B":{"a":4,"b":1},"C":{"a":2,"b":8},"D":{"a":8,"b":2}},"conditions":["nonSeqFull","nonSeqPartial","seqNoFeedback","seqFeedback"],"classroomPairings":[["A","B"],["C","D"]],"coinWeights":[0.2,0.5,0.8],"subjectId":"A1FDFJCZ4B5N9S","assignmentId":"3YHH42UU5C1OBN6XN8Q1NCHYRZV0LG","hitId":"3FJ2RVH25ZSYKBA8MWMNC8NVPF629N","url":"https://gershmanlab.com/experiments/alicia/teaching/experiment/?hitId=3FJ2RVH25ZSYKBA8MWMNC8NVPF629N&workerId=A1FDFJCZ4B5N9S&assignmentId=3YHH42UU5C1OBN6XN8Q1NCHYRZV0LG&a=U4HY7&tp_a=U4HY7&b=3YHH42UU5C1OBN6XN8Q1NCHYRZV0LG&tp_b=3YHH42UU5C1OBN6XN8Q1NCHYRZV0LG&c=365717&tp_c=365717","firstResponseHeads":2,"firstResponseTails":2,"secondResponseHeads":2,"secondResponseTails":2,"totalHeads":4,"totalTails":4,"studentIndex":1,"studentTrueHypers":{"a":4,"b":1},"studentGuess":0.6153846153846154,"delta":0.4153846153846154,"bonus":0,"bonusSoFar":0,"totalExamples":8},{"rt":null,"stimulus":"Sending examples to student... ","response":null,"trial_type":"html-keyboard-response","trial_index":42,"time_elapsed":1874852,"internal_node_id":"0.0-17.0","params":{"nStudents":24,"maxFlips":30,"completionMinutes":45,"basePay":8,"maxBonus":9,"perTrialBonus":0.5,"perTrialBonusThreshold":0.05,"exampleCost":0.01},"classroomParams":{"A":{"a":1,"b":4},"B":{"a":4,"b":1},"C":{"a":2,"b":8},"D":{"a":8,"b":2}},"conditions":["nonSeqFull","nonSeqPartial","seqNoFeedback","seqFeedback"],"classroomPairings":[["A","B"],["C","D"]],"coinWeights":[0.2,0.5,0.8],"subjectId":"A1FDFJCZ4B5N9S","assignmentId":"3YHH42UU5C1OBN6XN8Q1NCHYRZV0LG","hitId":"3FJ2RVH25ZSYKBA8MWMNC8NVPF629N","url":"https://gershmanlab.com/experiments/alicia/teaching/experiment/?hitId=3FJ2RVH25ZSYKBA8MWMNC8NVPF629N&workerId=A1FDFJCZ4B5N9S&assignmentId=3YHH42UU5C1OBN6XN8Q1NCHYRZV0LG&a=U4HY7&tp_a=U4HY7&b=3YHH42UU5C1OBN6XN8Q1NCHYRZV0LG&tp_b=3YHH42UU5C1OBN6XN8Q1NCHYRZV0LG&c=365717&tp_c=365717"},{"rt":null,"stimulus":"Examples sent to student! Waiting for student...","response":null,"trial_type":"html-keyboard-response","trial_index":43,"time_elapsed":1878866,"internal_node_id":"0.0-18.0","params":{"nStudents":24,"maxFlips":30,"completionMinutes":45,"basePay":8,"maxBonus":9,"perTrialBonus":0.5,"perTrialBonusThreshold":0.05,"exampleCost":0.01},"classroomParams":{"A":{"a":1,"b":4},"B":{"a":4,"b":1},"C":{"a":2,"b":8},"D":{"a":8,"b":2}},"conditions":["nonSeqFull","nonSeqPartial","seqNoFeedback","seqFeedback"],"classroomPairings":[["A","B"],["C","D"]],"coinWeights":[0.2,0.5,0.8],"subjectId":"A1FDFJCZ4B5N9S","assignmentId":"3YHH42UU5C1OBN6XN8Q1NCHYRZV0LG","hitId":"3FJ2RVH25ZSYKBA8MWMNC8NVPF629N","url":"https://gershmanlab.com/experiments/alicia/teaching/experiment/?hitId=3FJ2RVH25ZSYKBA8MWMNC8NVPF629N&workerId=A1FDFJCZ4B5N9S&assignmentId=3YHH42UU5C1OBN6XN8Q1NCHYRZV0LG&a=U4HY7&tp_a=U4HY7&b=3YHH42UU5C1OBN6XN8Q1NCHYRZV0LG&tp_b=3YHH42UU5C1OBN6XN8Q1NCHYRZV0LG&c=365717&tp_c=365717"},{"rt":2708,"stimulus":"\n                <p>Student 2's first guess for coin weight: <b style=\"color:Tomato\";>0.67</b></p>\n                <p>Student 2's second guess for coin weight: <b style=\"color:Tomato\";>0.62</b></p>\n                <p>You received a bonus of <b>$0.00</b> based on the student's second guess.</p>\n                <p>Total bonus so far: <b>$0.00</b></p>\n                <p>Press any key to continue.</p>\n                ","response":" ","trial_type":"html-keyboard-response","trial_index":44,"time_elapsed":1881575,"internal_node_id":"0.0-19.0","params":{"nStudents":24,"maxFlips":30,"completionMinutes":45,"basePay":8,"maxBonus":9,"perTrialBonus":0.5,"perTrialBonusThreshold":0.05,"exampleCost":0.01},"classroomParams":{"A":{"a":1,"b":4},"B":{"a":4,"b":1},"C":{"a":2,"b":8},"D":{"a":8,"b":2}},"conditions":["nonSeqFull","nonSeqPartial","seqNoFeedback","seqFeedback"],"classroomPairings":[["A","B"],["C","D"]],"coinWeights":[0.2,0.5,0.8],"subjectId":"A1FDFJCZ4B5N9S","assignmentId":"3YHH42UU5C1OBN6XN8Q1NCHYRZV0LG","hitId":"3FJ2RVH25ZSYKBA8MWMNC8NVPF629N","url":"https://gershmanlab.com/experiments/alicia/teaching/experiment/?hitId=3FJ2RVH25ZSYKBA8MWMNC8NVPF629N&workerId=A1FDFJCZ4B5N9S&assignmentId=3YHH42UU5C1OBN6XN8Q1NCHYRZV0LG&a=U4HY7&tp_a=U4HY7&b=3YHH42UU5C1OBN6XN8Q1NCHYRZV0LG&tp_b=3YHH42UU5C1OBN6XN8Q1NCHYRZV0LG&c=365717&tp_c=365717"},{"rt":null,"stimulus":"<div style=\"font-size:60px;\">Next student</div>","response":null,"trial_type":"html-keyboard-response","trial_index":45,"time_elapsed":1883829,"internal_node_id":"0.0-20.0-0.0","params":{"nStudents":24,"maxFlips":30,"completionMinutes":45,"basePay":8,"maxBonus":9,"perTrialBonus":0.5,"perTrialBonusThreshold":0.05,"exampleCost":0.01},"classroomParams":{"A":{"a":1,"b":4},"B":{"a":4,"b":1},"C":{"a":2,"b":8},"D":{"a":8,"b":2}},"conditions":["nonSeqFull","nonSeqPartial","seqNoFeedback","seqFeedback"],"classroomPairings":[["A","B"],["C","D"]],"coinWeights":[0.2,0.5,0.8],"subjectId":"A1FDFJCZ4B5N9S","assignmentId":"3YHH42UU5C1OBN6XN8Q1NCHYRZV0LG","hitId":"3FJ2RVH25ZSYKBA8MWMNC8NVPF629N","url":"https://gershmanlab.com/experiments/alicia/teaching/experiment/?hitId=3FJ2RVH25ZSYKBA8MWMNC8NVPF629N&workerId=A1FDFJCZ4B5N9S&assignmentId=3YHH42UU5C1OBN6XN8Q1NCHYRZV0LG&a=U4HY7&tp_a=U4HY7&b=3YHH42UU5C1OBN6XN8Q1NCHYRZV0LG&tp_b=3YHH42UU5C1OBN6XN8Q1NCHYRZV0LG&c=365717&tp_c=365717"},{"rt":2838,"stimulus":"\n            <h4 style=\"color:Orange;\">Student 3</h4>\n            <h2>The weight of your coin is <b style=\"color:Tomato;\">0.8</b>.</h2>\n            <p>In this block, you will be giving <b>one</b> set of examples to Student 3.</p>\n                <p>You will receive feedback at the end of the block.</p>\n            <p></p>","response":0,"trial_type":"html-button-response","trial_index":46,"time_elapsed":1886669,"internal_node_id":"0.0-21.0","params":{"nStudents":24,"maxFlips":30,"completionMinutes":45,"basePay":8,"maxBonus":9,"perTrialBonus":0.5,"perTrialBonusThreshold":0.05,"exampleCost":0.01},"classroomParams":{"A":{"a":1,"b":4},"B":{"a":4,"b":1},"C":{"a":2,"b":8},"D":{"a":8,"b":2}},"conditions":["nonSeqFull","nonSeqPartial","seqNoFeedback","seqFeedback"],"classroomPairings":[["A","B"],["C","D"]],"coinWeights":[0.2,0.5,0.8],"subjectId":"A1FDFJCZ4B5N9S","assignmentId":"3YHH42UU5C1OBN6XN8Q1NCHYRZV0LG","hitId":"3FJ2RVH25ZSYKBA8MWMNC8NVPF629N","url":"https://gershmanlab.com/experiments/alicia/teaching/experiment/?hitId=3FJ2RVH25ZSYKBA8MWMNC8NVPF629N&workerId=A1FDFJCZ4B5N9S&assignmentId=3YHH42UU5C1OBN6XN8Q1NCHYRZV0LG&a=U4HY7&tp_a=U4HY7&b=3YHH42UU5C1OBN6XN8Q1NCHYRZV0LG&tp_b=3YHH42UU5C1OBN6XN8Q1NCHYRZV0LG&c=365717&tp_c=365717"},{"rt":12500,"response":{"heads":"6","tails":"2"},"type":"response","condition":"nonSeqFull","trueTheta":0.8,"classrooms":["A","B"],"studentTrueClassroom":"B","exampleSet":"first","trial_type":"survey-html-form","trial_index":47,"time_elapsed":1899171,"internal_node_id":"0.0-22.0-0.0","params":{"nStudents":24,"maxFlips":30,"completionMinutes":45,"basePay":8,"maxBonus":9,"perTrialBonus":0.5,"perTrialBonusThreshold":0.05,"exampleCost":0.01},"classroomParams":{"A":{"a":1,"b":4},"B":{"a":4,"b":1},"C":{"a":2,"b":8},"D":{"a":8,"b":2}},"conditions":["nonSeqFull","nonSeqPartial","seqNoFeedback","seqFeedback"],"classroomPairings":[["A","B"],["C","D"]],"coinWeights":[0.2,0.5,0.8],"subjectId":"A1FDFJCZ4B5N9S","assignmentId":"3YHH42UU5C1OBN6XN8Q1NCHYRZV0LG","hitId":"3FJ2RVH25ZSYKBA8MWMNC8NVPF629N","url":"https://gershmanlab.com/experiments/alicia/teaching/experiment/?hitId=3FJ2RVH25ZSYKBA8MWMNC8NVPF629N&workerId=A1FDFJCZ4B5N9S&assignmentId=3YHH42UU5C1OBN6XN8Q1NCHYRZV0LG&a=U4HY7&tp_a=U4HY7&b=3YHH42UU5C1OBN6XN8Q1NCHYRZV0LG&tp_b=3YHH42UU5C1OBN6XN8Q1NCHYRZV0LG&c=365717&tp_c=365717","heads":6,"tails":2,"studentIndex":2,"studentTrueHypers":{"a":4,"b":1},"studentGuess":0.7692307692307693,"delta":0.03076923076923077,"totalExamples":8,"bonus":0.42,"bonusSoFar":0.42},{"rt":null,"stimulus":"Sending examples to student... ","response":null,"trial_type":"html-keyboard-response","trial_index":48,"time_elapsed":1901185,"internal_node_id":"0.0-23.0","params":{"nStudents":24,"maxFlips":30,"completionMinutes":45,"basePay":8,"maxBonus":9,"perTrialBonus":0.5,"perTrialBonusThreshold":0.05,"exampleCost":0.01},"classroomParams":{"A":{"a":1,"b":4},"B":{"a":4,"b":1},"C":{"a":2,"b":8},"D":{"a":8,"b":2}},"conditions":["nonSeqFull","nonSeqPartial","seqNoFeedback","seqFeedback"],"classroomPairings":[["A","B"],["C","D"]],"coinWeights":[0.2,0.5,0.8],"subjectId":"A1FDFJCZ4B5N9S","assignmentId":"3YHH42UU5C1OBN6XN8Q1NCHYRZV0LG","hitId":"3FJ2RVH25ZSYKBA8MWMNC8NVPF629N","url":"https://gershmanlab.com/experiments/alicia/teaching/experiment/?hitId=3FJ2RVH25ZSYKBA8MWMNC8NVPF629N&workerId=A1FDFJCZ4B5N9S&assignmentId=3YHH42UU5C1OBN6XN8Q1NCHYRZV0LG&a=U4HY7&tp_a=U4HY7&b=3YHH42UU5C1OBN6XN8Q1NCHYRZV0LG&tp_b=3YHH42UU5C1OBN6XN8Q1NCHYRZV0LG&c=365717&tp_c=365717"},{"rt":null,"stimulus":"Examples sent to student! Waiting for student...","response":null,"trial_type":"html-keyboard-response","trial_index":49,"time_elapsed":1905202,"internal_node_id":"0.0-24.0","params":{"nStudents":24,"maxFlips":30,"completionMinutes":45,"basePay":8,"maxBonus":9,"perTrialBonus":0.5,"perTrialBonusThreshold":0.05,"exampleCost":0.01},"classroomParams":{"A":{"a":1,"b":4},"B":{"a":4,"b":1},"C":{"a":2,"b":8},"D":{"a":8,"b":2}},"conditions":["nonSeqFull","nonSeqPartial","seqNoFeedback","seqFeedback"],"classroomPairings":[["A","B"],["C","D"]],"coinWeights":[0.2,0.5,0.8],"subjectId":"A1FDFJCZ4B5N9S","assignmentId":"3YHH42UU5C1OBN6XN8Q1NCHYRZV0LG","hitId":"3FJ2RVH25ZSYKBA8MWMNC8NVPF629N","url":"https://gershmanlab.com/experiments/alicia/teaching/experiment/?hitId=3FJ2RVH25ZSYKBA8MWMNC8NVPF629N&workerId=A1FDFJCZ4B5N9S&assignmentId=3YHH42UU5C1OBN6XN8Q1NCHYRZV0LG&a=U4HY7&tp_a=U4HY7&b=3YHH42UU5C1OBN6XN8Q1NCHYRZV0LG&tp_b=3YHH42UU5C1OBN6XN8Q1NCHYRZV0LG&c=365717&tp_c=365717"},{"rt":1656,"stimulus":"\n                <p>Student's guess for coin weight: <b style=\"color:Tomato;\">0.77</b></p>\n                <p>You received a bonus of <b>$0.42</b>. Total bonus so far: <b>$0.42</b></b></p>\n                <p></p>\n                <p>Press any key to continue.</p>\n                ","response":" ","trial_type":"html-keyboard-response","trial_index":50,"time_elapsed":1906859,"internal_node_id":"0.0-25.0","params":{"nStudents":24,"maxFlips":30,"completionMinutes":45,"basePay":8,"maxBonus":9,"perTrialBonus":0.5,"perTrialBonusThreshold":0.05,"exampleCost":0.01},"classroomParams":{"A":{"a":1,"b":4},"B":{"a":4,"b":1},"C":{"a":2,"b":8},"D":{"a":8,"b":2}},"conditions":["nonSeqFull","nonSeqPartial","seqNoFeedback","seqFeedback"],"classroomPairings":[["A","B"],["C","D"]],"coinWeights":[0.2,0.5,0.8],"subjectId":"A1FDFJCZ4B5N9S","assignmentId":"3YHH42UU5C1OBN6XN8Q1NCHYRZV0LG","hitId":"3FJ2RVH25ZSYKBA8MWMNC8NVPF629N","url":"https://gershmanlab.com/experiments/alicia/teaching/experiment/?hitId=3FJ2RVH25ZSYKBA8MWMNC8NVPF629N&workerId=A1FDFJCZ4B5N9S&assignmentId=3YHH42UU5C1OBN6XN8Q1NCHYRZV0LG&a=U4HY7&tp_a=U4HY7&b=3YHH42UU5C1OBN6XN8Q1NCHYRZV0LG&tp_b=3YHH42UU5C1OBN6XN8Q1NCHYRZV0LG&c=365717&tp_c=365717"},{"rt":null,"stimulus":"<div style=\"font-size:60px;\">Next student</div>","response":null,"trial_type":"html-keyboard-response","trial_index":51,"time_elapsed":1908868,"internal_node_id":"0.0-26.0-0.0","params":{"nStudents":24,"maxFlips":30,"completionMinutes":45,"basePay":8,"maxBonus":9,"perTrialBonus":0.5,"perTrialBonusThreshold":0.05,"exampleCost":0.01},"classroomParams":{"A":{"a":1,"b":4},"B":{"a":4,"b":1},"C":{"a":2,"b":8},"D":{"a":8,"b":2}},"conditions":["nonSeqFull","nonSeqPartial","seqNoFeedback","seqFeedback"],"classroomPairings":[["A","B"],["C","D"]],"coinWeights":[0.2,0.5,0.8],"subjectId":"A1FDFJCZ4B5N9S","assignmentId":"3YHH42UU5C1OBN6XN8Q1NCHYRZV0LG","hitId":"3FJ2RVH25ZSYKBA8MWMNC8NVPF629N","url":"https://gershmanlab.com/experiments/alicia/teaching/experiment/?hitId=3FJ2RVH25ZSYKBA8MWMNC8NVPF629N&workerId=A1FDFJCZ4B5N9S&assignmentId=3YHH42UU5C1OBN6XN8Q1NCHYRZV0LG&a=U4HY7&tp_a=U4HY7&b=3YHH42UU5C1OBN6XN8Q1NCHYRZV0LG&tp_b=3YHH42UU5C1OBN6XN8Q1NCHYRZV0LG&c=365717&tp_c=365717"},{"rt":1743,"stimulus":"\n            <h4 style=\"color:Orange;\">Student 4</h4>\n            <h2>The weight of your coin is <b style=\"color:Tomato;\">0.2</b>.</h2>\n            <p>In this block, you will be giving <b>one</b> set of examples to Student 4.</p>\n                <p>You will receive feedback at the end of the block.</p>\n            <p></p>","response":0,"trial_type":"html-button-response","trial_index":52,"time_elapsed":1910613,"internal_node_id":"0.0-27.0","params":{"nStudents":24,"maxFlips":30,"completionMinutes":45,"basePay":8,"maxBonus":9,"perTrialBonus":0.5,"perTrialBonusThreshold":0.05,"exampleCost":0.01},"classroomParams":{"A":{"a":1,"b":4},"B":{"a":4,"b":1},"C":{"a":2,"b":8},"D":{"a":8,"b":2}},"conditions":["nonSeqFull","nonSeqPartial","seqNoFeedback","seqFeedback"],"classroomPairings":[["A","B"],["C","D"]],"coinWeights":[0.2,0.5,0.8],"subjectId":"A1FDFJCZ4B5N9S","assignmentId":"3YHH42UU5C1OBN6XN8Q1NCHYRZV0LG","hitId":"3FJ2RVH25ZSYKBA8MWMNC8NVPF629N","url":"https://gershmanlab.com/experiments/alicia/teaching/experiment/?hitId=3FJ2RVH25ZSYKBA8MWMNC8NVPF629N&workerId=A1FDFJCZ4B5N9S&assignmentId=3YHH42UU5C1OBN6XN8Q1NCHYRZV0LG&a=U4HY7&tp_a=U4HY7&b=3YHH42UU5C1OBN6XN8Q1NCHYRZV0LG&tp_b=3YHH42UU5C1OBN6XN8Q1NCHYRZV0LG&c=365717&tp_c=365717"},{"rt":7694,"response":{"heads":"7","tails":"1"},"type":"response","condition":"nonSeqFull","trueTheta":0.2,"classrooms":["C","D"],"studentTrueClassroom":"C","exampleSet":"first","trial_type":"survey-html-form","trial_index":53,"time_elapsed":1918310,"internal_node_id":"0.0-28.0-0.0","params":{"nStudents":24,"maxFlips":30,"completionMinutes":45,"basePay":8,"maxBonus":9,"perTrialBonus":0.5,"perTrialBonusThreshold":0.05,"exampleCost":0.01},"classroomParams":{"A":{"a":1,"b":4},"B":{"a":4,"b":1},"C":{"a":2,"b":8},"D":{"a":8,"b":2}},"conditions":["nonSeqFull","nonSeqPartial","seqNoFeedback","seqFeedback"],"classroomPairings":[["A","B"],["C","D"]],"coinWeights":[0.2,0.5,0.8],"subjectId":"A1FDFJCZ4B5N9S","assignmentId":"3YHH42UU5C1OBN6XN8Q1NCHYRZV0LG","hitId":"3FJ2RVH25ZSYKBA8MWMNC8NVPF629N","url":"https://gershmanlab.com/experiments/alicia/teaching/experiment/?hitId=3FJ2RVH25ZSYKBA8MWMNC8NVPF629N&workerId=A1FDFJCZ4B5N9S&assignmentId=3YHH42UU5C1OBN6XN8Q1NCHYRZV0LG&a=U4HY7&tp_a=U4HY7&b=3YHH42UU5C1OBN6XN8Q1NCHYRZV0LG&tp_b=3YHH42UU5C1OBN6XN8Q1NCHYRZV0LG&c=365717&tp_c=365717","heads":7,"tails":1,"studentIndex":3,"studentTrueHypers":{"a":2,"b":8},"studentGuess":0.5,"delta":0.3,"totalExamples":8,"bonus":0,"bonusSoFar":0.42},{"rt":null,"stimulus":"Sending examples to student... ","response":null,"trial_type":"html-keyboard-response","trial_index":54,"time_elapsed":1920316,"internal_node_id":"0.0-29.0","params":{"nStudents":24,"maxFlips":30,"completionMinutes":45,"basePay":8,"maxBonus":9,"perTrialBonus":0.5,"perTrialBonusThreshold":0.05,"exampleCost":0.01},"classroomParams":{"A":{"a":1,"b":4},"B":{"a":4,"b":1},"C":{"a":2,"b":8},"D":{"a":8,"b":2}},"conditions":["nonSeqFull","nonSeqPartial","seqNoFeedback","seqFeedback"],"classroomPairings":[["A","B"],["C","D"]],"coinWeights":[0.2,0.5,0.8],"subjectId":"A1FDFJCZ4B5N9S","assignmentId":"3YHH42UU5C1OBN6XN8Q1NCHYRZV0LG","hitId":"3FJ2RVH25ZSYKBA8MWMNC8NVPF629N","url":"https://gershmanlab.com/experiments/alicia/teaching/experiment/?hitId=3FJ2RVH25ZSYKBA8MWMNC8NVPF629N&workerId=A1FDFJCZ4B5N9S&assignmentId=3YHH42UU5C1OBN6XN8Q1NCHYRZV0LG&a=U4HY7&tp_a=U4HY7&b=3YHH42UU5C1OBN6XN8Q1NCHYRZV0LG&tp_b=3YHH42UU5C1OBN6XN8Q1NCHYRZV0LG&c=365717&tp_c=365717"},{"rt":null,"stimulus":"Examples sent to student! Waiting for student...","response":null,"trial_type":"html-keyboard-response","trial_index":55,"time_elapsed":1925819,"internal_node_id":"0.0-30.0","params":{"nStudents":24,"maxFlips":30,"completionMinutes":45,"basePay":8,"maxBonus":9,"perTrialBonus":0.5,"perTrialBonusThreshold":0.05,"exampleCost":0.01},"classroomParams":{"A":{"a":1,"b":4},"B":{"a":4,"b":1},"C":{"a":2,"b":8},"D":{"a":8,"b":2}},"conditions":["nonSeqFull","nonSeqPartial","seqNoFeedback","seqFeedback"],"classroomPairings":[["A","B"],["C","D"]],"coinWeights":[0.2,0.5,0.8],"subjectId":"A1FDFJCZ4B5N9S","assignmentId":"3YHH42UU5C1OBN6XN8Q1NCHYRZV0LG","hitId":"3FJ2RVH25ZSYKBA8MWMNC8NVPF629N","url":"https://gershmanlab.com/experiments/alicia/teaching/experiment/?hitId=3FJ2RVH25ZSYKBA8MWMNC8NVPF629N&workerId=A1FDFJCZ4B5N9S&assignmentId=3YHH42UU5C1OBN6XN8Q1NCHYRZV0LG&a=U4HY7&tp_a=U4HY7&b=3YHH42UU5C1OBN6XN8Q1NCHYRZV0LG&tp_b=3YHH42UU5C1OBN6XN8Q1NCHYRZV0LG&c=365717&tp_c=365717"},{"rt":null,"stimulus":"\n                <p>Student's guess for coin weight: <b style=\"color:Tomato;\">0.50</b></p>\n                <p>You received a bonus of <b>$0</b>. Total bonus so far: <b>$0.42</b></b></p>\n                <p></p>\n                <p>Press any key to continue.</p>\n                ","response":null,"trial_type":"html-keyboard-response","trial_index":56,"time_elapsed":1955837,"internal_node_id":"0.0-31.0","params":{"nStudents":24,"maxFlips":30,"completionMinutes":45,"basePay":8,"maxBonus":9,"perTrialBonus":0.5,"perTrialBonusThreshold":0.05,"exampleCost":0.01},"classroomParams":{"A":{"a":1,"b":4},"B":{"a":4,"b":1},"C":{"a":2,"b":8},"D":{"a":8,"b":2}},"conditions":["nonSeqFull","nonSeqPartial","seqNoFeedback","seqFeedback"],"classroomPairings":[["A","B"],["C","D"]],"coinWeights":[0.2,0.5,0.8],"subjectId":"A1FDFJCZ4B5N9S","assignmentId":"3YHH42UU5C1OBN6XN8Q1NCHYRZV0LG","hitId":"3FJ2RVH25ZSYKBA8MWMNC8NVPF629N","url":"https://gershmanlab.com/experiments/alicia/teaching/experiment/?hitId=3FJ2RVH25ZSYKBA8MWMNC8NVPF629N&workerId=A1FDFJCZ4B5N9S&assignmentId=3YHH42UU5C1OBN6XN8Q1NCHYRZV0LG&a=U4HY7&tp_a=U4HY7&b=3YHH42UU5C1OBN6XN8Q1NCHYRZV0LG&tp_b=3YHH42UU5C1OBN6XN8Q1NCHYRZV0LG&c=365717&tp_c=365717"},{"rt":null,"stimulus":"<div style=\"font-size:60px;\">Next student</div>","response":null,"trial_type":"html-keyboard-response","trial_index":57,"time_elapsed":1958348,"internal_node_id":"0.0-32.0-0.0","params":{"nStudents":24,"maxFlips":30,"completionMinutes":45,"basePay":8,"maxBonus":9,"perTrialBonus":0.5,"perTrialBonusThreshold":0.05,"exampleCost":0.01},"classroomParams":{"A":{"a":1,"b":4},"B":{"a":4,"b":1},"C":{"a":2,"b":8},"D":{"a":8,"b":2}},"conditions":["nonSeqFull","nonSeqPartial","seqNoFeedback","seqFeedback"],"classroomPairings":[["A","B"],["C","D"]],"coinWeights":[0.2,0.5,0.8],"subjectId":"A1FDFJCZ4B5N9S","assignmentId":"3YHH42UU5C1OBN6XN8Q1NCHYRZV0LG","hitId":"3FJ2RVH25ZSYKBA8MWMNC8NVPF629N","url":"https://gershmanlab.com/experiments/alicia/teaching/experiment/?hitId=3FJ2RVH25ZSYKBA8MWMNC8NVPF629N&workerId=A1FDFJCZ4B5N9S&assignmentId=3YHH42UU5C1OBN6XN8Q1NCHYRZV0LG&a=U4HY7&tp_a=U4HY7&b=3YHH42UU5C1OBN6XN8Q1NCHYRZV0LG&tp_b=3YHH42UU5C1OBN6XN8Q1NCHYRZV0LG&c=365717&tp_c=365717"},{"rt":52729,"stimulus":"\n            <h4 style=\"color:Orange;\">Student 5</h4>\n            <h2>The weight of your coin is <b style=\"color:Tomato;\">0.2</b>.</h2>\n            <p>In this block, you will be giving <b>two</b> sets of examples to Student 5.</p>\n                <p>You will receive feedback at the end of the block.</p>\n            <p></p>","response":0,"trial_type":"html-button-response","trial_index":58,"time_elapsed":2011079,"internal_node_id":"0.0-33.0","params":{"nStudents":24,"maxFlips":30,"completionMinutes":45,"basePay":8,"maxBonus":9,"perTrialBonus":0.5,"perTrialBonusThreshold":0.05,"exampleCost":0.01},"classroomParams":{"A":{"a":1,"b":4},"B":{"a":4,"b":1},"C":{"a":2,"b":8},"D":{"a":8,"b":2}},"conditions":["nonSeqFull","nonSeqPartial","seqNoFeedback","seqFeedback"],"classroomPairings":[["A","B"],["C","D"]],"coinWeights":[0.2,0.5,0.8],"subjectId":"A1FDFJCZ4B5N9S","assignmentId":"3YHH42UU5C1OBN6XN8Q1NCHYRZV0LG","hitId":"3FJ2RVH25ZSYKBA8MWMNC8NVPF629N","url":"https://gershmanlab.com/experiments/alicia/teaching/experiment/?hitId=3FJ2RVH25ZSYKBA8MWMNC8NVPF629N&workerId=A1FDFJCZ4B5N9S&assignmentId=3YHH42UU5C1OBN6XN8Q1NCHYRZV0LG&a=U4HY7&tp_a=U4HY7&b=3YHH42UU5C1OBN6XN8Q1NCHYRZV0LG&tp_b=3YHH42UU5C1OBN6XN8Q1NCHYRZV0LG&c=365717&tp_c=365717"},{"rt":4455,"response":{"heads":"2","tails":"6"},"type":"response","condition":"seqNoFeedback","trueTheta":0.2,"classrooms":["C","D"],"studentTrueClassroom":"D","exampleSet":"first","trial_type":"survey-html-form","trial_index":59,"time_elapsed":2015536,"internal_node_id":"0.0-34.0-0.0","params":{"nStudents":24,"maxFlips":30,"completionMinutes":45,"basePay":8,"maxBonus":9,"perTrialBonus":0.5,"perTrialBonusThreshold":0.05,"exampleCost":0.01},"classroomParams":{"A":{"a":1,"b":4},"B":{"a":4,"b":1},"C":{"a":2,"b":8},"D":{"a":8,"b":2}},"conditions":["nonSeqFull","nonSeqPartial","seqNoFeedback","seqFeedback"],"classroomPairings":[["A","B"],["C","D"]],"coinWeights":[0.2,0.5,0.8],"subjectId":"A1FDFJCZ4B5N9S","assignmentId":"3YHH42UU5C1OBN6XN8Q1NCHYRZV0LG","hitId":"3FJ2RVH25ZSYKBA8MWMNC8NVPF629N","url":"https://gershmanlab.com/experiments/alicia/teaching/experiment/?hitId=3FJ2RVH25ZSYKBA8MWMNC8NVPF629N&workerId=A1FDFJCZ4B5N9S&assignmentId=3YHH42UU5C1OBN6XN8Q1NCHYRZV0LG&a=U4HY7&tp_a=U4HY7&b=3YHH42UU5C1OBN6XN8Q1NCHYRZV0LG&tp_b=3YHH42UU5C1OBN6XN8Q1NCHYRZV0LG&c=365717&tp_c=365717","heads":2,"tails":6,"studentIndex":4,"studentTrueHypers":{"a":8,"b":2},"studentGuess":0.5555555555555556,"delta":0.35555555555555557,"totalExamples":8,"bonusSoFar":0.42},{"rt":null,"stimulus":"Sending examples to student... ","response":null,"trial_type":"html-keyboard-response","trial_index":60,"time_elapsed":2017037,"internal_node_id":"0.0-35.0","params":{"nStudents":24,"maxFlips":30,"completionMinutes":45,"basePay":8,"maxBonus":9,"perTrialBonus":0.5,"perTrialBonusThreshold":0.05,"exampleCost":0.01},"classroomParams":{"A":{"a":1,"b":4},"B":{"a":4,"b":1},"C":{"a":2,"b":8},"D":{"a":8,"b":2}},"conditions":["nonSeqFull","nonSeqPartial","seqNoFeedback","seqFeedback"],"classroomPairings":[["A","B"],["C","D"]],"coinWeights":[0.2,0.5,0.8],"subjectId":"A1FDFJCZ4B5N9S","assignmentId":"3YHH42UU5C1OBN6XN8Q1NCHYRZV0LG","hitId":"3FJ2RVH25ZSYKBA8MWMNC8NVPF629N","url":"https://gershmanlab.com/experiments/alicia/teaching/experiment/?hitId=3FJ2RVH25ZSYKBA8MWMNC8NVPF629N&workerId=A1FDFJCZ4B5N9S&assignmentId=3YHH42UU5C1OBN6XN8Q1NCHYRZV0LG&a=U4HY7&tp_a=U4HY7&b=3YHH42UU5C1OBN6XN8Q1NCHYRZV0LG&tp_b=3YHH42UU5C1OBN6XN8Q1NCHYRZV0LG&c=365717&tp_c=365717"},{"rt":null,"stimulus":"Examples sent to student! Waiting for student...","response":null,"trial_type":"html-keyboard-response","trial_index":61,"time_elapsed":2021543,"internal_node_id":"0.0-36.0","params":{"nStudents":24,"maxFlips":30,"completionMinutes":45,"basePay":8,"maxBonus":9,"perTrialBonus":0.5,"perTrialBonusThreshold":0.05,"exampleCost":0.01},"classroomParams":{"A":{"a":1,"b":4},"B":{"a":4,"b":1},"C":{"a":2,"b":8},"D":{"a":8,"b":2}},"conditions":["nonSeqFull","nonSeqPartial","seqNoFeedback","seqFeedback"],"classroomPairings":[["A","B"],["C","D"]],"coinWeights":[0.2,0.5,0.8],"subjectId":"A1FDFJCZ4B5N9S","assignmentId":"3YHH42UU5C1OBN6XN8Q1NCHYRZV0LG","hitId":"3FJ2RVH25ZSYKBA8MWMNC8NVPF629N","url":"https://gershmanlab.com/experiments/alicia/teaching/experiment/?hitId=3FJ2RVH25ZSYKBA8MWMNC8NVPF629N&workerId=A1FDFJCZ4B5N9S&assignmentId=3YHH42UU5C1OBN6XN8Q1NCHYRZV0LG&a=U4HY7&tp_a=U4HY7&b=3YHH42UU5C1OBN6XN8Q1NCHYRZV0LG&tp_b=3YHH42UU5C1OBN6XN8Q1NCHYRZV0LG&c=365717&tp_c=365717"},{"rt":5087,"response":{"heads":"5","tails":"3"},"type":"response","condition":"seqNoFeedback","trueTheta":0.2,"classrooms":["C","D"],"studentTrueClassroom":"D","exampleSet":"second","trial_type":"survey-html-form","trial_index":62,"time_elapsed":2026632,"internal_node_id":"0.0-37.0-0.0","params":{"nStudents":24,"maxFlips":30,"completionMinutes":45,"basePay":8,"maxBonus":9,"perTrialBonus":0.5,"perTrialBonusThreshold":0.05,"exampleCost":0.01},"classroomParams":{"A":{"a":1,"b":4},"B":{"a":4,"b":1},"C":{"a":2,"b":8},"D":{"a":8,"b":2}},"conditions":["nonSeqFull","nonSeqPartial","seqNoFeedback","seqFeedback"],"classroomPairings":[["A","B"],["C","D"]],"coinWeights":[0.2,0.5,0.8],"subjectId":"A1FDFJCZ4B5N9S","assignmentId":"3YHH42UU5C1OBN6XN8Q1NCHYRZV0LG","hitId":"3FJ2RVH25ZSYKBA8MWMNC8NVPF629N","url":"https://gershmanlab.com/experiments/alicia/teaching/experiment/?hitId=3FJ2RVH25ZSYKBA8MWMNC8NVPF629N&workerId=A1FDFJCZ4B5N9S&assignmentId=3YHH42UU5C1OBN6XN8Q1NCHYRZV0LG&a=U4HY7&tp_a=U4HY7&b=3YHH42UU5C1OBN6XN8Q1NCHYRZV0LG&tp_b=3YHH42UU5C1OBN6XN8Q1NCHYRZV0LG&c=365717&tp_c=365717","firstResponseHeads":2,"firstResponseTails":6,"secondResponseHeads":5,"secondResponseTails":3,"totalHeads":7,"totalTails":9,"studentIndex":4,"studentTrueHypers":{"a":8,"b":2},"studentGuess":0.5769230769230769,"delta":0.37692307692307686,"bonus":0,"bonusSoFar":0.42,"totalExamples":16},{"rt":null,"stimulus":"Sending examples to student... ","response":null,"trial_type":"html-keyboard-response","trial_index":63,"time_elapsed":2027884,"internal_node_id":"0.0-38.0","params":{"nStudents":24,"maxFlips":30,"completionMinutes":45,"basePay":8,"maxBonus":9,"perTrialBonus":0.5,"perTrialBonusThreshold":0.05,"exampleCost":0.01},"classroomParams":{"A":{"a":1,"b":4},"B":{"a":4,"b":1},"C":{"a":2,"b":8},"D":{"a":8,"b":2}},"conditions":["nonSeqFull","nonSeqPartial","seqNoFeedback","seqFeedback"],"classroomPairings":[["A","B"],["C","D"]],"coinWeights":[0.2,0.5,0.8],"subjectId":"A1FDFJCZ4B5N9S","assignmentId":"3YHH42UU5C1OBN6XN8Q1NCHYRZV0LG","hitId":"3FJ2RVH25ZSYKBA8MWMNC8NVPF629N","url":"https://gershmanlab.com/experiments/alicia/teaching/experiment/?hitId=3FJ2RVH25ZSYKBA8MWMNC8NVPF629N&workerId=A1FDFJCZ4B5N9S&assignmentId=3YHH42UU5C1OBN6XN8Q1NCHYRZV0LG&a=U4HY7&tp_a=U4HY7&b=3YHH42UU5C1OBN6XN8Q1NCHYRZV0LG&tp_b=3YHH42UU5C1OBN6XN8Q1NCHYRZV0LG&c=365717&tp_c=365717"},{"rt":null,"stimulus":"Examples sent to student! Waiting for student...","response":null,"trial_type":"html-keyboard-response","trial_index":64,"time_elapsed":2032389,"internal_node_id":"0.0-39.0","params":{"nStudents":24,"maxFlips":30,"completionMinutes":45,"basePay":8,"maxBonus":9,"perTrialBonus":0.5,"perTrialBonusThreshold":0.05,"exampleCost":0.01},"classroomParams":{"A":{"a":1,"b":4},"B":{"a":4,"b":1},"C":{"a":2,"b":8},"D":{"a":8,"b":2}},"conditions":["nonSeqFull","nonSeqPartial","seqNoFeedback","seqFeedback"],"classroomPairings":[["A","B"],["C","D"]],"coinWeights":[0.2,0.5,0.8],"subjectId":"A1FDFJCZ4B5N9S","assignmentId":"3YHH42UU5C1OBN6XN8Q1NCHYRZV0LG","hitId":"3FJ2RVH25ZSYKBA8MWMNC8NVPF629N","url":"https://gershmanlab.com/experiments/alicia/teaching/experiment/?hitId=3FJ2RVH25ZSYKBA8MWMNC8NVPF629N&workerId=A1FDFJCZ4B5N9S&assignmentId=3YHH42UU5C1OBN6XN8Q1NCHYRZV0LG&a=U4HY7&tp_a=U4HY7&b=3YHH42UU5C1OBN6XN8Q1NCHYRZV0LG&tp_b=3YHH42UU5C1OBN6XN8Q1NCHYRZV0LG&c=365717&tp_c=365717"},{"rt":1356,"stimulus":"\n                <p>Student 5's first guess for coin weight: <b style=\"color:Tomato\";>0.56</b></p>\n                <p>Student 5's second guess for coin weight: <b style=\"color:Tomato\";>0.58</b></p>\n                <p>You received a bonus of <b>$0.00</b> based on the student's second guess.</p>\n                <p>Total bonus so far: <b>$0.42</b></p>\n                <p>Press any key to continue.</p>\n                ","response":" ","trial_type":"html-keyboard-response","trial_index":65,"time_elapsed":2033747,"internal_node_id":"0.0-40.0","params":{"nStudents":24,"maxFlips":30,"completionMinutes":45,"basePay":8,"maxBonus":9,"perTrialBonus":0.5,"perTrialBonusThreshold":0.05,"exampleCost":0.01},"classroomParams":{"A":{"a":1,"b":4},"B":{"a":4,"b":1},"C":{"a":2,"b":8},"D":{"a":8,"b":2}},"conditions":["nonSeqFull","nonSeqPartial","seqNoFeedback","seqFeedback"],"classroomPairings":[["A","B"],["C","D"]],"coinWeights":[0.2,0.5,0.8],"subjectId":"A1FDFJCZ4B5N9S","assignmentId":"3YHH42UU5C1OBN6XN8Q1NCHYRZV0LG","hitId":"3FJ2RVH25ZSYKBA8MWMNC8NVPF629N","url":"https://gershmanlab.com/experiments/alicia/teaching/experiment/?hitId=3FJ2RVH25ZSYKBA8MWMNC8NVPF629N&workerId=A1FDFJCZ4B5N9S&assignmentId=3YHH42UU5C1OBN6XN8Q1NCHYRZV0LG&a=U4HY7&tp_a=U4HY7&b=3YHH42UU5C1OBN6XN8Q1NCHYRZV0LG&tp_b=3YHH42UU5C1OBN6XN8Q1NCHYRZV0LG&c=365717&tp_c=365717"},{"rt":null,"stimulus":"<div style=\"font-size:60px;\">Next student</div>","response":null,"trial_type":"html-keyboard-response","trial_index":66,"time_elapsed":2036250,"internal_node_id":"0.0-41.0-0.0","params":{"nStudents":24,"maxFlips":30,"completionMinutes":45,"basePay":8,"maxBonus":9,"perTrialBonus":0.5,"perTrialBonusThreshold":0.05,"exampleCost":0.01},"classroomParams":{"A":{"a":1,"b":4},"B":{"a":4,"b":1},"C":{"a":2,"b":8},"D":{"a":8,"b":2}},"conditions":["nonSeqFull","nonSeqPartial","seqNoFeedback","seqFeedback"],"classroomPairings":[["A","B"],["C","D"]],"coinWeights":[0.2,0.5,0.8],"subjectId":"A1FDFJCZ4B5N9S","assignmentId":"3YHH42UU5C1OBN6XN8Q1NCHYRZV0LG","hitId":"3FJ2RVH25ZSYKBA8MWMNC8NVPF629N","url":"https://gershmanlab.com/experiments/alicia/teaching/experiment/?hitId=3FJ2RVH25ZSYKBA8MWMNC8NVPF629N&workerId=A1FDFJCZ4B5N9S&assignmentId=3YHH42UU5C1OBN6XN8Q1NCHYRZV0LG&a=U4HY7&tp_a=U4HY7&b=3YHH42UU5C1OBN6XN8Q1NCHYRZV0LG&tp_b=3YHH42UU5C1OBN6XN8Q1NCHYRZV0LG&c=365717&tp_c=365717"},{"rt":1371,"stimulus":"\n            <h4 style=\"color:Orange;\">Student 6</h4>\n            <h2>The weight of your coin is <b style=\"color:Tomato;\">0.2</b>.</h2>\n            <p>In this block, you will be giving <b>two</b> sets of examples to Student 6.</p>\n                <p>You will see the student's guess after the first set of examples. You will also receive feedback at the end of the block.</p>\n            <p>To earn the highest bonus, you will have to <b>take into consideration the student's guess</b> when you choose your second set of examples.</p>","response":0,"trial_type":"html-button-response","trial_index":67,"time_elapsed":2037623,"internal_node_id":"0.0-42.0","params":{"nStudents":24,"maxFlips":30,"completionMinutes":45,"basePay":8,"maxBonus":9,"perTrialBonus":0.5,"perTrialBonusThreshold":0.05,"exampleCost":0.01},"classroomParams":{"A":{"a":1,"b":4},"B":{"a":4,"b":1},"C":{"a":2,"b":8},"D":{"a":8,"b":2}},"conditions":["nonSeqFull","nonSeqPartial","seqNoFeedback","seqFeedback"],"classroomPairings":[["A","B"],["C","D"]],"coinWeights":[0.2,0.5,0.8],"subjectId":"A1FDFJCZ4B5N9S","assignmentId":"3YHH42UU5C1OBN6XN8Q1NCHYRZV0LG","hitId":"3FJ2RVH25ZSYKBA8MWMNC8NVPF629N","url":"https://gershmanlab.com/experiments/alicia/teaching/experiment/?hitId=3FJ2RVH25ZSYKBA8MWMNC8NVPF629N&workerId=A1FDFJCZ4B5N9S&assignmentId=3YHH42UU5C1OBN6XN8Q1NCHYRZV0LG&a=U4HY7&tp_a=U4HY7&b=3YHH42UU5C1OBN6XN8Q1NCHYRZV0LG&tp_b=3YHH42UU5C1OBN6XN8Q1NCHYRZV0LG&c=365717&tp_c=365717"},{"rt":4350,"response":{"heads":"4","tails":"2"},"type":"response","condition":"seqFeedback","trueTheta":0.2,"classrooms":["C","D"],"studentTrueClassroom":"C","exampleSet":"first","trial_type":"survey-html-form","trial_index":68,"time_elapsed":2041975,"internal_node_id":"0.0-43.0-0.0","params":{"nStudents":24,"maxFlips":30,"completionMinutes":45,"basePay":8,"maxBonus":9,"perTrialBonus":0.5,"perTrialBonusThreshold":0.05,"exampleCost":0.01},"classroomParams":{"A":{"a":1,"b":4},"B":{"a":4,"b":1},"C":{"a":2,"b":8},"D":{"a":8,"b":2}},"conditions":["nonSeqFull","nonSeqPartial","seqNoFeedback","seqFeedback"],"classroomPairings":[["A","B"],["C","D"]],"coinWeights":[0.2,0.5,0.8],"subjectId":"A1FDFJCZ4B5N9S","assignmentId":"3YHH42UU5C1OBN6XN8Q1NCHYRZV0LG","hitId":"3FJ2RVH25ZSYKBA8MWMNC8NVPF629N","url":"https://gershmanlab.com/experiments/alicia/teaching/experiment/?hitId=3FJ2RVH25ZSYKBA8MWMNC8NVPF629N&workerId=A1FDFJCZ4B5N9S&assignmentId=3YHH42UU5C1OBN6XN8Q1NCHYRZV0LG&a=U4HY7&tp_a=U4HY7&b=3YHH42UU5C1OBN6XN8Q1NCHYRZV0LG&tp_b=3YHH42UU5C1OBN6XN8Q1NCHYRZV0LG&c=365717&tp_c=365717","heads":4,"tails":2,"studentIndex":5,"studentTrueHypers":{"a":2,"b":8},"studentGuess":0.375,"delta":0.175,"totalExamples":6,"bonusSoFar":0.42},{"rt":null,"stimulus":"Sending examples to student... ","response":null,"trial_type":"html-keyboard-response","trial_index":69,"time_elapsed":2043982,"internal_node_id":"0.0-44.0","params":{"nStudents":24,"maxFlips":30,"completionMinutes":45,"basePay":8,"maxBonus":9,"perTrialBonus":0.5,"perTrialBonusThreshold":0.05,"exampleCost":0.01},"classroomParams":{"A":{"a":1,"b":4},"B":{"a":4,"b":1},"C":{"a":2,"b":8},"D":{"a":8,"b":2}},"conditions":["nonSeqFull","nonSeqPartial","seqNoFeedback","seqFeedback"],"classroomPairings":[["A","B"],["C","D"]],"coinWeights":[0.2,0.5,0.8],"subjectId":"A1FDFJCZ4B5N9S","assignmentId":"3YHH42UU5C1OBN6XN8Q1NCHYRZV0LG","hitId":"3FJ2RVH25ZSYKBA8MWMNC8NVPF629N","url":"https://gershmanlab.com/experiments/alicia/teaching/experiment/?hitId=3FJ2RVH25ZSYKBA8MWMNC8NVPF629N&workerId=A1FDFJCZ4B5N9S&assignmentId=3YHH42UU5C1OBN6XN8Q1NCHYRZV0LG&a=U4HY7&tp_a=U4HY7&b=3YHH42UU5C1OBN6XN8Q1NCHYRZV0LG&tp_b=3YHH42UU5C1OBN6XN8Q1NCHYRZV0LG&c=365717&tp_c=365717"},{"rt":null,"stimulus":"Examples sent to student! Waiting for student...","response":null,"trial_type":"html-keyboard-response","trial_index":70,"time_elapsed":2048995,"internal_node_id":"0.0-45.0","params":{"nStudents":24,"maxFlips":30,"completionMinutes":45,"basePay":8,"maxBonus":9,"perTrialBonus":0.5,"perTrialBonusThreshold":0.05,"exampleCost":0.01},"classroomParams":{"A":{"a":1,"b":4},"B":{"a":4,"b":1},"C":{"a":2,"b":8},"D":{"a":8,"b":2}},"conditions":["nonSeqFull","nonSeqPartial","seqNoFeedback","seqFeedback"],"classroomPairings":[["A","B"],["C","D"]],"coinWeights":[0.2,0.5,0.8],"subjectId":"A1FDFJCZ4B5N9S","assignmentId":"3YHH42UU5C1OBN6XN8Q1NCHYRZV0LG","hitId":"3FJ2RVH25ZSYKBA8MWMNC8NVPF629N","url":"https://gershmanlab.com/experiments/alicia/teaching/experiment/?hitId=3FJ2RVH25ZSYKBA8MWMNC8NVPF629N&workerId=A1FDFJCZ4B5N9S&assignmentId=3YHH42UU5C1OBN6XN8Q1NCHYRZV0LG&a=U4HY7&tp_a=U4HY7&b=3YHH42UU5C1OBN6XN8Q1NCHYRZV0LG&tp_b=3YHH42UU5C1OBN6XN8Q1NCHYRZV0LG&c=365717&tp_c=365717"},{"rt":1380,"stimulus":"\n                <p>Student's guess for coin weight: <b style=\"color:Tomato;\">0.38</b></p>\n                <p></b></p>\n                <p>You will now send another set of examples to your student. <b>Remember to take your student's guess into consideration so that you can earn the highest bonus possible!</b> </p>\n                <p>Press any key to continue.</p>\n                ","response":" ","trial_type":"html-keyboard-response","trial_index":71,"time_elapsed":2050376,"internal_node_id":"0.0-46.0","params":{"nStudents":24,"maxFlips":30,"completionMinutes":45,"basePay":8,"maxBonus":9,"perTrialBonus":0.5,"perTrialBonusThreshold":0.05,"exampleCost":0.01},"classroomParams":{"A":{"a":1,"b":4},"B":{"a":4,"b":1},"C":{"a":2,"b":8},"D":{"a":8,"b":2}},"conditions":["nonSeqFull","nonSeqPartial","seqNoFeedback","seqFeedback"],"classroomPairings":[["A","B"],["C","D"]],"coinWeights":[0.2,0.5,0.8],"subjectId":"A1FDFJCZ4B5N9S","assignmentId":"3YHH42UU5C1OBN6XN8Q1NCHYRZV0LG","hitId":"3FJ2RVH25ZSYKBA8MWMNC8NVPF629N","url":"https://gershmanlab.com/experiments/alicia/teaching/experiment/?hitId=3FJ2RVH25ZSYKBA8MWMNC8NVPF629N&workerId=A1FDFJCZ4B5N9S&assignmentId=3YHH42UU5C1OBN6XN8Q1NCHYRZV0LG&a=U4HY7&tp_a=U4HY7&b=3YHH42UU5C1OBN6XN8Q1NCHYRZV0LG&tp_b=3YHH42UU5C1OBN6XN8Q1NCHYRZV0LG&c=365717&tp_c=365717"},{"rt":6590,"response":{"heads":"4","tails":"2"},"type":"response","condition":"seqFeedback","trueTheta":0.2,"classrooms":["C","D"],"studentTrueClassroom":"C","exampleSet":"second","trial_type":"survey-html-form","trial_index":72,"time_elapsed":2056968,"internal_node_id":"0.0-47.0-0.0","params":{"nStudents":24,"maxFlips":30,"completionMinutes":45,"basePay":8,"maxBonus":9,"perTrialBonus":0.5,"perTrialBonusThreshold":0.05,"exampleCost":0.01},"classroomParams":{"A":{"a":1,"b":4},"B":{"a":4,"b":1},"C":{"a":2,"b":8},"D":{"a":8,"b":2}},"conditions":["nonSeqFull","nonSeqPartial","seqNoFeedback","seqFeedback"],"classroomPairings":[["A","B"],["C","D"]],"coinWeights":[0.2,0.5,0.8],"subjectId":"A1FDFJCZ4B5N9S","assignmentId":"3YHH42UU5C1OBN6XN8Q1NCHYRZV0LG","hitId":"3FJ2RVH25ZSYKBA8MWMNC8NVPF629N","url":"https://gershmanlab.com/experiments/alicia/teaching/experiment/?hitId=3FJ2RVH25ZSYKBA8MWMNC8NVPF629N&workerId=A1FDFJCZ4B5N9S&assignmentId=3YHH42UU5C1OBN6XN8Q1NCHYRZV0LG&a=U4HY7&tp_a=U4HY7&b=3YHH42UU5C1OBN6XN8Q1NCHYRZV0LG&tp_b=3YHH42UU5C1OBN6XN8Q1NCHYRZV0LG&c=365717&tp_c=365717","firstResponseHeads":4,"firstResponseTails":2,"secondResponseHeads":4,"secondResponseTails":2,"totalHeads":8,"totalTails":4,"studentIndex":5,"studentTrueHypers":{"a":2,"b":8},"studentGuess":0.45454545454545453,"delta":0.2545454545454545,"bonus":0,"bonusSoFar":0.42,"totalExamples":12},{"rt":null,"stimulus":"Sending examples to student... ","response":null,"trial_type":"html-keyboard-response","trial_index":73,"time_elapsed":2058972,"internal_node_id":"0.0-48.0","params":{"nStudents":24,"maxFlips":30,"completionMinutes":45,"basePay":8,"maxBonus":9,"perTrialBonus":0.5,"perTrialBonusThreshold":0.05,"exampleCost":0.01},"classroomParams":{"A":{"a":1,"b":4},"B":{"a":4,"b":1},"C":{"a":2,"b":8},"D":{"a":8,"b":2}},"conditions":["nonSeqFull","nonSeqPartial","seqNoFeedback","seqFeedback"],"classroomPairings":[["A","B"],["C","D"]],"coinWeights":[0.2,0.5,0.8],"subjectId":"A1FDFJCZ4B5N9S","assignmentId":"3YHH42UU5C1OBN6XN8Q1NCHYRZV0LG","hitId":"3FJ2RVH25ZSYKBA8MWMNC8NVPF629N","url":"https://gershmanlab.com/experiments/alicia/teaching/experiment/?hitId=3FJ2RVH25ZSYKBA8MWMNC8NVPF629N&workerId=A1FDFJCZ4B5N9S&assignmentId=3YHH42UU5C1OBN6XN8Q1NCHYRZV0LG&a=U4HY7&tp_a=U4HY7&b=3YHH42UU5C1OBN6XN8Q1NCHYRZV0LG&tp_b=3YHH42UU5C1OBN6XN8Q1NCHYRZV0LG&c=365717&tp_c=365717"},{"rt":null,"stimulus":"Examples sent to student! Waiting for student...","response":null,"trial_type":"html-keyboard-response","trial_index":74,"time_elapsed":2063984,"internal_node_id":"0.0-49.0","params":{"nStudents":24,"maxFlips":30,"completionMinutes":45,"basePay":8,"maxBonus":9,"perTrialBonus":0.5,"perTrialBonusThreshold":0.05,"exampleCost":0.01},"classroomParams":{"A":{"a":1,"b":4},"B":{"a":4,"b":1},"C":{"a":2,"b":8},"D":{"a":8,"b":2}},"conditions":["nonSeqFull","nonSeqPartial","seqNoFeedback","seqFeedback"],"classroomPairings":[["A","B"],["C","D"]],"coinWeights":[0.2,0.5,0.8],"subjectId":"A1FDFJCZ4B5N9S","assignmentId":"3YHH42UU5C1OBN6XN8Q1NCHYRZV0LG","hitId":"3FJ2RVH25ZSYKBA8MWMNC8NVPF629N","url":"https://gershmanlab.com/experiments/alicia/teaching/experiment/?hitId=3FJ2RVH25ZSYKBA8MWMNC8NVPF629N&workerId=A1FDFJCZ4B5N9S&assignmentId=3YHH42UU5C1OBN6XN8Q1NCHYRZV0LG&a=U4HY7&tp_a=U4HY7&b=3YHH42UU5C1OBN6XN8Q1NCHYRZV0LG&tp_b=3YHH42UU5C1OBN6XN8Q1NCHYRZV0LG&c=365717&tp_c=365717"},{"rt":1162,"stimulus":"\n                <p>Student 6's first guess for coin weight: <b style=\"color:Tomato\";>0.38</b></p>\n                <p>Student 6's second guess for coin weight: <b style=\"color:Tomato\";>0.45</b></p>\n                <p>You received a bonus of <b>$0.00</b> based on the student's second guess.</p>\n                <p>Total bonus so far: <b>$0.42</b></p>\n                <p>Press any key to continue.</p>\n                ","response":" ","trial_type":"html-keyboard-response","trial_index":75,"time_elapsed":2065148,"internal_node_id":"0.0-50.0","params":{"nStudents":24,"maxFlips":30,"completionMinutes":45,"basePay":8,"maxBonus":9,"perTrialBonus":0.5,"perTrialBonusThreshold":0.05,"exampleCost":0.01},"classroomParams":{"A":{"a":1,"b":4},"B":{"a":4,"b":1},"C":{"a":2,"b":8},"D":{"a":8,"b":2}},"conditions":["nonSeqFull","nonSeqPartial","seqNoFeedback","seqFeedback"],"classroomPairings":[["A","B"],["C","D"]],"coinWeights":[0.2,0.5,0.8],"subjectId":"A1FDFJCZ4B5N9S","assignmentId":"3YHH42UU5C1OBN6XN8Q1NCHYRZV0LG","hitId":"3FJ2RVH25ZSYKBA8MWMNC8NVPF629N","url":"https://gershmanlab.com/experiments/alicia/teaching/experiment/?hitId=3FJ2RVH25ZSYKBA8MWMNC8NVPF629N&workerId=A1FDFJCZ4B5N9S&assignmentId=3YHH42UU5C1OBN6XN8Q1NCHYRZV0LG&a=U4HY7&tp_a=U4HY7&b=3YHH42UU5C1OBN6XN8Q1NCHYRZV0LG&tp_b=3YHH42UU5C1OBN6XN8Q1NCHYRZV0LG&c=365717&tp_c=365717"},{"rt":null,"stimulus":"<div style=\"font-size:60px;\">Next student</div>","response":null,"trial_type":"html-keyboard-response","trial_index":76,"time_elapsed":2068156,"internal_node_id":"0.0-51.0-0.0","params":{"nStudents":24,"maxFlips":30,"completionMinutes":45,"basePay":8,"maxBonus":9,"perTrialBonus":0.5,"perTrialBonusThreshold":0.05,"exampleCost":0.01},"classroomParams":{"A":{"a":1,"b":4},"B":{"a":4,"b":1},"C":{"a":2,"b":8},"D":{"a":8,"b":2}},"conditions":["nonSeqFull","nonSeqPartial","seqNoFeedback","seqFeedback"],"classroomPairings":[["A","B"],["C","D"]],"coinWeights":[0.2,0.5,0.8],"subjectId":"A1FDFJCZ4B5N9S","assignmentId":"3YHH42UU5C1OBN6XN8Q1NCHYRZV0LG","hitId":"3FJ2RVH25ZSYKBA8MWMNC8NVPF629N","url":"https://gershmanlab.com/experiments/alicia/teaching/experiment/?hitId=3FJ2RVH25ZSYKBA8MWMNC8NVPF629N&workerId=A1FDFJCZ4B5N9S&assignmentId=3YHH42UU5C1OBN6XN8Q1NCHYRZV0LG&a=U4HY7&tp_a=U4HY7&b=3YHH42UU5C1OBN6XN8Q1NCHYRZV0LG&tp_b=3YHH42UU5C1OBN6XN8Q1NCHYRZV0LG&c=365717&tp_c=365717"},{"rt":1596,"stimulus":"\n            <h4 style=\"color:Orange;\">Student 7</h4>\n            <h2>The weight of your coin is <b style=\"color:Tomato;\">0.2</b>.</h2>\n            <p>In this block, you will be giving <b>one</b> set of examples to Student 7.</p>\n                <p>You will receive feedback at the end of the block.</p>\n            <p></p>","response":0,"trial_type":"html-button-response","trial_index":77,"time_elapsed":2069754,"internal_node_id":"0.0-52.0","params":{"nStudents":24,"maxFlips":30,"completionMinutes":45,"basePay":8,"maxBonus":9,"perTrialBonus":0.5,"perTrialBonusThreshold":0.05,"exampleCost":0.01},"classroomParams":{"A":{"a":1,"b":4},"B":{"a":4,"b":1},"C":{"a":2,"b":8},"D":{"a":8,"b":2}},"conditions":["nonSeqFull","nonSeqPartial","seqNoFeedback","seqFeedback"],"classroomPairings":[["A","B"],["C","D"]],"coinWeights":[0.2,0.5,0.8],"subjectId":"A1FDFJCZ4B5N9S","assignmentId":"3YHH42UU5C1OBN6XN8Q1NCHYRZV0LG","hitId":"3FJ2RVH25ZSYKBA8MWMNC8NVPF629N","url":"https://gershmanlab.com/experiments/alicia/teaching/experiment/?hitId=3FJ2RVH25ZSYKBA8MWMNC8NVPF629N&workerId=A1FDFJCZ4B5N9S&assignmentId=3YHH42UU5C1OBN6XN8Q1NCHYRZV0LG&a=U4HY7&tp_a=U4HY7&b=3YHH42UU5C1OBN6XN8Q1NCHYRZV0LG&tp_b=3YHH42UU5C1OBN6XN8Q1NCHYRZV0LG&c=365717&tp_c=365717"},{"rt":5852,"response":{"heads":"4","tails":"2"},"type":"response","condition":"nonSeqFull","trueTheta":0.2,"classrooms":["A","B"],"studentTrueClassroom":"A","exampleSet":"first","trial_type":"survey-html-form","trial_index":78,"time_elapsed":2075607,"internal_node_id":"0.0-53.0-0.0","params":{"nStudents":24,"maxFlips":30,"completionMinutes":45,"basePay":8,"maxBonus":9,"perTrialBonus":0.5,"perTrialBonusThreshold":0.05,"exampleCost":0.01},"classroomParams":{"A":{"a":1,"b":4},"B":{"a":4,"b":1},"C":{"a":2,"b":8},"D":{"a":8,"b":2}},"conditions":["nonSeqFull","nonSeqPartial","seqNoFeedback","seqFeedback"],"classroomPairings":[["A","B"],["C","D"]],"coinWeights":[0.2,0.5,0.8],"subjectId":"A1FDFJCZ4B5N9S","assignmentId":"3YHH42UU5C1OBN6XN8Q1NCHYRZV0LG","hitId":"3FJ2RVH25ZSYKBA8MWMNC8NVPF629N","url":"https://gershmanlab.com/experiments/alicia/teaching/experiment/?hitId=3FJ2RVH25ZSYKBA8MWMNC8NVPF629N&workerId=A1FDFJCZ4B5N9S&assignmentId=3YHH42UU5C1OBN6XN8Q1NCHYRZV0LG&a=U4HY7&tp_a=U4HY7&b=3YHH42UU5C1OBN6XN8Q1NCHYRZV0LG&tp_b=3YHH42UU5C1OBN6XN8Q1NCHYRZV0LG&c=365717&tp_c=365717","heads":4,"tails":2,"studentIndex":6,"studentTrueHypers":{"a":1,"b":4},"studentGuess":0.45454545454545453,"delta":0.2545454545454545,"totalExamples":6,"bonus":0,"bonusSoFar":0.42},{"rt":null,"stimulus":"Sending examples to student... ","response":null,"trial_type":"html-keyboard-response","trial_index":79,"time_elapsed":2076870,"internal_node_id":"0.0-54.0","params":{"nStudents":24,"maxFlips":30,"completionMinutes":45,"basePay":8,"maxBonus":9,"perTrialBonus":0.5,"perTrialBonusThreshold":0.05,"exampleCost":0.01},"classroomParams":{"A":{"a":1,"b":4},"B":{"a":4,"b":1},"C":{"a":2,"b":8},"D":{"a":8,"b":2}},"conditions":["nonSeqFull","nonSeqPartial","seqNoFeedback","seqFeedback"],"classroomPairings":[["A","B"],["C","D"]],"coinWeights":[0.2,0.5,0.8],"subjectId":"A1FDFJCZ4B5N9S","assignmentId":"3YHH42UU5C1OBN6XN8Q1NCHYRZV0LG","hitId":"3FJ2RVH25ZSYKBA8MWMNC8NVPF629N","url":"https://gershmanlab.com/experiments/alicia/teaching/experiment/?hitId=3FJ2RVH25ZSYKBA8MWMNC8NVPF629N&workerId=A1FDFJCZ4B5N9S&assignmentId=3YHH42UU5C1OBN6XN8Q1NCHYRZV0LG&a=U4HY7&tp_a=U4HY7&b=3YHH42UU5C1OBN6XN8Q1NCHYRZV0LG&tp_b=3YHH42UU5C1OBN6XN8Q1NCHYRZV0LG&c=365717&tp_c=365717"},{"rt":null,"stimulus":"Examples sent to student! Waiting for student...","response":null,"trial_type":"html-keyboard-response","trial_index":80,"time_elapsed":2080876,"internal_node_id":"0.0-55.0","params":{"nStudents":24,"maxFlips":30,"completionMinutes":45,"basePay":8,"maxBonus":9,"perTrialBonus":0.5,"perTrialBonusThreshold":0.05,"exampleCost":0.01},"classroomParams":{"A":{"a":1,"b":4},"B":{"a":4,"b":1},"C":{"a":2,"b":8},"D":{"a":8,"b":2}},"conditions":["nonSeqFull","nonSeqPartial","seqNoFeedback","seqFeedback"],"classroomPairings":[["A","B"],["C","D"]],"coinWeights":[0.2,0.5,0.8],"subjectId":"A1FDFJCZ4B5N9S","assignmentId":"3YHH42UU5C1OBN6XN8Q1NCHYRZV0LG","hitId":"3FJ2RVH25ZSYKBA8MWMNC8NVPF629N","url":"https://gershmanlab.com/experiments/alicia/teaching/experiment/?hitId=3FJ2RVH25ZSYKBA8MWMNC8NVPF629N&workerId=A1FDFJCZ4B5N9S&assignmentId=3YHH42UU5C1OBN6XN8Q1NCHYRZV0LG&a=U4HY7&tp_a=U4HY7&b=3YHH42UU5C1OBN6XN8Q1NCHYRZV0LG&tp_b=3YHH42UU5C1OBN6XN8Q1NCHYRZV0LG&c=365717&tp_c=365717"},{"rt":1124,"stimulus":"\n                <p>Student's guess for coin weight: <b style=\"color:Tomato;\">0.45</b></p>\n                <p>You received a bonus of <b>$0</b>. Total bonus so far: <b>$0.42</b></b></p>\n                <p></p>\n                <p>Press any key to continue.</p>\n                ","response":" ","trial_type":"html-keyboard-response","trial_index":81,"time_elapsed":2082002,"internal_node_id":"0.0-56.0","params":{"nStudents":24,"maxFlips":30,"completionMinutes":45,"basePay":8,"maxBonus":9,"perTrialBonus":0.5,"perTrialBonusThreshold":0.05,"exampleCost":0.01},"classroomParams":{"A":{"a":1,"b":4},"B":{"a":4,"b":1},"C":{"a":2,"b":8},"D":{"a":8,"b":2}},"conditions":["nonSeqFull","nonSeqPartial","seqNoFeedback","seqFeedback"],"classroomPairings":[["A","B"],["C","D"]],"coinWeights":[0.2,0.5,0.8],"subjectId":"A1FDFJCZ4B5N9S","assignmentId":"3YHH42UU5C1OBN6XN8Q1NCHYRZV0LG","hitId":"3FJ2RVH25ZSYKBA8MWMNC8NVPF629N","url":"https://gershmanlab.com/experiments/alicia/teaching/experiment/?hitId=3FJ2RVH25ZSYKBA8MWMNC8NVPF629N&workerId=A1FDFJCZ4B5N9S&assignmentId=3YHH42UU5C1OBN6XN8Q1NCHYRZV0LG&a=U4HY7&tp_a=U4HY7&b=3YHH42UU5C1OBN6XN8Q1NCHYRZV0LG&tp_b=3YHH42UU5C1OBN6XN8Q1NCHYRZV0LG&c=365717&tp_c=365717"},{"rt":null,"stimulus":"<div style=\"font-size:60px;\">Next student</div>","response":null,"trial_type":"html-keyboard-response","trial_index":82,"time_elapsed":2084269,"internal_node_id":"0.0-57.0-0.0","params":{"nStudents":24,"maxFlips":30,"completionMinutes":45,"basePay":8,"maxBonus":9,"perTrialBonus":0.5,"perTrialBonusThreshold":0.05,"exampleCost":0.01},"classroomParams":{"A":{"a":1,"b":4},"B":{"a":4,"b":1},"C":{"a":2,"b":8},"D":{"a":8,"b":2}},"conditions":["nonSeqFull","nonSeqPartial","seqNoFeedback","seqFeedback"],"classroomPairings":[["A","B"],["C","D"]],"coinWeights":[0.2,0.5,0.8],"subjectId":"A1FDFJCZ4B5N9S","assignmentId":"3YHH42UU5C1OBN6XN8Q1NCHYRZV0LG","hitId":"3FJ2RVH25ZSYKBA8MWMNC8NVPF629N","url":"https://gershmanlab.com/experiments/alicia/teaching/experiment/?hitId=3FJ2RVH25ZSYKBA8MWMNC8NVPF629N&workerId=A1FDFJCZ4B5N9S&assignmentId=3YHH42UU5C1OBN6XN8Q1NCHYRZV0LG&a=U4HY7&tp_a=U4HY7&b=3YHH42UU5C1OBN6XN8Q1NCHYRZV0LG&tp_b=3YHH42UU5C1OBN6XN8Q1NCHYRZV0LG&c=365717&tp_c=365717"},{"rt":1440,"stimulus":"\n            <h4 style=\"color:Orange;\">Student 8</h4>\n            <h2>The weight of your coin is <b style=\"color:Tomato;\">0.8</b>.</h2>\n            <p>In this block, you will be giving <b>two</b> sets of examples to Student 8.</p>\n                <p>You will see the student's guess after the first set of examples. You will also receive feedback at the end of the block.</p>\n            <p>To earn the highest bonus, you will have to <b>take into consideratio