[{"rt":5256,"stimulus":"Welcome to the experiment. Press any key to begin.","response":" ","trial_type":"html-keyboard-response","trial_index":0,"time_elapsed":5272,"internal_node_id":"0.0-0.0","params":{"nStudents":24,"maxFlips":30,"completionMinutes":45,"basePay":8,"maxBonus":9,"perTrialBonus":0.5,"perTrialBonusThreshold":0.05,"exampleCost":0.01},"classroomParams":{"A":{"a":1,"b":4},"B":{"a":4,"b":1},"C":{"a":2,"b":8},"D":{"a":8,"b":2}},"conditions":["nonSeqFull","nonSeqPartial","seqNoFeedback","seqFeedback"],"classroomPairings":[["A","B"],["C","D"]],"coinWeights":[0.2,0.5,0.8],"subjectId":"A1ILD5BPLI8X1P","assignmentId":"37Z929RLGAUCV9YE5JBCJ9XYG4ZSTX","hitId":"34XASH8KLQ89J2U8D314D7180O4PMV","url":"https://gershmanlab.com/experiments/alicia/teaching/experiment/?hitId=34XASH8KLQ89J2U8D314D7180O4PMV&workerId=A1ILD5BPLI8X1P&assignmentId=37Z929RLGAUCV9YE5JBCJ9XYG4ZSTX&a=L2Z77&tp_a=L2Z77&b=37Z929RLGAUCV9YE5JBCJ9XYG4ZSTX&tp_b=37Z929RLGAUCV9YE5JBCJ9XYG4ZSTX&c=365717&tp_c=365717"},{"rt":7489,"stimulus":"\n        <h3>Please read this consent agreement carefully before deciding whether to participate in this experiment.</h3>\n        <p><b>Purpose of the research:</b> To examine how people teach effectively.</p>\n        <p><b>What you will do in this research:</b> You will teach students the weights of different coins.</p>\n        <p><b>Time required:</b> This experiment will take 45 minutes to complete.</p>\n        <p><b>Risks:</b> There are no anticipated risks associated with participating in this study.             The effects of participating should be comparable to those you would experience from viewing a computer monitor             and using a mouse and keyboard for the duration of the experiment.</p>\n        <p><b>Benefits:</b> The study provides important information about the nature of teaching.</p>\n        <p><b>Compensation:</b> You will receive <b>$8</b> for completing the experiment and a performance bonus of up to <b>$9</b>.</p>\n        <p><b>Confidentiality:</b> Your participation in this study will remain confidential.             No personally identifiable information will be associated with your data.             Your de-identified data may be shared with other researchers and used in future projects.</p>\n        <p><b>Participation and withdrawal:</b> Your participation in this study is completely voluntary and             you may refuse to participate or you may choose to withdraw at any time without penalty or loss of\n            benefits to which you are otherwise entitled.</p>\n        <p><b>How to contact the researcher:</b> If you have questions or concerns about your participation            or payment, or want to request a summary of research findings, please contact\n            Alicia Chen, aliciachen@college.harvard.edu.</p>\n        <p><b>Whom to contact about your rights in this research:</b> For questions, concerns, suggestions,             or complaints that have not been or cannot be addressed by the researcher, or to report             research-related harm, please contact the Committee on the Use of Human Subjects in Research at Harvard University,             1414 Massachusetts Avenue, Second Floor, Cambridge, MA 02138. Phone: 617-496-2847. Email: cuhs@fas.harvard.edu.</p>\n        ","response":0,"trial_type":"html-button-response","trial_index":1,"time_elapsed":12762,"internal_node_id":"0.0-1.0","params":{"nStudents":24,"maxFlips":30,"completionMinutes":45,"basePay":8,"maxBonus":9,"perTrialBonus":0.5,"perTrialBonusThreshold":0.05,"exampleCost":0.01},"classroomParams":{"A":{"a":1,"b":4},"B":{"a":4,"b":1},"C":{"a":2,"b":8},"D":{"a":8,"b":2}},"conditions":["nonSeqFull","nonSeqPartial","seqNoFeedback","seqFeedback"],"classroomPairings":[["A","B"],["C","D"]],"coinWeights":[0.2,0.5,0.8],"subjectId":"A1ILD5BPLI8X1P","assignmentId":"37Z929RLGAUCV9YE5JBCJ9XYG4ZSTX","hitId":"34XASH8KLQ89J2U8D314D7180O4PMV","url":"https://gershmanlab.com/experiments/alicia/teaching/experiment/?hitId=34XASH8KLQ89J2U8D314D7180O4PMV&workerId=A1ILD5BPLI8X1P&assignmentId=37Z929RLGAUCV9YE5JBCJ9XYG4ZSTX&a=L2Z77&tp_a=L2Z77&b=37Z929RLGAUCV9YE5JBCJ9XYG4ZSTX&tp_b=37Z929RLGAUCV9YE5JBCJ9XYG4ZSTX&c=365717&tp_c=365717"},{"view_history":[{"page_index":0,"viewing_time":4674},{"page_index":1,"viewing_time":5696},{"page_index":2,"viewing_time":25960},{"page_index":3,"viewing_time":29322},{"page_index":4,"viewing_time":12866},{"page_index":5,"viewing_time":45352},{"page_index":6,"viewing_time":39309}],"rt":163178,"trial_type":"instructions","trial_index":2,"time_elapsed":175942,"internal_node_id":"0.0-2.0-0.0","params":{"nStudents":24,"maxFlips":30,"completionMinutes":45,"basePay":8,"maxBonus":9,"perTrialBonus":0.5,"perTrialBonusThreshold":0.05,"exampleCost":0.01},"classroomParams":{"A":{"a":1,"b":4},"B":{"a":4,"b":1},"C":{"a":2,"b":8},"D":{"a":8,"b":2}},"conditions":["nonSeqFull","nonSeqPartial","seqNoFeedback","seqFeedback"],"classroomPairings":[["A","B"],["C","D"]],"coinWeights":[0.2,0.5,0.8],"subjectId":"A1ILD5BPLI8X1P","assignmentId":"37Z929RLGAUCV9YE5JBCJ9XYG4ZSTX","hitId":"34XASH8KLQ89J2U8D314D7180O4PMV","url":"https://gershmanlab.com/experiments/alicia/teaching/experiment/?hitId=34XASH8KLQ89J2U8D314D7180O4PMV&workerId=A1ILD5BPLI8X1P&assignmentId=37Z929RLGAUCV9YE5JBCJ9XYG4ZSTX&a=L2Z77&tp_a=L2Z77&b=37Z929RLGAUCV9YE5JBCJ9XYG4ZSTX&tp_b=37Z929RLGAUCV9YE5JBCJ9XYG4ZSTX&c=365717&tp_c=365717"},{"rt":34866,"response":{"Q0":"Students in different classrooms will have seen a different number of heads and tails before seeing the examples you select for them.","Q1":"By <b>considering the student's classroom information</b> so that I can teach efficiently and accurately/helpfully at the same time (because each example I give to the student costs money!).","Q2":"The coin lands heads 90% of the time.","Q3":"No, I will teach a <b>new</b> student each time.","Q4":"The students are also on the same alien planet as you, where coins can be unfair.","Q5":"Based on the student's second (and final) guess."},"question_order":[0,3,5,4,1,2],"trial_type":"survey-multi-choice","trial_index":3,"time_elapsed":210810,"internal_node_id":"0.0-2.0-1.0","params":{"nStudents":24,"maxFlips":30,"completionMinutes":45,"basePay":8,"maxBonus":9,"perTrialBonus":0.5,"perTrialBonusThreshold":0.05,"exampleCost":0.01},"classroomParams":{"A":{"a":1,"b":4},"B":{"a":4,"b":1},"C":{"a":2,"b":8},"D":{"a":8,"b":2}},"conditions":["nonSeqFull","nonSeqPartial","seqNoFeedback","seqFeedback"],"classroomPairings":[["A","B"],["C","D"]],"coinWeights":[0.2,0.5,0.8],"subjectId":"A1ILD5BPLI8X1P","assignmentId":"37Z929RLGAUCV9YE5JBCJ9XYG4ZSTX","hitId":"34XASH8KLQ89J2U8D314D7180O4PMV","url":"https://gershmanlab.com/experiments/alicia/teaching/experiment/?hitId=34XASH8KLQ89J2U8D314D7180O4PMV&workerId=A1ILD5BPLI8X1P&assignmentId=37Z929RLGAUCV9YE5JBCJ9XYG4ZSTX&a=L2Z77&tp_a=L2Z77&b=37Z929RLGAUCV9YE5JBCJ9XYG4ZSTX&tp_b=37Z929RLGAUCV9YE5JBCJ9XYG4ZSTX&c=365717&tp_c=365717","pass":true},{"rt":null,"stimulus":"<div style=\"font-size:30px;\">Congrats on passing the comprehension quiz! The experiment will begin in a few seconds.</div>","response":null,"trial_type":"html-keyboard-response","trial_index":4,"time_elapsed":213818,"internal_node_id":"0.0-3.0","params":{"nStudents":24,"maxFlips":30,"completionMinutes":45,"basePay":8,"maxBonus":9,"perTrialBonus":0.5,"perTrialBonusThreshold":0.05,"exampleCost":0.01},"classroomParams":{"A":{"a":1,"b":4},"B":{"a":4,"b":1},"C":{"a":2,"b":8},"D":{"a":8,"b":2}},"conditions":["nonSeqFull","nonSeqPartial","seqNoFeedback","seqFeedback"],"classroomPairings":[["A","B"],["C","D"]],"coinWeights":[0.2,0.5,0.8],"subjectId":"A1ILD5BPLI8X1P","assignmentId":"37Z929RLGAUCV9YE5JBCJ9XYG4ZSTX","hitId":"34XASH8KLQ89J2U8D314D7180O4PMV","url":"https://gershmanlab.com/experiments/alicia/teaching/experiment/?hitId=34XASH8KLQ89J2U8D314D7180O4PMV&workerId=A1ILD5BPLI8X1P&assignmentId=37Z929RLGAUCV9YE5JBCJ9XYG4ZSTX&a=L2Z77&tp_a=L2Z77&b=37Z929RLGAUCV9YE5JBCJ9XYG4ZSTX&tp_b=37Z929RLGAUCV9YE5JBCJ9XYG4ZSTX&c=365717&tp_c=365717"},{"rt":null,"stimulus":"<div style=\"font-size:50px;\">First student</div>","response":null,"trial_type":"html-keyboard-response","trial_index":5,"time_elapsed":216825,"internal_node_id":"0.0-4.0","params":{"nStudents":24,"maxFlips":30,"completionMinutes":45,"basePay":8,"maxBonus":9,"perTrialBonus":0.5,"perTrialBonusThreshold":0.05,"exampleCost":0.01},"classroomParams":{"A":{"a":1,"b":4},"B":{"a":4,"b":1},"C":{"a":2,"b":8},"D":{"a":8,"b":2}},"conditions":["nonSeqFull","nonSeqPartial","seqNoFeedback","seqFeedback"],"classroomPairings":[["A","B"],["C","D"]],"coinWeights":[0.2,0.5,0.8],"subjectId":"A1ILD5BPLI8X1P","assignmentId":"37Z929RLGAUCV9YE5JBCJ9XYG4ZSTX","hitId":"34XASH8KLQ89J2U8D314D7180O4PMV","url":"https://gershmanlab.com/experiments/alicia/teaching/experiment/?hitId=34XASH8KLQ89J2U8D314D7180O4PMV&workerId=A1ILD5BPLI8X1P&assignmentId=37Z929RLGAUCV9YE5JBCJ9XYG4ZSTX&a=L2Z77&tp_a=L2Z77&b=37Z929RLGAUCV9YE5JBCJ9XYG4ZSTX&tp_b=37Z929RLGAUCV9YE5JBCJ9XYG4ZSTX&c=365717&tp_c=365717"},{"rt":15257,"stimulus":"\n            <h4 style=\"color:Orange;\">Student 1</h4>\n            <h2>The weight of your coin is <b style=\"color:Tomato;\">0.5</b>.</h2>\n            <p>In this block, you will be giving <b>two</b> sets of examples to Student 1.</p>\n                <p>You will see the student's guess after the first set of examples. You will also receive feedback at the end of the block.</p>\n            <p>To earn the highest bonus, you will have to <b>take into consideration the student's guess</b> when you choose your second set of examples.</p>","response":0,"trial_type":"html-button-response","trial_index":6,"time_elapsed":232084,"internal_node_id":"0.0-5.0","params":{"nStudents":24,"maxFlips":30,"completionMinutes":45,"basePay":8,"maxBonus":9,"perTrialBonus":0.5,"perTrialBonusThreshold":0.05,"exampleCost":0.01},"classroomParams":{"A":{"a":1,"b":4},"B":{"a":4,"b":1},"C":{"a":2,"b":8},"D":{"a":8,"b":2}},"conditions":["nonSeqFull","nonSeqPartial","seqNoFeedback","seqFeedback"],"classroomPairings":[["A","B"],["C","D"]],"coinWeights":[0.2,0.5,0.8],"subjectId":"A1ILD5BPLI8X1P","assignmentId":"37Z929RLGAUCV9YE5JBCJ9XYG4ZSTX","hitId":"34XASH8KLQ89J2U8D314D7180O4PMV","url":"https://gershmanlab.com/experiments/alicia/teaching/experiment/?hitId=34XASH8KLQ89J2U8D314D7180O4PMV&workerId=A1ILD5BPLI8X1P&assignmentId=37Z929RLGAUCV9YE5JBCJ9XYG4ZSTX&a=L2Z77&tp_a=L2Z77&b=37Z929RLGAUCV9YE5JBCJ9XYG4ZSTX&tp_b=37Z929RLGAUCV9YE5JBCJ9XYG4ZSTX&c=365717&tp_c=365717"},{"rt":18443,"response":{"heads":"5","tails":"5"},"type":"response","condition":"seqFeedback","trueTheta":0.5,"classrooms":["A","B"],"studentTrueClassroom":"B","exampleSet":"first","trial_type":"survey-html-form","trial_index":7,"time_elapsed":250528,"internal_node_id":"0.0-6.0-0.0","params":{"nStudents":24,"maxFlips":30,"completionMinutes":45,"basePay":8,"maxBonus":9,"perTrialBonus":0.5,"perTrialBonusThreshold":0.05,"exampleCost":0.01},"classroomParams":{"A":{"a":1,"b":4},"B":{"a":4,"b":1},"C":{"a":2,"b":8},"D":{"a":8,"b":2}},"conditions":["nonSeqFull","nonSeqPartial","seqNoFeedback","seqFeedback"],"classroomPairings":[["A","B"],["C","D"]],"coinWeights":[0.2,0.5,0.8],"subjectId":"A1ILD5BPLI8X1P","assignmentId":"37Z929RLGAUCV9YE5JBCJ9XYG4ZSTX","hitId":"34XASH8KLQ89J2U8D314D7180O4PMV","url":"https://gershmanlab.com/experiments/alicia/teaching/experiment/?hitId=34XASH8KLQ89J2U8D314D7180O4PMV&workerId=A1ILD5BPLI8X1P&assignmentId=37Z929RLGAUCV9YE5JBCJ9XYG4ZSTX&a=L2Z77&tp_a=L2Z77&b=37Z929RLGAUCV9YE5JBCJ9XYG4ZSTX&tp_b=37Z929RLGAUCV9YE5JBCJ9XYG4ZSTX&c=365717&tp_c=365717","heads":5,"tails":5,"studentIndex":0,"studentTrueHypers":{"a":4,"b":1},"studentGuess":0.6,"delta":0.09999999999999998,"totalExamples":10,"bonusSoFar":0},{"rt":null,"stimulus":"Sending examples to student... ","response":null,"trial_type":"html-keyboard-response","trial_index":8,"time_elapsed":252292,"internal_node_id":"0.0-7.0","params":{"nStudents":24,"maxFlips":30,"completionMinutes":45,"basePay":8,"maxBonus":9,"perTrialBonus":0.5,"perTrialBonusThreshold":0.05,"exampleCost":0.01},"classroomParams":{"A":{"a":1,"b":4},"B":{"a":4,"b":1},"C":{"a":2,"b":8},"D":{"a":8,"b":2}},"conditions":["nonSeqFull","nonSeqPartial","seqNoFeedback","seqFeedback"],"classroomPairings":[["A","B"],["C","D"]],"coinWeights":[0.2,0.5,0.8],"subjectId":"A1ILD5BPLI8X1P","assignmentId":"37Z929RLGAUCV9YE5JBCJ9XYG4ZSTX","hitId":"34XASH8KLQ89J2U8D314D7180O4PMV","url":"https://gershmanlab.com/experiments/alicia/teaching/experiment/?hitId=34XASH8KLQ89J2U8D314D7180O4PMV&workerId=A1ILD5BPLI8X1P&assignmentId=37Z929RLGAUCV9YE5JBCJ9XYG4ZSTX&a=L2Z77&tp_a=L2Z77&b=37Z929RLGAUCV9YE5JBCJ9XYG4ZSTX&tp_b=37Z929RLGAUCV9YE5JBCJ9XYG4ZSTX&c=365717&tp_c=365717"},{"rt":null,"stimulus":"Examples sent to student! Waiting for student...","response":null,"trial_type":"html-keyboard-response","trial_index":9,"time_elapsed":257309,"internal_node_id":"0.0-8.0","params":{"nStudents":24,"maxFlips":30,"completionMinutes":45,"basePay":8,"maxBonus":9,"perTrialBonus":0.5,"perTrialBonusThreshold":0.05,"exampleCost":0.01},"classroomParams":{"A":{"a":1,"b":4},"B":{"a":4,"b":1},"C":{"a":2,"b":8},"D":{"a":8,"b":2}},"conditions":["nonSeqFull","nonSeqPartial","seqNoFeedback","seqFeedback"],"classroomPairings":[["A","B"],["C","D"]],"coinWeights":[0.2,0.5,0.8],"subjectId":"A1ILD5BPLI8X1P","assignmentId":"37Z929RLGAUCV9YE5JBCJ9XYG4ZSTX","hitId":"34XASH8KLQ89J2U8D314D7180O4PMV","url":"https://gershmanlab.com/experiments/alicia/teaching/experiment/?hitId=34XASH8KLQ89J2U8D314D7180O4PMV&workerId=A1ILD5BPLI8X1P&assignmentId=37Z929RLGAUCV9YE5JBCJ9XYG4ZSTX&a=L2Z77&tp_a=L2Z77&b=37Z929RLGAUCV9YE5JBCJ9XYG4ZSTX&tp_b=37Z929RLGAUCV9YE5JBCJ9XYG4ZSTX&c=365717&tp_c=365717"},{"rt":9982,"stimulus":"\n                <p>Student's guess for coin weight: <b style=\"color:Tomato;\">0.60</b></p>\n                <p></b></p>\n                <p>You will now send another set of examples to your student. <b>Remember to take your student's guess into consideration so that you can earn the highest bonus possible!</b> </p>\n                <p>Press any key to continue.</p>\n                ","response":" ","trial_type":"html-keyboard-response","trial_index":10,"time_elapsed":267293,"internal_node_id":"0.0-9.0","params":{"nStudents":24,"maxFlips":30,"completionMinutes":45,"basePay":8,"maxBonus":9,"perTrialBonus":0.5,"perTrialBonusThreshold":0.05,"exampleCost":0.01},"classroomParams":{"A":{"a":1,"b":4},"B":{"a":4,"b":1},"C":{"a":2,"b":8},"D":{"a":8,"b":2}},"conditions":["nonSeqFull","nonSeqPartial","seqNoFeedback","seqFeedback"],"classroomPairings":[["A","B"],["C","D"]],"coinWeights":[0.2,0.5,0.8],"subjectId":"A1ILD5BPLI8X1P","assignmentId":"37Z929RLGAUCV9YE5JBCJ9XYG4ZSTX","hitId":"34XASH8KLQ89J2U8D314D7180O4PMV","url":"https://gershmanlab.com/experiments/alicia/teaching/experiment/?hitId=34XASH8KLQ89J2U8D314D7180O4PMV&workerId=A1ILD5BPLI8X1P&assignmentId=37Z929RLGAUCV9YE5JBCJ9XYG4ZSTX&a=L2Z77&tp_a=L2Z77&b=37Z929RLGAUCV9YE5JBCJ9XYG4ZSTX&tp_b=37Z929RLGAUCV9YE5JBCJ9XYG4ZSTX&c=365717&tp_c=365717"},{"rt":5682,"response":{"heads":"10","tails":"10"},"type":"response","condition":"seqFeedback","trueTheta":0.5,"classrooms":["A","B"],"studentTrueClassroom":"B","exampleSet":"second","trial_type":"survey-html-form","trial_index":11,"time_elapsed":272977,"internal_node_id":"0.0-10.0-0.0","params":{"nStudents":24,"maxFlips":30,"completionMinutes":45,"basePay":8,"maxBonus":9,"perTrialBonus":0.5,"perTrialBonusThreshold":0.05,"exampleCost":0.01},"classroomParams":{"A":{"a":1,"b":4},"B":{"a":4,"b":1},"C":{"a":2,"b":8},"D":{"a":8,"b":2}},"conditions":["nonSeqFull","nonSeqPartial","seqNoFeedback","seqFeedback"],"classroomPairings":[["A","B"],["C","D"]],"coinWeights":[0.2,0.5,0.8],"subjectId":"A1ILD5BPLI8X1P","assignmentId":"37Z929RLGAUCV9YE5JBCJ9XYG4ZSTX","hitId":"34XASH8KLQ89J2U8D314D7180O4PMV","url":"https://gershmanlab.com/experiments/alicia/teaching/experiment/?hitId=34XASH8KLQ89J2U8D314D7180O4PMV&workerId=A1ILD5BPLI8X1P&assignmentId=37Z929RLGAUCV9YE5JBCJ9XYG4ZSTX&a=L2Z77&tp_a=L2Z77&b=37Z929RLGAUCV9YE5JBCJ9XYG4ZSTX&tp_b=37Z929RLGAUCV9YE5JBCJ9XYG4ZSTX&c=365717&tp_c=365717","firstResponseHeads":5,"firstResponseTails":5,"secondResponseHeads":10,"secondResponseTails":10,"totalHeads":15,"totalTails":15,"studentIndex":0,"studentTrueHypers":{"a":4,"b":1},"studentGuess":0.5428571428571428,"delta":0.042857142857142816,"bonus":0.2,"bonusSoFar":0.2,"totalExamples":30},{"rt":null,"stimulus":"Sending examples to student... ","response":null,"trial_type":"html-keyboard-response","trial_index":12,"time_elapsed":274740,"internal_node_id":"0.0-11.0","params":{"nStudents":24,"maxFlips":30,"completionMinutes":45,"basePay":8,"maxBonus":9,"perTrialBonus":0.5,"perTrialBonusThreshold":0.05,"exampleCost":0.01},"classroomParams":{"A":{"a":1,"b":4},"B":{"a":4,"b":1},"C":{"a":2,"b":8},"D":{"a":8,"b":2}},"conditions":["nonSeqFull","nonSeqPartial","seqNoFeedback","seqFeedback"],"classroomPairings":[["A","B"],["C","D"]],"coinWeights":[0.2,0.5,0.8],"subjectId":"A1ILD5BPLI8X1P","assignmentId":"37Z929RLGAUCV9YE5JBCJ9XYG4ZSTX","hitId":"34XASH8KLQ89J2U8D314D7180O4PMV","url":"https://gershmanlab.com/experiments/alicia/teaching/experiment/?hitId=34XASH8KLQ89J2U8D314D7180O4PMV&workerId=A1ILD5BPLI8X1P&assignmentId=37Z929RLGAUCV9YE5JBCJ9XYG4ZSTX&a=L2Z77&tp_a=L2Z77&b=37Z929RLGAUCV9YE5JBCJ9XYG4ZSTX&tp_b=37Z929RLGAUCV9YE5JBCJ9XYG4ZSTX&c=365717&tp_c=365717"},{"rt":null,"stimulus":"Examples sent to student! Waiting for student...","response":null,"trial_type":"html-keyboard-response","trial_index":13,"time_elapsed":280753,"internal_node_id":"0.0-12.0","params":{"nStudents":24,"maxFlips":30,"completionMinutes":45,"basePay":8,"maxBonus":9,"perTrialBonus":0.5,"perTrialBonusThreshold":0.05,"exampleCost":0.01},"classroomParams":{"A":{"a":1,"b":4},"B":{"a":4,"b":1},"C":{"a":2,"b":8},"D":{"a":8,"b":2}},"conditions":["nonSeqFull","nonSeqPartial","seqNoFeedback","seqFeedback"],"classroomPairings":[["A","B"],["C","D"]],"coinWeights":[0.2,0.5,0.8],"subjectId":"A1ILD5BPLI8X1P","assignmentId":"37Z929RLGAUCV9YE5JBCJ9XYG4ZSTX","hitId":"34XASH8KLQ89J2U8D314D7180O4PMV","url":"https://gershmanlab.com/experiments/alicia/teaching/experiment/?hitId=34XASH8KLQ89J2U8D314D7180O4PMV&workerId=A1ILD5BPLI8X1P&assignmentId=37Z929RLGAUCV9YE5JBCJ9XYG4ZSTX&a=L2Z77&tp_a=L2Z77&b=37Z929RLGAUCV9YE5JBCJ9XYG4ZSTX&tp_b=37Z929RLGAUCV9YE5JBCJ9XYG4ZSTX&c=365717&tp_c=365717"},{"rt":6775,"stimulus":"\n                <p>Student 1's first guess for coin weight: <b style=\"color:Tomato\";>0.60</b></p>\n                <p>Student 1's second guess for coin weight: <b style=\"color:Tomato\";>0.54</b></p>\n                <p>You received a bonus of <b>$0.20</b> based on the student's second guess.</p>\n                <p>Total bonus so far: <b>$0.20</b></p>\n                <p>Press any key to continue.</p>\n                ","response":"enter","trial_type":"html-keyboard-response","trial_index":14,"time_elapsed":287530,"internal_node_id":"0.0-13.0","params":{"nStudents":24,"maxFlips":30,"completionMinutes":45,"basePay":8,"maxBonus":9,"perTrialBonus":0.5,"perTrialBonusThreshold":0.05,"exampleCost":0.01},"classroomParams":{"A":{"a":1,"b":4},"B":{"a":4,"b":1},"C":{"a":2,"b":8},"D":{"a":8,"b":2}},"conditions":["nonSeqFull","nonSeqPartial","seqNoFeedback","seqFeedback"],"classroomPairings":[["A","B"],["C","D"]],"coinWeights":[0.2,0.5,0.8],"subjectId":"A1ILD5BPLI8X1P","assignmentId":"37Z929RLGAUCV9YE5JBCJ9XYG4ZSTX","hitId":"34XASH8KLQ89J2U8D314D7180O4PMV","url":"https://gershmanlab.com/experiments/alicia/teaching/experiment/?hitId=34XASH8KLQ89J2U8D314D7180O4PMV&workerId=A1ILD5BPLI8X1P&assignmentId=37Z929RLGAUCV9YE5JBCJ9XYG4ZSTX&a=L2Z77&tp_a=L2Z77&b=37Z929RLGAUCV9YE5JBCJ9XYG4ZSTX&tp_b=37Z929RLGAUCV9YE5JBCJ9XYG4ZSTX&c=365717&tp_c=365717"},{"rt":null,"stimulus":"<div style=\"font-size:60px;\">Next student</div>","response":null,"trial_type":"html-keyboard-response","trial_index":15,"time_elapsed":290037,"internal_node_id":"0.0-14.0-0.0","params":{"nStudents":24,"maxFlips":30,"completionMinutes":45,"basePay":8,"maxBonus":9,"perTrialBonus":0.5,"perTrialBonusThreshold":0.05,"exampleCost":0.01},"classroomParams":{"A":{"a":1,"b":4},"B":{"a":4,"b":1},"C":{"a":2,"b":8},"D":{"a":8,"b":2}},"conditions":["nonSeqFull","nonSeqPartial","seqNoFeedback","seqFeedback"],"classroomPairings":[["A","B"],["C","D"]],"coinWeights":[0.2,0.5,0.8],"subjectId":"A1ILD5BPLI8X1P","assignmentId":"37Z929RLGAUCV9YE5JBCJ9XYG4ZSTX","hitId":"34XASH8KLQ89J2U8D314D7180O4PMV","url":"https://gershmanlab.com/experiments/alicia/teaching/experiment/?hitId=34XASH8KLQ89J2U8D314D7180O4PMV&workerId=A1ILD5BPLI8X1P&assignmentId=37Z929RLGAUCV9YE5JBCJ9XYG4ZSTX&a=L2Z77&tp_a=L2Z77&b=37Z929RLGAUCV9YE5JBCJ9XYG4ZSTX&tp_b=37Z929RLGAUCV9YE5JBCJ9XYG4ZSTX&c=365717&tp_c=365717"},{"rt":7518,"stimulus":"\n            <h4 style=\"color:Orange;\">Student 2</h4>\n            <h2>The weight of your coin is <b style=\"color:Tomato;\">0.8</b>.</h2>\n            <p>In this block, you will be giving <b>two</b> sets of examples to Student 2.</p>\n                <p>You will see the student's guess after the first set of examples. You will also receive feedback at the end of the block.</p>\n            <p>To earn the highest bonus, you will have to <b>take into consideration the student's guess</b> when you choose your second set of examples.</p>","response":0,"trial_type":"html-button-response","trial_index":16,"time_elapsed":297558,"internal_node_id":"0.0-15.0","params":{"nStudents":24,"maxFlips":30,"completionMinutes":45,"basePay":8,"maxBonus":9,"perTrialBonus":0.5,"perTrialBonusThreshold":0.05,"exampleCost":0.01},"classroomParams":{"A":{"a":1,"b":4},"B":{"a":4,"b":1},"C":{"a":2,"b":8},"D":{"a":8,"b":2}},"conditions":["nonSeqFull","nonSeqPartial","seqNoFeedback","seqFeedback"],"classroomPairings":[["A","B"],["C","D"]],"coinWeights":[0.2,0.5,0.8],"subjectId":"A1ILD5BPLI8X1P","assignmentId":"37Z929RLGAUCV9YE5JBCJ9XYG4ZSTX","hitId":"34XASH8KLQ89J2U8D314D7180O4PMV","url":"https://gershmanlab.com/experiments/alicia/teaching/experiment/?hitId=34XASH8KLQ89J2U8D314D7180O4PMV&workerId=A1ILD5BPLI8X1P&assignmentId=37Z929RLGAUCV9YE5JBCJ9XYG4ZSTX&a=L2Z77&tp_a=L2Z77&b=37Z929RLGAUCV9YE5JBCJ9XYG4ZSTX&tp_b=37Z929RLGAUCV9YE5JBCJ9XYG4ZSTX&c=365717&tp_c=365717"},{"rt":4330,"response":{"heads":"8","tails":"2"},"type":"response","condition":"seqFeedback","trueTheta":0.8,"classrooms":["C","D"],"studentTrueClassroom":"C","exampleSet":"first","trial_type":"survey-html-form","trial_index":17,"time_elapsed":301888,"internal_node_id":"0.0-16.0-0.0","params":{"nStudents":24,"maxFlips":30,"completionMinutes":45,"basePay":8,"maxBonus":9,"perTrialBonus":0.5,"perTrialBonusThreshold":0.05,"exampleCost":0.01},"classroomParams":{"A":{"a":1,"b":4},"B":{"a":4,"b":1},"C":{"a":2,"b":8},"D":{"a":8,"b":2}},"conditions":["nonSeqFull","nonSeqPartial","seqNoFeedback","seqFeedback"],"classroomPairings":[["A","B"],["C","D"]],"coinWeights":[0.2,0.5,0.8],"subjectId":"A1ILD5BPLI8X1P","assignmentId":"37Z929RLGAUCV9YE5JBCJ9XYG4ZSTX","hitId":"34XASH8KLQ89J2U8D314D7180O4PMV","url":"https://gershmanlab.com/experiments/alicia/teaching/experiment/?hitId=34XASH8KLQ89J2U8D314D7180O4PMV&workerId=A1ILD5BPLI8X1P&assignmentId=37Z929RLGAUCV9YE5JBCJ9XYG4ZSTX&a=L2Z77&tp_a=L2Z77&b=37Z929RLGAUCV9YE5JBCJ9XYG4ZSTX&tp_b=37Z929RLGAUCV9YE5JBCJ9XYG4ZSTX&c=365717&tp_c=365717","heads":8,"tails":2,"studentIndex":1,"studentTrueHypers":{"a":2,"b":8},"studentGuess":0.5,"delta":0.30000000000000004,"totalExamples":10,"bonusSoFar":0.2},{"rt":null,"stimulus":"Sending examples to student... ","response":null,"trial_type":"html-keyboard-response","trial_index":18,"time_elapsed":303150,"internal_node_id":"0.0-17.0","params":{"nStudents":24,"maxFlips":30,"completionMinutes":45,"basePay":8,"maxBonus":9,"perTrialBonus":0.5,"perTrialBonusThreshold":0.05,"exampleCost":0.01},"classroomParams":{"A":{"a":1,"b":4},"B":{"a":4,"b":1},"C":{"a":2,"b":8},"D":{"a":8,"b":2}},"conditions":["nonSeqFull","nonSeqPartial","seqNoFeedback","seqFeedback"],"classroomPairings":[["A","B"],["C","D"]],"coinWeights":[0.2,0.5,0.8],"subjectId":"A1ILD5BPLI8X1P","assignmentId":"37Z929RLGAUCV9YE5JBCJ9XYG4ZSTX","hitId":"34XASH8KLQ89J2U8D314D7180O4PMV","url":"https://gershmanlab.com/experiments/alicia/teaching/experiment/?hitId=34XASH8KLQ89J2U8D314D7180O4PMV&workerId=A1ILD5BPLI8X1P&assignmentId=37Z929RLGAUCV9YE5JBCJ9XYG4ZSTX&a=L2Z77&tp_a=L2Z77&b=37Z929RLGAUCV9YE5JBCJ9XYG4ZSTX&tp_b=37Z929RLGAUCV9YE5JBCJ9XYG4ZSTX&c=365717&tp_c=365717"},{"rt":null,"stimulus":"Examples sent to student! Waiting for student...","response":null,"trial_type":"html-keyboard-response","trial_index":19,"time_elapsed":309168,"internal_node_id":"0.0-18.0","params":{"nStudents":24,"maxFlips":30,"completionMinutes":45,"basePay":8,"maxBonus":9,"perTrialBonus":0.5,"perTrialBonusThreshold":0.05,"exampleCost":0.01},"classroomParams":{"A":{"a":1,"b":4},"B":{"a":4,"b":1},"C":{"a":2,"b":8},"D":{"a":8,"b":2}},"conditions":["nonSeqFull","nonSeqPartial","seqNoFeedback","seqFeedback"],"classroomPairings":[["A","B"],["C","D"]],"coinWeights":[0.2,0.5,0.8],"subjectId":"A1ILD5BPLI8X1P","assignmentId":"37Z929RLGAUCV9YE5JBCJ9XYG4ZSTX","hitId":"34XASH8KLQ89J2U8D314D7180O4PMV","url":"https://gershmanlab.com/experiments/alicia/teaching/experiment/?hitId=34XASH8KLQ89J2U8D314D7180O4PMV&workerId=A1ILD5BPLI8X1P&assignmentId=37Z929RLGAUCV9YE5JBCJ9XYG4ZSTX&a=L2Z77&tp_a=L2Z77&b=37Z929RLGAUCV9YE5JBCJ9XYG4ZSTX&tp_b=37Z929RLGAUCV9YE5JBCJ9XYG4ZSTX&c=365717&tp_c=365717"},{"rt":3980,"stimulus":"\n                <p>Student's guess for coin weight: <b style=\"color:Tomato;\">0.50</b></p>\n                <p></b></p>\n                <p>You will now send another set of examples to your student. <b>Remember to take your student's guess into consideration so that you can earn the highest bonus possible!</b> </p>\n                <p>Press any key to continue.</p>\n                ","response":"enter","trial_type":"html-keyboard-response","trial_index":20,"time_elapsed":313150,"internal_node_id":"0.0-19.0","params":{"nStudents":24,"maxFlips":30,"completionMinutes":45,"basePay":8,"maxBonus":9,"perTrialBonus":0.5,"perTrialBonusThreshold":0.05,"exampleCost":0.01},"classroomParams":{"A":{"a":1,"b":4},"B":{"a":4,"b":1},"C":{"a":2,"b":8},"D":{"a":8,"b":2}},"conditions":["nonSeqFull","nonSeqPartial","seqNoFeedback","seqFeedback"],"classroomPairings":[["A","B"],["C","D"]],"coinWeights":[0.2,0.5,0.8],"subjectId":"A1ILD5BPLI8X1P","assignmentId":"37Z929RLGAUCV9YE5JBCJ9XYG4ZSTX","hitId":"34XASH8KLQ89J2U8D314D7180O4PMV","url":"https://gershmanlab.com/experiments/alicia/teaching/experiment/?hitId=34XASH8KLQ89J2U8D314D7180O4PMV&workerId=A1ILD5BPLI8X1P&assignmentId=37Z929RLGAUCV9YE5JBCJ9XYG4ZSTX&a=L2Z77&tp_a=L2Z77&b=37Z929RLGAUCV9YE5JBCJ9XYG4ZSTX&tp_b=37Z929RLGAUCV9YE5JBCJ9XYG4ZSTX&c=365717&tp_c=365717"},{"rt":4655,"response":{"heads":"10","tails":"0"},"type":"response","condition":"seqFeedback","trueTheta":0.8,"classrooms":["C","D"],"studentTrueClassroom":"C","exampleSet":"second","trial_type":"survey-html-form","trial_index":21,"time_elapsed":317806,"internal_node_id":"0.0-20.0-0.0","params":{"nStudents":24,"maxFlips":30,"completionMinutes":45,"basePay":8,"maxBonus":9,"perTrialBonus":0.5,"perTrialBonusThreshold":0.05,"exampleCost":0.01},"classroomParams":{"A":{"a":1,"b":4},"B":{"a":4,"b":1},"C":{"a":2,"b":8},"D":{"a":8,"b":2}},"conditions":["nonSeqFull","nonSeqPartial","seqNoFeedback","seqFeedback"],"classroomPairings":[["A","B"],["C","D"]],"coinWeights":[0.2,0.5,0.8],"subjectId":"A1ILD5BPLI8X1P","assignmentId":"37Z929RLGAUCV9YE5JBCJ9XYG4ZSTX","hitId":"34XASH8KLQ89J2U8D314D7180O4PMV","url":"https://gershmanlab.com/experiments/alicia/teaching/experiment/?hitId=34XASH8KLQ89J2U8D314D7180O4PMV&workerId=A1ILD5BPLI8X1P&assignmentId=37Z929RLGAUCV9YE5JBCJ9XYG4ZSTX&a=L2Z77&tp_a=L2Z77&b=37Z929RLGAUCV9YE5JBCJ9XYG4ZSTX&tp_b=37Z929RLGAUCV9YE5JBCJ9XYG4ZSTX&c=365717&tp_c=365717","firstResponseHeads":8,"firstResponseTails":2,"secondResponseHeads":10,"secondResponseTails":0,"totalHeads":18,"totalTails":2,"studentIndex":1,"studentTrueHypers":{"a":2,"b":8},"studentGuess":0.6666666666666666,"delta":0.13333333333333341,"bonus":0,"bonusSoFar":0.2,"totalExamples":20},{"rt":null,"stimulus":"Sending examples to student... ","response":null,"trial_type":"html-keyboard-response","trial_index":22,"time_elapsed":319064,"internal_node_id":"0.0-21.0","params":{"nStudents":24,"maxFlips":30,"completionMinutes":45,"basePay":8,"maxBonus":9,"perTrialBonus":0.5,"perTrialBonusThreshold":0.05,"exampleCost":0.01},"classroomParams":{"A":{"a":1,"b":4},"B":{"a":4,"b":1},"C":{"a":2,"b":8},"D":{"a":8,"b":2}},"conditions":["nonSeqFull","nonSeqPartial","seqNoFeedback","seqFeedback"],"classroomPairings":[["A","B"],["C","D"]],"coinWeights":[0.2,0.5,0.8],"subjectId":"A1ILD5BPLI8X1P","assignmentId":"37Z929RLGAUCV9YE5JBCJ9XYG4ZSTX","hitId":"34XASH8KLQ89J2U8D314D7180O4PMV","url":"https://gershmanlab.com/experiments/alicia/teaching/experiment/?hitId=34XASH8KLQ89J2U8D314D7180O4PMV&workerId=A1ILD5BPLI8X1P&assignmentId=37Z929RLGAUCV9YE5JBCJ9XYG4ZSTX&a=L2Z77&tp_a=L2Z77&b=37Z929RLGAUCV9YE5JBCJ9XYG4ZSTX&tp_b=37Z929RLGAUCV9YE5JBCJ9XYG4ZSTX&c=365717&tp_c=365717"},{"rt":null,"stimulus":"Examples sent to student! Waiting for student...","response":null,"trial_type":"html-keyboard-response","trial_index":23,"time_elapsed":325070,"internal_node_id":"0.0-22.0","params":{"nStudents":24,"maxFlips":30,"completionMinutes":45,"basePay":8,"maxBonus":9,"perTrialBonus":0.5,"perTrialBonusThreshold":0.05,"exampleCost":0.01},"classroomParams":{"A":{"a":1,"b":4},"B":{"a":4,"b":1},"C":{"a":2,"b":8},"D":{"a":8,"b":2}},"conditions":["nonSeqFull","nonSeqPartial","seqNoFeedback","seqFeedback"],"classroomPairings":[["A","B"],["C","D"]],"coinWeights":[0.2,0.5,0.8],"subjectId":"A1ILD5BPLI8X1P","assignmentId":"37Z929RLGAUCV9YE5JBCJ9XYG4ZSTX","hitId":"34XASH8KLQ89J2U8D314D7180O4PMV","url":"https://gershmanlab.com/experiments/alicia/teaching/experiment/?hitId=34XASH8KLQ89J2U8D314D7180O4PMV&workerId=A1ILD5BPLI8X1P&assignmentId=37Z929RLGAUCV9YE5JBCJ9XYG4ZSTX&a=L2Z77&tp_a=L2Z77&b=37Z929RLGAUCV9YE5JBCJ9XYG4ZSTX&tp_b=37Z929RLGAUCV9YE5JBCJ9XYG4ZSTX&c=365717&tp_c=365717"},{"rt":3637,"stimulus":"\n                <p>Student 2's first guess for coin weight: <b style=\"color:Tomato\";>0.50</b></p>\n                <p>Student 2's second guess for coin weight: <b style=\"color:Tomato\";>0.67</b></p>\n                <p>You received a bonus of <b>$0.00</b> based on the student's second guess.</p>\n                <p>Total bonus so far: <b>$0.20</b></p>\n                <p>Press any key to continue.</p>\n                ","response":" ","trial_type":"html-keyboard-response","trial_index":24,"time_elapsed":328708,"internal_node_id":"0.0-23.0","params":{"nStudents":24,"maxFlips":30,"completionMinutes":45,"basePay":8,"maxBonus":9,"perTrialBonus":0.5,"perTrialBonusThreshold":0.05,"exampleCost":0.01},"classroomParams":{"A":{"a":1,"b":4},"B":{"a":4,"b":1},"C":{"a":2,"b":8},"D":{"a":8,"b":2}},"conditions":["nonSeqFull","nonSeqPartial","seqNoFeedback","seqFeedback"],"classroomPairings":[["A","B"],["C","D"]],"coinWeights":[0.2,0.5,0.8],"subjectId":"A1ILD5BPLI8X1P","assignmentId":"37Z929RLGAUCV9YE5JBCJ9XYG4ZSTX","hitId":"34XASH8KLQ89J2U8D314D7180O4PMV","url":"https://gershmanlab.com/experiments/alicia/teaching/experiment/?hitId=34XASH8KLQ89J2U8D314D7180O4PMV&workerId=A1ILD5BPLI8X1P&assignmentId=37Z929RLGAUCV9YE5JBCJ9XYG4ZSTX&a=L2Z77&tp_a=L2Z77&b=37Z929RLGAUCV9YE5JBCJ9XYG4ZSTX&tp_b=37Z929RLGAUCV9YE5JBCJ9XYG4ZSTX&c=365717&tp_c=365717"},{"rt":null,"stimulus":"<div style=\"font-size:60px;\">Next student</div>","response":null,"trial_type":"html-keyboard-response","trial_index":25,"time_elapsed":330710,"internal_node_id":"0.0-24.0-0.0","params":{"nStudents":24,"maxFlips":30,"completionMinutes":45,"basePay":8,"maxBonus":9,"perTrialBonus":0.5,"perTrialBonusThreshold":0.05,"exampleCost":0.01},"classroomParams":{"A":{"a":1,"b":4},"B":{"a":4,"b":1},"C":{"a":2,"b":8},"D":{"a":8,"b":2}},"conditions":["nonSeqFull","nonSeqPartial","seqNoFeedback","seqFeedback"],"classroomPairings":[["A","B"],["C","D"]],"coinWeights":[0.2,0.5,0.8],"subjectId":"A1ILD5BPLI8X1P","assignmentId":"37Z929RLGAUCV9YE5JBCJ9XYG4ZSTX","hitId":"34XASH8KLQ89J2U8D314D7180O4PMV","url":"https://gershmanlab.com/experiments/alicia/teaching/experiment/?hitId=34XASH8KLQ89J2U8D314D7180O4PMV&workerId=A1ILD5BPLI8X1P&assignmentId=37Z929RLGAUCV9YE5JBCJ9XYG4ZSTX&a=L2Z77&tp_a=L2Z77&b=37Z929RLGAUCV9YE5JBCJ9XYG4ZSTX&tp_b=37Z929RLGAUCV9YE5JBCJ9XYG4ZSTX&c=365717&tp_c=365717"},{"rt":6055,"stimulus":"\n            <h4 style=\"color:Orange;\">Student 3</h4>\n            <h2>The weight of your coin is <b style=\"color:Tomato;\">0.8</b>.</h2>\n            <p>In this block, you will be giving <b>one</b> set of examples to Student 3.</p>\n                <p>You will receive feedback at the end of the block.</p>\n            <p></p>","response":0,"trial_type":"html-button-response","trial_index":26,"time_elapsed":336765,"internal_node_id":"0.0-25.0","params":{"nStudents":24,"maxFlips":30,"completionMinutes":45,"basePay":8,"maxBonus":9,"perTrialBonus":0.5,"perTrialBonusThreshold":0.05,"exampleCost":0.01},"classroomParams":{"A":{"a":1,"b":4},"B":{"a":4,"b":1},"C":{"a":2,"b":8},"D":{"a":8,"b":2}},"conditions":["nonSeqFull","nonSeqPartial","seqNoFeedback","seqFeedback"],"classroomPairings":[["A","B"],["C","D"]],"coinWeights":[0.2,0.5,0.8],"subjectId":"A1ILD5BPLI8X1P","assignmentId":"37Z929RLGAUCV9YE5JBCJ9XYG4ZSTX","hitId":"34XASH8KLQ89J2U8D314D7180O4PMV","url":"https://gershmanlab.com/experiments/alicia/teaching/experiment/?hitId=34XASH8KLQ89J2U8D314D7180O4PMV&workerId=A1ILD5BPLI8X1P&assignmentId=37Z929RLGAUCV9YE5JBCJ9XYG4ZSTX&a=L2Z77&tp_a=L2Z77&b=37Z929RLGAUCV9YE5JBCJ9XYG4ZSTX&tp_b=37Z929RLGAUCV9YE5JBCJ9XYG4ZSTX&c=365717&tp_c=365717"},{"rt":8521,"response":{"heads":"8","tails":"2"},"type":"response","condition":"nonSeqFull","trueTheta":0.8,"classrooms":["A","B"],"studentTrueClassroom":"A","exampleSet":"first","trial_type":"survey-html-form","trial_index":27,"time_elapsed":345288,"internal_node_id":"0.0-26.0-0.0","params":{"nStudents":24,"maxFlips":30,"completionMinutes":45,"basePay":8,"maxBonus":9,"perTrialBonus":0.5,"perTrialBonusThreshold":0.05,"exampleCost":0.01},"classroomParams":{"A":{"a":1,"b":4},"B":{"a":4,"b":1},"C":{"a":2,"b":8},"D":{"a":8,"b":2}},"conditions":["nonSeqFull","nonSeqPartial","seqNoFeedback","seqFeedback"],"classroomPairings":[["A","B"],["C","D"]],"coinWeights":[0.2,0.5,0.8],"subjectId":"A1ILD5BPLI8X1P","assignmentId":"37Z929RLGAUCV9YE5JBCJ9XYG4ZSTX","hitId":"34XASH8KLQ89J2U8D314D7180O4PMV","url":"https://gershmanlab.com/experiments/alicia/teaching/experiment/?hitId=34XASH8KLQ89J2U8D314D7180O4PMV&workerId=A1ILD5BPLI8X1P&assignmentId=37Z929RLGAUCV9YE5JBCJ9XYG4ZSTX&a=L2Z77&tp_a=L2Z77&b=37Z929RLGAUCV9YE5JBCJ9XYG4ZSTX&tp_b=37Z929RLGAUCV9YE5JBCJ9XYG4ZSTX&c=365717&tp_c=365717","heads":8,"tails":2,"studentIndex":2,"studentTrueHypers":{"a":1,"b":4},"studentGuess":0.6,"delta":0.20000000000000007,"totalExamples":10,"bonus":0,"bonusSoFar":0.2},{"rt":null,"stimulus":"Sending examples to student... ","response":null,"trial_type":"html-keyboard-response","trial_index":28,"time_elapsed":347301,"internal_node_id":"0.0-27.0","params":{"nStudents":24,"maxFlips":30,"completionMinutes":45,"basePay":8,"maxBonus":9,"perTrialBonus":0.5,"perTrialBonusThreshold":0.05,"exampleCost":0.01},"classroomParams":{"A":{"a":1,"b":4},"B":{"a":4,"b":1},"C":{"a":2,"b":8},"D":{"a":8,"b":2}},"conditions":["nonSeqFull","nonSeqPartial","seqNoFeedback","seqFeedback"],"classroomPairings":[["A","B"],["C","D"]],"coinWeights":[0.2,0.5,0.8],"subjectId":"A1ILD5BPLI8X1P","assignmentId":"37Z929RLGAUCV9YE5JBCJ9XYG4ZSTX","hitId":"34XASH8KLQ89J2U8D314D7180O4PMV","url":"https://gershmanlab.com/experiments/alicia/teaching/experiment/?hitId=34XASH8KLQ89J2U8D314D7180O4PMV&workerId=A1ILD5BPLI8X1P&assignmentId=37Z929RLGAUCV9YE5JBCJ9XYG4ZSTX&a=L2Z77&tp_a=L2Z77&b=37Z929RLGAUCV9YE5JBCJ9XYG4ZSTX&tp_b=37Z929RLGAUCV9YE5JBCJ9XYG4ZSTX&c=365717&tp_c=365717"},{"rt":null,"stimulus":"Examples sent to student! Waiting for student...","response":null,"trial_type":"html-keyboard-response","trial_index":29,"time_elapsed":351808,"internal_node_id":"0.0-28.0","params":{"nStudents":24,"maxFlips":30,"completionMinutes":45,"basePay":8,"maxBonus":9,"perTrialBonus":0.5,"perTrialBonusThreshold":0.05,"exampleCost":0.01},"classroomParams":{"A":{"a":1,"b":4},"B":{"a":4,"b":1},"C":{"a":2,"b":8},"D":{"a":8,"b":2}},"conditions":["nonSeqFull","nonSeqPartial","seqNoFeedback","seqFeedback"],"classroomPairings":[["A","B"],["C","D"]],"coinWeights":[0.2,0.5,0.8],"subjectId":"A1ILD5BPLI8X1P","assignmentId":"37Z929RLGAUCV9YE5JBCJ9XYG4ZSTX","hitId":"34XASH8KLQ89J2U8D314D7180O4PMV","url":"https://gershmanlab.com/experiments/alicia/teaching/experiment/?hitId=34XASH8KLQ89J2U8D314D7180O4PMV&workerId=A1ILD5BPLI8X1P&assignmentId=37Z929RLGAUCV9YE5JBCJ9XYG4ZSTX&a=L2Z77&tp_a=L2Z77&b=37Z929RLGAUCV9YE5JBCJ9XYG4ZSTX&tp_b=37Z929RLGAUCV9YE5JBCJ9XYG4ZSTX&c=365717&tp_c=365717"},{"rt":2587,"stimulus":"\n                <p>Student's guess for coin weight: <b style=\"color:Tomato;\">0.60</b></p>\n                <p>You received a bonus of <b>$0</b>. Total bonus so far: <b>$0.20</b></b></p>\n                <p></p>\n                <p>Press any key to continue.</p>\n                ","response":" ","trial_type":"html-keyboard-response","trial_index":30,"time_elapsed":354395,"internal_node_id":"0.0-29.0","params":{"nStudents":24,"maxFlips":30,"completionMinutes":45,"basePay":8,"maxBonus":9,"perTrialBonus":0.5,"perTrialBonusThreshold":0.05,"exampleCost":0.01},"classroomParams":{"A":{"a":1,"b":4},"B":{"a":4,"b":1},"C":{"a":2,"b":8},"D":{"a":8,"b":2}},"conditions":["nonSeqFull","nonSeqPartial","seqNoFeedback","seqFeedback"],"classroomPairings":[["A","B"],["C","D"]],"coinWeights":[0.2,0.5,0.8],"subjectId":"A1ILD5BPLI8X1P","assignmentId":"37Z929RLGAUCV9YE5JBCJ9XYG4ZSTX","hitId":"34XASH8KLQ89J2U8D314D7180O4PMV","url":"https://gershmanlab.com/experiments/alicia/teaching/experiment/?hitId=34XASH8KLQ89J2U8D314D7180O4PMV&workerId=A1ILD5BPLI8X1P&assignmentId=37Z929RLGAUCV9YE5JBCJ9XYG4ZSTX&a=L2Z77&tp_a=L2Z77&b=37Z929RLGAUCV9YE5JBCJ9XYG4ZSTX&tp_b=37Z929RLGAUCV9YE5JBCJ9XYG4ZSTX&c=365717&tp_c=365717"},{"rt":null,"stimulus":"<div style=\"font-size:60px;\">Next student</div>","response":null,"trial_type":"html-keyboard-response","trial_index":31,"time_elapsed":357397,"internal_node_id":"0.0-30.0-0.0","params":{"nStudents":24,"maxFlips":30,"completionMinutes":45,"basePay":8,"maxBonus":9,"perTrialBonus":0.5,"perTrialBonusThreshold":0.05,"exampleCost":0.01},"classroomParams":{"A":{"a":1,"b":4},"B":{"a":4,"b":1},"C":{"a":2,"b":8},"D":{"a":8,"b":2}},"conditions":["nonSeqFull","nonSeqPartial","seqNoFeedback","seqFeedback"],"classroomPairings":[["A","B"],["C","D"]],"coinWeights":[0.2,0.5,0.8],"subjectId":"A1ILD5BPLI8X1P","assignmentId":"37Z929RLGAUCV9YE5JBCJ9XYG4ZSTX","hitId":"34XASH8KLQ89J2U8D314D7180O4PMV","url":"https://gershmanlab.com/experiments/alicia/teaching/experiment/?hitId=34XASH8KLQ89J2U8D314D7180O4PMV&workerId=A1ILD5BPLI8X1P&assignmentId=37Z929RLGAUCV9YE5JBCJ9XYG4ZSTX&a=L2Z77&tp_a=L2Z77&b=37Z929RLGAUCV9YE5JBCJ9XYG4ZSTX&tp_b=37Z929RLGAUCV9YE5JBCJ9XYG4ZSTX&c=365717&tp_c=365717"},{"rt":3589,"stimulus":"\n            <h4 style=\"color:Orange;\">Student 4</h4>\n            <h2>The weight of your coin is <b style=\"color:Tomato;\">0.8</b>.</h2>\n            <p>In this block, you will be giving <b>two</b> sets of examples to Student 4.</p>\n                <p>You will receive feedback at the end of the block.</p>\n            <p></p>","response":0,"trial_type":"html-button-response","trial_index":32,"time_elapsed":360987,"internal_node_id":"0.0-31.0","params":{"nStudents":24,"maxFlips":30,"completionMinutes":45,"basePay":8,"maxBonus":9,"perTrialBonus":0.5,"perTrialBonusThreshold":0.05,"exampleCost":0.01},"classroomParams":{"A":{"a":1,"b":4},"B":{"a":4,"b":1},"C":{"a":2,"b":8},"D":{"a":8,"b":2}},"conditions":["nonSeqFull","nonSeqPartial","seqNoFeedback","seqFeedback"],"classroomPairings":[["A","B"],["C","D"]],"coinWeights":[0.2,0.5,0.8],"subjectId":"A1ILD5BPLI8X1P","assignmentId":"37Z929RLGAUCV9YE5JBCJ9XYG4ZSTX","hitId":"34XASH8KLQ89J2U8D314D7180O4PMV","url":"https://gershmanlab.com/experiments/alicia/teaching/experiment/?hitId=34XASH8KLQ89J2U8D314D7180O4PMV&workerId=A1ILD5BPLI8X1P&assignmentId=37Z929RLGAUCV9YE5JBCJ9XYG4ZSTX&a=L2Z77&tp_a=L2Z77&b=37Z929RLGAUCV9YE5JBCJ9XYG4ZSTX&tp_b=37Z929RLGAUCV9YE5JBCJ9XYG4ZSTX&c=365717&tp_c=365717"},{"rt":3150,"response":{"heads":"8","tails":"2"},"type":"response","condition":"seqNoFeedback","trueTheta":0.8,"classrooms":["A","B"],"studentTrueClassroom":"B","exampleSet":"first","trial_type":"survey-html-form","trial_index":33,"time_elapsed":364138,"internal_node_id":"0.0-32.0-0.0","params":{"nStudents":24,"maxFlips":30,"completionMinutes":45,"basePay":8,"maxBonus":9,"perTrialBonus":0.5,"perTrialBonusThreshold":0.05,"exampleCost":0.01},"classroomParams":{"A":{"a":1,"b":4},"B":{"a":4,"b":1},"C":{"a":2,"b":8},"D":{"a":8,"b":2}},"conditions":["nonSeqFull","nonSeqPartial","seqNoFeedback","seqFeedback"],"classroomPairings":[["A","B"],["C","D"]],"coinWeights":[0.2,0.5,0.8],"subjectId":"A1ILD5BPLI8X1P","assignmentId":"37Z929RLGAUCV9YE5JBCJ9XYG4ZSTX","hitId":"34XASH8KLQ89J2U8D314D7180O4PMV","url":"https://gershmanlab.com/experiments/alicia/teaching/experiment/?hitId=34XASH8KLQ89J2U8D314D7180O4PMV&workerId=A1ILD5BPLI8X1P&assignmentId=37Z929RLGAUCV9YE5JBCJ9XYG4ZSTX&a=L2Z77&tp_a=L2Z77&b=37Z929RLGAUCV9YE5JBCJ9XYG4ZSTX&tp_b=37Z929RLGAUCV9YE5JBCJ9XYG4ZSTX&c=365717&tp_c=365717","heads":8,"tails":2,"studentIndex":3,"studentTrueHypers":{"a":4,"b":1},"studentGuess":0.8,"delta":0,"totalExamples":10,"bonusSoFar":0.2},{"rt":null,"stimulus":"Sending examples to student... ","response":null,"trial_type":"html-keyboard-response","trial_index":34,"time_elapsed":365902,"internal_node_id":"0.0-33.0","params":{"nStudents":24,"maxFlips":30,"completionMinutes":45,"basePay":8,"maxBonus":9,"perTrialBonus":0.5,"perTrialBonusThreshold":0.05,"exampleCost":0.01},"classroomParams":{"A":{"a":1,"b":4},"B":{"a":4,"b":1},"C":{"a":2,"b":8},"D":{"a":8,"b":2}},"conditions":["nonSeqFull","nonSeqPartial","seqNoFeedback","seqFeedback"],"classroomPairings":[["A","B"],["C","D"]],"coinWeights":[0.2,0.5,0.8],"subjectId":"A1ILD5BPLI8X1P","assignmentId":"37Z929RLGAUCV9YE5JBCJ9XYG4ZSTX","hitId":"34XASH8KLQ89J2U8D314D7180O4PMV","url":"https://gershmanlab.com/experiments/alicia/teaching/experiment/?hitId=34XASH8KLQ89J2U8D314D7180O4PMV&workerId=A1ILD5BPLI8X1P&assignmentId=37Z929RLGAUCV9YE5JBCJ9XYG4ZSTX&a=L2Z77&tp_a=L2Z77&b=37Z929RLGAUCV9YE5JBCJ9XYG4ZSTX&tp_b=37Z929RLGAUCV9YE5JBCJ9XYG4ZSTX&c=365717&tp_c=365717"},{"rt":null,"stimulus":"Examples sent to student! Waiting for student...","response":null,"trial_type":"html-keyboard-response","trial_index":35,"time_elapsed":370417,"internal_node_id":"0.0-34.0","params":{"nStudents":24,"maxFlips":30,"completionMinutes":45,"basePay":8,"maxBonus":9,"perTrialBonus":0.5,"perTrialBonusThreshold":0.05,"exampleCost":0.01},"classroomParams":{"A":{"a":1,"b":4},"B":{"a":4,"b":1},"C":{"a":2,"b":8},"D":{"a":8,"b":2}},"conditions":["nonSeqFull","nonSeqPartial","seqNoFeedback","seqFeedback"],"classroomPairings":[["A","B"],["C","D"]],"coinWeights":[0.2,0.5,0.8],"subjectId":"A1ILD5BPLI8X1P","assignmentId":"37Z929RLGAUCV9YE5JBCJ9XYG4ZSTX","hitId":"34XASH8KLQ89J2U8D314D7180O4PMV","url":"https://gershmanlab.com/experiments/alicia/teaching/experiment/?hitId=34XASH8KLQ89J2U8D314D7180O4PMV&workerId=A1ILD5BPLI8X1P&assignmentId=37Z929RLGAUCV9YE5JBCJ9XYG4ZSTX&a=L2Z77&tp_a=L2Z77&b=37Z929RLGAUCV9YE5JBCJ9XYG4ZSTX&tp_b=37Z929RLGAUCV9YE5JBCJ9XYG4ZSTX&c=365717&tp_c=365717"},{"rt":6388,"response":{"heads":"8","tails":"2"},"type":"response","condition":"seqNoFeedback","trueTheta":0.8,"classrooms":["A","B"],"studentTrueClassroom":"B","exampleSet":"second","trial_type":"survey-html-form","trial_index":36,"time_elapsed":376807,"internal_node_id":"0.0-35.0-0.0","params":{"nStudents":24,"maxFlips":30,"completionMinutes":45,"basePay":8,"maxBonus":9,"perTrialBonus":0.5,"perTrialBonusThreshold":0.05,"exampleCost":0.01},"classroomParams":{"A":{"a":1,"b":4},"B":{"a":4,"b":1},"C":{"a":2,"b":8},"D":{"a":8,"b":2}},"conditions":["nonSeqFull","nonSeqPartial","seqNoFeedback","seqFeedback"],"classroomPairings":[["A","B"],["C","D"]],"coinWeights":[0.2,0.5,0.8],"subjectId":"A1ILD5BPLI8X1P","assignmentId":"37Z929RLGAUCV9YE5JBCJ9XYG4ZSTX","hitId":"34XASH8KLQ89J2U8D314D7180O4PMV","url":"https://gershmanlab.com/experiments/alicia/teaching/experiment/?hitId=34XASH8KLQ89J2U8D314D7180O4PMV&workerId=A1ILD5BPLI8X1P&assignmentId=37Z929RLGAUCV9YE5JBCJ9XYG4ZSTX&a=L2Z77&tp_a=L2Z77&b=37Z929RLGAUCV9YE5JBCJ9XYG4ZSTX&tp_b=37Z929RLGAUCV9YE5JBCJ9XYG4ZSTX&c=365717&tp_c=365717","firstResponseHeads":8,"firstResponseTails":2,"secondResponseHeads":8,"secondResponseTails":2,"totalHeads":16,"totalTails":4,"studentIndex":3,"studentTrueHypers":{"a":4,"b":1},"studentGuess":0.8,"delta":0,"bonus":0.3,"bonusSoFar":0.5,"totalExamples":20},{"rt":null,"stimulus":"Sending examples to student... ","response":null,"trial_type":"html-keyboard-response","trial_index":37,"time_elapsed":378064,"internal_node_id":"0.0-36.0","params":{"nStudents":24,"maxFlips":30,"completionMinutes":45,"basePay":8,"maxBonus":9,"perTrialBonus":0.5,"perTrialBonusThreshold":0.05,"exampleCost":0.01},"classroomParams":{"A":{"a":1,"b":4},"B":{"a":4,"b":1},"C":{"a":2,"b":8},"D":{"a":8,"b":2}},"conditions":["nonSeqFull","nonSeqPartial","seqNoFeedback","seqFeedback"],"classroomPairings":[["A","B"],["C","D"]],"coinWeights":[0.2,0.5,0.8],"subjectId":"A1ILD5BPLI8X1P","assignmentId":"37Z929RLGAUCV9YE5JBCJ9XYG4ZSTX","hitId":"34XASH8KLQ89J2U8D314D7180O4PMV","url":"https://gershmanlab.com/experiments/alicia/teaching/experiment/?hitId=34XASH8KLQ89J2U8D314D7180O4PMV&workerId=A1ILD5BPLI8X1P&assignmentId=37Z929RLGAUCV9YE5JBCJ9XYG4ZSTX&a=L2Z77&tp_a=L2Z77&b=37Z929RLGAUCV9YE5JBCJ9XYG4ZSTX&tp_b=37Z929RLGAUCV9YE5JBCJ9XYG4ZSTX&c=365717&tp_c=365717"},{"rt":null,"stimulus":"Examples sent to student! Waiting for student...","response":null,"trial_type":"html-keyboard-response","trial_index":38,"time_elapsed":383078,"internal_node_id":"0.0-37.0","params":{"nStudents":24,"maxFlips":30,"completionMinutes":45,"basePay":8,"maxBonus":9,"perTrialBonus":0.5,"perTrialBonusThreshold":0.05,"exampleCost":0.01},"classroomParams":{"A":{"a":1,"b":4},"B":{"a":4,"b":1},"C":{"a":2,"b":8},"D":{"a":8,"b":2}},"conditions":["nonSeqFull","nonSeqPartial","seqNoFeedback","seqFeedback"],"classroomPairings":[["A","B"],["C","D"]],"coinWeights":[0.2,0.5,0.8],"subjectId":"A1ILD5BPLI8X1P","assignmentId":"37Z929RLGAUCV9YE5JBCJ9XYG4ZSTX","hitId":"34XASH8KLQ89J2U8D314D7180O4PMV","url":"https://gershmanlab.com/experiments/alicia/teaching/experiment/?hitId=34XASH8KLQ89J2U8D314D7180O4PMV&workerId=A1ILD5BPLI8X1P&assignmentId=37Z929RLGAUCV9YE5JBCJ9XYG4ZSTX&a=L2Z77&tp_a=L2Z77&b=37Z929RLGAUCV9YE5JBCJ9XYG4ZSTX&tp_b=37Z929RLGAUCV9YE5JBCJ9XYG4ZSTX&c=365717&tp_c=365717"},{"rt":5567,"stimulus":"\n                <p>Student 4's first guess for coin weight: <b style=\"color:Tomato\";>0.80</b></p>\n                <p>Student 4's second guess for coin weight: <b style=\"color:Tomato\";>0.80</b></p>\n                <p>You received a bonus of <b>$0.30</b> based on the student's second guess.</p>\n                <p>Total bonus so far: <b>$0.50</b></p>\n                <p>Press any key to continue.</p>\n                ","response":" ","trial_type":"html-keyboard-response","trial_index":39,"time_elapsed":388646,"internal_node_id":"0.0-38.0","params":{"nStudents":24,"maxFlips":30,"completionMinutes":45,"basePay":8,"maxBonus":9,"perTrialBonus":0.5,"perTrialBonusThreshold":0.05,"exampleCost":0.01},"classroomParams":{"A":{"a":1,"b":4},"B":{"a":4,"b":1},"C":{"a":2,"b":8},"D":{"a":8,"b":2}},"conditions":["nonSeqFull","nonSeqPartial","seqNoFeedback","seqFeedback"],"classroomPairings":[["A","B"],["C","D"]],"coinWeights":[0.2,0.5,0.8],"subjectId":"A1ILD5BPLI8X1P","assignmentId":"37Z929RLGAUCV9YE5JBCJ9XYG4ZSTX","hitId":"34XASH8KLQ89J2U8D314D7180O4PMV","url":"https://gershmanlab.com/experiments/alicia/teaching/experiment/?hitId=34XASH8KLQ89J2U8D314D7180O4PMV&workerId=A1ILD5BPLI8X1P&assignmentId=37Z929RLGAUCV9YE5JBCJ9XYG4ZSTX&a=L2Z77&tp_a=L2Z77&b=37Z929RLGAUCV9YE5JBCJ9XYG4ZSTX&tp_b=37Z929RLGAUCV9YE5JBCJ9XYG4ZSTX&c=365717&tp_c=365717"},{"rt":null,"stimulus":"<div style=\"font-size:60px;\">Next student</div>","response":null,"trial_type":"html-keyboard-response","trial_index":40,"time_elapsed":391150,"internal_node_id":"0.0-39.0-0.0","params":{"nStudents":24,"maxFlips":30,"completionMinutes":45,"basePay":8,"maxBonus":9,"perTrialBonus":0.5,"perTrialBonusThreshold":0.05,"exampleCost":0.01},"classroomParams":{"A":{"a":1,"b":4},"B":{"a":4,"b":1},"C":{"a":2,"b":8},"D":{"a":8,"b":2}},"conditions":["nonSeqFull","nonSeqPartial","seqNoFeedback","seqFeedback"],"classroomPairings":[["A","B"],["C","D"]],"coinWeights":[0.2,0.5,0.8],"subjectId":"A1ILD5BPLI8X1P","assignmentId":"37Z929RLGAUCV9YE5JBCJ9XYG4ZSTX","hitId":"34XASH8KLQ89J2U8D314D7180O4PMV","url":"https://gershmanlab.com/experiments/alicia/teaching/experiment/?hitId=34XASH8KLQ89J2U8D314D7180O4PMV&workerId=A1ILD5BPLI8X1P&assignmentId=37Z929RLGAUCV9YE5JBCJ9XYG4ZSTX&a=L2Z77&tp_a=L2Z77&b=37Z929RLGAUCV9YE5JBCJ9XYG4ZSTX&tp_b=37Z929RLGAUCV9YE5JBCJ9XYG4ZSTX&c=365717&tp_c=365717"},{"rt":7576,"stimulus":"\n            <h4 style=\"color:Orange;\">Student 5</h4>\n            <h2>The weight of your coin is <b style=\"color:Tomato;\">0.8</b>.</h2>\n            <p>In this block, you will be giving <b>two</b> sets of examples to Student 5.</p>\n                <p>You will see the student's guess after the first set of examples. You will also receive feedback at the end of the block.</p>\n            <p>To earn the highest bonus, you will have to <b>take into consideration the student's guess</b> when you choose your second set of examples.</p>","response":0,"trial_type":"html-button-response","trial_index":41,"time_elapsed":398726,"internal_node_id":"0.0-40.0","params":{"nStudents":24,"maxFlips":30,"completionMinutes":45,"basePay":8,"maxBonus":9,"perTrialBonus":0.5,"perTrialBonusThreshold":0.05,"exampleCost":0.01},"classroomParams":{"A":{"a":1,"b":4},"B":{"a":4,"b":1},"C":{"a":2,"b":8},"D":{"a":8,"b":2}},"conditions":["nonSeqFull","nonSeqPartial","seqNoFeedback","seqFeedback"],"classroomPairings":[["A","B"],["C","D"]],"coinWeights":[0.2,0.5,0.8],"subjectId":"A1ILD5BPLI8X1P","assignmentId":"37Z929RLGAUCV9YE5JBCJ9XYG4ZSTX","hitId":"34XASH8KLQ89J2U8D314D7180O4PMV","url":"https://gershmanlab.com/experiments/alicia/teaching/experiment/?hitId=34XASH8KLQ89J2U8D314D7180O4PMV&workerId=A1ILD5BPLI8X1P&assignmentId=37Z929RLGAUCV9YE5JBCJ9XYG4ZSTX&a=L2Z77&tp_a=L2Z77&b=37Z929RLGAUCV9YE5JBCJ9XYG4ZSTX&tp_b=37Z929RLGAUCV9YE5JBCJ9XYG4ZSTX&c=365717&tp_c=365717"},{"rt":4696,"response":{"heads":"8","tails":"2"},"type":"response","condition":"seqFeedback","trueTheta":0.8,"classrooms":["A","B"],"studentTrueClassroom":"A","exampleSet":"first","trial_type":"survey-html-form","trial_index":42,"time_elapsed":403423,"internal_node_id":"0.0-41.0-0.0","params":{"nStudents":24,"maxFlips":30,"completionMinutes":45,"basePay":8,"maxBonus":9,"perTrialBonus":0.5,"perTrialBonusThreshold":0.05,"exampleCost":0.01},"classroomParams":{"A":{"a":1,"b":4},"B":{"a":4,"b":1},"C":{"a":2,"b":8},"D":{"a":8,"b":2}},"conditions":["nonSeqFull","nonSeqPartial","seqNoFeedback","seqFeedback"],"classroomPairings":[["A","B"],["C","D"]],"coinWeights":[0.2,0.5,0.8],"subjectId":"A1ILD5BPLI8X1P","assignmentId":"37Z929RLGAUCV9YE5JBCJ9XYG4ZSTX","hitId":"34XASH8KLQ89J2U8D314D7180O4PMV","url":"https://gershmanlab.com/experiments/alicia/teaching/experiment/?hitId=34XASH8KLQ89J2U8D314D7180O4PMV&workerId=A1ILD5BPLI8X1P&assignmentId=37Z929RLGAUCV9YE5JBCJ9XYG4ZSTX&a=L2Z77&tp_a=L2Z77&b=37Z929RLGAUCV9YE5JBCJ9XYG4ZSTX&tp_b=37Z929RLGAUCV9YE5JBCJ9XYG4ZSTX&c=365717&tp_c=365717","heads":8,"tails":2,"studentIndex":4,"studentTrueHypers":{"a":1,"b":4},"studentGuess":0.6,"delta":0.20000000000000007,"totalExamples":10,"bonusSoFar":0.5},{"rt":null,"stimulus":"Sending examples to student... ","response":null,"trial_type":"html-keyboard-response","trial_index":43,"time_elapsed":404926,"internal_node_id":"0.0-42.0","params":{"nStudents":24,"maxFlips":30,"completionMinutes":45,"basePay":8,"maxBonus":9,"perTrialBonus":0.5,"perTrialBonusThreshold":0.05,"exampleCost":0.01},"classroomParams":{"A":{"a":1,"b":4},"B":{"a":4,"b":1},"C":{"a":2,"b":8},"D":{"a":8,"b":2}},"conditions":["nonSeqFull","nonSeqPartial","seqNoFeedback","seqFeedback"],"classroomPairings":[["A","B"],["C","D"]],"coinWeights":[0.2,0.5,0.8],"subjectId":"A1ILD5BPLI8X1P","assignmentId":"37Z929RLGAUCV9YE5JBCJ9XYG4ZSTX","hitId":"34XASH8KLQ89J2U8D314D7180O4PMV","url":"https://gershmanlab.com/experiments/alicia/teaching/experiment/?hitId=34XASH8KLQ89J2U8D314D7180O4PMV&workerId=A1ILD5BPLI8X1P&assignmentId=37Z929RLGAUCV9YE5JBCJ9XYG4ZSTX&a=L2Z77&tp_a=L2Z77&b=37Z929RLGAUCV9YE5JBCJ9XYG4ZSTX&tp_b=37Z929RLGAUCV9YE5JBCJ9XYG4ZSTX&c=365717&tp_c=365717"},{"rt":null,"stimulus":"Examples sent to student! Waiting for student...","response":null,"trial_type":"html-keyboard-response","trial_index":44,"time_elapsed":410939,"internal_node_id":"0.0-43.0","params":{"nStudents":24,"maxFlips":30,"completionMinutes":45,"basePay":8,"maxBonus":9,"perTrialBonus":0.5,"perTrialBonusThreshold":0.05,"exampleCost":0.01},"classroomParams":{"A":{"a":1,"b":4},"B":{"a":4,"b":1},"C":{"a":2,"b":8},"D":{"a":8,"b":2}},"conditions":["nonSeqFull","nonSeqPartial","seqNoFeedback","seqFeedback"],"classroomPairings":[["A","B"],["C","D"]],"coinWeights":[0.2,0.5,0.8],"subjectId":"A1ILD5BPLI8X1P","assignmentId":"37Z929RLGAUCV9YE5JBCJ9XYG4ZSTX","hitId":"34XASH8KLQ89J2U8D314D7180O4PMV","url":"https://gershmanlab.com/experiments/alicia/teaching/experiment/?hitId=34XASH8KLQ89J2U8D314D7180O4PMV&workerId=A1ILD5BPLI8X1P&assignmentId=37Z929RLGAUCV9YE5JBCJ9XYG4ZSTX&a=L2Z77&tp_a=L2Z77&b=37Z929RLGAUCV9YE5JBCJ9XYG4ZSTX&tp_b=37Z929RLGAUCV9YE5JBCJ9XYG4ZSTX&c=365717&tp_c=365717"},{"rt":3840,"stimulus":"\n                <p>Student's guess for coin weight: <b style=\"color:Tomato;\">0.60</b></p>\n                <p></b></p>\n                <p>You will now send another set of examples to your student. <b>Remember to take your student's guess into consideration so that you can earn the highest bonus possible!</b> </p>\n                <p>Press any key to continue.</p>\n                ","response":"tab","trial_type":"html-keyboard-response","trial_index":45,"time_elapsed":414780,"internal_node_id":"0.0-44.0","params":{"nStudents":24,"maxFlips":30,"completionMinutes":45,"basePay":8,"maxBonus":9,"perTrialBonus":0.5,"perTrialBonusThreshold":0.05,"exampleCost":0.01},"classroomParams":{"A":{"a":1,"b":4},"B":{"a":4,"b":1},"C":{"a":2,"b":8},"D":{"a":8,"b":2}},"conditions":["nonSeqFull","nonSeqPartial","seqNoFeedback","seqFeedback"],"classroomPairings":[["A","B"],["C","D"]],"coinWeights":[0.2,0.5,0.8],"subjectId":"A1ILD5BPLI8X1P","assignmentId":"37Z929RLGAUCV9YE5JBCJ9XYG4ZSTX","hitId":"34XASH8KLQ89J2U8D314D7180O4PMV","url":"https://gershmanlab.com/experiments/alicia/teaching/experiment/?hitId=34XASH8KLQ89J2U8D314D7180O4PMV&workerId=A1ILD5BPLI8X1P&assignmentId=37Z929RLGAUCV9YE5JBCJ9XYG4ZSTX&a=L2Z77&tp_a=L2Z77&b=37Z929RLGAUCV9YE5JBCJ9XYG4ZSTX&tp_b=37Z929RLGAUCV9YE5JBCJ9XYG4ZSTX&c=365717&tp_c=365717"},{"rt":4602,"response":{"heads":"8","tails":"2"},"type":"response","condition":"seqFeedback","trueTheta":0.8,"classrooms":["A","B"],"studentTrueClassroom":"A","exampleSet":"second","trial_type":"survey-html-form","trial_index":46,"time_elapsed":419383,"internal_node_id":"0.0-45.0-0.0","params":{"nStudents":24,"maxFlips":30,"completionMinutes":45,"basePay":8,"maxBonus":9,"perTrialBonus":0.5,"perTrialBonusThreshold":0.05,"exampleCost":0.01},"classroomParams":{"A":{"a":1,"b":4},"B":{"a":4,"b":1},"C":{"a":2,"b":8},"D":{"a":8,"b":2}},"conditions":["nonSeqFull","nonSeqPartial","seqNoFeedback","seqFeedback"],"classroomPairings":[["A","B"],["C","D"]],"coinWeights":[0.2,0.5,0.8],"subjectId":"A1ILD5BPLI8X1P","assignmentId":"37Z929RLGAUCV9YE5JBCJ9XYG4ZSTX","hitId":"34XASH8KLQ89J2U8D314D7180O4PMV","url":"https://gershmanlab.com/experiments/alicia/teaching/experiment/?hitId=34XASH8KLQ89J2U8D314D7180O4PMV&workerId=A1ILD5BPLI8X1P&assignmentId=37Z929RLGAUCV9YE5JBCJ9XYG4ZSTX&a=L2Z77&tp_a=L2Z77&b=37Z929RLGAUCV9YE5JBCJ9XYG4ZSTX&tp_b=37Z929RLGAUCV9YE5JBCJ9XYG4ZSTX&c=365717&tp_c=365717","firstResponseHeads":8,"firstResponseTails":2,"secondResponseHeads":8,"secondResponseTails":2,"totalHeads":16,"totalTails":4,"studentIndex":4,"studentTrueHypers":{"a":1,"b":4},"studentGuess":0.68,"delta":0.12,"bonus":0,"bonusSoFar":0.5,"totalExamples":20},{"rt":null,"stimulus":"Sending examples to student... ","response":null,"trial_type":"html-keyboard-response","trial_index":47,"time_elapsed":420634,"internal_node_id":"0.0-46.0","params":{"nStudents":24,"maxFlips":30,"completionMinutes":45,"basePay":8,"maxBonus":9,"perTrialBonus":0.5,"perTrialBonusThreshold":0.05,"exampleCost":0.01},"classroomParams":{"A":{"a":1,"b":4},"B":{"a":4,"b":1},"C":{"a":2,"b":8},"D":{"a":8,"b":2}},"conditions":["nonSeqFull","nonSeqPartial","seqNoFeedback","seqFeedback"],"classroomPairings":[["A","B"],["C","D"]],"coinWeights":[0.2,0.5,0.8],"subjectId":"A1ILD5BPLI8X1P","assignmentId":"37Z929RLGAUCV9YE5JBCJ9XYG4ZSTX","hitId":"34XASH8KLQ89J2U8D314D7180O4PMV","url":"https://gershmanlab.com/experiments/alicia/teaching/experiment/?hitId=34XASH8KLQ89J2U8D314D7180O4PMV&workerId=A1ILD5BPLI8X1P&assignmentId=37Z929RLGAUCV9YE5JBCJ9XYG4ZSTX&a=L2Z77&tp_a=L2Z77&b=37Z929RLGAUCV9YE5JBCJ9XYG4ZSTX&tp_b=37Z929RLGAUCV9YE5JBCJ9XYG4ZSTX&c=365717&tp_c=365717"},{"rt":null,"stimulus":"Examples sent to student! Waiting for student...","response":null,"trial_type":"html-keyboard-response","trial_index":48,"time_elapsed":424636,"internal_node_id":"0.0-47.0","params":{"nStudents":24,"maxFlips":30,"completionMinutes":45,"basePay":8,"maxBonus":9,"perTrialBonus":0.5,"perTrialBonusThreshold":0.05,"exampleCost":0.01},"classroomParams":{"A":{"a":1,"b":4},"B":{"a":4,"b":1},"C":{"a":2,"b":8},"D":{"a":8,"b":2}},"conditions":["nonSeqFull","nonSeqPartial","seqNoFeedback","seqFeedback"],"classroomPairings":[["A","B"],["C","D"]],"coinWeights":[0.2,0.5,0.8],"subjectId":"A1ILD5BPLI8X1P","assignmentId":"37Z929RLGAUCV9YE5JBCJ9XYG4ZSTX","hitId":"34XASH8KLQ89J2U8D314D7180O4PMV","url":"https://gershmanlab.com/experiments/alicia/teaching/experiment/?hitId=34XASH8KLQ89J2U8D314D7180O4PMV&workerId=A1ILD5BPLI8X1P&assignmentId=37Z929RLGAUCV9YE5JBCJ9XYG4ZSTX&a=L2Z77&tp_a=L2Z77&b=37Z929RLGAUCV9YE5JBCJ9XYG4ZSTX&tp_b=37Z929RLGAUCV9YE5JBCJ9XYG4ZSTX&c=365717&tp_c=365717"},{"rt":2245,"stimulus":"\n                <p>Student 5's first guess for coin weight: <b style=\"color:Tomato\";>0.60</b></p>\n                <p>Student 5's second guess for coin weight: <b style=\"color:Tomato\";>0.68</b></p>\n                <p>You received a bonus of <b>$0.00</b> based on the student's second guess.</p>\n                <p>Total bonus so far: <b>$0.50</b></p>\n                <p>Press any key to continue.</p>\n                ","response":"tab","trial_type":"html-keyboard-response","trial_index":49,"time_elapsed":426882,"internal_node_id":"0.0-48.0","params":{"nStudents":24,"maxFlips":30,"completionMinutes":45,"basePay":8,"maxBonus":9,"perTrialBonus":0.5,"perTrialBonusThreshold":0.05,"exampleCost":0.01},"classroomParams":{"A":{"a":1,"b":4},"B":{"a":4,"b":1},"C":{"a":2,"b":8},"D":{"a":8,"b":2}},"conditions":["nonSeqFull","nonSeqPartial","seqNoFeedback","seqFeedback"],"classroomPairings":[["A","B"],["C","D"]],"coinWeights":[0.2,0.5,0.8],"subjectId":"A1ILD5BPLI8X1P","assignmentId":"37Z929RLGAUCV9YE5JBCJ9XYG4ZSTX","hitId":"34XASH8KLQ89J2U8D314D7180O4PMV","url":"https://gershmanlab.com/experiments/alicia/teaching/experiment/?hitId=34XASH8KLQ89J2U8D314D7180O4PMV&workerId=A1ILD5BPLI8X1P&assignmentId=37Z929RLGAUCV9YE5JBCJ9XYG4ZSTX&a=L2Z77&tp_a=L2Z77&b=37Z929RLGAUCV9YE5JBCJ9XYG4ZSTX&tp_b=37Z929RLGAUCV9YE5JBCJ9XYG4ZSTX&c=365717&tp_c=365717"},{"rt":null,"stimulus":"<div style=\"font-size:60px;\">Next student</div>","response":null,"trial_type":"html-keyboard-response","trial_index":50,"time_elapsed":429385,"internal_node_id":"0.0-49.0-0.0","params":{"nStudents":24,"maxFlips":30,"completionMinutes":45,"basePay":8,"maxBonus":9,"perTrialBonus":0.5,"perTrialBonusThreshold":0.05,"exampleCost":0.01},"classroomParams":{"A":{"a":1,"b":4},"B":{"a":4,"b":1},"C":{"a":2,"b":8},"D":{"a":8,"b":2}},"conditions":["nonSeqFull","nonSeqPartial","seqNoFeedback","seqFeedback"],"classroomPairings":[["A","B"],["C","D"]],"coinWeights":[0.2,0.5,0.8],"subjectId":"A1ILD5BPLI8X1P","assignmentId":"37Z929RLGAUCV9YE5JBCJ9XYG4ZSTX","hitId":"34XASH8KLQ89J2U8D314D7180O4PMV","url":"https://gershmanlab.com/experiments/alicia/teaching/experiment/?hitId=34XASH8KLQ89J2U8D314D7180O4PMV&workerId=A1ILD5BPLI8X1P&assignmentId=37Z929RLGAUCV9YE5JBCJ9XYG4ZSTX&a=L2Z77&tp_a=L2Z77&b=37Z929RLGAUCV9YE5JBCJ9XYG4ZSTX&tp_b=37Z929RLGAUCV9YE5JBCJ9XYG4ZSTX&c=365717&tp_c=365717"},{"rt":1986,"stimulus":"\n            <h4 style=\"color:Orange;\">Student 6</h4>\n            <h2>The weight of your coin is <b style=\"color:Tomato;\">0.8</b>.</h2>\n            <p>In this block, you will be giving <b>two</b> sets of examples to Student 6.</p>\n                <p>You will receive feedback at the end of the block.</p>\n            <p></p>","response":0,"trial_type":"html-button-response","trial_index":51,"time_elapsed":431372,"internal_node_id":"0.0-50.0","params":{"nStudents":24,"maxFlips":30,"completionMinutes":45,"basePay":8,"maxBonus":9,"perTrialBonus":0.5,"perTrialBonusThreshold":0.05,"exampleCost":0.01},"classroomParams":{"A":{"a":1,"b":4},"B":{"a":4,"b":1},"C":{"a":2,"b":8},"D":{"a":8,"b":2}},"conditions":["nonSeqFull","nonSeqPartial","seqNoFeedback","seqFeedback"],"classroomPairings":[["A","B"],["C","D"]],"coinWeights":[0.2,0.5,0.8],"subjectId":"A1ILD5BPLI8X1P","assignmentId":"37Z929RLGAUCV9YE5JBCJ9XYG4ZSTX","hitId":"34XASH8KLQ89J2U8D314D7180O4PMV","url":"https://gershmanlab.com/experiments/alicia/teaching/experiment/?hitId=34XASH8KLQ89J2U8D314D7180O4PMV&workerId=A1ILD5BPLI8X1P&assignmentId=37Z929RLGAUCV9YE5JBCJ9XYG4ZSTX&a=L2Z77&tp_a=L2Z77&b=37Z929RLGAUCV9YE5JBCJ9XYG4ZSTX&tp_b=37Z929RLGAUCV9YE5JBCJ9XYG4ZSTX&c=365717&tp_c=365717"},{"rt":6096,"response":{"heads":"8","tails":"2"},"type":"response","condition":"seqNoFeedback","trueTheta":0.8,"classrooms":["C","D"],"studentTrueClassroom":"C","exampleSet":"first","trial_type":"survey-html-form","trial_index":52,"time_elapsed":437469,"internal_node_id":"0.0-51.0-0.0","params":{"nStudents":24,"maxFlips":30,"completionMinutes":45,"basePay":8,"maxBonus":9,"perTrialBonus":0.5,"perTrialBonusThreshold":0.05,"exampleCost":0.01},"classroomParams":{"A":{"a":1,"b":4},"B":{"a":4,"b":1},"C":{"a":2,"b":8},"D":{"a":8,"b":2}},"conditions":["nonSeqFull","nonSeqPartial","seqNoFeedback","seqFeedback"],"classroomPairings":[["A","B"],["C","D"]],"coinWeights":[0.2,0.5,0.8],"subjectId":"A1ILD5BPLI8X1P","assignmentId":"37Z929RLGAUCV9YE5JBCJ9XYG4ZSTX","hitId":"34XASH8KLQ89J2U8D314D7180O4PMV","url":"https://gershmanlab.com/experiments/alicia/teaching/experiment/?hitId=34XASH8KLQ89J2U8D314D7180O4PMV&workerId=A1ILD5BPLI8X1P&assignmentId=37Z929RLGAUCV9YE5JBCJ9XYG4ZSTX&a=L2Z77&tp_a=L2Z77&b=37Z929RLGAUCV9YE5JBCJ9XYG4ZSTX&tp_b=37Z929RLGAUCV9YE5JBCJ9XYG4ZSTX&c=365717&tp_c=365717","heads":8,"tails":2,"studentIndex":5,"studentTrueHypers":{"a":2,"b":8},"studentGuess":0.5,"delta":0.30000000000000004,"totalExamples":10,"bonusSoFar":0.5},{"rt":null,"stimulus":"Sending examples to student... ","response":null,"trial_type":"html-keyboard-response","trial_index":53,"time_elapsed":438729,"internal_node_id":"0.0-52.0","params":{"nStudents":24,"maxFlips":30,"completionMinutes":45,"basePay":8,"maxBonus":9,"perTrialBonus":0.5,"perTrialBonusThreshold":0.05,"exampleCost":0.01},"classroomParams":{"A":{"a":1,"b":4},"B":{"a":4,"b":1},"C":{"a":2,"b":8},"D":{"a":8,"b":2}},"conditions":["nonSeqFull","nonSeqPartial","seqNoFeedback","seqFeedback"],"classroomPairings":[["A","B"],["C","D"]],"coinWeights":[0.2,0.5,0.8],"subjectId":"A1ILD5BPLI8X1P","assignmentId":"37Z929RLGAUCV9YE5JBCJ9XYG4ZSTX","hitId":"34XASH8KLQ89J2U8D314D7180O4PMV","url":"https://gershmanlab.com/experiments/alicia/teaching/experiment/?hitId=34XASH8KLQ89J2U8D314D7180O4PMV&workerId=A1ILD5BPLI8X1P&assignmentId=37Z929RLGAUCV9YE5JBCJ9XYG4ZSTX&a=L2Z77&tp_a=L2Z77&b=37Z929RLGAUCV9YE5JBCJ9XYG4ZSTX&tp_b=37Z929RLGAUCV9YE5JBCJ9XYG4ZSTX&c=365717&tp_c=365717"},{"rt":null,"stimulus":"Examples sent to student! Waiting for student...","response":null,"trial_type":"html-keyboard-response","trial_index":54,"time_elapsed":444235,"internal_node_id":"0.0-53.0","params":{"nStudents":24,"maxFlips":30,"completionMinutes":45,"basePay":8,"maxBonus":9,"perTrialBonus":0.5,"perTrialBonusThreshold":0.05,"exampleCost":0.01},"classroomParams":{"A":{"a":1,"b":4},"B":{"a":4,"b":1},"C":{"a":2,"b":8},"D":{"a":8,"b":2}},"conditions":["nonSeqFull","nonSeqPartial","seqNoFeedback","seqFeedback"],"classroomPairings":[["A","B"],["C","D"]],"coinWeights":[0.2,0.5,0.8],"subjectId":"A1ILD5BPLI8X1P","assignmentId":"37Z929RLGAUCV9YE5JBCJ9XYG4ZSTX","hitId":"34XASH8KLQ89J2U8D314D7180O4PMV","url":"https://gershmanlab.com/experiments/alicia/teaching/experiment/?hitId=34XASH8KLQ89J2U8D314D7180O4PMV&workerId=A1ILD5BPLI8X1P&assignmentId=37Z929RLGAUCV9YE5JBCJ9XYG4ZSTX&a=L2Z77&tp_a=L2Z77&b=37Z929RLGAUCV9YE5JBCJ9XYG4ZSTX&tp_b=37Z929RLGAUCV9YE5JBCJ9XYG4ZSTX&c=365717&tp_c=365717"},{"rt":6450,"response":{"heads":"8","tails":"2"},"type":"response","condition":"seqNoFeedback","trueTheta":0.8,"classrooms":["C","D"],"studentTrueClassroom":"C","exampleSet":"second","trial_type":"survey-html-form","trial_index":55,"time_elapsed":450687,"internal_node_id":"0.0-54.0-0.0","params":{"nStudents":24,"maxFlips":30,"completionMinutes":45,"basePay":8,"maxBonus":9,"perTrialBonus":0.5,"perTrialBonusThreshold":0.05,"exampleCost":0.01},"classroomParams":{"A":{"a":1,"b":4},"B":{"a":4,"b":1},"C":{"a":2,"b":8},"D":{"a":8,"b":2}},"conditions":["nonSeqFull","nonSeqPartial","seqNoFeedback","seqFeedback"],"classroomPairings":[["A","B"],["C","D"]],"coinWeights":[0.2,0.5,0.8],"subjectId":"A1ILD5BPLI8X1P","assignmentId":"37Z929RLGAUCV9YE5JBCJ9XYG4ZSTX","hitId":"34XASH8KLQ89J2U8D314D7180O4PMV","url":"https://gershmanlab.com/experiments/alicia/teaching/experiment/?hitId=34XASH8KLQ89J2U8D314D7180O4PMV&workerId=A1ILD5BPLI8X1P&assignmentId=37Z929RLGAUCV9YE5JBCJ9XYG4ZSTX&a=L2Z77&tp_a=L2Z77&b=37Z929RLGAUCV9YE5JBCJ9XYG4ZSTX&tp_b=37Z929RLGAUCV9YE5JBCJ9XYG4ZSTX&c=365717&tp_c=365717","firstResponseHeads":8,"firstResponseTails":2,"secondResponseHeads":8,"secondResponseTails":2,"totalHeads":16,"totalTails":4,"studentIndex":5,"studentTrueHypers":{"a":2,"b":8},"studentGuess":0.6,"delta":0.20000000000000007,"bonus":0,"bonusSoFar":0.5,"totalExamples":20},{"rt":null,"stimulus":"Sending examples to student... ","response":null,"trial_type":"html-keyboard-response","trial_index":56,"time_elapsed":452688,"internal_node_id":"0.0-55.0","params":{"nStudents":24,"maxFlips":30,"completionMinutes":45,"basePay":8,"maxBonus":9,"perTrialBonus":0.5,"perTrialBonusThreshold":0.05,"exampleCost":0.01},"classroomParams":{"A":{"a":1,"b":4},"B":{"a":4,"b":1},"C":{"a":2,"b":8},"D":{"a":8,"b":2}},"conditions":["nonSeqFull","nonSeqPartial","seqNoFeedback","seqFeedback"],"classroomPairings":[["A","B"],["C","D"]],"coinWeights":[0.2,0.5,0.8],"subjectId":"A1ILD5BPLI8X1P","assignmentId":"37Z929RLGAUCV9YE5JBCJ9XYG4ZSTX","hitId":"34XASH8KLQ89J2U8D314D7180O4PMV","url":"https://gershmanlab.com/experiments/alicia/teaching/experiment/?hitId=34XASH8KLQ89J2U8D314D7180O4PMV&workerId=A1ILD5BPLI8X1P&assignmentId=37Z929RLGAUCV9YE5JBCJ9XYG4ZSTX&a=L2Z77&tp_a=L2Z77&b=37Z929RLGAUCV9YE5JBCJ9XYG4ZSTX&tp_b=37Z929RLGAUCV9YE5JBCJ9XYG4ZSTX&c=365717&tp_c=365717"},{"rt":null,"stimulus":"Examples sent to student! Waiting for student...","response":null,"trial_type":"html-keyboard-response","trial_index":57,"time_elapsed":457197,"internal_node_id":"0.0-56.0","params":{"nStudents":24,"maxFlips":30,"completionMinutes":45,"basePay":8,"maxBonus":9,"perTrialBonus":0.5,"perTrialBonusThreshold":0.05,"exampleCost":0.01},"classroomParams":{"A":{"a":1,"b":4},"B":{"a":4,"b":1},"C":{"a":2,"b":8},"D":{"a":8,"b":2}},"conditions":["nonSeqFull","nonSeqPartial","seqNoFeedback","seqFeedback"],"classroomPairings":[["A","B"],["C","D"]],"coinWeights":[0.2,0.5,0.8],"subjectId":"A1ILD5BPLI8X1P","assignmentId":"37Z929RLGAUCV9YE5JBCJ9XYG4ZSTX","hitId":"34XASH8KLQ89J2U8D314D7180O4PMV","url":"https://gershmanlab.com/experiments/alicia/teaching/experiment/?hitId=34XASH8KLQ89J2U8D314D7180O4PMV&workerId=A1ILD5BPLI8X1P&assignmentId=37Z929RLGAUCV9YE5JBCJ9XYG4ZSTX&a=L2Z77&tp_a=L2Z77&b=37Z929RLGAUCV9YE5JBCJ9XYG4ZSTX&tp_b=37Z929RLGAUCV9YE5JBCJ9XYG4ZSTX&c=365717&tp_c=365717"},{"rt":8000,"stimulus":"\n                <p>Student 6's first guess for coin weight: <b style=\"color:Tomato\";>0.50</b></p>\n                <p>Student 6's second guess for coin weight: <b style=\"color:Tomato\";>0.60</b></p>\n                <p>You received a bonus of <b>$0.00</b> based on the student's second guess.</p>\n                <p>Total bonus so far: <b>$0.50</b></p>\n                <p>Press any key to continue.</p>\n                ","response":"enter","trial_type":"html-keyboard-response","trial_index":58,"time_elapsed":465199,"internal_node_id":"0.0-57.0","params":{"nStudents":24,"maxFlips":30,"completionMinutes":45,"basePay":8,"maxBonus":9,"perTrialBonus":0.5,"perTrialBonusThreshold":0.05,"exampleCost":0.01},"classroomParams":{"A":{"a":1,"b":4},"B":{"a":4,"b":1},"C":{"a":2,"b":8},"D":{"a":8,"b":2}},"conditions":["nonSeqFull","nonSeqPartial","seqNoFeedback","seqFeedback"],"classroomPairings":[["A","B"],["C","D"]],"coinWeights":[0.2,0.5,0.8],"subjectId":"A1ILD5BPLI8X1P","assignmentId":"37Z929RLGAUCV9YE5JBCJ9XYG4ZSTX","hitId":"34XASH8KLQ89J2U8D314D7180O4PMV","url":"https://gershmanlab.com/experiments/alicia/teaching/experiment/?hitId=34XASH8KLQ89J2U8D314D7180O4PMV&workerId=A1ILD5BPLI8X1P&assignmentId=37Z929RLGAUCV9YE5JBCJ9XYG4ZSTX&a=L2Z77&tp_a=L2Z77&b=37Z929RLGAUCV9YE5JBCJ9XYG4ZSTX&tp_b=37Z929RLGAUCV9YE5JBCJ9XYG4ZSTX&c=365717&tp_c=365717"},{"rt":null,"stimulus":"<div style=\"font-size:60px;\">Next student</div>","response":null,"trial_type":"html-keyboard-response","trial_index":59,"time_elapsed":468202,"internal_node_id":"0.0-58.0-0.0","params":{"nStudents":24,"maxFlips":30,"completionMinutes":45,"basePay":8,"maxBonus":9,"perTrialBonus":0.5,"perTrialBonusThreshold":0.05,"exampleCost":0.01},"classroomParams":{"A":{"a":1,"b":4},"B":{"a":4,"b":1},"C":{"a":2,"b":8},"D":{"a":8,"b":2}},"conditions":["nonSeqFull","nonSeqPartial","seqNoFeedback","seqFeedback"],"classroomPairings":[["A","B"],["C","D"]],"coinWeights":[0.2,0.5,0.8],"subjectId":"A1ILD5BPLI8X1P","assignmentId":"37Z929RLGAUCV9YE5JBCJ9XYG4ZSTX","hitId":"34XASH8KLQ89J2U8D314D7180O4PMV","url":"https://gershmanlab.com/experiments/alicia/teaching/experiment/?hitId=34XASH8KLQ89J2U8D314D7180O4PMV&workerId=A1ILD5BPLI8X1P&assignmentId=37Z929RLGAUCV9YE5JBCJ9XYG4ZSTX&a=L2Z77&tp_a=L2Z77&b=37Z929RLGAUCV9YE5JBCJ9XYG4ZSTX&tp_b=37Z929RLGAUCV9YE5JBCJ9XYG4ZSTX&c=365717&tp_c=365717"},{"rt":4183,"stimulus":"\n            <h4 style=\"color:Orange;\">Student 7</h4>\n            <h2>The weight of your coin is <b style=\"color:Tomato;\">0.2</b>.</h2>\n            <p>In this block, you will be giving <b>two</b> sets of examples to Student 7.</p>\n                <p>You will see the student's guess after the first set of examples. You will also receive feedback at the end of the block.</p>\n            <p>To earn the highest bonus, you will have to <b>take into consideration the student's guess</b> when you choose your second set of examples.</p>","response":0,"trial_type":"html-button-response","trial_index":60,"time_elapsed":472386,"internal_node_id":"0.0-59.0","params":{"nStudents":24,"maxFlips":30,"completionMinutes":45,"basePay":8,"maxBonus":9,"perTrialBonus":0.5,"perTrialBonusThreshold":0.05,"exampleCost":0.01},"classroomParams":{"A":{"a":1,"b":4},"B":{"a":4,"b":1},"C":{"a":2,"b":8},"D":{"a":8,"b":2}},"conditions":["nonSeqFull","nonSeqPartial","seqNoFeedback","seqFeedback"],"classroomPairings":[["A","B"],["C","D"]],"coinWeights":[0.2,0.5,0.8],"subjectId":"A1ILD5BPLI8X1P","assignmentId":"37Z929RLGAUCV9YE5JBCJ9XYG4ZSTX","hitId":"34XASH8KLQ89J2U8D314D7180O4PMV","url":"https://gershmanlab.com/experiments/alicia/teaching/experiment/?hitId=34XASH8KLQ89J2U8D314D7180O4PMV&workerId=A1ILD5BPLI8X1P&assignmentId=37Z929RLGAUCV9YE5JBCJ9XYG4ZSTX&a=L2Z77&tp_a=L2Z77&b=37Z929RLGAUCV9YE5JBCJ9XYG4ZSTX&tp_b=37Z929RLGAUCV9YE5JBCJ9XYG4ZSTX&c=365717&tp_c=365717"},{"rt":3121,"response":{"heads":"2","tails":"8"},"type":"response","condition":"seqFeedback","trueTheta":0.2,"classrooms":["A","B"],"studentTrueClassroom":"B","exampleSet":"first","trial_type":"survey-html-form","trial_index":61,"time_elapsed":475508,"internal_node_id":"0.0-60.0-0.0","params":{"nStudents":24,"maxFlips":30,"completionMinutes":45,"basePay":8,"maxBonus":9,"perTrialBonus":0.5,"perTrialBonusThreshold":0.05,"exampleCost":0.01},"classroomParams":{"A":{"a":1,"b":4},"B":{"a":4,"b":1},"C":{"a":2,"b":8},"D":{"a":8,"b":2}},"conditions":["nonSeqFull","nonSeqPartial","seqNoFeedback","seqFeedback"],"classroomPairings":[["A","B"],["C","D"]],"coinWeights":[0.2,0.5,0.8],"subjectId":"A1ILD5BPLI8X1P","assignmentId":"37Z929RLGAUCV9YE5JBCJ9XYG4ZSTX","hitId":"34XASH8KLQ89J2U8D314D7180O4PMV","url":"https://gershmanlab.com/experiments/alicia/teaching/experiment/?hitId=34XASH8KLQ89J2U8D314D7180O4PMV&workerId=A1ILD5BPLI8X1P&assignmentId=37Z929RLGAUCV9YE5JBCJ9XYG4ZSTX&a=L2Z77&tp_a=L2Z77&b=37Z929RLGAUCV9YE5JBCJ9XYG4ZSTX&tp_b=37Z929RLGAUCV9YE5JBCJ9XYG4ZSTX&c=365717&tp_c=365717","heads":2,"tails":8,"studentIndex":6,"studentTrueHypers":{"a":4,"b":1},"studentGuess":0.4,"delta":0.2,"totalExamples":10,"bonusSoFar":0.5},{"rt":null,"stimulus":"Sending examples to student... ","response":null,"trial_type":"html-keyboard-response","trial_index":62,"time_elapsed":477522,"internal_node_id":"0.0-61.0","params":{"nStudents":24,"maxFlips":30,"completionMinutes":45,"basePay":8,"maxBonus":9,"perTrialBonus":0.5,"perTrialBonusThreshold":0.05,"exampleCost":0.01},"classroomParams":{"A":{"a":1,"b":4},"B":{"a":4,"b":1},"C":{"a":2,"b":8},"D":{"a":8,"b":2}},"conditions":["nonSeqFull","nonSeqPartial","seqNoFeedback","seqFeedback"],"classroomPairings":[["A","B"],["C","D"]],"coinWeights":[0.2,0.5,0.8],"subjectId":"A1ILD5BPLI8X1P","assignmentId":"37Z929RLGAUCV9YE5JBCJ9XYG4ZSTX","hitId":"34XASH8KLQ89J2U8D314D7180O4PMV","url":"https://gershmanlab.com/experiments/alicia/teaching/experiment/?hitId=34XASH8KLQ89J2U8D314D7180O4PMV&workerId=A1ILD5BPLI8X1P&assignmentId=37Z929RLGAUCV9YE5JBCJ9XYG4ZSTX&a=L2Z77&tp_a=L2Z77&b=37Z929RLGAUCV9YE5JBCJ9XYG4ZSTX&tp_b=37Z929RLGAUCV9YE5JBCJ9XYG4ZSTX&c=365717&tp_c=365717"},{"rt":null,"stimulus":"Examples sent to student! Waiting for student...","response":null,"trial_type":"html-keyboard-response","trial_index":63,"time_elapsed":483525,"internal_node_id":"0.0-62.0","params":{"nStudents":24,"maxFlips":30,"completionMinutes":45,"basePay":8,"maxBonus":9,"perTrialBonus":0.5,"perTrialBonusThreshold":0.05,"exampleCost":0.01},"classroomParams":{"A":{"a":1,"b":4},"B":{"a":4,"b":1},"C":{"a":2,"b":8},"D":{"a":8,"b":2}},"conditions":["nonSeqFull","nonSeqPartial","seqNoFeedback","seqFeedback"],"classroomPairings":[["A","B"],["C","D"]],"coinWeights":[0.2,0.5,0.8],"subjectId":"A1ILD5BPLI8X1P","assignmentId":"37Z929RLGAUCV9YE5JBCJ9XYG4ZSTX","hitId":"34XASH8KLQ89J2U8D314D7180O4PMV","url":"https://gershmanlab.com/experiments/alicia/teaching/experiment/?hitId=34XASH8KLQ89J2U8D314D7180O4PMV&workerId=A1ILD5BPLI8X1P&assignmentId=37Z929RLGAUCV9YE5JBCJ9XYG4ZSTX&a=L2Z77&tp_a=L2Z77&b=37Z929RLGAUCV9YE5JBCJ9XYG4ZSTX&tp_b=37Z929RLGAUCV9YE5JBCJ9XYG4ZSTX&c=365717&tp_c=365717"},{"rt":3636,"stimulus":"\n                <p>Student's guess for coin weight: <b style=\"color:Tomato;\">0.40</b></p>\n                <p></b></p>\n                <p>You will now send another set of examples to your student. <b>Remember to take your student's guess into consideration so that you can earn the highest bonus possible!</b> </p>\n                <p>Press any key to continue.</p>\n                ","response":"tab","trial_type":"html-keyboard-response","trial_index":64,"time_elapsed":487162,"internal_node_id":"0.0-63.0","params":{"nStudents":24,"maxFlips":30,"completionMinutes":45,"basePay":8,"maxBonus":9,"perTrialBonus":0.5,"perTrialBonusThreshold":0.05,"exampleCost":0.01},"classroomParams":{"A":{"a":1,"b":4},"B":{"a":4,"b":1},"C":{"a":2,"b":8},"D":{"a":8,"b":2}},"conditions":["nonSeqFull","nonSeqPartial","seqNoFeedback","seqFeedback"],"classroomPairings":[["A","B"],["C","D"]],"coinWeights":[0.2,0.5,0.8],"subjectId":"A1ILD5BPLI8X1P","assignmentId":"37Z929RLGAUCV9YE5JBCJ9XYG4ZSTX","hitId":"34XASH8KLQ89J2U8D314D7180O4PMV","url":"https://gershmanlab.com/experiments/alicia/teaching/experiment/?hitId=34XASH8KLQ89J2U8D314D7180O4PMV&workerId=A1ILD5BPLI8X1P&assignmentId=37Z929RLGAUCV9YE5JBCJ9XYG4ZSTX&a=L2Z77&tp_a=L2Z77&b=37Z929RLGAUCV9YE5JBCJ9XYG4ZSTX&tp_b=37Z929RLGAUCV9YE5JBCJ9XYG4ZSTX&c=365717&tp_c=365717"},{"rt":4356,"response":{"heads":"1","tails":"9"},"type":"response","condition":"seqFeedback","trueTheta":0.2,"classrooms":["A","B"],"studentTrueClassroom":"B","exampleSet":"second","trial_type":"survey-html-form","trial_index":65,"time_elapsed":491519,"internal_node_id":"0.0-64.0-0.0","params":{"nStudents":24,"maxFlips":30,"completionMinutes":45,"basePay":8,"maxBonus":9,"perTrialBonus":0.5,"perTrialBonusThreshold":0.05,"exampleCost":0.01},"classroomParams":{"A":{"a":1,"b":4},"B":{"a":4,"b":1},"C":{"a":2,"b":8},"D":{"a":8,"b":2}},"conditions":["nonSeqFull","nonSeqPartial","seqNoFeedback","seqFeedback"],"classroomPairings":[["A","B"],["C","D"]],"coinWeights":[0.2,0.5,0.8],"subjectId":"A1ILD5BPLI8X1P","assignmentId":"37Z929RLGAUCV9YE5JBCJ9XYG4ZSTX","hitId":"34XASH8KLQ89J2U8D314D7180O4PMV","url":"https://gershmanlab.com/experiments/alicia/teaching/experiment/?hitId=34XASH8KLQ89J2U8D314D7180O4PMV&workerId=A1ILD5BPLI8X1P&assignmentId=37Z929RLGAUCV9YE5JBCJ9XYG4ZSTX&a=L2Z77&tp_a=L2Z77&b=37Z929RLGAUCV9YE5JBCJ9XYG4ZSTX&tp_b=37Z929RLGAUCV9YE5JBCJ9XYG4ZSTX&c=365717&tp_c=365717","firstResponseHeads":2,"firstResponseTails":8,"secondResponseHeads":1,"secondResponseTails":9,"totalHeads":3,"totalTails":17,"studentIndex":6,"studentTrueHypers":{"a":4,"b":1},"studentGuess":0.28,"delta":0.08000000000000002,"bonus":0,"bonusSoFar":0.5,"totalExamples":20},{"rt":null,"stimulus":"Sending examples to student... ","response":null,"trial_type":"html-keyboard-response","trial_index":66,"time_elapsed":493029,"internal_node_id":"0.0-65.0","params":{"nStudents":24,"maxFlips":30,"completionMinutes":45,"basePay":8,"maxBonus":9,"perTrialBonus":0.5,"perTrialBonusThreshold":0.05,"exampleCost":0.01},"classroomParams":{"A":{"a":1,"b":4},"B":{"a":4,"b":1},"C":{"a":2,"b":8},"D":{"a":8,"b":2}},"conditions":["nonSeqFull","nonSeqPartial","seqNoFeedback","seqFeedback"],"classroomPairings":[["A","B"],["C","D"]],"coinWeights":[0.2,0.5,0.8],"subjectId":"A1ILD5BPLI8X1P","assignmentId":"37Z929RLGAUCV9YE5JBCJ9XYG4ZSTX","hitId":"34XASH8KLQ89J2U8D314D7180O4PMV","url":"https://gershmanlab.com/experiments/alicia/teaching/experiment/?hitId=34XASH8KLQ89J2U8D314D7180O4PMV&workerId=A1ILD5BPLI8X1P&assignmentId=37Z929RLGAUCV9YE5JBCJ9XYG4ZSTX&a=L2Z77&tp_a=L2Z77&b=37Z929RLGAUCV9YE5JBCJ9XYG4ZSTX&tp_b=37Z929RLGAUCV9YE5JBCJ9XYG4ZSTX&c=365717&tp_c=365717"},{"rt":null,"stimulus":"Examples sent to student! Waiting for student...","response":null,"trial_type":"html-keyboard-response","trial_index":67,"time_elapsed":498542,"internal_node_id":"0.0-66.0","params":{"nStudents":24,"maxFlips":30,"completionMinutes":45,"basePay":8,"maxBonus":9,"perTrialBonus":0.5,"perTrialBonusThreshold":0.05,"exampleCost":0.01},"classroomParams":{"A":{"a":1,"b":4},"B":{"a":4,"b":1},"C":{"a":2,"b":8},"D":{"a":8,"b":2}},"conditions":["nonSeqFull","nonSeqPartial","seqNoFeedback","seqFeedback"],"classroomPairings":[["A","B"],["C","D"]],"coinWeights":[0.2,0.5,0.8],"subjectId":"A1ILD5BPLI8X1P","assignmentId":"37Z929RLGAUCV9YE5JBCJ9XYG4ZSTX","hitId":"34XASH8KLQ89J2U8D314D7180O4PMV","url":"https://gershmanlab.com/experiments/alicia/teaching/experiment/?hitId=34XASH8KLQ89J2U8D314D7180O4PMV&workerId=A1ILD5BPLI8X1P&assignmentId=37Z929RLGAUCV9YE5JBCJ9XYG4ZSTX&a=L2Z77&tp_a=L2Z77&b=37Z929RLGAUCV9YE5JBCJ9XYG4ZSTX&tp_b=37Z929RLGAUCV9YE5JBCJ9XYG4ZSTX&c=365717&tp_c=365717"},{"rt":5397,"stimulus":"\n                <p>Student 7's first guess for coin weight: <b style=\"color:Tomato\";>0.40</b></p>\n                <p>Student 7's second guess for coin weight: <b style=\"color:Tomato\";>0.28</b></p>\n                <p>You received a bonus of <b>$0.00</b> based on the student's second guess.</p>\n                <p>Total bonus so far: <b>$0.50</b></p>\n                <p>Press any key to continue.</p>\n                ","response":"enter","trial_type":"html-keyboard-response","trial_index":68,"time_elapsed":503941,"internal_node_id":"0.0-67.0","params":{"nStudents":24,"maxFlips":30,"completionMinutes":45,"basePay":8,"maxBonus":9,"perTrialBonus":0.5,"perTrialBonusThreshold":0.05,"exampleCost":0.01},"classroomParams":{"A":{"a":1,"b":4},"B":{"a":4,"b":1},"C":{"a":2,"b":8},"D":{"a":8,"b":2}},"conditions":["nonSeqFull","nonSeqPartial","seqNoFeedback","seqFeedback"],"classroomPairings":[["A","B"],["C","D"]],"coinWeights":[0.2,0.5,0.8],"subjectId":"A1ILD5BPLI8X1P","assignmentId":"37Z929RLGAUCV9YE5JBCJ9XYG4ZSTX","hitId":"34XASH8KLQ89J2U8D314D7180O4PMV","url":"https://gershmanlab.com/experiments/alicia/teaching/experiment/?hitId=34XASH8KLQ89J2U8D314D7180O4PMV&workerId=A1ILD5BPLI8X1P&assignmentId=37Z929RLGAUCV9YE5JBCJ9XYG4ZSTX&a=L2Z77&tp_a=L2Z77&b=37Z929RLGAUCV9YE5JBCJ9XYG4ZSTX&tp_b=37Z929RLGAUCV9YE5JBCJ9XYG4ZSTX&c=365717&tp_c=365717"},{"rt":null,"stimulus":"<div style=\"font-size:60px;\">Next student</div>","response":null,"trial_type":"html-keyboard-response","trial_index":69,"time_elapsed":506449,"internal_node_id":"0.0-68.0-0.0","params":{"nStudents":24,"maxFlips":30,"completionMinutes":45,"basePay":8,"maxBonus":9,"perTrialBonus":0.5,"perTrialBonusThreshold":0.05,"exampleCost":0.01},"classroomParams":{"A":{"a":1,"b":4},"B":{"a":4,"b":1},"C":{"a":2,"b":8},"D":{"a":8,"b":2}},"conditions":["nonSeqFull","nonSeqPartial","seqNoFeedback","seqFeedback"],"classroomPairings":[["A","B"],["C","D"]],"coinWeights":[0.2,0.5,0.8],"subjectId":"A1ILD5BPLI8X1P","assignmentId":"37Z929RLGAUCV9YE5JBCJ9XYG4ZSTX","hitId":"34XASH8KLQ89J2U8D314D7180O4PMV","url":"https://gershmanlab.com/experiments/alicia/teaching/experiment/?hitId=34XASH8KLQ89J2U8D314D7180O4PMV&workerId=A1ILD5BPLI8X1P&assignmentId=37Z929RLGAUCV9YE5JBCJ9XYG4ZSTX&a=L2Z77&tp_a=L2Z77&b=37Z929RLGAUCV9YE5JBCJ9XYG4ZSTX&tp_b=37Z929RLGAUCV9YE5JBCJ9XYG4ZSTX&c=365717&tp_c=365717"},{"rt":5147,"stimulus":"\n            <h4 style=\"color:Orange;\">Student 8</h4>\n            <h2>The weight of your coin is <b style=\"color:Tomato;\">0.5</b>.</h2>\n            <p>In this block, you will be giving <b>one</b> set of examples to Student 8.</p>\n                <p>You will receive feedback at the end of the block.</p>\n            <p></p>","response":0,"trial_type":"html-button-response","trial_index":70,"time_elapsed":511598,"internal_node_id":"0.0-69.0","params":{"nStudents":24,"maxFlips":30,"completionMinutes":45,"basePay":8,"maxBonus":9,"perTrialBonus":0.5,"perTrialBonusThreshold":0.05,"exampleCost":0.01},"classroomParams":{"A":{"a":1,"b":4},"B":{"a":4,"b":1},"C":{"a":2,"b":8},"D":{"a":8,"b":2}},"conditions":["nonSeqFull","nonSeqPartial","seqNoFeedback","seqFeedback"],"classroomPairings":[["A","B"],["C","D"]],"coinWeights":[0.2,0.5,0.8],"subjectId":"A1ILD5BPLI8X1P","assignmentId":"37Z929RLGAUCV9YE5JBCJ9XYG4ZSTX","hitId":"34XASH8KLQ89J2U8D314D7180O4PMV","url":"https://gershmanlab.com/experiments/alicia/teaching/experiment/?hitId=34XASH8KLQ89J2U8D314D7180O4PMV&workerId=A1ILD5BPLI8X1P&assignmentId=37Z929RLGAUCV9YE5JBCJ9XYG4ZSTX&a=L2Z77&tp_a=L2Z77&b=37Z929RLGAUCV9YE5JBCJ9XYG4ZSTX&tp_b=37Z929RLGAUCV9YE5JBCJ9XYG4ZSTX&c=365717&tp_c=365717"},{"rt":3100,"response":{"heads":"5","tails":"5"},"type":"response","condition":"nonSeqFull","trueTheta":0.5,"classrooms":["C","D"],"studentTrueClassroom":"D","exampleSet":"first","trial_type":"survey-html-form","trial_index":71,"time_elapsed":514699,"internal_node_id":"0.0-70.0-0.0","params":{"nStudents":24,"maxFlips":30,"completionMinutes":45,"basePay":8,"maxBonus":9,"perTrialBonus":0.5,"perTrialBonusThreshold":0.05,"exampleCost":0.01},"classroomParams":{"A":{"a":1,"b":4},"B":{"a":4,"b":1},"C":{"a":2,"b":8},"D":{"a":8,"b":2}},"conditions":["nonSeqFull","nonSeqPartial","seqNoFeedback","seqFeedback"],"classroomPairings":[["A","B"],["C","D"]],"coinWeights":[0.2,0.5,0.8],"subjectId":"A1ILD5BPLI8X1P","assignmentId":"37Z929RLGAUCV9YE5JBCJ9XYG4ZSTX","hitId":"34XASH8KLQ89J2U8D314D7180O4PMV","url":"https://gershmanlab.com/experiments/alicia/teaching/experiment/?hitId=34XASH8KLQ89J2U8D314D7180O4PMV&workerId=A1ILD5BPLI8X1P&assignmentId=37Z929RLGAUCV9YE5JBCJ9XYG4ZSTX&a=L2Z77&tp_a=L2Z77&b=37Z929RLGAUCV9YE5JBCJ9XYG4ZSTX&tp_b=37Z929RLGAUCV9YE5JBCJ9XYG4ZSTX&c=365717&tp_c=365717","heads":5,"tails":5,"studentIndex":7,"studentTrueHypers":{"a":8,"b":2},"studentGuess":0.65,"delta":0.15000000000000002,"totalExamples":10,"bonus":0,"bonusSoFar":0.5},{"rt":null,"stimulus":"Sending examples to student... ","response":null,"trial_type":"html-keyboard-response","trial_index":72,"time_elapsed":516463,"internal_node_id":"0.0-71.0","params":{"nStudents":24,"maxFlips":30,"completionMinutes":45,"basePay":8,"maxBonus":9,"perTrialBonus":0.5,"perTrialBonusThreshold":0.05,"exampleCost":0.01},"classroomParams":{"A":{"a":1,"b":4},"B":{"a":4,"b":1},"C":{"a":2,"b":8},"D":{"a":8,"b":2}},"conditions":["nonSeqFull","nonSeqPartial","seqNoFeedback","seqFeedback"],"classroomPairings":[["A","B"],["C","D"]],"coinWeights":[0.2,0.5,0.8],"subjectId":"A1ILD5BPLI8X1P","assignmentId":"37Z929RLGAUCV9YE5JBCJ9XYG4ZSTX","hitId":"34XASH8KLQ89J2U8D314D7180O4PMV","url":"https://gershmanlab.com/experiments/alicia/teaching/experiment/?hitId=34XASH8KLQ89J2U8D314D7180O4PMV&workerId=A1ILD5BPLI8X1P&assignmentId=37Z929RLGAUCV9YE5JBCJ9XYG4ZSTX&a=L2Z77&tp_a=L2Z77&b=37Z929RLGAUCV9YE5JBCJ9XYG4ZSTX&tp_b=37Z929RLGAUCV9YE5JBCJ9XYG4ZSTX&c=365717&tp_c=365717"},{"rt":null,"stimulus":"Examples sent to student! Waiting for student...","response":null,"trial_type":"html-keyboard-response","trial_index":73,"time_elapsed":520466,"internal_node_id":"0.0-72.0","params":{"nStudents":24,"maxFlips":30,"completionMinutes":45,"basePay":8,"maxBonus":9,"perTrialBonus":0.5,"perTrialBonusThreshold":0.05,"exampleCost":0.01},"classroomParams":{"A":{"a":1,"b":4},"B":{"a":4,"b":1},"C":{"a":2,"b":8},"D":{"a":8,"b":2}},"conditions":["nonSeqFull","nonSeqPartial","seqNoFeedback","seqFeedback"],"classroomPairings":[["A","B"],["C","D"]],"coinWeights":[0.2,0.5,0.8],"subjectId":"A1ILD5BPLI8X1P","assignmentId":"37Z929RLGAUCV9YE5JBCJ9XYG4ZSTX","hitId":"34XASH8KLQ89J2U8D314D7180O4PMV","url":"https://gershmanlab.com/experiments/alicia/teaching/experiment/?hitId=34XASH8KLQ89J2U8D314D7180O4PMV&workerId=A1ILD5BPLI8X1P&assignmentId=37Z929RLGAUCV9YE5JBCJ9XYG4ZSTX&a=L2Z77&tp_a=L2Z77&b=37Z929RLGAUCV9YE5JBCJ9XYG4ZSTX&tp_b=37Z929RLGAUCV9YE5JBCJ9XYG4ZSTX&c=365717&tp_c=365717"},{"rt":1364,"stimulus":"\n                <p>Student's guess for coin weight: <b style=\"color:Tomato;\">0.65</b></p>\n                <p>You received a bonus of <b>$0</b>. Total bonus so far: <b>$0.50</b></b></p>\n                <p></p>\n                <p>Press any key to continue.</p>\n                ","response":"tab","trial_type":"html-keyboard-response","trial_index":74,"time_elapsed":521831,"internal_node_id":"0.0-73.0","params":{"nStudents":24,"maxFlips":30,"completionMinutes":45,"basePay":8,"maxBonus":9,"perTrialBonus":0.5,"perTrialBonusThreshold":0.05,"exampleCost":0.01},"classroomParams":{"A":{"a":1,"b":4},"B":{"a":4,"b":1},"C":{"a":2,"b":8},"D":{"a":8,"b":2}},"conditions":["nonSeqFull","nonSeqPartial","seqNoFeedback","seqFeedback"],"classroomPairings":[["A","B"],["C","D"]],"coinWeights":[0.2,0.5,0.8],"subjectId":"A1ILD5BPLI8X1P","assignmentId":"37Z929RLGAUCV9YE5JBCJ9XYG4ZSTX","hitId":"34XASH8KLQ89J2U8D314D7180O4PMV","url":"https://gershmanlab.com/experiments/alicia/teaching/experiment/?hitId=34XASH8KLQ89J2U8D314D7180O4PMV&workerId=A1ILD5BPLI8X1P&assignmentId=37Z929RLGAUCV9YE5JBCJ9XYG4ZSTX&a=L2Z77&tp_a=L2Z77&b=37Z929RLGAUCV9YE5JBCJ9XYG4ZSTX&tp_b=37Z929RLGAUCV9YE5JBCJ9XYG4ZSTX&c=365717&tp_c=365717"},{"rt":null,"stimulus":"<div style=\"font-size:60px;\">Next student</div>","response":null,"trial_type":"html-keyboard-response","trial_index":75,"time_elapsed":523834,"internal_node_id":"0.0-74.0-0.0","params":{"nStudents":24,"maxFlips":30,"completionMinutes":45,"basePay":8,"maxBonus":9,"perTrialBonus":0.5,"perTrialBonusThreshold":0.05,"exampleCost":0.01},"classroomParams":{"A":{"a":1,"b":4},"B":{"a":4,"b":1},"C":{"a":2,"b":8},"D":{"a":8,"b":2}},"conditions":["nonSeqFull","nonSeqPartial","seqNoFeedback","seqFeedback"],"classroomPairings":[["A","B"],["C","D"]],"coinWeights":[0.2,0.5,0.8],"subjectId":"A1ILD5BPLI8X1P","assignmentId":"37Z929RLGAUCV9YE5JBCJ9XYG4ZSTX","hitId":"34XASH8KLQ89J2U8D314D7180O4PMV","url":"https://gershmanlab.com/experiments/alicia/teaching/experiment/?hitId=34XASH8KLQ89J2U8D314D7180O4PMV&workerId=A1ILD5BPLI8X1P&assignmentId=37Z929RLGAUCV9YE5JBCJ9XYG4ZSTX&a=L2Z77&tp_a=L2Z77&b=37Z929RLGAUCV9YE5JBCJ9XYG4ZSTX&tp_b=37Z929RLGAUCV9YE5JBCJ9XYG4ZSTX&c=365717&tp_c=365717"},{"rt":2996,"stimulus":"\n            <h4 style=\"color:Orange;\">Student 9</h4>\n            <h2>The weight of your coin is <b style=\"color:Tomato;\">0.5</b>.</h2>\n            <p>In this block, you will be giving <b>two</b> sets of examples to Student 9.</p>\n                <p>You will see the student's guess after the first set of examples. You will also receive feedback at the end of the block.</p>\n            <p>To earn the highest bonus, you will have to <b>take into consideration the student's guess</b> when you choose your second set of examples.</p>","response":0,"trial_type":"html-button-response","trial_index":76,"time_elapsed":526831,"internal_node_id":"0.0-75.0","params":{"nStudents":24,"maxFlips":30,"completionMinutes":45,"basePay":8,"maxBonus":9,"perTrialBonus":0.5,"perTrialBonusThreshold":0.05,"exampleCost":0.01},"classroomParams":{"A":{"a":1,"b":4},"B":{"a":4,"b":1},"C":{"a":2,"b":8},"D":{"a":8,"b":2}},"conditions":["nonSeqFull","nonSeqPartial","seqNoFeedback","seqFeedback"],"classroomPairings":[["A","B"],["C","D"]],"coinWeights":[0.2,0.5,0.8],"subjectId":"A1ILD5BPLI8X1P","assignmentId":"37Z929RLGAUCV9YE5JBCJ9XYG4ZSTX","hitId":"34XASH8KLQ89J2U8D314D7180O4PMV","url":"https://gershmanlab.com/experiments/alicia/teaching/experiment/?hitId=34XASH8KLQ89J2U8D314D7180O4PMV&workerId=A1ILD5BPLI8X1P&assignmentId=37Z929RLGAUCV9YE5JBCJ9XYG4ZSTX&a=L2Z77&tp_a=L2Z77&b=37Z929RLGAUCV9YE5JBCJ9XYG4ZSTX&tp_b=37Z929RLGAUCV9YE5JBCJ9XYG4ZSTX&c=365717&tp_c=365717"},{"rt":7875,"response":{"heads":"5","tails":"5"},"type":"response","condition":"seqFeedback","trueTheta":0.5,"classrooms":["C","D"],"studentTrueClassroom":"D","exampleSet":"first","trial_type":"survey-html-form","trial_index":77,"time_elapsed":534707,"internal_node_id":"0.0-76.0-0.0","params":{"nStudents":24,"maxFlips":30,"completionMinutes":45,"basePay":8,"maxBonus":9,"perTrialBonus":0.5,"perTrialBonusThreshold":0.05,"exampleCost":0.01},"classroomParams":{"A":{"a":1,"b":4},"B":{"a":4,"b":1},"C":{"a":2,"b":8},"D":{"a":8,"b":2}},"conditions":["nonSeqFull","nonSeqPartial","seqNoFeedback","seqFeedback"],"classroomPairings":[["A","B"],["C","D"]],"coinWeights":[0.2,0.5,0.8],"subjectId":"A1ILD5BPLI8X1P","assignmentId":"37Z929RLGAUCV9YE5JBCJ9XYG4ZSTX","hitId":"34XASH8KLQ89J2U8D314D7180O4PMV","url":"https://gershmanlab.com/experiments/alicia/teaching/experiment/?hitId=34XASH8KLQ89J2U8D314D7180O4PMV&workerId=A1ILD5BPLI8X1P&assignmentId=37Z929RLGAUCV9YE5JBCJ9XYG4ZSTX&a=L2Z77&tp_a=L2Z77&b=37Z929RLGAUCV9YE5JBCJ9XYG4ZSTX&tp_b=37Z929RLGAUCV9YE5JBCJ9XYG4ZSTX&c=365717&tp_c=365717","heads":5,"tails":5,"studentIndex":8,"studentTrueHypers":{"a":8,"b":2},"studentGuess":0.65,"delta":0.15000000000000002,"totalExamples":10,"bonusSoFar":0.5},{"rt":null,"stimulus":"Sending examples to student... ","response":null,"trial_type":"html-keyboard-response","trial_index":78,"time_elapsed":536712,"internal_node_id":"0.0-77.0","params":{"nStudents":24,"maxFlips":30,"completionMinutes":45,"basePay":8,"maxBonus":9,"perTrialBonus":0.5,"perTrialBonusThreshold":0.05,"exampleCost":0.01},"classroomParams":{"A":{"a":1,"b":4},"B":{"a":4,"b":1},"C":{"a":2,"b":8},"D":{"a":8,"b":2}},"conditions":["nonSeqFull","nonSeqPartial","seqNoFeedback","seqFeedback"],"classroomPairings":[["A","B"],["C","D"]],"coinWeights":[0.2,0.5,0.8],"subjectId":"A1ILD5BPLI8X1P","assignmentId":"37Z929RLGAUCV9YE5JBCJ9XYG4ZSTX","hitId":"34XASH8KLQ89J2U8D314D7180O4PMV","url":"https://gershmanlab.com/experiments/alicia/teaching/experiment/?hitId=34XASH8KLQ89J2U8D314D7180O4PMV&workerId=A1ILD5BPLI8X1P&assignmentId=37Z929RLGAUCV9YE5JBCJ9XYG4ZSTX&a=L2Z77&tp_a=L2Z77&b=37Z929RLGAUCV9YE5JBCJ9XYG4ZSTX&tp_b=37Z929RLGAUCV9YE5JBCJ9XYG4ZSTX&c=365717&tp_c=365717"},{"rt":null,"stimulus":"Examples sent to student! Waiting for student...","response":null,"trial_type":"html-keyboard-response","trial_index":79,"time_elapsed":541227,"internal_node_id":"0.0-78.0","params":{"nStudents":24,"maxFlips":30,"completionMinutes":45,"basePay":8,"maxBonus":9,"perTrialBonus":0.5,"perTrialBonusThreshold":0.05,"exampleCost":0.01},"classroomParams":{"A":{"a":1,"b":4},"B":{"a":4,"b":1},"C":{"a":2,"b":8},"D":{"a":8,"b":2}},"conditions":["nonSeqFull","nonSeqPartial","seqNoFeedback","seqFeedback"],"classroomPairings":[["A","B"],["C","D"]],"coinWeights":[0.2,0.5,0.8],"subjectId":"A1ILD5BPLI8X1P","assignmentId":"37Z929RLGAUCV9YE5JBCJ9XYG4ZSTX","hitId":"34XASH8KLQ89J2U8D314D7180O4PMV","url":"https://gershmanlab.com/experiments/alicia/teaching/experiment/?hitId=34XASH8KLQ89J2U8D314D7180O4PMV&workerId=A1ILD5BPLI8X1P&assignmentId=37Z929RLGAUCV9YE5JBCJ9XYG4ZSTX&a=L2Z77&tp_a=L2Z77&b=37Z929RLGAUCV9YE5JBCJ9XYG4ZSTX&tp_b=37Z929RLGAUCV9YE5JBCJ9XYG4ZSTX&c=365717&tp_c=365717"},{"rt":2499,"stimulus":"\n                <p>Student's guess for coin weight: <b style=\"color:Tomato;\">0.65</b></p>\n                <p></b></p>\n                <p>You will now send another set of examples to your student. <b>Remember to take your student's guess into consideration so that you can earn the highest bonus possible!</b> </p>\n                <p>Press any key to continue.</p>\n                ","response":"tab","trial_type":"html-keyboard-response","trial_index":80,"time_elapsed":543728,"internal_node_id":"0.0-79.0","params":{"nStudents":24,"maxFlips":30,"completionMinutes":45,"basePay":8,"maxBonus":9,"perTrialBonus":0.5,"perTrialBonusThreshold":0.05,"exampleCost":0.01},"classroomParams":{"A":{"a":1,"b":4},"B":{"a":4,"b":1},"C":{"a":2,"b":8},"D":{"a":8,"b":2}},"conditions":["nonSeqFull","nonSeqPartial","seqNoFeedback","seqFeedback"],"classroomPairings":[["A","B"],["C","D"]],"coinWeights":[0.2,0.5,0.8],"subjectId":"A1ILD5BPLI8X1P","assignmentId":"37Z929RLGAUCV9YE5JBCJ9XYG4ZSTX","hitId":"34XASH8KLQ89J2U8D314D7180O4PMV","url":"https://gershmanlab.com/experiments/alicia/teaching/experiment/?hitId=34XASH8KLQ89J2U8D314D7180O4PMV&workerId=A1ILD5BPLI8X1P&assignmentId=37Z929RLGAUCV9YE5JBCJ9XYG4ZSTX&a=L2Z77&tp_a=L2Z77&b=37Z929RLGAUCV9YE5JBCJ9XYG4ZSTX&tp_b=37Z929RLGAUCV9YE5JBCJ9XYG4ZSTX&c=365717&tp_c=365717"},{"rt":4417,"response":{"heads":"10","tails":"10"},"type":"response","condition":"seqFeedback","trueTheta":0.5,"classrooms":["C","D"],"studentTrueClassroom":"D","exampleSet":"second","trial_type":"survey-html-form","trial_index":81,"time_elapsed":548146,"internal_node_id":"0.0-80.0-0.0","params":{"nStudents":24,"maxFlips":30,"completionMinutes":45,"basePay":8,"maxBonus":9,"perTrialBonus":0.5,"perTrialBonusThreshold":0.05,"exampleCost":0.01},"classroomParams":{"A":{"a":1,"b":4},"B":{"a":4,"b":1},"C":{"a":2,"b":8},"D":{"a":8,"b":2}},"conditions":["nonSeqFull","nonSeqPartial","seqNoFeedback","seqFeedback"],"classroomPairings":[["A","B"],["C","D"]],"coinWeights":[0.2,0.5,0.8],"subjectId":"A1ILD5BPLI8X1P","assignmentId":"37Z929RLGAUCV9YE5JBCJ9XYG4ZSTX","hitId":"34XASH8KLQ89J2U8D314D7180O4PMV","url":"https://gershmanlab.com/experiments/alicia/teaching/experiment/?hitId=34XASH8KLQ89J2U8D314D7180O4PMV&workerId=A1ILD5BPLI8X1P&assignmentId=37Z929RLGAUCV9YE5JBCJ9XYG4ZSTX&a=L2Z77&tp_a=L2Z77&b=37Z929RLGAUCV9YE5JBCJ9XYG4ZSTX&tp_b=37Z929RLGAUCV9YE5JBCJ9XYG4ZSTX&c=365717&tp_c=365717","firstResponseHeads":5,"firstResponseTails":5,"secondResponseHeads":10,"secondResponseTails":10,"totalHeads":15,"totalTails":15,"studentIndex":8,"studentTrueHypers":{"a":8,"b":2},"studentGuess":0.575,"delta":0.07499999999999996,"bonus":0,"bonusSoFar":0.5,"totalExamples":30},{"rt":null,"stimulus":"Sending examples to student... ","response":null,"trial_type":"html-keyboard-response","trial_index":82,"time_elapsed":550147,"internal_node_id":"0.0-81.0","params":{"nStudents":24,"maxFlips":30,"completionMinutes":45,"basePay":8,"maxBonus":9,"perTrialBonus":0.5,"perTrialBonusThreshold":0.05,"exampleCost":0.01},"classroomParams":{"A":{"a":1,"b":4},"B":{"a":4,"b":1},"C":{"a":2,"b":8},"D":{"a":8,"b":2}},"conditions":["nonSeqFull","nonSeqPartial","seqNoFeedback","seqFeedback"],"classroomPairings":[["A","B"],["C","D"]],"coinWeights":[0.2,0.5,0.8],"subjectId":"A1ILD5BPLI8X1P","assignmentId":"37Z929RLGAUCV9YE5JBCJ9XYG4ZSTX","hitId":"34XASH8KLQ89J2U8D314D7180O4PMV","url":"https://gershmanlab.com/experiments/alicia/teaching/experiment/?hitId=34XASH8KLQ89J2U8D314D7180O4PMV&workerId=A1ILD5BPLI8X1P&assignmentId=37Z929RLGAUCV9YE5JBCJ9XYG4ZSTX&a=L2Z77&tp_a=L2Z77&b=37Z929RLGAUCV9YE5JBCJ9XYG4ZSTX&tp_b=37Z929RLGAUCV9YE5JBCJ9XYG4ZSTX&c=365717&tp_c=365717"},{"rt":null,"stimulus":"Examples sent to student! Waiting for student...","response":null,"trial_type":"html-keyboard-response","trial_index":83,"time_elapsed":554160,"internal_node_id":"0.0-82.0","params":{"nStudents":24,"maxFlips":30,"completionMinutes":45,"basePay":8,"maxBonus":9,"perTrialBonus":0.5,"perTrialBonusThreshold":0.05,"exampleCost":0.01},"classroomParams":{"A":{"a":1,"b":4},"B":{"a":4,"b":1},"C":{"a":2,"b":8},"D":{"a":8,"b":2}},"conditions":["nonSeqFull","nonSeqPartial","seqNoFeedback","seqFeedback"],"classroomPairings":[["A","B"],["C","D"]],"coinWeights":[0.2,0.5,0.8],"subjectId":"A1ILD5BPLI8X1P","assignmentId":"37Z929RLGAUCV9YE5JBCJ9XYG4ZSTX","hitId":"34XASH8KLQ89J2U8D314D7180O4PMV","url":"https://gershmanlab.com/experiments/alicia/teaching/experiment/?hitId=34XASH8KLQ89J2U8D314D7180O4PMV&workerId=A1ILD5BPLI8X1P&assignmentId=37Z929RLGAUCV9YE5JBCJ9XYG4ZSTX&a=L2Z77&tp_a=L2Z77&b=37Z929RLGAUCV9YE5JBCJ9XYG4ZSTX&tp_b=37Z929RLGAUCV9YE5JBCJ9XYG4ZSTX&c=365717&tp_c=365717"},{"rt":2445,"stimulus":"\n                <p>Student 9's first guess for coin weight: <b style=\"color:Tomato\";>0.65</b></p>\n                <p>Student 9's second guess for coin weight: <b style=\"color:Tomato\";>0.57</b></p>\n                <p>You received a bonus of <b>$0.00</b> based on the student's second guess.</p>\n                <p>Total bonus so far: <b>$0.50</b></p>\n                <p>Press any key to continue.</p>\n                ","response":"tab","trial_type":"html-keyboard-response","trial_index":84,"time_elapsed":556607,"internal_node_id":"0.0-83.0","params":{"nStudents":24,"maxFlips":30,"completionMinutes":45,"basePay":8,"maxBonus":9,"perTrialBonus":0.5,"perTrialBonusThreshold":0.05,"exampleCost":0.01},"classroomParams":{"A":{"a":1,"b":4},"B":{"a":4,"b":1},"C":{"a":2,"b":8},"D":{"a":8,"b":2}},"conditions":["nonSeqFull","nonSeqPartial","seqNoFeedback","seqFeedback"],"classroomPairings":[["A","B"],["C","D"]],"coinWeights":[0.2,0.5,0.8],"subjectI