[{"rt":3628,"stimulus":"Welcome to the experiment. Press any key to begin.","response":" ","trial_type":"html-keyboard-response","trial_index":0,"time_elapsed":3639,"internal_node_id":"0.0-0.0","params":{"nStudents":24,"maxFlips":30,"completionMinutes":45,"basePay":8,"maxBonus":9,"perTrialBonus":0.5,"perTrialBonusThreshold":0.05,"exampleCost":0.01},"classroomParams":{"A":{"a":1,"b":4},"B":{"a":4,"b":1},"C":{"a":2,"b":8},"D":{"a":8,"b":2}},"conditions":["nonSeqFull","nonSeqPartial","seqNoFeedback","seqFeedback"],"classroomPairings":[["A","B"],["C","D"]],"coinWeights":[0.2,0.5,0.8],"subjectId":"A1M3KGD9H8RTBH","assignmentId":"3TYCR1GOTD5LD8CNR23TTBKK97YZLT","hitId":"3JGHED38EDDK7DFM0KVY7GXU94LY7W","url":"https://gershmanlab.com/experiments/alicia/teaching/experiment/?hitId=3JGHED38EDDK7DFM0KVY7GXU94LY7W&workerId=A1M3KGD9H8RTBH&assignmentId=3TYCR1GOTD5LD8CNR23TTBKK97YZLT&a=ORYT9&tp_a=ORYT9&b=3TYCR1GOTD5LD8CNR23TTBKK97YZLT&tp_b=3TYCR1GOTD5LD8CNR23TTBKK97YZLT&c=365799&tp_c=365799"},{"rt":11417,"stimulus":"\n        <h3>Please read this consent agreement carefully before deciding whether to participate in this experiment.</h3>\n        <p><b>Purpose of the research:</b> To examine how people teach effectively.</p>\n        <p><b>What you will do in this research:</b> You will teach students the weights of different coins.</p>\n        <p><b>Time required:</b> This experiment will take 45 minutes to complete.</p>\n        <p><b>Risks:</b> There are no anticipated risks associated with participating in this study.             The effects of participating should be comparable to those you would experience from viewing a computer monitor             and using a mouse and keyboard for the duration of the experiment.</p>\n        <p><b>Benefits:</b> The study provides important information about the nature of teaching.</p>\n        <p><b>Compensation:</b> You will receive <b>$8</b> for completing the experiment and a performance bonus of up to <b>$9</b>.</p>\n        <p><b>Confidentiality:</b> Your participation in this study will remain confidential.             No personally identifiable information will be associated with your data.             Your de-identified data may be shared with other researchers and used in future projects.</p>\n        <p><b>Participation and withdrawal:</b> Your participation in this study is completely voluntary and             you may refuse to participate or you may choose to withdraw at any time without penalty or loss of\n            benefits to which you are otherwise entitled.</p>\n        <p><b>How to contact the researcher:</b> If you have questions or concerns about your participation            or payment, or want to request a summary of research findings, please contact\n            Alicia Chen, aliciachen@college.harvard.edu.</p>\n        <p><b>Whom to contact about your rights in this research:</b> For questions, concerns, suggestions,             or complaints that have not been or cannot be addressed by the researcher, or to report             research-related harm, please contact the Committee on the Use of Human Subjects in Research at Harvard University,             1414 Massachusetts Avenue, Second Floor, Cambridge, MA 02138. Phone: 617-496-2847. Email: cuhs@fas.harvard.edu.</p>\n        ","response":0,"trial_type":"html-button-response","trial_index":1,"time_elapsed":15060,"internal_node_id":"0.0-1.0","params":{"nStudents":24,"maxFlips":30,"completionMinutes":45,"basePay":8,"maxBonus":9,"perTrialBonus":0.5,"perTrialBonusThreshold":0.05,"exampleCost":0.01},"classroomParams":{"A":{"a":1,"b":4},"B":{"a":4,"b":1},"C":{"a":2,"b":8},"D":{"a":8,"b":2}},"conditions":["nonSeqFull","nonSeqPartial","seqNoFeedback","seqFeedback"],"classroomPairings":[["A","B"],["C","D"]],"coinWeights":[0.2,0.5,0.8],"subjectId":"A1M3KGD9H8RTBH","assignmentId":"3TYCR1GOTD5LD8CNR23TTBKK97YZLT","hitId":"3JGHED38EDDK7DFM0KVY7GXU94LY7W","url":"https://gershmanlab.com/experiments/alicia/teaching/experiment/?hitId=3JGHED38EDDK7DFM0KVY7GXU94LY7W&workerId=A1M3KGD9H8RTBH&assignmentId=3TYCR1GOTD5LD8CNR23TTBKK97YZLT&a=ORYT9&tp_a=ORYT9&b=3TYCR1GOTD5LD8CNR23TTBKK97YZLT&tp_b=3TYCR1GOTD5LD8CNR23TTBKK97YZLT&c=365799&tp_c=365799"},{"view_history":[{"page_index":0,"viewing_time":6851},{"page_index":1,"viewing_time":6254},{"page_index":2,"viewing_time":88001},{"page_index":3,"viewing_time":31437},{"page_index":4,"viewing_time":14126},{"page_index":5,"viewing_time":40437},{"page_index":6,"viewing_time":45584}],"rt":232690,"trial_type":"instructions","trial_index":2,"time_elapsed":247758,"internal_node_id":"0.0-2.0-0.0","params":{"nStudents":24,"maxFlips":30,"completionMinutes":45,"basePay":8,"maxBonus":9,"perTrialBonus":0.5,"perTrialBonusThreshold":0.05,"exampleCost":0.01},"classroomParams":{"A":{"a":1,"b":4},"B":{"a":4,"b":1},"C":{"a":2,"b":8},"D":{"a":8,"b":2}},"conditions":["nonSeqFull","nonSeqPartial","seqNoFeedback","seqFeedback"],"classroomPairings":[["A","B"],["C","D"]],"coinWeights":[0.2,0.5,0.8],"subjectId":"A1M3KGD9H8RTBH","assignmentId":"3TYCR1GOTD5LD8CNR23TTBKK97YZLT","hitId":"3JGHED38EDDK7DFM0KVY7GXU94LY7W","url":"https://gershmanlab.com/experiments/alicia/teaching/experiment/?hitId=3JGHED38EDDK7DFM0KVY7GXU94LY7W&workerId=A1M3KGD9H8RTBH&assignmentId=3TYCR1GOTD5LD8CNR23TTBKK97YZLT&a=ORYT9&tp_a=ORYT9&b=3TYCR1GOTD5LD8CNR23TTBKK97YZLT&tp_b=3TYCR1GOTD5LD8CNR23TTBKK97YZLT&c=365799&tp_c=365799"},{"rt":88881,"response":{"Q0":"Students in different classrooms will have seen a different number of heads and tails before seeing the examples you select for them.","Q1":"By <b>considering the student's classroom information</b> so that I can teach efficiently and accurately/helpfully at the same time (because each example I give to the student costs money!).","Q2":"The coin lands heads 90% of the time.","Q3":"No, I will teach a <b>new</b> student each time.","Q4":"The students are also on the same alien planet as you, where coins can be unfair.","Q5":"Based on the student's second (and final) guess."},"question_order":[4,3,5,2,0,1],"trial_type":"survey-multi-choice","trial_index":3,"time_elapsed":336645,"internal_node_id":"0.0-2.0-1.0","params":{"nStudents":24,"maxFlips":30,"completionMinutes":45,"basePay":8,"maxBonus":9,"perTrialBonus":0.5,"perTrialBonusThreshold":0.05,"exampleCost":0.01},"classroomParams":{"A":{"a":1,"b":4},"B":{"a":4,"b":1},"C":{"a":2,"b":8},"D":{"a":8,"b":2}},"conditions":["nonSeqFull","nonSeqPartial","seqNoFeedback","seqFeedback"],"classroomPairings":[["A","B"],["C","D"]],"coinWeights":[0.2,0.5,0.8],"subjectId":"A1M3KGD9H8RTBH","assignmentId":"3TYCR1GOTD5LD8CNR23TTBKK97YZLT","hitId":"3JGHED38EDDK7DFM0KVY7GXU94LY7W","url":"https://gershmanlab.com/experiments/alicia/teaching/experiment/?hitId=3JGHED38EDDK7DFM0KVY7GXU94LY7W&workerId=A1M3KGD9H8RTBH&assignmentId=3TYCR1GOTD5LD8CNR23TTBKK97YZLT&a=ORYT9&tp_a=ORYT9&b=3TYCR1GOTD5LD8CNR23TTBKK97YZLT&tp_b=3TYCR1GOTD5LD8CNR23TTBKK97YZLT&c=365799&tp_c=365799","pass":true},{"rt":null,"stimulus":"<div style=\"font-size:30px;\">Congrats on passing the comprehension quiz! The experiment will begin in a few seconds.</div>","response":null,"trial_type":"html-keyboard-response","trial_index":4,"time_elapsed":339649,"internal_node_id":"0.0-3.0","params":{"nStudents":24,"maxFlips":30,"completionMinutes":45,"basePay":8,"maxBonus":9,"perTrialBonus":0.5,"perTrialBonusThreshold":0.05,"exampleCost":0.01},"classroomParams":{"A":{"a":1,"b":4},"B":{"a":4,"b":1},"C":{"a":2,"b":8},"D":{"a":8,"b":2}},"conditions":["nonSeqFull","nonSeqPartial","seqNoFeedback","seqFeedback"],"classroomPairings":[["A","B"],["C","D"]],"coinWeights":[0.2,0.5,0.8],"subjectId":"A1M3KGD9H8RTBH","assignmentId":"3TYCR1GOTD5LD8CNR23TTBKK97YZLT","hitId":"3JGHED38EDDK7DFM0KVY7GXU94LY7W","url":"https://gershmanlab.com/experiments/alicia/teaching/experiment/?hitId=3JGHED38EDDK7DFM0KVY7GXU94LY7W&workerId=A1M3KGD9H8RTBH&assignmentId=3TYCR1GOTD5LD8CNR23TTBKK97YZLT&a=ORYT9&tp_a=ORYT9&b=3TYCR1GOTD5LD8CNR23TTBKK97YZLT&tp_b=3TYCR1GOTD5LD8CNR23TTBKK97YZLT&c=365799&tp_c=365799"},{"rt":null,"stimulus":"<div style=\"font-size:50px;\">First student</div>","response":null,"trial_type":"html-keyboard-response","trial_index":5,"time_elapsed":342662,"internal_node_id":"0.0-4.0","params":{"nStudents":24,"maxFlips":30,"completionMinutes":45,"basePay":8,"maxBonus":9,"perTrialBonus":0.5,"perTrialBonusThreshold":0.05,"exampleCost":0.01},"classroomParams":{"A":{"a":1,"b":4},"B":{"a":4,"b":1},"C":{"a":2,"b":8},"D":{"a":8,"b":2}},"conditions":["nonSeqFull","nonSeqPartial","seqNoFeedback","seqFeedback"],"classroomPairings":[["A","B"],["C","D"]],"coinWeights":[0.2,0.5,0.8],"subjectId":"A1M3KGD9H8RTBH","assignmentId":"3TYCR1GOTD5LD8CNR23TTBKK97YZLT","hitId":"3JGHED38EDDK7DFM0KVY7GXU94LY7W","url":"https://gershmanlab.com/experiments/alicia/teaching/experiment/?hitId=3JGHED38EDDK7DFM0KVY7GXU94LY7W&workerId=A1M3KGD9H8RTBH&assignmentId=3TYCR1GOTD5LD8CNR23TTBKK97YZLT&a=ORYT9&tp_a=ORYT9&b=3TYCR1GOTD5LD8CNR23TTBKK97YZLT&tp_b=3TYCR1GOTD5LD8CNR23TTBKK97YZLT&c=365799&tp_c=365799"},{"rt":5137,"stimulus":"\n            <h4 style=\"color:Orange;\">Student 1</h4>\n            <h2>The weight of your coin is <b style=\"color:Tomato;\">0.8</b>.</h2>\n            <p>In this block, you will be giving <b>two</b> sets of examples to Student 1.</p>\n                <p>You will receive feedback at the end of the block.</p>\n            <p></p>","response":0,"trial_type":"html-button-response","trial_index":6,"time_elapsed":347801,"internal_node_id":"0.0-5.0","params":{"nStudents":24,"maxFlips":30,"completionMinutes":45,"basePay":8,"maxBonus":9,"perTrialBonus":0.5,"perTrialBonusThreshold":0.05,"exampleCost":0.01},"classroomParams":{"A":{"a":1,"b":4},"B":{"a":4,"b":1},"C":{"a":2,"b":8},"D":{"a":8,"b":2}},"conditions":["nonSeqFull","nonSeqPartial","seqNoFeedback","seqFeedback"],"classroomPairings":[["A","B"],["C","D"]],"coinWeights":[0.2,0.5,0.8],"subjectId":"A1M3KGD9H8RTBH","assignmentId":"3TYCR1GOTD5LD8CNR23TTBKK97YZLT","hitId":"3JGHED38EDDK7DFM0KVY7GXU94LY7W","url":"https://gershmanlab.com/experiments/alicia/teaching/experiment/?hitId=3JGHED38EDDK7DFM0KVY7GXU94LY7W&workerId=A1M3KGD9H8RTBH&assignmentId=3TYCR1GOTD5LD8CNR23TTBKK97YZLT&a=ORYT9&tp_a=ORYT9&b=3TYCR1GOTD5LD8CNR23TTBKK97YZLT&tp_b=3TYCR1GOTD5LD8CNR23TTBKK97YZLT&c=365799&tp_c=365799"},{"rt":30991,"response":{"heads":"5","tails":"5"},"type":"response","condition":"seqNoFeedback","trueTheta":0.8,"classrooms":["C","D"],"studentTrueClassroom":"C","exampleSet":"first","trial_type":"survey-html-form","trial_index":7,"time_elapsed":378800,"internal_node_id":"0.0-6.0-0.0","params":{"nStudents":24,"maxFlips":30,"completionMinutes":45,"basePay":8,"maxBonus":9,"perTrialBonus":0.5,"perTrialBonusThreshold":0.05,"exampleCost":0.01},"classroomParams":{"A":{"a":1,"b":4},"B":{"a":4,"b":1},"C":{"a":2,"b":8},"D":{"a":8,"b":2}},"conditions":["nonSeqFull","nonSeqPartial","seqNoFeedback","seqFeedback"],"classroomPairings":[["A","B"],["C","D"]],"coinWeights":[0.2,0.5,0.8],"subjectId":"A1M3KGD9H8RTBH","assignmentId":"3TYCR1GOTD5LD8CNR23TTBKK97YZLT","hitId":"3JGHED38EDDK7DFM0KVY7GXU94LY7W","url":"https://gershmanlab.com/experiments/alicia/teaching/experiment/?hitId=3JGHED38EDDK7DFM0KVY7GXU94LY7W&workerId=A1M3KGD9H8RTBH&assignmentId=3TYCR1GOTD5LD8CNR23TTBKK97YZLT&a=ORYT9&tp_a=ORYT9&b=3TYCR1GOTD5LD8CNR23TTBKK97YZLT&tp_b=3TYCR1GOTD5LD8CNR23TTBKK97YZLT&c=365799&tp_c=365799","heads":5,"tails":5,"studentIndex":0,"studentTrueHypers":{"a":2,"b":8},"studentGuess":0.35,"delta":0.45000000000000007,"totalExamples":10,"bonusSoFar":0},{"rt":null,"stimulus":"Sending examples to student... ","response":null,"trial_type":"html-keyboard-response","trial_index":8,"time_elapsed":380815,"internal_node_id":"0.0-7.0","params":{"nStudents":24,"maxFlips":30,"completionMinutes":45,"basePay":8,"maxBonus":9,"perTrialBonus":0.5,"perTrialBonusThreshold":0.05,"exampleCost":0.01},"classroomParams":{"A":{"a":1,"b":4},"B":{"a":4,"b":1},"C":{"a":2,"b":8},"D":{"a":8,"b":2}},"conditions":["nonSeqFull","nonSeqPartial","seqNoFeedback","seqFeedback"],"classroomPairings":[["A","B"],["C","D"]],"coinWeights":[0.2,0.5,0.8],"subjectId":"A1M3KGD9H8RTBH","assignmentId":"3TYCR1GOTD5LD8CNR23TTBKK97YZLT","hitId":"3JGHED38EDDK7DFM0KVY7GXU94LY7W","url":"https://gershmanlab.com/experiments/alicia/teaching/experiment/?hitId=3JGHED38EDDK7DFM0KVY7GXU94LY7W&workerId=A1M3KGD9H8RTBH&assignmentId=3TYCR1GOTD5LD8CNR23TTBKK97YZLT&a=ORYT9&tp_a=ORYT9&b=3TYCR1GOTD5LD8CNR23TTBKK97YZLT&tp_b=3TYCR1GOTD5LD8CNR23TTBKK97YZLT&c=365799&tp_c=365799"},{"rt":null,"stimulus":"Examples sent to student! Waiting for student...","response":null,"trial_type":"html-keyboard-response","trial_index":9,"time_elapsed":385331,"internal_node_id":"0.0-8.0","params":{"nStudents":24,"maxFlips":30,"completionMinutes":45,"basePay":8,"maxBonus":9,"perTrialBonus":0.5,"perTrialBonusThreshold":0.05,"exampleCost":0.01},"classroomParams":{"A":{"a":1,"b":4},"B":{"a":4,"b":1},"C":{"a":2,"b":8},"D":{"a":8,"b":2}},"conditions":["nonSeqFull","nonSeqPartial","seqNoFeedback","seqFeedback"],"classroomPairings":[["A","B"],["C","D"]],"coinWeights":[0.2,0.5,0.8],"subjectId":"A1M3KGD9H8RTBH","assignmentId":"3TYCR1GOTD5LD8CNR23TTBKK97YZLT","hitId":"3JGHED38EDDK7DFM0KVY7GXU94LY7W","url":"https://gershmanlab.com/experiments/alicia/teaching/experiment/?hitId=3JGHED38EDDK7DFM0KVY7GXU94LY7W&workerId=A1M3KGD9H8RTBH&assignmentId=3TYCR1GOTD5LD8CNR23TTBKK97YZLT&a=ORYT9&tp_a=ORYT9&b=3TYCR1GOTD5LD8CNR23TTBKK97YZLT&tp_b=3TYCR1GOTD5LD8CNR23TTBKK97YZLT&c=365799&tp_c=365799"},{"rt":18043,"response":{"heads":"5","tails":"5"},"type":"response","condition":"seqNoFeedback","trueTheta":0.8,"classrooms":["C","D"],"studentTrueClassroom":"C","exampleSet":"second","trial_type":"survey-html-form","trial_index":10,"time_elapsed":403381,"internal_node_id":"0.0-9.0-0.0","params":{"nStudents":24,"maxFlips":30,"completionMinutes":45,"basePay":8,"maxBonus":9,"perTrialBonus":0.5,"perTrialBonusThreshold":0.05,"exampleCost":0.01},"classroomParams":{"A":{"a":1,"b":4},"B":{"a":4,"b":1},"C":{"a":2,"b":8},"D":{"a":8,"b":2}},"conditions":["nonSeqFull","nonSeqPartial","seqNoFeedback","seqFeedback"],"classroomPairings":[["A","B"],["C","D"]],"coinWeights":[0.2,0.5,0.8],"subjectId":"A1M3KGD9H8RTBH","assignmentId":"3TYCR1GOTD5LD8CNR23TTBKK97YZLT","hitId":"3JGHED38EDDK7DFM0KVY7GXU94LY7W","url":"https://gershmanlab.com/experiments/alicia/teaching/experiment/?hitId=3JGHED38EDDK7DFM0KVY7GXU94LY7W&workerId=A1M3KGD9H8RTBH&assignmentId=3TYCR1GOTD5LD8CNR23TTBKK97YZLT&a=ORYT9&tp_a=ORYT9&b=3TYCR1GOTD5LD8CNR23TTBKK97YZLT&tp_b=3TYCR1GOTD5LD8CNR23TTBKK97YZLT&c=365799&tp_c=365799","firstResponseHeads":5,"firstResponseTails":5,"secondResponseHeads":5,"secondResponseTails":5,"totalHeads":10,"totalTails":10,"studentIndex":0,"studentTrueHypers":{"a":2,"b":8},"studentGuess":0.4,"delta":0.4,"bonus":0,"bonusSoFar":0,"totalExamples":20},{"rt":null,"stimulus":"Sending examples to student... ","response":null,"trial_type":"html-keyboard-response","trial_index":11,"time_elapsed":404643,"internal_node_id":"0.0-10.0","params":{"nStudents":24,"maxFlips":30,"completionMinutes":45,"basePay":8,"maxBonus":9,"perTrialBonus":0.5,"perTrialBonusThreshold":0.05,"exampleCost":0.01},"classroomParams":{"A":{"a":1,"b":4},"B":{"a":4,"b":1},"C":{"a":2,"b":8},"D":{"a":8,"b":2}},"conditions":["nonSeqFull","nonSeqPartial","seqNoFeedback","seqFeedback"],"classroomPairings":[["A","B"],["C","D"]],"coinWeights":[0.2,0.5,0.8],"subjectId":"A1M3KGD9H8RTBH","assignmentId":"3TYCR1GOTD5LD8CNR23TTBKK97YZLT","hitId":"3JGHED38EDDK7DFM0KVY7GXU94LY7W","url":"https://gershmanlab.com/experiments/alicia/teaching/experiment/?hitId=3JGHED38EDDK7DFM0KVY7GXU94LY7W&workerId=A1M3KGD9H8RTBH&assignmentId=3TYCR1GOTD5LD8CNR23TTBKK97YZLT&a=ORYT9&tp_a=ORYT9&b=3TYCR1GOTD5LD8CNR23TTBKK97YZLT&tp_b=3TYCR1GOTD5LD8CNR23TTBKK97YZLT&c=365799&tp_c=365799"},{"rt":null,"stimulus":"Examples sent to student! Waiting for student...","response":null,"trial_type":"html-keyboard-response","trial_index":12,"time_elapsed":408656,"internal_node_id":"0.0-11.0","params":{"nStudents":24,"maxFlips":30,"completionMinutes":45,"basePay":8,"maxBonus":9,"perTrialBonus":0.5,"perTrialBonusThreshold":0.05,"exampleCost":0.01},"classroomParams":{"A":{"a":1,"b":4},"B":{"a":4,"b":1},"C":{"a":2,"b":8},"D":{"a":8,"b":2}},"conditions":["nonSeqFull","nonSeqPartial","seqNoFeedback","seqFeedback"],"classroomPairings":[["A","B"],["C","D"]],"coinWeights":[0.2,0.5,0.8],"subjectId":"A1M3KGD9H8RTBH","assignmentId":"3TYCR1GOTD5LD8CNR23TTBKK97YZLT","hitId":"3JGHED38EDDK7DFM0KVY7GXU94LY7W","url":"https://gershmanlab.com/experiments/alicia/teaching/experiment/?hitId=3JGHED38EDDK7DFM0KVY7GXU94LY7W&workerId=A1M3KGD9H8RTBH&assignmentId=3TYCR1GOTD5LD8CNR23TTBKK97YZLT&a=ORYT9&tp_a=ORYT9&b=3TYCR1GOTD5LD8CNR23TTBKK97YZLT&tp_b=3TYCR1GOTD5LD8CNR23TTBKK97YZLT&c=365799&tp_c=365799"},{"rt":10064,"stimulus":"\n                <p>Student 1's first guess for coin weight: <b style=\"color:Tomato\";>0.35</b></p>\n                <p>Student 1's second guess for coin weight: <b style=\"color:Tomato\";>0.40</b></p>\n                <p>You received a bonus of <b>$0.00</b> based on the student's second guess.</p>\n                <p>Total bonus so far: <b>$0.00</b></p>\n                <p>Press any key to continue.</p>\n                ","response":" ","trial_type":"html-keyboard-response","trial_index":13,"time_elapsed":418721,"internal_node_id":"0.0-12.0","params":{"nStudents":24,"maxFlips":30,"completionMinutes":45,"basePay":8,"maxBonus":9,"perTrialBonus":0.5,"perTrialBonusThreshold":0.05,"exampleCost":0.01},"classroomParams":{"A":{"a":1,"b":4},"B":{"a":4,"b":1},"C":{"a":2,"b":8},"D":{"a":8,"b":2}},"conditions":["nonSeqFull","nonSeqPartial","seqNoFeedback","seqFeedback"],"classroomPairings":[["A","B"],["C","D"]],"coinWeights":[0.2,0.5,0.8],"subjectId":"A1M3KGD9H8RTBH","assignmentId":"3TYCR1GOTD5LD8CNR23TTBKK97YZLT","hitId":"3JGHED38EDDK7DFM0KVY7GXU94LY7W","url":"https://gershmanlab.com/experiments/alicia/teaching/experiment/?hitId=3JGHED38EDDK7DFM0KVY7GXU94LY7W&workerId=A1M3KGD9H8RTBH&assignmentId=3TYCR1GOTD5LD8CNR23TTBKK97YZLT&a=ORYT9&tp_a=ORYT9&b=3TYCR1GOTD5LD8CNR23TTBKK97YZLT&tp_b=3TYCR1GOTD5LD8CNR23TTBKK97YZLT&c=365799&tp_c=365799"},{"rt":null,"stimulus":"<div style=\"font-size:60px;\">Next student</div>","response":null,"trial_type":"html-keyboard-response","trial_index":14,"time_elapsed":420723,"internal_node_id":"0.0-13.0-0.0","params":{"nStudents":24,"maxFlips":30,"completionMinutes":45,"basePay":8,"maxBonus":9,"perTrialBonus":0.5,"perTrialBonusThreshold":0.05,"exampleCost":0.01},"classroomParams":{"A":{"a":1,"b":4},"B":{"a":4,"b":1},"C":{"a":2,"b":8},"D":{"a":8,"b":2}},"conditions":["nonSeqFull","nonSeqPartial","seqNoFeedback","seqFeedback"],"classroomPairings":[["A","B"],["C","D"]],"coinWeights":[0.2,0.5,0.8],"subjectId":"A1M3KGD9H8RTBH","assignmentId":"3TYCR1GOTD5LD8CNR23TTBKK97YZLT","hitId":"3JGHED38EDDK7DFM0KVY7GXU94LY7W","url":"https://gershmanlab.com/experiments/alicia/teaching/experiment/?hitId=3JGHED38EDDK7DFM0KVY7GXU94LY7W&workerId=A1M3KGD9H8RTBH&assignmentId=3TYCR1GOTD5LD8CNR23TTBKK97YZLT&a=ORYT9&tp_a=ORYT9&b=3TYCR1GOTD5LD8CNR23TTBKK97YZLT&tp_b=3TYCR1GOTD5LD8CNR23TTBKK97YZLT&c=365799&tp_c=365799"},{"rt":6534,"stimulus":"\n            <h4 style=\"color:Orange;\">Student 2</h4>\n            <h2>The weight of your coin is <b style=\"color:Tomato;\">0.2</b>.</h2>\n            <p>In this block, you will be giving <b>two</b> sets of examples to Student 2.</p>\n                <p>You will see the student's guess after the first set of examples. You will also receive feedback at the end of the block.</p>\n            <p>To earn the highest bonus, you will have to <b>take into consideration the student's guess</b> when you choose your second set of examples.</p>","response":0,"trial_type":"html-button-response","trial_index":15,"time_elapsed":427261,"internal_node_id":"0.0-14.0","params":{"nStudents":24,"maxFlips":30,"completionMinutes":45,"basePay":8,"maxBonus":9,"perTrialBonus":0.5,"perTrialBonusThreshold":0.05,"exampleCost":0.01},"classroomParams":{"A":{"a":1,"b":4},"B":{"a":4,"b":1},"C":{"a":2,"b":8},"D":{"a":8,"b":2}},"conditions":["nonSeqFull","nonSeqPartial","seqNoFeedback","seqFeedback"],"classroomPairings":[["A","B"],["C","D"]],"coinWeights":[0.2,0.5,0.8],"subjectId":"A1M3KGD9H8RTBH","assignmentId":"3TYCR1GOTD5LD8CNR23TTBKK97YZLT","hitId":"3JGHED38EDDK7DFM0KVY7GXU94LY7W","url":"https://gershmanlab.com/experiments/alicia/teaching/experiment/?hitId=3JGHED38EDDK7DFM0KVY7GXU94LY7W&workerId=A1M3KGD9H8RTBH&assignmentId=3TYCR1GOTD5LD8CNR23TTBKK97YZLT&a=ORYT9&tp_a=ORYT9&b=3TYCR1GOTD5LD8CNR23TTBKK97YZLT&tp_b=3TYCR1GOTD5LD8CNR23TTBKK97YZLT&c=365799&tp_c=365799"},{"rt":15243,"response":{"heads":"10","tails":"0"},"type":"response","condition":"seqFeedback","trueTheta":0.2,"classrooms":["A","B"],"studentTrueClassroom":"B","exampleSet":"first","trial_type":"survey-html-form","trial_index":16,"time_elapsed":442512,"internal_node_id":"0.0-15.0-0.0","params":{"nStudents":24,"maxFlips":30,"completionMinutes":45,"basePay":8,"maxBonus":9,"perTrialBonus":0.5,"perTrialBonusThreshold":0.05,"exampleCost":0.01},"classroomParams":{"A":{"a":1,"b":4},"B":{"a":4,"b":1},"C":{"a":2,"b":8},"D":{"a":8,"b":2}},"conditions":["nonSeqFull","nonSeqPartial","seqNoFeedback","seqFeedback"],"classroomPairings":[["A","B"],["C","D"]],"coinWeights":[0.2,0.5,0.8],"subjectId":"A1M3KGD9H8RTBH","assignmentId":"3TYCR1GOTD5LD8CNR23TTBKK97YZLT","hitId":"3JGHED38EDDK7DFM0KVY7GXU94LY7W","url":"https://gershmanlab.com/experiments/alicia/teaching/experiment/?hitId=3JGHED38EDDK7DFM0KVY7GXU94LY7W&workerId=A1M3KGD9H8RTBH&assignmentId=3TYCR1GOTD5LD8CNR23TTBKK97YZLT&a=ORYT9&tp_a=ORYT9&b=3TYCR1GOTD5LD8CNR23TTBKK97YZLT&tp_b=3TYCR1GOTD5LD8CNR23TTBKK97YZLT&c=365799&tp_c=365799","heads":10,"tails":0,"studentIndex":1,"studentTrueHypers":{"a":4,"b":1},"studentGuess":0.9333333333333333,"delta":0.7333333333333334,"totalExamples":10,"bonusSoFar":0},{"rt":null,"stimulus":"Sending examples to student... ","response":null,"trial_type":"html-keyboard-response","trial_index":17,"time_elapsed":444017,"internal_node_id":"0.0-16.0","params":{"nStudents":24,"maxFlips":30,"completionMinutes":45,"basePay":8,"maxBonus":9,"perTrialBonus":0.5,"perTrialBonusThreshold":0.05,"exampleCost":0.01},"classroomParams":{"A":{"a":1,"b":4},"B":{"a":4,"b":1},"C":{"a":2,"b":8},"D":{"a":8,"b":2}},"conditions":["nonSeqFull","nonSeqPartial","seqNoFeedback","seqFeedback"],"classroomPairings":[["A","B"],["C","D"]],"coinWeights":[0.2,0.5,0.8],"subjectId":"A1M3KGD9H8RTBH","assignmentId":"3TYCR1GOTD5LD8CNR23TTBKK97YZLT","hitId":"3JGHED38EDDK7DFM0KVY7GXU94LY7W","url":"https://gershmanlab.com/experiments/alicia/teaching/experiment/?hitId=3JGHED38EDDK7DFM0KVY7GXU94LY7W&workerId=A1M3KGD9H8RTBH&assignmentId=3TYCR1GOTD5LD8CNR23TTBKK97YZLT&a=ORYT9&tp_a=ORYT9&b=3TYCR1GOTD5LD8CNR23TTBKK97YZLT&tp_b=3TYCR1GOTD5LD8CNR23TTBKK97YZLT&c=365799&tp_c=365799"},{"rt":null,"stimulus":"Examples sent to student! Waiting for student...","response":null,"trial_type":"html-keyboard-response","trial_index":18,"time_elapsed":448029,"internal_node_id":"0.0-17.0","params":{"nStudents":24,"maxFlips":30,"completionMinutes":45,"basePay":8,"maxBonus":9,"perTrialBonus":0.5,"perTrialBonusThreshold":0.05,"exampleCost":0.01},"classroomParams":{"A":{"a":1,"b":4},"B":{"a":4,"b":1},"C":{"a":2,"b":8},"D":{"a":8,"b":2}},"conditions":["nonSeqFull","nonSeqPartial","seqNoFeedback","seqFeedback"],"classroomPairings":[["A","B"],["C","D"]],"coinWeights":[0.2,0.5,0.8],"subjectId":"A1M3KGD9H8RTBH","assignmentId":"3TYCR1GOTD5LD8CNR23TTBKK97YZLT","hitId":"3JGHED38EDDK7DFM0KVY7GXU94LY7W","url":"https://gershmanlab.com/experiments/alicia/teaching/experiment/?hitId=3JGHED38EDDK7DFM0KVY7GXU94LY7W&workerId=A1M3KGD9H8RTBH&assignmentId=3TYCR1GOTD5LD8CNR23TTBKK97YZLT&a=ORYT9&tp_a=ORYT9&b=3TYCR1GOTD5LD8CNR23TTBKK97YZLT&tp_b=3TYCR1GOTD5LD8CNR23TTBKK97YZLT&c=365799&tp_c=365799"},{"rt":7890,"stimulus":"\n                <p>Student's guess for coin weight: <b style=\"color:Tomato;\">0.93</b></p>\n                <p></b></p>\n                <p>You will now send another set of examples to your student. <b>Remember to take your student's guess into consideration so that you can earn the highest bonus possible!</b> </p>\n                <p>Press any key to continue.</p>\n                ","response":" ","trial_type":"html-keyboard-response","trial_index":19,"time_elapsed":455922,"internal_node_id":"0.0-18.0","params":{"nStudents":24,"maxFlips":30,"completionMinutes":45,"basePay":8,"maxBonus":9,"perTrialBonus":0.5,"perTrialBonusThreshold":0.05,"exampleCost":0.01},"classroomParams":{"A":{"a":1,"b":4},"B":{"a":4,"b":1},"C":{"a":2,"b":8},"D":{"a":8,"b":2}},"conditions":["nonSeqFull","nonSeqPartial","seqNoFeedback","seqFeedback"],"classroomPairings":[["A","B"],["C","D"]],"coinWeights":[0.2,0.5,0.8],"subjectId":"A1M3KGD9H8RTBH","assignmentId":"3TYCR1GOTD5LD8CNR23TTBKK97YZLT","hitId":"3JGHED38EDDK7DFM0KVY7GXU94LY7W","url":"https://gershmanlab.com/experiments/alicia/teaching/experiment/?hitId=3JGHED38EDDK7DFM0KVY7GXU94LY7W&workerId=A1M3KGD9H8RTBH&assignmentId=3TYCR1GOTD5LD8CNR23TTBKK97YZLT&a=ORYT9&tp_a=ORYT9&b=3TYCR1GOTD5LD8CNR23TTBKK97YZLT&tp_b=3TYCR1GOTD5LD8CNR23TTBKK97YZLT&c=365799&tp_c=365799"},{"rt":9470,"response":{"heads":"0","tails":"10"},"type":"response","condition":"seqFeedback","trueTheta":0.2,"classrooms":["A","B"],"studentTrueClassroom":"B","exampleSet":"second","trial_type":"survey-html-form","trial_index":20,"time_elapsed":465398,"internal_node_id":"0.0-19.0-0.0","params":{"nStudents":24,"maxFlips":30,"completionMinutes":45,"basePay":8,"maxBonus":9,"perTrialBonus":0.5,"perTrialBonusThreshold":0.05,"exampleCost":0.01},"classroomParams":{"A":{"a":1,"b":4},"B":{"a":4,"b":1},"C":{"a":2,"b":8},"D":{"a":8,"b":2}},"conditions":["nonSeqFull","nonSeqPartial","seqNoFeedback","seqFeedback"],"classroomPairings":[["A","B"],["C","D"]],"coinWeights":[0.2,0.5,0.8],"subjectId":"A1M3KGD9H8RTBH","assignmentId":"3TYCR1GOTD5LD8CNR23TTBKK97YZLT","hitId":"3JGHED38EDDK7DFM0KVY7GXU94LY7W","url":"https://gershmanlab.com/experiments/alicia/teaching/experiment/?hitId=3JGHED38EDDK7DFM0KVY7GXU94LY7W&workerId=A1M3KGD9H8RTBH&assignmentId=3TYCR1GOTD5LD8CNR23TTBKK97YZLT&a=ORYT9&tp_a=ORYT9&b=3TYCR1GOTD5LD8CNR23TTBKK97YZLT&tp_b=3TYCR1GOTD5LD8CNR23TTBKK97YZLT&c=365799&tp_c=365799","firstResponseHeads":10,"firstResponseTails":0,"secondResponseHeads":0,"secondResponseTails":10,"totalHeads":10,"totalTails":10,"studentIndex":1,"studentTrueHypers":{"a":4,"b":1},"studentGuess":0.56,"delta":0.36000000000000004,"bonus":0,"bonusSoFar":0,"totalExamples":20},{"rt":null,"stimulus":"Sending examples to student... ","response":null,"trial_type":"html-keyboard-response","trial_index":21,"time_elapsed":467152,"internal_node_id":"0.0-20.0","params":{"nStudents":24,"maxFlips":30,"completionMinutes":45,"basePay":8,"maxBonus":9,"perTrialBonus":0.5,"perTrialBonusThreshold":0.05,"exampleCost":0.01},"classroomParams":{"A":{"a":1,"b":4},"B":{"a":4,"b":1},"C":{"a":2,"b":8},"D":{"a":8,"b":2}},"conditions":["nonSeqFull","nonSeqPartial","seqNoFeedback","seqFeedback"],"classroomPairings":[["A","B"],["C","D"]],"coinWeights":[0.2,0.5,0.8],"subjectId":"A1M3KGD9H8RTBH","assignmentId":"3TYCR1GOTD5LD8CNR23TTBKK97YZLT","hitId":"3JGHED38EDDK7DFM0KVY7GXU94LY7W","url":"https://gershmanlab.com/experiments/alicia/teaching/experiment/?hitId=3JGHED38EDDK7DFM0KVY7GXU94LY7W&workerId=A1M3KGD9H8RTBH&assignmentId=3TYCR1GOTD5LD8CNR23TTBKK97YZLT&a=ORYT9&tp_a=ORYT9&b=3TYCR1GOTD5LD8CNR23TTBKK97YZLT&tp_b=3TYCR1GOTD5LD8CNR23TTBKK97YZLT&c=365799&tp_c=365799"},{"rt":null,"stimulus":"Examples sent to student! Waiting for student...","response":null,"trial_type":"html-keyboard-response","trial_index":22,"time_elapsed":473161,"internal_node_id":"0.0-21.0","params":{"nStudents":24,"maxFlips":30,"completionMinutes":45,"basePay":8,"maxBonus":9,"perTrialBonus":0.5,"perTrialBonusThreshold":0.05,"exampleCost":0.01},"classroomParams":{"A":{"a":1,"b":4},"B":{"a":4,"b":1},"C":{"a":2,"b":8},"D":{"a":8,"b":2}},"conditions":["nonSeqFull","nonSeqPartial","seqNoFeedback","seqFeedback"],"classroomPairings":[["A","B"],["C","D"]],"coinWeights":[0.2,0.5,0.8],"subjectId":"A1M3KGD9H8RTBH","assignmentId":"3TYCR1GOTD5LD8CNR23TTBKK97YZLT","hitId":"3JGHED38EDDK7DFM0KVY7GXU94LY7W","url":"https://gershmanlab.com/experiments/alicia/teaching/experiment/?hitId=3JGHED38EDDK7DFM0KVY7GXU94LY7W&workerId=A1M3KGD9H8RTBH&assignmentId=3TYCR1GOTD5LD8CNR23TTBKK97YZLT&a=ORYT9&tp_a=ORYT9&b=3TYCR1GOTD5LD8CNR23TTBKK97YZLT&tp_b=3TYCR1GOTD5LD8CNR23TTBKK97YZLT&c=365799&tp_c=365799"},{"rt":4185,"stimulus":"\n                <p>Student 2's first guess for coin weight: <b style=\"color:Tomato\";>0.93</b></p>\n                <p>Student 2's second guess for coin weight: <b style=\"color:Tomato\";>0.56</b></p>\n                <p>You received a bonus of <b>$0.00</b> based on the student's second guess.</p>\n                <p>Total bonus so far: <b>$0.00</b></p>\n                <p>Press any key to continue.</p>\n                ","response":" ","trial_type":"html-keyboard-response","trial_index":23,"time_elapsed":477348,"internal_node_id":"0.0-22.0","params":{"nStudents":24,"maxFlips":30,"completionMinutes":45,"basePay":8,"maxBonus":9,"perTrialBonus":0.5,"perTrialBonusThreshold":0.05,"exampleCost":0.01},"classroomParams":{"A":{"a":1,"b":4},"B":{"a":4,"b":1},"C":{"a":2,"b":8},"D":{"a":8,"b":2}},"conditions":["nonSeqFull","nonSeqPartial","seqNoFeedback","seqFeedback"],"classroomPairings":[["A","B"],["C","D"]],"coinWeights":[0.2,0.5,0.8],"subjectId":"A1M3KGD9H8RTBH","assignmentId":"3TYCR1GOTD5LD8CNR23TTBKK97YZLT","hitId":"3JGHED38EDDK7DFM0KVY7GXU94LY7W","url":"https://gershmanlab.com/experiments/alicia/teaching/experiment/?hitId=3JGHED38EDDK7DFM0KVY7GXU94LY7W&workerId=A1M3KGD9H8RTBH&assignmentId=3TYCR1GOTD5LD8CNR23TTBKK97YZLT&a=ORYT9&tp_a=ORYT9&b=3TYCR1GOTD5LD8CNR23TTBKK97YZLT&tp_b=3TYCR1GOTD5LD8CNR23TTBKK97YZLT&c=365799&tp_c=365799"},{"rt":null,"stimulus":"<div style=\"font-size:60px;\">Next student</div>","response":null,"trial_type":"html-keyboard-response","trial_index":24,"time_elapsed":480350,"internal_node_id":"0.0-23.0-0.0","params":{"nStudents":24,"maxFlips":30,"completionMinutes":45,"basePay":8,"maxBonus":9,"perTrialBonus":0.5,"perTrialBonusThreshold":0.05,"exampleCost":0.01},"classroomParams":{"A":{"a":1,"b":4},"B":{"a":4,"b":1},"C":{"a":2,"b":8},"D":{"a":8,"b":2}},"conditions":["nonSeqFull","nonSeqPartial","seqNoFeedback","seqFeedback"],"classroomPairings":[["A","B"],["C","D"]],"coinWeights":[0.2,0.5,0.8],"subjectId":"A1M3KGD9H8RTBH","assignmentId":"3TYCR1GOTD5LD8CNR23TTBKK97YZLT","hitId":"3JGHED38EDDK7DFM0KVY7GXU94LY7W","url":"https://gershmanlab.com/experiments/alicia/teaching/experiment/?hitId=3JGHED38EDDK7DFM0KVY7GXU94LY7W&workerId=A1M3KGD9H8RTBH&assignmentId=3TYCR1GOTD5LD8CNR23TTBKK97YZLT&a=ORYT9&tp_a=ORYT9&b=3TYCR1GOTD5LD8CNR23TTBKK97YZLT&tp_b=3TYCR1GOTD5LD8CNR23TTBKK97YZLT&c=365799&tp_c=365799"},{"rt":4859,"stimulus":"\n            <h4 style=\"color:Orange;\">Student 3</h4>\n            <h2>The weight of your coin is <b style=\"color:Tomato;\">0.5</b>.</h2>\n            <p>In this block, you will be giving <b>one</b> set of examples to Student 3.</p>\n                <p>You will receive feedback at the end of the block.</p>\n            <p></p>","response":0,"trial_type":"html-button-response","trial_index":25,"time_elapsed":485211,"internal_node_id":"0.0-24.0","params":{"nStudents":24,"maxFlips":30,"completionMinutes":45,"basePay":8,"maxBonus":9,"perTrialBonus":0.5,"perTrialBonusThreshold":0.05,"exampleCost":0.01},"classroomParams":{"A":{"a":1,"b":4},"B":{"a":4,"b":1},"C":{"a":2,"b":8},"D":{"a":8,"b":2}},"conditions":["nonSeqFull","nonSeqPartial","seqNoFeedback","seqFeedback"],"classroomPairings":[["A","B"],["C","D"]],"coinWeights":[0.2,0.5,0.8],"subjectId":"A1M3KGD9H8RTBH","assignmentId":"3TYCR1GOTD5LD8CNR23TTBKK97YZLT","hitId":"3JGHED38EDDK7DFM0KVY7GXU94LY7W","url":"https://gershmanlab.com/experiments/alicia/teaching/experiment/?hitId=3JGHED38EDDK7DFM0KVY7GXU94LY7W&workerId=A1M3KGD9H8RTBH&assignmentId=3TYCR1GOTD5LD8CNR23TTBKK97YZLT&a=ORYT9&tp_a=ORYT9&b=3TYCR1GOTD5LD8CNR23TTBKK97YZLT&tp_b=3TYCR1GOTD5LD8CNR23TTBKK97YZLT&c=365799&tp_c=365799"},{"rt":7459,"response":{"heads":"5","tails":"5"},"type":"response","condition":"nonSeqFull","trueTheta":0.5,"classrooms":["A","B"],"studentTrueClassroom":"B","exampleSet":"first","trial_type":"survey-html-form","trial_index":26,"time_elapsed":492679,"internal_node_id":"0.0-25.0-0.0","params":{"nStudents":24,"maxFlips":30,"completionMinutes":45,"basePay":8,"maxBonus":9,"perTrialBonus":0.5,"perTrialBonusThreshold":0.05,"exampleCost":0.01},"classroomParams":{"A":{"a":1,"b":4},"B":{"a":4,"b":1},"C":{"a":2,"b":8},"D":{"a":8,"b":2}},"conditions":["nonSeqFull","nonSeqPartial","seqNoFeedback","seqFeedback"],"classroomPairings":[["A","B"],["C","D"]],"coinWeights":[0.2,0.5,0.8],"subjectId":"A1M3KGD9H8RTBH","assignmentId":"3TYCR1GOTD5LD8CNR23TTBKK97YZLT","hitId":"3JGHED38EDDK7DFM0KVY7GXU94LY7W","url":"https://gershmanlab.com/experiments/alicia/teaching/experiment/?hitId=3JGHED38EDDK7DFM0KVY7GXU94LY7W&workerId=A1M3KGD9H8RTBH&assignmentId=3TYCR1GOTD5LD8CNR23TTBKK97YZLT&a=ORYT9&tp_a=ORYT9&b=3TYCR1GOTD5LD8CNR23TTBKK97YZLT&tp_b=3TYCR1GOTD5LD8CNR23TTBKK97YZLT&c=365799&tp_c=365799","heads":5,"tails":5,"studentIndex":2,"studentTrueHypers":{"a":4,"b":1},"studentGuess":0.6,"delta":0.09999999999999998,"totalExamples":10,"bonus":0,"bonusSoFar":0},{"rt":null,"stimulus":"Sending examples to student... ","response":null,"trial_type":"html-keyboard-response","trial_index":27,"time_elapsed":494186,"internal_node_id":"0.0-26.0","params":{"nStudents":24,"maxFlips":30,"completionMinutes":45,"basePay":8,"maxBonus":9,"perTrialBonus":0.5,"perTrialBonusThreshold":0.05,"exampleCost":0.01},"classroomParams":{"A":{"a":1,"b":4},"B":{"a":4,"b":1},"C":{"a":2,"b":8},"D":{"a":8,"b":2}},"conditions":["nonSeqFull","nonSeqPartial","seqNoFeedback","seqFeedback"],"classroomPairings":[["A","B"],["C","D"]],"coinWeights":[0.2,0.5,0.8],"subjectId":"A1M3KGD9H8RTBH","assignmentId":"3TYCR1GOTD5LD8CNR23TTBKK97YZLT","hitId":"3JGHED38EDDK7DFM0KVY7GXU94LY7W","url":"https://gershmanlab.com/experiments/alicia/teaching/experiment/?hitId=3JGHED38EDDK7DFM0KVY7GXU94LY7W&workerId=A1M3KGD9H8RTBH&assignmentId=3TYCR1GOTD5LD8CNR23TTBKK97YZLT&a=ORYT9&tp_a=ORYT9&b=3TYCR1GOTD5LD8CNR23TTBKK97YZLT&tp_b=3TYCR1GOTD5LD8CNR23TTBKK97YZLT&c=365799&tp_c=365799"},{"rt":null,"stimulus":"Examples sent to student! Waiting for student...","response":null,"trial_type":"html-keyboard-response","trial_index":28,"time_elapsed":500201,"internal_node_id":"0.0-27.0","params":{"nStudents":24,"maxFlips":30,"completionMinutes":45,"basePay":8,"maxBonus":9,"perTrialBonus":0.5,"perTrialBonusThreshold":0.05,"exampleCost":0.01},"classroomParams":{"A":{"a":1,"b":4},"B":{"a":4,"b":1},"C":{"a":2,"b":8},"D":{"a":8,"b":2}},"conditions":["nonSeqFull","nonSeqPartial","seqNoFeedback","seqFeedback"],"classroomPairings":[["A","B"],["C","D"]],"coinWeights":[0.2,0.5,0.8],"subjectId":"A1M3KGD9H8RTBH","assignmentId":"3TYCR1GOTD5LD8CNR23TTBKK97YZLT","hitId":"3JGHED38EDDK7DFM0KVY7GXU94LY7W","url":"https://gershmanlab.com/experiments/alicia/teaching/experiment/?hitId=3JGHED38EDDK7DFM0KVY7GXU94LY7W&workerId=A1M3KGD9H8RTBH&assignmentId=3TYCR1GOTD5LD8CNR23TTBKK97YZLT&a=ORYT9&tp_a=ORYT9&b=3TYCR1GOTD5LD8CNR23TTBKK97YZLT&tp_b=3TYCR1GOTD5LD8CNR23TTBKK97YZLT&c=365799&tp_c=365799"},{"rt":2897,"stimulus":"\n                <p>Student's guess for coin weight: <b style=\"color:Tomato;\">0.60</b></p>\n                <p>You received a bonus of <b>$0</b>. Total bonus so far: <b>$0.00</b></b></p>\n                <p></p>\n                <p>Press any key to continue.</p>\n                ","response":" ","trial_type":"html-keyboard-response","trial_index":29,"time_elapsed":503099,"internal_node_id":"0.0-28.0","params":{"nStudents":24,"maxFlips":30,"completionMinutes":45,"basePay":8,"maxBonus":9,"perTrialBonus":0.5,"perTrialBonusThreshold":0.05,"exampleCost":0.01},"classroomParams":{"A":{"a":1,"b":4},"B":{"a":4,"b":1},"C":{"a":2,"b":8},"D":{"a":8,"b":2}},"conditions":["nonSeqFull","nonSeqPartial","seqNoFeedback","seqFeedback"],"classroomPairings":[["A","B"],["C","D"]],"coinWeights":[0.2,0.5,0.8],"subjectId":"A1M3KGD9H8RTBH","assignmentId":"3TYCR1GOTD5LD8CNR23TTBKK97YZLT","hitId":"3JGHED38EDDK7DFM0KVY7GXU94LY7W","url":"https://gershmanlab.com/experiments/alicia/teaching/experiment/?hitId=3JGHED38EDDK7DFM0KVY7GXU94LY7W&workerId=A1M3KGD9H8RTBH&assignmentId=3TYCR1GOTD5LD8CNR23TTBKK97YZLT&a=ORYT9&tp_a=ORYT9&b=3TYCR1GOTD5LD8CNR23TTBKK97YZLT&tp_b=3TYCR1GOTD5LD8CNR23TTBKK97YZLT&c=365799&tp_c=365799"},{"rt":null,"stimulus":"<div style=\"font-size:60px;\">Next student</div>","response":null,"trial_type":"html-keyboard-response","trial_index":30,"time_elapsed":505351,"internal_node_id":"0.0-29.0-0.0","params":{"nStudents":24,"maxFlips":30,"completionMinutes":45,"basePay":8,"maxBonus":9,"perTrialBonus":0.5,"perTrialBonusThreshold":0.05,"exampleCost":0.01},"classroomParams":{"A":{"a":1,"b":4},"B":{"a":4,"b":1},"C":{"a":2,"b":8},"D":{"a":8,"b":2}},"conditions":["nonSeqFull","nonSeqPartial","seqNoFeedback","seqFeedback"],"classroomPairings":[["A","B"],["C","D"]],"coinWeights":[0.2,0.5,0.8],"subjectId":"A1M3KGD9H8RTBH","assignmentId":"3TYCR1GOTD5LD8CNR23TTBKK97YZLT","hitId":"3JGHED38EDDK7DFM0KVY7GXU94LY7W","url":"https://gershmanlab.com/experiments/alicia/teaching/experiment/?hitId=3JGHED38EDDK7DFM0KVY7GXU94LY7W&workerId=A1M3KGD9H8RTBH&assignmentId=3TYCR1GOTD5LD8CNR23TTBKK97YZLT&a=ORYT9&tp_a=ORYT9&b=3TYCR1GOTD5LD8CNR23TTBKK97YZLT&tp_b=3TYCR1GOTD5LD8CNR23TTBKK97YZLT&c=365799&tp_c=365799"},{"rt":4259,"stimulus":"\n            <h4 style=\"color:Orange;\">Student 4</h4>\n            <h2>The weight of your coin is <b style=\"color:Tomato;\">0.5</b>.</h2>\n            <p>In this block, you will be giving <b>one</b> set of examples to Student 4.</p>\n                <p>You will receive feedback at the end of the block.</p>\n            <p></p>","response":0,"trial_type":"html-button-response","trial_index":31,"time_elapsed":509613,"internal_node_id":"0.0-30.0","params":{"nStudents":24,"maxFlips":30,"completionMinutes":45,"basePay":8,"maxBonus":9,"perTrialBonus":0.5,"perTrialBonusThreshold":0.05,"exampleCost":0.01},"classroomParams":{"A":{"a":1,"b":4},"B":{"a":4,"b":1},"C":{"a":2,"b":8},"D":{"a":8,"b":2}},"conditions":["nonSeqFull","nonSeqPartial","seqNoFeedback","seqFeedback"],"classroomPairings":[["A","B"],["C","D"]],"coinWeights":[0.2,0.5,0.8],"subjectId":"A1M3KGD9H8RTBH","assignmentId":"3TYCR1GOTD5LD8CNR23TTBKK97YZLT","hitId":"3JGHED38EDDK7DFM0KVY7GXU94LY7W","url":"https://gershmanlab.com/experiments/alicia/teaching/experiment/?hitId=3JGHED38EDDK7DFM0KVY7GXU94LY7W&workerId=A1M3KGD9H8RTBH&assignmentId=3TYCR1GOTD5LD8CNR23TTBKK97YZLT&a=ORYT9&tp_a=ORYT9&b=3TYCR1GOTD5LD8CNR23TTBKK97YZLT&tp_b=3TYCR1GOTD5LD8CNR23TTBKK97YZLT&c=365799&tp_c=365799"},{"rt":10987,"response":{"heads":"5","tails":"5"},"type":"response","condition":"nonSeqPartial","trueTheta":0.5,"classrooms":["C","D"],"studentTrueClassroom":"C","exampleSet":"first","trial_type":"survey-html-form","trial_index":32,"time_elapsed":520604,"internal_node_id":"0.0-31.0-0.0","params":{"nStudents":24,"maxFlips":30,"completionMinutes":45,"basePay":8,"maxBonus":9,"perTrialBonus":0.5,"perTrialBonusThreshold":0.05,"exampleCost":0.01},"classroomParams":{"A":{"a":1,"b":4},"B":{"a":4,"b":1},"C":{"a":2,"b":8},"D":{"a":8,"b":2}},"conditions":["nonSeqFull","nonSeqPartial","seqNoFeedback","seqFeedback"],"classroomPairings":[["A","B"],["C","D"]],"coinWeights":[0.2,0.5,0.8],"subjectId":"A1M3KGD9H8RTBH","assignmentId":"3TYCR1GOTD5LD8CNR23TTBKK97YZLT","hitId":"3JGHED38EDDK7DFM0KVY7GXU94LY7W","url":"https://gershmanlab.com/experiments/alicia/teaching/experiment/?hitId=3JGHED38EDDK7DFM0KVY7GXU94LY7W&workerId=A1M3KGD9H8RTBH&assignmentId=3TYCR1GOTD5LD8CNR23TTBKK97YZLT&a=ORYT9&tp_a=ORYT9&b=3TYCR1GOTD5LD8CNR23TTBKK97YZLT&tp_b=3TYCR1GOTD5LD8CNR23TTBKK97YZLT&c=365799&tp_c=365799","heads":5,"tails":5,"studentIndex":3,"studentTrueHypers":{"a":2,"b":8},"studentGuess":0.35,"delta":0.15000000000000002,"totalExamples":10,"bonus":0,"bonusSoFar":0},{"rt":null,"stimulus":"Sending examples to student... ","response":null,"trial_type":"html-keyboard-response","trial_index":33,"time_elapsed":522108,"internal_node_id":"0.0-32.0","params":{"nStudents":24,"maxFlips":30,"completionMinutes":45,"basePay":8,"maxBonus":9,"perTrialBonus":0.5,"perTrialBonusThreshold":0.05,"exampleCost":0.01},"classroomParams":{"A":{"a":1,"b":4},"B":{"a":4,"b":1},"C":{"a":2,"b":8},"D":{"a":8,"b":2}},"conditions":["nonSeqFull","nonSeqPartial","seqNoFeedback","seqFeedback"],"classroomPairings":[["A","B"],["C","D"]],"coinWeights":[0.2,0.5,0.8],"subjectId":"A1M3KGD9H8RTBH","assignmentId":"3TYCR1GOTD5LD8CNR23TTBKK97YZLT","hitId":"3JGHED38EDDK7DFM0KVY7GXU94LY7W","url":"https://gershmanlab.com/experiments/alicia/teaching/experiment/?hitId=3JGHED38EDDK7DFM0KVY7GXU94LY7W&workerId=A1M3KGD9H8RTBH&assignmentId=3TYCR1GOTD5LD8CNR23TTBKK97YZLT&a=ORYT9&tp_a=ORYT9&b=3TYCR1GOTD5LD8CNR23TTBKK97YZLT&tp_b=3TYCR1GOTD5LD8CNR23TTBKK97YZLT&c=365799&tp_c=365799"},{"rt":null,"stimulus":"Examples sent to student! Waiting for student...","response":null,"trial_type":"html-keyboard-response","trial_index":34,"time_elapsed":526612,"internal_node_id":"0.0-33.0","params":{"nStudents":24,"maxFlips":30,"completionMinutes":45,"basePay":8,"maxBonus":9,"perTrialBonus":0.5,"perTrialBonusThreshold":0.05,"exampleCost":0.01},"classroomParams":{"A":{"a":1,"b":4},"B":{"a":4,"b":1},"C":{"a":2,"b":8},"D":{"a":8,"b":2}},"conditions":["nonSeqFull","nonSeqPartial","seqNoFeedback","seqFeedback"],"classroomPairings":[["A","B"],["C","D"]],"coinWeights":[0.2,0.5,0.8],"subjectId":"A1M3KGD9H8RTBH","assignmentId":"3TYCR1GOTD5LD8CNR23TTBKK97YZLT","hitId":"3JGHED38EDDK7DFM0KVY7GXU94LY7W","url":"https://gershmanlab.com/experiments/alicia/teaching/experiment/?hitId=3JGHED38EDDK7DFM0KVY7GXU94LY7W&workerId=A1M3KGD9H8RTBH&assignmentId=3TYCR1GOTD5LD8CNR23TTBKK97YZLT&a=ORYT9&tp_a=ORYT9&b=3TYCR1GOTD5LD8CNR23TTBKK97YZLT&tp_b=3TYCR1GOTD5LD8CNR23TTBKK97YZLT&c=365799&tp_c=365799"},{"rt":3206,"stimulus":"\n                <p>Student's guess for coin weight: <b style=\"color:Tomato;\">0.35</b></p>\n                <p>You received a bonus of <b>$0</b>. Total bonus so far: <b>$0.00</b></b></p>\n                <p></p>\n                <p>Press any key to continue.</p>\n                ","response":" ","trial_type":"html-keyboard-response","trial_index":35,"time_elapsed":529820,"internal_node_id":"0.0-34.0","params":{"nStudents":24,"maxFlips":30,"completionMinutes":45,"basePay":8,"maxBonus":9,"perTrialBonus":0.5,"perTrialBonusThreshold":0.05,"exampleCost":0.01},"classroomParams":{"A":{"a":1,"b":4},"B":{"a":4,"b":1},"C":{"a":2,"b":8},"D":{"a":8,"b":2}},"conditions":["nonSeqFull","nonSeqPartial","seqNoFeedback","seqFeedback"],"classroomPairings":[["A","B"],["C","D"]],"coinWeights":[0.2,0.5,0.8],"subjectId":"A1M3KGD9H8RTBH","assignmentId":"3TYCR1GOTD5LD8CNR23TTBKK97YZLT","hitId":"3JGHED38EDDK7DFM0KVY7GXU94LY7W","url":"https://gershmanlab.com/experiments/alicia/teaching/experiment/?hitId=3JGHED38EDDK7DFM0KVY7GXU94LY7W&workerId=A1M3KGD9H8RTBH&assignmentId=3TYCR1GOTD5LD8CNR23TTBKK97YZLT&a=ORYT9&tp_a=ORYT9&b=3TYCR1GOTD5LD8CNR23TTBKK97YZLT&tp_b=3TYCR1GOTD5LD8CNR23TTBKK97YZLT&c=365799&tp_c=365799"},{"rt":null,"stimulus":"<div style=\"font-size:60px;\">Next student</div>","response":null,"trial_type":"html-keyboard-response","trial_index":36,"time_elapsed":531830,"internal_node_id":"0.0-35.0-0.0","params":{"nStudents":24,"maxFlips":30,"completionMinutes":45,"basePay":8,"maxBonus":9,"perTrialBonus":0.5,"perTrialBonusThreshold":0.05,"exampleCost":0.01},"classroomParams":{"A":{"a":1,"b":4},"B":{"a":4,"b":1},"C":{"a":2,"b":8},"D":{"a":8,"b":2}},"conditions":["nonSeqFull","nonSeqPartial","seqNoFeedback","seqFeedback"],"classroomPairings":[["A","B"],["C","D"]],"coinWeights":[0.2,0.5,0.8],"subjectId":"A1M3KGD9H8RTBH","assignmentId":"3TYCR1GOTD5LD8CNR23TTBKK97YZLT","hitId":"3JGHED38EDDK7DFM0KVY7GXU94LY7W","url":"https://gershmanlab.com/experiments/alicia/teaching/experiment/?hitId=3JGHED38EDDK7DFM0KVY7GXU94LY7W&workerId=A1M3KGD9H8RTBH&assignmentId=3TYCR1GOTD5LD8CNR23TTBKK97YZLT&a=ORYT9&tp_a=ORYT9&b=3TYCR1GOTD5LD8CNR23TTBKK97YZLT&tp_b=3TYCR1GOTD5LD8CNR23TTBKK97YZLT&c=365799&tp_c=365799"},{"rt":3690,"stimulus":"\n            <h4 style=\"color:Orange;\">Student 5</h4>\n            <h2>The weight of your coin is <b style=\"color:Tomato;\">0.8</b>.</h2>\n            <p>In this block, you will be giving <b>two</b> sets of examples to Student 5.</p>\n                <p>You will see the student's guess after the first set of examples. You will also receive feedback at the end of the block.</p>\n            <p>To earn the highest bonus, you will have to <b>take into consideration the student's guess</b> when you choose your second set of examples.</p>","response":0,"trial_type":"html-button-response","trial_index":37,"time_elapsed":535522,"internal_node_id":"0.0-36.0","params":{"nStudents":24,"maxFlips":30,"completionMinutes":45,"basePay":8,"maxBonus":9,"perTrialBonus":0.5,"perTrialBonusThreshold":0.05,"exampleCost":0.01},"classroomParams":{"A":{"a":1,"b":4},"B":{"a":4,"b":1},"C":{"a":2,"b":8},"D":{"a":8,"b":2}},"conditions":["nonSeqFull","nonSeqPartial","seqNoFeedback","seqFeedback"],"classroomPairings":[["A","B"],["C","D"]],"coinWeights":[0.2,0.5,0.8],"subjectId":"A1M3KGD9H8RTBH","assignmentId":"3TYCR1GOTD5LD8CNR23TTBKK97YZLT","hitId":"3JGHED38EDDK7DFM0KVY7GXU94LY7W","url":"https://gershmanlab.com/experiments/alicia/teaching/experiment/?hitId=3JGHED38EDDK7DFM0KVY7GXU94LY7W&workerId=A1M3KGD9H8RTBH&assignmentId=3TYCR1GOTD5LD8CNR23TTBKK97YZLT&a=ORYT9&tp_a=ORYT9&b=3TYCR1GOTD5LD8CNR23TTBKK97YZLT&tp_b=3TYCR1GOTD5LD8CNR23TTBKK97YZLT&c=365799&tp_c=365799"},{"rt":15255,"response":{"heads":"7","tails":"0"},"type":"response","condition":"seqFeedback","trueTheta":0.8,"classrooms":["C","D"],"studentTrueClassroom":"D","exampleSet":"first","trial_type":"survey-html-form","trial_index":38,"time_elapsed":550783,"internal_node_id":"0.0-37.0-0.0","params":{"nStudents":24,"maxFlips":30,"completionMinutes":45,"basePay":8,"maxBonus":9,"perTrialBonus":0.5,"perTrialBonusThreshold":0.05,"exampleCost":0.01},"classroomParams":{"A":{"a":1,"b":4},"B":{"a":4,"b":1},"C":{"a":2,"b":8},"D":{"a":8,"b":2}},"conditions":["nonSeqFull","nonSeqPartial","seqNoFeedback","seqFeedback"],"classroomPairings":[["A","B"],["C","D"]],"coinWeights":[0.2,0.5,0.8],"subjectId":"A1M3KGD9H8RTBH","assignmentId":"3TYCR1GOTD5LD8CNR23TTBKK97YZLT","hitId":"3JGHED38EDDK7DFM0KVY7GXU94LY7W","url":"https://gershmanlab.com/experiments/alicia/teaching/experiment/?hitId=3JGHED38EDDK7DFM0KVY7GXU94LY7W&workerId=A1M3KGD9H8RTBH&assignmentId=3TYCR1GOTD5LD8CNR23TTBKK97YZLT&a=ORYT9&tp_a=ORYT9&b=3TYCR1GOTD5LD8CNR23TTBKK97YZLT&tp_b=3TYCR1GOTD5LD8CNR23TTBKK97YZLT&c=365799&tp_c=365799","heads":7,"tails":0,"studentIndex":4,"studentTrueHypers":{"a":8,"b":2},"studentGuess":0.8823529411764706,"delta":0.08235294117647052,"totalExamples":7,"bonusSoFar":0},{"rt":null,"stimulus":"Sending examples to student... ","response":null,"trial_type":"html-keyboard-response","trial_index":39,"time_elapsed":552786,"internal_node_id":"0.0-38.0","params":{"nStudents":24,"maxFlips":30,"completionMinutes":45,"basePay":8,"maxBonus":9,"perTrialBonus":0.5,"perTrialBonusThreshold":0.05,"exampleCost":0.01},"classroomParams":{"A":{"a":1,"b":4},"B":{"a":4,"b":1},"C":{"a":2,"b":8},"D":{"a":8,"b":2}},"conditions":["nonSeqFull","nonSeqPartial","seqNoFeedback","seqFeedback"],"classroomPairings":[["A","B"],["C","D"]],"coinWeights":[0.2,0.5,0.8],"subjectId":"A1M3KGD9H8RTBH","assignmentId":"3TYCR1GOTD5LD8CNR23TTBKK97YZLT","hitId":"3JGHED38EDDK7DFM0KVY7GXU94LY7W","url":"https://gershmanlab.com/experiments/alicia/teaching/experiment/?hitId=3JGHED38EDDK7DFM0KVY7GXU94LY7W&workerId=A1M3KGD9H8RTBH&assignmentId=3TYCR1GOTD5LD8CNR23TTBKK97YZLT&a=ORYT9&tp_a=ORYT9&b=3TYCR1GOTD5LD8CNR23TTBKK97YZLT&tp_b=3TYCR1GOTD5LD8CNR23TTBKK97YZLT&c=365799&tp_c=365799"},{"rt":null,"stimulus":"Examples sent to student! Waiting for student...","response":null,"trial_type":"html-keyboard-response","trial_index":40,"time_elapsed":558790,"internal_node_id":"0.0-39.0","params":{"nStudents":24,"maxFlips":30,"completionMinutes":45,"basePay":8,"maxBonus":9,"perTrialBonus":0.5,"perTrialBonusThreshold":0.05,"exampleCost":0.01},"classroomParams":{"A":{"a":1,"b":4},"B":{"a":4,"b":1},"C":{"a":2,"b":8},"D":{"a":8,"b":2}},"conditions":["nonSeqFull","nonSeqPartial","seqNoFeedback","seqFeedback"],"classroomPairings":[["A","B"],["C","D"]],"coinWeights":[0.2,0.5,0.8],"subjectId":"A1M3KGD9H8RTBH","assignmentId":"3TYCR1GOTD5LD8CNR23TTBKK97YZLT","hitId":"3JGHED38EDDK7DFM0KVY7GXU94LY7W","url":"https://gershmanlab.com/experiments/alicia/teaching/experiment/?hitId=3JGHED38EDDK7DFM0KVY7GXU94LY7W&workerId=A1M3KGD9H8RTBH&assignmentId=3TYCR1GOTD5LD8CNR23TTBKK97YZLT&a=ORYT9&tp_a=ORYT9&b=3TYCR1GOTD5LD8CNR23TTBKK97YZLT&tp_b=3TYCR1GOTD5LD8CNR23TTBKK97YZLT&c=365799&tp_c=365799"},{"rt":4548,"stimulus":"\n                <p>Student's guess for coin weight: <b style=\"color:Tomato;\">0.88</b></p>\n                <p></b></p>\n                <p>You will now send another set of examples to your student. <b>Remember to take your student's guess into consideration so that you can earn the highest bonus possible!</b> </p>\n                <p>Press any key to continue.</p>\n                ","response":" ","trial_type":"html-keyboard-response","trial_index":41,"time_elapsed":563339,"internal_node_id":"0.0-40.0","params":{"nStudents":24,"maxFlips":30,"completionMinutes":45,"basePay":8,"maxBonus":9,"perTrialBonus":0.5,"perTrialBonusThreshold":0.05,"exampleCost":0.01},"classroomParams":{"A":{"a":1,"b":4},"B":{"a":4,"b":1},"C":{"a":2,"b":8},"D":{"a":8,"b":2}},"conditions":["nonSeqFull","nonSeqPartial","seqNoFeedback","seqFeedback"],"classroomPairings":[["A","B"],["C","D"]],"coinWeights":[0.2,0.5,0.8],"subjectId":"A1M3KGD9H8RTBH","assignmentId":"3TYCR1GOTD5LD8CNR23TTBKK97YZLT","hitId":"3JGHED38EDDK7DFM0KVY7GXU94LY7W","url":"https://gershmanlab.com/experiments/alicia/teaching/experiment/?hitId=3JGHED38EDDK7DFM0KVY7GXU94LY7W&workerId=A1M3KGD9H8RTBH&assignmentId=3TYCR1GOTD5LD8CNR23TTBKK97YZLT&a=ORYT9&tp_a=ORYT9&b=3TYCR1GOTD5LD8CNR23TTBKK97YZLT&tp_b=3TYCR1GOTD5LD8CNR23TTBKK97YZLT&c=365799&tp_c=365799"},{"rt":12579,"response":{"heads":"6","tails":"0"},"type":"response","condition":"seqFeedback","trueTheta":0.8,"classrooms":["C","D"],"studentTrueClassroom":"D","exampleSet":"second","trial_type":"survey-html-form","trial_index":42,"time_elapsed":575928,"internal_node_id":"0.0-41.0-0.0","params":{"nStudents":24,"maxFlips":30,"completionMinutes":45,"basePay":8,"maxBonus":9,"perTrialBonus":0.5,"perTrialBonusThreshold":0.05,"exampleCost":0.01},"classroomParams":{"A":{"a":1,"b":4},"B":{"a":4,"b":1},"C":{"a":2,"b":8},"D":{"a":8,"b":2}},"conditions":["nonSeqFull","nonSeqPartial","seqNoFeedback","seqFeedback"],"classroomPairings":[["A","B"],["C","D"]],"coinWeights":[0.2,0.5,0.8],"subjectId":"A1M3KGD9H8RTBH","assignmentId":"3TYCR1GOTD5LD8CNR23TTBKK97YZLT","hitId":"3JGHED38EDDK7DFM0KVY7GXU94LY7W","url":"https://gershmanlab.com/experiments/alicia/teaching/experiment/?hitId=3JGHED38EDDK7DFM0KVY7GXU94LY7W&workerId=A1M3KGD9H8RTBH&assignmentId=3TYCR1GOTD5LD8CNR23TTBKK97YZLT&a=ORYT9&tp_a=ORYT9&b=3TYCR1GOTD5LD8CNR23TTBKK97YZLT&tp_b=3TYCR1GOTD5LD8CNR23TTBKK97YZLT&c=365799&tp_c=365799","firstResponseHeads":7,"firstResponseTails":0,"secondResponseHeads":6,"secondResponseTails":0,"totalHeads":13,"totalTails":0,"studentIndex":4,"studentTrueHypers":{"a":8,"b":2},"studentGuess":0.9130434782608695,"delta":0.11304347826086947,"bonus":0,"bonusSoFar":0,"totalExamples":13},{"rt":null,"stimulus":"Sending examples to student... ","response":null,"trial_type":"html-keyboard-response","trial_index":43,"time_elapsed":577942,"internal_node_id":"0.0-42.0","params":{"nStudents":24,"maxFlips":30,"completionMinutes":45,"basePay":8,"maxBonus":9,"perTrialBonus":0.5,"perTrialBonusThreshold":0.05,"exampleCost":0.01},"classroomParams":{"A":{"a":1,"b":4},"B":{"a":4,"b":1},"C":{"a":2,"b":8},"D":{"a":8,"b":2}},"conditions":["nonSeqFull","nonSeqPartial","seqNoFeedback","seqFeedback"],"classroomPairings":[["A","B"],["C","D"]],"coinWeights":[0.2,0.5,0.8],"subjectId":"A1M3KGD9H8RTBH","assignmentId":"3TYCR1GOTD5LD8CNR23TTBKK97YZLT","hitId":"3JGHED38EDDK7DFM0KVY7GXU94LY7W","url":"https://gershmanlab.com/experiments/alicia/teaching/experiment/?hitId=3JGHED38EDDK7DFM0KVY7GXU94LY7W&workerId=A1M3KGD9H8RTBH&assignmentId=3TYCR1GOTD5LD8CNR23TTBKK97YZLT&a=ORYT9&tp_a=ORYT9&b=3TYCR1GOTD5LD8CNR23TTBKK97YZLT&tp_b=3TYCR1GOTD5LD8CNR23TTBKK97YZLT&c=365799&tp_c=365799"},{"rt":null,"stimulus":"Examples sent to student! Waiting for student...","response":null,"trial_type":"html-keyboard-response","trial_index":44,"time_elapsed":583449,"internal_node_id":"0.0-43.0","params":{"nStudents":24,"maxFlips":30,"completionMinutes":45,"basePay":8,"maxBonus":9,"perTrialBonus":0.5,"perTrialBonusThreshold":0.05,"exampleCost":0.01},"classroomParams":{"A":{"a":1,"b":4},"B":{"a":4,"b":1},"C":{"a":2,"b":8},"D":{"a":8,"b":2}},"conditions":["nonSeqFull","nonSeqPartial","seqNoFeedback","seqFeedback"],"classroomPairings":[["A","B"],["C","D"]],"coinWeights":[0.2,0.5,0.8],"subjectId":"A1M3KGD9H8RTBH","assignmentId":"3TYCR1GOTD5LD8CNR23TTBKK97YZLT","hitId":"3JGHED38EDDK7DFM0KVY7GXU94LY7W","url":"https://gershmanlab.com/experiments/alicia/teaching/experiment/?hitId=3JGHED38EDDK7DFM0KVY7GXU94LY7W&workerId=A1M3KGD9H8RTBH&assignmentId=3TYCR1GOTD5LD8CNR23TTBKK97YZLT&a=ORYT9&tp_a=ORYT9&b=3TYCR1GOTD5LD8CNR23TTBKK97YZLT&tp_b=3TYCR1GOTD5LD8CNR23TTBKK97YZLT&c=365799&tp_c=365799"},{"rt":5161,"stimulus":"\n                <p>Student 5's first guess for coin weight: <b style=\"color:Tomato\";>0.88</b></p>\n                <p>Student 5's second guess for coin weight: <b style=\"color:Tomato\";>0.91</b></p>\n                <p>You received a bonus of <b>$0.00</b> based on the student's second guess.</p>\n                <p>Total bonus so far: <b>$0.00</b></p>\n                <p>Press any key to continue.</p>\n                ","response":" ","trial_type":"html-keyboard-response","trial_index":45,"time_elapsed":588611,"internal_node_id":"0.0-44.0","params":{"nStudents":24,"maxFlips":30,"completionMinutes":45,"basePay":8,"maxBonus":9,"perTrialBonus":0.5,"perTrialBonusThreshold":0.05,"exampleCost":0.01},"classroomParams":{"A":{"a":1,"b":4},"B":{"a":4,"b":1},"C":{"a":2,"b":8},"D":{"a":8,"b":2}},"conditions":["nonSeqFull","nonSeqPartial","seqNoFeedback","seqFeedback"],"classroomPairings":[["A","B"],["C","D"]],"coinWeights":[0.2,0.5,0.8],"subjectId":"A1M3KGD9H8RTBH","assignmentId":"3TYCR1GOTD5LD8CNR23TTBKK97YZLT","hitId":"3JGHED38EDDK7DFM0KVY7GXU94LY7W","url":"https://gershmanlab.com/experiments/alicia/teaching/experiment/?hitId=3JGHED38EDDK7DFM0KVY7GXU94LY7W&workerId=A1M3KGD9H8RTBH&assignmentId=3TYCR1GOTD5LD8CNR23TTBKK97YZLT&a=ORYT9&tp_a=ORYT9&b=3TYCR1GOTD5LD8CNR23TTBKK97YZLT&tp_b=3TYCR1GOTD5LD8CNR23TTBKK97YZLT&c=365799&tp_c=365799"},{"rt":null,"stimulus":"<div style=\"font-size:60px;\">Next student</div>","response":null,"trial_type":"html-keyboard-response","trial_index":46,"time_elapsed":591620,"internal_node_id":"0.0-45.0-0.0","params":{"nStudents":24,"maxFlips":30,"completionMinutes":45,"basePay":8,"maxBonus":9,"perTrialBonus":0.5,"perTrialBonusThreshold":0.05,"exampleCost":0.01},"classroomParams":{"A":{"a":1,"b":4},"B":{"a":4,"b":1},"C":{"a":2,"b":8},"D":{"a":8,"b":2}},"conditions":["nonSeqFull","nonSeqPartial","seqNoFeedback","seqFeedback"],"classroomPairings":[["A","B"],["C","D"]],"coinWeights":[0.2,0.5,0.8],"subjectId":"A1M3KGD9H8RTBH","assignmentId":"3TYCR1GOTD5LD8CNR23TTBKK97YZLT","hitId":"3JGHED38EDDK7DFM0KVY7GXU94LY7W","url":"https://gershmanlab.com/experiments/alicia/teaching/experiment/?hitId=3JGHED38EDDK7DFM0KVY7GXU94LY7W&workerId=A1M3KGD9H8RTBH&assignmentId=3TYCR1GOTD5LD8CNR23TTBKK97YZLT&a=ORYT9&tp_a=ORYT9&b=3TYCR1GOTD5LD8CNR23TTBKK97YZLT&tp_b=3TYCR1GOTD5LD8CNR23TTBKK97YZLT&c=365799&tp_c=365799"},{"rt":3565,"stimulus":"\n            <h4 style=\"color:Orange;\">Student 6</h4>\n            <h2>The weight of your coin is <b style=\"color:Tomato;\">0.2</b>.</h2>\n            <p>In this block, you will be giving <b>two</b> sets of examples to Student 6.</p>\n                <p>You will see the student's guess after the first set of examples. You will also receive feedback at the end of the block.</p>\n            <p>To earn the highest bonus, you will have to <b>take into consideration the student's guess</b> when you choose your second set of examples.</p>","response":0,"trial_type":"html-button-response","trial_index":47,"time_elapsed":595187,"internal_node_id":"0.0-46.0","params":{"nStudents":24,"maxFlips":30,"completionMinutes":45,"basePay":8,"maxBonus":9,"perTrialBonus":0.5,"perTrialBonusThreshold":0.05,"exampleCost":0.01},"classroomParams":{"A":{"a":1,"b":4},"B":{"a":4,"b":1},"C":{"a":2,"b":8},"D":{"a":8,"b":2}},"conditions":["nonSeqFull","nonSeqPartial","seqNoFeedback","seqFeedback"],"classroomPairings":[["A","B"],["C","D"]],"coinWeights":[0.2,0.5,0.8],"subjectId":"A1M3KGD9H8RTBH","assignmentId":"3TYCR1GOTD5LD8CNR23TTBKK97YZLT","hitId":"3JGHED38EDDK7DFM0KVY7GXU94LY7W","url":"https://gershmanlab.com/experiments/alicia/teaching/experiment/?hitId=3JGHED38EDDK7DFM0KVY7GXU94LY7W&workerId=A1M3KGD9H8RTBH&assignmentId=3TYCR1GOTD5LD8CNR23TTBKK97YZLT&a=ORYT9&tp_a=ORYT9&b=3TYCR1GOTD5LD8CNR23TTBKK97YZLT&tp_b=3TYCR1GOTD5LD8CNR23TTBKK97YZLT&c=365799&tp_c=365799"},{"rt":8298,"response":{"heads":"0","tails":"2"},"type":"response","condition":"seqFeedback","trueTheta":0.2,"classrooms":["C","D"],"studentTrueClassroom":"D","exampleSet":"first","trial_type":"survey-html-form","trial_index":48,"time_elapsed":603491,"internal_node_id":"0.0-47.0-0.0","params":{"nStudents":24,"maxFlips":30,"completionMinutes":45,"basePay":8,"maxBonus":9,"perTrialBonus":0.5,"perTrialBonusThreshold":0.05,"exampleCost":0.01},"classroomParams":{"A":{"a":1,"b":4},"B":{"a":4,"b":1},"C":{"a":2,"b":8},"D":{"a":8,"b":2}},"conditions":["nonSeqFull","nonSeqPartial","seqNoFeedback","seqFeedback"],"classroomPairings":[["A","B"],["C","D"]],"coinWeights":[0.2,0.5,0.8],"subjectId":"A1M3KGD9H8RTBH","assignmentId":"3TYCR1GOTD5LD8CNR23TTBKK97YZLT","hitId":"3JGHED38EDDK7DFM0KVY7GXU94LY7W","url":"https://gershmanlab.com/experiments/alicia/teaching/experiment/?hitId=3JGHED38EDDK7DFM0KVY7GXU94LY7W&workerId=A1M3KGD9H8RTBH&assignmentId=3TYCR1GOTD5LD8CNR23TTBKK97YZLT&a=ORYT9&tp_a=ORYT9&b=3TYCR1GOTD5LD8CNR23TTBKK97YZLT&tp_b=3TYCR1GOTD5LD8CNR23TTBKK97YZLT&c=365799&tp_c=365799","heads":0,"tails":2,"studentIndex":5,"studentTrueHypers":{"a":8,"b":2},"studentGuess":0.6666666666666666,"delta":0.4666666666666666,"totalExamples":2,"bonusSoFar":0},{"rt":null,"stimulus":"Sending examples to student... ","response":null,"trial_type":"html-keyboard-response","trial_index":49,"time_elapsed":604751,"internal_node_id":"0.0-48.0","params":{"nStudents":24,"maxFlips":30,"completionMinutes":45,"basePay":8,"maxBonus":9,"perTrialBonus":0.5,"perTrialBonusThreshold":0.05,"exampleCost":0.01},"classroomParams":{"A":{"a":1,"b":4},"B":{"a":4,"b":1},"C":{"a":2,"b":8},"D":{"a":8,"b":2}},"conditions":["nonSeqFull","nonSeqPartial","seqNoFeedback","seqFeedback"],"classroomPairings":[["A","B"],["C","D"]],"coinWeights":[0.2,0.5,0.8],"subjectId":"A1M3KGD9H8RTBH","assignmentId":"3TYCR1GOTD5LD8CNR23TTBKK97YZLT","hitId":"3JGHED38EDDK7DFM0KVY7GXU94LY7W","url":"https://gershmanlab.com/experiments/alicia/teaching/experiment/?hitId=3JGHED38EDDK7DFM0KVY7GXU94LY7W&workerId=A1M3KGD9H8RTBH&assignmentId=3TYCR1GOTD5LD8CNR23TTBKK97YZLT&a=ORYT9&tp_a=ORYT9&b=3TYCR1GOTD5LD8CNR23TTBKK97YZLT&tp_b=3TYCR1GOTD5LD8CNR23TTBKK97YZLT&c=365799&tp_c=365799"},{"rt":null,"stimulus":"Examples sent to student! Waiting for student...","response":null,"trial_type":"html-keyboard-response","trial_index":50,"time_elapsed":608771,"internal_node_id":"0.0-49.0","params":{"nStudents":24,"maxFlips":30,"completionMinutes":45,"basePay":8,"maxBonus":9,"perTrialBonus":0.5,"perTrialBonusThreshold":0.05,"exampleCost":0.01},"classroomParams":{"A":{"a":1,"b":4},"B":{"a":4,"b":1},"C":{"a":2,"b":8},"D":{"a":8,"b":2}},"conditions":["nonSeqFull","nonSeqPartial","seqNoFeedback","seqFeedback"],"classroomPairings":[["A","B"],["C","D"]],"coinWeights":[0.2,0.5,0.8],"subjectId":"A1M3KGD9H8RTBH","assignmentId":"3TYCR1GOTD5LD8CNR23TTBKK97YZLT","hitId":"3JGHED38EDDK7DFM0KVY7GXU94LY7W","url":"https://gershmanlab.com/experiments/alicia/teaching/experiment/?hitId=3JGHED38EDDK7DFM0KVY7GXU94LY7W&workerId=A1M3KGD9H8RTBH&assignmentId=3TYCR1GOTD5LD8CNR23TTBKK97YZLT&a=ORYT9&tp_a=ORYT9&b=3TYCR1GOTD5LD8CNR23TTBKK97YZLT&tp_b=3TYCR1GOTD5LD8CNR23TTBKK97YZLT&c=365799&tp_c=365799"},{"rt":4054,"stimulus":"\n                <p>Student's guess for coin weight: <b style=\"color:Tomato;\">0.67</b></p>\n                <p></b></p>\n                <p>You will now send another set of examples to your student. <b>Remember to take your student's guess into consideration so that you can earn the highest bonus possible!</b> </p>\n                <p>Press any key to continue.</p>\n                ","response":" ","trial_type":"html-keyboard-response","trial_index":51,"time_elapsed":612827,"internal_node_id":"0.0-50.0","params":{"nStudents":24,"maxFlips":30,"completionMinutes":45,"basePay":8,"maxBonus":9,"perTrialBonus":0.5,"perTrialBonusThreshold":0.05,"exampleCost":0.01},"classroomParams":{"A":{"a":1,"b":4},"B":{"a":4,"b":1},"C":{"a":2,"b":8},"D":{"a":8,"b":2}},"conditions":["nonSeqFull","nonSeqPartial","seqNoFeedback","seqFeedback"],"classroomPairings":[["A","B"],["C","D"]],"coinWeights":[0.2,0.5,0.8],"subjectId":"A1M3KGD9H8RTBH","assignmentId":"3TYCR1GOTD5LD8CNR23TTBKK97YZLT","hitId":"3JGHED38EDDK7DFM0KVY7GXU94LY7W","url":"https://gershmanlab.com/experiments/alicia/teaching/experiment/?hitId=3JGHED38EDDK7DFM0KVY7GXU94LY7W&workerId=A1M3KGD9H8RTBH&assignmentId=3TYCR1GOTD5LD8CNR23TTBKK97YZLT&a=ORYT9&tp_a=ORYT9&b=3TYCR1GOTD5LD8CNR23TTBKK97YZLT&tp_b=3TYCR1GOTD5LD8CNR23TTBKK97YZLT&c=365799&tp_c=365799"},{"rt":8480,"response":{"heads":"0","tails":"4"},"type":"response","condition":"seqFeedback","trueTheta":0.2,"classrooms":["C","D"],"studentTrueClassroom":"D","exampleSet":"second","trial_type":"survey-html-form","trial_index":52,"time_elapsed":621317,"internal_node_id":"0.0-51.0-0.0","params":{"nStudents":24,"maxFlips":30,"completionMinutes":45,"basePay":8,"maxBonus":9,"perTrialBonus":0.5,"perTrialBonusThreshold":0.05,"exampleCost":0.01},"classroomParams":{"A":{"a":1,"b":4},"B":{"a":4,"b":1},"C":{"a":2,"b":8},"D":{"a":8,"b":2}},"conditions":["nonSeqFull","nonSeqPartial","seqNoFeedback","seqFeedback"],"classroomPairings":[["A","B"],["C","D"]],"coinWeights":[0.2,0.5,0.8],"subjectId":"A1M3KGD9H8RTBH","assignmentId":"3TYCR1GOTD5LD8CNR23TTBKK97YZLT","hitId":"3JGHED38EDDK7DFM0KVY7GXU94LY7W","url":"https://gershmanlab.com/experiments/alicia/teaching/experiment/?hitId=3JGHED38EDDK7DFM0KVY7GXU94LY7W&workerId=A1M3KGD9H8RTBH&assignmentId=3TYCR1GOTD5LD8CNR23TTBKK97YZLT&a=ORYT9&tp_a=ORYT9&b=3TYCR1GOTD5LD8CNR23TTBKK97YZLT&tp_b=3TYCR1GOTD5LD8CNR23TTBKK97YZLT&c=365799&tp_c=365799","firstResponseHeads":0,"firstResponseTails":2,"secondResponseHeads":0,"secondResponseTails":4,"totalHeads":0,"totalTails":6,"studentIndex":5,"studentTrueHypers":{"a":8,"b":2},"studentGuess":0.5,"delta":0.3,"bonus":0,"bonusSoFar":0,"totalExamples":6},{"rt":null,"stimulus":"Sending examples to student... ","response":null,"trial_type":"html-keyboard-response","trial_index":53,"time_elapsed":622579,"internal_node_id":"0.0-52.0","params":{"nStudents":24,"maxFlips":30,"completionMinutes":45,"basePay":8,"maxBonus":9,"perTrialBonus":0.5,"perTrialBonusThreshold":0.05,"exampleCost":0.01},"classroomParams":{"A":{"a":1,"b":4},"B":{"a":4,"b":1},"C":{"a":2,"b":8},"D":{"a":8,"b":2}},"conditions":["nonSeqFull","nonSeqPartial","seqNoFeedback","seqFeedback"],"classroomPairings":[["A","B"],["C","D"]],"coinWeights":[0.2,0.5,0.8],"subjectId":"A1M3KGD9H8RTBH","assignmentId":"3TYCR1GOTD5LD8CNR23TTBKK97YZLT","hitId":"3JGHED38EDDK7DFM0KVY7GXU94LY7W","url":"https://gershmanlab.com/experiments/alicia/teaching/experiment/?hitId=3JGHED38EDDK7DFM0KVY7GXU94LY7W&workerId=A1M3KGD9H8RTBH&assignmentId=3TYCR1GOTD5LD8CNR23TTBKK97YZLT&a=ORYT9&tp_a=ORYT9&b=3TYCR1GOTD5LD8CNR23TTBKK97YZLT&tp_b=3TYCR1GOTD5LD8CNR23TTBKK97YZLT&c=365799&tp_c=365799"},{"rt":null,"stimulus":"Examples sent to student! Waiting for student...","response":null,"trial_type":"html-keyboard-response","trial_index":54,"time_elapsed":628592,"internal_node_id":"0.0-53.0","params":{"nStudents":24,"maxFlips":30,"completionMinutes":45,"basePay":8,"maxBonus":9,"perTrialBonus":0.5,"perTrialBonusThreshold":0.05,"exampleCost":0.01},"classroomParams":{"A":{"a":1,"b":4},"B":{"a":4,"b":1},"C":{"a":2,"b":8},"D":{"a":8,"b":2}},"conditions":["nonSeqFull","nonSeqPartial","seqNoFeedback","seqFeedback"],"classroomPairings":[["A","B"],["C","D"]],"coinWeights":[0.2,0.5,0.8],"subjectId":"A1M3KGD9H8RTBH","assignmentId":"3TYCR1GOTD5LD8CNR23TTBKK97YZLT","hitId":"3JGHED38EDDK7DFM0KVY7GXU94LY7W","url":"https://gershmanlab.com/experiments/alicia/teaching/experiment/?hitId=3JGHED38EDDK7DFM0KVY7GXU94LY7W&workerId=A1M3KGD9H8RTBH&assignmentId=3TYCR1GOTD5LD8CNR23TTBKK97YZLT&a=ORYT9&tp_a=ORYT9&b=3TYCR1GOTD5LD8CNR23TTBKK97YZLT&tp_b=3TYCR1GOTD5LD8CNR23TTBKK97YZLT&c=365799&tp_c=365799"},{"rt":3593,"stimulus":"\n                <p>Student 6's first guess for coin weight: <b style=\"color:Tomato\";>0.67</b></p>\n                <p>Student 6's second guess for coin weight: <b style=\"color:Tomato\";>0.50</b></p>\n                <p>You received a bonus of <b>$0.00</b> based on the student's second guess.</p>\n                <p>Total bonus so far: <b>$0.00</b></p>\n                <p>Press any key to continue.</p>\n                ","response":" ","trial_type":"html-keyboard-response","trial_index":55,"time_elapsed":632187,"internal_node_id":"0.0-54.0","params":{"nStudents":24,"maxFlips":30,"completionMinutes":45,"basePay":8,"maxBonus":9,"perTrialBonus":0.5,"perTrialBonusThreshold":0.05,"exampleCost":0.01},"classroomParams":{"A":{"a":1,"b":4},"B":{"a":4,"b":1},"C":{"a":2,"b":8},"D":{"a":8,"b":2}},"conditions":["nonSeqFull","nonSeqPartial","seqNoFeedback","seqFeedback"],"classroomPairings":[["A","B"],["C","D"]],"coinWeights":[0.2,0.5,0.8],"subjectId":"A1M3KGD9H8RTBH","assignmentId":"3TYCR1GOTD5LD8CNR23TTBKK97YZLT","hitId":"3JGHED38EDDK7DFM0KVY7GXU94LY7W","url":"https://gershmanlab.com/experiments/alicia/teaching/experiment/?hitId=3JGHED38EDDK7DFM0KVY7GXU94LY7W&workerId=A1M3KGD9H8RTBH&assignmentId=3TYCR1GOTD5LD8CNR23TTBKK97YZLT&a=ORYT9&tp_a=ORYT9&b=3TYCR1GOTD5LD8CNR23TTBKK97YZLT&tp_b=3TYCR1GOTD5LD8CNR23TTBKK97YZLT&c=365799&tp_c=365799"},{"rt":null,"stimulus":"<div style=\"font-size:60px;\">Next student</div>","response":null,"trial_type":"html-keyboard-response","trial_index":56,"time_elapsed":635201,"internal_node_id":"0.0-55.0-0.0","params":{"nStudents":24,"maxFlips":30,"completionMinutes":45,"basePay":8,"maxBonus":9,"perTrialBonus":0.5,"perTrialBonusThreshold":0.05,"exampleCost":0.01},"classroomParams":{"A":{"a":1,"b":4},"B":{"a":4,"b":1},"C":{"a":2,"b":8},"D":{"a":8,"b":2}},"conditions":["nonSeqFull","nonSeqPartial","seqNoFeedback","seqFeedback"],"classroomPairings":[["A","B"],["C","D"]],"coinWeights":[0.2,0.5,0.8],"subjectId":"A1M3KGD9H8RTBH","assignmentId":"3TYCR1GOTD5LD8CNR23TTBKK97YZLT","hitId":"3JGHED38EDDK7DFM0KVY7GXU94LY7W","url":"https://gershmanlab.com/experiments/alicia/teaching/experiment/?hitId=3JGHED38EDDK7DFM0KVY7GXU94LY7W&workerId=A1M3KGD9H8RTBH&assignmentId=3TYCR1GOTD5LD8CNR23TTBKK97YZLT&a=ORYT9&tp_a=ORYT9&b=3TYCR1GOTD5LD8CNR23TTBKK97YZLT&tp_b=3TYCR1GOTD5LD8CNR23TTBKK97YZLT&c=365799&tp_c=365799"},{"rt":2387,"stimulus":"\n            <h4 style=\"color:Orange;\">Student 7</h4>\n            <h2>The weight of your coin is <b style=\"color:Tomato;\">0.2</b>.</h2>\n            <p>In this block, you will be giving <b>two</b> sets of examples to Student 7.</p>\n                <p>You will receive feedback at the end of the block.</p>\n            <p></p>","response":0,"trial_type":"html-button-response","trial_index":57,"time_elapsed":637588,"internal_node_id":"0.0-56.0","params":{"nStudents":24,"maxFlips":30,"completionMinutes":45,"basePay":8,"maxBonus":9,"perTrialBonus":0.5,"perTrialBonusThreshold":0.05,"exampleCost":0.01},"classroomParams":{"A":{"a":1,"b":4},"B":{"a":4,"b":1},"C":{"a":2,"b":8},"D":{"a":8,"b":2}},"conditions":["nonSeqFull","nonSeqPartial","seqNoFeedback","seqFeedback"],"classroomPairings":[["A","B"],["C","D"]],"coinWeights":[0.2,0.5,0.8],"subjectId":"A1M3KGD9H8RTBH","assignmentId":"3TYCR1GOTD5LD8CNR23TTBKK97YZLT","hitId":"3JGHED38EDDK7DFM0KVY7GXU94LY7W","url":"https://gershmanlab.com/experiments/alicia/teaching/experiment/?hitId=3JGHED38EDDK7DFM0KVY7GXU94LY7W&workerId=A1M3KGD9H8RTBH&assignmentId=3TYCR1GOTD5LD8CNR23TTBKK97YZLT&a=ORYT9&tp_a=ORYT9&b=3TYCR1GOTD5LD8CNR23TTBKK97YZLT&tp_b=3TYCR1GOTD5LD8CNR23TTBKK97YZLT&c=365799&tp_c=365799"},{"rt":8658,"response":{"heads":"0","tails":"8"},"type":"response","condition":"seqNoFeedback","trueTheta":0.2,"classrooms":["C","D"],"studentTrueClassroom":"C","exampleSet":"first","trial_type":"survey-html-form","trial_index":58,"time_elapsed":646252,"internal_node_id":"0.0-57.0-0.0","params":{"nStudents":24,"maxFlips":30,"completionMinutes":45,"basePay":8,"maxBonus":9,"perTrialBonus":0.5,"perTrialBonusThreshold":0.05,"exampleCost":0.01},"classroomParams":{"A":{"a":1,"b":4},"B":{"a":4,"b":1},"C":{"a":2,"b":8},"D":{"a":8,"b":2}},"conditions":["nonSeqFull","nonSeqPartial","seqNoFeedback","seqFeedback"],"classroomPairings":[["A","B"],["C","D"]],"coinWeights":[0.2,0.5,0.8],"subjectId":"A1M3KGD9H8RTBH","assignmentId":"3TYCR1GOTD5LD8CNR23TTBKK97YZLT","hitId":"3JGHED38EDDK7DFM0KVY7GXU94LY7W","url":"https://gershmanlab.com/experiments/alicia/teaching/experiment/?hitId=3JGHED38EDDK7DFM0KVY7GXU94LY7W&workerId=A1M3KGD9H8RTBH&assignmentId=3TYCR1GOTD5LD8CNR23TTBKK97YZLT&a=ORYT9&tp_a=ORYT9&b=3TYCR1GOTD5LD8CNR23TTBKK97YZLT&tp_b=3TYCR1GOTD5LD8CNR23TTBKK97YZLT&c=365799&tp_c=365799","heads":0,"tails":8,"studentIndex":6,"studentTrueHypers":{"a":2,"b":8},"studentGuess":0.1111111111111111,"delta":0.0888888888888889,"totalExamples":8,"bonusSoFar":0},{"rt":null,"stimulus":"Sending examples to student... ","response":null,"trial_type":"html-keyboard-response","trial_index":59,"time_elapsed":648266,"internal_node_id":"0.0-58.0","params":{"nStudents":24,"maxFlips":30,"completionMinutes":45,"basePay":8,"maxBonus":9,"perTrialBonus":0.5,"perTrialBonusThreshold":0.05,"exampleCost":0.01},"classroomParams":{"A":{"a":1,"b":4},"B":{"a":4,"b":1},"C":{"a":2,"b":8},"D":{"a":8,"b":2}},"conditions":["nonSeqFull","nonSeqPartial","seqNoFeedback","seqFeedback"],"classroomPairings":[["A","B"],["C","D"]],"coinWeights":[0.2,0.5,0.8],"subjectId":"A1M3KGD9H8RTBH","assignmentId":"3TYCR1GOTD5LD8CNR23TTBKK97YZLT","hitId":"3JGHED38EDDK7DFM0KVY7GXU94LY7W","url":"https://gershmanlab.com/experiments/alicia/teaching/experiment/?hitId=3JGHED38EDDK7DFM0KVY7GXU94LY7W&workerId=A1M3KGD9H8RTBH&assignmentId=3TYCR1GOTD5LD8CNR23TTBKK97YZLT&a=ORYT9&tp_a=ORYT9&b=3TYCR1GOTD5LD8CNR23TTBKK97YZLT&tp_b=3TYCR1GOTD5LD8CNR23TTBKK97YZLT&c=365799&tp_c=365799"},{"rt":null,"stimulus":"Examples sent to student! Waiting for student...","response":null,"trial_type":"html-keyboard-response","trial_index":60,"time_elapsed":654282,"internal_node_id":"0.0-59.0","params":{"nStudents":24,"maxFlips":30,"completionMinutes":45,"basePay":8,"maxBonus":9,"perTrialBonus":0.5,"perTrialBonusThreshold":0.05,"exampleCost":0.01},"classroomParams":{"A":{"a":1,"b":4},"B":{"a":4,"b":1},"C":{"a":2,"b":8},"D":{"a":8,"b":2}},"conditions":["nonSeqFull","nonSeqPartial","seqNoFeedback","seqFeedback"],"classroomPairings":[["A","B"],["C","D"]],"coinWeights":[0.2,0.5,0.8],"subjectId":"A1M3KGD9H8RTBH","assignmentId":"3TYCR1GOTD5LD8CNR23TTBKK97YZLT","hitId":"3JGHED38EDDK7DFM0KVY7GXU94LY7W","url":"https://gershmanlab.com/experiments/alicia/teaching/experiment/?hitId=3JGHED38EDDK7DFM0KVY7GXU94LY7W&workerId=A1M3KGD9H8RTBH&assignmentId=3TYCR1GOTD5LD8CNR23TTBKK97YZLT&a=ORYT9&tp_a=ORYT9&b=3TYCR1GOTD5LD8CNR23TTBKK97YZLT&tp_b=3TYCR1GOTD5LD8CNR23TTBKK97YZLT&c=365799&tp_c=365799"},{"rt":7956,"response":{"heads":"0","tails":"8"},"type":"response","condition":"seqNoFeedback","trueTheta":0.2,"classrooms":["C","D"],"studentTrueClassroom":"C","exampleSet":"second","trial_type":"survey-html-form","trial_index":61,"time_elapsed":662245,"internal_node_id":"0.0-60.0-0.0","params":{"nStudents":24,"maxFlips":30,"completionMinutes":45,"basePay":8,"maxBonus":9,"perTrialBonus":0.5,"perTrialBonusThreshold":0.05,"exampleCost":0.01},"classroomParams":{"A":{"a":1,"b":4},"B":{"a":4,"b":1},"C":{"a":2,"b":8},"D":{"a":8,"b":2}},"conditions":["nonSeqFull","nonSeqPartial","seqNoFeedback","seqFeedback"],"classroomPairings":[["A","B"],["C","D"]],"coinWeights":[0.2,0.5,0.8],"subjectId":"A1M3KGD9H8RTBH","assignmentId":"3TYCR1GOTD5LD8CNR23TTBKK97YZLT","hitId":"3JGHED38EDDK7DFM0KVY7GXU94LY7W","url":"https://gershmanlab.com/experiments/alicia/teaching/experiment/?hitId=3JGHED38EDDK7DFM0KVY7GXU94LY7W&workerId=A1M3KGD9H8RTBH&assignmentId=3TYCR1GOTD5LD8CNR23TTBKK97YZLT&a=ORYT9&tp_a=ORYT9&b=3TYCR1GOTD5LD8CNR23TTBKK97YZLT&tp_b=3TYCR1GOTD5LD8CNR23TTBKK97YZLT&c=365799&tp_c=365799","firstResponseHeads":0,"firstResponseTails":8,"secondResponseHeads":0,"secondResponseTails":8,"totalHeads":0,"totalTails":16,"studentIndex":6,"studentTrueHypers":{"a":2,"b":8},"studentGuess":0.07692307692307693,"delta":0.12307692307692308,"bonus":0,"bonusSoFar":0,"totalExamples":16},{"rt":null,"stimulus":"Sending examples to student... ","response":null,"trial_type":"html-keyboard-response","trial_index":62,"time_elapsed":664004,"internal_node_id":"0.0-61.0","params":{"nStudents":24,"maxFlips":30,"completionMinutes":45,"basePay":8,"maxBonus":9,"perTrialBonus":0.5,"perTrialBonusThreshold":0.05,"exampleCost":0.01},"classroomParams":{"A":{"a":1,"b":4},"B":{"a":4,"b":1},"C":{"a":2,"b":8},"D":{"a":8,"b":2}},"conditions":["nonSeqFull","nonSeqPartial","seqNoFeedback","seqFeedback"],"classroomPairings":[["A","B"],["C","D"]],"coinWeights":[0.2,0.5,0.8],"subjectId":"A1M3KGD9H8RTBH","assignmentId":"3TYCR1GOTD5LD8CNR23TTBKK97YZLT","hitId":"3JGHED38EDDK7DFM0KVY7GXU94LY7W","url":"https://gershmanlab.com/experiments/alicia/teaching/experiment/?hitId=3JGHED38EDDK7DFM0KVY7GXU94LY7W&workerId=A1M3KGD9H8RTBH&assignmentId=3TYCR1GOTD5LD8CNR23TTBKK97YZLT&a=ORYT9&tp_a=ORYT9&b=3TYCR1GOTD5LD8CNR23TTBKK97YZLT&tp_b=3TYCR1GOTD5LD8CNR23TTBKK97YZLT&c=365799&tp_c=365799"},{"rt":null,"stimulus":"Examples sent to student! Waiting for student...","response":null,"trial_type":"html-keyboard-response","trial_index":63,"time_elapsed":669511,"internal_node_id":"0.0-62.0","params":{"nStudents":24,"maxFlips":30,"completionMinutes":45,"basePay":8,"maxBonus":9,"perTrialBonus":0.5,"perTrialBonusThreshold":0.05,"exampleCost":0.01},"classroomParams":{"A":{"a":1,"b":4},"B":{"a":4,"b":1},"C":{"a":2,"b":8},"D":{"a":8,"b":2}},"conditions":["nonSeqFull","nonSeqPartial","seqNoFeedback","seqFeedback"],"classroomPairings":[["A","B"],["C","D"]],"coinWeights":[0.2,0.5,0.8],"subjectId":"A1M3KGD9H8RTBH","assignmentId":"3TYCR1GOTD5LD8CNR23TTBKK97YZLT","hitId":"3JGHED38EDDK7DFM0KVY7GXU94LY7W","url":"https://gershmanlab.com/experiments/alicia/teaching/experiment/?hitId=3JGHED38EDDK7DFM0KVY7GXU94LY7W&workerId=A1M3KGD9H8RTBH&assignmentId=3TYCR1GOTD5LD8CNR23TTBKK97YZLT&a=ORYT9&tp_a=ORYT9&b=3TYCR1GOTD5LD8CNR23TTBKK97YZLT&tp_b=3TYCR1GOTD5LD8CNR23TTBKK97YZLT&c=365799&tp_c=365799"},{"rt":4628,"stimulus":"\n                <p>Student 7's first guess for coin weight: <b style=\"color:Tomato\";>0.11</b></p>\n                <p>Student 7's second guess for coin weight: <b style=\"color:Tomato\";>0.08</b></p>\n                <p>You received a bonus of <b>$0.00</b> based on the student's second guess.</p>\n                <p>Total bonus so far: <b>$0.00</b></p>\n                <p>Press any key to continue.</p>\n                ","response":" ","trial_type":"html-keyboard-response","trial_index":64,"time_elapsed":674139,"internal_node_id":"0.0-63.0","params":{"nStudents":24,"maxFlips":30,"completionMinutes":45,"basePay":8,"maxBonus":9,"perTrialBonus":0.5,"perTrialBonusThreshold":0.05,"exampleCost":0.01},"classroomParams":{"A":{"a":1,"b":4},"B":{"a":4,"b":1},"C":{"a":2,"b":8},"D":{"a":8,"b":2}},"conditions":["nonSeqFull","nonSeqPartial","seqNoFeedback","seqFeedback"],"classroomPairings":[["A","B"],["C","D"]],"coinWeights":[0.2,0.5,0.8],"subjectId":"A1M3KGD9H8RTBH","assignmentId":"3TYCR1GOTD5LD8CNR23TTBKK97YZLT","hitId":"3JGHED38EDDK7DFM0KVY7GXU94LY7W","url":"https://gershmanlab.com/experiments/alicia/teaching/experiment/?hitId=3JGHED38EDDK7DFM0KVY7GXU94LY7W&workerId=A1M3KGD9H8RTBH&assignmentId=3TYCR1GOTD5LD8CNR23TTBKK97YZLT&a=ORYT9&tp_a=ORYT9&b=3TYCR1GOTD5LD8CNR23TTBKK97YZLT&tp_b=3TYCR1GOTD5LD8CNR23TTBKK97YZLT&c=365799&tp_c=365799"},{"rt":null,"stimulus":"<div style=\"font-size:60px;\">Next student</div>","response":null,"trial_type":"html-keyboard-response","trial_index":65,"time_elapsed":676147,"internal_node_id":"0.0-64.0-0.0","params":{"nStudents":24,"maxFlips":30,"completionMinutes":45,"basePay":8,"maxBonus":9,"perTrialBonus":0.5,"perTrialBonusThreshold":0.05,"exampleCost":0.01},"classroomParams":{"A":{"a":1,"b":4},"B":{"a":4,"b":1},"C":{"a":2,"b":8},"D":{"a":8,"b":2}},"conditions":["nonSeqFull","nonSeqPartial","seqNoFeedback","seqFeedback"],"classroomPairings":[["A","B"],["C","D"]],"coinWeights":[0.2,0.5,0.8],"subjectId":"A1M3KGD9H8RTBH","assignmentId":"3TYCR1GOTD5LD8CNR23TTBKK97YZLT","hitId":"3JGHED38EDDK7DFM0KVY7GXU94LY7W","url":"https://gershmanlab.com/experiments/alicia/teaching/experiment/?hitId=3JGHED38EDDK7DFM0KVY7GXU94LY7W&workerId=A1M3KGD9H8RTBH&assignmentId=3TYCR1GOTD5LD8CNR23TTBKK97YZLT&a=ORYT9&tp_a=ORYT9&b=3TYCR1GOTD5LD8CNR23TTBKK97YZLT&tp_b=3TYCR1GOTD5LD8CNR23TTBKK97YZLT&c=365799&tp_c=365799"},{"rt":2839,"stimulus":"\n            <h4 style=\"color:Orange;\">Student 8</h4>\n            <h2>The weight of your coin is <b style=\"color:Tomato;\">0.5</b>.</h2>\n            <p>In this block, you will be giving <b>two</b> sets of examples to Student 8.</p>\n                <p>You will see the student's guess after the first set of examples. You will also receive feedback at the end of the block.</p>\n            <p>To earn the highest bonus, you will have to <b>take into consideration the student's guess</b> when you choose your second set of examples.</p>","response":0,"trial_type":"html-button-response","trial_index":66,"time_elapsed":678989,"internal_node_id":"0.0-65.0","params":{"nStudents":24,"maxFlips":30,"completionMinutes":45,"basePay":8,"maxBonus":9,"perTrialBonus":0.5,"perTrialBonusThreshold":0.05,"exampleCost":0.01},"classroomParams":{"A":{"a":1,"b":4},"B":{"a":4,"b":1},"C":{"a":2,"b":8},"D":{"a":8,"b":2}},"conditions":["nonSeqFull","nonSeqPartial","seqNoFeedback","seqFeedback"],"classroomPairings":[["A","B"],["C","D"]],"coinWeights":[0.2,0.5,0.8],"subjectId":"A1M3KGD9H8RTBH","assignmentId":"3TYCR1GOTD5LD8CNR23TTBKK97YZLT","hitId":"3JGHED38EDDK7DFM0KVY7GXU94LY7W","url":"https://gershmanlab.com/experiments/alicia/teaching/experiment/?hitId=3JGHED38EDDK7DFM0KVY7GXU94LY7W&workerId=A1M3KGD9H8RTBH&assignmentId=3TYCR1GOTD5LD8CNR23TTBKK97YZLT&a=ORYT9&tp_a=ORYT9&b=3TYCR1GOTD5LD8CNR23TTBKK97YZLT&tp_b=3TYCR1GOTD5LD8CNR23TTBKK97YZLT&c=365799&tp_c=365799"},{"rt":7596,"response":{"heads":"5","tails":"5"},"type":"response","condition":"seqFeedback","trueTheta":0.5,"classrooms":["C","D"],"studentTrueClassroom":"C","exampleSet":"first","trial_type":"survey-html-form","trial_index":67,"time_elapsed":686590,"internal_node_id":"0.0-66.0-0.0","params":{"nStudents":24,"maxFlips":30,"completionMinutes":45,"basePay":8,"maxBonus":9,"perTrialBonus":0.5,"perTrialBonusThreshold":0.05,"exampleCost":0.01},"classroomParams":{"A":{"a":1,"b":4},"B":{"a":4,"b":1},"C":{"a":2,"b":8},"D":{"a":8,"b":2}},"conditions":["nonSeqFull","nonSeqPartial","seqNoFeedback","seqFeedback"],"classroomPairings":[["A","B"],["C","D"]],"coinWeights":[0.2,0.5,0.8],"subjectId":"A1M3KGD9H8RTBH","assignmentId":"3TYCR1GOTD5LD8CNR23TTBKK97YZLT","hitId":"3JGHED38EDDK7DFM0KVY7GXU94LY7W","url":"https://gershmanlab.com/experiments/alicia/teaching/experiment/?hitId=3JGHED38EDDK7DFM0KVY7GXU94LY7W&workerId=A1M3KGD9H8RTBH&assignmentId=3TYCR1GOTD5LD8CNR23TTBKK97YZLT&a=ORYT9&tp_a=ORYT9&b=3TYCR1GOTD5LD8CNR23TTBKK97YZLT&tp_b=3TYCR1GOTD5LD8CNR23TTBKK97YZLT&c=365799&tp_c=365799","heads":5,"tails":5,"studentIndex":7,"studentTrueHypers":{"a":2,"b":8},"studentGuess":0.35,"delta":0.15000000000000002,"totalExamples":10,"bonusSoFar":0},{"rt":null,"stimulus":"Sending examples to student... ","response":null,"trial_type":"html-keyboard-response","trial_index":68,"time_elapsed":688361,"internal_node_id":"0.0-67.0","params":{"nStudents":24,"maxFlips":30,"completionMinutes":45,"basePay":8,"maxBonus":9,"perTrialBonus":0.5,"perTrialBonusThreshold":0.05,"exampleCost":0.01},"classroomParams":{"A":{"a":1,"b":4},"B":{"a":4,"b":1},"C":{"a":2,"b":8},"D":{"a":8,"b":2}},"conditions":["nonSeqFull","nonSeqPartial","seqNoFeedback","seqFeedback"],"classroomPairings":[["A","B"],["C","D"]],"coinWeights":[0.2,0.5,0.8],"subjectId":"A1M3KGD9H8RTBH","assignmentId":"3TYCR1GOTD5LD8CNR23TTBKK97YZLT","hitId":"3JGHED38EDDK7DFM0KVY7GXU94LY7W","url":"https://gershmanlab.com/experiments/alicia/teaching/experiment/?hitId=3JGHED38EDDK7DFM0KVY7GXU94LY7W&workerId=A1M3KGD9H8RTBH&assignmentId=3TYCR1GOTD5LD8CNR23TTBKK97YZLT&a=ORYT9&tp_a=ORYT9&b=3TYCR1GOTD5LD8CNR23TTBKK97YZLT&tp_b=3TYCR1GOTD5LD8CNR23TTBKK97YZLT&c=365799&tp_c=365799"},{"rt":null,"stimulus":"Examples sent to student! Waiting for student...","response":null,"trial_type":"html-keyboard-response","trial_index":69,"time_elapsed":693370,"internal_node_id":"0.0-68.0","params":{"nStudents":24,"maxFlips":30,"completionMinutes":45,"basePay":8,"maxBonus":9,"perTrialBonus":0.5,"perTrialBonusThreshold":0.05,"exampleCost":0.01},"classroomParams":{"A":{"a":1,"b":4},"B":{"a":4,"b":1},"C":{"a":2,"b":8},"D":{"a":8,"b":2}},"conditions":["nonSeqFull","nonSeqPartial","seqNoFeedback","seqFeedback"],"classroomPairings":[["A","B"],["C","D"]],"coinWeights":[0.2,0.5,0.8],"subjectId":"A1M3KGD9H8RTBH","assignmentId":"3TYCR1GOTD5LD8CNR23TTBKK97YZLT","hitId":"3JGHED38EDDK7DFM0KVY7GXU94LY7W","url":"https://gershmanlab.com/experiments/alicia/teaching/experiment/?hitId=3JGHED38EDDK7DFM0KVY7GXU94LY7W&workerId=A1M3KGD9H8RTBH&assignmentId=3TYCR1GOTD5LD8CNR23TTBKK97YZLT&a=ORYT9&tp_a=ORYT9&b=3TYCR1GOTD5LD8CNR23TTBKK97YZLT&tp_b=3TYCR1GOTD5LD8CNR23TTBKK97YZLT&c=365799&tp_c=365799"},{"rt":2758,"stimulus":"\n                <p>Student's guess for coin weight: <b style=\"color:Tomato;\">0.35</b></p>\n                <p></b></p>\n                <p>You will now send another set of examples to your student. <b>Remember to take your student's guess into consideration so that you can earn the highest bonus possible!</b> </p>\n                <p>Press any key to continue.</p>\n                ","response":" ","trial_type":"html-keyboard-response","trial_index":70,"time_elapsed":696132,"internal_node_id":"0.0-69.0","params":{"nStudents":24,"maxFlips":30,"completionMinutes":45,"basePay":8,"maxBonus":9,"perTrialBonus":0.5,"perTrialBonusThreshold":0.05,"exampleCost":0.01},"classroomParams":{"A":{"a":1,"b":4},"B":{"a":4,"b":1},"C":{"a":2,"b":8},"D":{"a":8,"b":2}},"conditions":["nonSeqFull","nonSeqPartial","seqNoFeedback","seqFeedback"],"classroomPairings":[["A","B"],["C","D"]],"coinWeights":[0.2,0.5,0.8],"subjectId":"A1M3KGD9H8RTBH","assignmentId":"3TYCR1GOTD5LD8CNR23TTBKK97YZLT","hitId":"3JGHED38EDDK7DFM0KVY7GXU94LY7W","url":"https://gershmanlab.com/experiments/alicia/teaching/experiment/?hitId=3JGHED38EDDK7DFM0KVY7GXU94LY7W&workerId=A1M3KGD9H8RTBH&assignmentId=3TYCR1GOTD5LD8CNR23TTBKK97YZLT&a=ORYT9&tp_a=ORYT9&b=3TYCR1GOTD5LD8CNR23TTBKK97YZLT&tp_b=3TYCR1GOTD5LD8CNR23TTBKK97YZLT&c=365799&tp_c=365799"},{"rt":6346,"response":{"heads":"5","tails":"0"},"type":"response","condition":"seqFeedback","trueTheta":0.5,"classrooms":["C","D"],"studentTrueClassroom":"C","exampleSet":"second","trial_type":"survey-html-form","trial_index":71,"time_elapsed":702491,"internal_node_id":"0.0-70.0-0.0","params":{"nStudents":24,"maxFlips":30,"completionMinutes":45,"basePay":8,"maxBonus":9,"perTrialBonus":0.5,"perTrialBonusThreshold":0.05,"exampleCost":0.01},"classroomParams":{"A":{"a":1,"b":4},"B":{"a":4,"b":1},"C":{"a":2,"b":8},"D":{"a":8,"b":2}},"conditions":["nonSeqFull","nonSeqPartial","seqNoFeedback","seqFeedback"],"classroomPairings":[["A","B"],["C","D"]],"coinWeights":[0.2,0.5,0.8],"subjectId":"A1M3KGD9H8RTBH","assignmentId":"3TYCR1GOTD5LD8CNR23TTBKK97YZLT","hitId":"3JGHED38EDDK7DFM0KVY7GXU94LY7W","url":"https://gershmanlab.com/experiments/alicia/teaching/experiment/?hitId=3JGHED38EDDK7DFM0KVY7GXU94LY7W&workerId=A1M3KGD9H8RTBH&assignmentId=3TYCR1GOTD5LD8CNR23TTBKK97YZLT&a=ORYT9&tp_a=ORYT9&b=3TYCR1GOTD5LD8CNR23TTBKK97YZLT&tp_b=3TYCR1GOTD5LD8CNR23TTBKK97YZLT&c=365799&tp_c=365799","firstResponseHeads":5,"firstResponseTails":5,"secondResponseHeads":5,"secondResponseTails":0,"totalHeads":10,"totalTails":5,"studentIndex":7,"studentTrueHypers":{"a":2,"b":8},"studentGuess":0.48,"delta":0.020000000000000018,"bonus":0.35,"bonusSoFar":0.35,"totalExamples":15},{"rt":null,"stimulus":"Sending examples to student... ","response":null,"trial_type":"html-keyboard-response","trial_index":72,"time_elapsed":703761,"internal_node_id":"0.0-71.0","params":{"nStudents":24,"maxFlips":30,"completionMinutes":45,"basePay":8,"maxBonus":9,"perTrialBonus":0.5,"perTrialBonusThreshold":0.05,"exampleCost":0.01},"classroomParams":{"A":{"a":1,"b":4},"B":{"a":4,"b":1},"C":{"a":2,"b":8},"D":{"a":8,"b":2}},"conditions":["nonSeqFull","nonSeqPartial","seqNoFeedback","seqFeedback"],"classroomPairings":[["A","B"],["C","D"]],"coinWeights":[0.2,0.5,0.8],"subjectId":"A1M3KGD9H8RTBH","assignmentId":"3TYCR1GOTD5LD8CNR23TTBKK97YZLT","hitId":"3JGHED38EDDK7DFM0KVY7GXU94LY7W","url":"https://gershmanlab.com/experiments/alicia/teaching/experiment/?hitId=3JGHED38EDDK7DFM0KVY7GXU94LY7W&workerId=A1M3KGD9H8RTBH&assignmentId=3TYCR1GOTD5LD8CNR23TTBKK97YZLT&a=ORYT9&tp_a=ORYT9&b=3TYCR1GOTD5LD8CNR23TTBKK97YZLT&tp_b=3TYCR1GOTD5LD8CNR23TTBKK97YZLT&c=365799&tp_c=365799"},{"rt":null,"stimulus":"Examples sent to student! Waiting for student...","response":null,"trial_type":"html-keyboard-response","trial_index":73,"time_elapsed":709280,"internal_node_id":"0.0-72.0","params":{"nStudents":24,"maxFlips":30,"completionMinutes":45,"basePay":8,"maxBonus":9,"perTrialBonus":0.5,"perTrialBonusThreshold":0.05,"exampleCost":0.01},"classroomParams":{"A":{"a":1,"b":4},"B":{"a":4,"b":1},"C":{"a":2,"b":8},"D":{"a":8,"b":2}},"conditions":["nonSeqFull","nonSeqPartial","seqNoFeedback","seqFeedback"],"classroomPairings":[["A","B"],["C","D"]],"coinWeights":[0.2,0.5,0.8],"subjectId":"A1M3KGD9H8RTBH","assignmentId":"3TYCR1GOTD5LD8CNR23TTBKK97YZLT","hitId":"3JGHED38EDDK7DFM0KVY7GXU94LY7W","url":"https://gershmanlab.com/experiments/alicia/teaching/experiment/?hitId=3JGHED38EDDK7DFM0KVY7GXU94LY7W&workerId=A1M3KGD9H8RTBH&assignmentId=3TYCR1GOTD5LD8CNR23TTBKK97YZLT&a=ORYT9&tp_a=ORYT9&b=3TYCR1GOTD5LD8CNR23TTBKK97YZLT&tp_b=3TYCR1GOTD5LD8CNR23TTBKK97YZLT&c=365799&tp_c=365799"},{"rt":12792,"stimulus":"\n                <p>Student 8's first guess for coin weight: <b style=\"color:Tomato\";>0.35</b></p>\n                <p>Student 8's second guess for coin weight: <b style=\"color:Tomato\";>0.48</b></p>\n                <p>You received a bonus of <b>$0.35</b> based on the student's second guess.</p>\n                <p>Total bonus so far: <b>$0.35</b></p>\n                <p>Press any key to continue.</p>\n                ","response":" ","trial_type":"html-keyboard-response","trial_index":74,"time_elapsed":722075,"internal_node_id":"0.0-73.0","params":{"nStudents":24,"maxFlips":30,"completionMinutes":45,"basePay":8,"maxBonus":9,"perTrialBonus":0.5,"perTrialBonusThreshold":0.05,"exampleCost":0.01},"classroomParams":{"A":{"a":1,"b":4},"B":{"a":4,"b":1},"C":{"a":2,"b":8},"D":{"a":8,"b":2}},"conditions":["nonSeqFull","nonSeqPartial","seqNoFeedback","seqFeedback"],"classroomPairings":[["A","B"],["C","D"]],"coinWeights":[0.2,0.5,0.8],"subjectId":"A1M3KGD9H8RTBH","assignmentId":"3TYCR1GOTD5LD8CNR23TTBKK97YZLT","hitId":"3JGHED38EDDK7DFM0KVY7GXU94LY7W","url":"https://gershmanlab.com/experiments/alicia/teaching/experiment/?hitId=3JGHED38EDDK7DFM0KVY7GXU94LY7W&workerId=A1M3KGD9H8RTBH&assignmentId=3TYCR1GOTD5LD8CNR23TTBKK97YZLT&a=ORYT9&tp_a=ORYT9&b=3TYCR1GOTD5LD8CNR23TTBKK97YZLT&tp_b=3TYCR1GOTD5LD8CNR23TTBKK97YZLT&c=365799&tp_c=365799"},{"rt":null,"stimulus":"<div style=\"font-size:60px;\">Next student</div>","response":null,"trial_type":"html-keyboard-response","trial_index":75,"time_elapsed":724080,"internal_node_id":"0.0-74.0-0.0","params":{"nStudents":24,"maxFlips":30,"completionMinutes":45,"basePay":8,"maxBonus":9,"perTrialBonus":0.5,"perTrialBonusThreshold":0.05,"exampleCost":0.01},"classroomParams":{"A":{"a":1,"b":4},"B":{"a":4,"b":1},"C":{"a":2,"b":8},"D":{"a":8,"b":2}},"conditions":["nonSeqFull","nonSeqPartial","seqNoFeedback","seqFeedback"],"classroomPairings":[["A","B"],["C","D"]],"coinWeights":[0.2,0.5,0.8],"subjectId":"A1M3KGD9H8RTBH","assignmentId":"3TYCR1GOTD5LD8CNR23TTBKK97YZLT","hitId":"3JGHED38EDDK7DFM0KVY7GXU94LY7W","url":"https://gershmanlab.com/experiments/alicia/teaching/experiment/?hitId=3JGHED38EDDK7DFM0KVY7GXU94LY7W&workerId=A1M3KGD9H8RTBH&assignmentId=3TYCR1GOTD5LD8CNR23TTBKK97YZLT&a=ORYT9&tp_a=ORYT9&b=3TYCR1GOTD5LD8CNR23TTBKK97YZLT&tp_b=3TYCR1GOTD5LD8CNR23TTBKK97YZLT&c=365799&tp_c=365799"},{"rt":5202,"stimulus":"\n            <h4 style=\"color:Orange;\">Student 9</h4>\n            <h2>The weight of your coin is <b style=\"color:Tomato;\">0.2</b>.</h2>\n            <p>In this block, you will be giving <b>one</b> set of examples to Student 9.</p>\n                <p>You will receive feedback at the end of the block.</p>\n            <p></p>","response":0,"trial_type":"html-button-response","trial_index":76,"time_elapsed":729283,"internal_node_id":"0.0-75.0","params":{"nStudents":24,"maxFlips":30,"completionMinutes":45,"basePay":8,"maxBonus":9,"perTrialBonus":0.5,"perTrialBonusThreshold":0.05,"exampleCost":0.01},"classroomParams":{"A":{"a":1,"b":4},"B":{"a":4,"b":1},"C":{"a":2,"b":8},"D":{"a":8,"b":2}},"conditions":["nonSeqFull","nonSeqPartial","seqNoFeedback","seqFeedback"],"classroomPairings":[["A","B"],["C","D"]],"coinWeights":[0.2,0.5,0.8],"subjectId":"A1M3KGD9H8RTBH","assignmentId":"3TYCR1GOTD5LD8CNR23TTBKK97YZLT","hitId":"3JGHED38EDDK7DFM0KVY7GXU94LY7W","url":"https://gershmanlab.com/experiments/alicia/teaching/experiment/?hitId=3JGHED38EDDK7DFM0KVY7GXU94LY7W&workerId=A1M3KGD9H8RTBH&assignmentId=3TYCR1GOTD5LD8CNR23TTBKK97YZLT&a=ORYT9&tp_a=ORYT9&b=3TYCR1GOTD5LD8CNR23TTBKK97YZLT&tp_b=3TYCR1GOTD5LD8CNR23TTBKK97YZLT&c=365799&tp_c=365799"},{"rt":39156,"response":{"heads":"1","tails":"8"},"type":"response","condition":"nonSeqFull","trueTheta":0.2,"classrooms":["A","B"],"studentTrueClassroom":"A","exampleSet":"first","trial_type":"survey-html-form","trial_index":77,"time_elapsed":768444,"internal_node_id":"0.0-76.0-0.0","params":{"nStudents":24,"maxFlips":30,"completionMinutes":45,"basePay":8,"maxBonus":9,"perTrialBonus":0.5,"perTrialBonusThreshold":0.05,"exampleCost":0.01},"classroomParams":{"A":{"a":1,"b":4},"B":{"a":4,"b":1},"C":{"a":2,"b":8},"D":{"a":8,"b":2}},"conditions":["nonSeqFull","nonSeqPartial","seqNoFeedback","seqFeedback"],"classroomPairings":[["A","B"],["C","D"]],"coinWeights":[0.2,0.5,0.8],"subjectId":"A1M3KGD9H8RTBH","assignmentId":"3TYCR1GOTD5LD8CNR23TTBKK97YZLT","hitId":"3JGHED38EDDK7DFM0KVY7GXU94LY7W","url":"https://gershmanlab.com/experiments/alicia/teaching/experiment/?hitId=3JGHED38EDDK7DFM0KVY7GXU94LY7W&workerId=A1M3KGD9H8RTBH&assignmentId=3TYCR1GOTD5LD8CNR23TTBKK97YZLT&a=ORYT9&tp_a=ORYT9&b=3TYCR1GOTD5LD8CNR23TTBKK97YZLT&tp_b=3TYCR1GOTD5LD8CNR23TTBKK97YZLT&c=365799&tp_c=365799","heads":1,"tails":8,"studentIndex":8,"studentTrueHypers":{"a":1,"b":4},"studentGuess":0.14285714285714285,"delta":0.05714285714285716,"totalExamples":9,"bonus":0,"bonusSoFar":0.35},{"rt":null,"stimulus":"Sending examples to student... ","response":null,"trial_type":"html-keyboard-response","trial_index":78,"time_elapsed":770450,"internal_node_id":"0.0-77.0","params":{"nStudents":24,"maxFlips":30,"completionMinutes":45,"basePay":8,"maxBonus":9,"perTrialBonus":0.5,"perTrialBonusThreshold":0.05,"exampleCost":0.01},"classroomParams":{"A":{"a":1,"b":4},"B":{"a":4,"b":1},"C":{"a":2,"b":8},"D":{"a":8,"b":2}},"conditions":["nonSeqFull","nonSeqPartial","seqNoFeedback","seqFeedback"],"classroomPairings":[["A","B"],["C","D"]],"coinWeights":[0.2,0.5,0.8],"subjectId":"A1M3KGD9H8RTBH","assignmentId":"3TYCR1GOTD5LD8CNR23TTBKK97YZLT","hitId":"3JGHED38EDDK7DFM0KVY7GXU94LY7W","url":"https://gershmanlab.com/experiments/alicia/teaching/experiment/?hitId=3JGHED38EDDK7DFM0KVY7GXU94LY7W&workerId=A1M3KGD9H8RTBH&assignmentId=3TYCR1GOTD5LD8CNR23TTBKK97YZLT&a=ORYT9&tp_a=ORYT9&b=3TYCR1GOTD5LD8CNR23TTBKK97YZLT&tp_b=3TYCR1GOTD5LD8CNR23TTBKK97YZLT&c=365799&tp_c=365799"},{"rt":null,"stimulus":"Examples sent to student! Waiting for student...","response":null,"trial_type":"html-keyboard-response","trial_index":79,"time_elapsed":775467,"internal_node_id":"0.0-78.0","params":{"nStudents":24,"maxFlips":30,"completionMinutes":45,"basePay":8,"maxBonus":9,"perTrialBonus":0.5,"perTrialBonusThreshold":0.05,"exampleCost":0.01},"classroomParams":{"A":{"a":1,"b":4},"B":{"a":4,"b":1},"C":{"a":2,"b":8},"D":{"a":8,"b":2}},"conditions":["nonSeqFull","nonSeqPartial","seqNoFeedback","seqFeedback"],"classroomPairings":[["A","B"],["C","D"]],"coinWeights":[0.2,0.5,0.8],"subjectId":"A1M3KGD9H8RTBH","assignmentId":"3TYCR1GOTD5LD8CNR23TTBKK97YZLT","hitId":"3JGHED38EDDK7DFM0KVY7GXU94LY7W","url":"https://gershmanlab.com/experiments/alicia/teaching/experiment/?hitId=3JGHED38EDDK7DFM0KVY7GXU94LY7W&workerId=A1M3KGD9H8RTBH&assignmentId=3TYCR1GOTD5LD8CNR23TTBKK97YZLT&a=ORYT9&tp_a=ORYT9&b=3TYCR1GOTD5LD8CNR23TTBKK97YZLT&tp_b=3TYCR1GOTD5LD8CNR23TTBKK97YZLT&c=365799&tp_c=365799"},{"rt":4086,"stimulus":"\n                <p>Student's guess for coin weight: <b style=\"color:Tomato;\">0.14</b></p>\n                <p>You received a bonus of <b>$0</b>. Total bonus so far: <b>$0.35</b></b></p>\n                <p></p>\n                <p>Press any key to continue.</p>\n                ","response":" ","trial_type":"html-keyboard-response","trial_index":80,"time_elapsed":779554,"internal_node_id":"0.0-79.0","params":{"nStudents":24,"maxFlips":30,"completionMinutes":45,"basePay":8,"maxBonus":9,"perTrialBonus":0.5,"perTrialBonusThreshold":0.05,"exampleCost":0.01},"classroomParams":{"A":{"a":1,"b":4},"B":{"a":4,"b":1},"C":{"a":2,"b":8},"D":{"a":8,"b":2}},"conditions":["nonSeqFull","nonSeqPartial","seqNoFeedback","seqFeedback"],"classroomPairings":[["A","B"],["C","D"]],"coinWeights":[0.2,0.5,0.8],"subjectId":"A1M3KGD9H8RTBH","assignmentId":"3TYCR1GOTD5LD8CNR23TTBKK97YZLT","hitId":"3JGHED38EDDK7DFM0KVY7GXU94LY7W","url":"https://gershmanlab.com/experiments/alicia/teaching/experiment/?hitId=3JGHED38EDDK7DFM0KVY7GXU94LY7W&workerId=A1M3KGD9H8RTBH&assignmentId=3TYCR1GOTD5LD8CNR23TTBKK97YZLT&a=ORYT9&tp_a=ORYT9&b=3TYCR1GOTD5LD8CNR23TTBKK97YZLT&tp_b=3TYCR1GOTD5LD8CNR23TTBKK97YZLT&c=365799&tp_c=365799"},{"rt":null,"stimulus":"<div style=\"font-size:60px;\">Next student</div>","response":null,"trial_type":"html-keyboard-response","trial_index":81,"time_elapsed":782560,"internal_node_id":"0.0-80.0-0.0","params":{"nStudents":24,"maxFlips":30,"completionMinutes":45,"basePay":8,"maxBonus":9,"perTrialBonus":0.5,"perTrialBonusThreshold":0.05,"exampleCost":0.01},"classroomParams":{"A":{"a":1,"b":4},"B":{"a":4,"b":1},"C":{"a":2,"b":8},"D":{"a":8,"b":2}},"conditions":["nonSeqFull","nonSeqPartial","seqNoFeedback","seqFeedback"],"classroomPairings":[["A","B"],["C","D"]],"coinWeights":[0.2,0.5,0.8],"subjectId":"A1M3KGD9H8RTBH","assignmentId":"3TYCR1GOTD5LD8CNR23TTBKK97YZLT","hitId":"3JGHED38EDDK7DFM0KVY7GXU94LY7W","url":"https://gershmanlab.com/experiments/alicia/teaching/experiment/?hitId=3JGHED38EDDK7DFM0KVY7GXU94LY7W&workerId=A1M3KGD9H8RTBH&assignmentId=3TYCR1GOTD5LD8CNR23TTBKK97YZLT&a=ORYT9&tp_a=ORYT9&b=3TYCR1GOTD5LD8CNR23TTBKK97YZLT&tp_b=3TYCR1GOTD5LD8CNR23TTBKK97YZLT&c=365799&tp_c=365799"},{"rt":2810,"stimulus":"\n            <h4 style=\"color:Orange;\">Student 10</h4>\n            <h2>The weight of your coin is <b style=\"color:Tomato;\">0.8</b>.</h2>\n            <p>In this block, you will be giving <b>one</b> set of examples to Student 10.</p>\n                <p>You will receive feedback at the end of the block.</p>\n            <p></p>","response":0,"trial_type":"html-button-response","trial_index":82,"time_elapsed":785371,"internal_node_id":"0.0-81.0","params":{"nStudents":24,"maxFlips":30,"completionMinutes":45,"basePay":8,"maxBonus":9,"perTrialBonus":0.5,"perTrialBonusThreshold":0.05,"exampleCost":0.01},"classroomParams":{"A":{"a":1,"b":4},"B":{"a":4,"b":1},"C":{"a":2,"b":8},"D":{"a":8,"b":2}},"conditions":["nonSeqFull","nonSeqPartial","seqNoFeedback","seqFeedback"],"classroomPairings":[["A","B"],["C","D"]],"coinWeights":[0.2,0.5,0.8],"subjectId":"A1M3KGD9H8RTBH","assignmentId":"3TYCR1GOTD5LD8CNR23TTBKK97YZLT","hitId":"3JGHED38EDDK7DFM0KVY7GXU94LY7W","url":"https://gershmanlab.com/experiments/alicia/teaching/experiment/?hitId=3JGHED38EDDK7DFM0KVY7GXU94LY7W&workerId=A1M3KGD9H8RTBH&assignmentId=3TYCR1GOTD5LD8CNR23TTBKK97YZLT&a=ORYT9&tp_a=ORYT9&b=3TYCR1GOTD5LD8CNR23TTBKK97YZLT&tp_b=3TYCR1GOTD5LD8CNR23TTBKK97YZLT&c=365799&tp_c=365799"},{"rt":41771,"response":{"heads":"8","tails":"0"},"type":"response","condition":"nonSeqFull","trueTheta":0.8,"classrooms":["C","D"],"studentTrueClassroom":"C","exampleSet":"first","trial_type":"survey-html-form","trial_index":83,"time_elapsed":827149,"internal_node_id":"0.0-82.0-0.0","params":{"nStudents":24,"maxFlips":30,"completionMinutes":45,"basePay":8,"maxBonus":9,"perTrialBonus":0.5,"perTrialBonusThreshold":0.05,"exampleCost":0.01},"classroomParams":{"A":{"a":1,"b":4},"B":{"a":4,"b":1},"C":{"a":2,"b":8},"D":{"a":8,"b":2}},"conditions":["nonSeqFull","nonSeqPartial","seqNoFeedback","seqFeedback"],"classroomPairings":[["A","B"],["C","D"]],"coinWeights":[0.2,0.5,0.8],"subjectId":"A1M3KGD9H8RTBH","assignmentId":"3TYCR1GOTD5LD8CNR23TTBKK97YZLT","hitId":"3JGHED38EDDK7DFM0KVY7GXU94LY7W","url":"https://gershmanlab.com/experiments/alicia/teaching/experiment/?hitId=3JGHED38EDDK7DFM0KVY7GXU94LY7W&workerId=A1M3KGD9H8RTBH&assignmentId=3TYCR1GOTD5LD8CNR23TTBKK97YZLT&a=ORYT9&tp_a=ORYT9&b=3TYCR1GOTD5LD8CNR23TTBKK97YZLT&tp_b=3TYCR1GOTD5LD8CNR23TTBKK97YZLT&c=365799&tp_c=365799","heads":8,"tails":0,"studentIndex":9,"studentTrueHypers":{"a":2,"b":8},"studentGuess":0.5555555555555556,"delta":0.24444444444444446,"totalExamples":8,"bonus":0,"bonusSoFar":0.35},{"rt":null,"stimulus":"Sending examples to student... ","response":null,"trial_type":"html-keyboard-response","trial_index":84,"time_elapsed":829165,"internal_node_id":"0.0-83.0","params":{"nStudents":24,"maxFlips":30,"completionMinutes":45,"basePay":8,"maxBonus":9,"perTrialBonus":0.5,"perTrialBonusThreshold":0.05,"exampleCost":0.01},"classroomParams":{"A":{"a":1,"b":4},"B":{"a":4,"b":1},"C":{"a":2,"b":8},"D":{"a":8,"b":2}},"conditions":["nonSeqFull","nonSeqPartial","seqNoFeedback","seqFeedback"],"classroomPairings":[["A","B"],["C","D"]],"coinWeights":[0.2,0.5,0.8],"subjectId":"A1M3KGD9H8RTBH","assignmentId":"3TYCR1GOTD5LD8CNR23TTBKK97YZLT","hitId":"3JGHED38EDDK7DFM0KVY7GXU94LY7W","url":"https://gershmanlab.com/experiments/alicia/teaching/experiment/?hitId=3JGHED38EDDK7DFM0KVY7GXU94LY7W&workerId=A1M3KGD9H8RTBH&assignmentId=3TYCR1GOTD5LD8CNR23TTBKK97YZLT&a=ORYT9&tp_a=ORYT9&b=3TYCR1GOTD5LD8CNR23TTBKK97YZLT&tp_b=3TYCR1GOTD5LD8CNR23TTBKK97YZLT&c=365799&tp_c=365799"},{"rt":null,"stimulus":"Examples sent 