[{"rt":2322,"stimulus":"Welcome to the experiment. Press any key to begin.","response":"enter","trial_type":"html-keyboard-response","trial_index":0,"time_elapsed":2374,"internal_node_id":"0.0-0.0","params":{"nStudents":24,"maxFlips":30,"completionMinutes":45,"basePay":8,"maxBonus":9,"perTrialBonus":0.5,"perTrialBonusThreshold":0.05,"exampleCost":0.01},"classroomParams":{"A":{"a":1,"b":4},"B":{"a":4,"b":1},"C":{"a":2,"b":8},"D":{"a":8,"b":2}},"conditions":["nonSeqFull","nonSeqPartial","seqNoFeedback","seqFeedback"],"classroomPairings":[["A","B"],["C","D"]],"coinWeights":[0.2,0.5,0.8],"subjectId":"A1MKCTVKE7J0ZP","assignmentId":"3KV0LJBBH37WHZ8HHXAV7LXA0V5RMU","hitId":"3AQN9REUTF20OMGWRXYK787QVFOYDP","url":"https://gershmanlab.com/experiments/alicia/teaching/experiment/?hitId=3AQN9REUTF20OMGWRXYK787QVFOYDP&workerId=A1MKCTVKE7J0ZP&assignmentId=3KV0LJBBH37WHZ8HHXAV7LXA0V5RMU&a=BLVK9&tp_a=BLVK9&b=3KV0LJBBH37WHZ8HHXAV7LXA0V5RMU&tp_b=3KV0LJBBH37WHZ8HHXAV7LXA0V5RMU&c=365799&tp_c=365799"},{"rt":11034,"stimulus":"\n        <h3>Please read this consent agreement carefully before deciding whether to participate in this experiment.</h3>\n        <p><b>Purpose of the research:</b> To examine how people teach effectively.</p>\n        <p><b>What you will do in this research:</b> You will teach students the weights of different coins.</p>\n        <p><b>Time required:</b> This experiment will take 45 minutes to complete.</p>\n        <p><b>Risks:</b> There are no anticipated risks associated with participating in this study.             The effects of participating should be comparable to those you would experience from viewing a computer monitor             and using a mouse and keyboard for the duration of the experiment.</p>\n        <p><b>Benefits:</b> The study provides important information about the nature of teaching.</p>\n        <p><b>Compensation:</b> You will receive <b>$8</b> for completing the experiment and a performance bonus of up to <b>$9</b>.</p>\n        <p><b>Confidentiality:</b> Your participation in this study will remain confidential.             No personally identifiable information will be associated with your data.             Your de-identified data may be shared with other researchers and used in future projects.</p>\n        <p><b>Participation and withdrawal:</b> Your participation in this study is completely voluntary and             you may refuse to participate or you may choose to withdraw at any time without penalty or loss of\n            benefits to which you are otherwise entitled.</p>\n        <p><b>How to contact the researcher:</b> If you have questions or concerns about your participation            or payment, or want to request a summary of research findings, please contact\n            Alicia Chen, aliciachen@college.harvard.edu.</p>\n        <p><b>Whom to contact about your rights in this research:</b> For questions, concerns, suggestions,             or complaints that have not been or cannot be addressed by the researcher, or to report             research-related harm, please contact the Committee on the Use of Human Subjects in Research at Harvard University,             1414 Massachusetts Avenue, Second Floor, Cambridge, MA 02138. Phone: 617-496-2847. Email: cuhs@fas.harvard.edu.</p>\n        ","response":0,"trial_type":"html-button-response","trial_index":1,"time_elapsed":13411,"internal_node_id":"0.0-1.0","params":{"nStudents":24,"maxFlips":30,"completionMinutes":45,"basePay":8,"maxBonus":9,"perTrialBonus":0.5,"perTrialBonusThreshold":0.05,"exampleCost":0.01},"classroomParams":{"A":{"a":1,"b":4},"B":{"a":4,"b":1},"C":{"a":2,"b":8},"D":{"a":8,"b":2}},"conditions":["nonSeqFull","nonSeqPartial","seqNoFeedback","seqFeedback"],"classroomPairings":[["A","B"],["C","D"]],"coinWeights":[0.2,0.5,0.8],"subjectId":"A1MKCTVKE7J0ZP","assignmentId":"3KV0LJBBH37WHZ8HHXAV7LXA0V5RMU","hitId":"3AQN9REUTF20OMGWRXYK787QVFOYDP","url":"https://gershmanlab.com/experiments/alicia/teaching/experiment/?hitId=3AQN9REUTF20OMGWRXYK787QVFOYDP&workerId=A1MKCTVKE7J0ZP&assignmentId=3KV0LJBBH37WHZ8HHXAV7LXA0V5RMU&a=BLVK9&tp_a=BLVK9&b=3KV0LJBBH37WHZ8HHXAV7LXA0V5RMU&tp_b=3KV0LJBBH37WHZ8HHXAV7LXA0V5RMU&c=365799&tp_c=365799"},{"view_history":[{"page_index":0,"viewing_time":10312},{"page_index":1,"viewing_time":4099},{"page_index":2,"viewing_time":54101},{"page_index":3,"viewing_time":15255},{"page_index":4,"viewing_time":12699},{"page_index":5,"viewing_time":21511},{"page_index":6,"viewing_time":45201}],"rt":163179,"trial_type":"instructions","trial_index":2,"time_elapsed":176596,"internal_node_id":"0.0-2.0-0.0","params":{"nStudents":24,"maxFlips":30,"completionMinutes":45,"basePay":8,"maxBonus":9,"perTrialBonus":0.5,"perTrialBonusThreshold":0.05,"exampleCost":0.01},"classroomParams":{"A":{"a":1,"b":4},"B":{"a":4,"b":1},"C":{"a":2,"b":8},"D":{"a":8,"b":2}},"conditions":["nonSeqFull","nonSeqPartial","seqNoFeedback","seqFeedback"],"classroomPairings":[["A","B"],["C","D"]],"coinWeights":[0.2,0.5,0.8],"subjectId":"A1MKCTVKE7J0ZP","assignmentId":"3KV0LJBBH37WHZ8HHXAV7LXA0V5RMU","hitId":"3AQN9REUTF20OMGWRXYK787QVFOYDP","url":"https://gershmanlab.com/experiments/alicia/teaching/experiment/?hitId=3AQN9REUTF20OMGWRXYK787QVFOYDP&workerId=A1MKCTVKE7J0ZP&assignmentId=3KV0LJBBH37WHZ8HHXAV7LXA0V5RMU&a=BLVK9&tp_a=BLVK9&b=3KV0LJBBH37WHZ8HHXAV7LXA0V5RMU&tp_b=3KV0LJBBH37WHZ8HHXAV7LXA0V5RMU&c=365799&tp_c=365799"},{"rt":134166,"response":{"Q0":"Students in different classrooms will have seen a different number of heads and tails before seeing the examples you select for them.","Q1":"By <b>considering the student's classroom information</b> so that I can teach efficiently and accurately/helpfully at the same time (because each example I give to the student costs money!).","Q2":"The coin lands heads 90% of the time.","Q3":"No, I will teach a <b>new</b> student each time.","Q4":"The students are also on the same alien planet as you, where coins can be unfair.","Q5":"Based on the student's second (and final) guess."},"question_order":[5,3,2,0,1,4],"trial_type":"survey-multi-choice","trial_index":3,"time_elapsed":310770,"internal_node_id":"0.0-2.0-1.0","params":{"nStudents":24,"maxFlips":30,"completionMinutes":45,"basePay":8,"maxBonus":9,"perTrialBonus":0.5,"perTrialBonusThreshold":0.05,"exampleCost":0.01},"classroomParams":{"A":{"a":1,"b":4},"B":{"a":4,"b":1},"C":{"a":2,"b":8},"D":{"a":8,"b":2}},"conditions":["nonSeqFull","nonSeqPartial","seqNoFeedback","seqFeedback"],"classroomPairings":[["A","B"],["C","D"]],"coinWeights":[0.2,0.5,0.8],"subjectId":"A1MKCTVKE7J0ZP","assignmentId":"3KV0LJBBH37WHZ8HHXAV7LXA0V5RMU","hitId":"3AQN9REUTF20OMGWRXYK787QVFOYDP","url":"https://gershmanlab.com/experiments/alicia/teaching/experiment/?hitId=3AQN9REUTF20OMGWRXYK787QVFOYDP&workerId=A1MKCTVKE7J0ZP&assignmentId=3KV0LJBBH37WHZ8HHXAV7LXA0V5RMU&a=BLVK9&tp_a=BLVK9&b=3KV0LJBBH37WHZ8HHXAV7LXA0V5RMU&tp_b=3KV0LJBBH37WHZ8HHXAV7LXA0V5RMU&c=365799&tp_c=365799","pass":true},{"rt":null,"stimulus":"<div style=\"font-size:30px;\">Congrats on passing the comprehension quiz! The experiment will begin in a few seconds.</div>","response":null,"trial_type":"html-keyboard-response","trial_index":4,"time_elapsed":313780,"internal_node_id":"0.0-3.0","params":{"nStudents":24,"maxFlips":30,"completionMinutes":45,"basePay":8,"maxBonus":9,"perTrialBonus":0.5,"perTrialBonusThreshold":0.05,"exampleCost":0.01},"classroomParams":{"A":{"a":1,"b":4},"B":{"a":4,"b":1},"C":{"a":2,"b":8},"D":{"a":8,"b":2}},"conditions":["nonSeqFull","nonSeqPartial","seqNoFeedback","seqFeedback"],"classroomPairings":[["A","B"],["C","D"]],"coinWeights":[0.2,0.5,0.8],"subjectId":"A1MKCTVKE7J0ZP","assignmentId":"3KV0LJBBH37WHZ8HHXAV7LXA0V5RMU","hitId":"3AQN9REUTF20OMGWRXYK787QVFOYDP","url":"https://gershmanlab.com/experiments/alicia/teaching/experiment/?hitId=3AQN9REUTF20OMGWRXYK787QVFOYDP&workerId=A1MKCTVKE7J0ZP&assignmentId=3KV0LJBBH37WHZ8HHXAV7LXA0V5RMU&a=BLVK9&tp_a=BLVK9&b=3KV0LJBBH37WHZ8HHXAV7LXA0V5RMU&tp_b=3KV0LJBBH37WHZ8HHXAV7LXA0V5RMU&c=365799&tp_c=365799"},{"rt":null,"stimulus":"<div style=\"font-size:50px;\">First student</div>","response":null,"trial_type":"html-keyboard-response","trial_index":5,"time_elapsed":316781,"internal_node_id":"0.0-4.0","params":{"nStudents":24,"maxFlips":30,"completionMinutes":45,"basePay":8,"maxBonus":9,"perTrialBonus":0.5,"perTrialBonusThreshold":0.05,"exampleCost":0.01},"classroomParams":{"A":{"a":1,"b":4},"B":{"a":4,"b":1},"C":{"a":2,"b":8},"D":{"a":8,"b":2}},"conditions":["nonSeqFull","nonSeqPartial","seqNoFeedback","seqFeedback"],"classroomPairings":[["A","B"],["C","D"]],"coinWeights":[0.2,0.5,0.8],"subjectId":"A1MKCTVKE7J0ZP","assignmentId":"3KV0LJBBH37WHZ8HHXAV7LXA0V5RMU","hitId":"3AQN9REUTF20OMGWRXYK787QVFOYDP","url":"https://gershmanlab.com/experiments/alicia/teaching/experiment/?hitId=3AQN9REUTF20OMGWRXYK787QVFOYDP&workerId=A1MKCTVKE7J0ZP&assignmentId=3KV0LJBBH37WHZ8HHXAV7LXA0V5RMU&a=BLVK9&tp_a=BLVK9&b=3KV0LJBBH37WHZ8HHXAV7LXA0V5RMU&tp_b=3KV0LJBBH37WHZ8HHXAV7LXA0V5RMU&c=365799&tp_c=365799"},{"rt":6500,"stimulus":"\n            <h4 style=\"color:Orange;\">Student 1</h4>\n            <h2>The weight of your coin is <b style=\"color:Tomato;\">0.8</b>.</h2>\n            <p>In this block, you will be giving <b>one</b> set of examples to Student 1.</p>\n                <p>You will receive feedback at the end of the block.</p>\n            <p></p>","response":0,"trial_type":"html-button-response","trial_index":6,"time_elapsed":323283,"internal_node_id":"0.0-5.0","params":{"nStudents":24,"maxFlips":30,"completionMinutes":45,"basePay":8,"maxBonus":9,"perTrialBonus":0.5,"perTrialBonusThreshold":0.05,"exampleCost":0.01},"classroomParams":{"A":{"a":1,"b":4},"B":{"a":4,"b":1},"C":{"a":2,"b":8},"D":{"a":8,"b":2}},"conditions":["nonSeqFull","nonSeqPartial","seqNoFeedback","seqFeedback"],"classroomPairings":[["A","B"],["C","D"]],"coinWeights":[0.2,0.5,0.8],"subjectId":"A1MKCTVKE7J0ZP","assignmentId":"3KV0LJBBH37WHZ8HHXAV7LXA0V5RMU","hitId":"3AQN9REUTF20OMGWRXYK787QVFOYDP","url":"https://gershmanlab.com/experiments/alicia/teaching/experiment/?hitId=3AQN9REUTF20OMGWRXYK787QVFOYDP&workerId=A1MKCTVKE7J0ZP&assignmentId=3KV0LJBBH37WHZ8HHXAV7LXA0V5RMU&a=BLVK9&tp_a=BLVK9&b=3KV0LJBBH37WHZ8HHXAV7LXA0V5RMU&tp_b=3KV0LJBBH37WHZ8HHXAV7LXA0V5RMU&c=365799&tp_c=365799"},{"rt":68099,"response":{"heads":"5","tails":"5"},"type":"response","condition":"nonSeqPartial","trueTheta":0.8,"classrooms":["C","D"],"studentTrueClassroom":"D","exampleSet":"first","trial_type":"survey-html-form","trial_index":7,"time_elapsed":391387,"internal_node_id":"0.0-6.0-0.0","params":{"nStudents":24,"maxFlips":30,"completionMinutes":45,"basePay":8,"maxBonus":9,"perTrialBonus":0.5,"perTrialBonusThreshold":0.05,"exampleCost":0.01},"classroomParams":{"A":{"a":1,"b":4},"B":{"a":4,"b":1},"C":{"a":2,"b":8},"D":{"a":8,"b":2}},"conditions":["nonSeqFull","nonSeqPartial","seqNoFeedback","seqFeedback"],"classroomPairings":[["A","B"],["C","D"]],"coinWeights":[0.2,0.5,0.8],"subjectId":"A1MKCTVKE7J0ZP","assignmentId":"3KV0LJBBH37WHZ8HHXAV7LXA0V5RMU","hitId":"3AQN9REUTF20OMGWRXYK787QVFOYDP","url":"https://gershmanlab.com/experiments/alicia/teaching/experiment/?hitId=3AQN9REUTF20OMGWRXYK787QVFOYDP&workerId=A1MKCTVKE7J0ZP&assignmentId=3KV0LJBBH37WHZ8HHXAV7LXA0V5RMU&a=BLVK9&tp_a=BLVK9&b=3KV0LJBBH37WHZ8HHXAV7LXA0V5RMU&tp_b=3KV0LJBBH37WHZ8HHXAV7LXA0V5RMU&c=365799&tp_c=365799","heads":5,"tails":5,"studentIndex":0,"studentTrueHypers":{"a":8,"b":2},"studentGuess":0.65,"delta":0.15000000000000002,"totalExamples":10,"bonus":0,"bonusSoFar":0},{"rt":null,"stimulus":"Sending examples to student... ","response":null,"trial_type":"html-keyboard-response","trial_index":8,"time_elapsed":393390,"internal_node_id":"0.0-7.0","params":{"nStudents":24,"maxFlips":30,"completionMinutes":45,"basePay":8,"maxBonus":9,"perTrialBonus":0.5,"perTrialBonusThreshold":0.05,"exampleCost":0.01},"classroomParams":{"A":{"a":1,"b":4},"B":{"a":4,"b":1},"C":{"a":2,"b":8},"D":{"a":8,"b":2}},"conditions":["nonSeqFull","nonSeqPartial","seqNoFeedback","seqFeedback"],"classroomPairings":[["A","B"],["C","D"]],"coinWeights":[0.2,0.5,0.8],"subjectId":"A1MKCTVKE7J0ZP","assignmentId":"3KV0LJBBH37WHZ8HHXAV7LXA0V5RMU","hitId":"3AQN9REUTF20OMGWRXYK787QVFOYDP","url":"https://gershmanlab.com/experiments/alicia/teaching/experiment/?hitId=3AQN9REUTF20OMGWRXYK787QVFOYDP&workerId=A1MKCTVKE7J0ZP&assignmentId=3KV0LJBBH37WHZ8HHXAV7LXA0V5RMU&a=BLVK9&tp_a=BLVK9&b=3KV0LJBBH37WHZ8HHXAV7LXA0V5RMU&tp_b=3KV0LJBBH37WHZ8HHXAV7LXA0V5RMU&c=365799&tp_c=365799"},{"rt":null,"stimulus":"Examples sent to student! Waiting for student...","response":null,"trial_type":"html-keyboard-response","trial_index":9,"time_elapsed":397393,"internal_node_id":"0.0-8.0","params":{"nStudents":24,"maxFlips":30,"completionMinutes":45,"basePay":8,"maxBonus":9,"perTrialBonus":0.5,"perTrialBonusThreshold":0.05,"exampleCost":0.01},"classroomParams":{"A":{"a":1,"b":4},"B":{"a":4,"b":1},"C":{"a":2,"b":8},"D":{"a":8,"b":2}},"conditions":["nonSeqFull","nonSeqPartial","seqNoFeedback","seqFeedback"],"classroomPairings":[["A","B"],["C","D"]],"coinWeights":[0.2,0.5,0.8],"subjectId":"A1MKCTVKE7J0ZP","assignmentId":"3KV0LJBBH37WHZ8HHXAV7LXA0V5RMU","hitId":"3AQN9REUTF20OMGWRXYK787QVFOYDP","url":"https://gershmanlab.com/experiments/alicia/teaching/experiment/?hitId=3AQN9REUTF20OMGWRXYK787QVFOYDP&workerId=A1MKCTVKE7J0ZP&assignmentId=3KV0LJBBH37WHZ8HHXAV7LXA0V5RMU&a=BLVK9&tp_a=BLVK9&b=3KV0LJBBH37WHZ8HHXAV7LXA0V5RMU&tp_b=3KV0LJBBH37WHZ8HHXAV7LXA0V5RMU&c=365799&tp_c=365799"},{"rt":4919,"stimulus":"\n                <p>Student's guess for coin weight: <b style=\"color:Tomato;\">0.65</b></p>\n                <p>You received a bonus of <b>$0</b>. Total bonus so far: <b>$0.00</b></b></p>\n                <p></p>\n                <p>Press any key to continue.</p>\n                ","response":"enter","trial_type":"html-keyboard-response","trial_index":10,"time_elapsed":402313,"internal_node_id":"0.0-9.0","params":{"nStudents":24,"maxFlips":30,"completionMinutes":45,"basePay":8,"maxBonus":9,"perTrialBonus":0.5,"perTrialBonusThreshold":0.05,"exampleCost":0.01},"classroomParams":{"A":{"a":1,"b":4},"B":{"a":4,"b":1},"C":{"a":2,"b":8},"D":{"a":8,"b":2}},"conditions":["nonSeqFull","nonSeqPartial","seqNoFeedback","seqFeedback"],"classroomPairings":[["A","B"],["C","D"]],"coinWeights":[0.2,0.5,0.8],"subjectId":"A1MKCTVKE7J0ZP","assignmentId":"3KV0LJBBH37WHZ8HHXAV7LXA0V5RMU","hitId":"3AQN9REUTF20OMGWRXYK787QVFOYDP","url":"https://gershmanlab.com/experiments/alicia/teaching/experiment/?hitId=3AQN9REUTF20OMGWRXYK787QVFOYDP&workerId=A1MKCTVKE7J0ZP&assignmentId=3KV0LJBBH37WHZ8HHXAV7LXA0V5RMU&a=BLVK9&tp_a=BLVK9&b=3KV0LJBBH37WHZ8HHXAV7LXA0V5RMU&tp_b=3KV0LJBBH37WHZ8HHXAV7LXA0V5RMU&c=365799&tp_c=365799"},{"rt":null,"stimulus":"<div style=\"font-size:60px;\">Next student</div>","response":null,"trial_type":"html-keyboard-response","trial_index":11,"time_elapsed":405315,"internal_node_id":"0.0-10.0-0.0","params":{"nStudents":24,"maxFlips":30,"completionMinutes":45,"basePay":8,"maxBonus":9,"perTrialBonus":0.5,"perTrialBonusThreshold":0.05,"exampleCost":0.01},"classroomParams":{"A":{"a":1,"b":4},"B":{"a":4,"b":1},"C":{"a":2,"b":8},"D":{"a":8,"b":2}},"conditions":["nonSeqFull","nonSeqPartial","seqNoFeedback","seqFeedback"],"classroomPairings":[["A","B"],["C","D"]],"coinWeights":[0.2,0.5,0.8],"subjectId":"A1MKCTVKE7J0ZP","assignmentId":"3KV0LJBBH37WHZ8HHXAV7LXA0V5RMU","hitId":"3AQN9REUTF20OMGWRXYK787QVFOYDP","url":"https://gershmanlab.com/experiments/alicia/teaching/experiment/?hitId=3AQN9REUTF20OMGWRXYK787QVFOYDP&workerId=A1MKCTVKE7J0ZP&assignmentId=3KV0LJBBH37WHZ8HHXAV7LXA0V5RMU&a=BLVK9&tp_a=BLVK9&b=3KV0LJBBH37WHZ8HHXAV7LXA0V5RMU&tp_b=3KV0LJBBH37WHZ8HHXAV7LXA0V5RMU&c=365799&tp_c=365799"},{"rt":3411,"stimulus":"\n            <h4 style=\"color:Orange;\">Student 2</h4>\n            <h2>The weight of your coin is <b style=\"color:Tomato;\">0.2</b>.</h2>\n            <p>In this block, you will be giving <b>one</b> set of examples to Student 2.</p>\n                <p>You will receive feedback at the end of the block.</p>\n            <p></p>","response":0,"trial_type":"html-button-response","trial_index":12,"time_elapsed":408728,"internal_node_id":"0.0-11.0","params":{"nStudents":24,"maxFlips":30,"completionMinutes":45,"basePay":8,"maxBonus":9,"perTrialBonus":0.5,"perTrialBonusThreshold":0.05,"exampleCost":0.01},"classroomParams":{"A":{"a":1,"b":4},"B":{"a":4,"b":1},"C":{"a":2,"b":8},"D":{"a":8,"b":2}},"conditions":["nonSeqFull","nonSeqPartial","seqNoFeedback","seqFeedback"],"classroomPairings":[["A","B"],["C","D"]],"coinWeights":[0.2,0.5,0.8],"subjectId":"A1MKCTVKE7J0ZP","assignmentId":"3KV0LJBBH37WHZ8HHXAV7LXA0V5RMU","hitId":"3AQN9REUTF20OMGWRXYK787QVFOYDP","url":"https://gershmanlab.com/experiments/alicia/teaching/experiment/?hitId=3AQN9REUTF20OMGWRXYK787QVFOYDP&workerId=A1MKCTVKE7J0ZP&assignmentId=3KV0LJBBH37WHZ8HHXAV7LXA0V5RMU&a=BLVK9&tp_a=BLVK9&b=3KV0LJBBH37WHZ8HHXAV7LXA0V5RMU&tp_b=3KV0LJBBH37WHZ8HHXAV7LXA0V5RMU&c=365799&tp_c=365799"},{"rt":12067,"response":{"heads":"2","tails":"8"},"type":"response","condition":"nonSeqFull","trueTheta":0.2,"classrooms":["C","D"],"studentTrueClassroom":"C","exampleSet":"first","trial_type":"survey-html-form","trial_index":13,"time_elapsed":420798,"internal_node_id":"0.0-12.0-0.0","params":{"nStudents":24,"maxFlips":30,"completionMinutes":45,"basePay":8,"maxBonus":9,"perTrialBonus":0.5,"perTrialBonusThreshold":0.05,"exampleCost":0.01},"classroomParams":{"A":{"a":1,"b":4},"B":{"a":4,"b":1},"C":{"a":2,"b":8},"D":{"a":8,"b":2}},"conditions":["nonSeqFull","nonSeqPartial","seqNoFeedback","seqFeedback"],"classroomPairings":[["A","B"],["C","D"]],"coinWeights":[0.2,0.5,0.8],"subjectId":"A1MKCTVKE7J0ZP","assignmentId":"3KV0LJBBH37WHZ8HHXAV7LXA0V5RMU","hitId":"3AQN9REUTF20OMGWRXYK787QVFOYDP","url":"https://gershmanlab.com/experiments/alicia/teaching/experiment/?hitId=3AQN9REUTF20OMGWRXYK787QVFOYDP&workerId=A1MKCTVKE7J0ZP&assignmentId=3KV0LJBBH37WHZ8HHXAV7LXA0V5RMU&a=BLVK9&tp_a=BLVK9&b=3KV0LJBBH37WHZ8HHXAV7LXA0V5RMU&tp_b=3KV0LJBBH37WHZ8HHXAV7LXA0V5RMU&c=365799&tp_c=365799","heads":2,"tails":8,"studentIndex":1,"studentTrueHypers":{"a":2,"b":8},"studentGuess":0.2,"delta":0,"totalExamples":10,"bonus":0.4,"bonusSoFar":0.4},{"rt":null,"stimulus":"Sending examples to student... ","response":null,"trial_type":"html-keyboard-response","trial_index":14,"time_elapsed":422049,"internal_node_id":"0.0-13.0","params":{"nStudents":24,"maxFlips":30,"completionMinutes":45,"basePay":8,"maxBonus":9,"perTrialBonus":0.5,"perTrialBonusThreshold":0.05,"exampleCost":0.01},"classroomParams":{"A":{"a":1,"b":4},"B":{"a":4,"b":1},"C":{"a":2,"b":8},"D":{"a":8,"b":2}},"conditions":["nonSeqFull","nonSeqPartial","seqNoFeedback","seqFeedback"],"classroomPairings":[["A","B"],["C","D"]],"coinWeights":[0.2,0.5,0.8],"subjectId":"A1MKCTVKE7J0ZP","assignmentId":"3KV0LJBBH37WHZ8HHXAV7LXA0V5RMU","hitId":"3AQN9REUTF20OMGWRXYK787QVFOYDP","url":"https://gershmanlab.com/experiments/alicia/teaching/experiment/?hitId=3AQN9REUTF20OMGWRXYK787QVFOYDP&workerId=A1MKCTVKE7J0ZP&assignmentId=3KV0LJBBH37WHZ8HHXAV7LXA0V5RMU&a=BLVK9&tp_a=BLVK9&b=3KV0LJBBH37WHZ8HHXAV7LXA0V5RMU&tp_b=3KV0LJBBH37WHZ8HHXAV7LXA0V5RMU&c=365799&tp_c=365799"},{"rt":null,"stimulus":"Examples sent to student! Waiting for student...","response":null,"trial_type":"html-keyboard-response","trial_index":15,"time_elapsed":427052,"internal_node_id":"0.0-14.0","params":{"nStudents":24,"maxFlips":30,"completionMinutes":45,"basePay":8,"maxBonus":9,"perTrialBonus":0.5,"perTrialBonusThreshold":0.05,"exampleCost":0.01},"classroomParams":{"A":{"a":1,"b":4},"B":{"a":4,"b":1},"C":{"a":2,"b":8},"D":{"a":8,"b":2}},"conditions":["nonSeqFull","nonSeqPartial","seqNoFeedback","seqFeedback"],"classroomPairings":[["A","B"],["C","D"]],"coinWeights":[0.2,0.5,0.8],"subjectId":"A1MKCTVKE7J0ZP","assignmentId":"3KV0LJBBH37WHZ8HHXAV7LXA0V5RMU","hitId":"3AQN9REUTF20OMGWRXYK787QVFOYDP","url":"https://gershmanlab.com/experiments/alicia/teaching/experiment/?hitId=3AQN9REUTF20OMGWRXYK787QVFOYDP&workerId=A1MKCTVKE7J0ZP&assignmentId=3KV0LJBBH37WHZ8HHXAV7LXA0V5RMU&a=BLVK9&tp_a=BLVK9&b=3KV0LJBBH37WHZ8HHXAV7LXA0V5RMU&tp_b=3KV0LJBBH37WHZ8HHXAV7LXA0V5RMU&c=365799&tp_c=365799"},{"rt":5336,"stimulus":"\n                <p>Student's guess for coin weight: <b style=\"color:Tomato;\">0.20</b></p>\n                <p>You received a bonus of <b>$0.4</b>. Total bonus so far: <b>$0.40</b></b></p>\n                <p></p>\n                <p>Press any key to continue.</p>\n                ","response":"enter","trial_type":"html-keyboard-response","trial_index":16,"time_elapsed":432389,"internal_node_id":"0.0-15.0","params":{"nStudents":24,"maxFlips":30,"completionMinutes":45,"basePay":8,"maxBonus":9,"perTrialBonus":0.5,"perTrialBonusThreshold":0.05,"exampleCost":0.01},"classroomParams":{"A":{"a":1,"b":4},"B":{"a":4,"b":1},"C":{"a":2,"b":8},"D":{"a":8,"b":2}},"conditions":["nonSeqFull","nonSeqPartial","seqNoFeedback","seqFeedback"],"classroomPairings":[["A","B"],["C","D"]],"coinWeights":[0.2,0.5,0.8],"subjectId":"A1MKCTVKE7J0ZP","assignmentId":"3KV0LJBBH37WHZ8HHXAV7LXA0V5RMU","hitId":"3AQN9REUTF20OMGWRXYK787QVFOYDP","url":"https://gershmanlab.com/experiments/alicia/teaching/experiment/?hitId=3AQN9REUTF20OMGWRXYK787QVFOYDP&workerId=A1MKCTVKE7J0ZP&assignmentId=3KV0LJBBH37WHZ8HHXAV7LXA0V5RMU&a=BLVK9&tp_a=BLVK9&b=3KV0LJBBH37WHZ8HHXAV7LXA0V5RMU&tp_b=3KV0LJBBH37WHZ8HHXAV7LXA0V5RMU&c=365799&tp_c=365799"},{"rt":null,"stimulus":"<div style=\"font-size:60px;\">Next student</div>","response":null,"trial_type":"html-keyboard-response","trial_index":17,"time_elapsed":434891,"internal_node_id":"0.0-16.0-0.0","params":{"nStudents":24,"maxFlips":30,"completionMinutes":45,"basePay":8,"maxBonus":9,"perTrialBonus":0.5,"perTrialBonusThreshold":0.05,"exampleCost":0.01},"classroomParams":{"A":{"a":1,"b":4},"B":{"a":4,"b":1},"C":{"a":2,"b":8},"D":{"a":8,"b":2}},"conditions":["nonSeqFull","nonSeqPartial","seqNoFeedback","seqFeedback"],"classroomPairings":[["A","B"],["C","D"]],"coinWeights":[0.2,0.5,0.8],"subjectId":"A1MKCTVKE7J0ZP","assignmentId":"3KV0LJBBH37WHZ8HHXAV7LXA0V5RMU","hitId":"3AQN9REUTF20OMGWRXYK787QVFOYDP","url":"https://gershmanlab.com/experiments/alicia/teaching/experiment/?hitId=3AQN9REUTF20OMGWRXYK787QVFOYDP&workerId=A1MKCTVKE7J0ZP&assignmentId=3KV0LJBBH37WHZ8HHXAV7LXA0V5RMU&a=BLVK9&tp_a=BLVK9&b=3KV0LJBBH37WHZ8HHXAV7LXA0V5RMU&tp_b=3KV0LJBBH37WHZ8HHXAV7LXA0V5RMU&c=365799&tp_c=365799"},{"rt":11281,"stimulus":"\n            <h4 style=\"color:Orange;\">Student 3</h4>\n            <h2>The weight of your coin is <b style=\"color:Tomato;\">0.8</b>.</h2>\n            <p>In this block, you will be giving <b>two</b> sets of examples to Student 3.</p>\n                <p>You will see the student's guess after the first set of examples. You will also receive feedback at the end of the block.</p>\n            <p>To earn the highest bonus, you will have to <b>take into consideration the student's guess</b> when you choose your second set of examples.</p>","response":0,"trial_type":"html-button-response","trial_index":18,"time_elapsed":446173,"internal_node_id":"0.0-17.0","params":{"nStudents":24,"maxFlips":30,"completionMinutes":45,"basePay":8,"maxBonus":9,"perTrialBonus":0.5,"perTrialBonusThreshold":0.05,"exampleCost":0.01},"classroomParams":{"A":{"a":1,"b":4},"B":{"a":4,"b":1},"C":{"a":2,"b":8},"D":{"a":8,"b":2}},"conditions":["nonSeqFull","nonSeqPartial","seqNoFeedback","seqFeedback"],"classroomPairings":[["A","B"],["C","D"]],"coinWeights":[0.2,0.5,0.8],"subjectId":"A1MKCTVKE7J0ZP","assignmentId":"3KV0LJBBH37WHZ8HHXAV7LXA0V5RMU","hitId":"3AQN9REUTF20OMGWRXYK787QVFOYDP","url":"https://gershmanlab.com/experiments/alicia/teaching/experiment/?hitId=3AQN9REUTF20OMGWRXYK787QVFOYDP&workerId=A1MKCTVKE7J0ZP&assignmentId=3KV0LJBBH37WHZ8HHXAV7LXA0V5RMU&a=BLVK9&tp_a=BLVK9&b=3KV0LJBBH37WHZ8HHXAV7LXA0V5RMU&tp_b=3KV0LJBBH37WHZ8HHXAV7LXA0V5RMU&c=365799&tp_c=365799"},{"rt":11222,"response":{"heads":"5","tails":"2"},"type":"response","condition":"seqFeedback","trueTheta":0.8,"classrooms":["A","B"],"studentTrueClassroom":"A","exampleSet":"first","trial_type":"survey-html-form","trial_index":19,"time_elapsed":457398,"internal_node_id":"0.0-18.0-0.0","params":{"nStudents":24,"maxFlips":30,"completionMinutes":45,"basePay":8,"maxBonus":9,"perTrialBonus":0.5,"perTrialBonusThreshold":0.05,"exampleCost":0.01},"classroomParams":{"A":{"a":1,"b":4},"B":{"a":4,"b":1},"C":{"a":2,"b":8},"D":{"a":8,"b":2}},"conditions":["nonSeqFull","nonSeqPartial","seqNoFeedback","seqFeedback"],"classroomPairings":[["A","B"],["C","D"]],"coinWeights":[0.2,0.5,0.8],"subjectId":"A1MKCTVKE7J0ZP","assignmentId":"3KV0LJBBH37WHZ8HHXAV7LXA0V5RMU","hitId":"3AQN9REUTF20OMGWRXYK787QVFOYDP","url":"https://gershmanlab.com/experiments/alicia/teaching/experiment/?hitId=3AQN9REUTF20OMGWRXYK787QVFOYDP&workerId=A1MKCTVKE7J0ZP&assignmentId=3KV0LJBBH37WHZ8HHXAV7LXA0V5RMU&a=BLVK9&tp_a=BLVK9&b=3KV0LJBBH37WHZ8HHXAV7LXA0V5RMU&tp_b=3KV0LJBBH37WHZ8HHXAV7LXA0V5RMU&c=365799&tp_c=365799","heads":5,"tails":2,"studentIndex":2,"studentTrueHypers":{"a":1,"b":4},"studentGuess":0.5,"delta":0.30000000000000004,"totalExamples":7,"bonusSoFar":0.4},{"rt":null,"stimulus":"Sending examples to student... ","response":null,"trial_type":"html-keyboard-response","trial_index":20,"time_elapsed":459153,"internal_node_id":"0.0-19.0","params":{"nStudents":24,"maxFlips":30,"completionMinutes":45,"basePay":8,"maxBonus":9,"perTrialBonus":0.5,"perTrialBonusThreshold":0.05,"exampleCost":0.01},"classroomParams":{"A":{"a":1,"b":4},"B":{"a":4,"b":1},"C":{"a":2,"b":8},"D":{"a":8,"b":2}},"conditions":["nonSeqFull","nonSeqPartial","seqNoFeedback","seqFeedback"],"classroomPairings":[["A","B"],["C","D"]],"coinWeights":[0.2,0.5,0.8],"subjectId":"A1MKCTVKE7J0ZP","assignmentId":"3KV0LJBBH37WHZ8HHXAV7LXA0V5RMU","hitId":"3AQN9REUTF20OMGWRXYK787QVFOYDP","url":"https://gershmanlab.com/experiments/alicia/teaching/experiment/?hitId=3AQN9REUTF20OMGWRXYK787QVFOYDP&workerId=A1MKCTVKE7J0ZP&assignmentId=3KV0LJBBH37WHZ8HHXAV7LXA0V5RMU&a=BLVK9&tp_a=BLVK9&b=3KV0LJBBH37WHZ8HHXAV7LXA0V5RMU&tp_b=3KV0LJBBH37WHZ8HHXAV7LXA0V5RMU&c=365799&tp_c=365799"},{"rt":null,"stimulus":"Examples sent to student! Waiting for student...","response":null,"trial_type":"html-keyboard-response","trial_index":21,"time_elapsed":464655,"internal_node_id":"0.0-20.0","params":{"nStudents":24,"maxFlips":30,"completionMinutes":45,"basePay":8,"maxBonus":9,"perTrialBonus":0.5,"perTrialBonusThreshold":0.05,"exampleCost":0.01},"classroomParams":{"A":{"a":1,"b":4},"B":{"a":4,"b":1},"C":{"a":2,"b":8},"D":{"a":8,"b":2}},"conditions":["nonSeqFull","nonSeqPartial","seqNoFeedback","seqFeedback"],"classroomPairings":[["A","B"],["C","D"]],"coinWeights":[0.2,0.5,0.8],"subjectId":"A1MKCTVKE7J0ZP","assignmentId":"3KV0LJBBH37WHZ8HHXAV7LXA0V5RMU","hitId":"3AQN9REUTF20OMGWRXYK787QVFOYDP","url":"https://gershmanlab.com/experiments/alicia/teaching/experiment/?hitId=3AQN9REUTF20OMGWRXYK787QVFOYDP&workerId=A1MKCTVKE7J0ZP&assignmentId=3KV0LJBBH37WHZ8HHXAV7LXA0V5RMU&a=BLVK9&tp_a=BLVK9&b=3KV0LJBBH37WHZ8HHXAV7LXA0V5RMU&tp_b=3KV0LJBBH37WHZ8HHXAV7LXA0V5RMU&c=365799&tp_c=365799"},{"rt":4660,"stimulus":"\n                <p>Student's guess for coin weight: <b style=\"color:Tomato;\">0.50</b></p>\n                <p></b></p>\n                <p>You will now send another set of examples to your student. <b>Remember to take your student's guess into consideration so that you can earn the highest bonus possible!</b> </p>\n                <p>Press any key to continue.</p>\n                ","response":"enter","trial_type":"html-keyboard-response","trial_index":22,"time_elapsed":469316,"internal_node_id":"0.0-21.0","params":{"nStudents":24,"maxFlips":30,"completionMinutes":45,"basePay":8,"maxBonus":9,"perTrialBonus":0.5,"perTrialBonusThreshold":0.05,"exampleCost":0.01},"classroomParams":{"A":{"a":1,"b":4},"B":{"a":4,"b":1},"C":{"a":2,"b":8},"D":{"a":8,"b":2}},"conditions":["nonSeqFull","nonSeqPartial","seqNoFeedback","seqFeedback"],"classroomPairings":[["A","B"],["C","D"]],"coinWeights":[0.2,0.5,0.8],"subjectId":"A1MKCTVKE7J0ZP","assignmentId":"3KV0LJBBH37WHZ8HHXAV7LXA0V5RMU","hitId":"3AQN9REUTF20OMGWRXYK787QVFOYDP","url":"https://gershmanlab.com/experiments/alicia/teaching/experiment/?hitId=3AQN9REUTF20OMGWRXYK787QVFOYDP&workerId=A1MKCTVKE7J0ZP&assignmentId=3KV0LJBBH37WHZ8HHXAV7LXA0V5RMU&a=BLVK9&tp_a=BLVK9&b=3KV0LJBBH37WHZ8HHXAV7LXA0V5RMU&tp_b=3KV0LJBBH37WHZ8HHXAV7LXA0V5RMU&c=365799&tp_c=365799"},{"rt":9198,"response":{"heads":"8","tails":"2"},"type":"response","condition":"seqFeedback","trueTheta":0.8,"classrooms":["A","B"],"studentTrueClassroom":"A","exampleSet":"second","trial_type":"survey-html-form","trial_index":23,"time_elapsed":478515,"internal_node_id":"0.0-22.0-0.0","params":{"nStudents":24,"maxFlips":30,"completionMinutes":45,"basePay":8,"maxBonus":9,"perTrialBonus":0.5,"perTrialBonusThreshold":0.05,"exampleCost":0.01},"classroomParams":{"A":{"a":1,"b":4},"B":{"a":4,"b":1},"C":{"a":2,"b":8},"D":{"a":8,"b":2}},"conditions":["nonSeqFull","nonSeqPartial","seqNoFeedback","seqFeedback"],"classroomPairings":[["A","B"],["C","D"]],"coinWeights":[0.2,0.5,0.8],"subjectId":"A1MKCTVKE7J0ZP","assignmentId":"3KV0LJBBH37WHZ8HHXAV7LXA0V5RMU","hitId":"3AQN9REUTF20OMGWRXYK787QVFOYDP","url":"https://gershmanlab.com/experiments/alicia/teaching/experiment/?hitId=3AQN9REUTF20OMGWRXYK787QVFOYDP&workerId=A1MKCTVKE7J0ZP&assignmentId=3KV0LJBBH37WHZ8HHXAV7LXA0V5RMU&a=BLVK9&tp_a=BLVK9&b=3KV0LJBBH37WHZ8HHXAV7LXA0V5RMU&tp_b=3KV0LJBBH37WHZ8HHXAV7LXA0V5RMU&c=365799&tp_c=365799","firstResponseHeads":5,"firstResponseTails":2,"secondResponseHeads":8,"secondResponseTails":2,"totalHeads":13,"totalTails":4,"studentIndex":2,"studentTrueHypers":{"a":1,"b":4},"studentGuess":0.6363636363636364,"delta":0.1636363636363637,"bonus":0,"bonusSoFar":0.4,"totalExamples":17},{"rt":null,"stimulus":"Sending examples to student... ","response":null,"trial_type":"html-keyboard-response","trial_index":24,"time_elapsed":480520,"internal_node_id":"0.0-23.0","params":{"nStudents":24,"maxFlips":30,"completionMinutes":45,"basePay":8,"maxBonus":9,"perTrialBonus":0.5,"perTrialBonusThreshold":0.05,"exampleCost":0.01},"classroomParams":{"A":{"a":1,"b":4},"B":{"a":4,"b":1},"C":{"a":2,"b":8},"D":{"a":8,"b":2}},"conditions":["nonSeqFull","nonSeqPartial","seqNoFeedback","seqFeedback"],"classroomPairings":[["A","B"],["C","D"]],"coinWeights":[0.2,0.5,0.8],"subjectId":"A1MKCTVKE7J0ZP","assignmentId":"3KV0LJBBH37WHZ8HHXAV7LXA0V5RMU","hitId":"3AQN9REUTF20OMGWRXYK787QVFOYDP","url":"https://gershmanlab.com/experiments/alicia/teaching/experiment/?hitId=3AQN9REUTF20OMGWRXYK787QVFOYDP&workerId=A1MKCTVKE7J0ZP&assignmentId=3KV0LJBBH37WHZ8HHXAV7LXA0V5RMU&a=BLVK9&tp_a=BLVK9&b=3KV0LJBBH37WHZ8HHXAV7LXA0V5RMU&tp_b=3KV0LJBBH37WHZ8HHXAV7LXA0V5RMU&c=365799&tp_c=365799"},{"rt":null,"stimulus":"Examples sent to student! Waiting for student...","response":null,"trial_type":"html-keyboard-response","trial_index":25,"time_elapsed":485021,"internal_node_id":"0.0-24.0","params":{"nStudents":24,"maxFlips":30,"completionMinutes":45,"basePay":8,"maxBonus":9,"perTrialBonus":0.5,"perTrialBonusThreshold":0.05,"exampleCost":0.01},"classroomParams":{"A":{"a":1,"b":4},"B":{"a":4,"b":1},"C":{"a":2,"b":8},"D":{"a":8,"b":2}},"conditions":["nonSeqFull","nonSeqPartial","seqNoFeedback","seqFeedback"],"classroomPairings":[["A","B"],["C","D"]],"coinWeights":[0.2,0.5,0.8],"subjectId":"A1MKCTVKE7J0ZP","assignmentId":"3KV0LJBBH37WHZ8HHXAV7LXA0V5RMU","hitId":"3AQN9REUTF20OMGWRXYK787QVFOYDP","url":"https://gershmanlab.com/experiments/alicia/teaching/experiment/?hitId=3AQN9REUTF20OMGWRXYK787QVFOYDP&workerId=A1MKCTVKE7J0ZP&assignmentId=3KV0LJBBH37WHZ8HHXAV7LXA0V5RMU&a=BLVK9&tp_a=BLVK9&b=3KV0LJBBH37WHZ8HHXAV7LXA0V5RMU&tp_b=3KV0LJBBH37WHZ8HHXAV7LXA0V5RMU&c=365799&tp_c=365799"},{"rt":3629,"stimulus":"\n                <p>Student 3's first guess for coin weight: <b style=\"color:Tomato\";>0.50</b></p>\n                <p>Student 3's second guess for coin weight: <b style=\"color:Tomato\";>0.64</b></p>\n                <p>You received a bonus of <b>$0.00</b> based on the student's second guess.</p>\n                <p>Total bonus so far: <b>$0.40</b></p>\n                <p>Press any key to continue.</p>\n                ","response":"enter","trial_type":"html-keyboard-response","trial_index":26,"time_elapsed":488653,"internal_node_id":"0.0-25.0","params":{"nStudents":24,"maxFlips":30,"completionMinutes":45,"basePay":8,"maxBonus":9,"perTrialBonus":0.5,"perTrialBonusThreshold":0.05,"exampleCost":0.01},"classroomParams":{"A":{"a":1,"b":4},"B":{"a":4,"b":1},"C":{"a":2,"b":8},"D":{"a":8,"b":2}},"conditions":["nonSeqFull","nonSeqPartial","seqNoFeedback","seqFeedback"],"classroomPairings":[["A","B"],["C","D"]],"coinWeights":[0.2,0.5,0.8],"subjectId":"A1MKCTVKE7J0ZP","assignmentId":"3KV0LJBBH37WHZ8HHXAV7LXA0V5RMU","hitId":"3AQN9REUTF20OMGWRXYK787QVFOYDP","url":"https://gershmanlab.com/experiments/alicia/teaching/experiment/?hitId=3AQN9REUTF20OMGWRXYK787QVFOYDP&workerId=A1MKCTVKE7J0ZP&assignmentId=3KV0LJBBH37WHZ8HHXAV7LXA0V5RMU&a=BLVK9&tp_a=BLVK9&b=3KV0LJBBH37WHZ8HHXAV7LXA0V5RMU&tp_b=3KV0LJBBH37WHZ8HHXAV7LXA0V5RMU&c=365799&tp_c=365799"},{"rt":null,"stimulus":"<div style=\"font-size:60px;\">Next student</div>","response":null,"trial_type":"html-keyboard-response","trial_index":27,"time_elapsed":490908,"internal_node_id":"0.0-26.0-0.0","params":{"nStudents":24,"maxFlips":30,"completionMinutes":45,"basePay":8,"maxBonus":9,"perTrialBonus":0.5,"perTrialBonusThreshold":0.05,"exampleCost":0.01},"classroomParams":{"A":{"a":1,"b":4},"B":{"a":4,"b":1},"C":{"a":2,"b":8},"D":{"a":8,"b":2}},"conditions":["nonSeqFull","nonSeqPartial","seqNoFeedback","seqFeedback"],"classroomPairings":[["A","B"],["C","D"]],"coinWeights":[0.2,0.5,0.8],"subjectId":"A1MKCTVKE7J0ZP","assignmentId":"3KV0LJBBH37WHZ8HHXAV7LXA0V5RMU","hitId":"3AQN9REUTF20OMGWRXYK787QVFOYDP","url":"https://gershmanlab.com/experiments/alicia/teaching/experiment/?hitId=3AQN9REUTF20OMGWRXYK787QVFOYDP&workerId=A1MKCTVKE7J0ZP&assignmentId=3KV0LJBBH37WHZ8HHXAV7LXA0V5RMU&a=BLVK9&tp_a=BLVK9&b=3KV0LJBBH37WHZ8HHXAV7LXA0V5RMU&tp_b=3KV0LJBBH37WHZ8HHXAV7LXA0V5RMU&c=365799&tp_c=365799"},{"rt":3812,"stimulus":"\n            <h4 style=\"color:Orange;\">Student 4</h4>\n            <h2>The weight of your coin is <b style=\"color:Tomato;\">0.5</b>.</h2>\n            <p>In this block, you will be giving <b>one</b> set of examples to Student 4.</p>\n                <p>You will receive feedback at the end of the block.</p>\n            <p></p>","response":0,"trial_type":"html-button-response","trial_index":28,"time_elapsed":494722,"internal_node_id":"0.0-27.0","params":{"nStudents":24,"maxFlips":30,"completionMinutes":45,"basePay":8,"maxBonus":9,"perTrialBonus":0.5,"perTrialBonusThreshold":0.05,"exampleCost":0.01},"classroomParams":{"A":{"a":1,"b":4},"B":{"a":4,"b":1},"C":{"a":2,"b":8},"D":{"a":8,"b":2}},"conditions":["nonSeqFull","nonSeqPartial","seqNoFeedback","seqFeedback"],"classroomPairings":[["A","B"],["C","D"]],"coinWeights":[0.2,0.5,0.8],"subjectId":"A1MKCTVKE7J0ZP","assignmentId":"3KV0LJBBH37WHZ8HHXAV7LXA0V5RMU","hitId":"3AQN9REUTF20OMGWRXYK787QVFOYDP","url":"https://gershmanlab.com/experiments/alicia/teaching/experiment/?hitId=3AQN9REUTF20OMGWRXYK787QVFOYDP&workerId=A1MKCTVKE7J0ZP&assignmentId=3KV0LJBBH37WHZ8HHXAV7LXA0V5RMU&a=BLVK9&tp_a=BLVK9&b=3KV0LJBBH37WHZ8HHXAV7LXA0V5RMU&tp_b=3KV0LJBBH37WHZ8HHXAV7LXA0V5RMU&c=365799&tp_c=365799"},{"rt":12778,"response":{"heads":"7","tails":"7"},"type":"response","condition":"nonSeqFull","trueTheta":0.5,"classrooms":["C","D"],"studentTrueClassroom":"D","exampleSet":"first","trial_type":"survey-html-form","trial_index":29,"time_elapsed":507502,"internal_node_id":"0.0-28.0-0.0","params":{"nStudents":24,"maxFlips":30,"completionMinutes":45,"basePay":8,"maxBonus":9,"perTrialBonus":0.5,"perTrialBonusThreshold":0.05,"exampleCost":0.01},"classroomParams":{"A":{"a":1,"b":4},"B":{"a":4,"b":1},"C":{"a":2,"b":8},"D":{"a":8,"b":2}},"conditions":["nonSeqFull","nonSeqPartial","seqNoFeedback","seqFeedback"],"classroomPairings":[["A","B"],["C","D"]],"coinWeights":[0.2,0.5,0.8],"subjectId":"A1MKCTVKE7J0ZP","assignmentId":"3KV0LJBBH37WHZ8HHXAV7LXA0V5RMU","hitId":"3AQN9REUTF20OMGWRXYK787QVFOYDP","url":"https://gershmanlab.com/experiments/alicia/teaching/experiment/?hitId=3AQN9REUTF20OMGWRXYK787QVFOYDP&workerId=A1MKCTVKE7J0ZP&assignmentId=3KV0LJBBH37WHZ8HHXAV7LXA0V5RMU&a=BLVK9&tp_a=BLVK9&b=3KV0LJBBH37WHZ8HHXAV7LXA0V5RMU&tp_b=3KV0LJBBH37WHZ8HHXAV7LXA0V5RMU&c=365799&tp_c=365799","heads":7,"tails":7,"studentIndex":3,"studentTrueHypers":{"a":8,"b":2},"studentGuess":0.625,"delta":0.125,"totalExamples":14,"bonus":0,"bonusSoFar":0.4},{"rt":null,"stimulus":"Sending examples to student... ","response":null,"trial_type":"html-keyboard-response","trial_index":30,"time_elapsed":509254,"internal_node_id":"0.0-29.0","params":{"nStudents":24,"maxFlips":30,"completionMinutes":45,"basePay":8,"maxBonus":9,"perTrialBonus":0.5,"perTrialBonusThreshold":0.05,"exampleCost":0.01},"classroomParams":{"A":{"a":1,"b":4},"B":{"a":4,"b":1},"C":{"a":2,"b":8},"D":{"a":8,"b":2}},"conditions":["nonSeqFull","nonSeqPartial","seqNoFeedback","seqFeedback"],"classroomPairings":[["A","B"],["C","D"]],"coinWeights":[0.2,0.5,0.8],"subjectId":"A1MKCTVKE7J0ZP","assignmentId":"3KV0LJBBH37WHZ8HHXAV7LXA0V5RMU","hitId":"3AQN9REUTF20OMGWRXYK787QVFOYDP","url":"https://gershmanlab.com/experiments/alicia/teaching/experiment/?hitId=3AQN9REUTF20OMGWRXYK787QVFOYDP&workerId=A1MKCTVKE7J0ZP&assignmentId=3KV0LJBBH37WHZ8HHXAV7LXA0V5RMU&a=BLVK9&tp_a=BLVK9&b=3KV0LJBBH37WHZ8HHXAV7LXA0V5RMU&tp_b=3KV0LJBBH37WHZ8HHXAV7LXA0V5RMU&c=365799&tp_c=365799"},{"rt":null,"stimulus":"Examples sent to student! Waiting for student...","response":null,"trial_type":"html-keyboard-response","trial_index":31,"time_elapsed":513256,"internal_node_id":"0.0-30.0","params":{"nStudents":24,"maxFlips":30,"completionMinutes":45,"basePay":8,"maxBonus":9,"perTrialBonus":0.5,"perTrialBonusThreshold":0.05,"exampleCost":0.01},"classroomParams":{"A":{"a":1,"b":4},"B":{"a":4,"b":1},"C":{"a":2,"b":8},"D":{"a":8,"b":2}},"conditions":["nonSeqFull","nonSeqPartial","seqNoFeedback","seqFeedback"],"classroomPairings":[["A","B"],["C","D"]],"coinWeights":[0.2,0.5,0.8],"subjectId":"A1MKCTVKE7J0ZP","assignmentId":"3KV0LJBBH37WHZ8HHXAV7LXA0V5RMU","hitId":"3AQN9REUTF20OMGWRXYK787QVFOYDP","url":"https://gershmanlab.com/experiments/alicia/teaching/experiment/?hitId=3AQN9REUTF20OMGWRXYK787QVFOYDP&workerId=A1MKCTVKE7J0ZP&assignmentId=3KV0LJBBH37WHZ8HHXAV7LXA0V5RMU&a=BLVK9&tp_a=BLVK9&b=3KV0LJBBH37WHZ8HHXAV7LXA0V5RMU&tp_b=3KV0LJBBH37WHZ8HHXAV7LXA0V5RMU&c=365799&tp_c=365799"},{"rt":3938,"stimulus":"\n                <p>Student's guess for coin weight: <b style=\"color:Tomato;\">0.63</b></p>\n                <p>You received a bonus of <b>$0</b>. Total bonus so far: <b>$0.40</b></b></p>\n                <p></p>\n                <p>Press any key to continue.</p>\n                ","response":"enter","trial_type":"html-keyboard-response","trial_index":32,"time_elapsed":517196,"internal_node_id":"0.0-31.0","params":{"nStudents":24,"maxFlips":30,"completionMinutes":45,"basePay":8,"maxBonus":9,"perTrialBonus":0.5,"perTrialBonusThreshold":0.05,"exampleCost":0.01},"classroomParams":{"A":{"a":1,"b":4},"B":{"a":4,"b":1},"C":{"a":2,"b":8},"D":{"a":8,"b":2}},"conditions":["nonSeqFull","nonSeqPartial","seqNoFeedback","seqFeedback"],"classroomPairings":[["A","B"],["C","D"]],"coinWeights":[0.2,0.5,0.8],"subjectId":"A1MKCTVKE7J0ZP","assignmentId":"3KV0LJBBH37WHZ8HHXAV7LXA0V5RMU","hitId":"3AQN9REUTF20OMGWRXYK787QVFOYDP","url":"https://gershmanlab.com/experiments/alicia/teaching/experiment/?hitId=3AQN9REUTF20OMGWRXYK787QVFOYDP&workerId=A1MKCTVKE7J0ZP&assignmentId=3KV0LJBBH37WHZ8HHXAV7LXA0V5RMU&a=BLVK9&tp_a=BLVK9&b=3KV0LJBBH37WHZ8HHXAV7LXA0V5RMU&tp_b=3KV0LJBBH37WHZ8HHXAV7LXA0V5RMU&c=365799&tp_c=365799"},{"rt":null,"stimulus":"<div style=\"font-size:60px;\">Next student</div>","response":null,"trial_type":"html-keyboard-response","trial_index":33,"time_elapsed":520200,"internal_node_id":"0.0-32.0-0.0","params":{"nStudents":24,"maxFlips":30,"completionMinutes":45,"basePay":8,"maxBonus":9,"perTrialBonus":0.5,"perTrialBonusThreshold":0.05,"exampleCost":0.01},"classroomParams":{"A":{"a":1,"b":4},"B":{"a":4,"b":1},"C":{"a":2,"b":8},"D":{"a":8,"b":2}},"conditions":["nonSeqFull","nonSeqPartial","seqNoFeedback","seqFeedback"],"classroomPairings":[["A","B"],["C","D"]],"coinWeights":[0.2,0.5,0.8],"subjectId":"A1MKCTVKE7J0ZP","assignmentId":"3KV0LJBBH37WHZ8HHXAV7LXA0V5RMU","hitId":"3AQN9REUTF20OMGWRXYK787QVFOYDP","url":"https://gershmanlab.com/experiments/alicia/teaching/experiment/?hitId=3AQN9REUTF20OMGWRXYK787QVFOYDP&workerId=A1MKCTVKE7J0ZP&assignmentId=3KV0LJBBH37WHZ8HHXAV7LXA0V5RMU&a=BLVK9&tp_a=BLVK9&b=3KV0LJBBH37WHZ8HHXAV7LXA0V5RMU&tp_b=3KV0LJBBH37WHZ8HHXAV7LXA0V5RMU&c=365799&tp_c=365799"},{"rt":3608,"stimulus":"\n            <h4 style=\"color:Orange;\">Student 5</h4>\n            <h2>The weight of your coin is <b style=\"color:Tomato;\">0.8</b>.</h2>\n            <p>In this block, you will be giving <b>two</b> sets of examples to Student 5.</p>\n                <p>You will receive feedback at the end of the block.</p>\n            <p></p>","response":0,"trial_type":"html-button-response","trial_index":34,"time_elapsed":523810,"internal_node_id":"0.0-33.0","params":{"nStudents":24,"maxFlips":30,"completionMinutes":45,"basePay":8,"maxBonus":9,"perTrialBonus":0.5,"perTrialBonusThreshold":0.05,"exampleCost":0.01},"classroomParams":{"A":{"a":1,"b":4},"B":{"a":4,"b":1},"C":{"a":2,"b":8},"D":{"a":8,"b":2}},"conditions":["nonSeqFull","nonSeqPartial","seqNoFeedback","seqFeedback"],"classroomPairings":[["A","B"],["C","D"]],"coinWeights":[0.2,0.5,0.8],"subjectId":"A1MKCTVKE7J0ZP","assignmentId":"3KV0LJBBH37WHZ8HHXAV7LXA0V5RMU","hitId":"3AQN9REUTF20OMGWRXYK787QVFOYDP","url":"https://gershmanlab.com/experiments/alicia/teaching/experiment/?hitId=3AQN9REUTF20OMGWRXYK787QVFOYDP&workerId=A1MKCTVKE7J0ZP&assignmentId=3KV0LJBBH37WHZ8HHXAV7LXA0V5RMU&a=BLVK9&tp_a=BLVK9&b=3KV0LJBBH37WHZ8HHXAV7LXA0V5RMU&tp_b=3KV0LJBBH37WHZ8HHXAV7LXA0V5RMU&c=365799&tp_c=365799"},{"rt":8888,"response":{"heads":"10","tails":"10"},"type":"response","condition":"seqNoFeedback","trueTheta":0.8,"classrooms":["A","B"],"studentTrueClassroom":"B","exampleSet":"first","trial_type":"survey-html-form","trial_index":35,"time_elapsed":532700,"internal_node_id":"0.0-34.0-0.0","params":{"nStudents":24,"maxFlips":30,"completionMinutes":45,"basePay":8,"maxBonus":9,"perTrialBonus":0.5,"perTrialBonusThreshold":0.05,"exampleCost":0.01},"classroomParams":{"A":{"a":1,"b":4},"B":{"a":4,"b":1},"C":{"a":2,"b":8},"D":{"a":8,"b":2}},"conditions":["nonSeqFull","nonSeqPartial","seqNoFeedback","seqFeedback"],"classroomPairings":[["A","B"],["C","D"]],"coinWeights":[0.2,0.5,0.8],"subjectId":"A1MKCTVKE7J0ZP","assignmentId":"3KV0LJBBH37WHZ8HHXAV7LXA0V5RMU","hitId":"3AQN9REUTF20OMGWRXYK787QVFOYDP","url":"https://gershmanlab.com/experiments/alicia/teaching/experiment/?hitId=3AQN9REUTF20OMGWRXYK787QVFOYDP&workerId=A1MKCTVKE7J0ZP&assignmentId=3KV0LJBBH37WHZ8HHXAV7LXA0V5RMU&a=BLVK9&tp_a=BLVK9&b=3KV0LJBBH37WHZ8HHXAV7LXA0V5RMU&tp_b=3KV0LJBBH37WHZ8HHXAV7LXA0V5RMU&c=365799&tp_c=365799","heads":10,"tails":10,"studentIndex":4,"studentTrueHypers":{"a":4,"b":1},"studentGuess":0.56,"delta":0.24,"totalExamples":20,"bonusSoFar":0.4},{"rt":null,"stimulus":"Sending examples to student... ","response":null,"trial_type":"html-keyboard-response","trial_index":36,"time_elapsed":534453,"internal_node_id":"0.0-35.0","params":{"nStudents":24,"maxFlips":30,"completionMinutes":45,"basePay":8,"maxBonus":9,"perTrialBonus":0.5,"perTrialBonusThreshold":0.05,"exampleCost":0.01},"classroomParams":{"A":{"a":1,"b":4},"B":{"a":4,"b":1},"C":{"a":2,"b":8},"D":{"a":8,"b":2}},"conditions":["nonSeqFull","nonSeqPartial","seqNoFeedback","seqFeedback"],"classroomPairings":[["A","B"],["C","D"]],"coinWeights":[0.2,0.5,0.8],"subjectId":"A1MKCTVKE7J0ZP","assignmentId":"3KV0LJBBH37WHZ8HHXAV7LXA0V5RMU","hitId":"3AQN9REUTF20OMGWRXYK787QVFOYDP","url":"https://gershmanlab.com/experiments/alicia/teaching/experiment/?hitId=3AQN9REUTF20OMGWRXYK787QVFOYDP&workerId=A1MKCTVKE7J0ZP&assignmentId=3KV0LJBBH37WHZ8HHXAV7LXA0V5RMU&a=BLVK9&tp_a=BLVK9&b=3KV0LJBBH37WHZ8HHXAV7LXA0V5RMU&tp_b=3KV0LJBBH37WHZ8HHXAV7LXA0V5RMU&c=365799&tp_c=365799"},{"rt":null,"stimulus":"Examples sent to student! Waiting for student...","response":null,"trial_type":"html-keyboard-response","trial_index":37,"time_elapsed":539955,"internal_node_id":"0.0-36.0","params":{"nStudents":24,"maxFlips":30,"completionMinutes":45,"basePay":8,"maxBonus":9,"perTrialBonus":0.5,"perTrialBonusThreshold":0.05,"exampleCost":0.01},"classroomParams":{"A":{"a":1,"b":4},"B":{"a":4,"b":1},"C":{"a":2,"b":8},"D":{"a":8,"b":2}},"conditions":["nonSeqFull","nonSeqPartial","seqNoFeedback","seqFeedback"],"classroomPairings":[["A","B"],["C","D"]],"coinWeights":[0.2,0.5,0.8],"subjectId":"A1MKCTVKE7J0ZP","assignmentId":"3KV0LJBBH37WHZ8HHXAV7LXA0V5RMU","hitId":"3AQN9REUTF20OMGWRXYK787QVFOYDP","url":"https://gershmanlab.com/experiments/alicia/teaching/experiment/?hitId=3AQN9REUTF20OMGWRXYK787QVFOYDP&workerId=A1MKCTVKE7J0ZP&assignmentId=3KV0LJBBH37WHZ8HHXAV7LXA0V5RMU&a=BLVK9&tp_a=BLVK9&b=3KV0LJBBH37WHZ8HHXAV7LXA0V5RMU&tp_b=3KV0LJBBH37WHZ8HHXAV7LXA0V5RMU&c=365799&tp_c=365799"},{"rt":6764,"response":{"heads":"10","tails":"10"},"type":"response","condition":"seqNoFeedback","trueTheta":0.8,"classrooms":["A","B"],"studentTrueClassroom":"B","exampleSet":"second","trial_type":"survey-html-form","trial_index":38,"time_elapsed":546721,"internal_node_id":"0.0-37.0-0.0","params":{"nStudents":24,"maxFlips":30,"completionMinutes":45,"basePay":8,"maxBonus":9,"perTrialBonus":0.5,"perTrialBonusThreshold":0.05,"exampleCost":0.01},"classroomParams":{"A":{"a":1,"b":4},"B":{"a":4,"b":1},"C":{"a":2,"b":8},"D":{"a":8,"b":2}},"conditions":["nonSeqFull","nonSeqPartial","seqNoFeedback","seqFeedback"],"classroomPairings":[["A","B"],["C","D"]],"coinWeights":[0.2,0.5,0.8],"subjectId":"A1MKCTVKE7J0ZP","assignmentId":"3KV0LJBBH37WHZ8HHXAV7LXA0V5RMU","hitId":"3AQN9REUTF20OMGWRXYK787QVFOYDP","url":"https://gershmanlab.com/experiments/alicia/teaching/experiment/?hitId=3AQN9REUTF20OMGWRXYK787QVFOYDP&workerId=A1MKCTVKE7J0ZP&assignmentId=3KV0LJBBH37WHZ8HHXAV7LXA0V5RMU&a=BLVK9&tp_a=BLVK9&b=3KV0LJBBH37WHZ8HHXAV7LXA0V5RMU&tp_b=3KV0LJBBH37WHZ8HHXAV7LXA0V5RMU&c=365799&tp_c=365799","firstResponseHeads":10,"firstResponseTails":10,"secondResponseHeads":10,"secondResponseTails":10,"totalHeads":20,"totalTails":20,"studentIndex":4,"studentTrueHypers":{"a":4,"b":1},"studentGuess":0.5333333333333333,"delta":0.2666666666666667,"bonus":0,"bonusSoFar":0.4,"totalExamples":40},{"rt":null,"stimulus":"Sending examples to student... ","response":null,"trial_type":"html-keyboard-response","trial_index":39,"time_elapsed":548726,"internal_node_id":"0.0-38.0","params":{"nStudents":24,"maxFlips":30,"completionMinutes":45,"basePay":8,"maxBonus":9,"perTrialBonus":0.5,"perTrialBonusThreshold":0.05,"exampleCost":0.01},"classroomParams":{"A":{"a":1,"b":4},"B":{"a":4,"b":1},"C":{"a":2,"b":8},"D":{"a":8,"b":2}},"conditions":["nonSeqFull","nonSeqPartial","seqNoFeedback","seqFeedback"],"classroomPairings":[["A","B"],["C","D"]],"coinWeights":[0.2,0.5,0.8],"subjectId":"A1MKCTVKE7J0ZP","assignmentId":"3KV0LJBBH37WHZ8HHXAV7LXA0V5RMU","hitId":"3AQN9REUTF20OMGWRXYK787QVFOYDP","url":"https://gershmanlab.com/experiments/alicia/teaching/experiment/?hitId=3AQN9REUTF20OMGWRXYK787QVFOYDP&workerId=A1MKCTVKE7J0ZP&assignmentId=3KV0LJBBH37WHZ8HHXAV7LXA0V5RMU&a=BLVK9&tp_a=BLVK9&b=3KV0LJBBH37WHZ8HHXAV7LXA0V5RMU&tp_b=3KV0LJBBH37WHZ8HHXAV7LXA0V5RMU&c=365799&tp_c=365799"},{"rt":null,"stimulus":"Examples sent to student! Waiting for student...","response":null,"trial_type":"html-keyboard-response","trial_index":40,"time_elapsed":552730,"internal_node_id":"0.0-39.0","params":{"nStudents":24,"maxFlips":30,"completionMinutes":45,"basePay":8,"maxBonus":9,"perTrialBonus":0.5,"perTrialBonusThreshold":0.05,"exampleCost":0.01},"classroomParams":{"A":{"a":1,"b":4},"B":{"a":4,"b":1},"C":{"a":2,"b":8},"D":{"a":8,"b":2}},"conditions":["nonSeqFull","nonSeqPartial","seqNoFeedback","seqFeedback"],"classroomPairings":[["A","B"],["C","D"]],"coinWeights":[0.2,0.5,0.8],"subjectId":"A1MKCTVKE7J0ZP","assignmentId":"3KV0LJBBH37WHZ8HHXAV7LXA0V5RMU","hitId":"3AQN9REUTF20OMGWRXYK787QVFOYDP","url":"https://gershmanlab.com/experiments/alicia/teaching/experiment/?hitId=3AQN9REUTF20OMGWRXYK787QVFOYDP&workerId=A1MKCTVKE7J0ZP&assignmentId=3KV0LJBBH37WHZ8HHXAV7LXA0V5RMU&a=BLVK9&tp_a=BLVK9&b=3KV0LJBBH37WHZ8HHXAV7LXA0V5RMU&tp_b=3KV0LJBBH37WHZ8HHXAV7LXA0V5RMU&c=365799&tp_c=365799"},{"rt":4260,"stimulus":"\n                <p>Student 5's first guess for coin weight: <b style=\"color:Tomato\";>0.56</b></p>\n                <p>Student 5's second guess for coin weight: <b style=\"color:Tomato\";>0.53</b></p>\n                <p>You received a bonus of <b>$0.00</b> based on the student's second guess.</p>\n                <p>Total bonus so far: <b>$0.40</b></p>\n                <p>Press any key to continue.</p>\n                ","response":"enter","trial_type":"html-keyboard-response","trial_index":41,"time_elapsed":556991,"internal_node_id":"0.0-40.0","params":{"nStudents":24,"maxFlips":30,"completionMinutes":45,"basePay":8,"maxBonus":9,"perTrialBonus":0.5,"perTrialBonusThreshold":0.05,"exampleCost":0.01},"classroomParams":{"A":{"a":1,"b":4},"B":{"a":4,"b":1},"C":{"a":2,"b":8},"D":{"a":8,"b":2}},"conditions":["nonSeqFull","nonSeqPartial","seqNoFeedback","seqFeedback"],"classroomPairings":[["A","B"],["C","D"]],"coinWeights":[0.2,0.5,0.8],"subjectId":"A1MKCTVKE7J0ZP","assignmentId":"3KV0LJBBH37WHZ8HHXAV7LXA0V5RMU","hitId":"3AQN9REUTF20OMGWRXYK787QVFOYDP","url":"https://gershmanlab.com/experiments/alicia/teaching/experiment/?hitId=3AQN9REUTF20OMGWRXYK787QVFOYDP&workerId=A1MKCTVKE7J0ZP&assignmentId=3KV0LJBBH37WHZ8HHXAV7LXA0V5RMU&a=BLVK9&tp_a=BLVK9&b=3KV0LJBBH37WHZ8HHXAV7LXA0V5RMU&tp_b=3KV0LJBBH37WHZ8HHXAV7LXA0V5RMU&c=365799&tp_c=365799"},{"rt":null,"stimulus":"<div style=\"font-size:60px;\">Next student</div>","response":null,"trial_type":"html-keyboard-response","trial_index":42,"time_elapsed":559992,"internal_node_id":"0.0-41.0-0.0","params":{"nStudents":24,"maxFlips":30,"completionMinutes":45,"basePay":8,"maxBonus":9,"perTrialBonus":0.5,"perTrialBonusThreshold":0.05,"exampleCost":0.01},"classroomParams":{"A":{"a":1,"b":4},"B":{"a":4,"b":1},"C":{"a":2,"b":8},"D":{"a":8,"b":2}},"conditions":["nonSeqFull","nonSeqPartial","seqNoFeedback","seqFeedback"],"classroomPairings":[["A","B"],["C","D"]],"coinWeights":[0.2,0.5,0.8],"subjectId":"A1MKCTVKE7J0ZP","assignmentId":"3KV0LJBBH37WHZ8HHXAV7LXA0V5RMU","hitId":"3AQN9REUTF20OMGWRXYK787QVFOYDP","url":"https://gershmanlab.com/experiments/alicia/teaching/experiment/?hitId=3AQN9REUTF20OMGWRXYK787QVFOYDP&workerId=A1MKCTVKE7J0ZP&assignmentId=3KV0LJBBH37WHZ8HHXAV7LXA0V5RMU&a=BLVK9&tp_a=BLVK9&b=3KV0LJBBH37WHZ8HHXAV7LXA0V5RMU&tp_b=3KV0LJBBH37WHZ8HHXAV7LXA0V5RMU&c=365799&tp_c=365799"},{"rt":1387,"stimulus":"\n            <h4 style=\"color:Orange;\">Student 6</h4>\n            <h2>The weight of your coin is <b style=\"color:Tomato;\">0.2</b>.</h2>\n            <p>In this block, you will be giving <b>two</b> sets of examples to Student 6.</p>\n                <p>You will receive feedback at the end of the block.</p>\n            <p></p>","response":0,"trial_type":"html-button-response","trial_index":43,"time_elapsed":561380,"internal_node_id":"0.0-42.0","params":{"nStudents":24,"maxFlips":30,"completionMinutes":45,"basePay":8,"maxBonus":9,"perTrialBonus":0.5,"perTrialBonusThreshold":0.05,"exampleCost":0.01},"classroomParams":{"A":{"a":1,"b":4},"B":{"a":4,"b":1},"C":{"a":2,"b":8},"D":{"a":8,"b":2}},"conditions":["nonSeqFull","nonSeqPartial","seqNoFeedback","seqFeedback"],"classroomPairings":[["A","B"],["C","D"]],"coinWeights":[0.2,0.5,0.8],"subjectId":"A1MKCTVKE7J0ZP","assignmentId":"3KV0LJBBH37WHZ8HHXAV7LXA0V5RMU","hitId":"3AQN9REUTF20OMGWRXYK787QVFOYDP","url":"https://gershmanlab.com/experiments/alicia/teaching/experiment/?hitId=3AQN9REUTF20OMGWRXYK787QVFOYDP&workerId=A1MKCTVKE7J0ZP&assignmentId=3KV0LJBBH37WHZ8HHXAV7LXA0V5RMU&a=BLVK9&tp_a=BLVK9&b=3KV0LJBBH37WHZ8HHXAV7LXA0V5RMU&tp_b=3KV0LJBBH37WHZ8HHXAV7LXA0V5RMU&c=365799&tp_c=365799"},{"rt":8696,"response":{"heads":"5","tails":"10"},"type":"response","condition":"seqNoFeedback","trueTheta":0.2,"classrooms":["C","D"],"studentTrueClassroom":"C","exampleSet":"first","trial_type":"survey-html-form","trial_index":44,"time_elapsed":570078,"internal_node_id":"0.0-43.0-0.0","params":{"nStudents":24,"maxFlips":30,"completionMinutes":45,"basePay":8,"maxBonus":9,"perTrialBonus":0.5,"perTrialBonusThreshold":0.05,"exampleCost":0.01},"classroomParams":{"A":{"a":1,"b":4},"B":{"a":4,"b":1},"C":{"a":2,"b":8},"D":{"a":8,"b":2}},"conditions":["nonSeqFull","nonSeqPartial","seqNoFeedback","seqFeedback"],"classroomPairings":[["A","B"],["C","D"]],"coinWeights":[0.2,0.5,0.8],"subjectId":"A1MKCTVKE7J0ZP","assignmentId":"3KV0LJBBH37WHZ8HHXAV7LXA0V5RMU","hitId":"3AQN9REUTF20OMGWRXYK787QVFOYDP","url":"https://gershmanlab.com/experiments/alicia/teaching/experiment/?hitId=3AQN9REUTF20OMGWRXYK787QVFOYDP&workerId=A1MKCTVKE7J0ZP&assignmentId=3KV0LJBBH37WHZ8HHXAV7LXA0V5RMU&a=BLVK9&tp_a=BLVK9&b=3KV0LJBBH37WHZ8HHXAV7LXA0V5RMU&tp_b=3KV0LJBBH37WHZ8HHXAV7LXA0V5RMU&c=365799&tp_c=365799","heads":5,"tails":10,"studentIndex":5,"studentTrueHypers":{"a":2,"b":8},"studentGuess":0.28,"delta":0.08000000000000002,"totalExamples":15,"bonusSoFar":0.4},{"rt":null,"stimulus":"Sending examples to student... ","response":null,"trial_type":"html-keyboard-response","trial_index":45,"time_elapsed":571334,"internal_node_id":"0.0-44.0","params":{"nStudents":24,"maxFlips":30,"completionMinutes":45,"basePay":8,"maxBonus":9,"perTrialBonus":0.5,"perTrialBonusThreshold":0.05,"exampleCost":0.01},"classroomParams":{"A":{"a":1,"b":4},"B":{"a":4,"b":1},"C":{"a":2,"b":8},"D":{"a":8,"b":2}},"conditions":["nonSeqFull","nonSeqPartial","seqNoFeedback","seqFeedback"],"classroomPairings":[["A","B"],["C","D"]],"coinWeights":[0.2,0.5,0.8],"subjectId":"A1MKCTVKE7J0ZP","assignmentId":"3KV0LJBBH37WHZ8HHXAV7LXA0V5RMU","hitId":"3AQN9REUTF20OMGWRXYK787QVFOYDP","url":"https://gershmanlab.com/experiments/alicia/teaching/experiment/?hitId=3AQN9REUTF20OMGWRXYK787QVFOYDP&workerId=A1MKCTVKE7J0ZP&assignmentId=3KV0LJBBH37WHZ8HHXAV7LXA0V5RMU&a=BLVK9&tp_a=BLVK9&b=3KV0LJBBH37WHZ8HHXAV7LXA0V5RMU&tp_b=3KV0LJBBH37WHZ8HHXAV7LXA0V5RMU&c=365799&tp_c=365799"},{"rt":null,"stimulus":"Examples sent to student! Waiting for student...","response":null,"trial_type":"html-keyboard-response","trial_index":46,"time_elapsed":575336,"internal_node_id":"0.0-45.0","params":{"nStudents":24,"maxFlips":30,"completionMinutes":45,"basePay":8,"maxBonus":9,"perTrialBonus":0.5,"perTrialBonusThreshold":0.05,"exampleCost":0.01},"classroomParams":{"A":{"a":1,"b":4},"B":{"a":4,"b":1},"C":{"a":2,"b":8},"D":{"a":8,"b":2}},"conditions":["nonSeqFull","nonSeqPartial","seqNoFeedback","seqFeedback"],"classroomPairings":[["A","B"],["C","D"]],"coinWeights":[0.2,0.5,0.8],"subjectId":"A1MKCTVKE7J0ZP","assignmentId":"3KV0LJBBH37WHZ8HHXAV7LXA0V5RMU","hitId":"3AQN9REUTF20OMGWRXYK787QVFOYDP","url":"https://gershmanlab.com/experiments/alicia/teaching/experiment/?hitId=3AQN9REUTF20OMGWRXYK787QVFOYDP&workerId=A1MKCTVKE7J0ZP&assignmentId=3KV0LJBBH37WHZ8HHXAV7LXA0V5RMU&a=BLVK9&tp_a=BLVK9&b=3KV0LJBBH37WHZ8HHXAV7LXA0V5RMU&tp_b=3KV0LJBBH37WHZ8HHXAV7LXA0V5RMU&c=365799&tp_c=365799"},{"rt":11075,"response":{"heads":"5","tails":"10"},"type":"response","condition":"seqNoFeedback","trueTheta":0.2,"classrooms":["C","D"],"studentTrueClassroom":"C","exampleSet":"second","trial_type":"survey-html-form","trial_index":47,"time_elapsed":586413,"internal_node_id":"0.0-46.0-0.0","params":{"nStudents":24,"maxFlips":30,"completionMinutes":45,"basePay":8,"maxBonus":9,"perTrialBonus":0.5,"perTrialBonusThreshold":0.05,"exampleCost":0.01},"classroomParams":{"A":{"a":1,"b":4},"B":{"a":4,"b":1},"C":{"a":2,"b":8},"D":{"a":8,"b":2}},"conditions":["nonSeqFull","nonSeqPartial","seqNoFeedback","seqFeedback"],"classroomPairings":[["A","B"],["C","D"]],"coinWeights":[0.2,0.5,0.8],"subjectId":"A1MKCTVKE7J0ZP","assignmentId":"3KV0LJBBH37WHZ8HHXAV7LXA0V5RMU","hitId":"3AQN9REUTF20OMGWRXYK787QVFOYDP","url":"https://gershmanlab.com/experiments/alicia/teaching/experiment/?hitId=3AQN9REUTF20OMGWRXYK787QVFOYDP&workerId=A1MKCTVKE7J0ZP&assignmentId=3KV0LJBBH37WHZ8HHXAV7LXA0V5RMU&a=BLVK9&tp_a=BLVK9&b=3KV0LJBBH37WHZ8HHXAV7LXA0V5RMU&tp_b=3KV0LJBBH37WHZ8HHXAV7LXA0V5RMU&c=365799&tp_c=365799","firstResponseHeads":5,"firstResponseTails":10,"secondResponseHeads":5,"secondResponseTails":10,"totalHeads":10,"totalTails":20,"studentIndex":5,"studentTrueHypers":{"a":2,"b":8},"studentGuess":0.3,"delta":0.09999999999999998,"bonus":0,"bonusSoFar":0.4,"totalExamples":30},{"rt":null,"stimulus":"Sending examples to student... ","response":null,"trial_type":"html-keyboard-response","trial_index":48,"time_elapsed":588417,"internal_node_id":"0.0-47.0","params":{"nStudents":24,"maxFlips":30,"completionMinutes":45,"basePay":8,"maxBonus":9,"perTrialBonus":0.5,"perTrialBonusThreshold":0.05,"exampleCost":0.01},"classroomParams":{"A":{"a":1,"b":4},"B":{"a":4,"b":1},"C":{"a":2,"b":8},"D":{"a":8,"b":2}},"conditions":["nonSeqFull","nonSeqPartial","seqNoFeedback","seqFeedback"],"classroomPairings":[["A","B"],["C","D"]],"coinWeights":[0.2,0.5,0.8],"subjectId":"A1MKCTVKE7J0ZP","assignmentId":"3KV0LJBBH37WHZ8HHXAV7LXA0V5RMU","hitId":"3AQN9REUTF20OMGWRXYK787QVFOYDP","url":"https://gershmanlab.com/experiments/alicia/teaching/experiment/?hitId=3AQN9REUTF20OMGWRXYK787QVFOYDP&workerId=A1MKCTVKE7J0ZP&assignmentId=3KV0LJBBH37WHZ8HHXAV7LXA0V5RMU&a=BLVK9&tp_a=BLVK9&b=3KV0LJBBH37WHZ8HHXAV7LXA0V5RMU&tp_b=3KV0LJBBH37WHZ8HHXAV7LXA0V5RMU&c=365799&tp_c=365799"},{"rt":null,"stimulus":"Examples sent to student! Waiting for student...","response":null,"trial_type":"html-keyboard-response","trial_index":49,"time_elapsed":594419,"internal_node_id":"0.0-48.0","params":{"nStudents":24,"maxFlips":30,"completionMinutes":45,"basePay":8,"maxBonus":9,"perTrialBonus":0.5,"perTrialBonusThreshold":0.05,"exampleCost":0.01},"classroomParams":{"A":{"a":1,"b":4},"B":{"a":4,"b":1},"C":{"a":2,"b":8},"D":{"a":8,"b":2}},"conditions":["nonSeqFull","nonSeqPartial","seqNoFeedback","seqFeedback"],"classroomPairings":[["A","B"],["C","D"]],"coinWeights":[0.2,0.5,0.8],"subjectId":"A1MKCTVKE7J0ZP","assignmentId":"3KV0LJBBH37WHZ8HHXAV7LXA0V5RMU","hitId":"3AQN9REUTF20OMGWRXYK787QVFOYDP","url":"https://gershmanlab.com/experiments/alicia/teaching/experiment/?hitId=3AQN9REUTF20OMGWRXYK787QVFOYDP&workerId=A1MKCTVKE7J0ZP&assignmentId=3KV0LJBBH37WHZ8HHXAV7LXA0V5RMU&a=BLVK9&tp_a=BLVK9&b=3KV0LJBBH37WHZ8HHXAV7LXA0V5RMU&tp_b=3KV0LJBBH37WHZ8HHXAV7LXA0V5RMU&c=365799&tp_c=365799"},{"rt":4298,"stimulus":"\n                <p>Student 6's first guess for coin weight: <b style=\"color:Tomato\";>0.28</b></p>\n                <p>Student 6's second guess for coin weight: <b style=\"color:Tomato\";>0.30</b></p>\n                <p>You received a bonus of <b>$0.00</b> based on the student's second guess.</p>\n                <p>Total bonus so far: <b>$0.40</b></p>\n                <p>Press any key to continue.</p>\n                ","response":"enter","trial_type":"html-keyboard-response","trial_index":50,"time_elapsed":598719,"internal_node_id":"0.0-49.0","params":{"nStudents":24,"maxFlips":30,"completionMinutes":45,"basePay":8,"maxBonus":9,"perTrialBonus":0.5,"perTrialBonusThreshold":0.05,"exampleCost":0.01},"classroomParams":{"A":{"a":1,"b":4},"B":{"a":4,"b":1},"C":{"a":2,"b":8},"D":{"a":8,"b":2}},"conditions":["nonSeqFull","nonSeqPartial","seqNoFeedback","seqFeedback"],"classroomPairings":[["A","B"],["C","D"]],"coinWeights":[0.2,0.5,0.8],"subjectId":"A1MKCTVKE7J0ZP","assignmentId":"3KV0LJBBH37WHZ8HHXAV7LXA0V5RMU","hitId":"3AQN9REUTF20OMGWRXYK787QVFOYDP","url":"https://gershmanlab.com/experiments/alicia/teaching/experiment/?hitId=3AQN9REUTF20OMGWRXYK787QVFOYDP&workerId=A1MKCTVKE7J0ZP&assignmentId=3KV0LJBBH37WHZ8HHXAV7LXA0V5RMU&a=BLVK9&tp_a=BLVK9&b=3KV0LJBBH37WHZ8HHXAV7LXA0V5RMU&tp_b=3KV0LJBBH37WHZ8HHXAV7LXA0V5RMU&c=365799&tp_c=365799"},{"rt":null,"stimulus":"<div style=\"font-size:60px;\">Next student</div>","response":null,"trial_type":"html-keyboard-response","trial_index":51,"time_elapsed":601720,"internal_node_id":"0.0-50.0-0.0","params":{"nStudents":24,"maxFlips":30,"completionMinutes":45,"basePay":8,"maxBonus":9,"perTrialBonus":0.5,"perTrialBonusThreshold":0.05,"exampleCost":0.01},"classroomParams":{"A":{"a":1,"b":4},"B":{"a":4,"b":1},"C":{"a":2,"b":8},"D":{"a":8,"b":2}},"conditions":["nonSeqFull","nonSeqPartial","seqNoFeedback","seqFeedback"],"classroomPairings":[["A","B"],["C","D"]],"coinWeights":[0.2,0.5,0.8],"subjectId":"A1MKCTVKE7J0ZP","assignmentId":"3KV0LJBBH37WHZ8HHXAV7LXA0V5RMU","hitId":"3AQN9REUTF20OMGWRXYK787QVFOYDP","url":"https://gershmanlab.com/experiments/alicia/teaching/experiment/?hitId=3AQN9REUTF20OMGWRXYK787QVFOYDP&workerId=A1MKCTVKE7J0ZP&assignmentId=3KV0LJBBH37WHZ8HHXAV7LXA0V5RMU&a=BLVK9&tp_a=BLVK9&b=3KV0LJBBH37WHZ8HHXAV7LXA0V5RMU&tp_b=3KV0LJBBH37WHZ8HHXAV7LXA0V5RMU&c=365799&tp_c=365799"},{"rt":4344,"stimulus":"\n            <h4 style=\"color:Orange;\">Student 7</h4>\n            <h2>The weight of your coin is <b style=\"color:Tomato;\">0.2</b>.</h2>\n            <p>In this block, you will be giving <b>two</b> sets of examples to Student 7.</p>\n                <p>You will see the student's guess after the first set of examples. You will also receive feedback at the end of the block.</p>\n            <p>To earn the highest bonus, you will have to <b>take into consideration the student's guess</b> when you choose your second set of examples.</p>","response":0,"trial_type":"html-button-response","trial_index":52,"time_elapsed":606066,"internal_node_id":"0.0-51.0","params":{"nStudents":24,"maxFlips":30,"completionMinutes":45,"basePay":8,"maxBonus":9,"perTrialBonus":0.5,"perTrialBonusThreshold":0.05,"exampleCost":0.01},"classroomParams":{"A":{"a":1,"b":4},"B":{"a":4,"b":1},"C":{"a":2,"b":8},"D":{"a":8,"b":2}},"conditions":["nonSeqFull","nonSeqPartial","seqNoFeedback","seqFeedback"],"classroomPairings":[["A","B"],["C","D"]],"coinWeights":[0.2,0.5,0.8],"subjectId":"A1MKCTVKE7J0ZP","assignmentId":"3KV0LJBBH37WHZ8HHXAV7LXA0V5RMU","hitId":"3AQN9REUTF20OMGWRXYK787QVFOYDP","url":"https://gershmanlab.com/experiments/alicia/teaching/experiment/?hitId=3AQN9REUTF20OMGWRXYK787QVFOYDP&workerId=A1MKCTVKE7J0ZP&assignmentId=3KV0LJBBH37WHZ8HHXAV7LXA0V5RMU&a=BLVK9&tp_a=BLVK9&b=3KV0LJBBH37WHZ8HHXAV7LXA0V5RMU&tp_b=3KV0LJBBH37WHZ8HHXAV7LXA0V5RMU&c=365799&tp_c=365799"},{"rt":11399,"response":{"heads":"5","tails":"10"},"type":"response","condition":"seqFeedback","trueTheta":0.2,"classrooms":["A","B"],"studentTrueClassroom":"A","exampleSet":"first","trial_type":"survey-html-form","trial_index":53,"time_elapsed":617466,"internal_node_id":"0.0-52.0-0.0","params":{"nStudents":24,"maxFlips":30,"completionMinutes":45,"basePay":8,"maxBonus":9,"perTrialBonus":0.5,"perTrialBonusThreshold":0.05,"exampleCost":0.01},"classroomParams":{"A":{"a":1,"b":4},"B":{"a":4,"b":1},"C":{"a":2,"b":8},"D":{"a":8,"b":2}},"conditions":["nonSeqFull","nonSeqPartial","seqNoFeedback","seqFeedback"],"classroomPairings":[["A","B"],["C","D"]],"coinWeights":[0.2,0.5,0.8],"subjectId":"A1MKCTVKE7J0ZP","assignmentId":"3KV0LJBBH37WHZ8HHXAV7LXA0V5RMU","hitId":"3AQN9REUTF20OMGWRXYK787QVFOYDP","url":"https://gershmanlab.com/experiments/alicia/teaching/experiment/?hitId=3AQN9REUTF20OMGWRXYK787QVFOYDP&workerId=A1MKCTVKE7J0ZP&assignmentId=3KV0LJBBH37WHZ8HHXAV7LXA0V5RMU&a=BLVK9&tp_a=BLVK9&b=3KV0LJBBH37WHZ8HHXAV7LXA0V5RMU&tp_b=3KV0LJBBH37WHZ8HHXAV7LXA0V5RMU&c=365799&tp_c=365799","heads":5,"tails":10,"studentIndex":6,"studentTrueHypers":{"a":1,"b":4},"studentGuess":0.3,"delta":0.09999999999999998,"totalExamples":15,"bonusSoFar":0.4},{"rt":null,"stimulus":"Sending examples to student... ","response":null,"trial_type":"html-keyboard-response","trial_index":54,"time_elapsed":618719,"internal_node_id":"0.0-53.0","params":{"nStudents":24,"maxFlips":30,"completionMinutes":45,"basePay":8,"maxBonus":9,"perTrialBonus":0.5,"perTrialBonusThreshold":0.05,"exampleCost":0.01},"classroomParams":{"A":{"a":1,"b":4},"B":{"a":4,"b":1},"C":{"a":2,"b":8},"D":{"a":8,"b":2}},"conditions":["nonSeqFull","nonSeqPartial","seqNoFeedback","seqFeedback"],"classroomPairings":[["A","B"],["C","D"]],"coinWeights":[0.2,0.5,0.8],"subjectId":"A1MKCTVKE7J0ZP","assignmentId":"3KV0LJBBH37WHZ8HHXAV7LXA0V5RMU","hitId":"3AQN9REUTF20OMGWRXYK787QVFOYDP","url":"https://gershmanlab.com/experiments/alicia/teaching/experiment/?hitId=3AQN9REUTF20OMGWRXYK787QVFOYDP&workerId=A1MKCTVKE7J0ZP&assignmentId=3KV0LJBBH37WHZ8HHXAV7LXA0V5RMU&a=BLVK9&tp_a=BLVK9&b=3KV0LJBBH37WHZ8HHXAV7LXA0V5RMU&tp_b=3KV0LJBBH37WHZ8HHXAV7LXA0V5RMU&c=365799&tp_c=365799"},{"rt":null,"stimulus":"Examples sent to student! Waiting for student...","response":null,"trial_type":"html-keyboard-response","trial_index":55,"time_elapsed":624720,"internal_node_id":"0.0-54.0","params":{"nStudents":24,"maxFlips":30,"completionMinutes":45,"basePay":8,"maxBonus":9,"perTrialBonus":0.5,"perTrialBonusThreshold":0.05,"exampleCost":0.01},"classroomParams":{"A":{"a":1,"b":4},"B":{"a":4,"b":1},"C":{"a":2,"b":8},"D":{"a":8,"b":2}},"conditions":["nonSeqFull","nonSeqPartial","seqNoFeedback","seqFeedback"],"classroomPairings":[["A","B"],["C","D"]],"coinWeights":[0.2,0.5,0.8],"subjectId":"A1MKCTVKE7J0ZP","assignmentId":"3KV0LJBBH37WHZ8HHXAV7LXA0V5RMU","hitId":"3AQN9REUTF20OMGWRXYK787QVFOYDP","url":"https://gershmanlab.com/experiments/alicia/teaching/experiment/?hitId=3AQN9REUTF20OMGWRXYK787QVFOYDP&workerId=A1MKCTVKE7J0ZP&assignmentId=3KV0LJBBH37WHZ8HHXAV7LXA0V5RMU&a=BLVK9&tp_a=BLVK9&b=3KV0LJBBH37WHZ8HHXAV7LXA0V5RMU&tp_b=3KV0LJBBH37WHZ8HHXAV7LXA0V5RMU&c=365799&tp_c=365799"},{"rt":4559,"stimulus":"\n                <p>Student's guess for coin weight: <b style=\"color:Tomato;\">0.30</b></p>\n                <p></b></p>\n                <p>You will now send another set of examples to your student. <b>Remember to take your student's guess into consideration so that you can earn the highest bonus possible!</b> </p>\n                <p>Press any key to continue.</p>\n                ","response":"enter","trial_type":"html-keyboard-response","trial_index":56,"time_elapsed":629280,"internal_node_id":"0.0-55.0","params":{"nStudents":24,"maxFlips":30,"completionMinutes":45,"basePay":8,"maxBonus":9,"perTrialBonus":0.5,"perTrialBonusThreshold":0.05,"exampleCost":0.01},"classroomParams":{"A":{"a":1,"b":4},"B":{"a":4,"b":1},"C":{"a":2,"b":8},"D":{"a":8,"b":2}},"conditions":["nonSeqFull","nonSeqPartial","seqNoFeedback","seqFeedback"],"classroomPairings":[["A","B"],["C","D"]],"coinWeights":[0.2,0.5,0.8],"subjectId":"A1MKCTVKE7J0ZP","assignmentId":"3KV0LJBBH37WHZ8HHXAV7LXA0V5RMU","hitId":"3AQN9REUTF20OMGWRXYK787QVFOYDP","url":"https://gershmanlab.com/experiments/alicia/teaching/experiment/?hitId=3AQN9REUTF20OMGWRXYK787QVFOYDP&workerId=A1MKCTVKE7J0ZP&assignmentId=3KV0LJBBH37WHZ8HHXAV7LXA0V5RMU&a=BLVK9&tp_a=BLVK9&b=3KV0LJBBH37WHZ8HHXAV7LXA0V5RMU&tp_b=3KV0LJBBH37WHZ8HHXAV7LXA0V5RMU&c=365799&tp_c=365799"},{"rt":7089,"response":{"heads":"5","tails":"10"},"type":"response","condition":"seqFeedback","trueTheta":0.2,"classrooms":["A","B"],"studentTrueClassroom":"A","exampleSet":"second","trial_type":"survey-html-form","trial_index":57,"time_elapsed":636370,"internal_node_id":"0.0-56.0-0.0","params":{"nStudents":24,"maxFlips":30,"completionMinutes":45,"basePay":8,"maxBonus":9,"perTrialBonus":0.5,"perTrialBonusThreshold":0.05,"exampleCost":0.01},"classroomParams":{"A":{"a":1,"b":4},"B":{"a":4,"b":1},"C":{"a":2,"b":8},"D":{"a":8,"b":2}},"conditions":["nonSeqFull","nonSeqPartial","seqNoFeedback","seqFeedback"],"classroomPairings":[["A","B"],["C","D"]],"coinWeights":[0.2,0.5,0.8],"subjectId":"A1MKCTVKE7J0ZP","assignmentId":"3KV0LJBBH37WHZ8HHXAV7LXA0V5RMU","hitId":"3AQN9REUTF20OMGWRXYK787QVFOYDP","url":"https://gershmanlab.com/experiments/alicia/teaching/experiment/?hitId=3AQN9REUTF20OMGWRXYK787QVFOYDP&workerId=A1MKCTVKE7J0ZP&assignmentId=3KV0LJBBH37WHZ8HHXAV7LXA0V5RMU&a=BLVK9&tp_a=BLVK9&b=3KV0LJBBH37WHZ8HHXAV7LXA0V5RMU&tp_b=3KV0LJBBH37WHZ8HHXAV7LXA0V5RMU&c=365799&tp_c=365799","firstResponseHeads":5,"firstResponseTails":10,"secondResponseHeads":5,"secondResponseTails":10,"totalHeads":10,"totalTails":20,"studentIndex":6,"studentTrueHypers":{"a":1,"b":4},"studentGuess":0.3142857142857143,"delta":0.11428571428571427,"bonus":0,"bonusSoFar":0.4,"totalExamples":30},{"rt":null,"stimulus":"Sending examples to student... ","response":null,"trial_type":"html-keyboard-response","trial_index":58,"time_elapsed":638124,"internal_node_id":"0.0-57.0","params":{"nStudents":24,"maxFlips":30,"completionMinutes":45,"basePay":8,"maxBonus":9,"perTrialBonus":0.5,"perTrialBonusThreshold":0.05,"exampleCost":0.01},"classroomParams":{"A":{"a":1,"b":4},"B":{"a":4,"b":1},"C":{"a":2,"b":8},"D":{"a":8,"b":2}},"conditions":["nonSeqFull","nonSeqPartial","seqNoFeedback","seqFeedback"],"classroomPairings":[["A","B"],["C","D"]],"coinWeights":[0.2,0.5,0.8],"subjectId":"A1MKCTVKE7J0ZP","assignmentId":"3KV0LJBBH37WHZ8HHXAV7LXA0V5RMU","hitId":"3AQN9REUTF20OMGWRXYK787QVFOYDP","url":"https://gershmanlab.com/experiments/alicia/teaching/experiment/?hitId=3AQN9REUTF20OMGWRXYK787QVFOYDP&workerId=A1MKCTVKE7J0ZP&assignmentId=3KV0LJBBH37WHZ8HHXAV7LXA0V5RMU&a=BLVK9&tp_a=BLVK9&b=3KV0LJBBH37WHZ8HHXAV7LXA0V5RMU&tp_b=3KV0LJBBH37WHZ8HHXAV7LXA0V5RMU&c=365799&tp_c=365799"},{"rt":null,"stimulus":"Examples sent to student! Waiting for student...","response":null,"trial_type":"html-keyboard-response","trial_index":59,"time_elapsed":643126,"internal_node_id":"0.0-58.0","params":{"nStudents":24,"maxFlips":30,"completionMinutes":45,"basePay":8,"maxBonus":9,"perTrialBonus":0.5,"perTrialBonusThreshold":0.05,"exampleCost":0.01},"classroomParams":{"A":{"a":1,"b":4},"B":{"a":4,"b":1},"C":{"a":2,"b":8},"D":{"a":8,"b":2}},"conditions":["nonSeqFull","nonSeqPartial","seqNoFeedback","seqFeedback"],"classroomPairings":[["A","B"],["C","D"]],"coinWeights":[0.2,0.5,0.8],"subjectId":"A1MKCTVKE7J0ZP","assignmentId":"3KV0LJBBH37WHZ8HHXAV7LXA0V5RMU","hitId":"3AQN9REUTF20OMGWRXYK787QVFOYDP","url":"https://gershmanlab.com/experiments/alicia/teaching/experiment/?hitId=3AQN9REUTF20OMGWRXYK787QVFOYDP&workerId=A1MKCTVKE7J0ZP&assignmentId=3KV0LJBBH37WHZ8HHXAV7LXA0V5RMU&a=BLVK9&tp_a=BLVK9&b=3KV0LJBBH37WHZ8HHXAV7LXA0V5RMU&tp_b=3KV0LJBBH37WHZ8HHXAV7LXA0V5RMU&c=365799&tp_c=365799"},{"rt":1987,"stimulus":"\n                <p>Student 7's first guess for coin weight: <b style=\"color:Tomato\";>0.30</b></p>\n                <p>Student 7's second guess for coin weight: <b style=\"color:Tomato\";>0.31</b></p>\n                <p>You received a bonus of <b>$0.00</b> based on the student's second guess.</p>\n                <p>Total bonus so far: <b>$0.40</b></p>\n                <p>Press any key to continue.</p>\n                ","response":"enter","trial_type":"html-keyboard-response","trial_index":60,"time_elapsed":645116,"internal_node_id":"0.0-59.0","params":{"nStudents":24,"maxFlips":30,"completionMinutes":45,"basePay":8,"maxBonus":9,"perTrialBonus":0.5,"perTrialBonusThreshold":0.05,"exampleCost":0.01},"classroomParams":{"A":{"a":1,"b":4},"B":{"a":4,"b":1},"C":{"a":2,"b":8},"D":{"a":8,"b":2}},"conditions":["nonSeqFull","nonSeqPartial","seqNoFeedback","seqFeedback"],"classroomPairings":[["A","B"],["C","D"]],"coinWeights":[0.2,0.5,0.8],"subjectId":"A1MKCTVKE7J0ZP","assignmentId":"3KV0LJBBH37WHZ8HHXAV7LXA0V5RMU","hitId":"3AQN9REUTF20OMGWRXYK787QVFOYDP","url":"https://gershmanlab.com/experiments/alicia/teaching/experiment/?hitId=3AQN9REUTF20OMGWRXYK787QVFOYDP&workerId=A1MKCTVKE7J0ZP&assignmentId=3KV0LJBBH37WHZ8HHXAV7LXA0V5RMU&a=BLVK9&tp_a=BLVK9&b=3KV0LJBBH37WHZ8HHXAV7LXA0V5RMU&tp_b=3KV0LJBBH37WHZ8HHXAV7LXA0V5RMU&c=365799&tp_c=365799"},{"rt":null,"stimulus":"<div style=\"font-size:60px;\">Next student</div>","response":null,"trial_type":"html-keyboard-response","trial_index":61,"time_elapsed":648117,"internal_node_id":"0.0-60.0-0.0","params":{"nStudents":24,"maxFlips":30,"completionMinutes":45,"basePay":8,"maxBonus":9,"perTrialBonus":0.5,"perTrialBonusThreshold":0.05,"exampleCost":0.01},"classroomParams":{"A":{"a":1,"b":4},"B":{"a":4,"b":1},"C":{"a":2,"b":8},"D":{"a":8,"b":2}},"conditions":["nonSeqFull","nonSeqPartial","seqNoFeedback","seqFeedback"],"classroomPairings":[["A","B"],["C","D"]],"coinWeights":[0.2,0.5,0.8],"subjectId":"A1MKCTVKE7J0ZP","assignmentId":"3KV0LJBBH37WHZ8HHXAV7LXA0V5RMU","hitId":"3AQN9REUTF20OMGWRXYK787QVFOYDP","url":"https://gershmanlab.com/experiments/alicia/teaching/experiment/?hitId=3AQN9REUTF20OMGWRXYK787QVFOYDP&workerId=A1MKCTVKE7J0ZP&assignmentId=3KV0LJBBH37WHZ8HHXAV7LXA0V5RMU&a=BLVK9&tp_a=BLVK9&b=3KV0LJBBH37WHZ8HHXAV7LXA0V5RMU&tp_b=3KV0LJBBH37WHZ8HHXAV7LXA0V5RMU&c=365799&tp_c=365799"},{"rt":1579,"stimulus":"\n            <h4 style=\"color:Orange;\">Student 8</h4>\n            <h2>The weight of your coin is <b style=\"color:Tomato;\">0.5</b>.</h2>\n            <p>In this block, you will be giving <b>one</b> set of examples to Student 8.</p>\n                <p>You will receive feedback at the end of the block.</p>\n            <p></p>","response":0,"trial_type":"html-button-response","trial_index":62,"time_elapsed":649698,"internal_node_id":"0.0-61.0","params":{"nStudents":24,"maxFlips":30,"completionMinutes":45,"basePay":8,"maxBonus":9,"perTrialBonus":0.5,"perTrialBonusThreshold":0.05,"exampleCost":0.01},"classroomParams":{"A":{"a":1,"b":4},"B":{"a":4,"b":1},"C":{"a":2,"b":8},"D":{"a":8,"b":2}},"conditions":["nonSeqFull","nonSeqPartial","seqNoFeedback","seqFeedback"],"classroomPairings":[["A","B"],["C","D"]],"coinWeights":[0.2,0.5,0.8],"subjectId":"A1MKCTVKE7J0ZP","assignmentId":"3KV0LJBBH37WHZ8HHXAV7LXA0V5RMU","hitId":"3AQN9REUTF20OMGWRXYK787QVFOYDP","url":"https://gershmanlab.com/experiments/alicia/teaching/experiment/?hitId=3AQN9REUTF20OMGWRXYK787QVFOYDP&workerId=A1MKCTVKE7J0ZP&assignmentId=3KV0LJBBH37WHZ8HHXAV7LXA0V5RMU&a=BLVK9&tp_a=BLVK9&b=3KV0LJBBH37WHZ8HHXAV7LXA0V5RMU&tp_b=3KV0LJBBH37WHZ8HHXAV7LXA0V5RMU&c=365799&tp_c=365799"},{"rt":12346,"response":{"heads":"10","tails":"20"},"type":"response","condition":"nonSeqFull","trueTheta":0.5,"classrooms":["A","B"],"studentTrueClassroom":"B","exampleSet":"first","trial_type":"survey-html-form","trial_index":63,"time_elapsed":662047,"internal_node_id":"0.0-62.0-0.0","params":{"nStudents":24,"maxFlips":30,"completionMinutes":45,"basePay":8,"maxBonus":9,"perTrialBonus":0.5,"perTrialBonusThreshold":0.05,"exampleCost":0.01},"classroomParams":{"A":{"a":1,"b":4},"B":{"a":4,"b":1},"C":{"a":2,"b":8},"D":{"a":8,"b":2}},"conditions":["nonSeqFull","nonSeqPartial","seqNoFeedback","seqFeedback"],"classroomPairings":[["A","B"],["C","D"]],"coinWeights":[0.2,0.5,0.8],"subjectId":"A1MKCTVKE7J0ZP","assignmentId":"3KV0LJBBH37WHZ8HHXAV7LXA0V5RMU","hitId":"3AQN9REUTF20OMGWRXYK787QVFOYDP","url":"https://gershmanlab.com/experiments/alicia/teaching/experiment/?hitId=3AQN9REUTF20OMGWRXYK787QVFOYDP&workerId=A1MKCTVKE7J0ZP&assignmentId=3KV0LJBBH37WHZ8HHXAV7LXA0V5RMU&a=BLVK9&tp_a=BLVK9&b=3KV0LJBBH37WHZ8HHXAV7LXA0V5RMU&tp_b=3KV0LJBBH37WHZ8HHXAV7LXA0V5RMU&c=365799&tp_c=365799","heads":10,"tails":20,"studentIndex":7,"studentTrueHypers":{"a":4,"b":1},"studentGuess":0.4,"delta":0.09999999999999998,"totalExamples":30,"bonus":0,"bonusSoFar":0.4},{"rt":null,"stimulus":"Sending examples to student... ","response":null,"trial_type":"html-keyboard-response","trial_index":64,"time_elapsed":663549,"internal_node_id":"0.0-63.0","params":{"nStudents":24,"maxFlips":30,"completionMinutes":45,"basePay":8,"maxBonus":9,"perTrialBonus":0.5,"perTrialBonusThreshold":0.05,"exampleCost":0.01},"classroomParams":{"A":{"a":1,"b":4},"B":{"a":4,"b":1},"C":{"a":2,"b":8},"D":{"a":8,"b":2}},"conditions":["nonSeqFull","nonSeqPartial","seqNoFeedback","seqFeedback"],"classroomPairings":[["A","B"],["C","D"]],"coinWeights":[0.2,0.5,0.8],"subjectId":"A1MKCTVKE7J0ZP","assignmentId":"3KV0LJBBH37WHZ8HHXAV7LXA0V5RMU","hitId":"3AQN9REUTF20OMGWRXYK787QVFOYDP","url":"https://gershmanlab.com/experiments/alicia/teaching/experiment/?hitId=3AQN9REUTF20OMGWRXYK787QVFOYDP&workerId=A1MKCTVKE7J0ZP&assignmentId=3KV0LJBBH37WHZ8HHXAV7LXA0V5RMU&a=BLVK9&tp_a=BLVK9&b=3KV0LJBBH37WHZ8HHXAV7LXA0V5RMU&tp_b=3KV0LJBBH37WHZ8HHXAV7LXA0V5RMU&c=365799&tp_c=365799"},{"rt":null,"stimulus":"Examples sent to student! Waiting for student...","response":null,"trial_type":"html-keyboard-response","trial_index":65,"time_elapsed":667551,"internal_node_id":"0.0-64.0","params":{"nStudents":24,"maxFlips":30,"completionMinutes":45,"basePay":8,"maxBonus":9,"perTrialBonus":0.5,"perTrialBonusThreshold":0.05,"exampleCost":0.01},"classroomParams":{"A":{"a":1,"b":4},"B":{"a":4,"b":1},"C":{"a":2,"b":8},"D":{"a":8,"b":2}},"conditions":["nonSeqFull","nonSeqPartial","seqNoFeedback","seqFeedback"],"classroomPairings":[["A","B"],["C","D"]],"coinWeights":[0.2,0.5,0.8],"subjectId":"A1MKCTVKE7J0ZP","assignmentId":"3KV0LJBBH37WHZ8HHXAV7LXA0V5RMU","hitId":"3AQN9REUTF20OMGWRXYK787QVFOYDP","url":"https://gershmanlab.com/experiments/alicia/teaching/experiment/?hitId=3AQN9REUTF20OMGWRXYK787QVFOYDP&workerId=A1MKCTVKE7J0ZP&assignmentId=3KV0LJBBH37WHZ8HHXAV7LXA0V5RMU&a=BLVK9&tp_a=BLVK9&b=3KV0LJBBH37WHZ8HHXAV7LXA0V5RMU&tp_b=3KV0LJBBH37WHZ8HHXAV7LXA0V5RMU&c=365799&tp_c=365799"},{"rt":1561,"stimulus":"\n                <p>Student's guess for coin weight: <b style=\"color:Tomato;\">0.40</b></p>\n                <p>You received a bonus of <b>$0</b>. Total bonus so far: <b>$0.40</b></b></p>\n                <p></p>\n                <p>Press any key to continue.</p>\n                ","response":"enter","trial_type":"html-keyboard-response","trial_index":66,"time_elapsed":669114,"internal_node_id":"0.0-65.0","params":{"nStudents":24,"maxFlips":30,"completionMinutes":45,"basePay":8,"maxBonus":9,"perTrialBonus":0.5,"perTrialBonusThreshold":0.05,"exampleCost":0.01},"classroomParams":{"A":{"a":1,"b":4},"B":{"a":4,"b":1},"C":{"a":2,"b":8},"D":{"a":8,"b":2}},"conditions":["nonSeqFull","nonSeqPartial","seqNoFeedback","seqFeedback"],"classroomPairings":[["A","B"],["C","D"]],"coinWeights":[0.2,0.5,0.8],"subjectId":"A1MKCTVKE7J0ZP","assignmentId":"3KV0LJBBH37WHZ8HHXAV7LXA0V5RMU","hitId":"3AQN9REUTF20OMGWRXYK787QVFOYDP","url":"https://gershmanlab.com/experiments/alicia/teaching/experiment/?hitId=3AQN9REUTF20OMGWRXYK787QVFOYDP&workerId=A1MKCTVKE7J0ZP&assignmentId=3KV0LJBBH37WHZ8HHXAV7LXA0V5RMU&a=BLVK9&tp_a=BLVK9&b=3KV0LJBBH37WHZ8HHXAV7LXA0V5RMU&tp_b=3KV0LJBBH37WHZ8HHXAV7LXA0V5RMU&c=365799&tp_c=365799"},{"rt":null,"stimulus":"<div style=\"font-size:60px;\">Next student</div>","response":null,"trial_type":"html-keyboard-response","trial_index":67,"time_elapsed":671118,"internal_node_id":"0.0-66.0-0.0","params":{"nStudents":24,"maxFlips":30,"completionMinutes":45,"basePay":8,"maxBonus":9,"perTrialBonus":0.5,"perTrialBonusThreshold":0.05,"exampleCost":0.01},"classroomParams":{"A":{"a":1,"b":4},"B":{"a":4,"b":1},"C":{"a":2,"b":8},"D":{"a":8,"b":2}},"conditions":["nonSeqFull","nonSeqPartial","seqNoFeedback","seqFeedback"],"classroomPairings":[["A","B"],["C","D"]],"coinWeights":[0.2,0.5,0.8],"subjectId":"A1MKCTVKE7J0ZP","assignmentId":"3KV0LJBBH37WHZ8HHXAV7LXA0V5RMU","hitId":"3AQN9REUTF20OMGWRXYK787QVFOYDP","url":"https://gershmanlab.com/experiments/alicia/teaching/experiment/?hitId=3AQN9REUTF20OMGWRXYK787QVFOYDP&workerId=A1MKCTVKE7J0ZP&assignmentId=3KV0LJBBH37WHZ8HHXAV7LXA0V5RMU&a=BLVK9&tp_a=BLVK9&b=3KV0LJBBH37WHZ8HHXAV7LXA0V5RMU&tp_b=3KV0LJBBH37WHZ8HHXAV7LXA0V5RMU&c=365799&tp_c=365799"},{"rt":2357,"stimulus":"\n            <h4 style=\"color:Orange;\">Student 9</h4>\n            <h2>The weight of your coin is <b style=\"color:Tomato;\">0.2</b>.</h2>\n            <p>In this block, you will be giving <b>one</b> set of examples to Student 9.</p>\n                <p>You will receive feedback at the end of the block.</p>\n            <p></p>","response":0,"trial_type":"html-button-response","trial_index":68,"time_elapsed":673477,"internal_node_id":"0.0-67.0","params":{"nStudents":24,"maxFlips":30,"completionMinutes":45,"basePay":8,"maxBonus":9,"perTrialBonus":0.5,"perTrialBonusThreshold":0.05,"exampleCost":0.01},"classroomParams":{"A":{"a":1,"b":4},"B":{"a":4,"b":1},"C":{"a":2,"b":8},"D":{"a":8,"b":2}},"conditions":["nonSeqFull","nonSeqPartial","seqNoFeedback","seqFeedback"],"classroomPairings":[["A","B"],["C","D"]],"coinWeights":[0.2,0.5,0.8],"subjectId":"A1MKCTVKE7J0ZP","assignmentId":"3KV0LJBBH37WHZ8HHXAV7LXA0V5RMU","hitId":"3AQN9REUTF20OMGWRXYK787QVFOYDP","url":"https://gershmanlab.com/experiments/alicia/teaching/experiment/?hitId=3AQN9REUTF20OMGWRXYK787QVFOYDP&workerId=A1MKCTVKE7J0ZP&assignmentId=3KV0LJBBH37WHZ8HHXAV7LXA0V5RMU&a=BLVK9&tp_a=BLVK9&b=3KV0LJBBH37WHZ8HHXAV7LXA0V5RMU&tp_b=3KV0LJBBH37WHZ8HHXAV7LXA0V5RMU&c=365799&tp_c=365799"},{"rt":8093,"response":{"heads":"10","tails":"20"},"type":"response","condition":"nonSeqFull","trueTheta":0.2,"classrooms":["A","B"],"studentTrueClassroom":"A","exampleSet":"first","trial_type":"survey-html-form","trial_index":69,"time_elapsed":681570,"internal_node_id":"0.0-68.0-0.0","params":{"nStudents":24,"maxFlips":30,"completionMinutes":45,"basePay":8,"maxBonus":9,"perTrialBonus":0.5,"perTrialBonusThreshold":0.05,"exampleCost":0.01},"classroomParams":{"A":{"a":1,"b":4},"B":{"a":4,"b":1},"C":{"a":2,"b":8},"D":{"a":8,"b":2}},"conditions":["nonSeqFull","nonSeqPartial","seqNoFeedback","seqFeedback"],"classroomPairings":[["A","B"],["C","D"]],"coinWeights":[0.2,0.5,0.8],"subjectId":"A1MKCTVKE7J0ZP","assignmentId":"3KV0LJBBH37WHZ8HHXAV7LXA0V5RMU","hitId":"3AQN9REUTF20OMGWRXYK787QVFOYDP","url":"https://gershmanlab.com/experiments/alicia/teaching/experiment/?hitId=3AQN9REUTF20OMGWRXYK787QVFOYDP&workerId=A1MKCTVKE7J0ZP&assignmentId=3KV0LJBBH37WHZ8HHXAV7LXA0V5RMU&a=BLVK9&tp_a=BLVK9&b=3KV0LJBBH37WHZ8HHXAV7LXA0V5RMU&tp_b=3KV0LJBBH37WHZ8HHXAV7LXA0V5RMU&c=365799&tp_c=365799","heads":10,"tails":20,"studentIndex":8,"studentTrueHypers":{"a":1,"b":4},"studentGuess":0.3142857142857143,"delta":0.11428571428571427,"totalExamples":30,"bonus":0,"bonusSoFar":0.4},{"rt":null,"stimulus":"Sending examples to student... ","response":null,"trial_type":"html-keyboard-response","trial_index":70,"time_elapsed":683073,"internal_node_id":"0.0-69.0","params":{"nStudents":24,"maxFlips":30,"completionMinutes":45,"basePay":8,"maxBonus":9,"perTrialBonus":0.5,"perTrialBonusThreshold":0.05,"exampleCost":0.01},"classroomParams":{"A":{"a":1,"b":4},"B":{"a":4,"b":1},"C":{"a":2,"b":8},"D":{"a":8,"b":2}},"conditions":["nonSeqFull","nonSeqPartial","seqNoFeedback","seqFeedback"],"classroomPairings":[["A","B"],["C","D"]],"coinWeights":[0.2,0.5,0.8],"subjectId":"A1MKCTVKE7J0ZP","assignmentId":"3KV0LJBBH37WHZ8HHXAV7LXA0V5RMU","hitId":"3AQN9REUTF20OMGWRXYK787QVFOYDP","url":"https://gershmanlab.com/experiments/alicia/teaching/experiment/?hitId=3AQN9REUTF20OMGWRXYK787QVFOYDP&workerId=A1MKCTVKE7J0ZP&assignmentId=3KV0LJBBH37WHZ8HHXAV7LXA0V5RMU&a=BLVK9&tp_a=BLVK9&b=3KV0LJBBH37WHZ8HHXAV7LXA0V5RMU&tp_b=3KV0LJBBH37WHZ8HHXAV7LXA0V5RMU&c=365799&tp_c=365799"},{"rt":null,"stimulus":"Examples sent to student! Waiting for student...","response":null,"trial_type":"html-keyboard-response","trial_index":71,"time_elapsed":688578,"internal_node_id":"0.0-70.0","params":{"nStudents":24,"maxFlips":30,"completionMinutes":45,"basePay":8,"maxBonus":9,"perTrialBonus":0.5,"perTrialBonusThreshold":0.05,"exampleCost":0.01},"classroomParams":{"A":{"a":1,"b":4},"B":{"a":4,"b":1},"C":{"a":2,"b":8},"D":{"a":8,"b":2}},"conditions":["nonSeqFull","nonSeqPartial","seqNoFeedback","seqFeedback"],"classroomPairings":[["A","B"],["C","D"]],"coinWeights":[0.2,0.5,0.8],"subjectId":"A1MKCTVKE7J0ZP","assignmentId":"3KV0LJBBH37WHZ8HHXAV7LXA0V5RMU","hitId":"3AQN9REUTF20OMGWRXYK787QVFOYDP","url":"https://gershmanlab.com/experiments/alicia/teaching/experiment/?hitId=3AQN9REUTF20OMGWRXYK787QVFOYDP&workerId=A1MKCTVKE7J0ZP&assignmentId=3KV0LJBBH37WHZ8HHXAV7LXA0V5RMU&a=BLVK9&tp_a=BLVK9&b=3KV0LJBBH37WHZ8HHXAV7LXA0V5RMU&tp_b=3KV0LJBBH37WHZ8HHXAV7LXA0V5RMU&c=365799&tp_c=365799"},{"rt":1952,"stimulus":"\n                <p>Student's guess for coin weight: <b style=\"color:Tomato;\">0.31</b></p>\n                <p>You received a bonus of <b>$0</b>. Total bonus so far: <b>$0.40</b></b></p>\n                <p></p>\n                <p>Press any key to continue.</p>\n                ","response":"enter","trial_type":"html-keyboard-response","trial_index":72,"time_elapsed":690531,"internal_node_id":"0.0-71.0","params":{"nStudents":24,"maxFlips":30,"completionMinutes":45,"basePay":8,"maxBonus":9,"perTrialBonus":0.5,"perTrialBonusThreshold":0.05,"exampleCost":0.01},"classroomParams":{"A":{"a":1,"b":4},"B":{"a":4,"b":1},"C":{"a":2,"b":8},"D":{"a":8,"b":2}},"conditions":["nonSeqFull","nonSeqPartial","seqNoFeedback","seqFeedback"],"classroomPairings":[["A","B"],["C","D"]],"coinWeights":[0.2,0.5,0.8],"subjectId":"A1MKCTVKE7J0ZP","assignmentId":"3KV0LJBBH37WHZ8HHXAV7LXA0V5RMU","hitId":"3AQN9REUTF20OMGWRXYK787QVFOYDP","url":"https://gershmanlab.com/experiments/alicia/teaching/experiment/?hitId=3AQN9REUTF20OMGWRXYK787QVFOYDP&workerId=A1MKCTVKE7J0ZP&assignmentId=3KV0LJBBH37WHZ8HHXAV7LXA0V5RMU&a=BLVK9&tp_a=BLVK9&b=3KV0LJBBH37WHZ8HHXAV7LXA0V5RMU&tp_b=3KV0LJBBH37WHZ8HHXAV7LXA0V5RMU&c=365799&tp_c=365799"},{"rt":null,"stimulus":"<div style=\"font-size:60px;\">Next student</div>","response":null,"trial_type":"html-keyboard-response","trial_index":73,"time_elapsed":693034,"internal_node_id":"0.0-72.0-0.0","params":{"nStudents":24,"maxFlips":30,"completionMinutes":45,"basePay":8,"maxBonus":9,"perTrialBonus":0.5,"perTrialBonusThreshold":0.05,"exampleCost":0.01},"classroomParams":{"A":{"a":1,"b":4},"B":{"a":4,"b":1},"C":{"a":2,"b":8},"D":{"a":8,"b":2}},"conditions":["nonSeqFull","nonSeqPartial","seqNoFeedback","seqFeedback"],"classroomPairings":[["A","B"],["C","D"]],"coinWeights":[0.2,0.5,0.8],"subjectId":"A1MKCTVKE7J0ZP","assignmentId":"3KV0LJBBH37WHZ8HHXAV7LXA0V5RMU","hitId":"3AQN9REUTF20OMGWRXYK787QVFOYDP","url":"https://gershmanlab.com/experiments/alicia/teaching/experiment/?hitId=3AQN9REUTF20OMGWRXYK787QVFOYDP&workerId=A1MKCTVKE7J0ZP&assignmentId=3KV0LJBBH37WHZ8HHXAV7LXA0V5RMU&a=BLVK9&tp_a=BLVK9&b=3KV0LJBBH37WHZ8HHXAV7LXA0V5RMU&tp_b=3KV0LJBBH37WHZ8HHXAV7LXA0V5RMU&c=365799&tp_c=365799"},{"rt":4504,"stimulus":"\n            <h4 style=\"color:Orange;\">Student 10</h4>\n            <h2>The weight of your coin is <b style=\"color:Tomato;\">0.8</b>.</h2>\n            <p>In this block, you will be giving <b>two</b> sets of examples to Student 10.</p>\n                <p>You will see the student's guess after the first set of examples. You will also receive feedback at the end of the block.</p>\n            <p>To earn the highest bonus, you will have to <b>take into consideration the student's guess</b> when you choose your second set of examples.</p>","response":0,"trial_type":"html-button-response","trial_index":74,"time_elapsed":697540,"internal_node_id":"0.0-73.0","params":{"nStudents":24,"maxFlips":30,"completionMinutes":45,"basePay":8,"maxBonus":9,"perTrialBonus":0.5,"perTrialBonusThreshold":0.05,"exampleCost":0.01},"classroomParams":{"A":{"a":1,"b":4},"B":{"a":4,"b":1},"C":{"a":2,"b":8},"D":{"a":8,"b":2}},"conditions":["nonSeqFull","nonSeqPartial","seqNoFeedback","seqFeedback"],"classroomPairings":[["A","B"],["C","D"]],"coinWeights":[0.2,0.5,0.8],"subjectId":"A1MKCTVKE7J0ZP","assignmentId":"3KV0LJBBH37WHZ8HHXAV7LXA0V5RMU","hitId":"3AQN9REUTF20OMGWRXYK787QVFOYDP","url":"https://gershmanlab.com/experiments/alicia/teaching/experiment/?hitId=3AQN9REUTF20OMGWRXYK787QVFOYDP&workerId=A1MKCTVKE7J0ZP&assignmentId=3KV0LJBBH37WHZ8HHXAV7LXA0V5RMU&a=BLVK9&tp_a=BLVK9&b=3KV0LJBBH37WHZ8HHXAV7LXA0V5RMU&tp_b=3KV0LJBBH37WHZ8HHXAV7LXA0V5RMU&c=365799&tp_c=365799"},{"rt":13917,"response":{"heads":"8","tails":"8"},"type":"response","condition":"seqFeedback","trueTheta":0.8,"classrooms":["C","D"],"studentTrueClassroom":"C","exampleSet":"first","trial_type":"survey-html-form","trial_index":75,"time_elapsed":711459,"internal_node_id":"0.0-74.0-0.0","params":{"nStudents":24,"maxFlips":30,"completionMinutes":45,"basePay":8,"maxBonus":9,"perTrialBonus":0.5,"perTrialBonusThreshold":0.05,"exampleCost":0.01},"classroomParams":{"A":{"a":1,"b":4},"B":{"a":4,"b":1},"C":{"a":2,"b":8},"D":{"a":8,"b":2}},"conditions":["nonSeqFull","nonSeqPartial","seqNoFeedback","seqFeedback"],"classroomPairings":[["A","B"],["C","D"]],"coinWeights":[0.2,0.5,0.8],"subjectId":"A1MKCTVKE7J0ZP","assignmentId":"3KV0LJBBH37WHZ8HHXAV7LXA0V5RMU","hitId":"3AQN9REUTF20OMGWRXYK787QVFOYDP","url":"https://gershmanlab.com/experiments/alicia/teaching/experiment/?hitId=3AQN9REUTF20OMGWRXYK787QVFOYDP&workerId=A1MKCTVKE7J0ZP&assignmentId=3KV0LJBBH37WHZ8HHXAV7LXA0V5RMU&a=BLVK9&tp_a=BLVK9&b=3KV0LJBBH37WHZ8HHXAV7LXA0V5RMU&tp_b=3KV0LJBBH37WHZ8HHXAV7LXA0V5RMU&c=365799&tp_c=365799","heads":8,"tails":8,"studentIndex":9,"studentTrueHypers":{"a":2,"b":8},"studentGuess":0.38461538461538464,"delta":0.4153846153846154,"totalExamples":16,"bonusSoFar":0.4},{"rt":null,"stimulus":"Sending examples to student... ","response":null,"trial_type":"html-keyboard-response","trial_index":76,"time_elapsed":712715,"internal_node_id":"0.0-75.0","params":{"nStudents":24,"maxFlips":30,"completionMinutes":45,"basePay":8,"maxBonus":9,"perTrialBonus":0.5,"perTrialBonusThreshold":0.05,"exampleCost":0.01},"classroomParams":{"A":{"a":1,"b":4},"B":{"a":4,"b":1},"C":{"a":2,"b":8},"D":{"a":8,"b":2}},"conditions":["nonSeqFull","nonSeqPartial","seqNoFeedback","seqFeedback"],"classroomPairings":[["A","B"],["C","D"]],"coinWeights":[0.2,0.5,0.8],"subjectId":"A1MKCTVKE7J0ZP","assignmentId":"3KV0LJBBH37WHZ8HHXAV7LXA0V5RMU","hitId":"3AQN9REUTF20OMGWRXYK787QVFOYDP","url":"https://gershmanlab.com/experiments/alicia/teaching/experiment/?hitId=3AQN9REUTF20OMGWRXYK787QVFOYDP&workerId=A1MKCTVKE7J0ZP&assignmentId=3KV0LJBBH37WHZ8HHXAV7LXA0V5RMU&a=BLVK9&tp_a=BLVK9&b=3KV0LJBBH37WHZ8HHXAV7LXA0V5RMU&tp_b=3KV0LJBBH37WHZ8HHXAV7LXA0V5RMU&c=365799&tp_c=365799"},{"rt":null,"stimulus":"Examples sent to student! Waiting for student...","response":null,"trial_type":"html-keyboard-response","trial_index":77,"time_elapsed":718219,"internal_node_id":"0.0-76.0","params":{"nStudents":24,"maxFlips":30,"completionMinutes":45,"basePay":8,"maxBonus":9,"perTrialBonus":0.5,"perTrialBonusThreshold":0.05,"exampleCost":0.01},"classroomParams":{"A":{"a":1,"b":4},"B":{"a":4,"b":1},"C":{"a":2,"b":8},"D":{"a":8,"b":2}},"conditions":["nonSeqFull","nonSeqPartial","seqNoFeedback","seqFeedback"],"classroomPairings":[["A","B"],["C","D"]],"coinWeights":[0.2,0.5,0.8],"subjectId":"A1MKCTVKE7J0ZP","assignmentId":"3KV0LJBBH37WHZ8HHXAV7LXA0V5RMU","hitId":"3AQN9REUTF20OMGWRXYK787QVFOYDP","url":"https://gershmanlab.com/experiments/alicia/teaching/experiment/?hitId=3AQN9REUTF20OMGWRXYK787QVFOYDP&workerId=A1MKCTVKE7J0ZP&assignmentId=3KV0LJBBH37WHZ8HHXAV7LXA0V5RMU&a=BLVK9&tp_a=BLVK9&b=3KV0LJBBH37WHZ8HHXAV7LXA0V5RMU&tp_b=3KV0LJBBH37WHZ8HHXAV7LXA0V5RMU&c=365799&tp_c=365799"},{"rt":2702,"stimulus":"\n                <p>Student's guess for coin weight: <b style=\"color:Tomato;\">0.38</b></p>\n                <p></b></p>\n                <p>You will now send another set of examples to your student. <b>Remember to take your student's guess into consideration so that you can earn the highest bonus possible!</b> </p>\n                <p>Press any key to continue.</p>\n                ","response":"enter","trial_type":"html-keyboard-response","trial_index":78,"time_elapsed":720922,"internal_node_id":"0.0-77.0","params":{"nStudents":24,"maxFlips":30,"completionMinutes":45,"basePay":8,"maxBonus":9,"perTrialBonus":0.5,"perTrialBonusThreshold":0.05,"exampleCost":0.01},"classroomParams":{"A":{"a":1,"b":4},"B":{"a":4,"b":1},"C":{"a":2,"b":8},"D":{"a":8,"b":2}},"conditions":["nonSeqFull","nonSeqPartial","seqNoFeedback","seqFeedback"],"classroomPairings":[["A","B"],["C","D"]],"coinWeights":[0.2,0.5,0.8],"subjectId":"A1MKCTVKE7J0ZP","assignmentId":"3KV0LJBBH37WHZ8HHXAV7LXA0V5RMU","hitId":"3AQN9REUTF20OMGWRXYK787QVFOYDP","url":"https://gershmanlab.com/experiments/alicia/teaching/experiment/?hitId=3AQN9REUTF20OMGWRXYK787QVFOYDP&workerId=A1MKCTVKE7J0ZP&assignmentId=3KV0LJBBH37WHZ8HHXAV7LXA0V5RMU&a=BLVK9&tp_a=BLVK9&b=3KV0LJBBH37WHZ8HHXAV7LXA0V5RMU&tp_b=3KV0LJBBH37WHZ8HHXAV7LXA0V5RMU&c=365799&tp_c=365799"},{"rt":8570,"response":{"heads":"10","tails":"2"},"type":"response","condition":"seqFeedback","trueTheta":0.8,"classrooms":["C","D"],"studentTrueClassroom":"C","exampleSet":"second","trial_type":"survey-html-form","trial_index":79,"time_elapsed":729494,"internal_node_id":"0.0-78.0-0.0","params":{"nStudents":24,"maxFlips":30,"completionMinutes":45,"basePay":8,"maxBonus":9,"perTrialBonus":0.5,"perTrialBonusThreshold":0.05,"exampleCost":0.01},"classroomParams":{"A":{"a":1,"b":4},"B":{"a":4,"b":1},"C":{"a":2,"b":8},"D":{"a":8,"b":2}},"conditions":["nonSeqFull","nonSeqPartial","seqNoFeedback","seqFeedback"],"classroomPairings":[["A","B"],["C","D"]],"coinWeights":[0.2,0.5,0.8],"subjectId":"A1MKCTVKE7J0ZP","assignmentId":"3KV0LJBBH37WHZ8HHXAV7LXA0V5RMU","hitId":"3AQN9REUTF20OMGWRXYK787QVFOYDP","url":"https://gershmanlab.com/experiments/alicia/teaching/experiment/?hitId=3AQN9REUTF20OMGWRXYK787QVFOYDP&workerId=A1MKCTVKE7J0ZP&assignmentId=3KV0LJBBH37WHZ8HHXAV7LXA0V5RMU&a=BLVK9&tp_a=BLVK9&b=3KV0LJBBH37WHZ8HHXAV7LXA0V5RMU&tp_b=3KV0LJBBH37WHZ8HHXAV7LXA0V5RMU&c=365799&tp_c=365799","firstResponseHeads":8,"firstResponseTails":8,"secondResponseHeads":10,"secondResponseTails":2,"totalHeads":18,"totalTails":10,"studentIndex":9,"studentTrueHypers":{"a":2,"b":8},"studentGuess":0.5263157894736842,"delta":0.27368421052631586,"bonus":0,"bonusSoFar":0.4,"totalExamples":28},{"rt":null,"stimulus":"Sending examples to student... ","response":null,"trial_type":"html-keyboard-response","trial_index":80,"time_elapsed":731245,"internal_node_id":"0.0-79.0","params":{"nStudents":24,"maxFlips":30,"completionMinutes":45,"basePay":8,"maxBonus":9,"perTrialBonus":0.5,"perTrialBonusThreshold":0.05,"exampleCost":0.01},"classroomParams":{"A":{"a":1,"b":4},"B":{"a":4,"b":1},"C":{"a":2,"b":8},"D":{"a":8,"b":2}},"conditions":["nonSeqFull","nonSeqPartial","seqNoFeedback","seqFeedback"],"classroomPairings":[["A","B"],["C","D"]],"coinWeights":[0.2,0.5,0.8],"subjectId":"A1MKCTVKE7J0ZP","assignmentId":"3KV0LJBBH37WHZ8HHXAV7LXA0V5RMU","hitId":"3AQN9REUTF20OMGWRXYK787QVFOYDP","url":"https://gershmanlab.com/experiments/alicia/teaching/experiment/?hitId=3AQN9REUTF20OMGWRXYK787QVFOYDP&workerId=A1MKCTVKE7J0ZP&assignmentId=3KV0LJBBH37WHZ8HHXAV7LXA0V5RMU&a=BLVK9&tp_a=BLVK9&b=3KV0LJBBH37WHZ8HHXAV7LXA0V5RMU&tp_b=3KV0LJBBH37WHZ8HHXAV7LXA0V5RMU&c=365799&tp_c=365799"},{"rt":null,"stimulus":"Examples sent to student! Waiting for student...","response":null,"trial_type":"html-keyboard-response","trial_index":81,"time_elapsed":735251,"internal_node_id":"0.0-80.0","params":{"nStudents":24,"maxFlips":30,"completionMinutes":45,"basePay":8,"maxBonus":9,"perTrialBonus":0.5,"perTrialBonusThreshold":0.05,"exampleCost":0.01},"classroomParams":{"A":{"a":1,"b":4},"B":{"a":4,"b":1},"C":{"a":2,"b":8},"D":{"a":8,"b":2}},"conditions":["nonSeqFull","nonSeqPartial","seqNoFeedback","seqFeedback"],"classroomPairings":[["A","B"],["C","D"]],"coinWeights":[0.2,0.5,0.8],"subjectId":"A1MKCTVKE7J0ZP","assignmentId":"3KV0LJBBH37WHZ8HHXAV7LXA0V5RMU","hitId":"3AQN9REUTF20OMGWRXYK787QVFOYDP","url":"https://gershmanlab.com/experiments/alicia/teaching/experiment/?hitId=3AQN9REUTF20OMGWRXYK787QVFOYDP&workerId=A1MKCTVKE7J0ZP&assignmentId=3KV0LJBBH37WHZ8HHXAV7LXA0V5RMU&a=BLVK9&tp_a=BLVK9&b=3KV0LJBBH37WHZ8HHXAV7LXA0V5RMU&tp_b=3KV0LJBBH37WHZ8HHXAV7LXA0V5RMU&c=365799&tp_c=365799"},{"rt":2020,"stimulus":"\n                <p>Student 10's first guess for coin weight: <b style=\"color:Tomato\";>0.38</b></p>\n                <p>Student 10's second guess for coin weight: <b style=\"color:Tomato\";>0.53</b></p>\n                <p>You received a bonus of <b>$0.00</b> based on the student's second guess.</p>\n                <p>Total bonus so far: <b>$0.40</b></p>\n                <p>Press any key to continue.</p>\n                ","response":"enter","trial_type":"html-keyboard-response","trial_index":82,"time_elapsed":737272,"internal_node_id":"0.0-81.0","params":{"nStudents":24,"maxFlips":30,"completionMinutes":45,"basePay":8,"maxBonus":9,"perTrialBonus":0.5,"perTrialBonusThreshold":0.05,"exampleCost":0.01},"classroomParams":{"A":{"a":1,"b":4},"B":{"a":4,"b":1},"C":{"a":2,"b":8},"D":{"a":8,"b":2}},"conditions":["nonSeqFull","nonSeqPartial","seqNoFeedback","seqFeedback"],"classroomPairings":[["A","B"],["C","D"]],"coinWeights":[0.2,0.5,0.8],"subjectId":"A1MKCTVKE7J0ZP","assignmentId":"3KV0LJBBH37WHZ8HHXAV7LXA0V5RMU","hitId":"3AQN9REUTF20OMGWRXYK787QVFOYDP","url":"https://gershmanlab.com/experiments/alicia/teaching/experiment/?hitId=3AQN9REUTF20OMGWRXYK787QVFOYDP&workerId=A1MKCTVKE7J0ZP&assignmentId=3KV0LJBBH37WHZ8HHXAV7LXA0V5RMU&a=BLVK9&tp_a=BLVK9&b=3KV0LJBBH37WHZ8HHXAV7LXA0V5RMU&tp_b=3KV0LJBBH37WHZ8HHXAV7LXA0V5RMU&c=365799&tp_c=365799"},{"rt":null,"stimulus":"<div style=\"font-size:60px;\">Next student</div>","response":null,"trial_type":"html-keyboard-response","trial_index":83,"time_elapsed":739526,"internal_node_id":"0.0-82.0-0.0","params":{"nStudents":24,"maxFlips":30,"completionMinutes":45,"basePay":8,"maxBonus":9,"perTrialBonus":0.5,"perTrialBonusThreshold":0.05,"exampleCost":0.01},"classroomParams":{"A":{"a":1,"b":4},"B":{"a":4,"b":1},"C":{"a":2,"b":8},"D":{"a":8,"b":2}},"conditions":["nonSeqFull","nonSeqPartial","seqNoFeedback","seqFeedback"],"classroomPairings":[["A","B"],["C","D"]],"coinWeights":[0.2,0.5,0.8],"subjectId":"A1MKCTVKE7J0ZP","assignmentId":"3KV0LJBBH37WHZ8HHXAV7LXA0V5RMU","hitId":"3AQN9REUTF20OMGWRXYK787QVFOYDP","url":"https://gershmanlab.com/experiments/alicia/teaching/experiment/?hitId=3AQN9REUTF20OMGWRXYK787QVFOYDP&workerId=A1MKCTVKE7J0ZP&assignmentId=3KV0LJBBH37WHZ8HHXAV7LXA0V5RMU&a=BLVK9&tp_a=BLVK9&b=3KV0LJBBH37WHZ8HHXAV7LXA0V5RMU&tp_b=3KV0LJBBH37WHZ8HHXAV7LXA0V5RMU&c=365799&tp_c=365799"},{"rt":2638,"stimulus":"\n            <h4 style=\"color:Orange;\">Student 11</h4>\n            <h2>The weight of your coin is <b style=\"color:Tomato;\">0.8</b>.</h2>\n            <p>In this block, you will be giving <b>two</b> sets of examples to Student 11.</p>\n                <p>You will receive feedback at the end of the block.</p>\n            <p></p>","response":0,"trial_type":"html-button-response","trial_index":84,"time_elapsed":742165,"internal_node_id":"0.0-83.0","params":{"nStudents":24,"maxFlips":30,"completionMinutes":45,"basePay":8,"maxBonus":9,"perTrialBonus":0.5,"perTrialBonusThreshold":0.05,"exampleCost":0.01},"classroomParams":{"A":{"a":1,"b":4},"B":{"a":4,"b":1},"C":{"a":2,"b":8},"D":{"a":8,"b":2}},"conditions":["nonSeqFull","nonSeqPartial","seqNoFeedback","seqFeedback"],"classroomPairings":[["A","B"],["C","D"]],"coinWeights":[0.2,0.5,0.8],"subjectId":"A1MKCTVKE7J0ZP","assignmentId":"3KV0LJBBH37WHZ8HHXAV7LXA0V5RMU","hitId":"3AQN9REUTF20OMGWRXYK787QVFOYDP","url":"https://gershmanlab.com/experiments/alicia/teaching/experiment/?hitId=3AQN9REUTF20OMGWRXYK787QVFOYDP&workerId=A1MKCTVKE7J0ZP&assignmentId=3KV0LJBBH37WHZ8HHXAV7LXA0V5RMU&a=BLVK9&tp_a=BLVK9&b=3KV0LJBBH37WHZ8HHXAV7LXA0V5RMU&tp_b=3KV0LJBBH37WHZ8HHXAV7LXA0V5RMU&c=365799&tp_c=365799"},{"rt":9719,"response":{"heads":"10","tails":"0"},"type":"response","condition":"seqNoFeedback","trueTheta":0.8,"classrooms":["C","D"],"studentTrueClassroom":"C","exampleSet":"first","trial_type":"survey-html-form","trial_index":85,"time_elapsed":751885,"internal_node_id":"0.0-84.0-0.0","params":{"nStudents":24,"maxFlips":30,"completionMinutes":45,"basePay":8,"maxBonus":9,"perTrialBonus":0.5,"perTrialBonusThreshold":0.05,"exampleCost":0.01},"classroomParams":{"A":{"a":1,"