[{"rt":2015,"stimulus":"Welcome to the experiment. Press any key to begin.","response":"m","trial_type":"html-keyboard-response","trial_index":0,"time_elapsed":2036,"internal_node_id":"0.0-0.0","params":{"nStudents":24,"maxFlips":30,"completionMinutes":45,"basePay":8,"maxBonus":9,"perTrialBonus":0.5,"perTrialBonusThreshold":0.05,"exampleCost":0.01},"classroomParams":{"A":{"a":1,"b":4},"B":{"a":4,"b":1},"C":{"a":2,"b":8},"D":{"a":8,"b":2}},"conditions":["nonSeqFull","nonSeqPartial","seqNoFeedback","seqFeedback"],"classroomPairings":[["A","B"],["C","D"]],"coinWeights":[0.2,0.5,0.8],"subjectId":"A1NFBKUYYVUYWF","assignmentId":"3Z4AIRP3C7ZJI684XAXPCBVV30G1XB","hitId":"3FJ2RVH25ZSYKBA8MWMNC8NVPF629N","url":"https://gershmanlab.com/experiments/alicia/teaching/experiment/?hitId=3FJ2RVH25ZSYKBA8MWMNC8NVPF629N&workerId=A1NFBKUYYVUYWF&assignmentId=3Z4AIRP3C7ZJI684XAXPCBVV30G1XB&a=3I4Z7&tp_a=3I4Z7&b=3Z4AIRP3C7ZJI684XAXPCBVV30G1XB&tp_b=3Z4AIRP3C7ZJI684XAXPCBVV30G1XB&c=365717&tp_c=365717"},{"rt":239129,"stimulus":"\n        <h3>Please read this consent agreement carefully before deciding whether to participate in this experiment.</h3>\n        <p><b>Purpose of the research:</b> To examine how people teach effectively.</p>\n        <p><b>What you will do in this research:</b> You will teach students the weights of different coins.</p>\n        <p><b>Time required:</b> This experiment will take 45 minutes to complete.</p>\n        <p><b>Risks:</b> There are no anticipated risks associated with participating in this study.             The effects of participating should be comparable to those you would experience from viewing a computer monitor             and using a mouse and keyboard for the duration of the experiment.</p>\n        <p><b>Benefits:</b> The study provides important information about the nature of teaching.</p>\n        <p><b>Compensation:</b> You will receive <b>$8</b> for completing the experiment and a performance bonus of up to <b>$9</b>.</p>\n        <p><b>Confidentiality:</b> Your participation in this study will remain confidential.             No personally identifiable information will be associated with your data.             Your de-identified data may be shared with other researchers and used in future projects.</p>\n        <p><b>Participation and withdrawal:</b> Your participation in this study is completely voluntary and             you may refuse to participate or you may choose to withdraw at any time without penalty or loss of\n            benefits to which you are otherwise entitled.</p>\n        <p><b>How to contact the researcher:</b> If you have questions or concerns about your participation            or payment, or want to request a summary of research findings, please contact\n            Alicia Chen, aliciachen@college.harvard.edu.</p>\n        <p><b>Whom to contact about your rights in this research:</b> For questions, concerns, suggestions,             or complaints that have not been or cannot be addressed by the researcher, or to report             research-related harm, please contact the Committee on the Use of Human Subjects in Research at Harvard University,             1414 Massachusetts Avenue, Second Floor, Cambridge, MA 02138. Phone: 617-496-2847. Email: cuhs@fas.harvard.edu.</p>\n        ","response":0,"trial_type":"html-button-response","trial_index":1,"time_elapsed":241168,"internal_node_id":"0.0-1.0","params":{"nStudents":24,"maxFlips":30,"completionMinutes":45,"basePay":8,"maxBonus":9,"perTrialBonus":0.5,"perTrialBonusThreshold":0.05,"exampleCost":0.01},"classroomParams":{"A":{"a":1,"b":4},"B":{"a":4,"b":1},"C":{"a":2,"b":8},"D":{"a":8,"b":2}},"conditions":["nonSeqFull","nonSeqPartial","seqNoFeedback","seqFeedback"],"classroomPairings":[["A","B"],["C","D"]],"coinWeights":[0.2,0.5,0.8],"subjectId":"A1NFBKUYYVUYWF","assignmentId":"3Z4AIRP3C7ZJI684XAXPCBVV30G1XB","hitId":"3FJ2RVH25ZSYKBA8MWMNC8NVPF629N","url":"https://gershmanlab.com/experiments/alicia/teaching/experiment/?hitId=3FJ2RVH25ZSYKBA8MWMNC8NVPF629N&workerId=A1NFBKUYYVUYWF&assignmentId=3Z4AIRP3C7ZJI684XAXPCBVV30G1XB&a=3I4Z7&tp_a=3I4Z7&b=3Z4AIRP3C7ZJI684XAXPCBVV30G1XB&tp_b=3Z4AIRP3C7ZJI684XAXPCBVV30G1XB&c=365717&tp_c=365717"},{"view_history":[{"page_index":0,"viewing_time":7296},{"page_index":1,"viewing_time":13093},{"page_index":2,"viewing_time":37738},{"page_index":3,"viewing_time":30936},{"page_index":4,"viewing_time":21162},{"page_index":5,"viewing_time":30942},{"page_index":6,"viewing_time":45170}],"rt":186337,"trial_type":"instructions","trial_index":2,"time_elapsed":427506,"internal_node_id":"0.0-2.0-0.0","params":{"nStudents":24,"maxFlips":30,"completionMinutes":45,"basePay":8,"maxBonus":9,"perTrialBonus":0.5,"perTrialBonusThreshold":0.05,"exampleCost":0.01},"classroomParams":{"A":{"a":1,"b":4},"B":{"a":4,"b":1},"C":{"a":2,"b":8},"D":{"a":8,"b":2}},"conditions":["nonSeqFull","nonSeqPartial","seqNoFeedback","seqFeedback"],"classroomPairings":[["A","B"],["C","D"]],"coinWeights":[0.2,0.5,0.8],"subjectId":"A1NFBKUYYVUYWF","assignmentId":"3Z4AIRP3C7ZJI684XAXPCBVV30G1XB","hitId":"3FJ2RVH25ZSYKBA8MWMNC8NVPF629N","url":"https://gershmanlab.com/experiments/alicia/teaching/experiment/?hitId=3FJ2RVH25ZSYKBA8MWMNC8NVPF629N&workerId=A1NFBKUYYVUYWF&assignmentId=3Z4AIRP3C7ZJI684XAXPCBVV30G1XB&a=3I4Z7&tp_a=3I4Z7&b=3Z4AIRP3C7ZJI684XAXPCBVV30G1XB&tp_b=3Z4AIRP3C7ZJI684XAXPCBVV30G1XB&c=365717&tp_c=365717"},{"rt":164634,"response":{"Q0":"Students in different classrooms will have seen a different number of heads and tails before seeing the examples you select for them.","Q1":"By <b>considering the student's classroom information</b> so that I can teach efficiently and accurately/helpfully at the same time (because each example I give to the student costs money!).","Q2":"The coin lands heads 90% of the time.","Q3":"No, I will teach a <b>new</b> student each time.","Q4":"The students are also on the same alien planet as you, where coins can be unfair.","Q5":"Based on the student's second (and final) guess."},"question_order":[3,4,5,1,0,2],"trial_type":"survey-multi-choice","trial_index":3,"time_elapsed":592143,"internal_node_id":"0.0-2.0-1.0","params":{"nStudents":24,"maxFlips":30,"completionMinutes":45,"basePay":8,"maxBonus":9,"perTrialBonus":0.5,"perTrialBonusThreshold":0.05,"exampleCost":0.01},"classroomParams":{"A":{"a":1,"b":4},"B":{"a":4,"b":1},"C":{"a":2,"b":8},"D":{"a":8,"b":2}},"conditions":["nonSeqFull","nonSeqPartial","seqNoFeedback","seqFeedback"],"classroomPairings":[["A","B"],["C","D"]],"coinWeights":[0.2,0.5,0.8],"subjectId":"A1NFBKUYYVUYWF","assignmentId":"3Z4AIRP3C7ZJI684XAXPCBVV30G1XB","hitId":"3FJ2RVH25ZSYKBA8MWMNC8NVPF629N","url":"https://gershmanlab.com/experiments/alicia/teaching/experiment/?hitId=3FJ2RVH25ZSYKBA8MWMNC8NVPF629N&workerId=A1NFBKUYYVUYWF&assignmentId=3Z4AIRP3C7ZJI684XAXPCBVV30G1XB&a=3I4Z7&tp_a=3I4Z7&b=3Z4AIRP3C7ZJI684XAXPCBVV30G1XB&tp_b=3Z4AIRP3C7ZJI684XAXPCBVV30G1XB&c=365717&tp_c=365717","pass":true},{"rt":null,"stimulus":"<div style=\"font-size:30px;\">Congrats on passing the comprehension quiz! The experiment will begin in a few seconds.</div>","response":null,"trial_type":"html-keyboard-response","trial_index":4,"time_elapsed":595159,"internal_node_id":"0.0-3.0","params":{"nStudents":24,"maxFlips":30,"completionMinutes":45,"basePay":8,"maxBonus":9,"perTrialBonus":0.5,"perTrialBonusThreshold":0.05,"exampleCost":0.01},"classroomParams":{"A":{"a":1,"b":4},"B":{"a":4,"b":1},"C":{"a":2,"b":8},"D":{"a":8,"b":2}},"conditions":["nonSeqFull","nonSeqPartial","seqNoFeedback","seqFeedback"],"classroomPairings":[["A","B"],["C","D"]],"coinWeights":[0.2,0.5,0.8],"subjectId":"A1NFBKUYYVUYWF","assignmentId":"3Z4AIRP3C7ZJI684XAXPCBVV30G1XB","hitId":"3FJ2RVH25ZSYKBA8MWMNC8NVPF629N","url":"https://gershmanlab.com/experiments/alicia/teaching/experiment/?hitId=3FJ2RVH25ZSYKBA8MWMNC8NVPF629N&workerId=A1NFBKUYYVUYWF&assignmentId=3Z4AIRP3C7ZJI684XAXPCBVV30G1XB&a=3I4Z7&tp_a=3I4Z7&b=3Z4AIRP3C7ZJI684XAXPCBVV30G1XB&tp_b=3Z4AIRP3C7ZJI684XAXPCBVV30G1XB&c=365717&tp_c=365717"},{"rt":null,"stimulus":"<div style=\"font-size:50px;\">First student</div>","response":null,"trial_type":"html-keyboard-response","trial_index":5,"time_elapsed":598171,"internal_node_id":"0.0-4.0","params":{"nStudents":24,"maxFlips":30,"completionMinutes":45,"basePay":8,"maxBonus":9,"perTrialBonus":0.5,"perTrialBonusThreshold":0.05,"exampleCost":0.01},"classroomParams":{"A":{"a":1,"b":4},"B":{"a":4,"b":1},"C":{"a":2,"b":8},"D":{"a":8,"b":2}},"conditions":["nonSeqFull","nonSeqPartial","seqNoFeedback","seqFeedback"],"classroomPairings":[["A","B"],["C","D"]],"coinWeights":[0.2,0.5,0.8],"subjectId":"A1NFBKUYYVUYWF","assignmentId":"3Z4AIRP3C7ZJI684XAXPCBVV30G1XB","hitId":"3FJ2RVH25ZSYKBA8MWMNC8NVPF629N","url":"https://gershmanlab.com/experiments/alicia/teaching/experiment/?hitId=3FJ2RVH25ZSYKBA8MWMNC8NVPF629N&workerId=A1NFBKUYYVUYWF&assignmentId=3Z4AIRP3C7ZJI684XAXPCBVV30G1XB&a=3I4Z7&tp_a=3I4Z7&b=3Z4AIRP3C7ZJI684XAXPCBVV30G1XB&tp_b=3Z4AIRP3C7ZJI684XAXPCBVV30G1XB&c=365717&tp_c=365717"},{"rt":26500,"stimulus":"\n            <h4 style=\"color:Orange;\">Student 1</h4>\n            <h2>The weight of your coin is <b style=\"color:Tomato;\">0.8</b>.</h2>\n            <p>In this block, you will be giving <b>two</b> sets of examples to Student 1.</p>\n                <p>You will see the student's guess after the first set of examples. You will also receive feedback at the end of the block.</p>\n            <p>To earn the highest bonus, you will have to <b>take into consideration the student's guess</b> when you choose your second set of examples.</p>","response":0,"trial_type":"html-button-response","trial_index":6,"time_elapsed":624673,"internal_node_id":"0.0-5.0","params":{"nStudents":24,"maxFlips":30,"completionMinutes":45,"basePay":8,"maxBonus":9,"perTrialBonus":0.5,"perTrialBonusThreshold":0.05,"exampleCost":0.01},"classroomParams":{"A":{"a":1,"b":4},"B":{"a":4,"b":1},"C":{"a":2,"b":8},"D":{"a":8,"b":2}},"conditions":["nonSeqFull","nonSeqPartial","seqNoFeedback","seqFeedback"],"classroomPairings":[["A","B"],["C","D"]],"coinWeights":[0.2,0.5,0.8],"subjectId":"A1NFBKUYYVUYWF","assignmentId":"3Z4AIRP3C7ZJI684XAXPCBVV30G1XB","hitId":"3FJ2RVH25ZSYKBA8MWMNC8NVPF629N","url":"https://gershmanlab.com/experiments/alicia/teaching/experiment/?hitId=3FJ2RVH25ZSYKBA8MWMNC8NVPF629N&workerId=A1NFBKUYYVUYWF&assignmentId=3Z4AIRP3C7ZJI684XAXPCBVV30G1XB&a=3I4Z7&tp_a=3I4Z7&b=3Z4AIRP3C7ZJI684XAXPCBVV30G1XB&tp_b=3Z4AIRP3C7ZJI684XAXPCBVV30G1XB&c=365717&tp_c=365717"},{"rt":37997,"response":{"heads":"10","tails":"1"},"type":"response","condition":"seqFeedback","trueTheta":0.8,"classrooms":["A","B"],"studentTrueClassroom":"B","exampleSet":"first","trial_type":"survey-html-form","trial_index":7,"time_elapsed":662688,"internal_node_id":"0.0-6.0-0.0","params":{"nStudents":24,"maxFlips":30,"completionMinutes":45,"basePay":8,"maxBonus":9,"perTrialBonus":0.5,"perTrialBonusThreshold":0.05,"exampleCost":0.01},"classroomParams":{"A":{"a":1,"b":4},"B":{"a":4,"b":1},"C":{"a":2,"b":8},"D":{"a":8,"b":2}},"conditions":["nonSeqFull","nonSeqPartial","seqNoFeedback","seqFeedback"],"classroomPairings":[["A","B"],["C","D"]],"coinWeights":[0.2,0.5,0.8],"subjectId":"A1NFBKUYYVUYWF","assignmentId":"3Z4AIRP3C7ZJI684XAXPCBVV30G1XB","hitId":"3FJ2RVH25ZSYKBA8MWMNC8NVPF629N","url":"https://gershmanlab.com/experiments/alicia/teaching/experiment/?hitId=3FJ2RVH25ZSYKBA8MWMNC8NVPF629N&workerId=A1NFBKUYYVUYWF&assignmentId=3Z4AIRP3C7ZJI684XAXPCBVV30G1XB&a=3I4Z7&tp_a=3I4Z7&b=3Z4AIRP3C7ZJI684XAXPCBVV30G1XB&tp_b=3Z4AIRP3C7ZJI684XAXPCBVV30G1XB&c=365717&tp_c=365717","heads":10,"tails":1,"studentIndex":0,"studentTrueHypers":{"a":4,"b":1},"studentGuess":0.875,"delta":0.07499999999999996,"totalExamples":11,"bonusSoFar":0},{"rt":null,"stimulus":"Sending examples to student... ","response":null,"trial_type":"html-keyboard-response","trial_index":8,"time_elapsed":663950,"internal_node_id":"0.0-7.0","params":{"nStudents":24,"maxFlips":30,"completionMinutes":45,"basePay":8,"maxBonus":9,"perTrialBonus":0.5,"perTrialBonusThreshold":0.05,"exampleCost":0.01},"classroomParams":{"A":{"a":1,"b":4},"B":{"a":4,"b":1},"C":{"a":2,"b":8},"D":{"a":8,"b":2}},"conditions":["nonSeqFull","nonSeqPartial","seqNoFeedback","seqFeedback"],"classroomPairings":[["A","B"],["C","D"]],"coinWeights":[0.2,0.5,0.8],"subjectId":"A1NFBKUYYVUYWF","assignmentId":"3Z4AIRP3C7ZJI684XAXPCBVV30G1XB","hitId":"3FJ2RVH25ZSYKBA8MWMNC8NVPF629N","url":"https://gershmanlab.com/experiments/alicia/teaching/experiment/?hitId=3FJ2RVH25ZSYKBA8MWMNC8NVPF629N&workerId=A1NFBKUYYVUYWF&assignmentId=3Z4AIRP3C7ZJI684XAXPCBVV30G1XB&a=3I4Z7&tp_a=3I4Z7&b=3Z4AIRP3C7ZJI684XAXPCBVV30G1XB&tp_b=3Z4AIRP3C7ZJI684XAXPCBVV30G1XB&c=365717&tp_c=365717"},{"rt":null,"stimulus":"Examples sent to student! Waiting for student...","response":null,"trial_type":"html-keyboard-response","trial_index":9,"time_elapsed":668962,"internal_node_id":"0.0-8.0","params":{"nStudents":24,"maxFlips":30,"completionMinutes":45,"basePay":8,"maxBonus":9,"perTrialBonus":0.5,"perTrialBonusThreshold":0.05,"exampleCost":0.01},"classroomParams":{"A":{"a":1,"b":4},"B":{"a":4,"b":1},"C":{"a":2,"b":8},"D":{"a":8,"b":2}},"conditions":["nonSeqFull","nonSeqPartial","seqNoFeedback","seqFeedback"],"classroomPairings":[["A","B"],["C","D"]],"coinWeights":[0.2,0.5,0.8],"subjectId":"A1NFBKUYYVUYWF","assignmentId":"3Z4AIRP3C7ZJI684XAXPCBVV30G1XB","hitId":"3FJ2RVH25ZSYKBA8MWMNC8NVPF629N","url":"https://gershmanlab.com/experiments/alicia/teaching/experiment/?hitId=3FJ2RVH25ZSYKBA8MWMNC8NVPF629N&workerId=A1NFBKUYYVUYWF&assignmentId=3Z4AIRP3C7ZJI684XAXPCBVV30G1XB&a=3I4Z7&tp_a=3I4Z7&b=3Z4AIRP3C7ZJI684XAXPCBVV30G1XB&tp_b=3Z4AIRP3C7ZJI684XAXPCBVV30G1XB&c=365717&tp_c=365717"},{"rt":9995,"stimulus":"\n                <p>Student's guess for coin weight: <b style=\"color:Tomato;\">0.88</b></p>\n                <p></b></p>\n                <p>You will now send another set of examples to your student. <b>Remember to take your student's guess into consideration so that you can earn the highest bonus possible!</b> </p>\n                <p>Press any key to continue.</p>\n                ","response":";","trial_type":"html-keyboard-response","trial_index":10,"time_elapsed":678958,"internal_node_id":"0.0-9.0","params":{"nStudents":24,"maxFlips":30,"completionMinutes":45,"basePay":8,"maxBonus":9,"perTrialBonus":0.5,"perTrialBonusThreshold":0.05,"exampleCost":0.01},"classroomParams":{"A":{"a":1,"b":4},"B":{"a":4,"b":1},"C":{"a":2,"b":8},"D":{"a":8,"b":2}},"conditions":["nonSeqFull","nonSeqPartial","seqNoFeedback","seqFeedback"],"classroomPairings":[["A","B"],["C","D"]],"coinWeights":[0.2,0.5,0.8],"subjectId":"A1NFBKUYYVUYWF","assignmentId":"3Z4AIRP3C7ZJI684XAXPCBVV30G1XB","hitId":"3FJ2RVH25ZSYKBA8MWMNC8NVPF629N","url":"https://gershmanlab.com/experiments/alicia/teaching/experiment/?hitId=3FJ2RVH25ZSYKBA8MWMNC8NVPF629N&workerId=A1NFBKUYYVUYWF&assignmentId=3Z4AIRP3C7ZJI684XAXPCBVV30G1XB&a=3I4Z7&tp_a=3I4Z7&b=3Z4AIRP3C7ZJI684XAXPCBVV30G1XB&tp_b=3Z4AIRP3C7ZJI684XAXPCBVV30G1XB&c=365717&tp_c=365717"},{"rt":24444,"response":{"heads":"8","tails":"0"},"type":"response","condition":"seqFeedback","trueTheta":0.8,"classrooms":["A","B"],"studentTrueClassroom":"B","exampleSet":"second","trial_type":"survey-html-form","trial_index":11,"time_elapsed":703405,"internal_node_id":"0.0-10.0-0.0","params":{"nStudents":24,"maxFlips":30,"completionMinutes":45,"basePay":8,"maxBonus":9,"perTrialBonus":0.5,"perTrialBonusThreshold":0.05,"exampleCost":0.01},"classroomParams":{"A":{"a":1,"b":4},"B":{"a":4,"b":1},"C":{"a":2,"b":8},"D":{"a":8,"b":2}},"conditions":["nonSeqFull","nonSeqPartial","seqNoFeedback","seqFeedback"],"classroomPairings":[["A","B"],["C","D"]],"coinWeights":[0.2,0.5,0.8],"subjectId":"A1NFBKUYYVUYWF","assignmentId":"3Z4AIRP3C7ZJI684XAXPCBVV30G1XB","hitId":"3FJ2RVH25ZSYKBA8MWMNC8NVPF629N","url":"https://gershmanlab.com/experiments/alicia/teaching/experiment/?hitId=3FJ2RVH25ZSYKBA8MWMNC8NVPF629N&workerId=A1NFBKUYYVUYWF&assignmentId=3Z4AIRP3C7ZJI684XAXPCBVV30G1XB&a=3I4Z7&tp_a=3I4Z7&b=3Z4AIRP3C7ZJI684XAXPCBVV30G1XB&tp_b=3Z4AIRP3C7ZJI684XAXPCBVV30G1XB&c=365717&tp_c=365717","firstResponseHeads":10,"firstResponseTails":1,"secondResponseHeads":8,"secondResponseTails":0,"totalHeads":18,"totalTails":1,"studentIndex":0,"studentTrueHypers":{"a":4,"b":1},"studentGuess":0.9166666666666666,"delta":0.11666666666666659,"bonus":0,"bonusSoFar":0,"totalExamples":19},{"rt":null,"stimulus":"Sending examples to student... ","response":null,"trial_type":"html-keyboard-response","trial_index":12,"time_elapsed":705169,"internal_node_id":"0.0-11.0","params":{"nStudents":24,"maxFlips":30,"completionMinutes":45,"basePay":8,"maxBonus":9,"perTrialBonus":0.5,"perTrialBonusThreshold":0.05,"exampleCost":0.01},"classroomParams":{"A":{"a":1,"b":4},"B":{"a":4,"b":1},"C":{"a":2,"b":8},"D":{"a":8,"b":2}},"conditions":["nonSeqFull","nonSeqPartial","seqNoFeedback","seqFeedback"],"classroomPairings":[["A","B"],["C","D"]],"coinWeights":[0.2,0.5,0.8],"subjectId":"A1NFBKUYYVUYWF","assignmentId":"3Z4AIRP3C7ZJI684XAXPCBVV30G1XB","hitId":"3FJ2RVH25ZSYKBA8MWMNC8NVPF629N","url":"https://gershmanlab.com/experiments/alicia/teaching/experiment/?hitId=3FJ2RVH25ZSYKBA8MWMNC8NVPF629N&workerId=A1NFBKUYYVUYWF&assignmentId=3Z4AIRP3C7ZJI684XAXPCBVV30G1XB&a=3I4Z7&tp_a=3I4Z7&b=3Z4AIRP3C7ZJI684XAXPCBVV30G1XB&tp_b=3Z4AIRP3C7ZJI684XAXPCBVV30G1XB&c=365717&tp_c=365717"},{"rt":null,"stimulus":"Examples sent to student! Waiting for student...","response":null,"trial_type":"html-keyboard-response","trial_index":13,"time_elapsed":709178,"internal_node_id":"0.0-12.0","params":{"nStudents":24,"maxFlips":30,"completionMinutes":45,"basePay":8,"maxBonus":9,"perTrialBonus":0.5,"perTrialBonusThreshold":0.05,"exampleCost":0.01},"classroomParams":{"A":{"a":1,"b":4},"B":{"a":4,"b":1},"C":{"a":2,"b":8},"D":{"a":8,"b":2}},"conditions":["nonSeqFull","nonSeqPartial","seqNoFeedback","seqFeedback"],"classroomPairings":[["A","B"],["C","D"]],"coinWeights":[0.2,0.5,0.8],"subjectId":"A1NFBKUYYVUYWF","assignmentId":"3Z4AIRP3C7ZJI684XAXPCBVV30G1XB","hitId":"3FJ2RVH25ZSYKBA8MWMNC8NVPF629N","url":"https://gershmanlab.com/experiments/alicia/teaching/experiment/?hitId=3FJ2RVH25ZSYKBA8MWMNC8NVPF629N&workerId=A1NFBKUYYVUYWF&assignmentId=3Z4AIRP3C7ZJI684XAXPCBVV30G1XB&a=3I4Z7&tp_a=3I4Z7&b=3Z4AIRP3C7ZJI684XAXPCBVV30G1XB&tp_b=3Z4AIRP3C7ZJI684XAXPCBVV30G1XB&c=365717&tp_c=365717"},{"rt":4866,"stimulus":"\n                <p>Student 1's first guess for coin weight: <b style=\"color:Tomato\";>0.88</b></p>\n                <p>Student 1's second guess for coin weight: <b style=\"color:Tomato\";>0.92</b></p>\n                <p>You received a bonus of <b>$0.00</b> based on the student's second guess.</p>\n                <p>Total bonus so far: <b>$0.00</b></p>\n                <p>Press any key to continue.</p>\n                ","response":"l","trial_type":"html-keyboard-response","trial_index":14,"time_elapsed":714046,"internal_node_id":"0.0-13.0","params":{"nStudents":24,"maxFlips":30,"completionMinutes":45,"basePay":8,"maxBonus":9,"perTrialBonus":0.5,"perTrialBonusThreshold":0.05,"exampleCost":0.01},"classroomParams":{"A":{"a":1,"b":4},"B":{"a":4,"b":1},"C":{"a":2,"b":8},"D":{"a":8,"b":2}},"conditions":["nonSeqFull","nonSeqPartial","seqNoFeedback","seqFeedback"],"classroomPairings":[["A","B"],["C","D"]],"coinWeights":[0.2,0.5,0.8],"subjectId":"A1NFBKUYYVUYWF","assignmentId":"3Z4AIRP3C7ZJI684XAXPCBVV30G1XB","hitId":"3FJ2RVH25ZSYKBA8MWMNC8NVPF629N","url":"https://gershmanlab.com/experiments/alicia/teaching/experiment/?hitId=3FJ2RVH25ZSYKBA8MWMNC8NVPF629N&workerId=A1NFBKUYYVUYWF&assignmentId=3Z4AIRP3C7ZJI684XAXPCBVV30G1XB&a=3I4Z7&tp_a=3I4Z7&b=3Z4AIRP3C7ZJI684XAXPCBVV30G1XB&tp_b=3Z4AIRP3C7ZJI684XAXPCBVV30G1XB&c=365717&tp_c=365717"},{"rt":null,"stimulus":"<div style=\"font-size:60px;\">Next student</div>","response":null,"trial_type":"html-keyboard-response","trial_index":15,"time_elapsed":717057,"internal_node_id":"0.0-14.0-0.0","params":{"nStudents":24,"maxFlips":30,"completionMinutes":45,"basePay":8,"maxBonus":9,"perTrialBonus":0.5,"perTrialBonusThreshold":0.05,"exampleCost":0.01},"classroomParams":{"A":{"a":1,"b":4},"B":{"a":4,"b":1},"C":{"a":2,"b":8},"D":{"a":8,"b":2}},"conditions":["nonSeqFull","nonSeqPartial","seqNoFeedback","seqFeedback"],"classroomPairings":[["A","B"],["C","D"]],"coinWeights":[0.2,0.5,0.8],"subjectId":"A1NFBKUYYVUYWF","assignmentId":"3Z4AIRP3C7ZJI684XAXPCBVV30G1XB","hitId":"3FJ2RVH25ZSYKBA8MWMNC8NVPF629N","url":"https://gershmanlab.com/experiments/alicia/teaching/experiment/?hitId=3FJ2RVH25ZSYKBA8MWMNC8NVPF629N&workerId=A1NFBKUYYVUYWF&assignmentId=3Z4AIRP3C7ZJI684XAXPCBVV30G1XB&a=3I4Z7&tp_a=3I4Z7&b=3Z4AIRP3C7ZJI684XAXPCBVV30G1XB&tp_b=3Z4AIRP3C7ZJI684XAXPCBVV30G1XB&c=365717&tp_c=365717"},{"rt":4678,"stimulus":"\n            <h4 style=\"color:Orange;\">Student 2</h4>\n            <h2>The weight of your coin is <b style=\"color:Tomato;\">0.8</b>.</h2>\n            <p>In this block, you will be giving <b>one</b> set of examples to Student 2.</p>\n                <p>You will receive feedback at the end of the block.</p>\n            <p></p>","response":0,"trial_type":"html-button-response","trial_index":16,"time_elapsed":721737,"internal_node_id":"0.0-15.0","params":{"nStudents":24,"maxFlips":30,"completionMinutes":45,"basePay":8,"maxBonus":9,"perTrialBonus":0.5,"perTrialBonusThreshold":0.05,"exampleCost":0.01},"classroomParams":{"A":{"a":1,"b":4},"B":{"a":4,"b":1},"C":{"a":2,"b":8},"D":{"a":8,"b":2}},"conditions":["nonSeqFull","nonSeqPartial","seqNoFeedback","seqFeedback"],"classroomPairings":[["A","B"],["C","D"]],"coinWeights":[0.2,0.5,0.8],"subjectId":"A1NFBKUYYVUYWF","assignmentId":"3Z4AIRP3C7ZJI684XAXPCBVV30G1XB","hitId":"3FJ2RVH25ZSYKBA8MWMNC8NVPF629N","url":"https://gershmanlab.com/experiments/alicia/teaching/experiment/?hitId=3FJ2RVH25ZSYKBA8MWMNC8NVPF629N&workerId=A1NFBKUYYVUYWF&assignmentId=3Z4AIRP3C7ZJI684XAXPCBVV30G1XB&a=3I4Z7&tp_a=3I4Z7&b=3Z4AIRP3C7ZJI684XAXPCBVV30G1XB&tp_b=3Z4AIRP3C7ZJI684XAXPCBVV30G1XB&c=365717&tp_c=365717"},{"rt":36178,"response":{"heads":"8","tails":"2"},"type":"response","condition":"nonSeqPartial","trueTheta":0.8,"classrooms":["A","B"],"studentTrueClassroom":"A","exampleSet":"first","trial_type":"survey-html-form","trial_index":17,"time_elapsed":757916,"internal_node_id":"0.0-16.0-0.0","params":{"nStudents":24,"maxFlips":30,"completionMinutes":45,"basePay":8,"maxBonus":9,"perTrialBonus":0.5,"perTrialBonusThreshold":0.05,"exampleCost":0.01},"classroomParams":{"A":{"a":1,"b":4},"B":{"a":4,"b":1},"C":{"a":2,"b":8},"D":{"a":8,"b":2}},"conditions":["nonSeqFull","nonSeqPartial","seqNoFeedback","seqFeedback"],"classroomPairings":[["A","B"],["C","D"]],"coinWeights":[0.2,0.5,0.8],"subjectId":"A1NFBKUYYVUYWF","assignmentId":"3Z4AIRP3C7ZJI684XAXPCBVV30G1XB","hitId":"3FJ2RVH25ZSYKBA8MWMNC8NVPF629N","url":"https://gershmanlab.com/experiments/alicia/teaching/experiment/?hitId=3FJ2RVH25ZSYKBA8MWMNC8NVPF629N&workerId=A1NFBKUYYVUYWF&assignmentId=3Z4AIRP3C7ZJI684XAXPCBVV30G1XB&a=3I4Z7&tp_a=3I4Z7&b=3Z4AIRP3C7ZJI684XAXPCBVV30G1XB&tp_b=3Z4AIRP3C7ZJI684XAXPCBVV30G1XB&c=365717&tp_c=365717","heads":8,"tails":2,"studentIndex":1,"studentTrueHypers":{"a":1,"b":4},"studentGuess":0.6,"delta":0.20000000000000007,"totalExamples":10,"bonus":0,"bonusSoFar":0},{"rt":null,"stimulus":"Sending examples to student... ","response":null,"trial_type":"html-keyboard-response","trial_index":18,"time_elapsed":759170,"internal_node_id":"0.0-17.0","params":{"nStudents":24,"maxFlips":30,"completionMinutes":45,"basePay":8,"maxBonus":9,"perTrialBonus":0.5,"perTrialBonusThreshold":0.05,"exampleCost":0.01},"classroomParams":{"A":{"a":1,"b":4},"B":{"a":4,"b":1},"C":{"a":2,"b":8},"D":{"a":8,"b":2}},"conditions":["nonSeqFull","nonSeqPartial","seqNoFeedback","seqFeedback"],"classroomPairings":[["A","B"],["C","D"]],"coinWeights":[0.2,0.5,0.8],"subjectId":"A1NFBKUYYVUYWF","assignmentId":"3Z4AIRP3C7ZJI684XAXPCBVV30G1XB","hitId":"3FJ2RVH25ZSYKBA8MWMNC8NVPF629N","url":"https://gershmanlab.com/experiments/alicia/teaching/experiment/?hitId=3FJ2RVH25ZSYKBA8MWMNC8NVPF629N&workerId=A1NFBKUYYVUYWF&assignmentId=3Z4AIRP3C7ZJI684XAXPCBVV30G1XB&a=3I4Z7&tp_a=3I4Z7&b=3Z4AIRP3C7ZJI684XAXPCBVV30G1XB&tp_b=3Z4AIRP3C7ZJI684XAXPCBVV30G1XB&c=365717&tp_c=365717"},{"rt":null,"stimulus":"Examples sent to student! Waiting for student...","response":null,"trial_type":"html-keyboard-response","trial_index":19,"time_elapsed":764685,"internal_node_id":"0.0-18.0","params":{"nStudents":24,"maxFlips":30,"completionMinutes":45,"basePay":8,"maxBonus":9,"perTrialBonus":0.5,"perTrialBonusThreshold":0.05,"exampleCost":0.01},"classroomParams":{"A":{"a":1,"b":4},"B":{"a":4,"b":1},"C":{"a":2,"b":8},"D":{"a":8,"b":2}},"conditions":["nonSeqFull","nonSeqPartial","seqNoFeedback","seqFeedback"],"classroomPairings":[["A","B"],["C","D"]],"coinWeights":[0.2,0.5,0.8],"subjectId":"A1NFBKUYYVUYWF","assignmentId":"3Z4AIRP3C7ZJI684XAXPCBVV30G1XB","hitId":"3FJ2RVH25ZSYKBA8MWMNC8NVPF629N","url":"https://gershmanlab.com/experiments/alicia/teaching/experiment/?hitId=3FJ2RVH25ZSYKBA8MWMNC8NVPF629N&workerId=A1NFBKUYYVUYWF&assignmentId=3Z4AIRP3C7ZJI684XAXPCBVV30G1XB&a=3I4Z7&tp_a=3I4Z7&b=3Z4AIRP3C7ZJI684XAXPCBVV30G1XB&tp_b=3Z4AIRP3C7ZJI684XAXPCBVV30G1XB&c=365717&tp_c=365717"},{"rt":7614,"stimulus":"\n                <p>Student's guess for coin weight: <b style=\"color:Tomato;\">0.60</b></p>\n                <p>You received a bonus of <b>$0</b>. Total bonus so far: <b>$0.00</b></b></p>\n                <p></p>\n                <p>Press any key to continue.</p>\n                ","response":"l","trial_type":"html-keyboard-response","trial_index":20,"time_elapsed":772301,"internal_node_id":"0.0-19.0","params":{"nStudents":24,"maxFlips":30,"completionMinutes":45,"basePay":8,"maxBonus":9,"perTrialBonus":0.5,"perTrialBonusThreshold":0.05,"exampleCost":0.01},"classroomParams":{"A":{"a":1,"b":4},"B":{"a":4,"b":1},"C":{"a":2,"b":8},"D":{"a":8,"b":2}},"conditions":["nonSeqFull","nonSeqPartial","seqNoFeedback","seqFeedback"],"classroomPairings":[["A","B"],["C","D"]],"coinWeights":[0.2,0.5,0.8],"subjectId":"A1NFBKUYYVUYWF","assignmentId":"3Z4AIRP3C7ZJI684XAXPCBVV30G1XB","hitId":"3FJ2RVH25ZSYKBA8MWMNC8NVPF629N","url":"https://gershmanlab.com/experiments/alicia/teaching/experiment/?hitId=3FJ2RVH25ZSYKBA8MWMNC8NVPF629N&workerId=A1NFBKUYYVUYWF&assignmentId=3Z4AIRP3C7ZJI684XAXPCBVV30G1XB&a=3I4Z7&tp_a=3I4Z7&b=3Z4AIRP3C7ZJI684XAXPCBVV30G1XB&tp_b=3Z4AIRP3C7ZJI684XAXPCBVV30G1XB&c=365717&tp_c=365717"},{"rt":null,"stimulus":"<div style=\"font-size:60px;\">Next student</div>","response":null,"trial_type":"html-keyboard-response","trial_index":21,"time_elapsed":775316,"internal_node_id":"0.0-20.0-0.0","params":{"nStudents":24,"maxFlips":30,"completionMinutes":45,"basePay":8,"maxBonus":9,"perTrialBonus":0.5,"perTrialBonusThreshold":0.05,"exampleCost":0.01},"classroomParams":{"A":{"a":1,"b":4},"B":{"a":4,"b":1},"C":{"a":2,"b":8},"D":{"a":8,"b":2}},"conditions":["nonSeqFull","nonSeqPartial","seqNoFeedback","seqFeedback"],"classroomPairings":[["A","B"],["C","D"]],"coinWeights":[0.2,0.5,0.8],"subjectId":"A1NFBKUYYVUYWF","assignmentId":"3Z4AIRP3C7ZJI684XAXPCBVV30G1XB","hitId":"3FJ2RVH25ZSYKBA8MWMNC8NVPF629N","url":"https://gershmanlab.com/experiments/alicia/teaching/experiment/?hitId=3FJ2RVH25ZSYKBA8MWMNC8NVPF629N&workerId=A1NFBKUYYVUYWF&assignmentId=3Z4AIRP3C7ZJI684XAXPCBVV30G1XB&a=3I4Z7&tp_a=3I4Z7&b=3Z4AIRP3C7ZJI684XAXPCBVV30G1XB&tp_b=3Z4AIRP3C7ZJI684XAXPCBVV30G1XB&c=365717&tp_c=365717"},{"rt":6413,"stimulus":"\n            <h4 style=\"color:Orange;\">Student 3</h4>\n            <h2>The weight of your coin is <b style=\"color:Tomato;\">0.2</b>.</h2>\n            <p>In this block, you will be giving <b>two</b> sets of examples to Student 3.</p>\n                <p>You will see the student's guess after the first set of examples. You will also receive feedback at the end of the block.</p>\n            <p>To earn the highest bonus, you will have to <b>take into consideration the student's guess</b> when you choose your second set of examples.</p>","response":0,"trial_type":"html-button-response","trial_index":22,"time_elapsed":781731,"internal_node_id":"0.0-21.0","params":{"nStudents":24,"maxFlips":30,"completionMinutes":45,"basePay":8,"maxBonus":9,"perTrialBonus":0.5,"perTrialBonusThreshold":0.05,"exampleCost":0.01},"classroomParams":{"A":{"a":1,"b":4},"B":{"a":4,"b":1},"C":{"a":2,"b":8},"D":{"a":8,"b":2}},"conditions":["nonSeqFull","nonSeqPartial","seqNoFeedback","seqFeedback"],"classroomPairings":[["A","B"],["C","D"]],"coinWeights":[0.2,0.5,0.8],"subjectId":"A1NFBKUYYVUYWF","assignmentId":"3Z4AIRP3C7ZJI684XAXPCBVV30G1XB","hitId":"3FJ2RVH25ZSYKBA8MWMNC8NVPF629N","url":"https://gershmanlab.com/experiments/alicia/teaching/experiment/?hitId=3FJ2RVH25ZSYKBA8MWMNC8NVPF629N&workerId=A1NFBKUYYVUYWF&assignmentId=3Z4AIRP3C7ZJI684XAXPCBVV30G1XB&a=3I4Z7&tp_a=3I4Z7&b=3Z4AIRP3C7ZJI684XAXPCBVV30G1XB&tp_b=3Z4AIRP3C7ZJI684XAXPCBVV30G1XB&c=365717&tp_c=365717"},{"rt":18847,"response":{"heads":"2","tails":"8"},"type":"response","condition":"seqFeedback","trueTheta":0.2,"classrooms":["C","D"],"studentTrueClassroom":"C","exampleSet":"first","trial_type":"survey-html-form","trial_index":23,"time_elapsed":800579,"internal_node_id":"0.0-22.0-0.0","params":{"nStudents":24,"maxFlips":30,"completionMinutes":45,"basePay":8,"maxBonus":9,"perTrialBonus":0.5,"perTrialBonusThreshold":0.05,"exampleCost":0.01},"classroomParams":{"A":{"a":1,"b":4},"B":{"a":4,"b":1},"C":{"a":2,"b":8},"D":{"a":8,"b":2}},"conditions":["nonSeqFull","nonSeqPartial","seqNoFeedback","seqFeedback"],"classroomPairings":[["A","B"],["C","D"]],"coinWeights":[0.2,0.5,0.8],"subjectId":"A1NFBKUYYVUYWF","assignmentId":"3Z4AIRP3C7ZJI684XAXPCBVV30G1XB","hitId":"3FJ2RVH25ZSYKBA8MWMNC8NVPF629N","url":"https://gershmanlab.com/experiments/alicia/teaching/experiment/?hitId=3FJ2RVH25ZSYKBA8MWMNC8NVPF629N&workerId=A1NFBKUYYVUYWF&assignmentId=3Z4AIRP3C7ZJI684XAXPCBVV30G1XB&a=3I4Z7&tp_a=3I4Z7&b=3Z4AIRP3C7ZJI684XAXPCBVV30G1XB&tp_b=3Z4AIRP3C7ZJI684XAXPCBVV30G1XB&c=365717&tp_c=365717","heads":2,"tails":8,"studentIndex":2,"studentTrueHypers":{"a":2,"b":8},"studentGuess":0.2,"delta":0,"totalExamples":10,"bonusSoFar":0},{"rt":null,"stimulus":"Sending examples to student... ","response":null,"trial_type":"html-keyboard-response","trial_index":24,"time_elapsed":802582,"internal_node_id":"0.0-23.0","params":{"nStudents":24,"maxFlips":30,"completionMinutes":45,"basePay":8,"maxBonus":9,"perTrialBonus":0.5,"perTrialBonusThreshold":0.05,"exampleCost":0.01},"classroomParams":{"A":{"a":1,"b":4},"B":{"a":4,"b":1},"C":{"a":2,"b":8},"D":{"a":8,"b":2}},"conditions":["nonSeqFull","nonSeqPartial","seqNoFeedback","seqFeedback"],"classroomPairings":[["A","B"],["C","D"]],"coinWeights":[0.2,0.5,0.8],"subjectId":"A1NFBKUYYVUYWF","assignmentId":"3Z4AIRP3C7ZJI684XAXPCBVV30G1XB","hitId":"3FJ2RVH25ZSYKBA8MWMNC8NVPF629N","url":"https://gershmanlab.com/experiments/alicia/teaching/experiment/?hitId=3FJ2RVH25ZSYKBA8MWMNC8NVPF629N&workerId=A1NFBKUYYVUYWF&assignmentId=3Z4AIRP3C7ZJI684XAXPCBVV30G1XB&a=3I4Z7&tp_a=3I4Z7&b=3Z4AIRP3C7ZJI684XAXPCBVV30G1XB&tp_b=3Z4AIRP3C7ZJI684XAXPCBVV30G1XB&c=365717&tp_c=365717"},{"rt":null,"stimulus":"Examples sent to student! Waiting for student...","response":null,"trial_type":"html-keyboard-response","trial_index":25,"time_elapsed":806584,"internal_node_id":"0.0-24.0","params":{"nStudents":24,"maxFlips":30,"completionMinutes":45,"basePay":8,"maxBonus":9,"perTrialBonus":0.5,"perTrialBonusThreshold":0.05,"exampleCost":0.01},"classroomParams":{"A":{"a":1,"b":4},"B":{"a":4,"b":1},"C":{"a":2,"b":8},"D":{"a":8,"b":2}},"conditions":["nonSeqFull","nonSeqPartial","seqNoFeedback","seqFeedback"],"classroomPairings":[["A","B"],["C","D"]],"coinWeights":[0.2,0.5,0.8],"subjectId":"A1NFBKUYYVUYWF","assignmentId":"3Z4AIRP3C7ZJI684XAXPCBVV30G1XB","hitId":"3FJ2RVH25ZSYKBA8MWMNC8NVPF629N","url":"https://gershmanlab.com/experiments/alicia/teaching/experiment/?hitId=3FJ2RVH25ZSYKBA8MWMNC8NVPF629N&workerId=A1NFBKUYYVUYWF&assignmentId=3Z4AIRP3C7ZJI684XAXPCBVV30G1XB&a=3I4Z7&tp_a=3I4Z7&b=3Z4AIRP3C7ZJI684XAXPCBVV30G1XB&tp_b=3Z4AIRP3C7ZJI684XAXPCBVV30G1XB&c=365717&tp_c=365717"},{"rt":6675,"stimulus":"\n                <p>Student's guess for coin weight: <b style=\"color:Tomato;\">0.20</b></p>\n                <p></b></p>\n                <p>You will now send another set of examples to your student. <b>Remember to take your student's guess into consideration so that you can earn the highest bonus possible!</b> </p>\n                <p>Press any key to continue.</p>\n                ","response":"l","trial_type":"html-keyboard-response","trial_index":26,"time_elapsed":813261,"internal_node_id":"0.0-25.0","params":{"nStudents":24,"maxFlips":30,"completionMinutes":45,"basePay":8,"maxBonus":9,"perTrialBonus":0.5,"perTrialBonusThreshold":0.05,"exampleCost":0.01},"classroomParams":{"A":{"a":1,"b":4},"B":{"a":4,"b":1},"C":{"a":2,"b":8},"D":{"a":8,"b":2}},"conditions":["nonSeqFull","nonSeqPartial","seqNoFeedback","seqFeedback"],"classroomPairings":[["A","B"],["C","D"]],"coinWeights":[0.2,0.5,0.8],"subjectId":"A1NFBKUYYVUYWF","assignmentId":"3Z4AIRP3C7ZJI684XAXPCBVV30G1XB","hitId":"3FJ2RVH25ZSYKBA8MWMNC8NVPF629N","url":"https://gershmanlab.com/experiments/alicia/teaching/experiment/?hitId=3FJ2RVH25ZSYKBA8MWMNC8NVPF629N&workerId=A1NFBKUYYVUYWF&assignmentId=3Z4AIRP3C7ZJI684XAXPCBVV30G1XB&a=3I4Z7&tp_a=3I4Z7&b=3Z4AIRP3C7ZJI684XAXPCBVV30G1XB&tp_b=3Z4AIRP3C7ZJI684XAXPCBVV30G1XB&c=365717&tp_c=365717"},{"rt":18235,"response":{"heads":"2","tails":"8"},"type":"response","condition":"seqFeedback","trueTheta":0.2,"classrooms":["C","D"],"studentTrueClassroom":"C","exampleSet":"second","trial_type":"survey-html-form","trial_index":27,"time_elapsed":831497,"internal_node_id":"0.0-26.0-0.0","params":{"nStudents":24,"maxFlips":30,"completionMinutes":45,"basePay":8,"maxBonus":9,"perTrialBonus":0.5,"perTrialBonusThreshold":0.05,"exampleCost":0.01},"classroomParams":{"A":{"a":1,"b":4},"B":{"a":4,"b":1},"C":{"a":2,"b":8},"D":{"a":8,"b":2}},"conditions":["nonSeqFull","nonSeqPartial","seqNoFeedback","seqFeedback"],"classroomPairings":[["A","B"],["C","D"]],"coinWeights":[0.2,0.5,0.8],"subjectId":"A1NFBKUYYVUYWF","assignmentId":"3Z4AIRP3C7ZJI684XAXPCBVV30G1XB","hitId":"3FJ2RVH25ZSYKBA8MWMNC8NVPF629N","url":"https://gershmanlab.com/experiments/alicia/teaching/experiment/?hitId=3FJ2RVH25ZSYKBA8MWMNC8NVPF629N&workerId=A1NFBKUYYVUYWF&assignmentId=3Z4AIRP3C7ZJI684XAXPCBVV30G1XB&a=3I4Z7&tp_a=3I4Z7&b=3Z4AIRP3C7ZJI684XAXPCBVV30G1XB&tp_b=3Z4AIRP3C7ZJI684XAXPCBVV30G1XB&c=365717&tp_c=365717","firstResponseHeads":2,"firstResponseTails":8,"secondResponseHeads":2,"secondResponseTails":8,"totalHeads":4,"totalTails":16,"studentIndex":2,"studentTrueHypers":{"a":2,"b":8},"studentGuess":0.2,"delta":0,"bonus":0.3,"bonusSoFar":0.3,"totalExamples":20},{"rt":null,"stimulus":"Sending examples to student... ","response":null,"trial_type":"html-keyboard-response","trial_index":28,"time_elapsed":832758,"internal_node_id":"0.0-27.0","params":{"nStudents":24,"maxFlips":30,"completionMinutes":45,"basePay":8,"maxBonus":9,"perTrialBonus":0.5,"perTrialBonusThreshold":0.05,"exampleCost":0.01},"classroomParams":{"A":{"a":1,"b":4},"B":{"a":4,"b":1},"C":{"a":2,"b":8},"D":{"a":8,"b":2}},"conditions":["nonSeqFull","nonSeqPartial","seqNoFeedback","seqFeedback"],"classroomPairings":[["A","B"],["C","D"]],"coinWeights":[0.2,0.5,0.8],"subjectId":"A1NFBKUYYVUYWF","assignmentId":"3Z4AIRP3C7ZJI684XAXPCBVV30G1XB","hitId":"3FJ2RVH25ZSYKBA8MWMNC8NVPF629N","url":"https://gershmanlab.com/experiments/alicia/teaching/experiment/?hitId=3FJ2RVH25ZSYKBA8MWMNC8NVPF629N&workerId=A1NFBKUYYVUYWF&assignmentId=3Z4AIRP3C7ZJI684XAXPCBVV30G1XB&a=3I4Z7&tp_a=3I4Z7&b=3Z4AIRP3C7ZJI684XAXPCBVV30G1XB&tp_b=3Z4AIRP3C7ZJI684XAXPCBVV30G1XB&c=365717&tp_c=365717"},{"rt":null,"stimulus":"Examples sent to student! Waiting for student...","response":null,"trial_type":"html-keyboard-response","trial_index":29,"time_elapsed":837760,"internal_node_id":"0.0-28.0","params":{"nStudents":24,"maxFlips":30,"completionMinutes":45,"basePay":8,"maxBonus":9,"perTrialBonus":0.5,"perTrialBonusThreshold":0.05,"exampleCost":0.01},"classroomParams":{"A":{"a":1,"b":4},"B":{"a":4,"b":1},"C":{"a":2,"b":8},"D":{"a":8,"b":2}},"conditions":["nonSeqFull","nonSeqPartial","seqNoFeedback","seqFeedback"],"classroomPairings":[["A","B"],["C","D"]],"coinWeights":[0.2,0.5,0.8],"subjectId":"A1NFBKUYYVUYWF","assignmentId":"3Z4AIRP3C7ZJI684XAXPCBVV30G1XB","hitId":"3FJ2RVH25ZSYKBA8MWMNC8NVPF629N","url":"https://gershmanlab.com/experiments/alicia/teaching/experiment/?hitId=3FJ2RVH25ZSYKBA8MWMNC8NVPF629N&workerId=A1NFBKUYYVUYWF&assignmentId=3Z4AIRP3C7ZJI684XAXPCBVV30G1XB&a=3I4Z7&tp_a=3I4Z7&b=3Z4AIRP3C7ZJI684XAXPCBVV30G1XB&tp_b=3Z4AIRP3C7ZJI684XAXPCBVV30G1XB&c=365717&tp_c=365717"},{"rt":3628,"stimulus":"\n                <p>Student 3's first guess for coin weight: <b style=\"color:Tomato\";>0.20</b></p>\n                <p>Student 3's second guess for coin weight: <b style=\"color:Tomato\";>0.20</b></p>\n                <p>You received a bonus of <b>$0.30</b> based on the student's second guess.</p>\n                <p>Total bonus so far: <b>$0.30</b></p>\n                <p>Press any key to continue.</p>\n                ","response":"l","trial_type":"html-keyboard-response","trial_index":30,"time_elapsed":841388,"internal_node_id":"0.0-29.0","params":{"nStudents":24,"maxFlips":30,"completionMinutes":45,"basePay":8,"maxBonus":9,"perTrialBonus":0.5,"perTrialBonusThreshold":0.05,"exampleCost":0.01},"classroomParams":{"A":{"a":1,"b":4},"B":{"a":4,"b":1},"C":{"a":2,"b":8},"D":{"a":8,"b":2}},"conditions":["nonSeqFull","nonSeqPartial","seqNoFeedback","seqFeedback"],"classroomPairings":[["A","B"],["C","D"]],"coinWeights":[0.2,0.5,0.8],"subjectId":"A1NFBKUYYVUYWF","assignmentId":"3Z4AIRP3C7ZJI684XAXPCBVV30G1XB","hitId":"3FJ2RVH25ZSYKBA8MWMNC8NVPF629N","url":"https://gershmanlab.com/experiments/alicia/teaching/experiment/?hitId=3FJ2RVH25ZSYKBA8MWMNC8NVPF629N&workerId=A1NFBKUYYVUYWF&assignmentId=3Z4AIRP3C7ZJI684XAXPCBVV30G1XB&a=3I4Z7&tp_a=3I4Z7&b=3Z4AIRP3C7ZJI684XAXPCBVV30G1XB&tp_b=3Z4AIRP3C7ZJI684XAXPCBVV30G1XB&c=365717&tp_c=365717"},{"rt":null,"stimulus":"<div style=\"font-size:60px;\">Next student</div>","response":null,"trial_type":"html-keyboard-response","trial_index":31,"time_elapsed":843397,"internal_node_id":"0.0-30.0-0.0","params":{"nStudents":24,"maxFlips":30,"completionMinutes":45,"basePay":8,"maxBonus":9,"perTrialBonus":0.5,"perTrialBonusThreshold":0.05,"exampleCost":0.01},"classroomParams":{"A":{"a":1,"b":4},"B":{"a":4,"b":1},"C":{"a":2,"b":8},"D":{"a":8,"b":2}},"conditions":["nonSeqFull","nonSeqPartial","seqNoFeedback","seqFeedback"],"classroomPairings":[["A","B"],["C","D"]],"coinWeights":[0.2,0.5,0.8],"subjectId":"A1NFBKUYYVUYWF","assignmentId":"3Z4AIRP3C7ZJI684XAXPCBVV30G1XB","hitId":"3FJ2RVH25ZSYKBA8MWMNC8NVPF629N","url":"https://gershmanlab.com/experiments/alicia/teaching/experiment/?hitId=3FJ2RVH25ZSYKBA8MWMNC8NVPF629N&workerId=A1NFBKUYYVUYWF&assignmentId=3Z4AIRP3C7ZJI684XAXPCBVV30G1XB&a=3I4Z7&tp_a=3I4Z7&b=3Z4AIRP3C7ZJI684XAXPCBVV30G1XB&tp_b=3Z4AIRP3C7ZJI684XAXPCBVV30G1XB&c=365717&tp_c=365717"},{"rt":3720,"stimulus":"\n            <h4 style=\"color:Orange;\">Student 4</h4>\n            <h2>The weight of your coin is <b style=\"color:Tomato;\">0.8</b>.</h2>\n            <p>In this block, you will be giving <b>one</b> set of examples to Student 4.</p>\n                <p>You will receive feedback at the end of the block.</p>\n            <p></p>","response":0,"trial_type":"html-button-response","trial_index":32,"time_elapsed":847119,"internal_node_id":"0.0-31.0","params":{"nStudents":24,"maxFlips":30,"completionMinutes":45,"basePay":8,"maxBonus":9,"perTrialBonus":0.5,"perTrialBonusThreshold":0.05,"exampleCost":0.01},"classroomParams":{"A":{"a":1,"b":4},"B":{"a":4,"b":1},"C":{"a":2,"b":8},"D":{"a":8,"b":2}},"conditions":["nonSeqFull","nonSeqPartial","seqNoFeedback","seqFeedback"],"classroomPairings":[["A","B"],["C","D"]],"coinWeights":[0.2,0.5,0.8],"subjectId":"A1NFBKUYYVUYWF","assignmentId":"3Z4AIRP3C7ZJI684XAXPCBVV30G1XB","hitId":"3FJ2RVH25ZSYKBA8MWMNC8NVPF629N","url":"https://gershmanlab.com/experiments/alicia/teaching/experiment/?hitId=3FJ2RVH25ZSYKBA8MWMNC8NVPF629N&workerId=A1NFBKUYYVUYWF&assignmentId=3Z4AIRP3C7ZJI684XAXPCBVV30G1XB&a=3I4Z7&tp_a=3I4Z7&b=3Z4AIRP3C7ZJI684XAXPCBVV30G1XB&tp_b=3Z4AIRP3C7ZJI684XAXPCBVV30G1XB&c=365717&tp_c=365717"},{"rt":20475,"response":{"heads":"8","tails":"2"},"type":"response","condition":"nonSeqPartial","trueTheta":0.8,"classrooms":["C","D"],"studentTrueClassroom":"C","exampleSet":"first","trial_type":"survey-html-form","trial_index":33,"time_elapsed":867595,"internal_node_id":"0.0-32.0-0.0","params":{"nStudents":24,"maxFlips":30,"completionMinutes":45,"basePay":8,"maxBonus":9,"perTrialBonus":0.5,"perTrialBonusThreshold":0.05,"exampleCost":0.01},"classroomParams":{"A":{"a":1,"b":4},"B":{"a":4,"b":1},"C":{"a":2,"b":8},"D":{"a":8,"b":2}},"conditions":["nonSeqFull","nonSeqPartial","seqNoFeedback","seqFeedback"],"classroomPairings":[["A","B"],["C","D"]],"coinWeights":[0.2,0.5,0.8],"subjectId":"A1NFBKUYYVUYWF","assignmentId":"3Z4AIRP3C7ZJI684XAXPCBVV30G1XB","hitId":"3FJ2RVH25ZSYKBA8MWMNC8NVPF629N","url":"https://gershmanlab.com/experiments/alicia/teaching/experiment/?hitId=3FJ2RVH25ZSYKBA8MWMNC8NVPF629N&workerId=A1NFBKUYYVUYWF&assignmentId=3Z4AIRP3C7ZJI684XAXPCBVV30G1XB&a=3I4Z7&tp_a=3I4Z7&b=3Z4AIRP3C7ZJI684XAXPCBVV30G1XB&tp_b=3Z4AIRP3C7ZJI684XAXPCBVV30G1XB&c=365717&tp_c=365717","heads":8,"tails":2,"studentIndex":3,"studentTrueHypers":{"a":2,"b":8},"studentGuess":0.5,"delta":0.30000000000000004,"totalExamples":10,"bonus":0,"bonusSoFar":0.3},{"rt":null,"stimulus":"Sending examples to student... ","response":null,"trial_type":"html-keyboard-response","trial_index":34,"time_elapsed":869099,"internal_node_id":"0.0-33.0","params":{"nStudents":24,"maxFlips":30,"completionMinutes":45,"basePay":8,"maxBonus":9,"perTrialBonus":0.5,"perTrialBonusThreshold":0.05,"exampleCost":0.01},"classroomParams":{"A":{"a":1,"b":4},"B":{"a":4,"b":1},"C":{"a":2,"b":8},"D":{"a":8,"b":2}},"conditions":["nonSeqFull","nonSeqPartial","seqNoFeedback","seqFeedback"],"classroomPairings":[["A","B"],["C","D"]],"coinWeights":[0.2,0.5,0.8],"subjectId":"A1NFBKUYYVUYWF","assignmentId":"3Z4AIRP3C7ZJI684XAXPCBVV30G1XB","hitId":"3FJ2RVH25ZSYKBA8MWMNC8NVPF629N","url":"https://gershmanlab.com/experiments/alicia/teaching/experiment/?hitId=3FJ2RVH25ZSYKBA8MWMNC8NVPF629N&workerId=A1NFBKUYYVUYWF&assignmentId=3Z4AIRP3C7ZJI684XAXPCBVV30G1XB&a=3I4Z7&tp_a=3I4Z7&b=3Z4AIRP3C7ZJI684XAXPCBVV30G1XB&tp_b=3Z4AIRP3C7ZJI684XAXPCBVV30G1XB&c=365717&tp_c=365717"},{"rt":null,"stimulus":"Examples sent to student! Waiting for student...","response":null,"trial_type":"html-keyboard-response","trial_index":35,"time_elapsed":874616,"internal_node_id":"0.0-34.0","params":{"nStudents":24,"maxFlips":30,"completionMinutes":45,"basePay":8,"maxBonus":9,"perTrialBonus":0.5,"perTrialBonusThreshold":0.05,"exampleCost":0.01},"classroomParams":{"A":{"a":1,"b":4},"B":{"a":4,"b":1},"C":{"a":2,"b":8},"D":{"a":8,"b":2}},"conditions":["nonSeqFull","nonSeqPartial","seqNoFeedback","seqFeedback"],"classroomPairings":[["A","B"],["C","D"]],"coinWeights":[0.2,0.5,0.8],"subjectId":"A1NFBKUYYVUYWF","assignmentId":"3Z4AIRP3C7ZJI684XAXPCBVV30G1XB","hitId":"3FJ2RVH25ZSYKBA8MWMNC8NVPF629N","url":"https://gershmanlab.com/experiments/alicia/teaching/experiment/?hitId=3FJ2RVH25ZSYKBA8MWMNC8NVPF629N&workerId=A1NFBKUYYVUYWF&assignmentId=3Z4AIRP3C7ZJI684XAXPCBVV30G1XB&a=3I4Z7&tp_a=3I4Z7&b=3Z4AIRP3C7ZJI684XAXPCBVV30G1XB&tp_b=3Z4AIRP3C7ZJI684XAXPCBVV30G1XB&c=365717&tp_c=365717"},{"rt":6082,"stimulus":"\n                <p>Student's guess for coin weight: <b style=\"color:Tomato;\">0.50</b></p>\n                <p>You received a bonus of <b>$0</b>. Total bonus so far: <b>$0.30</b></b></p>\n                <p></p>\n                <p>Press any key to continue.</p>\n                ","response":"l","trial_type":"html-keyboard-response","trial_index":36,"time_elapsed":880699,"internal_node_id":"0.0-35.0","params":{"nStudents":24,"maxFlips":30,"completionMinutes":45,"basePay":8,"maxBonus":9,"perTrialBonus":0.5,"perTrialBonusThreshold":0.05,"exampleCost":0.01},"classroomParams":{"A":{"a":1,"b":4},"B":{"a":4,"b":1},"C":{"a":2,"b":8},"D":{"a":8,"b":2}},"conditions":["nonSeqFull","nonSeqPartial","seqNoFeedback","seqFeedback"],"classroomPairings":[["A","B"],["C","D"]],"coinWeights":[0.2,0.5,0.8],"subjectId":"A1NFBKUYYVUYWF","assignmentId":"3Z4AIRP3C7ZJI684XAXPCBVV30G1XB","hitId":"3FJ2RVH25ZSYKBA8MWMNC8NVPF629N","url":"https://gershmanlab.com/experiments/alicia/teaching/experiment/?hitId=3FJ2RVH25ZSYKBA8MWMNC8NVPF629N&workerId=A1NFBKUYYVUYWF&assignmentId=3Z4AIRP3C7ZJI684XAXPCBVV30G1XB&a=3I4Z7&tp_a=3I4Z7&b=3Z4AIRP3C7ZJI684XAXPCBVV30G1XB&tp_b=3Z4AIRP3C7ZJI684XAXPCBVV30G1XB&c=365717&tp_c=365717"},{"rt":null,"stimulus":"<div style=\"font-size:60px;\">Next student</div>","response":null,"trial_type":"html-keyboard-response","trial_index":37,"time_elapsed":883202,"internal_node_id":"0.0-36.0-0.0","params":{"nStudents":24,"maxFlips":30,"completionMinutes":45,"basePay":8,"maxBonus":9,"perTrialBonus":0.5,"perTrialBonusThreshold":0.05,"exampleCost":0.01},"classroomParams":{"A":{"a":1,"b":4},"B":{"a":4,"b":1},"C":{"a":2,"b":8},"D":{"a":8,"b":2}},"conditions":["nonSeqFull","nonSeqPartial","seqNoFeedback","seqFeedback"],"classroomPairings":[["A","B"],["C","D"]],"coinWeights":[0.2,0.5,0.8],"subjectId":"A1NFBKUYYVUYWF","assignmentId":"3Z4AIRP3C7ZJI684XAXPCBVV30G1XB","hitId":"3FJ2RVH25ZSYKBA8MWMNC8NVPF629N","url":"https://gershmanlab.com/experiments/alicia/teaching/experiment/?hitId=3FJ2RVH25ZSYKBA8MWMNC8NVPF629N&workerId=A1NFBKUYYVUYWF&assignmentId=3Z4AIRP3C7ZJI684XAXPCBVV30G1XB&a=3I4Z7&tp_a=3I4Z7&b=3Z4AIRP3C7ZJI684XAXPCBVV30G1XB&tp_b=3Z4AIRP3C7ZJI684XAXPCBVV30G1XB&c=365717&tp_c=365717"},{"rt":3009,"stimulus":"\n            <h4 style=\"color:Orange;\">Student 5</h4>\n            <h2>The weight of your coin is <b style=\"color:Tomato;\">0.2</b>.</h2>\n            <p>In this block, you will be giving <b>two</b> sets of examples to Student 5.</p>\n                <p>You will receive feedback at the end of the block.</p>\n            <p></p>","response":0,"trial_type":"html-button-response","trial_index":38,"time_elapsed":886213,"internal_node_id":"0.0-37.0","params":{"nStudents":24,"maxFlips":30,"completionMinutes":45,"basePay":8,"maxBonus":9,"perTrialBonus":0.5,"perTrialBonusThreshold":0.05,"exampleCost":0.01},"classroomParams":{"A":{"a":1,"b":4},"B":{"a":4,"b":1},"C":{"a":2,"b":8},"D":{"a":8,"b":2}},"conditions":["nonSeqFull","nonSeqPartial","seqNoFeedback","seqFeedback"],"classroomPairings":[["A","B"],["C","D"]],"coinWeights":[0.2,0.5,0.8],"subjectId":"A1NFBKUYYVUYWF","assignmentId":"3Z4AIRP3C7ZJI684XAXPCBVV30G1XB","hitId":"3FJ2RVH25ZSYKBA8MWMNC8NVPF629N","url":"https://gershmanlab.com/experiments/alicia/teaching/experiment/?hitId=3FJ2RVH25ZSYKBA8MWMNC8NVPF629N&workerId=A1NFBKUYYVUYWF&assignmentId=3Z4AIRP3C7ZJI684XAXPCBVV30G1XB&a=3I4Z7&tp_a=3I4Z7&b=3Z4AIRP3C7ZJI684XAXPCBVV30G1XB&tp_b=3Z4AIRP3C7ZJI684XAXPCBVV30G1XB&c=365717&tp_c=365717"},{"rt":11379,"response":{"heads":"2","tails":"8"},"type":"response","condition":"seqNoFeedback","trueTheta":0.2,"classrooms":["C","D"],"studentTrueClassroom":"C","exampleSet":"first","trial_type":"survey-html-form","trial_index":39,"time_elapsed":897593,"internal_node_id":"0.0-38.0-0.0","params":{"nStudents":24,"maxFlips":30,"completionMinutes":45,"basePay":8,"maxBonus":9,"perTrialBonus":0.5,"perTrialBonusThreshold":0.05,"exampleCost":0.01},"classroomParams":{"A":{"a":1,"b":4},"B":{"a":4,"b":1},"C":{"a":2,"b":8},"D":{"a":8,"b":2}},"conditions":["nonSeqFull","nonSeqPartial","seqNoFeedback","seqFeedback"],"classroomPairings":[["A","B"],["C","D"]],"coinWeights":[0.2,0.5,0.8],"subjectId":"A1NFBKUYYVUYWF","assignmentId":"3Z4AIRP3C7ZJI684XAXPCBVV30G1XB","hitId":"3FJ2RVH25ZSYKBA8MWMNC8NVPF629N","url":"https://gershmanlab.com/experiments/alicia/teaching/experiment/?hitId=3FJ2RVH25ZSYKBA8MWMNC8NVPF629N&workerId=A1NFBKUYYVUYWF&assignmentId=3Z4AIRP3C7ZJI684XAXPCBVV30G1XB&a=3I4Z7&tp_a=3I4Z7&b=3Z4AIRP3C7ZJI684XAXPCBVV30G1XB&tp_b=3Z4AIRP3C7ZJI684XAXPCBVV30G1XB&c=365717&tp_c=365717","heads":2,"tails":8,"studentIndex":4,"studentTrueHypers":{"a":2,"b":8},"studentGuess":0.2,"delta":0,"totalExamples":10,"bonusSoFar":0.3},{"rt":null,"stimulus":"Sending examples to student... ","response":null,"trial_type":"html-keyboard-response","trial_index":40,"time_elapsed":898852,"internal_node_id":"0.0-39.0","params":{"nStudents":24,"maxFlips":30,"completionMinutes":45,"basePay":8,"maxBonus":9,"perTrialBonus":0.5,"perTrialBonusThreshold":0.05,"exampleCost":0.01},"classroomParams":{"A":{"a":1,"b":4},"B":{"a":4,"b":1},"C":{"a":2,"b":8},"D":{"a":8,"b":2}},"conditions":["nonSeqFull","nonSeqPartial","seqNoFeedback","seqFeedback"],"classroomPairings":[["A","B"],["C","D"]],"coinWeights":[0.2,0.5,0.8],"subjectId":"A1NFBKUYYVUYWF","assignmentId":"3Z4AIRP3C7ZJI684XAXPCBVV30G1XB","hitId":"3FJ2RVH25ZSYKBA8MWMNC8NVPF629N","url":"https://gershmanlab.com/experiments/alicia/teaching/experiment/?hitId=3FJ2RVH25ZSYKBA8MWMNC8NVPF629N&workerId=A1NFBKUYYVUYWF&assignmentId=3Z4AIRP3C7ZJI684XAXPCBVV30G1XB&a=3I4Z7&tp_a=3I4Z7&b=3Z4AIRP3C7ZJI684XAXPCBVV30G1XB&tp_b=3Z4AIRP3C7ZJI684XAXPCBVV30G1XB&c=365717&tp_c=365717"},{"rt":null,"stimulus":"Examples sent to student! Waiting for student...","response":null,"trial_type":"html-keyboard-response","trial_index":41,"time_elapsed":903358,"internal_node_id":"0.0-40.0","params":{"nStudents":24,"maxFlips":30,"completionMinutes":45,"basePay":8,"maxBonus":9,"perTrialBonus":0.5,"perTrialBonusThreshold":0.05,"exampleCost":0.01},"classroomParams":{"A":{"a":1,"b":4},"B":{"a":4,"b":1},"C":{"a":2,"b":8},"D":{"a":8,"b":2}},"conditions":["nonSeqFull","nonSeqPartial","seqNoFeedback","seqFeedback"],"classroomPairings":[["A","B"],["C","D"]],"coinWeights":[0.2,0.5,0.8],"subjectId":"A1NFBKUYYVUYWF","assignmentId":"3Z4AIRP3C7ZJI684XAXPCBVV30G1XB","hitId":"3FJ2RVH25ZSYKBA8MWMNC8NVPF629N","url":"https://gershmanlab.com/experiments/alicia/teaching/experiment/?hitId=3FJ2RVH25ZSYKBA8MWMNC8NVPF629N&workerId=A1NFBKUYYVUYWF&assignmentId=3Z4AIRP3C7ZJI684XAXPCBVV30G1XB&a=3I4Z7&tp_a=3I4Z7&b=3Z4AIRP3C7ZJI684XAXPCBVV30G1XB&tp_b=3Z4AIRP3C7ZJI684XAXPCBVV30G1XB&c=365717&tp_c=365717"},{"rt":20693,"response":{"heads":"4","tails":"16"},"type":"response","condition":"seqNoFeedback","trueTheta":0.2,"classrooms":["C","D"],"studentTrueClassroom":"C","exampleSet":"second","trial_type":"survey-html-form","trial_index":42,"time_elapsed":924053,"internal_node_id":"0.0-41.0-0.0","params":{"nStudents":24,"maxFlips":30,"completionMinutes":45,"basePay":8,"maxBonus":9,"perTrialBonus":0.5,"perTrialBonusThreshold":0.05,"exampleCost":0.01},"classroomParams":{"A":{"a":1,"b":4},"B":{"a":4,"b":1},"C":{"a":2,"b":8},"D":{"a":8,"b":2}},"conditions":["nonSeqFull","nonSeqPartial","seqNoFeedback","seqFeedback"],"classroomPairings":[["A","B"],["C","D"]],"coinWeights":[0.2,0.5,0.8],"subjectId":"A1NFBKUYYVUYWF","assignmentId":"3Z4AIRP3C7ZJI684XAXPCBVV30G1XB","hitId":"3FJ2RVH25ZSYKBA8MWMNC8NVPF629N","url":"https://gershmanlab.com/experiments/alicia/teaching/experiment/?hitId=3FJ2RVH25ZSYKBA8MWMNC8NVPF629N&workerId=A1NFBKUYYVUYWF&assignmentId=3Z4AIRP3C7ZJI684XAXPCBVV30G1XB&a=3I4Z7&tp_a=3I4Z7&b=3Z4AIRP3C7ZJI684XAXPCBVV30G1XB&tp_b=3Z4AIRP3C7ZJI684XAXPCBVV30G1XB&c=365717&tp_c=365717","firstResponseHeads":2,"firstResponseTails":8,"secondResponseHeads":4,"secondResponseTails":16,"totalHeads":6,"totalTails":24,"studentIndex":4,"studentTrueHypers":{"a":2,"b":8},"studentGuess":0.2,"delta":0,"bonus":0.2,"bonusSoFar":0.5,"totalExamples":30},{"rt":null,"stimulus":"Sending examples to student... ","response":null,"trial_type":"html-keyboard-response","trial_index":43,"time_elapsed":925319,"internal_node_id":"0.0-42.0","params":{"nStudents":24,"maxFlips":30,"completionMinutes":45,"basePay":8,"maxBonus":9,"perTrialBonus":0.5,"perTrialBonusThreshold":0.05,"exampleCost":0.01},"classroomParams":{"A":{"a":1,"b":4},"B":{"a":4,"b":1},"C":{"a":2,"b":8},"D":{"a":8,"b":2}},"conditions":["nonSeqFull","nonSeqPartial","seqNoFeedback","seqFeedback"],"classroomPairings":[["A","B"],["C","D"]],"coinWeights":[0.2,0.5,0.8],"subjectId":"A1NFBKUYYVUYWF","assignmentId":"3Z4AIRP3C7ZJI684XAXPCBVV30G1XB","hitId":"3FJ2RVH25ZSYKBA8MWMNC8NVPF629N","url":"https://gershmanlab.com/experiments/alicia/teaching/experiment/?hitId=3FJ2RVH25ZSYKBA8MWMNC8NVPF629N&workerId=A1NFBKUYYVUYWF&assignmentId=3Z4AIRP3C7ZJI684XAXPCBVV30G1XB&a=3I4Z7&tp_a=3I4Z7&b=3Z4AIRP3C7ZJI684XAXPCBVV30G1XB&tp_b=3Z4AIRP3C7ZJI684XAXPCBVV30G1XB&c=365717&tp_c=365717"},{"rt":null,"stimulus":"Examples sent to student! Waiting for student...","response":null,"trial_type":"html-keyboard-response","trial_index":44,"time_elapsed":930836,"internal_node_id":"0.0-43.0","params":{"nStudents":24,"maxFlips":30,"completionMinutes":45,"basePay":8,"maxBonus":9,"perTrialBonus":0.5,"perTrialBonusThreshold":0.05,"exampleCost":0.01},"classroomParams":{"A":{"a":1,"b":4},"B":{"a":4,"b":1},"C":{"a":2,"b":8},"D":{"a":8,"b":2}},"conditions":["nonSeqFull","nonSeqPartial","seqNoFeedback","seqFeedback"],"classroomPairings":[["A","B"],["C","D"]],"coinWeights":[0.2,0.5,0.8],"subjectId":"A1NFBKUYYVUYWF","assignmentId":"3Z4AIRP3C7ZJI684XAXPCBVV30G1XB","hitId":"3FJ2RVH25ZSYKBA8MWMNC8NVPF629N","url":"https://gershmanlab.com/experiments/alicia/teaching/experiment/?hitId=3FJ2RVH25ZSYKBA8MWMNC8NVPF629N&workerId=A1NFBKUYYVUYWF&assignmentId=3Z4AIRP3C7ZJI684XAXPCBVV30G1XB&a=3I4Z7&tp_a=3I4Z7&b=3Z4AIRP3C7ZJI684XAXPCBVV30G1XB&tp_b=3Z4AIRP3C7ZJI684XAXPCBVV30G1XB&c=365717&tp_c=365717"},{"rt":8470,"stimulus":"\n                <p>Student 5's first guess for coin weight: <b style=\"color:Tomato\";>0.20</b></p>\n                <p>Student 5's second guess for coin weight: <b style=\"color:Tomato\";>0.20</b></p>\n                <p>You received a bonus of <b>$0.20</b> based on the student's second guess.</p>\n                <p>Total bonus so far: <b>$0.50</b></p>\n                <p>Press any key to continue.</p>\n                ","response":"enter","trial_type":"html-keyboard-response","trial_index":45,"time_elapsed":939308,"internal_node_id":"0.0-44.0","params":{"nStudents":24,"maxFlips":30,"completionMinutes":45,"basePay":8,"maxBonus":9,"perTrialBonus":0.5,"perTrialBonusThreshold":0.05,"exampleCost":0.01},"classroomParams":{"A":{"a":1,"b":4},"B":{"a":4,"b":1},"C":{"a":2,"b":8},"D":{"a":8,"b":2}},"conditions":["nonSeqFull","nonSeqPartial","seqNoFeedback","seqFeedback"],"classroomPairings":[["A","B"],["C","D"]],"coinWeights":[0.2,0.5,0.8],"subjectId":"A1NFBKUYYVUYWF","assignmentId":"3Z4AIRP3C7ZJI684XAXPCBVV30G1XB","hitId":"3FJ2RVH25ZSYKBA8MWMNC8NVPF629N","url":"https://gershmanlab.com/experiments/alicia/teaching/experiment/?hitId=3FJ2RVH25ZSYKBA8MWMNC8NVPF629N&workerId=A1NFBKUYYVUYWF&assignmentId=3Z4AIRP3C7ZJI684XAXPCBVV30G1XB&a=3I4Z7&tp_a=3I4Z7&b=3Z4AIRP3C7ZJI684XAXPCBVV30G1XB&tp_b=3Z4AIRP3C7ZJI684XAXPCBVV30G1XB&c=365717&tp_c=365717"},{"rt":null,"stimulus":"<div style=\"font-size:60px;\">Next student</div>","response":null,"trial_type":"html-keyboard-response","trial_index":46,"time_elapsed":941574,"internal_node_id":"0.0-45.0-0.0","params":{"nStudents":24,"maxFlips":30,"completionMinutes":45,"basePay":8,"maxBonus":9,"perTrialBonus":0.5,"perTrialBonusThreshold":0.05,"exampleCost":0.01},"classroomParams":{"A":{"a":1,"b":4},"B":{"a":4,"b":1},"C":{"a":2,"b":8},"D":{"a":8,"b":2}},"conditions":["nonSeqFull","nonSeqPartial","seqNoFeedback","seqFeedback"],"classroomPairings":[["A","B"],["C","D"]],"coinWeights":[0.2,0.5,0.8],"subjectId":"A1NFBKUYYVUYWF","assignmentId":"3Z4AIRP3C7ZJI684XAXPCBVV30G1XB","hitId":"3FJ2RVH25ZSYKBA8MWMNC8NVPF629N","url":"https://gershmanlab.com/experiments/alicia/teaching/experiment/?hitId=3FJ2RVH25ZSYKBA8MWMNC8NVPF629N&workerId=A1NFBKUYYVUYWF&assignmentId=3Z4AIRP3C7ZJI684XAXPCBVV30G1XB&a=3I4Z7&tp_a=3I4Z7&b=3Z4AIRP3C7ZJI684XAXPCBVV30G1XB&tp_b=3Z4AIRP3C7ZJI684XAXPCBVV30G1XB&c=365717&tp_c=365717"},{"rt":4251,"stimulus":"\n            <h4 style=\"color:Orange;\">Student 6</h4>\n            <h2>The weight of your coin is <b style=\"color:Tomato;\">0.5</b>.</h2>\n            <p>In this block, you will be giving <b>two</b> sets of examples to Student 6.</p>\n                <p>You will receive feedback at the end of the block.</p>\n            <p></p>","response":0,"trial_type":"html-button-response","trial_index":47,"time_elapsed":945826,"internal_node_id":"0.0-46.0","params":{"nStudents":24,"maxFlips":30,"completionMinutes":45,"basePay":8,"maxBonus":9,"perTrialBonus":0.5,"perTrialBonusThreshold":0.05,"exampleCost":0.01},"classroomParams":{"A":{"a":1,"b":4},"B":{"a":4,"b":1},"C":{"a":2,"b":8},"D":{"a":8,"b":2}},"conditions":["nonSeqFull","nonSeqPartial","seqNoFeedback","seqFeedback"],"classroomPairings":[["A","B"],["C","D"]],"coinWeights":[0.2,0.5,0.8],"subjectId":"A1NFBKUYYVUYWF","assignmentId":"3Z4AIRP3C7ZJI684XAXPCBVV30G1XB","hitId":"3FJ2RVH25ZSYKBA8MWMNC8NVPF629N","url":"https://gershmanlab.com/experiments/alicia/teaching/experiment/?hitId=3FJ2RVH25ZSYKBA8MWMNC8NVPF629N&workerId=A1NFBKUYYVUYWF&assignmentId=3Z4AIRP3C7ZJI684XAXPCBVV30G1XB&a=3I4Z7&tp_a=3I4Z7&b=3Z4AIRP3C7ZJI684XAXPCBVV30G1XB&tp_b=3Z4AIRP3C7ZJI684XAXPCBVV30G1XB&c=365717&tp_c=365717"},{"rt":9045,"response":{"heads":"4","tails":"4"},"type":"response","condition":"seqNoFeedback","trueTheta":0.5,"classrooms":["C","D"],"studentTrueClassroom":"C","exampleSet":"first","trial_type":"survey-html-form","trial_index":48,"time_elapsed":954873,"internal_node_id":"0.0-47.0-0.0","params":{"nStudents":24,"maxFlips":30,"completionMinutes":45,"basePay":8,"maxBonus":9,"perTrialBonus":0.5,"perTrialBonusThreshold":0.05,"exampleCost":0.01},"classroomParams":{"A":{"a":1,"b":4},"B":{"a":4,"b":1},"C":{"a":2,"b":8},"D":{"a":8,"b":2}},"conditions":["nonSeqFull","nonSeqPartial","seqNoFeedback","seqFeedback"],"classroomPairings":[["A","B"],["C","D"]],"coinWeights":[0.2,0.5,0.8],"subjectId":"A1NFBKUYYVUYWF","assignmentId":"3Z4AIRP3C7ZJI684XAXPCBVV30G1XB","hitId":"3FJ2RVH25ZSYKBA8MWMNC8NVPF629N","url":"https://gershmanlab.com/experiments/alicia/teaching/experiment/?hitId=3FJ2RVH25ZSYKBA8MWMNC8NVPF629N&workerId=A1NFBKUYYVUYWF&assignmentId=3Z4AIRP3C7ZJI684XAXPCBVV30G1XB&a=3I4Z7&tp_a=3I4Z7&b=3Z4AIRP3C7ZJI684XAXPCBVV30G1XB&tp_b=3Z4AIRP3C7ZJI684XAXPCBVV30G1XB&c=365717&tp_c=365717","heads":4,"tails":4,"studentIndex":5,"studentTrueHypers":{"a":2,"b":8},"studentGuess":0.3333333333333333,"delta":0.16666666666666669,"totalExamples":8,"bonusSoFar":0.5},{"rt":null,"stimulus":"Sending examples to student... ","response":null,"trial_type":"html-keyboard-response","trial_index":49,"time_elapsed":956624,"internal_node_id":"0.0-48.0","params":{"nStudents":24,"maxFlips":30,"completionMinutes":45,"basePay":8,"maxBonus":9,"perTrialBonus":0.5,"perTrialBonusThreshold":0.05,"exampleCost":0.01},"classroomParams":{"A":{"a":1,"b":4},"B":{"a":4,"b":1},"C":{"a":2,"b":8},"D":{"a":8,"b":2}},"conditions":["nonSeqFull","nonSeqPartial","seqNoFeedback","seqFeedback"],"classroomPairings":[["A","B"],["C","D"]],"coinWeights":[0.2,0.5,0.8],"subjectId":"A1NFBKUYYVUYWF","assignmentId":"3Z4AIRP3C7ZJI684XAXPCBVV30G1XB","hitId":"3FJ2RVH25ZSYKBA8MWMNC8NVPF629N","url":"https://gershmanlab.com/experiments/alicia/teaching/experiment/?hitId=3FJ2RVH25ZSYKBA8MWMNC8NVPF629N&workerId=A1NFBKUYYVUYWF&assignmentId=3Z4AIRP3C7ZJI684XAXPCBVV30G1XB&a=3I4Z7&tp_a=3I4Z7&b=3Z4AIRP3C7ZJI684XAXPCBVV30G1XB&tp_b=3Z4AIRP3C7ZJI684XAXPCBVV30G1XB&c=365717&tp_c=365717"},{"rt":null,"stimulus":"Examples sent to student! Waiting for student...","response":null,"trial_type":"html-keyboard-response","trial_index":50,"time_elapsed":960640,"internal_node_id":"0.0-49.0","params":{"nStudents":24,"maxFlips":30,"completionMinutes":45,"basePay":8,"maxBonus":9,"perTrialBonus":0.5,"perTrialBonusThreshold":0.05,"exampleCost":0.01},"classroomParams":{"A":{"a":1,"b":4},"B":{"a":4,"b":1},"C":{"a":2,"b":8},"D":{"a":8,"b":2}},"conditions":["nonSeqFull","nonSeqPartial","seqNoFeedback","seqFeedback"],"classroomPairings":[["A","B"],["C","D"]],"coinWeights":[0.2,0.5,0.8],"subjectId":"A1NFBKUYYVUYWF","assignmentId":"3Z4AIRP3C7ZJI684XAXPCBVV30G1XB","hitId":"3FJ2RVH25ZSYKBA8MWMNC8NVPF629N","url":"https://gershmanlab.com/experiments/alicia/teaching/experiment/?hitId=3FJ2RVH25ZSYKBA8MWMNC8NVPF629N&workerId=A1NFBKUYYVUYWF&assignmentId=3Z4AIRP3C7ZJI684XAXPCBVV30G1XB&a=3I4Z7&tp_a=3I4Z7&b=3Z4AIRP3C7ZJI684XAXPCBVV30G1XB&tp_b=3Z4AIRP3C7ZJI684XAXPCBVV30G1XB&c=365717&tp_c=365717"},{"rt":11672,"response":{"heads":"10","tails":"10"},"type":"response","condition":"seqNoFeedback","trueTheta":0.5,"classrooms":["C","D"],"studentTrueClassroom":"C","exampleSet":"second","trial_type":"survey-html-form","trial_index":51,"time_elapsed":972314,"internal_node_id":"0.0-50.0-0.0","params":{"nStudents":24,"maxFlips":30,"completionMinutes":45,"basePay":8,"maxBonus":9,"perTrialBonus":0.5,"perTrialBonusThreshold":0.05,"exampleCost":0.01},"classroomParams":{"A":{"a":1,"b":4},"B":{"a":4,"b":1},"C":{"a":2,"b":8},"D":{"a":8,"b":2}},"conditions":["nonSeqFull","nonSeqPartial","seqNoFeedback","seqFeedback"],"classroomPairings":[["A","B"],["C","D"]],"coinWeights":[0.2,0.5,0.8],"subjectId":"A1NFBKUYYVUYWF","assignmentId":"3Z4AIRP3C7ZJI684XAXPCBVV30G1XB","hitId":"3FJ2RVH25ZSYKBA8MWMNC8NVPF629N","url":"https://gershmanlab.com/experiments/alicia/teaching/experiment/?hitId=3FJ2RVH25ZSYKBA8MWMNC8NVPF629N&workerId=A1NFBKUYYVUYWF&assignmentId=3Z4AIRP3C7ZJI684XAXPCBVV30G1XB&a=3I4Z7&tp_a=3I4Z7&b=3Z4AIRP3C7ZJI684XAXPCBVV30G1XB&tp_b=3Z4AIRP3C7ZJI684XAXPCBVV30G1XB&c=365717&tp_c=365717","firstResponseHeads":4,"firstResponseTails":4,"secondResponseHeads":10,"secondResponseTails":10,"totalHeads":14,"totalTails":14,"studentIndex":5,"studentTrueHypers":{"a":2,"b":8},"studentGuess":0.42105263157894735,"delta":0.07894736842105265,"bonus":0,"bonusSoFar":0.5,"totalExamples":28},{"rt":null,"stimulus":"Sending examples to student... ","response":null,"trial_type":"html-keyboard-response","trial_index":52,"time_elapsed":973569,"internal_node_id":"0.0-51.0","params":{"nStudents":24,"maxFlips":30,"completionMinutes":45,"basePay":8,"maxBonus":9,"perTrialBonus":0.5,"perTrialBonusThreshold":0.05,"exampleCost":0.01},"classroomParams":{"A":{"a":1,"b":4},"B":{"a":4,"b":1},"C":{"a":2,"b":8},"D":{"a":8,"b":2}},"conditions":["nonSeqFull","nonSeqPartial","seqNoFeedback","seqFeedback"],"classroomPairings":[["A","B"],["C","D"]],"coinWeights":[0.2,0.5,0.8],"subjectId":"A1NFBKUYYVUYWF","assignmentId":"3Z4AIRP3C7ZJI684XAXPCBVV30G1XB","hitId":"3FJ2RVH25ZSYKBA8MWMNC8NVPF629N","url":"https://gershmanlab.com/experiments/alicia/teaching/experiment/?hitId=3FJ2RVH25ZSYKBA8MWMNC8NVPF629N&workerId=A1NFBKUYYVUYWF&assignmentId=3Z4AIRP3C7ZJI684XAXPCBVV30G1XB&a=3I4Z7&tp_a=3I4Z7&b=3Z4AIRP3C7ZJI684XAXPCBVV30G1XB&tp_b=3Z4AIRP3C7ZJI684XAXPCBVV30G1XB&c=365717&tp_c=365717"},{"rt":null,"stimulus":"Examples sent to student! Waiting for student...","response":null,"trial_type":"html-keyboard-response","trial_index":53,"time_elapsed":977576,"internal_node_id":"0.0-52.0","params":{"nStudents":24,"maxFlips":30,"completionMinutes":45,"basePay":8,"maxBonus":9,"perTrialBonus":0.5,"perTrialBonusThreshold":0.05,"exampleCost":0.01},"classroomParams":{"A":{"a":1,"b":4},"B":{"a":4,"b":1},"C":{"a":2,"b":8},"D":{"a":8,"b":2}},"conditions":["nonSeqFull","nonSeqPartial","seqNoFeedback","seqFeedback"],"classroomPairings":[["A","B"],["C","D"]],"coinWeights":[0.2,0.5,0.8],"subjectId":"A1NFBKUYYVUYWF","assignmentId":"3Z4AIRP3C7ZJI684XAXPCBVV30G1XB","hitId":"3FJ2RVH25ZSYKBA8MWMNC8NVPF629N","url":"https://gershmanlab.com/experiments/alicia/teaching/experiment/?hitId=3FJ2RVH25ZSYKBA8MWMNC8NVPF629N&workerId=A1NFBKUYYVUYWF&assignmentId=3Z4AIRP3C7ZJI684XAXPCBVV30G1XB&a=3I4Z7&tp_a=3I4Z7&b=3Z4AIRP3C7ZJI684XAXPCBVV30G1XB&tp_b=3Z4AIRP3C7ZJI684XAXPCBVV30G1XB&c=365717&tp_c=365717"},{"rt":4626,"stimulus":"\n                <p>Student 6's first guess for coin weight: <b style=\"color:Tomato\";>0.33</b></p>\n                <p>Student 6's second guess for coin weight: <b style=\"color:Tomato\";>0.42</b></p>\n                <p>You received a bonus of <b>$0.00</b> based on the student's second guess.</p>\n                <p>Total bonus so far: <b>$0.50</b></p>\n                <p>Press any key to continue.</p>\n                ","response":"enter","trial_type":"html-keyboard-response","trial_index":54,"time_elapsed":982203,"internal_node_id":"0.0-53.0","params":{"nStudents":24,"maxFlips":30,"completionMinutes":45,"basePay":8,"maxBonus":9,"perTrialBonus":0.5,"perTrialBonusThreshold":0.05,"exampleCost":0.01},"classroomParams":{"A":{"a":1,"b":4},"B":{"a":4,"b":1},"C":{"a":2,"b":8},"D":{"a":8,"b":2}},"conditions":["nonSeqFull","nonSeqPartial","seqNoFeedback","seqFeedback"],"classroomPairings":[["A","B"],["C","D"]],"coinWeights":[0.2,0.5,0.8],"subjectId":"A1NFBKUYYVUYWF","assignmentId":"3Z4AIRP3C7ZJI684XAXPCBVV30G1XB","hitId":"3FJ2RVH25ZSYKBA8MWMNC8NVPF629N","url":"https://gershmanlab.com/experiments/alicia/teaching/experiment/?hitId=3FJ2RVH25ZSYKBA8MWMNC8NVPF629N&workerId=A1NFBKUYYVUYWF&assignmentId=3Z4AIRP3C7ZJI684XAXPCBVV30G1XB&a=3I4Z7&tp_a=3I4Z7&b=3Z4AIRP3C7ZJI684XAXPCBVV30G1XB&tp_b=3Z4AIRP3C7ZJI684XAXPCBVV30G1XB&c=365717&tp_c=365717"},{"rt":null,"stimulus":"<div style=\"font-size:60px;\">Next student</div>","response":null,"trial_type":"html-keyboard-response","trial_index":55,"time_elapsed":984462,"internal_node_id":"0.0-54.0-0.0","params":{"nStudents":24,"maxFlips":30,"completionMinutes":45,"basePay":8,"maxBonus":9,"perTrialBonus":0.5,"perTrialBonusThreshold":0.05,"exampleCost":0.01},"classroomParams":{"A":{"a":1,"b":4},"B":{"a":4,"b":1},"C":{"a":2,"b":8},"D":{"a":8,"b":2}},"conditions":["nonSeqFull","nonSeqPartial","seqNoFeedback","seqFeedback"],"classroomPairings":[["A","B"],["C","D"]],"coinWeights":[0.2,0.5,0.8],"subjectId":"A1NFBKUYYVUYWF","assignmentId":"3Z4AIRP3C7ZJI684XAXPCBVV30G1XB","hitId":"3FJ2RVH25ZSYKBA8MWMNC8NVPF629N","url":"https://gershmanlab.com/experiments/alicia/teaching/experiment/?hitId=3FJ2RVH25ZSYKBA8MWMNC8NVPF629N&workerId=A1NFBKUYYVUYWF&assignmentId=3Z4AIRP3C7ZJI684XAXPCBVV30G1XB&a=3I4Z7&tp_a=3I4Z7&b=3Z4AIRP3C7ZJI684XAXPCBVV30G1XB&tp_b=3Z4AIRP3C7ZJI684XAXPCBVV30G1XB&c=365717&tp_c=365717"},{"rt":11579,"stimulus":"\n            <h4 style=\"color:Orange;\">Student 7</h4>\n            <h2>The weight of your coin is <b style=\"color:Tomato;\">0.5</b>.</h2>\n            <p>In this block, you will be giving <b>two</b> sets of examples to Student 7.</p>\n                <p>You will see the student's guess after the first set of examples. You will also receive feedback at the end of the block.</p>\n            <p>To earn the highest bonus, you will have to <b>take into consideration the student's guess</b> when you choose your second set of examples.</p>","response":0,"trial_type":"html-button-response","trial_index":56,"time_elapsed":996042,"internal_node_id":"0.0-55.0","params":{"nStudents":24,"maxFlips":30,"completionMinutes":45,"basePay":8,"maxBonus":9,"perTrialBonus":0.5,"perTrialBonusThreshold":0.05,"exampleCost":0.01},"classroomParams":{"A":{"a":1,"b":4},"B":{"a":4,"b":1},"C":{"a":2,"b":8},"D":{"a":8,"b":2}},"conditions":["nonSeqFull","nonSeqPartial","seqNoFeedback","seqFeedback"],"classroomPairings":[["A","B"],["C","D"]],"coinWeights":[0.2,0.5,0.8],"subjectId":"A1NFBKUYYVUYWF","assignmentId":"3Z4AIRP3C7ZJI684XAXPCBVV30G1XB","hitId":"3FJ2RVH25ZSYKBA8MWMNC8NVPF629N","url":"https://gershmanlab.com/experiments/alicia/teaching/experiment/?hitId=3FJ2RVH25ZSYKBA8MWMNC8NVPF629N&workerId=A1NFBKUYYVUYWF&assignmentId=3Z4AIRP3C7ZJI684XAXPCBVV30G1XB&a=3I4Z7&tp_a=3I4Z7&b=3Z4AIRP3C7ZJI684XAXPCBVV30G1XB&tp_b=3Z4AIRP3C7ZJI684XAXPCBVV30G1XB&c=365717&tp_c=365717"},{"rt":8391,"response":{"heads":"5","tails":"5"},"type":"response","condition":"seqFeedback","trueTheta":0.5,"classrooms":["C","D"],"studentTrueClassroom":"D","exampleSet":"first","trial_type":"survey-html-form","trial_index":57,"time_elapsed":1004434,"internal_node_id":"0.0-56.0-0.0","params":{"nStudents":24,"maxFlips":30,"completionMinutes":45,"basePay":8,"maxBonus":9,"perTrialBonus":0.5,"perTrialBonusThreshold":0.05,"exampleCost":0.01},"classroomParams":{"A":{"a":1,"b":4},"B":{"a":4,"b":1},"C":{"a":2,"b":8},"D":{"a":8,"b":2}},"conditions":["nonSeqFull","nonSeqPartial","seqNoFeedback","seqFeedback"],"classroomPairings":[["A","B"],["C","D"]],"coinWeights":[0.2,0.5,0.8],"subjectId":"A1NFBKUYYVUYWF","assignmentId":"3Z4AIRP3C7ZJI684XAXPCBVV30G1XB","hitId":"3FJ2RVH25ZSYKBA8MWMNC8NVPF629N","url":"https://gershmanlab.com/experiments/alicia/teaching/experiment/?hitId=3FJ2RVH25ZSYKBA8MWMNC8NVPF629N&workerId=A1NFBKUYYVUYWF&assignmentId=3Z4AIRP3C7ZJI684XAXPCBVV30G1XB&a=3I4Z7&tp_a=3I4Z7&b=3Z4AIRP3C7ZJI684XAXPCBVV30G1XB&tp_b=3Z4AIRP3C7ZJI684XAXPCBVV30G1XB&c=365717&tp_c=365717","heads":5,"tails":5,"studentIndex":6,"studentTrueHypers":{"a":8,"b":2},"studentGuess":0.65,"delta":0.15000000000000002,"totalExamples":10,"bonusSoFar":0.5},{"rt":null,"stimulus":"Sending examples to student... ","response":null,"trial_type":"html-keyboard-response","trial_index":58,"time_elapsed":1005945,"internal_node_id":"0.0-57.0","params":{"nStudents":24,"maxFlips":30,"completionMinutes":45,"basePay":8,"maxBonus":9,"perTrialBonus":0.5,"perTrialBonusThreshold":0.05,"exampleCost":0.01},"classroomParams":{"A":{"a":1,"b":4},"B":{"a":4,"b":1},"C":{"a":2,"b":8},"D":{"a":8,"b":2}},"conditions":["nonSeqFull","nonSeqPartial","seqNoFeedback","seqFeedback"],"classroomPairings":[["A","B"],["C","D"]],"coinWeights":[0.2,0.5,0.8],"subjectId":"A1NFBKUYYVUYWF","assignmentId":"3Z4AIRP3C7ZJI684XAXPCBVV30G1XB","hitId":"3FJ2RVH25ZSYKBA8MWMNC8NVPF629N","url":"https://gershmanlab.com/experiments/alicia/teaching/experiment/?hitId=3FJ2RVH25ZSYKBA8MWMNC8NVPF629N&workerId=A1NFBKUYYVUYWF&assignmentId=3Z4AIRP3C7ZJI684XAXPCBVV30G1XB&a=3I4Z7&tp_a=3I4Z7&b=3Z4AIRP3C7ZJI684XAXPCBVV30G1XB&tp_b=3Z4AIRP3C7ZJI684XAXPCBVV30G1XB&c=365717&tp_c=365717"},{"rt":null,"stimulus":"Examples sent to student! Waiting for student...","response":null,"trial_type":"html-keyboard-response","trial_index":59,"time_elapsed":1010451,"internal_node_id":"0.0-58.0","params":{"nStudents":24,"maxFlips":30,"completionMinutes":45,"basePay":8,"maxBonus":9,"perTrialBonus":0.5,"perTrialBonusThreshold":0.05,"exampleCost":0.01},"classroomParams":{"A":{"a":1,"b":4},"B":{"a":4,"b":1},"C":{"a":2,"b":8},"D":{"a":8,"b":2}},"conditions":["nonSeqFull","nonSeqPartial","seqNoFeedback","seqFeedback"],"classroomPairings":[["A","B"],["C","D"]],"coinWeights":[0.2,0.5,0.8],"subjectId":"A1NFBKUYYVUYWF","assignmentId":"3Z4AIRP3C7ZJI684XAXPCBVV30G1XB","hitId":"3FJ2RVH25ZSYKBA8MWMNC8NVPF629N","url":"https://gershmanlab.com/experiments/alicia/teaching/experiment/?hitId=3FJ2RVH25ZSYKBA8MWMNC8NVPF629N&workerId=A1NFBKUYYVUYWF&assignmentId=3Z4AIRP3C7ZJI684XAXPCBVV30G1XB&a=3I4Z7&tp_a=3I4Z7&b=3Z4AIRP3C7ZJI684XAXPCBVV30G1XB&tp_b=3Z4AIRP3C7ZJI684XAXPCBVV30G1XB&c=365717&tp_c=365717"},{"rt":11719,"stimulus":"\n                <p>Student's guess for coin weight: <b style=\"color:Tomato;\">0.65</b></p>\n                <p></b></p>\n                <p>You will now send another set of examples to your student. <b>Remember to take your student's guess into consideration so that you can earn the highest bonus possible!</b> </p>\n                <p>Press any key to continue.</p>\n                ","response":"l","trial_type":"html-keyboard-response","trial_index":60,"time_elapsed":1022171,"internal_node_id":"0.0-59.0","params":{"nStudents":24,"maxFlips":30,"completionMinutes":45,"basePay":8,"maxBonus":9,"perTrialBonus":0.5,"perTrialBonusThreshold":0.05,"exampleCost":0.01},"classroomParams":{"A":{"a":1,"b":4},"B":{"a":4,"b":1},"C":{"a":2,"b":8},"D":{"a":8,"b":2}},"conditions":["nonSeqFull","nonSeqPartial","seqNoFeedback","seqFeedback"],"classroomPairings":[["A","B"],["C","D"]],"coinWeights":[0.2,0.5,0.8],"subjectId":"A1NFBKUYYVUYWF","assignmentId":"3Z4AIRP3C7ZJI684XAXPCBVV30G1XB","hitId":"3FJ2RVH25ZSYKBA8MWMNC8NVPF629N","url":"https://gershmanlab.com/experiments/alicia/teaching/experiment/?hitId=3FJ2RVH25ZSYKBA8MWMNC8NVPF629N&workerId=A1NFBKUYYVUYWF&assignmentId=3Z4AIRP3C7ZJI684XAXPCBVV30G1XB&a=3I4Z7&tp_a=3I4Z7&b=3Z4AIRP3C7ZJI684XAXPCBVV30G1XB&tp_b=3Z4AIRP3C7ZJI684XAXPCBVV30G1XB&c=365717&tp_c=365717"},{"rt":23669,"response":{"heads":"15","tails":"15"},"type":"response","condition":"seqFeedback","trueTheta":0.5,"classrooms":["C","D"],"studentTrueClassroom":"D","exampleSet":"second","trial_type":"survey-html-form","trial_index":61,"time_elapsed":1045842,"internal_node_id":"0.0-60.0-0.0","params":{"nStudents":24,"maxFlips":30,"completionMinutes":45,"basePay":8,"maxBonus":9,"perTrialBonus":0.5,"perTrialBonusThreshold":0.05,"exampleCost":0.01},"classroomParams":{"A":{"a":1,"b":4},"B":{"a":4,"b":1},"C":{"a":2,"b":8},"D":{"a":8,"b":2}},"conditions":["nonSeqFull","nonSeqPartial","seqNoFeedback","seqFeedback"],"classroomPairings":[["A","B"],["C","D"]],"coinWeights":[0.2,0.5,0.8],"subjectId":"A1NFBKUYYVUYWF","assignmentId":"3Z4AIRP3C7ZJI684XAXPCBVV30G1XB","hitId":"3FJ2RVH25ZSYKBA8MWMNC8NVPF629N","url":"https://gershmanlab.com/experiments/alicia/teaching/experiment/?hitId=3FJ2RVH25ZSYKBA8MWMNC8NVPF629N&workerId=A1NFBKUYYVUYWF&assignmentId=3Z4AIRP3C7ZJI684XAXPCBVV30G1XB&a=3I4Z7&tp_a=3I4Z7&b=3Z4AIRP3C7ZJI684XAXPCBVV30G1XB&tp_b=3Z4AIRP3C7ZJI684XAXPCBVV30G1XB&c=365717&tp_c=365717","firstResponseHeads":5,"firstResponseTails":5,"secondResponseHeads":15,"secondResponseTails":15,"totalHeads":20,"totalTails":20,"studentIndex":6,"studentTrueHypers":{"a":8,"b":2},"studentGuess":0.56,"delta":0.06000000000000005,"bonus":0,"bonusSoFar":0.5,"totalExamples":40},{"rt":null,"stimulus":"Sending examples to student... ","response":null,"trial_type":"html-keyboard-response","trial_index":62,"time_elapsed":1047599,"internal_node_id":"0.0-61.0","params":{"nStudents":24,"maxFlips":30,"completionMinutes":45,"basePay":8,"maxBonus":9,"perTrialBonus":0.5,"perTrialBonusThreshold":0.05,"exampleCost":0.01},"classroomParams":{"A":{"a":1,"b":4},"B":{"a":4,"b":1},"C":{"a":2,"b":8},"D":{"a":8,"b":2}},"conditions":["nonSeqFull","nonSeqPartial","seqNoFeedback","seqFeedback"],"classroomPairings":[["A","B"],["C","D"]],"coinWeights":[0.2,0.5,0.8],"subjectId":"A1NFBKUYYVUYWF","assignmentId":"3Z4AIRP3C7ZJI684XAXPCBVV30G1XB","hitId":"3FJ2RVH25ZSYKBA8MWMNC8NVPF629N","url":"https://gershmanlab.com/experiments/alicia/teaching/experiment/?hitId=3FJ2RVH25ZSYKBA8MWMNC8NVPF629N&workerId=A1NFBKUYYVUYWF&assignmentId=3Z4AIRP3C7ZJI684XAXPCBVV30G1XB&a=3I4Z7&tp_a=3I4Z7&b=3Z4AIRP3C7ZJI684XAXPCBVV30G1XB&tp_b=3Z4AIRP3C7ZJI684XAXPCBVV30G1XB&c=365717&tp_c=365717"},{"rt":null,"stimulus":"Examples sent to student! Waiting for student...","response":null,"trial_type":"html-keyboard-response","trial_index":63,"time_elapsed":1053605,"internal_node_id":"0.0-62.0","params":{"nStudents":24,"maxFlips":30,"completionMinutes":45,"basePay":8,"maxBonus":9,"perTrialBonus":0.5,"perTrialBonusThreshold":0.05,"exampleCost":0.01},"classroomParams":{"A":{"a":1,"b":4},"B":{"a":4,"b":1},"C":{"a":2,"b":8},"D":{"a":8,"b":2}},"conditions":["nonSeqFull","nonSeqPartial","seqNoFeedback","seqFeedback"],"classroomPairings":[["A","B"],["C","D"]],"coinWeights":[0.2,0.5,0.8],"subjectId":"A1NFBKUYYVUYWF","assignmentId":"3Z4AIRP3C7ZJI684XAXPCBVV30G1XB","hitId":"3FJ2RVH25ZSYKBA8MWMNC8NVPF629N","url":"https://gershmanlab.com/experiments/alicia/teaching/experiment/?hitId=3FJ2RVH25ZSYKBA8MWMNC8NVPF629N&workerId=A1NFBKUYYVUYWF&assignmentId=3Z4AIRP3C7ZJI684XAXPCBVV30G1XB&a=3I4Z7&tp_a=3I4Z7&b=3Z4AIRP3C7ZJI684XAXPCBVV30G1XB&tp_b=3Z4AIRP3C7ZJI684XAXPCBVV30G1XB&c=365717&tp_c=365717"},{"rt":6852,"stimulus":"\n                <p>Student 7's first guess for coin weight: <b style=\"color:Tomato\";>0.65</b></p>\n                <p>Student 7's second guess for coin weight: <b style=\"color:Tomato\";>0.56</b></p>\n                <p>You received a bonus of <b>$0.00</b> based on the student's second guess.</p>\n                <p>Total bonus so far: <b>$0.50</b></p>\n                <p>Press any key to continue.</p>\n                ","response":"enter","trial_type":"html-keyboard-response","trial_index":64,"time_elapsed":1060458,"internal_node_id":"0.0-63.0","params":{"nStudents":24,"maxFlips":30,"completionMinutes":45,"basePay":8,"maxBonus":9,"perTrialBonus":0.5,"perTrialBonusThreshold":0.05,"exampleCost":0.01},"classroomParams":{"A":{"a":1,"b":4},"B":{"a":4,"b":1},"C":{"a":2,"b":8},"D":{"a":8,"b":2}},"conditions":["nonSeqFull","nonSeqPartial","seqNoFeedback","seqFeedback"],"classroomPairings":[["A","B"],["C","D"]],"coinWeights":[0.2,0.5,0.8],"subjectId":"A1NFBKUYYVUYWF","assignmentId":"3Z4AIRP3C7ZJI684XAXPCBVV30G1XB","hitId":"3FJ2RVH25ZSYKBA8MWMNC8NVPF629N","url":"https://gershmanlab.com/experiments/alicia/teaching/experiment/?hitId=3FJ2RVH25ZSYKBA8MWMNC8NVPF629N&workerId=A1NFBKUYYVUYWF&assignmentId=3Z4AIRP3C7ZJI684XAXPCBVV30G1XB&a=3I4Z7&tp_a=3I4Z7&b=3Z4AIRP3C7ZJI684XAXPCBVV30G1XB&tp_b=3Z4AIRP3C7ZJI684XAXPCBVV30G1XB&c=365717&tp_c=365717"},{"rt":null,"stimulus":"<div style=\"font-size:60px;\">Next student</div>","response":null,"trial_type":"html-keyboard-response","trial_index":65,"time_elapsed":1062716,"internal_node_id":"0.0-64.0-0.0","params":{"nStudents":24,"maxFlips":30,"completionMinutes":45,"basePay":8,"maxBonus":9,"perTrialBonus":0.5,"perTrialBonusThreshold":0.05,"exampleCost":0.01},"classroomParams":{"A":{"a":1,"b":4},"B":{"a":4,"b":1},"C":{"a":2,"b":8},"D":{"a":8,"b":2}},"conditions":["nonSeqFull","nonSeqPartial","seqNoFeedback","seqFeedback"],"classroomPairings":[["A","B"],["C","D"]],"coinWeights":[0.2,0.5,0.8],"subjectId":"A1NFBKUYYVUYWF","assignmentId":"3Z4AIRP3C7ZJI684XAXPCBVV30G1XB","hitId":"3FJ2RVH25ZSYKBA8MWMNC8NVPF629N","url":"https://gershmanlab.com/experiments/alicia/teaching/experiment/?hitId=3FJ2RVH25ZSYKBA8MWMNC8NVPF629N&workerId=A1NFBKUYYVUYWF&assignmentId=3Z4AIRP3C7ZJI684XAXPCBVV30G1XB&a=3I4Z7&tp_a=3I4Z7&b=3Z4AIRP3C7ZJI684XAXPCBVV30G1XB&tp_b=3Z4AIRP3C7ZJI684XAXPCBVV30G1XB&c=365717&tp_c=365717"},{"rt":11280,"stimulus":"\n            <h4 style=\"color:Orange;\">Student 8</h4>\n            <h2>The weight of your coin is <b style=\"color:Tomato;\">0.8</b>.</h2>\n            <p>In this block, you will be giving <b>one</b> set of examples to Student 8.</p>\n                <p>You will receive feedback at the end of the block.</p>\n            <p></p>","response":0,"trial_type":"html-button-response","trial_index":66,"time_elapsed":1073997,"internal_node_id":"0.0-65.0","params":{"nStudents":24,"maxFlips":30,"completionMinutes":45,"basePay":8,"maxBonus":9,"perTrialBonus":0.5,"perTrialBonusThreshold":0.05,"exampleCost":0.01},"classroomParams":{"A":{"a":1,"b":4},"B":{"a":4,"b":1},"C":{"a":2,"b":8},"D":{"a":8,"b":2}},"conditions":["nonSeqFull","nonSeqPartial","seqNoFeedback","seqFeedback"],"classroomPairings":[["A","B"],["C","D"]],"coinWeights":[0.2,0.5,0.8],"subjectId":"A1NFBKUYYVUYWF","assignmentId":"3Z4AIRP3C7ZJI684XAXPCBVV30G1XB","hitId":"3FJ2RVH25ZSYKBA8MWMNC8NVPF629N","url":"https://gershmanlab.com/experiments/alicia/teaching/experiment/?hitId=3FJ2RVH25ZSYKBA8MWMNC8NVPF629N&workerId=A1NFBKUYYVUYWF&assignmentId=3Z4AIRP3C7ZJI684XAXPCBVV30G1XB&a=3I4Z7&tp_a=3I4Z7&b=3Z4AIRP3C7ZJI684XAXPCBVV30G1XB&tp_b=3Z4AIRP3C7ZJI684XAXPCBVV30G1XB&c=365717&tp_c=365717"},{"rt":16685,"response":{"heads":"16","tails":"4"},"type":"response","condition":"nonSeqFull","trueTheta":0.8,"classrooms":["C","D"],"studentTrueClassroom":"D","exampleSet":"first","trial_type":"survey-html-form","trial_index":67,"time_elapsed":1090683,"internal_node_id":"0.0-66.0-0.0","params":{"nStudents":24,"maxFlips":30,"completionMinutes":45,"basePay":8,"maxBonus":9,"perTrialBonus":0.5,"perTrialBonusThreshold":0.05,"exampleCost":0.01},"classroomParams":{"A":{"a":1,"b":4},"B":{"a":4,"b":1},"C":{"a":2,"b":8},"D":{"a":8,"b":2}},"conditions":["nonSeqFull","nonSeqPartial","seqNoFeedback","seqFeedback"],"classroomPairings":[["A","B"],["C","D"]],"coinWeights":[0.2,0.5,0.8],"subjectId":"A1NFBKUYYVUYWF","assignmentId":"3Z4AIRP3C7ZJI684XAXPCBVV30G1XB","hitId":"3FJ2RVH25ZSYKBA8MWMNC8NVPF629N","url":"https://gershmanlab.com/experiments/alicia/teaching/experiment/?hitId=3FJ2RVH25ZSYKBA8MWMNC8NVPF629N&workerId=A1NFBKUYYVUYWF&assignmentId=3Z4AIRP3C7ZJI684XAXPCBVV30G1XB&a=3I4Z7&tp_a=3I4Z7&b=3Z4AIRP3C7ZJI684XAXPCBVV30G1XB&tp_b=3Z4AIRP3C7ZJI684XAXPCBVV30G1XB&c=365717&tp_c=365717","heads":16,"tails":4,"studentIndex":7,"studentTrueHypers":{"a":8,"b":2},"studentGuess":0.8,"delta":0,"totalExamples":20,"bonus":0.3,"bonusSoFar":0.8},{"rt":null,"stimulus":"Sending examples to student... ","response":null,"trial_type":"html-keyboard-response","trial_index":68,"time_elapsed":1092697,"internal_node_id":"0.0-67.0","params":{"nStudents":24,"maxFlips":30,"completionMinutes":45,"basePay":8,"maxBonus":9,"perTrialBonus":0.5,"perTrialBonusThreshold":0.05,"exampleCost":0.01},"classroomParams":{"A":{"a":1,"b":4},"B":{"a":4,"b":1},"C":{"a":2,"b":8},"D":{"a":8,"b":2}},"conditions":["nonSeqFull","nonSeqPartial","seqNoFeedback","seqFeedback"],"classroomPairings":[["A","B"],["C","D"]],"coinWeights":[0.2,0.5,0.8],"subjectId":"A1NFBKUYYVUYWF","assignmentId":"3Z4AIRP3C7ZJI684XAXPCBVV30G1XB","hitId":"3FJ2RVH25ZSYKBA8MWMNC8NVPF629N","url":"https://gershmanlab.com/experiments/alicia/teaching/experiment/?hitId=3FJ2RVH25ZSYKBA8MWMNC8NVPF629N&workerId=A1NFBKUYYVUYWF&assignmentId=3Z4AIRP3C7ZJI684XAXPCBVV30G1XB&a=3I4Z7&tp_a=3I4Z7&b=3Z4AIRP3C7ZJI684XAXPCBVV30G1XB&tp_b=3Z4AIRP3C7ZJI684XAXPCBVV30G1XB&c=365717&tp_c=365717"},{"rt":null,"stimulus":"Examples sent to student! Waiting for student...","response":null,"trial_type":"html-keyboard-response","trial_index":69,"time_elapsed":1096708,"internal_node_id":"0.0-68.0","params":{"nStudents":24,"maxFlips":30,"completionMinutes":45,"basePay":8,"maxBonus":9,"perTrialBonus":0.5,"perTrialBonusThreshold":0.05,"exampleCost":0.01},"classroomParams":{"A":{"a":1,"b":4},"B":{"a":4,"b":1},"C":{"a":2,"b":8},"D":{"a":8,"b":2}},"conditions":["nonSeqFull","nonSeqPartial","seqNoFeedback","seqFeedback"],"classroomPairings":[["A","B"],["C","D"]],"coinWeights":[0.2,0.5,0.8],"subjectId":"A1NFBKUYYVUYWF","assignmentId":"3Z4AIRP3C7ZJI684XAXPCBVV30G1XB","hitId":"3FJ2RVH25ZSYKBA8MWMNC8NVPF629N","url":"https://gershmanlab.com/experiments/alicia/teaching/experiment/?hitId=3FJ2RVH25ZSYKBA8MWMNC8NVPF629N&workerId=A1NFBKUYYVUYWF&assignmentId=3Z4AIRP3C7ZJI684XAXPCBVV30G1XB&a=3I4Z7&tp_a=3I4Z7&b=3Z4AIRP3C7ZJI684XAXPCBVV30G1XB&tp_b=3Z4AIRP3C7ZJI684XAXPCBVV30G1XB&c=365717&tp_c=365717"},{"rt":3125,"stimulus":"\n                <p>Student's guess for coin weight: <b style=\"color:Tomato;\">0.80</b></p>\n                <p>You received a bonus of <b>$0.3</b>. Total bonus so far: <b>$0.80</b></b></p>\n                <p></p>\n                <p>Press any key to continue.</p>\n                ","response":"enter","trial_type":"html-keyboard-response","trial_index":70,"time_elapsed":1099834,"internal_node_id":"0.0-69.0","params":{"nStudents":24,"maxFlips":30,"completionMinutes":45,"basePay":8,"maxBonus":9,"perTrialBonus":0.5,"perTrialBonusThreshold":0.05,"exampleCost":0.01},"classroomParams":{"A":{"a":1,"b":4},"B":{"a":4,"b":1},"C":{"a":2,"b":8},"D":{"a":8,"b":2}},"conditions":["nonSeqFull","nonSeqPartial","seqNoFeedback","seqFeedback"],"classroomPairings":[["A","B"],["C","D"]],"coinWeights":[0.2,0.5,0.8],"subjectId":"A1NFBKUYYVUYWF","assignmentId":"3Z4AIRP3C7ZJI684XAXPCBVV30G1XB","hitId":"3FJ2RVH25ZSYKBA8MWMNC8NVPF629N","url":"https://gershmanlab.com/experiments/alicia/teaching/experiment/?hitId=3FJ2RVH25ZSYKBA8MWMNC8NVPF629N&workerId=A1NFBKUYYVUYWF&assignmentId=3Z4AIRP3C7ZJI684XAXPCBVV30G1XB&a=3I4Z7&tp_a=3I4Z7&b=3Z4AIRP3C7ZJI684XAXPCBVV30G1XB&tp_b=3Z4AIRP3C7ZJI684XAXPCBVV30G1XB&c=365717&tp_c=365717"},{"rt":null,"stimulus":"<div style=\"font-size:60px;\">Next student</div>","response":null,"trial_type":"html-keyboard-response","trial_index":71,"time_elapsed":1102335,"internal_node_id":"0.0-70.0-0.0","params":{"nStudents":24,"maxFlips":30,"completionMinutes":45,"basePay":8,"maxBonus":9,"perTrialBonus":0.5,"perTrialBonusThreshold":0.05,"exampleCost":0.01},"classroomParams":{"A":{"a":1,"b":4},"B":{"a":4,"b":1},"C":{"a":2,"b":8},"D":{"a":8,"b":2}},"conditions":["nonSeqFull","nonSeqPartial","seqNoFeedback","seqFeedback"],"classroomPairings":[["A","B"],["C","D"]],"coinWeights":[0.2,0.5,0.8],"subjectId":"A1NFBKUYYVUYWF","assignmentId":"3Z4AIRP3C7ZJI684XAXPCBVV30G1XB","hitId":"3FJ2RVH25ZSYKBA8MWMNC8NVPF629N","url":"https://gershmanlab.com/experiments/alicia/teaching/experiment/?hitId=3FJ2RVH25ZSYKBA8MWMNC8NVPF629N&workerId=A1NFBKUYYVUYWF&assignmentId=3Z4AIRP3C7ZJI684XAXPCBVV30G1XB&a=3I4Z7&tp_a=3I4Z7&b=3Z4AIRP3C7ZJI684XAXPCBVV30G1XB&tp_b=3Z4AIRP3C7ZJI684XAXPCBVV30G1XB&c=365717&tp_c=365717"},{"rt":2762,"stimulus":"\n            <h4 style=\"color:Orange;\">Student 9</h4>\n            <h2>The weight of your coin is <b style=\"color:Tomato;\">0.8</b>.</h2>\n            <p>In this block, you will be giving <b>one</b> set of examples to Student 9.</p>\n                <p>You will receive feedback at the end of the block.</p>\n            <p></p>","response":0,"trial_type":"html-button-response","trial_index":72,"time_elapsed":1105099,"internal_node_id":"0.0-71.0","params":{"nStudents":24,"maxFlips":30,"completionMinutes":45,"basePay":8,"maxBonus":9,"perTrialBonus":0.5,"perTrialBonusThreshold":0.05,"exampleCost":0.01},"classroomParams":{"A":{"a":1,"b":4},"B":{"a":4,"b":1},"C":{"a":2,"b":8},"D":{"a":8,"b":2}},"conditions":["nonSeqFull","nonSeqPartial","seqNoFeedback","seqFeedback"],"classroomPairings":[["A","B"],["C","D"]],"coinWeights":[0.2,0.5,0.8],"subjectId":"A1NFBKUYYVUYWF","assignmentId":"3Z4AIRP3C7ZJI684XAXPCBVV30G1XB","hitId":"3FJ2RVH25ZSYKBA8MWMNC8NVPF629N","url":"https://gershmanlab.com/experiments/alicia/teaching/experiment/?hitId=3FJ2RVH25ZSYKBA8MWMNC8NVPF629N&workerId=A1NFBKUYYVUYWF&assignmentId=3Z4AIRP3C7ZJI684XAXPCBVV30G1XB&a=3I4Z7&tp_a=3I4Z7&b=3Z4AIRP3C7ZJI684XAXPCBVV30G1XB&tp_b=3Z4AIRP3C7ZJI684XAXPCBVV30G1XB&c=365717&tp_c=365717"},{"rt":49167,"response":{"heads":"15","tails":"1"},"type":"response","condition":"nonSeqFull","trueTheta":0.8,"classrooms":["A","B"],"studentTrueClassroom":"A","exampleSet":"first","trial_type":"survey-html-form","trial_index":73,"time_elapsed":1154267,"internal_node_id":"0.0-72.0-0.0","params":{"nStudents":24,"maxFlips":30,"completionMinutes":45,"basePay":8,"maxBonus":9,"perTrialBonus":0.5,"perTrialBonusThreshold":0.05,"exampleCost":0.01},"classroomParams":{"A":{"a":1,"b":4},"B":{"a":4,"b":1},"C":{"a":2,"b":8},"D":{"a":8,"b":2}},"conditions":["nonSeqFull","nonSeqPartial","seqNoFeedback","seqFeedback"],"classroomPairings":[["A","B"],["C","D"]],"coinWeights":[0.2,0.5,0.8],"subjectId":"A1NFBKUYYVUYWF","assignmentId":"3Z4AIRP3C7ZJI684XAXPCBVV30G1XB","hitId":"3FJ2RVH25ZSYKBA8MWMNC8NVPF629N","url":"https://gershmanlab.com/experiments/alicia/teaching/experiment/?hitId=3FJ2RVH25ZSYKBA8MWMNC8NVPF629N&workerId=A1NFBKUYYVUYWF&assignmentId=3Z4AIRP3C7ZJI684XAXPCBVV30G1XB&a=3I4Z7&tp_a=3I4Z7&b=3Z4AIRP3C7ZJI684XAXPCBVV30G1XB&tp_b=3Z4AIRP3C7ZJI684XAXPCBVV30G1XB&c=365717&tp_c=365717","heads":15,"tails":1,"studentIndex":8,"studentTrueHypers":{"a":1,"b":4},"studentGuess":0.7619047619047619,"delta":0.03809523809523818,"totalExamples":16,"bonus":0.34,"bonusSoFar":1.14},{"rt":null,"stimulus":"Sending examples to student... ","response":null,"trial_type":"html-keyboard-response","trial_index":74,"time_elapsed":1155770,"internal_node_id":"0.0-73.0","params":{"nStudents":24,"maxFlips":30,"completionMinutes":45,"basePay":8,"maxBonus":9,"perTrialBonus":0.5,"perTrialBonusThreshold":0.05,"exampleCost":0.01},"classroomParams":{"A":{"a":1,"b":4},"B":{"a":4,"b":1},"C":{"a":2,"b":8},"D":{"a":8,"b":2}},"conditions":["nonSeqFull","nonSeqPartial","seqNoFeedback","seqFeedback"],"classroomPairings":[["A","B"],["C","D"]],"coinWeights":[0.2,0.5,0.8],"subjectId":"A1NFBKUYYVUYWF","assignmentId":"3Z4AIRP3C7ZJI684XAXPCBVV30G1XB","hitId":"3FJ2RVH25ZSYKBA8MWMNC8NVPF629N","url":"https://gershmanlab.com/experiments/alicia/teaching/experiment/?hitId=3FJ2RVH25ZSYKBA8MWMNC8NVPF629N&workerId=A1NFBKUYYVUYWF&assignmentId=3Z4AIRP3C7ZJI684XAXPCBVV30G1XB&a=3I4Z7&tp_a=3I4Z7&b=3Z4AIRP3C7ZJI684XAXPCBVV30G1XB&tp_b=3Z4AIRP3C7ZJI684XAXPCBVV30G1XB&c=365717&tp_c=365717"},{"rt":null,"stimulus":"Examples sent to student! Waiting for student...","response":null,"trial_type":"html-keyboard-response","trial_index":75,"time_elapsed":1160279,"internal_node_id":"0.0-74.0","params":{"nStudents":24,"maxFlips":30,"completionMinutes":45,"basePay":8,"maxBonus":9,"perTrialBonus":0.5,"perTrialBonusThreshold":0.05,"exampleCost":0.01},"classroomParams":{"A":{"a":1,"b":4},"B":{"a":4,"b":1},"C":{"a":2,"b":8},"D":{"a":8,"b":2}},"conditions":["nonSeqFull","nonSeqPartial","seqNoFeedback","seqFeedback"],"classroomPairings":[["A","B"],["C","D"]],"coinWeights":[0.2,0.5,0.8],"subjectId":"A1NFBKUYYVUYWF","assignmentId":"3Z4AIRP3C7ZJI684XAXPCBVV30G1XB","hitId":"3FJ2RVH25ZSYKBA8MWMNC8NVPF629N","url":"https://gershmanlab.com/experiments/alicia/teaching/experiment/?hitId=3FJ2RVH25ZSYKBA8MWMNC8NVPF629N&workerId=A1NFBKUYYVUYWF&assignmentId=3Z4AIRP3C7ZJI684XAXPCBVV30G1XB&a=3I4Z7&tp_a=3I4Z7&b=3Z4AIRP3C7ZJI684XAXPCBVV30G1XB&tp_b=3Z4AIRP3C7ZJI684XAXPCBVV30G1XB&c=365717&tp_c=365717"},{"rt":5153,"stimulus":"\n                <p>Student's guess for coin weight: <b style=\"color:Tomato;\">0.76</b></p>\n                <p>You received a bonus of <b>$0.34</b>. Total bonus so far: <b>$1.14</b></b></p>\n                <p></p>\n                <p>Press any key to continue.</p>\n                ","response":"enter","trial_type":"html-keyboard-response","trial_index":76,"time_elapsed":1165434,"internal_node_id":"0.0-75.0","params":{"nStudents":24,"maxFlips":30,"completionMinutes":45,"basePay":8,"maxBonus":9,"perTrialBonus":0.5,"perTrialBonusThreshold":0.05,"exampleCost":0.01},"classroomParams":{"A":{"a":1,"b":4},"B":{"a":4,"b":1},"C":{"a":2,"b":8},"D":{"a":8,"b":2}},"conditions":["nonSeqFull","nonSeqPartial","seqNoFeedback","seqFeedback"],"classroomPairings":[["A","B"],["C","D"]],"coinWeights":[0.2,0.5,0.8],"subjectId":"A1NFBKUYYVUYWF","assignmentId":"3Z4AIRP3C7ZJI684XAXPCBVV30G1XB","hitId":"3FJ2RVH25ZSYKBA8MWMNC8NVPF629N","url":"https://gershmanlab.com/experiments/alicia/teaching/experiment/?hitId=3FJ2RVH25ZSYKBA8MWMNC8NVPF629N&workerId=A1NFBKUYYVUYWF&assignmentId=3Z4AIRP3C7ZJI684XAXPCBVV30G1XB&a=3I4Z7&tp_a=3I4Z7&b=3Z4AIRP3C7ZJI684XAXPCBVV30G1XB&tp_b=3Z4AIRP3C7ZJI684XAXPCBVV30G1XB&c=365717&tp_c=365717"},{"rt":null,"stimulus":"<div style=\"font-size:60px;\">Next student</div>","response":null,"trial_type":"html-keyboard-response","trial_index":77,"time_elapsed":1167446,"internal_node_id":"0.0-76.0-0.0","params":{"nStudents":24,"maxFlips":30,"completionMinutes":45,"basePay":8,"maxBonus":9,"perTrialBonus":0.5,"perTrialBonusThreshold":0.05,"exampleCost":0.01},"classroomParams":{"A":{"a":1,"b":4},"B":{"a":4,"b":1},"C":{"a":2,"b":8},"D":{"a":8,"b":2}},"conditions":["nonSeqFull","nonSeqPartial","seqNoFeedback","seqFeedback"],"classroomPairings":[["A","B"],["C","D"]],"coinWeights":[0.2,0.5,0.8],"subjectId":"A1NFBKUYYVUYWF","assignmentId":"3Z4AIRP3C7ZJI684XAXPCBVV30G1XB","hitId":"3FJ2RVH25ZSYKBA8MWMNC8NVPF629N","url":"https://gershmanlab.com/experiments/alicia/teaching/experiment/?hitId=3FJ2RVH25ZSYKBA8MWMNC8NVPF629N&workerId=A1NFBKUYYVUYWF&assignmentId=3Z4AIRP3C7ZJI684XAXPCBVV30G1XB&a=3I4Z7&tp_a=3I4Z7&b=3Z4AIRP3C7ZJI684XAXPCBVV30G1XB&tp_b=3Z4AIRP3C7ZJI684XAXPCBVV30G1XB&c=365717&tp_c=365717"},{"rt":6125,"stimulus":"\n            <h4 style=\"color:Orange;\">Student 10</h4>\n            <h2>The weight of your coin is <b style=\"color:Tomato;\">0.2</b>.</h2>\n            <p>In this block, you will be giving <b>one</b> set of examples to Student 10.</p>\n                <p>You will receive feedback at the end of the block.</p>\n            <p></p>","response":0,"trial_type":"html-button-response","trial_index":78,"time_elapsed":1173573,"internal_node_id":"0.0-77.0","params":{"nStudents":24,"maxFlips":30,"completionMinutes":45,"basePay":8,"maxBonus":9,"perTrialBonus":0.5,"perTrialBonusThreshold":0.05,"exampleCost":0.01},"classroomParams":{"A":{"a":1,"b":4},"B":{"a":4,"b":1},"C":{"a":2,"b":8},"D":{"a":8,"b":2}},"conditions":["nonSeqFull","nonSeqPartial","seqNoFeedback","seqFeedback"],"classroomPairings":[["A","B"],["C","D"]],"coinWeights":[0.2,0.5,0.8],"subjectId":"A1NFBKUYYVUYWF","assignmentId":"3Z4AIRP3C7ZJI684XAXPCBVV30G1XB","hitId":"3FJ2RVH25ZSYKBA8MWMNC8NVPF629N","url":"https://gershmanlab.com/experiments/alicia/teaching/experiment/?hitId=3FJ2RVH25ZSYKBA8MWMNC8NVPF629N&workerId=A1NFBKUYYVUYWF&assignmentId=3Z4AIRP3C7ZJI684XAXPCBVV30G1XB&a=3I4Z7&tp_a=3I4Z7&b=3Z4AIRP3C7ZJI684XAXPCBVV30G1XB&tp_b=3Z4AIRP3C7ZJI684XAXPCBVV30G1XB&c=365717&tp_c=365717"},{"rt":47123,"response":{"heads":"4","tails":"16"},"type":"response","condition":"nonSeqPartial","trueTheta":0.2,"classrooms":["C","D"],"studentTrueClassroom":"D","exampleSet":"first","trial_type":"survey-html-form","trial_index":79,"time_elapsed":1220696,"internal_node_id":"0.0-78.0-0.0","params":{"nStudents":24,"maxFlips":30,"completionMinutes":45,"basePay":8,"maxBonus":9,"perTrialBonus":0.5,"perTrialBonusThreshold":0.05,"exampleCost":0.01},"classroomParams":{"A":{"a":1,"b":4},"B":{"a":4,"b":1},"C":{"a":2,"b":8},"D":{"a":8,"b":2}},"conditions":["nonSeqFull","nonSeqPartial","seqNoFeedback","seqFeedback"],"classroomPairings":[["A","B"],["C","D"]],"coinWeights":[0.2,0.5,0.8],"subjectId":"A1NFBKUYYVUYWF","assignmentId":"3Z4AIRP3C7ZJI684XAXPCBVV30G1XB","hitId":"3FJ2RVH25ZSYKBA8MWMNC8NVPF629N","url":"https://gershmanlab.com/experiments/alicia/teaching/experiment/?hitId=3FJ2RVH25ZSYKBA8MWMNC8NVPF629N&workerId=A1NFBKUYYVUYWF&assignmentId=3Z4AIRP3C7ZJI684XAXPCBVV30G1XB&a=3I4Z7&tp_a=3I4Z7&b=3Z4AIRP3C7ZJI684XAXPCBVV30G1XB&tp_b=3Z4AIRP3C7ZJI684XAXPCBVV30G1XB&c=365717&tp_c=365717","heads":4,"tails":16,"studentIndex":9,"studentTrueHypers":{"a":8,"b":2},"studentGuess":0.4,"delta":0.2,"totalExamples":20,"bonus":0,"bonusSoFar":1.14},{"rt":null,"stimulus":"Sending examples to student... ","response":null,"trial_type":"html-keyboard-response","trial_index":80,"time_elapsed":1222201,"internal_node_id":"0.0-79.0","params":{"nStudents":24,"maxFlips":30,"completionMinutes":45,"basePay":8,"maxBonus":9,"perTrialBonus":0.5,"perTrialBonusThreshold":0.05,"exampleCost":0.01},"classroomParams":{"A":{"a":1,"b":4},"B":{"a":4,"b":1},"C":{"a":2,"b":8},"D":{"a":8,"b":2}},"conditions":["nonSeqFull","nonSeqPartial","seqNoFeedback","seqFeedback"],"classroomPairings":[["A","B"],["C","D"]],"coinWeights":[0.2,0.5,0.8],"subjectId":"A1NFBKUYYVUYWF","assignmentId":"3Z4AIRP3C7ZJI684XAXPCBVV30G1XB","hitId":"3FJ2RVH25ZSYKBA8MWMNC8NVPF629N","url":"https://gershmanlab.com/experiments/alicia/teaching/experiment/?hitId=3FJ2RVH25ZSYKBA8MWMNC8NVPF629N&workerId=A1NFBKUYYVUYWF&assignmentId=3Z4AIRP3C7ZJI684XAXPCBVV30G1XB&a=3I4Z7&tp_a=3I4Z7&b=3Z4AIRP3C7ZJI684XAXPCBVV30G1XB&tp_b=3Z4AIRP3C7ZJI684XAXPCBVV30G1XB&c=365717&tp_c=365717"},{"rt":null,"stimulus":"Examples sent to student! Waiting for student...","response":null,"trial_type":"html-keyboard-response","trial_index":81,"time_elapsed":1226217,"internal_node_id":"0.0-80.0","params":{"nStudents":24,"maxFlips":30,"completionMinutes":45,"basePay":8,"maxBonus":9,"perTrialBonus":0.5,"perTrialBonusThreshold":0.05,"exampleCost":0.01},"classroomParams":{"A":{"a":1,"b":4},"B":{"a":4,"b":1},"C":{"a":2,"b":8},"D":{"a":8,"b":2}},"conditions":["nonSeqFull","nonSeqPartial","seqNoFeedback","seqFeedback"],"classroomPairings":[["A","B"],["C","D"]],"coinWeights":[0.2,0.5,0.8],"subjectId":"A1NFBKUYYVUYWF","assignmentId":"3Z4AIRP3C7ZJI684XAXPCBVV30G1XB","hitId":"3FJ2RVH25ZSYKBA8MWMNC8NVPF629N","url":"https://gershmanlab.com/experiments/alicia/teaching/experiment/?hitId=3FJ2RVH25ZSYKBA8MWMNC8NVPF629N&workerId=A1NFBKUYYVUYWF&assignmentId=3Z4AIRP3C7ZJI684XAXPCBVV30G1XB&a=3I4Z7&tp_a=3I4Z7&b=3Z4AIRP3C7ZJI684XAXPCBVV30G1XB&tp_b=3Z4AIRP3C7ZJI684XAXPCBVV30G1XB&c=365717&tp_c=365717"},{"rt":4527,"stimulus":"\n                <p>Student's guess for coin weight: <b style=\"color:Tomato;\">0.40</b></p>\n                <p>You received a bonus of <b>$0</b>. Total bonus so far: <b>$1.14</b></b></p>\n                <p></p>\n                <p>Press any key to continue.</p>\n                ","response":"l","trial_type":"html-keyboard-response","trial_index":82,"time_elapsed":1230745,"internal_node_id":"0.0-81.0","params":{"nStudents":24,"maxFlips":30,"completionMinutes":45,"basePay":8,"maxBonus":9,"perTrialBonus":0.5,"perTrialBonusThreshold":0.05,"exampleCost":0.01},"classroomParams":{"A":{"a":1,"b":4},"B":{"a":4,"b":1},"C":{"a":2,"b":8},"D":{"a":8,"b":2}},"conditions":["nonSeqFull","nonSeqPartial","seqNoFeedback","seqFeedback"],"classroomPairings":[["A","B"],["C","D"]],"coinWeights":[0.2,0.5,0.8],"subjectId":"A1NFBKUYYVUYWF","assignmentId":"3Z4AIRP3C7ZJI684XAXPCBVV30G1XB","hitId":"3FJ2RVH25ZSYKBA8MWMNC8NVPF629N","url":"https://gershmanlab.com/experiments/alicia/teaching/experiment/?hitId=3FJ2RVH25ZSYKBA8MWMNC8NVPF629N&workerId=A1NFBKUYYVUYWF&assignmentId=3Z4AIRP3C7ZJI684XAXPCBVV30G1XB&a=3I4Z7&tp_a=3I4Z7&b=3Z4AIRP3C7ZJI684XAXPCBVV30G1XB&tp_b=3Z4AIRP3C7ZJI684XAXPCBVV30G1XB&c=365717&tp_c=365717"},{"rt":null,"stimulus":"<div style=\"font-size:60px;\">Next student</div>","response":null,"trial_type":"html-keyboard-response","trial_index":83,"time_elapsed":1233006,"internal_node_id":"0.0-82.0-0.0","params":{"nStudents":24,"maxFlips":30,"completionMinutes":45,"basePay":8,"maxBonus":9,"perTrialBonus":0.5,"perTrialBonusThreshold":0.05,"exampleCost":0.01},"classroomParams":{"A":{"a":1,"b":4},"B":{"a":4,"b":1},"C":{"a":2,"b":8},"D":{"a":8,"b":2}},"conditions":["nonSeqFull","nonSeqPartial","seqNoFeedback","seqFeedback"],"classroomPairings":[["A","B"],["C","D"]],"coinWeights":[0.2,0.5,0.8],"subjectId":"A1NFBKUYYVUYWF","assignmentId":"3Z4AIRP3C7ZJI684XAXPCBVV30G1XB","hitId":"3FJ2RVH25ZSYKBA8MWMNC8NVPF629N","url":"https://gershmanlab.com/experiments/alicia/teaching/experiment/?hitId=3FJ2RVH25ZSYKBA8MWMNC8NVPF629N&workerId=A1NFBKUYYVUYWF&assignmentId=3Z4AIRP3C7ZJI684XAXPCBVV30G1XB&a=3I4Z7&tp_a=3I4Z7&b=3Z4AIRP3C7ZJI684XAXPCBVV30G1XB&tp_b=3Z4AIRP3C7ZJI684XAXPCBVV30G1XB&c=365717&tp_c=365717"},{"rt":3108,"stimulus":"\n            <h4 style=\"color:Orange;\">Student 11</h4>\n            <h2>The weight of your coin is <b style=\"color:Tomato;\">0.5</b>.</h2>\n            <p>In this block, you will be giving <b>one</b> set of examples to Student 11.</p>\n                <p>You will receive feedback at the end of the block.</p>\n            <p></p>","response":0,"trial_type":"html-button-response","trial_index":84,"time_elapsed":1236116,"internal_node_id":"0.0-83.0","params":{"nStudents":24,"maxFlips":30,"completionMinutes":45,"basePay":8,"maxBonus":9,"perTrialBonus":0.5,"perTrialBonusThreshold":0.05,"exampleCost":0.01},"classroomParams":{"A":{"a":1,"b":4},"B":{"a":4,"b":1},"C":{"a":2,"b":8},"D":{"a":8,"b":2}},"conditions":["nonSeqFull","nonSeqPartial","seqNoFeedback","seqFeedback"],"classroomPairings":[["A","B"],["C","D"]],"coinWeights":[0.2,0.5,0.8],"subjectId":"A1NFBKUYYVUYWF","assignmentId":"3Z4AIRP3C7ZJI684XAXPCBVV30G1XB","hitId":"3FJ2RVH25ZSYKBA8MWMNC8NVPF629N","url":"https://gershmanlab.com/experiments/alicia/teaching/experiment/?hitId=3FJ2RVH25ZSYKBA8MWMNC8NVPF629N&workerId=A1NFBKUYYVUYWF&assignmentId=3Z4AIRP3C7ZJI684XAXPCBVV30G1XB&a=3I4Z7&tp_a=3I4Z7&b=3Z4AIRP3C7ZJI684XAXPCBVV30G1XB&tp_b=3Z4AIRP3C7ZJI684XAXPCBVV30G1XB&c=365717&tp_c=365717"},{"rt":9581,"response":{"heads":"15","tails":"15"},"type":"response","condition":"nonSeqPartial","trueTheta":0.5,"classrooms":["C","D"],"studentTrueClassroom":"D","exampleSet":"first","trial_type":"survey-html-form","trial_index":85,"time_elapsed":1245698,"internal_node_id":"0.0-84.0-0.0","params":{"nStudents":24,"maxFlips":30,"completionMinutes":45,"basePay":8,"maxBonus":9,"perTrialBonus":0.5,"perTrialBonusThreshold":0.05,"exampleCost":0.01},"classroomParams":{"A":{"a":1,"b":4},"B":{"a":4,"b":1},"C":{"a":2,"b":8},"D":{"a":8,"b":2}},"conditions":["nonSeqFull"