[{"rt":2411,"stimulus":"Welcome to the experiment. Press any key to begin.","response":" ","trial_type":"html-keyboard-response","trial_index":0,"time_elapsed":2432,"internal_node_id":"0.0-0.0","params":{"nStudents":24,"maxFlips":30,"completionMinutes":45,"basePay":8,"maxBonus":9,"perTrialBonus":0.5,"perTrialBonusThreshold":0.05,"exampleCost":0.01},"classroomParams":{"A":{"a":1,"b":4},"B":{"a":4,"b":1},"C":{"a":2,"b":8},"D":{"a":8,"b":2}},"conditions":["nonSeqFull","nonSeqPartial","seqNoFeedback","seqFeedback"],"classroomPairings":[["A","B"],["C","D"]],"coinWeights":[0.2,0.5,0.8],"subjectId":"A1NVJB5O4H7ZCJ","assignmentId":"3XM0HYN6NLLDTY0PN7INPISMQBQPEB","hitId":"3AQN9REUTF20OMGWRXYK787QVFOYDP","url":"https://gershmanlab.com/experiments/alicia/teaching/experiment/?hitId=3AQN9REUTF20OMGWRXYK787QVFOYDP&workerId=A1NVJB5O4H7ZCJ&assignmentId=3XM0HYN6NLLDTY0PN7INPISMQBQPEB&a=6HMX9&tp_a=6HMX9&b=3XM0HYN6NLLDTY0PN7INPISMQBQPEB&tp_b=3XM0HYN6NLLDTY0PN7INPISMQBQPEB&c=365799&tp_c=365799"},{"rt":3096,"stimulus":"\n        <h3>Please read this consent agreement carefully before deciding whether to participate in this experiment.</h3>\n        <p><b>Purpose of the research:</b> To examine how people teach effectively.</p>\n        <p><b>What you will do in this research:</b> You will teach students the weights of different coins.</p>\n        <p><b>Time required:</b> This experiment will take 45 minutes to complete.</p>\n        <p><b>Risks:</b> There are no anticipated risks associated with participating in this study.             The effects of participating should be comparable to those you would experience from viewing a computer monitor             and using a mouse and keyboard for the duration of the experiment.</p>\n        <p><b>Benefits:</b> The study provides important information about the nature of teaching.</p>\n        <p><b>Compensation:</b> You will receive <b>$8</b> for completing the experiment and a performance bonus of up to <b>$9</b>.</p>\n        <p><b>Confidentiality:</b> Your participation in this study will remain confidential.             No personally identifiable information will be associated with your data.             Your de-identified data may be shared with other researchers and used in future projects.</p>\n        <p><b>Participation and withdrawal:</b> Your participation in this study is completely voluntary and             you may refuse to participate or you may choose to withdraw at any time without penalty or loss of\n            benefits to which you are otherwise entitled.</p>\n        <p><b>How to contact the researcher:</b> If you have questions or concerns about your participation            or payment, or want to request a summary of research findings, please contact\n            Alicia Chen, aliciachen@college.harvard.edu.</p>\n        <p><b>Whom to contact about your rights in this research:</b> For questions, concerns, suggestions,             or complaints that have not been or cannot be addressed by the researcher, or to report             research-related harm, please contact the Committee on the Use of Human Subjects in Research at Harvard University,             1414 Massachusetts Avenue, Second Floor, Cambridge, MA 02138. Phone: 617-496-2847. Email: cuhs@fas.harvard.edu.</p>\n        ","response":0,"trial_type":"html-button-response","trial_index":1,"time_elapsed":5532,"internal_node_id":"0.0-1.0","params":{"nStudents":24,"maxFlips":30,"completionMinutes":45,"basePay":8,"maxBonus":9,"perTrialBonus":0.5,"perTrialBonusThreshold":0.05,"exampleCost":0.01},"classroomParams":{"A":{"a":1,"b":4},"B":{"a":4,"b":1},"C":{"a":2,"b":8},"D":{"a":8,"b":2}},"conditions":["nonSeqFull","nonSeqPartial","seqNoFeedback","seqFeedback"],"classroomPairings":[["A","B"],["C","D"]],"coinWeights":[0.2,0.5,0.8],"subjectId":"A1NVJB5O4H7ZCJ","assignmentId":"3XM0HYN6NLLDTY0PN7INPISMQBQPEB","hitId":"3AQN9REUTF20OMGWRXYK787QVFOYDP","url":"https://gershmanlab.com/experiments/alicia/teaching/experiment/?hitId=3AQN9REUTF20OMGWRXYK787QVFOYDP&workerId=A1NVJB5O4H7ZCJ&assignmentId=3XM0HYN6NLLDTY0PN7INPISMQBQPEB&a=6HMX9&tp_a=6HMX9&b=3XM0HYN6NLLDTY0PN7INPISMQBQPEB&tp_b=3XM0HYN6NLLDTY0PN7INPISMQBQPEB&c=365799&tp_c=365799"},{"view_history":[{"page_index":0,"viewing_time":4821},{"page_index":1,"viewing_time":4596},{"page_index":0,"viewing_time":2780},{"page_index":1,"viewing_time":2228},{"page_index":2,"viewing_time":33847},{"page_index":3,"viewing_time":15425},{"page_index":4,"viewing_time":9044},{"page_index":5,"viewing_time":17723},{"page_index":6,"viewing_time":138957}],"rt":229423,"trial_type":"instructions","trial_index":2,"time_elapsed":234956,"internal_node_id":"0.0-2.0-0.0","params":{"nStudents":24,"maxFlips":30,"completionMinutes":45,"basePay":8,"maxBonus":9,"perTrialBonus":0.5,"perTrialBonusThreshold":0.05,"exampleCost":0.01},"classroomParams":{"A":{"a":1,"b":4},"B":{"a":4,"b":1},"C":{"a":2,"b":8},"D":{"a":8,"b":2}},"conditions":["nonSeqFull","nonSeqPartial","seqNoFeedback","seqFeedback"],"classroomPairings":[["A","B"],["C","D"]],"coinWeights":[0.2,0.5,0.8],"subjectId":"A1NVJB5O4H7ZCJ","assignmentId":"3XM0HYN6NLLDTY0PN7INPISMQBQPEB","hitId":"3AQN9REUTF20OMGWRXYK787QVFOYDP","url":"https://gershmanlab.com/experiments/alicia/teaching/experiment/?hitId=3AQN9REUTF20OMGWRXYK787QVFOYDP&workerId=A1NVJB5O4H7ZCJ&assignmentId=3XM0HYN6NLLDTY0PN7INPISMQBQPEB&a=6HMX9&tp_a=6HMX9&b=3XM0HYN6NLLDTY0PN7INPISMQBQPEB&tp_b=3XM0HYN6NLLDTY0PN7INPISMQBQPEB&c=365799&tp_c=365799"},{"rt":331478,"response":{"Q0":"Students in different classrooms will have seen a different number of heads and tails before seeing the examples you select for them.","Q1":"By <b>considering the student's classroom information</b> so that I can teach efficiently and accurately/helpfully at the same time (because each example I give to the student costs money!).","Q2":"The coin lands heads 90% of the time.","Q3":"No, I will teach a <b>new</b> student each time.","Q4":"The students are also on the same alien planet as you, where coins can be unfair.","Q5":"Based on the student's second (and final) guess."},"question_order":[4,1,0,2,3,5],"trial_type":"survey-multi-choice","trial_index":3,"time_elapsed":566438,"internal_node_id":"0.0-2.0-1.0","params":{"nStudents":24,"maxFlips":30,"completionMinutes":45,"basePay":8,"maxBonus":9,"perTrialBonus":0.5,"perTrialBonusThreshold":0.05,"exampleCost":0.01},"classroomParams":{"A":{"a":1,"b":4},"B":{"a":4,"b":1},"C":{"a":2,"b":8},"D":{"a":8,"b":2}},"conditions":["nonSeqFull","nonSeqPartial","seqNoFeedback","seqFeedback"],"classroomPairings":[["A","B"],["C","D"]],"coinWeights":[0.2,0.5,0.8],"subjectId":"A1NVJB5O4H7ZCJ","assignmentId":"3XM0HYN6NLLDTY0PN7INPISMQBQPEB","hitId":"3AQN9REUTF20OMGWRXYK787QVFOYDP","url":"https://gershmanlab.com/experiments/alicia/teaching/experiment/?hitId=3AQN9REUTF20OMGWRXYK787QVFOYDP&workerId=A1NVJB5O4H7ZCJ&assignmentId=3XM0HYN6NLLDTY0PN7INPISMQBQPEB&a=6HMX9&tp_a=6HMX9&b=3XM0HYN6NLLDTY0PN7INPISMQBQPEB&tp_b=3XM0HYN6NLLDTY0PN7INPISMQBQPEB&c=365799&tp_c=365799","pass":true},{"rt":null,"stimulus":"<div style=\"font-size:30px;\">Congrats on passing the comprehension quiz! The experiment will begin in a few seconds.</div>","response":null,"trial_type":"html-keyboard-response","trial_index":4,"time_elapsed":569445,"internal_node_id":"0.0-3.0","params":{"nStudents":24,"maxFlips":30,"completionMinutes":45,"basePay":8,"maxBonus":9,"perTrialBonus":0.5,"perTrialBonusThreshold":0.05,"exampleCost":0.01},"classroomParams":{"A":{"a":1,"b":4},"B":{"a":4,"b":1},"C":{"a":2,"b":8},"D":{"a":8,"b":2}},"conditions":["nonSeqFull","nonSeqPartial","seqNoFeedback","seqFeedback"],"classroomPairings":[["A","B"],["C","D"]],"coinWeights":[0.2,0.5,0.8],"subjectId":"A1NVJB5O4H7ZCJ","assignmentId":"3XM0HYN6NLLDTY0PN7INPISMQBQPEB","hitId":"3AQN9REUTF20OMGWRXYK787QVFOYDP","url":"https://gershmanlab.com/experiments/alicia/teaching/experiment/?hitId=3AQN9REUTF20OMGWRXYK787QVFOYDP&workerId=A1NVJB5O4H7ZCJ&assignmentId=3XM0HYN6NLLDTY0PN7INPISMQBQPEB&a=6HMX9&tp_a=6HMX9&b=3XM0HYN6NLLDTY0PN7INPISMQBQPEB&tp_b=3XM0HYN6NLLDTY0PN7INPISMQBQPEB&c=365799&tp_c=365799"},{"rt":null,"stimulus":"<div style=\"font-size:50px;\">First student</div>","response":null,"trial_type":"html-keyboard-response","trial_index":5,"time_elapsed":572452,"internal_node_id":"0.0-4.0","params":{"nStudents":24,"maxFlips":30,"completionMinutes":45,"basePay":8,"maxBonus":9,"perTrialBonus":0.5,"perTrialBonusThreshold":0.05,"exampleCost":0.01},"classroomParams":{"A":{"a":1,"b":4},"B":{"a":4,"b":1},"C":{"a":2,"b":8},"D":{"a":8,"b":2}},"conditions":["nonSeqFull","nonSeqPartial","seqNoFeedback","seqFeedback"],"classroomPairings":[["A","B"],["C","D"]],"coinWeights":[0.2,0.5,0.8],"subjectId":"A1NVJB5O4H7ZCJ","assignmentId":"3XM0HYN6NLLDTY0PN7INPISMQBQPEB","hitId":"3AQN9REUTF20OMGWRXYK787QVFOYDP","url":"https://gershmanlab.com/experiments/alicia/teaching/experiment/?hitId=3AQN9REUTF20OMGWRXYK787QVFOYDP&workerId=A1NVJB5O4H7ZCJ&assignmentId=3XM0HYN6NLLDTY0PN7INPISMQBQPEB&a=6HMX9&tp_a=6HMX9&b=3XM0HYN6NLLDTY0PN7INPISMQBQPEB&tp_b=3XM0HYN6NLLDTY0PN7INPISMQBQPEB&c=365799&tp_c=365799"},{"rt":17310,"stimulus":"\n            <h4 style=\"color:Orange;\">Student 1</h4>\n            <h2>The weight of your coin is <b style=\"color:Tomato;\">0.5</b>.</h2>\n            <p>In this block, you will be giving <b>two</b> sets of examples to Student 1.</p>\n                <p>You will see the student's guess after the first set of examples. You will also receive feedback at the end of the block.</p>\n            <p>To earn the highest bonus, you will have to <b>take into consideration the student's guess</b> when you choose your second set of examples.</p>","response":0,"trial_type":"html-button-response","trial_index":6,"time_elapsed":589765,"internal_node_id":"0.0-5.0","params":{"nStudents":24,"maxFlips":30,"completionMinutes":45,"basePay":8,"maxBonus":9,"perTrialBonus":0.5,"perTrialBonusThreshold":0.05,"exampleCost":0.01},"classroomParams":{"A":{"a":1,"b":4},"B":{"a":4,"b":1},"C":{"a":2,"b":8},"D":{"a":8,"b":2}},"conditions":["nonSeqFull","nonSeqPartial","seqNoFeedback","seqFeedback"],"classroomPairings":[["A","B"],["C","D"]],"coinWeights":[0.2,0.5,0.8],"subjectId":"A1NVJB5O4H7ZCJ","assignmentId":"3XM0HYN6NLLDTY0PN7INPISMQBQPEB","hitId":"3AQN9REUTF20OMGWRXYK787QVFOYDP","url":"https://gershmanlab.com/experiments/alicia/teaching/experiment/?hitId=3AQN9REUTF20OMGWRXYK787QVFOYDP&workerId=A1NVJB5O4H7ZCJ&assignmentId=3XM0HYN6NLLDTY0PN7INPISMQBQPEB&a=6HMX9&tp_a=6HMX9&b=3XM0HYN6NLLDTY0PN7INPISMQBQPEB&tp_b=3XM0HYN6NLLDTY0PN7INPISMQBQPEB&c=365799&tp_c=365799"},{"rt":41950,"response":{"heads":"6","tails":"1"},"type":"response","condition":"seqFeedback","trueTheta":0.5,"classrooms":["C","D"],"studentTrueClassroom":"C","exampleSet":"first","trial_type":"survey-html-form","trial_index":7,"time_elapsed":631717,"internal_node_id":"0.0-6.0-0.0","params":{"nStudents":24,"maxFlips":30,"completionMinutes":45,"basePay":8,"maxBonus":9,"perTrialBonus":0.5,"perTrialBonusThreshold":0.05,"exampleCost":0.01},"classroomParams":{"A":{"a":1,"b":4},"B":{"a":4,"b":1},"C":{"a":2,"b":8},"D":{"a":8,"b":2}},"conditions":["nonSeqFull","nonSeqPartial","seqNoFeedback","seqFeedback"],"classroomPairings":[["A","B"],["C","D"]],"coinWeights":[0.2,0.5,0.8],"subjectId":"A1NVJB5O4H7ZCJ","assignmentId":"3XM0HYN6NLLDTY0PN7INPISMQBQPEB","hitId":"3AQN9REUTF20OMGWRXYK787QVFOYDP","url":"https://gershmanlab.com/experiments/alicia/teaching/experiment/?hitId=3AQN9REUTF20OMGWRXYK787QVFOYDP&workerId=A1NVJB5O4H7ZCJ&assignmentId=3XM0HYN6NLLDTY0PN7INPISMQBQPEB&a=6HMX9&tp_a=6HMX9&b=3XM0HYN6NLLDTY0PN7INPISMQBQPEB&tp_b=3XM0HYN6NLLDTY0PN7INPISMQBQPEB&c=365799&tp_c=365799","heads":6,"tails":1,"studentIndex":0,"studentTrueHypers":{"a":2,"b":8},"studentGuess":0.47058823529411764,"delta":0.02941176470588236,"totalExamples":7,"bonusSoFar":0},{"rt":null,"stimulus":"Sending examples to student... ","response":null,"trial_type":"html-keyboard-response","trial_index":8,"time_elapsed":633235,"internal_node_id":"0.0-7.0","params":{"nStudents":24,"maxFlips":30,"completionMinutes":45,"basePay":8,"maxBonus":9,"perTrialBonus":0.5,"perTrialBonusThreshold":0.05,"exampleCost":0.01},"classroomParams":{"A":{"a":1,"b":4},"B":{"a":4,"b":1},"C":{"a":2,"b":8},"D":{"a":8,"b":2}},"conditions":["nonSeqFull","nonSeqPartial","seqNoFeedback","seqFeedback"],"classroomPairings":[["A","B"],["C","D"]],"coinWeights":[0.2,0.5,0.8],"subjectId":"A1NVJB5O4H7ZCJ","assignmentId":"3XM0HYN6NLLDTY0PN7INPISMQBQPEB","hitId":"3AQN9REUTF20OMGWRXYK787QVFOYDP","url":"https://gershmanlab.com/experiments/alicia/teaching/experiment/?hitId=3AQN9REUTF20OMGWRXYK787QVFOYDP&workerId=A1NVJB5O4H7ZCJ&assignmentId=3XM0HYN6NLLDTY0PN7INPISMQBQPEB&a=6HMX9&tp_a=6HMX9&b=3XM0HYN6NLLDTY0PN7INPISMQBQPEB&tp_b=3XM0HYN6NLLDTY0PN7INPISMQBQPEB&c=365799&tp_c=365799"},{"rt":null,"stimulus":"Examples sent to student! Waiting for student...","response":null,"trial_type":"html-keyboard-response","trial_index":9,"time_elapsed":637242,"internal_node_id":"0.0-8.0","params":{"nStudents":24,"maxFlips":30,"completionMinutes":45,"basePay":8,"maxBonus":9,"perTrialBonus":0.5,"perTrialBonusThreshold":0.05,"exampleCost":0.01},"classroomParams":{"A":{"a":1,"b":4},"B":{"a":4,"b":1},"C":{"a":2,"b":8},"D":{"a":8,"b":2}},"conditions":["nonSeqFull","nonSeqPartial","seqNoFeedback","seqFeedback"],"classroomPairings":[["A","B"],["C","D"]],"coinWeights":[0.2,0.5,0.8],"subjectId":"A1NVJB5O4H7ZCJ","assignmentId":"3XM0HYN6NLLDTY0PN7INPISMQBQPEB","hitId":"3AQN9REUTF20OMGWRXYK787QVFOYDP","url":"https://gershmanlab.com/experiments/alicia/teaching/experiment/?hitId=3AQN9REUTF20OMGWRXYK787QVFOYDP&workerId=A1NVJB5O4H7ZCJ&assignmentId=3XM0HYN6NLLDTY0PN7INPISMQBQPEB&a=6HMX9&tp_a=6HMX9&b=3XM0HYN6NLLDTY0PN7INPISMQBQPEB&tp_b=3XM0HYN6NLLDTY0PN7INPISMQBQPEB&c=365799&tp_c=365799"},{"rt":5904,"stimulus":"\n                <p>Student's guess for coin weight: <b style=\"color:Tomato;\">0.47</b></p>\n                <p></b></p>\n                <p>You will now send another set of examples to your student. <b>Remember to take your student's guess into consideration so that you can earn the highest bonus possible!</b> </p>\n                <p>Press any key to continue.</p>\n                ","response":" ","trial_type":"html-keyboard-response","trial_index":10,"time_elapsed":643149,"internal_node_id":"0.0-9.0","params":{"nStudents":24,"maxFlips":30,"completionMinutes":45,"basePay":8,"maxBonus":9,"perTrialBonus":0.5,"perTrialBonusThreshold":0.05,"exampleCost":0.01},"classroomParams":{"A":{"a":1,"b":4},"B":{"a":4,"b":1},"C":{"a":2,"b":8},"D":{"a":8,"b":2}},"conditions":["nonSeqFull","nonSeqPartial","seqNoFeedback","seqFeedback"],"classroomPairings":[["A","B"],["C","D"]],"coinWeights":[0.2,0.5,0.8],"subjectId":"A1NVJB5O4H7ZCJ","assignmentId":"3XM0HYN6NLLDTY0PN7INPISMQBQPEB","hitId":"3AQN9REUTF20OMGWRXYK787QVFOYDP","url":"https://gershmanlab.com/experiments/alicia/teaching/experiment/?hitId=3AQN9REUTF20OMGWRXYK787QVFOYDP&workerId=A1NVJB5O4H7ZCJ&assignmentId=3XM0HYN6NLLDTY0PN7INPISMQBQPEB&a=6HMX9&tp_a=6HMX9&b=3XM0HYN6NLLDTY0PN7INPISMQBQPEB&tp_b=3XM0HYN6NLLDTY0PN7INPISMQBQPEB&c=365799&tp_c=365799"},{"rt":16030,"response":{"heads":"7","tails":"3"},"type":"response","condition":"seqFeedback","trueTheta":0.5,"classrooms":["C","D"],"studentTrueClassroom":"C","exampleSet":"second","trial_type":"survey-html-form","trial_index":11,"time_elapsed":659181,"internal_node_id":"0.0-10.0-0.0","params":{"nStudents":24,"maxFlips":30,"completionMinutes":45,"basePay":8,"maxBonus":9,"perTrialBonus":0.5,"perTrialBonusThreshold":0.05,"exampleCost":0.01},"classroomParams":{"A":{"a":1,"b":4},"B":{"a":4,"b":1},"C":{"a":2,"b":8},"D":{"a":8,"b":2}},"conditions":["nonSeqFull","nonSeqPartial","seqNoFeedback","seqFeedback"],"classroomPairings":[["A","B"],["C","D"]],"coinWeights":[0.2,0.5,0.8],"subjectId":"A1NVJB5O4H7ZCJ","assignmentId":"3XM0HYN6NLLDTY0PN7INPISMQBQPEB","hitId":"3AQN9REUTF20OMGWRXYK787QVFOYDP","url":"https://gershmanlab.com/experiments/alicia/teaching/experiment/?hitId=3AQN9REUTF20OMGWRXYK787QVFOYDP&workerId=A1NVJB5O4H7ZCJ&assignmentId=3XM0HYN6NLLDTY0PN7INPISMQBQPEB&a=6HMX9&tp_a=6HMX9&b=3XM0HYN6NLLDTY0PN7INPISMQBQPEB&tp_b=3XM0HYN6NLLDTY0PN7INPISMQBQPEB&c=365799&tp_c=365799","firstResponseHeads":6,"firstResponseTails":1,"secondResponseHeads":7,"secondResponseTails":3,"totalHeads":13,"totalTails":4,"studentIndex":0,"studentTrueHypers":{"a":2,"b":8},"studentGuess":0.5555555555555556,"delta":0.05555555555555558,"bonus":0,"bonusSoFar":0,"totalExamples":17},{"rt":null,"stimulus":"Sending examples to student... ","response":null,"trial_type":"html-keyboard-response","trial_index":12,"time_elapsed":660687,"internal_node_id":"0.0-11.0","params":{"nStudents":24,"maxFlips":30,"completionMinutes":45,"basePay":8,"maxBonus":9,"perTrialBonus":0.5,"perTrialBonusThreshold":0.05,"exampleCost":0.01},"classroomParams":{"A":{"a":1,"b":4},"B":{"a":4,"b":1},"C":{"a":2,"b":8},"D":{"a":8,"b":2}},"conditions":["nonSeqFull","nonSeqPartial","seqNoFeedback","seqFeedback"],"classroomPairings":[["A","B"],["C","D"]],"coinWeights":[0.2,0.5,0.8],"subjectId":"A1NVJB5O4H7ZCJ","assignmentId":"3XM0HYN6NLLDTY0PN7INPISMQBQPEB","hitId":"3AQN9REUTF20OMGWRXYK787QVFOYDP","url":"https://gershmanlab.com/experiments/alicia/teaching/experiment/?hitId=3AQN9REUTF20OMGWRXYK787QVFOYDP&workerId=A1NVJB5O4H7ZCJ&assignmentId=3XM0HYN6NLLDTY0PN7INPISMQBQPEB&a=6HMX9&tp_a=6HMX9&b=3XM0HYN6NLLDTY0PN7INPISMQBQPEB&tp_b=3XM0HYN6NLLDTY0PN7INPISMQBQPEB&c=365799&tp_c=365799"},{"rt":null,"stimulus":"Examples sent to student! Waiting for student...","response":null,"trial_type":"html-keyboard-response","trial_index":13,"time_elapsed":665691,"internal_node_id":"0.0-12.0","params":{"nStudents":24,"maxFlips":30,"completionMinutes":45,"basePay":8,"maxBonus":9,"perTrialBonus":0.5,"perTrialBonusThreshold":0.05,"exampleCost":0.01},"classroomParams":{"A":{"a":1,"b":4},"B":{"a":4,"b":1},"C":{"a":2,"b":8},"D":{"a":8,"b":2}},"conditions":["nonSeqFull","nonSeqPartial","seqNoFeedback","seqFeedback"],"classroomPairings":[["A","B"],["C","D"]],"coinWeights":[0.2,0.5,0.8],"subjectId":"A1NVJB5O4H7ZCJ","assignmentId":"3XM0HYN6NLLDTY0PN7INPISMQBQPEB","hitId":"3AQN9REUTF20OMGWRXYK787QVFOYDP","url":"https://gershmanlab.com/experiments/alicia/teaching/experiment/?hitId=3AQN9REUTF20OMGWRXYK787QVFOYDP&workerId=A1NVJB5O4H7ZCJ&assignmentId=3XM0HYN6NLLDTY0PN7INPISMQBQPEB&a=6HMX9&tp_a=6HMX9&b=3XM0HYN6NLLDTY0PN7INPISMQBQPEB&tp_b=3XM0HYN6NLLDTY0PN7INPISMQBQPEB&c=365799&tp_c=365799"},{"rt":16862,"stimulus":"\n                <p>Student 1's first guess for coin weight: <b style=\"color:Tomato\";>0.47</b></p>\n                <p>Student 1's second guess for coin weight: <b style=\"color:Tomato\";>0.56</b></p>\n                <p>You received a bonus of <b>$0.00</b> based on the student's second guess.</p>\n                <p>Total bonus so far: <b>$0.00</b></p>\n                <p>Press any key to continue.</p>\n                ","response":" ","trial_type":"html-keyboard-response","trial_index":14,"time_elapsed":682557,"internal_node_id":"0.0-13.0","params":{"nStudents":24,"maxFlips":30,"completionMinutes":45,"basePay":8,"maxBonus":9,"perTrialBonus":0.5,"perTrialBonusThreshold":0.05,"exampleCost":0.01},"classroomParams":{"A":{"a":1,"b":4},"B":{"a":4,"b":1},"C":{"a":2,"b":8},"D":{"a":8,"b":2}},"conditions":["nonSeqFull","nonSeqPartial","seqNoFeedback","seqFeedback"],"classroomPairings":[["A","B"],["C","D"]],"coinWeights":[0.2,0.5,0.8],"subjectId":"A1NVJB5O4H7ZCJ","assignmentId":"3XM0HYN6NLLDTY0PN7INPISMQBQPEB","hitId":"3AQN9REUTF20OMGWRXYK787QVFOYDP","url":"https://gershmanlab.com/experiments/alicia/teaching/experiment/?hitId=3AQN9REUTF20OMGWRXYK787QVFOYDP&workerId=A1NVJB5O4H7ZCJ&assignmentId=3XM0HYN6NLLDTY0PN7INPISMQBQPEB&a=6HMX9&tp_a=6HMX9&b=3XM0HYN6NLLDTY0PN7INPISMQBQPEB&tp_b=3XM0HYN6NLLDTY0PN7INPISMQBQPEB&c=365799&tp_c=365799"},{"rt":null,"stimulus":"<div style=\"font-size:60px;\">Next student</div>","response":null,"trial_type":"html-keyboard-response","trial_index":15,"time_elapsed":684819,"internal_node_id":"0.0-14.0-0.0","params":{"nStudents":24,"maxFlips":30,"completionMinutes":45,"basePay":8,"maxBonus":9,"perTrialBonus":0.5,"perTrialBonusThreshold":0.05,"exampleCost":0.01},"classroomParams":{"A":{"a":1,"b":4},"B":{"a":4,"b":1},"C":{"a":2,"b":8},"D":{"a":8,"b":2}},"conditions":["nonSeqFull","nonSeqPartial","seqNoFeedback","seqFeedback"],"classroomPairings":[["A","B"],["C","D"]],"coinWeights":[0.2,0.5,0.8],"subjectId":"A1NVJB5O4H7ZCJ","assignmentId":"3XM0HYN6NLLDTY0PN7INPISMQBQPEB","hitId":"3AQN9REUTF20OMGWRXYK787QVFOYDP","url":"https://gershmanlab.com/experiments/alicia/teaching/experiment/?hitId=3AQN9REUTF20OMGWRXYK787QVFOYDP&workerId=A1NVJB5O4H7ZCJ&assignmentId=3XM0HYN6NLLDTY0PN7INPISMQBQPEB&a=6HMX9&tp_a=6HMX9&b=3XM0HYN6NLLDTY0PN7INPISMQBQPEB&tp_b=3XM0HYN6NLLDTY0PN7INPISMQBQPEB&c=365799&tp_c=365799"},{"rt":4647,"stimulus":"\n            <h4 style=\"color:Orange;\">Student 2</h4>\n            <h2>The weight of your coin is <b style=\"color:Tomato;\">0.2</b>.</h2>\n            <p>In this block, you will be giving <b>one</b> set of examples to Student 2.</p>\n                <p>You will receive feedback at the end of the block.</p>\n            <p></p>","response":0,"trial_type":"html-button-response","trial_index":16,"time_elapsed":689468,"internal_node_id":"0.0-15.0","params":{"nStudents":24,"maxFlips":30,"completionMinutes":45,"basePay":8,"maxBonus":9,"perTrialBonus":0.5,"perTrialBonusThreshold":0.05,"exampleCost":0.01},"classroomParams":{"A":{"a":1,"b":4},"B":{"a":4,"b":1},"C":{"a":2,"b":8},"D":{"a":8,"b":2}},"conditions":["nonSeqFull","nonSeqPartial","seqNoFeedback","seqFeedback"],"classroomPairings":[["A","B"],["C","D"]],"coinWeights":[0.2,0.5,0.8],"subjectId":"A1NVJB5O4H7ZCJ","assignmentId":"3XM0HYN6NLLDTY0PN7INPISMQBQPEB","hitId":"3AQN9REUTF20OMGWRXYK787QVFOYDP","url":"https://gershmanlab.com/experiments/alicia/teaching/experiment/?hitId=3AQN9REUTF20OMGWRXYK787QVFOYDP&workerId=A1NVJB5O4H7ZCJ&assignmentId=3XM0HYN6NLLDTY0PN7INPISMQBQPEB&a=6HMX9&tp_a=6HMX9&b=3XM0HYN6NLLDTY0PN7INPISMQBQPEB&tp_b=3XM0HYN6NLLDTY0PN7INPISMQBQPEB&c=365799&tp_c=365799"},{"rt":13167,"response":{"heads":"3","tails":"7"},"type":"response","condition":"nonSeqFull","trueTheta":0.2,"classrooms":["C","D"],"studentTrueClassroom":"D","exampleSet":"first","trial_type":"survey-html-form","trial_index":17,"time_elapsed":702637,"internal_node_id":"0.0-16.0-0.0","params":{"nStudents":24,"maxFlips":30,"completionMinutes":45,"basePay":8,"maxBonus":9,"perTrialBonus":0.5,"perTrialBonusThreshold":0.05,"exampleCost":0.01},"classroomParams":{"A":{"a":1,"b":4},"B":{"a":4,"b":1},"C":{"a":2,"b":8},"D":{"a":8,"b":2}},"conditions":["nonSeqFull","nonSeqPartial","seqNoFeedback","seqFeedback"],"classroomPairings":[["A","B"],["C","D"]],"coinWeights":[0.2,0.5,0.8],"subjectId":"A1NVJB5O4H7ZCJ","assignmentId":"3XM0HYN6NLLDTY0PN7INPISMQBQPEB","hitId":"3AQN9REUTF20OMGWRXYK787QVFOYDP","url":"https://gershmanlab.com/experiments/alicia/teaching/experiment/?hitId=3AQN9REUTF20OMGWRXYK787QVFOYDP&workerId=A1NVJB5O4H7ZCJ&assignmentId=3XM0HYN6NLLDTY0PN7INPISMQBQPEB&a=6HMX9&tp_a=6HMX9&b=3XM0HYN6NLLDTY0PN7INPISMQBQPEB&tp_b=3XM0HYN6NLLDTY0PN7INPISMQBQPEB&c=365799&tp_c=365799","heads":3,"tails":7,"studentIndex":1,"studentTrueHypers":{"a":8,"b":2},"studentGuess":0.55,"delta":0.35000000000000003,"totalExamples":10,"bonus":0,"bonusSoFar":0},{"rt":null,"stimulus":"Sending examples to student... ","response":null,"trial_type":"html-keyboard-response","trial_index":18,"time_elapsed":703888,"internal_node_id":"0.0-17.0","params":{"nStudents":24,"maxFlips":30,"completionMinutes":45,"basePay":8,"maxBonus":9,"perTrialBonus":0.5,"perTrialBonusThreshold":0.05,"exampleCost":0.01},"classroomParams":{"A":{"a":1,"b":4},"B":{"a":4,"b":1},"C":{"a":2,"b":8},"D":{"a":8,"b":2}},"conditions":["nonSeqFull","nonSeqPartial","seqNoFeedback","seqFeedback"],"classroomPairings":[["A","B"],["C","D"]],"coinWeights":[0.2,0.5,0.8],"subjectId":"A1NVJB5O4H7ZCJ","assignmentId":"3XM0HYN6NLLDTY0PN7INPISMQBQPEB","hitId":"3AQN9REUTF20OMGWRXYK787QVFOYDP","url":"https://gershmanlab.com/experiments/alicia/teaching/experiment/?hitId=3AQN9REUTF20OMGWRXYK787QVFOYDP&workerId=A1NVJB5O4H7ZCJ&assignmentId=3XM0HYN6NLLDTY0PN7INPISMQBQPEB&a=6HMX9&tp_a=6HMX9&b=3XM0HYN6NLLDTY0PN7INPISMQBQPEB&tp_b=3XM0HYN6NLLDTY0PN7INPISMQBQPEB&c=365799&tp_c=365799"},{"rt":null,"stimulus":"Examples sent to student! Waiting for student...","response":null,"trial_type":"html-keyboard-response","trial_index":19,"time_elapsed":709399,"internal_node_id":"0.0-18.0","params":{"nStudents":24,"maxFlips":30,"completionMinutes":45,"basePay":8,"maxBonus":9,"perTrialBonus":0.5,"perTrialBonusThreshold":0.05,"exampleCost":0.01},"classroomParams":{"A":{"a":1,"b":4},"B":{"a":4,"b":1},"C":{"a":2,"b":8},"D":{"a":8,"b":2}},"conditions":["nonSeqFull","nonSeqPartial","seqNoFeedback","seqFeedback"],"classroomPairings":[["A","B"],["C","D"]],"coinWeights":[0.2,0.5,0.8],"subjectId":"A1NVJB5O4H7ZCJ","assignmentId":"3XM0HYN6NLLDTY0PN7INPISMQBQPEB","hitId":"3AQN9REUTF20OMGWRXYK787QVFOYDP","url":"https://gershmanlab.com/experiments/alicia/teaching/experiment/?hitId=3AQN9REUTF20OMGWRXYK787QVFOYDP&workerId=A1NVJB5O4H7ZCJ&assignmentId=3XM0HYN6NLLDTY0PN7INPISMQBQPEB&a=6HMX9&tp_a=6HMX9&b=3XM0HYN6NLLDTY0PN7INPISMQBQPEB&tp_b=3XM0HYN6NLLDTY0PN7INPISMQBQPEB&c=365799&tp_c=365799"},{"rt":4524,"stimulus":"\n                <p>Student's guess for coin weight: <b style=\"color:Tomato;\">0.55</b></p>\n                <p>You received a bonus of <b>$0</b>. Total bonus so far: <b>$0.00</b></b></p>\n                <p></p>\n                <p>Press any key to continue.</p>\n                ","response":" ","trial_type":"html-keyboard-response","trial_index":20,"time_elapsed":713925,"internal_node_id":"0.0-19.0","params":{"nStudents":24,"maxFlips":30,"completionMinutes":45,"basePay":8,"maxBonus":9,"perTrialBonus":0.5,"perTrialBonusThreshold":0.05,"exampleCost":0.01},"classroomParams":{"A":{"a":1,"b":4},"B":{"a":4,"b":1},"C":{"a":2,"b":8},"D":{"a":8,"b":2}},"conditions":["nonSeqFull","nonSeqPartial","seqNoFeedback","seqFeedback"],"classroomPairings":[["A","B"],["C","D"]],"coinWeights":[0.2,0.5,0.8],"subjectId":"A1NVJB5O4H7ZCJ","assignmentId":"3XM0HYN6NLLDTY0PN7INPISMQBQPEB","hitId":"3AQN9REUTF20OMGWRXYK787QVFOYDP","url":"https://gershmanlab.com/experiments/alicia/teaching/experiment/?hitId=3AQN9REUTF20OMGWRXYK787QVFOYDP&workerId=A1NVJB5O4H7ZCJ&assignmentId=3XM0HYN6NLLDTY0PN7INPISMQBQPEB&a=6HMX9&tp_a=6HMX9&b=3XM0HYN6NLLDTY0PN7INPISMQBQPEB&tp_b=3XM0HYN6NLLDTY0PN7INPISMQBQPEB&c=365799&tp_c=365799"},{"rt":null,"stimulus":"<div style=\"font-size:60px;\">Next student</div>","response":null,"trial_type":"html-keyboard-response","trial_index":21,"time_elapsed":716941,"internal_node_id":"0.0-20.0-0.0","params":{"nStudents":24,"maxFlips":30,"completionMinutes":45,"basePay":8,"maxBonus":9,"perTrialBonus":0.5,"perTrialBonusThreshold":0.05,"exampleCost":0.01},"classroomParams":{"A":{"a":1,"b":4},"B":{"a":4,"b":1},"C":{"a":2,"b":8},"D":{"a":8,"b":2}},"conditions":["nonSeqFull","nonSeqPartial","seqNoFeedback","seqFeedback"],"classroomPairings":[["A","B"],["C","D"]],"coinWeights":[0.2,0.5,0.8],"subjectId":"A1NVJB5O4H7ZCJ","assignmentId":"3XM0HYN6NLLDTY0PN7INPISMQBQPEB","hitId":"3AQN9REUTF20OMGWRXYK787QVFOYDP","url":"https://gershmanlab.com/experiments/alicia/teaching/experiment/?hitId=3AQN9REUTF20OMGWRXYK787QVFOYDP&workerId=A1NVJB5O4H7ZCJ&assignmentId=3XM0HYN6NLLDTY0PN7INPISMQBQPEB&a=6HMX9&tp_a=6HMX9&b=3XM0HYN6NLLDTY0PN7INPISMQBQPEB&tp_b=3XM0HYN6NLLDTY0PN7INPISMQBQPEB&c=365799&tp_c=365799"},{"rt":3554,"stimulus":"\n            <h4 style=\"color:Orange;\">Student 3</h4>\n            <h2>The weight of your coin is <b style=\"color:Tomato;\">0.2</b>.</h2>\n            <p>In this block, you will be giving <b>two</b> sets of examples to Student 3.</p>\n                <p>You will receive feedback at the end of the block.</p>\n            <p></p>","response":0,"trial_type":"html-button-response","trial_index":22,"time_elapsed":720497,"internal_node_id":"0.0-21.0","params":{"nStudents":24,"maxFlips":30,"completionMinutes":45,"basePay":8,"maxBonus":9,"perTrialBonus":0.5,"perTrialBonusThreshold":0.05,"exampleCost":0.01},"classroomParams":{"A":{"a":1,"b":4},"B":{"a":4,"b":1},"C":{"a":2,"b":8},"D":{"a":8,"b":2}},"conditions":["nonSeqFull","nonSeqPartial","seqNoFeedback","seqFeedback"],"classroomPairings":[["A","B"],["C","D"]],"coinWeights":[0.2,0.5,0.8],"subjectId":"A1NVJB5O4H7ZCJ","assignmentId":"3XM0HYN6NLLDTY0PN7INPISMQBQPEB","hitId":"3AQN9REUTF20OMGWRXYK787QVFOYDP","url":"https://gershmanlab.com/experiments/alicia/teaching/experiment/?hitId=3AQN9REUTF20OMGWRXYK787QVFOYDP&workerId=A1NVJB5O4H7ZCJ&assignmentId=3XM0HYN6NLLDTY0PN7INPISMQBQPEB&a=6HMX9&tp_a=6HMX9&b=3XM0HYN6NLLDTY0PN7INPISMQBQPEB&tp_b=3XM0HYN6NLLDTY0PN7INPISMQBQPEB&c=365799&tp_c=365799"},{"rt":15143,"response":{"heads":"2","tails":"8"},"type":"response","condition":"seqNoFeedback","trueTheta":0.2,"classrooms":["A","B"],"studentTrueClassroom":"B","exampleSet":"first","trial_type":"survey-html-form","trial_index":23,"time_elapsed":735642,"internal_node_id":"0.0-22.0-0.0","params":{"nStudents":24,"maxFlips":30,"completionMinutes":45,"basePay":8,"maxBonus":9,"perTrialBonus":0.5,"perTrialBonusThreshold":0.05,"exampleCost":0.01},"classroomParams":{"A":{"a":1,"b":4},"B":{"a":4,"b":1},"C":{"a":2,"b":8},"D":{"a":8,"b":2}},"conditions":["nonSeqFull","nonSeqPartial","seqNoFeedback","seqFeedback"],"classroomPairings":[["A","B"],["C","D"]],"coinWeights":[0.2,0.5,0.8],"subjectId":"A1NVJB5O4H7ZCJ","assignmentId":"3XM0HYN6NLLDTY0PN7INPISMQBQPEB","hitId":"3AQN9REUTF20OMGWRXYK787QVFOYDP","url":"https://gershmanlab.com/experiments/alicia/teaching/experiment/?hitId=3AQN9REUTF20OMGWRXYK787QVFOYDP&workerId=A1NVJB5O4H7ZCJ&assignmentId=3XM0HYN6NLLDTY0PN7INPISMQBQPEB&a=6HMX9&tp_a=6HMX9&b=3XM0HYN6NLLDTY0PN7INPISMQBQPEB&tp_b=3XM0HYN6NLLDTY0PN7INPISMQBQPEB&c=365799&tp_c=365799","heads":2,"tails":8,"studentIndex":2,"studentTrueHypers":{"a":4,"b":1},"studentGuess":0.4,"delta":0.2,"totalExamples":10,"bonusSoFar":0},{"rt":null,"stimulus":"Sending examples to student... ","response":null,"trial_type":"html-keyboard-response","trial_index":24,"time_elapsed":737146,"internal_node_id":"0.0-23.0","params":{"nStudents":24,"maxFlips":30,"completionMinutes":45,"basePay":8,"maxBonus":9,"perTrialBonus":0.5,"perTrialBonusThreshold":0.05,"exampleCost":0.01},"classroomParams":{"A":{"a":1,"b":4},"B":{"a":4,"b":1},"C":{"a":2,"b":8},"D":{"a":8,"b":2}},"conditions":["nonSeqFull","nonSeqPartial","seqNoFeedback","seqFeedback"],"classroomPairings":[["A","B"],["C","D"]],"coinWeights":[0.2,0.5,0.8],"subjectId":"A1NVJB5O4H7ZCJ","assignmentId":"3XM0HYN6NLLDTY0PN7INPISMQBQPEB","hitId":"3AQN9REUTF20OMGWRXYK787QVFOYDP","url":"https://gershmanlab.com/experiments/alicia/teaching/experiment/?hitId=3AQN9REUTF20OMGWRXYK787QVFOYDP&workerId=A1NVJB5O4H7ZCJ&assignmentId=3XM0HYN6NLLDTY0PN7INPISMQBQPEB&a=6HMX9&tp_a=6HMX9&b=3XM0HYN6NLLDTY0PN7INPISMQBQPEB&tp_b=3XM0HYN6NLLDTY0PN7INPISMQBQPEB&c=365799&tp_c=365799"},{"rt":null,"stimulus":"Examples sent to student! Waiting for student...","response":null,"trial_type":"html-keyboard-response","trial_index":25,"time_elapsed":743148,"internal_node_id":"0.0-24.0","params":{"nStudents":24,"maxFlips":30,"completionMinutes":45,"basePay":8,"maxBonus":9,"perTrialBonus":0.5,"perTrialBonusThreshold":0.05,"exampleCost":0.01},"classroomParams":{"A":{"a":1,"b":4},"B":{"a":4,"b":1},"C":{"a":2,"b":8},"D":{"a":8,"b":2}},"conditions":["nonSeqFull","nonSeqPartial","seqNoFeedback","seqFeedback"],"classroomPairings":[["A","B"],["C","D"]],"coinWeights":[0.2,0.5,0.8],"subjectId":"A1NVJB5O4H7ZCJ","assignmentId":"3XM0HYN6NLLDTY0PN7INPISMQBQPEB","hitId":"3AQN9REUTF20OMGWRXYK787QVFOYDP","url":"https://gershmanlab.com/experiments/alicia/teaching/experiment/?hitId=3AQN9REUTF20OMGWRXYK787QVFOYDP&workerId=A1NVJB5O4H7ZCJ&assignmentId=3XM0HYN6NLLDTY0PN7INPISMQBQPEB&a=6HMX9&tp_a=6HMX9&b=3XM0HYN6NLLDTY0PN7INPISMQBQPEB&tp_b=3XM0HYN6NLLDTY0PN7INPISMQBQPEB&c=365799&tp_c=365799"},{"rt":15862,"response":{"heads":"5","tails":"2"},"type":"response","condition":"seqNoFeedback","trueTheta":0.2,"classrooms":["A","B"],"studentTrueClassroom":"B","exampleSet":"second","trial_type":"survey-html-form","trial_index":26,"time_elapsed":759013,"internal_node_id":"0.0-25.0-0.0","params":{"nStudents":24,"maxFlips":30,"completionMinutes":45,"basePay":8,"maxBonus":9,"perTrialBonus":0.5,"perTrialBonusThreshold":0.05,"exampleCost":0.01},"classroomParams":{"A":{"a":1,"b":4},"B":{"a":4,"b":1},"C":{"a":2,"b":8},"D":{"a":8,"b":2}},"conditions":["nonSeqFull","nonSeqPartial","seqNoFeedback","seqFeedback"],"classroomPairings":[["A","B"],["C","D"]],"coinWeights":[0.2,0.5,0.8],"subjectId":"A1NVJB5O4H7ZCJ","assignmentId":"3XM0HYN6NLLDTY0PN7INPISMQBQPEB","hitId":"3AQN9REUTF20OMGWRXYK787QVFOYDP","url":"https://gershmanlab.com/experiments/alicia/teaching/experiment/?hitId=3AQN9REUTF20OMGWRXYK787QVFOYDP&workerId=A1NVJB5O4H7ZCJ&assignmentId=3XM0HYN6NLLDTY0PN7INPISMQBQPEB&a=6HMX9&tp_a=6HMX9&b=3XM0HYN6NLLDTY0PN7INPISMQBQPEB&tp_b=3XM0HYN6NLLDTY0PN7INPISMQBQPEB&c=365799&tp_c=365799","firstResponseHeads":2,"firstResponseTails":8,"secondResponseHeads":5,"secondResponseTails":2,"totalHeads":7,"totalTails":10,"studentIndex":2,"studentTrueHypers":{"a":4,"b":1},"studentGuess":0.5,"delta":0.3,"bonus":0,"bonusSoFar":0,"totalExamples":17},{"rt":null,"stimulus":"Sending examples to student... ","response":null,"trial_type":"html-keyboard-response","trial_index":27,"time_elapsed":761027,"internal_node_id":"0.0-26.0","params":{"nStudents":24,"maxFlips":30,"completionMinutes":45,"basePay":8,"maxBonus":9,"perTrialBonus":0.5,"perTrialBonusThreshold":0.05,"exampleCost":0.01},"classroomParams":{"A":{"a":1,"b":4},"B":{"a":4,"b":1},"C":{"a":2,"b":8},"D":{"a":8,"b":2}},"conditions":["nonSeqFull","nonSeqPartial","seqNoFeedback","seqFeedback"],"classroomPairings":[["A","B"],["C","D"]],"coinWeights":[0.2,0.5,0.8],"subjectId":"A1NVJB5O4H7ZCJ","assignmentId":"3XM0HYN6NLLDTY0PN7INPISMQBQPEB","hitId":"3AQN9REUTF20OMGWRXYK787QVFOYDP","url":"https://gershmanlab.com/experiments/alicia/teaching/experiment/?hitId=3AQN9REUTF20OMGWRXYK787QVFOYDP&workerId=A1NVJB5O4H7ZCJ&assignmentId=3XM0HYN6NLLDTY0PN7INPISMQBQPEB&a=6HMX9&tp_a=6HMX9&b=3XM0HYN6NLLDTY0PN7INPISMQBQPEB&tp_b=3XM0HYN6NLLDTY0PN7INPISMQBQPEB&c=365799&tp_c=365799"},{"rt":null,"stimulus":"Examples sent to student! Waiting for student...","response":null,"trial_type":"html-keyboard-response","trial_index":28,"time_elapsed":767030,"internal_node_id":"0.0-27.0","params":{"nStudents":24,"maxFlips":30,"completionMinutes":45,"basePay":8,"maxBonus":9,"perTrialBonus":0.5,"perTrialBonusThreshold":0.05,"exampleCost":0.01},"classroomParams":{"A":{"a":1,"b":4},"B":{"a":4,"b":1},"C":{"a":2,"b":8},"D":{"a":8,"b":2}},"conditions":["nonSeqFull","nonSeqPartial","seqNoFeedback","seqFeedback"],"classroomPairings":[["A","B"],["C","D"]],"coinWeights":[0.2,0.5,0.8],"subjectId":"A1NVJB5O4H7ZCJ","assignmentId":"3XM0HYN6NLLDTY0PN7INPISMQBQPEB","hitId":"3AQN9REUTF20OMGWRXYK787QVFOYDP","url":"https://gershmanlab.com/experiments/alicia/teaching/experiment/?hitId=3AQN9REUTF20OMGWRXYK787QVFOYDP&workerId=A1NVJB5O4H7ZCJ&assignmentId=3XM0HYN6NLLDTY0PN7INPISMQBQPEB&a=6HMX9&tp_a=6HMX9&b=3XM0HYN6NLLDTY0PN7INPISMQBQPEB&tp_b=3XM0HYN6NLLDTY0PN7INPISMQBQPEB&c=365799&tp_c=365799"},{"rt":17133,"stimulus":"\n                <p>Student 3's first guess for coin weight: <b style=\"color:Tomato\";>0.40</b></p>\n                <p>Student 3's second guess for coin weight: <b style=\"color:Tomato\";>0.50</b></p>\n                <p>You received a bonus of <b>$0.00</b> based on the student's second guess.</p>\n                <p>Total bonus so far: <b>$0.00</b></p>\n                <p>Press any key to continue.</p>\n                ","response":" ","trial_type":"html-keyboard-response","trial_index":29,"time_elapsed":784165,"internal_node_id":"0.0-28.0","params":{"nStudents":24,"maxFlips":30,"completionMinutes":45,"basePay":8,"maxBonus":9,"perTrialBonus":0.5,"perTrialBonusThreshold":0.05,"exampleCost":0.01},"classroomParams":{"A":{"a":1,"b":4},"B":{"a":4,"b":1},"C":{"a":2,"b":8},"D":{"a":8,"b":2}},"conditions":["nonSeqFull","nonSeqPartial","seqNoFeedback","seqFeedback"],"classroomPairings":[["A","B"],["C","D"]],"coinWeights":[0.2,0.5,0.8],"subjectId":"A1NVJB5O4H7ZCJ","assignmentId":"3XM0HYN6NLLDTY0PN7INPISMQBQPEB","hitId":"3AQN9REUTF20OMGWRXYK787QVFOYDP","url":"https://gershmanlab.com/experiments/alicia/teaching/experiment/?hitId=3AQN9REUTF20OMGWRXYK787QVFOYDP&workerId=A1NVJB5O4H7ZCJ&assignmentId=3XM0HYN6NLLDTY0PN7INPISMQBQPEB&a=6HMX9&tp_a=6HMX9&b=3XM0HYN6NLLDTY0PN7INPISMQBQPEB&tp_b=3XM0HYN6NLLDTY0PN7INPISMQBQPEB&c=365799&tp_c=365799"},{"rt":null,"stimulus":"<div style=\"font-size:60px;\">Next student</div>","response":null,"trial_type":"html-keyboard-response","trial_index":30,"time_elapsed":786671,"internal_node_id":"0.0-29.0-0.0","params":{"nStudents":24,"maxFlips":30,"completionMinutes":45,"basePay":8,"maxBonus":9,"perTrialBonus":0.5,"perTrialBonusThreshold":0.05,"exampleCost":0.01},"classroomParams":{"A":{"a":1,"b":4},"B":{"a":4,"b":1},"C":{"a":2,"b":8},"D":{"a":8,"b":2}},"conditions":["nonSeqFull","nonSeqPartial","seqNoFeedback","seqFeedback"],"classroomPairings":[["A","B"],["C","D"]],"coinWeights":[0.2,0.5,0.8],"subjectId":"A1NVJB5O4H7ZCJ","assignmentId":"3XM0HYN6NLLDTY0PN7INPISMQBQPEB","hitId":"3AQN9REUTF20OMGWRXYK787QVFOYDP","url":"https://gershmanlab.com/experiments/alicia/teaching/experiment/?hitId=3AQN9REUTF20OMGWRXYK787QVFOYDP&workerId=A1NVJB5O4H7ZCJ&assignmentId=3XM0HYN6NLLDTY0PN7INPISMQBQPEB&a=6HMX9&tp_a=6HMX9&b=3XM0HYN6NLLDTY0PN7INPISMQBQPEB&tp_b=3XM0HYN6NLLDTY0PN7INPISMQBQPEB&c=365799&tp_c=365799"},{"rt":2676,"stimulus":"\n            <h4 style=\"color:Orange;\">Student 4</h4>\n            <h2>The weight of your coin is <b style=\"color:Tomato;\">0.2</b>.</h2>\n            <p>In this block, you will be giving <b>one</b> set of examples to Student 4.</p>\n                <p>You will receive feedback at the end of the block.</p>\n            <p></p>","response":0,"trial_type":"html-button-response","trial_index":31,"time_elapsed":789349,"internal_node_id":"0.0-30.0","params":{"nStudents":24,"maxFlips":30,"completionMinutes":45,"basePay":8,"maxBonus":9,"perTrialBonus":0.5,"perTrialBonusThreshold":0.05,"exampleCost":0.01},"classroomParams":{"A":{"a":1,"b":4},"B":{"a":4,"b":1},"C":{"a":2,"b":8},"D":{"a":8,"b":2}},"conditions":["nonSeqFull","nonSeqPartial","seqNoFeedback","seqFeedback"],"classroomPairings":[["A","B"],["C","D"]],"coinWeights":[0.2,0.5,0.8],"subjectId":"A1NVJB5O4H7ZCJ","assignmentId":"3XM0HYN6NLLDTY0PN7INPISMQBQPEB","hitId":"3AQN9REUTF20OMGWRXYK787QVFOYDP","url":"https://gershmanlab.com/experiments/alicia/teaching/experiment/?hitId=3AQN9REUTF20OMGWRXYK787QVFOYDP&workerId=A1NVJB5O4H7ZCJ&assignmentId=3XM0HYN6NLLDTY0PN7INPISMQBQPEB&a=6HMX9&tp_a=6HMX9&b=3XM0HYN6NLLDTY0PN7INPISMQBQPEB&tp_b=3XM0HYN6NLLDTY0PN7INPISMQBQPEB&c=365799&tp_c=365799"},{"rt":12639,"response":{"heads":"4","tails":"2"},"type":"response","condition":"nonSeqPartial","trueTheta":0.2,"classrooms":["C","D"],"studentTrueClassroom":"D","exampleSet":"first","trial_type":"survey-html-form","trial_index":32,"time_elapsed":801989,"internal_node_id":"0.0-31.0-0.0","params":{"nStudents":24,"maxFlips":30,"completionMinutes":45,"basePay":8,"maxBonus":9,"perTrialBonus":0.5,"perTrialBonusThreshold":0.05,"exampleCost":0.01},"classroomParams":{"A":{"a":1,"b":4},"B":{"a":4,"b":1},"C":{"a":2,"b":8},"D":{"a":8,"b":2}},"conditions":["nonSeqFull","nonSeqPartial","seqNoFeedback","seqFeedback"],"classroomPairings":[["A","B"],["C","D"]],"coinWeights":[0.2,0.5,0.8],"subjectId":"A1NVJB5O4H7ZCJ","assignmentId":"3XM0HYN6NLLDTY0PN7INPISMQBQPEB","hitId":"3AQN9REUTF20OMGWRXYK787QVFOYDP","url":"https://gershmanlab.com/experiments/alicia/teaching/experiment/?hitId=3AQN9REUTF20OMGWRXYK787QVFOYDP&workerId=A1NVJB5O4H7ZCJ&assignmentId=3XM0HYN6NLLDTY0PN7INPISMQBQPEB&a=6HMX9&tp_a=6HMX9&b=3XM0HYN6NLLDTY0PN7INPISMQBQPEB&tp_b=3XM0HYN6NLLDTY0PN7INPISMQBQPEB&c=365799&tp_c=365799","heads":4,"tails":2,"studentIndex":3,"studentTrueHypers":{"a":8,"b":2},"studentGuess":0.75,"delta":0.55,"totalExamples":6,"bonus":0,"bonusSoFar":0},{"rt":null,"stimulus":"Sending examples to student... ","response":null,"trial_type":"html-keyboard-response","trial_index":33,"time_elapsed":803754,"internal_node_id":"0.0-32.0","params":{"nStudents":24,"maxFlips":30,"completionMinutes":45,"basePay":8,"maxBonus":9,"perTrialBonus":0.5,"perTrialBonusThreshold":0.05,"exampleCost":0.01},"classroomParams":{"A":{"a":1,"b":4},"B":{"a":4,"b":1},"C":{"a":2,"b":8},"D":{"a":8,"b":2}},"conditions":["nonSeqFull","nonSeqPartial","seqNoFeedback","seqFeedback"],"classroomPairings":[["A","B"],["C","D"]],"coinWeights":[0.2,0.5,0.8],"subjectId":"A1NVJB5O4H7ZCJ","assignmentId":"3XM0HYN6NLLDTY0PN7INPISMQBQPEB","hitId":"3AQN9REUTF20OMGWRXYK787QVFOYDP","url":"https://gershmanlab.com/experiments/alicia/teaching/experiment/?hitId=3AQN9REUTF20OMGWRXYK787QVFOYDP&workerId=A1NVJB5O4H7ZCJ&assignmentId=3XM0HYN6NLLDTY0PN7INPISMQBQPEB&a=6HMX9&tp_a=6HMX9&b=3XM0HYN6NLLDTY0PN7INPISMQBQPEB&tp_b=3XM0HYN6NLLDTY0PN7INPISMQBQPEB&c=365799&tp_c=365799"},{"rt":null,"stimulus":"Examples sent to student! Waiting for student...","response":null,"trial_type":"html-keyboard-response","trial_index":34,"time_elapsed":807759,"internal_node_id":"0.0-33.0","params":{"nStudents":24,"maxFlips":30,"completionMinutes":45,"basePay":8,"maxBonus":9,"perTrialBonus":0.5,"perTrialBonusThreshold":0.05,"exampleCost":0.01},"classroomParams":{"A":{"a":1,"b":4},"B":{"a":4,"b":1},"C":{"a":2,"b":8},"D":{"a":8,"b":2}},"conditions":["nonSeqFull","nonSeqPartial","seqNoFeedback","seqFeedback"],"classroomPairings":[["A","B"],["C","D"]],"coinWeights":[0.2,0.5,0.8],"subjectId":"A1NVJB5O4H7ZCJ","assignmentId":"3XM0HYN6NLLDTY0PN7INPISMQBQPEB","hitId":"3AQN9REUTF20OMGWRXYK787QVFOYDP","url":"https://gershmanlab.com/experiments/alicia/teaching/experiment/?hitId=3AQN9REUTF20OMGWRXYK787QVFOYDP&workerId=A1NVJB5O4H7ZCJ&assignmentId=3XM0HYN6NLLDTY0PN7INPISMQBQPEB&a=6HMX9&tp_a=6HMX9&b=3XM0HYN6NLLDTY0PN7INPISMQBQPEB&tp_b=3XM0HYN6NLLDTY0PN7INPISMQBQPEB&c=365799&tp_c=365799"},{"rt":5245,"stimulus":"\n                <p>Student's guess for coin weight: <b style=\"color:Tomato;\">0.75</b></p>\n                <p>You received a bonus of <b>$0</b>. Total bonus so far: <b>$0.00</b></b></p>\n                <p></p>\n                <p>Press any key to continue.</p>\n                ","response":" ","trial_type":"html-keyboard-response","trial_index":35,"time_elapsed":813005,"internal_node_id":"0.0-34.0","params":{"nStudents":24,"maxFlips":30,"completionMinutes":45,"basePay":8,"maxBonus":9,"perTrialBonus":0.5,"perTrialBonusThreshold":0.05,"exampleCost":0.01},"classroomParams":{"A":{"a":1,"b":4},"B":{"a":4,"b":1},"C":{"a":2,"b":8},"D":{"a":8,"b":2}},"conditions":["nonSeqFull","nonSeqPartial","seqNoFeedback","seqFeedback"],"classroomPairings":[["A","B"],["C","D"]],"coinWeights":[0.2,0.5,0.8],"subjectId":"A1NVJB5O4H7ZCJ","assignmentId":"3XM0HYN6NLLDTY0PN7INPISMQBQPEB","hitId":"3AQN9REUTF20OMGWRXYK787QVFOYDP","url":"https://gershmanlab.com/experiments/alicia/teaching/experiment/?hitId=3AQN9REUTF20OMGWRXYK787QVFOYDP&workerId=A1NVJB5O4H7ZCJ&assignmentId=3XM0HYN6NLLDTY0PN7INPISMQBQPEB&a=6HMX9&tp_a=6HMX9&b=3XM0HYN6NLLDTY0PN7INPISMQBQPEB&tp_b=3XM0HYN6NLLDTY0PN7INPISMQBQPEB&c=365799&tp_c=365799"},{"rt":null,"stimulus":"<div style=\"font-size:60px;\">Next student</div>","response":null,"trial_type":"html-keyboard-response","trial_index":36,"time_elapsed":816019,"internal_node_id":"0.0-35.0-0.0","params":{"nStudents":24,"maxFlips":30,"completionMinutes":45,"basePay":8,"maxBonus":9,"perTrialBonus":0.5,"perTrialBonusThreshold":0.05,"exampleCost":0.01},"classroomParams":{"A":{"a":1,"b":4},"B":{"a":4,"b":1},"C":{"a":2,"b":8},"D":{"a":8,"b":2}},"conditions":["nonSeqFull","nonSeqPartial","seqNoFeedback","seqFeedback"],"classroomPairings":[["A","B"],["C","D"]],"coinWeights":[0.2,0.5,0.8],"subjectId":"A1NVJB5O4H7ZCJ","assignmentId":"3XM0HYN6NLLDTY0PN7INPISMQBQPEB","hitId":"3AQN9REUTF20OMGWRXYK787QVFOYDP","url":"https://gershmanlab.com/experiments/alicia/teaching/experiment/?hitId=3AQN9REUTF20OMGWRXYK787QVFOYDP&workerId=A1NVJB5O4H7ZCJ&assignmentId=3XM0HYN6NLLDTY0PN7INPISMQBQPEB&a=6HMX9&tp_a=6HMX9&b=3XM0HYN6NLLDTY0PN7INPISMQBQPEB&tp_b=3XM0HYN6NLLDTY0PN7INPISMQBQPEB&c=365799&tp_c=365799"},{"rt":2208,"stimulus":"\n            <h4 style=\"color:Orange;\">Student 5</h4>\n            <h2>The weight of your coin is <b style=\"color:Tomato;\">0.2</b>.</h2>\n            <p>In this block, you will be giving <b>two</b> sets of examples to Student 5.</p>\n                <p>You will see the student's guess after the first set of examples. You will also receive feedback at the end of the block.</p>\n            <p>To earn the highest bonus, you will have to <b>take into consideration the student's guess</b> when you choose your second set of examples.</p>","response":0,"trial_type":"html-button-response","trial_index":37,"time_elapsed":818229,"internal_node_id":"0.0-36.0","params":{"nStudents":24,"maxFlips":30,"completionMinutes":45,"basePay":8,"maxBonus":9,"perTrialBonus":0.5,"perTrialBonusThreshold":0.05,"exampleCost":0.01},"classroomParams":{"A":{"a":1,"b":4},"B":{"a":4,"b":1},"C":{"a":2,"b":8},"D":{"a":8,"b":2}},"conditions":["nonSeqFull","nonSeqPartial","seqNoFeedback","seqFeedback"],"classroomPairings":[["A","B"],["C","D"]],"coinWeights":[0.2,0.5,0.8],"subjectId":"A1NVJB5O4H7ZCJ","assignmentId":"3XM0HYN6NLLDTY0PN7INPISMQBQPEB","hitId":"3AQN9REUTF20OMGWRXYK787QVFOYDP","url":"https://gershmanlab.com/experiments/alicia/teaching/experiment/?hitId=3AQN9REUTF20OMGWRXYK787QVFOYDP&workerId=A1NVJB5O4H7ZCJ&assignmentId=3XM0HYN6NLLDTY0PN7INPISMQBQPEB&a=6HMX9&tp_a=6HMX9&b=3XM0HYN6NLLDTY0PN7INPISMQBQPEB&tp_b=3XM0HYN6NLLDTY0PN7INPISMQBQPEB&c=365799&tp_c=365799"},{"rt":11007,"response":{"heads":"2","tails":"6"},"type":"response","condition":"seqFeedback","trueTheta":0.2,"classrooms":["C","D"],"studentTrueClassroom":"C","exampleSet":"first","trial_type":"survey-html-form","trial_index":38,"time_elapsed":829237,"internal_node_id":"0.0-37.0-0.0","params":{"nStudents":24,"maxFlips":30,"completionMinutes":45,"basePay":8,"maxBonus":9,"perTrialBonus":0.5,"perTrialBonusThreshold":0.05,"exampleCost":0.01},"classroomParams":{"A":{"a":1,"b":4},"B":{"a":4,"b":1},"C":{"a":2,"b":8},"D":{"a":8,"b":2}},"conditions":["nonSeqFull","nonSeqPartial","seqNoFeedback","seqFeedback"],"classroomPairings":[["A","B"],["C","D"]],"coinWeights":[0.2,0.5,0.8],"subjectId":"A1NVJB5O4H7ZCJ","assignmentId":"3XM0HYN6NLLDTY0PN7INPISMQBQPEB","hitId":"3AQN9REUTF20OMGWRXYK787QVFOYDP","url":"https://gershmanlab.com/experiments/alicia/teaching/experiment/?hitId=3AQN9REUTF20OMGWRXYK787QVFOYDP&workerId=A1NVJB5O4H7ZCJ&assignmentId=3XM0HYN6NLLDTY0PN7INPISMQBQPEB&a=6HMX9&tp_a=6HMX9&b=3XM0HYN6NLLDTY0PN7INPISMQBQPEB&tp_b=3XM0HYN6NLLDTY0PN7INPISMQBQPEB&c=365799&tp_c=365799","heads":2,"tails":6,"studentIndex":4,"studentTrueHypers":{"a":2,"b":8},"studentGuess":0.2222222222222222,"delta":0.0222222222222222,"totalExamples":8,"bonusSoFar":0},{"rt":null,"stimulus":"Sending examples to student... ","response":null,"trial_type":"html-keyboard-response","trial_index":39,"time_elapsed":830490,"internal_node_id":"0.0-38.0","params":{"nStudents":24,"maxFlips":30,"completionMinutes":45,"basePay":8,"maxBonus":9,"perTrialBonus":0.5,"perTrialBonusThreshold":0.05,"exampleCost":0.01},"classroomParams":{"A":{"a":1,"b":4},"B":{"a":4,"b":1},"C":{"a":2,"b":8},"D":{"a":8,"b":2}},"conditions":["nonSeqFull","nonSeqPartial","seqNoFeedback","seqFeedback"],"classroomPairings":[["A","B"],["C","D"]],"coinWeights":[0.2,0.5,0.8],"subjectId":"A1NVJB5O4H7ZCJ","assignmentId":"3XM0HYN6NLLDTY0PN7INPISMQBQPEB","hitId":"3AQN9REUTF20OMGWRXYK787QVFOYDP","url":"https://gershmanlab.com/experiments/alicia/teaching/experiment/?hitId=3AQN9REUTF20OMGWRXYK787QVFOYDP&workerId=A1NVJB5O4H7ZCJ&assignmentId=3XM0HYN6NLLDTY0PN7INPISMQBQPEB&a=6HMX9&tp_a=6HMX9&b=3XM0HYN6NLLDTY0PN7INPISMQBQPEB&tp_b=3XM0HYN6NLLDTY0PN7INPISMQBQPEB&c=365799&tp_c=365799"},{"rt":null,"stimulus":"Examples sent to student! Waiting for student...","response":null,"trial_type":"html-keyboard-response","trial_index":40,"time_elapsed":835005,"internal_node_id":"0.0-39.0","params":{"nStudents":24,"maxFlips":30,"completionMinutes":45,"basePay":8,"maxBonus":9,"perTrialBonus":0.5,"perTrialBonusThreshold":0.05,"exampleCost":0.01},"classroomParams":{"A":{"a":1,"b":4},"B":{"a":4,"b":1},"C":{"a":2,"b":8},"D":{"a":8,"b":2}},"conditions":["nonSeqFull","nonSeqPartial","seqNoFeedback","seqFeedback"],"classroomPairings":[["A","B"],["C","D"]],"coinWeights":[0.2,0.5,0.8],"subjectId":"A1NVJB5O4H7ZCJ","assignmentId":"3XM0HYN6NLLDTY0PN7INPISMQBQPEB","hitId":"3AQN9REUTF20OMGWRXYK787QVFOYDP","url":"https://gershmanlab.com/experiments/alicia/teaching/experiment/?hitId=3AQN9REUTF20OMGWRXYK787QVFOYDP&workerId=A1NVJB5O4H7ZCJ&assignmentId=3XM0HYN6NLLDTY0PN7INPISMQBQPEB&a=6HMX9&tp_a=6HMX9&b=3XM0HYN6NLLDTY0PN7INPISMQBQPEB&tp_b=3XM0HYN6NLLDTY0PN7INPISMQBQPEB&c=365799&tp_c=365799"},{"rt":4814,"stimulus":"\n                <p>Student's guess for coin weight: <b style=\"color:Tomato;\">0.22</b></p>\n                <p></b></p>\n                <p>You will now send another set of examples to your student. <b>Remember to take your student's guess into consideration so that you can earn the highest bonus possible!</b> </p>\n                <p>Press any key to continue.</p>\n                ","response":" ","trial_type":"html-keyboard-response","trial_index":41,"time_elapsed":839821,"internal_node_id":"0.0-40.0","params":{"nStudents":24,"maxFlips":30,"completionMinutes":45,"basePay":8,"maxBonus":9,"perTrialBonus":0.5,"perTrialBonusThreshold":0.05,"exampleCost":0.01},"classroomParams":{"A":{"a":1,"b":4},"B":{"a":4,"b":1},"C":{"a":2,"b":8},"D":{"a":8,"b":2}},"conditions":["nonSeqFull","nonSeqPartial","seqNoFeedback","seqFeedback"],"classroomPairings":[["A","B"],["C","D"]],"coinWeights":[0.2,0.5,0.8],"subjectId":"A1NVJB5O4H7ZCJ","assignmentId":"3XM0HYN6NLLDTY0PN7INPISMQBQPEB","hitId":"3AQN9REUTF20OMGWRXYK787QVFOYDP","url":"https://gershmanlab.com/experiments/alicia/teaching/experiment/?hitId=3AQN9REUTF20OMGWRXYK787QVFOYDP&workerId=A1NVJB5O4H7ZCJ&assignmentId=3XM0HYN6NLLDTY0PN7INPISMQBQPEB&a=6HMX9&tp_a=6HMX9&b=3XM0HYN6NLLDTY0PN7INPISMQBQPEB&tp_b=3XM0HYN6NLLDTY0PN7INPISMQBQPEB&c=365799&tp_c=365799"},{"rt":71646,"response":{"heads":"2","tails":"9"},"type":"response","condition":"seqFeedback","trueTheta":0.2,"classrooms":["C","D"],"studentTrueClassroom":"C","exampleSet":"second","trial_type":"survey-html-form","trial_index":42,"time_elapsed":911469,"internal_node_id":"0.0-41.0-0.0","params":{"nStudents":24,"maxFlips":30,"completionMinutes":45,"basePay":8,"maxBonus":9,"perTrialBonus":0.5,"perTrialBonusThreshold":0.05,"exampleCost":0.01},"classroomParams":{"A":{"a":1,"b":4},"B":{"a":4,"b":1},"C":{"a":2,"b":8},"D":{"a":8,"b":2}},"conditions":["nonSeqFull","nonSeqPartial","seqNoFeedback","seqFeedback"],"classroomPairings":[["A","B"],["C","D"]],"coinWeights":[0.2,0.5,0.8],"subjectId":"A1NVJB5O4H7ZCJ","assignmentId":"3XM0HYN6NLLDTY0PN7INPISMQBQPEB","hitId":"3AQN9REUTF20OMGWRXYK787QVFOYDP","url":"https://gershmanlab.com/experiments/alicia/teaching/experiment/?hitId=3AQN9REUTF20OMGWRXYK787QVFOYDP&workerId=A1NVJB5O4H7ZCJ&assignmentId=3XM0HYN6NLLDTY0PN7INPISMQBQPEB&a=6HMX9&tp_a=6HMX9&b=3XM0HYN6NLLDTY0PN7INPISMQBQPEB&tp_b=3XM0HYN6NLLDTY0PN7INPISMQBQPEB&c=365799&tp_c=365799","firstResponseHeads":2,"firstResponseTails":6,"secondResponseHeads":2,"secondResponseTails":9,"totalHeads":4,"totalTails":15,"studentIndex":4,"studentTrueHypers":{"a":2,"b":8},"studentGuess":0.20689655172413793,"delta":0.006896551724137917,"bonus":0.31,"bonusSoFar":0.31,"totalExamples":19},{"rt":null,"stimulus":"Sending examples to student... ","response":null,"trial_type":"html-keyboard-response","trial_index":43,"time_elapsed":913474,"internal_node_id":"0.0-42.0","params":{"nStudents":24,"maxFlips":30,"completionMinutes":45,"basePay":8,"maxBonus":9,"perTrialBonus":0.5,"perTrialBonusThreshold":0.05,"exampleCost":0.01},"classroomParams":{"A":{"a":1,"b":4},"B":{"a":4,"b":1},"C":{"a":2,"b":8},"D":{"a":8,"b":2}},"conditions":["nonSeqFull","nonSeqPartial","seqNoFeedback","seqFeedback"],"classroomPairings":[["A","B"],["C","D"]],"coinWeights":[0.2,0.5,0.8],"subjectId":"A1NVJB5O4H7ZCJ","assignmentId":"3XM0HYN6NLLDTY0PN7INPISMQBQPEB","hitId":"3AQN9REUTF20OMGWRXYK787QVFOYDP","url":"https://gershmanlab.com/experiments/alicia/teaching/experiment/?hitId=3AQN9REUTF20OMGWRXYK787QVFOYDP&workerId=A1NVJB5O4H7ZCJ&assignmentId=3XM0HYN6NLLDTY0PN7INPISMQBQPEB&a=6HMX9&tp_a=6HMX9&b=3XM0HYN6NLLDTY0PN7INPISMQBQPEB&tp_b=3XM0HYN6NLLDTY0PN7INPISMQBQPEB&c=365799&tp_c=365799"},{"rt":null,"stimulus":"Examples sent to student! Waiting for student...","response":null,"trial_type":"html-keyboard-response","trial_index":44,"time_elapsed":919487,"internal_node_id":"0.0-43.0","params":{"nStudents":24,"maxFlips":30,"completionMinutes":45,"basePay":8,"maxBonus":9,"perTrialBonus":0.5,"perTrialBonusThreshold":0.05,"exampleCost":0.01},"classroomParams":{"A":{"a":1,"b":4},"B":{"a":4,"b":1},"C":{"a":2,"b":8},"D":{"a":8,"b":2}},"conditions":["nonSeqFull","nonSeqPartial","seqNoFeedback","seqFeedback"],"classroomPairings":[["A","B"],["C","D"]],"coinWeights":[0.2,0.5,0.8],"subjectId":"A1NVJB5O4H7ZCJ","assignmentId":"3XM0HYN6NLLDTY0PN7INPISMQBQPEB","hitId":"3AQN9REUTF20OMGWRXYK787QVFOYDP","url":"https://gershmanlab.com/experiments/alicia/teaching/experiment/?hitId=3AQN9REUTF20OMGWRXYK787QVFOYDP&workerId=A1NVJB5O4H7ZCJ&assignmentId=3XM0HYN6NLLDTY0PN7INPISMQBQPEB&a=6HMX9&tp_a=6HMX9&b=3XM0HYN6NLLDTY0PN7INPISMQBQPEB&tp_b=3XM0HYN6NLLDTY0PN7INPISMQBQPEB&c=365799&tp_c=365799"},{"rt":8365,"stimulus":"\n                <p>Student 5's first guess for coin weight: <b style=\"color:Tomato\";>0.22</b></p>\n                <p>Student 5's second guess for coin weight: <b style=\"color:Tomato\";>0.21</b></p>\n                <p>You received a bonus of <b>$0.31</b> based on the student's second guess.</p>\n                <p>Total bonus so far: <b>$0.31</b></p>\n                <p>Press any key to continue.</p>\n                ","response":" ","trial_type":"html-keyboard-response","trial_index":45,"time_elapsed":927854,"internal_node_id":"0.0-44.0","params":{"nStudents":24,"maxFlips":30,"completionMinutes":45,"basePay":8,"maxBonus":9,"perTrialBonus":0.5,"perTrialBonusThreshold":0.05,"exampleCost":0.01},"classroomParams":{"A":{"a":1,"b":4},"B":{"a":4,"b":1},"C":{"a":2,"b":8},"D":{"a":8,"b":2}},"conditions":["nonSeqFull","nonSeqPartial","seqNoFeedback","seqFeedback"],"classroomPairings":[["A","B"],["C","D"]],"coinWeights":[0.2,0.5,0.8],"subjectId":"A1NVJB5O4H7ZCJ","assignmentId":"3XM0HYN6NLLDTY0PN7INPISMQBQPEB","hitId":"3AQN9REUTF20OMGWRXYK787QVFOYDP","url":"https://gershmanlab.com/experiments/alicia/teaching/experiment/?hitId=3AQN9REUTF20OMGWRXYK787QVFOYDP&workerId=A1NVJB5O4H7ZCJ&assignmentId=3XM0HYN6NLLDTY0PN7INPISMQBQPEB&a=6HMX9&tp_a=6HMX9&b=3XM0HYN6NLLDTY0PN7INPISMQBQPEB&tp_b=3XM0HYN6NLLDTY0PN7INPISMQBQPEB&c=365799&tp_c=365799"},{"rt":null,"stimulus":"<div style=\"font-size:60px;\">Next student</div>","response":null,"trial_type":"html-keyboard-response","trial_index":46,"time_elapsed":930859,"internal_node_id":"0.0-45.0-0.0","params":{"nStudents":24,"maxFlips":30,"completionMinutes":45,"basePay":8,"maxBonus":9,"perTrialBonus":0.5,"perTrialBonusThreshold":0.05,"exampleCost":0.01},"classroomParams":{"A":{"a":1,"b":4},"B":{"a":4,"b":1},"C":{"a":2,"b":8},"D":{"a":8,"b":2}},"conditions":["nonSeqFull","nonSeqPartial","seqNoFeedback","seqFeedback"],"classroomPairings":[["A","B"],["C","D"]],"coinWeights":[0.2,0.5,0.8],"subjectId":"A1NVJB5O4H7ZCJ","assignmentId":"3XM0HYN6NLLDTY0PN7INPISMQBQPEB","hitId":"3AQN9REUTF20OMGWRXYK787QVFOYDP","url":"https://gershmanlab.com/experiments/alicia/teaching/experiment/?hitId=3AQN9REUTF20OMGWRXYK787QVFOYDP&workerId=A1NVJB5O4H7ZCJ&assignmentId=3XM0HYN6NLLDTY0PN7INPISMQBQPEB&a=6HMX9&tp_a=6HMX9&b=3XM0HYN6NLLDTY0PN7INPISMQBQPEB&tp_b=3XM0HYN6NLLDTY0PN7INPISMQBQPEB&c=365799&tp_c=365799"},{"rt":4972,"stimulus":"\n            <h4 style=\"color:Orange;\">Student 6</h4>\n            <h2>The weight of your coin is <b style=\"color:Tomato;\">0.8</b>.</h2>\n            <p>In this block, you will be giving <b>one</b> set of examples to Student 6.</p>\n                <p>You will receive feedback at the end of the block.</p>\n            <p></p>","response":0,"trial_type":"html-button-response","trial_index":47,"time_elapsed":935833,"internal_node_id":"0.0-46.0","params":{"nStudents":24,"maxFlips":30,"completionMinutes":45,"basePay":8,"maxBonus":9,"perTrialBonus":0.5,"perTrialBonusThreshold":0.05,"exampleCost":0.01},"classroomParams":{"A":{"a":1,"b":4},"B":{"a":4,"b":1},"C":{"a":2,"b":8},"D":{"a":8,"b":2}},"conditions":["nonSeqFull","nonSeqPartial","seqNoFeedback","seqFeedback"],"classroomPairings":[["A","B"],["C","D"]],"coinWeights":[0.2,0.5,0.8],"subjectId":"A1NVJB5O4H7ZCJ","assignmentId":"3XM0HYN6NLLDTY0PN7INPISMQBQPEB","hitId":"3AQN9REUTF20OMGWRXYK787QVFOYDP","url":"https://gershmanlab.com/experiments/alicia/teaching/experiment/?hitId=3AQN9REUTF20OMGWRXYK787QVFOYDP&workerId=A1NVJB5O4H7ZCJ&assignmentId=3XM0HYN6NLLDTY0PN7INPISMQBQPEB&a=6HMX9&tp_a=6HMX9&b=3XM0HYN6NLLDTY0PN7INPISMQBQPEB&tp_b=3XM0HYN6NLLDTY0PN7INPISMQBQPEB&c=365799&tp_c=365799"},{"rt":10978,"response":{"heads":"9","tails":"1"},"type":"response","condition":"nonSeqFull","trueTheta":0.8,"classrooms":["A","B"],"studentTrueClassroom":"A","exampleSet":"first","trial_type":"survey-html-form","trial_index":48,"time_elapsed":946813,"internal_node_id":"0.0-47.0-0.0","params":{"nStudents":24,"maxFlips":30,"completionMinutes":45,"basePay":8,"maxBonus":9,"perTrialBonus":0.5,"perTrialBonusThreshold":0.05,"exampleCost":0.01},"classroomParams":{"A":{"a":1,"b":4},"B":{"a":4,"b":1},"C":{"a":2,"b":8},"D":{"a":8,"b":2}},"conditions":["nonSeqFull","nonSeqPartial","seqNoFeedback","seqFeedback"],"classroomPairings":[["A","B"],["C","D"]],"coinWeights":[0.2,0.5,0.8],"subjectId":"A1NVJB5O4H7ZCJ","assignmentId":"3XM0HYN6NLLDTY0PN7INPISMQBQPEB","hitId":"3AQN9REUTF20OMGWRXYK787QVFOYDP","url":"https://gershmanlab.com/experiments/alicia/teaching/experiment/?hitId=3AQN9REUTF20OMGWRXYK787QVFOYDP&workerId=A1NVJB5O4H7ZCJ&assignmentId=3XM0HYN6NLLDTY0PN7INPISMQBQPEB&a=6HMX9&tp_a=6HMX9&b=3XM0HYN6NLLDTY0PN7INPISMQBQPEB&tp_b=3XM0HYN6NLLDTY0PN7INPISMQBQPEB&c=365799&tp_c=365799","heads":9,"tails":1,"studentIndex":5,"studentTrueHypers":{"a":1,"b":4},"studentGuess":0.6666666666666666,"delta":0.13333333333333341,"totalExamples":10,"bonus":0,"bonusSoFar":0.31},{"rt":null,"stimulus":"Sending examples to student... ","response":null,"trial_type":"html-keyboard-response","trial_index":49,"time_elapsed":948818,"internal_node_id":"0.0-48.0","params":{"nStudents":24,"maxFlips":30,"completionMinutes":45,"basePay":8,"maxBonus":9,"perTrialBonus":0.5,"perTrialBonusThreshold":0.05,"exampleCost":0.01},"classroomParams":{"A":{"a":1,"b":4},"B":{"a":4,"b":1},"C":{"a":2,"b":8},"D":{"a":8,"b":2}},"conditions":["nonSeqFull","nonSeqPartial","seqNoFeedback","seqFeedback"],"classroomPairings":[["A","B"],["C","D"]],"coinWeights":[0.2,0.5,0.8],"subjectId":"A1NVJB5O4H7ZCJ","assignmentId":"3XM0HYN6NLLDTY0PN7INPISMQBQPEB","hitId":"3AQN9REUTF20OMGWRXYK787QVFOYDP","url":"https://gershmanlab.com/experiments/alicia/teaching/experiment/?hitId=3AQN9REUTF20OMGWRXYK787QVFOYDP&workerId=A1NVJB5O4H7ZCJ&assignmentId=3XM0HYN6NLLDTY0PN7INPISMQBQPEB&a=6HMX9&tp_a=6HMX9&b=3XM0HYN6NLLDTY0PN7INPISMQBQPEB&tp_b=3XM0HYN6NLLDTY0PN7INPISMQBQPEB&c=365799&tp_c=365799"},{"rt":null,"stimulus":"Examples sent to student! Waiting for student...","response":null,"trial_type":"html-keyboard-response","trial_index":50,"time_elapsed":953478,"internal_node_id":"0.0-49.0","params":{"nStudents":24,"maxFlips":30,"completionMinutes":45,"basePay":8,"maxBonus":9,"perTrialBonus":0.5,"perTrialBonusThreshold":0.05,"exampleCost":0.01},"classroomParams":{"A":{"a":1,"b":4},"B":{"a":4,"b":1},"C":{"a":2,"b":8},"D":{"a":8,"b":2}},"conditions":["nonSeqFull","nonSeqPartial","seqNoFeedback","seqFeedback"],"classroomPairings":[["A","B"],["C","D"]],"coinWeights":[0.2,0.5,0.8],"subjectId":"A1NVJB5O4H7ZCJ","assignmentId":"3XM0HYN6NLLDTY0PN7INPISMQBQPEB","hitId":"3AQN9REUTF20OMGWRXYK787QVFOYDP","url":"https://gershmanlab.com/experiments/alicia/teaching/experiment/?hitId=3AQN9REUTF20OMGWRXYK787QVFOYDP&workerId=A1NVJB5O4H7ZCJ&assignmentId=3XM0HYN6NLLDTY0PN7INPISMQBQPEB&a=6HMX9&tp_a=6HMX9&b=3XM0HYN6NLLDTY0PN7INPISMQBQPEB&tp_b=3XM0HYN6NLLDTY0PN7INPISMQBQPEB&c=365799&tp_c=365799"},{"rt":4838,"stimulus":"\n                <p>Student's guess for coin weight: <b style=\"color:Tomato;\">0.67</b></p>\n                <p>You received a bonus of <b>$0</b>. Total bonus so far: <b>$0.31</b></b></p>\n                <p></p>\n                <p>Press any key to continue.</p>\n                ","response":" ","trial_type":"html-keyboard-response","trial_index":51,"time_elapsed":958317,"internal_node_id":"0.0-50.0","params":{"nStudents":24,"maxFlips":30,"completionMinutes":45,"basePay":8,"maxBonus":9,"perTrialBonus":0.5,"perTrialBonusThreshold":0.05,"exampleCost":0.01},"classroomParams":{"A":{"a":1,"b":4},"B":{"a":4,"b":1},"C":{"a":2,"b":8},"D":{"a":8,"b":2}},"conditions":["nonSeqFull","nonSeqPartial","seqNoFeedback","seqFeedback"],"classroomPairings":[["A","B"],["C","D"]],"coinWeights":[0.2,0.5,0.8],"subjectId":"A1NVJB5O4H7ZCJ","assignmentId":"3XM0HYN6NLLDTY0PN7INPISMQBQPEB","hitId":"3AQN9REUTF20OMGWRXYK787QVFOYDP","url":"https://gershmanlab.com/experiments/alicia/teaching/experiment/?hitId=3AQN9REUTF20OMGWRXYK787QVFOYDP&workerId=A1NVJB5O4H7ZCJ&assignmentId=3XM0HYN6NLLDTY0PN7INPISMQBQPEB&a=6HMX9&tp_a=6HMX9&b=3XM0HYN6NLLDTY0PN7INPISMQBQPEB&tp_b=3XM0HYN6NLLDTY0PN7INPISMQBQPEB&c=365799&tp_c=365799"},{"rt":null,"stimulus":"<div style=\"font-size:60px;\">Next student</div>","response":null,"trial_type":"html-keyboard-response","trial_index":52,"time_elapsed":960573,"internal_node_id":"0.0-51.0-0.0","params":{"nStudents":24,"maxFlips":30,"completionMinutes":45,"basePay":8,"maxBonus":9,"perTrialBonus":0.5,"perTrialBonusThreshold":0.05,"exampleCost":0.01},"classroomParams":{"A":{"a":1,"b":4},"B":{"a":4,"b":1},"C":{"a":2,"b":8},"D":{"a":8,"b":2}},"conditions":["nonSeqFull","nonSeqPartial","seqNoFeedback","seqFeedback"],"classroomPairings":[["A","B"],["C","D"]],"coinWeights":[0.2,0.5,0.8],"subjectId":"A1NVJB5O4H7ZCJ","assignmentId":"3XM0HYN6NLLDTY0PN7INPISMQBQPEB","hitId":"3AQN9REUTF20OMGWRXYK787QVFOYDP","url":"https://gershmanlab.com/experiments/alicia/teaching/experiment/?hitId=3AQN9REUTF20OMGWRXYK787QVFOYDP&workerId=A1NVJB5O4H7ZCJ&assignmentId=3XM0HYN6NLLDTY0PN7INPISMQBQPEB&a=6HMX9&tp_a=6HMX9&b=3XM0HYN6NLLDTY0PN7INPISMQBQPEB&tp_b=3XM0HYN6NLLDTY0PN7INPISMQBQPEB&c=365799&tp_c=365799"},{"rt":1681,"stimulus":"\n            <h4 style=\"color:Orange;\">Student 7</h4>\n            <h2>The weight of your coin is <b style=\"color:Tomato;\">0.8</b>.</h2>\n            <p>In this block, you will be giving <b>two</b> sets of examples to Student 7.</p>\n                <p>You will see the student's guess after the first set of examples. You will also receive feedback at the end of the block.</p>\n            <p>To earn the highest bonus, you will have to <b>take into consideration the student's guess</b> when you choose your second set of examples.</p>","response":0,"trial_type":"html-button-response","trial_index":53,"time_elapsed":962257,"internal_node_id":"0.0-52.0","params":{"nStudents":24,"maxFlips":30,"completionMinutes":45,"basePay":8,"maxBonus":9,"perTrialBonus":0.5,"perTrialBonusThreshold":0.05,"exampleCost":0.01},"classroomParams":{"A":{"a":1,"b":4},"B":{"a":4,"b":1},"C":{"a":2,"b":8},"D":{"a":8,"b":2}},"conditions":["nonSeqFull","nonSeqPartial","seqNoFeedback","seqFeedback"],"classroomPairings":[["A","B"],["C","D"]],"coinWeights":[0.2,0.5,0.8],"subjectId":"A1NVJB5O4H7ZCJ","assignmentId":"3XM0HYN6NLLDTY0PN7INPISMQBQPEB","hitId":"3AQN9REUTF20OMGWRXYK787QVFOYDP","url":"https://gershmanlab.com/experiments/alicia/teaching/experiment/?hitId=3AQN9REUTF20OMGWRXYK787QVFOYDP&workerId=A1NVJB5O4H7ZCJ&assignmentId=3XM0HYN6NLLDTY0PN7INPISMQBQPEB&a=6HMX9&tp_a=6HMX9&b=3XM0HYN6NLLDTY0PN7INPISMQBQPEB&tp_b=3XM0HYN6NLLDTY0PN7INPISMQBQPEB&c=365799&tp_c=365799"},{"rt":8339,"response":{"heads":"9","tails":"1"},"type":"response","condition":"seqFeedback","trueTheta":0.8,"classrooms":["C","D"],"studentTrueClassroom":"C","exampleSet":"first","trial_type":"survey-html-form","trial_index":54,"time_elapsed":970597,"internal_node_id":"0.0-53.0-0.0","params":{"nStudents":24,"maxFlips":30,"completionMinutes":45,"basePay":8,"maxBonus":9,"perTrialBonus":0.5,"perTrialBonusThreshold":0.05,"exampleCost":0.01},"classroomParams":{"A":{"a":1,"b":4},"B":{"a":4,"b":1},"C":{"a":2,"b":8},"D":{"a":8,"b":2}},"conditions":["nonSeqFull","nonSeqPartial","seqNoFeedback","seqFeedback"],"classroomPairings":[["A","B"],["C","D"]],"coinWeights":[0.2,0.5,0.8],"subjectId":"A1NVJB5O4H7ZCJ","assignmentId":"3XM0HYN6NLLDTY0PN7INPISMQBQPEB","hitId":"3AQN9REUTF20OMGWRXYK787QVFOYDP","url":"https://gershmanlab.com/experiments/alicia/teaching/experiment/?hitId=3AQN9REUTF20OMGWRXYK787QVFOYDP&workerId=A1NVJB5O4H7ZCJ&assignmentId=3XM0HYN6NLLDTY0PN7INPISMQBQPEB&a=6HMX9&tp_a=6HMX9&b=3XM0HYN6NLLDTY0PN7INPISMQBQPEB&tp_b=3XM0HYN6NLLDTY0PN7INPISMQBQPEB&c=365799&tp_c=365799","heads":9,"tails":1,"studentIndex":6,"studentTrueHypers":{"a":2,"b":8},"studentGuess":0.55,"delta":0.25,"totalExamples":10,"bonusSoFar":0.31},{"rt":null,"stimulus":"Sending examples to student... ","response":null,"trial_type":"html-keyboard-response","trial_index":55,"time_elapsed":971849,"internal_node_id":"0.0-54.0","params":{"nStudents":24,"maxFlips":30,"completionMinutes":45,"basePay":8,"maxBonus":9,"perTrialBonus":0.5,"perTrialBonusThreshold":0.05,"exampleCost":0.01},"classroomParams":{"A":{"a":1,"b":4},"B":{"a":4,"b":1},"C":{"a":2,"b":8},"D":{"a":8,"b":2}},"conditions":["nonSeqFull","nonSeqPartial","seqNoFeedback","seqFeedback"],"classroomPairings":[["A","B"],["C","D"]],"coinWeights":[0.2,0.5,0.8],"subjectId":"A1NVJB5O4H7ZCJ","assignmentId":"3XM0HYN6NLLDTY0PN7INPISMQBQPEB","hitId":"3AQN9REUTF20OMGWRXYK787QVFOYDP","url":"https://gershmanlab.com/experiments/alicia/teaching/experiment/?hitId=3AQN9REUTF20OMGWRXYK787QVFOYDP&workerId=A1NVJB5O4H7ZCJ&assignmentId=3XM0HYN6NLLDTY0PN7INPISMQBQPEB&a=6HMX9&tp_a=6HMX9&b=3XM0HYN6NLLDTY0PN7INPISMQBQPEB&tp_b=3XM0HYN6NLLDTY0PN7INPISMQBQPEB&c=365799&tp_c=365799"},{"rt":null,"stimulus":"Examples sent to student! Waiting for student...","response":null,"trial_type":"html-keyboard-response","trial_index":56,"time_elapsed":976351,"internal_node_id":"0.0-55.0","params":{"nStudents":24,"maxFlips":30,"completionMinutes":45,"basePay":8,"maxBonus":9,"perTrialBonus":0.5,"perTrialBonusThreshold":0.05,"exampleCost":0.01},"classroomParams":{"A":{"a":1,"b":4},"B":{"a":4,"b":1},"C":{"a":2,"b":8},"D":{"a":8,"b":2}},"conditions":["nonSeqFull","nonSeqPartial","seqNoFeedback","seqFeedback"],"classroomPairings":[["A","B"],["C","D"]],"coinWeights":[0.2,0.5,0.8],"subjectId":"A1NVJB5O4H7ZCJ","assignmentId":"3XM0HYN6NLLDTY0PN7INPISMQBQPEB","hitId":"3AQN9REUTF20OMGWRXYK787QVFOYDP","url":"https://gershmanlab.com/experiments/alicia/teaching/experiment/?hitId=3AQN9REUTF20OMGWRXYK787QVFOYDP&workerId=A1NVJB5O4H7ZCJ&assignmentId=3XM0HYN6NLLDTY0PN7INPISMQBQPEB&a=6HMX9&tp_a=6HMX9&b=3XM0HYN6NLLDTY0PN7INPISMQBQPEB&tp_b=3XM0HYN6NLLDTY0PN7INPISMQBQPEB&c=365799&tp_c=365799"},{"rt":5197,"stimulus":"\n                <p>Student's guess for coin weight: <b style=\"color:Tomato;\">0.55</b></p>\n                <p></b></p>\n                <p>You will now send another set of examples to your student. <b>Remember to take your student's guess into consideration so that you can earn the highest bonus possible!</b> </p>\n                <p>Press any key to continue.</p>\n                ","response":" ","trial_type":"html-keyboard-response","trial_index":57,"time_elapsed":981549,"internal_node_id":"0.0-56.0","params":{"nStudents":24,"maxFlips":30,"completionMinutes":45,"basePay":8,"maxBonus":9,"perTrialBonus":0.5,"perTrialBonusThreshold":0.05,"exampleCost":0.01},"classroomParams":{"A":{"a":1,"b":4},"B":{"a":4,"b":1},"C":{"a":2,"b":8},"D":{"a":8,"b":2}},"conditions":["nonSeqFull","nonSeqPartial","seqNoFeedback","seqFeedback"],"classroomPairings":[["A","B"],["C","D"]],"coinWeights":[0.2,0.5,0.8],"subjectId":"A1NVJB5O4H7ZCJ","assignmentId":"3XM0HYN6NLLDTY0PN7INPISMQBQPEB","hitId":"3AQN9REUTF20OMGWRXYK787QVFOYDP","url":"https://gershmanlab.com/experiments/alicia/teaching/experiment/?hitId=3AQN9REUTF20OMGWRXYK787QVFOYDP&workerId=A1NVJB5O4H7ZCJ&assignmentId=3XM0HYN6NLLDTY0PN7INPISMQBQPEB&a=6HMX9&tp_a=6HMX9&b=3XM0HYN6NLLDTY0PN7INPISMQBQPEB&tp_b=3XM0HYN6NLLDTY0PN7INPISMQBQPEB&c=365799&tp_c=365799"},{"rt":4782,"response":{"heads":"10","tails":"0"},"type":"response","condition":"seqFeedback","trueTheta":0.8,"classrooms":["C","D"],"studentTrueClassroom":"C","exampleSet":"second","trial_type":"survey-html-form","trial_index":58,"time_elapsed":986333,"internal_node_id":"0.0-57.0-0.0","params":{"nStudents":24,"maxFlips":30,"completionMinutes":45,"basePay":8,"maxBonus":9,"perTrialBonus":0.5,"perTrialBonusThreshold":0.05,"exampleCost":0.01},"classroomParams":{"A":{"a":1,"b":4},"B":{"a":4,"b":1},"C":{"a":2,"b":8},"D":{"a":8,"b":2}},"conditions":["nonSeqFull","nonSeqPartial","seqNoFeedback","seqFeedback"],"classroomPairings":[["A","B"],["C","D"]],"coinWeights":[0.2,0.5,0.8],"subjectId":"A1NVJB5O4H7ZCJ","assignmentId":"3XM0HYN6NLLDTY0PN7INPISMQBQPEB","hitId":"3AQN9REUTF20OMGWRXYK787QVFOYDP","url":"https://gershmanlab.com/experiments/alicia/teaching/experiment/?hitId=3AQN9REUTF20OMGWRXYK787QVFOYDP&workerId=A1NVJB5O4H7ZCJ&assignmentId=3XM0HYN6NLLDTY0PN7INPISMQBQPEB&a=6HMX9&tp_a=6HMX9&b=3XM0HYN6NLLDTY0PN7INPISMQBQPEB&tp_b=3XM0HYN6NLLDTY0PN7INPISMQBQPEB&c=365799&tp_c=365799","firstResponseHeads":9,"firstResponseTails":1,"secondResponseHeads":10,"secondResponseTails":0,"totalHeads":19,"totalTails":1,"studentIndex":6,"studentTrueHypers":{"a":2,"b":8},"studentGuess":0.7,"delta":0.10000000000000009,"bonus":0,"bonusSoFar":0.31,"totalExamples":20},{"rt":null,"stimulus":"Sending examples to student... ","response":null,"trial_type":"html-keyboard-response","trial_index":59,"time_elapsed":987841,"internal_node_id":"0.0-58.0","params":{"nStudents":24,"maxFlips":30,"completionMinutes":45,"basePay":8,"maxBonus":9,"perTrialBonus":0.5,"perTrialBonusThreshold":0.05,"exampleCost":0.01},"classroomParams":{"A":{"a":1,"b":4},"B":{"a":4,"b":1},"C":{"a":2,"b":8},"D":{"a":8,"b":2}},"conditions":["nonSeqFull","nonSeqPartial","seqNoFeedback","seqFeedback"],"classroomPairings":[["A","B"],["C","D"]],"coinWeights":[0.2,0.5,0.8],"subjectId":"A1NVJB5O4H7ZCJ","assignmentId":"3XM0HYN6NLLDTY0PN7INPISMQBQPEB","hitId":"3AQN9REUTF20OMGWRXYK787QVFOYDP","url":"https://gershmanlab.com/experiments/alicia/teaching/experiment/?hitId=3AQN9REUTF20OMGWRXYK787QVFOYDP&workerId=A1NVJB5O4H7ZCJ&assignmentId=3XM0HYN6NLLDTY0PN7INPISMQBQPEB&a=6HMX9&tp_a=6HMX9&b=3XM0HYN6NLLDTY0PN7INPISMQBQPEB&tp_b=3XM0HYN6NLLDTY0PN7INPISMQBQPEB&c=365799&tp_c=365799"},{"rt":null,"stimulus":"Examples sent to student! Waiting for student...","response":null,"trial_type":"html-keyboard-response","trial_index":60,"time_elapsed":992857,"internal_node_id":"0.0-59.0","params":{"nStudents":24,"maxFlips":30,"completionMinutes":45,"basePay":8,"maxBonus":9,"perTrialBonus":0.5,"perTrialBonusThreshold":0.05,"exampleCost":0.01},"classroomParams":{"A":{"a":1,"b":4},"B":{"a":4,"b":1},"C":{"a":2,"b":8},"D":{"a":8,"b":2}},"conditions":["nonSeqFull","nonSeqPartial","seqNoFeedback","seqFeedback"],"classroomPairings":[["A","B"],["C","D"]],"coinWeights":[0.2,0.5,0.8],"subjectId":"A1NVJB5O4H7ZCJ","assignmentId":"3XM0HYN6NLLDTY0PN7INPISMQBQPEB","hitId":"3AQN9REUTF20OMGWRXYK787QVFOYDP","url":"https://gershmanlab.com/experiments/alicia/teaching/experiment/?hitId=3AQN9REUTF20OMGWRXYK787QVFOYDP&workerId=A1NVJB5O4H7ZCJ&assignmentId=3XM0HYN6NLLDTY0PN7INPISMQBQPEB&a=6HMX9&tp_a=6HMX9&b=3XM0HYN6NLLDTY0PN7INPISMQBQPEB&tp_b=3XM0HYN6NLLDTY0PN7INPISMQBQPEB&c=365799&tp_c=365799"},{"rt":null,"stimulus":"\n                <p>Student 7's first guess for coin weight: <b style=\"color:Tomato\";>0.55</b></p>\n                <p>Student 7's second guess for coin weight: <b style=\"color:Tomato\";>0.70</b></p>\n                <p>You received a bonus of <b>$0.00</b> based on the student's second guess.</p>\n                <p>Total bonus so far: <b>$0.31</b></p>\n                <p>Press any key to continue.</p>\n                ","response":null,"trial_type":"html-keyboard-response","trial_index":61,"time_elapsed":1022863,"internal_node_id":"0.0-60.0","params":{"nStudents":24,"maxFlips":30,"completionMinutes":45,"basePay":8,"maxBonus":9,"perTrialBonus":0.5,"perTrialBonusThreshold":0.05,"exampleCost":0.01},"classroomParams":{"A":{"a":1,"b":4},"B":{"a":4,"b":1},"C":{"a":2,"b":8},"D":{"a":8,"b":2}},"conditions":["nonSeqFull","nonSeqPartial","seqNoFeedback","seqFeedback"],"classroomPairings":[["A","B"],["C","D"]],"coinWeights":[0.2,0.5,0.8],"subjectId":"A1NVJB5O4H7ZCJ","assignmentId":"3XM0HYN6NLLDTY0PN7INPISMQBQPEB","hitId":"3AQN9REUTF20OMGWRXYK787QVFOYDP","url":"https://gershmanlab.com/experiments/alicia/teaching/experiment/?hitId=3AQN9REUTF20OMGWRXYK787QVFOYDP&workerId=A1NVJB5O4H7ZCJ&assignmentId=3XM0HYN6NLLDTY0PN7INPISMQBQPEB&a=6HMX9&tp_a=6HMX9&b=3XM0HYN6NLLDTY0PN7INPISMQBQPEB&tp_b=3XM0HYN6NLLDTY0PN7INPISMQBQPEB&c=365799&tp_c=365799"},{"rt":null,"stimulus":"<div style=\"font-size:60px;\">Next student</div>","response":null,"trial_type":"html-keyboard-response","trial_index":62,"time_elapsed":1024876,"internal_node_id":"0.0-61.0-0.0","params":{"nStudents":24,"maxFlips":30,"completionMinutes":45,"basePay":8,"maxBonus":9,"perTrialBonus":0.5,"perTrialBonusThreshold":0.05,"exampleCost":0.01},"classroomParams":{"A":{"a":1,"b":4},"B":{"a":4,"b":1},"C":{"a":2,"b":8},"D":{"a":8,"b":2}},"conditions":["nonSeqFull","nonSeqPartial","seqNoFeedback","seqFeedback"],"classroomPairings":[["A","B"],["C","D"]],"coinWeights":[0.2,0.5,0.8],"subjectId":"A1NVJB5O4H7ZCJ","assignmentId":"3XM0HYN6NLLDTY0PN7INPISMQBQPEB","hitId":"3AQN9REUTF20OMGWRXYK787QVFOYDP","url":"https://gershmanlab.com/experiments/alicia/teaching/experiment/?hitId=3AQN9REUTF20OMGWRXYK787QVFOYDP&workerId=A1NVJB5O4H7ZCJ&assignmentId=3XM0HYN6NLLDTY0PN7INPISMQBQPEB&a=6HMX9&tp_a=6HMX9&b=3XM0HYN6NLLDTY0PN7INPISMQBQPEB&tp_b=3XM0HYN6NLLDTY0PN7INPISMQBQPEB&c=365799&tp_c=365799"},{"rt":12940,"stimulus":"\n            <h4 style=\"color:Orange;\">Student 8</h4>\n            <h2>The weight of your coin is <b style=\"color:Tomato;\">0.2</b>.</h2>\n            <p>In this block, you will be giving <b>one</b> set of examples to Student 8.</p>\n                <p>You will receive feedback at the end of the block.</p>\n            <p></p>","response":0,"trial_type":"html-button-response","trial_index":63,"time_elapsed":1037818,"internal_node_id":"0.0-62.0","params":{"nStudents":24,"maxFlips":30,"completionMinutes":45,"basePay":8,"maxBonus":9,"perTrialBonus":0.5,"perTrialBonusThreshold":0.05,"exampleCost":0.01},"classroomParams":{"A":{"a":1,"b":4},"B":{"a":4,"b":1},"C":{"a":2,"b":8},"D":{"a":8,"b":2}},"conditions":["nonSeqFull","nonSeqPartial","seqNoFeedback","seqFeedback"],"classroomPairings":[["A","B"],["C","D"]],"coinWeights":[0.2,0.5,0.8],"subjectId":"A1NVJB5O4H7ZCJ","assignmentId":"3XM0HYN6NLLDTY0PN7INPISMQBQPEB","hitId":"3AQN9REUTF20OMGWRXYK787QVFOYDP","url":"https://gershmanlab.com/experiments/alicia/teaching/experiment/?hitId=3AQN9REUTF20OMGWRXYK787QVFOYDP&workerId=A1NVJB5O4H7ZCJ&assignmentId=3XM0HYN6NLLDTY0PN7INPISMQBQPEB&a=6HMX9&tp_a=6HMX9&b=3XM0HYN6NLLDTY0PN7INPISMQBQPEB&tp_b=3XM0HYN6NLLDTY0PN7INPISMQBQPEB&c=365799&tp_c=365799"},{"rt":30154,"response":{"heads":"2","tails":"9"},"type":"response","condition":"nonSeqPartial","trueTheta":0.2,"classrooms":["A","B"],"studentTrueClassroom":"B","exampleSet":"first","trial_type":"survey-html-form","trial_index":64,"time_elapsed":1067973,"internal_node_id":"0.0-63.0-0.0","params":{"nStudents":24,"maxFlips":30,"completionMinutes":45,"basePay":8,"maxBonus":9,"perTrialBonus":0.5,"perTrialBonusThreshold":0.05,"exampleCost":0.01},"classroomParams":{"A":{"a":1,"b":4},"B":{"a":4,"b":1},"C":{"a":2,"b":8},"D":{"a":8,"b":2}},"conditions":["nonSeqFull","nonSeqPartial","seqNoFeedback","seqFeedback"],"classroomPairings":[["A","B"],["C","D"]],"coinWeights":[0.2,0.5,0.8],"subjectId":"A1NVJB5O4H7ZCJ","assignmentId":"3XM0HYN6NLLDTY0PN7INPISMQBQPEB","hitId":"3AQN9REUTF20OMGWRXYK787QVFOYDP","url":"https://gershmanlab.com/experiments/alicia/teaching/experiment/?hitId=3AQN9REUTF20OMGWRXYK787QVFOYDP&workerId=A1NVJB5O4H7ZCJ&assignmentId=3XM0HYN6NLLDTY0PN7INPISMQBQPEB&a=6HMX9&tp_a=6HMX9&b=3XM0HYN6NLLDTY0PN7INPISMQBQPEB&tp_b=3XM0HYN6NLLDTY0PN7INPISMQBQPEB&c=365799&tp_c=365799","heads":2,"tails":9,"studentIndex":7,"studentTrueHypers":{"a":4,"b":1},"studentGuess":0.375,"delta":0.175,"totalExamples":11,"bonus":0,"bonusSoFar":0.31},{"rt":null,"stimulus":"Sending examples to student... ","response":null,"trial_type":"html-keyboard-response","trial_index":65,"time_elapsed":1069978,"internal_node_id":"0.0-64.0","params":{"nStudents":24,"maxFlips":30,"completionMinutes":45,"basePay":8,"maxBonus":9,"perTrialBonus":0.5,"perTrialBonusThreshold":0.05,"exampleCost":0.01},"classroomParams":{"A":{"a":1,"b":4},"B":{"a":4,"b":1},"C":{"a":2,"b":8},"D":{"a":8,"b":2}},"conditions":["nonSeqFull","nonSeqPartial","seqNoFeedback","seqFeedback"],"classroomPairings":[["A","B"],["C","D"]],"coinWeights":[0.2,0.5,0.8],"subjectId":"A1NVJB5O4H7ZCJ","assignmentId":"3XM0HYN6NLLDTY0PN7INPISMQBQPEB","hitId":"3AQN9REUTF20OMGWRXYK787QVFOYDP","url":"https://gershmanlab.com/experiments/alicia/teaching/experiment/?hitId=3AQN9REUTF20OMGWRXYK787QVFOYDP&workerId=A1NVJB5O4H7ZCJ&assignmentId=3XM0HYN6NLLDTY0PN7INPISMQBQPEB&a=6HMX9&tp_a=6HMX9&b=3XM0HYN6NLLDTY0PN7INPISMQBQPEB&tp_b=3XM0HYN6NLLDTY0PN7INPISMQBQPEB&c=365799&tp_c=365799"},{"rt":null,"stimulus":"Examples sent to student! Waiting for student...","response":null,"trial_type":"html-keyboard-response","trial_index":66,"time_elapsed":1075495,"internal_node_id":"0.0-65.0","params":{"nStudents":24,"maxFlips":30,"completionMinutes":45,"basePay":8,"maxBonus":9,"perTrialBonus":0.5,"perTrialBonusThreshold":0.05,"exampleCost":0.01},"classroomParams":{"A":{"a":1,"b":4},"B":{"a":4,"b":1},"C":{"a":2,"b":8},"D":{"a":8,"b":2}},"conditions":["nonSeqFull","nonSeqPartial","seqNoFeedback","seqFeedback"],"classroomPairings":[["A","B"],["C","D"]],"coinWeights":[0.2,0.5,0.8],"subjectId":"A1NVJB5O4H7ZCJ","assignmentId":"3XM0HYN6NLLDTY0PN7INPISMQBQPEB","hitId":"3AQN9REUTF20OMGWRXYK787QVFOYDP","url":"https://gershmanlab.com/experiments/alicia/teaching/experiment/?hitId=3AQN9REUTF20OMGWRXYK787QVFOYDP&workerId=A1NVJB5O4H7ZCJ&assignmentId=3XM0HYN6NLLDTY0PN7INPISMQBQPEB&a=6HMX9&tp_a=6HMX9&b=3XM0HYN6NLLDTY0PN7INPISMQBQPEB&tp_b=3XM0HYN6NLLDTY0PN7INPISMQBQPEB&c=365799&tp_c=365799"},{"rt":2141,"stimulus":"\n                <p>Student's guess for coin weight: <b style=\"color:Tomato;\">0.38</b></p>\n                <p>You received a bonus of <b>$0</b>. Total bonus so far: <b>$0.31</b></b></p>\n                <p></p>\n                <p>Press any key to continue.</p>\n                ","response":" ","trial_type":"html-keyboard-response","trial_index":67,"time_elapsed":1077637,"internal_node_id":"0.0-66.0","params":{"nStudents":24,"maxFlips":30,"completionMinutes":45,"basePay":8,"maxBonus":9,"perTrialBonus":0.5,"perTrialBonusThreshold":0.05,"exampleCost":0.01},"classroomParams":{"A":{"a":1,"b":4},"B":{"a":4,"b":1},"C":{"a":2,"b":8},"D":{"a":8,"b":2}},"conditions":["nonSeqFull","nonSeqPartial","seqNoFeedback","seqFeedback"],"classroomPairings":[["A","B"],["C","D"]],"coinWeights":[0.2,0.5,0.8],"subjectId":"A1NVJB5O4H7ZCJ","assignmentId":"3XM0HYN6NLLDTY0PN7INPISMQBQPEB","hitId":"3AQN9REUTF20OMGWRXYK787QVFOYDP","url":"https://gershmanlab.com/experiments/alicia/teaching/experiment/?hitId=3AQN9REUTF20OMGWRXYK787QVFOYDP&workerId=A1NVJB5O4H7ZCJ&assignmentId=3XM0HYN6NLLDTY0PN7INPISMQBQPEB&a=6HMX9&tp_a=6HMX9&b=3XM0HYN6NLLDTY0PN7INPISMQBQPEB&tp_b=3XM0HYN6NLLDTY0PN7INPISMQBQPEB&c=365799&tp_c=365799"},{"rt":null,"stimulus":"<div style=\"font-size:60px;\">Next student</div>","response":null,"trial_type":"html-keyboard-response","trial_index":68,"time_elapsed":1080141,"internal_node_id":"0.0-67.0-0.0","params":{"nStudents":24,"maxFlips":30,"completionMinutes":45,"basePay":8,"maxBonus":9,"perTrialBonus":0.5,"perTrialBonusThreshold":0.05,"exampleCost":0.01},"classroomParams":{"A":{"a":1,"b":4},"B":{"a":4,"b":1},"C":{"a":2,"b":8},"D":{"a":8,"b":2}},"conditions":["nonSeqFull","nonSeqPartial","seqNoFeedback","seqFeedback"],"classroomPairings":[["A","B"],["C","D"]],"coinWeights":[0.2,0.5,0.8],"subjectId":"A1NVJB5O4H7ZCJ","assignmentId":"3XM0HYN6NLLDTY0PN7INPISMQBQPEB","hitId":"3AQN9REUTF20OMGWRXYK787QVFOYDP","url":"https://gershmanlab.com/experiments/alicia/teaching/experiment/?hitId=3AQN9REUTF20OMGWRXYK787QVFOYDP&workerId=A1NVJB5O4H7ZCJ&assignmentId=3XM0HYN6NLLDTY0PN7INPISMQBQPEB&a=6HMX9&tp_a=6HMX9&b=3XM0HYN6NLLDTY0PN7INPISMQBQPEB&tp_b=3XM0HYN6NLLDTY0PN7INPISMQBQPEB&c=365799&tp_c=365799"},{"rt":2374,"stimulus":"\n            <h4 style=\"color:Orange;\">Student 9</h4>\n            <h2>The weight of your coin is <b style=\"color:Tomato;\">0.5</b>.</h2>\n            <p>In this block, you will be giving <b>two</b> sets of examples to Student 9.</p>\n                <p>You will see the student's guess after the first set of examples. You will also receive feedback at the end of the block.</p>\n            <p>To earn the highest bonus, you will have to <b>take into consideration the student's guess</b> when you choose your second set of examples.</p>","response":0,"trial_type":"html-button-response","trial_index":69,"time_elapsed":1082517,"internal_node_id":"0.0-68.0","params":{"nStudents":24,"maxFlips":30,"completionMinutes":45,"basePay":8,"maxBonus":9,"perTrialBonus":0.5,"perTrialBonusThreshold":0.05,"exampleCost":0.01},"classroomParams":{"A":{"a":1,"b":4},"B":{"a":4,"b":1},"C":{"a":2,"b":8},"D":{"a":8,"b":2}},"conditions":["nonSeqFull","nonSeqPartial","seqNoFeedback","seqFeedback"],"classroomPairings":[["A","B"],["C","D"]],"coinWeights":[0.2,0.5,0.8],"subjectId":"A1NVJB5O4H7ZCJ","assignmentId":"3XM0HYN6NLLDTY0PN7INPISMQBQPEB","hitId":"3AQN9REUTF20OMGWRXYK787QVFOYDP","url":"https://gershmanlab.com/experiments/alicia/teaching/experiment/?hitId=3AQN9REUTF20OMGWRXYK787QVFOYDP&workerId=A1NVJB5O4H7ZCJ&assignmentId=3XM0HYN6NLLDTY0PN7INPISMQBQPEB&a=6HMX9&tp_a=6HMX9&b=3XM0HYN6NLLDTY0PN7INPISMQBQPEB&tp_b=3XM0HYN6NLLDTY0PN7INPISMQBQPEB&c=365799&tp_c=365799"},{"rt":15147,"response":{"heads":"3","tails":"8"},"type":"response","condition":"seqFeedback","trueTheta":0.5,"classrooms":["A","B"],"studentTrueClassroom":"B","exampleSet":"first","trial_type":"survey-html-form","trial_index":70,"time_elapsed":1097666,"internal_node_id":"0.0-69.0-0.0","params":{"nStudents":24,"maxFlips":30,"completionMinutes":45,"basePay":8,"maxBonus":9,"perTrialBonus":0.5,"perTrialBonusThreshold":0.05,"exampleCost":0.01},"classroomParams":{"A":{"a":1,"b":4},"B":{"a":4,"b":1},"C":{"a":2,"b":8},"D":{"a":8,"b":2}},"conditions":["nonSeqFull","nonSeqPartial","seqNoFeedback","seqFeedback"],"classroomPairings":[["A","B"],["C","D"]],"coinWeights":[0.2,0.5,0.8],"subjectId":"A1NVJB5O4H7ZCJ","assignmentId":"3XM0HYN6NLLDTY0PN7INPISMQBQPEB","hitId":"3AQN9REUTF20OMGWRXYK787QVFOYDP","url":"https://gershmanlab.com/experiments/alicia/teaching/experiment/?hitId=3AQN9REUTF20OMGWRXYK787QVFOYDP&workerId=A1NVJB5O4H7ZCJ&assignmentId=3XM0HYN6NLLDTY0PN7INPISMQBQPEB&a=6HMX9&tp_a=6HMX9&b=3XM0HYN6NLLDTY0PN7INPISMQBQPEB&tp_b=3XM0HYN6NLLDTY0PN7INPISMQBQPEB&c=365799&tp_c=365799","heads":3,"tails":8,"studentIndex":8,"studentTrueHypers":{"a":4,"b":1},"studentGuess":0.4375,"delta":0.0625,"totalExamples":11,"bonusSoFar":0.31},{"rt":null,"stimulus":"Sending examples to student... ","response":null,"trial_type":"html-keyboard-response","trial_index":71,"time_elapsed":1099167,"internal_node_id":"0.0-70.0","params":{"nStudents":24,"maxFlips":30,"completionMinutes":45,"basePay":8,"maxBonus":9,"perTrialBonus":0.5,"perTrialBonusThreshold":0.05,"exampleCost":0.01},"classroomParams":{"A":{"a":1,"b":4},"B":{"a":4,"b":1},"C":{"a":2,"b":8},"D":{"a":8,"b":2}},"conditions":["nonSeqFull","nonSeqPartial","seqNoFeedback","seqFeedback"],"classroomPairings":[["A","B"],["C","D"]],"coinWeights":[0.2,0.5,0.8],"subjectId":"A1NVJB5O4H7ZCJ","assignmentId":"3XM0HYN6NLLDTY0PN7INPISMQBQPEB","hitId":"3AQN9REUTF20OMGWRXYK787QVFOYDP","url":"https://gershmanlab.com/experiments/alicia/teaching/experiment/?hitId=3AQN9REUTF20OMGWRXYK787QVFOYDP&workerId=A1NVJB5O4H7ZCJ&assignmentId=3XM0HYN6NLLDTY0PN7INPISMQBQPEB&a=6HMX9&tp_a=6HMX9&b=3XM0HYN6NLLDTY0PN7INPISMQBQPEB&tp_b=3XM0HYN6NLLDTY0PN7INPISMQBQPEB&c=365799&tp_c=365799"},{"rt":null,"stimulus":"Examples sent to student! Waiting for student...","response":null,"trial_type":"html-keyboard-response","trial_index":72,"time_elapsed":1103669,"internal_node_id":"0.0-71.0","params":{"nStudents":24,"maxFlips":30,"completionMinutes":45,"basePay":8,"maxBonus":9,"perTrialBonus":0.5,"perTrialBonusThreshold":0.05,"exampleCost":0.01},"classroomParams":{"A":{"a":1,"b":4},"B":{"a":4,"b":1},"C":{"a":2,"b":8},"D":{"a":8,"b":2}},"conditions":["nonSeqFull","nonSeqPartial","seqNoFeedback","seqFeedback"],"classroomPairings":[["A","B"],["C","D"]],"coinWeights":[0.2,0.5,0.8],"subjectId":"A1NVJB5O4H7ZCJ","assignmentId":"3XM0HYN6NLLDTY0PN7INPISMQBQPEB","hitId":"3AQN9REUTF20OMGWRXYK787QVFOYDP","url":"https://gershmanlab.com/experiments/alicia/teaching/experiment/?hitId=3AQN9REUTF20OMGWRXYK787QVFOYDP&workerId=A1NVJB5O4H7ZCJ&assignmentId=3XM0HYN6NLLDTY0PN7INPISMQBQPEB&a=6HMX9&tp_a=6HMX9&b=3XM0HYN6NLLDTY0PN7INPISMQBQPEB&tp_b=3XM0HYN6NLLDTY0PN7INPISMQBQPEB&c=365799&tp_c=365799"},{"rt":7231,"stimulus":"\n                <p>Student's guess for coin weight: <b style=\"color:Tomato;\">0.44</b></p>\n                <p></b></p>\n                <p>You will now send another set of examples to your student. <b>Remember to take your student's guess into consideration so that you can earn the highest bonus possible!</b> </p>\n                <p>Press any key to continue.</p>\n                ","response":" ","trial_type":"html-keyboard-response","trial_index":73,"time_elapsed":1110902,"internal_node_id":"0.0-72.0","params":{"nStudents":24,"maxFlips":30,"completionMinutes":45,"basePay":8,"maxBonus":9,"perTrialBonus":0.5,"perTrialBonusThreshold":0.05,"exampleCost":0.01},"classroomParams":{"A":{"a":1,"b":4},"B":{"a":4,"b":1},"C":{"a":2,"b":8},"D":{"a":8,"b":2}},"conditions":["nonSeqFull","nonSeqPartial","seqNoFeedback","seqFeedback"],"classroomPairings":[["A","B"],["C","D"]],"coinWeights":[0.2,0.5,0.8],"subjectId":"A1NVJB5O4H7ZCJ","assignmentId":"3XM0HYN6NLLDTY0PN7INPISMQBQPEB","hitId":"3AQN9REUTF20OMGWRXYK787QVFOYDP","url":"https://gershmanlab.com/experiments/alicia/teaching/experiment/?hitId=3AQN9REUTF20OMGWRXYK787QVFOYDP&workerId=A1NVJB5O4H7ZCJ&assignmentId=3XM0HYN6NLLDTY0PN7INPISMQBQPEB&a=6HMX9&tp_a=6HMX9&b=3XM0HYN6NLLDTY0PN7INPISMQBQPEB&tp_b=3XM0HYN6NLLDTY0PN7INPISMQBQPEB&c=365799&tp_c=365799"},{"rt":7573,"response":{"heads":"2","tails":"7"},"type":"response","condition":"seqFeedback","trueTheta":0.5,"classrooms":["A","B"],"studentTrueClassroom":"B","exampleSet":"second","trial_type":"survey-html-form","trial_index":74,"time_elapsed":1118477,"internal_node_id":"0.0-73.0-0.0","params":{"nStudents":24,"maxFlips":30,"completionMinutes":45,"basePay":8,"maxBonus":9,"perTrialBonus":0.5,"perTrialBonusThreshold":0.05,"exampleCost":0.01},"classroomParams":{"A":{"a":1,"b":4},"B":{"a":4,"b":1},"C":{"a":2,"b":8},"D":{"a":8,"b":2}},"conditions":["nonSeqFull","nonSeqPartial","seqNoFeedback","seqFeedback"],"classroomPairings":[["A","B"],["C","D"]],"coinWeights":[0.2,0.5,0.8],"subjectId":"A1NVJB5O4H7ZCJ","assignmentId":"3XM0HYN6NLLDTY0PN7INPISMQBQPEB","hitId":"3AQN9REUTF20OMGWRXYK787QVFOYDP","url":"https://gershmanlab.com/experiments/alicia/teaching/experiment/?hitId=3AQN9REUTF20OMGWRXYK787QVFOYDP&workerId=A1NVJB5O4H7ZCJ&assignmentId=3XM0HYN6NLLDTY0PN7INPISMQBQPEB&a=6HMX9&tp_a=6HMX9&b=3XM0HYN6NLLDTY0PN7INPISMQBQPEB&tp_b=3XM0HYN6NLLDTY0PN7INPISMQBQPEB&c=365799&tp_c=365799","firstResponseHeads":3,"firstResponseTails":8,"secondResponseHeads":2,"secondResponseTails":7,"totalHeads":5,"totalTails":15,"studentIndex":8,"studentTrueHypers":{"a":4,"b":1},"studentGuess":0.36,"delta":0.14,"bonus":0,"bonusSoFar":0.31,"totalExamples":20},{"rt":null,"stimulus":"Sending examples to student... ","response":null,"trial_type":"html-keyboard-response","trial_index":75,"time_elapsed":1120493,"internal_node_id":"0.0-74.0","params":{"nStudents":24,"maxFlips":30,"completionMinutes":45,"basePay":8,"maxBonus":9,"perTrialBonus":0.5,"perTrialBonusThreshold":0.05,"exampleCost":0.01},"classroomParams":{"A":{"a":1,"b":4},"B":{"a":4,"b":1},"C":{"a":2,"b":8},"D":{"a":8,"b":2}},"conditions":["nonSeqFull","nonSeqPartial","seqNoFeedback","seqFeedback"],"classroomPairings":[["A","B"],["C","D"]],"coinWeights":[0.2,0.5,0.8],"subjectId":"A1NVJB5O4H7ZCJ","assignmentId":"3XM0HYN6NLLDTY0PN7INPISMQBQPEB","hitId":"3AQN9REUTF20OMGWRXYK787QVFOYDP","url":"https://gershmanlab.com/experiments/alicia/teaching/experiment/?hitId=3AQN9REUTF20OMGWRXYK787QVFOYDP&workerId=A1NVJB5O4H7ZCJ&assignmentId=3XM0HYN6NLLDTY0PN7INPISMQBQPEB&a=6HMX9&tp_a=6HMX9&b=3XM0HYN6NLLDTY0PN7INPISMQBQPEB&tp_b=3XM0HYN6NLLDTY0PN7INPISMQBQPEB&c=365799&tp_c=365799"},{"rt":null,"stimulus":"Examples sent to student! Waiting for student...","response":null,"trial_type":"html-keyboard-response","trial_index":76,"time_elapsed":1125497,"internal_node_id":"0.0-75.0","params":{"nStudents":24,"maxFlips":30,"completionMinutes":45,"basePay":8,"maxBonus":9,"perTrialBonus":0.5,"perTrialBonusThreshold":0.05,"exampleCost":0.01},"classroomParams":{"A":{"a":1,"b":4},"B":{"a":4,"b":1},"C":{"a":2,"b":8},"D":{"a":8,"b":2}},"conditions":["nonSeqFull","nonSeqPartial","seqNoFeedback","seqFeedback"],"classroomPairings":[["A","B"],["C","D"]],"coinWeights":[0.2,0.5,0.8],"subjectId":"A1NVJB5O4H7ZCJ","assignmentId":"3XM0HYN6NLLDTY0PN7INPISMQBQPEB","hitId":"3AQN9REUTF20OMGWRXYK787QVFOYDP","url":"https://gershmanlab.com/experiments/alicia/teaching/experiment/?hitId=3AQN9REUTF20OMGWRXYK787QVFOYDP&workerId=A1NVJB5O4H7ZCJ&assignmentId=3XM0HYN6NLLDTY0PN7INPISMQBQPEB&a=6HMX9&tp_a=6HMX9&b=3XM0HYN6NLLDTY0PN7INPISMQBQPEB&tp_b=3XM0HYN6NLLDTY0PN7INPISMQBQPEB&c=365799&tp_c=365799"},{"rt":6507,"stimulus":"\n                <p>Student 9's first guess for coin weight: <b style=\"color:Tomato\";>0.44</b></p>\n                <p>Student 9's second guess for coin weight: <b style=\"color:Tomato\";>0.36</b></p>\n                <p>You received a bonus of <b>$0.00</b> based on the student's second guess.</p>\n                <p>Total bonus so far: <b>$0.31</b></p>\n                <p>Press any key to continue.</p>\n                ","response":" ","trial_type":"html-keyboard-response","trial_index":77,"time_elapsed":1132006,"internal_node_id":"0.0-76.0","params":{"nStudents":24,"maxFlips":30,"completionMinutes":45,"basePay":8,"maxBonus":9,"perTrialBonus":0.5,"perTrialBonusThreshold":0.05,"exampleCost":0.01},"classroomParams":{"A":{"a":1,"b":4},"B":{"a":4,"b":1},"C":{"a":2,"b":8},"D":{"a":8,"b":2}},"conditions":["nonSeqFull","nonSeqPartial","seqNoFeedback","seqFeedback"],"classroomPairings":[["A","B"],["C","D"]],"coinWeights":[0.2,0.5,0.8],"subjectId":"A1NVJB5O4H7ZCJ","assignmentId":"3XM0HYN6NLLDTY0PN7INPISMQBQPEB","hitId":"3AQN9REUTF20OMGWRXYK787QVFOYDP","url":"https://gershmanlab.com/experiments/alicia/teaching/experiment/?hitId=3AQN9REUTF20OMGWRXYK787QVFOYDP&workerId=A1NVJB5O4H7ZCJ&assignmentId=3XM0HYN6NLLDTY0PN7INPISMQBQPEB&a=6HMX9&tp_a=6HMX9&b=3XM0HYN6NLLDTY0PN7INPISMQBQPEB&tp_b=3XM0HYN6NLLDTY0PN7INPISMQBQPEB&c=365799&tp_c=365799"},{"rt":null,"stimulus":"<div style=\"font-size:60px;\">Next student</div>","response":null,"trial_type":"html-keyboard-response","trial_index":78,"time_elapsed":1135023,"internal_node_id":"0.0-77.0-0.0","params":{"nStudents":24,"maxFlips":30,"completionMinutes":45,"basePay":8,"maxBonus":9,"perTrialBonus":0.5,"perTrialBonusThreshold":0.05,"exampleCost":0.01},"classroomParams":{"A":{"a":1,"b":4},"B":{"a":4,"b":1},"C":{"a":2,"b":8},"D":{"a":8,"b":2}},"conditions":["nonSeqFull","nonSeqPartial","seqNoFeedback","seqFeedback"],"classroomPairings":[["A","B"],["C","D"]],"coinWeights":[0.2,0.5,0.8],"subjectId":"A1NVJB5O4H7ZCJ","assignmentId":"3XM0HYN6NLLDTY0PN7INPISMQBQPEB","hitId":"3AQN9REUTF20OMGWRXYK787QVFOYDP","url":"https://gershmanlab.com/experiments/alicia/teaching/experiment/?hitId=3AQN9REUTF20OMGWRXYK787QVFOYDP&workerId=A1NVJB5O4H7ZCJ&assignmentId=3XM0HYN6NLLDTY0PN7INPISMQBQPEB&a=6HMX9&tp_a=6HMX9&b=3XM0HYN6NLLDTY0PN7INPISMQBQPEB&tp_b=3XM0HYN6NLLDTY0PN7INPISMQBQPEB&c=365799&tp_c=365799"},{"rt":3860,"stimulus":"\n            <h4 style=\"color:Orange;\">Student 10</h4>\n            <h2>The weight of your coin is <b style=\"color:Tomato;\">0.5</b>.</h2>\n            <p>In this block, you will be giving <b>one</b> set of examples to Student 10.</p>\n                <p>You will receive feedback at the end of the block.</p>\n            <p></p>","response":0,"trial_type":"html-button-response","trial_index":79,"time_elapsed":1138885,"internal_node_id":"0.0-78.0","params":{"nStudents":24,"maxFlips":30,"completionMinutes":45,"basePay":8,"maxBonus":9,"perTrialBonus":0.5,"perTrialBonusThreshold":0.05,"exampleCost":0.01},"classroomParams":{"A":{"a":1,"b":4},"B":{"a":4,"b":1},"C":{"a":2,"b":8},"D":{"a":8,"b":2}},"conditions":["nonSeqFull","nonSeqPartial","seqNoFeedback","seqFeedback"],"classroomPairings":[["A","B"],["C","D"]],"coinWeights":[0.2,0.5,0.8],"subjectId":"A1NVJB5O4H7ZCJ","assignmentId":"3XM0HYN6NLLDTY0PN7INPISMQBQPEB","hitId":"3AQN9REUTF20OMGWRXYK787QVFOYDP","url":"https://gershmanlab.com/experiments/alicia/teaching/experiment/?hitId=3AQN9REUTF20OMGWRXYK787QVFOYDP&workerId=A1NVJB5O4H7ZCJ&assignmentId=3XM0HYN6NLLDTY0PN7INPISMQBQPEB&a=6HMX9&tp_a=6HMX9&b=3XM0HYN6NLLDTY0PN7INPISMQBQPEB&tp_b=3XM0HYN6NLLDTY0PN7INPISMQBQPEB&c=365799&tp_c=365799"},{"rt":13192,"response":{"heads":"7","tails":"2"},"type":"response","condition":"nonSeqPartial","trueTheta":0.5,"classrooms":["C","D"],"studentTrueClassroom":"D","exampleSet":"first","trial_type":"survey-html-form","trial_index":80,"time_elapsed":1152078,"internal_node_id":"0.0-79.0-0.0","params":{"nStudents":24,"maxFlips":30,"completionMinutes":45,"basePay":8,"maxBonus":9,"perTrialBonus":0.5,"perTrialBonusThreshold":0.05,"exampleCost":0.01},"classroomParams":{"A":{"a":1,"b":4},"B":{"a":4,"b":1},"C":{"a":2,"b":8},"D":{"a":8,"b":2}},"conditions":["nonSeqFull","nonSeqPartial","seqNoFeedback","seqFeedback"],"classroomPairings":[["A","B"],["C","D"]],"coinWeights":[0.2,0.5,0.8],"subjectId":"A1NVJB5O4H7ZCJ","assignmentId":"3XM0HYN6NLLDTY0PN7INPISMQBQPEB","hitId":"3AQN9REUTF20OMGWRXYK787QVFOYDP","url":"https://gershmanlab.com/experiments/alicia/teaching/experiment/?hitId=3AQN9REUTF20OMGWRXYK787QVFOYDP&workerId=A1NVJB5O4H7ZCJ&assignmentId=3XM0HYN6NLLDTY0PN7INPISMQBQPEB&a=6HMX9&tp_a=6HMX9&b=3XM0HYN6NLLDTY0PN7INPISMQBQPEB&tp_b=3XM0HYN6NLLDTY0PN7INPISMQBQPEB&c=365799&tp_c=365799","heads":7,"tails":2,"studentIndex":9,"studentTrueHypers":{"a":8,"b":2},"studentGuess":0.7894736842105263,"delta":0.2894736842105263,"totalExamples":9,"bonus":0,"bonusSoFar":0.31},{"rt":null,"stimulus":"Sending examples to student... ","response":null,"trial_type":"html-keyboard-response","trial_index":81,"time_elapsed":1153830,"internal_node_id":"0.0-80.0","params":{"nStudents":24,"maxFlips":30,"completionMinutes":45,"basePay":8,"maxBonus":9,"perTrialBonus":0.5,"perTrialBonusThreshold":0.05,"exampleCost":0.01},"classroomParams":{"A":{"a":1,"b":4},"B":{"a":4,"b":1},"C":{"a":2,"b":8},"D":{"a":8,"b":2}},"conditions":["nonSeqFull","nonSeqPartial","seqNoFeedback","seqFeedback"],"classroomPairings":[["A","B"],["C","D"]],"coinWeights":[0.2,0.5,0.8],"subjectId":"A1NVJB5O4H7ZCJ","assignmentId":"3XM0HYN6NLLDTY0PN7INPISMQBQPEB","hitId":"3AQN9REUTF20OMGWRXYK787QVFOYDP","url":"https://gershmanlab.com/experiments/alicia/teaching/experiment/?hitId=3AQN9REUTF20OMGWRXYK787QVFOYDP&workerId=A1NVJB5O4H7ZCJ&assignmentId=3XM0HYN6NLLDTY0PN7INPISMQBQPEB&a=6HMX9&tp_a=6HMX9&b=3XM0HYN6NLLDTY0PN7INPISMQBQPEB&tp_b=3XM0HYN6NLLDTY0PN7INPISMQBQPEB&c=365799&tp_c=365799"},{"rt":null,"stimulus":"Examples sent to student! Waiting for student...","response":null,"trial_type":"html-keyboard-response","trial_index":82,"time_elapsed":1158346,"internal_node_id":"0.0-81.0","params":{"nStudents":24,"maxFlips":30,"completionMinutes":45,"basePay":8,"maxBonus":9,"perTrialBonus":0.5,"perTrialBonusThreshold":0.05,"exampleCost":0.01},"classroomParams":{"A":{"a":1,"b":4},"B":{"a":4,"b":1},"C":{"a":2,"b":8},"D":{"a":8,"b":2}},"conditions":["nonSeqFull","nonSeqPartial","seqNoFeedback","seqFeedback"],"classroomPairings":[["A","B"],["C","D"]],"coinWeights":[0.2,0.5,0.8],"subjectId":"A1NVJB5O4H7ZCJ","assignmentId":"3XM0HYN6NLLDTY0PN7INPISMQBQPEB","hitId":"3AQN9REUTF20OMGWRXYK787QVFOYDP","url":"https://gershmanlab.com/experiments/alicia/teaching/experiment/?hitId=3AQN9REUTF20OMGWRXYK787QVFOYDP&workerId=A1NVJB5O4H7ZCJ&assignmentId=3XM0HYN6NLLDTY0PN7INPISMQBQPEB&a=6HMX9&tp_a=6HMX9&b=3XM0HYN6NLLDTY0PN7INPISMQBQPEB&tp_b=3XM0HYN6NLLDTY0PN7INPISMQBQPEB&c=365799&tp_c=365799"},{"rt":2706,"stimulus":"\n                <p>Student's guess for coin weight: <b style=\"color:Tomato;\">0.79</b></p>\n                <p>You received a bonus of <b>$0</b>. Total bonus so far: <b>$0.31</b></b></p>\n                <p></p>\n                <p>Press any key to continue.</p>\n                ","response":" ","trial_type":"html-keyboard-response","trial_index":83,"time_elapsed":1161054,"internal_node_id":"0.0-82.0","params":{"nStudents":24,"maxFlips":30,"completionMinutes":45,"basePay":8,"maxBonus":9,"perTrialBonus":0.5,"perTrialBonusThreshold":0.05,"exampleCost":0.01},"classroomParams":{"A":{"a":1,"b":4},"B":{"a":4,"b":1},"C":{"a":2,"b":8},"D":{"a":8,"b":2}},"conditions":["nonSeqFull","nonSeqPartial","seqNoFeedback","seqFeedback"],"classroomPairings":[["A","B"],["C","D"]],"coinWeights":[0.2,0.5,0.8],"subjectId":"A1NVJB5O4H7ZCJ","assignmentId":"3XM0HYN6NLLDTY0PN7INPISMQBQPEB","hitId":"3AQN9REUTF20OMGWRXYK787QVFOYDP","url":"https://gershmanlab.com/experiments/alicia/teaching/experiment/?hitId=3AQN9REUTF20OMGWRXYK787QVFOYDP&workerId=A1NVJB5O4H7ZCJ&assignmentId=3XM0HYN6NLLDTY0PN7INPISMQBQPEB&a=6HMX9&tp_a=6HMX9&b=3XM0HYN6NLLDTY0PN7INPISMQBQPEB&tp_b=3XM0HYN6NLLDTY0PN7INPISMQBQPEB&c=365799&tp_c=365799"},{"rt":null,"stimulus":"<div style=\"font-size:60px;\">Next student</div>","response":null,"trial_type":"html-keyboard-response","trial_index":84,"time_elapsed":1163057,"internal_node_id":"0.0-83.0-0.0","params":{"nStudents":24,"maxFlips":30,"completionMinutes":45,"basePay":8,"maxBonus":9,"perTrialBonus":0.5,"perTrialBonusThreshold":0.05,"exampleCost":0.01},"classroomParams":{"A":{"a":1,"b":4},"B":{"a":4,"b":1},"C":{"a":2,"b":8},"D":{"a":8,"b":2}},"conditions":["nonSeqFull","nonSeqPartial","seqNoFeedback","seqFeedback"],"classroomPairings":[["A","B"],["C","D"]],"coinWeights":[0.2,0.5,0.8],"subjectId":"A1NVJB5O4H7ZCJ","assignmentId":"3XM0HYN6NLLDTY0PN7INPISMQBQPEB","hitId":"3AQN9REUTF20OMGWRXYK787QVFOYDP","url":"https://gershmanlab.com/experiments/alicia/teaching/experiment/?hitId=3AQN9REUTF20OMGWRXYK787QVFOYDP&workerId=A1NVJB5O4H7ZCJ&assignmentId=3XM0HYN6NLLDTY0PN7INPISMQBQPEB&a=6HMX9&tp_a=6HMX9&b=3XM0HYN6NLLDTY0PN7INPISMQBQPEB&tp_b=3XM0HYN6NLLDTY0PN7INPISMQBQPEB&c=365799&tp_c=365799"},{"rt":653946,"stimulus":"\n            <h4 style=\"color:Orange;\">Student 11</h4>\n            <h2>The weight of your coin is <b style=\"color:Tomato;\">0.8</b>.</h2>\n            <p>In this block, you will be giving <b>one</b> set of examples to Stu