[{"rt":2913,"stimulus":"Welcome to the experiment. Press any key to begin.","response":"s","trial_type":"html-keyboard-response","trial_index":0,"time_elapsed":2929,"internal_node_id":"0.0-0.0","params":{"nStudents":24,"maxFlips":30,"completionMinutes":45,"basePay":8,"maxBonus":9,"perTrialBonus":0.5,"perTrialBonusThreshold":0.05,"exampleCost":0.01},"classroomParams":{"A":{"a":1,"b":4},"B":{"a":4,"b":1},"C":{"a":2,"b":8},"D":{"a":8,"b":2}},"conditions":["nonSeqFull","nonSeqPartial","seqNoFeedback","seqFeedback"],"classroomPairings":[["A","B"],["C","D"]],"coinWeights":[0.2,0.5,0.8],"subjectId":"A1ODA3Q5H6HTDQ","assignmentId":"3U5JL4WY5LV0A55NKSGRA92YFL5X41","hitId":"3NI0WFPPI9246I5W92FX9A3E2GN605","url":"https://gershmanlab.com/experiments/alicia/teaching/experiment/?hitId=3NI0WFPPI9246I5W92FX9A3E2GN605&workerId=A1ODA3Q5H6HTDQ&assignmentId=3U5JL4WY5LV0A55NKSGRA92YFL5X41&a=YL5U9&tp_a=YL5U9&b=3U5JL4WY5LV0A55NKSGRA92YFL5X41&tp_b=3U5JL4WY5LV0A55NKSGRA92YFL5X41&c=365799&tp_c=365799"},{"rt":3227,"stimulus":"\n        <h3>Please read this consent agreement carefully before deciding whether to participate in this experiment.</h3>\n        <p><b>Purpose of the research:</b> To examine how people teach effectively.</p>\n        <p><b>What you will do in this research:</b> You will teach students the weights of different coins.</p>\n        <p><b>Time required:</b> This experiment will take 45 minutes to complete.</p>\n        <p><b>Risks:</b> There are no anticipated risks associated with participating in this study.             The effects of participating should be comparable to those you would experience from viewing a computer monitor             and using a mouse and keyboard for the duration of the experiment.</p>\n        <p><b>Benefits:</b> The study provides important information about the nature of teaching.</p>\n        <p><b>Compensation:</b> You will receive <b>$8</b> for completing the experiment and a performance bonus of up to <b>$9</b>.</p>\n        <p><b>Confidentiality:</b> Your participation in this study will remain confidential.             No personally identifiable information will be associated with your data.             Your de-identified data may be shared with other researchers and used in future projects.</p>\n        <p><b>Participation and withdrawal:</b> Your participation in this study is completely voluntary and             you may refuse to participate or you may choose to withdraw at any time without penalty or loss of\n            benefits to which you are otherwise entitled.</p>\n        <p><b>How to contact the researcher:</b> If you have questions or concerns about your participation            or payment, or want to request a summary of research findings, please contact\n            Alicia Chen, aliciachen@college.harvard.edu.</p>\n        <p><b>Whom to contact about your rights in this research:</b> For questions, concerns, suggestions,             or complaints that have not been or cannot be addressed by the researcher, or to report             research-related harm, please contact the Committee on the Use of Human Subjects in Research at Harvard University,             1414 Massachusetts Avenue, Second Floor, Cambridge, MA 02138. Phone: 617-496-2847. Email: cuhs@fas.harvard.edu.</p>\n        ","response":0,"trial_type":"html-button-response","trial_index":1,"time_elapsed":6157,"internal_node_id":"0.0-1.0","params":{"nStudents":24,"maxFlips":30,"completionMinutes":45,"basePay":8,"maxBonus":9,"perTrialBonus":0.5,"perTrialBonusThreshold":0.05,"exampleCost":0.01},"classroomParams":{"A":{"a":1,"b":4},"B":{"a":4,"b":1},"C":{"a":2,"b":8},"D":{"a":8,"b":2}},"conditions":["nonSeqFull","nonSeqPartial","seqNoFeedback","seqFeedback"],"classroomPairings":[["A","B"],["C","D"]],"coinWeights":[0.2,0.5,0.8],"subjectId":"A1ODA3Q5H6HTDQ","assignmentId":"3U5JL4WY5LV0A55NKSGRA92YFL5X41","hitId":"3NI0WFPPI9246I5W92FX9A3E2GN605","url":"https://gershmanlab.com/experiments/alicia/teaching/experiment/?hitId=3NI0WFPPI9246I5W92FX9A3E2GN605&workerId=A1ODA3Q5H6HTDQ&assignmentId=3U5JL4WY5LV0A55NKSGRA92YFL5X41&a=YL5U9&tp_a=YL5U9&b=3U5JL4WY5LV0A55NKSGRA92YFL5X41&tp_b=3U5JL4WY5LV0A55NKSGRA92YFL5X41&c=365799&tp_c=365799"},{"view_history":[{"page_index":0,"viewing_time":1952},{"page_index":1,"viewing_time":2247},{"page_index":2,"viewing_time":26462},{"page_index":3,"viewing_time":15029},{"page_index":4,"viewing_time":4044},{"page_index":5,"viewing_time":17727},{"page_index":6,"viewing_time":32534}],"rt":99995,"trial_type":"instructions","trial_index":2,"time_elapsed":106152,"internal_node_id":"0.0-2.0-0.0","params":{"nStudents":24,"maxFlips":30,"completionMinutes":45,"basePay":8,"maxBonus":9,"perTrialBonus":0.5,"perTrialBonusThreshold":0.05,"exampleCost":0.01},"classroomParams":{"A":{"a":1,"b":4},"B":{"a":4,"b":1},"C":{"a":2,"b":8},"D":{"a":8,"b":2}},"conditions":["nonSeqFull","nonSeqPartial","seqNoFeedback","seqFeedback"],"classroomPairings":[["A","B"],["C","D"]],"coinWeights":[0.2,0.5,0.8],"subjectId":"A1ODA3Q5H6HTDQ","assignmentId":"3U5JL4WY5LV0A55NKSGRA92YFL5X41","hitId":"3NI0WFPPI9246I5W92FX9A3E2GN605","url":"https://gershmanlab.com/experiments/alicia/teaching/experiment/?hitId=3NI0WFPPI9246I5W92FX9A3E2GN605&workerId=A1ODA3Q5H6HTDQ&assignmentId=3U5JL4WY5LV0A55NKSGRA92YFL5X41&a=YL5U9&tp_a=YL5U9&b=3U5JL4WY5LV0A55NKSGRA92YFL5X41&tp_b=3U5JL4WY5LV0A55NKSGRA92YFL5X41&c=365799&tp_c=365799"},{"rt":41450,"response":{"Q0":"Students in different classrooms will have seen a different number of heads and tails before seeing the examples you select for them.","Q1":"By <b>considering the student's classroom information</b> so that I can teach efficiently and accurately/helpfully at the same time (because each example I give to the student costs money!).","Q2":"The coin lands heads 90% of the time.","Q3":"Yes, I might encounter the same student twice.","Q4":"The students are also on the same alien planet as you, where coins can be unfair.","Q5":"Based on the student's second (and final) guess."},"question_order":[2,3,4,1,5,0],"trial_type":"survey-multi-choice","trial_index":3,"time_elapsed":147604,"internal_node_id":"0.0-2.0-1.0","params":{"nStudents":24,"maxFlips":30,"completionMinutes":45,"basePay":8,"maxBonus":9,"perTrialBonus":0.5,"perTrialBonusThreshold":0.05,"exampleCost":0.01},"classroomParams":{"A":{"a":1,"b":4},"B":{"a":4,"b":1},"C":{"a":2,"b":8},"D":{"a":8,"b":2}},"conditions":["nonSeqFull","nonSeqPartial","seqNoFeedback","seqFeedback"],"classroomPairings":[["A","B"],["C","D"]],"coinWeights":[0.2,0.5,0.8],"subjectId":"A1ODA3Q5H6HTDQ","assignmentId":"3U5JL4WY5LV0A55NKSGRA92YFL5X41","hitId":"3NI0WFPPI9246I5W92FX9A3E2GN605","url":"https://gershmanlab.com/experiments/alicia/teaching/experiment/?hitId=3NI0WFPPI9246I5W92FX9A3E2GN605&workerId=A1ODA3Q5H6HTDQ&assignmentId=3U5JL4WY5LV0A55NKSGRA92YFL5X41&a=YL5U9&tp_a=YL5U9&b=3U5JL4WY5LV0A55NKSGRA92YFL5X41&tp_b=3U5JL4WY5LV0A55NKSGRA92YFL5X41&c=365799&tp_c=365799","pass":false},{"rt":3462,"stimulus":"Oops, you have missed question(s) on the comprehension check! We'll show you the instructions again.","response":0,"trial_type":"html-button-response","trial_index":4,"time_elapsed":151072,"internal_node_id":"0.0-2.0-2.0-0.0","params":{"nStudents":24,"maxFlips":30,"completionMinutes":45,"basePay":8,"maxBonus":9,"perTrialBonus":0.5,"perTrialBonusThreshold":0.05,"exampleCost":0.01},"classroomParams":{"A":{"a":1,"b":4},"B":{"a":4,"b":1},"C":{"a":2,"b":8},"D":{"a":8,"b":2}},"conditions":["nonSeqFull","nonSeqPartial","seqNoFeedback","seqFeedback"],"classroomPairings":[["A","B"],["C","D"]],"coinWeights":[0.2,0.5,0.8],"subjectId":"A1ODA3Q5H6HTDQ","assignmentId":"3U5JL4WY5LV0A55NKSGRA92YFL5X41","hitId":"3NI0WFPPI9246I5W92FX9A3E2GN605","url":"https://gershmanlab.com/experiments/alicia/teaching/experiment/?hitId=3NI0WFPPI9246I5W92FX9A3E2GN605&workerId=A1ODA3Q5H6HTDQ&assignmentId=3U5JL4WY5LV0A55NKSGRA92YFL5X41&a=YL5U9&tp_a=YL5U9&b=3U5JL4WY5LV0A55NKSGRA92YFL5X41&tp_b=3U5JL4WY5LV0A55NKSGRA92YFL5X41&c=365799&tp_c=365799"},{"view_history":[{"page_index":0,"viewing_time":11551},{"page_index":1,"viewing_time":1311},{"page_index":0,"viewing_time":2751},{"page_index":1,"viewing_time":1615},{"page_index":2,"viewing_time":3941},{"page_index":3,"viewing_time":5849},{"page_index":4,"viewing_time":9508},{"page_index":5,"viewing_time":7106},{"page_index":6,"viewing_time":7992}],"rt":51624,"trial_type":"instructions","trial_index":5,"time_elapsed":202697,"internal_node_id":"0.0-2.1-0.1","params":{"nStudents":24,"maxFlips":30,"completionMinutes":45,"basePay":8,"maxBonus":9,"perTrialBonus":0.5,"perTrialBonusThreshold":0.05,"exampleCost":0.01},"classroomParams":{"A":{"a":1,"b":4},"B":{"a":4,"b":1},"C":{"a":2,"b":8},"D":{"a":8,"b":2}},"conditions":["nonSeqFull","nonSeqPartial","seqNoFeedback","seqFeedback"],"classroomPairings":[["A","B"],["C","D"]],"coinWeights":[0.2,0.5,0.8],"subjectId":"A1ODA3Q5H6HTDQ","assignmentId":"3U5JL4WY5LV0A55NKSGRA92YFL5X41","hitId":"3NI0WFPPI9246I5W92FX9A3E2GN605","url":"https://gershmanlab.com/experiments/alicia/teaching/experiment/?hitId=3NI0WFPPI9246I5W92FX9A3E2GN605&workerId=A1ODA3Q5H6HTDQ&assignmentId=3U5JL4WY5LV0A55NKSGRA92YFL5X41&a=YL5U9&tp_a=YL5U9&b=3U5JL4WY5LV0A55NKSGRA92YFL5X41&tp_b=3U5JL4WY5LV0A55NKSGRA92YFL5X41&c=365799&tp_c=365799"},{"rt":98844,"response":{"Q0":"Students in different classrooms have seen a different proportion of fair and unfair coins before seeing the examples you select for them.","Q1":"By <b>considering the student's classroom information</b> so that I can teach efficiently and accurately/helpfully at the same time (because each example I give to the student costs money!).","Q2":"The coin lands heads 90% of the time.","Q3":"Yes, I might encounter the same student twice.","Q4":"The students are also on the same alien planet as you, where coins can be unfair.","Q5":"Based on the student's second (and final) guess."},"question_order":[1,5,4,2,0,3],"trial_type":"survey-multi-choice","trial_index":6,"time_elapsed":301542,"internal_node_id":"0.0-2.1-1.1","params":{"nStudents":24,"maxFlips":30,"completionMinutes":45,"basePay":8,"maxBonus":9,"perTrialBonus":0.5,"perTrialBonusThreshold":0.05,"exampleCost":0.01},"classroomParams":{"A":{"a":1,"b":4},"B":{"a":4,"b":1},"C":{"a":2,"b":8},"D":{"a":8,"b":2}},"conditions":["nonSeqFull","nonSeqPartial","seqNoFeedback","seqFeedback"],"classroomPairings":[["A","B"],["C","D"]],"coinWeights":[0.2,0.5,0.8],"subjectId":"A1ODA3Q5H6HTDQ","assignmentId":"3U5JL4WY5LV0A55NKSGRA92YFL5X41","hitId":"3NI0WFPPI9246I5W92FX9A3E2GN605","url":"https://gershmanlab.com/experiments/alicia/teaching/experiment/?hitId=3NI0WFPPI9246I5W92FX9A3E2GN605&workerId=A1ODA3Q5H6HTDQ&assignmentId=3U5JL4WY5LV0A55NKSGRA92YFL5X41&a=YL5U9&tp_a=YL5U9&b=3U5JL4WY5LV0A55NKSGRA92YFL5X41&tp_b=3U5JL4WY5LV0A55NKSGRA92YFL5X41&c=365799&tp_c=365799","pass":false},{"rt":2657,"stimulus":"Oops, you have missed question(s) on the comprehension check! We'll show you the instructions again.","response":0,"trial_type":"html-button-response","trial_index":7,"time_elapsed":304205,"internal_node_id":"0.0-2.1-2.1-0.1","params":{"nStudents":24,"maxFlips":30,"completionMinutes":45,"basePay":8,"maxBonus":9,"perTrialBonus":0.5,"perTrialBonusThreshold":0.05,"exampleCost":0.01},"classroomParams":{"A":{"a":1,"b":4},"B":{"a":4,"b":1},"C":{"a":2,"b":8},"D":{"a":8,"b":2}},"conditions":["nonSeqFull","nonSeqPartial","seqNoFeedback","seqFeedback"],"classroomPairings":[["A","B"],["C","D"]],"coinWeights":[0.2,0.5,0.8],"subjectId":"A1ODA3Q5H6HTDQ","assignmentId":"3U5JL4WY5LV0A55NKSGRA92YFL5X41","hitId":"3NI0WFPPI9246I5W92FX9A3E2GN605","url":"https://gershmanlab.com/experiments/alicia/teaching/experiment/?hitId=3NI0WFPPI9246I5W92FX9A3E2GN605&workerId=A1ODA3Q5H6HTDQ&assignmentId=3U5JL4WY5LV0A55NKSGRA92YFL5X41&a=YL5U9&tp_a=YL5U9&b=3U5JL4WY5LV0A55NKSGRA92YFL5X41&tp_b=3U5JL4WY5LV0A55NKSGRA92YFL5X41&c=365799&tp_c=365799"},{"view_history":[{"page_index":0,"viewing_time":1221},{"page_index":1,"viewing_time":318},{"page_index":2,"viewing_time":897},{"page_index":3,"viewing_time":4733},{"page_index":4,"viewing_time":864},{"page_index":5,"viewing_time":725},{"page_index":6,"viewing_time":1023}],"rt":9781,"trial_type":"instructions","trial_index":8,"time_elapsed":313986,"internal_node_id":"0.0-2.2-0.2","params":{"nStudents":24,"maxFlips":30,"completionMinutes":45,"basePay":8,"maxBonus":9,"perTrialBonus":0.5,"perTrialBonusThreshold":0.05,"exampleCost":0.01},"classroomParams":{"A":{"a":1,"b":4},"B":{"a":4,"b":1},"C":{"a":2,"b":8},"D":{"a":8,"b":2}},"conditions":["nonSeqFull","nonSeqPartial","seqNoFeedback","seqFeedback"],"classroomPairings":[["A","B"],["C","D"]],"coinWeights":[0.2,0.5,0.8],"subjectId":"A1ODA3Q5H6HTDQ","assignmentId":"3U5JL4WY5LV0A55NKSGRA92YFL5X41","hitId":"3NI0WFPPI9246I5W92FX9A3E2GN605","url":"https://gershmanlab.com/experiments/alicia/teaching/experiment/?hitId=3NI0WFPPI9246I5W92FX9A3E2GN605&workerId=A1ODA3Q5H6HTDQ&assignmentId=3U5JL4WY5LV0A55NKSGRA92YFL5X41&a=YL5U9&tp_a=YL5U9&b=3U5JL4WY5LV0A55NKSGRA92YFL5X41&tp_b=3U5JL4WY5LV0A55NKSGRA92YFL5X41&c=365799&tp_c=365799"},{"rt":66174,"response":{"Q0":"Students in different classrooms will have seen a different number of heads and tails before seeing the examples you select for them.","Q1":"By <b>considering the student's classroom information</b> so that I can teach efficiently and accurately/helpfully at the same time (because each example I give to the student costs money!).","Q2":"The coin lands heads 90% of the time.","Q3":"No, I will teach a <b>new</b> student each time.","Q4":"The students are also on the same alien planet as you, where coins can be unfair.","Q5":"Based on the student's second (and final) guess."},"question_order":[1,0,4,3,2,5],"trial_type":"survey-multi-choice","trial_index":9,"time_elapsed":380161,"internal_node_id":"0.0-2.2-1.2","params":{"nStudents":24,"maxFlips":30,"completionMinutes":45,"basePay":8,"maxBonus":9,"perTrialBonus":0.5,"perTrialBonusThreshold":0.05,"exampleCost":0.01},"classroomParams":{"A":{"a":1,"b":4},"B":{"a":4,"b":1},"C":{"a":2,"b":8},"D":{"a":8,"b":2}},"conditions":["nonSeqFull","nonSeqPartial","seqNoFeedback","seqFeedback"],"classroomPairings":[["A","B"],["C","D"]],"coinWeights":[0.2,0.5,0.8],"subjectId":"A1ODA3Q5H6HTDQ","assignmentId":"3U5JL4WY5LV0A55NKSGRA92YFL5X41","hitId":"3NI0WFPPI9246I5W92FX9A3E2GN605","url":"https://gershmanlab.com/experiments/alicia/teaching/experiment/?hitId=3NI0WFPPI9246I5W92FX9A3E2GN605&workerId=A1ODA3Q5H6HTDQ&assignmentId=3U5JL4WY5LV0A55NKSGRA92YFL5X41&a=YL5U9&tp_a=YL5U9&b=3U5JL4WY5LV0A55NKSGRA92YFL5X41&tp_b=3U5JL4WY5LV0A55NKSGRA92YFL5X41&c=365799&tp_c=365799","pass":true},{"rt":null,"stimulus":"<div style=\"font-size:30px;\">Congrats on passing the comprehension quiz! The experiment will begin in a few seconds.</div>","response":null,"trial_type":"html-keyboard-response","trial_index":10,"time_elapsed":383168,"internal_node_id":"0.0-3.0","params":{"nStudents":24,"maxFlips":30,"completionMinutes":45,"basePay":8,"maxBonus":9,"perTrialBonus":0.5,"perTrialBonusThreshold":0.05,"exampleCost":0.01},"classroomParams":{"A":{"a":1,"b":4},"B":{"a":4,"b":1},"C":{"a":2,"b":8},"D":{"a":8,"b":2}},"conditions":["nonSeqFull","nonSeqPartial","seqNoFeedback","seqFeedback"],"classroomPairings":[["A","B"],["C","D"]],"coinWeights":[0.2,0.5,0.8],"subjectId":"A1ODA3Q5H6HTDQ","assignmentId":"3U5JL4WY5LV0A55NKSGRA92YFL5X41","hitId":"3NI0WFPPI9246I5W92FX9A3E2GN605","url":"https://gershmanlab.com/experiments/alicia/teaching/experiment/?hitId=3NI0WFPPI9246I5W92FX9A3E2GN605&workerId=A1ODA3Q5H6HTDQ&assignmentId=3U5JL4WY5LV0A55NKSGRA92YFL5X41&a=YL5U9&tp_a=YL5U9&b=3U5JL4WY5LV0A55NKSGRA92YFL5X41&tp_b=3U5JL4WY5LV0A55NKSGRA92YFL5X41&c=365799&tp_c=365799"},{"rt":null,"stimulus":"<div style=\"font-size:50px;\">First student</div>","response":null,"trial_type":"html-keyboard-response","trial_index":11,"time_elapsed":386184,"internal_node_id":"0.0-4.0","params":{"nStudents":24,"maxFlips":30,"completionMinutes":45,"basePay":8,"maxBonus":9,"perTrialBonus":0.5,"perTrialBonusThreshold":0.05,"exampleCost":0.01},"classroomParams":{"A":{"a":1,"b":4},"B":{"a":4,"b":1},"C":{"a":2,"b":8},"D":{"a":8,"b":2}},"conditions":["nonSeqFull","nonSeqPartial","seqNoFeedback","seqFeedback"],"classroomPairings":[["A","B"],["C","D"]],"coinWeights":[0.2,0.5,0.8],"subjectId":"A1ODA3Q5H6HTDQ","assignmentId":"3U5JL4WY5LV0A55NKSGRA92YFL5X41","hitId":"3NI0WFPPI9246I5W92FX9A3E2GN605","url":"https://gershmanlab.com/experiments/alicia/teaching/experiment/?hitId=3NI0WFPPI9246I5W92FX9A3E2GN605&workerId=A1ODA3Q5H6HTDQ&assignmentId=3U5JL4WY5LV0A55NKSGRA92YFL5X41&a=YL5U9&tp_a=YL5U9&b=3U5JL4WY5LV0A55NKSGRA92YFL5X41&tp_b=3U5JL4WY5LV0A55NKSGRA92YFL5X41&c=365799&tp_c=365799"},{"rt":5588,"stimulus":"\n            <h4 style=\"color:Orange;\">Student 1</h4>\n            <h2>The weight of your coin is <b style=\"color:Tomato;\">0.2</b>.</h2>\n            <p>In this block, you will be giving <b>two</b> sets of examples to Student 1.</p>\n                <p>You will see the student's guess after the first set of examples. You will also receive feedback at the end of the block.</p>\n            <p>To earn the highest bonus, you will have to <b>take into consideration the student's guess</b> when you choose your second set of examples.</p>","response":0,"trial_type":"html-button-response","trial_index":12,"time_elapsed":391772,"internal_node_id":"0.0-5.0","params":{"nStudents":24,"maxFlips":30,"completionMinutes":45,"basePay":8,"maxBonus":9,"perTrialBonus":0.5,"perTrialBonusThreshold":0.05,"exampleCost":0.01},"classroomParams":{"A":{"a":1,"b":4},"B":{"a":4,"b":1},"C":{"a":2,"b":8},"D":{"a":8,"b":2}},"conditions":["nonSeqFull","nonSeqPartial","seqNoFeedback","seqFeedback"],"classroomPairings":[["A","B"],["C","D"]],"coinWeights":[0.2,0.5,0.8],"subjectId":"A1ODA3Q5H6HTDQ","assignmentId":"3U5JL4WY5LV0A55NKSGRA92YFL5X41","hitId":"3NI0WFPPI9246I5W92FX9A3E2GN605","url":"https://gershmanlab.com/experiments/alicia/teaching/experiment/?hitId=3NI0WFPPI9246I5W92FX9A3E2GN605&workerId=A1ODA3Q5H6HTDQ&assignmentId=3U5JL4WY5LV0A55NKSGRA92YFL5X41&a=YL5U9&tp_a=YL5U9&b=3U5JL4WY5LV0A55NKSGRA92YFL5X41&tp_b=3U5JL4WY5LV0A55NKSGRA92YFL5X41&c=365799&tp_c=365799"},{"rt":25700,"response":{"heads":"2","tails":"8"},"type":"response","condition":"seqFeedback","trueTheta":0.2,"classrooms":["C","D"],"studentTrueClassroom":"D","exampleSet":"first","trial_type":"survey-html-form","trial_index":13,"time_elapsed":417474,"internal_node_id":"0.0-6.0-0.0","params":{"nStudents":24,"maxFlips":30,"completionMinutes":45,"basePay":8,"maxBonus":9,"perTrialBonus":0.5,"perTrialBonusThreshold":0.05,"exampleCost":0.01},"classroomParams":{"A":{"a":1,"b":4},"B":{"a":4,"b":1},"C":{"a":2,"b":8},"D":{"a":8,"b":2}},"conditions":["nonSeqFull","nonSeqPartial","seqNoFeedback","seqFeedback"],"classroomPairings":[["A","B"],["C","D"]],"coinWeights":[0.2,0.5,0.8],"subjectId":"A1ODA3Q5H6HTDQ","assignmentId":"3U5JL4WY5LV0A55NKSGRA92YFL5X41","hitId":"3NI0WFPPI9246I5W92FX9A3E2GN605","url":"https://gershmanlab.com/experiments/alicia/teaching/experiment/?hitId=3NI0WFPPI9246I5W92FX9A3E2GN605&workerId=A1ODA3Q5H6HTDQ&assignmentId=3U5JL4WY5LV0A55NKSGRA92YFL5X41&a=YL5U9&tp_a=YL5U9&b=3U5JL4WY5LV0A55NKSGRA92YFL5X41&tp_b=3U5JL4WY5LV0A55NKSGRA92YFL5X41&c=365799&tp_c=365799","heads":2,"tails":8,"studentIndex":0,"studentTrueHypers":{"a":8,"b":2},"studentGuess":0.5,"delta":0.3,"totalExamples":10,"bonusSoFar":0},{"rt":null,"stimulus":"Sending examples to student... ","response":null,"trial_type":"html-keyboard-response","trial_index":14,"time_elapsed":418734,"internal_node_id":"0.0-7.0","params":{"nStudents":24,"maxFlips":30,"completionMinutes":45,"basePay":8,"maxBonus":9,"perTrialBonus":0.5,"perTrialBonusThreshold":0.05,"exampleCost":0.01},"classroomParams":{"A":{"a":1,"b":4},"B":{"a":4,"b":1},"C":{"a":2,"b":8},"D":{"a":8,"b":2}},"conditions":["nonSeqFull","nonSeqPartial","seqNoFeedback","seqFeedback"],"classroomPairings":[["A","B"],["C","D"]],"coinWeights":[0.2,0.5,0.8],"subjectId":"A1ODA3Q5H6HTDQ","assignmentId":"3U5JL4WY5LV0A55NKSGRA92YFL5X41","hitId":"3NI0WFPPI9246I5W92FX9A3E2GN605","url":"https://gershmanlab.com/experiments/alicia/teaching/experiment/?hitId=3NI0WFPPI9246I5W92FX9A3E2GN605&workerId=A1ODA3Q5H6HTDQ&assignmentId=3U5JL4WY5LV0A55NKSGRA92YFL5X41&a=YL5U9&tp_a=YL5U9&b=3U5JL4WY5LV0A55NKSGRA92YFL5X41&tp_b=3U5JL4WY5LV0A55NKSGRA92YFL5X41&c=365799&tp_c=365799"},{"rt":null,"stimulus":"Examples sent to student! Waiting for student...","response":null,"trial_type":"html-keyboard-response","trial_index":15,"time_elapsed":423234,"internal_node_id":"0.0-8.0","params":{"nStudents":24,"maxFlips":30,"completionMinutes":45,"basePay":8,"maxBonus":9,"perTrialBonus":0.5,"perTrialBonusThreshold":0.05,"exampleCost":0.01},"classroomParams":{"A":{"a":1,"b":4},"B":{"a":4,"b":1},"C":{"a":2,"b":8},"D":{"a":8,"b":2}},"conditions":["nonSeqFull","nonSeqPartial","seqNoFeedback","seqFeedback"],"classroomPairings":[["A","B"],["C","D"]],"coinWeights":[0.2,0.5,0.8],"subjectId":"A1ODA3Q5H6HTDQ","assignmentId":"3U5JL4WY5LV0A55NKSGRA92YFL5X41","hitId":"3NI0WFPPI9246I5W92FX9A3E2GN605","url":"https://gershmanlab.com/experiments/alicia/teaching/experiment/?hitId=3NI0WFPPI9246I5W92FX9A3E2GN605&workerId=A1ODA3Q5H6HTDQ&assignmentId=3U5JL4WY5LV0A55NKSGRA92YFL5X41&a=YL5U9&tp_a=YL5U9&b=3U5JL4WY5LV0A55NKSGRA92YFL5X41&tp_b=3U5JL4WY5LV0A55NKSGRA92YFL5X41&c=365799&tp_c=365799"},{"rt":5221,"stimulus":"\n                <p>Student's guess for coin weight: <b style=\"color:Tomato;\">0.50</b></p>\n                <p></b></p>\n                <p>You will now send another set of examples to your student. <b>Remember to take your student's guess into consideration so that you can earn the highest bonus possible!</b> </p>\n                <p>Press any key to continue.</p>\n                ","response":"f","trial_type":"html-keyboard-response","trial_index":16,"time_elapsed":428456,"internal_node_id":"0.0-9.0","params":{"nStudents":24,"maxFlips":30,"completionMinutes":45,"basePay":8,"maxBonus":9,"perTrialBonus":0.5,"perTrialBonusThreshold":0.05,"exampleCost":0.01},"classroomParams":{"A":{"a":1,"b":4},"B":{"a":4,"b":1},"C":{"a":2,"b":8},"D":{"a":8,"b":2}},"conditions":["nonSeqFull","nonSeqPartial","seqNoFeedback","seqFeedback"],"classroomPairings":[["A","B"],["C","D"]],"coinWeights":[0.2,0.5,0.8],"subjectId":"A1ODA3Q5H6HTDQ","assignmentId":"3U5JL4WY5LV0A55NKSGRA92YFL5X41","hitId":"3NI0WFPPI9246I5W92FX9A3E2GN605","url":"https://gershmanlab.com/experiments/alicia/teaching/experiment/?hitId=3NI0WFPPI9246I5W92FX9A3E2GN605&workerId=A1ODA3Q5H6HTDQ&assignmentId=3U5JL4WY5LV0A55NKSGRA92YFL5X41&a=YL5U9&tp_a=YL5U9&b=3U5JL4WY5LV0A55NKSGRA92YFL5X41&tp_b=3U5JL4WY5LV0A55NKSGRA92YFL5X41&c=365799&tp_c=365799"},{"rt":12622,"response":{"heads":"2","tails":"8"},"type":"response","condition":"seqFeedback","trueTheta":0.2,"classrooms":["C","D"],"studentTrueClassroom":"D","exampleSet":"second","trial_type":"survey-html-form","trial_index":17,"time_elapsed":441079,"internal_node_id":"0.0-10.0-0.0","params":{"nStudents":24,"maxFlips":30,"completionMinutes":45,"basePay":8,"maxBonus":9,"perTrialBonus":0.5,"perTrialBonusThreshold":0.05,"exampleCost":0.01},"classroomParams":{"A":{"a":1,"b":4},"B":{"a":4,"b":1},"C":{"a":2,"b":8},"D":{"a":8,"b":2}},"conditions":["nonSeqFull","nonSeqPartial","seqNoFeedback","seqFeedback"],"classroomPairings":[["A","B"],["C","D"]],"coinWeights":[0.2,0.5,0.8],"subjectId":"A1ODA3Q5H6HTDQ","assignmentId":"3U5JL4WY5LV0A55NKSGRA92YFL5X41","hitId":"3NI0WFPPI9246I5W92FX9A3E2GN605","url":"https://gershmanlab.com/experiments/alicia/teaching/experiment/?hitId=3NI0WFPPI9246I5W92FX9A3E2GN605&workerId=A1ODA3Q5H6HTDQ&assignmentId=3U5JL4WY5LV0A55NKSGRA92YFL5X41&a=YL5U9&tp_a=YL5U9&b=3U5JL4WY5LV0A55NKSGRA92YFL5X41&tp_b=3U5JL4WY5LV0A55NKSGRA92YFL5X41&c=365799&tp_c=365799","firstResponseHeads":2,"firstResponseTails":8,"secondResponseHeads":2,"secondResponseTails":8,"totalHeads":4,"totalTails":16,"studentIndex":0,"studentTrueHypers":{"a":8,"b":2},"studentGuess":0.4,"delta":0.2,"bonus":0,"bonusSoFar":0,"totalExamples":20},{"rt":null,"stimulus":"Sending examples to student... ","response":null,"trial_type":"html-keyboard-response","trial_index":18,"time_elapsed":442580,"internal_node_id":"0.0-11.0","params":{"nStudents":24,"maxFlips":30,"completionMinutes":45,"basePay":8,"maxBonus":9,"perTrialBonus":0.5,"perTrialBonusThreshold":0.05,"exampleCost":0.01},"classroomParams":{"A":{"a":1,"b":4},"B":{"a":4,"b":1},"C":{"a":2,"b":8},"D":{"a":8,"b":2}},"conditions":["nonSeqFull","nonSeqPartial","seqNoFeedback","seqFeedback"],"classroomPairings":[["A","B"],["C","D"]],"coinWeights":[0.2,0.5,0.8],"subjectId":"A1ODA3Q5H6HTDQ","assignmentId":"3U5JL4WY5LV0A55NKSGRA92YFL5X41","hitId":"3NI0WFPPI9246I5W92FX9A3E2GN605","url":"https://gershmanlab.com/experiments/alicia/teaching/experiment/?hitId=3NI0WFPPI9246I5W92FX9A3E2GN605&workerId=A1ODA3Q5H6HTDQ&assignmentId=3U5JL4WY5LV0A55NKSGRA92YFL5X41&a=YL5U9&tp_a=YL5U9&b=3U5JL4WY5LV0A55NKSGRA92YFL5X41&tp_b=3U5JL4WY5LV0A55NKSGRA92YFL5X41&c=365799&tp_c=365799"},{"rt":null,"stimulus":"Examples sent to student! Waiting for student...","response":null,"trial_type":"html-keyboard-response","trial_index":19,"time_elapsed":448590,"internal_node_id":"0.0-12.0","params":{"nStudents":24,"maxFlips":30,"completionMinutes":45,"basePay":8,"maxBonus":9,"perTrialBonus":0.5,"perTrialBonusThreshold":0.05,"exampleCost":0.01},"classroomParams":{"A":{"a":1,"b":4},"B":{"a":4,"b":1},"C":{"a":2,"b":8},"D":{"a":8,"b":2}},"conditions":["nonSeqFull","nonSeqPartial","seqNoFeedback","seqFeedback"],"classroomPairings":[["A","B"],["C","D"]],"coinWeights":[0.2,0.5,0.8],"subjectId":"A1ODA3Q5H6HTDQ","assignmentId":"3U5JL4WY5LV0A55NKSGRA92YFL5X41","hitId":"3NI0WFPPI9246I5W92FX9A3E2GN605","url":"https://gershmanlab.com/experiments/alicia/teaching/experiment/?hitId=3NI0WFPPI9246I5W92FX9A3E2GN605&workerId=A1ODA3Q5H6HTDQ&assignmentId=3U5JL4WY5LV0A55NKSGRA92YFL5X41&a=YL5U9&tp_a=YL5U9&b=3U5JL4WY5LV0A55NKSGRA92YFL5X41&tp_b=3U5JL4WY5LV0A55NKSGRA92YFL5X41&c=365799&tp_c=365799"},{"rt":2371,"stimulus":"\n                <p>Student 1's first guess for coin weight: <b style=\"color:Tomato\";>0.50</b></p>\n                <p>Student 1's second guess for coin weight: <b style=\"color:Tomato\";>0.40</b></p>\n                <p>You received a bonus of <b>$0.00</b> based on the student's second guess.</p>\n                <p>Total bonus so far: <b>$0.00</b></p>\n                <p>Press any key to continue.</p>\n                ","response":"d","trial_type":"html-keyboard-response","trial_index":20,"time_elapsed":450962,"internal_node_id":"0.0-13.0","params":{"nStudents":24,"maxFlips":30,"completionMinutes":45,"basePay":8,"maxBonus":9,"perTrialBonus":0.5,"perTrialBonusThreshold":0.05,"exampleCost":0.01},"classroomParams":{"A":{"a":1,"b":4},"B":{"a":4,"b":1},"C":{"a":2,"b":8},"D":{"a":8,"b":2}},"conditions":["nonSeqFull","nonSeqPartial","seqNoFeedback","seqFeedback"],"classroomPairings":[["A","B"],["C","D"]],"coinWeights":[0.2,0.5,0.8],"subjectId":"A1ODA3Q5H6HTDQ","assignmentId":"3U5JL4WY5LV0A55NKSGRA92YFL5X41","hitId":"3NI0WFPPI9246I5W92FX9A3E2GN605","url":"https://gershmanlab.com/experiments/alicia/teaching/experiment/?hitId=3NI0WFPPI9246I5W92FX9A3E2GN605&workerId=A1ODA3Q5H6HTDQ&assignmentId=3U5JL4WY5LV0A55NKSGRA92YFL5X41&a=YL5U9&tp_a=YL5U9&b=3U5JL4WY5LV0A55NKSGRA92YFL5X41&tp_b=3U5JL4WY5LV0A55NKSGRA92YFL5X41&c=365799&tp_c=365799"},{"rt":null,"stimulus":"<div style=\"font-size:60px;\">Next student</div>","response":null,"trial_type":"html-keyboard-response","trial_index":21,"time_elapsed":452966,"internal_node_id":"0.0-14.0-0.0","params":{"nStudents":24,"maxFlips":30,"completionMinutes":45,"basePay":8,"maxBonus":9,"perTrialBonus":0.5,"perTrialBonusThreshold":0.05,"exampleCost":0.01},"classroomParams":{"A":{"a":1,"b":4},"B":{"a":4,"b":1},"C":{"a":2,"b":8},"D":{"a":8,"b":2}},"conditions":["nonSeqFull","nonSeqPartial","seqNoFeedback","seqFeedback"],"classroomPairings":[["A","B"],["C","D"]],"coinWeights":[0.2,0.5,0.8],"subjectId":"A1ODA3Q5H6HTDQ","assignmentId":"3U5JL4WY5LV0A55NKSGRA92YFL5X41","hitId":"3NI0WFPPI9246I5W92FX9A3E2GN605","url":"https://gershmanlab.com/experiments/alicia/teaching/experiment/?hitId=3NI0WFPPI9246I5W92FX9A3E2GN605&workerId=A1ODA3Q5H6HTDQ&assignmentId=3U5JL4WY5LV0A55NKSGRA92YFL5X41&a=YL5U9&tp_a=YL5U9&b=3U5JL4WY5LV0A55NKSGRA92YFL5X41&tp_b=3U5JL4WY5LV0A55NKSGRA92YFL5X41&c=365799&tp_c=365799"},{"rt":1929,"stimulus":"\n            <h4 style=\"color:Orange;\">Student 2</h4>\n            <h2>The weight of your coin is <b style=\"color:Tomato;\">0.8</b>.</h2>\n            <p>In this block, you will be giving <b>two</b> sets of examples to Student 2.</p>\n                <p>You will see the student's guess after the first set of examples. You will also receive feedback at the end of the block.</p>\n            <p>To earn the highest bonus, you will have to <b>take into consideration the student's guess</b> when you choose your second set of examples.</p>","response":0,"trial_type":"html-button-response","trial_index":22,"time_elapsed":454896,"internal_node_id":"0.0-15.0","params":{"nStudents":24,"maxFlips":30,"completionMinutes":45,"basePay":8,"maxBonus":9,"perTrialBonus":0.5,"perTrialBonusThreshold":0.05,"exampleCost":0.01},"classroomParams":{"A":{"a":1,"b":4},"B":{"a":4,"b":1},"C":{"a":2,"b":8},"D":{"a":8,"b":2}},"conditions":["nonSeqFull","nonSeqPartial","seqNoFeedback","seqFeedback"],"classroomPairings":[["A","B"],["C","D"]],"coinWeights":[0.2,0.5,0.8],"subjectId":"A1ODA3Q5H6HTDQ","assignmentId":"3U5JL4WY5LV0A55NKSGRA92YFL5X41","hitId":"3NI0WFPPI9246I5W92FX9A3E2GN605","url":"https://gershmanlab.com/experiments/alicia/teaching/experiment/?hitId=3NI0WFPPI9246I5W92FX9A3E2GN605&workerId=A1ODA3Q5H6HTDQ&assignmentId=3U5JL4WY5LV0A55NKSGRA92YFL5X41&a=YL5U9&tp_a=YL5U9&b=3U5JL4WY5LV0A55NKSGRA92YFL5X41&tp_b=3U5JL4WY5LV0A55NKSGRA92YFL5X41&c=365799&tp_c=365799"},{"rt":7422,"response":{"heads":"4","tails":"1"},"type":"response","condition":"seqFeedback","trueTheta":0.8,"classrooms":["A","B"],"studentTrueClassroom":"B","exampleSet":"first","trial_type":"survey-html-form","trial_index":23,"time_elapsed":462319,"internal_node_id":"0.0-16.0-0.0","params":{"nStudents":24,"maxFlips":30,"completionMinutes":45,"basePay":8,"maxBonus":9,"perTrialBonus":0.5,"perTrialBonusThreshold":0.05,"exampleCost":0.01},"classroomParams":{"A":{"a":1,"b":4},"B":{"a":4,"b":1},"C":{"a":2,"b":8},"D":{"a":8,"b":2}},"conditions":["nonSeqFull","nonSeqPartial","seqNoFeedback","seqFeedback"],"classroomPairings":[["A","B"],["C","D"]],"coinWeights":[0.2,0.5,0.8],"subjectId":"A1ODA3Q5H6HTDQ","assignmentId":"3U5JL4WY5LV0A55NKSGRA92YFL5X41","hitId":"3NI0WFPPI9246I5W92FX9A3E2GN605","url":"https://gershmanlab.com/experiments/alicia/teaching/experiment/?hitId=3NI0WFPPI9246I5W92FX9A3E2GN605&workerId=A1ODA3Q5H6HTDQ&assignmentId=3U5JL4WY5LV0A55NKSGRA92YFL5X41&a=YL5U9&tp_a=YL5U9&b=3U5JL4WY5LV0A55NKSGRA92YFL5X41&tp_b=3U5JL4WY5LV0A55NKSGRA92YFL5X41&c=365799&tp_c=365799","heads":4,"tails":1,"studentIndex":1,"studentTrueHypers":{"a":4,"b":1},"studentGuess":0.8,"delta":0,"totalExamples":5,"bonusSoFar":0},{"rt":null,"stimulus":"Sending examples to student... ","response":null,"trial_type":"html-keyboard-response","trial_index":24,"time_elapsed":464320,"internal_node_id":"0.0-17.0","params":{"nStudents":24,"maxFlips":30,"completionMinutes":45,"basePay":8,"maxBonus":9,"perTrialBonus":0.5,"perTrialBonusThreshold":0.05,"exampleCost":0.01},"classroomParams":{"A":{"a":1,"b":4},"B":{"a":4,"b":1},"C":{"a":2,"b":8},"D":{"a":8,"b":2}},"conditions":["nonSeqFull","nonSeqPartial","seqNoFeedback","seqFeedback"],"classroomPairings":[["A","B"],["C","D"]],"coinWeights":[0.2,0.5,0.8],"subjectId":"A1ODA3Q5H6HTDQ","assignmentId":"3U5JL4WY5LV0A55NKSGRA92YFL5X41","hitId":"3NI0WFPPI9246I5W92FX9A3E2GN605","url":"https://gershmanlab.com/experiments/alicia/teaching/experiment/?hitId=3NI0WFPPI9246I5W92FX9A3E2GN605&workerId=A1ODA3Q5H6HTDQ&assignmentId=3U5JL4WY5LV0A55NKSGRA92YFL5X41&a=YL5U9&tp_a=YL5U9&b=3U5JL4WY5LV0A55NKSGRA92YFL5X41&tp_b=3U5JL4WY5LV0A55NKSGRA92YFL5X41&c=365799&tp_c=365799"},{"rt":null,"stimulus":"Examples sent to student! Waiting for student...","response":null,"trial_type":"html-keyboard-response","trial_index":25,"time_elapsed":469326,"internal_node_id":"0.0-18.0","params":{"nStudents":24,"maxFlips":30,"completionMinutes":45,"basePay":8,"maxBonus":9,"perTrialBonus":0.5,"perTrialBonusThreshold":0.05,"exampleCost":0.01},"classroomParams":{"A":{"a":1,"b":4},"B":{"a":4,"b":1},"C":{"a":2,"b":8},"D":{"a":8,"b":2}},"conditions":["nonSeqFull","nonSeqPartial","seqNoFeedback","seqFeedback"],"classroomPairings":[["A","B"],["C","D"]],"coinWeights":[0.2,0.5,0.8],"subjectId":"A1ODA3Q5H6HTDQ","assignmentId":"3U5JL4WY5LV0A55NKSGRA92YFL5X41","hitId":"3NI0WFPPI9246I5W92FX9A3E2GN605","url":"https://gershmanlab.com/experiments/alicia/teaching/experiment/?hitId=3NI0WFPPI9246I5W92FX9A3E2GN605&workerId=A1ODA3Q5H6HTDQ&assignmentId=3U5JL4WY5LV0A55NKSGRA92YFL5X41&a=YL5U9&tp_a=YL5U9&b=3U5JL4WY5LV0A55NKSGRA92YFL5X41&tp_b=3U5JL4WY5LV0A55NKSGRA92YFL5X41&c=365799&tp_c=365799"},{"rt":2082,"stimulus":"\n                <p>Student's guess for coin weight: <b style=\"color:Tomato;\">0.80</b></p>\n                <p></b></p>\n                <p>You will now send another set of examples to your student. <b>Remember to take your student's guess into consideration so that you can earn the highest bonus possible!</b> </p>\n                <p>Press any key to continue.</p>\n                ","response":"d","trial_type":"html-keyboard-response","trial_index":26,"time_elapsed":471408,"internal_node_id":"0.0-19.0","params":{"nStudents":24,"maxFlips":30,"completionMinutes":45,"basePay":8,"maxBonus":9,"perTrialBonus":0.5,"perTrialBonusThreshold":0.05,"exampleCost":0.01},"classroomParams":{"A":{"a":1,"b":4},"B":{"a":4,"b":1},"C":{"a":2,"b":8},"D":{"a":8,"b":2}},"conditions":["nonSeqFull","nonSeqPartial","seqNoFeedback","seqFeedback"],"classroomPairings":[["A","B"],["C","D"]],"coinWeights":[0.2,0.5,0.8],"subjectId":"A1ODA3Q5H6HTDQ","assignmentId":"3U5JL4WY5LV0A55NKSGRA92YFL5X41","hitId":"3NI0WFPPI9246I5W92FX9A3E2GN605","url":"https://gershmanlab.com/experiments/alicia/teaching/experiment/?hitId=3NI0WFPPI9246I5W92FX9A3E2GN605&workerId=A1ODA3Q5H6HTDQ&assignmentId=3U5JL4WY5LV0A55NKSGRA92YFL5X41&a=YL5U9&tp_a=YL5U9&b=3U5JL4WY5LV0A55NKSGRA92YFL5X41&tp_b=3U5JL4WY5LV0A55NKSGRA92YFL5X41&c=365799&tp_c=365799"},{"rt":7618,"response":{"heads":"2","tails":"1"},"type":"response","condition":"seqFeedback","trueTheta":0.8,"classrooms":["A","B"],"studentTrueClassroom":"B","exampleSet":"second","trial_type":"survey-html-form","trial_index":27,"time_elapsed":479027,"internal_node_id":"0.0-20.0-0.0","params":{"nStudents":24,"maxFlips":30,"completionMinutes":45,"basePay":8,"maxBonus":9,"perTrialBonus":0.5,"perTrialBonusThreshold":0.05,"exampleCost":0.01},"classroomParams":{"A":{"a":1,"b":4},"B":{"a":4,"b":1},"C":{"a":2,"b":8},"D":{"a":8,"b":2}},"conditions":["nonSeqFull","nonSeqPartial","seqNoFeedback","seqFeedback"],"classroomPairings":[["A","B"],["C","D"]],"coinWeights":[0.2,0.5,0.8],"subjectId":"A1ODA3Q5H6HTDQ","assignmentId":"3U5JL4WY5LV0A55NKSGRA92YFL5X41","hitId":"3NI0WFPPI9246I5W92FX9A3E2GN605","url":"https://gershmanlab.com/experiments/alicia/teaching/experiment/?hitId=3NI0WFPPI9246I5W92FX9A3E2GN605&workerId=A1ODA3Q5H6HTDQ&assignmentId=3U5JL4WY5LV0A55NKSGRA92YFL5X41&a=YL5U9&tp_a=YL5U9&b=3U5JL4WY5LV0A55NKSGRA92YFL5X41&tp_b=3U5JL4WY5LV0A55NKSGRA92YFL5X41&c=365799&tp_c=365799","firstResponseHeads":4,"firstResponseTails":1,"secondResponseHeads":2,"secondResponseTails":1,"totalHeads":6,"totalTails":2,"studentIndex":1,"studentTrueHypers":{"a":4,"b":1},"studentGuess":0.7692307692307693,"delta":0.03076923076923077,"bonus":0.42,"bonusSoFar":0.42,"totalExamples":8},{"rt":null,"stimulus":"Sending examples to student... ","response":null,"trial_type":"html-keyboard-response","trial_index":28,"time_elapsed":481044,"internal_node_id":"0.0-21.0","params":{"nStudents":24,"maxFlips":30,"completionMinutes":45,"basePay":8,"maxBonus":9,"perTrialBonus":0.5,"perTrialBonusThreshold":0.05,"exampleCost":0.01},"classroomParams":{"A":{"a":1,"b":4},"B":{"a":4,"b":1},"C":{"a":2,"b":8},"D":{"a":8,"b":2}},"conditions":["nonSeqFull","nonSeqPartial","seqNoFeedback","seqFeedback"],"classroomPairings":[["A","B"],["C","D"]],"coinWeights":[0.2,0.5,0.8],"subjectId":"A1ODA3Q5H6HTDQ","assignmentId":"3U5JL4WY5LV0A55NKSGRA92YFL5X41","hitId":"3NI0WFPPI9246I5W92FX9A3E2GN605","url":"https://gershmanlab.com/experiments/alicia/teaching/experiment/?hitId=3NI0WFPPI9246I5W92FX9A3E2GN605&workerId=A1ODA3Q5H6HTDQ&assignmentId=3U5JL4WY5LV0A55NKSGRA92YFL5X41&a=YL5U9&tp_a=YL5U9&b=3U5JL4WY5LV0A55NKSGRA92YFL5X41&tp_b=3U5JL4WY5LV0A55NKSGRA92YFL5X41&c=365799&tp_c=365799"},{"rt":null,"stimulus":"Examples sent to student! Waiting for student...","response":null,"trial_type":"html-keyboard-response","trial_index":29,"time_elapsed":485045,"internal_node_id":"0.0-22.0","params":{"nStudents":24,"maxFlips":30,"completionMinutes":45,"basePay":8,"maxBonus":9,"perTrialBonus":0.5,"perTrialBonusThreshold":0.05,"exampleCost":0.01},"classroomParams":{"A":{"a":1,"b":4},"B":{"a":4,"b":1},"C":{"a":2,"b":8},"D":{"a":8,"b":2}},"conditions":["nonSeqFull","nonSeqPartial","seqNoFeedback","seqFeedback"],"classroomPairings":[["A","B"],["C","D"]],"coinWeights":[0.2,0.5,0.8],"subjectId":"A1ODA3Q5H6HTDQ","assignmentId":"3U5JL4WY5LV0A55NKSGRA92YFL5X41","hitId":"3NI0WFPPI9246I5W92FX9A3E2GN605","url":"https://gershmanlab.com/experiments/alicia/teaching/experiment/?hitId=3NI0WFPPI9246I5W92FX9A3E2GN605&workerId=A1ODA3Q5H6HTDQ&assignmentId=3U5JL4WY5LV0A55NKSGRA92YFL5X41&a=YL5U9&tp_a=YL5U9&b=3U5JL4WY5LV0A55NKSGRA92YFL5X41&tp_b=3U5JL4WY5LV0A55NKSGRA92YFL5X41&c=365799&tp_c=365799"},{"rt":3044,"stimulus":"\n                <p>Student 2's first guess for coin weight: <b style=\"color:Tomato\";>0.80</b></p>\n                <p>Student 2's second guess for coin weight: <b style=\"color:Tomato\";>0.77</b></p>\n                <p>You received a bonus of <b>$0.42</b> based on the student's second guess.</p>\n                <p>Total bonus so far: <b>$0.42</b></p>\n                <p>Press any key to continue.</p>\n                ","response":" ","trial_type":"html-keyboard-response","trial_index":30,"time_elapsed":488090,"internal_node_id":"0.0-23.0","params":{"nStudents":24,"maxFlips":30,"completionMinutes":45,"basePay":8,"maxBonus":9,"perTrialBonus":0.5,"perTrialBonusThreshold":0.05,"exampleCost":0.01},"classroomParams":{"A":{"a":1,"b":4},"B":{"a":4,"b":1},"C":{"a":2,"b":8},"D":{"a":8,"b":2}},"conditions":["nonSeqFull","nonSeqPartial","seqNoFeedback","seqFeedback"],"classroomPairings":[["A","B"],["C","D"]],"coinWeights":[0.2,0.5,0.8],"subjectId":"A1ODA3Q5H6HTDQ","assignmentId":"3U5JL4WY5LV0A55NKSGRA92YFL5X41","hitId":"3NI0WFPPI9246I5W92FX9A3E2GN605","url":"https://gershmanlab.com/experiments/alicia/teaching/experiment/?hitId=3NI0WFPPI9246I5W92FX9A3E2GN605&workerId=A1ODA3Q5H6HTDQ&assignmentId=3U5JL4WY5LV0A55NKSGRA92YFL5X41&a=YL5U9&tp_a=YL5U9&b=3U5JL4WY5LV0A55NKSGRA92YFL5X41&tp_b=3U5JL4WY5LV0A55NKSGRA92YFL5X41&c=365799&tp_c=365799"},{"rt":null,"stimulus":"<div style=\"font-size:60px;\">Next student</div>","response":null,"trial_type":"html-keyboard-response","trial_index":31,"time_elapsed":490591,"internal_node_id":"0.0-24.0-0.0","params":{"nStudents":24,"maxFlips":30,"completionMinutes":45,"basePay":8,"maxBonus":9,"perTrialBonus":0.5,"perTrialBonusThreshold":0.05,"exampleCost":0.01},"classroomParams":{"A":{"a":1,"b":4},"B":{"a":4,"b":1},"C":{"a":2,"b":8},"D":{"a":8,"b":2}},"conditions":["nonSeqFull","nonSeqPartial","seqNoFeedback","seqFeedback"],"classroomPairings":[["A","B"],["C","D"]],"coinWeights":[0.2,0.5,0.8],"subjectId":"A1ODA3Q5H6HTDQ","assignmentId":"3U5JL4WY5LV0A55NKSGRA92YFL5X41","hitId":"3NI0WFPPI9246I5W92FX9A3E2GN605","url":"https://gershmanlab.com/experiments/alicia/teaching/experiment/?hitId=3NI0WFPPI9246I5W92FX9A3E2GN605&workerId=A1ODA3Q5H6HTDQ&assignmentId=3U5JL4WY5LV0A55NKSGRA92YFL5X41&a=YL5U9&tp_a=YL5U9&b=3U5JL4WY5LV0A55NKSGRA92YFL5X41&tp_b=3U5JL4WY5LV0A55NKSGRA92YFL5X41&c=365799&tp_c=365799"},{"rt":2653,"stimulus":"\n            <h4 style=\"color:Orange;\">Student 3</h4>\n            <h2>The weight of your coin is <b style=\"color:Tomato;\">0.8</b>.</h2>\n            <p>In this block, you will be giving <b>one</b> set of examples to Student 3.</p>\n                <p>You will receive feedback at the end of the block.</p>\n            <p></p>","response":0,"trial_type":"html-button-response","trial_index":32,"time_elapsed":493245,"internal_node_id":"0.0-25.0","params":{"nStudents":24,"maxFlips":30,"completionMinutes":45,"basePay":8,"maxBonus":9,"perTrialBonus":0.5,"perTrialBonusThreshold":0.05,"exampleCost":0.01},"classroomParams":{"A":{"a":1,"b":4},"B":{"a":4,"b":1},"C":{"a":2,"b":8},"D":{"a":8,"b":2}},"conditions":["nonSeqFull","nonSeqPartial","seqNoFeedback","seqFeedback"],"classroomPairings":[["A","B"],["C","D"]],"coinWeights":[0.2,0.5,0.8],"subjectId":"A1ODA3Q5H6HTDQ","assignmentId":"3U5JL4WY5LV0A55NKSGRA92YFL5X41","hitId":"3NI0WFPPI9246I5W92FX9A3E2GN605","url":"https://gershmanlab.com/experiments/alicia/teaching/experiment/?hitId=3NI0WFPPI9246I5W92FX9A3E2GN605&workerId=A1ODA3Q5H6HTDQ&assignmentId=3U5JL4WY5LV0A55NKSGRA92YFL5X41&a=YL5U9&tp_a=YL5U9&b=3U5JL4WY5LV0A55NKSGRA92YFL5X41&tp_b=3U5JL4WY5LV0A55NKSGRA92YFL5X41&c=365799&tp_c=365799"},{"rt":7315,"response":{"heads":"4","tails":"1"},"type":"response","condition":"nonSeqPartial","trueTheta":0.8,"classrooms":["A","B"],"studentTrueClassroom":"A","exampleSet":"first","trial_type":"survey-html-form","trial_index":33,"time_elapsed":500560,"internal_node_id":"0.0-26.0-0.0","params":{"nStudents":24,"maxFlips":30,"completionMinutes":45,"basePay":8,"maxBonus":9,"perTrialBonus":0.5,"perTrialBonusThreshold":0.05,"exampleCost":0.01},"classroomParams":{"A":{"a":1,"b":4},"B":{"a":4,"b":1},"C":{"a":2,"b":8},"D":{"a":8,"b":2}},"conditions":["nonSeqFull","nonSeqPartial","seqNoFeedback","seqFeedback"],"classroomPairings":[["A","B"],["C","D"]],"coinWeights":[0.2,0.5,0.8],"subjectId":"A1ODA3Q5H6HTDQ","assignmentId":"3U5JL4WY5LV0A55NKSGRA92YFL5X41","hitId":"3NI0WFPPI9246I5W92FX9A3E2GN605","url":"https://gershmanlab.com/experiments/alicia/teaching/experiment/?hitId=3NI0WFPPI9246I5W92FX9A3E2GN605&workerId=A1ODA3Q5H6HTDQ&assignmentId=3U5JL4WY5LV0A55NKSGRA92YFL5X41&a=YL5U9&tp_a=YL5U9&b=3U5JL4WY5LV0A55NKSGRA92YFL5X41&tp_b=3U5JL4WY5LV0A55NKSGRA92YFL5X41&c=365799&tp_c=365799","heads":4,"tails":1,"studentIndex":2,"studentTrueHypers":{"a":1,"b":4},"studentGuess":0.5,"delta":0.30000000000000004,"totalExamples":5,"bonus":0,"bonusSoFar":0.42},{"rt":null,"stimulus":"Sending examples to student... ","response":null,"trial_type":"html-keyboard-response","trial_index":34,"time_elapsed":502320,"internal_node_id":"0.0-27.0","params":{"nStudents":24,"maxFlips":30,"completionMinutes":45,"basePay":8,"maxBonus":9,"perTrialBonus":0.5,"perTrialBonusThreshold":0.05,"exampleCost":0.01},"classroomParams":{"A":{"a":1,"b":4},"B":{"a":4,"b":1},"C":{"a":2,"b":8},"D":{"a":8,"b":2}},"conditions":["nonSeqFull","nonSeqPartial","seqNoFeedback","seqFeedback"],"classroomPairings":[["A","B"],["C","D"]],"coinWeights":[0.2,0.5,0.8],"subjectId":"A1ODA3Q5H6HTDQ","assignmentId":"3U5JL4WY5LV0A55NKSGRA92YFL5X41","hitId":"3NI0WFPPI9246I5W92FX9A3E2GN605","url":"https://gershmanlab.com/experiments/alicia/teaching/experiment/?hitId=3NI0WFPPI9246I5W92FX9A3E2GN605&workerId=A1ODA3Q5H6HTDQ&assignmentId=3U5JL4WY5LV0A55NKSGRA92YFL5X41&a=YL5U9&tp_a=YL5U9&b=3U5JL4WY5LV0A55NKSGRA92YFL5X41&tp_b=3U5JL4WY5LV0A55NKSGRA92YFL5X41&c=365799&tp_c=365799"},{"rt":null,"stimulus":"Examples sent to student! Waiting for student...","response":null,"trial_type":"html-keyboard-response","trial_index":35,"time_elapsed":508321,"internal_node_id":"0.0-28.0","params":{"nStudents":24,"maxFlips":30,"completionMinutes":45,"basePay":8,"maxBonus":9,"perTrialBonus":0.5,"perTrialBonusThreshold":0.05,"exampleCost":0.01},"classroomParams":{"A":{"a":1,"b":4},"B":{"a":4,"b":1},"C":{"a":2,"b":8},"D":{"a":8,"b":2}},"conditions":["nonSeqFull","nonSeqPartial","seqNoFeedback","seqFeedback"],"classroomPairings":[["A","B"],["C","D"]],"coinWeights":[0.2,0.5,0.8],"subjectId":"A1ODA3Q5H6HTDQ","assignmentId":"3U5JL4WY5LV0A55NKSGRA92YFL5X41","hitId":"3NI0WFPPI9246I5W92FX9A3E2GN605","url":"https://gershmanlab.com/experiments/alicia/teaching/experiment/?hitId=3NI0WFPPI9246I5W92FX9A3E2GN605&workerId=A1ODA3Q5H6HTDQ&assignmentId=3U5JL4WY5LV0A55NKSGRA92YFL5X41&a=YL5U9&tp_a=YL5U9&b=3U5JL4WY5LV0A55NKSGRA92YFL5X41&tp_b=3U5JL4WY5LV0A55NKSGRA92YFL5X41&c=365799&tp_c=365799"},{"rt":2944,"stimulus":"\n                <p>Student's guess for coin weight: <b style=\"color:Tomato;\">0.50</b></p>\n                <p>You received a bonus of <b>$0</b>. Total bonus so far: <b>$0.42</b></b></p>\n                <p></p>\n                <p>Press any key to continue.</p>\n                ","response":"c","trial_type":"html-keyboard-response","trial_index":36,"time_elapsed":511266,"internal_node_id":"0.0-29.0","params":{"nStudents":24,"maxFlips":30,"completionMinutes":45,"basePay":8,"maxBonus":9,"perTrialBonus":0.5,"perTrialBonusThreshold":0.05,"exampleCost":0.01},"classroomParams":{"A":{"a":1,"b":4},"B":{"a":4,"b":1},"C":{"a":2,"b":8},"D":{"a":8,"b":2}},"conditions":["nonSeqFull","nonSeqPartial","seqNoFeedback","seqFeedback"],"classroomPairings":[["A","B"],["C","D"]],"coinWeights":[0.2,0.5,0.8],"subjectId":"A1ODA3Q5H6HTDQ","assignmentId":"3U5JL4WY5LV0A55NKSGRA92YFL5X41","hitId":"3NI0WFPPI9246I5W92FX9A3E2GN605","url":"https://gershmanlab.com/experiments/alicia/teaching/experiment/?hitId=3NI0WFPPI9246I5W92FX9A3E2GN605&workerId=A1ODA3Q5H6HTDQ&assignmentId=3U5JL4WY5LV0A55NKSGRA92YFL5X41&a=YL5U9&tp_a=YL5U9&b=3U5JL4WY5LV0A55NKSGRA92YFL5X41&tp_b=3U5JL4WY5LV0A55NKSGRA92YFL5X41&c=365799&tp_c=365799"},{"rt":null,"stimulus":"<div style=\"font-size:60px;\">Next student</div>","response":null,"trial_type":"html-keyboard-response","trial_index":37,"time_elapsed":513524,"internal_node_id":"0.0-30.0-0.0","params":{"nStudents":24,"maxFlips":30,"completionMinutes":45,"basePay":8,"maxBonus":9,"perTrialBonus":0.5,"perTrialBonusThreshold":0.05,"exampleCost":0.01},"classroomParams":{"A":{"a":1,"b":4},"B":{"a":4,"b":1},"C":{"a":2,"b":8},"D":{"a":8,"b":2}},"conditions":["nonSeqFull","nonSeqPartial","seqNoFeedback","seqFeedback"],"classroomPairings":[["A","B"],["C","D"]],"coinWeights":[0.2,0.5,0.8],"subjectId":"A1ODA3Q5H6HTDQ","assignmentId":"3U5JL4WY5LV0A55NKSGRA92YFL5X41","hitId":"3NI0WFPPI9246I5W92FX9A3E2GN605","url":"https://gershmanlab.com/experiments/alicia/teaching/experiment/?hitId=3NI0WFPPI9246I5W92FX9A3E2GN605&workerId=A1ODA3Q5H6HTDQ&assignmentId=3U5JL4WY5LV0A55NKSGRA92YFL5X41&a=YL5U9&tp_a=YL5U9&b=3U5JL4WY5LV0A55NKSGRA92YFL5X41&tp_b=3U5JL4WY5LV0A55NKSGRA92YFL5X41&c=365799&tp_c=365799"},{"rt":12772,"stimulus":"\n            <h4 style=\"color:Orange;\">Student 4</h4>\n            <h2>The weight of your coin is <b style=\"color:Tomato;\">0.5</b>.</h2>\n            <p>In this block, you will be giving <b>two</b> sets of examples to Student 4.</p>\n                <p>You will see the student's guess after the first set of examples. You will also receive feedback at the end of the block.</p>\n            <p>To earn the highest bonus, you will have to <b>take into consideration the student's guess</b> when you choose your second set of examples.</p>","response":0,"trial_type":"html-button-response","trial_index":38,"time_elapsed":526296,"internal_node_id":"0.0-31.0","params":{"nStudents":24,"maxFlips":30,"completionMinutes":45,"basePay":8,"maxBonus":9,"perTrialBonus":0.5,"perTrialBonusThreshold":0.05,"exampleCost":0.01},"classroomParams":{"A":{"a":1,"b":4},"B":{"a":4,"b":1},"C":{"a":2,"b":8},"D":{"a":8,"b":2}},"conditions":["nonSeqFull","nonSeqPartial","seqNoFeedback","seqFeedback"],"classroomPairings":[["A","B"],["C","D"]],"coinWeights":[0.2,0.5,0.8],"subjectId":"A1ODA3Q5H6HTDQ","assignmentId":"3U5JL4WY5LV0A55NKSGRA92YFL5X41","hitId":"3NI0WFPPI9246I5W92FX9A3E2GN605","url":"https://gershmanlab.com/experiments/alicia/teaching/experiment/?hitId=3NI0WFPPI9246I5W92FX9A3E2GN605&workerId=A1ODA3Q5H6HTDQ&assignmentId=3U5JL4WY5LV0A55NKSGRA92YFL5X41&a=YL5U9&tp_a=YL5U9&b=3U5JL4WY5LV0A55NKSGRA92YFL5X41&tp_b=3U5JL4WY5LV0A55NKSGRA92YFL5X41&c=365799&tp_c=365799"},{"rt":12818,"response":{"heads":"1","tails":"1"},"type":"response","condition":"seqFeedback","trueTheta":0.5,"classrooms":["A","B"],"studentTrueClassroom":"A","exampleSet":"first","trial_type":"survey-html-form","trial_index":39,"time_elapsed":539115,"internal_node_id":"0.0-32.0-0.0","params":{"nStudents":24,"maxFlips":30,"completionMinutes":45,"basePay":8,"maxBonus":9,"perTrialBonus":0.5,"perTrialBonusThreshold":0.05,"exampleCost":0.01},"classroomParams":{"A":{"a":1,"b":4},"B":{"a":4,"b":1},"C":{"a":2,"b":8},"D":{"a":8,"b":2}},"conditions":["nonSeqFull","nonSeqPartial","seqNoFeedback","seqFeedback"],"classroomPairings":[["A","B"],["C","D"]],"coinWeights":[0.2,0.5,0.8],"subjectId":"A1ODA3Q5H6HTDQ","assignmentId":"3U5JL4WY5LV0A55NKSGRA92YFL5X41","hitId":"3NI0WFPPI9246I5W92FX9A3E2GN605","url":"https://gershmanlab.com/experiments/alicia/teaching/experiment/?hitId=3NI0WFPPI9246I5W92FX9A3E2GN605&workerId=A1ODA3Q5H6HTDQ&assignmentId=3U5JL4WY5LV0A55NKSGRA92YFL5X41&a=YL5U9&tp_a=YL5U9&b=3U5JL4WY5LV0A55NKSGRA92YFL5X41&tp_b=3U5JL4WY5LV0A55NKSGRA92YFL5X41&c=365799&tp_c=365799","heads":1,"tails":1,"studentIndex":3,"studentTrueHypers":{"a":1,"b":4},"studentGuess":0.2857142857142857,"delta":0.2142857142857143,"totalExamples":2,"bonusSoFar":0.42},{"rt":null,"stimulus":"Sending examples to student... ","response":null,"trial_type":"html-keyboard-response","trial_index":40,"time_elapsed":540881,"internal_node_id":"0.0-33.0","params":{"nStudents":24,"maxFlips":30,"completionMinutes":45,"basePay":8,"maxBonus":9,"perTrialBonus":0.5,"perTrialBonusThreshold":0.05,"exampleCost":0.01},"classroomParams":{"A":{"a":1,"b":4},"B":{"a":4,"b":1},"C":{"a":2,"b":8},"D":{"a":8,"b":2}},"conditions":["nonSeqFull","nonSeqPartial","seqNoFeedback","seqFeedback"],"classroomPairings":[["A","B"],["C","D"]],"coinWeights":[0.2,0.5,0.8],"subjectId":"A1ODA3Q5H6HTDQ","assignmentId":"3U5JL4WY5LV0A55NKSGRA92YFL5X41","hitId":"3NI0WFPPI9246I5W92FX9A3E2GN605","url":"https://gershmanlab.com/experiments/alicia/teaching/experiment/?hitId=3NI0WFPPI9246I5W92FX9A3E2GN605&workerId=A1ODA3Q5H6HTDQ&assignmentId=3U5JL4WY5LV0A55NKSGRA92YFL5X41&a=YL5U9&tp_a=YL5U9&b=3U5JL4WY5LV0A55NKSGRA92YFL5X41&tp_b=3U5JL4WY5LV0A55NKSGRA92YFL5X41&c=365799&tp_c=365799"},{"rt":null,"stimulus":"Examples sent to student! Waiting for student...","response":null,"trial_type":"html-keyboard-response","trial_index":41,"time_elapsed":544882,"internal_node_id":"0.0-34.0","params":{"nStudents":24,"maxFlips":30,"completionMinutes":45,"basePay":8,"maxBonus":9,"perTrialBonus":0.5,"perTrialBonusThreshold":0.05,"exampleCost":0.01},"classroomParams":{"A":{"a":1,"b":4},"B":{"a":4,"b":1},"C":{"a":2,"b":8},"D":{"a":8,"b":2}},"conditions":["nonSeqFull","nonSeqPartial","seqNoFeedback","seqFeedback"],"classroomPairings":[["A","B"],["C","D"]],"coinWeights":[0.2,0.5,0.8],"subjectId":"A1ODA3Q5H6HTDQ","assignmentId":"3U5JL4WY5LV0A55NKSGRA92YFL5X41","hitId":"3NI0WFPPI9246I5W92FX9A3E2GN605","url":"https://gershmanlab.com/experiments/alicia/teaching/experiment/?hitId=3NI0WFPPI9246I5W92FX9A3E2GN605&workerId=A1ODA3Q5H6HTDQ&assignmentId=3U5JL4WY5LV0A55NKSGRA92YFL5X41&a=YL5U9&tp_a=YL5U9&b=3U5JL4WY5LV0A55NKSGRA92YFL5X41&tp_b=3U5JL4WY5LV0A55NKSGRA92YFL5X41&c=365799&tp_c=365799"},{"rt":2757,"stimulus":"\n                <p>Student's guess for coin weight: <b style=\"color:Tomato;\">0.29</b></p>\n                <p></b></p>\n                <p>You will now send another set of examples to your student. <b>Remember to take your student's guess into consideration so that you can earn the highest bonus possible!</b> </p>\n                <p>Press any key to continue.</p>\n                ","response":"c","trial_type":"html-keyboard-response","trial_index":42,"time_elapsed":547639,"internal_node_id":"0.0-35.0","params":{"nStudents":24,"maxFlips":30,"completionMinutes":45,"basePay":8,"maxBonus":9,"perTrialBonus":0.5,"perTrialBonusThreshold":0.05,"exampleCost":0.01},"classroomParams":{"A":{"a":1,"b":4},"B":{"a":4,"b":1},"C":{"a":2,"b":8},"D":{"a":8,"b":2}},"conditions":["nonSeqFull","nonSeqPartial","seqNoFeedback","seqFeedback"],"classroomPairings":[["A","B"],["C","D"]],"coinWeights":[0.2,0.5,0.8],"subjectId":"A1ODA3Q5H6HTDQ","assignmentId":"3U5JL4WY5LV0A55NKSGRA92YFL5X41","hitId":"3NI0WFPPI9246I5W92FX9A3E2GN605","url":"https://gershmanlab.com/experiments/alicia/teaching/experiment/?hitId=3NI0WFPPI9246I5W92FX9A3E2GN605&workerId=A1ODA3Q5H6HTDQ&assignmentId=3U5JL4WY5LV0A55NKSGRA92YFL5X41&a=YL5U9&tp_a=YL5U9&b=3U5JL4WY5LV0A55NKSGRA92YFL5X41&tp_b=3U5JL4WY5LV0A55NKSGRA92YFL5X41&c=365799&tp_c=365799"},{"rt":7202,"response":{"heads":"5","tails":"5"},"type":"response","condition":"seqFeedback","trueTheta":0.5,"classrooms":["A","B"],"studentTrueClassroom":"A","exampleSet":"second","trial_type":"survey-html-form","trial_index":43,"time_elapsed":554842,"internal_node_id":"0.0-36.0-0.0","params":{"nStudents":24,"maxFlips":30,"completionMinutes":45,"basePay":8,"maxBonus":9,"perTrialBonus":0.5,"perTrialBonusThreshold":0.05,"exampleCost":0.01},"classroomParams":{"A":{"a":1,"b":4},"B":{"a":4,"b":1},"C":{"a":2,"b":8},"D":{"a":8,"b":2}},"conditions":["nonSeqFull","nonSeqPartial","seqNoFeedback","seqFeedback"],"classroomPairings":[["A","B"],["C","D"]],"coinWeights":[0.2,0.5,0.8],"subjectId":"A1ODA3Q5H6HTDQ","assignmentId":"3U5JL4WY5LV0A55NKSGRA92YFL5X41","hitId":"3NI0WFPPI9246I5W92FX9A3E2GN605","url":"https://gershmanlab.com/experiments/alicia/teaching/experiment/?hitId=3NI0WFPPI9246I5W92FX9A3E2GN605&workerId=A1ODA3Q5H6HTDQ&assignmentId=3U5JL4WY5LV0A55NKSGRA92YFL5X41&a=YL5U9&tp_a=YL5U9&b=3U5JL4WY5LV0A55NKSGRA92YFL5X41&tp_b=3U5JL4WY5LV0A55NKSGRA92YFL5X41&c=365799&tp_c=365799","firstResponseHeads":1,"firstResponseTails":1,"secondResponseHeads":5,"secondResponseTails":5,"totalHeads":6,"totalTails":6,"studentIndex":3,"studentTrueHypers":{"a":1,"b":4},"studentGuess":0.4117647058823529,"delta":0.08823529411764708,"bonus":0,"bonusSoFar":0.42,"totalExamples":12},{"rt":null,"stimulus":"Sending examples to student... ","response":null,"trial_type":"html-keyboard-response","trial_index":44,"time_elapsed":556593,"internal_node_id":"0.0-37.0","params":{"nStudents":24,"maxFlips":30,"completionMinutes":45,"basePay":8,"maxBonus":9,"perTrialBonus":0.5,"perTrialBonusThreshold":0.05,"exampleCost":0.01},"classroomParams":{"A":{"a":1,"b":4},"B":{"a":4,"b":1},"C":{"a":2,"b":8},"D":{"a":8,"b":2}},"conditions":["nonSeqFull","nonSeqPartial","seqNoFeedback","seqFeedback"],"classroomPairings":[["A","B"],["C","D"]],"coinWeights":[0.2,0.5,0.8],"subjectId":"A1ODA3Q5H6HTDQ","assignmentId":"3U5JL4WY5LV0A55NKSGRA92YFL5X41","hitId":"3NI0WFPPI9246I5W92FX9A3E2GN605","url":"https://gershmanlab.com/experiments/alicia/teaching/experiment/?hitId=3NI0WFPPI9246I5W92FX9A3E2GN605&workerId=A1ODA3Q5H6HTDQ&assignmentId=3U5JL4WY5LV0A55NKSGRA92YFL5X41&a=YL5U9&tp_a=YL5U9&b=3U5JL4WY5LV0A55NKSGRA92YFL5X41&tp_b=3U5JL4WY5LV0A55NKSGRA92YFL5X41&c=365799&tp_c=365799"},{"rt":null,"stimulus":"Examples sent to student! Waiting for student...","response":null,"trial_type":"html-keyboard-response","trial_index":45,"time_elapsed":560604,"internal_node_id":"0.0-38.0","params":{"nStudents":24,"maxFlips":30,"completionMinutes":45,"basePay":8,"maxBonus":9,"perTrialBonus":0.5,"perTrialBonusThreshold":0.05,"exampleCost":0.01},"classroomParams":{"A":{"a":1,"b":4},"B":{"a":4,"b":1},"C":{"a":2,"b":8},"D":{"a":8,"b":2}},"conditions":["nonSeqFull","nonSeqPartial","seqNoFeedback","seqFeedback"],"classroomPairings":[["A","B"],["C","D"]],"coinWeights":[0.2,0.5,0.8],"subjectId":"A1ODA3Q5H6HTDQ","assignmentId":"3U5JL4WY5LV0A55NKSGRA92YFL5X41","hitId":"3NI0WFPPI9246I5W92FX9A3E2GN605","url":"https://gershmanlab.com/experiments/alicia/teaching/experiment/?hitId=3NI0WFPPI9246I5W92FX9A3E2GN605&workerId=A1ODA3Q5H6HTDQ&assignmentId=3U5JL4WY5LV0A55NKSGRA92YFL5X41&a=YL5U9&tp_a=YL5U9&b=3U5JL4WY5LV0A55NKSGRA92YFL5X41&tp_b=3U5JL4WY5LV0A55NKSGRA92YFL5X41&c=365799&tp_c=365799"},{"rt":1957,"stimulus":"\n                <p>Student 4's first guess for coin weight: <b style=\"color:Tomato\";>0.29</b></p>\n                <p>Student 4's second guess for coin weight: <b style=\"color:Tomato\";>0.41</b></p>\n                <p>You received a bonus of <b>$0.00</b> based on the student's second guess.</p>\n                <p>Total bonus so far: <b>$0.42</b></p>\n                <p>Press any key to continue.</p>\n                ","response":"c","trial_type":"html-keyboard-response","trial_index":46,"time_elapsed":562561,"internal_node_id":"0.0-39.0","params":{"nStudents":24,"maxFlips":30,"completionMinutes":45,"basePay":8,"maxBonus":9,"perTrialBonus":0.5,"perTrialBonusThreshold":0.05,"exampleCost":0.01},"classroomParams":{"A":{"a":1,"b":4},"B":{"a":4,"b":1},"C":{"a":2,"b":8},"D":{"a":8,"b":2}},"conditions":["nonSeqFull","nonSeqPartial","seqNoFeedback","seqFeedback"],"classroomPairings":[["A","B"],["C","D"]],"coinWeights":[0.2,0.5,0.8],"subjectId":"A1ODA3Q5H6HTDQ","assignmentId":"3U5JL4WY5LV0A55NKSGRA92YFL5X41","hitId":"3NI0WFPPI9246I5W92FX9A3E2GN605","url":"https://gershmanlab.com/experiments/alicia/teaching/experiment/?hitId=3NI0WFPPI9246I5W92FX9A3E2GN605&workerId=A1ODA3Q5H6HTDQ&assignmentId=3U5JL4WY5LV0A55NKSGRA92YFL5X41&a=YL5U9&tp_a=YL5U9&b=3U5JL4WY5LV0A55NKSGRA92YFL5X41&tp_b=3U5JL4WY5LV0A55NKSGRA92YFL5X41&c=365799&tp_c=365799"},{"rt":null,"stimulus":"<div style=\"font-size:60px;\">Next student</div>","response":null,"trial_type":"html-keyboard-response","trial_index":47,"time_elapsed":565062,"internal_node_id":"0.0-40.0-0.0","params":{"nStudents":24,"maxFlips":30,"completionMinutes":45,"basePay":8,"maxBonus":9,"perTrialBonus":0.5,"perTrialBonusThreshold":0.05,"exampleCost":0.01},"classroomParams":{"A":{"a":1,"b":4},"B":{"a":4,"b":1},"C":{"a":2,"b":8},"D":{"a":8,"b":2}},"conditions":["nonSeqFull","nonSeqPartial","seqNoFeedback","seqFeedback"],"classroomPairings":[["A","B"],["C","D"]],"coinWeights":[0.2,0.5,0.8],"subjectId":"A1ODA3Q5H6HTDQ","assignmentId":"3U5JL4WY5LV0A55NKSGRA92YFL5X41","hitId":"3NI0WFPPI9246I5W92FX9A3E2GN605","url":"https://gershmanlab.com/experiments/alicia/teaching/experiment/?hitId=3NI0WFPPI9246I5W92FX9A3E2GN605&workerId=A1ODA3Q5H6HTDQ&assignmentId=3U5JL4WY5LV0A55NKSGRA92YFL5X41&a=YL5U9&tp_a=YL5U9&b=3U5JL4WY5LV0A55NKSGRA92YFL5X41&tp_b=3U5JL4WY5LV0A55NKSGRA92YFL5X41&c=365799&tp_c=365799"},{"rt":1198,"stimulus":"\n            <h4 style=\"color:Orange;\">Student 5</h4>\n            <h2>The weight of your coin is <b style=\"color:Tomato;\">0.8</b>.</h2>\n            <p>In this block, you will be giving <b>one</b> set of examples to Student 5.</p>\n                <p>You will receive feedback at the end of the block.</p>\n            <p></p>","response":0,"trial_type":"html-button-response","trial_index":48,"time_elapsed":566260,"internal_node_id":"0.0-41.0","params":{"nStudents":24,"maxFlips":30,"completionMinutes":45,"basePay":8,"maxBonus":9,"perTrialBonus":0.5,"perTrialBonusThreshold":0.05,"exampleCost":0.01},"classroomParams":{"A":{"a":1,"b":4},"B":{"a":4,"b":1},"C":{"a":2,"b":8},"D":{"a":8,"b":2}},"conditions":["nonSeqFull","nonSeqPartial","seqNoFeedback","seqFeedback"],"classroomPairings":[["A","B"],["C","D"]],"coinWeights":[0.2,0.5,0.8],"subjectId":"A1ODA3Q5H6HTDQ","assignmentId":"3U5JL4WY5LV0A55NKSGRA92YFL5X41","hitId":"3NI0WFPPI9246I5W92FX9A3E2GN605","url":"https://gershmanlab.com/experiments/alicia/teaching/experiment/?hitId=3NI0WFPPI9246I5W92FX9A3E2GN605&workerId=A1ODA3Q5H6HTDQ&assignmentId=3U5JL4WY5LV0A55NKSGRA92YFL5X41&a=YL5U9&tp_a=YL5U9&b=3U5JL4WY5LV0A55NKSGRA92YFL5X41&tp_b=3U5JL4WY5LV0A55NKSGRA92YFL5X41&c=365799&tp_c=365799"},{"rt":10167,"response":{"heads":"4","tails":"1"},"type":"response","condition":"nonSeqFull","trueTheta":0.8,"classrooms":["C","D"],"studentTrueClassroom":"C","exampleSet":"first","trial_type":"survey-html-form","trial_index":49,"time_elapsed":576428,"internal_node_id":"0.0-42.0-0.0","params":{"nStudents":24,"maxFlips":30,"completionMinutes":45,"basePay":8,"maxBonus":9,"perTrialBonus":0.5,"perTrialBonusThreshold":0.05,"exampleCost":0.01},"classroomParams":{"A":{"a":1,"b":4},"B":{"a":4,"b":1},"C":{"a":2,"b":8},"D":{"a":8,"b":2}},"conditions":["nonSeqFull","nonSeqPartial","seqNoFeedback","seqFeedback"],"classroomPairings":[["A","B"],["C","D"]],"coinWeights":[0.2,0.5,0.8],"subjectId":"A1ODA3Q5H6HTDQ","assignmentId":"3U5JL4WY5LV0A55NKSGRA92YFL5X41","hitId":"3NI0WFPPI9246I5W92FX9A3E2GN605","url":"https://gershmanlab.com/experiments/alicia/teaching/experiment/?hitId=3NI0WFPPI9246I5W92FX9A3E2GN605&workerId=A1ODA3Q5H6HTDQ&assignmentId=3U5JL4WY5LV0A55NKSGRA92YFL5X41&a=YL5U9&tp_a=YL5U9&b=3U5JL4WY5LV0A55NKSGRA92YFL5X41&tp_b=3U5JL4WY5LV0A55NKSGRA92YFL5X41&c=365799&tp_c=365799","heads":4,"tails":1,"studentIndex":4,"studentTrueHypers":{"a":2,"b":8},"studentGuess":0.4,"delta":0.4,"totalExamples":5,"bonus":0,"bonusSoFar":0.42},{"rt":null,"stimulus":"Sending examples to student... ","response":null,"trial_type":"html-keyboard-response","trial_index":50,"time_elapsed":578185,"internal_node_id":"0.0-43.0","params":{"nStudents":24,"maxFlips":30,"completionMinutes":45,"basePay":8,"maxBonus":9,"perTrialBonus":0.5,"perTrialBonusThreshold":0.05,"exampleCost":0.01},"classroomParams":{"A":{"a":1,"b":4},"B":{"a":4,"b":1},"C":{"a":2,"b":8},"D":{"a":8,"b":2}},"conditions":["nonSeqFull","nonSeqPartial","seqNoFeedback","seqFeedback"],"classroomPairings":[["A","B"],["C","D"]],"coinWeights":[0.2,0.5,0.8],"subjectId":"A1ODA3Q5H6HTDQ","assignmentId":"3U5JL4WY5LV0A55NKSGRA92YFL5X41","hitId":"3NI0WFPPI9246I5W92FX9A3E2GN605","url":"https://gershmanlab.com/experiments/alicia/teaching/experiment/?hitId=3NI0WFPPI9246I5W92FX9A3E2GN605&workerId=A1ODA3Q5H6HTDQ&assignmentId=3U5JL4WY5LV0A55NKSGRA92YFL5X41&a=YL5U9&tp_a=YL5U9&b=3U5JL4WY5LV0A55NKSGRA92YFL5X41&tp_b=3U5JL4WY5LV0A55NKSGRA92YFL5X41&c=365799&tp_c=365799"},{"rt":null,"stimulus":"Examples sent to student! Waiting for student...","response":null,"trial_type":"html-keyboard-response","trial_index":51,"time_elapsed":582191,"internal_node_id":"0.0-44.0","params":{"nStudents":24,"maxFlips":30,"completionMinutes":45,"basePay":8,"maxBonus":9,"perTrialBonus":0.5,"perTrialBonusThreshold":0.05,"exampleCost":0.01},"classroomParams":{"A":{"a":1,"b":4},"B":{"a":4,"b":1},"C":{"a":2,"b":8},"D":{"a":8,"b":2}},"conditions":["nonSeqFull","nonSeqPartial","seqNoFeedback","seqFeedback"],"classroomPairings":[["A","B"],["C","D"]],"coinWeights":[0.2,0.5,0.8],"subjectId":"A1ODA3Q5H6HTDQ","assignmentId":"3U5JL4WY5LV0A55NKSGRA92YFL5X41","hitId":"3NI0WFPPI9246I5W92FX9A3E2GN605","url":"https://gershmanlab.com/experiments/alicia/teaching/experiment/?hitId=3NI0WFPPI9246I5W92FX9A3E2GN605&workerId=A1ODA3Q5H6HTDQ&assignmentId=3U5JL4WY5LV0A55NKSGRA92YFL5X41&a=YL5U9&tp_a=YL5U9&b=3U5JL4WY5LV0A55NKSGRA92YFL5X41&tp_b=3U5JL4WY5LV0A55NKSGRA92YFL5X41&c=365799&tp_c=365799"},{"rt":3962,"stimulus":"\n                <p>Student's guess for coin weight: <b style=\"color:Tomato;\">0.40</b></p>\n                <p>You received a bonus of <b>$0</b>. Total bonus so far: <b>$0.42</b></b></p>\n                <p></p>\n                <p>Press any key to continue.</p>\n                ","response":"c","trial_type":"html-keyboard-response","trial_index":52,"time_elapsed":586153,"internal_node_id":"0.0-45.0","params":{"nStudents":24,"maxFlips":30,"completionMinutes":45,"basePay":8,"maxBonus":9,"perTrialBonus":0.5,"perTrialBonusThreshold":0.05,"exampleCost":0.01},"classroomParams":{"A":{"a":1,"b":4},"B":{"a":4,"b":1},"C":{"a":2,"b":8},"D":{"a":8,"b":2}},"conditions":["nonSeqFull","nonSeqPartial","seqNoFeedback","seqFeedback"],"classroomPairings":[["A","B"],["C","D"]],"coinWeights":[0.2,0.5,0.8],"subjectId":"A1ODA3Q5H6HTDQ","assignmentId":"3U5JL4WY5LV0A55NKSGRA92YFL5X41","hitId":"3NI0WFPPI9246I5W92FX9A3E2GN605","url":"https://gershmanlab.com/experiments/alicia/teaching/experiment/?hitId=3NI0WFPPI9246I5W92FX9A3E2GN605&workerId=A1ODA3Q5H6HTDQ&assignmentId=3U5JL4WY5LV0A55NKSGRA92YFL5X41&a=YL5U9&tp_a=YL5U9&b=3U5JL4WY5LV0A55NKSGRA92YFL5X41&tp_b=3U5JL4WY5LV0A55NKSGRA92YFL5X41&c=365799&tp_c=365799"},{"rt":null,"stimulus":"<div style=\"font-size:60px;\">Next student</div>","response":null,"trial_type":"html-keyboard-response","trial_index":53,"time_elapsed":589154,"internal_node_id":"0.0-46.0-0.0","params":{"nStudents":24,"maxFlips":30,"completionMinutes":45,"basePay":8,"maxBonus":9,"perTrialBonus":0.5,"perTrialBonusThreshold":0.05,"exampleCost":0.01},"classroomParams":{"A":{"a":1,"b":4},"B":{"a":4,"b":1},"C":{"a":2,"b":8},"D":{"a":8,"b":2}},"conditions":["nonSeqFull","nonSeqPartial","seqNoFeedback","seqFeedback"],"classroomPairings":[["A","B"],["C","D"]],"coinWeights":[0.2,0.5,0.8],"subjectId":"A1ODA3Q5H6HTDQ","assignmentId":"3U5JL4WY5LV0A55NKSGRA92YFL5X41","hitId":"3NI0WFPPI9246I5W92FX9A3E2GN605","url":"https://gershmanlab.com/experiments/alicia/teaching/experiment/?hitId=3NI0WFPPI9246I5W92FX9A3E2GN605&workerId=A1ODA3Q5H6HTDQ&assignmentId=3U5JL4WY5LV0A55NKSGRA92YFL5X41&a=YL5U9&tp_a=YL5U9&b=3U5JL4WY5LV0A55NKSGRA92YFL5X41&tp_b=3U5JL4WY5LV0A55NKSGRA92YFL5X41&c=365799&tp_c=365799"},{"rt":1625,"stimulus":"\n            <h4 style=\"color:Orange;\">Student 6</h4>\n            <h2>The weight of your coin is <b style=\"color:Tomato;\">0.8</b>.</h2>\n            <p>In this block, you will be giving <b>two</b> sets of examples to Student 6.</p>\n                <p>You will see the student's guess after the first set of examples. You will also receive feedback at the end of the block.</p>\n            <p>To earn the highest bonus, you will have to <b>take into consideration the student's guess</b> when you choose your second set of examples.</p>","response":0,"trial_type":"html-button-response","trial_index":54,"time_elapsed":590780,"internal_node_id":"0.0-47.0","params":{"nStudents":24,"maxFlips":30,"completionMinutes":45,"basePay":8,"maxBonus":9,"perTrialBonus":0.5,"perTrialBonusThreshold":0.05,"exampleCost":0.01},"classroomParams":{"A":{"a":1,"b":4},"B":{"a":4,"b":1},"C":{"a":2,"b":8},"D":{"a":8,"b":2}},"conditions":["nonSeqFull","nonSeqPartial","seqNoFeedback","seqFeedback"],"classroomPairings":[["A","B"],["C","D"]],"coinWeights":[0.2,0.5,0.8],"subjectId":"A1ODA3Q5H6HTDQ","assignmentId":"3U5JL4WY5LV0A55NKSGRA92YFL5X41","hitId":"3NI0WFPPI9246I5W92FX9A3E2GN605","url":"https://gershmanlab.com/experiments/alicia/teaching/experiment/?hitId=3NI0WFPPI9246I5W92FX9A3E2GN605&workerId=A1ODA3Q5H6HTDQ&assignmentId=3U5JL4WY5LV0A55NKSGRA92YFL5X41&a=YL5U9&tp_a=YL5U9&b=3U5JL4WY5LV0A55NKSGRA92YFL5X41&tp_b=3U5JL4WY5LV0A55NKSGRA92YFL5X41&c=365799&tp_c=365799"},{"rt":4577,"response":{"heads":"4","tails":"1"},"type":"response","condition":"seqFeedback","trueTheta":0.8,"classrooms":["C","D"],"studentTrueClassroom":"D","exampleSet":"first","trial_type":"survey-html-form","trial_index":55,"time_elapsed":595358,"internal_node_id":"0.0-48.0-0.0","params":{"nStudents":24,"maxFlips":30,"completionMinutes":45,"basePay":8,"maxBonus":9,"perTrialBonus":0.5,"perTrialBonusThreshold":0.05,"exampleCost":0.01},"classroomParams":{"A":{"a":1,"b":4},"B":{"a":4,"b":1},"C":{"a":2,"b":8},"D":{"a":8,"b":2}},"conditions":["nonSeqFull","nonSeqPartial","seqNoFeedback","seqFeedback"],"classroomPairings":[["A","B"],["C","D"]],"coinWeights":[0.2,0.5,0.8],"subjectId":"A1ODA3Q5H6HTDQ","assignmentId":"3U5JL4WY5LV0A55NKSGRA92YFL5X41","hitId":"3NI0WFPPI9246I5W92FX9A3E2GN605","url":"https://gershmanlab.com/experiments/alicia/teaching/experiment/?hitId=3NI0WFPPI9246I5W92FX9A3E2GN605&workerId=A1ODA3Q5H6HTDQ&assignmentId=3U5JL4WY5LV0A55NKSGRA92YFL5X41&a=YL5U9&tp_a=YL5U9&b=3U5JL4WY5LV0A55NKSGRA92YFL5X41&tp_b=3U5JL4WY5LV0A55NKSGRA92YFL5X41&c=365799&tp_c=365799","heads":4,"tails":1,"studentIndex":5,"studentTrueHypers":{"a":8,"b":2},"studentGuess":0.8,"delta":0,"totalExamples":5,"bonusSoFar":0.42},{"rt":null,"stimulus":"Sending examples to student... ","response":null,"trial_type":"html-keyboard-response","trial_index":56,"time_elapsed":596609,"internal_node_id":"0.0-49.0","params":{"nStudents":24,"maxFlips":30,"completionMinutes":45,"basePay":8,"maxBonus":9,"perTrialBonus":0.5,"perTrialBonusThreshold":0.05,"exampleCost":0.01},"classroomParams":{"A":{"a":1,"b":4},"B":{"a":4,"b":1},"C":{"a":2,"b":8},"D":{"a":8,"b":2}},"conditions":["nonSeqFull","nonSeqPartial","seqNoFeedback","seqFeedback"],"classroomPairings":[["A","B"],["C","D"]],"coinWeights":[0.2,0.5,0.8],"subjectId":"A1ODA3Q5H6HTDQ","assignmentId":"3U5JL4WY5LV0A55NKSGRA92YFL5X41","hitId":"3NI0WFPPI9246I5W92FX9A3E2GN605","url":"https://gershmanlab.com/experiments/alicia/teaching/experiment/?hitId=3NI0WFPPI9246I5W92FX9A3E2GN605&workerId=A1ODA3Q5H6HTDQ&assignmentId=3U5JL4WY5LV0A55NKSGRA92YFL5X41&a=YL5U9&tp_a=YL5U9&b=3U5JL4WY5LV0A55NKSGRA92YFL5X41&tp_b=3U5JL4WY5LV0A55NKSGRA92YFL5X41&c=365799&tp_c=365799"},{"rt":null,"stimulus":"Examples sent to student! Waiting for student...","response":null,"trial_type":"html-keyboard-response","trial_index":57,"time_elapsed":600617,"internal_node_id":"0.0-50.0","params":{"nStudents":24,"maxFlips":30,"completionMinutes":45,"basePay":8,"maxBonus":9,"perTrialBonus":0.5,"perTrialBonusThreshold":0.05,"exampleCost":0.01},"classroomParams":{"A":{"a":1,"b":4},"B":{"a":4,"b":1},"C":{"a":2,"b":8},"D":{"a":8,"b":2}},"conditions":["nonSeqFull","nonSeqPartial","seqNoFeedback","seqFeedback"],"classroomPairings":[["A","B"],["C","D"]],"coinWeights":[0.2,0.5,0.8],"subjectId":"A1ODA3Q5H6HTDQ","assignmentId":"3U5JL4WY5LV0A55NKSGRA92YFL5X41","hitId":"3NI0WFPPI9246I5W92FX9A3E2GN605","url":"https://gershmanlab.com/experiments/alicia/teaching/experiment/?hitId=3NI0WFPPI9246I5W92FX9A3E2GN605&workerId=A1ODA3Q5H6HTDQ&assignmentId=3U5JL4WY5LV0A55NKSGRA92YFL5X41&a=YL5U9&tp_a=YL5U9&b=3U5JL4WY5LV0A55NKSGRA92YFL5X41&tp_b=3U5JL4WY5LV0A55NKSGRA92YFL5X41&c=365799&tp_c=365799"},{"rt":3150,"stimulus":"\n                <p>Student's guess for coin weight: <b style=\"color:Tomato;\">0.80</b></p>\n                <p></b></p>\n                <p>You will now send another set of examples to your student. <b>Remember to take your student's guess into consideration so that you can earn the highest bonus possible!</b> </p>\n                <p>Press any key to continue.</p>\n                ","response":"c","trial_type":"html-keyboard-response","trial_index":58,"time_elapsed":603768,"internal_node_id":"0.0-51.0","params":{"nStudents":24,"maxFlips":30,"completionMinutes":45,"basePay":8,"maxBonus":9,"perTrialBonus":0.5,"perTrialBonusThreshold":0.05,"exampleCost":0.01},"classroomParams":{"A":{"a":1,"b":4},"B":{"a":4,"b":1},"C":{"a":2,"b":8},"D":{"a":8,"b":2}},"conditions":["nonSeqFull","nonSeqPartial","seqNoFeedback","seqFeedback"],"classroomPairings":[["A","B"],["C","D"]],"coinWeights":[0.2,0.5,0.8],"subjectId":"A1ODA3Q5H6HTDQ","assignmentId":"3U5JL4WY5LV0A55NKSGRA92YFL5X41","hitId":"3NI0WFPPI9246I5W92FX9A3E2GN605","url":"https://gershmanlab.com/experiments/alicia/teaching/experiment/?hitId=3NI0WFPPI9246I5W92FX9A3E2GN605&workerId=A1ODA3Q5H6HTDQ&assignmentId=3U5JL4WY5LV0A55NKSGRA92YFL5X41&a=YL5U9&tp_a=YL5U9&b=3U5JL4WY5LV0A55NKSGRA92YFL5X41&tp_b=3U5JL4WY5LV0A55NKSGRA92YFL5X41&c=365799&tp_c=365799"},{"rt":5958,"response":{"heads":"4","tails":"1"},"type":"response","condition":"seqFeedback","trueTheta":0.8,"classrooms":["C","D"],"studentTrueClassroom":"D","exampleSet":"second","trial_type":"survey-html-form","trial_index":59,"time_elapsed":609726,"internal_node_id":"0.0-52.0-0.0","params":{"nStudents":24,"maxFlips":30,"completionMinutes":45,"basePay":8,"maxBonus":9,"perTrialBonus":0.5,"perTrialBonusThreshold":0.05,"exampleCost":0.01},"classroomParams":{"A":{"a":1,"b":4},"B":{"a":4,"b":1},"C":{"a":2,"b":8},"D":{"a":8,"b":2}},"conditions":["nonSeqFull","nonSeqPartial","seqNoFeedback","seqFeedback"],"classroomPairings":[["A","B"],["C","D"]],"coinWeights":[0.2,0.5,0.8],"subjectId":"A1ODA3Q5H6HTDQ","assignmentId":"3U5JL4WY5LV0A55NKSGRA92YFL5X41","hitId":"3NI0WFPPI9246I5W92FX9A3E2GN605","url":"https://gershmanlab.com/experiments/alicia/teaching/experiment/?hitId=3NI0WFPPI9246I5W92FX9A3E2GN605&workerId=A1ODA3Q5H6HTDQ&assignmentId=3U5JL4WY5LV0A55NKSGRA92YFL5X41&a=YL5U9&tp_a=YL5U9&b=3U5JL4WY5LV0A55NKSGRA92YFL5X41&tp_b=3U5JL4WY5LV0A55NKSGRA92YFL5X41&c=365799&tp_c=365799","firstResponseHeads":4,"firstResponseTails":1,"secondResponseHeads":4,"secondResponseTails":1,"totalHeads":8,"totalTails":2,"studentIndex":5,"studentTrueHypers":{"a":8,"b":2},"studentGuess":0.8,"delta":0,"bonus":0.4,"bonusSoFar":0.82,"totalExamples":10},{"rt":null,"stimulus":"Sending examples to student... ","response":null,"trial_type":"html-keyboard-response","trial_index":60,"time_elapsed":611477,"internal_node_id":"0.0-53.0","params":{"nStudents":24,"maxFlips":30,"completionMinutes":45,"basePay":8,"maxBonus":9,"perTrialBonus":0.5,"perTrialBonusThreshold":0.05,"exampleCost":0.01},"classroomParams":{"A":{"a":1,"b":4},"B":{"a":4,"b":1},"C":{"a":2,"b":8},"D":{"a":8,"b":2}},"conditions":["nonSeqFull","nonSeqPartial","seqNoFeedback","seqFeedback"],"classroomPairings":[["A","B"],["C","D"]],"coinWeights":[0.2,0.5,0.8],"subjectId":"A1ODA3Q5H6HTDQ","assignmentId":"3U5JL4WY5LV0A55NKSGRA92YFL5X41","hitId":"3NI0WFPPI9246I5W92FX9A3E2GN605","url":"https://gershmanlab.com/experiments/alicia/teaching/experiment/?hitId=3NI0WFPPI9246I5W92FX9A3E2GN605&workerId=A1ODA3Q5H6HTDQ&assignmentId=3U5JL4WY5LV0A55NKSGRA92YFL5X41&a=YL5U9&tp_a=YL5U9&b=3U5JL4WY5LV0A55NKSGRA92YFL5X41&tp_b=3U5JL4WY5LV0A55NKSGRA92YFL5X41&c=365799&tp_c=365799"},{"rt":null,"stimulus":"Examples sent to student! Waiting for student...","response":null,"trial_type":"html-keyboard-response","trial_index":61,"time_elapsed":616979,"internal_node_id":"0.0-54.0","params":{"nStudents":24,"maxFlips":30,"completionMinutes":45,"basePay":8,"maxBonus":9,"perTrialBonus":0.5,"perTrialBonusThreshold":0.05,"exampleCost":0.01},"classroomParams":{"A":{"a":1,"b":4},"B":{"a":4,"b":1},"C":{"a":2,"b":8},"D":{"a":8,"b":2}},"conditions":["nonSeqFull","nonSeqPartial","seqNoFeedback","seqFeedback"],"classroomPairings":[["A","B"],["C","D"]],"coinWeights":[0.2,0.5,0.8],"subjectId":"A1ODA3Q5H6HTDQ","assignmentId":"3U5JL4WY5LV0A55NKSGRA92YFL5X41","hitId":"3NI0WFPPI9246I5W92FX9A3E2GN605","url":"https://gershmanlab.com/experiments/alicia/teaching/experiment/?hitId=3NI0WFPPI9246I5W92FX9A3E2GN605&workerId=A1ODA3Q5H6HTDQ&assignmentId=3U5JL4WY5LV0A55NKSGRA92YFL5X41&a=YL5U9&tp_a=YL5U9&b=3U5JL4WY5LV0A55NKSGRA92YFL5X41&tp_b=3U5JL4WY5LV0A55NKSGRA92YFL5X41&c=365799&tp_c=365799"},{"rt":1374,"stimulus":"\n                <p>Student 6's first guess for coin weight: <b style=\"color:Tomato\";>0.80</b></p>\n                <p>Student 6's second guess for coin weight: <b style=\"color:Tomato\";>0.80</b></p>\n                <p>You received a bonus of <b>$0.40</b> based on the student's second guess.</p>\n                <p>Total bonus so far: <b>$0.82</b></p>\n                <p>Press any key to continue.</p>\n                ","response":"c","trial_type":"html-keyboard-response","trial_index":62,"time_elapsed":618354,"internal_node_id":"0.0-55.0","params":{"nStudents":24,"maxFlips":30,"completionMinutes":45,"basePay":8,"maxBonus":9,"perTrialBonus":0.5,"perTrialBonusThreshold":0.05,"exampleCost":0.01},"classroomParams":{"A":{"a":1,"b":4},"B":{"a":4,"b":1},"C":{"a":2,"b":8},"D":{"a":8,"b":2}},"conditions":["nonSeqFull","nonSeqPartial","seqNoFeedback","seqFeedback"],"classroomPairings":[["A","B"],["C","D"]],"coinWeights":[0.2,0.5,0.8],"subjectId":"A1ODA3Q5H6HTDQ","assignmentId":"3U5JL4WY5LV0A55NKSGRA92YFL5X41","hitId":"3NI0WFPPI9246I5W92FX9A3E2GN605","url":"https://gershmanlab.com/experiments/alicia/teaching/experiment/?hitId=3NI0WFPPI9246I5W92FX9A3E2GN605&workerId=A1ODA3Q5H6HTDQ&assignmentId=3U5JL4WY5LV0A55NKSGRA92YFL5X41&a=YL5U9&tp_a=YL5U9&b=3U5JL4WY5LV0A55NKSGRA92YFL5X41&tp_b=3U5JL4WY5LV0A55NKSGRA92YFL5X41&c=365799&tp_c=365799"},{"rt":null,"stimulus":"<div style=\"font-size:60px;\">Next student</div>","response":null,"trial_type":"html-keyboard-response","trial_index":63,"time_elapsed":620605,"internal_node_id":"0.0-56.0-0.0","params":{"nStudents":24,"maxFlips":30,"completionMinutes":45,"basePay":8,"maxBonus":9,"perTrialBonus":0.5,"perTrialBonusThreshold":0.05,"exampleCost":0.01},"classroomParams":{"A":{"a":1,"b":4},"B":{"a":4,"b":1},"C":{"a":2,"b":8},"D":{"a":8,"b":2}},"conditions":["nonSeqFull","nonSeqPartial","seqNoFeedback","seqFeedback"],"classroomPairings":[["A","B"],["C","D"]],"coinWeights":[0.2,0.5,0.8],"subjectId":"A1ODA3Q5H6HTDQ","assignmentId":"3U5JL4WY5LV0A55NKSGRA92YFL5X41","hitId":"3NI0WFPPI9246I5W92FX9A3E2GN605","url":"https://gershmanlab.com/experiments/alicia/teaching/experiment/?hitId=3NI0WFPPI9246I5W92FX9A3E2GN605&workerId=A1ODA3Q5H6HTDQ&assignmentId=3U5JL4WY5LV0A55NKSGRA92YFL5X41&a=YL5U9&tp_a=YL5U9&b=3U5JL4WY5LV0A55NKSGRA92YFL5X41&tp_b=3U5JL4WY5LV0A55NKSGRA92YFL5X41&c=365799&tp_c=365799"},{"rt":2281,"stimulus":"\n            <h4 style=\"color:Orange;\">Student 7</h4>\n            <h2>The weight of your coin is <b style=\"color:Tomato;\">0.2</b>.</h2>\n            <p>In this block, you will be giving <b>two</b> sets of examples to Student 7.</p>\n                <p>You will receive feedback at the end of the block.</p>\n            <p></p>","response":0,"trial_type":"html-button-response","trial_index":64,"time_elapsed":622887,"internal_node_id":"0.0-57.0","params":{"nStudents":24,"maxFlips":30,"completionMinutes":45,"basePay":8,"maxBonus":9,"perTrialBonus":0.5,"perTrialBonusThreshold":0.05,"exampleCost":0.01},"classroomParams":{"A":{"a":1,"b":4},"B":{"a":4,"b":1},"C":{"a":2,"b":8},"D":{"a":8,"b":2}},"conditions":["nonSeqFull","nonSeqPartial","seqNoFeedback","seqFeedback"],"classroomPairings":[["A","B"],["C","D"]],"coinWeights":[0.2,0.5,0.8],"subjectId":"A1ODA3Q5H6HTDQ","assignmentId":"3U5JL4WY5LV0A55NKSGRA92YFL5X41","hitId":"3NI0WFPPI9246I5W92FX9A3E2GN605","url":"https://gershmanlab.com/experiments/alicia/teaching/experiment/?hitId=3NI0WFPPI9246I5W92FX9A3E2GN605&workerId=A1ODA3Q5H6HTDQ&assignmentId=3U5JL4WY5LV0A55NKSGRA92YFL5X41&a=YL5U9&tp_a=YL5U9&b=3U5JL4WY5LV0A55NKSGRA92YFL5X41&tp_b=3U5JL4WY5LV0A55NKSGRA92YFL5X41&c=365799&tp_c=365799"},{"rt":7331,"response":{"heads":"1","tails":"4"},"type":"response","condition":"seqNoFeedback","trueTheta":0.2,"classrooms":["A","B"],"studentTrueClassroom":"A","exampleSet":"first","trial_type":"survey-html-form","trial_index":65,"time_elapsed":630218,"internal_node_id":"0.0-58.0-0.0","params":{"nStudents":24,"maxFlips":30,"completionMinutes":45,"basePay":8,"maxBonus":9,"perTrialBonus":0.5,"perTrialBonusThreshold":0.05,"exampleCost":0.01},"classroomParams":{"A":{"a":1,"b":4},"B":{"a":4,"b":1},"C":{"a":2,"b":8},"D":{"a":8,"b":2}},"conditions":["nonSeqFull","nonSeqPartial","seqNoFeedback","seqFeedback"],"classroomPairings":[["A","B"],["C","D"]],"coinWeights":[0.2,0.5,0.8],"subjectId":"A1ODA3Q5H6HTDQ","assignmentId":"3U5JL4WY5LV0A55NKSGRA92YFL5X41","hitId":"3NI0WFPPI9246I5W92FX9A3E2GN605","url":"https://gershmanlab.com/experiments/alicia/teaching/experiment/?hitId=3NI0WFPPI9246I5W92FX9A3E2GN605&workerId=A1ODA3Q5H6HTDQ&assignmentId=3U5JL4WY5LV0A55NKSGRA92YFL5X41&a=YL5U9&tp_a=YL5U9&b=3U5JL4WY5LV0A55NKSGRA92YFL5X41&tp_b=3U5JL4WY5LV0A55NKSGRA92YFL5X41&c=365799&tp_c=365799","heads":1,"tails":4,"studentIndex":6,"studentTrueHypers":{"a":1,"b":4},"studentGuess":0.2,"delta":0,"totalExamples":5,"bonusSoFar":0.82},{"rt":null,"stimulus":"Sending examples to student... ","response":null,"trial_type":"html-keyboard-response","trial_index":66,"time_elapsed":631731,"internal_node_id":"0.0-59.0","params":{"nStudents":24,"maxFlips":30,"completionMinutes":45,"basePay":8,"maxBonus":9,"perTrialBonus":0.5,"perTrialBonusThreshold":0.05,"exampleCost":0.01},"classroomParams":{"A":{"a":1,"b":4},"B":{"a":4,"b":1},"C":{"a":2,"b":8},"D":{"a":8,"b":2}},"conditions":["nonSeqFull","nonSeqPartial","seqNoFeedback","seqFeedback"],"classroomPairings":[["A","B"],["C","D"]],"coinWeights":[0.2,0.5,0.8],"subjectId":"A1ODA3Q5H6HTDQ","assignmentId":"3U5JL4WY5LV0A55NKSGRA92YFL5X41","hitId":"3NI0WFPPI9246I5W92FX9A3E2GN605","url":"https://gershmanlab.com/experiments/alicia/teaching/experiment/?hitId=3NI0WFPPI9246I5W92FX9A3E2GN605&workerId=A1ODA3Q5H6HTDQ&assignmentId=3U5JL4WY5LV0A55NKSGRA92YFL5X41&a=YL5U9&tp_a=YL5U9&b=3U5JL4WY5LV0A55NKSGRA92YFL5X41&tp_b=3U5JL4WY5LV0A55NKSGRA92YFL5X41&c=365799&tp_c=365799"},{"rt":null,"stimulus":"Examples sent to student! Waiting for student...","response":null,"trial_type":"html-keyboard-response","trial_index":67,"time_elapsed":637247,"internal_node_id":"0.0-60.0","params":{"nStudents":24,"maxFlips":30,"completionMinutes":45,"basePay":8,"maxBonus":9,"perTrialBonus":0.5,"perTrialBonusThreshold":0.05,"exampleCost":0.01},"classroomParams":{"A":{"a":1,"b":4},"B":{"a":4,"b":1},"C":{"a":2,"b":8},"D":{"a":8,"b":2}},"conditions":["nonSeqFull","nonSeqPartial","seqNoFeedback","seqFeedback"],"classroomPairings":[["A","B"],["C","D"]],"coinWeights":[0.2,0.5,0.8],"subjectId":"A1ODA3Q5H6HTDQ","assignmentId":"3U5JL4WY5LV0A55NKSGRA92YFL5X41","hitId":"3NI0WFPPI9246I5W92FX9A3E2GN605","url":"https://gershmanlab.com/experiments/alicia/teaching/experiment/?hitId=3NI0WFPPI9246I5W92FX9A3E2GN605&workerId=A1ODA3Q5H6HTDQ&assignmentId=3U5JL4WY5LV0A55NKSGRA92YFL5X41&a=YL5U9&tp_a=YL5U9&b=3U5JL4WY5LV0A55NKSGRA92YFL5X41&tp_b=3U5JL4WY5LV0A55NKSGRA92YFL5X41&c=365799&tp_c=365799"},{"rt":6211,"response":{"heads":"2","tails":"8"},"type":"response","condition":"seqNoFeedback","trueTheta":0.2,"classrooms":["A","B"],"studentTrueClassroom":"A","exampleSet":"second","trial_type":"survey-html-form","trial_index":68,"time_elapsed":643459,"internal_node_id":"0.0-61.0-0.0","params":{"nStudents":24,"maxFlips":30,"completionMinutes":45,"basePay":8,"maxBonus":9,"perTrialBonus":0.5,"perTrialBonusThreshold":0.05,"exampleCost":0.01},"classroomParams":{"A":{"a":1,"b":4},"B":{"a":4,"b":1},"C":{"a":2,"b":8},"D":{"a":8,"b":2}},"conditions":["nonSeqFull","nonSeqPartial","seqNoFeedback","seqFeedback"],"classroomPairings":[["A","B"],["C","D"]],"coinWeights":[0.2,0.5,0.8],"subjectId":"A1ODA3Q5H6HTDQ","assignmentId":"3U5JL4WY5LV0A55NKSGRA92YFL5X41","hitId":"3NI0WFPPI9246I5W92FX9A3E2GN605","url":"https://gershmanlab.com/experiments/alicia/teaching/experiment/?hitId=3NI0WFPPI9246I5W92FX9A3E2GN605&workerId=A1ODA3Q5H6HTDQ&assignmentId=3U5JL4WY5LV0A55NKSGRA92YFL5X41&a=YL5U9&tp_a=YL5U9&b=3U5JL4WY5LV0A55NKSGRA92YFL5X41&tp_b=3U5JL4WY5LV0A55NKSGRA92YFL5X41&c=365799&tp_c=365799","firstResponseHeads":1,"firstResponseTails":4,"secondResponseHeads":2,"secondResponseTails":8,"totalHeads":3,"totalTails":12,"studentIndex":6,"studentTrueHypers":{"a":1,"b":4},"studentGuess":0.2,"delta":0,"bonus":0.35,"bonusSoFar":1.17,"totalExamples":15},{"rt":null,"stimulus":"Sending examples to student... ","response":null,"trial_type":"html-keyboard-response","trial_index":69,"time_elapsed":645469,"internal_node_id":"0.0-62.0","params":{"nStudents":24,"maxFlips":30,"completionMinutes":45,"basePay":8,"maxBonus":9,"perTrialBonus":0.5,"perTrialBonusThreshold":0.05,"exampleCost":0.01},"classroomParams":{"A":{"a":1,"b":4},"B":{"a":4,"b":1},"C":{"a":2,"b":8},"D":{"a":8,"b":2}},"conditions":["nonSeqFull","nonSeqPartial","seqNoFeedback","seqFeedback"],"classroomPairings":[["A","B"],["C","D"]],"coinWeights":[0.2,0.5,0.8],"subjectId":"A1ODA3Q5H6HTDQ","assignmentId":"3U5JL4WY5LV0A55NKSGRA92YFL5X41","hitId":"3NI0WFPPI9246I5W92FX9A3E2GN605","url":"https://gershmanlab.com/experiments/alicia/teaching/experiment/?hitId=3NI0WFPPI9246I5W92FX9A3E2GN605&workerId=A1ODA3Q5H6HTDQ&assignmentId=3U5JL4WY5LV0A55NKSGRA92YFL5X41&a=YL5U9&tp_a=YL5U9&b=3U5JL4WY5LV0A55NKSGRA92YFL5X41&tp_b=3U5JL4WY5LV0A55NKSGRA92YFL5X41&c=365799&tp_c=365799"},{"rt":null,"stimulus":"Examples sent to student! Waiting for student...","response":null,"trial_type":"html-keyboard-response","trial_index":70,"time_elapsed":649470,"internal_node_id":"0.0-63.0","params":{"nStudents":24,"maxFlips":30,"completionMinutes":45,"basePay":8,"maxBonus":9,"perTrialBonus":0.5,"perTrialBonusThreshold":0.05,"exampleCost":0.01},"classroomParams":{"A":{"a":1,"b":4},"B":{"a":4,"b":1},"C":{"a":2,"b":8},"D":{"a":8,"b":2}},"conditions":["nonSeqFull","nonSeqPartial","seqNoFeedback","seqFeedback"],"classroomPairings":[["A","B"],["C","D"]],"coinWeights":[0.2,0.5,0.8],"subjectId":"A1ODA3Q5H6HTDQ","assignmentId":"3U5JL4WY5LV0A55NKSGRA92YFL5X41","hitId":"3NI0WFPPI9246I5W92FX9A3E2GN605","url":"https://gershmanlab.com/experiments/alicia/teaching/experiment/?hitId=3NI0WFPPI9246I5W92FX9A3E2GN605&workerId=A1ODA3Q5H6HTDQ&assignmentId=3U5JL4WY5LV0A55NKSGRA92YFL5X41&a=YL5U9&tp_a=YL5U9&b=3U5JL4WY5LV0A55NKSGRA92YFL5X41&tp_b=3U5JL4WY5LV0A55NKSGRA92YFL5X41&c=365799&tp_c=365799"},{"rt":4225,"stimulus":"\n                <p>Student 7's first guess for coin weight: <b style=\"color:Tomato\";>0.20</b></p>\n                <p>Student 7's second guess for coin weight: <b style=\"color:Tomato\";>0.20</b></p>\n                <p>You received a bonus of <b>$0.35</b> based on the student's second guess.</p>\n                <p>Total bonus so far: <b>$1.17</b></p>\n                <p>Press any key to continue.</p>\n                ","response":"c","trial_type":"html-keyboard-response","trial_index":71,"time_elapsed":653696,"internal_node_id":"0.0-64.0","params":{"nStudents":24,"maxFlips":30,"completionMinutes":45,"basePay":8,"maxBonus":9,"perTrialBonus":0.5,"perTrialBonusThreshold":0.05,"exampleCost":0.01},"classroomParams":{"A":{"a":1,"b":4},"B":{"a":4,"b":1},"C":{"a":2,"b":8},"D":{"a":8,"b":2}},"conditions":["nonSeqFull","nonSeqPartial","seqNoFeedback","seqFeedback"],"classroomPairings":[["A","B"],["C","D"]],"coinWeights":[0.2,0.5,0.8],"subjectId":"A1ODA3Q5H6HTDQ","assignmentId":"3U5JL4WY5LV0A55NKSGRA92YFL5X41","hitId":"3NI0WFPPI9246I5W92FX9A3E2GN605","url":"https://gershmanlab.com/experiments/alicia/teaching/experiment/?hitId=3NI0WFPPI9246I5W92FX9A3E2GN605&workerId=A1ODA3Q5H6HTDQ&assignmentId=3U5JL4WY5LV0A55NKSGRA92YFL5X41&a=YL5U9&tp_a=YL5U9&b=3U5JL4WY5LV0A55NKSGRA92YFL5X41&tp_b=3U5JL4WY5LV0A55NKSGRA92YFL5X41&c=365799&tp_c=365799"},{"rt":null,"stimulus":"<div style=\"font-size:60px;\">Next student</div>","response":null,"trial_type":"html-keyboard-response","trial_index":72,"time_elapsed":656708,"internal_node_id":"0.0-65.0-0.0","params":{"nStudents":24,"maxFlips":30,"completionMinutes":45,"basePay":8,"maxBonus":9,"perTrialBonus":0.5,"perTrialBonusThreshold":0.05,"exampleCost":0.01},"classroomParams":{"A":{"a":1,"b":4},"B":{"a":4,"b":1},"C":{"a":2,"b":8},"D":{"a":8,"b":2}},"conditions":["nonSeqFull","nonSeqPartial","seqNoFeedback","seqFeedback"],"classroomPairings":[["A","B"],["C","D"]],"coinWeights":[0.2,0.5,0.8],"subjectId":"A1ODA3Q5H6HTDQ","assignmentId":"3U5JL4WY5LV0A55NKSGRA92YFL5X41","hitId":"3NI0WFPPI9246I5W92FX9A3E2GN605","url":"https://gershmanlab.com/experiments/alicia/teaching/experiment/?hitId=3NI0WFPPI9246I5W92FX9A3E2GN605&workerId=A1ODA3Q5H6HTDQ&assignmentId=3U5JL4WY5LV0A55NKSGRA92YFL5X41&a=YL5U9&tp_a=YL5U9&b=3U5JL4WY5LV0A55NKSGRA92YFL5X41&tp_b=3U5JL4WY5LV0A55NKSGRA92YFL5X41&c=365799&tp_c=365799"},{"rt":1389,"stimulus":"\n            <h4 style=\"color:Orange;\">Student 8</h4>\n            <h2>The weight of your coin is <b style=\"color:Tomato;\">0.5</b>.</h2>\n            <p>In this block, you will be giving <b>two</b> sets of examples to Student 8.</p>\n                <p>You will see the student's guess after the first set of examples. You will also receive feedback at the end of the block.</p>\n            <p>To earn the highest bonus, you will have to <b>take into consideration the student's guess</b> when you choose your second set of examples.</p>","response":0,"trial_type":"html-button-response","trial_index":73,"time_elapsed":658098,"internal_node_id":"0.0-66.0","params":{"nStudents":24,"maxFlips":30,"completionMinutes":45,"basePay":8,"maxBonus":9,"perTrialBonus":0.5,"perTrialBonusThreshold":0.05,"exampleCost":0.01},"classroomParams":{"A":{"a":1,"b":4},"B":{"a":4,"b":1},"C":{"a":2,"b":8},"D":{"a":8,"b":2}},"conditions":["nonSeqFull","nonSeqPartial","seqNoFeedback","seqFeedback"],"classroomPairings":[["A","B"],["C","D"]],"coinWeights":[0.2,0.5,0.8],"subjectId":"A1ODA3Q5H6HTDQ","assignmentId":"3U5JL4WY5LV0A55NKSGRA92YFL5X41","hitId":"3NI0WFPPI9246I5W92FX9A3E2GN605","url":"https://gershmanlab.com/experiments/alicia/teaching/experiment/?hitId=3NI0WFPPI9246I5W92FX9A3E2GN605&workerId=A1ODA3Q5H6HTDQ&assignmentId=3U5JL4WY5LV0A55NKSGRA92YFL5X41&a=YL5U9&tp_a=YL5U9&b=3U5JL4WY5LV0A55NKSGRA92YFL5X41&tp_b=3U5JL4WY5LV0A55NKSGRA92YFL5X41&c=365799&tp_c=365799"},{"rt":2655,"response":{"heads":"1","tails":"1"},"type":"response","condition":"seqFeedback","trueTheta":0.5,"classrooms":["C","D"],"studentTrueClassroom":"C","exampleSet":"first","trial_type":"survey-html-form","trial_index":74,"time_elapsed":660753,"internal_node_id":"0.0-67.0-0.0","params":{"nStudents":24,"maxFlips":30,"completionMinutes":45,"basePay":8,"maxBonus":9,"perTrialBonus":0.5,"perTrialBonusThreshold":0.05,"exampleCost":0.01},"classroomParams":{"A":{"a":1,"b":4},"B":{"a":4,"b":1},"C":{"a":2,"b":8},"D":{"a":8,"b":2}},"conditions":["nonSeqFull","nonSeqPartial","seqNoFeedback","seqFeedback"],"classroomPairings":[["A","B"],["C","D"]],"coinWeights":[0.2,0.5,0.8],"subjectId":"A1ODA3Q5H6HTDQ","assignmentId":"3U5JL4WY5LV0A55NKSGRA92YFL5X41","hitId":"3NI0WFPPI9246I5W92FX9A3E2GN605","url":"https://gershmanlab.com/experiments/alicia/teaching/experiment/?hitId=3NI0WFPPI9246I5W92FX9A3E2GN605&workerId=A1ODA3Q5H6HTDQ&assignmentId=3U5JL4WY5LV0A55NKSGRA92YFL5X41&a=YL5U9&tp_a=YL5U9&b=3U5JL4WY5LV0A55NKSGRA92YFL5X41&tp_b=3U5JL4WY5LV0A55NKSGRA92YFL5X41&c=365799&tp_c=365799","heads":1,"tails":1,"studentIndex":7,"studentTrueHypers":{"a":2,"b":8},"studentGuess":0.25,"delta":0.25,"totalExamples":2,"bonusSoFar":1.17},{"rt":null,"stimulus":"Sending examples to student... ","response":null,"trial_type":"html-keyboard-response","trial_index":75,"time_elapsed":662758,"internal_node_id":"0.0-68.0","params":{"nStudents":24,"maxFlips":30,"completionMinutes":45,"basePay":8,"maxBonus":9,"perTrialBonus":0.5,"perTrialBonusThreshold":0.05,"exampleCost":0.01},"classroomParams":{"A":{"a":1,"b":4},"B":{"a":4,"b":1},"C":{"a":2,"b":8},"D":{"a":8,"b":2}},"conditions":["nonSeqFull","nonSeqPartial","seqNoFeedback","seqFeedback"],"classroomPairings":[["A","B"],["C","D"]],"coinWeights":[0.2,0.5,0.8],"subjectId":"A1ODA3Q5H6HTDQ","assignmentId":"3U5JL4WY5LV0A55NKSGRA92YFL5X41","hitId":"3NI0WFPPI9246I5W92FX9A3E2GN605","url":"https://gershmanlab.com/experiments/alicia/teaching/experiment/?hitId=3NI0WFPPI9246I5W92FX9A3E2GN605&workerId=A1ODA3Q5H6HTDQ&assignmentId=3U5JL4WY5LV0A55NKSGRA92YFL5X41&a=YL5U9&tp_a=YL5U9&b=3U5JL4WY5LV0A55NKSGRA92YFL5X41&tp_b=3U5JL4WY5LV0A55NKSGRA92YFL5X41&c=365799&tp_c=365799"},{"rt":null,"stimulus":"Examples sent to student! Waiting for student...","response":null,"trial_type":"html-keyboard-response","trial_index":76,"time_elapsed":668759,"internal_node_id":"0.0-69.0","params":{"nStudents":24,"maxFlips":30,"completionMinutes":45,"basePay":8,"maxBonus":9,"perTrialBonus":0.5,"perTrialBonusThreshold":0.05,"exampleCost":0.01},"classroomParams":{"A":{"a":1,"b":4},"B":{"a":4,"b":1},"C":{"a":2,"b":8},"D":{"a":8,"b":2}},"conditions":["nonSeqFull","nonSeqPartial","seqNoFeedback","seqFeedback"],"classroomPairings":[["A","B"],["C","D"]],"coinWeights":[0.2,0.5,0.8],"subjectId":"A1ODA3Q5H6HTDQ","assignmentId":"3U5JL4WY5LV0A55NKSGRA92YFL5X41","hitId":"3NI0WFPPI9246I5W92FX9A3E2GN605","url":"https://gershmanlab.com/experiments/alicia/teaching/experiment/?hitId=3NI0WFPPI9246I5W92FX9A3E2GN605&workerId=A1ODA3Q5H6HTDQ&assignmentId=3U5JL4WY5LV0A55NKSGRA92YFL5X41&a=YL5U9&tp_a=YL5U9&b=3U5JL4WY5LV0A55NKSGRA92YFL5X41&tp_b=3U5JL4WY5LV0A55NKSGRA92YFL5X41&c=365799&tp_c=365799"},{"rt":2481,"stimulus":"\n                <p>Student's guess for coin weight: <b style=\"color:Tomato;\">0.25</b></p>\n                <p></b></p>\n                <p>You will now send another set of examples to your student. <b>Remember to take your student's guess into consideration so that you can earn the highest bonus possible!</b> </p>\n                <p>Press any key to continue.</p>\n                ","response":"c","trial_type":"html-keyboard-response","trial_index":77,"time_elapsed":671241,"internal_node_id":"0.0-70.0","params":{"nStudents":24,"maxFlips":30,"completionMinutes":45,"basePay":8,"maxBonus":9,"perTrialBonus":0.5,"perTrialBonusThreshold":0.05,"exampleCost":0.01},"classroomParams":{"A":{"a":1,"b":4},"B":{"a":4,"b":1},"C":{"a":2,"b":8},"D":{"a":8,"b":2}},"conditions":["nonSeqFull","nonSeqPartial","seqNoFeedback","seqFeedback"],"classroomPairings":[["A","B"],["C","D"]],"coinWeights":[0.2,0.5,0.8],"subjectId":"A1ODA3Q5H6HTDQ","assignmentId":"3U5JL4WY5LV0A55NKSGRA92YFL5X41","hitId":"3NI0WFPPI9246I5W92FX9A3E2GN605","url":"https://gershmanlab.com/experiments/alicia/teaching/experiment/?hitId=3NI0WFPPI9246I5W92FX9A3E2GN605&workerId=A1ODA3Q5H6HTDQ&assignmentId=3U5JL4WY5LV0A55NKSGRA92YFL5X41&a=YL5U9&tp_a=YL5U9&b=3U5JL4WY5LV0A55NKSGRA92YFL5X41&tp_b=3U5JL4WY5LV0A55NKSGRA92YFL5X41&c=365799&tp_c=365799"},{"rt":5935,"response":{"heads":"5","tails":"5"},"type":"response","condition":"seqFeedback","trueTheta":0.5,"classrooms":["C","D"],"studentTrueClassroom":"C","exampleSet":"second","trial_type":"survey-html-form","trial_index":78,"time_elapsed":677177,"internal_node_id":"0.0-71.0-0.0","params":{"nStudents":24,"maxFlips":30,"completionMinutes":45,"basePay":8,"maxBonus":9,"perTrialBonus":0.5,"perTrialBonusThreshold":0.05,"exampleCost":0.01},"classroomParams":{"A":{"a":1,"b":4},"B":{"a":4,"b":1},"C":{"a":2,"b":8},"D":{"a":8,"b":2}},"conditions":["nonSeqFull","nonSeqPartial","seqNoFeedback","seqFeedback"],"classroomPairings":[["A","B"],["C","D"]],"coinWeights":[0.2,0.5,0.8],"subjectId":"A1ODA3Q5H6HTDQ","assignmentId":"3U5JL4WY5LV0A55NKSGRA92YFL5X41","hitId":"3NI0WFPPI9246I5W92FX9A3E2GN605","url":"https://gershmanlab.com/experiments/alicia/teaching/experiment/?hitId=3NI0WFPPI9246I5W92FX9A3E2GN605&workerId=A1ODA3Q5H6HTDQ&assignmentId=3U5JL4WY5LV0A55NKSGRA92YFL5X41&a=YL5U9&tp_a=YL5U9&b=3U5JL4WY5LV0A55NKSGRA92YFL5X41&tp_b=3U5JL4WY5LV0A55NKSGRA92YFL5X41&c=365799&tp_c=365799","firstResponseHeads":1,"firstResponseTails":1,"secondResponseHeads":5,"secondResponseTails":5,"totalHeads":6,"totalTails":6,"studentIndex":7,"studentTrueHypers":{"a":2,"b":8},"studentGuess":0.36363636363636365,"delta":0.13636363636363635,"bonus":0,"bonusSoFar":1.17,"totalExamples":12},{"rt":null,"stimulus":"Sending examples to student... ","response":null,"trial_type":"html-keyboard-response","trial_index":79,"time_elapsed":678428,"internal_node_id":"0.0-72.0","params":{"nStudents":24,"maxFlips":30,"completionMinutes":45,"basePay":8,"maxBonus":9,"perTrialBonus":0.5,"perTrialBonusThreshold":0.05,"exampleCost":0.01},"classroomParams":{"A":{"a":1,"b":4},"B":{"a":4,"b":1},"C":{"a":2,"b":8},"D":{"a":8,"b":2}},"conditions":["nonSeqFull","nonSeqPartial","seqNoFeedback","seqFeedback"],"classroomPairings":[["A","B"],["C","D"]],"coinWeights":[0.2,0.5,0.8],"subjectId":"A1ODA3Q5H6HTDQ","assignmentId":"3U5JL4WY5LV0A55NKSGRA92YFL5X41","hitId":"3NI0WFPPI9246I5W92FX9A3E2GN605","url":"https://gershmanlab.com/experiments/alicia/teaching/experiment/?hitId=3NI0WFPPI9246I5W92FX9A3E2GN605&workerId=A1ODA3Q5H6HTDQ&assignmentId=3U5JL4WY5LV0A55NKSGRA92YFL5X41&a=YL5U9&tp_a=YL5U9&b=3U5JL4WY5LV0A55NKSGRA92YFL5X41&tp_b=3U5JL4WY5LV0A55NKSGRA92YFL5X41&c=365799&tp_c=365799"},{"rt":null,"stimulus":"Examples sent to student! Waiting for student...","response":null,"trial_type":"html-keyboard-response","trial_index":80,"time_elapsed":682431,"internal_node_id":"0.0-73.0","params":{"nStudents":24,"maxFlips":30,"completionMinutes":45,"basePay":8,"maxBonus":9,"perTrialBonus":0.5,"perTrialBonusThreshold":0.05,"exampleCost":0.01},"classroomParams":{"A":{"a":1,"b":4},"B":{"a":4,"b":1},"C":{"a":2,"b":8},"D":{"a":8,"b":2}},"conditions":["nonSeqFull","nonSeqPartial","seqNoFeedback","seqFeedback"],"classroomPairings":[["A","B"],["C","D"]],"coinWeights":[0.2,0.5,0.8],"subjectId":"A1ODA3Q5H6HTDQ","assignmentId":"3U5JL4WY5LV0A55NKSGRA92YFL5X41","hitId":"3NI0WFPPI9246I5W92FX9A3E2GN605","url":"https://gershmanlab.com/experiments/alicia/teaching/experiment/?hitId=3NI0WFPPI9246I5W92FX9A3E2GN605&workerId=A1ODA3Q5H6HTDQ&assignmentId=3U5JL4WY5LV0A55NKSGRA92YFL5X41&a=YL5U9&tp_a=YL5U9&b=3U5JL4WY5LV0A55NKSGRA92YFL5X41&tp_b=3U5JL4WY5LV0A55NKSGRA92YFL5X41&c=365799&tp_c=365799"},{"rt":1450,"stimulus":"\n                <p>Student 8's first guess for coin weight: <b style=\"color:Tomato\";>0.25</b></p>\n                <p>Student 8's second guess for coin weight: <b style=\"color:Tomato\";>0.36</b></p>\n                <p>You received a bonus of <b>$0.00</b> based on the student's second guess.</p>\n                <p>Total bonus so far: <b>$1.17</b></p>\n                <p>Press any key to continue.</p>\n                ","response":"c","trial_type":"html-keyboard-response","trial_index":81,"time_elapsed":683881,"internal_node_id":"0.0-74.0","params":{"nStudents":24,"maxFlips":30,"completionMinutes":45,"basePay":8,"maxBonus":9,"perTrialBonus":0.5,"perTrialBonusThreshold":0.05,"exampleCost":0.01},"classroomParams":{"A":{"a":1,"b":4},"B":{"a":4,"b":1},"C":{"a":2,"b":8},"D":{"a":8,"b":2}},"conditions":["nonSeqFull","nonSeqPartial","seqNoFeedback","seqFeedback"],"classroomPairings":[["A","B"],["C","D"]],"coinWeights":[0.2,0.5,0.8],"subjectId":"A1ODA3Q5H6HTDQ","assignmentId":"3U5JL4WY5LV0A55NKSGRA92YFL5X41","hitId":"3NI0WFPPI9246I5W92FX9A3E2GN605","url":"https://gershmanlab.com/experiments/alicia/teaching/experiment/?hitId=3NI0WFPPI9246I5W92FX9A3E2GN605&workerId=A1ODA3Q5H6HTDQ&assignmentId=3U5JL4WY5LV0A55NKSGRA92YFL5X41&a=YL5U9&tp_a=YL5U9&b=3U5JL4WY5LV0A55NKSGRA92YFL5X41&tp_b=3U5JL4WY5LV0A55NKSGRA92YFL5X41&c=365799&tp_c=365799"},{"rt":null,"stimulus":"<div style=\"font-size:60px;\">Next student</div>","response":null,"trial_type":"html-keyboard-response","trial_index":82,"time_elapsed":686883,"internal_node_id":"0.0-75.0-0.0","params":{"nStudents":24,"maxFlips":30,"completionMinutes":45,"basePay":8,"maxBonus":9,"perTrialBonus":0.5,"perTrialBonusThreshold":0.05,"exampleCost":0.01},"classroomParams":{"A":{"a":1,"b":4},"B":{"a":4,"b":1},"C":{"a":2,"b":8},"D":{"a":8,"b":2}},"conditions":["nonSeqFull","nonSeqPartial","seqNoFeedback","seqFeedback"],"classroomPairings":[["A","B"],["C","D"]],"coinWeights":[0.2,0.5,0.8],"subjectId":"A1ODA3Q5H6HTDQ","assignmentId":"3U5JL4WY5LV0A55NKSGRA92YFL5X41","hitId":"3NI0WFPPI9246I5W92FX9A3E2GN605","url":"https://gershmanlab.com/experiments/alicia/teaching/experiment/?hitId=3NI0WFPPI9246I5W92FX9A3E2GN605&workerId=A1ODA3Q5H6HTDQ&assignmentId=3U5JL4WY5LV0A55NKSGRA92YFL5X41&a=YL5U9&tp_a=YL5U9&b=3U5JL4WY5LV0A55NKSGRA92YFL5X41&tp_b=3U5JL4WY5LV0A55NKSGRA92YFL5X41&c=365799&tp_c=365799"},{"rt":4841,"stimulus":"\n            <h4 style=\"color:Orange;\">Student 9</h4>\n            <h2>The weight of your coin is <b style=\"color:Tomato;\">0.5</b>.</h2>\n            <p>In this block, you will be giving <b>one</b> set of examples to Student 9.</p>\n                <p>You will receive feedback at the end of the block.</p>\n            <p></p>","response":0,"trial_type":"html-button-response","trial_index":83,"time_elapsed":691725,"internal_node_id":"0.0-76.0","params":{"nStudents":24,"maxFlips":30,"completionMinutes":45,"basePay":8,"maxBonus":9,"perTrialBonus":0.5,"perTrialBonusThreshold":0.05,"exampleCost":0.01},"classroomParams":{"A":{"a":1,"b":4},"B":{"a":4,"b":1},"C":{"a":2,"b":8},"D":{"a":8,"b":2}},"conditions":["nonSeqFull","nonSeqPartial","seqNoFeedback","seqFeedback"],"classroomPairings":[["A","B"],["C","D"]],"coinWeights":[0.2,0.5,0.8],"subjectId":"A1ODA3Q5H6HTDQ","assignmentId":"3U5JL4WY5LV0A55NKSGRA92YFL5X41","hitId":"3NI0WFPPI9246I5W92FX9A3E2GN605","url":"https://gershmanlab.com/experiments/alicia/teaching/experiment/?hitId=3NI0WFPPI9246I5W92FX9A3E2GN605&workerId=A1ODA3Q5H6HTDQ&assignmentId=3U5JL4WY5LV0A55NKSGRA92YFL5X41&a=YL5U9&tp_a=YL5U9&b=3U5JL4WY5LV0A55NKSGRA92YFL5X41&tp_b=3U5JL4WY