[{"rt":null,"stimulus":"Welcome to the experiment. Press any key to begin.","response":null,"trial_type":"html-keyboard-response","trial_index":0,"time_elapsed":30022,"internal_node_id":"0.0-0.0","params":{"nStudents":24,"maxFlips":30,"completionMinutes":45,"basePay":8,"maxBonus":9,"perTrialBonus":0.5,"perTrialBonusThreshold":0.05,"exampleCost":0.01},"classroomParams":{"A":{"a":1,"b":4},"B":{"a":4,"b":1},"C":{"a":2,"b":8},"D":{"a":8,"b":2}},"conditions":["nonSeqFull","nonSeqPartial","seqNoFeedback","seqFeedback"],"classroomPairings":[["A","B"],["C","D"]],"coinWeights":[0.2,0.5,0.8],"subjectId":"A1P6OXEJ86HQRM","assignmentId":"38BQUHLA9XMTKMG1P5TRDQS5P8LMOG","hitId":"3Z3R5YC0P3915KVY8X6BNRIWSQNFTT","url":"https://gershmanlab.com/experiments/alicia/teaching/experiment/?hitId=3Z3R5YC0P3915KVY8X6BNRIWSQNFTT&workerId=A1P6OXEJ86HQRM&assignmentId=38BQUHLA9XMTKMG1P5TRDQS5P8LMOG&a=AUB89&tp_a=AUB89&b=38BQUHLA9XMTKMG1P5TRDQS5P8LMOG&tp_b=38BQUHLA9XMTKMG1P5TRDQS5P8LMOG&c=365799&tp_c=365799"},{"rt":22791,"stimulus":"\n        <h3>Please read this consent agreement carefully before deciding whether to participate in this experiment.</h3>\n        <p><b>Purpose of the research:</b> To examine how people teach effectively.</p>\n        <p><b>What you will do in this research:</b> You will teach students the weights of different coins.</p>\n        <p><b>Time required:</b> This experiment will take 45 minutes to complete.</p>\n        <p><b>Risks:</b> There are no anticipated risks associated with participating in this study.             The effects of participating should be comparable to those you would experience from viewing a computer monitor             and using a mouse and keyboard for the duration of the experiment.</p>\n        <p><b>Benefits:</b> The study provides important information about the nature of teaching.</p>\n        <p><b>Compensation:</b> You will receive <b>$8</b> for completing the experiment and a performance bonus of up to <b>$9</b>.</p>\n        <p><b>Confidentiality:</b> Your participation in this study will remain confidential.             No personally identifiable information will be associated with your data.             Your de-identified data may be shared with other researchers and used in future projects.</p>\n        <p><b>Participation and withdrawal:</b> Your participation in this study is completely voluntary and             you may refuse to participate or you may choose to withdraw at any time without penalty or loss of\n            benefits to which you are otherwise entitled.</p>\n        <p><b>How to contact the researcher:</b> If you have questions or concerns about your participation            or payment, or want to request a summary of research findings, please contact\n            Alicia Chen, aliciachen@college.harvard.edu.</p>\n        <p><b>Whom to contact about your rights in this research:</b> For questions, concerns, suggestions,             or complaints that have not been or cannot be addressed by the researcher, or to report             research-related harm, please contact the Committee on the Use of Human Subjects in Research at Harvard University,             1414 Massachusetts Avenue, Second Floor, Cambridge, MA 02138. Phone: 617-496-2847. Email: cuhs@fas.harvard.edu.</p>\n        ","response":0,"trial_type":"html-button-response","trial_index":1,"time_elapsed":52814,"internal_node_id":"0.0-1.0","params":{"nStudents":24,"maxFlips":30,"completionMinutes":45,"basePay":8,"maxBonus":9,"perTrialBonus":0.5,"perTrialBonusThreshold":0.05,"exampleCost":0.01},"classroomParams":{"A":{"a":1,"b":4},"B":{"a":4,"b":1},"C":{"a":2,"b":8},"D":{"a":8,"b":2}},"conditions":["nonSeqFull","nonSeqPartial","seqNoFeedback","seqFeedback"],"classroomPairings":[["A","B"],["C","D"]],"coinWeights":[0.2,0.5,0.8],"subjectId":"A1P6OXEJ86HQRM","assignmentId":"38BQUHLA9XMTKMG1P5TRDQS5P8LMOG","hitId":"3Z3R5YC0P3915KVY8X6BNRIWSQNFTT","url":"https://gershmanlab.com/experiments/alicia/teaching/experiment/?hitId=3Z3R5YC0P3915KVY8X6BNRIWSQNFTT&workerId=A1P6OXEJ86HQRM&assignmentId=38BQUHLA9XMTKMG1P5TRDQS5P8LMOG&a=AUB89&tp_a=AUB89&b=38BQUHLA9XMTKMG1P5TRDQS5P8LMOG&tp_b=38BQUHLA9XMTKMG1P5TRDQS5P8LMOG&c=365799&tp_c=365799"},{"view_history":[{"page_index":0,"viewing_time":12532},{"page_index":1,"viewing_time":5239},{"page_index":2,"viewing_time":36278},{"page_index":3,"viewing_time":26413},{"page_index":4,"viewing_time":12666},{"page_index":5,"viewing_time":23364},{"page_index":6,"viewing_time":50834}],"rt":167326,"trial_type":"instructions","trial_index":2,"time_elapsed":220141,"internal_node_id":"0.0-2.0-0.0","params":{"nStudents":24,"maxFlips":30,"completionMinutes":45,"basePay":8,"maxBonus":9,"perTrialBonus":0.5,"perTrialBonusThreshold":0.05,"exampleCost":0.01},"classroomParams":{"A":{"a":1,"b":4},"B":{"a":4,"b":1},"C":{"a":2,"b":8},"D":{"a":8,"b":2}},"conditions":["nonSeqFull","nonSeqPartial","seqNoFeedback","seqFeedback"],"classroomPairings":[["A","B"],["C","D"]],"coinWeights":[0.2,0.5,0.8],"subjectId":"A1P6OXEJ86HQRM","assignmentId":"38BQUHLA9XMTKMG1P5TRDQS5P8LMOG","hitId":"3Z3R5YC0P3915KVY8X6BNRIWSQNFTT","url":"https://gershmanlab.com/experiments/alicia/teaching/experiment/?hitId=3Z3R5YC0P3915KVY8X6BNRIWSQNFTT&workerId=A1P6OXEJ86HQRM&assignmentId=38BQUHLA9XMTKMG1P5TRDQS5P8LMOG&a=AUB89&tp_a=AUB89&b=38BQUHLA9XMTKMG1P5TRDQS5P8LMOG&tp_b=38BQUHLA9XMTKMG1P5TRDQS5P8LMOG&c=365799&tp_c=365799"},{"rt":55579,"response":{"Q0":"Students in different classrooms will have seen a different number of heads and tails before seeing the examples you select for them.","Q1":"By <b>considering the student's classroom information</b> so that I can teach efficiently and accurately/helpfully at the same time (because each example I give to the student costs money!).","Q2":"The coin lands heads 90% of the time.","Q3":"No, I will teach a <b>new</b> student each time.","Q4":"The students are also on the same alien planet as you, where coins can be unfair.","Q5":"Based on the student's second (and final) guess."},"question_order":[1,3,5,2,0,4],"trial_type":"survey-multi-choice","trial_index":3,"time_elapsed":275722,"internal_node_id":"0.0-2.0-1.0","params":{"nStudents":24,"maxFlips":30,"completionMinutes":45,"basePay":8,"maxBonus":9,"perTrialBonus":0.5,"perTrialBonusThreshold":0.05,"exampleCost":0.01},"classroomParams":{"A":{"a":1,"b":4},"B":{"a":4,"b":1},"C":{"a":2,"b":8},"D":{"a":8,"b":2}},"conditions":["nonSeqFull","nonSeqPartial","seqNoFeedback","seqFeedback"],"classroomPairings":[["A","B"],["C","D"]],"coinWeights":[0.2,0.5,0.8],"subjectId":"A1P6OXEJ86HQRM","assignmentId":"38BQUHLA9XMTKMG1P5TRDQS5P8LMOG","hitId":"3Z3R5YC0P3915KVY8X6BNRIWSQNFTT","url":"https://gershmanlab.com/experiments/alicia/teaching/experiment/?hitId=3Z3R5YC0P3915KVY8X6BNRIWSQNFTT&workerId=A1P6OXEJ86HQRM&assignmentId=38BQUHLA9XMTKMG1P5TRDQS5P8LMOG&a=AUB89&tp_a=AUB89&b=38BQUHLA9XMTKMG1P5TRDQS5P8LMOG&tp_b=38BQUHLA9XMTKMG1P5TRDQS5P8LMOG&c=365799&tp_c=365799","pass":true},{"rt":null,"stimulus":"<div style=\"font-size:30px;\">Congrats on passing the comprehension quiz! The experiment will begin in a few seconds.</div>","response":null,"trial_type":"html-keyboard-response","trial_index":4,"time_elapsed":278727,"internal_node_id":"0.0-3.0","params":{"nStudents":24,"maxFlips":30,"completionMinutes":45,"basePay":8,"maxBonus":9,"perTrialBonus":0.5,"perTrialBonusThreshold":0.05,"exampleCost":0.01},"classroomParams":{"A":{"a":1,"b":4},"B":{"a":4,"b":1},"C":{"a":2,"b":8},"D":{"a":8,"b":2}},"conditions":["nonSeqFull","nonSeqPartial","seqNoFeedback","seqFeedback"],"classroomPairings":[["A","B"],["C","D"]],"coinWeights":[0.2,0.5,0.8],"subjectId":"A1P6OXEJ86HQRM","assignmentId":"38BQUHLA9XMTKMG1P5TRDQS5P8LMOG","hitId":"3Z3R5YC0P3915KVY8X6BNRIWSQNFTT","url":"https://gershmanlab.com/experiments/alicia/teaching/experiment/?hitId=3Z3R5YC0P3915KVY8X6BNRIWSQNFTT&workerId=A1P6OXEJ86HQRM&assignmentId=38BQUHLA9XMTKMG1P5TRDQS5P8LMOG&a=AUB89&tp_a=AUB89&b=38BQUHLA9XMTKMG1P5TRDQS5P8LMOG&tp_b=38BQUHLA9XMTKMG1P5TRDQS5P8LMOG&c=365799&tp_c=365799"},{"rt":null,"stimulus":"<div style=\"font-size:50px;\">First student</div>","response":null,"trial_type":"html-keyboard-response","trial_index":5,"time_elapsed":281728,"internal_node_id":"0.0-4.0","params":{"nStudents":24,"maxFlips":30,"completionMinutes":45,"basePay":8,"maxBonus":9,"perTrialBonus":0.5,"perTrialBonusThreshold":0.05,"exampleCost":0.01},"classroomParams":{"A":{"a":1,"b":4},"B":{"a":4,"b":1},"C":{"a":2,"b":8},"D":{"a":8,"b":2}},"conditions":["nonSeqFull","nonSeqPartial","seqNoFeedback","seqFeedback"],"classroomPairings":[["A","B"],["C","D"]],"coinWeights":[0.2,0.5,0.8],"subjectId":"A1P6OXEJ86HQRM","assignmentId":"38BQUHLA9XMTKMG1P5TRDQS5P8LMOG","hitId":"3Z3R5YC0P3915KVY8X6BNRIWSQNFTT","url":"https://gershmanlab.com/experiments/alicia/teaching/experiment/?hitId=3Z3R5YC0P3915KVY8X6BNRIWSQNFTT&workerId=A1P6OXEJ86HQRM&assignmentId=38BQUHLA9XMTKMG1P5TRDQS5P8LMOG&a=AUB89&tp_a=AUB89&b=38BQUHLA9XMTKMG1P5TRDQS5P8LMOG&tp_b=38BQUHLA9XMTKMG1P5TRDQS5P8LMOG&c=365799&tp_c=365799"},{"rt":146200,"stimulus":"\n            <h4 style=\"color:Orange;\">Student 1</h4>\n            <h2>The weight of your coin is <b style=\"color:Tomato;\">0.5</b>.</h2>\n            <p>In this block, you will be giving <b>two</b> sets of examples to Student 1.</p>\n                <p>You will see the student's guess after the first set of examples. You will also receive feedback at the end of the block.</p>\n            <p>To earn the highest bonus, you will have to <b>take into consideration the student's guess</b> when you choose your second set of examples.</p>","response":0,"trial_type":"html-button-response","trial_index":6,"time_elapsed":427929,"internal_node_id":"0.0-5.0","params":{"nStudents":24,"maxFlips":30,"completionMinutes":45,"basePay":8,"maxBonus":9,"perTrialBonus":0.5,"perTrialBonusThreshold":0.05,"exampleCost":0.01},"classroomParams":{"A":{"a":1,"b":4},"B":{"a":4,"b":1},"C":{"a":2,"b":8},"D":{"a":8,"b":2}},"conditions":["nonSeqFull","nonSeqPartial","seqNoFeedback","seqFeedback"],"classroomPairings":[["A","B"],["C","D"]],"coinWeights":[0.2,0.5,0.8],"subjectId":"A1P6OXEJ86HQRM","assignmentId":"38BQUHLA9XMTKMG1P5TRDQS5P8LMOG","hitId":"3Z3R5YC0P3915KVY8X6BNRIWSQNFTT","url":"https://gershmanlab.com/experiments/alicia/teaching/experiment/?hitId=3Z3R5YC0P3915KVY8X6BNRIWSQNFTT&workerId=A1P6OXEJ86HQRM&assignmentId=38BQUHLA9XMTKMG1P5TRDQS5P8LMOG&a=AUB89&tp_a=AUB89&b=38BQUHLA9XMTKMG1P5TRDQS5P8LMOG&tp_b=38BQUHLA9XMTKMG1P5TRDQS5P8LMOG&c=365799&tp_c=365799"},{"rt":77963,"response":{"heads":"1","tails":"1"},"type":"response","condition":"seqFeedback","trueTheta":0.5,"classrooms":["C","D"],"studentTrueClassroom":"D","exampleSet":"first","trial_type":"survey-html-form","trial_index":7,"time_elapsed":505895,"internal_node_id":"0.0-6.0-0.0","params":{"nStudents":24,"maxFlips":30,"completionMinutes":45,"basePay":8,"maxBonus":9,"perTrialBonus":0.5,"perTrialBonusThreshold":0.05,"exampleCost":0.01},"classroomParams":{"A":{"a":1,"b":4},"B":{"a":4,"b":1},"C":{"a":2,"b":8},"D":{"a":8,"b":2}},"conditions":["nonSeqFull","nonSeqPartial","seqNoFeedback","seqFeedback"],"classroomPairings":[["A","B"],["C","D"]],"coinWeights":[0.2,0.5,0.8],"subjectId":"A1P6OXEJ86HQRM","assignmentId":"38BQUHLA9XMTKMG1P5TRDQS5P8LMOG","hitId":"3Z3R5YC0P3915KVY8X6BNRIWSQNFTT","url":"https://gershmanlab.com/experiments/alicia/teaching/experiment/?hitId=3Z3R5YC0P3915KVY8X6BNRIWSQNFTT&workerId=A1P6OXEJ86HQRM&assignmentId=38BQUHLA9XMTKMG1P5TRDQS5P8LMOG&a=AUB89&tp_a=AUB89&b=38BQUHLA9XMTKMG1P5TRDQS5P8LMOG&tp_b=38BQUHLA9XMTKMG1P5TRDQS5P8LMOG&c=365799&tp_c=365799","heads":1,"tails":1,"studentIndex":0,"studentTrueHypers":{"a":8,"b":2},"studentGuess":0.75,"delta":0.25,"totalExamples":2,"bonusSoFar":0},{"rt":null,"stimulus":"Sending examples to student... ","response":null,"trial_type":"html-keyboard-response","trial_index":8,"time_elapsed":507397,"internal_node_id":"0.0-7.0","params":{"nStudents":24,"maxFlips":30,"completionMinutes":45,"basePay":8,"maxBonus":9,"perTrialBonus":0.5,"perTrialBonusThreshold":0.05,"exampleCost":0.01},"classroomParams":{"A":{"a":1,"b":4},"B":{"a":4,"b":1},"C":{"a":2,"b":8},"D":{"a":8,"b":2}},"conditions":["nonSeqFull","nonSeqPartial","seqNoFeedback","seqFeedback"],"classroomPairings":[["A","B"],["C","D"]],"coinWeights":[0.2,0.5,0.8],"subjectId":"A1P6OXEJ86HQRM","assignmentId":"38BQUHLA9XMTKMG1P5TRDQS5P8LMOG","hitId":"3Z3R5YC0P3915KVY8X6BNRIWSQNFTT","url":"https://gershmanlab.com/experiments/alicia/teaching/experiment/?hitId=3Z3R5YC0P3915KVY8X6BNRIWSQNFTT&workerId=A1P6OXEJ86HQRM&assignmentId=38BQUHLA9XMTKMG1P5TRDQS5P8LMOG&a=AUB89&tp_a=AUB89&b=38BQUHLA9XMTKMG1P5TRDQS5P8LMOG&tp_b=38BQUHLA9XMTKMG1P5TRDQS5P8LMOG&c=365799&tp_c=365799"},{"rt":null,"stimulus":"Examples sent to student! Waiting for student...","response":null,"trial_type":"html-keyboard-response","trial_index":9,"time_elapsed":511909,"internal_node_id":"0.0-8.0","params":{"nStudents":24,"maxFlips":30,"completionMinutes":45,"basePay":8,"maxBonus":9,"perTrialBonus":0.5,"perTrialBonusThreshold":0.05,"exampleCost":0.01},"classroomParams":{"A":{"a":1,"b":4},"B":{"a":4,"b":1},"C":{"a":2,"b":8},"D":{"a":8,"b":2}},"conditions":["nonSeqFull","nonSeqPartial","seqNoFeedback","seqFeedback"],"classroomPairings":[["A","B"],["C","D"]],"coinWeights":[0.2,0.5,0.8],"subjectId":"A1P6OXEJ86HQRM","assignmentId":"38BQUHLA9XMTKMG1P5TRDQS5P8LMOG","hitId":"3Z3R5YC0P3915KVY8X6BNRIWSQNFTT","url":"https://gershmanlab.com/experiments/alicia/teaching/experiment/?hitId=3Z3R5YC0P3915KVY8X6BNRIWSQNFTT&workerId=A1P6OXEJ86HQRM&assignmentId=38BQUHLA9XMTKMG1P5TRDQS5P8LMOG&a=AUB89&tp_a=AUB89&b=38BQUHLA9XMTKMG1P5TRDQS5P8LMOG&tp_b=38BQUHLA9XMTKMG1P5TRDQS5P8LMOG&c=365799&tp_c=365799"},{"rt":7983,"stimulus":"\n                <p>Student's guess for coin weight: <b style=\"color:Tomato;\">0.75</b></p>\n                <p></b></p>\n                <p>You will now send another set of examples to your student. <b>Remember to take your student's guess into consideration so that you can earn the highest bonus possible!</b> </p>\n                <p>Press any key to continue.</p>\n                ","response":"a","trial_type":"html-keyboard-response","trial_index":10,"time_elapsed":519893,"internal_node_id":"0.0-9.0","params":{"nStudents":24,"maxFlips":30,"completionMinutes":45,"basePay":8,"maxBonus":9,"perTrialBonus":0.5,"perTrialBonusThreshold":0.05,"exampleCost":0.01},"classroomParams":{"A":{"a":1,"b":4},"B":{"a":4,"b":1},"C":{"a":2,"b":8},"D":{"a":8,"b":2}},"conditions":["nonSeqFull","nonSeqPartial","seqNoFeedback","seqFeedback"],"classroomPairings":[["A","B"],["C","D"]],"coinWeights":[0.2,0.5,0.8],"subjectId":"A1P6OXEJ86HQRM","assignmentId":"38BQUHLA9XMTKMG1P5TRDQS5P8LMOG","hitId":"3Z3R5YC0P3915KVY8X6BNRIWSQNFTT","url":"https://gershmanlab.com/experiments/alicia/teaching/experiment/?hitId=3Z3R5YC0P3915KVY8X6BNRIWSQNFTT&workerId=A1P6OXEJ86HQRM&assignmentId=38BQUHLA9XMTKMG1P5TRDQS5P8LMOG&a=AUB89&tp_a=AUB89&b=38BQUHLA9XMTKMG1P5TRDQS5P8LMOG&tp_b=38BQUHLA9XMTKMG1P5TRDQS5P8LMOG&c=365799&tp_c=365799"},{"rt":11240,"response":{"heads":"0","tails":"2"},"type":"response","condition":"seqFeedback","trueTheta":0.5,"classrooms":["C","D"],"studentTrueClassroom":"D","exampleSet":"second","trial_type":"survey-html-form","trial_index":11,"time_elapsed":531135,"internal_node_id":"0.0-10.0-0.0","params":{"nStudents":24,"maxFlips":30,"completionMinutes":45,"basePay":8,"maxBonus":9,"perTrialBonus":0.5,"perTrialBonusThreshold":0.05,"exampleCost":0.01},"classroomParams":{"A":{"a":1,"b":4},"B":{"a":4,"b":1},"C":{"a":2,"b":8},"D":{"a":8,"b":2}},"conditions":["nonSeqFull","nonSeqPartial","seqNoFeedback","seqFeedback"],"classroomPairings":[["A","B"],["C","D"]],"coinWeights":[0.2,0.5,0.8],"subjectId":"A1P6OXEJ86HQRM","assignmentId":"38BQUHLA9XMTKMG1P5TRDQS5P8LMOG","hitId":"3Z3R5YC0P3915KVY8X6BNRIWSQNFTT","url":"https://gershmanlab.com/experiments/alicia/teaching/experiment/?hitId=3Z3R5YC0P3915KVY8X6BNRIWSQNFTT&workerId=A1P6OXEJ86HQRM&assignmentId=38BQUHLA9XMTKMG1P5TRDQS5P8LMOG&a=AUB89&tp_a=AUB89&b=38BQUHLA9XMTKMG1P5TRDQS5P8LMOG&tp_b=38BQUHLA9XMTKMG1P5TRDQS5P8LMOG&c=365799&tp_c=365799","firstResponseHeads":1,"firstResponseTails":1,"secondResponseHeads":0,"secondResponseTails":2,"totalHeads":1,"totalTails":3,"studentIndex":0,"studentTrueHypers":{"a":8,"b":2},"studentGuess":0.6428571428571429,"delta":0.1428571428571429,"bonus":0,"bonusSoFar":0,"totalExamples":4},{"rt":null,"stimulus":"Sending examples to student... ","response":null,"trial_type":"html-keyboard-response","trial_index":12,"time_elapsed":533150,"internal_node_id":"0.0-11.0","params":{"nStudents":24,"maxFlips":30,"completionMinutes":45,"basePay":8,"maxBonus":9,"perTrialBonus":0.5,"perTrialBonusThreshold":0.05,"exampleCost":0.01},"classroomParams":{"A":{"a":1,"b":4},"B":{"a":4,"b":1},"C":{"a":2,"b":8},"D":{"a":8,"b":2}},"conditions":["nonSeqFull","nonSeqPartial","seqNoFeedback","seqFeedback"],"classroomPairings":[["A","B"],["C","D"]],"coinWeights":[0.2,0.5,0.8],"subjectId":"A1P6OXEJ86HQRM","assignmentId":"38BQUHLA9XMTKMG1P5TRDQS5P8LMOG","hitId":"3Z3R5YC0P3915KVY8X6BNRIWSQNFTT","url":"https://gershmanlab.com/experiments/alicia/teaching/experiment/?hitId=3Z3R5YC0P3915KVY8X6BNRIWSQNFTT&workerId=A1P6OXEJ86HQRM&assignmentId=38BQUHLA9XMTKMG1P5TRDQS5P8LMOG&a=AUB89&tp_a=AUB89&b=38BQUHLA9XMTKMG1P5TRDQS5P8LMOG&tp_b=38BQUHLA9XMTKMG1P5TRDQS5P8LMOG&c=365799&tp_c=365799"},{"rt":null,"stimulus":"Examples sent to student! Waiting for student...","response":null,"trial_type":"html-keyboard-response","trial_index":13,"time_elapsed":537152,"internal_node_id":"0.0-12.0","params":{"nStudents":24,"maxFlips":30,"completionMinutes":45,"basePay":8,"maxBonus":9,"perTrialBonus":0.5,"perTrialBonusThreshold":0.05,"exampleCost":0.01},"classroomParams":{"A":{"a":1,"b":4},"B":{"a":4,"b":1},"C":{"a":2,"b":8},"D":{"a":8,"b":2}},"conditions":["nonSeqFull","nonSeqPartial","seqNoFeedback","seqFeedback"],"classroomPairings":[["A","B"],["C","D"]],"coinWeights":[0.2,0.5,0.8],"subjectId":"A1P6OXEJ86HQRM","assignmentId":"38BQUHLA9XMTKMG1P5TRDQS5P8LMOG","hitId":"3Z3R5YC0P3915KVY8X6BNRIWSQNFTT","url":"https://gershmanlab.com/experiments/alicia/teaching/experiment/?hitId=3Z3R5YC0P3915KVY8X6BNRIWSQNFTT&workerId=A1P6OXEJ86HQRM&assignmentId=38BQUHLA9XMTKMG1P5TRDQS5P8LMOG&a=AUB89&tp_a=AUB89&b=38BQUHLA9XMTKMG1P5TRDQS5P8LMOG&tp_b=38BQUHLA9XMTKMG1P5TRDQS5P8LMOG&c=365799&tp_c=365799"},{"rt":6331,"stimulus":"\n                <p>Student 1's first guess for coin weight: <b style=\"color:Tomato\";>0.75</b></p>\n                <p>Student 1's second guess for coin weight: <b style=\"color:Tomato\";>0.64</b></p>\n                <p>You received a bonus of <b>$0.00</b> based on the student's second guess.</p>\n                <p>Total bonus so far: <b>$0.00</b></p>\n                <p>Press any key to continue.</p>\n                ","response":"s","trial_type":"html-keyboard-response","trial_index":14,"time_elapsed":543484,"internal_node_id":"0.0-13.0","params":{"nStudents":24,"maxFlips":30,"completionMinutes":45,"basePay":8,"maxBonus":9,"perTrialBonus":0.5,"perTrialBonusThreshold":0.05,"exampleCost":0.01},"classroomParams":{"A":{"a":1,"b":4},"B":{"a":4,"b":1},"C":{"a":2,"b":8},"D":{"a":8,"b":2}},"conditions":["nonSeqFull","nonSeqPartial","seqNoFeedback","seqFeedback"],"classroomPairings":[["A","B"],["C","D"]],"coinWeights":[0.2,0.5,0.8],"subjectId":"A1P6OXEJ86HQRM","assignmentId":"38BQUHLA9XMTKMG1P5TRDQS5P8LMOG","hitId":"3Z3R5YC0P3915KVY8X6BNRIWSQNFTT","url":"https://gershmanlab.com/experiments/alicia/teaching/experiment/?hitId=3Z3R5YC0P3915KVY8X6BNRIWSQNFTT&workerId=A1P6OXEJ86HQRM&assignmentId=38BQUHLA9XMTKMG1P5TRDQS5P8LMOG&a=AUB89&tp_a=AUB89&b=38BQUHLA9XMTKMG1P5TRDQS5P8LMOG&tp_b=38BQUHLA9XMTKMG1P5TRDQS5P8LMOG&c=365799&tp_c=365799"},{"rt":null,"stimulus":"<div style=\"font-size:60px;\">Next student</div>","response":null,"trial_type":"html-keyboard-response","trial_index":15,"time_elapsed":546486,"internal_node_id":"0.0-14.0-0.0","params":{"nStudents":24,"maxFlips":30,"completionMinutes":45,"basePay":8,"maxBonus":9,"perTrialBonus":0.5,"perTrialBonusThreshold":0.05,"exampleCost":0.01},"classroomParams":{"A":{"a":1,"b":4},"B":{"a":4,"b":1},"C":{"a":2,"b":8},"D":{"a":8,"b":2}},"conditions":["nonSeqFull","nonSeqPartial","seqNoFeedback","seqFeedback"],"classroomPairings":[["A","B"],["C","D"]],"coinWeights":[0.2,0.5,0.8],"subjectId":"A1P6OXEJ86HQRM","assignmentId":"38BQUHLA9XMTKMG1P5TRDQS5P8LMOG","hitId":"3Z3R5YC0P3915KVY8X6BNRIWSQNFTT","url":"https://gershmanlab.com/experiments/alicia/teaching/experiment/?hitId=3Z3R5YC0P3915KVY8X6BNRIWSQNFTT&workerId=A1P6OXEJ86HQRM&assignmentId=38BQUHLA9XMTKMG1P5TRDQS5P8LMOG&a=AUB89&tp_a=AUB89&b=38BQUHLA9XMTKMG1P5TRDQS5P8LMOG&tp_b=38BQUHLA9XMTKMG1P5TRDQS5P8LMOG&c=365799&tp_c=365799"},{"rt":10708,"stimulus":"\n            <h4 style=\"color:Orange;\">Student 2</h4>\n            <h2>The weight of your coin is <b style=\"color:Tomato;\">0.8</b>.</h2>\n            <p>In this block, you will be giving <b>two</b> sets of examples to Student 2.</p>\n                <p>You will see the student's guess after the first set of examples. You will also receive feedback at the end of the block.</p>\n            <p>To earn the highest bonus, you will have to <b>take into consideration the student's guess</b> when you choose your second set of examples.</p>","response":0,"trial_type":"html-button-response","trial_index":16,"time_elapsed":557195,"internal_node_id":"0.0-15.0","params":{"nStudents":24,"maxFlips":30,"completionMinutes":45,"basePay":8,"maxBonus":9,"perTrialBonus":0.5,"perTrialBonusThreshold":0.05,"exampleCost":0.01},"classroomParams":{"A":{"a":1,"b":4},"B":{"a":4,"b":1},"C":{"a":2,"b":8},"D":{"a":8,"b":2}},"conditions":["nonSeqFull","nonSeqPartial","seqNoFeedback","seqFeedback"],"classroomPairings":[["A","B"],["C","D"]],"coinWeights":[0.2,0.5,0.8],"subjectId":"A1P6OXEJ86HQRM","assignmentId":"38BQUHLA9XMTKMG1P5TRDQS5P8LMOG","hitId":"3Z3R5YC0P3915KVY8X6BNRIWSQNFTT","url":"https://gershmanlab.com/experiments/alicia/teaching/experiment/?hitId=3Z3R5YC0P3915KVY8X6BNRIWSQNFTT&workerId=A1P6OXEJ86HQRM&assignmentId=38BQUHLA9XMTKMG1P5TRDQS5P8LMOG&a=AUB89&tp_a=AUB89&b=38BQUHLA9XMTKMG1P5TRDQS5P8LMOG&tp_b=38BQUHLA9XMTKMG1P5TRDQS5P8LMOG&c=365799&tp_c=365799"},{"rt":17036,"response":{"heads":"4","tails":"0"},"type":"response","condition":"seqFeedback","trueTheta":0.8,"classrooms":["C","D"],"studentTrueClassroom":"D","exampleSet":"first","trial_type":"survey-html-form","trial_index":17,"time_elapsed":574231,"internal_node_id":"0.0-16.0-0.0","params":{"nStudents":24,"maxFlips":30,"completionMinutes":45,"basePay":8,"maxBonus":9,"perTrialBonus":0.5,"perTrialBonusThreshold":0.05,"exampleCost":0.01},"classroomParams":{"A":{"a":1,"b":4},"B":{"a":4,"b":1},"C":{"a":2,"b":8},"D":{"a":8,"b":2}},"conditions":["nonSeqFull","nonSeqPartial","seqNoFeedback","seqFeedback"],"classroomPairings":[["A","B"],["C","D"]],"coinWeights":[0.2,0.5,0.8],"subjectId":"A1P6OXEJ86HQRM","assignmentId":"38BQUHLA9XMTKMG1P5TRDQS5P8LMOG","hitId":"3Z3R5YC0P3915KVY8X6BNRIWSQNFTT","url":"https://gershmanlab.com/experiments/alicia/teaching/experiment/?hitId=3Z3R5YC0P3915KVY8X6BNRIWSQNFTT&workerId=A1P6OXEJ86HQRM&assignmentId=38BQUHLA9XMTKMG1P5TRDQS5P8LMOG&a=AUB89&tp_a=AUB89&b=38BQUHLA9XMTKMG1P5TRDQS5P8LMOG&tp_b=38BQUHLA9XMTKMG1P5TRDQS5P8LMOG&c=365799&tp_c=365799","heads":4,"tails":0,"studentIndex":1,"studentTrueHypers":{"a":8,"b":2},"studentGuess":0.8571428571428571,"delta":0.05714285714285705,"totalExamples":4,"bonusSoFar":0},{"rt":null,"stimulus":"Sending examples to student... ","response":null,"trial_type":"html-keyboard-response","trial_index":18,"time_elapsed":575484,"internal_node_id":"0.0-17.0","params":{"nStudents":24,"maxFlips":30,"completionMinutes":45,"basePay":8,"maxBonus":9,"perTrialBonus":0.5,"perTrialBonusThreshold":0.05,"exampleCost":0.01},"classroomParams":{"A":{"a":1,"b":4},"B":{"a":4,"b":1},"C":{"a":2,"b":8},"D":{"a":8,"b":2}},"conditions":["nonSeqFull","nonSeqPartial","seqNoFeedback","seqFeedback"],"classroomPairings":[["A","B"],["C","D"]],"coinWeights":[0.2,0.5,0.8],"subjectId":"A1P6OXEJ86HQRM","assignmentId":"38BQUHLA9XMTKMG1P5TRDQS5P8LMOG","hitId":"3Z3R5YC0P3915KVY8X6BNRIWSQNFTT","url":"https://gershmanlab.com/experiments/alicia/teaching/experiment/?hitId=3Z3R5YC0P3915KVY8X6BNRIWSQNFTT&workerId=A1P6OXEJ86HQRM&assignmentId=38BQUHLA9XMTKMG1P5TRDQS5P8LMOG&a=AUB89&tp_a=AUB89&b=38BQUHLA9XMTKMG1P5TRDQS5P8LMOG&tp_b=38BQUHLA9XMTKMG1P5TRDQS5P8LMOG&c=365799&tp_c=365799"},{"rt":null,"stimulus":"Examples sent to student! Waiting for student...","response":null,"trial_type":"html-keyboard-response","trial_index":19,"time_elapsed":581486,"internal_node_id":"0.0-18.0","params":{"nStudents":24,"maxFlips":30,"completionMinutes":45,"basePay":8,"maxBonus":9,"perTrialBonus":0.5,"perTrialBonusThreshold":0.05,"exampleCost":0.01},"classroomParams":{"A":{"a":1,"b":4},"B":{"a":4,"b":1},"C":{"a":2,"b":8},"D":{"a":8,"b":2}},"conditions":["nonSeqFull","nonSeqPartial","seqNoFeedback","seqFeedback"],"classroomPairings":[["A","B"],["C","D"]],"coinWeights":[0.2,0.5,0.8],"subjectId":"A1P6OXEJ86HQRM","assignmentId":"38BQUHLA9XMTKMG1P5TRDQS5P8LMOG","hitId":"3Z3R5YC0P3915KVY8X6BNRIWSQNFTT","url":"https://gershmanlab.com/experiments/alicia/teaching/experiment/?hitId=3Z3R5YC0P3915KVY8X6BNRIWSQNFTT&workerId=A1P6OXEJ86HQRM&assignmentId=38BQUHLA9XMTKMG1P5TRDQS5P8LMOG&a=AUB89&tp_a=AUB89&b=38BQUHLA9XMTKMG1P5TRDQS5P8LMOG&tp_b=38BQUHLA9XMTKMG1P5TRDQS5P8LMOG&c=365799&tp_c=365799"},{"rt":6441,"stimulus":"\n                <p>Student's guess for coin weight: <b style=\"color:Tomato;\">0.86</b></p>\n                <p></b></p>\n                <p>You will now send another set of examples to your student. <b>Remember to take your student's guess into consideration so that you can earn the highest bonus possible!</b> </p>\n                <p>Press any key to continue.</p>\n                ","response":"s","trial_type":"html-keyboard-response","trial_index":20,"time_elapsed":587927,"internal_node_id":"0.0-19.0","params":{"nStudents":24,"maxFlips":30,"completionMinutes":45,"basePay":8,"maxBonus":9,"perTrialBonus":0.5,"perTrialBonusThreshold":0.05,"exampleCost":0.01},"classroomParams":{"A":{"a":1,"b":4},"B":{"a":4,"b":1},"C":{"a":2,"b":8},"D":{"a":8,"b":2}},"conditions":["nonSeqFull","nonSeqPartial","seqNoFeedback","seqFeedback"],"classroomPairings":[["A","B"],["C","D"]],"coinWeights":[0.2,0.5,0.8],"subjectId":"A1P6OXEJ86HQRM","assignmentId":"38BQUHLA9XMTKMG1P5TRDQS5P8LMOG","hitId":"3Z3R5YC0P3915KVY8X6BNRIWSQNFTT","url":"https://gershmanlab.com/experiments/alicia/teaching/experiment/?hitId=3Z3R5YC0P3915KVY8X6BNRIWSQNFTT&workerId=A1P6OXEJ86HQRM&assignmentId=38BQUHLA9XMTKMG1P5TRDQS5P8LMOG&a=AUB89&tp_a=AUB89&b=38BQUHLA9XMTKMG1P5TRDQS5P8LMOG&tp_b=38BQUHLA9XMTKMG1P5TRDQS5P8LMOG&c=365799&tp_c=365799"},{"rt":18316,"response":{"heads":"2","tails":"1"},"type":"response","condition":"seqFeedback","trueTheta":0.8,"classrooms":["C","D"],"studentTrueClassroom":"D","exampleSet":"second","trial_type":"survey-html-form","trial_index":21,"time_elapsed":606244,"internal_node_id":"0.0-20.0-0.0","params":{"nStudents":24,"maxFlips":30,"completionMinutes":45,"basePay":8,"maxBonus":9,"perTrialBonus":0.5,"perTrialBonusThreshold":0.05,"exampleCost":0.01},"classroomParams":{"A":{"a":1,"b":4},"B":{"a":4,"b":1},"C":{"a":2,"b":8},"D":{"a":8,"b":2}},"conditions":["nonSeqFull","nonSeqPartial","seqNoFeedback","seqFeedback"],"classroomPairings":[["A","B"],["C","D"]],"coinWeights":[0.2,0.5,0.8],"subjectId":"A1P6OXEJ86HQRM","assignmentId":"38BQUHLA9XMTKMG1P5TRDQS5P8LMOG","hitId":"3Z3R5YC0P3915KVY8X6BNRIWSQNFTT","url":"https://gershmanlab.com/experiments/alicia/teaching/experiment/?hitId=3Z3R5YC0P3915KVY8X6BNRIWSQNFTT&workerId=A1P6OXEJ86HQRM&assignmentId=38BQUHLA9XMTKMG1P5TRDQS5P8LMOG&a=AUB89&tp_a=AUB89&b=38BQUHLA9XMTKMG1P5TRDQS5P8LMOG&tp_b=38BQUHLA9XMTKMG1P5TRDQS5P8LMOG&c=365799&tp_c=365799","firstResponseHeads":4,"firstResponseTails":0,"secondResponseHeads":2,"secondResponseTails":1,"totalHeads":6,"totalTails":1,"studentIndex":1,"studentTrueHypers":{"a":8,"b":2},"studentGuess":0.8235294117647058,"delta":0.0235294117647058,"bonus":0.43,"bonusSoFar":0.43,"totalExamples":7},{"rt":null,"stimulus":"Sending examples to student... ","response":null,"trial_type":"html-keyboard-response","trial_index":22,"time_elapsed":607500,"internal_node_id":"0.0-21.0","params":{"nStudents":24,"maxFlips":30,"completionMinutes":45,"basePay":8,"maxBonus":9,"perTrialBonus":0.5,"perTrialBonusThreshold":0.05,"exampleCost":0.01},"classroomParams":{"A":{"a":1,"b":4},"B":{"a":4,"b":1},"C":{"a":2,"b":8},"D":{"a":8,"b":2}},"conditions":["nonSeqFull","nonSeqPartial","seqNoFeedback","seqFeedback"],"classroomPairings":[["A","B"],["C","D"]],"coinWeights":[0.2,0.5,0.8],"subjectId":"A1P6OXEJ86HQRM","assignmentId":"38BQUHLA9XMTKMG1P5TRDQS5P8LMOG","hitId":"3Z3R5YC0P3915KVY8X6BNRIWSQNFTT","url":"https://gershmanlab.com/experiments/alicia/teaching/experiment/?hitId=3Z3R5YC0P3915KVY8X6BNRIWSQNFTT&workerId=A1P6OXEJ86HQRM&assignmentId=38BQUHLA9XMTKMG1P5TRDQS5P8LMOG&a=AUB89&tp_a=AUB89&b=38BQUHLA9XMTKMG1P5TRDQS5P8LMOG&tp_b=38BQUHLA9XMTKMG1P5TRDQS5P8LMOG&c=365799&tp_c=365799"},{"rt":null,"stimulus":"Examples sent to student! Waiting for student...","response":null,"trial_type":"html-keyboard-response","trial_index":23,"time_elapsed":613001,"internal_node_id":"0.0-22.0","params":{"nStudents":24,"maxFlips":30,"completionMinutes":45,"basePay":8,"maxBonus":9,"perTrialBonus":0.5,"perTrialBonusThreshold":0.05,"exampleCost":0.01},"classroomParams":{"A":{"a":1,"b":4},"B":{"a":4,"b":1},"C":{"a":2,"b":8},"D":{"a":8,"b":2}},"conditions":["nonSeqFull","nonSeqPartial","seqNoFeedback","seqFeedback"],"classroomPairings":[["A","B"],["C","D"]],"coinWeights":[0.2,0.5,0.8],"subjectId":"A1P6OXEJ86HQRM","assignmentId":"38BQUHLA9XMTKMG1P5TRDQS5P8LMOG","hitId":"3Z3R5YC0P3915KVY8X6BNRIWSQNFTT","url":"https://gershmanlab.com/experiments/alicia/teaching/experiment/?hitId=3Z3R5YC0P3915KVY8X6BNRIWSQNFTT&workerId=A1P6OXEJ86HQRM&assignmentId=38BQUHLA9XMTKMG1P5TRDQS5P8LMOG&a=AUB89&tp_a=AUB89&b=38BQUHLA9XMTKMG1P5TRDQS5P8LMOG&tp_b=38BQUHLA9XMTKMG1P5TRDQS5P8LMOG&c=365799&tp_c=365799"},{"rt":7094,"stimulus":"\n                <p>Student 2's first guess for coin weight: <b style=\"color:Tomato\";>0.86</b></p>\n                <p>Student 2's second guess for coin weight: <b style=\"color:Tomato\";>0.82</b></p>\n                <p>You received a bonus of <b>$0.43</b> based on the student's second guess.</p>\n                <p>Total bonus so far: <b>$0.43</b></p>\n                <p>Press any key to continue.</p>\n                ","response":"d","trial_type":"html-keyboard-response","trial_index":24,"time_elapsed":620096,"internal_node_id":"0.0-23.0","params":{"nStudents":24,"maxFlips":30,"completionMinutes":45,"basePay":8,"maxBonus":9,"perTrialBonus":0.5,"perTrialBonusThreshold":0.05,"exampleCost":0.01},"classroomParams":{"A":{"a":1,"b":4},"B":{"a":4,"b":1},"C":{"a":2,"b":8},"D":{"a":8,"b":2}},"conditions":["nonSeqFull","nonSeqPartial","seqNoFeedback","seqFeedback"],"classroomPairings":[["A","B"],["C","D"]],"coinWeights":[0.2,0.5,0.8],"subjectId":"A1P6OXEJ86HQRM","assignmentId":"38BQUHLA9XMTKMG1P5TRDQS5P8LMOG","hitId":"3Z3R5YC0P3915KVY8X6BNRIWSQNFTT","url":"https://gershmanlab.com/experiments/alicia/teaching/experiment/?hitId=3Z3R5YC0P3915KVY8X6BNRIWSQNFTT&workerId=A1P6OXEJ86HQRM&assignmentId=38BQUHLA9XMTKMG1P5TRDQS5P8LMOG&a=AUB89&tp_a=AUB89&b=38BQUHLA9XMTKMG1P5TRDQS5P8LMOG&tp_b=38BQUHLA9XMTKMG1P5TRDQS5P8LMOG&c=365799&tp_c=365799"},{"rt":null,"stimulus":"<div style=\"font-size:60px;\">Next student</div>","response":null,"trial_type":"html-keyboard-response","trial_index":25,"time_elapsed":622347,"internal_node_id":"0.0-24.0-0.0","params":{"nStudents":24,"maxFlips":30,"completionMinutes":45,"basePay":8,"maxBonus":9,"perTrialBonus":0.5,"perTrialBonusThreshold":0.05,"exampleCost":0.01},"classroomParams":{"A":{"a":1,"b":4},"B":{"a":4,"b":1},"C":{"a":2,"b":8},"D":{"a":8,"b":2}},"conditions":["nonSeqFull","nonSeqPartial","seqNoFeedback","seqFeedback"],"classroomPairings":[["A","B"],["C","D"]],"coinWeights":[0.2,0.5,0.8],"subjectId":"A1P6OXEJ86HQRM","assignmentId":"38BQUHLA9XMTKMG1P5TRDQS5P8LMOG","hitId":"3Z3R5YC0P3915KVY8X6BNRIWSQNFTT","url":"https://gershmanlab.com/experiments/alicia/teaching/experiment/?hitId=3Z3R5YC0P3915KVY8X6BNRIWSQNFTT&workerId=A1P6OXEJ86HQRM&assignmentId=38BQUHLA9XMTKMG1P5TRDQS5P8LMOG&a=AUB89&tp_a=AUB89&b=38BQUHLA9XMTKMG1P5TRDQS5P8LMOG&tp_b=38BQUHLA9XMTKMG1P5TRDQS5P8LMOG&c=365799&tp_c=365799"},{"rt":4198,"stimulus":"\n            <h4 style=\"color:Orange;\">Student 3</h4>\n            <h2>The weight of your coin is <b style=\"color:Tomato;\">0.2</b>.</h2>\n            <p>In this block, you will be giving <b>two</b> sets of examples to Student 3.</p>\n                <p>You will receive feedback at the end of the block.</p>\n            <p></p>","response":0,"trial_type":"html-button-response","trial_index":26,"time_elapsed":626547,"internal_node_id":"0.0-25.0","params":{"nStudents":24,"maxFlips":30,"completionMinutes":45,"basePay":8,"maxBonus":9,"perTrialBonus":0.5,"perTrialBonusThreshold":0.05,"exampleCost":0.01},"classroomParams":{"A":{"a":1,"b":4},"B":{"a":4,"b":1},"C":{"a":2,"b":8},"D":{"a":8,"b":2}},"conditions":["nonSeqFull","nonSeqPartial","seqNoFeedback","seqFeedback"],"classroomPairings":[["A","B"],["C","D"]],"coinWeights":[0.2,0.5,0.8],"subjectId":"A1P6OXEJ86HQRM","assignmentId":"38BQUHLA9XMTKMG1P5TRDQS5P8LMOG","hitId":"3Z3R5YC0P3915KVY8X6BNRIWSQNFTT","url":"https://gershmanlab.com/experiments/alicia/teaching/experiment/?hitId=3Z3R5YC0P3915KVY8X6BNRIWSQNFTT&workerId=A1P6OXEJ86HQRM&assignmentId=38BQUHLA9XMTKMG1P5TRDQS5P8LMOG&a=AUB89&tp_a=AUB89&b=38BQUHLA9XMTKMG1P5TRDQS5P8LMOG&tp_b=38BQUHLA9XMTKMG1P5TRDQS5P8LMOG&c=365799&tp_c=365799"},{"rt":8237,"response":{"heads":"0","tails":"4"},"type":"response","condition":"seqNoFeedback","trueTheta":0.2,"classrooms":["C","D"],"studentTrueClassroom":"C","exampleSet":"first","trial_type":"survey-html-form","trial_index":27,"time_elapsed":634785,"internal_node_id":"0.0-26.0-0.0","params":{"nStudents":24,"maxFlips":30,"completionMinutes":45,"basePay":8,"maxBonus":9,"perTrialBonus":0.5,"perTrialBonusThreshold":0.05,"exampleCost":0.01},"classroomParams":{"A":{"a":1,"b":4},"B":{"a":4,"b":1},"C":{"a":2,"b":8},"D":{"a":8,"b":2}},"conditions":["nonSeqFull","nonSeqPartial","seqNoFeedback","seqFeedback"],"classroomPairings":[["A","B"],["C","D"]],"coinWeights":[0.2,0.5,0.8],"subjectId":"A1P6OXEJ86HQRM","assignmentId":"38BQUHLA9XMTKMG1P5TRDQS5P8LMOG","hitId":"3Z3R5YC0P3915KVY8X6BNRIWSQNFTT","url":"https://gershmanlab.com/experiments/alicia/teaching/experiment/?hitId=3Z3R5YC0P3915KVY8X6BNRIWSQNFTT&workerId=A1P6OXEJ86HQRM&assignmentId=38BQUHLA9XMTKMG1P5TRDQS5P8LMOG&a=AUB89&tp_a=AUB89&b=38BQUHLA9XMTKMG1P5TRDQS5P8LMOG&tp_b=38BQUHLA9XMTKMG1P5TRDQS5P8LMOG&c=365799&tp_c=365799","heads":0,"tails":4,"studentIndex":2,"studentTrueHypers":{"a":2,"b":8},"studentGuess":0.14285714285714285,"delta":0.05714285714285716,"totalExamples":4,"bonusSoFar":0.43},{"rt":null,"stimulus":"Sending examples to student... ","response":null,"trial_type":"html-keyboard-response","trial_index":28,"time_elapsed":636036,"internal_node_id":"0.0-27.0","params":{"nStudents":24,"maxFlips":30,"completionMinutes":45,"basePay":8,"maxBonus":9,"perTrialBonus":0.5,"perTrialBonusThreshold":0.05,"exampleCost":0.01},"classroomParams":{"A":{"a":1,"b":4},"B":{"a":4,"b":1},"C":{"a":2,"b":8},"D":{"a":8,"b":2}},"conditions":["nonSeqFull","nonSeqPartial","seqNoFeedback","seqFeedback"],"classroomPairings":[["A","B"],["C","D"]],"coinWeights":[0.2,0.5,0.8],"subjectId":"A1P6OXEJ86HQRM","assignmentId":"38BQUHLA9XMTKMG1P5TRDQS5P8LMOG","hitId":"3Z3R5YC0P3915KVY8X6BNRIWSQNFTT","url":"https://gershmanlab.com/experiments/alicia/teaching/experiment/?hitId=3Z3R5YC0P3915KVY8X6BNRIWSQNFTT&workerId=A1P6OXEJ86HQRM&assignmentId=38BQUHLA9XMTKMG1P5TRDQS5P8LMOG&a=AUB89&tp_a=AUB89&b=38BQUHLA9XMTKMG1P5TRDQS5P8LMOG&tp_b=38BQUHLA9XMTKMG1P5TRDQS5P8LMOG&c=365799&tp_c=365799"},{"rt":null,"stimulus":"Examples sent to student! Waiting for student...","response":null,"trial_type":"html-keyboard-response","trial_index":29,"time_elapsed":640546,"internal_node_id":"0.0-28.0","params":{"nStudents":24,"maxFlips":30,"completionMinutes":45,"basePay":8,"maxBonus":9,"perTrialBonus":0.5,"perTrialBonusThreshold":0.05,"exampleCost":0.01},"classroomParams":{"A":{"a":1,"b":4},"B":{"a":4,"b":1},"C":{"a":2,"b":8},"D":{"a":8,"b":2}},"conditions":["nonSeqFull","nonSeqPartial","seqNoFeedback","seqFeedback"],"classroomPairings":[["A","B"],["C","D"]],"coinWeights":[0.2,0.5,0.8],"subjectId":"A1P6OXEJ86HQRM","assignmentId":"38BQUHLA9XMTKMG1P5TRDQS5P8LMOG","hitId":"3Z3R5YC0P3915KVY8X6BNRIWSQNFTT","url":"https://gershmanlab.com/experiments/alicia/teaching/experiment/?hitId=3Z3R5YC0P3915KVY8X6BNRIWSQNFTT&workerId=A1P6OXEJ86HQRM&assignmentId=38BQUHLA9XMTKMG1P5TRDQS5P8LMOG&a=AUB89&tp_a=AUB89&b=38BQUHLA9XMTKMG1P5TRDQS5P8LMOG&tp_b=38BQUHLA9XMTKMG1P5TRDQS5P8LMOG&c=365799&tp_c=365799"},{"rt":18101,"response":{"heads":"1","tails":"4"},"type":"response","condition":"seqNoFeedback","trueTheta":0.2,"classrooms":["C","D"],"studentTrueClassroom":"C","exampleSet":"second","trial_type":"survey-html-form","trial_index":30,"time_elapsed":658649,"internal_node_id":"0.0-29.0-0.0","params":{"nStudents":24,"maxFlips":30,"completionMinutes":45,"basePay":8,"maxBonus":9,"perTrialBonus":0.5,"perTrialBonusThreshold":0.05,"exampleCost":0.01},"classroomParams":{"A":{"a":1,"b":4},"B":{"a":4,"b":1},"C":{"a":2,"b":8},"D":{"a":8,"b":2}},"conditions":["nonSeqFull","nonSeqPartial","seqNoFeedback","seqFeedback"],"classroomPairings":[["A","B"],["C","D"]],"coinWeights":[0.2,0.5,0.8],"subjectId":"A1P6OXEJ86HQRM","assignmentId":"38BQUHLA9XMTKMG1P5TRDQS5P8LMOG","hitId":"3Z3R5YC0P3915KVY8X6BNRIWSQNFTT","url":"https://gershmanlab.com/experiments/alicia/teaching/experiment/?hitId=3Z3R5YC0P3915KVY8X6BNRIWSQNFTT&workerId=A1P6OXEJ86HQRM&assignmentId=38BQUHLA9XMTKMG1P5TRDQS5P8LMOG&a=AUB89&tp_a=AUB89&b=38BQUHLA9XMTKMG1P5TRDQS5P8LMOG&tp_b=38BQUHLA9XMTKMG1P5TRDQS5P8LMOG&c=365799&tp_c=365799","firstResponseHeads":0,"firstResponseTails":4,"secondResponseHeads":1,"secondResponseTails":4,"totalHeads":1,"totalTails":8,"studentIndex":2,"studentTrueHypers":{"a":2,"b":8},"studentGuess":0.15789473684210525,"delta":0.04210526315789476,"bonus":0.41,"bonusSoFar":0.84,"totalExamples":9},{"rt":null,"stimulus":"Sending examples to student... ","response":null,"trial_type":"html-keyboard-response","trial_index":31,"time_elapsed":660151,"internal_node_id":"0.0-30.0","params":{"nStudents":24,"maxFlips":30,"completionMinutes":45,"basePay":8,"maxBonus":9,"perTrialBonus":0.5,"perTrialBonusThreshold":0.05,"exampleCost":0.01},"classroomParams":{"A":{"a":1,"b":4},"B":{"a":4,"b":1},"C":{"a":2,"b":8},"D":{"a":8,"b":2}},"conditions":["nonSeqFull","nonSeqPartial","seqNoFeedback","seqFeedback"],"classroomPairings":[["A","B"],["C","D"]],"coinWeights":[0.2,0.5,0.8],"subjectId":"A1P6OXEJ86HQRM","assignmentId":"38BQUHLA9XMTKMG1P5TRDQS5P8LMOG","hitId":"3Z3R5YC0P3915KVY8X6BNRIWSQNFTT","url":"https://gershmanlab.com/experiments/alicia/teaching/experiment/?hitId=3Z3R5YC0P3915KVY8X6BNRIWSQNFTT&workerId=A1P6OXEJ86HQRM&assignmentId=38BQUHLA9XMTKMG1P5TRDQS5P8LMOG&a=AUB89&tp_a=AUB89&b=38BQUHLA9XMTKMG1P5TRDQS5P8LMOG&tp_b=38BQUHLA9XMTKMG1P5TRDQS5P8LMOG&c=365799&tp_c=365799"},{"rt":null,"stimulus":"Examples sent to student! Waiting for student...","response":null,"trial_type":"html-keyboard-response","trial_index":32,"time_elapsed":665159,"internal_node_id":"0.0-31.0","params":{"nStudents":24,"maxFlips":30,"completionMinutes":45,"basePay":8,"maxBonus":9,"perTrialBonus":0.5,"perTrialBonusThreshold":0.05,"exampleCost":0.01},"classroomParams":{"A":{"a":1,"b":4},"B":{"a":4,"b":1},"C":{"a":2,"b":8},"D":{"a":8,"b":2}},"conditions":["nonSeqFull","nonSeqPartial","seqNoFeedback","seqFeedback"],"classroomPairings":[["A","B"],["C","D"]],"coinWeights":[0.2,0.5,0.8],"subjectId":"A1P6OXEJ86HQRM","assignmentId":"38BQUHLA9XMTKMG1P5TRDQS5P8LMOG","hitId":"3Z3R5YC0P3915KVY8X6BNRIWSQNFTT","url":"https://gershmanlab.com/experiments/alicia/teaching/experiment/?hitId=3Z3R5YC0P3915KVY8X6BNRIWSQNFTT&workerId=A1P6OXEJ86HQRM&assignmentId=38BQUHLA9XMTKMG1P5TRDQS5P8LMOG&a=AUB89&tp_a=AUB89&b=38BQUHLA9XMTKMG1P5TRDQS5P8LMOG&tp_b=38BQUHLA9XMTKMG1P5TRDQS5P8LMOG&c=365799&tp_c=365799"},{"rt":8450,"stimulus":"\n                <p>Student 3's first guess for coin weight: <b style=\"color:Tomato\";>0.14</b></p>\n                <p>Student 3's second guess for coin weight: <b style=\"color:Tomato\";>0.16</b></p>\n                <p>You received a bonus of <b>$0.41</b> based on the student's second guess.</p>\n                <p>Total bonus so far: <b>$0.84</b></p>\n                <p>Press any key to continue.</p>\n                ","response":"d","trial_type":"html-keyboard-response","trial_index":33,"time_elapsed":673610,"internal_node_id":"0.0-32.0","params":{"nStudents":24,"maxFlips":30,"completionMinutes":45,"basePay":8,"maxBonus":9,"perTrialBonus":0.5,"perTrialBonusThreshold":0.05,"exampleCost":0.01},"classroomParams":{"A":{"a":1,"b":4},"B":{"a":4,"b":1},"C":{"a":2,"b":8},"D":{"a":8,"b":2}},"conditions":["nonSeqFull","nonSeqPartial","seqNoFeedback","seqFeedback"],"classroomPairings":[["A","B"],["C","D"]],"coinWeights":[0.2,0.5,0.8],"subjectId":"A1P6OXEJ86HQRM","assignmentId":"38BQUHLA9XMTKMG1P5TRDQS5P8LMOG","hitId":"3Z3R5YC0P3915KVY8X6BNRIWSQNFTT","url":"https://gershmanlab.com/experiments/alicia/teaching/experiment/?hitId=3Z3R5YC0P3915KVY8X6BNRIWSQNFTT&workerId=A1P6OXEJ86HQRM&assignmentId=38BQUHLA9XMTKMG1P5TRDQS5P8LMOG&a=AUB89&tp_a=AUB89&b=38BQUHLA9XMTKMG1P5TRDQS5P8LMOG&tp_b=38BQUHLA9XMTKMG1P5TRDQS5P8LMOG&c=365799&tp_c=365799"},{"rt":null,"stimulus":"<div style=\"font-size:60px;\">Next student</div>","response":null,"trial_type":"html-keyboard-response","trial_index":34,"time_elapsed":676125,"internal_node_id":"0.0-33.0-0.0","params":{"nStudents":24,"maxFlips":30,"completionMinutes":45,"basePay":8,"maxBonus":9,"perTrialBonus":0.5,"perTrialBonusThreshold":0.05,"exampleCost":0.01},"classroomParams":{"A":{"a":1,"b":4},"B":{"a":4,"b":1},"C":{"a":2,"b":8},"D":{"a":8,"b":2}},"conditions":["nonSeqFull","nonSeqPartial","seqNoFeedback","seqFeedback"],"classroomPairings":[["A","B"],["C","D"]],"coinWeights":[0.2,0.5,0.8],"subjectId":"A1P6OXEJ86HQRM","assignmentId":"38BQUHLA9XMTKMG1P5TRDQS5P8LMOG","hitId":"3Z3R5YC0P3915KVY8X6BNRIWSQNFTT","url":"https://gershmanlab.com/experiments/alicia/teaching/experiment/?hitId=3Z3R5YC0P3915KVY8X6BNRIWSQNFTT&workerId=A1P6OXEJ86HQRM&assignmentId=38BQUHLA9XMTKMG1P5TRDQS5P8LMOG&a=AUB89&tp_a=AUB89&b=38BQUHLA9XMTKMG1P5TRDQS5P8LMOG&tp_b=38BQUHLA9XMTKMG1P5TRDQS5P8LMOG&c=365799&tp_c=365799"},{"rt":3302,"stimulus":"\n            <h4 style=\"color:Orange;\">Student 4</h4>\n            <h2>The weight of your coin is <b style=\"color:Tomato;\">0.8</b>.</h2>\n            <p>In this block, you will be giving <b>two</b> sets of examples to Student 4.</p>\n                <p>You will receive feedback at the end of the block.</p>\n            <p></p>","response":0,"trial_type":"html-button-response","trial_index":35,"time_elapsed":679429,"internal_node_id":"0.0-34.0","params":{"nStudents":24,"maxFlips":30,"completionMinutes":45,"basePay":8,"maxBonus":9,"perTrialBonus":0.5,"perTrialBonusThreshold":0.05,"exampleCost":0.01},"classroomParams":{"A":{"a":1,"b":4},"B":{"a":4,"b":1},"C":{"a":2,"b":8},"D":{"a":8,"b":2}},"conditions":["nonSeqFull","nonSeqPartial","seqNoFeedback","seqFeedback"],"classroomPairings":[["A","B"],["C","D"]],"coinWeights":[0.2,0.5,0.8],"subjectId":"A1P6OXEJ86HQRM","assignmentId":"38BQUHLA9XMTKMG1P5TRDQS5P8LMOG","hitId":"3Z3R5YC0P3915KVY8X6BNRIWSQNFTT","url":"https://gershmanlab.com/experiments/alicia/teaching/experiment/?hitId=3Z3R5YC0P3915KVY8X6BNRIWSQNFTT&workerId=A1P6OXEJ86HQRM&assignmentId=38BQUHLA9XMTKMG1P5TRDQS5P8LMOG&a=AUB89&tp_a=AUB89&b=38BQUHLA9XMTKMG1P5TRDQS5P8LMOG&tp_b=38BQUHLA9XMTKMG1P5TRDQS5P8LMOG&c=365799&tp_c=365799"},{"rt":9172,"response":{"heads":"4","tails":"0"},"type":"response","condition":"seqNoFeedback","trueTheta":0.8,"classrooms":["A","B"],"studentTrueClassroom":"A","exampleSet":"first","trial_type":"survey-html-form","trial_index":36,"time_elapsed":688602,"internal_node_id":"0.0-35.0-0.0","params":{"nStudents":24,"maxFlips":30,"completionMinutes":45,"basePay":8,"maxBonus":9,"perTrialBonus":0.5,"perTrialBonusThreshold":0.05,"exampleCost":0.01},"classroomParams":{"A":{"a":1,"b":4},"B":{"a":4,"b":1},"C":{"a":2,"b":8},"D":{"a":8,"b":2}},"conditions":["nonSeqFull","nonSeqPartial","seqNoFeedback","seqFeedback"],"classroomPairings":[["A","B"],["C","D"]],"coinWeights":[0.2,0.5,0.8],"subjectId":"A1P6OXEJ86HQRM","assignmentId":"38BQUHLA9XMTKMG1P5TRDQS5P8LMOG","hitId":"3Z3R5YC0P3915KVY8X6BNRIWSQNFTT","url":"https://gershmanlab.com/experiments/alicia/teaching/experiment/?hitId=3Z3R5YC0P3915KVY8X6BNRIWSQNFTT&workerId=A1P6OXEJ86HQRM&assignmentId=38BQUHLA9XMTKMG1P5TRDQS5P8LMOG&a=AUB89&tp_a=AUB89&b=38BQUHLA9XMTKMG1P5TRDQS5P8LMOG&tp_b=38BQUHLA9XMTKMG1P5TRDQS5P8LMOG&c=365799&tp_c=365799","heads":4,"tails":0,"studentIndex":3,"studentTrueHypers":{"a":1,"b":4},"studentGuess":0.5555555555555556,"delta":0.24444444444444446,"totalExamples":4,"bonusSoFar":0.84},{"rt":null,"stimulus":"Sending examples to student... ","response":null,"trial_type":"html-keyboard-response","trial_index":37,"time_elapsed":690603,"internal_node_id":"0.0-36.0","params":{"nStudents":24,"maxFlips":30,"completionMinutes":45,"basePay":8,"maxBonus":9,"perTrialBonus":0.5,"perTrialBonusThreshold":0.05,"exampleCost":0.01},"classroomParams":{"A":{"a":1,"b":4},"B":{"a":4,"b":1},"C":{"a":2,"b":8},"D":{"a":8,"b":2}},"conditions":["nonSeqFull","nonSeqPartial","seqNoFeedback","seqFeedback"],"classroomPairings":[["A","B"],["C","D"]],"coinWeights":[0.2,0.5,0.8],"subjectId":"A1P6OXEJ86HQRM","assignmentId":"38BQUHLA9XMTKMG1P5TRDQS5P8LMOG","hitId":"3Z3R5YC0P3915KVY8X6BNRIWSQNFTT","url":"https://gershmanlab.com/experiments/alicia/teaching/experiment/?hitId=3Z3R5YC0P3915KVY8X6BNRIWSQNFTT&workerId=A1P6OXEJ86HQRM&assignmentId=38BQUHLA9XMTKMG1P5TRDQS5P8LMOG&a=AUB89&tp_a=AUB89&b=38BQUHLA9XMTKMG1P5TRDQS5P8LMOG&tp_b=38BQUHLA9XMTKMG1P5TRDQS5P8LMOG&c=365799&tp_c=365799"},{"rt":null,"stimulus":"Examples sent to student! Waiting for student...","response":null,"trial_type":"html-keyboard-response","trial_index":38,"time_elapsed":695105,"internal_node_id":"0.0-37.0","params":{"nStudents":24,"maxFlips":30,"completionMinutes":45,"basePay":8,"maxBonus":9,"perTrialBonus":0.5,"perTrialBonusThreshold":0.05,"exampleCost":0.01},"classroomParams":{"A":{"a":1,"b":4},"B":{"a":4,"b":1},"C":{"a":2,"b":8},"D":{"a":8,"b":2}},"conditions":["nonSeqFull","nonSeqPartial","seqNoFeedback","seqFeedback"],"classroomPairings":[["A","B"],["C","D"]],"coinWeights":[0.2,0.5,0.8],"subjectId":"A1P6OXEJ86HQRM","assignmentId":"38BQUHLA9XMTKMG1P5TRDQS5P8LMOG","hitId":"3Z3R5YC0P3915KVY8X6BNRIWSQNFTT","url":"https://gershmanlab.com/experiments/alicia/teaching/experiment/?hitId=3Z3R5YC0P3915KVY8X6BNRIWSQNFTT&workerId=A1P6OXEJ86HQRM&assignmentId=38BQUHLA9XMTKMG1P5TRDQS5P8LMOG&a=AUB89&tp_a=AUB89&b=38BQUHLA9XMTKMG1P5TRDQS5P8LMOG&tp_b=38BQUHLA9XMTKMG1P5TRDQS5P8LMOG&c=365799&tp_c=365799"},{"rt":15914,"response":{"heads":"4","tails":"1"},"type":"response","condition":"seqNoFeedback","trueTheta":0.8,"classrooms":["A","B"],"studentTrueClassroom":"A","exampleSet":"second","trial_type":"survey-html-form","trial_index":39,"time_elapsed":711020,"internal_node_id":"0.0-38.0-0.0","params":{"nStudents":24,"maxFlips":30,"completionMinutes":45,"basePay":8,"maxBonus":9,"perTrialBonus":0.5,"perTrialBonusThreshold":0.05,"exampleCost":0.01},"classroomParams":{"A":{"a":1,"b":4},"B":{"a":4,"b":1},"C":{"a":2,"b":8},"D":{"a":8,"b":2}},"conditions":["nonSeqFull","nonSeqPartial","seqNoFeedback","seqFeedback"],"classroomPairings":[["A","B"],["C","D"]],"coinWeights":[0.2,0.5,0.8],"subjectId":"A1P6OXEJ86HQRM","assignmentId":"38BQUHLA9XMTKMG1P5TRDQS5P8LMOG","hitId":"3Z3R5YC0P3915KVY8X6BNRIWSQNFTT","url":"https://gershmanlab.com/experiments/alicia/teaching/experiment/?hitId=3Z3R5YC0P3915KVY8X6BNRIWSQNFTT&workerId=A1P6OXEJ86HQRM&assignmentId=38BQUHLA9XMTKMG1P5TRDQS5P8LMOG&a=AUB89&tp_a=AUB89&b=38BQUHLA9XMTKMG1P5TRDQS5P8LMOG&tp_b=38BQUHLA9XMTKMG1P5TRDQS5P8LMOG&c=365799&tp_c=365799","firstResponseHeads":4,"firstResponseTails":0,"secondResponseHeads":4,"secondResponseTails":1,"totalHeads":8,"totalTails":1,"studentIndex":3,"studentTrueHypers":{"a":1,"b":4},"studentGuess":0.6428571428571429,"delta":0.15714285714285714,"bonus":0,"bonusSoFar":0.84,"totalExamples":9},{"rt":null,"stimulus":"Sending examples to student... ","response":null,"trial_type":"html-keyboard-response","trial_index":40,"time_elapsed":712773,"internal_node_id":"0.0-39.0","params":{"nStudents":24,"maxFlips":30,"completionMinutes":45,"basePay":8,"maxBonus":9,"perTrialBonus":0.5,"perTrialBonusThreshold":0.05,"exampleCost":0.01},"classroomParams":{"A":{"a":1,"b":4},"B":{"a":4,"b":1},"C":{"a":2,"b":8},"D":{"a":8,"b":2}},"conditions":["nonSeqFull","nonSeqPartial","seqNoFeedback","seqFeedback"],"classroomPairings":[["A","B"],["C","D"]],"coinWeights":[0.2,0.5,0.8],"subjectId":"A1P6OXEJ86HQRM","assignmentId":"38BQUHLA9XMTKMG1P5TRDQS5P8LMOG","hitId":"3Z3R5YC0P3915KVY8X6BNRIWSQNFTT","url":"https://gershmanlab.com/experiments/alicia/teaching/experiment/?hitId=3Z3R5YC0P3915KVY8X6BNRIWSQNFTT&workerId=A1P6OXEJ86HQRM&assignmentId=38BQUHLA9XMTKMG1P5TRDQS5P8LMOG&a=AUB89&tp_a=AUB89&b=38BQUHLA9XMTKMG1P5TRDQS5P8LMOG&tp_b=38BQUHLA9XMTKMG1P5TRDQS5P8LMOG&c=365799&tp_c=365799"},{"rt":null,"stimulus":"Examples sent to student! Waiting for student...","response":null,"trial_type":"html-keyboard-response","trial_index":41,"time_elapsed":717274,"internal_node_id":"0.0-40.0","params":{"nStudents":24,"maxFlips":30,"completionMinutes":45,"basePay":8,"maxBonus":9,"perTrialBonus":0.5,"perTrialBonusThreshold":0.05,"exampleCost":0.01},"classroomParams":{"A":{"a":1,"b":4},"B":{"a":4,"b":1},"C":{"a":2,"b":8},"D":{"a":8,"b":2}},"conditions":["nonSeqFull","nonSeqPartial","seqNoFeedback","seqFeedback"],"classroomPairings":[["A","B"],["C","D"]],"coinWeights":[0.2,0.5,0.8],"subjectId":"A1P6OXEJ86HQRM","assignmentId":"38BQUHLA9XMTKMG1P5TRDQS5P8LMOG","hitId":"3Z3R5YC0P3915KVY8X6BNRIWSQNFTT","url":"https://gershmanlab.com/experiments/alicia/teaching/experiment/?hitId=3Z3R5YC0P3915KVY8X6BNRIWSQNFTT&workerId=A1P6OXEJ86HQRM&assignmentId=38BQUHLA9XMTKMG1P5TRDQS5P8LMOG&a=AUB89&tp_a=AUB89&b=38BQUHLA9XMTKMG1P5TRDQS5P8LMOG&tp_b=38BQUHLA9XMTKMG1P5TRDQS5P8LMOG&c=365799&tp_c=365799"},{"rt":8039,"stimulus":"\n                <p>Student 4's first guess for coin weight: <b style=\"color:Tomato\";>0.56</b></p>\n                <p>Student 4's second guess for coin weight: <b style=\"color:Tomato\";>0.64</b></p>\n                <p>You received a bonus of <b>$0.00</b> based on the student's second guess.</p>\n                <p>Total bonus so far: <b>$0.84</b></p>\n                <p>Press any key to continue.</p>\n                ","response":"d","trial_type":"html-keyboard-response","trial_index":42,"time_elapsed":725314,"internal_node_id":"0.0-41.0","params":{"nStudents":24,"maxFlips":30,"completionMinutes":45,"basePay":8,"maxBonus":9,"perTrialBonus":0.5,"perTrialBonusThreshold":0.05,"exampleCost":0.01},"classroomParams":{"A":{"a":1,"b":4},"B":{"a":4,"b":1},"C":{"a":2,"b":8},"D":{"a":8,"b":2}},"conditions":["nonSeqFull","nonSeqPartial","seqNoFeedback","seqFeedback"],"classroomPairings":[["A","B"],["C","D"]],"coinWeights":[0.2,0.5,0.8],"subjectId":"A1P6OXEJ86HQRM","assignmentId":"38BQUHLA9XMTKMG1P5TRDQS5P8LMOG","hitId":"3Z3R5YC0P3915KVY8X6BNRIWSQNFTT","url":"https://gershmanlab.com/experiments/alicia/teaching/experiment/?hitId=3Z3R5YC0P3915KVY8X6BNRIWSQNFTT&workerId=A1P6OXEJ86HQRM&assignmentId=38BQUHLA9XMTKMG1P5TRDQS5P8LMOG&a=AUB89&tp_a=AUB89&b=38BQUHLA9XMTKMG1P5TRDQS5P8LMOG&tp_b=38BQUHLA9XMTKMG1P5TRDQS5P8LMOG&c=365799&tp_c=365799"},{"rt":null,"stimulus":"<div style=\"font-size:60px;\">Next student</div>","response":null,"trial_type":"html-keyboard-response","trial_index":43,"time_elapsed":728329,"internal_node_id":"0.0-42.0-0.0","params":{"nStudents":24,"maxFlips":30,"completionMinutes":45,"basePay":8,"maxBonus":9,"perTrialBonus":0.5,"perTrialBonusThreshold":0.05,"exampleCost":0.01},"classroomParams":{"A":{"a":1,"b":4},"B":{"a":4,"b":1},"C":{"a":2,"b":8},"D":{"a":8,"b":2}},"conditions":["nonSeqFull","nonSeqPartial","seqNoFeedback","seqFeedback"],"classroomPairings":[["A","B"],["C","D"]],"coinWeights":[0.2,0.5,0.8],"subjectId":"A1P6OXEJ86HQRM","assignmentId":"38BQUHLA9XMTKMG1P5TRDQS5P8LMOG","hitId":"3Z3R5YC0P3915KVY8X6BNRIWSQNFTT","url":"https://gershmanlab.com/experiments/alicia/teaching/experiment/?hitId=3Z3R5YC0P3915KVY8X6BNRIWSQNFTT&workerId=A1P6OXEJ86HQRM&assignmentId=38BQUHLA9XMTKMG1P5TRDQS5P8LMOG&a=AUB89&tp_a=AUB89&b=38BQUHLA9XMTKMG1P5TRDQS5P8LMOG&tp_b=38BQUHLA9XMTKMG1P5TRDQS5P8LMOG&c=365799&tp_c=365799"},{"rt":3278,"stimulus":"\n            <h4 style=\"color:Orange;\">Student 5</h4>\n            <h2>The weight of your coin is <b style=\"color:Tomato;\">0.5</b>.</h2>\n            <p>In this block, you will be giving <b>one</b> set of examples to Student 5.</p>\n                <p>You will receive feedback at the end of the block.</p>\n            <p></p>","response":0,"trial_type":"html-button-response","trial_index":44,"time_elapsed":731609,"internal_node_id":"0.0-43.0","params":{"nStudents":24,"maxFlips":30,"completionMinutes":45,"basePay":8,"maxBonus":9,"perTrialBonus":0.5,"perTrialBonusThreshold":0.05,"exampleCost":0.01},"classroomParams":{"A":{"a":1,"b":4},"B":{"a":4,"b":1},"C":{"a":2,"b":8},"D":{"a":8,"b":2}},"conditions":["nonSeqFull","nonSeqPartial","seqNoFeedback","seqFeedback"],"classroomPairings":[["A","B"],["C","D"]],"coinWeights":[0.2,0.5,0.8],"subjectId":"A1P6OXEJ86HQRM","assignmentId":"38BQUHLA9XMTKMG1P5TRDQS5P8LMOG","hitId":"3Z3R5YC0P3915KVY8X6BNRIWSQNFTT","url":"https://gershmanlab.com/experiments/alicia/teaching/experiment/?hitId=3Z3R5YC0P3915KVY8X6BNRIWSQNFTT&workerId=A1P6OXEJ86HQRM&assignmentId=38BQUHLA9XMTKMG1P5TRDQS5P8LMOG&a=AUB89&tp_a=AUB89&b=38BQUHLA9XMTKMG1P5TRDQS5P8LMOG&tp_b=38BQUHLA9XMTKMG1P5TRDQS5P8LMOG&c=365799&tp_c=365799"},{"rt":22644,"response":{"heads":"8","tails":"2"},"type":"response","condition":"nonSeqFull","trueTheta":0.5,"classrooms":["C","D"],"studentTrueClassroom":"C","exampleSet":"first","trial_type":"survey-html-form","trial_index":45,"time_elapsed":754253,"internal_node_id":"0.0-44.0-0.0","params":{"nStudents":24,"maxFlips":30,"completionMinutes":45,"basePay":8,"maxBonus":9,"perTrialBonus":0.5,"perTrialBonusThreshold":0.05,"exampleCost":0.01},"classroomParams":{"A":{"a":1,"b":4},"B":{"a":4,"b":1},"C":{"a":2,"b":8},"D":{"a":8,"b":2}},"conditions":["nonSeqFull","nonSeqPartial","seqNoFeedback","seqFeedback"],"classroomPairings":[["A","B"],["C","D"]],"coinWeights":[0.2,0.5,0.8],"subjectId":"A1P6OXEJ86HQRM","assignmentId":"38BQUHLA9XMTKMG1P5TRDQS5P8LMOG","hitId":"3Z3R5YC0P3915KVY8X6BNRIWSQNFTT","url":"https://gershmanlab.com/experiments/alicia/teaching/experiment/?hitId=3Z3R5YC0P3915KVY8X6BNRIWSQNFTT&workerId=A1P6OXEJ86HQRM&assignmentId=38BQUHLA9XMTKMG1P5TRDQS5P8LMOG&a=AUB89&tp_a=AUB89&b=38BQUHLA9XMTKMG1P5TRDQS5P8LMOG&tp_b=38BQUHLA9XMTKMG1P5TRDQS5P8LMOG&c=365799&tp_c=365799","heads":8,"tails":2,"studentIndex":4,"studentTrueHypers":{"a":2,"b":8},"studentGuess":0.5,"delta":0,"totalExamples":10,"bonus":0.4,"bonusSoFar":1.24},{"rt":null,"stimulus":"Sending examples to student... ","response":null,"trial_type":"html-keyboard-response","trial_index":46,"time_elapsed":756267,"internal_node_id":"0.0-45.0","params":{"nStudents":24,"maxFlips":30,"completionMinutes":45,"basePay":8,"maxBonus":9,"perTrialBonus":0.5,"perTrialBonusThreshold":0.05,"exampleCost":0.01},"classroomParams":{"A":{"a":1,"b":4},"B":{"a":4,"b":1},"C":{"a":2,"b":8},"D":{"a":8,"b":2}},"conditions":["nonSeqFull","nonSeqPartial","seqNoFeedback","seqFeedback"],"classroomPairings":[["A","B"],["C","D"]],"coinWeights":[0.2,0.5,0.8],"subjectId":"A1P6OXEJ86HQRM","assignmentId":"38BQUHLA9XMTKMG1P5TRDQS5P8LMOG","hitId":"3Z3R5YC0P3915KVY8X6BNRIWSQNFTT","url":"https://gershmanlab.com/experiments/alicia/teaching/experiment/?hitId=3Z3R5YC0P3915KVY8X6BNRIWSQNFTT&workerId=A1P6OXEJ86HQRM&assignmentId=38BQUHLA9XMTKMG1P5TRDQS5P8LMOG&a=AUB89&tp_a=AUB89&b=38BQUHLA9XMTKMG1P5TRDQS5P8LMOG&tp_b=38BQUHLA9XMTKMG1P5TRDQS5P8LMOG&c=365799&tp_c=365799"},{"rt":null,"stimulus":"Examples sent to student! Waiting for student...","response":null,"trial_type":"html-keyboard-response","trial_index":47,"time_elapsed":761280,"internal_node_id":"0.0-46.0","params":{"nStudents":24,"maxFlips":30,"completionMinutes":45,"basePay":8,"maxBonus":9,"perTrialBonus":0.5,"perTrialBonusThreshold":0.05,"exampleCost":0.01},"classroomParams":{"A":{"a":1,"b":4},"B":{"a":4,"b":1},"C":{"a":2,"b":8},"D":{"a":8,"b":2}},"conditions":["nonSeqFull","nonSeqPartial","seqNoFeedback","seqFeedback"],"classroomPairings":[["A","B"],["C","D"]],"coinWeights":[0.2,0.5,0.8],"subjectId":"A1P6OXEJ86HQRM","assignmentId":"38BQUHLA9XMTKMG1P5TRDQS5P8LMOG","hitId":"3Z3R5YC0P3915KVY8X6BNRIWSQNFTT","url":"https://gershmanlab.com/experiments/alicia/teaching/experiment/?hitId=3Z3R5YC0P3915KVY8X6BNRIWSQNFTT&workerId=A1P6OXEJ86HQRM&assignmentId=38BQUHLA9XMTKMG1P5TRDQS5P8LMOG&a=AUB89&tp_a=AUB89&b=38BQUHLA9XMTKMG1P5TRDQS5P8LMOG&tp_b=38BQUHLA9XMTKMG1P5TRDQS5P8LMOG&c=365799&tp_c=365799"},{"rt":4284,"stimulus":"\n                <p>Student's guess for coin weight: <b style=\"color:Tomato;\">0.50</b></p>\n                <p>You received a bonus of <b>$0.4</b>. Total bonus so far: <b>$1.24</b></b></p>\n                <p></p>\n                <p>Press any key to continue.</p>\n                ","response":"d","trial_type":"html-keyboard-response","trial_index":48,"time_elapsed":765564,"internal_node_id":"0.0-47.0","params":{"nStudents":24,"maxFlips":30,"completionMinutes":45,"basePay":8,"maxBonus":9,"perTrialBonus":0.5,"perTrialBonusThreshold":0.05,"exampleCost":0.01},"classroomParams":{"A":{"a":1,"b":4},"B":{"a":4,"b":1},"C":{"a":2,"b":8},"D":{"a":8,"b":2}},"conditions":["nonSeqFull","nonSeqPartial","seqNoFeedback","seqFeedback"],"classroomPairings":[["A","B"],["C","D"]],"coinWeights":[0.2,0.5,0.8],"subjectId":"A1P6OXEJ86HQRM","assignmentId":"38BQUHLA9XMTKMG1P5TRDQS5P8LMOG","hitId":"3Z3R5YC0P3915KVY8X6BNRIWSQNFTT","url":"https://gershmanlab.com/experiments/alicia/teaching/experiment/?hitId=3Z3R5YC0P3915KVY8X6BNRIWSQNFTT&workerId=A1P6OXEJ86HQRM&assignmentId=38BQUHLA9XMTKMG1P5TRDQS5P8LMOG&a=AUB89&tp_a=AUB89&b=38BQUHLA9XMTKMG1P5TRDQS5P8LMOG&tp_b=38BQUHLA9XMTKMG1P5TRDQS5P8LMOG&c=365799&tp_c=365799"},{"rt":null,"stimulus":"<div style=\"font-size:60px;\">Next student</div>","response":null,"trial_type":"html-keyboard-response","trial_index":49,"time_elapsed":768065,"internal_node_id":"0.0-48.0-0.0","params":{"nStudents":24,"maxFlips":30,"completionMinutes":45,"basePay":8,"maxBonus":9,"perTrialBonus":0.5,"perTrialBonusThreshold":0.05,"exampleCost":0.01},"classroomParams":{"A":{"a":1,"b":4},"B":{"a":4,"b":1},"C":{"a":2,"b":8},"D":{"a":8,"b":2}},"conditions":["nonSeqFull","nonSeqPartial","seqNoFeedback","seqFeedback"],"classroomPairings":[["A","B"],["C","D"]],"coinWeights":[0.2,0.5,0.8],"subjectId":"A1P6OXEJ86HQRM","assignmentId":"38BQUHLA9XMTKMG1P5TRDQS5P8LMOG","hitId":"3Z3R5YC0P3915KVY8X6BNRIWSQNFTT","url":"https://gershmanlab.com/experiments/alicia/teaching/experiment/?hitId=3Z3R5YC0P3915KVY8X6BNRIWSQNFTT&workerId=A1P6OXEJ86HQRM&assignmentId=38BQUHLA9XMTKMG1P5TRDQS5P8LMOG&a=AUB89&tp_a=AUB89&b=38BQUHLA9XMTKMG1P5TRDQS5P8LMOG&tp_b=38BQUHLA9XMTKMG1P5TRDQS5P8LMOG&c=365799&tp_c=365799"},{"rt":4335,"stimulus":"\n            <h4 style=\"color:Orange;\">Student 6</h4>\n            <h2>The weight of your coin is <b style=\"color:Tomato;\">0.2</b>.</h2>\n            <p>In this block, you will be giving <b>two</b> sets of examples to Student 6.</p>\n                <p>You will receive feedback at the end of the block.</p>\n            <p></p>","response":0,"trial_type":"html-button-response","trial_index":50,"time_elapsed":772401,"internal_node_id":"0.0-49.0","params":{"nStudents":24,"maxFlips":30,"completionMinutes":45,"basePay":8,"maxBonus":9,"perTrialBonus":0.5,"perTrialBonusThreshold":0.05,"exampleCost":0.01},"classroomParams":{"A":{"a":1,"b":4},"B":{"a":4,"b":1},"C":{"a":2,"b":8},"D":{"a":8,"b":2}},"conditions":["nonSeqFull","nonSeqPartial","seqNoFeedback","seqFeedback"],"classroomPairings":[["A","B"],["C","D"]],"coinWeights":[0.2,0.5,0.8],"subjectId":"A1P6OXEJ86HQRM","assignmentId":"38BQUHLA9XMTKMG1P5TRDQS5P8LMOG","hitId":"3Z3R5YC0P3915KVY8X6BNRIWSQNFTT","url":"https://gershmanlab.com/experiments/alicia/teaching/experiment/?hitId=3Z3R5YC0P3915KVY8X6BNRIWSQNFTT&workerId=A1P6OXEJ86HQRM&assignmentId=38BQUHLA9XMTKMG1P5TRDQS5P8LMOG&a=AUB89&tp_a=AUB89&b=38BQUHLA9XMTKMG1P5TRDQS5P8LMOG&tp_b=38BQUHLA9XMTKMG1P5TRDQS5P8LMOG&c=365799&tp_c=365799"},{"rt":15496,"response":{"heads":"1","tails":"4"},"type":"response","condition":"seqNoFeedback","trueTheta":0.2,"classrooms":["A","B"],"studentTrueClassroom":"A","exampleSet":"first","trial_type":"survey-html-form","trial_index":51,"time_elapsed":787898,"internal_node_id":"0.0-50.0-0.0","params":{"nStudents":24,"maxFlips":30,"completionMinutes":45,"basePay":8,"maxBonus":9,"perTrialBonus":0.5,"perTrialBonusThreshold":0.05,"exampleCost":0.01},"classroomParams":{"A":{"a":1,"b":4},"B":{"a":4,"b":1},"C":{"a":2,"b":8},"D":{"a":8,"b":2}},"conditions":["nonSeqFull","nonSeqPartial","seqNoFeedback","seqFeedback"],"classroomPairings":[["A","B"],["C","D"]],"coinWeights":[0.2,0.5,0.8],"subjectId":"A1P6OXEJ86HQRM","assignmentId":"38BQUHLA9XMTKMG1P5TRDQS5P8LMOG","hitId":"3Z3R5YC0P3915KVY8X6BNRIWSQNFTT","url":"https://gershmanlab.com/experiments/alicia/teaching/experiment/?hitId=3Z3R5YC0P3915KVY8X6BNRIWSQNFTT&workerId=A1P6OXEJ86HQRM&assignmentId=38BQUHLA9XMTKMG1P5TRDQS5P8LMOG&a=AUB89&tp_a=AUB89&b=38BQUHLA9XMTKMG1P5TRDQS5P8LMOG&tp_b=38BQUHLA9XMTKMG1P5TRDQS5P8LMOG&c=365799&tp_c=365799","heads":1,"tails":4,"studentIndex":5,"studentTrueHypers":{"a":1,"b":4},"studentGuess":0.2,"delta":0,"totalExamples":5,"bonusSoFar":1.24},{"rt":null,"stimulus":"Sending examples to student... ","response":null,"trial_type":"html-keyboard-response","trial_index":52,"time_elapsed":789150,"internal_node_id":"0.0-51.0","params":{"nStudents":24,"maxFlips":30,"completionMinutes":45,"basePay":8,"maxBonus":9,"perTrialBonus":0.5,"perTrialBonusThreshold":0.05,"exampleCost":0.01},"classroomParams":{"A":{"a":1,"b":4},"B":{"a":4,"b":1},"C":{"a":2,"b":8},"D":{"a":8,"b":2}},"conditions":["nonSeqFull","nonSeqPartial","seqNoFeedback","seqFeedback"],"classroomPairings":[["A","B"],["C","D"]],"coinWeights":[0.2,0.5,0.8],"subjectId":"A1P6OXEJ86HQRM","assignmentId":"38BQUHLA9XMTKMG1P5TRDQS5P8LMOG","hitId":"3Z3R5YC0P3915KVY8X6BNRIWSQNFTT","url":"https://gershmanlab.com/experiments/alicia/teaching/experiment/?hitId=3Z3R5YC0P3915KVY8X6BNRIWSQNFTT&workerId=A1P6OXEJ86HQRM&assignmentId=38BQUHLA9XMTKMG1P5TRDQS5P8LMOG&a=AUB89&tp_a=AUB89&b=38BQUHLA9XMTKMG1P5TRDQS5P8LMOG&tp_b=38BQUHLA9XMTKMG1P5TRDQS5P8LMOG&c=365799&tp_c=365799"},{"rt":null,"stimulus":"Examples sent to student! Waiting for student...","response":null,"trial_type":"html-keyboard-response","trial_index":53,"time_elapsed":794655,"internal_node_id":"0.0-52.0","params":{"nStudents":24,"maxFlips":30,"completionMinutes":45,"basePay":8,"maxBonus":9,"perTrialBonus":0.5,"perTrialBonusThreshold":0.05,"exampleCost":0.01},"classroomParams":{"A":{"a":1,"b":4},"B":{"a":4,"b":1},"C":{"a":2,"b":8},"D":{"a":8,"b":2}},"conditions":["nonSeqFull","nonSeqPartial","seqNoFeedback","seqFeedback"],"classroomPairings":[["A","B"],["C","D"]],"coinWeights":[0.2,0.5,0.8],"subjectId":"A1P6OXEJ86HQRM","assignmentId":"38BQUHLA9XMTKMG1P5TRDQS5P8LMOG","hitId":"3Z3R5YC0P3915KVY8X6BNRIWSQNFTT","url":"https://gershmanlab.com/experiments/alicia/teaching/experiment/?hitId=3Z3R5YC0P3915KVY8X6BNRIWSQNFTT&workerId=A1P6OXEJ86HQRM&assignmentId=38BQUHLA9XMTKMG1P5TRDQS5P8LMOG&a=AUB89&tp_a=AUB89&b=38BQUHLA9XMTKMG1P5TRDQS5P8LMOG&tp_b=38BQUHLA9XMTKMG1P5TRDQS5P8LMOG&c=365799&tp_c=365799"},{"rt":7376,"response":{"heads":"1","tails":"4"},"type":"response","condition":"seqNoFeedback","trueTheta":0.2,"classrooms":["A","B"],"studentTrueClassroom":"A","exampleSet":"second","trial_type":"survey-html-form","trial_index":54,"time_elapsed":802032,"internal_node_id":"0.0-53.0-0.0","params":{"nStudents":24,"maxFlips":30,"completionMinutes":45,"basePay":8,"maxBonus":9,"perTrialBonus":0.5,"perTrialBonusThreshold":0.05,"exampleCost":0.01},"classroomParams":{"A":{"a":1,"b":4},"B":{"a":4,"b":1},"C":{"a":2,"b":8},"D":{"a":8,"b":2}},"conditions":["nonSeqFull","nonSeqPartial","seqNoFeedback","seqFeedback"],"classroomPairings":[["A","B"],["C","D"]],"coinWeights":[0.2,0.5,0.8],"subjectId":"A1P6OXEJ86HQRM","assignmentId":"38BQUHLA9XMTKMG1P5TRDQS5P8LMOG","hitId":"3Z3R5YC0P3915KVY8X6BNRIWSQNFTT","url":"https://gershmanlab.com/experiments/alicia/teaching/experiment/?hitId=3Z3R5YC0P3915KVY8X6BNRIWSQNFTT&workerId=A1P6OXEJ86HQRM&assignmentId=38BQUHLA9XMTKMG1P5TRDQS5P8LMOG&a=AUB89&tp_a=AUB89&b=38BQUHLA9XMTKMG1P5TRDQS5P8LMOG&tp_b=38BQUHLA9XMTKMG1P5TRDQS5P8LMOG&c=365799&tp_c=365799","firstResponseHeads":1,"firstResponseTails":4,"secondResponseHeads":1,"secondResponseTails":4,"totalHeads":2,"totalTails":8,"studentIndex":5,"studentTrueHypers":{"a":1,"b":4},"studentGuess":0.2,"delta":0,"bonus":0.4,"bonusSoFar":1.64,"totalExamples":10},{"rt":null,"stimulus":"Sending examples to student... ","response":null,"trial_type":"html-keyboard-response","trial_index":55,"time_elapsed":803534,"internal_node_id":"0.0-54.0","params":{"nStudents":24,"maxFlips":30,"completionMinutes":45,"basePay":8,"maxBonus":9,"perTrialBonus":0.5,"perTrialBonusThreshold":0.05,"exampleCost":0.01},"classroomParams":{"A":{"a":1,"b":4},"B":{"a":4,"b":1},"C":{"a":2,"b":8},"D":{"a":8,"b":2}},"conditions":["nonSeqFull","nonSeqPartial","seqNoFeedback","seqFeedback"],"classroomPairings":[["A","B"],["C","D"]],"coinWeights":[0.2,0.5,0.8],"subjectId":"A1P6OXEJ86HQRM","assignmentId":"38BQUHLA9XMTKMG1P5TRDQS5P8LMOG","hitId":"3Z3R5YC0P3915KVY8X6BNRIWSQNFTT","url":"https://gershmanlab.com/experiments/alicia/teaching/experiment/?hitId=3Z3R5YC0P3915KVY8X6BNRIWSQNFTT&workerId=A1P6OXEJ86HQRM&assignmentId=38BQUHLA9XMTKMG1P5TRDQS5P8LMOG&a=AUB89&tp_a=AUB89&b=38BQUHLA9XMTKMG1P5TRDQS5P8LMOG&tp_b=38BQUHLA9XMTKMG1P5TRDQS5P8LMOG&c=365799&tp_c=365799"},{"rt":null,"stimulus":"Examples sent to student! Waiting for student...","response":null,"trial_type":"html-keyboard-response","trial_index":56,"time_elapsed":807547,"internal_node_id":"0.0-55.0","params":{"nStudents":24,"maxFlips":30,"completionMinutes":45,"basePay":8,"maxBonus":9,"perTrialBonus":0.5,"perTrialBonusThreshold":0.05,"exampleCost":0.01},"classroomParams":{"A":{"a":1,"b":4},"B":{"a":4,"b":1},"C":{"a":2,"b":8},"D":{"a":8,"b":2}},"conditions":["nonSeqFull","nonSeqPartial","seqNoFeedback","seqFeedback"],"classroomPairings":[["A","B"],["C","D"]],"coinWeights":[0.2,0.5,0.8],"subjectId":"A1P6OXEJ86HQRM","assignmentId":"38BQUHLA9XMTKMG1P5TRDQS5P8LMOG","hitId":"3Z3R5YC0P3915KVY8X6BNRIWSQNFTT","url":"https://gershmanlab.com/experiments/alicia/teaching/experiment/?hitId=3Z3R5YC0P3915KVY8X6BNRIWSQNFTT&workerId=A1P6OXEJ86HQRM&assignmentId=38BQUHLA9XMTKMG1P5TRDQS5P8LMOG&a=AUB89&tp_a=AUB89&b=38BQUHLA9XMTKMG1P5TRDQS5P8LMOG&tp_b=38BQUHLA9XMTKMG1P5TRDQS5P8LMOG&c=365799&tp_c=365799"},{"rt":5586,"stimulus":"\n                <p>Student 6's first guess for coin weight: <b style=\"color:Tomato\";>0.20</b></p>\n                <p>Student 6's second guess for coin weight: <b style=\"color:Tomato\";>0.20</b></p>\n                <p>You received a bonus of <b>$0.40</b> based on the student's second guess.</p>\n                <p>Total bonus so far: <b>$1.64</b></p>\n                <p>Press any key to continue.</p>\n                ","response":"f","trial_type":"html-keyboard-response","trial_index":57,"time_elapsed":813133,"internal_node_id":"0.0-56.0","params":{"nStudents":24,"maxFlips":30,"completionMinutes":45,"basePay":8,"maxBonus":9,"perTrialBonus":0.5,"perTrialBonusThreshold":0.05,"exampleCost":0.01},"classroomParams":{"A":{"a":1,"b":4},"B":{"a":4,"b":1},"C":{"a":2,"b":8},"D":{"a":8,"b":2}},"conditions":["nonSeqFull","nonSeqPartial","seqNoFeedback","seqFeedback"],"classroomPairings":[["A","B"],["C","D"]],"coinWeights":[0.2,0.5,0.8],"subjectId":"A1P6OXEJ86HQRM","assignmentId":"38BQUHLA9XMTKMG1P5TRDQS5P8LMOG","hitId":"3Z3R5YC0P3915KVY8X6BNRIWSQNFTT","url":"https://gershmanlab.com/experiments/alicia/teaching/experiment/?hitId=3Z3R5YC0P3915KVY8X6BNRIWSQNFTT&workerId=A1P6OXEJ86HQRM&assignmentId=38BQUHLA9XMTKMG1P5TRDQS5P8LMOG&a=AUB89&tp_a=AUB89&b=38BQUHLA9XMTKMG1P5TRDQS5P8LMOG&tp_b=38BQUHLA9XMTKMG1P5TRDQS5P8LMOG&c=365799&tp_c=365799"},{"rt":null,"stimulus":"<div style=\"font-size:60px;\">Next student</div>","response":null,"trial_type":"html-keyboard-response","trial_index":58,"time_elapsed":816145,"internal_node_id":"0.0-57.0-0.0","params":{"nStudents":24,"maxFlips":30,"completionMinutes":45,"basePay":8,"maxBonus":9,"perTrialBonus":0.5,"perTrialBonusThreshold":0.05,"exampleCost":0.01},"classroomParams":{"A":{"a":1,"b":4},"B":{"a":4,"b":1},"C":{"a":2,"b":8},"D":{"a":8,"b":2}},"conditions":["nonSeqFull","nonSeqPartial","seqNoFeedback","seqFeedback"],"classroomPairings":[["A","B"],["C","D"]],"coinWeights":[0.2,0.5,0.8],"subjectId":"A1P6OXEJ86HQRM","assignmentId":"38BQUHLA9XMTKMG1P5TRDQS5P8LMOG","hitId":"3Z3R5YC0P3915KVY8X6BNRIWSQNFTT","url":"https://gershmanlab.com/experiments/alicia/teaching/experiment/?hitId=3Z3R5YC0P3915KVY8X6BNRIWSQNFTT&workerId=A1P6OXEJ86HQRM&assignmentId=38BQUHLA9XMTKMG1P5TRDQS5P8LMOG&a=AUB89&tp_a=AUB89&b=38BQUHLA9XMTKMG1P5TRDQS5P8LMOG&tp_b=38BQUHLA9XMTKMG1P5TRDQS5P8LMOG&c=365799&tp_c=365799"},{"rt":2662,"stimulus":"\n            <h4 style=\"color:Orange;\">Student 7</h4>\n            <h2>The weight of your coin is <b style=\"color:Tomato;\">0.8</b>.</h2>\n            <p>In this block, you will be giving <b>one</b> set of examples to Student 7.</p>\n                <p>You will receive feedback at the end of the block.</p>\n            <p></p>","response":0,"trial_type":"html-button-response","trial_index":59,"time_elapsed":818808,"internal_node_id":"0.0-58.0","params":{"nStudents":24,"maxFlips":30,"completionMinutes":45,"basePay":8,"maxBonus":9,"perTrialBonus":0.5,"perTrialBonusThreshold":0.05,"exampleCost":0.01},"classroomParams":{"A":{"a":1,"b":4},"B":{"a":4,"b":1},"C":{"a":2,"b":8},"D":{"a":8,"b":2}},"conditions":["nonSeqFull","nonSeqPartial","seqNoFeedback","seqFeedback"],"classroomPairings":[["A","B"],["C","D"]],"coinWeights":[0.2,0.5,0.8],"subjectId":"A1P6OXEJ86HQRM","assignmentId":"38BQUHLA9XMTKMG1P5TRDQS5P8LMOG","hitId":"3Z3R5YC0P3915KVY8X6BNRIWSQNFTT","url":"https://gershmanlab.com/experiments/alicia/teaching/experiment/?hitId=3Z3R5YC0P3915KVY8X6BNRIWSQNFTT&workerId=A1P6OXEJ86HQRM&assignmentId=38BQUHLA9XMTKMG1P5TRDQS5P8LMOG&a=AUB89&tp_a=AUB89&b=38BQUHLA9XMTKMG1P5TRDQS5P8LMOG&tp_b=38BQUHLA9XMTKMG1P5TRDQS5P8LMOG&c=365799&tp_c=365799"},{"rt":16937,"response":{"heads":"6","tails":"0"},"type":"response","condition":"nonSeqPartial","trueTheta":0.8,"classrooms":["C","D"],"studentTrueClassroom":"C","exampleSet":"first","trial_type":"survey-html-form","trial_index":60,"time_elapsed":835746,"internal_node_id":"0.0-59.0-0.0","params":{"nStudents":24,"maxFlips":30,"completionMinutes":45,"basePay":8,"maxBonus":9,"perTrialBonus":0.5,"perTrialBonusThreshold":0.05,"exampleCost":0.01},"classroomParams":{"A":{"a":1,"b":4},"B":{"a":4,"b":1},"C":{"a":2,"b":8},"D":{"a":8,"b":2}},"conditions":["nonSeqFull","nonSeqPartial","seqNoFeedback","seqFeedback"],"classroomPairings":[["A","B"],["C","D"]],"coinWeights":[0.2,0.5,0.8],"subjectId":"A1P6OXEJ86HQRM","assignmentId":"38BQUHLA9XMTKMG1P5TRDQS5P8LMOG","hitId":"3Z3R5YC0P3915KVY8X6BNRIWSQNFTT","url":"https://gershmanlab.com/experiments/alicia/teaching/experiment/?hitId=3Z3R5YC0P3915KVY8X6BNRIWSQNFTT&workerId=A1P6OXEJ86HQRM&assignmentId=38BQUHLA9XMTKMG1P5TRDQS5P8LMOG&a=AUB89&tp_a=AUB89&b=38BQUHLA9XMTKMG1P5TRDQS5P8LMOG&tp_b=38BQUHLA9XMTKMG1P5TRDQS5P8LMOG&c=365799&tp_c=365799","heads":6,"tails":0,"studentIndex":6,"studentTrueHypers":{"a":2,"b":8},"studentGuess":0.5,"delta":0.30000000000000004,"totalExamples":6,"bonus":0,"bonusSoFar":1.64},{"rt":null,"stimulus":"Sending examples to student... ","response":null,"trial_type":"html-keyboard-response","trial_index":61,"time_elapsed":837248,"internal_node_id":"0.0-60.0","params":{"nStudents":24,"maxFlips":30,"completionMinutes":45,"basePay":8,"maxBonus":9,"perTrialBonus":0.5,"perTrialBonusThreshold":0.05,"exampleCost":0.01},"classroomParams":{"A":{"a":1,"b":4},"B":{"a":4,"b":1},"C":{"a":2,"b":8},"D":{"a":8,"b":2}},"conditions":["nonSeqFull","nonSeqPartial","seqNoFeedback","seqFeedback"],"classroomPairings":[["A","B"],["C","D"]],"coinWeights":[0.2,0.5,0.8],"subjectId":"A1P6OXEJ86HQRM","assignmentId":"38BQUHLA9XMTKMG1P5TRDQS5P8LMOG","hitId":"3Z3R5YC0P3915KVY8X6BNRIWSQNFTT","url":"https://gershmanlab.com/experiments/alicia/teaching/experiment/?hitId=3Z3R5YC0P3915KVY8X6BNRIWSQNFTT&workerId=A1P6OXEJ86HQRM&assignmentId=38BQUHLA9XMTKMG1P5TRDQS5P8LMOG&a=AUB89&tp_a=AUB89&b=38BQUHLA9XMTKMG1P5TRDQS5P8LMOG&tp_b=38BQUHLA9XMTKMG1P5TRDQS5P8LMOG&c=365799&tp_c=365799"},{"rt":null,"stimulus":"Examples sent to student! Waiting for student...","response":null,"trial_type":"html-keyboard-response","trial_index":62,"time_elapsed":843250,"internal_node_id":"0.0-61.0","params":{"nStudents":24,"maxFlips":30,"completionMinutes":45,"basePay":8,"maxBonus":9,"perTrialBonus":0.5,"perTrialBonusThreshold":0.05,"exampleCost":0.01},"classroomParams":{"A":{"a":1,"b":4},"B":{"a":4,"b":1},"C":{"a":2,"b":8},"D":{"a":8,"b":2}},"conditions":["nonSeqFull","nonSeqPartial","seqNoFeedback","seqFeedback"],"classroomPairings":[["A","B"],["C","D"]],"coinWeights":[0.2,0.5,0.8],"subjectId":"A1P6OXEJ86HQRM","assignmentId":"38BQUHLA9XMTKMG1P5TRDQS5P8LMOG","hitId":"3Z3R5YC0P3915KVY8X6BNRIWSQNFTT","url":"https://gershmanlab.com/experiments/alicia/teaching/experiment/?hitId=3Z3R5YC0P3915KVY8X6BNRIWSQNFTT&workerId=A1P6OXEJ86HQRM&assignmentId=38BQUHLA9XMTKMG1P5TRDQS5P8LMOG&a=AUB89&tp_a=AUB89&b=38BQUHLA9XMTKMG1P5TRDQS5P8LMOG&tp_b=38BQUHLA9XMTKMG1P5TRDQS5P8LMOG&c=365799&tp_c=365799"},{"rt":3371,"stimulus":"\n                <p>Student's guess for coin weight: <b style=\"color:Tomato;\">0.50</b></p>\n                <p>You received a bonus of <b>$0</b>. Total bonus so far: <b>$1.64</b></b></p>\n                <p></p>\n                <p>Press any key to continue.</p>\n                ","response":"f","trial_type":"html-keyboard-response","trial_index":63,"time_elapsed":846621,"internal_node_id":"0.0-62.0","params":{"nStudents":24,"maxFlips":30,"completionMinutes":45,"basePay":8,"maxBonus":9,"perTrialBonus":0.5,"perTrialBonusThreshold":0.05,"exampleCost":0.01},"classroomParams":{"A":{"a":1,"b":4},"B":{"a":4,"b":1},"C":{"a":2,"b":8},"D":{"a":8,"b":2}},"conditions":["nonSeqFull","nonSeqPartial","seqNoFeedback","seqFeedback"],"classroomPairings":[["A","B"],["C","D"]],"coinWeights":[0.2,0.5,0.8],"subjectId":"A1P6OXEJ86HQRM","assignmentId":"38BQUHLA9XMTKMG1P5TRDQS5P8LMOG","hitId":"3Z3R5YC0P3915KVY8X6BNRIWSQNFTT","url":"https://gershmanlab.com/experiments/alicia/teaching/experiment/?hitId=3Z3R5YC0P3915KVY8X6BNRIWSQNFTT&workerId=A1P6OXEJ86HQRM&assignmentId=38BQUHLA9XMTKMG1P5TRDQS5P8LMOG&a=AUB89&tp_a=AUB89&b=38BQUHLA9XMTKMG1P5TRDQS5P8LMOG&tp_b=38BQUHLA9XMTKMG1P5TRDQS5P8LMOG&c=365799&tp_c=365799"},{"rt":null,"stimulus":"<div style=\"font-size:60px;\">Next student</div>","response":null,"trial_type":"html-keyboard-response","trial_index":64,"time_elapsed":848623,"internal_node_id":"0.0-63.0-0.0","params":{"nStudents":24,"maxFlips":30,"completionMinutes":45,"basePay":8,"maxBonus":9,"perTrialBonus":0.5,"perTrialBonusThreshold":0.05,"exampleCost":0.01},"classroomParams":{"A":{"a":1,"b":4},"B":{"a":4,"b":1},"C":{"a":2,"b":8},"D":{"a":8,"b":2}},"conditions":["nonSeqFull","nonSeqPartial","seqNoFeedback","seqFeedback"],"classroomPairings":[["A","B"],["C","D"]],"coinWeights":[0.2,0.5,0.8],"subjectId":"A1P6OXEJ86HQRM","assignmentId":"38BQUHLA9XMTKMG1P5TRDQS5P8LMOG","hitId":"3Z3R5YC0P3915KVY8X6BNRIWSQNFTT","url":"https://gershmanlab.com/experiments/alicia/teaching/experiment/?hitId=3Z3R5YC0P3915KVY8X6BNRIWSQNFTT&workerId=A1P6OXEJ86HQRM&assignmentId=38BQUHLA9XMTKMG1P5TRDQS5P8LMOG&a=AUB89&tp_a=AUB89&b=38BQUHLA9XMTKMG1P5TRDQS5P8LMOG&tp_b=38BQUHLA9XMTKMG1P5TRDQS5P8LMOG&c=365799&tp_c=365799"},{"rt":1997,"stimulus":"\n            <h4 style=\"color:Orange;\">Student 8</h4>\n            <h2>The weight of your coin is <b style=\"color:Tomato;\">0.2</b>.</h2>\n            <p>In this block, you will be giving <b>one</b> set of examples to Student 8.</p>\n                <p>You will receive feedback at the end of the block.</p>\n            <p></p>","response":0,"trial_type":"html-button-response","trial_index":65,"time_elapsed":850621,"internal_node_id":"0.0-64.0","params":{"nStudents":24,"maxFlips":30,"completionMinutes":45,"basePay":8,"maxBonus":9,"perTrialBonus":0.5,"perTrialBonusThreshold":0.05,"exampleCost":0.01},"classroomParams":{"A":{"a":1,"b":4},"B":{"a":4,"b":1},"C":{"a":2,"b":8},"D":{"a":8,"b":2}},"conditions":["nonSeqFull","nonSeqPartial","seqNoFeedback","seqFeedback"],"classroomPairings":[["A","B"],["C","D"]],"coinWeights":[0.2,0.5,0.8],"subjectId":"A1P6OXEJ86HQRM","assignmentId":"38BQUHLA9XMTKMG1P5TRDQS5P8LMOG","hitId":"3Z3R5YC0P3915KVY8X6BNRIWSQNFTT","url":"https://gershmanlab.com/experiments/alicia/teaching/experiment/?hitId=3Z3R5YC0P3915KVY8X6BNRIWSQNFTT&workerId=A1P6OXEJ86HQRM&assignmentId=38BQUHLA9XMTKMG1P5TRDQS5P8LMOG&a=AUB89&tp_a=AUB89&b=38BQUHLA9XMTKMG1P5TRDQS5P8LMOG&tp_b=38BQUHLA9XMTKMG1P5TRDQS5P8LMOG&c=365799&tp_c=365799"},{"rt":20294,"response":{"heads":"1","tails":"9"},"type":"response","condition":"nonSeqPartial","trueTheta":0.2,"classrooms":["A","B"],"studentTrueClassroom":"A","exampleSet":"first","trial_type":"survey-html-form","trial_index":66,"time_elapsed":870916,"internal_node_id":"0.0-65.0-0.0","params":{"nStudents":24,"maxFlips":30,"completionMinutes":45,"basePay":8,"maxBonus":9,"perTrialBonus":0.5,"perTrialBonusThreshold":0.05,"exampleCost":0.01},"classroomParams":{"A":{"a":1,"b":4},"B":{"a":4,"b":1},"C":{"a":2,"b":8},"D":{"a":8,"b":2}},"conditions":["nonSeqFull","nonSeqPartial","seqNoFeedback","seqFeedback"],"classroomPairings":[["A","B"],["C","D"]],"coinWeights":[0.2,0.5,0.8],"subjectId":"A1P6OXEJ86HQRM","assignmentId":"38BQUHLA9XMTKMG1P5TRDQS5P8LMOG","hitId":"3Z3R5YC0P3915KVY8X6BNRIWSQNFTT","url":"https://gershmanlab.com/experiments/alicia/teaching/experiment/?hitId=3Z3R5YC0P3915KVY8X6BNRIWSQNFTT&workerId=A1P6OXEJ86HQRM&assignmentId=38BQUHLA9XMTKMG1P5TRDQS5P8LMOG&a=AUB89&tp_a=AUB89&b=38BQUHLA9XMTKMG1P5TRDQS5P8LMOG&tp_b=38BQUHLA9XMTKMG1P5TRDQS5P8LMOG&c=365799&tp_c=365799","heads":1,"tails":9,"studentIndex":7,"studentTrueHypers":{"a":1,"b":4},"studentGuess":0.13333333333333333,"delta":0.06666666666666668,"totalExamples":10,"bonus":0,"bonusSoFar":1.64},{"rt":null,"stimulus":"Sending examples to student... ","response":null,"trial_type":"html-keyboard-response","trial_index":67,"time_elapsed":872429,"internal_node_id":"0.0-66.0","params":{"nStudents":24,"maxFlips":30,"completionMinutes":45,"basePay":8,"maxBonus":9,"perTrialBonus":0.5,"perTrialBonusThreshold":0.05,"exampleCost":0.01},"classroomParams":{"A":{"a":1,"b":4},"B":{"a":4,"b":1},"C":{"a":2,"b":8},"D":{"a":8,"b":2}},"conditions":["nonSeqFull","nonSeqPartial","seqNoFeedback","seqFeedback"],"classroomPairings":[["A","B"],["C","D"]],"coinWeights":[0.2,0.5,0.8],"subjectId":"A1P6OXEJ86HQRM","assignmentId":"38BQUHLA9XMTKMG1P5TRDQS5P8LMOG","hitId":"3Z3R5YC0P3915KVY8X6BNRIWSQNFTT","url":"https://gershmanlab.com/experiments/alicia/teaching/experiment/?hitId=3Z3R5YC0P3915KVY8X6BNRIWSQNFTT&workerId=A1P6OXEJ86HQRM&assignmentId=38BQUHLA9XMTKMG1P5TRDQS5P8LMOG&a=AUB89&tp_a=AUB89&b=38BQUHLA9XMTKMG1P5TRDQS5P8LMOG&tp_b=38BQUHLA9XMTKMG1P5TRDQS5P8LMOG&c=365799&tp_c=365799"},{"rt":null,"stimulus":"Examples sent to student! Waiting for student...","response":null,"trial_type":"html-keyboard-response","trial_index":68,"time_elapsed":877431,"internal_node_id":"0.0-67.0","params":{"nStudents":24,"maxFlips":30,"completionMinutes":45,"basePay":8,"maxBonus":9,"perTrialBonus":0.5,"perTrialBonusThreshold":0.05,"exampleCost":0.01},"classroomParams":{"A":{"a":1,"b":4},"B":{"a":4,"b":1},"C":{"a":2,"b":8},"D":{"a":8,"b":2}},"conditions":["nonSeqFull","nonSeqPartial","seqNoFeedback","seqFeedback"],"classroomPairings":[["A","B"],["C","D"]],"coinWeights":[0.2,0.5,0.8],"subjectId":"A1P6OXEJ86HQRM","assignmentId":"38BQUHLA9XMTKMG1P5TRDQS5P8LMOG","hitId":"3Z3R5YC0P3915KVY8X6BNRIWSQNFTT","url":"https://gershmanlab.com/experiments/alicia/teaching/experiment/?hitId=3Z3R5YC0P3915KVY8X6BNRIWSQNFTT&workerId=A1P6OXEJ86HQRM&assignmentId=38BQUHLA9XMTKMG1P5TRDQS5P8LMOG&a=AUB89&tp_a=AUB89&b=38BQUHLA9XMTKMG1P5TRDQS5P8LMOG&tp_b=38BQUHLA9XMTKMG1P5TRDQS5P8LMOG&c=365799&tp_c=365799"},{"rt":3762,"stimulus":"\n                <p>Student's guess for coin weight: <b style=\"color:Tomato;\">0.13</b></p>\n                <p>You received a bonus of <b>$0</b>. Total bonus so far: <b>$1.64</b></b></p>\n                <p></p>\n                <p>Press any key to continue.</p>\n                ","response":"j","trial_type":"html-keyboard-response","trial_index":69,"time_elapsed":881194,"internal_node_id":"0.0-68.0","params":{"nStudents":24,"maxFlips":30,"completionMinutes":45,"basePay":8,"maxBonus":9,"perTrialBonus":0.5,"perTrialBonusThreshold":0.05,"exampleCost":0.01},"classroomParams":{"A":{"a":1,"b":4},"B":{"a":4,"b":1},"C":{"a":2,"b":8},"D":{"a":8,"b":2}},"conditions":["nonSeqFull","nonSeqPartial","seqNoFeedback","seqFeedback"],"classroomPairings":[["A","B"],["C","D"]],"coinWeights":[0.2,0.5,0.8],"subjectId":"A1P6OXEJ86HQRM","assignmentId":"38BQUHLA9XMTKMG1P5TRDQS5P8LMOG","hitId":"3Z3R5YC0P3915KVY8X6BNRIWSQNFTT","url":"https://gershmanlab.com/experiments/alicia/teaching/experiment/?hitId=3Z3R5YC0P3915KVY8X6BNRIWSQNFTT&workerId=A1P6OXEJ86HQRM&assignmentId=38BQUHLA9XMTKMG1P5TRDQS5P8LMOG&a=AUB89&tp_a=AUB89&b=38BQUHLA9XMTKMG1P5TRDQS5P8LMOG&tp_b=38BQUHLA9XMTKMG1P5TRDQS5P8LMOG&c=365799&tp_c=365799"},{"rt":null,"stimulus":"<div style=\"font-size:60px;\">Next student</div>","response":null,"trial_type":"html-keyboard-response","trial_index":70,"time_elapsed":883204,"internal_node_id":"0.0-69.0-0.0","params":{"nStudents":24,"maxFlips":30,"completionMinutes":45,"basePay":8,"maxBonus":9,"perTrialBonus":0.5,"perTrialBonusThreshold":0.05,"exampleCost":0.01},"classroomParams":{"A":{"a":1,"b":4},"B":{"a":4,"b":1},"C":{"a":2,"b":8},"D":{"a":8,"b":2}},"conditions":["nonSeqFull","nonSeqPartial","seqNoFeedback","seqFeedback"],"classroomPairings":[["A","B"],["C","D"]],"coinWeights":[0.2,0.5,0.8],"subjectId":"A1P6OXEJ86HQRM","assignmentId":"38BQUHLA9XMTKMG1P5TRDQS5P8LMOG","hitId":"3Z3R5YC0P3915KVY8X6BNRIWSQNFTT","url":"https://gershmanlab.com/experiments/alicia/teaching/experiment/?hitId=3Z3R5YC0P3915KVY8X6BNRIWSQNFTT&workerId=A1P6OXEJ86HQRM&assignmentId=38BQUHLA9XMTKMG1P5TRDQS5P8LMOG&a=AUB89&tp_a=AUB89&b=38BQUHLA9XMTKMG1P5TRDQS5P8LMOG&tp_b=38BQUHLA9XMTKMG1P5TRDQS5P8LMOG&c=365799&tp_c=365799"},{"rt":4975,"stimulus":"\n            <h4 style=\"color:Orange;\">Student 9</h4>\n            <h2>The weight of your coin is <b style=\"color:Tomato;\">0.5</b>.</h2>\n            <p>In this block, you will be giving <b>two</b> sets of examples to Student 9.</p>\n                <p>You will receive feedback at the end of the block.</p>\n            <p></p>","response":0,"trial_type":"html-button-response","trial_index":71,"time_elapsed":888180,"internal_node_id":"0.0-70.0","params":{"nStudents":24,"maxFlips":30,"completionMinutes":45,"basePay":8,"maxBonus":9,"perTrialBonus":0.5,"perTrialBonusThreshold":0.05,"exampleCost":0.01},"classroomParams":{"A":{"a":1,"b":4},"B":{"a":4,"b":1},"C":{"a":2,"b":8},"D":{"a":8,"b":2}},"conditions":["nonSeqFull","nonSeqPartial","seqNoFeedback","seqFeedback"],"classroomPairings":[["A","B"],["C","D"]],"coinWeights":[0.2,0.5,0.8],"subjectId":"A1P6OXEJ86HQRM","assignmentId":"38BQUHLA9XMTKMG1P5TRDQS5P8LMOG","hitId":"3Z3R5YC0P3915KVY8X6BNRIWSQNFTT","url":"https://gershmanlab.com/experiments/alicia/teaching/experiment/?hitId=3Z3R5YC0P3915KVY8X6BNRIWSQNFTT&workerId=A1P6OXEJ86HQRM&assignmentId=38BQUHLA9XMTKMG1P5TRDQS5P8LMOG&a=AUB89&tp_a=AUB89&b=38BQUHLA9XMTKMG1P5TRDQS5P8LMOG&tp_b=38BQUHLA9XMTKMG1P5TRDQS5P8LMOG&c=365799&tp_c=365799"},{"rt":11499,"response":{"heads":"1","tails":"1"},"type":"response","condition":"seqNoFeedback","trueTheta":0.5,"classrooms":["C","D"],"studentTrueClassroom":"C","exampleSet":"first","trial_type":"survey-html-form","trial_index":72,"time_elapsed":899680,"internal_node_id":"0.0-71.0-0.0","params":{"nStudents":24,"maxFlips":30,"completionMinutes":45,"basePay":8,"maxBonus":9,"perTrialBonus":0.5,"perTrialBonusThreshold":0.05,"exampleCost":0.01},"classroomParams":{"A":{"a":1,"b":4},"B":{"a":4,"b":1},"C":{"a":2,"b":8},"D":{"a":8,"b":2}},"conditions":["nonSeqFull","nonSeqPartial","seqNoFeedback","seqFeedback"],"classroomPairings":[["A","B"],["C","D"]],"coinWeights":[0.2,0.5,0.8],"subjectId":"A1P6OXEJ86HQRM","assignmentId":"38BQUHLA9XMTKMG1P5TRDQS5P8LMOG","hitId":"3Z3R5YC0P3915KVY8X6BNRIWSQNFTT","url":"https://gershmanlab.com/experiments/alicia/teaching/experiment/?hitId=3Z3R5YC0P3915KVY8X6BNRIWSQNFTT&workerId=A1P6OXEJ86HQRM&assignmentId=38BQUHLA9XMTKMG1P5TRDQS5P8LMOG&a=AUB89&tp_a=AUB89&b=38BQUHLA9XMTKMG1P5TRDQS5P8LMOG&tp_b=38BQUHLA9XMTKMG1P5TRDQS5P8LMOG&c=365799&tp_c=365799","heads":1,"tails":1,"studentIndex":8,"studentTrueHypers":{"a":2,"b":8},"studentGuess":0.25,"delta":0.25,"totalExamples":2,"bonusSoFar":1.64},{"rt":null,"stimulus":"Sending examples to student... ","response":null,"trial_type":"html-keyboard-response","trial_index":73,"time_elapsed":901689,"internal_node_id":"0.0-72.0","params":{"nStudents":24,"maxFlips":30,"completionMinutes":45,"basePay":8,"maxBonus":9,"perTrialBonus":0.5,"perTrialBonusThreshold":0.05,"exampleCost":0.01},"classroomParams":{"A":{"a":1,"b":4},"B":{"a":4,"b":1},"C":{"a":2,"b":8},"D":{"a":8,"b":2}},"conditions":["nonSeqFull","nonSeqPartial","seqNoFeedback","seqFeedback"],"classroomPairings":[["A","B"],["C","D"]],"coinWeights":[0.2,0.5,0.8],"subjectId":"A1P6OXEJ86HQRM","assignmentId":"38BQUHLA9XMTKMG1P5TRDQS5P8LMOG","hitId":"3Z3R5YC0P3915KVY8X6BNRIWSQNFTT","url":"https://gershmanlab.com/experiments/alicia/teaching/experiment/?hitId=3Z3R5YC0P3915KVY8X6BNRIWSQNFTT&workerId=A1P6OXEJ86HQRM&assignmentId=38BQUHLA9XMTKMG1P5TRDQS5P8LMOG&a=AUB89&tp_a=AUB89&b=38BQUHLA9XMTKMG1P5TRDQS5P8LMOG&tp_b=38BQUHLA9XMTKMG1P5TRDQS5P8LMOG&c=365799&tp_c=365799"},{"rt":null,"stimulus":"Examples sent to student! Waiting for student...","response":null,"trial_type":"html-keyboard-response","trial_index":74,"time_elapsed":906690,"internal_node_id":"0.0-73.0","params":{"nStudents":24,"maxFlips":30,"completionMinutes":45,"basePay":8,"maxBonus":9,"perTrialBonus":0.5,"perTrialBonusThreshold":0.05,"exampleCost":0.01},"classroomParams":{"A":{"a":1,"b":4},"B":{"a":4,"b":1},"C":{"a":2,"b":8},"D":{"a":8,"b":2}},"conditions":["nonSeqFull","nonSeqPartial","seqNoFeedback","seqFeedback"],"classroomPairings":[["A","B"],["C","D"]],"coinWeights":[0.2,0.5,0.8],"subjectId":"A1P6OXEJ86HQRM","assignmentId":"38BQUHLA9XMTKMG1P5TRDQS5P8LMOG","hitId":"3Z3R5YC0P3915KVY8X6BNRIWSQNFTT","url":"https://gershmanlab.com/experiments/alicia/teaching/experiment/?hitId=3Z3R5YC0P3915KVY8X6BNRIWSQNFTT&workerId=A1P6OXEJ86HQRM&assignmentId=38BQUHLA9XMTKMG1P5TRDQS5P8LMOG&a=AUB89&tp_a=AUB89&b=38BQUHLA9XMTKMG1P5TRDQS5P8LMOG&tp_b=38BQUHLA9XMTKMG1P5TRDQS5P8LMOG&c=365799&tp_c=365799"},{"rt":9795,"response":{"heads":"15","tails":"15"},"type":"response","condition":"seqNoFeedback","trueTheta":0.5,"classrooms":["C","D"],"studentTrueClassroom":"C","exampleSet":"second","trial_type":"survey-html-form","trial_index":75,"time_elapsed":916486,"internal_node_id":"0.0-74.0-0.0","params":{"nStudents":24,"maxFlips":30,"completionMinutes":45,"basePay":8,"maxBonus":9,"perTrialBonus":0.5,"perTrialBonusThreshold":0.05,"exampleCost":0.01},"classroomParams":{"A":{"a":1,"b":4},"B":{"a":4,"b":1},"C":{"a":2,"b":8},"D":{"a":8,"b":2}},"conditions":["nonSeqFull","nonSeqPartial","seqNoFeedback","seqFeedback"],"classroomPairings":[["A","B"],["C","D"]],"coinWeights":[0.2,0.5,0.8],"subjectId":"A1P6OXEJ86HQRM","assignmentId":"38BQUHLA9XMTKMG1P5TRDQS5P8LMOG","hitId":"3Z3R5YC0P3915KVY8X6BNRIWSQNFTT","url":"https://gershmanlab.com/experiments/alicia/teaching/experiment/?hitId=3Z3R5YC0P3915KVY8X6BNRIWSQNFTT&workerId=A1P6OXEJ86HQRM&assignmentId=38BQUHLA9XMTKMG1P5TRDQS5P8LMOG&a=AUB89&tp_a=AUB89&b=38BQUHLA9XMTKMG1P5TRDQS5P8LMOG&tp_b=38BQUHLA9XMTKMG1P5TRDQS5P8LMOG&c=365799&tp_c=365799","firstResponseHeads":1,"firstResponseTails":1,"secondResponseHeads":15,"secondResponseTails":15,"totalHeads":16,"totalTails":16,"studentIndex":8,"studentTrueHypers":{"a":2,"b":8},"studentGuess":0.42857142857142855,"delta":0.07142857142857145,"bonus":0,"bonusSoFar":1.64,"totalExamples":32},{"rt":null,"stimulus":"Sending examples to student... ","response":null,"trial_type":"html-keyboard-response","trial_index":76,"time_elapsed":917744,"internal_node_id":"0.0-75.0","params":{"nStudents":24,"maxFlips":30,"completionMinutes":45,"basePay":8,"maxBonus":9,"perTrialBonus":0.5,"perTrialBonusThreshold":0.05,"exampleCost":0.01},"classroomParams":{"A":{"a":1,"b":4},"B":{"a":4,"b":1},"C":{"a":2,"b":8},"D":{"a":8,"b":2}},"conditions":["nonSeqFull","nonSeqPartial","seqNoFeedback","seqFeedback"],"classroomPairings":[["A","B"],["C","D"]],"coinWeights":[0.2,0.5,0.8],"subjectId":"A1P6OXEJ86HQRM","assignmentId":"38BQUHLA9XMTKMG1P5TRDQS5P8LMOG","hitId":"3Z3R5YC0P3915KVY8X6BNRIWSQNFTT","url":"https://gershmanlab.com/experiments/alicia/teaching/experiment/?hitId=3Z3R5YC0P3915KVY8X6BNRIWSQNFTT&workerId=A1P6OXEJ86HQRM&assignmentId=38BQUHLA9XMTKMG1P5TRDQS5P8LMOG&a=AUB89&tp_a=AUB89&b=38BQUHLA9XMTKMG1P5TRDQS5P8LMOG&tp_b=38BQUHLA9XMTKMG1P5TRDQS5P8LMOG&c=365799&tp_c=365799"},{"rt":null,"stimulus":"Examples sent to student! Waiting for student...","response":null,"trial_type":"html-keyboard-response","trial_index":77,"time_elapsed":923245,"internal_node_id":"0.0-76.0","params":{"nStudents":24,"maxFlips":30,"completionMinutes":45,"basePay":8,"maxBonus":9,"perTrialBonus":0.5,"perTrialBonusThreshold":0.05,"exampleCost":0.01},"classroomParams":{"A":{"a":1,"b":4},"B":{"a":4,"b":1},"C":{"a":2,"b":8},"D":{"a":8,"b":2}},"conditions":["nonSeqFull","nonSeqPartial","seqNoFeedback","seqFeedback"],"classroomPairings":[["A","B"],["C","D"]],"coinWeights":[0.2,0.5,0.8],"subjectId":"A1P6OXEJ86HQRM","assignmentId":"38BQUHLA9XMTKMG1P5TRDQS5P8LMOG","hitId":"3Z3R5YC0P3915KVY8X6BNRIWSQNFTT","url":"https://gershmanlab.com/experiments/alicia/teaching/experiment/?hitId=3Z3R5YC0P3915KVY8X6BNRIWSQNFTT&workerId=A1P6OXEJ86HQRM&assignmentId=38BQUHLA9XMTKMG1P5TRDQS5P8LMOG&a=AUB89&tp_a=AUB89&b=38BQUHLA9XMTKMG1P5TRDQS5P8LMOG&tp_b=38BQUHLA9XMTKMG1P5TRDQS5P8LMOG&c=365799&tp_c=365799"},{"rt":7791,"stimulus":"\n                <p>Student 9's first guess for coin weight: <b style=\"color:Tomato\";>0.25</b></p>\n                <p>Student 9's second guess for coin weight: <b style=\"color:Tomato\";>0.43</b></p>\n                <p>You received a bonus of <b>$0.00</b> based on the student's second guess.</p>\n                <p>Total bonus so far: <b>$1.64</b></p>\n                <p>Press any key to continue.</p>\n                ","response":"f","trial_type":"html-keyboard-response","trial_index":78,"time_elapsed":931036,"internal_node_id":"0.0-77.0","params":{"nStudents":24,"maxFlips":30,"completionMinutes":45,"basePay":8,"maxBonus":9,"perTrialBonus":0.5,"perTrialBonusThreshold":0.05,"exampleCost":0.01},"classroomParams":{"A":{"a":1,"b":4},"B":{"a":4,"b":1},"C":{"a":2,"b":8},"D":{"a":8,"b":2}},"conditions":["nonSeqFull","nonSeqPartial","seqNoFeedback","seqFeedback"],"classroomPairings":[["A","B"],["C","D"]],"coinWeights":[0.2,0.5,0.8],"subjectId":"A1P6OXEJ86HQRM","assignmentId":"38BQUHLA9XMTKMG1P5TRDQS5P8LMOG","hitId":"3Z3R5YC0P3915KVY8X6BNRIWSQNFTT","url":"https://gershmanlab.com/experiments/alicia/teaching/experiment/?hitId=3Z3R5YC0P3915KVY8X6BNRIWSQNFTT&workerId=A1P6OXEJ86HQRM&assignmentId=38BQUHLA9XMTKMG1P5TRDQS5P8LMOG&a=AUB89&tp_a=AUB89&b=38BQUHLA9XMTKMG1P5TRDQS5P8LMOG&tp_b=38BQUHLA9XMTKMG1P5TRDQS5P8LMOG&c=365799&tp_c=365799"},{"rt":null,"stimulus":"<div style=\"font-size:60px;\">Next student</div>","response":null,"trial_type":"html-keyboard-response","trial_index":79,"time_elapsed":933542,"internal_node_id":"0.0-78.0-0.0","params":{"nStudents":24,"maxFlips":30,"completionMinutes":45,"basePay":8,"maxBonus":9,"perTrialBonus":0.5,"perTrialBonusThreshold":0.05,"exampleCost":0.01},"classroomParams":{"A":{"a":1,"b":4},"B":{"a":4,"b":1},"C":{"a":2,"b":8},"D":{"a":8,"b":2}},"conditions":["nonSeqFull","nonSeqPartial","seqNoFeedback","seqFeedback"],"classroomPairings":[["A","B"],["C","D"]],"coinWeights":[0.2,0.5,0.8],"subjectId":"A1P6OXEJ86HQRM","assignmentId":"38BQUHLA9XMTKMG1P5TRDQS5P8LMOG","hitId":"3Z3R5YC0P3915KVY8X6BNRIWSQNFTT","url":"https://gershmanlab.com/experiments/alicia/teaching/experiment/?hitId=3Z3R5YC0P3915KVY8X6BNRIWSQNFTT&workerId=A1P6OXEJ86HQRM&assignmentId=38BQUHLA9XMTKMG1P5TRDQS5P8LMOG&a=AUB89&tp_a=AUB89&b=38BQUHLA9XMTKMG1P5TRDQS5P8LMOG&tp_b=38BQUHLA9XMTKMG1P5TRDQS5P8LMOG&c=365799&tp_c=365799"},{"rt":2244,"stimulus":"\n            <h4 style=\"color:Orange;\">Student 10</h4>\n            <h2>The weight of your coin is <b style=\"color:Tomato;\">0.8</b>.</h2>\n            <p>In this block, you will be giving <b>one</b> set of examples to Student 10.</p>\n                <p>You will receive feedback at the end of the block.</p>\n            <p></p>","response":0,"trial_type":"html-button-response","trial_index":80,"time_elapsed":935787,"internal_node_id":"0.0-79.0","params":{"nStudents":24,"maxFlips":30,"completionMinutes":45,"basePay":8,"maxBonus":9,"perTrialBonus":0.5,"perTrialBonusThreshold":0.05,"exampleCost":0.01},"classroomParams":{"A":{"a":1,"b":4},"B":{"a":4,"b":1},"C":{"a":2,"b":8},"D":{"a":8,"b":2}},"conditions":["nonSeqFull","nonSeqPartial","seqNoFeedback","seqFeedback"],"classroomPairings":[["A","B"],["C","D"]],"coinWeights":[0.2,0.5,0.8],"subjectId":"A1P6OXEJ86HQRM","assignmentId":"38BQUHLA9XMTKMG1P5TRDQS5P8LMOG","hitId":"3Z3R5YC0P3915KVY8X6BNRIWSQNFTT","url":"https://gershmanlab.com/experiments/alicia/teaching/experiment/?hitId=3Z3R5YC0P3915KVY8X6BNRIWSQNFTT&workerId=A1P6OXEJ86HQRM&assignmentId=38BQUHLA9XMTKMG1P5TRDQS5P8LMOG&a=AUB89&tp_a=AUB89&b=38BQUHLA9XMTKMG1P5TRDQS5P8LMOG&tp_b=38BQUHLA9XMTKMG1P5TRDQS5P8LMOG&c=365799&tp_c=365799"},{"rt":14351,"response":{"heads":"16","tails":"4"},"type":"response","condition":"nonSeqPartial","trueTheta":0.8,"classrooms":["A","B"],"studentTrueClassroom":"B","exampleSet":"first","trial_type":"survey-html-form","trial_index":81,"time_elapsed":950139,"internal_node_id":"0.0-80.0-0.0","params":{"nStudents":24,"maxFlips":30,"completionMinutes":45,"basePay":8,"maxBonus":9,"perTrialBonus":0.5,"perTrialBonusThreshold":0.05,"exampleCost":0.01},"classroomParams":{"A":{"a":1,"b":4},"B":{"a":4,"b":1},"C":{"a":2,"b":8},"D":{"a":8,"b":2}},"conditions":["nonSeqFull","nonSeqPartial","seqNoFeedback","seqFeedback"],"classroomPairings":[["A","B"],["C","D"]],"coinWeights":[0.2,0.5,0.8],"subjectId":"A1P6OXEJ86HQRM","assignmentId":"38BQUHLA9XMTKMG1P5TRDQS5P8LMOG","hitId":"3Z3R5YC0P3915KVY8X6BNRIWSQNFTT","url":"https://gershmanlab.com/experiments/alicia/teaching/experiment/?hitId=3Z3R5YC0P3915KVY8X6BNRIWSQNFTT&workerId=A1P6OXEJ86HQRM&assignmentId=38BQUHLA9XMTKMG1P5TRDQS5P8LMOG&a=AUB89&tp_a=AUB89&b=38BQUHLA9XMTKMG1P5TRDQS5P8LMOG&tp_b=38BQUHLA9XMTKMG1P5TRDQS5P8LMOG&c=365799&tp_c=365799","heads":16,"tails":4,"studentIndex":9,"studentTrueHypers":{"a":4,"b":1},"studentGuess":0.8,"delta":0,"totalExamples":20,"bonus":0.3,"bonusSoFar":1.94},{"rt":null,"stimulus":"Sending examples to student... ","response":null,"trial_type":"html-keyboard-response","trial_index":82,"time_elapsed":951649,"internal_node_id":"0.0-81.0","params":{"nStudents":24,"maxFlips":30,"completionMinutes":45,"basePay":8,"maxBonus":9,"perTrialBonus":0.5,"perTrialBonusThreshold":0.05,"exampleCost":0.01},"classroomParams":{"A":{"a":1,"b":4},"B":{"a":4,"b":1},"C":{"a":2,"b":8},"D":{"a":8,"b":2}},"conditions":["nonSeqFull","nonSeqPartial","seqNoFeedback","seqFeedback"],"classroomPairings":[["A","B"],["C","D"]],"coinWeights":[0.2,0.5,0.8],"subjectId":"A1P6OXEJ86HQRM","assignmentId":"38BQUHLA9XMTKMG1P5TRDQS5P8LMOG","hitId":"3Z3R5YC0P3915KVY8X6BNRIWSQNFTT","url":"https://gershmanlab.com/experiments/alicia/teaching/experiment/?hitId=3Z3R5YC0P3915KVY8X6BNRIWSQNFTT&workerId=A1P6OXEJ86HQRM&assignmentId=38BQUHLA9XMTKMG1P5TRDQS5P8LMOG&a=AUB89&tp_a=AUB89&b=38BQUHLA9XMTKMG1P5TRDQS5P8LMOG&tp_b=38BQUHLA9XMTKMG1P5TRDQS5P8LMOG&c=365799&tp_c=365799"},{"rt":null,"stimulus":"Examples sent to student! Waiting for student...","response":null,"trial_type":"html-keyboard-response","trial_index":83,"time_elapsed":956650,"internal_node_id":"0.0-82.0","params":{"nStudents":24,"maxFlips":30,"completionMinutes":45,"basePay":8,"maxBonus":9,"perTrialBonus":0.5,"perTrialBonusThreshold":0.05,"exampleCost":0.01},"classroomParams":{"A":{"a":1,"b":4},"B":{"a":4,"b":1},"C":{"a":2,"b":8},"D":{"a":8,"b":2}},"conditions":["nonSeqFull","nonSeqPartial","seqNoFeedback","seqFeedback"],"classroomPairings":[["A","B"],["C","D"]],"coinWeights":[0.2,0.5,0.8],"subjectId":"A1P6OXEJ86HQRM","assignmentId":"38BQUHLA9XMTKMG1P5TRDQS5P8LMOG","hitId":"3Z3R5YC0P3915KVY8X6BNRIWSQNFTT","url":"https://gershmanlab.com/experiments/alicia/teaching/experiment/?hitId=3Z3R5YC0P3915KVY8X6BNRIWSQNFTT&workerId=A1P6OXEJ86HQRM&assignmentId=38BQUHLA9XMTKMG1P5TRDQS5P8LMOG&a=AUB89&tp_a=AUB89&b=38BQUHLA9XMTKMG1P5TRDQS5P8LMOG&tp_b=38BQUHLA9XMTKMG1P5TRDQS5P8LMOG&c=365799&tp_c=365799"},{"rt":2986,"stimulus":"\n                <p>Student's guess for coin weight: <b style=\"color:Tomato;\">0.80</b></p>\n                <p>You received a bonus of <b>$0.3</b>. Total bonus so far: <b>$1.94</b></b></p>\n                <p></p>\n                <p>Press any key to continue.</p>\n                ","response":"f","trial_type":"html-keyboard-response","trial_index":84,"time_elapsed":959637,"internal_node_id":"0.0-83.0","params":{"nStudents":24,"maxFlips":30,"completionMinutes":45,"basePay":8,"maxBonus":9,"perTrialBonus":0.5,"perTrialBonusThreshold":0.05,"exampleCost":0.01},"classroomParams":{"A":{"a":1,"b":4},"B":{"a":4,"b":1},"C":{"a":2,"b":8},"D":{"a":8,"b":2}},"conditions":["nonSeqFull","nonSeqPartial","seqNoFeedback","seqFeedback"],"classroomPairings":[["A","B"],["C","D"]],"coinWeights":[0.2,0.5,0.8],"subjectId":"A1P6OXEJ86HQRM","assignmentId":"38BQUHLA9XMTKMG1P5TRDQS5P8LMOG","hitId":"3Z3R5YC0P3915KVY8X6BNRIWSQNFTT","url":"https://gershmanlab.com/experiments/alicia/teaching/experiment/?hitId=3Z3R5YC0P3915KVY8X6BNRIWSQNFTT&workerId=A1P6OXEJ86HQRM&assignmentId=38BQUHLA9XMTKMG1P5TRDQS5P8LMOG&a=AUB89&tp_a=AUB89&b=38BQUHLA9XMTKMG1P5TRDQS5P8LMOG&tp_b=38BQUHLA9XMTKMG1P5TRDQS5P8LMOG&c=365799&tp_c=365799"},{"rt":null,"stimulus":"<div style=\"font-size:60px;\">Next student</div>","response":null,"trial_type":"html-keyboard-response","trial_index":85,"time_elapsed":962146,"internal_node_id":"0.0-84.0-0.0","params":{"nStudents":24,"maxFlips":30,"completionMinutes":45,"basePay":8,"maxBonus":9,"perTrialBonus":0.5,"perTrialBonusThreshold":0.05,"exampleCost":0.01},"classroomParams":{"A":{"a":1,"b":4},"B":{"a":4,"b":1},"C":{"a":2,"b":8},"D":{"a":8,"b":2}},"conditions":["nonSeqFull","nonSeqPartial","seqNoFeedback","seqFeedback"],"classroomPairings":[["A","B"],["C","D"]],"coinWeights":[0.2,0.5,0.8],"subjectId":"A1P6OXEJ86HQRM","assignmentId":"38BQUHLA9XMTKMG1P5TRDQS5P8LMOG","hitId":"3Z3R5YC0P3915KVY8X6BNRIWSQNFTT","url":"https://gershmanlab.com/experiments/alicia/teaching/experiment/?hitId=3Z3R5YC0P3915KVY8X6BNRIWSQNFTT&workerId=A1P6OXEJ86HQRM&assignmentId=38BQUHLA9XMTKMG1P5TRDQS5P8LMOG&a=AUB89&tp_a=