[{"rt":3041,"stimulus":"Welcome to the experiment. Press any key to begin.","response":" ","trial_type":"html-keyboard-response","trial_index":0,"time_elapsed":3055,"internal_node_id":"0.0-0.0","params":{"nStudents":24,"maxFlips":30,"completionMinutes":45,"basePay":8,"maxBonus":9,"perTrialBonus":0.5,"perTrialBonusThreshold":0.05,"exampleCost":0.01},"classroomParams":{"A":{"a":1,"b":4},"B":{"a":4,"b":1},"C":{"a":2,"b":8},"D":{"a":8,"b":2}},"conditions":["nonSeqFull","nonSeqPartial","seqNoFeedback","seqFeedback"],"classroomPairings":[["A","B"],["C","D"]],"coinWeights":[0.2,0.5,0.8],"subjectId":"A1USR9JCAMDGM3","assignmentId":"3IUZPWIU1PT6Z7P0VF7LF7DN35PKWL","hitId":"3JGHED38EDDK7DFM0KVY7GXU94LY7W","url":"https://gershmanlab.com/experiments/alicia/teaching/experiment/?hitId=3JGHED38EDDK7DFM0KVY7GXU94LY7W&workerId=A1USR9JCAMDGM3&assignmentId=3IUZPWIU1PT6Z7P0VF7LF7DN35PKWL&a=UPUI9&tp_a=UPUI9&b=3IUZPWIU1PT6Z7P0VF7LF7DN35PKWL&tp_b=3IUZPWIU1PT6Z7P0VF7LF7DN35PKWL&c=365799&tp_c=365799"},{"rt":5575,"stimulus":"\n        <h3>Please read this consent agreement carefully before deciding whether to participate in this experiment.</h3>\n        <p><b>Purpose of the research:</b> To examine how people teach effectively.</p>\n        <p><b>What you will do in this research:</b> You will teach students the weights of different coins.</p>\n        <p><b>Time required:</b> This experiment will take 45 minutes to complete.</p>\n        <p><b>Risks:</b> There are no anticipated risks associated with participating in this study.             The effects of participating should be comparable to those you would experience from viewing a computer monitor             and using a mouse and keyboard for the duration of the experiment.</p>\n        <p><b>Benefits:</b> The study provides important information about the nature of teaching.</p>\n        <p><b>Compensation:</b> You will receive <b>$8</b> for completing the experiment and a performance bonus of up to <b>$9</b>.</p>\n        <p><b>Confidentiality:</b> Your participation in this study will remain confidential.             No personally identifiable information will be associated with your data.             Your de-identified data may be shared with other researchers and used in future projects.</p>\n        <p><b>Participation and withdrawal:</b> Your participation in this study is completely voluntary and             you may refuse to participate or you may choose to withdraw at any time without penalty or loss of\n            benefits to which you are otherwise entitled.</p>\n        <p><b>How to contact the researcher:</b> If you have questions or concerns about your participation            or payment, or want to request a summary of research findings, please contact\n            Alicia Chen, aliciachen@college.harvard.edu.</p>\n        <p><b>Whom to contact about your rights in this research:</b> For questions, concerns, suggestions,             or complaints that have not been or cannot be addressed by the researcher, or to report             research-related harm, please contact the Committee on the Use of Human Subjects in Research at Harvard University,             1414 Massachusetts Avenue, Second Floor, Cambridge, MA 02138. Phone: 617-496-2847. Email: cuhs@fas.harvard.edu.</p>\n        ","response":0,"trial_type":"html-button-response","trial_index":1,"time_elapsed":8632,"internal_node_id":"0.0-1.0","params":{"nStudents":24,"maxFlips":30,"completionMinutes":45,"basePay":8,"maxBonus":9,"perTrialBonus":0.5,"perTrialBonusThreshold":0.05,"exampleCost":0.01},"classroomParams":{"A":{"a":1,"b":4},"B":{"a":4,"b":1},"C":{"a":2,"b":8},"D":{"a":8,"b":2}},"conditions":["nonSeqFull","nonSeqPartial","seqNoFeedback","seqFeedback"],"classroomPairings":[["A","B"],["C","D"]],"coinWeights":[0.2,0.5,0.8],"subjectId":"A1USR9JCAMDGM3","assignmentId":"3IUZPWIU1PT6Z7P0VF7LF7DN35PKWL","hitId":"3JGHED38EDDK7DFM0KVY7GXU94LY7W","url":"https://gershmanlab.com/experiments/alicia/teaching/experiment/?hitId=3JGHED38EDDK7DFM0KVY7GXU94LY7W&workerId=A1USR9JCAMDGM3&assignmentId=3IUZPWIU1PT6Z7P0VF7LF7DN35PKWL&a=UPUI9&tp_a=UPUI9&b=3IUZPWIU1PT6Z7P0VF7LF7DN35PKWL&tp_b=3IUZPWIU1PT6Z7P0VF7LF7DN35PKWL&c=365799&tp_c=365799"},{"view_history":[{"page_index":0,"viewing_time":40059},{"page_index":1,"viewing_time":2669},{"page_index":2,"viewing_time":7434},{"page_index":3,"viewing_time":2531},{"page_index":4,"viewing_time":5418},{"page_index":5,"viewing_time":8180},{"page_index":6,"viewing_time":6711}],"rt":73003,"trial_type":"instructions","trial_index":2,"time_elapsed":81636,"internal_node_id":"0.0-2.0-0.0","params":{"nStudents":24,"maxFlips":30,"completionMinutes":45,"basePay":8,"maxBonus":9,"perTrialBonus":0.5,"perTrialBonusThreshold":0.05,"exampleCost":0.01},"classroomParams":{"A":{"a":1,"b":4},"B":{"a":4,"b":1},"C":{"a":2,"b":8},"D":{"a":8,"b":2}},"conditions":["nonSeqFull","nonSeqPartial","seqNoFeedback","seqFeedback"],"classroomPairings":[["A","B"],["C","D"]],"coinWeights":[0.2,0.5,0.8],"subjectId":"A1USR9JCAMDGM3","assignmentId":"3IUZPWIU1PT6Z7P0VF7LF7DN35PKWL","hitId":"3JGHED38EDDK7DFM0KVY7GXU94LY7W","url":"https://gershmanlab.com/experiments/alicia/teaching/experiment/?hitId=3JGHED38EDDK7DFM0KVY7GXU94LY7W&workerId=A1USR9JCAMDGM3&assignmentId=3IUZPWIU1PT6Z7P0VF7LF7DN35PKWL&a=UPUI9&tp_a=UPUI9&b=3IUZPWIU1PT6Z7P0VF7LF7DN35PKWL&tp_b=3IUZPWIU1PT6Z7P0VF7LF7DN35PKWL&c=365799&tp_c=365799"},{"rt":362644,"response":{"Q0":"Students in different classrooms will have seen a different number of heads and tails before seeing the examples you select for them.","Q1":"By <b>considering the student's classroom information</b> so that I can teach efficiently and accurately/helpfully at the same time (because each example I give to the student costs money!).","Q2":"The coin lands heads 90% of the time.","Q3":"No, I will teach a <b>new</b> student each time.","Q4":"The students are all on planet Earth, where they tend to believe the vast majority of coins will be fair.","Q5":"Based on the student's second (and final) guess."},"question_order":[2,5,1,0,3,4],"trial_type":"survey-multi-choice","trial_index":3,"time_elapsed":444282,"internal_node_id":"0.0-2.0-1.0","params":{"nStudents":24,"maxFlips":30,"completionMinutes":45,"basePay":8,"maxBonus":9,"perTrialBonus":0.5,"perTrialBonusThreshold":0.05,"exampleCost":0.01},"classroomParams":{"A":{"a":1,"b":4},"B":{"a":4,"b":1},"C":{"a":2,"b":8},"D":{"a":8,"b":2}},"conditions":["nonSeqFull","nonSeqPartial","seqNoFeedback","seqFeedback"],"classroomPairings":[["A","B"],["C","D"]],"coinWeights":[0.2,0.5,0.8],"subjectId":"A1USR9JCAMDGM3","assignmentId":"3IUZPWIU1PT6Z7P0VF7LF7DN35PKWL","hitId":"3JGHED38EDDK7DFM0KVY7GXU94LY7W","url":"https://gershmanlab.com/experiments/alicia/teaching/experiment/?hitId=3JGHED38EDDK7DFM0KVY7GXU94LY7W&workerId=A1USR9JCAMDGM3&assignmentId=3IUZPWIU1PT6Z7P0VF7LF7DN35PKWL&a=UPUI9&tp_a=UPUI9&b=3IUZPWIU1PT6Z7P0VF7LF7DN35PKWL&tp_b=3IUZPWIU1PT6Z7P0VF7LF7DN35PKWL&c=365799&tp_c=365799","pass":false},{"rt":1910,"stimulus":"Oops, you have missed question(s) on the comprehension check! We'll show you the instructions again.","response":0,"trial_type":"html-button-response","trial_index":4,"time_elapsed":446197,"internal_node_id":"0.0-2.0-2.0-0.0","params":{"nStudents":24,"maxFlips":30,"completionMinutes":45,"basePay":8,"maxBonus":9,"perTrialBonus":0.5,"perTrialBonusThreshold":0.05,"exampleCost":0.01},"classroomParams":{"A":{"a":1,"b":4},"B":{"a":4,"b":1},"C":{"a":2,"b":8},"D":{"a":8,"b":2}},"conditions":["nonSeqFull","nonSeqPartial","seqNoFeedback","seqFeedback"],"classroomPairings":[["A","B"],["C","D"]],"coinWeights":[0.2,0.5,0.8],"subjectId":"A1USR9JCAMDGM3","assignmentId":"3IUZPWIU1PT6Z7P0VF7LF7DN35PKWL","hitId":"3JGHED38EDDK7DFM0KVY7GXU94LY7W","url":"https://gershmanlab.com/experiments/alicia/teaching/experiment/?hitId=3JGHED38EDDK7DFM0KVY7GXU94LY7W&workerId=A1USR9JCAMDGM3&assignmentId=3IUZPWIU1PT6Z7P0VF7LF7DN35PKWL&a=UPUI9&tp_a=UPUI9&b=3IUZPWIU1PT6Z7P0VF7LF7DN35PKWL&tp_b=3IUZPWIU1PT6Z7P0VF7LF7DN35PKWL&c=365799&tp_c=365799"},{"view_history":[{"page_index":0,"viewing_time":1206},{"page_index":1,"viewing_time":572},{"page_index":2,"viewing_time":2538},{"page_index":3,"viewing_time":455},{"page_index":4,"viewing_time":1049},{"page_index":5,"viewing_time":1214},{"page_index":6,"viewing_time":1381}],"rt":8414,"trial_type":"instructions","trial_index":5,"time_elapsed":454612,"internal_node_id":"0.0-2.1-0.1","params":{"nStudents":24,"maxFlips":30,"completionMinutes":45,"basePay":8,"maxBonus":9,"perTrialBonus":0.5,"perTrialBonusThreshold":0.05,"exampleCost":0.01},"classroomParams":{"A":{"a":1,"b":4},"B":{"a":4,"b":1},"C":{"a":2,"b":8},"D":{"a":8,"b":2}},"conditions":["nonSeqFull","nonSeqPartial","seqNoFeedback","seqFeedback"],"classroomPairings":[["A","B"],["C","D"]],"coinWeights":[0.2,0.5,0.8],"subjectId":"A1USR9JCAMDGM3","assignmentId":"3IUZPWIU1PT6Z7P0VF7LF7DN35PKWL","hitId":"3JGHED38EDDK7DFM0KVY7GXU94LY7W","url":"https://gershmanlab.com/experiments/alicia/teaching/experiment/?hitId=3JGHED38EDDK7DFM0KVY7GXU94LY7W&workerId=A1USR9JCAMDGM3&assignmentId=3IUZPWIU1PT6Z7P0VF7LF7DN35PKWL&a=UPUI9&tp_a=UPUI9&b=3IUZPWIU1PT6Z7P0VF7LF7DN35PKWL&tp_b=3IUZPWIU1PT6Z7P0VF7LF7DN35PKWL&c=365799&tp_c=365799"},{"rt":43498,"response":{"Q0":"Students in different classrooms have seen a different proportion of fair and unfair coins before seeing the examples you select for them.","Q1":"By <b>considering the student's classroom information</b> so that I can teach efficiently and accurately/helpfully at the same time (because each example I give to the student costs money!).","Q2":"The coin lands heads 90% of the time.","Q3":"No, I will teach a <b>new</b> student each time.","Q4":"The students are all on planet Earth, where they tend to believe the vast majority of coins will be fair.","Q5":"Based on the student's second (and final) guess."},"question_order":[1,2,0,5,4,3],"trial_type":"survey-multi-choice","trial_index":6,"time_elapsed":498111,"internal_node_id":"0.0-2.1-1.1","params":{"nStudents":24,"maxFlips":30,"completionMinutes":45,"basePay":8,"maxBonus":9,"perTrialBonus":0.5,"perTrialBonusThreshold":0.05,"exampleCost":0.01},"classroomParams":{"A":{"a":1,"b":4},"B":{"a":4,"b":1},"C":{"a":2,"b":8},"D":{"a":8,"b":2}},"conditions":["nonSeqFull","nonSeqPartial","seqNoFeedback","seqFeedback"],"classroomPairings":[["A","B"],["C","D"]],"coinWeights":[0.2,0.5,0.8],"subjectId":"A1USR9JCAMDGM3","assignmentId":"3IUZPWIU1PT6Z7P0VF7LF7DN35PKWL","hitId":"3JGHED38EDDK7DFM0KVY7GXU94LY7W","url":"https://gershmanlab.com/experiments/alicia/teaching/experiment/?hitId=3JGHED38EDDK7DFM0KVY7GXU94LY7W&workerId=A1USR9JCAMDGM3&assignmentId=3IUZPWIU1PT6Z7P0VF7LF7DN35PKWL&a=UPUI9&tp_a=UPUI9&b=3IUZPWIU1PT6Z7P0VF7LF7DN35PKWL&tp_b=3IUZPWIU1PT6Z7P0VF7LF7DN35PKWL&c=365799&tp_c=365799","pass":false},{"rt":1711,"stimulus":"Oops, you have missed question(s) on the comprehension check! We'll show you the instructions again.","response":0,"trial_type":"html-button-response","trial_index":7,"time_elapsed":499824,"internal_node_id":"0.0-2.1-2.1-0.1","params":{"nStudents":24,"maxFlips":30,"completionMinutes":45,"basePay":8,"maxBonus":9,"perTrialBonus":0.5,"perTrialBonusThreshold":0.05,"exampleCost":0.01},"classroomParams":{"A":{"a":1,"b":4},"B":{"a":4,"b":1},"C":{"a":2,"b":8},"D":{"a":8,"b":2}},"conditions":["nonSeqFull","nonSeqPartial","seqNoFeedback","seqFeedback"],"classroomPairings":[["A","B"],["C","D"]],"coinWeights":[0.2,0.5,0.8],"subjectId":"A1USR9JCAMDGM3","assignmentId":"3IUZPWIU1PT6Z7P0VF7LF7DN35PKWL","hitId":"3JGHED38EDDK7DFM0KVY7GXU94LY7W","url":"https://gershmanlab.com/experiments/alicia/teaching/experiment/?hitId=3JGHED38EDDK7DFM0KVY7GXU94LY7W&workerId=A1USR9JCAMDGM3&assignmentId=3IUZPWIU1PT6Z7P0VF7LF7DN35PKWL&a=UPUI9&tp_a=UPUI9&b=3IUZPWIU1PT6Z7P0VF7LF7DN35PKWL&tp_b=3IUZPWIU1PT6Z7P0VF7LF7DN35PKWL&c=365799&tp_c=365799"},{"view_history":[{"page_index":0,"viewing_time":874},{"page_index":1,"viewing_time":239},{"page_index":2,"viewing_time":3232},{"page_index":1,"viewing_time":5162},{"page_index":2,"viewing_time":1476},{"page_index":3,"viewing_time":339},{"page_index":4,"viewing_time":1475},{"page_index":3,"viewing_time":14078},{"page_index":4,"viewing_time":1208},{"page_index":5,"viewing_time":1192},{"page_index":6,"viewing_time":1085}],"rt":30360,"trial_type":"instructions","trial_index":8,"time_elapsed":530185,"internal_node_id":"0.0-2.2-0.2","params":{"nStudents":24,"maxFlips":30,"completionMinutes":45,"basePay":8,"maxBonus":9,"perTrialBonus":0.5,"perTrialBonusThreshold":0.05,"exampleCost":0.01},"classroomParams":{"A":{"a":1,"b":4},"B":{"a":4,"b":1},"C":{"a":2,"b":8},"D":{"a":8,"b":2}},"conditions":["nonSeqFull","nonSeqPartial","seqNoFeedback","seqFeedback"],"classroomPairings":[["A","B"],["C","D"]],"coinWeights":[0.2,0.5,0.8],"subjectId":"A1USR9JCAMDGM3","assignmentId":"3IUZPWIU1PT6Z7P0VF7LF7DN35PKWL","hitId":"3JGHED38EDDK7DFM0KVY7GXU94LY7W","url":"https://gershmanlab.com/experiments/alicia/teaching/experiment/?hitId=3JGHED38EDDK7DFM0KVY7GXU94LY7W&workerId=A1USR9JCAMDGM3&assignmentId=3IUZPWIU1PT6Z7P0VF7LF7DN35PKWL&a=UPUI9&tp_a=UPUI9&b=3IUZPWIU1PT6Z7P0VF7LF7DN35PKWL&tp_b=3IUZPWIU1PT6Z7P0VF7LF7DN35PKWL&c=365799&tp_c=365799"},{"rt":63951,"response":{"Q0":"Students in different classrooms have seen a different proportion of fair and unfair coins before seeing the examples you select for them.","Q1":"By <b>considering the student's classroom information</b> so that I can teach efficiently and accurately/helpfully at the same time (because each example I give to the student costs money!).","Q2":"The coin lands heads 90% of the time.","Q3":"No, I will teach a <b>new</b> student each time.","Q4":"The students are also on the same alien planet as you, where coins can be unfair.","Q5":"Based on the student's second (and final) guess."},"question_order":[5,1,3,0,2,4],"trial_type":"survey-multi-choice","trial_index":9,"time_elapsed":594136,"internal_node_id":"0.0-2.2-1.2","params":{"nStudents":24,"maxFlips":30,"completionMinutes":45,"basePay":8,"maxBonus":9,"perTrialBonus":0.5,"perTrialBonusThreshold":0.05,"exampleCost":0.01},"classroomParams":{"A":{"a":1,"b":4},"B":{"a":4,"b":1},"C":{"a":2,"b":8},"D":{"a":8,"b":2}},"conditions":["nonSeqFull","nonSeqPartial","seqNoFeedback","seqFeedback"],"classroomPairings":[["A","B"],["C","D"]],"coinWeights":[0.2,0.5,0.8],"subjectId":"A1USR9JCAMDGM3","assignmentId":"3IUZPWIU1PT6Z7P0VF7LF7DN35PKWL","hitId":"3JGHED38EDDK7DFM0KVY7GXU94LY7W","url":"https://gershmanlab.com/experiments/alicia/teaching/experiment/?hitId=3JGHED38EDDK7DFM0KVY7GXU94LY7W&workerId=A1USR9JCAMDGM3&assignmentId=3IUZPWIU1PT6Z7P0VF7LF7DN35PKWL&a=UPUI9&tp_a=UPUI9&b=3IUZPWIU1PT6Z7P0VF7LF7DN35PKWL&tp_b=3IUZPWIU1PT6Z7P0VF7LF7DN35PKWL&c=365799&tp_c=365799","pass":false},{"rt":1710,"stimulus":"Oops, you have missed question(s) on the comprehension check! We'll show you the instructions again.","response":0,"trial_type":"html-button-response","trial_index":10,"time_elapsed":595849,"internal_node_id":"0.0-2.2-2.2-0.2","params":{"nStudents":24,"maxFlips":30,"completionMinutes":45,"basePay":8,"maxBonus":9,"perTrialBonus":0.5,"perTrialBonusThreshold":0.05,"exampleCost":0.01},"classroomParams":{"A":{"a":1,"b":4},"B":{"a":4,"b":1},"C":{"a":2,"b":8},"D":{"a":8,"b":2}},"conditions":["nonSeqFull","nonSeqPartial","seqNoFeedback","seqFeedback"],"classroomPairings":[["A","B"],["C","D"]],"coinWeights":[0.2,0.5,0.8],"subjectId":"A1USR9JCAMDGM3","assignmentId":"3IUZPWIU1PT6Z7P0VF7LF7DN35PKWL","hitId":"3JGHED38EDDK7DFM0KVY7GXU94LY7W","url":"https://gershmanlab.com/experiments/alicia/teaching/experiment/?hitId=3JGHED38EDDK7DFM0KVY7GXU94LY7W&workerId=A1USR9JCAMDGM3&assignmentId=3IUZPWIU1PT6Z7P0VF7LF7DN35PKWL&a=UPUI9&tp_a=UPUI9&b=3IUZPWIU1PT6Z7P0VF7LF7DN35PKWL&tp_b=3IUZPWIU1PT6Z7P0VF7LF7DN35PKWL&c=365799&tp_c=365799"},{"view_history":[{"page_index":0,"viewing_time":867},{"page_index":1,"viewing_time":918},{"page_index":2,"viewing_time":1389},{"page_index":3,"viewing_time":1085},{"page_index":4,"viewing_time":5683},{"page_index":5,"viewing_time":1445},{"page_index":6,"viewing_time":18894}],"rt":30280,"trial_type":"instructions","trial_index":11,"time_elapsed":626130,"internal_node_id":"0.0-2.3-0.3","params":{"nStudents":24,"maxFlips":30,"completionMinutes":45,"basePay":8,"maxBonus":9,"perTrialBonus":0.5,"perTrialBonusThreshold":0.05,"exampleCost":0.01},"classroomParams":{"A":{"a":1,"b":4},"B":{"a":4,"b":1},"C":{"a":2,"b":8},"D":{"a":8,"b":2}},"conditions":["nonSeqFull","nonSeqPartial","seqNoFeedback","seqFeedback"],"classroomPairings":[["A","B"],["C","D"]],"coinWeights":[0.2,0.5,0.8],"subjectId":"A1USR9JCAMDGM3","assignmentId":"3IUZPWIU1PT6Z7P0VF7LF7DN35PKWL","hitId":"3JGHED38EDDK7DFM0KVY7GXU94LY7W","url":"https://gershmanlab.com/experiments/alicia/teaching/experiment/?hitId=3JGHED38EDDK7DFM0KVY7GXU94LY7W&workerId=A1USR9JCAMDGM3&assignmentId=3IUZPWIU1PT6Z7P0VF7LF7DN35PKWL&a=UPUI9&tp_a=UPUI9&b=3IUZPWIU1PT6Z7P0VF7LF7DN35PKWL&tp_b=3IUZPWIU1PT6Z7P0VF7LF7DN35PKWL&c=365799&tp_c=365799"},{"rt":23891,"response":{"Q0":"The classrooms are all the same and aren't helpful for deciding how to teach.","Q1":"By giving 30 examples (the maximum) on each trial so I can make sure that the students' guesses are as accurate as possible.","Q2":"The coin lands heads 90% of the time.","Q3":"No, I will teach a <b>new</b> student each time.","Q4":"The students are also on the same alien planet as you, where coins can be unfair.","Q5":"Based on the student's second (and final) guess."},"question_order":[0,3,2,1,5,4],"trial_type":"survey-multi-choice","trial_index":12,"time_elapsed":650022,"internal_node_id":"0.0-2.3-1.3","params":{"nStudents":24,"maxFlips":30,"completionMinutes":45,"basePay":8,"maxBonus":9,"perTrialBonus":0.5,"perTrialBonusThreshold":0.05,"exampleCost":0.01},"classroomParams":{"A":{"a":1,"b":4},"B":{"a":4,"b":1},"C":{"a":2,"b":8},"D":{"a":8,"b":2}},"conditions":["nonSeqFull","nonSeqPartial","seqNoFeedback","seqFeedback"],"classroomPairings":[["A","B"],["C","D"]],"coinWeights":[0.2,0.5,0.8],"subjectId":"A1USR9JCAMDGM3","assignmentId":"3IUZPWIU1PT6Z7P0VF7LF7DN35PKWL","hitId":"3JGHED38EDDK7DFM0KVY7GXU94LY7W","url":"https://gershmanlab.com/experiments/alicia/teaching/experiment/?hitId=3JGHED38EDDK7DFM0KVY7GXU94LY7W&workerId=A1USR9JCAMDGM3&assignmentId=3IUZPWIU1PT6Z7P0VF7LF7DN35PKWL&a=UPUI9&tp_a=UPUI9&b=3IUZPWIU1PT6Z7P0VF7LF7DN35PKWL&tp_b=3IUZPWIU1PT6Z7P0VF7LF7DN35PKWL&c=365799&tp_c=365799","pass":false},{"rt":1552,"stimulus":"Oops, you have missed question(s) on the comprehension check! We'll show you the instructions again.","response":0,"trial_type":"html-button-response","trial_index":13,"time_elapsed":651577,"internal_node_id":"0.0-2.3-2.3-0.3","params":{"nStudents":24,"maxFlips":30,"completionMinutes":45,"basePay":8,"maxBonus":9,"perTrialBonus":0.5,"perTrialBonusThreshold":0.05,"exampleCost":0.01},"classroomParams":{"A":{"a":1,"b":4},"B":{"a":4,"b":1},"C":{"a":2,"b":8},"D":{"a":8,"b":2}},"conditions":["nonSeqFull","nonSeqPartial","seqNoFeedback","seqFeedback"],"classroomPairings":[["A","B"],["C","D"]],"coinWeights":[0.2,0.5,0.8],"subjectId":"A1USR9JCAMDGM3","assignmentId":"3IUZPWIU1PT6Z7P0VF7LF7DN35PKWL","hitId":"3JGHED38EDDK7DFM0KVY7GXU94LY7W","url":"https://gershmanlab.com/experiments/alicia/teaching/experiment/?hitId=3JGHED38EDDK7DFM0KVY7GXU94LY7W&workerId=A1USR9JCAMDGM3&assignmentId=3IUZPWIU1PT6Z7P0VF7LF7DN35PKWL&a=UPUI9&tp_a=UPUI9&b=3IUZPWIU1PT6Z7P0VF7LF7DN35PKWL&tp_b=3IUZPWIU1PT6Z7P0VF7LF7DN35PKWL&c=365799&tp_c=365799"},{"view_history":[{"page_index":0,"viewing_time":1958},{"page_index":1,"viewing_time":2053},{"page_index":2,"viewing_time":16721},{"page_index":3,"viewing_time":1713},{"page_index":4,"viewing_time":977},{"page_index":5,"viewing_time":816},{"page_index":6,"viewing_time":766}],"rt":25006,"trial_type":"instructions","trial_index":14,"time_elapsed":676582,"internal_node_id":"0.0-2.4-0.4","params":{"nStudents":24,"maxFlips":30,"completionMinutes":45,"basePay":8,"maxBonus":9,"perTrialBonus":0.5,"perTrialBonusThreshold":0.05,"exampleCost":0.01},"classroomParams":{"A":{"a":1,"b":4},"B":{"a":4,"b":1},"C":{"a":2,"b":8},"D":{"a":8,"b":2}},"conditions":["nonSeqFull","nonSeqPartial","seqNoFeedback","seqFeedback"],"classroomPairings":[["A","B"],["C","D"]],"coinWeights":[0.2,0.5,0.8],"subjectId":"A1USR9JCAMDGM3","assignmentId":"3IUZPWIU1PT6Z7P0VF7LF7DN35PKWL","hitId":"3JGHED38EDDK7DFM0KVY7GXU94LY7W","url":"https://gershmanlab.com/experiments/alicia/teaching/experiment/?hitId=3JGHED38EDDK7DFM0KVY7GXU94LY7W&workerId=A1USR9JCAMDGM3&assignmentId=3IUZPWIU1PT6Z7P0VF7LF7DN35PKWL&a=UPUI9&tp_a=UPUI9&b=3IUZPWIU1PT6Z7P0VF7LF7DN35PKWL&tp_b=3IUZPWIU1PT6Z7P0VF7LF7DN35PKWL&c=365799&tp_c=365799"},{"rt":21630,"response":{"Q0":"Students in different classrooms have seen a different proportion of fair and unfair coins before seeing the examples you select for them.","Q1":"By <b>considering the student's classroom information</b> so that I can teach efficiently and accurately/helpfully at the same time (because each example I give to the student costs money!).","Q2":"The coin lands heads 90% of the time.","Q3":"No, I will teach a <b>new</b> student each time.","Q4":"The students are also on the same alien planet as you, where coins can be unfair.","Q5":"Based on the student's second (and final) guess."},"question_order":[5,0,1,2,3,4],"trial_type":"survey-multi-choice","trial_index":15,"time_elapsed":698213,"internal_node_id":"0.0-2.4-1.4","params":{"nStudents":24,"maxFlips":30,"completionMinutes":45,"basePay":8,"maxBonus":9,"perTrialBonus":0.5,"perTrialBonusThreshold":0.05,"exampleCost":0.01},"classroomParams":{"A":{"a":1,"b":4},"B":{"a":4,"b":1},"C":{"a":2,"b":8},"D":{"a":8,"b":2}},"conditions":["nonSeqFull","nonSeqPartial","seqNoFeedback","seqFeedback"],"classroomPairings":[["A","B"],["C","D"]],"coinWeights":[0.2,0.5,0.8],"subjectId":"A1USR9JCAMDGM3","assignmentId":"3IUZPWIU1PT6Z7P0VF7LF7DN35PKWL","hitId":"3JGHED38EDDK7DFM0KVY7GXU94LY7W","url":"https://gershmanlab.com/experiments/alicia/teaching/experiment/?hitId=3JGHED38EDDK7DFM0KVY7GXU94LY7W&workerId=A1USR9JCAMDGM3&assignmentId=3IUZPWIU1PT6Z7P0VF7LF7DN35PKWL&a=UPUI9&tp_a=UPUI9&b=3IUZPWIU1PT6Z7P0VF7LF7DN35PKWL&tp_b=3IUZPWIU1PT6Z7P0VF7LF7DN35PKWL&c=365799&tp_c=365799","pass":false},{"rt":1405,"stimulus":"Oops, you have missed question(s) on the comprehension check! We'll show you the instructions again.","response":0,"trial_type":"html-button-response","trial_index":16,"time_elapsed":699621,"internal_node_id":"0.0-2.4-2.4-0.4","params":{"nStudents":24,"maxFlips":30,"completionMinutes":45,"basePay":8,"maxBonus":9,"perTrialBonus":0.5,"perTrialBonusThreshold":0.05,"exampleCost":0.01},"classroomParams":{"A":{"a":1,"b":4},"B":{"a":4,"b":1},"C":{"a":2,"b":8},"D":{"a":8,"b":2}},"conditions":["nonSeqFull","nonSeqPartial","seqNoFeedback","seqFeedback"],"classroomPairings":[["A","B"],["C","D"]],"coinWeights":[0.2,0.5,0.8],"subjectId":"A1USR9JCAMDGM3","assignmentId":"3IUZPWIU1PT6Z7P0VF7LF7DN35PKWL","hitId":"3JGHED38EDDK7DFM0KVY7GXU94LY7W","url":"https://gershmanlab.com/experiments/alicia/teaching/experiment/?hitId=3JGHED38EDDK7DFM0KVY7GXU94LY7W&workerId=A1USR9JCAMDGM3&assignmentId=3IUZPWIU1PT6Z7P0VF7LF7DN35PKWL&a=UPUI9&tp_a=UPUI9&b=3IUZPWIU1PT6Z7P0VF7LF7DN35PKWL&tp_b=3IUZPWIU1PT6Z7P0VF7LF7DN35PKWL&c=365799&tp_c=365799"},{"view_history":[{"page_index":0,"viewing_time":831},{"page_index":1,"viewing_time":948},{"page_index":2,"viewing_time":1872},{"page_index":3,"viewing_time":795},{"page_index":4,"viewing_time":1294},{"page_index":5,"viewing_time":1264},{"page_index":6,"viewing_time":1113}],"rt":8118,"trial_type":"instructions","trial_index":17,"time_elapsed":707740,"internal_node_id":"0.0-2.5-0.5","params":{"nStudents":24,"maxFlips":30,"completionMinutes":45,"basePay":8,"maxBonus":9,"perTrialBonus":0.5,"perTrialBonusThreshold":0.05,"exampleCost":0.01},"classroomParams":{"A":{"a":1,"b":4},"B":{"a":4,"b":1},"C":{"a":2,"b":8},"D":{"a":8,"b":2}},"conditions":["nonSeqFull","nonSeqPartial","seqNoFeedback","seqFeedback"],"classroomPairings":[["A","B"],["C","D"]],"coinWeights":[0.2,0.5,0.8],"subjectId":"A1USR9JCAMDGM3","assignmentId":"3IUZPWIU1PT6Z7P0VF7LF7DN35PKWL","hitId":"3JGHED38EDDK7DFM0KVY7GXU94LY7W","url":"https://gershmanlab.com/experiments/alicia/teaching/experiment/?hitId=3JGHED38EDDK7DFM0KVY7GXU94LY7W&workerId=A1USR9JCAMDGM3&assignmentId=3IUZPWIU1PT6Z7P0VF7LF7DN35PKWL&a=UPUI9&tp_a=UPUI9&b=3IUZPWIU1PT6Z7P0VF7LF7DN35PKWL&tp_b=3IUZPWIU1PT6Z7P0VF7LF7DN35PKWL&c=365799&tp_c=365799"},{"rt":23907,"response":{"Q0":"Students in different classrooms will have seen a different number of heads and tails before seeing the examples you select for them.","Q1":"By <b>considering the student's classroom information</b> so that I can teach efficiently and accurately/helpfully at the same time (because each example I give to the student costs money!).","Q2":"The coin lands heads 90% of the time.","Q3":"No, I will teach a <b>new</b> student each time.","Q4":"The students are also on the same alien planet as you, where coins can be unfair.","Q5":"Based on the student's second (and final) guess."},"question_order":[0,4,2,3,1,5],"trial_type":"survey-multi-choice","trial_index":18,"time_elapsed":731648,"internal_node_id":"0.0-2.5-1.5","params":{"nStudents":24,"maxFlips":30,"completionMinutes":45,"basePay":8,"maxBonus":9,"perTrialBonus":0.5,"perTrialBonusThreshold":0.05,"exampleCost":0.01},"classroomParams":{"A":{"a":1,"b":4},"B":{"a":4,"b":1},"C":{"a":2,"b":8},"D":{"a":8,"b":2}},"conditions":["nonSeqFull","nonSeqPartial","seqNoFeedback","seqFeedback"],"classroomPairings":[["A","B"],["C","D"]],"coinWeights":[0.2,0.5,0.8],"subjectId":"A1USR9JCAMDGM3","assignmentId":"3IUZPWIU1PT6Z7P0VF7LF7DN35PKWL","hitId":"3JGHED38EDDK7DFM0KVY7GXU94LY7W","url":"https://gershmanlab.com/experiments/alicia/teaching/experiment/?hitId=3JGHED38EDDK7DFM0KVY7GXU94LY7W&workerId=A1USR9JCAMDGM3&assignmentId=3IUZPWIU1PT6Z7P0VF7LF7DN35PKWL&a=UPUI9&tp_a=UPUI9&b=3IUZPWIU1PT6Z7P0VF7LF7DN35PKWL&tp_b=3IUZPWIU1PT6Z7P0VF7LF7DN35PKWL&c=365799&tp_c=365799","pass":true},{"rt":null,"stimulus":"<div style=\"font-size:30px;\">Congrats on passing the comprehension quiz! The experiment will begin in a few seconds.</div>","response":null,"trial_type":"html-keyboard-response","trial_index":19,"time_elapsed":734652,"internal_node_id":"0.0-3.0","params":{"nStudents":24,"maxFlips":30,"completionMinutes":45,"basePay":8,"maxBonus":9,"perTrialBonus":0.5,"perTrialBonusThreshold":0.05,"exampleCost":0.01},"classroomParams":{"A":{"a":1,"b":4},"B":{"a":4,"b":1},"C":{"a":2,"b":8},"D":{"a":8,"b":2}},"conditions":["nonSeqFull","nonSeqPartial","seqNoFeedback","seqFeedback"],"classroomPairings":[["A","B"],["C","D"]],"coinWeights":[0.2,0.5,0.8],"subjectId":"A1USR9JCAMDGM3","assignmentId":"3IUZPWIU1PT6Z7P0VF7LF7DN35PKWL","hitId":"3JGHED38EDDK7DFM0KVY7GXU94LY7W","url":"https://gershmanlab.com/experiments/alicia/teaching/experiment/?hitId=3JGHED38EDDK7DFM0KVY7GXU94LY7W&workerId=A1USR9JCAMDGM3&assignmentId=3IUZPWIU1PT6Z7P0VF7LF7DN35PKWL&a=UPUI9&tp_a=UPUI9&b=3IUZPWIU1PT6Z7P0VF7LF7DN35PKWL&tp_b=3IUZPWIU1PT6Z7P0VF7LF7DN35PKWL&c=365799&tp_c=365799"},{"rt":null,"stimulus":"<div style=\"font-size:50px;\">First student</div>","response":null,"trial_type":"html-keyboard-response","trial_index":20,"time_elapsed":737666,"internal_node_id":"0.0-4.0","params":{"nStudents":24,"maxFlips":30,"completionMinutes":45,"basePay":8,"maxBonus":9,"perTrialBonus":0.5,"perTrialBonusThreshold":0.05,"exampleCost":0.01},"classroomParams":{"A":{"a":1,"b":4},"B":{"a":4,"b":1},"C":{"a":2,"b":8},"D":{"a":8,"b":2}},"conditions":["nonSeqFull","nonSeqPartial","seqNoFeedback","seqFeedback"],"classroomPairings":[["A","B"],["C","D"]],"coinWeights":[0.2,0.5,0.8],"subjectId":"A1USR9JCAMDGM3","assignmentId":"3IUZPWIU1PT6Z7P0VF7LF7DN35PKWL","hitId":"3JGHED38EDDK7DFM0KVY7GXU94LY7W","url":"https://gershmanlab.com/experiments/alicia/teaching/experiment/?hitId=3JGHED38EDDK7DFM0KVY7GXU94LY7W&workerId=A1USR9JCAMDGM3&assignmentId=3IUZPWIU1PT6Z7P0VF7LF7DN35PKWL&a=UPUI9&tp_a=UPUI9&b=3IUZPWIU1PT6Z7P0VF7LF7DN35PKWL&tp_b=3IUZPWIU1PT6Z7P0VF7LF7DN35PKWL&c=365799&tp_c=365799"},{"rt":4109,"stimulus":"\n            <h4 style=\"color:Orange;\">Student 1</h4>\n            <h2>The weight of your coin is <b style=\"color:Tomato;\">0.2</b>.</h2>\n            <p>In this block, you will be giving <b>two</b> sets of examples to Student 1.</p>\n                <p>You will receive feedback at the end of the block.</p>\n            <p></p>","response":0,"trial_type":"html-button-response","trial_index":21,"time_elapsed":741776,"internal_node_id":"0.0-5.0","params":{"nStudents":24,"maxFlips":30,"completionMinutes":45,"basePay":8,"maxBonus":9,"perTrialBonus":0.5,"perTrialBonusThreshold":0.05,"exampleCost":0.01},"classroomParams":{"A":{"a":1,"b":4},"B":{"a":4,"b":1},"C":{"a":2,"b":8},"D":{"a":8,"b":2}},"conditions":["nonSeqFull","nonSeqPartial","seqNoFeedback","seqFeedback"],"classroomPairings":[["A","B"],["C","D"]],"coinWeights":[0.2,0.5,0.8],"subjectId":"A1USR9JCAMDGM3","assignmentId":"3IUZPWIU1PT6Z7P0VF7LF7DN35PKWL","hitId":"3JGHED38EDDK7DFM0KVY7GXU94LY7W","url":"https://gershmanlab.com/experiments/alicia/teaching/experiment/?hitId=3JGHED38EDDK7DFM0KVY7GXU94LY7W&workerId=A1USR9JCAMDGM3&assignmentId=3IUZPWIU1PT6Z7P0VF7LF7DN35PKWL&a=UPUI9&tp_a=UPUI9&b=3IUZPWIU1PT6Z7P0VF7LF7DN35PKWL&tp_b=3IUZPWIU1PT6Z7P0VF7LF7DN35PKWL&c=365799&tp_c=365799"},{"rt":27795,"response":{"heads":"2","tails":"2"},"type":"response","condition":"seqNoFeedback","trueTheta":0.2,"classrooms":["A","B"],"studentTrueClassroom":"B","exampleSet":"first","trial_type":"survey-html-form","trial_index":22,"time_elapsed":769572,"internal_node_id":"0.0-6.0-0.0","params":{"nStudents":24,"maxFlips":30,"completionMinutes":45,"basePay":8,"maxBonus":9,"perTrialBonus":0.5,"perTrialBonusThreshold":0.05,"exampleCost":0.01},"classroomParams":{"A":{"a":1,"b":4},"B":{"a":4,"b":1},"C":{"a":2,"b":8},"D":{"a":8,"b":2}},"conditions":["nonSeqFull","nonSeqPartial","seqNoFeedback","seqFeedback"],"classroomPairings":[["A","B"],["C","D"]],"coinWeights":[0.2,0.5,0.8],"subjectId":"A1USR9JCAMDGM3","assignmentId":"3IUZPWIU1PT6Z7P0VF7LF7DN35PKWL","hitId":"3JGHED38EDDK7DFM0KVY7GXU94LY7W","url":"https://gershmanlab.com/experiments/alicia/teaching/experiment/?hitId=3JGHED38EDDK7DFM0KVY7GXU94LY7W&workerId=A1USR9JCAMDGM3&assignmentId=3IUZPWIU1PT6Z7P0VF7LF7DN35PKWL&a=UPUI9&tp_a=UPUI9&b=3IUZPWIU1PT6Z7P0VF7LF7DN35PKWL&tp_b=3IUZPWIU1PT6Z7P0VF7LF7DN35PKWL&c=365799&tp_c=365799","heads":2,"tails":2,"studentIndex":0,"studentTrueHypers":{"a":4,"b":1},"studentGuess":0.6666666666666666,"delta":0.4666666666666666,"totalExamples":4,"bonusSoFar":0},{"rt":null,"stimulus":"Sending examples to student... ","response":null,"trial_type":"html-keyboard-response","trial_index":23,"time_elapsed":770825,"internal_node_id":"0.0-7.0","params":{"nStudents":24,"maxFlips":30,"completionMinutes":45,"basePay":8,"maxBonus":9,"perTrialBonus":0.5,"perTrialBonusThreshold":0.05,"exampleCost":0.01},"classroomParams":{"A":{"a":1,"b":4},"B":{"a":4,"b":1},"C":{"a":2,"b":8},"D":{"a":8,"b":2}},"conditions":["nonSeqFull","nonSeqPartial","seqNoFeedback","seqFeedback"],"classroomPairings":[["A","B"],["C","D"]],"coinWeights":[0.2,0.5,0.8],"subjectId":"A1USR9JCAMDGM3","assignmentId":"3IUZPWIU1PT6Z7P0VF7LF7DN35PKWL","hitId":"3JGHED38EDDK7DFM0KVY7GXU94LY7W","url":"https://gershmanlab.com/experiments/alicia/teaching/experiment/?hitId=3JGHED38EDDK7DFM0KVY7GXU94LY7W&workerId=A1USR9JCAMDGM3&assignmentId=3IUZPWIU1PT6Z7P0VF7LF7DN35PKWL&a=UPUI9&tp_a=UPUI9&b=3IUZPWIU1PT6Z7P0VF7LF7DN35PKWL&tp_b=3IUZPWIU1PT6Z7P0VF7LF7DN35PKWL&c=365799&tp_c=365799"},{"rt":null,"stimulus":"Examples sent to student! Waiting for student...","response":null,"trial_type":"html-keyboard-response","trial_index":24,"time_elapsed":775835,"internal_node_id":"0.0-8.0","params":{"nStudents":24,"maxFlips":30,"completionMinutes":45,"basePay":8,"maxBonus":9,"perTrialBonus":0.5,"perTrialBonusThreshold":0.05,"exampleCost":0.01},"classroomParams":{"A":{"a":1,"b":4},"B":{"a":4,"b":1},"C":{"a":2,"b":8},"D":{"a":8,"b":2}},"conditions":["nonSeqFull","nonSeqPartial","seqNoFeedback","seqFeedback"],"classroomPairings":[["A","B"],["C","D"]],"coinWeights":[0.2,0.5,0.8],"subjectId":"A1USR9JCAMDGM3","assignmentId":"3IUZPWIU1PT6Z7P0VF7LF7DN35PKWL","hitId":"3JGHED38EDDK7DFM0KVY7GXU94LY7W","url":"https://gershmanlab.com/experiments/alicia/teaching/experiment/?hitId=3JGHED38EDDK7DFM0KVY7GXU94LY7W&workerId=A1USR9JCAMDGM3&assignmentId=3IUZPWIU1PT6Z7P0VF7LF7DN35PKWL&a=UPUI9&tp_a=UPUI9&b=3IUZPWIU1PT6Z7P0VF7LF7DN35PKWL&tp_b=3IUZPWIU1PT6Z7P0VF7LF7DN35PKWL&c=365799&tp_c=365799"},{"rt":8793,"response":{"heads":"1","tails":"4"},"type":"response","condition":"seqNoFeedback","trueTheta":0.2,"classrooms":["A","B"],"studentTrueClassroom":"B","exampleSet":"second","trial_type":"survey-html-form","trial_index":25,"time_elapsed":784630,"internal_node_id":"0.0-9.0-0.0","params":{"nStudents":24,"maxFlips":30,"completionMinutes":45,"basePay":8,"maxBonus":9,"perTrialBonus":0.5,"perTrialBonusThreshold":0.05,"exampleCost":0.01},"classroomParams":{"A":{"a":1,"b":4},"B":{"a":4,"b":1},"C":{"a":2,"b":8},"D":{"a":8,"b":2}},"conditions":["nonSeqFull","nonSeqPartial","seqNoFeedback","seqFeedback"],"classroomPairings":[["A","B"],["C","D"]],"coinWeights":[0.2,0.5,0.8],"subjectId":"A1USR9JCAMDGM3","assignmentId":"3IUZPWIU1PT6Z7P0VF7LF7DN35PKWL","hitId":"3JGHED38EDDK7DFM0KVY7GXU94LY7W","url":"https://gershmanlab.com/experiments/alicia/teaching/experiment/?hitId=3JGHED38EDDK7DFM0KVY7GXU94LY7W&workerId=A1USR9JCAMDGM3&assignmentId=3IUZPWIU1PT6Z7P0VF7LF7DN35PKWL&a=UPUI9&tp_a=UPUI9&b=3IUZPWIU1PT6Z7P0VF7LF7DN35PKWL&tp_b=3IUZPWIU1PT6Z7P0VF7LF7DN35PKWL&c=365799&tp_c=365799","firstResponseHeads":2,"firstResponseTails":2,"secondResponseHeads":1,"secondResponseTails":4,"totalHeads":3,"totalTails":6,"studentIndex":0,"studentTrueHypers":{"a":4,"b":1},"studentGuess":0.5,"delta":0.3,"bonus":0,"bonusSoFar":0,"totalExamples":9},{"rt":null,"stimulus":"Sending examples to student... ","response":null,"trial_type":"html-keyboard-response","trial_index":26,"time_elapsed":786631,"internal_node_id":"0.0-10.0","params":{"nStudents":24,"maxFlips":30,"completionMinutes":45,"basePay":8,"maxBonus":9,"perTrialBonus":0.5,"perTrialBonusThreshold":0.05,"exampleCost":0.01},"classroomParams":{"A":{"a":1,"b":4},"B":{"a":4,"b":1},"C":{"a":2,"b":8},"D":{"a":8,"b":2}},"conditions":["nonSeqFull","nonSeqPartial","seqNoFeedback","seqFeedback"],"classroomPairings":[["A","B"],["C","D"]],"coinWeights":[0.2,0.5,0.8],"subjectId":"A1USR9JCAMDGM3","assignmentId":"3IUZPWIU1PT6Z7P0VF7LF7DN35PKWL","hitId":"3JGHED38EDDK7DFM0KVY7GXU94LY7W","url":"https://gershmanlab.com/experiments/alicia/teaching/experiment/?hitId=3JGHED38EDDK7DFM0KVY7GXU94LY7W&workerId=A1USR9JCAMDGM3&assignmentId=3IUZPWIU1PT6Z7P0VF7LF7DN35PKWL&a=UPUI9&tp_a=UPUI9&b=3IUZPWIU1PT6Z7P0VF7LF7DN35PKWL&tp_b=3IUZPWIU1PT6Z7P0VF7LF7DN35PKWL&c=365799&tp_c=365799"},{"rt":null,"stimulus":"Examples sent to student! Waiting for student...","response":null,"trial_type":"html-keyboard-response","trial_index":27,"time_elapsed":792012,"internal_node_id":"0.0-11.0","params":{"nStudents":24,"maxFlips":30,"completionMinutes":45,"basePay":8,"maxBonus":9,"perTrialBonus":0.5,"perTrialBonusThreshold":0.05,"exampleCost":0.01},"classroomParams":{"A":{"a":1,"b":4},"B":{"a":4,"b":1},"C":{"a":2,"b":8},"D":{"a":8,"b":2}},"conditions":["nonSeqFull","nonSeqPartial","seqNoFeedback","seqFeedback"],"classroomPairings":[["A","B"],["C","D"]],"coinWeights":[0.2,0.5,0.8],"subjectId":"A1USR9JCAMDGM3","assignmentId":"3IUZPWIU1PT6Z7P0VF7LF7DN35PKWL","hitId":"3JGHED38EDDK7DFM0KVY7GXU94LY7W","url":"https://gershmanlab.com/experiments/alicia/teaching/experiment/?hitId=3JGHED38EDDK7DFM0KVY7GXU94LY7W&workerId=A1USR9JCAMDGM3&assignmentId=3IUZPWIU1PT6Z7P0VF7LF7DN35PKWL&a=UPUI9&tp_a=UPUI9&b=3IUZPWIU1PT6Z7P0VF7LF7DN35PKWL&tp_b=3IUZPWIU1PT6Z7P0VF7LF7DN35PKWL&c=365799&tp_c=365799"},{"rt":15364,"stimulus":"\n                <p>Student 1's first guess for coin weight: <b style=\"color:Tomato\";>0.67</b></p>\n                <p>Student 1's second guess for coin weight: <b style=\"color:Tomato\";>0.50</b></p>\n                <p>You received a bonus of <b>$0.00</b> based on the student's second guess.</p>\n                <p>Total bonus so far: <b>$0.00</b></p>\n                <p>Press any key to continue.</p>\n                ","response":" ","trial_type":"html-keyboard-response","trial_index":28,"time_elapsed":807376,"internal_node_id":"0.0-12.0","params":{"nStudents":24,"maxFlips":30,"completionMinutes":45,"basePay":8,"maxBonus":9,"perTrialBonus":0.5,"perTrialBonusThreshold":0.05,"exampleCost":0.01},"classroomParams":{"A":{"a":1,"b":4},"B":{"a":4,"b":1},"C":{"a":2,"b":8},"D":{"a":8,"b":2}},"conditions":["nonSeqFull","nonSeqPartial","seqNoFeedback","seqFeedback"],"classroomPairings":[["A","B"],["C","D"]],"coinWeights":[0.2,0.5,0.8],"subjectId":"A1USR9JCAMDGM3","assignmentId":"3IUZPWIU1PT6Z7P0VF7LF7DN35PKWL","hitId":"3JGHED38EDDK7DFM0KVY7GXU94LY7W","url":"https://gershmanlab.com/experiments/alicia/teaching/experiment/?hitId=3JGHED38EDDK7DFM0KVY7GXU94LY7W&workerId=A1USR9JCAMDGM3&assignmentId=3IUZPWIU1PT6Z7P0VF7LF7DN35PKWL&a=UPUI9&tp_a=UPUI9&b=3IUZPWIU1PT6Z7P0VF7LF7DN35PKWL&tp_b=3IUZPWIU1PT6Z7P0VF7LF7DN35PKWL&c=365799&tp_c=365799"},{"rt":null,"stimulus":"<div style=\"font-size:60px;\">Next student</div>","response":null,"trial_type":"html-keyboard-response","trial_index":29,"time_elapsed":810391,"internal_node_id":"0.0-13.0-0.0","params":{"nStudents":24,"maxFlips":30,"completionMinutes":45,"basePay":8,"maxBonus":9,"perTrialBonus":0.5,"perTrialBonusThreshold":0.05,"exampleCost":0.01},"classroomParams":{"A":{"a":1,"b":4},"B":{"a":4,"b":1},"C":{"a":2,"b":8},"D":{"a":8,"b":2}},"conditions":["nonSeqFull","nonSeqPartial","seqNoFeedback","seqFeedback"],"classroomPairings":[["A","B"],["C","D"]],"coinWeights":[0.2,0.5,0.8],"subjectId":"A1USR9JCAMDGM3","assignmentId":"3IUZPWIU1PT6Z7P0VF7LF7DN35PKWL","hitId":"3JGHED38EDDK7DFM0KVY7GXU94LY7W","url":"https://gershmanlab.com/experiments/alicia/teaching/experiment/?hitId=3JGHED38EDDK7DFM0KVY7GXU94LY7W&workerId=A1USR9JCAMDGM3&assignmentId=3IUZPWIU1PT6Z7P0VF7LF7DN35PKWL&a=UPUI9&tp_a=UPUI9&b=3IUZPWIU1PT6Z7P0VF7LF7DN35PKWL&tp_b=3IUZPWIU1PT6Z7P0VF7LF7DN35PKWL&c=365799&tp_c=365799"},{"rt":4339,"stimulus":"\n            <h4 style=\"color:Orange;\">Student 2</h4>\n            <h2>The weight of your coin is <b style=\"color:Tomato;\">0.2</b>.</h2>\n            <p>In this block, you will be giving <b>two</b> sets of examples to Student 2.</p>\n                <p>You will receive feedback at the end of the block.</p>\n            <p></p>","response":0,"trial_type":"html-button-response","trial_index":30,"time_elapsed":814731,"internal_node_id":"0.0-14.0","params":{"nStudents":24,"maxFlips":30,"completionMinutes":45,"basePay":8,"maxBonus":9,"perTrialBonus":0.5,"perTrialBonusThreshold":0.05,"exampleCost":0.01},"classroomParams":{"A":{"a":1,"b":4},"B":{"a":4,"b":1},"C":{"a":2,"b":8},"D":{"a":8,"b":2}},"conditions":["nonSeqFull","nonSeqPartial","seqNoFeedback","seqFeedback"],"classroomPairings":[["A","B"],["C","D"]],"coinWeights":[0.2,0.5,0.8],"subjectId":"A1USR9JCAMDGM3","assignmentId":"3IUZPWIU1PT6Z7P0VF7LF7DN35PKWL","hitId":"3JGHED38EDDK7DFM0KVY7GXU94LY7W","url":"https://gershmanlab.com/experiments/alicia/teaching/experiment/?hitId=3JGHED38EDDK7DFM0KVY7GXU94LY7W&workerId=A1USR9JCAMDGM3&assignmentId=3IUZPWIU1PT6Z7P0VF7LF7DN35PKWL&a=UPUI9&tp_a=UPUI9&b=3IUZPWIU1PT6Z7P0VF7LF7DN35PKWL&tp_b=3IUZPWIU1PT6Z7P0VF7LF7DN35PKWL&c=365799&tp_c=365799"},{"rt":13756,"response":{"heads":"1","tails":"4"},"type":"response","condition":"seqNoFeedback","trueTheta":0.2,"classrooms":["C","D"],"studentTrueClassroom":"C","exampleSet":"first","trial_type":"survey-html-form","trial_index":31,"time_elapsed":828488,"internal_node_id":"0.0-15.0-0.0","params":{"nStudents":24,"maxFlips":30,"completionMinutes":45,"basePay":8,"maxBonus":9,"perTrialBonus":0.5,"perTrialBonusThreshold":0.05,"exampleCost":0.01},"classroomParams":{"A":{"a":1,"b":4},"B":{"a":4,"b":1},"C":{"a":2,"b":8},"D":{"a":8,"b":2}},"conditions":["nonSeqFull","nonSeqPartial","seqNoFeedback","seqFeedback"],"classroomPairings":[["A","B"],["C","D"]],"coinWeights":[0.2,0.5,0.8],"subjectId":"A1USR9JCAMDGM3","assignmentId":"3IUZPWIU1PT6Z7P0VF7LF7DN35PKWL","hitId":"3JGHED38EDDK7DFM0KVY7GXU94LY7W","url":"https://gershmanlab.com/experiments/alicia/teaching/experiment/?hitId=3JGHED38EDDK7DFM0KVY7GXU94LY7W&workerId=A1USR9JCAMDGM3&assignmentId=3IUZPWIU1PT6Z7P0VF7LF7DN35PKWL&a=UPUI9&tp_a=UPUI9&b=3IUZPWIU1PT6Z7P0VF7LF7DN35PKWL&tp_b=3IUZPWIU1PT6Z7P0VF7LF7DN35PKWL&c=365799&tp_c=365799","heads":1,"tails":4,"studentIndex":1,"studentTrueHypers":{"a":2,"b":8},"studentGuess":0.2,"delta":0,"totalExamples":5,"bonusSoFar":0},{"rt":null,"stimulus":"Sending examples to student... ","response":null,"trial_type":"html-keyboard-response","trial_index":32,"time_elapsed":829995,"internal_node_id":"0.0-16.0","params":{"nStudents":24,"maxFlips":30,"completionMinutes":45,"basePay":8,"maxBonus":9,"perTrialBonus":0.5,"perTrialBonusThreshold":0.05,"exampleCost":0.01},"classroomParams":{"A":{"a":1,"b":4},"B":{"a":4,"b":1},"C":{"a":2,"b":8},"D":{"a":8,"b":2}},"conditions":["nonSeqFull","nonSeqPartial","seqNoFeedback","seqFeedback"],"classroomPairings":[["A","B"],["C","D"]],"coinWeights":[0.2,0.5,0.8],"subjectId":"A1USR9JCAMDGM3","assignmentId":"3IUZPWIU1PT6Z7P0VF7LF7DN35PKWL","hitId":"3JGHED38EDDK7DFM0KVY7GXU94LY7W","url":"https://gershmanlab.com/experiments/alicia/teaching/experiment/?hitId=3JGHED38EDDK7DFM0KVY7GXU94LY7W&workerId=A1USR9JCAMDGM3&assignmentId=3IUZPWIU1PT6Z7P0VF7LF7DN35PKWL&a=UPUI9&tp_a=UPUI9&b=3IUZPWIU1PT6Z7P0VF7LF7DN35PKWL&tp_b=3IUZPWIU1PT6Z7P0VF7LF7DN35PKWL&c=365799&tp_c=365799"},{"rt":null,"stimulus":"Examples sent to student! Waiting for student...","response":null,"trial_type":"html-keyboard-response","trial_index":33,"time_elapsed":835997,"internal_node_id":"0.0-17.0","params":{"nStudents":24,"maxFlips":30,"completionMinutes":45,"basePay":8,"maxBonus":9,"perTrialBonus":0.5,"perTrialBonusThreshold":0.05,"exampleCost":0.01},"classroomParams":{"A":{"a":1,"b":4},"B":{"a":4,"b":1},"C":{"a":2,"b":8},"D":{"a":8,"b":2}},"conditions":["nonSeqFull","nonSeqPartial","seqNoFeedback","seqFeedback"],"classroomPairings":[["A","B"],["C","D"]],"coinWeights":[0.2,0.5,0.8],"subjectId":"A1USR9JCAMDGM3","assignmentId":"3IUZPWIU1PT6Z7P0VF7LF7DN35PKWL","hitId":"3JGHED38EDDK7DFM0KVY7GXU94LY7W","url":"https://gershmanlab.com/experiments/alicia/teaching/experiment/?hitId=3JGHED38EDDK7DFM0KVY7GXU94LY7W&workerId=A1USR9JCAMDGM3&assignmentId=3IUZPWIU1PT6Z7P0VF7LF7DN35PKWL&a=UPUI9&tp_a=UPUI9&b=3IUZPWIU1PT6Z7P0VF7LF7DN35PKWL&tp_b=3IUZPWIU1PT6Z7P0VF7LF7DN35PKWL&c=365799&tp_c=365799"},{"rt":12352,"response":{"heads":"2","tails":"6"},"type":"response","condition":"seqNoFeedback","trueTheta":0.2,"classrooms":["C","D"],"studentTrueClassroom":"C","exampleSet":"second","trial_type":"survey-html-form","trial_index":34,"time_elapsed":848350,"internal_node_id":"0.0-18.0-0.0","params":{"nStudents":24,"maxFlips":30,"completionMinutes":45,"basePay":8,"maxBonus":9,"perTrialBonus":0.5,"perTrialBonusThreshold":0.05,"exampleCost":0.01},"classroomParams":{"A":{"a":1,"b":4},"B":{"a":4,"b":1},"C":{"a":2,"b":8},"D":{"a":8,"b":2}},"conditions":["nonSeqFull","nonSeqPartial","seqNoFeedback","seqFeedback"],"classroomPairings":[["A","B"],["C","D"]],"coinWeights":[0.2,0.5,0.8],"subjectId":"A1USR9JCAMDGM3","assignmentId":"3IUZPWIU1PT6Z7P0VF7LF7DN35PKWL","hitId":"3JGHED38EDDK7DFM0KVY7GXU94LY7W","url":"https://gershmanlab.com/experiments/alicia/teaching/experiment/?hitId=3JGHED38EDDK7DFM0KVY7GXU94LY7W&workerId=A1USR9JCAMDGM3&assignmentId=3IUZPWIU1PT6Z7P0VF7LF7DN35PKWL&a=UPUI9&tp_a=UPUI9&b=3IUZPWIU1PT6Z7P0VF7LF7DN35PKWL&tp_b=3IUZPWIU1PT6Z7P0VF7LF7DN35PKWL&c=365799&tp_c=365799","firstResponseHeads":1,"firstResponseTails":4,"secondResponseHeads":2,"secondResponseTails":6,"totalHeads":3,"totalTails":10,"studentIndex":1,"studentTrueHypers":{"a":2,"b":8},"studentGuess":0.21739130434782608,"delta":0.01739130434782607,"bonus":0.37,"bonusSoFar":0.37,"totalExamples":13},{"rt":null,"stimulus":"Sending examples to student... ","response":null,"trial_type":"html-keyboard-response","trial_index":35,"time_elapsed":850364,"internal_node_id":"0.0-19.0","params":{"nStudents":24,"maxFlips":30,"completionMinutes":45,"basePay":8,"maxBonus":9,"perTrialBonus":0.5,"perTrialBonusThreshold":0.05,"exampleCost":0.01},"classroomParams":{"A":{"a":1,"b":4},"B":{"a":4,"b":1},"C":{"a":2,"b":8},"D":{"a":8,"b":2}},"conditions":["nonSeqFull","nonSeqPartial","seqNoFeedback","seqFeedback"],"classroomPairings":[["A","B"],["C","D"]],"coinWeights":[0.2,0.5,0.8],"subjectId":"A1USR9JCAMDGM3","assignmentId":"3IUZPWIU1PT6Z7P0VF7LF7DN35PKWL","hitId":"3JGHED38EDDK7DFM0KVY7GXU94LY7W","url":"https://gershmanlab.com/experiments/alicia/teaching/experiment/?hitId=3JGHED38EDDK7DFM0KVY7GXU94LY7W&workerId=A1USR9JCAMDGM3&assignmentId=3IUZPWIU1PT6Z7P0VF7LF7DN35PKWL&a=UPUI9&tp_a=UPUI9&b=3IUZPWIU1PT6Z7P0VF7LF7DN35PKWL&tp_b=3IUZPWIU1PT6Z7P0VF7LF7DN35PKWL&c=365799&tp_c=365799"},{"rt":null,"stimulus":"Examples sent to student! Waiting for student...","response":null,"trial_type":"html-keyboard-response","trial_index":36,"time_elapsed":856381,"internal_node_id":"0.0-20.0","params":{"nStudents":24,"maxFlips":30,"completionMinutes":45,"basePay":8,"maxBonus":9,"perTrialBonus":0.5,"perTrialBonusThreshold":0.05,"exampleCost":0.01},"classroomParams":{"A":{"a":1,"b":4},"B":{"a":4,"b":1},"C":{"a":2,"b":8},"D":{"a":8,"b":2}},"conditions":["nonSeqFull","nonSeqPartial","seqNoFeedback","seqFeedback"],"classroomPairings":[["A","B"],["C","D"]],"coinWeights":[0.2,0.5,0.8],"subjectId":"A1USR9JCAMDGM3","assignmentId":"3IUZPWIU1PT6Z7P0VF7LF7DN35PKWL","hitId":"3JGHED38EDDK7DFM0KVY7GXU94LY7W","url":"https://gershmanlab.com/experiments/alicia/teaching/experiment/?hitId=3JGHED38EDDK7DFM0KVY7GXU94LY7W&workerId=A1USR9JCAMDGM3&assignmentId=3IUZPWIU1PT6Z7P0VF7LF7DN35PKWL&a=UPUI9&tp_a=UPUI9&b=3IUZPWIU1PT6Z7P0VF7LF7DN35PKWL&tp_b=3IUZPWIU1PT6Z7P0VF7LF7DN35PKWL&c=365799&tp_c=365799"},{"rt":13557,"stimulus":"\n                <p>Student 2's first guess for coin weight: <b style=\"color:Tomato\";>0.20</b></p>\n                <p>Student 2's second guess for coin weight: <b style=\"color:Tomato\";>0.22</b></p>\n                <p>You received a bonus of <b>$0.37</b> based on the student's second guess.</p>\n                <p>Total bonus so far: <b>$0.37</b></p>\n                <p>Press any key to continue.</p>\n                ","response":" ","trial_type":"html-keyboard-response","trial_index":37,"time_elapsed":869939,"internal_node_id":"0.0-21.0","params":{"nStudents":24,"maxFlips":30,"completionMinutes":45,"basePay":8,"maxBonus":9,"perTrialBonus":0.5,"perTrialBonusThreshold":0.05,"exampleCost":0.01},"classroomParams":{"A":{"a":1,"b":4},"B":{"a":4,"b":1},"C":{"a":2,"b":8},"D":{"a":8,"b":2}},"conditions":["nonSeqFull","nonSeqPartial","seqNoFeedback","seqFeedback"],"classroomPairings":[["A","B"],["C","D"]],"coinWeights":[0.2,0.5,0.8],"subjectId":"A1USR9JCAMDGM3","assignmentId":"3IUZPWIU1PT6Z7P0VF7LF7DN35PKWL","hitId":"3JGHED38EDDK7DFM0KVY7GXU94LY7W","url":"https://gershmanlab.com/experiments/alicia/teaching/experiment/?hitId=3JGHED38EDDK7DFM0KVY7GXU94LY7W&workerId=A1USR9JCAMDGM3&assignmentId=3IUZPWIU1PT6Z7P0VF7LF7DN35PKWL&a=UPUI9&tp_a=UPUI9&b=3IUZPWIU1PT6Z7P0VF7LF7DN35PKWL&tp_b=3IUZPWIU1PT6Z7P0VF7LF7DN35PKWL&c=365799&tp_c=365799"},{"rt":null,"stimulus":"<div style=\"font-size:60px;\">Next student</div>","response":null,"trial_type":"html-keyboard-response","trial_index":38,"time_elapsed":872198,"internal_node_id":"0.0-22.0-0.0","params":{"nStudents":24,"maxFlips":30,"completionMinutes":45,"basePay":8,"maxBonus":9,"perTrialBonus":0.5,"perTrialBonusThreshold":0.05,"exampleCost":0.01},"classroomParams":{"A":{"a":1,"b":4},"B":{"a":4,"b":1},"C":{"a":2,"b":8},"D":{"a":8,"b":2}},"conditions":["nonSeqFull","nonSeqPartial","seqNoFeedback","seqFeedback"],"classroomPairings":[["A","B"],["C","D"]],"coinWeights":[0.2,0.5,0.8],"subjectId":"A1USR9JCAMDGM3","assignmentId":"3IUZPWIU1PT6Z7P0VF7LF7DN35PKWL","hitId":"3JGHED38EDDK7DFM0KVY7GXU94LY7W","url":"https://gershmanlab.com/experiments/alicia/teaching/experiment/?hitId=3JGHED38EDDK7DFM0KVY7GXU94LY7W&workerId=A1USR9JCAMDGM3&assignmentId=3IUZPWIU1PT6Z7P0VF7LF7DN35PKWL&a=UPUI9&tp_a=UPUI9&b=3IUZPWIU1PT6Z7P0VF7LF7DN35PKWL&tp_b=3IUZPWIU1PT6Z7P0VF7LF7DN35PKWL&c=365799&tp_c=365799"},{"rt":1396,"stimulus":"\n            <h4 style=\"color:Orange;\">Student 3</h4>\n            <h2>The weight of your coin is <b style=\"color:Tomato;\">0.5</b>.</h2>\n            <p>In this block, you will be giving <b>two</b> sets of examples to Student 3.</p>\n                <p>You will receive feedback at the end of the block.</p>\n            <p></p>","response":0,"trial_type":"html-button-response","trial_index":39,"time_elapsed":873595,"internal_node_id":"0.0-23.0","params":{"nStudents":24,"maxFlips":30,"completionMinutes":45,"basePay":8,"maxBonus":9,"perTrialBonus":0.5,"perTrialBonusThreshold":0.05,"exampleCost":0.01},"classroomParams":{"A":{"a":1,"b":4},"B":{"a":4,"b":1},"C":{"a":2,"b":8},"D":{"a":8,"b":2}},"conditions":["nonSeqFull","nonSeqPartial","seqNoFeedback","seqFeedback"],"classroomPairings":[["A","B"],["C","D"]],"coinWeights":[0.2,0.5,0.8],"subjectId":"A1USR9JCAMDGM3","assignmentId":"3IUZPWIU1PT6Z7P0VF7LF7DN35PKWL","hitId":"3JGHED38EDDK7DFM0KVY7GXU94LY7W","url":"https://gershmanlab.com/experiments/alicia/teaching/experiment/?hitId=3JGHED38EDDK7DFM0KVY7GXU94LY7W&workerId=A1USR9JCAMDGM3&assignmentId=3IUZPWIU1PT6Z7P0VF7LF7DN35PKWL&a=UPUI9&tp_a=UPUI9&b=3IUZPWIU1PT6Z7P0VF7LF7DN35PKWL&tp_b=3IUZPWIU1PT6Z7P0VF7LF7DN35PKWL&c=365799&tp_c=365799"},{"rt":7184,"response":{"heads":"5","tails":"5"},"type":"response","condition":"seqNoFeedback","trueTheta":0.5,"classrooms":["C","D"],"studentTrueClassroom":"D","exampleSet":"first","trial_type":"survey-html-form","trial_index":40,"time_elapsed":880780,"internal_node_id":"0.0-24.0-0.0","params":{"nStudents":24,"maxFlips":30,"completionMinutes":45,"basePay":8,"maxBonus":9,"perTrialBonus":0.5,"perTrialBonusThreshold":0.05,"exampleCost":0.01},"classroomParams":{"A":{"a":1,"b":4},"B":{"a":4,"b":1},"C":{"a":2,"b":8},"D":{"a":8,"b":2}},"conditions":["nonSeqFull","nonSeqPartial","seqNoFeedback","seqFeedback"],"classroomPairings":[["A","B"],["C","D"]],"coinWeights":[0.2,0.5,0.8],"subjectId":"A1USR9JCAMDGM3","assignmentId":"3IUZPWIU1PT6Z7P0VF7LF7DN35PKWL","hitId":"3JGHED38EDDK7DFM0KVY7GXU94LY7W","url":"https://gershmanlab.com/experiments/alicia/teaching/experiment/?hitId=3JGHED38EDDK7DFM0KVY7GXU94LY7W&workerId=A1USR9JCAMDGM3&assignmentId=3IUZPWIU1PT6Z7P0VF7LF7DN35PKWL&a=UPUI9&tp_a=UPUI9&b=3IUZPWIU1PT6Z7P0VF7LF7DN35PKWL&tp_b=3IUZPWIU1PT6Z7P0VF7LF7DN35PKWL&c=365799&tp_c=365799","heads":5,"tails":5,"studentIndex":2,"studentTrueHypers":{"a":8,"b":2},"studentGuess":0.65,"delta":0.15000000000000002,"totalExamples":10,"bonusSoFar":0.37},{"rt":null,"stimulus":"Sending examples to student... ","response":null,"trial_type":"html-keyboard-response","trial_index":41,"time_elapsed":882541,"internal_node_id":"0.0-25.0","params":{"nStudents":24,"maxFlips":30,"completionMinutes":45,"basePay":8,"maxBonus":9,"perTrialBonus":0.5,"perTrialBonusThreshold":0.05,"exampleCost":0.01},"classroomParams":{"A":{"a":1,"b":4},"B":{"a":4,"b":1},"C":{"a":2,"b":8},"D":{"a":8,"b":2}},"conditions":["nonSeqFull","nonSeqPartial","seqNoFeedback","seqFeedback"],"classroomPairings":[["A","B"],["C","D"]],"coinWeights":[0.2,0.5,0.8],"subjectId":"A1USR9JCAMDGM3","assignmentId":"3IUZPWIU1PT6Z7P0VF7LF7DN35PKWL","hitId":"3JGHED38EDDK7DFM0KVY7GXU94LY7W","url":"https://gershmanlab.com/experiments/alicia/teaching/experiment/?hitId=3JGHED38EDDK7DFM0KVY7GXU94LY7W&workerId=A1USR9JCAMDGM3&assignmentId=3IUZPWIU1PT6Z7P0VF7LF7DN35PKWL&a=UPUI9&tp_a=UPUI9&b=3IUZPWIU1PT6Z7P0VF7LF7DN35PKWL&tp_b=3IUZPWIU1PT6Z7P0VF7LF7DN35PKWL&c=365799&tp_c=365799"},{"rt":null,"stimulus":"Examples sent to student! Waiting for student...","response":null,"trial_type":"html-keyboard-response","trial_index":42,"time_elapsed":888044,"internal_node_id":"0.0-26.0","params":{"nStudents":24,"maxFlips":30,"completionMinutes":45,"basePay":8,"maxBonus":9,"perTrialBonus":0.5,"perTrialBonusThreshold":0.05,"exampleCost":0.01},"classroomParams":{"A":{"a":1,"b":4},"B":{"a":4,"b":1},"C":{"a":2,"b":8},"D":{"a":8,"b":2}},"conditions":["nonSeqFull","nonSeqPartial","seqNoFeedback","seqFeedback"],"classroomPairings":[["A","B"],["C","D"]],"coinWeights":[0.2,0.5,0.8],"subjectId":"A1USR9JCAMDGM3","assignmentId":"3IUZPWIU1PT6Z7P0VF7LF7DN35PKWL","hitId":"3JGHED38EDDK7DFM0KVY7GXU94LY7W","url":"https://gershmanlab.com/experiments/alicia/teaching/experiment/?hitId=3JGHED38EDDK7DFM0KVY7GXU94LY7W&workerId=A1USR9JCAMDGM3&assignmentId=3IUZPWIU1PT6Z7P0VF7LF7DN35PKWL&a=UPUI9&tp_a=UPUI9&b=3IUZPWIU1PT6Z7P0VF7LF7DN35PKWL&tp_b=3IUZPWIU1PT6Z7P0VF7LF7DN35PKWL&c=365799&tp_c=365799"},{"rt":19306,"response":{"heads":"5","tails":"5"},"type":"response","condition":"seqNoFeedback","trueTheta":0.5,"classrooms":["C","D"],"studentTrueClassroom":"D","exampleSet":"second","trial_type":"survey-html-form","trial_index":43,"time_elapsed":907350,"internal_node_id":"0.0-27.0-0.0","params":{"nStudents":24,"maxFlips":30,"completionMinutes":45,"basePay":8,"maxBonus":9,"perTrialBonus":0.5,"perTrialBonusThreshold":0.05,"exampleCost":0.01},"classroomParams":{"A":{"a":1,"b":4},"B":{"a":4,"b":1},"C":{"a":2,"b":8},"D":{"a":8,"b":2}},"conditions":["nonSeqFull","nonSeqPartial","seqNoFeedback","seqFeedback"],"classroomPairings":[["A","B"],["C","D"]],"coinWeights":[0.2,0.5,0.8],"subjectId":"A1USR9JCAMDGM3","assignmentId":"3IUZPWIU1PT6Z7P0VF7LF7DN35PKWL","hitId":"3JGHED38EDDK7DFM0KVY7GXU94LY7W","url":"https://gershmanlab.com/experiments/alicia/teaching/experiment/?hitId=3JGHED38EDDK7DFM0KVY7GXU94LY7W&workerId=A1USR9JCAMDGM3&assignmentId=3IUZPWIU1PT6Z7P0VF7LF7DN35PKWL&a=UPUI9&tp_a=UPUI9&b=3IUZPWIU1PT6Z7P0VF7LF7DN35PKWL&tp_b=3IUZPWIU1PT6Z7P0VF7LF7DN35PKWL&c=365799&tp_c=365799","firstResponseHeads":5,"firstResponseTails":5,"secondResponseHeads":5,"secondResponseTails":5,"totalHeads":10,"totalTails":10,"studentIndex":2,"studentTrueHypers":{"a":8,"b":2},"studentGuess":0.6,"delta":0.09999999999999998,"bonus":0,"bonusSoFar":0.37,"totalExamples":20},{"rt":null,"stimulus":"Sending examples to student... ","response":null,"trial_type":"html-keyboard-response","trial_index":44,"time_elapsed":909103,"internal_node_id":"0.0-28.0","params":{"nStudents":24,"maxFlips":30,"completionMinutes":45,"basePay":8,"maxBonus":9,"perTrialBonus":0.5,"perTrialBonusThreshold":0.05,"exampleCost":0.01},"classroomParams":{"A":{"a":1,"b":4},"B":{"a":4,"b":1},"C":{"a":2,"b":8},"D":{"a":8,"b":2}},"conditions":["nonSeqFull","nonSeqPartial","seqNoFeedback","seqFeedback"],"classroomPairings":[["A","B"],["C","D"]],"coinWeights":[0.2,0.5,0.8],"subjectId":"A1USR9JCAMDGM3","assignmentId":"3IUZPWIU1PT6Z7P0VF7LF7DN35PKWL","hitId":"3JGHED38EDDK7DFM0KVY7GXU94LY7W","url":"https://gershmanlab.com/experiments/alicia/teaching/experiment/?hitId=3JGHED38EDDK7DFM0KVY7GXU94LY7W&workerId=A1USR9JCAMDGM3&assignmentId=3IUZPWIU1PT6Z7P0VF7LF7DN35PKWL&a=UPUI9&tp_a=UPUI9&b=3IUZPWIU1PT6Z7P0VF7LF7DN35PKWL&tp_b=3IUZPWIU1PT6Z7P0VF7LF7DN35PKWL&c=365799&tp_c=365799"},{"rt":null,"stimulus":"Examples sent to student! Waiting for student...","response":null,"trial_type":"html-keyboard-response","trial_index":45,"time_elapsed":914108,"internal_node_id":"0.0-29.0","params":{"nStudents":24,"maxFlips":30,"completionMinutes":45,"basePay":8,"maxBonus":9,"perTrialBonus":0.5,"perTrialBonusThreshold":0.05,"exampleCost":0.01},"classroomParams":{"A":{"a":1,"b":4},"B":{"a":4,"b":1},"C":{"a":2,"b":8},"D":{"a":8,"b":2}},"conditions":["nonSeqFull","nonSeqPartial","seqNoFeedback","seqFeedback"],"classroomPairings":[["A","B"],["C","D"]],"coinWeights":[0.2,0.5,0.8],"subjectId":"A1USR9JCAMDGM3","assignmentId":"3IUZPWIU1PT6Z7P0VF7LF7DN35PKWL","hitId":"3JGHED38EDDK7DFM0KVY7GXU94LY7W","url":"https://gershmanlab.com/experiments/alicia/teaching/experiment/?hitId=3JGHED38EDDK7DFM0KVY7GXU94LY7W&workerId=A1USR9JCAMDGM3&assignmentId=3IUZPWIU1PT6Z7P0VF7LF7DN35PKWL&a=UPUI9&tp_a=UPUI9&b=3IUZPWIU1PT6Z7P0VF7LF7DN35PKWL&tp_b=3IUZPWIU1PT6Z7P0VF7LF7DN35PKWL&c=365799&tp_c=365799"},{"rt":4338,"stimulus":"\n                <p>Student 3's first guess for coin weight: <b style=\"color:Tomato\";>0.65</b></p>\n                <p>Student 3's second guess for coin weight: <b style=\"color:Tomato\";>0.60</b></p>\n                <p>You received a bonus of <b>$0.00</b> based on the student's second guess.</p>\n                <p>Total bonus so far: <b>$0.37</b></p>\n                <p>Press any key to continue.</p>\n                ","response":" ","trial_type":"html-keyboard-response","trial_index":46,"time_elapsed":918447,"internal_node_id":"0.0-30.0","params":{"nStudents":24,"maxFlips":30,"completionMinutes":45,"basePay":8,"maxBonus":9,"perTrialBonus":0.5,"perTrialBonusThreshold":0.05,"exampleCost":0.01},"classroomParams":{"A":{"a":1,"b":4},"B":{"a":4,"b":1},"C":{"a":2,"b":8},"D":{"a":8,"b":2}},"conditions":["nonSeqFull","nonSeqPartial","seqNoFeedback","seqFeedback"],"classroomPairings":[["A","B"],["C","D"]],"coinWeights":[0.2,0.5,0.8],"subjectId":"A1USR9JCAMDGM3","assignmentId":"3IUZPWIU1PT6Z7P0VF7LF7DN35PKWL","hitId":"3JGHED38EDDK7DFM0KVY7GXU94LY7W","url":"https://gershmanlab.com/experiments/alicia/teaching/experiment/?hitId=3JGHED38EDDK7DFM0KVY7GXU94LY7W&workerId=A1USR9JCAMDGM3&assignmentId=3IUZPWIU1PT6Z7P0VF7LF7DN35PKWL&a=UPUI9&tp_a=UPUI9&b=3IUZPWIU1PT6Z7P0VF7LF7DN35PKWL&tp_b=3IUZPWIU1PT6Z7P0VF7LF7DN35PKWL&c=365799&tp_c=365799"},{"rt":null,"stimulus":"<div style=\"font-size:60px;\">Next student</div>","response":null,"trial_type":"html-keyboard-response","trial_index":47,"time_elapsed":920698,"internal_node_id":"0.0-31.0-0.0","params":{"nStudents":24,"maxFlips":30,"completionMinutes":45,"basePay":8,"maxBonus":9,"perTrialBonus":0.5,"perTrialBonusThreshold":0.05,"exampleCost":0.01},"classroomParams":{"A":{"a":1,"b":4},"B":{"a":4,"b":1},"C":{"a":2,"b":8},"D":{"a":8,"b":2}},"conditions":["nonSeqFull","nonSeqPartial","seqNoFeedback","seqFeedback"],"classroomPairings":[["A","B"],["C","D"]],"coinWeights":[0.2,0.5,0.8],"subjectId":"A1USR9JCAMDGM3","assignmentId":"3IUZPWIU1PT6Z7P0VF7LF7DN35PKWL","hitId":"3JGHED38EDDK7DFM0KVY7GXU94LY7W","url":"https://gershmanlab.com/experiments/alicia/teaching/experiment/?hitId=3JGHED38EDDK7DFM0KVY7GXU94LY7W&workerId=A1USR9JCAMDGM3&assignmentId=3IUZPWIU1PT6Z7P0VF7LF7DN35PKWL&a=UPUI9&tp_a=UPUI9&b=3IUZPWIU1PT6Z7P0VF7LF7DN35PKWL&tp_b=3IUZPWIU1PT6Z7P0VF7LF7DN35PKWL&c=365799&tp_c=365799"},{"rt":1139,"stimulus":"\n            <h4 style=\"color:Orange;\">Student 4</h4>\n            <h2>The weight of your coin is <b style=\"color:Tomato;\">0.8</b>.</h2>\n            <p>In this block, you will be giving <b>one</b> set of examples to Student 4.</p>\n                <p>You will receive feedback at the end of the block.</p>\n            <p></p>","response":0,"trial_type":"html-button-response","trial_index":48,"time_elapsed":921838,"internal_node_id":"0.0-32.0","params":{"nStudents":24,"maxFlips":30,"completionMinutes":45,"basePay":8,"maxBonus":9,"perTrialBonus":0.5,"perTrialBonusThreshold":0.05,"exampleCost":0.01},"classroomParams":{"A":{"a":1,"b":4},"B":{"a":4,"b":1},"C":{"a":2,"b":8},"D":{"a":8,"b":2}},"conditions":["nonSeqFull","nonSeqPartial","seqNoFeedback","seqFeedback"],"classroomPairings":[["A","B"],["C","D"]],"coinWeights":[0.2,0.5,0.8],"subjectId":"A1USR9JCAMDGM3","assignmentId":"3IUZPWIU1PT6Z7P0VF7LF7DN35PKWL","hitId":"3JGHED38EDDK7DFM0KVY7GXU94LY7W","url":"https://gershmanlab.com/experiments/alicia/teaching/experiment/?hitId=3JGHED38EDDK7DFM0KVY7GXU94LY7W&workerId=A1USR9JCAMDGM3&assignmentId=3IUZPWIU1PT6Z7P0VF7LF7DN35PKWL&a=UPUI9&tp_a=UPUI9&b=3IUZPWIU1PT6Z7P0VF7LF7DN35PKWL&tp_b=3IUZPWIU1PT6Z7P0VF7LF7DN35PKWL&c=365799&tp_c=365799"},{"rt":8391,"response":{"heads":"8","tails":"1"},"type":"response","condition":"nonSeqPartial","trueTheta":0.8,"classrooms":["C","D"],"studentTrueClassroom":"C","exampleSet":"first","trial_type":"survey-html-form","trial_index":49,"time_elapsed":930230,"internal_node_id":"0.0-33.0-0.0","params":{"nStudents":24,"maxFlips":30,"completionMinutes":45,"basePay":8,"maxBonus":9,"perTrialBonus":0.5,"perTrialBonusThreshold":0.05,"exampleCost":0.01},"classroomParams":{"A":{"a":1,"b":4},"B":{"a":4,"b":1},"C":{"a":2,"b":8},"D":{"a":8,"b":2}},"conditions":["nonSeqFull","nonSeqPartial","seqNoFeedback","seqFeedback"],"classroomPairings":[["A","B"],["C","D"]],"coinWeights":[0.2,0.5,0.8],"subjectId":"A1USR9JCAMDGM3","assignmentId":"3IUZPWIU1PT6Z7P0VF7LF7DN35PKWL","hitId":"3JGHED38EDDK7DFM0KVY7GXU94LY7W","url":"https://gershmanlab.com/experiments/alicia/teaching/experiment/?hitId=3JGHED38EDDK7DFM0KVY7GXU94LY7W&workerId=A1USR9JCAMDGM3&assignmentId=3IUZPWIU1PT6Z7P0VF7LF7DN35PKWL&a=UPUI9&tp_a=UPUI9&b=3IUZPWIU1PT6Z7P0VF7LF7DN35PKWL&tp_b=3IUZPWIU1PT6Z7P0VF7LF7DN35PKWL&c=365799&tp_c=365799","heads":8,"tails":1,"studentIndex":3,"studentTrueHypers":{"a":2,"b":8},"studentGuess":0.5263157894736842,"delta":0.27368421052631586,"totalExamples":9,"bonus":0,"bonusSoFar":0.37},{"rt":null,"stimulus":"Sending examples to student... ","response":null,"trial_type":"html-keyboard-response","trial_index":50,"time_elapsed":931990,"internal_node_id":"0.0-34.0","params":{"nStudents":24,"maxFlips":30,"completionMinutes":45,"basePay":8,"maxBonus":9,"perTrialBonus":0.5,"perTrialBonusThreshold":0.05,"exampleCost":0.01},"classroomParams":{"A":{"a":1,"b":4},"B":{"a":4,"b":1},"C":{"a":2,"b":8},"D":{"a":8,"b":2}},"conditions":["nonSeqFull","nonSeqPartial","seqNoFeedback","seqFeedback"],"classroomPairings":[["A","B"],["C","D"]],"coinWeights":[0.2,0.5,0.8],"subjectId":"A1USR9JCAMDGM3","assignmentId":"3IUZPWIU1PT6Z7P0VF7LF7DN35PKWL","hitId":"3JGHED38EDDK7DFM0KVY7GXU94LY7W","url":"https://gershmanlab.com/experiments/alicia/teaching/experiment/?hitId=3JGHED38EDDK7DFM0KVY7GXU94LY7W&workerId=A1USR9JCAMDGM3&assignmentId=3IUZPWIU1PT6Z7P0VF7LF7DN35PKWL&a=UPUI9&tp_a=UPUI9&b=3IUZPWIU1PT6Z7P0VF7LF7DN35PKWL&tp_b=3IUZPWIU1PT6Z7P0VF7LF7DN35PKWL&c=365799&tp_c=365799"},{"rt":null,"stimulus":"Examples sent to student! Waiting for student...","response":null,"trial_type":"html-keyboard-response","trial_index":51,"time_elapsed":936507,"internal_node_id":"0.0-35.0","params":{"nStudents":24,"maxFlips":30,"completionMinutes":45,"basePay":8,"maxBonus":9,"perTrialBonus":0.5,"perTrialBonusThreshold":0.05,"exampleCost":0.01},"classroomParams":{"A":{"a":1,"b":4},"B":{"a":4,"b":1},"C":{"a":2,"b":8},"D":{"a":8,"b":2}},"conditions":["nonSeqFull","nonSeqPartial","seqNoFeedback","seqFeedback"],"classroomPairings":[["A","B"],["C","D"]],"coinWeights":[0.2,0.5,0.8],"subjectId":"A1USR9JCAMDGM3","assignmentId":"3IUZPWIU1PT6Z7P0VF7LF7DN35PKWL","hitId":"3JGHED38EDDK7DFM0KVY7GXU94LY7W","url":"https://gershmanlab.com/experiments/alicia/teaching/experiment/?hitId=3JGHED38EDDK7DFM0KVY7GXU94LY7W&workerId=A1USR9JCAMDGM3&assignmentId=3IUZPWIU1PT6Z7P0VF7LF7DN35PKWL&a=UPUI9&tp_a=UPUI9&b=3IUZPWIU1PT6Z7P0VF7LF7DN35PKWL&tp_b=3IUZPWIU1PT6Z7P0VF7LF7DN35PKWL&c=365799&tp_c=365799"},{"rt":5206,"stimulus":"\n                <p>Student's guess for coin weight: <b style=\"color:Tomato;\">0.53</b></p>\n                <p>You received a bonus of <b>$0</b>. Total bonus so far: <b>$0.37</b></b></p>\n                <p></p>\n                <p>Press any key to continue.</p>\n                ","response":" ","trial_type":"html-keyboard-response","trial_index":52,"time_elapsed":941714,"internal_node_id":"0.0-36.0","params":{"nStudents":24,"maxFlips":30,"completionMinutes":45,"basePay":8,"maxBonus":9,"perTrialBonus":0.5,"perTrialBonusThreshold":0.05,"exampleCost":0.01},"classroomParams":{"A":{"a":1,"b":4},"B":{"a":4,"b":1},"C":{"a":2,"b":8},"D":{"a":8,"b":2}},"conditions":["nonSeqFull","nonSeqPartial","seqNoFeedback","seqFeedback"],"classroomPairings":[["A","B"],["C","D"]],"coinWeights":[0.2,0.5,0.8],"subjectId":"A1USR9JCAMDGM3","assignmentId":"3IUZPWIU1PT6Z7P0VF7LF7DN35PKWL","hitId":"3JGHED38EDDK7DFM0KVY7GXU94LY7W","url":"https://gershmanlab.com/experiments/alicia/teaching/experiment/?hitId=3JGHED38EDDK7DFM0KVY7GXU94LY7W&workerId=A1USR9JCAMDGM3&assignmentId=3IUZPWIU1PT6Z7P0VF7LF7DN35PKWL&a=UPUI9&tp_a=UPUI9&b=3IUZPWIU1PT6Z7P0VF7LF7DN35PKWL&tp_b=3IUZPWIU1PT6Z7P0VF7LF7DN35PKWL&c=365799&tp_c=365799"},{"rt":null,"stimulus":"<div style=\"font-size:60px;\">Next student</div>","response":null,"trial_type":"html-keyboard-response","trial_index":53,"time_elapsed":944714,"internal_node_id":"0.0-37.0-0.0","params":{"nStudents":24,"maxFlips":30,"completionMinutes":45,"basePay":8,"maxBonus":9,"perTrialBonus":0.5,"perTrialBonusThreshold":0.05,"exampleCost":0.01},"classroomParams":{"A":{"a":1,"b":4},"B":{"a":4,"b":1},"C":{"a":2,"b":8},"D":{"a":8,"b":2}},"conditions":["nonSeqFull","nonSeqPartial","seqNoFeedback","seqFeedback"],"classroomPairings":[["A","B"],["C","D"]],"coinWeights":[0.2,0.5,0.8],"subjectId":"A1USR9JCAMDGM3","assignmentId":"3IUZPWIU1PT6Z7P0VF7LF7DN35PKWL","hitId":"3JGHED38EDDK7DFM0KVY7GXU94LY7W","url":"https://gershmanlab.com/experiments/alicia/teaching/experiment/?hitId=3JGHED38EDDK7DFM0KVY7GXU94LY7W&workerId=A1USR9JCAMDGM3&assignmentId=3IUZPWIU1PT6Z7P0VF7LF7DN35PKWL&a=UPUI9&tp_a=UPUI9&b=3IUZPWIU1PT6Z7P0VF7LF7DN35PKWL&tp_b=3IUZPWIU1PT6Z7P0VF7LF7DN35PKWL&c=365799&tp_c=365799"},{"rt":1180,"stimulus":"\n            <h4 style=\"color:Orange;\">Student 5</h4>\n            <h2>The weight of your coin is <b style=\"color:Tomato;\">0.2</b>.</h2>\n            <p>In this block, you will be giving <b>one</b> set of examples to Student 5.</p>\n                <p>You will receive feedback at the end of the block.</p>\n            <p></p>","response":0,"trial_type":"html-button-response","trial_index":54,"time_elapsed":945895,"internal_node_id":"0.0-38.0","params":{"nStudents":24,"maxFlips":30,"completionMinutes":45,"basePay":8,"maxBonus":9,"perTrialBonus":0.5,"perTrialBonusThreshold":0.05,"exampleCost":0.01},"classroomParams":{"A":{"a":1,"b":4},"B":{"a":4,"b":1},"C":{"a":2,"b":8},"D":{"a":8,"b":2}},"conditions":["nonSeqFull","nonSeqPartial","seqNoFeedback","seqFeedback"],"classroomPairings":[["A","B"],["C","D"]],"coinWeights":[0.2,0.5,0.8],"subjectId":"A1USR9JCAMDGM3","assignmentId":"3IUZPWIU1PT6Z7P0VF7LF7DN35PKWL","hitId":"3JGHED38EDDK7DFM0KVY7GXU94LY7W","url":"https://gershmanlab.com/experiments/alicia/teaching/experiment/?hitId=3JGHED38EDDK7DFM0KVY7GXU94LY7W&workerId=A1USR9JCAMDGM3&assignmentId=3IUZPWIU1PT6Z7P0VF7LF7DN35PKWL&a=UPUI9&tp_a=UPUI9&b=3IUZPWIU1PT6Z7P0VF7LF7DN35PKWL&tp_b=3IUZPWIU1PT6Z7P0VF7LF7DN35PKWL&c=365799&tp_c=365799"},{"rt":4625,"response":{"heads":"1","tails":"4"},"type":"response","condition":"nonSeqFull","trueTheta":0.2,"classrooms":["C","D"],"studentTrueClassroom":"D","exampleSet":"first","trial_type":"survey-html-form","trial_index":55,"time_elapsed":950521,"internal_node_id":"0.0-39.0-0.0","params":{"nStudents":24,"maxFlips":30,"completionMinutes":45,"basePay":8,"maxBonus":9,"perTrialBonus":0.5,"perTrialBonusThreshold":0.05,"exampleCost":0.01},"classroomParams":{"A":{"a":1,"b":4},"B":{"a":4,"b":1},"C":{"a":2,"b":8},"D":{"a":8,"b":2}},"conditions":["nonSeqFull","nonSeqPartial","seqNoFeedback","seqFeedback"],"classroomPairings":[["A","B"],["C","D"]],"coinWeights":[0.2,0.5,0.8],"subjectId":"A1USR9JCAMDGM3","assignmentId":"3IUZPWIU1PT6Z7P0VF7LF7DN35PKWL","hitId":"3JGHED38EDDK7DFM0KVY7GXU94LY7W","url":"https://gershmanlab.com/experiments/alicia/teaching/experiment/?hitId=3JGHED38EDDK7DFM0KVY7GXU94LY7W&workerId=A1USR9JCAMDGM3&assignmentId=3IUZPWIU1PT6Z7P0VF7LF7DN35PKWL&a=UPUI9&tp_a=UPUI9&b=3IUZPWIU1PT6Z7P0VF7LF7DN35PKWL&tp_b=3IUZPWIU1PT6Z7P0VF7LF7DN35PKWL&c=365799&tp_c=365799","heads":1,"tails":4,"studentIndex":4,"studentTrueHypers":{"a":8,"b":2},"studentGuess":0.6,"delta":0.39999999999999997,"totalExamples":5,"bonus":0,"bonusSoFar":0.37},{"rt":null,"stimulus":"Sending examples to student... ","response":null,"trial_type":"html-keyboard-response","trial_index":56,"time_elapsed":951779,"internal_node_id":"0.0-40.0","params":{"nStudents":24,"maxFlips":30,"completionMinutes":45,"basePay":8,"maxBonus":9,"perTrialBonus":0.5,"perTrialBonusThreshold":0.05,"exampleCost":0.01},"classroomParams":{"A":{"a":1,"b":4},"B":{"a":4,"b":1},"C":{"a":2,"b":8},"D":{"a":8,"b":2}},"conditions":["nonSeqFull","nonSeqPartial","seqNoFeedback","seqFeedback"],"classroomPairings":[["A","B"],["C","D"]],"coinWeights":[0.2,0.5,0.8],"subjectId":"A1USR9JCAMDGM3","assignmentId":"3IUZPWIU1PT6Z7P0VF7LF7DN35PKWL","hitId":"3JGHED38EDDK7DFM0KVY7GXU94LY7W","url":"https://gershmanlab.com/experiments/alicia/teaching/experiment/?hitId=3JGHED38EDDK7DFM0KVY7GXU94LY7W&workerId=A1USR9JCAMDGM3&assignmentId=3IUZPWIU1PT6Z7P0VF7LF7DN35PKWL&a=UPUI9&tp_a=UPUI9&b=3IUZPWIU1PT6Z7P0VF7LF7DN35PKWL&tp_b=3IUZPWIU1PT6Z7P0VF7LF7DN35PKWL&c=365799&tp_c=365799"},{"rt":null,"stimulus":"Examples sent to student! Waiting for student...","response":null,"trial_type":"html-keyboard-response","trial_index":57,"time_elapsed":956790,"internal_node_id":"0.0-41.0","params":{"nStudents":24,"maxFlips":30,"completionMinutes":45,"basePay":8,"maxBonus":9,"perTrialBonus":0.5,"perTrialBonusThreshold":0.05,"exampleCost":0.01},"classroomParams":{"A":{"a":1,"b":4},"B":{"a":4,"b":1},"C":{"a":2,"b":8},"D":{"a":8,"b":2}},"conditions":["nonSeqFull","nonSeqPartial","seqNoFeedback","seqFeedback"],"classroomPairings":[["A","B"],["C","D"]],"coinWeights":[0.2,0.5,0.8],"subjectId":"A1USR9JCAMDGM3","assignmentId":"3IUZPWIU1PT6Z7P0VF7LF7DN35PKWL","hitId":"3JGHED38EDDK7DFM0KVY7GXU94LY7W","url":"https://gershmanlab.com/experiments/alicia/teaching/experiment/?hitId=3JGHED38EDDK7DFM0KVY7GXU94LY7W&workerId=A1USR9JCAMDGM3&assignmentId=3IUZPWIU1PT6Z7P0VF7LF7DN35PKWL&a=UPUI9&tp_a=UPUI9&b=3IUZPWIU1PT6Z7P0VF7LF7DN35PKWL&tp_b=3IUZPWIU1PT6Z7P0VF7LF7DN35PKWL&c=365799&tp_c=365799"},{"rt":6639,"stimulus":"\n                <p>Student's guess for coin weight: <b style=\"color:Tomato;\">0.60</b></p>\n                <p>You received a bonus of <b>$0</b>. Total bonus so far: <b>$0.37</b></b></p>\n                <p></p>\n                <p>Press any key to continue.</p>\n                ","response":" ","trial_type":"html-keyboard-response","trial_index":58,"time_elapsed":963430,"internal_node_id":"0.0-42.0","params":{"nStudents":24,"maxFlips":30,"completionMinutes":45,"basePay":8,"maxBonus":9,"perTrialBonus":0.5,"perTrialBonusThreshold":0.05,"exampleCost":0.01},"classroomParams":{"A":{"a":1,"b":4},"B":{"a":4,"b":1},"C":{"a":2,"b":8},"D":{"a":8,"b":2}},"conditions":["nonSeqFull","nonSeqPartial","seqNoFeedback","seqFeedback"],"classroomPairings":[["A","B"],["C","D"]],"coinWeights":[0.2,0.5,0.8],"subjectId":"A1USR9JCAMDGM3","assignmentId":"3IUZPWIU1PT6Z7P0VF7LF7DN35PKWL","hitId":"3JGHED38EDDK7DFM0KVY7GXU94LY7W","url":"https://gershmanlab.com/experiments/alicia/teaching/experiment/?hitId=3JGHED38EDDK7DFM0KVY7GXU94LY7W&workerId=A1USR9JCAMDGM3&assignmentId=3IUZPWIU1PT6Z7P0VF7LF7DN35PKWL&a=UPUI9&tp_a=UPUI9&b=3IUZPWIU1PT6Z7P0VF7LF7DN35PKWL&tp_b=3IUZPWIU1PT6Z7P0VF7LF7DN35PKWL&c=365799&tp_c=365799"},{"rt":null,"stimulus":"<div style=\"font-size:60px;\">Next student</div>","response":null,"trial_type":"html-keyboard-response","trial_index":59,"time_elapsed":965433,"internal_node_id":"0.0-43.0-0.0","params":{"nStudents":24,"maxFlips":30,"completionMinutes":45,"basePay":8,"maxBonus":9,"perTrialBonus":0.5,"perTrialBonusThreshold":0.05,"exampleCost":0.01},"classroomParams":{"A":{"a":1,"b":4},"B":{"a":4,"b":1},"C":{"a":2,"b":8},"D":{"a":8,"b":2}},"conditions":["nonSeqFull","nonSeqPartial","seqNoFeedback","seqFeedback"],"classroomPairings":[["A","B"],["C","D"]],"coinWeights":[0.2,0.5,0.8],"subjectId":"A1USR9JCAMDGM3","assignmentId":"3IUZPWIU1PT6Z7P0VF7LF7DN35PKWL","hitId":"3JGHED38EDDK7DFM0KVY7GXU94LY7W","url":"https://gershmanlab.com/experiments/alicia/teaching/experiment/?hitId=3JGHED38EDDK7DFM0KVY7GXU94LY7W&workerId=A1USR9JCAMDGM3&assignmentId=3IUZPWIU1PT6Z7P0VF7LF7DN35PKWL&a=UPUI9&tp_a=UPUI9&b=3IUZPWIU1PT6Z7P0VF7LF7DN35PKWL&tp_b=3IUZPWIU1PT6Z7P0VF7LF7DN35PKWL&c=365799&tp_c=365799"},{"rt":962,"stimulus":"\n            <h4 style=\"color:Orange;\">Student 6</h4>\n            <h2>The weight of your coin is <b style=\"color:Tomato;\">0.2</b>.</h2>\n            <p>In this block, you will be giving <b>one</b> set of examples to Student 6.</p>\n                <p>You will receive feedback at the end of the block.</p>\n            <p></p>","response":0,"trial_type":"html-button-response","trial_index":60,"time_elapsed":966398,"internal_node_id":"0.0-44.0","params":{"nStudents":24,"maxFlips":30,"completionMinutes":45,"basePay":8,"maxBonus":9,"perTrialBonus":0.5,"perTrialBonusThreshold":0.05,"exampleCost":0.01},"classroomParams":{"A":{"a":1,"b":4},"B":{"a":4,"b":1},"C":{"a":2,"b":8},"D":{"a":8,"b":2}},"conditions":["nonSeqFull","nonSeqPartial","seqNoFeedback","seqFeedback"],"classroomPairings":[["A","B"],["C","D"]],"coinWeights":[0.2,0.5,0.8],"subjectId":"A1USR9JCAMDGM3","assignmentId":"3IUZPWIU1PT6Z7P0VF7LF7DN35PKWL","hitId":"3JGHED38EDDK7DFM0KVY7GXU94LY7W","url":"https://gershmanlab.com/experiments/alicia/teaching/experiment/?hitId=3JGHED38EDDK7DFM0KVY7GXU94LY7W&workerId=A1USR9JCAMDGM3&assignmentId=3IUZPWIU1PT6Z7P0VF7LF7DN35PKWL&a=UPUI9&tp_a=UPUI9&b=3IUZPWIU1PT6Z7P0VF7LF7DN35PKWL&tp_b=3IUZPWIU1PT6Z7P0VF7LF7DN35PKWL&c=365799&tp_c=365799"},{"rt":7569,"response":{"heads":"1","tails":"4"},"type":"response","condition":"nonSeqPartial","trueTheta":0.2,"classrooms":["A","B"],"studentTrueClassroom":"A","exampleSet":"first","trial_type":"survey-html-form","trial_index":61,"time_elapsed":973970,"internal_node_id":"0.0-45.0-0.0","params":{"nStudents":24,"maxFlips":30,"completionMinutes":45,"basePay":8,"maxBonus":9,"perTrialBonus":0.5,"perTrialBonusThreshold":0.05,"exampleCost":0.01},"classroomParams":{"A":{"a":1,"b":4},"B":{"a":4,"b":1},"C":{"a":2,"b":8},"D":{"a":8,"b":2}},"conditions":["nonSeqFull","nonSeqPartial","seqNoFeedback","seqFeedback"],"classroomPairings":[["A","B"],["C","D"]],"coinWeights":[0.2,0.5,0.8],"subjectId":"A1USR9JCAMDGM3","assignmentId":"3IUZPWIU1PT6Z7P0VF7LF7DN35PKWL","hitId":"3JGHED38EDDK7DFM0KVY7GXU94LY7W","url":"https://gershmanlab.com/experiments/alicia/teaching/experiment/?hitId=3JGHED38EDDK7DFM0KVY7GXU94LY7W&workerId=A1USR9JCAMDGM3&assignmentId=3IUZPWIU1PT6Z7P0VF7LF7DN35PKWL&a=UPUI9&tp_a=UPUI9&b=3IUZPWIU1PT6Z7P0VF7LF7DN35PKWL&tp_b=3IUZPWIU1PT6Z7P0VF7LF7DN35PKWL&c=365799&tp_c=365799","heads":1,"tails":4,"studentIndex":5,"studentTrueHypers":{"a":1,"b":4},"studentGuess":0.2,"delta":0,"totalExamples":5,"bonus":0.45,"bonusSoFar":0.82},{"rt":null,"stimulus":"Sending examples to student... ","response":null,"trial_type":"html-keyboard-response","trial_index":62,"time_elapsed":975485,"internal_node_id":"0.0-46.0","params":{"nStudents":24,"maxFlips":30,"completionMinutes":45,"basePay":8,"maxBonus":9,"perTrialBonus":0.5,"perTrialBonusThreshold":0.05,"exampleCost":0.01},"classroomParams":{"A":{"a":1,"b":4},"B":{"a":4,"b":1},"C":{"a":2,"b":8},"D":{"a":8,"b":2}},"conditions":["nonSeqFull","nonSeqPartial","seqNoFeedback","seqFeedback"],"classroomPairings":[["A","B"],["C","D"]],"coinWeights":[0.2,0.5,0.8],"subjectId":"A1USR9JCAMDGM3","assignmentId":"3IUZPWIU1PT6Z7P0VF7LF7DN35PKWL","hitId":"3JGHED38EDDK7DFM0KVY7GXU94LY7W","url":"https://gershmanlab.com/experiments/alicia/teaching/experiment/?hitId=3JGHED38EDDK7DFM0KVY7GXU94LY7W&workerId=A1USR9JCAMDGM3&assignmentId=3IUZPWIU1PT6Z7P0VF7LF7DN35PKWL&a=UPUI9&tp_a=UPUI9&b=3IUZPWIU1PT6Z7P0VF7LF7DN35PKWL&tp_b=3IUZPWIU1PT6Z7P0VF7LF7DN35PKWL&c=365799&tp_c=365799"},{"rt":null,"stimulus":"Examples sent to student! Waiting for student...","response":null,"trial_type":"html-keyboard-response","trial_index":63,"time_elapsed":981495,"internal_node_id":"0.0-47.0","params":{"nStudents":24,"maxFlips":30,"completionMinutes":45,"basePay":8,"maxBonus":9,"perTrialBonus":0.5,"perTrialBonusThreshold":0.05,"exampleCost":0.01},"classroomParams":{"A":{"a":1,"b":4},"B":{"a":4,"b":1},"C":{"a":2,"b":8},"D":{"a":8,"b":2}},"conditions":["nonSeqFull","nonSeqPartial","seqNoFeedback","seqFeedback"],"classroomPairings":[["A","B"],["C","D"]],"coinWeights":[0.2,0.5,0.8],"subjectId":"A1USR9JCAMDGM3","assignmentId":"3IUZPWIU1PT6Z7P0VF7LF7DN35PKWL","hitId":"3JGHED38EDDK7DFM0KVY7GXU94LY7W","url":"https://gershmanlab.com/experiments/alicia/teaching/experiment/?hitId=3JGHED38EDDK7DFM0KVY7GXU94LY7W&workerId=A1USR9JCAMDGM3&assignmentId=3IUZPWIU1PT6Z7P0VF7LF7DN35PKWL&a=UPUI9&tp_a=UPUI9&b=3IUZPWIU1PT6Z7P0VF7LF7DN35PKWL&tp_b=3IUZPWIU1PT6Z7P0VF7LF7DN35PKWL&c=365799&tp_c=365799"},{"rt":4410,"stimulus":"\n                <p>Student's guess for coin weight: <b style=\"color:Tomato;\">0.20</b></p>\n                <p>You received a bonus of <b>$0.45</b>. Total bonus so far: <b>$0.82</b></b></p>\n                <p></p>\n                <p>Press any key to continue.</p>\n                ","response":" ","trial_type":"html-keyboard-response","trial_index":64,"time_elapsed":985906,"internal_node_id":"0.0-48.0","params":{"nStudents":24,"maxFlips":30,"completionMinutes":45,"basePay":8,"maxBonus":9,"perTrialBonus":0.5,"perTrialBonusThreshold":0.05,"exampleCost":0.01},"classroomParams":{"A":{"a":1,"b":4},"B":{"a":4,"b":1},"C":{"a":2,"b":8},"D":{"a":8,"b":2}},"conditions":["nonSeqFull","nonSeqPartial","seqNoFeedback","seqFeedback"],"classroomPairings":[["A","B"],["C","D"]],"coinWeights":[0.2,0.5,0.8],"subjectId":"A1USR9JCAMDGM3","assignmentId":"3IUZPWIU1PT6Z7P0VF7LF7DN35PKWL","hitId":"3JGHED38EDDK7DFM0KVY7GXU94LY7W","url":"https://gershmanlab.com/experiments/alicia/teaching/experiment/?hitId=3JGHED38EDDK7DFM0KVY7GXU94LY7W&workerId=A1USR9JCAMDGM3&assignmentId=3IUZPWIU1PT6Z7P0VF7LF7DN35PKWL&a=UPUI9&tp_a=UPUI9&b=3IUZPWIU1PT6Z7P0VF7LF7DN35PKWL&tp_b=3IUZPWIU1PT6Z7P0VF7LF7DN35PKWL&c=365799&tp_c=365799"},{"rt":null,"stimulus":"<div style=\"font-size:60px;\">Next student</div>","response":null,"trial_type":"html-keyboard-response","trial_index":65,"time_elapsed":987907,"internal_node_id":"0.0-49.0-0.0","params":{"nStudents":24,"maxFlips":30,"completionMinutes":45,"basePay":8,"maxBonus":9,"perTrialBonus":0.5,"perTrialBonusThreshold":0.05,"exampleCost":0.01},"classroomParams":{"A":{"a":1,"b":4},"B":{"a":4,"b":1},"C":{"a":2,"b":8},"D":{"a":8,"b":2}},"conditions":["nonSeqFull","nonSeqPartial","seqNoFeedback","seqFeedback"],"classroomPairings":[["A","B"],["C","D"]],"coinWeights":[0.2,0.5,0.8],"subjectId":"A1USR9JCAMDGM3","assignmentId":"3IUZPWIU1PT6Z7P0VF7LF7DN35PKWL","hitId":"3JGHED38EDDK7DFM0KVY7GXU94LY7W","url":"https://gershmanlab.com/experiments/alicia/teaching/experiment/?hitId=3JGHED38EDDK7DFM0KVY7GXU94LY7W&workerId=A1USR9JCAMDGM3&assignmentId=3IUZPWIU1PT6Z7P0VF7LF7DN35PKWL&a=UPUI9&tp_a=UPUI9&b=3IUZPWIU1PT6Z7P0VF7LF7DN35PKWL&tp_b=3IUZPWIU1PT6Z7P0VF7LF7DN35PKWL&c=365799&tp_c=365799"},{"rt":3079,"stimulus":"\n            <h4 style=\"color:Orange;\">Student 7</h4>\n            <h2>The weight of your coin is <b style=\"color:Tomato;\">0.8</b>.</h2>\n            <p>In this block, you will be giving <b>two</b> sets of examples to Student 7.</p>\n                <p>You will see the student's guess after the first set of examples. You will also receive feedback at the end of the block.</p>\n            <p>To earn the highest bonus, you will have to <b>take into consideration the student's guess</b> when you choose your second set of examples.</p>","response":0,"trial_type":"html-button-response","trial_index":66,"time_elapsed":990987,"internal_node_id":"0.0-50.0","params":{"nStudents":24,"maxFlips":30,"completionMinutes":45,"basePay":8,"maxBonus":9,"perTrialBonus":0.5,"perTrialBonusThreshold":0.05,"exampleCost":0.01},"classroomParams":{"A":{"a":1,"b":4},"B":{"a":4,"b":1},"C":{"a":2,"b":8},"D":{"a":8,"b":2}},"conditions":["nonSeqFull","nonSeqPartial","seqNoFeedback","seqFeedback"],"classroomPairings":[["A","B"],["C","D"]],"coinWeights":[0.2,0.5,0.8],"subjectId":"A1USR9JCAMDGM3","assignmentId":"3IUZPWIU1PT6Z7P0VF7LF7DN35PKWL","hitId":"3JGHED38EDDK7DFM0KVY7GXU94LY7W","url":"https://gershmanlab.com/experiments/alicia/teaching/experiment/?hitId=3JGHED38EDDK7DFM0KVY7GXU94LY7W&workerId=A1USR9JCAMDGM3&assignmentId=3IUZPWIU1PT6Z7P0VF7LF7DN35PKWL&a=UPUI9&tp_a=UPUI9&b=3IUZPWIU1PT6Z7P0VF7LF7DN35PKWL&tp_b=3IUZPWIU1PT6Z7P0VF7LF7DN35PKWL&c=365799&tp_c=365799"},{"rt":6880,"response":{"heads":"6","tails":"2"},"type":"response","condition":"seqFeedback","trueTheta":0.8,"classrooms":["C","D"],"studentTrueClassroom":"D","exampleSet":"first","trial_type":"survey-html-form","trial_index":67,"time_elapsed":997868,"internal_node_id":"0.0-51.0-0.0","params":{"nStudents":24,"maxFlips":30,"completionMinutes":45,"basePay":8,"maxBonus":9,"perTrialBonus":0.5,"perTrialBonusThreshold":0.05,"exampleCost":0.01},"classroomParams":{"A":{"a":1,"b":4},"B":{"a":4,"b":1},"C":{"a":2,"b":8},"D":{"a":8,"b":2}},"conditions":["nonSeqFull","nonSeqPartial","seqNoFeedback","seqFeedback"],"classroomPairings":[["A","B"],["C","D"]],"coinWeights":[0.2,0.5,0.8],"subjectId":"A1USR9JCAMDGM3","assignmentId":"3IUZPWIU1PT6Z7P0VF7LF7DN35PKWL","hitId":"3JGHED38EDDK7DFM0KVY7GXU94LY7W","url":"https://gershmanlab.com/experiments/alicia/teaching/experiment/?hitId=3JGHED38EDDK7DFM0KVY7GXU94LY7W&workerId=A1USR9JCAMDGM3&assignmentId=3IUZPWIU1PT6Z7P0VF7LF7DN35PKWL&a=UPUI9&tp_a=UPUI9&b=3IUZPWIU1PT6Z7P0VF7LF7DN35PKWL&tp_b=3IUZPWIU1PT6Z7P0VF7LF7DN35PKWL&c=365799&tp_c=365799","heads":6,"tails":2,"studentIndex":6,"studentTrueHypers":{"a":8,"b":2},"studentGuess":0.7777777777777778,"delta":0.022222222222222254,"totalExamples":8,"bonusSoFar":0.82},{"rt":null,"stimulus":"Sending examples to student... ","response":null,"trial_type":"html-keyboard-response","trial_index":68,"time_elapsed":999134,"internal_node_id":"0.0-52.0","params":{"nStudents":24,"maxFlips":30,"completionMinutes":45,"basePay":8,"maxBonus":9,"perTrialBonus":0.5,"perTrialBonusThreshold":0.05,"exampleCost":0.01},"classroomParams":{"A":{"a":1,"b":4},"B":{"a":4,"b":1},"C":{"a":2,"b":8},"D":{"a":8,"b":2}},"conditions":["nonSeqFull","nonSeqPartial","seqNoFeedback","seqFeedback"],"classroomPairings":[["A","B"],["C","D"]],"coinWeights":[0.2,0.5,0.8],"subjectId":"A1USR9JCAMDGM3","assignmentId":"3IUZPWIU1PT6Z7P0VF7LF7DN35PKWL","hitId":"3JGHED38EDDK7DFM0KVY7GXU94LY7W","url":"https://gershmanlab.com/experiments/alicia/teaching/experiment/?hitId=3JGHED38EDDK7DFM0KVY7GXU94LY7W&workerId=A1USR9JCAMDGM3&assignmentId=3IUZPWIU1PT6Z7P0VF7LF7DN35PKWL&a=UPUI9&tp_a=UPUI9&b=3IUZPWIU1PT6Z7P0VF7LF7DN35PKWL&tp_b=3IUZPWIU1PT6Z7P0VF7LF7DN35PKWL&c=365799&tp_c=365799"},{"rt":null,"stimulus":"Examples sent to student! Waiting for student...","response":null,"trial_type":"html-keyboard-response","trial_index":69,"time_elapsed":1004635,"internal_node_id":"0.0-53.0","params":{"nStudents":24,"maxFlips":30,"completionMinutes":45,"basePay":8,"maxBonus":9,"perTrialBonus":0.5,"perTrialBonusThreshold":0.05,"exampleCost":0.01},"classroomParams":{"A":{"a":1,"b":4},"B":{"a":4,"b":1},"C":{"a":2,"b":8},"D":{"a":8,"b":2}},"conditions":["nonSeqFull","nonSeqPartial","seqNoFeedback","seqFeedback"],"classroomPairings":[["A","B"],["C","D"]],"coinWeights":[0.2,0.5,0.8],"subjectId":"A1USR9JCAMDGM3","assignmentId":"3IUZPWIU1PT6Z7P0VF7LF7DN35PKWL","hitId":"3JGHED38EDDK7DFM0KVY7GXU94LY7W","url":"https://gershmanlab.com/experiments/alicia/teaching/experiment/?hitId=3JGHED38EDDK7DFM0KVY7GXU94LY7W&workerId=A1USR9JCAMDGM3&assignmentId=3IUZPWIU1PT6Z7P0VF7LF7DN35PKWL&a=UPUI9&tp_a=UPUI9&b=3IUZPWIU1PT6Z7P0VF7LF7DN35PKWL&tp_b=3IUZPWIU1PT6Z7P0VF7LF7DN35PKWL&c=365799&tp_c=365799"},{"rt":3958,"stimulus":"\n                <p>Student's guess for coin weight: <b style=\"color:Tomato;\">0.78</b></p>\n                <p></b></p>\n                <p>You will now send another set of examples to your student. <b>Remember to take your student's guess into consideration so that you can earn the highest bonus possible!</b> </p>\n                <p>Press any key to continue.</p>\n                ","response":" ","trial_type":"html-keyboard-response","trial_index":70,"time_elapsed":1008594,"internal_node_id":"0.0-54.0","params":{"nStudents":24,"maxFlips":30,"completionMinutes":45,"basePay":8,"maxBonus":9,"perTrialBonus":0.5,"perTrialBonusThreshold":0.05,"exampleCost":0.01},"classroomParams":{"A":{"a":1,"b":4},"B":{"a":4,"b":1},"C":{"a":2,"b":8},"D":{"a":8,"b":2}},"conditions":["nonSeqFull","nonSeqPartial","seqNoFeedback","seqFeedback"],"classroomPairings":[["A","B"],["C","D"]],"coinWeights":[0.2,0.5,0.8],"subjectId":"A1USR9JCAMDGM3","assignmentId":"3IUZPWIU1PT6Z7P0VF7LF7DN35PKWL","hitId":"3JGHED38EDDK7DFM0KVY7GXU94LY7W","url":"https://gershmanlab.com/experiments/alicia/teaching/experiment/?hitId=3JGHED38EDDK7DFM0KVY7GXU94LY7W&workerId=A1USR9JCAMDGM3&assignmentId=3IUZPWIU1PT6Z7P0VF7LF7DN35PKWL&a=UPUI9&tp_a=UPUI9&b=3IUZPWIU1PT6Z7P0VF7LF7DN35PKWL&tp_b=3IUZPWIU1PT6Z7P0VF7LF7DN35PKWL&c=365799&tp_c=365799"},{"rt":8994,"response":{"heads":"5","tails":"2"},"type":"response","condition":"seqFeedback","trueTheta":0.8,"classrooms":["C","D"],"studentTrueClassroom":"D","exampleSet":"second","trial_type":"survey-html-form","trial_index":71,"time_elapsed":1017590,"internal_node_id":"0.0-55.0-0.0","params":{"nStudents":24,"maxFlips":30,"completionMinutes":45,"basePay":8,"maxBonus":9,"perTrialBonus":0.5,"perTrialBonusThreshold":0.05,"exampleCost":0.01},"classroomParams":{"A":{"a":1,"b":4},"B":{"a":4,"b":1},"C":{"a":2,"b":8},"D":{"a":8,"b":2}},"conditions":["nonSeqFull","nonSeqPartial","seqNoFeedback","seqFeedback"],"classroomPairings":[["A","B"],["C","D"]],"coinWeights":[0.2,0.5,0.8],"subjectId":"A1USR9JCAMDGM3","assignmentId":"3IUZPWIU1PT6Z7P0VF7LF7DN35PKWL","hitId":"3JGHED38EDDK7DFM0KVY7GXU94LY7W","url":"https://gershmanlab.com/experiments/alicia/teaching/experiment/?hitId=3JGHED38EDDK7DFM0KVY7GXU94LY7W&workerId=A1USR9JCAMDGM3&assignmentId=3IUZPWIU1PT6Z7P0VF7LF7DN35PKWL&a=UPUI9&tp_a=UPUI9&b=3IUZPWIU1PT6Z7P0VF7LF7DN35PKWL&tp_b=3IUZPWIU1PT6Z7P0VF7LF7DN35PKWL&c=365799&tp_c=365799","firstResponseHeads":6,"firstResponseTails":2,"secondResponseHeads":5,"secondResponseTails":2,"totalHeads":11,"totalTails":4,"studentIndex":6,"studentTrueHypers":{"a":8,"b":2},"studentGuess":0.76,"delta":0.040000000000000036,"bonus":0.35,"bonusSoFar":1.17,"totalExamples":15},{"rt":null,"stimulus":"Sending examples to student... ","response":null,"trial_type":"html-keyboard-response","trial_index":72,"time_elapsed":1018857,"internal_node_id":"0.0-56.0","params":{"nStudents":24,"maxFlips":30,"completionMinutes":45,"basePay":8,"maxBonus":9,"perTrialBonus":0.5,"perTrialBonusThreshold":0.05,"exampleCost":0.01},"classroomParams":{"A":{"a":1,"b":4},"B":{"a":4,"b":1},"C":{"a":2,"b":8},"D":{"a":8,"b":2}},"conditions":["nonSeqFull","nonSeqPartial","seqNoFeedback","seqFeedback"],"classroomPairings":[["A","B"],["C","D"]],"coinWeights":[0.2,0.5,0.8],"subjectId":"A1USR9JCAMDGM3","assignmentId":"3IUZPWIU1PT6Z7P0VF7LF7DN35PKWL","hitId":"3JGHED38EDDK7DFM0KVY7GXU94LY7W","url":"https://gershmanlab.com/experiments/alicia/teaching/experiment/?hitId=3JGHED38EDDK7DFM0KVY7GXU94LY7W&workerId=A1USR9JCAMDGM3&assignmentId=3IUZPWIU1PT6Z7P0VF7LF7DN35PKWL&a=UPUI9&tp_a=UPUI9&b=3IUZPWIU1PT6Z7P0VF7LF7DN35PKWL&tp_b=3IUZPWIU1PT6Z7P0VF7LF7DN35PKWL&c=365799&tp_c=365799"},{"rt":null,"stimulus":"Examples sent to student! Waiting for student...","response":null,"trial_type":"html-keyboard-response","trial_index":73,"time_elapsed":1023370,"internal_node_id":"0.0-57.0","params":{"nStudents":24,"maxFlips":30,"completionMinutes":45,"basePay":8,"maxBonus":9,"perTrialBonus":0.5,"perTrialBonusThreshold":0.05,"exampleCost":0.01},"classroomParams":{"A":{"a":1,"b":4},"B":{"a":4,"b":1},"C":{"a":2,"b":8},"D":{"a":8,"b":2}},"conditions":["nonSeqFull","nonSeqPartial","seqNoFeedback","seqFeedback"],"classroomPairings":[["A","B"],["C","D"]],"coinWeights":[0.2,0.5,0.8],"subjectId":"A1USR9JCAMDGM3","assignmentId":"3IUZPWIU1PT6Z7P0VF7LF7DN35PKWL","hitId":"3JGHED38EDDK7DFM0KVY7GXU94LY7W","url":"https://gershmanlab.com/experiments/alicia/teaching/experiment/?hitId=3JGHED38EDDK7DFM0KVY7GXU94LY7W&workerId=A1USR9JCAMDGM3&assignmentId=3IUZPWIU1PT6Z7P0VF7LF7DN35PKWL&a=UPUI9&tp_a=UPUI9&b=3IUZPWIU1PT6Z7P0VF7LF7DN35PKWL&tp_b=3IUZPWIU1PT6Z7P0VF7LF7DN35PKWL&c=365799&tp_c=365799"},{"rt":2006,"stimulus":"\n                <p>Student 7's first guess for coin weight: <b style=\"color:Tomato\";>0.78</b></p>\n                <p>Student 7's second guess for coin weight: <b style=\"color:Tomato\";>0.76</b></p>\n                <p>You received a bonus of <b>$0.35</b> based on the student's second guess.</p>\n                <p>Total bonus so far: <b>$1.17</b></p>\n                <p>Press any key to continue.</p>\n                ","response":" ","trial_type":"html-keyboard-response","trial_index":74,"time_elapsed":1025377,"internal_node_id":"0.0-58.0","params":{"nStudents":24,"maxFlips":30,"completionMinutes":45,"basePay":8,"maxBonus":9,"perTrialBonus":0.5,"perTrialBonusThreshold":0.05,"exampleCost":0.01},"classroomParams":{"A":{"a":1,"b":4},"B":{"a":4,"b":1},"C":{"a":2,"b":8},"D":{"a":8,"b":2}},"conditions":["nonSeqFull","nonSeqPartial","seqNoFeedback","seqFeedback"],"classroomPairings":[["A","B"],["C","D"]],"coinWeights":[0.2,0.5,0.8],"subjectId":"A1USR9JCAMDGM3","assignmentId":"3IUZPWIU1PT6Z7P0VF7LF7DN35PKWL","hitId":"3JGHED38EDDK7DFM0KVY7GXU94LY7W","url":"https://gershmanlab.com/experiments/alicia/teaching/experiment/?hitId=3JGHED38EDDK7DFM0KVY7GXU94LY7W&workerId=A1USR9JCAMDGM3&assignmentId=3IUZPWIU1PT6Z7P0VF7LF7DN35PKWL&a=UPUI9&tp_a=UPUI9&b=3IUZPWIU1PT6Z7P0VF7LF7DN35PKWL&tp_b=3IUZPWIU1PT6Z7P0VF7LF7DN35PKWL&c=365799&tp_c=365799"},{"rt":null,"stimulus":"<div style=\"font-size:60px;\">Next student</div>","response":null,"trial_type":"html-keyboard-response","trial_index":75,"time_elapsed":1028393,"internal_node_id":"0.0-59.0-0.0","params":{"nStudents":24,"maxFlips":30,"completionMinutes":45,"basePay":8,"maxBonus":9,"perTrialBonus":0.5,"perTrialBonusThreshold":0.05,"exampleCost":0.01},"classroomParams":{"A":{"a":1,"b":4},"B":{"a":4,"b":1},"C":{"a":2,"b":8},"D":{"a":8,"b":2}},"conditions":["nonSeqFull","nonSeqPartial","seqNoFeedback","seqFeedback"],"classroomPairings":[["A","B"],["C","D"]],"coinWeights":[0.2,0.5,0.8],"subjectId":"A1USR9JCAMDGM3","assignmentId":"3IUZPWIU1PT6Z7P0VF7LF7DN35PKWL","hitId":"3JGHED38EDDK7DFM0KVY7GXU94LY7W","url":"https://gershmanlab.com/experiments/alicia/teaching/experiment/?hitId=3JGHED38EDDK7DFM0KVY7GXU94LY7W&workerId=A1USR9JCAMDGM3&assignmentId=3IUZPWIU1PT6Z7P0VF7LF7DN35PKWL&a=UPUI9&tp_a=UPUI9&b=3IUZPWIU1PT6Z7P0VF7LF7DN35PKWL&tp_b=3IUZPWIU1PT6Z7P0VF7LF7DN35PKWL&c=365799&tp_c=365799"},{"rt":1475,"stimulus":"\n            <h4 style=\"color:Orange;\">Student 8</h4>\n            <h2>The weight of your coin is <b style=\"color:Tomato;\">0.2</b>.</h2>\n            <p>In this block, you will be giving <b>two</b> sets of examples to Student 8.</p>\n                <p>You will see the student's guess after the first set of examples. You will also receive feedback at the end of the block.</p>\n            <p>To earn the highest bonus, you will have to <b>take into consideration the student's guess</b> when you choose your second set of examples.</p>","response":0,"trial_type":"html-button-response","trial_index":76,"time_elapsed":1029869,"internal_node_id":"0.0-60.0","params":{"nStudents":24,"maxFlips":30,"completionMinutes":45,"basePay":8,"maxBonus":9,"perTrialBonus":0.5,"perTrialBonusThreshold":0.05,"exampleCost":0.01},"classroomParams":{"A":{"a":1,"b":4},"B":{"a":4,"b":1},"C":{"a":2,"b":8},"D":{"a":8,"b":2}},"conditions":["nonSeqFull","nonSeqPartial","seqNoFeedback","seqFeedback"],"classroomPairings":[["A","B"],["C","D"]],"coinWeights":[0.2,0.5,0.8],"subjectId":"A1USR9JCAMDGM3","assignmentId":"3IUZPWIU1PT6Z7P0VF7LF7DN35PKWL","hitId":"3JGHED38EDDK7DFM0KVY7GXU94LY7W","url":"https://gershmanlab.com/experiments/alicia/teaching/experiment/?hitId=3JGHED38EDDK7DFM0KVY7GXU94LY7W&workerId=A1USR9JCAMDGM3&assignmentId=3IUZPWIU1PT6Z7P0VF7LF7DN35PKWL&a=UPUI9&tp_a=UPUI9&b=3IUZPWIU1PT6Z7P0VF7LF7DN35PKWL&tp_b=3IUZPWIU1PT6Z7P0VF7LF7DN35PKWL&c=365799&tp_c=365799"},{"rt":8466,"response":{"heads":"1","tails":"2"},"type":"response","condition":"seqFeedback","trueTheta":0.2,"classrooms":["A","B"],"studentTrueClassroom":"B","exampleSet":"first","trial_type":"survey-html-form","trial_index":77,"time_elapsed":1038336,"internal_node_id":"0.0-61.0-0.0","params":{"nStudents":24,"maxFlips":30,"completionMinutes":45,"basePay":8,"maxBonus":9,"perTrialBonus":0.5,"perTrialBonusThreshold":0.05,"exampleCost":0.01},"classroomParams":{"A":{"a":1,"b":4},"B":{"a":4,"b":1},"C":{"a":2,"b":8},"D":{"a":8,"b":2}},"conditions":["nonSeqFull","nonSeqPartial","seqNoFeedback","seqFeedback"],"classroomPairings":[["A","B"],["C","D"]],"coinWeights":[0.2,0.5,0.8],"subjectId":"A1USR9JCAMDGM3","assignmentId":"3IUZPWIU1PT6Z7P0VF7LF7DN35PKWL","hitId":"3JGHED38EDDK7DFM0KVY7GXU94LY7W","url":"https://gershmanlab.com/experiments/alicia/teaching/experiment/?hitId=3JGHED38EDDK7DFM0KVY7GXU94LY7W&workerId=A1USR9JCAMDGM3&assignmentId=3IUZPWIU1PT6Z7P0VF7LF7DN35PKWL&a=UPUI9&tp_a=UPUI9&b=3IUZPWIU1PT6Z7P0VF7LF7DN35PKWL&tp_b=3IUZPWIU1PT6Z7P0VF7LF7DN35PKWL&c=365799&tp_c=365799","heads":1,"tails":2,"studentIndex":7,"studentTrueHypers":{"a":4,"b":1},"studentGuess":0.625,"delta":0.425,"totalExamples":3,"bonusSoFar":1.17},{"rt":null,"stimulus":"Sending examples to student... ","response":null,"trial_type":"html-keyboard-response","trial_index":78,"time_elapsed":1040095,"internal_node_id":"0.0-62.0","params":{"nStudents":24,"maxFlips":30,"completionMinutes":45,"basePay":8,"maxBonus":9,"perTrialBonus":0.5,"perTrialBonusThreshold":0.05,"exampleCost":0.01},"classroomParams":{"A":{"a":1,"b":4},"B":{"a":4,"b":1},"C":{"a":2,"b":8},"D":{"a":8,"b":2}},"conditions":["nonSeqFull","nonSeqPartial","seqNoFeedback","seqFeedback"],"classroomPairings":[["A","B"],["C","D"]],"coinWeights":[0.2,0.5,0.8],"subjectId":"A1USR9JCAMDGM3","assignmentId":"3IUZPWIU1PT6Z7P0VF7LF7DN35PKWL","hitId":"3JGHED38EDDK7DFM0KVY7GXU94LY7W","url":"https://gershmanlab.com/experiments/alicia/teaching/experiment/?hitId=3JGHED38EDDK7DFM0KVY7GXU94LY7W&workerId=A1USR9JCAMDGM3&assignmentId=3IUZPWIU1PT6Z7P0VF7LF7DN35PKWL&a=UPUI9&tp_a=UPUI9&b=3IUZPWIU1PT6Z7P0VF7LF7DN35PKWL&tp_b=3IUZPWIU1PT6Z7P0VF7LF7DN35PKWL&c=365799&tp_c=365799"},{"rt":null,"stimulus":"Examples sent to student! Waiting for student...","response":null,"trial_type":"html-keyboard-response","trial_index":79,"time_elapsed":1046105,"internal_node_id":"0.0-63.0","params":{"nStudents":24,"maxFlips":30,"completionMinutes":45,"basePay":8,"maxBonus":9,"perTrialBonus":0.5,"perTrialBonusThreshold":0.05,"exampleCost":0.01},"classroomParams":{"A":{"a":1,"b":4},"B":{"a":4,"b":1},"C":{"a":2,"b":8},"D":{"a":8,"b":2}},"conditions":["nonSeqFull","nonSeqPartial","seqNoFeedback","seqFeedback"],"classroomPairings":[["A","B"],["C","D"]],"coinWeights":[0.2,0.5,0.8],"subjectId":"A1USR9JCAMDGM3","assignmentId":"3IUZPWIU1PT6Z7P0VF7LF7DN35PKWL","hitId":"3JGHED38EDDK7DFM0KVY7GXU94LY7W","url":"https://gershmanlab.com/experiments/alicia/teaching/experiment/?hitId=3JGHED38EDDK7DFM0KVY7GXU94LY7W&workerId=A1USR9JCAMDGM3&assignmentId=3IUZPWIU1PT6Z7P0VF7LF7DN35PKWL&a=UPUI9&tp_a=UPUI9&b=3IUZPWIU1PT6Z7P0VF7LF7DN35PKWL&tp_b=3IUZPWIU1PT6Z7P0VF7LF7DN35PKWL&c=365799&tp_c=365799"},{"rt":2448,"stimulus":"\n                <p>Student's guess for coin weight: <b style=\"color:Tomato;\">0.63</b></p>\n                <p></b></p>\n                <p>You will now send another set of examples to your student. <b>Remember to take your student's guess into consideration so that you can earn the highest bonus possible!</b> </p>\n                <p>Press any key to continue.</p>\n                ","response":"m","trial_type":"html-keyboard-response","trial_index":80,"time_elapsed":1048556,"internal_node_id":"0.0-64.0","params":{"nStudents":24,"maxFlips":30,"completionMinutes":45,"basePay":8,"maxBonus":9,"perTrialBonus":0.5,"perTrialBonusThreshold":0.05,"exampleCost":0.01},"classroomParams":{"A":{"a":1,"b":4},"B":{"a":4,"b":1},"C":{"a":2,"b":8},"D":{"a":8,"b":2}},"conditions":["nonSeqFull","nonSeqPartial","seqNoFeedback","seqFeedback"],"classroomPairings":[["A","B"],["C","D"]],"coinWeights":[0.2,0.5,0.8],"subjectId":"A1USR9JCAMDGM3","assignmentId":"3IUZPWIU1PT6Z7P0VF7LF7DN35PKWL","hitId":"3JGHED38EDDK7DFM0KVY7GXU94LY7W","url":"https://gershmanlab.com/experiments/alicia/teaching/experiment/?hitId=3JGHED38EDDK7DFM0KVY7GXU94LY7W&workerId=A1USR9JCAMDGM3&assignmentId=3IUZPWIU1PT6Z7P0VF7LF7DN35PKWL&a=UPUI9&tp_a=UPUI9&b=3IUZPWIU1PT6Z7P0VF7LF7DN35PKWL&tp_b=3IUZPWIU1PT6Z7P0VF7LF7DN35PKWL&c=365799&tp_c=365799"},{"rt":7950,"response":{"heads":"1","tails":"7"},"type":"response","condition":"seqFeedback","trueTheta":0.2,"classrooms":["A","B"],"studentTrueClassroom":"B","exampleSet":"second","trial_type":"survey-html-form","trial_index":81,"time_elapsed":1056509,"internal_node_id":"0.0-65.0-0.0","params":{"nStudents":24,"maxFlips":30,"completionMinutes":45,"basePay":8,"maxBonus":9,"perTrialBonus":0.5,"perTrialBonusThreshold":0.05,"exampleCost":0.01},"classroomParams":{"A":{"a":1,"b":4},"B":{"a":4,"b":1},"C":{"a":2,"b":8},"D":{"a":8,"b":2}},"conditions":["nonSeqFull","nonSeqPartial","seqNoFeedback","seqFeedback"],"classroomPairings":[["A","B"],["C","D"]],"coinWeights":[0.2,0.5,0.8],"subjectId":"A1USR9JCAMDGM3","assignmentId":"3IUZPWIU1PT6Z7P0VF7LF7DN35PKWL","hitId":"3JGHED38EDDK7DFM0KVY7GXU94LY7W","url":"https://gershmanlab.com/experiments/alicia/teaching/experiment/?hitId=3JGHED38EDDK7DFM0KVY7GXU94LY7W&workerId=A1USR9JCAMDGM3&assignmentId=3IUZPWIU1PT6Z7P0VF7LF7DN35PKWL&a=UPUI9&tp_a=UPUI9&b=3IUZPWIU1PT6Z7P0VF7LF7DN35PKWL&tp_b=3IUZPWIU1PT6Z7P0VF7LF7DN35PKWL&c=365799&tp_c=365799","firstResponseHeads":1,"firstResponseTails":2,"secondResponseHeads":1,"secondResponseTails":7,"totalHeads":2,"totalTails":9,"studentIndex":7,"studentTrueHypers":{"a":4,"b":1},"studentGuess":0.375,"delta":0.175,"bonus":0,"bonusSoFar":1.17,"totalExamples":11},{"rt":null,"stimulus":"Sending examples to student... ","response":null,"trial_type":"html-keyboard-response","trial_index":82,"time_elapsed":1058021,"internal_node_id":"0.0-66.0","params":{"nStudents":24,"maxFlips":30,"completionMinutes":45,"basePay":8,"maxBonus":9,"perTrialBonus":0.5,"perTrialBonusThreshold":0.05,"exampleCost":0.01},"classroomParams":{"A":{"a":1,"b":4},"B":{"a":4,"b":1},"C":{"a":2,"b":8},"D":{"a":8,"b":2}},"conditions":["nonSeqFull","nonSeqPartial","seqNoFeedback","seqFeedback"],"classroomPairings":[["A","B"],["C","D"]],"coinWeights":[0.2,0.5,0.8],"subjectId":"A1USR9JCAMDGM3","assignmentId":"3IUZPWIU1PT6Z7P0VF7LF7DN35PKWL","hitId":"3JGHED38EDDK7DFM0KVY7GXU94LY7W","url":"https://gershmanlab.com/experiments/alicia/teaching/experiment/?hitId=3JGHED38EDDK7DFM0KVY7GXU94LY7W&workerId=A1USR9JCAMDGM3&assignmentId=3IUZPWIU1PT6Z7P0VF7LF7DN35PKWL&a=UPUI9&tp_a=UPUI9&b=3IUZPWIU1PT6Z7P0VF7LF7DN35PKWL&tp_b=3IUZPWIU1PT6Z7P0VF7LF7DN35PKWL&c=365799&tp_c=365799"},{"rt":null,"stimulus":"Examples sent to student! Waiting for student...","response":null,"trial_type":"html-keyboard-response","trial_index":83,"time_elapsed":1063028,"internal_node_id":"0.0-67.0","params":{"nStudents":24,"maxFlips":30,"completionMinutes":45,"basePay":8,"maxBonus":9,"perTrialBonus":0.5,"perTrialBonusThreshold":0.05,"exampleCost":0.01},"classroomParams":{"A":{"a":1,"b":4},"B":{"a":4,"b":1},"C":{"a":2,"b":8},"D":{"a":8,"b":2}},"conditions":["nonSeqFull","nonSeqPartial","seqNoFeedback","seqFeedback"],"classroomPairings":[["A","B"],["C","D"]],"coinWeights":[0.2,0.5,0.8],"subjectId":"A1USR9JCAMDGM3","assignmentId":"3IUZPWIU1PT6Z7P0VF7LF7DN35PKWL","hitId":"3JGHED38EDDK7DFM0KVY7GXU94LY7W","url":"https://gershmanlab.com/experiments/alicia/teaching/experiment/?hitId=3JGHED38EDDK7DFM0KVY7GXU94LY7W&workerId=A1USR9JCAMDGM3&assignmentId=3IUZPWIU1PT6Z7P0VF7LF7DN35PKWL&a=UPUI9&tp_a=UPUI9&b=3IUZPWIU1PT6Z7P0VF7LF7DN35PKWL&tp_b=3IUZPWIU1PT6Z7P0VF7LF7DN35PKWL&c=365799&tp_c=365799"},{"rt":3350,"stimulus":"\n                <p>Student 8's first guess for coin weight: <b style=\"color:Tomato\";>0.63</b></p>\n                <p>Student 8's second guess for coin weight: <b st