[{"rt":15297,"stimulus":"Welcome to the experiment. Press any key to begin.","response":" ","trial_type":"html-keyboard-response","trial_index":0,"time_elapsed":15314,"internal_node_id":"0.0-0.0","params":{"nStudents":24,"maxFlips":30,"completionMinutes":45,"basePay":8,"maxBonus":9,"perTrialBonus":0.5,"perTrialBonusThreshold":0.05,"exampleCost":0.01},"classroomParams":{"A":{"a":1,"b":4},"B":{"a":4,"b":1},"C":{"a":2,"b":8},"D":{"a":8,"b":2}},"conditions":["nonSeqFull","nonSeqPartial","seqNoFeedback","seqFeedback"],"classroomPairings":[["A","B"],["C","D"]],"coinWeights":[0.2,0.5,0.8],"subjectId":"A1W7I6FN183I8F","assignmentId":"39LOEL67OTRPD8LBC6ZGK5TZADV83G","hitId":"3E9VAUV7BW02QFDK7N7IH7ZKACRYAN","url":"https://gershmanlab.com/experiments/alicia/teaching/experiment/?hitId=3E9VAUV7BW02QFDK7N7IH7ZKACRYAN&workerId=A1W7I6FN183I8F&assignmentId=39LOEL67OTRPD8LBC6ZGK5TZADV83G&a=7EL99&tp_a=7EL99&b=39LOEL67OTRPD8LBC6ZGK5TZADV83G&tp_b=39LOEL67OTRPD8LBC6ZGK5TZADV83G&c=365799&tp_c=365799"},{"rt":3654,"stimulus":"\n        <h3>Please read this consent agreement carefully before deciding whether to participate in this experiment.</h3>\n        <p><b>Purpose of the research:</b> To examine how people teach effectively.</p>\n        <p><b>What you will do in this research:</b> You will teach students the weights of different coins.</p>\n        <p><b>Time required:</b> This experiment will take 45 minutes to complete.</p>\n        <p><b>Risks:</b> There are no anticipated risks associated with participating in this study.             The effects of participating should be comparable to those you would experience from viewing a computer monitor             and using a mouse and keyboard for the duration of the experiment.</p>\n        <p><b>Benefits:</b> The study provides important information about the nature of teaching.</p>\n        <p><b>Compensation:</b> You will receive <b>$8</b> for completing the experiment and a performance bonus of up to <b>$9</b>.</p>\n        <p><b>Confidentiality:</b> Your participation in this study will remain confidential.             No personally identifiable information will be associated with your data.             Your de-identified data may be shared with other researchers and used in future projects.</p>\n        <p><b>Participation and withdrawal:</b> Your participation in this study is completely voluntary and             you may refuse to participate or you may choose to withdraw at any time without penalty or loss of\n            benefits to which you are otherwise entitled.</p>\n        <p><b>How to contact the researcher:</b> If you have questions or concerns about your participation            or payment, or want to request a summary of research findings, please contact\n            Alicia Chen, aliciachen@college.harvard.edu.</p>\n        <p><b>Whom to contact about your rights in this research:</b> For questions, concerns, suggestions,             or complaints that have not been or cannot be addressed by the researcher, or to report             research-related harm, please contact the Committee on the Use of Human Subjects in Research at Harvard University,             1414 Massachusetts Avenue, Second Floor, Cambridge, MA 02138. Phone: 617-496-2847. Email: cuhs@fas.harvard.edu.</p>\n        ","response":0,"trial_type":"html-button-response","trial_index":1,"time_elapsed":18974,"internal_node_id":"0.0-1.0","params":{"nStudents":24,"maxFlips":30,"completionMinutes":45,"basePay":8,"maxBonus":9,"perTrialBonus":0.5,"perTrialBonusThreshold":0.05,"exampleCost":0.01},"classroomParams":{"A":{"a":1,"b":4},"B":{"a":4,"b":1},"C":{"a":2,"b":8},"D":{"a":8,"b":2}},"conditions":["nonSeqFull","nonSeqPartial","seqNoFeedback","seqFeedback"],"classroomPairings":[["A","B"],["C","D"]],"coinWeights":[0.2,0.5,0.8],"subjectId":"A1W7I6FN183I8F","assignmentId":"39LOEL67OTRPD8LBC6ZGK5TZADV83G","hitId":"3E9VAUV7BW02QFDK7N7IH7ZKACRYAN","url":"https://gershmanlab.com/experiments/alicia/teaching/experiment/?hitId=3E9VAUV7BW02QFDK7N7IH7ZKACRYAN&workerId=A1W7I6FN183I8F&assignmentId=39LOEL67OTRPD8LBC6ZGK5TZADV83G&a=7EL99&tp_a=7EL99&b=39LOEL67OTRPD8LBC6ZGK5TZADV83G&tp_b=39LOEL67OTRPD8LBC6ZGK5TZADV83G&c=365799&tp_c=365799"},{"view_history":[{"page_index":0,"viewing_time":5135},{"page_index":1,"viewing_time":12896},{"page_index":2,"viewing_time":36761},{"page_index":3,"viewing_time":29528},{"page_index":4,"viewing_time":22257},{"page_index":5,"viewing_time":20855},{"page_index":6,"viewing_time":37473}],"rt":164905,"trial_type":"instructions","trial_index":2,"time_elapsed":183881,"internal_node_id":"0.0-2.0-0.0","params":{"nStudents":24,"maxFlips":30,"completionMinutes":45,"basePay":8,"maxBonus":9,"perTrialBonus":0.5,"perTrialBonusThreshold":0.05,"exampleCost":0.01},"classroomParams":{"A":{"a":1,"b":4},"B":{"a":4,"b":1},"C":{"a":2,"b":8},"D":{"a":8,"b":2}},"conditions":["nonSeqFull","nonSeqPartial","seqNoFeedback","seqFeedback"],"classroomPairings":[["A","B"],["C","D"]],"coinWeights":[0.2,0.5,0.8],"subjectId":"A1W7I6FN183I8F","assignmentId":"39LOEL67OTRPD8LBC6ZGK5TZADV83G","hitId":"3E9VAUV7BW02QFDK7N7IH7ZKACRYAN","url":"https://gershmanlab.com/experiments/alicia/teaching/experiment/?hitId=3E9VAUV7BW02QFDK7N7IH7ZKACRYAN&workerId=A1W7I6FN183I8F&assignmentId=39LOEL67OTRPD8LBC6ZGK5TZADV83G&a=7EL99&tp_a=7EL99&b=39LOEL67OTRPD8LBC6ZGK5TZADV83G&tp_b=39LOEL67OTRPD8LBC6ZGK5TZADV83G&c=365799&tp_c=365799"},{"rt":454230,"response":{"Q0":"Students in different classrooms will have seen a different number of heads and tails before seeing the examples you select for them.","Q1":"By <b>considering the student's classroom information</b> so that I can teach efficiently and accurately/helpfully at the same time (because each example I give to the student costs money!).","Q2":"The coin lands heads 90% of the time.","Q3":"Yes, I might encounter the same student twice.","Q4":"The students are also on the same alien planet as you, where coins can be unfair.","Q5":"Based on the student's second (and final) guess."},"question_order":[2,4,0,3,1,5],"trial_type":"survey-multi-choice","trial_index":3,"time_elapsed":638121,"internal_node_id":"0.0-2.0-1.0","params":{"nStudents":24,"maxFlips":30,"completionMinutes":45,"basePay":8,"maxBonus":9,"perTrialBonus":0.5,"perTrialBonusThreshold":0.05,"exampleCost":0.01},"classroomParams":{"A":{"a":1,"b":4},"B":{"a":4,"b":1},"C":{"a":2,"b":8},"D":{"a":8,"b":2}},"conditions":["nonSeqFull","nonSeqPartial","seqNoFeedback","seqFeedback"],"classroomPairings":[["A","B"],["C","D"]],"coinWeights":[0.2,0.5,0.8],"subjectId":"A1W7I6FN183I8F","assignmentId":"39LOEL67OTRPD8LBC6ZGK5TZADV83G","hitId":"3E9VAUV7BW02QFDK7N7IH7ZKACRYAN","url":"https://gershmanlab.com/experiments/alicia/teaching/experiment/?hitId=3E9VAUV7BW02QFDK7N7IH7ZKACRYAN&workerId=A1W7I6FN183I8F&assignmentId=39LOEL67OTRPD8LBC6ZGK5TZADV83G&a=7EL99&tp_a=7EL99&b=39LOEL67OTRPD8LBC6ZGK5TZADV83G&tp_b=39LOEL67OTRPD8LBC6ZGK5TZADV83G&c=365799&tp_c=365799","pass":false},{"rt":2905,"stimulus":"Oops, you have missed question(s) on the comprehension check! We'll show you the instructions again.","response":0,"trial_type":"html-button-response","trial_index":4,"time_elapsed":641038,"internal_node_id":"0.0-2.0-2.0-0.0","params":{"nStudents":24,"maxFlips":30,"completionMinutes":45,"basePay":8,"maxBonus":9,"perTrialBonus":0.5,"perTrialBonusThreshold":0.05,"exampleCost":0.01},"classroomParams":{"A":{"a":1,"b":4},"B":{"a":4,"b":1},"C":{"a":2,"b":8},"D":{"a":8,"b":2}},"conditions":["nonSeqFull","nonSeqPartial","seqNoFeedback","seqFeedback"],"classroomPairings":[["A","B"],["C","D"]],"coinWeights":[0.2,0.5,0.8],"subjectId":"A1W7I6FN183I8F","assignmentId":"39LOEL67OTRPD8LBC6ZGK5TZADV83G","hitId":"3E9VAUV7BW02QFDK7N7IH7ZKACRYAN","url":"https://gershmanlab.com/experiments/alicia/teaching/experiment/?hitId=3E9VAUV7BW02QFDK7N7IH7ZKACRYAN&workerId=A1W7I6FN183I8F&assignmentId=39LOEL67OTRPD8LBC6ZGK5TZADV83G&a=7EL99&tp_a=7EL99&b=39LOEL67OTRPD8LBC6ZGK5TZADV83G&tp_b=39LOEL67OTRPD8LBC6ZGK5TZADV83G&c=365799&tp_c=365799"},{"view_history":[{"page_index":0,"viewing_time":2476},{"page_index":1,"viewing_time":481},{"page_index":2,"viewing_time":1040},{"page_index":3,"viewing_time":696},{"page_index":4,"viewing_time":13664},{"page_index":3,"viewing_time":1608},{"page_index":2,"viewing_time":1096},{"page_index":1,"viewing_time":1384},{"page_index":2,"viewing_time":5936},{"page_index":3,"viewing_time":3552},{"page_index":4,"viewing_time":3736},{"page_index":5,"viewing_time":2103},{"page_index":6,"viewing_time":2712}],"rt":40485,"trial_type":"instructions","trial_index":5,"time_elapsed":681524,"internal_node_id":"0.0-2.1-0.1","params":{"nStudents":24,"maxFlips":30,"completionMinutes":45,"basePay":8,"maxBonus":9,"perTrialBonus":0.5,"perTrialBonusThreshold":0.05,"exampleCost":0.01},"classroomParams":{"A":{"a":1,"b":4},"B":{"a":4,"b":1},"C":{"a":2,"b":8},"D":{"a":8,"b":2}},"conditions":["nonSeqFull","nonSeqPartial","seqNoFeedback","seqFeedback"],"classroomPairings":[["A","B"],["C","D"]],"coinWeights":[0.2,0.5,0.8],"subjectId":"A1W7I6FN183I8F","assignmentId":"39LOEL67OTRPD8LBC6ZGK5TZADV83G","hitId":"3E9VAUV7BW02QFDK7N7IH7ZKACRYAN","url":"https://gershmanlab.com/experiments/alicia/teaching/experiment/?hitId=3E9VAUV7BW02QFDK7N7IH7ZKACRYAN&workerId=A1W7I6FN183I8F&assignmentId=39LOEL67OTRPD8LBC6ZGK5TZADV83G&a=7EL99&tp_a=7EL99&b=39LOEL67OTRPD8LBC6ZGK5TZADV83G&tp_b=39LOEL67OTRPD8LBC6ZGK5TZADV83G&c=365799&tp_c=365799"},{"rt":149303,"response":{"Q0":"Students in different classrooms have seen a different proportion of fair and unfair coins before seeing the examples you select for them.","Q1":"By <b>considering the student's classroom information</b> so that I can teach efficiently and accurately/helpfully at the same time (because each example I give to the student costs money!).","Q2":"The coin lands heads 90% of the time.","Q3":"Yes, I might encounter the same student twice.","Q4":"The students are also on the same alien planet as you, where coins can be unfair.","Q5":"Based on the student's second (and final) guess."},"question_order":[1,2,3,4,0,5],"trial_type":"survey-multi-choice","trial_index":6,"time_elapsed":830829,"internal_node_id":"0.0-2.1-1.1","params":{"nStudents":24,"maxFlips":30,"completionMinutes":45,"basePay":8,"maxBonus":9,"perTrialBonus":0.5,"perTrialBonusThreshold":0.05,"exampleCost":0.01},"classroomParams":{"A":{"a":1,"b":4},"B":{"a":4,"b":1},"C":{"a":2,"b":8},"D":{"a":8,"b":2}},"conditions":["nonSeqFull","nonSeqPartial","seqNoFeedback","seqFeedback"],"classroomPairings":[["A","B"],["C","D"]],"coinWeights":[0.2,0.5,0.8],"subjectId":"A1W7I6FN183I8F","assignmentId":"39LOEL67OTRPD8LBC6ZGK5TZADV83G","hitId":"3E9VAUV7BW02QFDK7N7IH7ZKACRYAN","url":"https://gershmanlab.com/experiments/alicia/teaching/experiment/?hitId=3E9VAUV7BW02QFDK7N7IH7ZKACRYAN&workerId=A1W7I6FN183I8F&assignmentId=39LOEL67OTRPD8LBC6ZGK5TZADV83G&a=7EL99&tp_a=7EL99&b=39LOEL67OTRPD8LBC6ZGK5TZADV83G&tp_b=39LOEL67OTRPD8LBC6ZGK5TZADV83G&c=365799&tp_c=365799","pass":false},{"rt":1477,"stimulus":"Oops, you have missed question(s) on the comprehension check! We'll show you the instructions again.","response":0,"trial_type":"html-button-response","trial_index":7,"time_elapsed":832310,"internal_node_id":"0.0-2.1-2.1-0.1","params":{"nStudents":24,"maxFlips":30,"completionMinutes":45,"basePay":8,"maxBonus":9,"perTrialBonus":0.5,"perTrialBonusThreshold":0.05,"exampleCost":0.01},"classroomParams":{"A":{"a":1,"b":4},"B":{"a":4,"b":1},"C":{"a":2,"b":8},"D":{"a":8,"b":2}},"conditions":["nonSeqFull","nonSeqPartial","seqNoFeedback","seqFeedback"],"classroomPairings":[["A","B"],["C","D"]],"coinWeights":[0.2,0.5,0.8],"subjectId":"A1W7I6FN183I8F","assignmentId":"39LOEL67OTRPD8LBC6ZGK5TZADV83G","hitId":"3E9VAUV7BW02QFDK7N7IH7ZKACRYAN","url":"https://gershmanlab.com/experiments/alicia/teaching/experiment/?hitId=3E9VAUV7BW02QFDK7N7IH7ZKACRYAN&workerId=A1W7I6FN183I8F&assignmentId=39LOEL67OTRPD8LBC6ZGK5TZADV83G&a=7EL99&tp_a=7EL99&b=39LOEL67OTRPD8LBC6ZGK5TZADV83G&tp_b=39LOEL67OTRPD8LBC6ZGK5TZADV83G&c=365799&tp_c=365799"},{"view_history":[{"page_index":0,"viewing_time":605},{"page_index":1,"viewing_time":256},{"page_index":2,"viewing_time":657},{"page_index":3,"viewing_time":473},{"page_index":4,"viewing_time":639},{"page_index":5,"viewing_time":1383},{"page_index":6,"viewing_time":488}],"rt":4501,"trial_type":"instructions","trial_index":8,"time_elapsed":836813,"internal_node_id":"0.0-2.2-0.2","params":{"nStudents":24,"maxFlips":30,"completionMinutes":45,"basePay":8,"maxBonus":9,"perTrialBonus":0.5,"perTrialBonusThreshold":0.05,"exampleCost":0.01},"classroomParams":{"A":{"a":1,"b":4},"B":{"a":4,"b":1},"C":{"a":2,"b":8},"D":{"a":8,"b":2}},"conditions":["nonSeqFull","nonSeqPartial","seqNoFeedback","seqFeedback"],"classroomPairings":[["A","B"],["C","D"]],"coinWeights":[0.2,0.5,0.8],"subjectId":"A1W7I6FN183I8F","assignmentId":"39LOEL67OTRPD8LBC6ZGK5TZADV83G","hitId":"3E9VAUV7BW02QFDK7N7IH7ZKACRYAN","url":"https://gershmanlab.com/experiments/alicia/teaching/experiment/?hitId=3E9VAUV7BW02QFDK7N7IH7ZKACRYAN&workerId=A1W7I6FN183I8F&assignmentId=39LOEL67OTRPD8LBC6ZGK5TZADV83G&a=7EL99&tp_a=7EL99&b=39LOEL67OTRPD8LBC6ZGK5TZADV83G&tp_b=39LOEL67OTRPD8LBC6ZGK5TZADV83G&c=365799&tp_c=365799"},{"rt":24607,"response":{"Q0":"Students in different classrooms will have seen a different number of heads and tails before seeing the examples you select for them.","Q1":"By <b>considering the student's classroom information</b> so that I can teach efficiently and accurately/helpfully at the same time (because each example I give to the student costs money!).","Q2":"The coin lands heads 90% of the time.","Q3":"No, I will teach a <b>new</b> student each time.","Q4":"The students are also on the same alien planet as you, where coins can be unfair.","Q5":"Based on the student's second (and final) guess."},"question_order":[1,4,0,2,5,3],"trial_type":"survey-multi-choice","trial_index":9,"time_elapsed":861421,"internal_node_id":"0.0-2.2-1.2","params":{"nStudents":24,"maxFlips":30,"completionMinutes":45,"basePay":8,"maxBonus":9,"perTrialBonus":0.5,"perTrialBonusThreshold":0.05,"exampleCost":0.01},"classroomParams":{"A":{"a":1,"b":4},"B":{"a":4,"b":1},"C":{"a":2,"b":8},"D":{"a":8,"b":2}},"conditions":["nonSeqFull","nonSeqPartial","seqNoFeedback","seqFeedback"],"classroomPairings":[["A","B"],["C","D"]],"coinWeights":[0.2,0.5,0.8],"subjectId":"A1W7I6FN183I8F","assignmentId":"39LOEL67OTRPD8LBC6ZGK5TZADV83G","hitId":"3E9VAUV7BW02QFDK7N7IH7ZKACRYAN","url":"https://gershmanlab.com/experiments/alicia/teaching/experiment/?hitId=3E9VAUV7BW02QFDK7N7IH7ZKACRYAN&workerId=A1W7I6FN183I8F&assignmentId=39LOEL67OTRPD8LBC6ZGK5TZADV83G&a=7EL99&tp_a=7EL99&b=39LOEL67OTRPD8LBC6ZGK5TZADV83G&tp_b=39LOEL67OTRPD8LBC6ZGK5TZADV83G&c=365799&tp_c=365799","pass":true},{"rt":null,"stimulus":"<div style=\"font-size:30px;\">Congrats on passing the comprehension quiz! The experiment will begin in a few seconds.</div>","response":null,"trial_type":"html-keyboard-response","trial_index":10,"time_elapsed":864426,"internal_node_id":"0.0-3.0","params":{"nStudents":24,"maxFlips":30,"completionMinutes":45,"basePay":8,"maxBonus":9,"perTrialBonus":0.5,"perTrialBonusThreshold":0.05,"exampleCost":0.01},"classroomParams":{"A":{"a":1,"b":4},"B":{"a":4,"b":1},"C":{"a":2,"b":8},"D":{"a":8,"b":2}},"conditions":["nonSeqFull","nonSeqPartial","seqNoFeedback","seqFeedback"],"classroomPairings":[["A","B"],["C","D"]],"coinWeights":[0.2,0.5,0.8],"subjectId":"A1W7I6FN183I8F","assignmentId":"39LOEL67OTRPD8LBC6ZGK5TZADV83G","hitId":"3E9VAUV7BW02QFDK7N7IH7ZKACRYAN","url":"https://gershmanlab.com/experiments/alicia/teaching/experiment/?hitId=3E9VAUV7BW02QFDK7N7IH7ZKACRYAN&workerId=A1W7I6FN183I8F&assignmentId=39LOEL67OTRPD8LBC6ZGK5TZADV83G&a=7EL99&tp_a=7EL99&b=39LOEL67OTRPD8LBC6ZGK5TZADV83G&tp_b=39LOEL67OTRPD8LBC6ZGK5TZADV83G&c=365799&tp_c=365799"},{"rt":null,"stimulus":"<div style=\"font-size:50px;\">First student</div>","response":null,"trial_type":"html-keyboard-response","trial_index":11,"time_elapsed":867435,"internal_node_id":"0.0-4.0","params":{"nStudents":24,"maxFlips":30,"completionMinutes":45,"basePay":8,"maxBonus":9,"perTrialBonus":0.5,"perTrialBonusThreshold":0.05,"exampleCost":0.01},"classroomParams":{"A":{"a":1,"b":4},"B":{"a":4,"b":1},"C":{"a":2,"b":8},"D":{"a":8,"b":2}},"conditions":["nonSeqFull","nonSeqPartial","seqNoFeedback","seqFeedback"],"classroomPairings":[["A","B"],["C","D"]],"coinWeights":[0.2,0.5,0.8],"subjectId":"A1W7I6FN183I8F","assignmentId":"39LOEL67OTRPD8LBC6ZGK5TZADV83G","hitId":"3E9VAUV7BW02QFDK7N7IH7ZKACRYAN","url":"https://gershmanlab.com/experiments/alicia/teaching/experiment/?hitId=3E9VAUV7BW02QFDK7N7IH7ZKACRYAN&workerId=A1W7I6FN183I8F&assignmentId=39LOEL67OTRPD8LBC6ZGK5TZADV83G&a=7EL99&tp_a=7EL99&b=39LOEL67OTRPD8LBC6ZGK5TZADV83G&tp_b=39LOEL67OTRPD8LBC6ZGK5TZADV83G&c=365799&tp_c=365799"},{"rt":8890,"stimulus":"\n            <h4 style=\"color:Orange;\">Student 1</h4>\n            <h2>The weight of your coin is <b style=\"color:Tomato;\">0.2</b>.</h2>\n            <p>In this block, you will be giving <b>one</b> set of examples to Student 1.</p>\n                <p>You will receive feedback at the end of the block.</p>\n            <p></p>","response":0,"trial_type":"html-button-response","trial_index":12,"time_elapsed":876326,"internal_node_id":"0.0-5.0","params":{"nStudents":24,"maxFlips":30,"completionMinutes":45,"basePay":8,"maxBonus":9,"perTrialBonus":0.5,"perTrialBonusThreshold":0.05,"exampleCost":0.01},"classroomParams":{"A":{"a":1,"b":4},"B":{"a":4,"b":1},"C":{"a":2,"b":8},"D":{"a":8,"b":2}},"conditions":["nonSeqFull","nonSeqPartial","seqNoFeedback","seqFeedback"],"classroomPairings":[["A","B"],["C","D"]],"coinWeights":[0.2,0.5,0.8],"subjectId":"A1W7I6FN183I8F","assignmentId":"39LOEL67OTRPD8LBC6ZGK5TZADV83G","hitId":"3E9VAUV7BW02QFDK7N7IH7ZKACRYAN","url":"https://gershmanlab.com/experiments/alicia/teaching/experiment/?hitId=3E9VAUV7BW02QFDK7N7IH7ZKACRYAN&workerId=A1W7I6FN183I8F&assignmentId=39LOEL67OTRPD8LBC6ZGK5TZADV83G&a=7EL99&tp_a=7EL99&b=39LOEL67OTRPD8LBC6ZGK5TZADV83G&tp_b=39LOEL67OTRPD8LBC6ZGK5TZADV83G&c=365799&tp_c=365799"},{"rt":57254,"response":{"heads":"1","tails":"2"},"type":"response","condition":"nonSeqPartial","trueTheta":0.2,"classrooms":["A","B"],"studentTrueClassroom":"B","exampleSet":"first","trial_type":"survey-html-form","trial_index":13,"time_elapsed":933584,"internal_node_id":"0.0-6.0-0.0","params":{"nStudents":24,"maxFlips":30,"completionMinutes":45,"basePay":8,"maxBonus":9,"perTrialBonus":0.5,"perTrialBonusThreshold":0.05,"exampleCost":0.01},"classroomParams":{"A":{"a":1,"b":4},"B":{"a":4,"b":1},"C":{"a":2,"b":8},"D":{"a":8,"b":2}},"conditions":["nonSeqFull","nonSeqPartial","seqNoFeedback","seqFeedback"],"classroomPairings":[["A","B"],["C","D"]],"coinWeights":[0.2,0.5,0.8],"subjectId":"A1W7I6FN183I8F","assignmentId":"39LOEL67OTRPD8LBC6ZGK5TZADV83G","hitId":"3E9VAUV7BW02QFDK7N7IH7ZKACRYAN","url":"https://gershmanlab.com/experiments/alicia/teaching/experiment/?hitId=3E9VAUV7BW02QFDK7N7IH7ZKACRYAN&workerId=A1W7I6FN183I8F&assignmentId=39LOEL67OTRPD8LBC6ZGK5TZADV83G&a=7EL99&tp_a=7EL99&b=39LOEL67OTRPD8LBC6ZGK5TZADV83G&tp_b=39LOEL67OTRPD8LBC6ZGK5TZADV83G&c=365799&tp_c=365799","heads":1,"tails":2,"studentIndex":0,"studentTrueHypers":{"a":4,"b":1},"studentGuess":0.625,"delta":0.425,"totalExamples":3,"bonus":0,"bonusSoFar":0},{"rt":null,"stimulus":"Sending examples to student... ","response":null,"trial_type":"html-keyboard-response","trial_index":14,"time_elapsed":935590,"internal_node_id":"0.0-7.0","params":{"nStudents":24,"maxFlips":30,"completionMinutes":45,"basePay":8,"maxBonus":9,"perTrialBonus":0.5,"perTrialBonusThreshold":0.05,"exampleCost":0.01},"classroomParams":{"A":{"a":1,"b":4},"B":{"a":4,"b":1},"C":{"a":2,"b":8},"D":{"a":8,"b":2}},"conditions":["nonSeqFull","nonSeqPartial","seqNoFeedback","seqFeedback"],"classroomPairings":[["A","B"],["C","D"]],"coinWeights":[0.2,0.5,0.8],"subjectId":"A1W7I6FN183I8F","assignmentId":"39LOEL67OTRPD8LBC6ZGK5TZADV83G","hitId":"3E9VAUV7BW02QFDK7N7IH7ZKACRYAN","url":"https://gershmanlab.com/experiments/alicia/teaching/experiment/?hitId=3E9VAUV7BW02QFDK7N7IH7ZKACRYAN&workerId=A1W7I6FN183I8F&assignmentId=39LOEL67OTRPD8LBC6ZGK5TZADV83G&a=7EL99&tp_a=7EL99&b=39LOEL67OTRPD8LBC6ZGK5TZADV83G&tp_b=39LOEL67OTRPD8LBC6ZGK5TZADV83G&c=365799&tp_c=365799"},{"rt":null,"stimulus":"Examples sent to student! Waiting for student...","response":null,"trial_type":"html-keyboard-response","trial_index":15,"time_elapsed":940105,"internal_node_id":"0.0-8.0","params":{"nStudents":24,"maxFlips":30,"completionMinutes":45,"basePay":8,"maxBonus":9,"perTrialBonus":0.5,"perTrialBonusThreshold":0.05,"exampleCost":0.01},"classroomParams":{"A":{"a":1,"b":4},"B":{"a":4,"b":1},"C":{"a":2,"b":8},"D":{"a":8,"b":2}},"conditions":["nonSeqFull","nonSeqPartial","seqNoFeedback","seqFeedback"],"classroomPairings":[["A","B"],["C","D"]],"coinWeights":[0.2,0.5,0.8],"subjectId":"A1W7I6FN183I8F","assignmentId":"39LOEL67OTRPD8LBC6ZGK5TZADV83G","hitId":"3E9VAUV7BW02QFDK7N7IH7ZKACRYAN","url":"https://gershmanlab.com/experiments/alicia/teaching/experiment/?hitId=3E9VAUV7BW02QFDK7N7IH7ZKACRYAN&workerId=A1W7I6FN183I8F&assignmentId=39LOEL67OTRPD8LBC6ZGK5TZADV83G&a=7EL99&tp_a=7EL99&b=39LOEL67OTRPD8LBC6ZGK5TZADV83G&tp_b=39LOEL67OTRPD8LBC6ZGK5TZADV83G&c=365799&tp_c=365799"},{"rt":3526,"stimulus":"\n                <p>Student's guess for coin weight: <b style=\"color:Tomato;\">0.63</b></p>\n                <p>You received a bonus of <b>$0</b>. Total bonus so far: <b>$0.00</b></b></p>\n                <p></p>\n                <p>Press any key to continue.</p>\n                ","response":" ","trial_type":"html-keyboard-response","trial_index":16,"time_elapsed":943634,"internal_node_id":"0.0-9.0","params":{"nStudents":24,"maxFlips":30,"completionMinutes":45,"basePay":8,"maxBonus":9,"perTrialBonus":0.5,"perTrialBonusThreshold":0.05,"exampleCost":0.01},"classroomParams":{"A":{"a":1,"b":4},"B":{"a":4,"b":1},"C":{"a":2,"b":8},"D":{"a":8,"b":2}},"conditions":["nonSeqFull","nonSeqPartial","seqNoFeedback","seqFeedback"],"classroomPairings":[["A","B"],["C","D"]],"coinWeights":[0.2,0.5,0.8],"subjectId":"A1W7I6FN183I8F","assignmentId":"39LOEL67OTRPD8LBC6ZGK5TZADV83G","hitId":"3E9VAUV7BW02QFDK7N7IH7ZKACRYAN","url":"https://gershmanlab.com/experiments/alicia/teaching/experiment/?hitId=3E9VAUV7BW02QFDK7N7IH7ZKACRYAN&workerId=A1W7I6FN183I8F&assignmentId=39LOEL67OTRPD8LBC6ZGK5TZADV83G&a=7EL99&tp_a=7EL99&b=39LOEL67OTRPD8LBC6ZGK5TZADV83G&tp_b=39LOEL67OTRPD8LBC6ZGK5TZADV83G&c=365799&tp_c=365799"},{"rt":null,"stimulus":"<div style=\"font-size:60px;\">Next student</div>","response":null,"trial_type":"html-keyboard-response","trial_index":17,"time_elapsed":946139,"internal_node_id":"0.0-10.0-0.0","params":{"nStudents":24,"maxFlips":30,"completionMinutes":45,"basePay":8,"maxBonus":9,"perTrialBonus":0.5,"perTrialBonusThreshold":0.05,"exampleCost":0.01},"classroomParams":{"A":{"a":1,"b":4},"B":{"a":4,"b":1},"C":{"a":2,"b":8},"D":{"a":8,"b":2}},"conditions":["nonSeqFull","nonSeqPartial","seqNoFeedback","seqFeedback"],"classroomPairings":[["A","B"],["C","D"]],"coinWeights":[0.2,0.5,0.8],"subjectId":"A1W7I6FN183I8F","assignmentId":"39LOEL67OTRPD8LBC6ZGK5TZADV83G","hitId":"3E9VAUV7BW02QFDK7N7IH7ZKACRYAN","url":"https://gershmanlab.com/experiments/alicia/teaching/experiment/?hitId=3E9VAUV7BW02QFDK7N7IH7ZKACRYAN&workerId=A1W7I6FN183I8F&assignmentId=39LOEL67OTRPD8LBC6ZGK5TZADV83G&a=7EL99&tp_a=7EL99&b=39LOEL67OTRPD8LBC6ZGK5TZADV83G&tp_b=39LOEL67OTRPD8LBC6ZGK5TZADV83G&c=365799&tp_c=365799"},{"rt":3553,"stimulus":"\n            <h4 style=\"color:Orange;\">Student 2</h4>\n            <h2>The weight of your coin is <b style=\"color:Tomato;\">0.8</b>.</h2>\n            <p>In this block, you will be giving <b>two</b> sets of examples to Student 2.</p>\n                <p>You will receive feedback at the end of the block.</p>\n            <p></p>","response":0,"trial_type":"html-button-response","trial_index":18,"time_elapsed":949693,"internal_node_id":"0.0-11.0","params":{"nStudents":24,"maxFlips":30,"completionMinutes":45,"basePay":8,"maxBonus":9,"perTrialBonus":0.5,"perTrialBonusThreshold":0.05,"exampleCost":0.01},"classroomParams":{"A":{"a":1,"b":4},"B":{"a":4,"b":1},"C":{"a":2,"b":8},"D":{"a":8,"b":2}},"conditions":["nonSeqFull","nonSeqPartial","seqNoFeedback","seqFeedback"],"classroomPairings":[["A","B"],["C","D"]],"coinWeights":[0.2,0.5,0.8],"subjectId":"A1W7I6FN183I8F","assignmentId":"39LOEL67OTRPD8LBC6ZGK5TZADV83G","hitId":"3E9VAUV7BW02QFDK7N7IH7ZKACRYAN","url":"https://gershmanlab.com/experiments/alicia/teaching/experiment/?hitId=3E9VAUV7BW02QFDK7N7IH7ZKACRYAN&workerId=A1W7I6FN183I8F&assignmentId=39LOEL67OTRPD8LBC6ZGK5TZADV83G&a=7EL99&tp_a=7EL99&b=39LOEL67OTRPD8LBC6ZGK5TZADV83G&tp_b=39LOEL67OTRPD8LBC6ZGK5TZADV83G&c=365799&tp_c=365799"},{"rt":8224,"response":{"heads":"10","tails":"1"},"type":"response","condition":"seqNoFeedback","trueTheta":0.8,"classrooms":["C","D"],"studentTrueClassroom":"C","exampleSet":"first","trial_type":"survey-html-form","trial_index":19,"time_elapsed":957918,"internal_node_id":"0.0-12.0-0.0","params":{"nStudents":24,"maxFlips":30,"completionMinutes":45,"basePay":8,"maxBonus":9,"perTrialBonus":0.5,"perTrialBonusThreshold":0.05,"exampleCost":0.01},"classroomParams":{"A":{"a":1,"b":4},"B":{"a":4,"b":1},"C":{"a":2,"b":8},"D":{"a":8,"b":2}},"conditions":["nonSeqFull","nonSeqPartial","seqNoFeedback","seqFeedback"],"classroomPairings":[["A","B"],["C","D"]],"coinWeights":[0.2,0.5,0.8],"subjectId":"A1W7I6FN183I8F","assignmentId":"39LOEL67OTRPD8LBC6ZGK5TZADV83G","hitId":"3E9VAUV7BW02QFDK7N7IH7ZKACRYAN","url":"https://gershmanlab.com/experiments/alicia/teaching/experiment/?hitId=3E9VAUV7BW02QFDK7N7IH7ZKACRYAN&workerId=A1W7I6FN183I8F&assignmentId=39LOEL67OTRPD8LBC6ZGK5TZADV83G&a=7EL99&tp_a=7EL99&b=39LOEL67OTRPD8LBC6ZGK5TZADV83G&tp_b=39LOEL67OTRPD8LBC6ZGK5TZADV83G&c=365799&tp_c=365799","heads":10,"tails":1,"studentIndex":1,"studentTrueHypers":{"a":2,"b":8},"studentGuess":0.5714285714285714,"delta":0.22857142857142865,"totalExamples":11,"bonusSoFar":0},{"rt":null,"stimulus":"Sending examples to student... ","response":null,"trial_type":"html-keyboard-response","trial_index":20,"time_elapsed":959428,"internal_node_id":"0.0-13.0","params":{"nStudents":24,"maxFlips":30,"completionMinutes":45,"basePay":8,"maxBonus":9,"perTrialBonus":0.5,"perTrialBonusThreshold":0.05,"exampleCost":0.01},"classroomParams":{"A":{"a":1,"b":4},"B":{"a":4,"b":1},"C":{"a":2,"b":8},"D":{"a":8,"b":2}},"conditions":["nonSeqFull","nonSeqPartial","seqNoFeedback","seqFeedback"],"classroomPairings":[["A","B"],["C","D"]],"coinWeights":[0.2,0.5,0.8],"subjectId":"A1W7I6FN183I8F","assignmentId":"39LOEL67OTRPD8LBC6ZGK5TZADV83G","hitId":"3E9VAUV7BW02QFDK7N7IH7ZKACRYAN","url":"https://gershmanlab.com/experiments/alicia/teaching/experiment/?hitId=3E9VAUV7BW02QFDK7N7IH7ZKACRYAN&workerId=A1W7I6FN183I8F&assignmentId=39LOEL67OTRPD8LBC6ZGK5TZADV83G&a=7EL99&tp_a=7EL99&b=39LOEL67OTRPD8LBC6ZGK5TZADV83G&tp_b=39LOEL67OTRPD8LBC6ZGK5TZADV83G&c=365799&tp_c=365799"},{"rt":null,"stimulus":"Examples sent to student! Waiting for student...","response":null,"trial_type":"html-keyboard-response","trial_index":21,"time_elapsed":963441,"internal_node_id":"0.0-14.0","params":{"nStudents":24,"maxFlips":30,"completionMinutes":45,"basePay":8,"maxBonus":9,"perTrialBonus":0.5,"perTrialBonusThreshold":0.05,"exampleCost":0.01},"classroomParams":{"A":{"a":1,"b":4},"B":{"a":4,"b":1},"C":{"a":2,"b":8},"D":{"a":8,"b":2}},"conditions":["nonSeqFull","nonSeqPartial","seqNoFeedback","seqFeedback"],"classroomPairings":[["A","B"],["C","D"]],"coinWeights":[0.2,0.5,0.8],"subjectId":"A1W7I6FN183I8F","assignmentId":"39LOEL67OTRPD8LBC6ZGK5TZADV83G","hitId":"3E9VAUV7BW02QFDK7N7IH7ZKACRYAN","url":"https://gershmanlab.com/experiments/alicia/teaching/experiment/?hitId=3E9VAUV7BW02QFDK7N7IH7ZKACRYAN&workerId=A1W7I6FN183I8F&assignmentId=39LOEL67OTRPD8LBC6ZGK5TZADV83G&a=7EL99&tp_a=7EL99&b=39LOEL67OTRPD8LBC6ZGK5TZADV83G&tp_b=39LOEL67OTRPD8LBC6ZGK5TZADV83G&c=365799&tp_c=365799"},{"rt":13796,"response":{"heads":"10","tails":"1"},"type":"response","condition":"seqNoFeedback","trueTheta":0.8,"classrooms":["C","D"],"studentTrueClassroom":"C","exampleSet":"second","trial_type":"survey-html-form","trial_index":22,"time_elapsed":977237,"internal_node_id":"0.0-15.0-0.0","params":{"nStudents":24,"maxFlips":30,"completionMinutes":45,"basePay":8,"maxBonus":9,"perTrialBonus":0.5,"perTrialBonusThreshold":0.05,"exampleCost":0.01},"classroomParams":{"A":{"a":1,"b":4},"B":{"a":4,"b":1},"C":{"a":2,"b":8},"D":{"a":8,"b":2}},"conditions":["nonSeqFull","nonSeqPartial","seqNoFeedback","seqFeedback"],"classroomPairings":[["A","B"],["C","D"]],"coinWeights":[0.2,0.5,0.8],"subjectId":"A1W7I6FN183I8F","assignmentId":"39LOEL67OTRPD8LBC6ZGK5TZADV83G","hitId":"3E9VAUV7BW02QFDK7N7IH7ZKACRYAN","url":"https://gershmanlab.com/experiments/alicia/teaching/experiment/?hitId=3E9VAUV7BW02QFDK7N7IH7ZKACRYAN&workerId=A1W7I6FN183I8F&assignmentId=39LOEL67OTRPD8LBC6ZGK5TZADV83G&a=7EL99&tp_a=7EL99&b=39LOEL67OTRPD8LBC6ZGK5TZADV83G&tp_b=39LOEL67OTRPD8LBC6ZGK5TZADV83G&c=365799&tp_c=365799","firstResponseHeads":10,"firstResponseTails":1,"secondResponseHeads":10,"secondResponseTails":1,"totalHeads":20,"totalTails":2,"studentIndex":1,"studentTrueHypers":{"a":2,"b":8},"studentGuess":0.6875,"delta":0.11250000000000004,"bonus":0,"bonusSoFar":0,"totalExamples":22},{"rt":null,"stimulus":"Sending examples to student... ","response":null,"trial_type":"html-keyboard-response","trial_index":23,"time_elapsed":979250,"internal_node_id":"0.0-16.0","params":{"nStudents":24,"maxFlips":30,"completionMinutes":45,"basePay":8,"maxBonus":9,"perTrialBonus":0.5,"perTrialBonusThreshold":0.05,"exampleCost":0.01},"classroomParams":{"A":{"a":1,"b":4},"B":{"a":4,"b":1},"C":{"a":2,"b":8},"D":{"a":8,"b":2}},"conditions":["nonSeqFull","nonSeqPartial","seqNoFeedback","seqFeedback"],"classroomPairings":[["A","B"],["C","D"]],"coinWeights":[0.2,0.5,0.8],"subjectId":"A1W7I6FN183I8F","assignmentId":"39LOEL67OTRPD8LBC6ZGK5TZADV83G","hitId":"3E9VAUV7BW02QFDK7N7IH7ZKACRYAN","url":"https://gershmanlab.com/experiments/alicia/teaching/experiment/?hitId=3E9VAUV7BW02QFDK7N7IH7ZKACRYAN&workerId=A1W7I6FN183I8F&assignmentId=39LOEL67OTRPD8LBC6ZGK5TZADV83G&a=7EL99&tp_a=7EL99&b=39LOEL67OTRPD8LBC6ZGK5TZADV83G&tp_b=39LOEL67OTRPD8LBC6ZGK5TZADV83G&c=365799&tp_c=365799"},{"rt":null,"stimulus":"Examples sent to student! Waiting for student...","response":null,"trial_type":"html-keyboard-response","trial_index":24,"time_elapsed":984253,"internal_node_id":"0.0-17.0","params":{"nStudents":24,"maxFlips":30,"completionMinutes":45,"basePay":8,"maxBonus":9,"perTrialBonus":0.5,"perTrialBonusThreshold":0.05,"exampleCost":0.01},"classroomParams":{"A":{"a":1,"b":4},"B":{"a":4,"b":1},"C":{"a":2,"b":8},"D":{"a":8,"b":2}},"conditions":["nonSeqFull","nonSeqPartial","seqNoFeedback","seqFeedback"],"classroomPairings":[["A","B"],["C","D"]],"coinWeights":[0.2,0.5,0.8],"subjectId":"A1W7I6FN183I8F","assignmentId":"39LOEL67OTRPD8LBC6ZGK5TZADV83G","hitId":"3E9VAUV7BW02QFDK7N7IH7ZKACRYAN","url":"https://gershmanlab.com/experiments/alicia/teaching/experiment/?hitId=3E9VAUV7BW02QFDK7N7IH7ZKACRYAN&workerId=A1W7I6FN183I8F&assignmentId=39LOEL67OTRPD8LBC6ZGK5TZADV83G&a=7EL99&tp_a=7EL99&b=39LOEL67OTRPD8LBC6ZGK5TZADV83G&tp_b=39LOEL67OTRPD8LBC6ZGK5TZADV83G&c=365799&tp_c=365799"},{"rt":3542,"stimulus":"\n                <p>Student 2's first guess for coin weight: <b style=\"color:Tomato\";>0.57</b></p>\n                <p>Student 2's second guess for coin weight: <b style=\"color:Tomato\";>0.69</b></p>\n                <p>You received a bonus of <b>$0.00</b> based on the student's second guess.</p>\n                <p>Total bonus so far: <b>$0.00</b></p>\n                <p>Press any key to continue.</p>\n                ","response":" ","trial_type":"html-keyboard-response","trial_index":25,"time_elapsed":987796,"internal_node_id":"0.0-18.0","params":{"nStudents":24,"maxFlips":30,"completionMinutes":45,"basePay":8,"maxBonus":9,"perTrialBonus":0.5,"perTrialBonusThreshold":0.05,"exampleCost":0.01},"classroomParams":{"A":{"a":1,"b":4},"B":{"a":4,"b":1},"C":{"a":2,"b":8},"D":{"a":8,"b":2}},"conditions":["nonSeqFull","nonSeqPartial","seqNoFeedback","seqFeedback"],"classroomPairings":[["A","B"],["C","D"]],"coinWeights":[0.2,0.5,0.8],"subjectId":"A1W7I6FN183I8F","assignmentId":"39LOEL67OTRPD8LBC6ZGK5TZADV83G","hitId":"3E9VAUV7BW02QFDK7N7IH7ZKACRYAN","url":"https://gershmanlab.com/experiments/alicia/teaching/experiment/?hitId=3E9VAUV7BW02QFDK7N7IH7ZKACRYAN&workerId=A1W7I6FN183I8F&assignmentId=39LOEL67OTRPD8LBC6ZGK5TZADV83G&a=7EL99&tp_a=7EL99&b=39LOEL67OTRPD8LBC6ZGK5TZADV83G&tp_b=39LOEL67OTRPD8LBC6ZGK5TZADV83G&c=365799&tp_c=365799"},{"rt":null,"stimulus":"<div style=\"font-size:60px;\">Next student</div>","response":null,"trial_type":"html-keyboard-response","trial_index":26,"time_elapsed":989807,"internal_node_id":"0.0-19.0-0.0","params":{"nStudents":24,"maxFlips":30,"completionMinutes":45,"basePay":8,"maxBonus":9,"perTrialBonus":0.5,"perTrialBonusThreshold":0.05,"exampleCost":0.01},"classroomParams":{"A":{"a":1,"b":4},"B":{"a":4,"b":1},"C":{"a":2,"b":8},"D":{"a":8,"b":2}},"conditions":["nonSeqFull","nonSeqPartial","seqNoFeedback","seqFeedback"],"classroomPairings":[["A","B"],["C","D"]],"coinWeights":[0.2,0.5,0.8],"subjectId":"A1W7I6FN183I8F","assignmentId":"39LOEL67OTRPD8LBC6ZGK5TZADV83G","hitId":"3E9VAUV7BW02QFDK7N7IH7ZKACRYAN","url":"https://gershmanlab.com/experiments/alicia/teaching/experiment/?hitId=3E9VAUV7BW02QFDK7N7IH7ZKACRYAN&workerId=A1W7I6FN183I8F&assignmentId=39LOEL67OTRPD8LBC6ZGK5TZADV83G&a=7EL99&tp_a=7EL99&b=39LOEL67OTRPD8LBC6ZGK5TZADV83G&tp_b=39LOEL67OTRPD8LBC6ZGK5TZADV83G&c=365799&tp_c=365799"},{"rt":2262,"stimulus":"\n            <h4 style=\"color:Orange;\">Student 3</h4>\n            <h2>The weight of your coin is <b style=\"color:Tomato;\">0.5</b>.</h2>\n            <p>In this block, you will be giving <b>two</b> sets of examples to Student 3.</p>\n                <p>You will see the student's guess after the first set of examples. You will also receive feedback at the end of the block.</p>\n            <p>To earn the highest bonus, you will have to <b>take into consideration the student's guess</b> when you choose your second set of examples.</p>","response":0,"trial_type":"html-button-response","trial_index":27,"time_elapsed":992070,"internal_node_id":"0.0-20.0","params":{"nStudents":24,"maxFlips":30,"completionMinutes":45,"basePay":8,"maxBonus":9,"perTrialBonus":0.5,"perTrialBonusThreshold":0.05,"exampleCost":0.01},"classroomParams":{"A":{"a":1,"b":4},"B":{"a":4,"b":1},"C":{"a":2,"b":8},"D":{"a":8,"b":2}},"conditions":["nonSeqFull","nonSeqPartial","seqNoFeedback","seqFeedback"],"classroomPairings":[["A","B"],["C","D"]],"coinWeights":[0.2,0.5,0.8],"subjectId":"A1W7I6FN183I8F","assignmentId":"39LOEL67OTRPD8LBC6ZGK5TZADV83G","hitId":"3E9VAUV7BW02QFDK7N7IH7ZKACRYAN","url":"https://gershmanlab.com/experiments/alicia/teaching/experiment/?hitId=3E9VAUV7BW02QFDK7N7IH7ZKACRYAN&workerId=A1W7I6FN183I8F&assignmentId=39LOEL67OTRPD8LBC6ZGK5TZADV83G&a=7EL99&tp_a=7EL99&b=39LOEL67OTRPD8LBC6ZGK5TZADV83G&tp_b=39LOEL67OTRPD8LBC6ZGK5TZADV83G&c=365799&tp_c=365799"},{"rt":10006,"response":{"heads":"15","tails":"15"},"type":"response","condition":"seqFeedback","trueTheta":0.5,"classrooms":["A","B"],"studentTrueClassroom":"A","exampleSet":"first","trial_type":"survey-html-form","trial_index":28,"time_elapsed":1002078,"internal_node_id":"0.0-21.0-0.0","params":{"nStudents":24,"maxFlips":30,"completionMinutes":45,"basePay":8,"maxBonus":9,"perTrialBonus":0.5,"perTrialBonusThreshold":0.05,"exampleCost":0.01},"classroomParams":{"A":{"a":1,"b":4},"B":{"a":4,"b":1},"C":{"a":2,"b":8},"D":{"a":8,"b":2}},"conditions":["nonSeqFull","nonSeqPartial","seqNoFeedback","seqFeedback"],"classroomPairings":[["A","B"],["C","D"]],"coinWeights":[0.2,0.5,0.8],"subjectId":"A1W7I6FN183I8F","assignmentId":"39LOEL67OTRPD8LBC6ZGK5TZADV83G","hitId":"3E9VAUV7BW02QFDK7N7IH7ZKACRYAN","url":"https://gershmanlab.com/experiments/alicia/teaching/experiment/?hitId=3E9VAUV7BW02QFDK7N7IH7ZKACRYAN&workerId=A1W7I6FN183I8F&assignmentId=39LOEL67OTRPD8LBC6ZGK5TZADV83G&a=7EL99&tp_a=7EL99&b=39LOEL67OTRPD8LBC6ZGK5TZADV83G&tp_b=39LOEL67OTRPD8LBC6ZGK5TZADV83G&c=365799&tp_c=365799","heads":15,"tails":15,"studentIndex":2,"studentTrueHypers":{"a":1,"b":4},"studentGuess":0.45714285714285713,"delta":0.04285714285714287,"totalExamples":30,"bonusSoFar":0},{"rt":null,"stimulus":"Sending examples to student... ","response":null,"trial_type":"html-keyboard-response","trial_index":29,"time_elapsed":1003341,"internal_node_id":"0.0-22.0","params":{"nStudents":24,"maxFlips":30,"completionMinutes":45,"basePay":8,"maxBonus":9,"perTrialBonus":0.5,"perTrialBonusThreshold":0.05,"exampleCost":0.01},"classroomParams":{"A":{"a":1,"b":4},"B":{"a":4,"b":1},"C":{"a":2,"b":8},"D":{"a":8,"b":2}},"conditions":["nonSeqFull","nonSeqPartial","seqNoFeedback","seqFeedback"],"classroomPairings":[["A","B"],["C","D"]],"coinWeights":[0.2,0.5,0.8],"subjectId":"A1W7I6FN183I8F","assignmentId":"39LOEL67OTRPD8LBC6ZGK5TZADV83G","hitId":"3E9VAUV7BW02QFDK7N7IH7ZKACRYAN","url":"https://gershmanlab.com/experiments/alicia/teaching/experiment/?hitId=3E9VAUV7BW02QFDK7N7IH7ZKACRYAN&workerId=A1W7I6FN183I8F&assignmentId=39LOEL67OTRPD8LBC6ZGK5TZADV83G&a=7EL99&tp_a=7EL99&b=39LOEL67OTRPD8LBC6ZGK5TZADV83G&tp_b=39LOEL67OTRPD8LBC6ZGK5TZADV83G&c=365799&tp_c=365799"},{"rt":null,"stimulus":"Examples sent to student! Waiting for student...","response":null,"trial_type":"html-keyboard-response","trial_index":30,"time_elapsed":1007354,"internal_node_id":"0.0-23.0","params":{"nStudents":24,"maxFlips":30,"completionMinutes":45,"basePay":8,"maxBonus":9,"perTrialBonus":0.5,"perTrialBonusThreshold":0.05,"exampleCost":0.01},"classroomParams":{"A":{"a":1,"b":4},"B":{"a":4,"b":1},"C":{"a":2,"b":8},"D":{"a":8,"b":2}},"conditions":["nonSeqFull","nonSeqPartial","seqNoFeedback","seqFeedback"],"classroomPairings":[["A","B"],["C","D"]],"coinWeights":[0.2,0.5,0.8],"subjectId":"A1W7I6FN183I8F","assignmentId":"39LOEL67OTRPD8LBC6ZGK5TZADV83G","hitId":"3E9VAUV7BW02QFDK7N7IH7ZKACRYAN","url":"https://gershmanlab.com/experiments/alicia/teaching/experiment/?hitId=3E9VAUV7BW02QFDK7N7IH7ZKACRYAN&workerId=A1W7I6FN183I8F&assignmentId=39LOEL67OTRPD8LBC6ZGK5TZADV83G&a=7EL99&tp_a=7EL99&b=39LOEL67OTRPD8LBC6ZGK5TZADV83G&tp_b=39LOEL67OTRPD8LBC6ZGK5TZADV83G&c=365799&tp_c=365799"},{"rt":8219,"stimulus":"\n                <p>Student's guess for coin weight: <b style=\"color:Tomato;\">0.46</b></p>\n                <p></b></p>\n                <p>You will now send another set of examples to your student. <b>Remember to take your student's guess into consideration so that you can earn the highest bonus possible!</b> </p>\n                <p>Press any key to continue.</p>\n                ","response":" ","trial_type":"html-keyboard-response","trial_index":31,"time_elapsed":1015574,"internal_node_id":"0.0-24.0","params":{"nStudents":24,"maxFlips":30,"completionMinutes":45,"basePay":8,"maxBonus":9,"perTrialBonus":0.5,"perTrialBonusThreshold":0.05,"exampleCost":0.01},"classroomParams":{"A":{"a":1,"b":4},"B":{"a":4,"b":1},"C":{"a":2,"b":8},"D":{"a":8,"b":2}},"conditions":["nonSeqFull","nonSeqPartial","seqNoFeedback","seqFeedback"],"classroomPairings":[["A","B"],["C","D"]],"coinWeights":[0.2,0.5,0.8],"subjectId":"A1W7I6FN183I8F","assignmentId":"39LOEL67OTRPD8LBC6ZGK5TZADV83G","hitId":"3E9VAUV7BW02QFDK7N7IH7ZKACRYAN","url":"https://gershmanlab.com/experiments/alicia/teaching/experiment/?hitId=3E9VAUV7BW02QFDK7N7IH7ZKACRYAN&workerId=A1W7I6FN183I8F&assignmentId=39LOEL67OTRPD8LBC6ZGK5TZADV83G&a=7EL99&tp_a=7EL99&b=39LOEL67OTRPD8LBC6ZGK5TZADV83G&tp_b=39LOEL67OTRPD8LBC6ZGK5TZADV83G&c=365799&tp_c=365799"},{"rt":8734,"response":{"heads":"15","tails":"15"},"type":"response","condition":"seqFeedback","trueTheta":0.5,"classrooms":["A","B"],"studentTrueClassroom":"A","exampleSet":"second","trial_type":"survey-html-form","trial_index":32,"time_elapsed":1024309,"internal_node_id":"0.0-25.0-0.0","params":{"nStudents":24,"maxFlips":30,"completionMinutes":45,"basePay":8,"maxBonus":9,"perTrialBonus":0.5,"perTrialBonusThreshold":0.05,"exampleCost":0.01},"classroomParams":{"A":{"a":1,"b":4},"B":{"a":4,"b":1},"C":{"a":2,"b":8},"D":{"a":8,"b":2}},"conditions":["nonSeqFull","nonSeqPartial","seqNoFeedback","seqFeedback"],"classroomPairings":[["A","B"],["C","D"]],"coinWeights":[0.2,0.5,0.8],"subjectId":"A1W7I6FN183I8F","assignmentId":"39LOEL67OTRPD8LBC6ZGK5TZADV83G","hitId":"3E9VAUV7BW02QFDK7N7IH7ZKACRYAN","url":"https://gershmanlab.com/experiments/alicia/teaching/experiment/?hitId=3E9VAUV7BW02QFDK7N7IH7ZKACRYAN&workerId=A1W7I6FN183I8F&assignmentId=39LOEL67OTRPD8LBC6ZGK5TZADV83G&a=7EL99&tp_a=7EL99&b=39LOEL67OTRPD8LBC6ZGK5TZADV83G&tp_b=39LOEL67OTRPD8LBC6ZGK5TZADV83G&c=365799&tp_c=365799","firstResponseHeads":15,"firstResponseTails":15,"secondResponseHeads":15,"secondResponseTails":15,"totalHeads":30,"totalTails":30,"studentIndex":2,"studentTrueHypers":{"a":1,"b":4},"studentGuess":0.47692307692307695,"delta":0.02307692307692305,"bonus":0,"bonusSoFar":0,"totalExamples":60},{"rt":null,"stimulus":"Sending examples to student... ","response":null,"trial_type":"html-keyboard-response","trial_index":33,"time_elapsed":1026069,"internal_node_id":"0.0-26.0","params":{"nStudents":24,"maxFlips":30,"completionMinutes":45,"basePay":8,"maxBonus":9,"perTrialBonus":0.5,"perTrialBonusThreshold":0.05,"exampleCost":0.01},"classroomParams":{"A":{"a":1,"b":4},"B":{"a":4,"b":1},"C":{"a":2,"b":8},"D":{"a":8,"b":2}},"conditions":["nonSeqFull","nonSeqPartial","seqNoFeedback","seqFeedback"],"classroomPairings":[["A","B"],["C","D"]],"coinWeights":[0.2,0.5,0.8],"subjectId":"A1W7I6FN183I8F","assignmentId":"39LOEL67OTRPD8LBC6ZGK5TZADV83G","hitId":"3E9VAUV7BW02QFDK7N7IH7ZKACRYAN","url":"https://gershmanlab.com/experiments/alicia/teaching/experiment/?hitId=3E9VAUV7BW02QFDK7N7IH7ZKACRYAN&workerId=A1W7I6FN183I8F&assignmentId=39LOEL67OTRPD8LBC6ZGK5TZADV83G&a=7EL99&tp_a=7EL99&b=39LOEL67OTRPD8LBC6ZGK5TZADV83G&tp_b=39LOEL67OTRPD8LBC6ZGK5TZADV83G&c=365799&tp_c=365799"},{"rt":null,"stimulus":"Examples sent to student! Waiting for student...","response":null,"trial_type":"html-keyboard-response","trial_index":34,"time_elapsed":1031072,"internal_node_id":"0.0-27.0","params":{"nStudents":24,"maxFlips":30,"completionMinutes":45,"basePay":8,"maxBonus":9,"perTrialBonus":0.5,"perTrialBonusThreshold":0.05,"exampleCost":0.01},"classroomParams":{"A":{"a":1,"b":4},"B":{"a":4,"b":1},"C":{"a":2,"b":8},"D":{"a":8,"b":2}},"conditions":["nonSeqFull","nonSeqPartial","seqNoFeedback","seqFeedback"],"classroomPairings":[["A","B"],["C","D"]],"coinWeights":[0.2,0.5,0.8],"subjectId":"A1W7I6FN183I8F","assignmentId":"39LOEL67OTRPD8LBC6ZGK5TZADV83G","hitId":"3E9VAUV7BW02QFDK7N7IH7ZKACRYAN","url":"https://gershmanlab.com/experiments/alicia/teaching/experiment/?hitId=3E9VAUV7BW02QFDK7N7IH7ZKACRYAN&workerId=A1W7I6FN183I8F&assignmentId=39LOEL67OTRPD8LBC6ZGK5TZADV83G&a=7EL99&tp_a=7EL99&b=39LOEL67OTRPD8LBC6ZGK5TZADV83G&tp_b=39LOEL67OTRPD8LBC6ZGK5TZADV83G&c=365799&tp_c=365799"},{"rt":3188,"stimulus":"\n                <p>Student 3's first guess for coin weight: <b style=\"color:Tomato\";>0.46</b></p>\n                <p>Student 3's second guess for coin weight: <b style=\"color:Tomato\";>0.48</b></p>\n                <p>You received a bonus of <b>$0.00</b> based on the student's second guess.</p>\n                <p>Total bonus so far: <b>$0.00</b></p>\n                <p>Press any key to continue.</p>\n                ","response":" ","trial_type":"html-keyboard-response","trial_index":35,"time_elapsed":1034260,"internal_node_id":"0.0-28.0","params":{"nStudents":24,"maxFlips":30,"completionMinutes":45,"basePay":8,"maxBonus":9,"perTrialBonus":0.5,"perTrialBonusThreshold":0.05,"exampleCost":0.01},"classroomParams":{"A":{"a":1,"b":4},"B":{"a":4,"b":1},"C":{"a":2,"b":8},"D":{"a":8,"b":2}},"conditions":["nonSeqFull","nonSeqPartial","seqNoFeedback","seqFeedback"],"classroomPairings":[["A","B"],["C","D"]],"coinWeights":[0.2,0.5,0.8],"subjectId":"A1W7I6FN183I8F","assignmentId":"39LOEL67OTRPD8LBC6ZGK5TZADV83G","hitId":"3E9VAUV7BW02QFDK7N7IH7ZKACRYAN","url":"https://gershmanlab.com/experiments/alicia/teaching/experiment/?hitId=3E9VAUV7BW02QFDK7N7IH7ZKACRYAN&workerId=A1W7I6FN183I8F&assignmentId=39LOEL67OTRPD8LBC6ZGK5TZADV83G&a=7EL99&tp_a=7EL99&b=39LOEL67OTRPD8LBC6ZGK5TZADV83G&tp_b=39LOEL67OTRPD8LBC6ZGK5TZADV83G&c=365799&tp_c=365799"},{"rt":null,"stimulus":"<div style=\"font-size:60px;\">Next student</div>","response":null,"trial_type":"html-keyboard-response","trial_index":36,"time_elapsed":1036262,"internal_node_id":"0.0-29.0-0.0","params":{"nStudents":24,"maxFlips":30,"completionMinutes":45,"basePay":8,"maxBonus":9,"perTrialBonus":0.5,"perTrialBonusThreshold":0.05,"exampleCost":0.01},"classroomParams":{"A":{"a":1,"b":4},"B":{"a":4,"b":1},"C":{"a":2,"b":8},"D":{"a":8,"b":2}},"conditions":["nonSeqFull","nonSeqPartial","seqNoFeedback","seqFeedback"],"classroomPairings":[["A","B"],["C","D"]],"coinWeights":[0.2,0.5,0.8],"subjectId":"A1W7I6FN183I8F","assignmentId":"39LOEL67OTRPD8LBC6ZGK5TZADV83G","hitId":"3E9VAUV7BW02QFDK7N7IH7ZKACRYAN","url":"https://gershmanlab.com/experiments/alicia/teaching/experiment/?hitId=3E9VAUV7BW02QFDK7N7IH7ZKACRYAN&workerId=A1W7I6FN183I8F&assignmentId=39LOEL67OTRPD8LBC6ZGK5TZADV83G&a=7EL99&tp_a=7EL99&b=39LOEL67OTRPD8LBC6ZGK5TZADV83G&tp_b=39LOEL67OTRPD8LBC6ZGK5TZADV83G&c=365799&tp_c=365799"},{"rt":1085,"stimulus":"\n            <h4 style=\"color:Orange;\">Student 4</h4>\n            <h2>The weight of your coin is <b style=\"color:Tomato;\">0.8</b>.</h2>\n            <p>In this block, you will be giving <b>one</b> set of examples to Student 4.</p>\n                <p>You will receive feedback at the end of the block.</p>\n            <p></p>","response":0,"trial_type":"html-button-response","trial_index":37,"time_elapsed":1037349,"internal_node_id":"0.0-30.0","params":{"nStudents":24,"maxFlips":30,"completionMinutes":45,"basePay":8,"maxBonus":9,"perTrialBonus":0.5,"perTrialBonusThreshold":0.05,"exampleCost":0.01},"classroomParams":{"A":{"a":1,"b":4},"B":{"a":4,"b":1},"C":{"a":2,"b":8},"D":{"a":8,"b":2}},"conditions":["nonSeqFull","nonSeqPartial","seqNoFeedback","seqFeedback"],"classroomPairings":[["A","B"],["C","D"]],"coinWeights":[0.2,0.5,0.8],"subjectId":"A1W7I6FN183I8F","assignmentId":"39LOEL67OTRPD8LBC6ZGK5TZADV83G","hitId":"3E9VAUV7BW02QFDK7N7IH7ZKACRYAN","url":"https://gershmanlab.com/experiments/alicia/teaching/experiment/?hitId=3E9VAUV7BW02QFDK7N7IH7ZKACRYAN&workerId=A1W7I6FN183I8F&assignmentId=39LOEL67OTRPD8LBC6ZGK5TZADV83G&a=7EL99&tp_a=7EL99&b=39LOEL67OTRPD8LBC6ZGK5TZADV83G&tp_b=39LOEL67OTRPD8LBC6ZGK5TZADV83G&c=365799&tp_c=365799"},{"rt":729,"response":{"heads":"0","tails":"0"},"type":"response","condition":"nonSeqPartial","trueTheta":0.8,"classrooms":["C","D"],"studentTrueClassroom":"D","exampleSet":"first","trial_type":"survey-html-form","trial_index":38,"time_elapsed":1038079,"internal_node_id":"0.0-31.0-0.0","params":{"nStudents":24,"maxFlips":30,"completionMinutes":45,"basePay":8,"maxBonus":9,"perTrialBonus":0.5,"perTrialBonusThreshold":0.05,"exampleCost":0.01},"classroomParams":{"A":{"a":1,"b":4},"B":{"a":4,"b":1},"C":{"a":2,"b":8},"D":{"a":8,"b":2}},"conditions":["nonSeqFull","nonSeqPartial","seqNoFeedback","seqFeedback"],"classroomPairings":[["A","B"],["C","D"]],"coinWeights":[0.2,0.5,0.8],"subjectId":"A1W7I6FN183I8F","assignmentId":"39LOEL67OTRPD8LBC6ZGK5TZADV83G","hitId":"3E9VAUV7BW02QFDK7N7IH7ZKACRYAN","url":"https://gershmanlab.com/experiments/alicia/teaching/experiment/?hitId=3E9VAUV7BW02QFDK7N7IH7ZKACRYAN&workerId=A1W7I6FN183I8F&assignmentId=39LOEL67OTRPD8LBC6ZGK5TZADV83G&a=7EL99&tp_a=7EL99&b=39LOEL67OTRPD8LBC6ZGK5TZADV83G&tp_b=39LOEL67OTRPD8LBC6ZGK5TZADV83G&c=365799&tp_c=365799","heads":0,"tails":0,"studentIndex":3,"studentTrueHypers":{"a":8,"b":2},"studentGuess":0.8,"delta":0,"totalExamples":0,"bonus":0.5,"bonusSoFar":0.5},{"rt":3852,"response":{"heads":"1","tails":"0"},"type":"response","condition":"nonSeqPartial","trueTheta":0.8,"classrooms":["C","D"],"studentTrueClassroom":"D","exampleSet":"first","trial_type":"survey-html-form","trial_index":39,"time_elapsed":1041933,"internal_node_id":"0.0-31.1-0.1","params":{"nStudents":24,"maxFlips":30,"completionMinutes":45,"basePay":8,"maxBonus":9,"perTrialBonus":0.5,"perTrialBonusThreshold":0.05,"exampleCost":0.01},"classroomParams":{"A":{"a":1,"b":4},"B":{"a":4,"b":1},"C":{"a":2,"b":8},"D":{"a":8,"b":2}},"conditions":["nonSeqFull","nonSeqPartial","seqNoFeedback","seqFeedback"],"classroomPairings":[["A","B"],["C","D"]],"coinWeights":[0.2,0.5,0.8],"subjectId":"A1W7I6FN183I8F","assignmentId":"39LOEL67OTRPD8LBC6ZGK5TZADV83G","hitId":"3E9VAUV7BW02QFDK7N7IH7ZKACRYAN","url":"https://gershmanlab.com/experiments/alicia/teaching/experiment/?hitId=3E9VAUV7BW02QFDK7N7IH7ZKACRYAN&workerId=A1W7I6FN183I8F&assignmentId=39LOEL67OTRPD8LBC6ZGK5TZADV83G&a=7EL99&tp_a=7EL99&b=39LOEL67OTRPD8LBC6ZGK5TZADV83G&tp_b=39LOEL67OTRPD8LBC6ZGK5TZADV83G&c=365799&tp_c=365799","heads":1,"tails":0,"studentIndex":3,"studentTrueHypers":{"a":8,"b":2},"studentGuess":0.8181818181818182,"delta":0.018181818181818188,"totalExamples":1,"bonus":0.49,"bonusSoFar":0.99},{"rt":null,"stimulus":"Sending examples to student... ","response":null,"trial_type":"html-keyboard-response","trial_index":40,"time_elapsed":1043189,"internal_node_id":"0.0-32.0","params":{"nStudents":24,"maxFlips":30,"completionMinutes":45,"basePay":8,"maxBonus":9,"perTrialBonus":0.5,"perTrialBonusThreshold":0.05,"exampleCost":0.01},"classroomParams":{"A":{"a":1,"b":4},"B":{"a":4,"b":1},"C":{"a":2,"b":8},"D":{"a":8,"b":2}},"conditions":["nonSeqFull","nonSeqPartial","seqNoFeedback","seqFeedback"],"classroomPairings":[["A","B"],["C","D"]],"coinWeights":[0.2,0.5,0.8],"subjectId":"A1W7I6FN183I8F","assignmentId":"39LOEL67OTRPD8LBC6ZGK5TZADV83G","hitId":"3E9VAUV7BW02QFDK7N7IH7ZKACRYAN","url":"https://gershmanlab.com/experiments/alicia/teaching/experiment/?hitId=3E9VAUV7BW02QFDK7N7IH7ZKACRYAN&workerId=A1W7I6FN183I8F&assignmentId=39LOEL67OTRPD8LBC6ZGK5TZADV83G&a=7EL99&tp_a=7EL99&b=39LOEL67OTRPD8LBC6ZGK5TZADV83G&tp_b=39LOEL67OTRPD8LBC6ZGK5TZADV83G&c=365799&tp_c=365799"},{"rt":null,"stimulus":"Examples sent to student! Waiting for student...","response":null,"trial_type":"html-keyboard-response","trial_index":41,"time_elapsed":1049197,"internal_node_id":"0.0-33.0","params":{"nStudents":24,"maxFlips":30,"completionMinutes":45,"basePay":8,"maxBonus":9,"perTrialBonus":0.5,"perTrialBonusThreshold":0.05,"exampleCost":0.01},"classroomParams":{"A":{"a":1,"b":4},"B":{"a":4,"b":1},"C":{"a":2,"b":8},"D":{"a":8,"b":2}},"conditions":["nonSeqFull","nonSeqPartial","seqNoFeedback","seqFeedback"],"classroomPairings":[["A","B"],["C","D"]],"coinWeights":[0.2,0.5,0.8],"subjectId":"A1W7I6FN183I8F","assignmentId":"39LOEL67OTRPD8LBC6ZGK5TZADV83G","hitId":"3E9VAUV7BW02QFDK7N7IH7ZKACRYAN","url":"https://gershmanlab.com/experiments/alicia/teaching/experiment/?hitId=3E9VAUV7BW02QFDK7N7IH7ZKACRYAN&workerId=A1W7I6FN183I8F&assignmentId=39LOEL67OTRPD8LBC6ZGK5TZADV83G&a=7EL99&tp_a=7EL99&b=39LOEL67OTRPD8LBC6ZGK5TZADV83G&tp_b=39LOEL67OTRPD8LBC6ZGK5TZADV83G&c=365799&tp_c=365799"},{"rt":3031,"stimulus":"\n                <p>Student's guess for coin weight: <b style=\"color:Tomato;\">0.80</b></p>\n                <p>You received a bonus of <b>$0.5</b>. Total bonus so far: <b>$0.99</b></b></p>\n                <p></p>\n                <p>Press any key to continue.</p>\n                ","response":" ","trial_type":"html-keyboard-response","trial_index":42,"time_elapsed":1052231,"internal_node_id":"0.0-34.0","params":{"nStudents":24,"maxFlips":30,"completionMinutes":45,"basePay":8,"maxBonus":9,"perTrialBonus":0.5,"perTrialBonusThreshold":0.05,"exampleCost":0.01},"classroomParams":{"A":{"a":1,"b":4},"B":{"a":4,"b":1},"C":{"a":2,"b":8},"D":{"a":8,"b":2}},"conditions":["nonSeqFull","nonSeqPartial","seqNoFeedback","seqFeedback"],"classroomPairings":[["A","B"],["C","D"]],"coinWeights":[0.2,0.5,0.8],"subjectId":"A1W7I6FN183I8F","assignmentId":"39LOEL67OTRPD8LBC6ZGK5TZADV83G","hitId":"3E9VAUV7BW02QFDK7N7IH7ZKACRYAN","url":"https://gershmanlab.com/experiments/alicia/teaching/experiment/?hitId=3E9VAUV7BW02QFDK7N7IH7ZKACRYAN&workerId=A1W7I6FN183I8F&assignmentId=39LOEL67OTRPD8LBC6ZGK5TZADV83G&a=7EL99&tp_a=7EL99&b=39LOEL67OTRPD8LBC6ZGK5TZADV83G&tp_b=39LOEL67OTRPD8LBC6ZGK5TZADV83G&c=365799&tp_c=365799"},{"rt":null,"stimulus":"<div style=\"font-size:60px;\">Next student</div>","response":null,"trial_type":"html-keyboard-response","trial_index":43,"time_elapsed":1055237,"internal_node_id":"0.0-35.0-0.0","params":{"nStudents":24,"maxFlips":30,"completionMinutes":45,"basePay":8,"maxBonus":9,"perTrialBonus":0.5,"perTrialBonusThreshold":0.05,"exampleCost":0.01},"classroomParams":{"A":{"a":1,"b":4},"B":{"a":4,"b":1},"C":{"a":2,"b":8},"D":{"a":8,"b":2}},"conditions":["nonSeqFull","nonSeqPartial","seqNoFeedback","seqFeedback"],"classroomPairings":[["A","B"],["C","D"]],"coinWeights":[0.2,0.5,0.8],"subjectId":"A1W7I6FN183I8F","assignmentId":"39LOEL67OTRPD8LBC6ZGK5TZADV83G","hitId":"3E9VAUV7BW02QFDK7N7IH7ZKACRYAN","url":"https://gershmanlab.com/experiments/alicia/teaching/experiment/?hitId=3E9VAUV7BW02QFDK7N7IH7ZKACRYAN&workerId=A1W7I6FN183I8F&assignmentId=39LOEL67OTRPD8LBC6ZGK5TZADV83G&a=7EL99&tp_a=7EL99&b=39LOEL67OTRPD8LBC6ZGK5TZADV83G&tp_b=39LOEL67OTRPD8LBC6ZGK5TZADV83G&c=365799&tp_c=365799"},{"rt":1784,"stimulus":"\n            <h4 style=\"color:Orange;\">Student 5</h4>\n            <h2>The weight of your coin is <b style=\"color:Tomato;\">0.2</b>.</h2>\n            <p>In this block, you will be giving <b>one</b> set of examples to Student 5.</p>\n                <p>You will receive feedback at the end of the block.</p>\n            <p></p>","response":0,"trial_type":"html-button-response","trial_index":44,"time_elapsed":1057022,"internal_node_id":"0.0-36.0","params":{"nStudents":24,"maxFlips":30,"completionMinutes":45,"basePay":8,"maxBonus":9,"perTrialBonus":0.5,"perTrialBonusThreshold":0.05,"exampleCost":0.01},"classroomParams":{"A":{"a":1,"b":4},"B":{"a":4,"b":1},"C":{"a":2,"b":8},"D":{"a":8,"b":2}},"conditions":["nonSeqFull","nonSeqPartial","seqNoFeedback","seqFeedback"],"classroomPairings":[["A","B"],["C","D"]],"coinWeights":[0.2,0.5,0.8],"subjectId":"A1W7I6FN183I8F","assignmentId":"39LOEL67OTRPD8LBC6ZGK5TZADV83G","hitId":"3E9VAUV7BW02QFDK7N7IH7ZKACRYAN","url":"https://gershmanlab.com/experiments/alicia/teaching/experiment/?hitId=3E9VAUV7BW02QFDK7N7IH7ZKACRYAN&workerId=A1W7I6FN183I8F&assignmentId=39LOEL67OTRPD8LBC6ZGK5TZADV83G&a=7EL99&tp_a=7EL99&b=39LOEL67OTRPD8LBC6ZGK5TZADV83G&tp_b=39LOEL67OTRPD8LBC6ZGK5TZADV83G&c=365799&tp_c=365799"},{"rt":1669,"response":{"heads":"0","tails":"1"},"type":"response","condition":"nonSeqFull","trueTheta":0.2,"classrooms":["C","D"],"studentTrueClassroom":"D","exampleSet":"first","trial_type":"survey-html-form","trial_index":45,"time_elapsed":1058693,"internal_node_id":"0.0-37.0-0.0","params":{"nStudents":24,"maxFlips":30,"completionMinutes":45,"basePay":8,"maxBonus":9,"perTrialBonus":0.5,"perTrialBonusThreshold":0.05,"exampleCost":0.01},"classroomParams":{"A":{"a":1,"b":4},"B":{"a":4,"b":1},"C":{"a":2,"b":8},"D":{"a":8,"b":2}},"conditions":["nonSeqFull","nonSeqPartial","seqNoFeedback","seqFeedback"],"classroomPairings":[["A","B"],["C","D"]],"coinWeights":[0.2,0.5,0.8],"subjectId":"A1W7I6FN183I8F","assignmentId":"39LOEL67OTRPD8LBC6ZGK5TZADV83G","hitId":"3E9VAUV7BW02QFDK7N7IH7ZKACRYAN","url":"https://gershmanlab.com/experiments/alicia/teaching/experiment/?hitId=3E9VAUV7BW02QFDK7N7IH7ZKACRYAN&workerId=A1W7I6FN183I8F&assignmentId=39LOEL67OTRPD8LBC6ZGK5TZADV83G&a=7EL99&tp_a=7EL99&b=39LOEL67OTRPD8LBC6ZGK5TZADV83G&tp_b=39LOEL67OTRPD8LBC6ZGK5TZADV83G&c=365799&tp_c=365799","heads":0,"tails":1,"studentIndex":4,"studentTrueHypers":{"a":8,"b":2},"studentGuess":0.7272727272727273,"delta":0.5272727272727273,"totalExamples":1,"bonus":0,"bonusSoFar":0.99},{"rt":null,"stimulus":"Sending examples to student... ","response":null,"trial_type":"html-keyboard-response","trial_index":46,"time_elapsed":1060453,"internal_node_id":"0.0-38.0","params":{"nStudents":24,"maxFlips":30,"completionMinutes":45,"basePay":8,"maxBonus":9,"perTrialBonus":0.5,"perTrialBonusThreshold":0.05,"exampleCost":0.01},"classroomParams":{"A":{"a":1,"b":4},"B":{"a":4,"b":1},"C":{"a":2,"b":8},"D":{"a":8,"b":2}},"conditions":["nonSeqFull","nonSeqPartial","seqNoFeedback","seqFeedback"],"classroomPairings":[["A","B"],["C","D"]],"coinWeights":[0.2,0.5,0.8],"subjectId":"A1W7I6FN183I8F","assignmentId":"39LOEL67OTRPD8LBC6ZGK5TZADV83G","hitId":"3E9VAUV7BW02QFDK7N7IH7ZKACRYAN","url":"https://gershmanlab.com/experiments/alicia/teaching/experiment/?hitId=3E9VAUV7BW02QFDK7N7IH7ZKACRYAN&workerId=A1W7I6FN183I8F&assignmentId=39LOEL67OTRPD8LBC6ZGK5TZADV83G&a=7EL99&tp_a=7EL99&b=39LOEL67OTRPD8LBC6ZGK5TZADV83G&tp_b=39LOEL67OTRPD8LBC6ZGK5TZADV83G&c=365799&tp_c=365799"},{"rt":null,"stimulus":"Examples sent to student! Waiting for student...","response":null,"trial_type":"html-keyboard-response","trial_index":47,"time_elapsed":1064467,"internal_node_id":"0.0-39.0","params":{"nStudents":24,"maxFlips":30,"completionMinutes":45,"basePay":8,"maxBonus":9,"perTrialBonus":0.5,"perTrialBonusThreshold":0.05,"exampleCost":0.01},"classroomParams":{"A":{"a":1,"b":4},"B":{"a":4,"b":1},"C":{"a":2,"b":8},"D":{"a":8,"b":2}},"conditions":["nonSeqFull","nonSeqPartial","seqNoFeedback","seqFeedback"],"classroomPairings":[["A","B"],["C","D"]],"coinWeights":[0.2,0.5,0.8],"subjectId":"A1W7I6FN183I8F","assignmentId":"39LOEL67OTRPD8LBC6ZGK5TZADV83G","hitId":"3E9VAUV7BW02QFDK7N7IH7ZKACRYAN","url":"https://gershmanlab.com/experiments/alicia/teaching/experiment/?hitId=3E9VAUV7BW02QFDK7N7IH7ZKACRYAN&workerId=A1W7I6FN183I8F&assignmentId=39LOEL67OTRPD8LBC6ZGK5TZADV83G&a=7EL99&tp_a=7EL99&b=39LOEL67OTRPD8LBC6ZGK5TZADV83G&tp_b=39LOEL67OTRPD8LBC6ZGK5TZADV83G&c=365799&tp_c=365799"},{"rt":1991,"stimulus":"\n                <p>Student's guess for coin weight: <b style=\"color:Tomato;\">0.73</b></p>\n                <p>You received a bonus of <b>$0</b>. Total bonus so far: <b>$0.99</b></b></p>\n                <p></p>\n                <p>Press any key to continue.</p>\n                ","response":" ","trial_type":"html-keyboard-response","trial_index":48,"time_elapsed":1066459,"internal_node_id":"0.0-40.0","params":{"nStudents":24,"maxFlips":30,"completionMinutes":45,"basePay":8,"maxBonus":9,"perTrialBonus":0.5,"perTrialBonusThreshold":0.05,"exampleCost":0.01},"classroomParams":{"A":{"a":1,"b":4},"B":{"a":4,"b":1},"C":{"a":2,"b":8},"D":{"a":8,"b":2}},"conditions":["nonSeqFull","nonSeqPartial","seqNoFeedback","seqFeedback"],"classroomPairings":[["A","B"],["C","D"]],"coinWeights":[0.2,0.5,0.8],"subjectId":"A1W7I6FN183I8F","assignmentId":"39LOEL67OTRPD8LBC6ZGK5TZADV83G","hitId":"3E9VAUV7BW02QFDK7N7IH7ZKACRYAN","url":"https://gershmanlab.com/experiments/alicia/teaching/experiment/?hitId=3E9VAUV7BW02QFDK7N7IH7ZKACRYAN&workerId=A1W7I6FN183I8F&assignmentId=39LOEL67OTRPD8LBC6ZGK5TZADV83G&a=7EL99&tp_a=7EL99&b=39LOEL67OTRPD8LBC6ZGK5TZADV83G&tp_b=39LOEL67OTRPD8LBC6ZGK5TZADV83G&c=365799&tp_c=365799"},{"rt":null,"stimulus":"<div style=\"font-size:60px;\">Next student</div>","response":null,"trial_type":"html-keyboard-response","trial_index":49,"time_elapsed":1068716,"internal_node_id":"0.0-41.0-0.0","params":{"nStudents":24,"maxFlips":30,"completionMinutes":45,"basePay":8,"maxBonus":9,"perTrialBonus":0.5,"perTrialBonusThreshold":0.05,"exampleCost":0.01},"classroomParams":{"A":{"a":1,"b":4},"B":{"a":4,"b":1},"C":{"a":2,"b":8},"D":{"a":8,"b":2}},"conditions":["nonSeqFull","nonSeqPartial","seqNoFeedback","seqFeedback"],"classroomPairings":[["A","B"],["C","D"]],"coinWeights":[0.2,0.5,0.8],"subjectId":"A1W7I6FN183I8F","assignmentId":"39LOEL67OTRPD8LBC6ZGK5TZADV83G","hitId":"3E9VAUV7BW02QFDK7N7IH7ZKACRYAN","url":"https://gershmanlab.com/experiments/alicia/teaching/experiment/?hitId=3E9VAUV7BW02QFDK7N7IH7ZKACRYAN&workerId=A1W7I6FN183I8F&assignmentId=39LOEL67OTRPD8LBC6ZGK5TZADV83G&a=7EL99&tp_a=7EL99&b=39LOEL67OTRPD8LBC6ZGK5TZADV83G&tp_b=39LOEL67OTRPD8LBC6ZGK5TZADV83G&c=365799&tp_c=365799"},{"rt":2769,"stimulus":"\n            <h4 style=\"color:Orange;\">Student 6</h4>\n            <h2>The weight of your coin is <b style=\"color:Tomato;\">0.5</b>.</h2>\n            <p>In this block, you will be giving <b>one</b> set of examples to Student 6.</p>\n                <p>You will receive feedback at the end of the block.</p>\n            <p></p>","response":0,"trial_type":"html-button-response","trial_index":50,"time_elapsed":1071486,"internal_node_id":"0.0-42.0","params":{"nStudents":24,"maxFlips":30,"completionMinutes":45,"basePay":8,"maxBonus":9,"perTrialBonus":0.5,"perTrialBonusThreshold":0.05,"exampleCost":0.01},"classroomParams":{"A":{"a":1,"b":4},"B":{"a":4,"b":1},"C":{"a":2,"b":8},"D":{"a":8,"b":2}},"conditions":["nonSeqFull","nonSeqPartial","seqNoFeedback","seqFeedback"],"classroomPairings":[["A","B"],["C","D"]],"coinWeights":[0.2,0.5,0.8],"subjectId":"A1W7I6FN183I8F","assignmentId":"39LOEL67OTRPD8LBC6ZGK5TZADV83G","hitId":"3E9VAUV7BW02QFDK7N7IH7ZKACRYAN","url":"https://gershmanlab.com/experiments/alicia/teaching/experiment/?hitId=3E9VAUV7BW02QFDK7N7IH7ZKACRYAN&workerId=A1W7I6FN183I8F&assignmentId=39LOEL67OTRPD8LBC6ZGK5TZADV83G&a=7EL99&tp_a=7EL99&b=39LOEL67OTRPD8LBC6ZGK5TZADV83G&tp_b=39LOEL67OTRPD8LBC6ZGK5TZADV83G&c=365799&tp_c=365799"},{"rt":2103,"response":{"heads":"1","tails":"1"},"type":"response","condition":"nonSeqFull","trueTheta":0.5,"classrooms":["A","B"],"studentTrueClassroom":"B","exampleSet":"first","trial_type":"survey-html-form","trial_index":51,"time_elapsed":1073590,"internal_node_id":"0.0-43.0-0.0","params":{"nStudents":24,"maxFlips":30,"completionMinutes":45,"basePay":8,"maxBonus":9,"perTrialBonus":0.5,"perTrialBonusThreshold":0.05,"exampleCost":0.01},"classroomParams":{"A":{"a":1,"b":4},"B":{"a":4,"b":1},"C":{"a":2,"b":8},"D":{"a":8,"b":2}},"conditions":["nonSeqFull","nonSeqPartial","seqNoFeedback","seqFeedback"],"classroomPairings":[["A","B"],["C","D"]],"coinWeights":[0.2,0.5,0.8],"subjectId":"A1W7I6FN183I8F","assignmentId":"39LOEL67OTRPD8LBC6ZGK5TZADV83G","hitId":"3E9VAUV7BW02QFDK7N7IH7ZKACRYAN","url":"https://gershmanlab.com/experiments/alicia/teaching/experiment/?hitId=3E9VAUV7BW02QFDK7N7IH7ZKACRYAN&workerId=A1W7I6FN183I8F&assignmentId=39LOEL67OTRPD8LBC6ZGK5TZADV83G&a=7EL99&tp_a=7EL99&b=39LOEL67OTRPD8LBC6ZGK5TZADV83G&tp_b=39LOEL67OTRPD8LBC6ZGK5TZADV83G&c=365799&tp_c=365799","heads":1,"tails":1,"studentIndex":5,"studentTrueHypers":{"a":4,"b":1},"studentGuess":0.7142857142857143,"delta":0.2142857142857143,"totalExamples":2,"bonus":0,"bonusSoFar":0.99},{"rt":null,"stimulus":"Sending examples to student... ","response":null,"trial_type":"html-keyboard-response","trial_index":52,"time_elapsed":1075596,"internal_node_id":"0.0-44.0","params":{"nStudents":24,"maxFlips":30,"completionMinutes":45,"basePay":8,"maxBonus":9,"perTrialBonus":0.5,"perTrialBonusThreshold":0.05,"exampleCost":0.01},"classroomParams":{"A":{"a":1,"b":4},"B":{"a":4,"b":1},"C":{"a":2,"b":8},"D":{"a":8,"b":2}},"conditions":["nonSeqFull","nonSeqPartial","seqNoFeedback","seqFeedback"],"classroomPairings":[["A","B"],["C","D"]],"coinWeights":[0.2,0.5,0.8],"subjectId":"A1W7I6FN183I8F","assignmentId":"39LOEL67OTRPD8LBC6ZGK5TZADV83G","hitId":"3E9VAUV7BW02QFDK7N7IH7ZKACRYAN","url":"https://gershmanlab.com/experiments/alicia/teaching/experiment/?hitId=3E9VAUV7BW02QFDK7N7IH7ZKACRYAN&workerId=A1W7I6FN183I8F&assignmentId=39LOEL67OTRPD8LBC6ZGK5TZADV83G&a=7EL99&tp_a=7EL99&b=39LOEL67OTRPD8LBC6ZGK5TZADV83G&tp_b=39LOEL67OTRPD8LBC6ZGK5TZADV83G&c=365799&tp_c=365799"},{"rt":null,"stimulus":"Examples sent to student! Waiting for student...","response":null,"trial_type":"html-keyboard-response","trial_index":53,"time_elapsed":1081602,"internal_node_id":"0.0-45.0","params":{"nStudents":24,"maxFlips":30,"completionMinutes":45,"basePay":8,"maxBonus":9,"perTrialBonus":0.5,"perTrialBonusThreshold":0.05,"exampleCost":0.01},"classroomParams":{"A":{"a":1,"b":4},"B":{"a":4,"b":1},"C":{"a":2,"b":8},"D":{"a":8,"b":2}},"conditions":["nonSeqFull","nonSeqPartial","seqNoFeedback","seqFeedback"],"classroomPairings":[["A","B"],["C","D"]],"coinWeights":[0.2,0.5,0.8],"subjectId":"A1W7I6FN183I8F","assignmentId":"39LOEL67OTRPD8LBC6ZGK5TZADV83G","hitId":"3E9VAUV7BW02QFDK7N7IH7ZKACRYAN","url":"https://gershmanlab.com/experiments/alicia/teaching/experiment/?hitId=3E9VAUV7BW02QFDK7N7IH7ZKACRYAN&workerId=A1W7I6FN183I8F&assignmentId=39LOEL67OTRPD8LBC6ZGK5TZADV83G&a=7EL99&tp_a=7EL99&b=39LOEL67OTRPD8LBC6ZGK5TZADV83G&tp_b=39LOEL67OTRPD8LBC6ZGK5TZADV83G&c=365799&tp_c=365799"},{"rt":3185,"stimulus":"\n                <p>Student's guess for coin weight: <b style=\"color:Tomato;\">0.71</b></p>\n                <p>You received a bonus of <b>$0</b>. Total bonus so far: <b>$0.99</b></b></p>\n                <p></p>\n                <p>Press any key to continue.</p>\n                ","response":" ","trial_type":"html-keyboard-response","trial_index":54,"time_elapsed":1084788,"internal_node_id":"0.0-46.0","params":{"nStudents":24,"maxFlips":30,"completionMinutes":45,"basePay":8,"maxBonus":9,"perTrialBonus":0.5,"perTrialBonusThreshold":0.05,"exampleCost":0.01},"classroomParams":{"A":{"a":1,"b":4},"B":{"a":4,"b":1},"C":{"a":2,"b":8},"D":{"a":8,"b":2}},"conditions":["nonSeqFull","nonSeqPartial","seqNoFeedback","seqFeedback"],"classroomPairings":[["A","B"],["C","D"]],"coinWeights":[0.2,0.5,0.8],"subjectId":"A1W7I6FN183I8F","assignmentId":"39LOEL67OTRPD8LBC6ZGK5TZADV83G","hitId":"3E9VAUV7BW02QFDK7N7IH7ZKACRYAN","url":"https://gershmanlab.com/experiments/alicia/teaching/experiment/?hitId=3E9VAUV7BW02QFDK7N7IH7ZKACRYAN&workerId=A1W7I6FN183I8F&assignmentId=39LOEL67OTRPD8LBC6ZGK5TZADV83G&a=7EL99&tp_a=7EL99&b=39LOEL67OTRPD8LBC6ZGK5TZADV83G&tp_b=39LOEL67OTRPD8LBC6ZGK5TZADV83G&c=365799&tp_c=365799"},{"rt":null,"stimulus":"<div style=\"font-size:60px;\">Next student</div>","response":null,"trial_type":"html-keyboard-response","trial_index":55,"time_elapsed":1087790,"internal_node_id":"0.0-47.0-0.0","params":{"nStudents":24,"maxFlips":30,"completionMinutes":45,"basePay":8,"maxBonus":9,"perTrialBonus":0.5,"perTrialBonusThreshold":0.05,"exampleCost":0.01},"classroomParams":{"A":{"a":1,"b":4},"B":{"a":4,"b":1},"C":{"a":2,"b":8},"D":{"a":8,"b":2}},"conditions":["nonSeqFull","nonSeqPartial","seqNoFeedback","seqFeedback"],"classroomPairings":[["A","B"],["C","D"]],"coinWeights":[0.2,0.5,0.8],"subjectId":"A1W7I6FN183I8F","assignmentId":"39LOEL67OTRPD8LBC6ZGK5TZADV83G","hitId":"3E9VAUV7BW02QFDK7N7IH7ZKACRYAN","url":"https://gershmanlab.com/experiments/alicia/teaching/experiment/?hitId=3E9VAUV7BW02QFDK7N7IH7ZKACRYAN&workerId=A1W7I6FN183I8F&assignmentId=39LOEL67OTRPD8LBC6ZGK5TZADV83G&a=7EL99&tp_a=7EL99&b=39LOEL67OTRPD8LBC6ZGK5TZADV83G&tp_b=39LOEL67OTRPD8LBC6ZGK5TZADV83G&c=365799&tp_c=365799"},{"rt":1567,"stimulus":"\n            <h4 style=\"color:Orange;\">Student 7</h4>\n            <h2>The weight of your coin is <b style=\"color:Tomato;\">0.8</b>.</h2>\n            <p>In this block, you will be giving <b>one</b> set of examples to Student 7.</p>\n                <p>You will receive feedback at the end of the block.</p>\n            <p></p>","response":0,"trial_type":"html-button-response","trial_index":56,"time_elapsed":1089358,"internal_node_id":"0.0-48.0","params":{"nStudents":24,"maxFlips":30,"completionMinutes":45,"basePay":8,"maxBonus":9,"perTrialBonus":0.5,"perTrialBonusThreshold":0.05,"exampleCost":0.01},"classroomParams":{"A":{"a":1,"b":4},"B":{"a":4,"b":1},"C":{"a":2,"b":8},"D":{"a":8,"b":2}},"conditions":["nonSeqFull","nonSeqPartial","seqNoFeedback","seqFeedback"],"classroomPairings":[["A","B"],["C","D"]],"coinWeights":[0.2,0.5,0.8],"subjectId":"A1W7I6FN183I8F","assignmentId":"39LOEL67OTRPD8LBC6ZGK5TZADV83G","hitId":"3E9VAUV7BW02QFDK7N7IH7ZKACRYAN","url":"https://gershmanlab.com/experiments/alicia/teaching/experiment/?hitId=3E9VAUV7BW02QFDK7N7IH7ZKACRYAN&workerId=A1W7I6FN183I8F&assignmentId=39LOEL67OTRPD8LBC6ZGK5TZADV83G&a=7EL99&tp_a=7EL99&b=39LOEL67OTRPD8LBC6ZGK5TZADV83G&tp_b=39LOEL67OTRPD8LBC6ZGK5TZADV83G&c=365799&tp_c=365799"},{"rt":1397,"response":{"heads":"1","tails":"0"},"type":"response","condition":"nonSeqFull","trueTheta":0.8,"classrooms":["C","D"],"studentTrueClassroom":"D","exampleSet":"first","trial_type":"survey-html-form","trial_index":57,"time_elapsed":1090757,"internal_node_id":"0.0-49.0-0.0","params":{"nStudents":24,"maxFlips":30,"completionMinutes":45,"basePay":8,"maxBonus":9,"perTrialBonus":0.5,"perTrialBonusThreshold":0.05,"exampleCost":0.01},"classroomParams":{"A":{"a":1,"b":4},"B":{"a":4,"b":1},"C":{"a":2,"b":8},"D":{"a":8,"b":2}},"conditions":["nonSeqFull","nonSeqPartial","seqNoFeedback","seqFeedback"],"classroomPairings":[["A","B"],["C","D"]],"coinWeights":[0.2,0.5,0.8],"subjectId":"A1W7I6FN183I8F","assignmentId":"39LOEL67OTRPD8LBC6ZGK5TZADV83G","hitId":"3E9VAUV7BW02QFDK7N7IH7ZKACRYAN","url":"https://gershmanlab.com/experiments/alicia/teaching/experiment/?hitId=3E9VAUV7BW02QFDK7N7IH7ZKACRYAN&workerId=A1W7I6FN183I8F&assignmentId=39LOEL67OTRPD8LBC6ZGK5TZADV83G&a=7EL99&tp_a=7EL99&b=39LOEL67OTRPD8LBC6ZGK5TZADV83G&tp_b=39LOEL67OTRPD8LBC6ZGK5TZADV83G&c=365799&tp_c=365799","heads":1,"tails":0,"studentIndex":6,"studentTrueHypers":{"a":8,"b":2},"studentGuess":0.8181818181818182,"delta":0.018181818181818188,"totalExamples":1,"bonus":0.49,"bonusSoFar":1.48},{"rt":null,"stimulus":"Sending examples to student... ","response":null,"trial_type":"html-keyboard-response","trial_index":58,"time_elapsed":1092508,"internal_node_id":"0.0-50.0","params":{"nStudents":24,"maxFlips":30,"completionMinutes":45,"basePay":8,"maxBonus":9,"perTrialBonus":0.5,"perTrialBonusThreshold":0.05,"exampleCost":0.01},"classroomParams":{"A":{"a":1,"b":4},"B":{"a":4,"b":1},"C":{"a":2,"b":8},"D":{"a":8,"b":2}},"conditions":["nonSeqFull","nonSeqPartial","seqNoFeedback","seqFeedback"],"classroomPairings":[["A","B"],["C","D"]],"coinWeights":[0.2,0.5,0.8],"subjectId":"A1W7I6FN183I8F","assignmentId":"39LOEL67OTRPD8LBC6ZGK5TZADV83G","hitId":"3E9VAUV7BW02QFDK7N7IH7ZKACRYAN","url":"https://gershmanlab.com/experiments/alicia/teaching/experiment/?hitId=3E9VAUV7BW02QFDK7N7IH7ZKACRYAN&workerId=A1W7I6FN183I8F&assignmentId=39LOEL67OTRPD8LBC6ZGK5TZADV83G&a=7EL99&tp_a=7EL99&b=39LOEL67OTRPD8LBC6ZGK5TZADV83G&tp_b=39LOEL67OTRPD8LBC6ZGK5TZADV83G&c=365799&tp_c=365799"},{"rt":null,"stimulus":"Examples sent to student! Waiting for student...","response":null,"trial_type":"html-keyboard-response","trial_index":59,"time_elapsed":1096524,"internal_node_id":"0.0-51.0","params":{"nStudents":24,"maxFlips":30,"completionMinutes":45,"basePay":8,"maxBonus":9,"perTrialBonus":0.5,"perTrialBonusThreshold":0.05,"exampleCost":0.01},"classroomParams":{"A":{"a":1,"b":4},"B":{"a":4,"b":1},"C":{"a":2,"b":8},"D":{"a":8,"b":2}},"conditions":["nonSeqFull","nonSeqPartial","seqNoFeedback","seqFeedback"],"classroomPairings":[["A","B"],["C","D"]],"coinWeights":[0.2,0.5,0.8],"subjectId":"A1W7I6FN183I8F","assignmentId":"39LOEL67OTRPD8LBC6ZGK5TZADV83G","hitId":"3E9VAUV7BW02QFDK7N7IH7ZKACRYAN","url":"https://gershmanlab.com/experiments/alicia/teaching/experiment/?hitId=3E9VAUV7BW02QFDK7N7IH7ZKACRYAN&workerId=A1W7I6FN183I8F&assignmentId=39LOEL67OTRPD8LBC6ZGK5TZADV83G&a=7EL99&tp_a=7EL99&b=39LOEL67OTRPD8LBC6ZGK5TZADV83G&tp_b=39LOEL67OTRPD8LBC6ZGK5TZADV83G&c=365799&tp_c=365799"},{"rt":1794,"stimulus":"\n                <p>Student's guess for coin weight: <b style=\"color:Tomato;\">0.82</b></p>\n                <p>You received a bonus of <b>$0.49</b>. Total bonus so far: <b>$1.48</b></b></p>\n                <p></p>\n                <p>Press any key to continue.</p>\n                ","response":" ","trial_type":"html-keyboard-response","trial_index":60,"time_elapsed":1098319,"internal_node_id":"0.0-52.0","params":{"nStudents":24,"maxFlips":30,"completionMinutes":45,"basePay":8,"maxBonus":9,"perTrialBonus":0.5,"perTrialBonusThreshold":0.05,"exampleCost":0.01},"classroomParams":{"A":{"a":1,"b":4},"B":{"a":4,"b":1},"C":{"a":2,"b":8},"D":{"a":8,"b":2}},"conditions":["nonSeqFull","nonSeqPartial","seqNoFeedback","seqFeedback"],"classroomPairings":[["A","B"],["C","D"]],"coinWeights":[0.2,0.5,0.8],"subjectId":"A1W7I6FN183I8F","assignmentId":"39LOEL67OTRPD8LBC6ZGK5TZADV83G","hitId":"3E9VAUV7BW02QFDK7N7IH7ZKACRYAN","url":"https://gershmanlab.com/experiments/alicia/teaching/experiment/?hitId=3E9VAUV7BW02QFDK7N7IH7ZKACRYAN&workerId=A1W7I6FN183I8F&assignmentId=39LOEL67OTRPD8LBC6ZGK5TZADV83G&a=7EL99&tp_a=7EL99&b=39LOEL67OTRPD8LBC6ZGK5TZADV83G&tp_b=39LOEL67OTRPD8LBC6ZGK5TZADV83G&c=365799&tp_c=365799"},{"rt":null,"stimulus":"<div style=\"font-size:60px;\">Next student</div>","response":null,"trial_type":"html-keyboard-response","trial_index":61,"time_elapsed":1100821,"internal_node_id":"0.0-53.0-0.0","params":{"nStudents":24,"maxFlips":30,"completionMinutes":45,"basePay":8,"maxBonus":9,"perTrialBonus":0.5,"perTrialBonusThreshold":0.05,"exampleCost":0.01},"classroomParams":{"A":{"a":1,"b":4},"B":{"a":4,"b":1},"C":{"a":2,"b":8},"D":{"a":8,"b":2}},"conditions":["nonSeqFull","nonSeqPartial","seqNoFeedback","seqFeedback"],"classroomPairings":[["A","B"],["C","D"]],"coinWeights":[0.2,0.5,0.8],"subjectId":"A1W7I6FN183I8F","assignmentId":"39LOEL67OTRPD8LBC6ZGK5TZADV83G","hitId":"3E9VAUV7BW02QFDK7N7IH7ZKACRYAN","url":"https://gershmanlab.com/experiments/alicia/teaching/experiment/?hitId=3E9VAUV7BW02QFDK7N7IH7ZKACRYAN&workerId=A1W7I6FN183I8F&assignmentId=39LOEL67OTRPD8LBC6ZGK5TZADV83G&a=7EL99&tp_a=7EL99&b=39LOEL67OTRPD8LBC6ZGK5TZADV83G&tp_b=39LOEL67OTRPD8LBC6ZGK5TZADV83G&c=365799&tp_c=365799"},{"rt":1671,"stimulus":"\n            <h4 style=\"color:Orange;\">Student 8</h4>\n            <h2>The weight of your coin is <b style=\"color:Tomato;\">0.2</b>.</h2>\n            <p>In this block, you will be giving <b>two</b> sets of examples to Student 8.</p>\n                <p>You will receive feedback at the end of the block.</p>\n            <p></p>","response":0,"trial_type":"html-button-response","trial_index":62,"time_elapsed":1102492,"internal_node_id":"0.0-54.0","params":{"nStudents":24,"maxFlips":30,"completionMinutes":45,"basePay":8,"maxBonus":9,"perTrialBonus":0.5,"perTrialBonusThreshold":0.05,"exampleCost":0.01},"classroomParams":{"A":{"a":1,"b":4},"B":{"a":4,"b":1},"C":{"a":2,"b":8},"D":{"a":8,"b":2}},"conditions":["nonSeqFull","nonSeqPartial","seqNoFeedback","seqFeedback"],"classroomPairings":[["A","B"],["C","D"]],"coinWeights":[0.2,0.5,0.8],"subjectId":"A1W7I6FN183I8F","assignmentId":"39LOEL67OTRPD8LBC6ZGK5TZADV83G","hitId":"3E9VAUV7BW02QFDK7N7IH7ZKACRYAN","url":"https://gershmanlab.com/experiments/alicia/teaching/experiment/?hitId=3E9VAUV7BW02QFDK7N7IH7ZKACRYAN&workerId=A1W7I6FN183I8F&assignmentId=39LOEL67OTRPD8LBC6ZGK5TZADV83G&a=7EL99&tp_a=7EL99&b=39LOEL67OTRPD8LBC6ZGK5TZADV83G&tp_b=39LOEL67OTRPD8LBC6ZGK5TZADV83G&c=365799&tp_c=365799"},{"rt":1928,"response":{"heads":"0","tails":"1"},"type":"response","condition":"seqNoFeedback","trueTheta":0.2,"classrooms":["C","D"],"studentTrueClassroom":"D","exampleSet":"first","trial_type":"survey-html-form","trial_index":63,"time_elapsed":1104420,"internal_node_id":"0.0-55.0-0.0","params":{"nStudents":24,"maxFlips":30,"completionMinutes":45,"basePay":8,"maxBonus":9,"perTrialBonus":0.5,"perTrialBonusThreshold":0.05,"exampleCost":0.01},"classroomParams":{"A":{"a":1,"b":4},"B":{"a":4,"b":1},"C":{"a":2,"b":8},"D":{"a":8,"b":2}},"conditions":["nonSeqFull","nonSeqPartial","seqNoFeedback","seqFeedback"],"classroomPairings":[["A","B"],["C","D"]],"coinWeights":[0.2,0.5,0.8],"subjectId":"A1W7I6FN183I8F","assignmentId":"39LOEL67OTRPD8LBC6ZGK5TZADV83G","hitId":"3E9VAUV7BW02QFDK7N7IH7ZKACRYAN","url":"https://gershmanlab.com/experiments/alicia/teaching/experiment/?hitId=3E9VAUV7BW02QFDK7N7IH7ZKACRYAN&workerId=A1W7I6FN183I8F&assignmentId=39LOEL67OTRPD8LBC6ZGK5TZADV83G&a=7EL99&tp_a=7EL99&b=39LOEL67OTRPD8LBC6ZGK5TZADV83G&tp_b=39LOEL67OTRPD8LBC6ZGK5TZADV83G&c=365799&tp_c=365799","heads":0,"tails":1,"studentIndex":7,"studentTrueHypers":{"a":8,"b":2},"studentGuess":0.7272727272727273,"delta":0.5272727272727273,"totalExamples":1,"bonusSoFar":1.48},{"rt":null,"stimulus":"Sending examples to student... ","response":null,"trial_type":"html-keyboard-response","trial_index":64,"time_elapsed":1105929,"internal_node_id":"0.0-56.0","params":{"nStudents":24,"maxFlips":30,"completionMinutes":45,"basePay":8,"maxBonus":9,"perTrialBonus":0.5,"perTrialBonusThreshold":0.05,"exampleCost":0.01},"classroomParams":{"A":{"a":1,"b":4},"B":{"a":4,"b":1},"C":{"a":2,"b":8},"D":{"a":8,"b":2}},"conditions":["nonSeqFull","nonSeqPartial","seqNoFeedback","seqFeedback"],"classroomPairings":[["A","B"],["C","D"]],"coinWeights":[0.2,0.5,0.8],"subjectId":"A1W7I6FN183I8F","assignmentId":"39LOEL67OTRPD8LBC6ZGK5TZADV83G","hitId":"3E9VAUV7BW02QFDK7N7IH7ZKACRYAN","url":"https://gershmanlab.com/experiments/alicia/teaching/experiment/?hitId=3E9VAUV7BW02QFDK7N7IH7ZKACRYAN&workerId=A1W7I6FN183I8F&assignmentId=39LOEL67OTRPD8LBC6ZGK5TZADV83G&a=7EL99&tp_a=7EL99&b=39LOEL67OTRPD8LBC6ZGK5TZADV83G&tp_b=39LOEL67OTRPD8LBC6ZGK5TZADV83G&c=365799&tp_c=365799"},{"rt":null,"stimulus":"Examples sent to student! Waiting for student...","response":null,"trial_type":"html-keyboard-response","trial_index":65,"time_elapsed":1109930,"internal_node_id":"0.0-57.0","params":{"nStudents":24,"maxFlips":30,"completionMinutes":45,"basePay":8,"maxBonus":9,"perTrialBonus":0.5,"perTrialBonusThreshold":0.05,"exampleCost":0.01},"classroomParams":{"A":{"a":1,"b":4},"B":{"a":4,"b":1},"C":{"a":2,"b":8},"D":{"a":8,"b":2}},"conditions":["nonSeqFull","nonSeqPartial","seqNoFeedback","seqFeedback"],"classroomPairings":[["A","B"],["C","D"]],"coinWeights":[0.2,0.5,0.8],"subjectId":"A1W7I6FN183I8F","assignmentId":"39LOEL67OTRPD8LBC6ZGK5TZADV83G","hitId":"3E9VAUV7BW02QFDK7N7IH7ZKACRYAN","url":"https://gershmanlab.com/experiments/alicia/teaching/experiment/?hitId=3E9VAUV7BW02QFDK7N7IH7ZKACRYAN&workerId=A1W7I6FN183I8F&assignmentId=39LOEL67OTRPD8LBC6ZGK5TZADV83G&a=7EL99&tp_a=7EL99&b=39LOEL67OTRPD8LBC6ZGK5TZADV83G&tp_b=39LOEL67OTRPD8LBC6ZGK5TZADV83G&c=365799&tp_c=365799"},{"rt":4785,"response":{"heads":"0","tails":"1"},"type":"response","condition":"seqNoFeedback","trueTheta":0.2,"classrooms":["C","D"],"studentTrueClassroom":"D","exampleSet":"second","trial_type":"survey-html-form","trial_index":66,"time_elapsed":1114716,"internal_node_id":"0.0-58.0-0.0","params":{"nStudents":24,"maxFlips":30,"completionMinutes":45,"basePay":8,"maxBonus":9,"perTrialBonus":0.5,"perTrialBonusThreshold":0.05,"exampleCost":0.01},"classroomParams":{"A":{"a":1,"b":4},"B":{"a":4,"b":1},"C":{"a":2,"b":8},"D":{"a":8,"b":2}},"conditions":["nonSeqFull","nonSeqPartial","seqNoFeedback","seqFeedback"],"classroomPairings":[["A","B"],["C","D"]],"coinWeights":[0.2,0.5,0.8],"subjectId":"A1W7I6FN183I8F","assignmentId":"39LOEL67OTRPD8LBC6ZGK5TZADV83G","hitId":"3E9VAUV7BW02QFDK7N7IH7ZKACRYAN","url":"https://gershmanlab.com/experiments/alicia/teaching/experiment/?hitId=3E9VAUV7BW02QFDK7N7IH7ZKACRYAN&workerId=A1W7I6FN183I8F&assignmentId=39LOEL67OTRPD8LBC6ZGK5TZADV83G&a=7EL99&tp_a=7EL99&b=39LOEL67OTRPD8LBC6ZGK5TZADV83G&tp_b=39LOEL67OTRPD8LBC6ZGK5TZADV83G&c=365799&tp_c=365799","firstResponseHeads":0,"firstResponseTails":1,"secondResponseHeads":0,"secondResponseTails":1,"totalHeads":0,"totalTails":2,"studentIndex":7,"studentTrueHypers":{"a":8,"b":2},"studentGuess":0.6666666666666666,"delta":0.4666666666666666,"bonus":0,"bonusSoFar":1.48,"totalExamples":2},{"rt":null,"stimulus":"Sending examples to student... ","response":null,"trial_type":"html-keyboard-response","trial_index":67,"time_elapsed":1116467,"internal_node_id":"0.0-59.0","params":{"nStudents":24,"maxFlips":30,"completionMinutes":45,"basePay":8,"maxBonus":9,"perTrialBonus":0.5,"perTrialBonusThreshold":0.05,"exampleCost":0.01},"classroomParams":{"A":{"a":1,"b":4},"B":{"a":4,"b":1},"C":{"a":2,"b":8},"D":{"a":8,"b":2}},"conditions":["nonSeqFull","nonSeqPartial","seqNoFeedback","seqFeedback"],"classroomPairings":[["A","B"],["C","D"]],"coinWeights":[0.2,0.5,0.8],"subjectId":"A1W7I6FN183I8F","assignmentId":"39LOEL67OTRPD8LBC6ZGK5TZADV83G","hitId":"3E9VAUV7BW02QFDK7N7IH7ZKACRYAN","url":"https://gershmanlab.com/experiments/alicia/teaching/experiment/?hitId=3E9VAUV7BW02QFDK7N7IH7ZKACRYAN&workerId=A1W7I6FN183I8F&assignmentId=39LOEL67OTRPD8LBC6ZGK5TZADV83G&a=7EL99&tp_a=7EL99&b=39LOEL67OTRPD8LBC6ZGK5TZADV83G&tp_b=39LOEL67OTRPD8LBC6ZGK5TZADV83G&c=365799&tp_c=365799"},{"rt":null,"stimulus":"Examples sent to student! Waiting for student...","response":null,"trial_type":"html-keyboard-response","trial_index":68,"time_elapsed":1122682,"internal_node_id":"0.0-60.0","params":{"nStudents":24,"maxFlips":30,"completionMinutes":45,"basePay":8,"maxBonus":9,"perTrialBonus":0.5,"perTrialBonusThreshold":0.05,"exampleCost":0.01},"classroomParams":{"A":{"a":1,"b":4},"B":{"a":4,"b":1},"C":{"a":2,"b":8},"D":{"a":8,"b":2}},"conditions":["nonSeqFull","nonSeqPartial","seqNoFeedback","seqFeedback"],"classroomPairings":[["A","B"],["C","D"]],"coinWeights":[0.2,0.5,0.8],"subjectId":"A1W7I6FN183I8F","assignmentId":"39LOEL67OTRPD8LBC6ZGK5TZADV83G","hitId":"3E9VAUV7BW02QFDK7N7IH7ZKACRYAN","url":"https://gershmanlab.com/experiments/alicia/teaching/experiment/?hitId=3E9VAUV7BW02QFDK7N7IH7ZKACRYAN&workerId=A1W7I6FN183I8F&assignmentId=39LOEL67OTRPD8LBC6ZGK5TZADV83G&a=7EL99&tp_a=7EL99&b=39LOEL67OTRPD8LBC6ZGK5TZADV83G&tp_b=39LOEL67OTRPD8LBC6ZGK5TZADV83G&c=365799&tp_c=365799"},{"rt":2199,"stimulus":"\n                <p>Student 8's first guess for coin weight: <b style=\"color:Tomato\";>0.73</b></p>\n                <p>Student 8's second guess for coin weight: <b style=\"color:Tomato\";>0.67</b></p>\n                <p>You received a bonus of <b>$0.00</b> based on the student's second guess.</p>\n                <p>Total bonus so far: <b>$1.48</b></p>\n                <p>Press any key to continue.</p>\n                ","response":" ","trial_type":"html-keyboard-response","trial_index":69,"time_elapsed":1124882,"internal_node_id":"0.0-61.0","params":{"nStudents":24,"maxFlips":30,"completionMinutes":45,"basePay":8,"maxBonus":9,"perTrialBonus":0.5,"perTrialBonusThreshold":0.05,"exampleCost":0.01},"classroomParams":{"A":{"a":1,"b":4},"B":{"a":4,"b":1},"C":{"a":2,"b":8},"D":{"a":8,"b":2}},"conditions":["nonSeqFull","nonSeqPartial","seqNoFeedback","seqFeedback"],"classroomPairings":[["A","B"],["C","D"]],"coinWeights":[0.2,0.5,0.8],"subjectId":"A1W7I6FN183I8F","assignmentId":"39LOEL67OTRPD8LBC6ZGK5TZADV83G","hitId":"3E9VAUV7BW02QFDK7N7IH7ZKACRYAN","url":"https://gershmanlab.com/experiments/alicia/teaching/experiment/?hitId=3E9VAUV7BW02QFDK7N7IH7ZKACRYAN&workerId=A1W7I6FN183I8F&assignmentId=39LOEL67OTRPD8LBC6ZGK5TZADV83G&a=7EL99&tp_a=7EL99&b=39LOEL67OTRPD8LBC6ZGK5TZADV83G&tp_b=39LOEL67OTRPD8LBC6ZGK5TZADV83G&c=365799&tp_c=365799"},{"rt":null,"stimulus":"<div style=\"font-size:60px;\">Next student</div>","response":null,"trial_type":"html-keyboard-response","trial_index":70,"time_elapsed":1126885,"internal_node_id":"0.0-62.0-0.0","params":{"nStudents":24,"maxFlips":30,"completionMinutes":45,"basePay":8,"maxBonus":9,"perTrialBonus":0.5,"perTrialBonusThreshold":0.05,"exampleCost":0.01},"classroomParams":{"A":{"a":1,"b":4},"B":{"a":4,"b":1},"C":{"a":2,"b":8},"D":{"a":8,"b":2}},"conditions":["nonSeqFull","nonSeqPartial","seqNoFeedback","seqFeedback"],"classroomPairings":[["A","B"],["C","D"]],"coinWeights":[0.2,0.5,0.8],"subjectId":"A1W7I6FN183I8F","assignmentId":"39LOEL67OTRPD8LBC6ZGK5TZADV83G","hitId":"3E9VAUV7BW02QFDK7N7IH7ZKACRYAN","url":"https://gershmanlab.com/experiments/alicia/teaching/experiment/?hitId=3E9VAUV7BW02QFDK7N7IH7ZKACRYAN&workerId=A1W7I6FN183I8F&assignmentId=39LOEL67OTRPD8LBC6ZGK5TZADV83G&a=7EL99&tp_a=7EL99&b=39LOEL67OTRPD8LBC6ZGK5TZADV83G&tp_b=39LOEL67OTRPD8LBC6ZGK5TZADV83G&c=365799&tp_c=365799"},{"rt":1296,"stimulus":"\n            <h4 style=\"color:Orange;\">Student 9</h4>\n            <h2>The weight of your coin is <b style=\"color:Tomato;\">0.5</b>.</h2>\n            <p>In this block, you will be giving <b>one</b> set of examples to Student 9.</p>\n                <p>You will receive feedback at the end of the block.</p>\n            <p></p>","response":0,"trial_type":"html-button-response","trial_index":71,"time_elapsed":1128181,"internal_node_id":"0.0-63.0","params":{"nStudents":24,"maxFlips":30,"completionMinutes":45,"basePay":8,"maxBonus":9,"perTrialBonus":0.5,"perTrialBonusThreshold":0.05,"exampleCost":0.01},"classroomParams":{"A":{"a":1,"b":4},"B":{"a":4,"b":1},"C":{"a":2,"b":8},"D":{"a":8,"b":2}},"conditions":["nonSeqFull","nonSeqPartial","seqNoFeedback","seqFeedback"],"classroomPairings":[["A","B"],["C","D"]],"coinWeights":[0.2,0.5,0.8],"subjectId":"A1W7I6FN183I8F","assignmentId":"39LOEL67OTRPD8LBC6ZGK5TZADV83G","hitId":"3E9VAUV7BW02QFDK7N7IH7ZKACRYAN","url":"https://gershmanlab.com/experiments/alicia/teaching/experiment/?hitId=3E9VAUV7BW02QFDK7N7IH7ZKACRYAN&workerId=A1W7I6FN183I8F&assignmentId=39LOEL67OTRPD8LBC6ZGK5TZADV83G&a=7EL99&tp_a=7EL99&b=39LOEL67OTRPD8LBC6ZGK5TZADV83G&tp_b=39LOEL67OTRPD8LBC6ZGK5TZADV83G&c=365799&tp_c=365799"},{"rt":3431,"response":{"heads":"1","tails":"1"},"type":"response","condition":"nonSeqPartial","trueTheta":0.5,"classrooms":["C","D"],"studentTrueClassroom":"D","exampleSet":"first","trial_type":"survey-html-form","trial_index":72,"time_elapsed":1131614,"internal_node_id":"0.0-64.0-0.0","params":{"nStudents":24,"maxFlips":30,"completionMinutes":45,"basePay":8,"maxBonus":9,"perTrialBonus":0.5,"perTrialBonusThreshold":0.05,"exampleCost":0.01},"classroomParams":{"A":{"a":1,"b":4},"B":{"a":4,"b":1},"C":{"a":2,"b":8},"D":{"a":8,"b":2}},"conditions":["nonSeqFull","nonSeqPartial","seqNoFeedback","seqFeedback"],"classroomPairings":[["A","B"],["C","D"]],"coinWeights":[0.2,0.5,0.8],"subjectId":"A1W7I6FN183I8F","assignmentId":"39LOEL67OTRPD8LBC6ZGK5TZADV83G","hitId":"3E9VAUV7BW02QFDK7N7IH7ZKACRYAN","url":"https://gershmanlab.com/experiments/alicia/teaching/experiment/?hitId=3E9VAUV7BW02QFDK7N7IH7ZKACRYAN&workerId=A1W7I6FN183I8F&assignmentId=39LOEL67OTRPD8LBC6ZGK5TZADV83G&a=7EL99&tp_a=7EL99&b=39LOEL67OTRPD8LBC6ZGK5TZADV83G&tp_b=39LOEL67OTRPD8LBC6ZGK5TZADV83G&c=365799&tp_c=365799","heads":1,"tails":1,"studentIndex":8,"studentTrueHypers":{"a":8,"b":2},"studentGuess":0.75,"delta":0.25,"totalExamples":2,"bonus":0,"bonusSoFar":1.48},{"rt":null,"stimulus":"Sending examples to student... ","response":null,"trial_type":"html-keyboard-response","trial_index":73,"time_elapsed":1133623,"internal_node_id":"0.0-65.0","params":{"nStudents":24,"maxFlips":30,"completionMinutes":45,"basePay":8,"maxBonus":9,"perTrialBonus":0.5,"perTrialBonusThreshold":0.05,"exampleCost":0.01},"classroomParams":{"A":{"a":1,"b":4},"B":{"a":4,"b":1},"C":{"a":2,"b":8},"D":{"a":8,"b":2}},"conditions":["nonSeqFull","nonSeqPartial","seqNoFeedback","seqFeedback"],"classroomPairings":[["A","B"],["C","D"]],"coinWeights":[0.2,0.5,0.8],"subjectId":"A1W7I6FN183I8F","assignmentId":"39LOEL67OTRPD8LBC6ZGK5TZADV83G","hitId":"3E9VAUV7BW02QFDK7N7IH7ZKACRYAN","url":"https://gershmanlab.com/experiments/alicia/teaching/experiment/?hitId=3E9VAUV7BW02QFDK7N7IH7ZKACRYAN&workerId=A1W7I6FN183I8F&assignmentId=39LOEL67OTRPD8LBC6ZGK5TZADV83G&a=7EL99&tp_a=7EL99&b=39LOEL67OTRPD8LBC6ZGK5TZADV83G&tp_b=39LOEL67OTRPD8LBC6ZGK5TZADV83G&c=365799&tp_c=365799"},{"rt":null,"stimulus":"Examples sent to student! Waiting for student...","response":null,"trial_type":"html-keyboard-response","trial_index":74,"time_elapsed":1138631,"internal_node_id":"0.0-66.0","params":{"nStudents":24,"maxFlips":30,"completionMinutes":45,"basePay":8,"maxBonus":9,"perTrialBonus":0.5,"perTrialBonusThreshold":0.05,"exampleCost":0.01},"classroomParams":{"A":{"a":1,"b":4},"B":{"a":4,"b":1},"C":{"a":2,"b":8},"D":{"a":8,"b":2}},"conditions":["nonSeqFull","nonSeqPartial","seqNoFeedback","seqFeedback"],"classroomPairings":[["A","B"],["C","D"]],"coinWeights":[0.2,0.5,0.8],"subjectId":"A1W7I6FN183I8F","assignmentId":"39LOEL67OTRPD8LBC6ZGK5TZADV83G","hitId":"3E9VAUV7BW02QFDK7N7IH7ZKACRYAN","url":"https://gershmanlab.com/experiments/alicia/teaching/experiment/?hitId=3E9VAUV7BW02QFDK7N7IH7ZKACRYAN&workerId=A1W7I6FN183I8F&assignmentId=39LOEL67OTRPD8LBC6ZGK5TZADV83G&a=7EL99&tp_a=7EL99&b=39LOEL67OTRPD8LBC6ZGK5TZADV83G&tp_b=39LOEL67OTRPD8LBC6ZGK5TZADV83G&c=365799&tp_c=365799"},{"rt":6757,"stimulus":"\n                <p>Student's guess for coin weight: <b style=\"color:Tomato;\">0.75</b></p>\n                <p>You received a bonus of <b>$0</b>. Total bonus so far: <b>$1.48</b></b></p>\n                <p></p>\n                <p>Press any key to continue.</p>\n                ","response":" ","trial_type":"html-keyboard-response","trial_index":75,"time_elapsed":1145389,"internal_node_id":"0.0-67.0","params":{"nStudents":24,"maxFlips":30,"completionMinutes":45,"basePay":8,"maxBonus":9,"perTrialBonus":0.5,"perTrialBonusThreshold":0.05,"exampleCost":0.01},"classroomParams":{"A":{"a":1,"b":4},"B":{"a":4,"b":1},"C":{"a":2,"b":8},"D":{"a":8,"b":2}},"conditions":["nonSeqFull","nonSeqPartial","seqNoFeedback","seqFeedback"],"classroomPairings":[["A","B"],["C","D"]],"coinWeights":[0.2,0.5,0.8],"subjectId":"A1W7I6FN183I8F","assignmentId":"39LOEL67OTRPD8LBC6ZGK5TZADV83G","hitId":"3E9VAUV7BW02QFDK7N7IH7ZKACRYAN","url":"https://gershmanlab.com/experiments/alicia/teaching/experiment/?hitId=3E9VAUV7BW02QFDK7N7IH7ZKACRYAN&workerId=A1W7I6FN183I8F&assignmentId=39LOEL67OTRPD8LBC6ZGK5TZADV83G&a=7EL99&tp_a=7EL99&b=39LOEL67OTRPD8LBC6ZGK5TZADV83G&tp_b=39LOEL67OTRPD8LBC6ZGK5TZADV83G&c=365799&tp_c=365799"},{"rt":null,"stimulus":"<div style=\"font-size:60px;\">Next student</div>","response":null,"trial_type":"html-keyboard-response","trial_index":76,"time_elapsed":1147656,"internal_node_id":"0.0-68.0-0.0","params":{"nStudents":24,"maxFlips":30,"completionMinutes":45,"basePay":8,"maxBonus":9,"perTrialBonus":0.5,"perTrialBonusThreshold":0.05,"exampleCost":0.01},"classroomParams":{"A":{"a":1,"b":4},"B":{"a":4,"b":1},"C":{"a":2,"b":8},"D":{"a":8,"b":2}},"conditions":["nonSeqFull","nonSeqPartial","seqNoFeedback","seqFeedback"],"classroomPairings":[["A","B"],["C","D"]],"coinWeights":[0.2,0.5,0.8],"subjectId":"A1W7I6FN183I8F","assignmentId":"39LOEL67OTRPD8LBC6ZGK5TZADV83G","hitId":"3E9VAUV7BW02QFDK7N7IH7ZKACRYAN","url":"https://gershmanlab.com/experiments/alicia/teaching/experiment/?hitId=3E9VAUV7BW02QFDK7N7IH7ZKACRYAN&workerId=A1W7I6FN183I8F&assignmentId=39LOEL67OTRPD8LBC6ZGK5TZADV83G&a=7EL99&tp_a=7EL99&b=39LOEL67OTRPD8LBC6ZGK5TZADV83G&tp_b=39LOEL67OTRPD8LBC6ZGK5TZADV83G&c=365799&tp_c=365799"},{"rt":2828,"stimulus":"\n            <h4 style=\"color:Orange;\">Student 10</h4>\n            <h2>The weight of your coin is <b style=\"color:Tomato;\">0.8</b>.</h2>\n            <p>In this block, you will be giving <b>one</b> set of examples to Student 10.</p>\n                <p>You will receive feedback at the end of the block.</p>\n            <p></p>","response":0,"trial_type":"html-button-response","trial_index":77,"time_elapsed":1150485,"internal_node_id":"0.0-69.0","params":{"nStudents":24,"maxFlips":30,"completionMinutes":45,"basePay":8,"maxBonus":9,"perTrialBonus":0.5,"perTrialBonusThreshold":0.05,"exampleCost":0.01},"classroomParams":{"A":{"a":1,"b":4},"B":{"a":4,"b":1},"C":{"a":2,"b":8},"D":{"a":8,"b":2}},"conditions":["nonSeqFull","nonSeqPartial","seqNoFeedback","seqFeedback"],"classroomPairings":[["A","B"],["C","D"]],"coinWeights":[0.2,0.5,0.8],"subjectId":"A1W7I6FN183I8F","assignmentId":"39LOEL67OTRPD8LBC6ZGK5TZADV83G","hitId":"3E9VAUV7BW02QFDK7N7IH7ZKACRYAN","url":"https://gershmanlab.com/experiments/alicia/teaching/experiment/?hitId=3E9VAUV7BW02QFDK7N7IH7ZKACRYAN&workerId=A1W7I6FN183I8F&assignmentId=39LOEL67OTRPD8LBC6ZGK5TZADV83G&a=7EL99&tp_a=7EL99&b=39LOEL67OTRPD8LBC6ZGK5TZADV83G&tp_b=39LOEL67OTRPD8LBC6ZGK5TZADV83G&c=365799&tp_c=365799"},{"rt":5286,"response":{"heads":"1","tails":"0"},"type":"response","condition":"nonSeqFull","trueTheta":0.8,"classrooms":["A","B"],"studentTrueClassroom":"B","exampleSet":"first","trial_type":"survey-html-form","trial_index":78,"time_elapsed":1155773,"internal_node_id":"0.0-70.0-0.0","params":{"nStudents":24,"maxFlips":30,"completionMinutes":45,"basePay":8,"maxBonus":9,"perTrialBonus":0.5,"perTrialBonusThreshold":0.05,"exampleCost":0.01},"classroomParams":{"A":{"a":1,"b":4},"B":{"a":4,"b":1},"C":{"a":2,"b":8},"D":{"a":8,"b":2}},"conditions":["nonSeqFull","nonSeqPartial","seqNoFeedback","seqFeedback"],"classroomPairings":[["A","B"],["C","D"]],"coinWeights":[0.2,0.5,0.8],"subjectId":"A1W7I6FN183I8F","assignmentId":"39LOEL67OTRPD8LBC6ZGK5TZADV83G","hitId":"3E9VAUV7BW02QFDK7N7IH7ZKACRYAN","url":"https://gershmanlab.com/experiments/alicia/teaching/experiment/?hitId=3E9VAUV7BW02QFDK7N7IH7ZKACRYAN&workerId=A1W7I6FN183I8F&assignmentId=39LOEL67OTRPD8LBC6ZGK5TZADV83G&a=7EL99&tp_a=7EL99&b=39LOEL67OTRPD8LBC6ZGK5TZADV83G&tp_b=39LOEL67OTRPD8LBC6ZGK5TZADV83G&c=365799&tp_c=365799","heads":1,"tails":0,"studentIndex":9,"studentTrueHypers":{"a":4,"b":1},"studentGuess":0.8333333333333334,"delta":0.033333333333333326,"totalExamples":1,"bonus":0.49,"bonusSoFar":1.97},{"rt":null,"stimulus":"Sending examples to student... ","response":null,"trial_type":"html-keyboard-response","trial_index":79,"time_elapsed":1157026,"internal_node_id":"0.0-71.0","params":{"nStudents":24,"maxFlips":30,"completionMinutes":45,"basePay":8,"maxBonus":9,"perTrialBonus":0.5,"perTrialBonusThreshold":0.05,"exampleCost":0.01},"classroomParams":{"A":{"a":1,"b":4},"B":{"a":4,"b":1},"C":{"a":2,"b":8},"D":{"a":8,"b":2}},"conditions":["nonSeqFull","nonSeqPartial","seqNoFeedback","seqFeedback"],"classroomPairings":[["A","B"],["C","D"]],"coinWeights":[0.2,0.5,0.8],"subjectId":"A1W7I6FN183I8F","assignmentId":"39LOEL67OTRPD8LBC6ZGK5TZADV83G","hitId":"3E9VAUV7BW02QFDK7N7IH7ZKACRYAN","url":"https://gershmanlab.com/experiments/alicia/teaching/experiment/?hitId=3E9VAUV7BW02QFDK7N7IH7ZKACRYAN&workerId=A1W7I6FN183I8F&assignmentId=39LOEL67OTRPD8LBC6ZGK5TZADV83G&a=7EL99&tp_a=7EL99&b=39LOEL67OTRPD8LBC6ZGK5TZADV83G&tp_b=39LOEL67OTRPD8LBC6ZGK5TZADV83G&c=365799&tp_c=365799"},{"rt":null,"stimulus":"Examples sent to student! Waiting for student...","response":null,"trial_type":"html-keyboard-response","trial_index":80,"time_elapsed":1163037,"internal_node_id":"0.0-72.0","params":{"nStudents":24,"maxFlips":30,"completionMinutes":45,"basePay":8,"maxBonus":9,"perTrialBonus":0.5,"perTrialBonusThreshold":0.05,"exampleCost":0.01},"classroomParams":{"A":{"a":1,"b":4},"B":{"a":4,"b":1},"C":{"a":2,"b":8},"D":{"a":8,"b":2}},"conditions":["nonSeqFull","nonSeqPartial","seqNoFeedback","seqFeedback"],"classroomPairings":[["A","B"],["C","D"]],"coinWeights":[0.2,0.5,0.8],"subjectId":"A1W7I6FN183I8F","assignmentId":"39LOEL67OTRPD8LBC6ZGK5TZADV83G","hitId":"3E9VAUV7BW02QFDK7N7IH7ZKACRYAN","url":"https://gershmanlab.com/experiments/alicia/teaching/experiment/?hitId=3E9VAUV7BW02QFDK7N7IH7ZKACRYAN&workerId=A1W7I6FN183I8F&assignmentId=39LOEL67OTRPD8LBC6ZGK5TZADV83G&a=7EL99&tp_a=7EL99&b=39LOEL67OTRPD8LBC6ZGK5TZADV83G&tp_b=39LOEL67OTRPD8LBC6ZGK5TZADV83G&c=365799&tp_c=365799"},{"rt":6013,"stimulus":"\n                <p>Student's guess for coin weight: <b style=\"color:Tomato;\">0.83</b></p>\n                <p>You received a bonus of <b>$0.49</b>. Total bonus so far: <b>$1.97</b></b></p>\n                <p></p>\n                <p>Press any key to continue.</p>\n                ","response":" ","trial_type":"html-keyboard-response","trial_index":81,"time_elapsed":1169052,"internal_node_id":"0.0-73.0","params":{"nStudents":24,"maxFlips":30,"completionMinutes":45,"basePay":8,"maxBonus":9,"perTrialBonus":0.5,"perTrialBonusThreshold":0.05,"exampleCost":0.01},"classroomParams":{"A":{"a":1,"b":4},"B":{"a":4,"b":1},"C":{"a":2,"b":8},"D":{"a":8,"b":2}},"conditions":["nonSeqFull","nonSeqPartial","seqNoFeedback","seqFeedback"],"classroomPairings":[["A","B"],["C","D"]],"coinWeights":[0.2,0.5,0.8],"subjectId":"A1W7I6FN183I8F","assignmentId":"39LOEL67OTRPD8LBC6ZGK5TZADV83G","hitId":"3E9VAUV7BW02QFDK7N7IH7ZKACRYAN","url":"https://gershmanlab.com/experiments/alicia/teaching/experiment/?hitId=3E9VAUV7BW02QFDK7N7IH7ZKACRYAN&workerId=A1W7I6FN183I8F&assignmentId=39LOEL67OTRPD8LBC6ZGK5TZADV83G&a=7EL99&tp_a=7EL99&b=39LOEL67OTRPD8LBC6ZGK5TZADV83G&tp_b=39LOEL67OTRPD8LBC6ZGK5TZADV83G&c=365799&tp_c=365799"},{"rt":null,"stimulus":"<div style=\"font-size:60px;\">Next student</div>","response":null,"trial_type":"html-keyboard-response","trial_index":82,"time_elapsed":1171559,"internal_node_id":"0.0-74.0-0.0","params":{"nStudents":24,"maxFlips":30,"completionMinutes":45,"basePay":8,"maxBonus":9,"perTrialBonus":0.5,"perTrialBonusThreshold":0.05,"exampleCost":0.01},"classroomParams":{"A":{"a":1,"b":4},"B":{"a":4,"b":1},"C":{"a":2,"b":8},"D":{"a":8,"b":2}},"conditions":["nonSeqFull","nonSeqPartial","seqNoFeedback","seqFeedback"],"classroomPairings":[["A","B"],["C","D"]],"coinWeights":[0.2,0.5,0.8],"subjectId":"A1W7I6FN183I8F","assignmentId":"39LOEL67OTRPD8LBC6ZGK5TZADV83G","hitId":"3E9VAUV7BW02QFDK7N7IH7ZKACRYAN","url":"https://gershmanlab.com/experiments/alicia/teaching/experiment/?hitId=3E9VAUV7BW02QFDK7N7IH7ZKACRYAN&workerId=A1W7I6FN183I8F&assignmentId=39LOEL67OTRPD8LBC6ZGK5TZADV83G&a=7EL99&tp_a=7EL99&b=39LOEL67OTRPD8LBC6ZGK5TZADV83G&tp_b=39LOEL67OTRPD8LBC6ZGK5TZADV83G&c=365799&tp_c=365799"},{"rt":2509,"stimulus":"\n            <h4 style=\"color:Orange;\">Student 11</h4>\n            <h2>The weight of your coin is <b style=\"color:Tomato;\">0.8</b>.</h2>\n            <p>In this block, you will be giving <b>two</b> sets of examples to Student 11.</p>\n                <p>You will see the student's guess after the first set of examples. You will also receive feedback at the end of the block.</p>\n            <p>To earn the highest bonus, you will have to <b>take into consideration the student's guess</b> when you choose your second set of examples.</p>","response":0,"trial_type":"html-button-response","trial_index":83,"time_elapsed":1174069,"internal_node_id":"0.0-75.0","params":{"nStudents":24,"maxFlips":30,"completionMinutes":45,"basePay":8,"maxBonus":9,"perTrialBonus":0.5,"perTrialBonusThreshold":0.05,"exampleCost":0.01},"classroomParams":{"A":{"a":1,"b":4},"B":{"a":4,"b":1},"C":{"a":2,"b":8},"D":{"a":8,"b":2}},"conditions":["nonSeqFull","nonSeqPartial","seqNoFeedback","seqFeedback"],"classroomPairings":[["A","B"],["C","D"]],"coinWeights":[0.2,0.5,0.8],"subjectId":"A1W7I6FN183I8F","assignmentId":"39LOEL67OTRPD8LBC6ZGK5TZADV83G","hitId":"3E9VAUV7BW02QFDK7N7IH7ZKACRYAN","url":"https://gershmanlab.com/experiments/alicia/teaching/experiment/?hitId=3E9VAUV7BW02QFDK7N7IH7ZKACRYAN&workerId=A1W7I6FN183I8F&assignmentId=39LOEL67OTRPD8LBC6ZGK5TZADV83G&a=7EL99&tp_a=7EL99&b=39LOEL67OTRPD8LBC6ZGK5TZADV83G&tp_b=39LOEL67OTRPD8LBC6ZGK5TZADV83G&c=365799&tp_c=365799"},{"rt":10630,"response":{"heads":"6","tails":"0"},"type":"response","condition":"seqFeedback","trueTheta":0.8,"classrooms":["A","B"],"studentTrueClassroom":"A","exampleSet":"first","trial_type":"survey-html-form","trial_index":84,"time_elapsed":1184701,"internal_node_id":"0.0-76.0-0.0","params":{"nStudents":24,"maxFlips":30,"completionMinutes":45,"basePay":8,"maxBonus":9,"perTrialBonus":0.5,"perTrialBonusThreshold":0.05,"exampleCost":0.01},"classroomParams":{"A":{"a":1,"b":4},"B":{"a":4,"b":1},"C":{"a":2,"b":8},"D":{"a":8,"b":2}},"conditions":["nonSeqFull","nonSeqPartial","seqNoFeedback","seqFeedback"],"classroomPairings":[["A","B"],["C","D"]],"coinWeights":[0.2,0.5,0.8],"subjectId":"A1W7I6FN183I8F","assignmentId":"39LOEL67OTRPD8LBC6ZGK5TZADV83G","hitId":"3E9VAUV7BW02QFDK7N7IH7ZKACRYAN","url":"https://gershmanlab.com/experiments/alicia/teaching/experiment/?hitId=3E9VAUV7BW02QFDK7N7IH7ZKACRYAN&workerId=A1W7I6FN183I8F&assignmentId=39LOEL67OTRPD8LBC6ZGK5TZADV83G&a=7EL99&tp_a=7EL99&b=39LOEL67OTRPD8LBC6ZGK5TZADV83G&tp_b=39LOEL67OTRPD8LBC6ZGK5TZADV83G&c=365799&tp_c=365799","heads":6,"tails":0,"studentIndex":10,"studentTrueHypers":{"a":1,"b":4},"studentGuess":