[{"rt":2172,"stimulus":"Welcome to the experiment. Press any key to begin.","response":"l","trial_type":"html-keyboard-response","trial_index":0,"time_elapsed":2206,"internal_node_id":"0.0-0.0","params":{"nStudents":24,"maxFlips":30,"completionMinutes":45,"basePay":8,"maxBonus":9,"perTrialBonus":0.5,"perTrialBonusThreshold":0.05,"exampleCost":0.01},"classroomParams":{"A":{"a":1,"b":4},"B":{"a":4,"b":1},"C":{"a":2,"b":8},"D":{"a":8,"b":2}},"conditions":["nonSeqFull","nonSeqPartial","seqNoFeedback","seqFeedback"],"classroomPairings":[["A","B"],["C","D"]],"coinWeights":[0.2,0.5,0.8],"subjectId":"A1WH32GYQOHIRQ","assignmentId":"33LK57MYLUR8HL7DBB0U5XYF10LSZD","hitId":"3FJ2RVH25ZSYKBA8MWMNC8NVPF629N","url":"https://gershmanlab.com/experiments/alicia/teaching/experiment/?hitId=3FJ2RVH25ZSYKBA8MWMNC8NVPF629N&workerId=A1WH32GYQOHIRQ&assignmentId=33LK57MYLUR8HL7DBB0U5XYF10LSZD&a=Y5L37&tp_a=Y5L37&b=33LK57MYLUR8HL7DBB0U5XYF10LSZD&tp_b=33LK57MYLUR8HL7DBB0U5XYF10LSZD&c=365717&tp_c=365717"},{"rt":3988,"stimulus":"\n        <h3>Please read this consent agreement carefully before deciding whether to participate in this experiment.</h3>\n        <p><b>Purpose of the research:</b> To examine how people teach effectively.</p>\n        <p><b>What you will do in this research:</b> You will teach students the weights of different coins.</p>\n        <p><b>Time required:</b> This experiment will take 45 minutes to complete.</p>\n        <p><b>Risks:</b> There are no anticipated risks associated with participating in this study.             The effects of participating should be comparable to those you would experience from viewing a computer monitor             and using a mouse and keyboard for the duration of the experiment.</p>\n        <p><b>Benefits:</b> The study provides important information about the nature of teaching.</p>\n        <p><b>Compensation:</b> You will receive <b>$8</b> for completing the experiment and a performance bonus of up to <b>$9</b>.</p>\n        <p><b>Confidentiality:</b> Your participation in this study will remain confidential.             No personally identifiable information will be associated with your data.             Your de-identified data may be shared with other researchers and used in future projects.</p>\n        <p><b>Participation and withdrawal:</b> Your participation in this study is completely voluntary and             you may refuse to participate or you may choose to withdraw at any time without penalty or loss of\n            benefits to which you are otherwise entitled.</p>\n        <p><b>How to contact the researcher:</b> If you have questions or concerns about your participation            or payment, or want to request a summary of research findings, please contact\n            Alicia Chen, aliciachen@college.harvard.edu.</p>\n        <p><b>Whom to contact about your rights in this research:</b> For questions, concerns, suggestions,             or complaints that have not been or cannot be addressed by the researcher, or to report             research-related harm, please contact the Committee on the Use of Human Subjects in Research at Harvard University,             1414 Massachusetts Avenue, Second Floor, Cambridge, MA 02138. Phone: 617-496-2847. Email: cuhs@fas.harvard.edu.</p>\n        ","response":0,"trial_type":"html-button-response","trial_index":1,"time_elapsed":6197,"internal_node_id":"0.0-1.0","params":{"nStudents":24,"maxFlips":30,"completionMinutes":45,"basePay":8,"maxBonus":9,"perTrialBonus":0.5,"perTrialBonusThreshold":0.05,"exampleCost":0.01},"classroomParams":{"A":{"a":1,"b":4},"B":{"a":4,"b":1},"C":{"a":2,"b":8},"D":{"a":8,"b":2}},"conditions":["nonSeqFull","nonSeqPartial","seqNoFeedback","seqFeedback"],"classroomPairings":[["A","B"],["C","D"]],"coinWeights":[0.2,0.5,0.8],"subjectId":"A1WH32GYQOHIRQ","assignmentId":"33LK57MYLUR8HL7DBB0U5XYF10LSZD","hitId":"3FJ2RVH25ZSYKBA8MWMNC8NVPF629N","url":"https://gershmanlab.com/experiments/alicia/teaching/experiment/?hitId=3FJ2RVH25ZSYKBA8MWMNC8NVPF629N&workerId=A1WH32GYQOHIRQ&assignmentId=33LK57MYLUR8HL7DBB0U5XYF10LSZD&a=Y5L37&tp_a=Y5L37&b=33LK57MYLUR8HL7DBB0U5XYF10LSZD&tp_b=33LK57MYLUR8HL7DBB0U5XYF10LSZD&c=365717&tp_c=365717"},{"view_history":[{"page_index":0,"viewing_time":5606},{"page_index":1,"viewing_time":2742},{"page_index":2,"viewing_time":23181},{"page_index":3,"viewing_time":15039},{"page_index":4,"viewing_time":7645},{"page_index":5,"viewing_time":14978},{"page_index":6,"viewing_time":43811}],"rt":113002,"trial_type":"instructions","trial_index":2,"time_elapsed":119200,"internal_node_id":"0.0-2.0-0.0","params":{"nStudents":24,"maxFlips":30,"completionMinutes":45,"basePay":8,"maxBonus":9,"perTrialBonus":0.5,"perTrialBonusThreshold":0.05,"exampleCost":0.01},"classroomParams":{"A":{"a":1,"b":4},"B":{"a":4,"b":1},"C":{"a":2,"b":8},"D":{"a":8,"b":2}},"conditions":["nonSeqFull","nonSeqPartial","seqNoFeedback","seqFeedback"],"classroomPairings":[["A","B"],["C","D"]],"coinWeights":[0.2,0.5,0.8],"subjectId":"A1WH32GYQOHIRQ","assignmentId":"33LK57MYLUR8HL7DBB0U5XYF10LSZD","hitId":"3FJ2RVH25ZSYKBA8MWMNC8NVPF629N","url":"https://gershmanlab.com/experiments/alicia/teaching/experiment/?hitId=3FJ2RVH25ZSYKBA8MWMNC8NVPF629N&workerId=A1WH32GYQOHIRQ&assignmentId=33LK57MYLUR8HL7DBB0U5XYF10LSZD&a=Y5L37&tp_a=Y5L37&b=33LK57MYLUR8HL7DBB0U5XYF10LSZD&tp_b=33LK57MYLUR8HL7DBB0U5XYF10LSZD&c=365717&tp_c=365717"},{"rt":50040,"response":{"Q0":"Students in different classrooms have seen a different proportion of fair and unfair coins before seeing the examples you select for them.","Q1":"By <b>considering the student's classroom information</b> so that I can teach efficiently and accurately/helpfully at the same time (because each example I give to the student costs money!).","Q2":"The coin lands heads 90% of the time.","Q3":"No, I will teach a <b>new</b> student each time.","Q4":"The students are also on the same alien planet as you, where coins can be unfair.","Q5":"Based on the student's second (and final) guess."},"question_order":[3,1,4,0,5,2],"trial_type":"survey-multi-choice","trial_index":3,"time_elapsed":169243,"internal_node_id":"0.0-2.0-1.0","params":{"nStudents":24,"maxFlips":30,"completionMinutes":45,"basePay":8,"maxBonus":9,"perTrialBonus":0.5,"perTrialBonusThreshold":0.05,"exampleCost":0.01},"classroomParams":{"A":{"a":1,"b":4},"B":{"a":4,"b":1},"C":{"a":2,"b":8},"D":{"a":8,"b":2}},"conditions":["nonSeqFull","nonSeqPartial","seqNoFeedback","seqFeedback"],"classroomPairings":[["A","B"],["C","D"]],"coinWeights":[0.2,0.5,0.8],"subjectId":"A1WH32GYQOHIRQ","assignmentId":"33LK57MYLUR8HL7DBB0U5XYF10LSZD","hitId":"3FJ2RVH25ZSYKBA8MWMNC8NVPF629N","url":"https://gershmanlab.com/experiments/alicia/teaching/experiment/?hitId=3FJ2RVH25ZSYKBA8MWMNC8NVPF629N&workerId=A1WH32GYQOHIRQ&assignmentId=33LK57MYLUR8HL7DBB0U5XYF10LSZD&a=Y5L37&tp_a=Y5L37&b=33LK57MYLUR8HL7DBB0U5XYF10LSZD&tp_b=33LK57MYLUR8HL7DBB0U5XYF10LSZD&c=365717&tp_c=365717","pass":false},{"rt":3675,"stimulus":"Oops, you have missed question(s) on the comprehension check! We'll show you the instructions again.","response":0,"trial_type":"html-button-response","trial_index":4,"time_elapsed":172923,"internal_node_id":"0.0-2.0-2.0-0.0","params":{"nStudents":24,"maxFlips":30,"completionMinutes":45,"basePay":8,"maxBonus":9,"perTrialBonus":0.5,"perTrialBonusThreshold":0.05,"exampleCost":0.01},"classroomParams":{"A":{"a":1,"b":4},"B":{"a":4,"b":1},"C":{"a":2,"b":8},"D":{"a":8,"b":2}},"conditions":["nonSeqFull","nonSeqPartial","seqNoFeedback","seqFeedback"],"classroomPairings":[["A","B"],["C","D"]],"coinWeights":[0.2,0.5,0.8],"subjectId":"A1WH32GYQOHIRQ","assignmentId":"33LK57MYLUR8HL7DBB0U5XYF10LSZD","hitId":"3FJ2RVH25ZSYKBA8MWMNC8NVPF629N","url":"https://gershmanlab.com/experiments/alicia/teaching/experiment/?hitId=3FJ2RVH25ZSYKBA8MWMNC8NVPF629N&workerId=A1WH32GYQOHIRQ&assignmentId=33LK57MYLUR8HL7DBB0U5XYF10LSZD&a=Y5L37&tp_a=Y5L37&b=33LK57MYLUR8HL7DBB0U5XYF10LSZD&tp_b=33LK57MYLUR8HL7DBB0U5XYF10LSZD&c=365717&tp_c=365717"},{"view_history":[{"page_index":0,"viewing_time":2159},{"page_index":1,"viewing_time":1349},{"page_index":2,"viewing_time":41702},{"page_index":3,"viewing_time":7981},{"page_index":4,"viewing_time":3696},{"page_index":5,"viewing_time":12414},{"page_index":6,"viewing_time":2321}],"rt":71623,"trial_type":"instructions","trial_index":5,"time_elapsed":244547,"internal_node_id":"0.0-2.1-0.1","params":{"nStudents":24,"maxFlips":30,"completionMinutes":45,"basePay":8,"maxBonus":9,"perTrialBonus":0.5,"perTrialBonusThreshold":0.05,"exampleCost":0.01},"classroomParams":{"A":{"a":1,"b":4},"B":{"a":4,"b":1},"C":{"a":2,"b":8},"D":{"a":8,"b":2}},"conditions":["nonSeqFull","nonSeqPartial","seqNoFeedback","seqFeedback"],"classroomPairings":[["A","B"],["C","D"]],"coinWeights":[0.2,0.5,0.8],"subjectId":"A1WH32GYQOHIRQ","assignmentId":"33LK57MYLUR8HL7DBB0U5XYF10LSZD","hitId":"3FJ2RVH25ZSYKBA8MWMNC8NVPF629N","url":"https://gershmanlab.com/experiments/alicia/teaching/experiment/?hitId=3FJ2RVH25ZSYKBA8MWMNC8NVPF629N&workerId=A1WH32GYQOHIRQ&assignmentId=33LK57MYLUR8HL7DBB0U5XYF10LSZD&a=Y5L37&tp_a=Y5L37&b=33LK57MYLUR8HL7DBB0U5XYF10LSZD&tp_b=33LK57MYLUR8HL7DBB0U5XYF10LSZD&c=365717&tp_c=365717"},{"rt":35511,"response":{"Q0":"Students in different classrooms will have seen a different number of heads and tails before seeing the examples you select for them.","Q1":"By <b>considering the student's classroom information</b> so that I can teach efficiently and accurately/helpfully at the same time (because each example I give to the student costs money!).","Q2":"The coin lands heads 90% of the time.","Q3":"No, I will teach a <b>new</b> student each time.","Q4":"The students are also on the same alien planet as you, where coins can be unfair.","Q5":"Based on the student's second (and final) guess."},"question_order":[4,2,0,3,1,5],"trial_type":"survey-multi-choice","trial_index":6,"time_elapsed":280061,"internal_node_id":"0.0-2.1-1.1","params":{"nStudents":24,"maxFlips":30,"completionMinutes":45,"basePay":8,"maxBonus":9,"perTrialBonus":0.5,"perTrialBonusThreshold":0.05,"exampleCost":0.01},"classroomParams":{"A":{"a":1,"b":4},"B":{"a":4,"b":1},"C":{"a":2,"b":8},"D":{"a":8,"b":2}},"conditions":["nonSeqFull","nonSeqPartial","seqNoFeedback","seqFeedback"],"classroomPairings":[["A","B"],["C","D"]],"coinWeights":[0.2,0.5,0.8],"subjectId":"A1WH32GYQOHIRQ","assignmentId":"33LK57MYLUR8HL7DBB0U5XYF10LSZD","hitId":"3FJ2RVH25ZSYKBA8MWMNC8NVPF629N","url":"https://gershmanlab.com/experiments/alicia/teaching/experiment/?hitId=3FJ2RVH25ZSYKBA8MWMNC8NVPF629N&workerId=A1WH32GYQOHIRQ&assignmentId=33LK57MYLUR8HL7DBB0U5XYF10LSZD&a=Y5L37&tp_a=Y5L37&b=33LK57MYLUR8HL7DBB0U5XYF10LSZD&tp_b=33LK57MYLUR8HL7DBB0U5XYF10LSZD&c=365717&tp_c=365717","pass":true},{"rt":null,"stimulus":"<div style=\"font-size:30px;\">Congrats on passing the comprehension quiz! The experiment will begin in a few seconds.</div>","response":null,"trial_type":"html-keyboard-response","trial_index":7,"time_elapsed":283069,"internal_node_id":"0.0-3.0","params":{"nStudents":24,"maxFlips":30,"completionMinutes":45,"basePay":8,"maxBonus":9,"perTrialBonus":0.5,"perTrialBonusThreshold":0.05,"exampleCost":0.01},"classroomParams":{"A":{"a":1,"b":4},"B":{"a":4,"b":1},"C":{"a":2,"b":8},"D":{"a":8,"b":2}},"conditions":["nonSeqFull","nonSeqPartial","seqNoFeedback","seqFeedback"],"classroomPairings":[["A","B"],["C","D"]],"coinWeights":[0.2,0.5,0.8],"subjectId":"A1WH32GYQOHIRQ","assignmentId":"33LK57MYLUR8HL7DBB0U5XYF10LSZD","hitId":"3FJ2RVH25ZSYKBA8MWMNC8NVPF629N","url":"https://gershmanlab.com/experiments/alicia/teaching/experiment/?hitId=3FJ2RVH25ZSYKBA8MWMNC8NVPF629N&workerId=A1WH32GYQOHIRQ&assignmentId=33LK57MYLUR8HL7DBB0U5XYF10LSZD&a=Y5L37&tp_a=Y5L37&b=33LK57MYLUR8HL7DBB0U5XYF10LSZD&tp_b=33LK57MYLUR8HL7DBB0U5XYF10LSZD&c=365717&tp_c=365717"},{"rt":null,"stimulus":"<div style=\"font-size:50px;\">First student</div>","response":null,"trial_type":"html-keyboard-response","trial_index":8,"time_elapsed":286071,"internal_node_id":"0.0-4.0","params":{"nStudents":24,"maxFlips":30,"completionMinutes":45,"basePay":8,"maxBonus":9,"perTrialBonus":0.5,"perTrialBonusThreshold":0.05,"exampleCost":0.01},"classroomParams":{"A":{"a":1,"b":4},"B":{"a":4,"b":1},"C":{"a":2,"b":8},"D":{"a":8,"b":2}},"conditions":["nonSeqFull","nonSeqPartial","seqNoFeedback","seqFeedback"],"classroomPairings":[["A","B"],["C","D"]],"coinWeights":[0.2,0.5,0.8],"subjectId":"A1WH32GYQOHIRQ","assignmentId":"33LK57MYLUR8HL7DBB0U5XYF10LSZD","hitId":"3FJ2RVH25ZSYKBA8MWMNC8NVPF629N","url":"https://gershmanlab.com/experiments/alicia/teaching/experiment/?hitId=3FJ2RVH25ZSYKBA8MWMNC8NVPF629N&workerId=A1WH32GYQOHIRQ&assignmentId=33LK57MYLUR8HL7DBB0U5XYF10LSZD&a=Y5L37&tp_a=Y5L37&b=33LK57MYLUR8HL7DBB0U5XYF10LSZD&tp_b=33LK57MYLUR8HL7DBB0U5XYF10LSZD&c=365717&tp_c=365717"},{"rt":5546,"stimulus":"\n            <h4 style=\"color:Orange;\">Student 1</h4>\n            <h2>The weight of your coin is <b style=\"color:Tomato;\">0.8</b>.</h2>\n            <p>In this block, you will be giving <b>one</b> set of examples to Student 1.</p>\n                <p>You will receive feedback at the end of the block.</p>\n            <p></p>","response":0,"trial_type":"html-button-response","trial_index":9,"time_elapsed":291618,"internal_node_id":"0.0-5.0","params":{"nStudents":24,"maxFlips":30,"completionMinutes":45,"basePay":8,"maxBonus":9,"perTrialBonus":0.5,"perTrialBonusThreshold":0.05,"exampleCost":0.01},"classroomParams":{"A":{"a":1,"b":4},"B":{"a":4,"b":1},"C":{"a":2,"b":8},"D":{"a":8,"b":2}},"conditions":["nonSeqFull","nonSeqPartial","seqNoFeedback","seqFeedback"],"classroomPairings":[["A","B"],["C","D"]],"coinWeights":[0.2,0.5,0.8],"subjectId":"A1WH32GYQOHIRQ","assignmentId":"33LK57MYLUR8HL7DBB0U5XYF10LSZD","hitId":"3FJ2RVH25ZSYKBA8MWMNC8NVPF629N","url":"https://gershmanlab.com/experiments/alicia/teaching/experiment/?hitId=3FJ2RVH25ZSYKBA8MWMNC8NVPF629N&workerId=A1WH32GYQOHIRQ&assignmentId=33LK57MYLUR8HL7DBB0U5XYF10LSZD&a=Y5L37&tp_a=Y5L37&b=33LK57MYLUR8HL7DBB0U5XYF10LSZD&tp_b=33LK57MYLUR8HL7DBB0U5XYF10LSZD&c=365717&tp_c=365717"},{"rt":22534,"response":{"heads":"3","tails":"0"},"type":"response","condition":"nonSeqFull","trueTheta":0.8,"classrooms":["A","B"],"studentTrueClassroom":"A","exampleSet":"first","trial_type":"survey-html-form","trial_index":10,"time_elapsed":314156,"internal_node_id":"0.0-6.0-0.0","params":{"nStudents":24,"maxFlips":30,"completionMinutes":45,"basePay":8,"maxBonus":9,"perTrialBonus":0.5,"perTrialBonusThreshold":0.05,"exampleCost":0.01},"classroomParams":{"A":{"a":1,"b":4},"B":{"a":4,"b":1},"C":{"a":2,"b":8},"D":{"a":8,"b":2}},"conditions":["nonSeqFull","nonSeqPartial","seqNoFeedback","seqFeedback"],"classroomPairings":[["A","B"],["C","D"]],"coinWeights":[0.2,0.5,0.8],"subjectId":"A1WH32GYQOHIRQ","assignmentId":"33LK57MYLUR8HL7DBB0U5XYF10LSZD","hitId":"3FJ2RVH25ZSYKBA8MWMNC8NVPF629N","url":"https://gershmanlab.com/experiments/alicia/teaching/experiment/?hitId=3FJ2RVH25ZSYKBA8MWMNC8NVPF629N&workerId=A1WH32GYQOHIRQ&assignmentId=33LK57MYLUR8HL7DBB0U5XYF10LSZD&a=Y5L37&tp_a=Y5L37&b=33LK57MYLUR8HL7DBB0U5XYF10LSZD&tp_b=33LK57MYLUR8HL7DBB0U5XYF10LSZD&c=365717&tp_c=365717","heads":3,"tails":0,"studentIndex":0,"studentTrueHypers":{"a":1,"b":4},"studentGuess":0.5,"delta":0.30000000000000004,"totalExamples":3,"bonus":0,"bonusSoFar":0},{"rt":null,"stimulus":"Sending examples to student... ","response":null,"trial_type":"html-keyboard-response","trial_index":11,"time_elapsed":316162,"internal_node_id":"0.0-7.0","params":{"nStudents":24,"maxFlips":30,"completionMinutes":45,"basePay":8,"maxBonus":9,"perTrialBonus":0.5,"perTrialBonusThreshold":0.05,"exampleCost":0.01},"classroomParams":{"A":{"a":1,"b":4},"B":{"a":4,"b":1},"C":{"a":2,"b":8},"D":{"a":8,"b":2}},"conditions":["nonSeqFull","nonSeqPartial","seqNoFeedback","seqFeedback"],"classroomPairings":[["A","B"],["C","D"]],"coinWeights":[0.2,0.5,0.8],"subjectId":"A1WH32GYQOHIRQ","assignmentId":"33LK57MYLUR8HL7DBB0U5XYF10LSZD","hitId":"3FJ2RVH25ZSYKBA8MWMNC8NVPF629N","url":"https://gershmanlab.com/experiments/alicia/teaching/experiment/?hitId=3FJ2RVH25ZSYKBA8MWMNC8NVPF629N&workerId=A1WH32GYQOHIRQ&assignmentId=33LK57MYLUR8HL7DBB0U5XYF10LSZD&a=Y5L37&tp_a=Y5L37&b=33LK57MYLUR8HL7DBB0U5XYF10LSZD&tp_b=33LK57MYLUR8HL7DBB0U5XYF10LSZD&c=365717&tp_c=365717"},{"rt":null,"stimulus":"Examples sent to student! Waiting for student...","response":null,"trial_type":"html-keyboard-response","trial_index":12,"time_elapsed":321166,"internal_node_id":"0.0-8.0","params":{"nStudents":24,"maxFlips":30,"completionMinutes":45,"basePay":8,"maxBonus":9,"perTrialBonus":0.5,"perTrialBonusThreshold":0.05,"exampleCost":0.01},"classroomParams":{"A":{"a":1,"b":4},"B":{"a":4,"b":1},"C":{"a":2,"b":8},"D":{"a":8,"b":2}},"conditions":["nonSeqFull","nonSeqPartial","seqNoFeedback","seqFeedback"],"classroomPairings":[["A","B"],["C","D"]],"coinWeights":[0.2,0.5,0.8],"subjectId":"A1WH32GYQOHIRQ","assignmentId":"33LK57MYLUR8HL7DBB0U5XYF10LSZD","hitId":"3FJ2RVH25ZSYKBA8MWMNC8NVPF629N","url":"https://gershmanlab.com/experiments/alicia/teaching/experiment/?hitId=3FJ2RVH25ZSYKBA8MWMNC8NVPF629N&workerId=A1WH32GYQOHIRQ&assignmentId=33LK57MYLUR8HL7DBB0U5XYF10LSZD&a=Y5L37&tp_a=Y5L37&b=33LK57MYLUR8HL7DBB0U5XYF10LSZD&tp_b=33LK57MYLUR8HL7DBB0U5XYF10LSZD&c=365717&tp_c=365717"},{"rt":7568,"stimulus":"\n                <p>Student's guess for coin weight: <b style=\"color:Tomato;\">0.50</b></p>\n                <p>You received a bonus of <b>$0</b>. Total bonus so far: <b>$0.00</b></b></p>\n                <p></p>\n                <p>Press any key to continue.</p>\n                ","response":" ","trial_type":"html-keyboard-response","trial_index":13,"time_elapsed":328737,"internal_node_id":"0.0-9.0","params":{"nStudents":24,"maxFlips":30,"completionMinutes":45,"basePay":8,"maxBonus":9,"perTrialBonus":0.5,"perTrialBonusThreshold":0.05,"exampleCost":0.01},"classroomParams":{"A":{"a":1,"b":4},"B":{"a":4,"b":1},"C":{"a":2,"b":8},"D":{"a":8,"b":2}},"conditions":["nonSeqFull","nonSeqPartial","seqNoFeedback","seqFeedback"],"classroomPairings":[["A","B"],["C","D"]],"coinWeights":[0.2,0.5,0.8],"subjectId":"A1WH32GYQOHIRQ","assignmentId":"33LK57MYLUR8HL7DBB0U5XYF10LSZD","hitId":"3FJ2RVH25ZSYKBA8MWMNC8NVPF629N","url":"https://gershmanlab.com/experiments/alicia/teaching/experiment/?hitId=3FJ2RVH25ZSYKBA8MWMNC8NVPF629N&workerId=A1WH32GYQOHIRQ&assignmentId=33LK57MYLUR8HL7DBB0U5XYF10LSZD&a=Y5L37&tp_a=Y5L37&b=33LK57MYLUR8HL7DBB0U5XYF10LSZD&tp_b=33LK57MYLUR8HL7DBB0U5XYF10LSZD&c=365717&tp_c=365717"},{"rt":null,"stimulus":"<div style=\"font-size:60px;\">Next student</div>","response":null,"trial_type":"html-keyboard-response","trial_index":14,"time_elapsed":331242,"internal_node_id":"0.0-10.0-0.0","params":{"nStudents":24,"maxFlips":30,"completionMinutes":45,"basePay":8,"maxBonus":9,"perTrialBonus":0.5,"perTrialBonusThreshold":0.05,"exampleCost":0.01},"classroomParams":{"A":{"a":1,"b":4},"B":{"a":4,"b":1},"C":{"a":2,"b":8},"D":{"a":8,"b":2}},"conditions":["nonSeqFull","nonSeqPartial","seqNoFeedback","seqFeedback"],"classroomPairings":[["A","B"],["C","D"]],"coinWeights":[0.2,0.5,0.8],"subjectId":"A1WH32GYQOHIRQ","assignmentId":"33LK57MYLUR8HL7DBB0U5XYF10LSZD","hitId":"3FJ2RVH25ZSYKBA8MWMNC8NVPF629N","url":"https://gershmanlab.com/experiments/alicia/teaching/experiment/?hitId=3FJ2RVH25ZSYKBA8MWMNC8NVPF629N&workerId=A1WH32GYQOHIRQ&assignmentId=33LK57MYLUR8HL7DBB0U5XYF10LSZD&a=Y5L37&tp_a=Y5L37&b=33LK57MYLUR8HL7DBB0U5XYF10LSZD&tp_b=33LK57MYLUR8HL7DBB0U5XYF10LSZD&c=365717&tp_c=365717"},{"rt":3989,"stimulus":"\n            <h4 style=\"color:Orange;\">Student 2</h4>\n            <h2>The weight of your coin is <b style=\"color:Tomato;\">0.2</b>.</h2>\n            <p>In this block, you will be giving <b>two</b> sets of examples to Student 2.</p>\n                <p>You will receive feedback at the end of the block.</p>\n            <p></p>","response":0,"trial_type":"html-button-response","trial_index":15,"time_elapsed":335233,"internal_node_id":"0.0-11.0","params":{"nStudents":24,"maxFlips":30,"completionMinutes":45,"basePay":8,"maxBonus":9,"perTrialBonus":0.5,"perTrialBonusThreshold":0.05,"exampleCost":0.01},"classroomParams":{"A":{"a":1,"b":4},"B":{"a":4,"b":1},"C":{"a":2,"b":8},"D":{"a":8,"b":2}},"conditions":["nonSeqFull","nonSeqPartial","seqNoFeedback","seqFeedback"],"classroomPairings":[["A","B"],["C","D"]],"coinWeights":[0.2,0.5,0.8],"subjectId":"A1WH32GYQOHIRQ","assignmentId":"33LK57MYLUR8HL7DBB0U5XYF10LSZD","hitId":"3FJ2RVH25ZSYKBA8MWMNC8NVPF629N","url":"https://gershmanlab.com/experiments/alicia/teaching/experiment/?hitId=3FJ2RVH25ZSYKBA8MWMNC8NVPF629N&workerId=A1WH32GYQOHIRQ&assignmentId=33LK57MYLUR8HL7DBB0U5XYF10LSZD&a=Y5L37&tp_a=Y5L37&b=33LK57MYLUR8HL7DBB0U5XYF10LSZD&tp_b=33LK57MYLUR8HL7DBB0U5XYF10LSZD&c=365717&tp_c=365717"},{"rt":13501,"response":{"heads":"2","tails":"3"},"type":"response","condition":"seqNoFeedback","trueTheta":0.2,"classrooms":["A","B"],"studentTrueClassroom":"B","exampleSet":"first","trial_type":"survey-html-form","trial_index":16,"time_elapsed":348737,"internal_node_id":"0.0-12.0-0.0","params":{"nStudents":24,"maxFlips":30,"completionMinutes":45,"basePay":8,"maxBonus":9,"perTrialBonus":0.5,"perTrialBonusThreshold":0.05,"exampleCost":0.01},"classroomParams":{"A":{"a":1,"b":4},"B":{"a":4,"b":1},"C":{"a":2,"b":8},"D":{"a":8,"b":2}},"conditions":["nonSeqFull","nonSeqPartial","seqNoFeedback","seqFeedback"],"classroomPairings":[["A","B"],["C","D"]],"coinWeights":[0.2,0.5,0.8],"subjectId":"A1WH32GYQOHIRQ","assignmentId":"33LK57MYLUR8HL7DBB0U5XYF10LSZD","hitId":"3FJ2RVH25ZSYKBA8MWMNC8NVPF629N","url":"https://gershmanlab.com/experiments/alicia/teaching/experiment/?hitId=3FJ2RVH25ZSYKBA8MWMNC8NVPF629N&workerId=A1WH32GYQOHIRQ&assignmentId=33LK57MYLUR8HL7DBB0U5XYF10LSZD&a=Y5L37&tp_a=Y5L37&b=33LK57MYLUR8HL7DBB0U5XYF10LSZD&tp_b=33LK57MYLUR8HL7DBB0U5XYF10LSZD&c=365717&tp_c=365717","heads":2,"tails":3,"studentIndex":1,"studentTrueHypers":{"a":4,"b":1},"studentGuess":0.6,"delta":0.39999999999999997,"totalExamples":5,"bonusSoFar":0},{"rt":null,"stimulus":"Sending examples to student... ","response":null,"trial_type":"html-keyboard-response","trial_index":17,"time_elapsed":350489,"internal_node_id":"0.0-13.0","params":{"nStudents":24,"maxFlips":30,"completionMinutes":45,"basePay":8,"maxBonus":9,"perTrialBonus":0.5,"perTrialBonusThreshold":0.05,"exampleCost":0.01},"classroomParams":{"A":{"a":1,"b":4},"B":{"a":4,"b":1},"C":{"a":2,"b":8},"D":{"a":8,"b":2}},"conditions":["nonSeqFull","nonSeqPartial","seqNoFeedback","seqFeedback"],"classroomPairings":[["A","B"],["C","D"]],"coinWeights":[0.2,0.5,0.8],"subjectId":"A1WH32GYQOHIRQ","assignmentId":"33LK57MYLUR8HL7DBB0U5XYF10LSZD","hitId":"3FJ2RVH25ZSYKBA8MWMNC8NVPF629N","url":"https://gershmanlab.com/experiments/alicia/teaching/experiment/?hitId=3FJ2RVH25ZSYKBA8MWMNC8NVPF629N&workerId=A1WH32GYQOHIRQ&assignmentId=33LK57MYLUR8HL7DBB0U5XYF10LSZD&a=Y5L37&tp_a=Y5L37&b=33LK57MYLUR8HL7DBB0U5XYF10LSZD&tp_b=33LK57MYLUR8HL7DBB0U5XYF10LSZD&c=365717&tp_c=365717"},{"rt":null,"stimulus":"Examples sent to student! Waiting for student...","response":null,"trial_type":"html-keyboard-response","trial_index":18,"time_elapsed":355494,"internal_node_id":"0.0-14.0","params":{"nStudents":24,"maxFlips":30,"completionMinutes":45,"basePay":8,"maxBonus":9,"perTrialBonus":0.5,"perTrialBonusThreshold":0.05,"exampleCost":0.01},"classroomParams":{"A":{"a":1,"b":4},"B":{"a":4,"b":1},"C":{"a":2,"b":8},"D":{"a":8,"b":2}},"conditions":["nonSeqFull","nonSeqPartial","seqNoFeedback","seqFeedback"],"classroomPairings":[["A","B"],["C","D"]],"coinWeights":[0.2,0.5,0.8],"subjectId":"A1WH32GYQOHIRQ","assignmentId":"33LK57MYLUR8HL7DBB0U5XYF10LSZD","hitId":"3FJ2RVH25ZSYKBA8MWMNC8NVPF629N","url":"https://gershmanlab.com/experiments/alicia/teaching/experiment/?hitId=3FJ2RVH25ZSYKBA8MWMNC8NVPF629N&workerId=A1WH32GYQOHIRQ&assignmentId=33LK57MYLUR8HL7DBB0U5XYF10LSZD&a=Y5L37&tp_a=Y5L37&b=33LK57MYLUR8HL7DBB0U5XYF10LSZD&tp_b=33LK57MYLUR8HL7DBB0U5XYF10LSZD&c=365717&tp_c=365717"},{"rt":21097,"response":{"heads":"4","tails":"1"},"type":"response","condition":"seqNoFeedback","trueTheta":0.2,"classrooms":["A","B"],"studentTrueClassroom":"B","exampleSet":"second","trial_type":"survey-html-form","trial_index":19,"time_elapsed":376593,"internal_node_id":"0.0-15.0-0.0","params":{"nStudents":24,"maxFlips":30,"completionMinutes":45,"basePay":8,"maxBonus":9,"perTrialBonus":0.5,"perTrialBonusThreshold":0.05,"exampleCost":0.01},"classroomParams":{"A":{"a":1,"b":4},"B":{"a":4,"b":1},"C":{"a":2,"b":8},"D":{"a":8,"b":2}},"conditions":["nonSeqFull","nonSeqPartial","seqNoFeedback","seqFeedback"],"classroomPairings":[["A","B"],["C","D"]],"coinWeights":[0.2,0.5,0.8],"subjectId":"A1WH32GYQOHIRQ","assignmentId":"33LK57MYLUR8HL7DBB0U5XYF10LSZD","hitId":"3FJ2RVH25ZSYKBA8MWMNC8NVPF629N","url":"https://gershmanlab.com/experiments/alicia/teaching/experiment/?hitId=3FJ2RVH25ZSYKBA8MWMNC8NVPF629N&workerId=A1WH32GYQOHIRQ&assignmentId=33LK57MYLUR8HL7DBB0U5XYF10LSZD&a=Y5L37&tp_a=Y5L37&b=33LK57MYLUR8HL7DBB0U5XYF10LSZD&tp_b=33LK57MYLUR8HL7DBB0U5XYF10LSZD&c=365717&tp_c=365717","firstResponseHeads":2,"firstResponseTails":3,"secondResponseHeads":4,"secondResponseTails":1,"totalHeads":6,"totalTails":4,"studentIndex":1,"studentTrueHypers":{"a":4,"b":1},"studentGuess":0.6666666666666666,"delta":0.4666666666666666,"bonus":0,"bonusSoFar":0,"totalExamples":10},{"rt":null,"stimulus":"Sending examples to student... ","response":null,"trial_type":"html-keyboard-response","trial_index":20,"time_elapsed":377850,"internal_node_id":"0.0-16.0","params":{"nStudents":24,"maxFlips":30,"completionMinutes":45,"basePay":8,"maxBonus":9,"perTrialBonus":0.5,"perTrialBonusThreshold":0.05,"exampleCost":0.01},"classroomParams":{"A":{"a":1,"b":4},"B":{"a":4,"b":1},"C":{"a":2,"b":8},"D":{"a":8,"b":2}},"conditions":["nonSeqFull","nonSeqPartial","seqNoFeedback","seqFeedback"],"classroomPairings":[["A","B"],["C","D"]],"coinWeights":[0.2,0.5,0.8],"subjectId":"A1WH32GYQOHIRQ","assignmentId":"33LK57MYLUR8HL7DBB0U5XYF10LSZD","hitId":"3FJ2RVH25ZSYKBA8MWMNC8NVPF629N","url":"https://gershmanlab.com/experiments/alicia/teaching/experiment/?hitId=3FJ2RVH25ZSYKBA8MWMNC8NVPF629N&workerId=A1WH32GYQOHIRQ&assignmentId=33LK57MYLUR8HL7DBB0U5XYF10LSZD&a=Y5L37&tp_a=Y5L37&b=33LK57MYLUR8HL7DBB0U5XYF10LSZD&tp_b=33LK57MYLUR8HL7DBB0U5XYF10LSZD&c=365717&tp_c=365717"},{"rt":null,"stimulus":"Examples sent to student! Waiting for student...","response":null,"trial_type":"html-keyboard-response","trial_index":21,"time_elapsed":383351,"internal_node_id":"0.0-17.0","params":{"nStudents":24,"maxFlips":30,"completionMinutes":45,"basePay":8,"maxBonus":9,"perTrialBonus":0.5,"perTrialBonusThreshold":0.05,"exampleCost":0.01},"classroomParams":{"A":{"a":1,"b":4},"B":{"a":4,"b":1},"C":{"a":2,"b":8},"D":{"a":8,"b":2}},"conditions":["nonSeqFull","nonSeqPartial","seqNoFeedback","seqFeedback"],"classroomPairings":[["A","B"],["C","D"]],"coinWeights":[0.2,0.5,0.8],"subjectId":"A1WH32GYQOHIRQ","assignmentId":"33LK57MYLUR8HL7DBB0U5XYF10LSZD","hitId":"3FJ2RVH25ZSYKBA8MWMNC8NVPF629N","url":"https://gershmanlab.com/experiments/alicia/teaching/experiment/?hitId=3FJ2RVH25ZSYKBA8MWMNC8NVPF629N&workerId=A1WH32GYQOHIRQ&assignmentId=33LK57MYLUR8HL7DBB0U5XYF10LSZD&a=Y5L37&tp_a=Y5L37&b=33LK57MYLUR8HL7DBB0U5XYF10LSZD&tp_b=33LK57MYLUR8HL7DBB0U5XYF10LSZD&c=365717&tp_c=365717"},{"rt":17198,"stimulus":"\n                <p>Student 2's first guess for coin weight: <b style=\"color:Tomato\";>0.60</b></p>\n                <p>Student 2's second guess for coin weight: <b style=\"color:Tomato\";>0.67</b></p>\n                <p>You received a bonus of <b>$0.00</b> based on the student's second guess.</p>\n                <p>Total bonus so far: <b>$0.00</b></p>\n                <p>Press any key to continue.</p>\n                ","response":" ","trial_type":"html-keyboard-response","trial_index":22,"time_elapsed":400550,"internal_node_id":"0.0-18.0","params":{"nStudents":24,"maxFlips":30,"completionMinutes":45,"basePay":8,"maxBonus":9,"perTrialBonus":0.5,"perTrialBonusThreshold":0.05,"exampleCost":0.01},"classroomParams":{"A":{"a":1,"b":4},"B":{"a":4,"b":1},"C":{"a":2,"b":8},"D":{"a":8,"b":2}},"conditions":["nonSeqFull","nonSeqPartial","seqNoFeedback","seqFeedback"],"classroomPairings":[["A","B"],["C","D"]],"coinWeights":[0.2,0.5,0.8],"subjectId":"A1WH32GYQOHIRQ","assignmentId":"33LK57MYLUR8HL7DBB0U5XYF10LSZD","hitId":"3FJ2RVH25ZSYKBA8MWMNC8NVPF629N","url":"https://gershmanlab.com/experiments/alicia/teaching/experiment/?hitId=3FJ2RVH25ZSYKBA8MWMNC8NVPF629N&workerId=A1WH32GYQOHIRQ&assignmentId=33LK57MYLUR8HL7DBB0U5XYF10LSZD&a=Y5L37&tp_a=Y5L37&b=33LK57MYLUR8HL7DBB0U5XYF10LSZD&tp_b=33LK57MYLUR8HL7DBB0U5XYF10LSZD&c=365717&tp_c=365717"},{"rt":null,"stimulus":"<div style=\"font-size:60px;\">Next student</div>","response":null,"trial_type":"html-keyboard-response","trial_index":23,"time_elapsed":403554,"internal_node_id":"0.0-19.0-0.0","params":{"nStudents":24,"maxFlips":30,"completionMinutes":45,"basePay":8,"maxBonus":9,"perTrialBonus":0.5,"perTrialBonusThreshold":0.05,"exampleCost":0.01},"classroomParams":{"A":{"a":1,"b":4},"B":{"a":4,"b":1},"C":{"a":2,"b":8},"D":{"a":8,"b":2}},"conditions":["nonSeqFull","nonSeqPartial","seqNoFeedback","seqFeedback"],"classroomPairings":[["A","B"],["C","D"]],"coinWeights":[0.2,0.5,0.8],"subjectId":"A1WH32GYQOHIRQ","assignmentId":"33LK57MYLUR8HL7DBB0U5XYF10LSZD","hitId":"3FJ2RVH25ZSYKBA8MWMNC8NVPF629N","url":"https://gershmanlab.com/experiments/alicia/teaching/experiment/?hitId=3FJ2RVH25ZSYKBA8MWMNC8NVPF629N&workerId=A1WH32GYQOHIRQ&assignmentId=33LK57MYLUR8HL7DBB0U5XYF10LSZD&a=Y5L37&tp_a=Y5L37&b=33LK57MYLUR8HL7DBB0U5XYF10LSZD&tp_b=33LK57MYLUR8HL7DBB0U5XYF10LSZD&c=365717&tp_c=365717"},{"rt":4839,"stimulus":"\n            <h4 style=\"color:Orange;\">Student 3</h4>\n            <h2>The weight of your coin is <b style=\"color:Tomato;\">0.2</b>.</h2>\n            <p>In this block, you will be giving <b>one</b> set of examples to Student 3.</p>\n                <p>You will receive feedback at the end of the block.</p>\n            <p></p>","response":0,"trial_type":"html-button-response","trial_index":24,"time_elapsed":408395,"internal_node_id":"0.0-20.0","params":{"nStudents":24,"maxFlips":30,"completionMinutes":45,"basePay":8,"maxBonus":9,"perTrialBonus":0.5,"perTrialBonusThreshold":0.05,"exampleCost":0.01},"classroomParams":{"A":{"a":1,"b":4},"B":{"a":4,"b":1},"C":{"a":2,"b":8},"D":{"a":8,"b":2}},"conditions":["nonSeqFull","nonSeqPartial","seqNoFeedback","seqFeedback"],"classroomPairings":[["A","B"],["C","D"]],"coinWeights":[0.2,0.5,0.8],"subjectId":"A1WH32GYQOHIRQ","assignmentId":"33LK57MYLUR8HL7DBB0U5XYF10LSZD","hitId":"3FJ2RVH25ZSYKBA8MWMNC8NVPF629N","url":"https://gershmanlab.com/experiments/alicia/teaching/experiment/?hitId=3FJ2RVH25ZSYKBA8MWMNC8NVPF629N&workerId=A1WH32GYQOHIRQ&assignmentId=33LK57MYLUR8HL7DBB0U5XYF10LSZD&a=Y5L37&tp_a=Y5L37&b=33LK57MYLUR8HL7DBB0U5XYF10LSZD&tp_b=33LK57MYLUR8HL7DBB0U5XYF10LSZD&c=365717&tp_c=365717"},{"rt":14870,"response":{"heads":"5","tails":"5"},"type":"response","condition":"nonSeqPartial","trueTheta":0.2,"classrooms":["C","D"],"studentTrueClassroom":"D","exampleSet":"first","trial_type":"survey-html-form","trial_index":25,"time_elapsed":423266,"internal_node_id":"0.0-21.0-0.0","params":{"nStudents":24,"maxFlips":30,"completionMinutes":45,"basePay":8,"maxBonus":9,"perTrialBonus":0.5,"perTrialBonusThreshold":0.05,"exampleCost":0.01},"classroomParams":{"A":{"a":1,"b":4},"B":{"a":4,"b":1},"C":{"a":2,"b":8},"D":{"a":8,"b":2}},"conditions":["nonSeqFull","nonSeqPartial","seqNoFeedback","seqFeedback"],"classroomPairings":[["A","B"],["C","D"]],"coinWeights":[0.2,0.5,0.8],"subjectId":"A1WH32GYQOHIRQ","assignmentId":"33LK57MYLUR8HL7DBB0U5XYF10LSZD","hitId":"3FJ2RVH25ZSYKBA8MWMNC8NVPF629N","url":"https://gershmanlab.com/experiments/alicia/teaching/experiment/?hitId=3FJ2RVH25ZSYKBA8MWMNC8NVPF629N&workerId=A1WH32GYQOHIRQ&assignmentId=33LK57MYLUR8HL7DBB0U5XYF10LSZD&a=Y5L37&tp_a=Y5L37&b=33LK57MYLUR8HL7DBB0U5XYF10LSZD&tp_b=33LK57MYLUR8HL7DBB0U5XYF10LSZD&c=365717&tp_c=365717","heads":5,"tails":5,"studentIndex":2,"studentTrueHypers":{"a":8,"b":2},"studentGuess":0.65,"delta":0.45,"totalExamples":10,"bonus":0,"bonusSoFar":0},{"rt":null,"stimulus":"Sending examples to student... ","response":null,"trial_type":"html-keyboard-response","trial_index":26,"time_elapsed":424768,"internal_node_id":"0.0-22.0","params":{"nStudents":24,"maxFlips":30,"completionMinutes":45,"basePay":8,"maxBonus":9,"perTrialBonus":0.5,"perTrialBonusThreshold":0.05,"exampleCost":0.01},"classroomParams":{"A":{"a":1,"b":4},"B":{"a":4,"b":1},"C":{"a":2,"b":8},"D":{"a":8,"b":2}},"conditions":["nonSeqFull","nonSeqPartial","seqNoFeedback","seqFeedback"],"classroomPairings":[["A","B"],["C","D"]],"coinWeights":[0.2,0.5,0.8],"subjectId":"A1WH32GYQOHIRQ","assignmentId":"33LK57MYLUR8HL7DBB0U5XYF10LSZD","hitId":"3FJ2RVH25ZSYKBA8MWMNC8NVPF629N","url":"https://gershmanlab.com/experiments/alicia/teaching/experiment/?hitId=3FJ2RVH25ZSYKBA8MWMNC8NVPF629N&workerId=A1WH32GYQOHIRQ&assignmentId=33LK57MYLUR8HL7DBB0U5XYF10LSZD&a=Y5L37&tp_a=Y5L37&b=33LK57MYLUR8HL7DBB0U5XYF10LSZD&tp_b=33LK57MYLUR8HL7DBB0U5XYF10LSZD&c=365717&tp_c=365717"},{"rt":null,"stimulus":"Examples sent to student! Waiting for student...","response":null,"trial_type":"html-keyboard-response","trial_index":27,"time_elapsed":429771,"internal_node_id":"0.0-23.0","params":{"nStudents":24,"maxFlips":30,"completionMinutes":45,"basePay":8,"maxBonus":9,"perTrialBonus":0.5,"perTrialBonusThreshold":0.05,"exampleCost":0.01},"classroomParams":{"A":{"a":1,"b":4},"B":{"a":4,"b":1},"C":{"a":2,"b":8},"D":{"a":8,"b":2}},"conditions":["nonSeqFull","nonSeqPartial","seqNoFeedback","seqFeedback"],"classroomPairings":[["A","B"],["C","D"]],"coinWeights":[0.2,0.5,0.8],"subjectId":"A1WH32GYQOHIRQ","assignmentId":"33LK57MYLUR8HL7DBB0U5XYF10LSZD","hitId":"3FJ2RVH25ZSYKBA8MWMNC8NVPF629N","url":"https://gershmanlab.com/experiments/alicia/teaching/experiment/?hitId=3FJ2RVH25ZSYKBA8MWMNC8NVPF629N&workerId=A1WH32GYQOHIRQ&assignmentId=33LK57MYLUR8HL7DBB0U5XYF10LSZD&a=Y5L37&tp_a=Y5L37&b=33LK57MYLUR8HL7DBB0U5XYF10LSZD&tp_b=33LK57MYLUR8HL7DBB0U5XYF10LSZD&c=365717&tp_c=365717"},{"rt":4192,"stimulus":"\n                <p>Student's guess for coin weight: <b style=\"color:Tomato;\">0.65</b></p>\n                <p>You received a bonus of <b>$0</b>. Total bonus so far: <b>$0.00</b></b></p>\n                <p></p>\n                <p>Press any key to continue.</p>\n                ","response":" ","trial_type":"html-keyboard-response","trial_index":28,"time_elapsed":433964,"internal_node_id":"0.0-24.0","params":{"nStudents":24,"maxFlips":30,"completionMinutes":45,"basePay":8,"maxBonus":9,"perTrialBonus":0.5,"perTrialBonusThreshold":0.05,"exampleCost":0.01},"classroomParams":{"A":{"a":1,"b":4},"B":{"a":4,"b":1},"C":{"a":2,"b":8},"D":{"a":8,"b":2}},"conditions":["nonSeqFull","nonSeqPartial","seqNoFeedback","seqFeedback"],"classroomPairings":[["A","B"],["C","D"]],"coinWeights":[0.2,0.5,0.8],"subjectId":"A1WH32GYQOHIRQ","assignmentId":"33LK57MYLUR8HL7DBB0U5XYF10LSZD","hitId":"3FJ2RVH25ZSYKBA8MWMNC8NVPF629N","url":"https://gershmanlab.com/experiments/alicia/teaching/experiment/?hitId=3FJ2RVH25ZSYKBA8MWMNC8NVPF629N&workerId=A1WH32GYQOHIRQ&assignmentId=33LK57MYLUR8HL7DBB0U5XYF10LSZD&a=Y5L37&tp_a=Y5L37&b=33LK57MYLUR8HL7DBB0U5XYF10LSZD&tp_b=33LK57MYLUR8HL7DBB0U5XYF10LSZD&c=365717&tp_c=365717"},{"rt":null,"stimulus":"<div style=\"font-size:60px;\">Next student</div>","response":null,"trial_type":"html-keyboard-response","trial_index":29,"time_elapsed":435967,"internal_node_id":"0.0-25.0-0.0","params":{"nStudents":24,"maxFlips":30,"completionMinutes":45,"basePay":8,"maxBonus":9,"perTrialBonus":0.5,"perTrialBonusThreshold":0.05,"exampleCost":0.01},"classroomParams":{"A":{"a":1,"b":4},"B":{"a":4,"b":1},"C":{"a":2,"b":8},"D":{"a":8,"b":2}},"conditions":["nonSeqFull","nonSeqPartial","seqNoFeedback","seqFeedback"],"classroomPairings":[["A","B"],["C","D"]],"coinWeights":[0.2,0.5,0.8],"subjectId":"A1WH32GYQOHIRQ","assignmentId":"33LK57MYLUR8HL7DBB0U5XYF10LSZD","hitId":"3FJ2RVH25ZSYKBA8MWMNC8NVPF629N","url":"https://gershmanlab.com/experiments/alicia/teaching/experiment/?hitId=3FJ2RVH25ZSYKBA8MWMNC8NVPF629N&workerId=A1WH32GYQOHIRQ&assignmentId=33LK57MYLUR8HL7DBB0U5XYF10LSZD&a=Y5L37&tp_a=Y5L37&b=33LK57MYLUR8HL7DBB0U5XYF10LSZD&tp_b=33LK57MYLUR8HL7DBB0U5XYF10LSZD&c=365717&tp_c=365717"},{"rt":2803,"stimulus":"\n            <h4 style=\"color:Orange;\">Student 4</h4>\n            <h2>The weight of your coin is <b style=\"color:Tomato;\">0.5</b>.</h2>\n            <p>In this block, you will be giving <b>one</b> set of examples to Student 4.</p>\n                <p>You will receive feedback at the end of the block.</p>\n            <p></p>","response":0,"trial_type":"html-button-response","trial_index":30,"time_elapsed":438772,"internal_node_id":"0.0-26.0","params":{"nStudents":24,"maxFlips":30,"completionMinutes":45,"basePay":8,"maxBonus":9,"perTrialBonus":0.5,"perTrialBonusThreshold":0.05,"exampleCost":0.01},"classroomParams":{"A":{"a":1,"b":4},"B":{"a":4,"b":1},"C":{"a":2,"b":8},"D":{"a":8,"b":2}},"conditions":["nonSeqFull","nonSeqPartial","seqNoFeedback","seqFeedback"],"classroomPairings":[["A","B"],["C","D"]],"coinWeights":[0.2,0.5,0.8],"subjectId":"A1WH32GYQOHIRQ","assignmentId":"33LK57MYLUR8HL7DBB0U5XYF10LSZD","hitId":"3FJ2RVH25ZSYKBA8MWMNC8NVPF629N","url":"https://gershmanlab.com/experiments/alicia/teaching/experiment/?hitId=3FJ2RVH25ZSYKBA8MWMNC8NVPF629N&workerId=A1WH32GYQOHIRQ&assignmentId=33LK57MYLUR8HL7DBB0U5XYF10LSZD&a=Y5L37&tp_a=Y5L37&b=33LK57MYLUR8HL7DBB0U5XYF10LSZD&tp_b=33LK57MYLUR8HL7DBB0U5XYF10LSZD&c=365717&tp_c=365717"},{"rt":7998,"response":{"heads":"2","tails":"2"},"type":"response","condition":"nonSeqPartial","trueTheta":0.5,"classrooms":["C","D"],"studentTrueClassroom":"C","exampleSet":"first","trial_type":"survey-html-form","trial_index":31,"time_elapsed":446772,"internal_node_id":"0.0-27.0-0.0","params":{"nStudents":24,"maxFlips":30,"completionMinutes":45,"basePay":8,"maxBonus":9,"perTrialBonus":0.5,"perTrialBonusThreshold":0.05,"exampleCost":0.01},"classroomParams":{"A":{"a":1,"b":4},"B":{"a":4,"b":1},"C":{"a":2,"b":8},"D":{"a":8,"b":2}},"conditions":["nonSeqFull","nonSeqPartial","seqNoFeedback","seqFeedback"],"classroomPairings":[["A","B"],["C","D"]],"coinWeights":[0.2,0.5,0.8],"subjectId":"A1WH32GYQOHIRQ","assignmentId":"33LK57MYLUR8HL7DBB0U5XYF10LSZD","hitId":"3FJ2RVH25ZSYKBA8MWMNC8NVPF629N","url":"https://gershmanlab.com/experiments/alicia/teaching/experiment/?hitId=3FJ2RVH25ZSYKBA8MWMNC8NVPF629N&workerId=A1WH32GYQOHIRQ&assignmentId=33LK57MYLUR8HL7DBB0U5XYF10LSZD&a=Y5L37&tp_a=Y5L37&b=33LK57MYLUR8HL7DBB0U5XYF10LSZD&tp_b=33LK57MYLUR8HL7DBB0U5XYF10LSZD&c=365717&tp_c=365717","heads":2,"tails":2,"studentIndex":3,"studentTrueHypers":{"a":2,"b":8},"studentGuess":0.2857142857142857,"delta":0.2142857142857143,"totalExamples":4,"bonus":0,"bonusSoFar":0},{"rt":null,"stimulus":"Sending examples to student... ","response":null,"trial_type":"html-keyboard-response","trial_index":32,"time_elapsed":448525,"internal_node_id":"0.0-28.0","params":{"nStudents":24,"maxFlips":30,"completionMinutes":45,"basePay":8,"maxBonus":9,"perTrialBonus":0.5,"perTrialBonusThreshold":0.05,"exampleCost":0.01},"classroomParams":{"A":{"a":1,"b":4},"B":{"a":4,"b":1},"C":{"a":2,"b":8},"D":{"a":8,"b":2}},"conditions":["nonSeqFull","nonSeqPartial","seqNoFeedback","seqFeedback"],"classroomPairings":[["A","B"],["C","D"]],"coinWeights":[0.2,0.5,0.8],"subjectId":"A1WH32GYQOHIRQ","assignmentId":"33LK57MYLUR8HL7DBB0U5XYF10LSZD","hitId":"3FJ2RVH25ZSYKBA8MWMNC8NVPF629N","url":"https://gershmanlab.com/experiments/alicia/teaching/experiment/?hitId=3FJ2RVH25ZSYKBA8MWMNC8NVPF629N&workerId=A1WH32GYQOHIRQ&assignmentId=33LK57MYLUR8HL7DBB0U5XYF10LSZD&a=Y5L37&tp_a=Y5L37&b=33LK57MYLUR8HL7DBB0U5XYF10LSZD&tp_b=33LK57MYLUR8HL7DBB0U5XYF10LSZD&c=365717&tp_c=365717"},{"rt":null,"stimulus":"Examples sent to student! Waiting for student...","response":null,"trial_type":"html-keyboard-response","trial_index":33,"time_elapsed":454969,"internal_node_id":"0.0-29.0","params":{"nStudents":24,"maxFlips":30,"completionMinutes":45,"basePay":8,"maxBonus":9,"perTrialBonus":0.5,"perTrialBonusThreshold":0.05,"exampleCost":0.01},"classroomParams":{"A":{"a":1,"b":4},"B":{"a":4,"b":1},"C":{"a":2,"b":8},"D":{"a":8,"b":2}},"conditions":["nonSeqFull","nonSeqPartial","seqNoFeedback","seqFeedback"],"classroomPairings":[["A","B"],["C","D"]],"coinWeights":[0.2,0.5,0.8],"subjectId":"A1WH32GYQOHIRQ","assignmentId":"33LK57MYLUR8HL7DBB0U5XYF10LSZD","hitId":"3FJ2RVH25ZSYKBA8MWMNC8NVPF629N","url":"https://gershmanlab.com/experiments/alicia/teaching/experiment/?hitId=3FJ2RVH25ZSYKBA8MWMNC8NVPF629N&workerId=A1WH32GYQOHIRQ&assignmentId=33LK57MYLUR8HL7DBB0U5XYF10LSZD&a=Y5L37&tp_a=Y5L37&b=33LK57MYLUR8HL7DBB0U5XYF10LSZD&tp_b=33LK57MYLUR8HL7DBB0U5XYF10LSZD&c=365717&tp_c=365717"},{"rt":14962,"stimulus":"\n                <p>Student's guess for coin weight: <b style=\"color:Tomato;\">0.29</b></p>\n                <p>You received a bonus of <b>$0</b>. Total bonus so far: <b>$0.00</b></b></p>\n                <p></p>\n                <p>Press any key to continue.</p>\n                ","response":" ","trial_type":"html-keyboard-response","trial_index":34,"time_elapsed":469933,"internal_node_id":"0.0-30.0","params":{"nStudents":24,"maxFlips":30,"completionMinutes":45,"basePay":8,"maxBonus":9,"perTrialBonus":0.5,"perTrialBonusThreshold":0.05,"exampleCost":0.01},"classroomParams":{"A":{"a":1,"b":4},"B":{"a":4,"b":1},"C":{"a":2,"b":8},"D":{"a":8,"b":2}},"conditions":["nonSeqFull","nonSeqPartial","seqNoFeedback","seqFeedback"],"classroomPairings":[["A","B"],["C","D"]],"coinWeights":[0.2,0.5,0.8],"subjectId":"A1WH32GYQOHIRQ","assignmentId":"33LK57MYLUR8HL7DBB0U5XYF10LSZD","hitId":"3FJ2RVH25ZSYKBA8MWMNC8NVPF629N","url":"https://gershmanlab.com/experiments/alicia/teaching/experiment/?hitId=3FJ2RVH25ZSYKBA8MWMNC8NVPF629N&workerId=A1WH32GYQOHIRQ&assignmentId=33LK57MYLUR8HL7DBB0U5XYF10LSZD&a=Y5L37&tp_a=Y5L37&b=33LK57MYLUR8HL7DBB0U5XYF10LSZD&tp_b=33LK57MYLUR8HL7DBB0U5XYF10LSZD&c=365717&tp_c=365717"},{"rt":null,"stimulus":"<div style=\"font-size:60px;\">Next student</div>","response":null,"trial_type":"html-keyboard-response","trial_index":35,"time_elapsed":472185,"internal_node_id":"0.0-31.0-0.0","params":{"nStudents":24,"maxFlips":30,"completionMinutes":45,"basePay":8,"maxBonus":9,"perTrialBonus":0.5,"perTrialBonusThreshold":0.05,"exampleCost":0.01},"classroomParams":{"A":{"a":1,"b":4},"B":{"a":4,"b":1},"C":{"a":2,"b":8},"D":{"a":8,"b":2}},"conditions":["nonSeqFull","nonSeqPartial","seqNoFeedback","seqFeedback"],"classroomPairings":[["A","B"],["C","D"]],"coinWeights":[0.2,0.5,0.8],"subjectId":"A1WH32GYQOHIRQ","assignmentId":"33LK57MYLUR8HL7DBB0U5XYF10LSZD","hitId":"3FJ2RVH25ZSYKBA8MWMNC8NVPF629N","url":"https://gershmanlab.com/experiments/alicia/teaching/experiment/?hitId=3FJ2RVH25ZSYKBA8MWMNC8NVPF629N&workerId=A1WH32GYQOHIRQ&assignmentId=33LK57MYLUR8HL7DBB0U5XYF10LSZD&a=Y5L37&tp_a=Y5L37&b=33LK57MYLUR8HL7DBB0U5XYF10LSZD&tp_b=33LK57MYLUR8HL7DBB0U5XYF10LSZD&c=365717&tp_c=365717"},{"rt":4470,"stimulus":"\n            <h4 style=\"color:Orange;\">Student 5</h4>\n            <h2>The weight of your coin is <b style=\"color:Tomato;\">0.5</b>.</h2>\n            <p>In this block, you will be giving <b>one</b> set of examples to Student 5.</p>\n                <p>You will receive feedback at the end of the block.</p>\n            <p></p>","response":0,"trial_type":"html-button-response","trial_index":36,"time_elapsed":476657,"internal_node_id":"0.0-32.0","params":{"nStudents":24,"maxFlips":30,"completionMinutes":45,"basePay":8,"maxBonus":9,"perTrialBonus":0.5,"perTrialBonusThreshold":0.05,"exampleCost":0.01},"classroomParams":{"A":{"a":1,"b":4},"B":{"a":4,"b":1},"C":{"a":2,"b":8},"D":{"a":8,"b":2}},"conditions":["nonSeqFull","nonSeqPartial","seqNoFeedback","seqFeedback"],"classroomPairings":[["A","B"],["C","D"]],"coinWeights":[0.2,0.5,0.8],"subjectId":"A1WH32GYQOHIRQ","assignmentId":"33LK57MYLUR8HL7DBB0U5XYF10LSZD","hitId":"3FJ2RVH25ZSYKBA8MWMNC8NVPF629N","url":"https://gershmanlab.com/experiments/alicia/teaching/experiment/?hitId=3FJ2RVH25ZSYKBA8MWMNC8NVPF629N&workerId=A1WH32GYQOHIRQ&assignmentId=33LK57MYLUR8HL7DBB0U5XYF10LSZD&a=Y5L37&tp_a=Y5L37&b=33LK57MYLUR8HL7DBB0U5XYF10LSZD&tp_b=33LK57MYLUR8HL7DBB0U5XYF10LSZD&c=365717&tp_c=365717"},{"rt":17815,"response":{"heads":"9","tails":"6"},"type":"response","condition":"nonSeqFull","trueTheta":0.5,"classrooms":["A","B"],"studentTrueClassroom":"A","exampleSet":"first","trial_type":"survey-html-form","trial_index":37,"time_elapsed":494473,"internal_node_id":"0.0-33.0-0.0","params":{"nStudents":24,"maxFlips":30,"completionMinutes":45,"basePay":8,"maxBonus":9,"perTrialBonus":0.5,"perTrialBonusThreshold":0.05,"exampleCost":0.01},"classroomParams":{"A":{"a":1,"b":4},"B":{"a":4,"b":1},"C":{"a":2,"b":8},"D":{"a":8,"b":2}},"conditions":["nonSeqFull","nonSeqPartial","seqNoFeedback","seqFeedback"],"classroomPairings":[["A","B"],["C","D"]],"coinWeights":[0.2,0.5,0.8],"subjectId":"A1WH32GYQOHIRQ","assignmentId":"33LK57MYLUR8HL7DBB0U5XYF10LSZD","hitId":"3FJ2RVH25ZSYKBA8MWMNC8NVPF629N","url":"https://gershmanlab.com/experiments/alicia/teaching/experiment/?hitId=3FJ2RVH25ZSYKBA8MWMNC8NVPF629N&workerId=A1WH32GYQOHIRQ&assignmentId=33LK57MYLUR8HL7DBB0U5XYF10LSZD&a=Y5L37&tp_a=Y5L37&b=33LK57MYLUR8HL7DBB0U5XYF10LSZD&tp_b=33LK57MYLUR8HL7DBB0U5XYF10LSZD&c=365717&tp_c=365717","heads":9,"tails":6,"studentIndex":4,"studentTrueHypers":{"a":1,"b":4},"studentGuess":0.5,"delta":0,"totalExamples":15,"bonus":0.35,"bonusSoFar":0.35},{"rt":null,"stimulus":"Sending examples to student... ","response":null,"trial_type":"html-keyboard-response","trial_index":38,"time_elapsed":497010,"internal_node_id":"0.0-34.0","params":{"nStudents":24,"maxFlips":30,"completionMinutes":45,"basePay":8,"maxBonus":9,"perTrialBonus":0.5,"perTrialBonusThreshold":0.05,"exampleCost":0.01},"classroomParams":{"A":{"a":1,"b":4},"B":{"a":4,"b":1},"C":{"a":2,"b":8},"D":{"a":8,"b":2}},"conditions":["nonSeqFull","nonSeqPartial","seqNoFeedback","seqFeedback"],"classroomPairings":[["A","B"],["C","D"]],"coinWeights":[0.2,0.5,0.8],"subjectId":"A1WH32GYQOHIRQ","assignmentId":"33LK57MYLUR8HL7DBB0U5XYF10LSZD","hitId":"3FJ2RVH25ZSYKBA8MWMNC8NVPF629N","url":"https://gershmanlab.com/experiments/alicia/teaching/experiment/?hitId=3FJ2RVH25ZSYKBA8MWMNC8NVPF629N&workerId=A1WH32GYQOHIRQ&assignmentId=33LK57MYLUR8HL7DBB0U5XYF10LSZD&a=Y5L37&tp_a=Y5L37&b=33LK57MYLUR8HL7DBB0U5XYF10LSZD&tp_b=33LK57MYLUR8HL7DBB0U5XYF10LSZD&c=365717&tp_c=365717"},{"rt":null,"stimulus":"Examples sent to student! Waiting for student...","response":null,"trial_type":"html-keyboard-response","trial_index":39,"time_elapsed":502911,"internal_node_id":"0.0-35.0","params":{"nStudents":24,"maxFlips":30,"completionMinutes":45,"basePay":8,"maxBonus":9,"perTrialBonus":0.5,"perTrialBonusThreshold":0.05,"exampleCost":0.01},"classroomParams":{"A":{"a":1,"b":4},"B":{"a":4,"b":1},"C":{"a":2,"b":8},"D":{"a":8,"b":2}},"conditions":["nonSeqFull","nonSeqPartial","seqNoFeedback","seqFeedback"],"classroomPairings":[["A","B"],["C","D"]],"coinWeights":[0.2,0.5,0.8],"subjectId":"A1WH32GYQOHIRQ","assignmentId":"33LK57MYLUR8HL7DBB0U5XYF10LSZD","hitId":"3FJ2RVH25ZSYKBA8MWMNC8NVPF629N","url":"https://gershmanlab.com/experiments/alicia/teaching/experiment/?hitId=3FJ2RVH25ZSYKBA8MWMNC8NVPF629N&workerId=A1WH32GYQOHIRQ&assignmentId=33LK57MYLUR8HL7DBB0U5XYF10LSZD&a=Y5L37&tp_a=Y5L37&b=33LK57MYLUR8HL7DBB0U5XYF10LSZD&tp_b=33LK57MYLUR8HL7DBB0U5XYF10LSZD&c=365717&tp_c=365717"},{"rt":24937,"stimulus":"\n                <p>Student's guess for coin weight: <b style=\"color:Tomato;\">0.50</b></p>\n                <p>You received a bonus of <b>$0.35</b>. Total bonus so far: <b>$0.35</b></b></p>\n                <p></p>\n                <p>Press any key to continue.</p>\n                ","response":" ","trial_type":"html-keyboard-response","trial_index":40,"time_elapsed":527849,"internal_node_id":"0.0-36.0","params":{"nStudents":24,"maxFlips":30,"completionMinutes":45,"basePay":8,"maxBonus":9,"perTrialBonus":0.5,"perTrialBonusThreshold":0.05,"exampleCost":0.01},"classroomParams":{"A":{"a":1,"b":4},"B":{"a":4,"b":1},"C":{"a":2,"b":8},"D":{"a":8,"b":2}},"conditions":["nonSeqFull","nonSeqPartial","seqNoFeedback","seqFeedback"],"classroomPairings":[["A","B"],["C","D"]],"coinWeights":[0.2,0.5,0.8],"subjectId":"A1WH32GYQOHIRQ","assignmentId":"33LK57MYLUR8HL7DBB0U5XYF10LSZD","hitId":"3FJ2RVH25ZSYKBA8MWMNC8NVPF629N","url":"https://gershmanlab.com/experiments/alicia/teaching/experiment/?hitId=3FJ2RVH25ZSYKBA8MWMNC8NVPF629N&workerId=A1WH32GYQOHIRQ&assignmentId=33LK57MYLUR8HL7DBB0U5XYF10LSZD&a=Y5L37&tp_a=Y5L37&b=33LK57MYLUR8HL7DBB0U5XYF10LSZD&tp_b=33LK57MYLUR8HL7DBB0U5XYF10LSZD&c=365717&tp_c=365717"},{"rt":null,"stimulus":"<div style=\"font-size:60px;\">Next student</div>","response":null,"trial_type":"html-keyboard-response","trial_index":41,"time_elapsed":530102,"internal_node_id":"0.0-37.0-0.0","params":{"nStudents":24,"maxFlips":30,"completionMinutes":45,"basePay":8,"maxBonus":9,"perTrialBonus":0.5,"perTrialBonusThreshold":0.05,"exampleCost":0.01},"classroomParams":{"A":{"a":1,"b":4},"B":{"a":4,"b":1},"C":{"a":2,"b":8},"D":{"a":8,"b":2}},"conditions":["nonSeqFull","nonSeqPartial","seqNoFeedback","seqFeedback"],"classroomPairings":[["A","B"],["C","D"]],"coinWeights":[0.2,0.5,0.8],"subjectId":"A1WH32GYQOHIRQ","assignmentId":"33LK57MYLUR8HL7DBB0U5XYF10LSZD","hitId":"3FJ2RVH25ZSYKBA8MWMNC8NVPF629N","url":"https://gershmanlab.com/experiments/alicia/teaching/experiment/?hitId=3FJ2RVH25ZSYKBA8MWMNC8NVPF629N&workerId=A1WH32GYQOHIRQ&assignmentId=33LK57MYLUR8HL7DBB0U5XYF10LSZD&a=Y5L37&tp_a=Y5L37&b=33LK57MYLUR8HL7DBB0U5XYF10LSZD&tp_b=33LK57MYLUR8HL7DBB0U5XYF10LSZD&c=365717&tp_c=365717"},{"rt":2823,"stimulus":"\n            <h4 style=\"color:Orange;\">Student 6</h4>\n            <h2>The weight of your coin is <b style=\"color:Tomato;\">0.8</b>.</h2>\n            <p>In this block, you will be giving <b>two</b> sets of examples to Student 6.</p>\n                <p>You will receive feedback at the end of the block.</p>\n            <p></p>","response":0,"trial_type":"html-button-response","trial_index":42,"time_elapsed":532927,"internal_node_id":"0.0-38.0","params":{"nStudents":24,"maxFlips":30,"completionMinutes":45,"basePay":8,"maxBonus":9,"perTrialBonus":0.5,"perTrialBonusThreshold":0.05,"exampleCost":0.01},"classroomParams":{"A":{"a":1,"b":4},"B":{"a":4,"b":1},"C":{"a":2,"b":8},"D":{"a":8,"b":2}},"conditions":["nonSeqFull","nonSeqPartial","seqNoFeedback","seqFeedback"],"classroomPairings":[["A","B"],["C","D"]],"coinWeights":[0.2,0.5,0.8],"subjectId":"A1WH32GYQOHIRQ","assignmentId":"33LK57MYLUR8HL7DBB0U5XYF10LSZD","hitId":"3FJ2RVH25ZSYKBA8MWMNC8NVPF629N","url":"https://gershmanlab.com/experiments/alicia/teaching/experiment/?hitId=3FJ2RVH25ZSYKBA8MWMNC8NVPF629N&workerId=A1WH32GYQOHIRQ&assignmentId=33LK57MYLUR8HL7DBB0U5XYF10LSZD&a=Y5L37&tp_a=Y5L37&b=33LK57MYLUR8HL7DBB0U5XYF10LSZD&tp_b=33LK57MYLUR8HL7DBB0U5XYF10LSZD&c=365717&tp_c=365717"},{"rt":19186,"response":{"heads":"5","tails":"5"},"type":"response","condition":"seqNoFeedback","trueTheta":0.8,"classrooms":["A","B"],"studentTrueClassroom":"A","exampleSet":"first","trial_type":"survey-html-form","trial_index":43,"time_elapsed":552115,"internal_node_id":"0.0-39.0-0.0","params":{"nStudents":24,"maxFlips":30,"completionMinutes":45,"basePay":8,"maxBonus":9,"perTrialBonus":0.5,"perTrialBonusThreshold":0.05,"exampleCost":0.01},"classroomParams":{"A":{"a":1,"b":4},"B":{"a":4,"b":1},"C":{"a":2,"b":8},"D":{"a":8,"b":2}},"conditions":["nonSeqFull","nonSeqPartial","seqNoFeedback","seqFeedback"],"classroomPairings":[["A","B"],["C","D"]],"coinWeights":[0.2,0.5,0.8],"subjectId":"A1WH32GYQOHIRQ","assignmentId":"33LK57MYLUR8HL7DBB0U5XYF10LSZD","hitId":"3FJ2RVH25ZSYKBA8MWMNC8NVPF629N","url":"https://gershmanlab.com/experiments/alicia/teaching/experiment/?hitId=3FJ2RVH25ZSYKBA8MWMNC8NVPF629N&workerId=A1WH32GYQOHIRQ&assignmentId=33LK57MYLUR8HL7DBB0U5XYF10LSZD&a=Y5L37&tp_a=Y5L37&b=33LK57MYLUR8HL7DBB0U5XYF10LSZD&tp_b=33LK57MYLUR8HL7DBB0U5XYF10LSZD&c=365717&tp_c=365717","heads":5,"tails":5,"studentIndex":5,"studentTrueHypers":{"a":1,"b":4},"studentGuess":0.4,"delta":0.4,"totalExamples":10,"bonusSoFar":0.35},{"rt":null,"stimulus":"Sending examples to student... ","response":null,"trial_type":"html-keyboard-response","trial_index":44,"time_elapsed":553620,"internal_node_id":"0.0-40.0","params":{"nStudents":24,"maxFlips":30,"completionMinutes":45,"basePay":8,"maxBonus":9,"perTrialBonus":0.5,"perTrialBonusThreshold":0.05,"exampleCost":0.01},"classroomParams":{"A":{"a":1,"b":4},"B":{"a":4,"b":1},"C":{"a":2,"b":8},"D":{"a":8,"b":2}},"conditions":["nonSeqFull","nonSeqPartial","seqNoFeedback","seqFeedback"],"classroomPairings":[["A","B"],["C","D"]],"coinWeights":[0.2,0.5,0.8],"subjectId":"A1WH32GYQOHIRQ","assignmentId":"33LK57MYLUR8HL7DBB0U5XYF10LSZD","hitId":"3FJ2RVH25ZSYKBA8MWMNC8NVPF629N","url":"https://gershmanlab.com/experiments/alicia/teaching/experiment/?hitId=3FJ2RVH25ZSYKBA8MWMNC8NVPF629N&workerId=A1WH32GYQOHIRQ&assignmentId=33LK57MYLUR8HL7DBB0U5XYF10LSZD&a=Y5L37&tp_a=Y5L37&b=33LK57MYLUR8HL7DBB0U5XYF10LSZD&tp_b=33LK57MYLUR8HL7DBB0U5XYF10LSZD&c=365717&tp_c=365717"},{"rt":null,"stimulus":"Examples sent to student! Waiting for student...","response":null,"trial_type":"html-keyboard-response","trial_index":45,"time_elapsed":561021,"internal_node_id":"0.0-41.0","params":{"nStudents":24,"maxFlips":30,"completionMinutes":45,"basePay":8,"maxBonus":9,"perTrialBonus":0.5,"perTrialBonusThreshold":0.05,"exampleCost":0.01},"classroomParams":{"A":{"a":1,"b":4},"B":{"a":4,"b":1},"C":{"a":2,"b":8},"D":{"a":8,"b":2}},"conditions":["nonSeqFull","nonSeqPartial","seqNoFeedback","seqFeedback"],"classroomPairings":[["A","B"],["C","D"]],"coinWeights":[0.2,0.5,0.8],"subjectId":"A1WH32GYQOHIRQ","assignmentId":"33LK57MYLUR8HL7DBB0U5XYF10LSZD","hitId":"3FJ2RVH25ZSYKBA8MWMNC8NVPF629N","url":"https://gershmanlab.com/experiments/alicia/teaching/experiment/?hitId=3FJ2RVH25ZSYKBA8MWMNC8NVPF629N&workerId=A1WH32GYQOHIRQ&assignmentId=33LK57MYLUR8HL7DBB0U5XYF10LSZD&a=Y5L37&tp_a=Y5L37&b=33LK57MYLUR8HL7DBB0U5XYF10LSZD&tp_b=33LK57MYLUR8HL7DBB0U5XYF10LSZD&c=365717&tp_c=365717"},{"rt":36546,"response":{"heads":"5","tails":"5"},"type":"response","condition":"seqNoFeedback","trueTheta":0.8,"classrooms":["A","B"],"studentTrueClassroom":"A","exampleSet":"second","trial_type":"survey-html-form","trial_index":46,"time_elapsed":597568,"internal_node_id":"0.0-42.0-0.0","params":{"nStudents":24,"maxFlips":30,"completionMinutes":45,"basePay":8,"maxBonus":9,"perTrialBonus":0.5,"perTrialBonusThreshold":0.05,"exampleCost":0.01},"classroomParams":{"A":{"a":1,"b":4},"B":{"a":4,"b":1},"C":{"a":2,"b":8},"D":{"a":8,"b":2}},"conditions":["nonSeqFull","nonSeqPartial","seqNoFeedback","seqFeedback"],"classroomPairings":[["A","B"],["C","D"]],"coinWeights":[0.2,0.5,0.8],"subjectId":"A1WH32GYQOHIRQ","assignmentId":"33LK57MYLUR8HL7DBB0U5XYF10LSZD","hitId":"3FJ2RVH25ZSYKBA8MWMNC8NVPF629N","url":"https://gershmanlab.com/experiments/alicia/teaching/experiment/?hitId=3FJ2RVH25ZSYKBA8MWMNC8NVPF629N&workerId=A1WH32GYQOHIRQ&assignmentId=33LK57MYLUR8HL7DBB0U5XYF10LSZD&a=Y5L37&tp_a=Y5L37&b=33LK57MYLUR8HL7DBB0U5XYF10LSZD&tp_b=33LK57MYLUR8HL7DBB0U5XYF10LSZD&c=365717&tp_c=365717","firstResponseHeads":5,"firstResponseTails":5,"secondResponseHeads":5,"secondResponseTails":5,"totalHeads":10,"totalTails":10,"studentIndex":5,"studentTrueHypers":{"a":1,"b":4},"studentGuess":0.44,"delta":0.36000000000000004,"bonus":0,"bonusSoFar":0.35,"totalExamples":20},{"rt":null,"stimulus":"Sending examples to student... ","response":null,"trial_type":"html-keyboard-response","trial_index":47,"time_elapsed":599323,"internal_node_id":"0.0-43.0","params":{"nStudents":24,"maxFlips":30,"completionMinutes":45,"basePay":8,"maxBonus":9,"perTrialBonus":0.5,"perTrialBonusThreshold":0.05,"exampleCost":0.01},"classroomParams":{"A":{"a":1,"b":4},"B":{"a":4,"b":1},"C":{"a":2,"b":8},"D":{"a":8,"b":2}},"conditions":["nonSeqFull","nonSeqPartial","seqNoFeedback","seqFeedback"],"classroomPairings":[["A","B"],["C","D"]],"coinWeights":[0.2,0.5,0.8],"subjectId":"A1WH32GYQOHIRQ","assignmentId":"33LK57MYLUR8HL7DBB0U5XYF10LSZD","hitId":"3FJ2RVH25ZSYKBA8MWMNC8NVPF629N","url":"https://gershmanlab.com/experiments/alicia/teaching/experiment/?hitId=3FJ2RVH25ZSYKBA8MWMNC8NVPF629N&workerId=A1WH32GYQOHIRQ&assignmentId=33LK57MYLUR8HL7DBB0U5XYF10LSZD&a=Y5L37&tp_a=Y5L37&b=33LK57MYLUR8HL7DBB0U5XYF10LSZD&tp_b=33LK57MYLUR8HL7DBB0U5XYF10LSZD&c=365717&tp_c=365717"},{"rt":null,"stimulus":"Examples sent to student! Waiting for student...","response":null,"trial_type":"html-keyboard-response","trial_index":48,"time_elapsed":604824,"internal_node_id":"0.0-44.0","params":{"nStudents":24,"maxFlips":30,"completionMinutes":45,"basePay":8,"maxBonus":9,"perTrialBonus":0.5,"perTrialBonusThreshold":0.05,"exampleCost":0.01},"classroomParams":{"A":{"a":1,"b":4},"B":{"a":4,"b":1},"C":{"a":2,"b":8},"D":{"a":8,"b":2}},"conditions":["nonSeqFull","nonSeqPartial","seqNoFeedback","seqFeedback"],"classroomPairings":[["A","B"],["C","D"]],"coinWeights":[0.2,0.5,0.8],"subjectId":"A1WH32GYQOHIRQ","assignmentId":"33LK57MYLUR8HL7DBB0U5XYF10LSZD","hitId":"3FJ2RVH25ZSYKBA8MWMNC8NVPF629N","url":"https://gershmanlab.com/experiments/alicia/teaching/experiment/?hitId=3FJ2RVH25ZSYKBA8MWMNC8NVPF629N&workerId=A1WH32GYQOHIRQ&assignmentId=33LK57MYLUR8HL7DBB0U5XYF10LSZD&a=Y5L37&tp_a=Y5L37&b=33LK57MYLUR8HL7DBB0U5XYF10LSZD&tp_b=33LK57MYLUR8HL7DBB0U5XYF10LSZD&c=365717&tp_c=365717"},{"rt":3536,"stimulus":"\n                <p>Student 6's first guess for coin weight: <b style=\"color:Tomato\";>0.40</b></p>\n                <p>Student 6's second guess for coin weight: <b style=\"color:Tomato\";>0.44</b></p>\n                <p>You received a bonus of <b>$0.00</b> based on the student's second guess.</p>\n                <p>Total bonus so far: <b>$0.35</b></p>\n                <p>Press any key to continue.</p>\n                ","response":" ","trial_type":"html-keyboard-response","trial_index":49,"time_elapsed":608362,"internal_node_id":"0.0-45.0","params":{"nStudents":24,"maxFlips":30,"completionMinutes":45,"basePay":8,"maxBonus":9,"perTrialBonus":0.5,"perTrialBonusThreshold":0.05,"exampleCost":0.01},"classroomParams":{"A":{"a":1,"b":4},"B":{"a":4,"b":1},"C":{"a":2,"b":8},"D":{"a":8,"b":2}},"conditions":["nonSeqFull","nonSeqPartial","seqNoFeedback","seqFeedback"],"classroomPairings":[["A","B"],["C","D"]],"coinWeights":[0.2,0.5,0.8],"subjectId":"A1WH32GYQOHIRQ","assignmentId":"33LK57MYLUR8HL7DBB0U5XYF10LSZD","hitId":"3FJ2RVH25ZSYKBA8MWMNC8NVPF629N","url":"https://gershmanlab.com/experiments/alicia/teaching/experiment/?hitId=3FJ2RVH25ZSYKBA8MWMNC8NVPF629N&workerId=A1WH32GYQOHIRQ&assignmentId=33LK57MYLUR8HL7DBB0U5XYF10LSZD&a=Y5L37&tp_a=Y5L37&b=33LK57MYLUR8HL7DBB0U5XYF10LSZD&tp_b=33LK57MYLUR8HL7DBB0U5XYF10LSZD&c=365717&tp_c=365717"},{"rt":null,"stimulus":"<div style=\"font-size:60px;\">Next student</div>","response":null,"trial_type":"html-keyboard-response","trial_index":50,"time_elapsed":610618,"internal_node_id":"0.0-46.0-0.0","params":{"nStudents":24,"maxFlips":30,"completionMinutes":45,"basePay":8,"maxBonus":9,"perTrialBonus":0.5,"perTrialBonusThreshold":0.05,"exampleCost":0.01},"classroomParams":{"A":{"a":1,"b":4},"B":{"a":4,"b":1},"C":{"a":2,"b":8},"D":{"a":8,"b":2}},"conditions":["nonSeqFull","nonSeqPartial","seqNoFeedback","seqFeedback"],"classroomPairings":[["A","B"],["C","D"]],"coinWeights":[0.2,0.5,0.8],"subjectId":"A1WH32GYQOHIRQ","assignmentId":"33LK57MYLUR8HL7DBB0U5XYF10LSZD","hitId":"3FJ2RVH25ZSYKBA8MWMNC8NVPF629N","url":"https://gershmanlab.com/experiments/alicia/teaching/experiment/?hitId=3FJ2RVH25ZSYKBA8MWMNC8NVPF629N&workerId=A1WH32GYQOHIRQ&assignmentId=33LK57MYLUR8HL7DBB0U5XYF10LSZD&a=Y5L37&tp_a=Y5L37&b=33LK57MYLUR8HL7DBB0U5XYF10LSZD&tp_b=33LK57MYLUR8HL7DBB0U5XYF10LSZD&c=365717&tp_c=365717"},{"rt":4741,"stimulus":"\n            <h4 style=\"color:Orange;\">Student 7</h4>\n            <h2>The weight of your coin is <b style=\"color:Tomato;\">0.2</b>.</h2>\n            <p>In this block, you will be giving <b>one</b> set of examples to Student 7.</p>\n                <p>You will receive feedback at the end of the block.</p>\n            <p></p>","response":0,"trial_type":"html-button-response","trial_index":51,"time_elapsed":615361,"internal_node_id":"0.0-47.0","params":{"nStudents":24,"maxFlips":30,"completionMinutes":45,"basePay":8,"maxBonus":9,"perTrialBonus":0.5,"perTrialBonusThreshold":0.05,"exampleCost":0.01},"classroomParams":{"A":{"a":1,"b":4},"B":{"a":4,"b":1},"C":{"a":2,"b":8},"D":{"a":8,"b":2}},"conditions":["nonSeqFull","nonSeqPartial","seqNoFeedback","seqFeedback"],"classroomPairings":[["A","B"],["C","D"]],"coinWeights":[0.2,0.5,0.8],"subjectId":"A1WH32GYQOHIRQ","assignmentId":"33LK57MYLUR8HL7DBB0U5XYF10LSZD","hitId":"3FJ2RVH25ZSYKBA8MWMNC8NVPF629N","url":"https://gershmanlab.com/experiments/alicia/teaching/experiment/?hitId=3FJ2RVH25ZSYKBA8MWMNC8NVPF629N&workerId=A1WH32GYQOHIRQ&assignmentId=33LK57MYLUR8HL7DBB0U5XYF10LSZD&a=Y5L37&tp_a=Y5L37&b=33LK57MYLUR8HL7DBB0U5XYF10LSZD&tp_b=33LK57MYLUR8HL7DBB0U5XYF10LSZD&c=365717&tp_c=365717"},{"rt":14615,"response":{"heads":"3","tails":"3"},"type":"response","condition":"nonSeqPartial","trueTheta":0.2,"classrooms":["A","B"],"studentTrueClassroom":"A","exampleSet":"first","trial_type":"survey-html-form","trial_index":52,"time_elapsed":629978,"internal_node_id":"0.0-48.0-0.0","params":{"nStudents":24,"maxFlips":30,"completionMinutes":45,"basePay":8,"maxBonus":9,"perTrialBonus":0.5,"perTrialBonusThreshold":0.05,"exampleCost":0.01},"classroomParams":{"A":{"a":1,"b":4},"B":{"a":4,"b":1},"C":{"a":2,"b":8},"D":{"a":8,"b":2}},"conditions":["nonSeqFull","nonSeqPartial","seqNoFeedback","seqFeedback"],"classroomPairings":[["A","B"],["C","D"]],"coinWeights":[0.2,0.5,0.8],"subjectId":"A1WH32GYQOHIRQ","assignmentId":"33LK57MYLUR8HL7DBB0U5XYF10LSZD","hitId":"3FJ2RVH25ZSYKBA8MWMNC8NVPF629N","url":"https://gershmanlab.com/experiments/alicia/teaching/experiment/?hitId=3FJ2RVH25ZSYKBA8MWMNC8NVPF629N&workerId=A1WH32GYQOHIRQ&assignmentId=33LK57MYLUR8HL7DBB0U5XYF10LSZD&a=Y5L37&tp_a=Y5L37&b=33LK57MYLUR8HL7DBB0U5XYF10LSZD&tp_b=33LK57MYLUR8HL7DBB0U5XYF10LSZD&c=365717&tp_c=365717","heads":3,"tails":3,"studentIndex":6,"studentTrueHypers":{"a":1,"b":4},"studentGuess":0.36363636363636365,"delta":0.16363636363636364,"totalExamples":6,"bonus":0,"bonusSoFar":0.35},{"rt":null,"stimulus":"Sending examples to student... ","response":null,"trial_type":"html-keyboard-response","trial_index":53,"time_elapsed":631482,"internal_node_id":"0.0-49.0","params":{"nStudents":24,"maxFlips":30,"completionMinutes":45,"basePay":8,"maxBonus":9,"perTrialBonus":0.5,"perTrialBonusThreshold":0.05,"exampleCost":0.01},"classroomParams":{"A":{"a":1,"b":4},"B":{"a":4,"b":1},"C":{"a":2,"b":8},"D":{"a":8,"b":2}},"conditions":["nonSeqFull","nonSeqPartial","seqNoFeedback","seqFeedback"],"classroomPairings":[["A","B"],["C","D"]],"coinWeights":[0.2,0.5,0.8],"subjectId":"A1WH32GYQOHIRQ","assignmentId":"33LK57MYLUR8HL7DBB0U5XYF10LSZD","hitId":"3FJ2RVH25ZSYKBA8MWMNC8NVPF629N","url":"https://gershmanlab.com/experiments/alicia/teaching/experiment/?hitId=3FJ2RVH25ZSYKBA8MWMNC8NVPF629N&workerId=A1WH32GYQOHIRQ&assignmentId=33LK57MYLUR8HL7DBB0U5XYF10LSZD&a=Y5L37&tp_a=Y5L37&b=33LK57MYLUR8HL7DBB0U5XYF10LSZD&tp_b=33LK57MYLUR8HL7DBB0U5XYF10LSZD&c=365717&tp_c=365717"},{"rt":null,"stimulus":"Examples sent to student! Waiting for student...","response":null,"trial_type":"html-keyboard-response","trial_index":54,"time_elapsed":635917,"internal_node_id":"0.0-50.0","params":{"nStudents":24,"maxFlips":30,"completionMinutes":45,"basePay":8,"maxBonus":9,"perTrialBonus":0.5,"perTrialBonusThreshold":0.05,"exampleCost":0.01},"classroomParams":{"A":{"a":1,"b":4},"B":{"a":4,"b":1},"C":{"a":2,"b":8},"D":{"a":8,"b":2}},"conditions":["nonSeqFull","nonSeqPartial","seqNoFeedback","seqFeedback"],"classroomPairings":[["A","B"],["C","D"]],"coinWeights":[0.2,0.5,0.8],"subjectId":"A1WH32GYQOHIRQ","assignmentId":"33LK57MYLUR8HL7DBB0U5XYF10LSZD","hitId":"3FJ2RVH25ZSYKBA8MWMNC8NVPF629N","url":"https://gershmanlab.com/experiments/alicia/teaching/experiment/?hitId=3FJ2RVH25ZSYKBA8MWMNC8NVPF629N&workerId=A1WH32GYQOHIRQ&assignmentId=33LK57MYLUR8HL7DBB0U5XYF10LSZD&a=Y5L37&tp_a=Y5L37&b=33LK57MYLUR8HL7DBB0U5XYF10LSZD&tp_b=33LK57MYLUR8HL7DBB0U5XYF10LSZD&c=365717&tp_c=365717"},{"rt":11505,"stimulus":"\n                <p>Student's guess for coin weight: <b style=\"color:Tomato;\">0.36</b></p>\n                <p>You received a bonus of <b>$0</b>. Total bonus so far: <b>$0.35</b></b></p>\n                <p></p>\n                <p>Press any key to continue.</p>\n                ","response":"tab","trial_type":"html-keyboard-response","trial_index":55,"time_elapsed":647423,"internal_node_id":"0.0-51.0","params":{"nStudents":24,"maxFlips":30,"completionMinutes":45,"basePay":8,"maxBonus":9,"perTrialBonus":0.5,"perTrialBonusThreshold":0.05,"exampleCost":0.01},"classroomParams":{"A":{"a":1,"b":4},"B":{"a":4,"b":1},"C":{"a":2,"b":8},"D":{"a":8,"b":2}},"conditions":["nonSeqFull","nonSeqPartial","seqNoFeedback","seqFeedback"],"classroomPairings":[["A","B"],["C","D"]],"coinWeights":[0.2,0.5,0.8],"subjectId":"A1WH32GYQOHIRQ","assignmentId":"33LK57MYLUR8HL7DBB0U5XYF10LSZD","hitId":"3FJ2RVH25ZSYKBA8MWMNC8NVPF629N","url":"https://gershmanlab.com/experiments/alicia/teaching/experiment/?hitId=3FJ2RVH25ZSYKBA8MWMNC8NVPF629N&workerId=A1WH32GYQOHIRQ&assignmentId=33LK57MYLUR8HL7DBB0U5XYF10LSZD&a=Y5L37&tp_a=Y5L37&b=33LK57MYLUR8HL7DBB0U5XYF10LSZD&tp_b=33LK57MYLUR8HL7DBB0U5XYF10LSZD&c=365717&tp_c=365717"},{"rt":null,"stimulus":"<div style=\"font-size:60px;\">Next student</div>","response":null,"trial_type":"html-keyboard-response","trial_index":56,"time_elapsed":650424,"internal_node_id":"0.0-52.0-0.0","params":{"nStudents":24,"maxFlips":30,"completionMinutes":45,"basePay":8,"maxBonus":9,"perTrialBonus":0.5,"perTrialBonusThreshold":0.05,"exampleCost":0.01},"classroomParams":{"A":{"a":1,"b":4},"B":{"a":4,"b":1},"C":{"a":2,"b":8},"D":{"a":8,"b":2}},"conditions":["nonSeqFull","nonSeqPartial","seqNoFeedback","seqFeedback"],"classroomPairings":[["A","B"],["C","D"]],"coinWeights":[0.2,0.5,0.8],"subjectId":"A1WH32GYQOHIRQ","assignmentId":"33LK57MYLUR8HL7DBB0U5XYF10LSZD","hitId":"3FJ2RVH25ZSYKBA8MWMNC8NVPF629N","url":"https://gershmanlab.com/experiments/alicia/teaching/experiment/?hitId=3FJ2RVH25ZSYKBA8MWMNC8NVPF629N&workerId=A1WH32GYQOHIRQ&assignmentId=33LK57MYLUR8HL7DBB0U5XYF10LSZD&a=Y5L37&tp_a=Y5L37&b=33LK57MYLUR8HL7DBB0U5XYF10LSZD&tp_b=33LK57MYLUR8HL7DBB0U5XYF10LSZD&c=365717&tp_c=365717"},{"rt":2377,"stimulus":"\n            <h4 style=\"color:Orange;\">Student 8</h4>\n            <h2>The weight of your coin is <b style=\"color:Tomato;\">0.8</b>.</h2>\n            <p>In this block, you will be giving <b>two</b> sets of examples to Student 8.</p>\n                <p>You will receive feedback at the end of the block.</p>\n            <p></p>","response":0,"trial_type":"html-button-response","trial_index":57,"time_elapsed":652803,"internal_node_id":"0.0-53.0","params":{"nStudents":24,"maxFlips":30,"completionMinutes":45,"basePay":8,"maxBonus":9,"perTrialBonus":0.5,"perTrialBonusThreshold":0.05,"exampleCost":0.01},"classroomParams":{"A":{"a":1,"b":4},"B":{"a":4,"b":1},"C":{"a":2,"b":8},"D":{"a":8,"b":2}},"conditions":["nonSeqFull","nonSeqPartial","seqNoFeedback","seqFeedback"],"classroomPairings":[["A","B"],["C","D"]],"coinWeights":[0.2,0.5,0.8],"subjectId":"A1WH32GYQOHIRQ","assignmentId":"33LK57MYLUR8HL7DBB0U5XYF10LSZD","hitId":"3FJ2RVH25ZSYKBA8MWMNC8NVPF629N","url":"https://gershmanlab.com/experiments/alicia/teaching/experiment/?hitId=3FJ2RVH25ZSYKBA8MWMNC8NVPF629N&workerId=A1WH32GYQOHIRQ&assignmentId=33LK57MYLUR8HL7DBB0U5XYF10LSZD&a=Y5L37&tp_a=Y5L37&b=33LK57MYLUR8HL7DBB0U5XYF10LSZD&tp_b=33LK57MYLUR8HL7DBB0U5XYF10LSZD&c=365717&tp_c=365717"},{"rt":13543,"response":{"heads":"3","tails":"1"},"type":"response","condition":"seqNoFeedback","trueTheta":0.8,"classrooms":["C","D"],"studentTrueClassroom":"D","exampleSet":"first","trial_type":"survey-html-form","trial_index":58,"time_elapsed":666349,"internal_node_id":"0.0-54.0-0.0","params":{"nStudents":24,"maxFlips":30,"completionMinutes":45,"basePay":8,"maxBonus":9,"perTrialBonus":0.5,"perTrialBonusThreshold":0.05,"exampleCost":0.01},"classroomParams":{"A":{"a":1,"b":4},"B":{"a":4,"b":1},"C":{"a":2,"b":8},"D":{"a":8,"b":2}},"conditions":["nonSeqFull","nonSeqPartial","seqNoFeedback","seqFeedback"],"classroomPairings":[["A","B"],["C","D"]],"coinWeights":[0.2,0.5,0.8],"subjectId":"A1WH32GYQOHIRQ","assignmentId":"33LK57MYLUR8HL7DBB0U5XYF10LSZD","hitId":"3FJ2RVH25ZSYKBA8MWMNC8NVPF629N","url":"https://gershmanlab.com/experiments/alicia/teaching/experiment/?hitId=3FJ2RVH25ZSYKBA8MWMNC8NVPF629N&workerId=A1WH32GYQOHIRQ&assignmentId=33LK57MYLUR8HL7DBB0U5XYF10LSZD&a=Y5L37&tp_a=Y5L37&b=33LK57MYLUR8HL7DBB0U5XYF10LSZD&tp_b=33LK57MYLUR8HL7DBB0U5XYF10LSZD&c=365717&tp_c=365717","heads":3,"tails":1,"studentIndex":7,"studentTrueHypers":{"a":8,"b":2},"studentGuess":0.7857142857142857,"delta":0.014285714285714346,"totalExamples":4,"bonusSoFar":0.35},{"rt":null,"stimulus":"Sending examples to student... ","response":null,"trial_type":"html-keyboard-response","trial_index":59,"time_elapsed":668102,"internal_node_id":"0.0-55.0","params":{"nStudents":24,"maxFlips":30,"completionMinutes":45,"basePay":8,"maxBonus":9,"perTrialBonus":0.5,"perTrialBonusThreshold":0.05,"exampleCost":0.01},"classroomParams":{"A":{"a":1,"b":4},"B":{"a":4,"b":1},"C":{"a":2,"b":8},"D":{"a":8,"b":2}},"conditions":["nonSeqFull","nonSeqPartial","seqNoFeedback","seqFeedback"],"classroomPairings":[["A","B"],["C","D"]],"coinWeights":[0.2,0.5,0.8],"subjectId":"A1WH32GYQOHIRQ","assignmentId":"33LK57MYLUR8HL7DBB0U5XYF10LSZD","hitId":"3FJ2RVH25ZSYKBA8MWMNC8NVPF629N","url":"https://gershmanlab.com/experiments/alicia/teaching/experiment/?hitId=3FJ2RVH25ZSYKBA8MWMNC8NVPF629N&workerId=A1WH32GYQOHIRQ&assignmentId=33LK57MYLUR8HL7DBB0U5XYF10LSZD&a=Y5L37&tp_a=Y5L37&b=33LK57MYLUR8HL7DBB0U5XYF10LSZD&tp_b=33LK57MYLUR8HL7DBB0U5XYF10LSZD&c=365717&tp_c=365717"},{"rt":null,"stimulus":"Examples sent to student! Waiting for student...","response":null,"trial_type":"html-keyboard-response","trial_index":60,"time_elapsed":675059,"internal_node_id":"0.0-56.0","params":{"nStudents":24,"maxFlips":30,"completionMinutes":45,"basePay":8,"maxBonus":9,"perTrialBonus":0.5,"perTrialBonusThreshold":0.05,"exampleCost":0.01},"classroomParams":{"A":{"a":1,"b":4},"B":{"a":4,"b":1},"C":{"a":2,"b":8},"D":{"a":8,"b":2}},"conditions":["nonSeqFull","nonSeqPartial","seqNoFeedback","seqFeedback"],"classroomPairings":[["A","B"],["C","D"]],"coinWeights":[0.2,0.5,0.8],"subjectId":"A1WH32GYQOHIRQ","assignmentId":"33LK57MYLUR8HL7DBB0U5XYF10LSZD","hitId":"3FJ2RVH25ZSYKBA8MWMNC8NVPF629N","url":"https://gershmanlab.com/experiments/alicia/teaching/experiment/?hitId=3FJ2RVH25ZSYKBA8MWMNC8NVPF629N&workerId=A1WH32GYQOHIRQ&assignmentId=33LK57MYLUR8HL7DBB0U5XYF10LSZD&a=Y5L37&tp_a=Y5L37&b=33LK57MYLUR8HL7DBB0U5XYF10LSZD&tp_b=33LK57MYLUR8HL7DBB0U5XYF10LSZD&c=365717&tp_c=365717"},{"rt":38069,"response":{"heads":"3","tails":"1"},"type":"response","condition":"seqNoFeedback","trueTheta":0.8,"classrooms":["C","D"],"studentTrueClassroom":"D","exampleSet":"second","trial_type":"survey-html-form","trial_index":61,"time_elapsed":713130,"internal_node_id":"0.0-57.0-0.0","params":{"nStudents":24,"maxFlips":30,"completionMinutes":45,"basePay":8,"maxBonus":9,"perTrialBonus":0.5,"perTrialBonusThreshold":0.05,"exampleCost":0.01},"classroomParams":{"A":{"a":1,"b":4},"B":{"a":4,"b":1},"C":{"a":2,"b":8},"D":{"a":8,"b":2}},"conditions":["nonSeqFull","nonSeqPartial","seqNoFeedback","seqFeedback"],"classroomPairings":[["A","B"],["C","D"]],"coinWeights":[0.2,0.5,0.8],"subjectId":"A1WH32GYQOHIRQ","assignmentId":"33LK57MYLUR8HL7DBB0U5XYF10LSZD","hitId":"3FJ2RVH25ZSYKBA8MWMNC8NVPF629N","url":"https://gershmanlab.com/experiments/alicia/teaching/experiment/?hitId=3FJ2RVH25ZSYKBA8MWMNC8NVPF629N&workerId=A1WH32GYQOHIRQ&assignmentId=33LK57MYLUR8HL7DBB0U5XYF10LSZD&a=Y5L37&tp_a=Y5L37&b=33LK57MYLUR8HL7DBB0U5XYF10LSZD&tp_b=33LK57MYLUR8HL7DBB0U5XYF10LSZD&c=365717&tp_c=365717","firstResponseHeads":3,"firstResponseTails":1,"secondResponseHeads":3,"secondResponseTails":1,"totalHeads":6,"totalTails":2,"studentIndex":7,"studentTrueHypers":{"a":8,"b":2},"studentGuess":0.7777777777777778,"delta":0.022222222222222254,"bonus":0.42,"bonusSoFar":0.77,"totalExamples":8},{"rt":null,"stimulus":"Sending examples to student... ","response":null,"trial_type":"html-keyboard-response","trial_index":62,"time_elapsed":715133,"internal_node_id":"0.0-58.0","params":{"nStudents":24,"maxFlips":30,"completionMinutes":45,"basePay":8,"maxBonus":9,"perTrialBonus":0.5,"perTrialBonusThreshold":0.05,"exampleCost":0.01},"classroomParams":{"A":{"a":1,"b":4},"B":{"a":4,"b":1},"C":{"a":2,"b":8},"D":{"a":8,"b":2}},"conditions":["nonSeqFull","nonSeqPartial","seqNoFeedback","seqFeedback"],"classroomPairings":[["A","B"],["C","D"]],"coinWeights":[0.2,0.5,0.8],"subjectId":"A1WH32GYQOHIRQ","assignmentId":"33LK57MYLUR8HL7DBB0U5XYF10LSZD","hitId":"3FJ2RVH25ZSYKBA8MWMNC8NVPF629N","url":"https://gershmanlab.com/experiments/alicia/teaching/experiment/?hitId=3FJ2RVH25ZSYKBA8MWMNC8NVPF629N&workerId=A1WH32GYQOHIRQ&assignmentId=33LK57MYLUR8HL7DBB0U5XYF10LSZD&a=Y5L37&tp_a=Y5L37&b=33LK57MYLUR8HL7DBB0U5XYF10LSZD&tp_b=33LK57MYLUR8HL7DBB0U5XYF10LSZD&c=365717&tp_c=365717"},{"rt":null,"stimulus":"Examples sent to student! Waiting for student...","response":null,"trial_type":"html-keyboard-response","trial_index":63,"time_elapsed":720138,"internal_node_id":"0.0-59.0","params":{"nStudents":24,"maxFlips":30,"completionMinutes":45,"basePay":8,"maxBonus":9,"perTrialBonus":0.5,"perTrialBonusThreshold":0.05,"exampleCost":0.01},"classroomParams":{"A":{"a":1,"b":4},"B":{"a":4,"b":1},"C":{"a":2,"b":8},"D":{"a":8,"b":2}},"conditions":["nonSeqFull","nonSeqPartial","seqNoFeedback","seqFeedback"],"classroomPairings":[["A","B"],["C","D"]],"coinWeights":[0.2,0.5,0.8],"subjectId":"A1WH32GYQOHIRQ","assignmentId":"33LK57MYLUR8HL7DBB0U5XYF10LSZD","hitId":"3FJ2RVH25ZSYKBA8MWMNC8NVPF629N","url":"https://gershmanlab.com/experiments/alicia/teaching/experiment/?hitId=3FJ2RVH25ZSYKBA8MWMNC8NVPF629N&workerId=A1WH32GYQOHIRQ&assignmentId=33LK57MYLUR8HL7DBB0U5XYF10LSZD&a=Y5L37&tp_a=Y5L37&b=33LK57MYLUR8HL7DBB0U5XYF10LSZD&tp_b=33LK57MYLUR8HL7DBB0U5XYF10LSZD&c=365717&tp_c=365717"},{"rt":5964,"stimulus":"\n                <p>Student 8's first guess for coin weight: <b style=\"color:Tomato\";>0.79</b></p>\n                <p>Student 8's second guess for coin weight: <b style=\"color:Tomato\";>0.78</b></p>\n                <p>You received a bonus of <b>$0.42</b> based on the student's second guess.</p>\n                <p>Total bonus so far: <b>$0.77</b></p>\n                <p>Press any key to continue.</p>\n                ","response":" ","trial_type":"html-keyboard-response","trial_index":64,"time_elapsed":726103,"internal_node_id":"0.0-60.0","params":{"nStudents":24,"maxFlips":30,"completionMinutes":45,"basePay":8,"maxBonus":9,"perTrialBonus":0.5,"perTrialBonusThreshold":0.05,"exampleCost":0.01},"classroomParams":{"A":{"a":1,"b":4},"B":{"a":4,"b":1},"C":{"a":2,"b":8},"D":{"a":8,"b":2}},"conditions":["nonSeqFull","nonSeqPartial","seqNoFeedback","seqFeedback"],"classroomPairings":[["A","B"],["C","D"]],"coinWeights":[0.2,0.5,0.8],"subjectId":"A1WH32GYQOHIRQ","assignmentId":"33LK57MYLUR8HL7DBB0U5XYF10LSZD","hitId":"3FJ2RVH25ZSYKBA8MWMNC8NVPF629N","url":"https://gershmanlab.com/experiments/alicia/teaching/experiment/?hitId=3FJ2RVH25ZSYKBA8MWMNC8NVPF629N&workerId=A1WH32GYQOHIRQ&assignmentId=33LK57MYLUR8HL7DBB0U5XYF10LSZD&a=Y5L37&tp_a=Y5L37&b=33LK57MYLUR8HL7DBB0U5XYF10LSZD&tp_b=33LK57MYLUR8HL7DBB0U5XYF10LSZD&c=365717&tp_c=365717"},{"rt":null,"stimulus":"<div style=\"font-size:60px;\">Next student</div>","response":null,"trial_type":"html-keyboard-response","trial_index":65,"time_elapsed":729105,"internal_node_id":"0.0-61.0-0.0","params":{"nStudents":24,"maxFlips":30,"completionMinutes":45,"basePay":8,"maxBonus":9,"perTrialBonus":0.5,"perTrialBonusThreshold":0.05,"exampleCost":0.01},"classroomParams":{"A":{"a":1,"b":4},"B":{"a":4,"b":1},"C":{"a":2,"b":8},"D":{"a":8,"b":2}},"conditions":["nonSeqFull","nonSeqPartial","seqNoFeedback","seqFeedback"],"classroomPairings":[["A","B"],["C","D"]],"coinWeights":[0.2,0.5,0.8],"subjectId":"A1WH32GYQOHIRQ","assignmentId":"33LK57MYLUR8HL7DBB0U5XYF10LSZD","hitId":"3FJ2RVH25ZSYKBA8MWMNC8NVPF629N","url":"https://gershmanlab.com/experiments/alicia/teaching/experiment/?hitId=3FJ2RVH25ZSYKBA8MWMNC8NVPF629N&workerId=A1WH32GYQOHIRQ&assignmentId=33LK57MYLUR8HL7DBB0U5XYF10LSZD&a=Y5L37&tp_a=Y5L37&b=33LK57MYLUR8HL7DBB0U5XYF10LSZD&tp_b=33LK57MYLUR8HL7DBB0U5XYF10LSZD&c=365717&tp_c=365717"},{"rt":2916,"stimulus":"\n            <h4 style=\"color:Orange;\">Student 9</h4>\n            <h2>The weight of your coin is <b style=\"color:Tomato;\">0.5</b>.</h2>\n            <p>In this block, you will be giving <b>one</b> set of examples to Student 9.</p>\n                <p>You will receive feedback at the end of the block.</p>\n            <p></p>","response":0,"trial_type":"html-button-response","trial_index":66,"time_elapsed":732023,"internal_node_id":"0.0-62.0","params":{"nStudents":24,"maxFlips":30,"completionMinutes":45,"basePay":8,"maxBonus":9,"perTrialBonus":0.5,"perTrialBonusThreshold":0.05,"exampleCost":0.01},"classroomParams":{"A":{"a":1,"b":4},"B":{"a":4,"b":1},"C":{"a":2,"b":8},"D":{"a":8,"b":2}},"conditions":["nonSeqFull","nonSeqPartial","seqNoFeedback","seqFeedback"],"classroomPairings":[["A","B"],["C","D"]],"coinWeights":[0.2,0.5,0.8],"subjectId":"A1WH32GYQOHIRQ","assignmentId":"33LK57MYLUR8HL7DBB0U5XYF10LSZD","hitId":"3FJ2RVH25ZSYKBA8MWMNC8NVPF629N","url":"https://gershmanlab.com/experiments/alicia/teaching/experiment/?hitId=3FJ2RVH25ZSYKBA8MWMNC8NVPF629N&workerId=A1WH32GYQOHIRQ&assignmentId=33LK57MYLUR8HL7DBB0U5XYF10LSZD&a=Y5L37&tp_a=Y5L37&b=33LK57MYLUR8HL7DBB0U5XYF10LSZD&tp_b=33LK57MYLUR8HL7DBB0U5XYF10LSZD&c=365717&tp_c=365717"},{"rt":9744,"response":{"heads":"2","tails":"8"},"type":"response","condition":"nonSeqFull","trueTheta":0.5,"classrooms":["C","D"],"studentTrueClassroom":"D","exampleSet":"first","trial_type":"survey-html-form","trial_index":67,"time_elapsed":741768,"internal_node_id":"0.0-63.0-0.0","params":{"nStudents":24,"maxFlips":30,"completionMinutes":45,"basePay":8,"maxBonus":9,"perTrialBonus":0.5,"perTrialBonusThreshold":0.05,"exampleCost":0.01},"classroomParams":{"A":{"a":1,"b":4},"B":{"a":4,"b":1},"C":{"a":2,"b":8},"D":{"a":8,"b":2}},"conditions":["nonSeqFull","nonSeqPartial","seqNoFeedback","seqFeedback"],"classroomPairings":[["A","B"],["C","D"]],"coinWeights":[0.2,0.5,0.8],"subjectId":"A1WH32GYQOHIRQ","assignmentId":"33LK57MYLUR8HL7DBB0U5XYF10LSZD","hitId":"3FJ2RVH25ZSYKBA8MWMNC8NVPF629N","url":"https://gershmanlab.com/experiments/alicia/teaching/experiment/?hitId=3FJ2RVH25ZSYKBA8MWMNC8NVPF629N&workerId=A1WH32GYQOHIRQ&assignmentId=33LK57MYLUR8HL7DBB0U5XYF10LSZD&a=Y5L37&tp_a=Y5L37&b=33LK57MYLUR8HL7DBB0U5XYF10LSZD&tp_b=33LK57MYLUR8HL7DBB0U5XYF10LSZD&c=365717&tp_c=365717","heads":2,"tails":8,"studentIndex":8,"studentTrueHypers":{"a":8,"b":2},"studentGuess":0.5,"delta":0,"totalExamples":10,"bonus":0.4,"bonusSoFar":1.17},{"rt":null,"stimulus":"Sending examples to student... ","response":null,"trial_type":"html-keyboard-response","trial_index":68,"time_elapsed":743021,"internal_node_id":"0.0-64.0","params":{"nStudents":24,"maxFlips":30,"completionMinutes":45,"basePay":8,"maxBonus":9,"perTrialBonus":0.5,"perTrialBonusThreshold":0.05,"exampleCost":0.01},"classroomParams":{"A":{"a":1,"b":4},"B":{"a":4,"b":1},"C":{"a":2,"b":8},"D":{"a":8,"b":2}},"conditions":["nonSeqFull","nonSeqPartial","seqNoFeedback","seqFeedback"],"classroomPairings":[["A","B"],["C","D"]],"coinWeights":[0.2,0.5,0.8],"subjectId":"A1WH32GYQOHIRQ","assignmentId":"33LK57MYLUR8HL7DBB0U5XYF10LSZD","hitId":"3FJ2RVH25ZSYKBA8MWMNC8NVPF629N","url":"https://gershmanlab.com/experiments/alicia/teaching/experiment/?hitId=3FJ2RVH25ZSYKBA8MWMNC8NVPF629N&workerId=A1WH32GYQOHIRQ&assignmentId=33LK57MYLUR8HL7DBB0U5XYF10LSZD&a=Y5L37&tp_a=Y5L37&b=33LK57MYLUR8HL7DBB0U5XYF10LSZD&tp_b=33LK57MYLUR8HL7DBB0U5XYF10LSZD&c=365717&tp_c=365717"},{"rt":null,"stimulus":"Examples sent to student! Waiting for student...","response":null,"trial_type":"html-keyboard-response","trial_index":69,"time_elapsed":747528,"internal_node_id":"0.0-65.0","params":{"nStudents":24,"maxFlips":30,"completionMinutes":45,"basePay":8,"maxBonus":9,"perTrialBonus":0.5,"perTrialBonusThreshold":0.05,"exampleCost":0.01},"classroomParams":{"A":{"a":1,"b":4},"B":{"a":4,"b":1},"C":{"a":2,"b":8},"D":{"a":8,"b":2}},"conditions":["nonSeqFull","nonSeqPartial","seqNoFeedback","seqFeedback"],"classroomPairings":[["A","B"],["C","D"]],"coinWeights":[0.2,0.5,0.8],"subjectId":"A1WH32GYQOHIRQ","assignmentId":"33LK57MYLUR8HL7DBB0U5XYF10LSZD","hitId":"3FJ2RVH25ZSYKBA8MWMNC8NVPF629N","url":"https://gershmanlab.com/experiments/alicia/teaching/experiment/?hitId=3FJ2RVH25ZSYKBA8MWMNC8NVPF629N&workerId=A1WH32GYQOHIRQ&assignmentId=33LK57MYLUR8HL7DBB0U5XYF10LSZD&a=Y5L37&tp_a=Y5L37&b=33LK57MYLUR8HL7DBB0U5XYF10LSZD&tp_b=33LK57MYLUR8HL7DBB0U5XYF10LSZD&c=365717&tp_c=365717"},{"rt":11995,"stimulus":"\n                <p>Student's guess for coin weight: <b style=\"color:Tomato;\">0.50</b></p>\n                <p>You received a bonus of <b>$0.4</b>. Total bonus so far: <b>$1.17</b></b></p>\n                <p></p>\n                <p>Press any key to continue.</p>\n                ","response":"tab","trial_type":"html-keyboard-response","trial_index":70,"time_elapsed":759524,"internal_node_id":"0.0-66.0","params":{"nStudents":24,"maxFlips":30,"completionMinutes":45,"basePay":8,"maxBonus":9,"perTrialBonus":0.5,"perTrialBonusThreshold":0.05,"exampleCost":0.01},"classroomParams":{"A":{"a":1,"b":4},"B":{"a":4,"b":1},"C":{"a":2,"b":8},"D":{"a":8,"b":2}},"conditions":["nonSeqFull","nonSeqPartial","seqNoFeedback","seqFeedback"],"classroomPairings":[["A","B"],["C","D"]],"coinWeights":[0.2,0.5,0.8],"subjectId":"A1WH32GYQOHIRQ","assignmentId":"33LK57MYLUR8HL7DBB0U5XYF10LSZD","hitId":"3FJ2RVH25ZSYKBA8MWMNC8NVPF629N","url":"https://gershmanlab.com/experiments/alicia/teaching/experiment/?hitId=3FJ2RVH25ZSYKBA8MWMNC8NVPF629N&workerId=A1WH32GYQOHIRQ&assignmentId=33LK57MYLUR8HL7DBB0U5XYF10LSZD&a=Y5L37&tp_a=Y5L37&b=33LK57MYLUR8HL7DBB0U5XYF10LSZD&tp_b=33LK57MYLUR8HL7DBB0U5XYF10LSZD&c=365717&tp_c=365717"},{"rt":null,"stimulus":"<div style=\"font-size:60px;\">Next student</div>","response":null,"trial_type":"html-keyboard-response","trial_index":71,"time_elapsed":762026,"internal_node_id":"0.0-67.0-0.0","params":{"nStudents":24,"maxFlips":30,"completionMinutes":45,"basePay":8,"maxBonus":9,"perTrialBonus":0.5,"perTrialBonusThreshold":0.05,"exampleCost":0.01},"classroomParams":{"A":{"a":1,"b":4},"B":{"a":4,"b":1},"C":{"a":2,"b":8},"D":{"a":8,"b":2}},"conditions":["nonSeqFull","nonSeqPartial","seqNoFeedback","seqFeedback"],"classroomPairings":[["A","B"],["C","D"]],"coinWeights":[0.2,0.5,0.8],"subjectId":"A1WH32GYQOHIRQ","assignmentId":"33LK57MYLUR8HL7DBB0U5XYF10LSZD","hitId":"3FJ2RVH25ZSYKBA8MWMNC8NVPF629N","url":"https://gershmanlab.com/experiments/alicia/teaching/experiment/?hitId=3FJ2RVH25ZSYKBA8MWMNC8NVPF629N&workerId=A1WH32GYQOHIRQ&assignmentId=33LK57MYLUR8HL7DBB0U5XYF10LSZD&a=Y5L37&tp_a=Y5L37&b=33LK57MYLUR8HL7DBB0U5XYF10LSZD&tp_b=33LK57MYLUR8HL7DBB0U5XYF10LSZD&c=365717&tp_c=365717"},{"rt":2832,"stimulus":"\n            <h4 style=\"color:Orange;\">Student 10</h4>\n            <h2>The weight of your coin is <b style=\"color:Tomato;\">0.8</b>.</h2>\n            <p>In this block, you will be giving <b>one</b> set of examples to Student 10.</p>\n                <p>You will receive feedback at the end of the block.</p>\n            <p></p>","response":0,"trial_type":"html-button-response","trial_index":72,"time_elapsed":764860,"internal_node_id":"0.0-68.0","params":{"nStudents":24,"maxFlips":30,"completionMinutes":45,"basePay":8,"maxBonus":9,"perTrialBonus":0.5,"perTrialBonusThreshold":0.05,"exampleCost":0.01},"classroomParams":{"A":{"a":1,"b":4},"B":{"a":4,"b":1},"C":{"a":2,"b":8},"D":{"a":8,"b":2}},"conditions":["nonSeqFull","nonSeqPartial","seqNoFeedback","seqFeedback"],"classroomPairings":[["A","B"],["C","D"]],"coinWeights":[0.2,0.5,0.8],"subjectId":"A1WH32GYQOHIRQ","assignmentId":"33LK57MYLUR8HL7DBB0U5XYF10LSZD","hitId":"3FJ2RVH25ZSYKBA8MWMNC8NVPF629N","url":"https://gershmanlab.com/experiments/alicia/teaching/experiment/?hitId=3FJ2RVH25ZSYKBA8MWMNC8NVPF629N&workerId=A1WH32GYQOHIRQ&assignmentId=33LK57MYLUR8HL7DBB0U5XYF10LSZD&a=Y5L37&tp_a=Y5L37&b=33LK57MYLUR8HL7DBB0U5XYF10LSZD&tp_b=33LK57MYLUR8HL7DBB0U5XYF10LSZD&c=365717&tp_c=365717"},{"rt":8275,"response":{"heads":"5","tails":"5"},"type":"response","condition":"nonSeqPartial","trueTheta":0.8,"classrooms":["A","B"],"studentTrueClassroom":"A","exampleSet":"first","trial_type":"survey-html-form","trial_index":73,"time_elapsed":773137,"internal_node_id":"0.0-69.0-0.0","params":{"nStudents":24,"maxFlips":30,"completionMinutes":45,"basePay":8,"maxBonus":9,"perTrialBonus":0.5,"perTrialBonusThreshold":0.05,"exampleCost":0.01},"classroomParams":{"A":{"a":1,"b":4},"B":{"a":4,"b":1},"C":{"a":2,"b":8},"D":{"a":8,"b":2}},"conditions":["nonSeqFull","nonSeqPartial","seqNoFeedback","seqFeedback"],"classroomPairings":[["A","B"],["C","D"]],"coinWeights":[0.2,0.5,0.8],"subjectId":"A1WH32GYQOHIRQ","assignmentId":"33LK57MYLUR8HL7DBB0U5XYF10LSZD","hitId":"3FJ2RVH25ZSYKBA8MWMNC8NVPF629N","url":"https://gershmanlab.com/experiments/alicia/teaching/experiment/?hitId=3FJ2RVH25ZSYKBA8MWMNC8NVPF629N&workerId=A1WH32GYQOHIRQ&assignmentId=33LK57MYLUR8HL7DBB0U5XYF10LSZD&a=Y5L37&tp_a=Y5L37&b=33LK57MYLUR8HL7DBB0U5XYF10LSZD&tp_b=33LK57MYLUR8HL7DBB0U5XYF10LSZD&c=365717&tp_c=365717","heads":5,"tails":5,"studentIndex":9,"studentTrueHypers":{"a":1,"b":4},"studentGuess":0.4,"delta":0.4,"totalExamples":10,"bonus":0,"bonusSoFar":1.17},{"rt":null,"stimulus":"Sending examples to student... ","response":null,"trial_type":"html-keyboard-response","trial_index":74,"time_elapsed":774642,"internal_node_id":"0.0-70.0","params":{"nStudents":24,"maxFlips":30,"completionMinutes":45,"basePay":8,"maxBonus":9,"perTrialBonus":0.5,"perTrialBonusThreshold":0.05,"exampleCost":0.01},"classroomParams":{"A":{"a":1,"b":4},"B":{"a":4,"b":1},"C":{"a":2,"b":8},"D":{"a":8,"b":2}},"conditions":["nonSeqFull","nonSeqPartial","seqNoFeedback","seqFeedback"],"classroomPairings":[["A","B"],["C","D"]],"coinWeights":[0.2,0.5,0.8],"subjectId":"A1WH32GYQOHIRQ","assignmentId":"33LK57MYLUR8HL7DBB0U5XYF10LSZD","hitId":"3FJ2RVH25ZSYKBA8MWMNC8NVPF629N","url":"https://gershmanlab.com/experiments/alicia/teaching/experiment/?hitId=3FJ2RVH25ZSYKBA8MWMNC8NVPF629N&workerId=A1WH32GYQOHIRQ&assignmentId=33LK57MYLUR8HL7DBB0U5XYF10LSZD&a=Y5L37&tp_a=Y5L37&b=33LK57MYLUR8HL7DBB0U5XYF10LSZD&tp_b=33LK57MYLUR8HL7DBB0U5XYF10LSZD&c=365717&tp_c=365717"},{"rt":null,"stimulus":"Examples sent to student! Waiting for student...","response":null,"trial_type":"html-keyboard-response","trial_index":75,"time_elapsed":779144,"internal_node_id":"0.0-71.0","params":{"nStudents":24,"maxFlips":30,"completionMinutes":45,"basePay":8,"maxBonus":9,"perTrialBonus":0.5,"perTrialBonusThreshold":0.05,"exampleCost":0.01},"classroomParams":{"A":{"a":1,"b":4},"B":{"a":4,"b":1},"C":{"a":2,"b":8},"D":{"a":8,"b":2}},"conditions":["nonSeqFull","nonSeqPartial","seqNoFeedback","seqFeedback"],"classroomPairings":[["A","B"],["C","D"]],"coinWeights":[0.2,0.5,0.8],"subjectId":"A1WH32GYQOHIRQ","assignmentId":"33LK57MYLUR8HL7DBB0U5XYF10LSZD","hitId":"3FJ2RVH25ZSYKBA8MWMNC8NVPF629N","url":"https://gershmanlab.com/experiments/alicia/teaching/experiment/?hitId=3FJ2RVH25ZSYKBA8MWMNC8NVPF629N&workerId=A1WH32GYQOHIRQ&assignmentId=33LK57MYLUR8HL7DBB0U5XYF10LSZD&a=Y5L37&tp_a=Y5L37&b=33LK57MYLUR8HL7DBB0U5XYF10LSZD&tp_b=33LK57MYLUR8HL7DBB0U5XYF10LSZD&c=365717&tp_c=365717"},{"rt":12631,"stimulus":"\n                <p>Student's guess for coin weight: <b style=\"color:Tomato;\">0.40</b></p>\n                <p>You received a bonus of <b>$0</b>. Total bonus so far: <b>$1.17</b></b></p>\n                <p></p>\n                <p>Press any key to continue.</p>\n                ","response":"tab","trial_type":"html-keyboard-response","trial_index":76,"time_elapsed":791776,"internal_node_id":"0.0-72.0","params":{"nStudents":24,"maxFlips":30,"completionMinutes":45,"basePay":8,"maxBonus":9,"perTrialBonus":0.5,"perTrialBonusThreshold":0.05,"exampleCost":0.01},"classroomParams":{"A":{"a":1,"b":4},"B":{"a":4,"b":1},"C":{"a":2,"b":8},"D":{"a":8,"b":2}},"conditions":["nonSeqFull","nonSeqPartial","seqNoFeedback","seqFeedback"],"classroomPairings":[["A","B"],["C","D"]],"coinWeights":[0.2,0.5,0.8],"subjectId":"A1WH32GYQOHIRQ","assignmentId":"33LK57MYLUR8HL7DBB0U5XYF10LSZD","hitId":"3FJ2RVH25ZSYKBA8MWMNC8NVPF629N","url":"https://gershmanlab.com/experiments/alicia/teaching/experiment/?hitId=3FJ2RVH25ZSYKBA8MWMNC8NVPF629N&workerId=A1WH32GYQOHIRQ&assignmentId=33LK57MYLUR8HL7DBB0U5XYF10LSZD&a=Y5L37&tp_a=Y5L37&b=33LK57MYLUR8HL7DBB0U5XYF10LSZD&tp_b=33LK57MYLUR8HL7DBB0U5XYF10LSZD&c=365717&tp_c=365717"},{"rt":null,"stimulus":"<div style=\"font-size:60px;\">Next student</div>","response":null,"trial_type":"html-keyboard-response","trial_index":77,"time_elapsed":793779,"internal_node_id":"0.0-73.0-0.0","params":{"nStudents":24,"maxFlips":30,"completionMinutes":45,"basePay":8,"maxBonus":9,"perTrialBonus":0.5,"perTrialBonusThreshold":0.05,"exampleCost":0.01},"classroomParams":{"A":{"a":1,"b":4},"B":{"a":4,"b":1},"C":{"a":2,"b":8},"D":{"a":8,"b":2}},"conditions":["nonSeqFull","nonSeqPartial","seqNoFeedback","seqFeedback"],"classroomPairings":[["A","B"],["C","D"]],"coinWeights":[0.2,0.5,0.8],"subjectId":"A1WH32GYQOHIRQ","assignmentId":"33LK57MYLUR8HL7DBB0U5XYF10LSZD","hitId":"3FJ2RVH25ZSYKBA8MWMNC8NVPF629N","url":"https://gershmanlab.com/experiments/alicia/teaching/experiment/?hitId=3FJ2RVH25ZSYKBA8MWMNC8NVPF629N&workerId=A1WH32GYQOHIRQ&assignmentId=33LK57MYLUR8HL7DBB0U5XYF10LSZD&a=Y5L37&tp_a=Y5L37&b=33LK57MYLUR8HL7DBB0U5XYF10LSZD&tp_b=33LK57MYLUR8HL7DBB0U5XYF10LSZD&c=365717&tp_c=365717"},{"rt":2748,"stimulus":"\n            <h4 style=\"color:Orange;\">Student 11</h4>\n            <h2>The weight of your coin is <b style=\"color:Tomato;\">0.2</b>.</h2>\n            <p>In this block, you will be giving <b>one</b> set of examples to Student 11.</p>\n                <p>You will receive feedback at the end of the block.</p>\n            <p></p>","response":0,"trial_type":"html-button-response","trial_index":78,"time_elapsed":796529,"internal_node_id":"0.0-74.0","params":{"nStudents":24,"maxFlips":30,"completionMinutes":45,"basePay":8,"maxBonus":9,"perTrialBonus":0.5,"perTrialBonusThreshold":0.05,"exampleCost":0.01},"classroomParams":{"A":{"a":1,"b":4},"B":{"a":4,"b":1},"C":{"a":2,"b":8},"D":{"a":8,"b":2}},"conditions":["nonSeqFull","nonSeqPartial","seqNoFeedback","seqFeedback"],"classroomPairings":[["A","B"],["C","D"]],"coinWeights":[0.2,0.5,0.8],"subjectId":"A1WH32GYQOHIRQ","assignmentId":"33LK57MYLUR8HL7DBB0U5XYF10LSZD","hitId":"3FJ2RVH25ZSYKBA8MWMNC8NVPF629N","url":"https://gershmanlab.com/experiments/alicia/teaching/experiment/?hitId=3FJ2RVH25ZSYKBA8MWMNC8NVPF629N&workerId=A1WH32GYQOHIRQ&assignmentId=33LK57MYLUR8HL7DBB0U5XYF10LSZD&a=Y5L37&tp_a=Y5L37&b=33LK57MYLUR8HL7DBB0U5XYF10LSZD&tp_b=33LK57MYLUR8HL7DBB0U5XYF10LSZD&c=365717&tp_c=365717"},{"rt":12754,"response":{"heads":"3","tails":"1"},"type":"response","condition":"nonSeqFull","trueTheta":0.2,"classrooms":["A","B"],"studentTrueClassroom":"A","exampleSet":"first","trial_type":"survey-html-form","trial_index":79,"time_elapsed":809285,"internal_node_id":"0.0-75.0-0.0","params":{"nStudents":24,"maxFlips":30,"completionMinutes":45,"basePay":8,"maxBonus":9,"perTrialBonus":0.5,"perTrialBonusThreshold":0.05,"exampleCost":0.01},"classroomParams":{"A":{"a":1,"b":4},"B":{"a":4,"b":1},"C":{"a":2,"b":8},"D":{"a":8,"b":2}},"conditions":["nonSeqFull","nonSeqPartial","seqNoFeedback","seqFeedback"],"classroomPairings":[["A","B"],["C","D"]],"coinWeights":[0.2,0.5,0.8],"subjectId":"A1WH32GYQOHIRQ","assignmentId":"33LK57MYLUR8HL7DBB0U5XYF10LSZD","hitId":"3FJ2RVH25ZSYKBA8MWMNC8NVPF629N","url":"https://gershmanlab.com/experiments/alicia/teaching/experiment/?hitId=3FJ2RVH25ZSYKBA8MWMNC8NVPF629N&workerId=A1WH32GYQOHIRQ&assignmentId=33LK57MYLUR8HL7DBB0U5XYF10LSZD&a=Y5L37&tp_a=Y5L37&b=33LK57MYLUR8HL7DBB0U5XYF10LSZD&tp_b=33LK57MYLUR8HL7DBB0U5XYF10LSZD&c=365717&tp_c=365717","heads":3,"tails":1,"studentIndex":10,"studentTrueHypers":{"a":1,"b":4},"studentGuess":0.4444444444444444,"delta":0.2444444444444444,"totalExamples":4,"bonus":0,"bonusSoFar":1.17},{"rt":null,"stimulus":"Sending examples to student... ","response":null,"trial_type":"html-keyboard-response","trial_index":80,"time_elapsed":810790,"internal_node_id":"0.0-76.0","params":{"nStudents":24,"maxFlips":30,"completionMinutes":45,"basePay":8,"maxBonus":9,"perTrialBonus":0.5,"perTrialBonusThreshold":0.05,"exampleCost":0.01},"classroomParams":{"A":{"a":1,"b":4},"B":{"a":4,"b":1},"C":{"a":2,"b":8},"D":{"a":8,"b":2}},"conditions":["nonSeqFull","nonSeqPartial","seqNoFeedback","seqFeedback"],"classroomPairings":[["A","B"],["C","D"]],"coinWeights":[0.2,0.5,0.8],"subjectId":"A1WH32GYQOHIRQ","assignmentId":"33LK57MYLUR8HL7DBB0U5XYF10LSZD","hitId":"3FJ2RVH25ZSYKBA8MWMNC8NVPF629N","url":"https://gershmanlab.com/experiments/alicia/teaching/experiment/?hitId=3FJ2RVH25ZSYKBA8MWMNC8NVPF629N&workerId=A1WH32GYQOHIRQ&assignmentId=33LK57MYLUR8HL7DBB0U5XYF10LSZD&a=Y5L37&tp_a=Y5L37&b=33LK57MYLUR8HL7DBB0U5XYF10LSZD&tp_b=33LK57MYLUR8HL7DBB0U5XYF10LSZD&c=365717&tp_c=365717"},{"rt":null,"stimulus":"Examples sent to student! Waiting for student...","response":null,"trial_type":"html-keyboard-response","trial_index":81,"time_elapsed":816292,"internal_node_id":"0.0-77.0","params":{"nStudents":24,"maxFlips":30,"completionMinutes":45,"basePay":8,"maxBonus":9,"perTrialBonus":0.5,"perTrialBonusThreshold":0.05,"exampleCost":0.01},"classroomParams":{"A":{"a":1,"b":4},"B":{"a":4,"b":1},"C":{"a":2,"b":8},"D":{"a":8,"b":2}},"conditions":["nonSeqFull","nonSeqPartial","seqNoFeedback","seqFeedback"],"classroomPairings":[["A","B"],["C","D"]],"coinWeights":[0.2,0.5,0.8],"subjectId":"A1WH32GYQOHIRQ","assignmentId":"33LK57MYLUR8HL7DBB0U5XYF10LSZD","hitId":"3FJ2RVH25ZSYKBA8MWMNC8NVPF629N","url":"https://gershmanlab.com/experiments/alicia/teaching/experiment/?hitId=3FJ2RVH25ZSYKBA8MWMNC8NVPF629N&workerId=A1WH32GYQOHIRQ&assignmentId=33LK57MYLUR8HL7DBB0U5XYF10LSZD&a=Y5L37&tp_a=Y5L37&b=33LK57MYLUR8HL7DBB0U5XYF10LSZD&tp_b=33LK57MYLUR8HL7DBB0U5XYF10LSZD&c=365717&tp_c=365717"},{"rt":3351,"stimulus":"\n                <p>Student's guess for coin weight: <b style=\"color:Tomato;\">0.44</b></p>\n                <p>You received a bonus of <b>$0</b>. Total bonus so far: <b>$1.17</b></b></p>\n                <p></p>\n                <p>Press any key to continue.</p>\n                ","response":"tab","trial_type":"html-keyboard-response","trial_index":82,"time_elapsed":819645,"internal_node_id":"0.0-78.0","params":{"nStudents":24,"maxFlips":30,"completionMinutes":45,"basePay":8,"maxBonus":9,"perTrialBonus":0.5,"perTrialBonusThreshold":0.05,"exampleCost":0.01},"classroomParams":{"A":{"a":1,"b":4},"B":{"a":4,"b":1},"C":{"a":2,"b":8},"D":{"a":8,"b":2}},"conditions":["nonSeqFull","nonSeqPartial","seqNoFeedback","seqFeedback"],"classroomPairings":[["A","B"],["C","D"]],"coinWeights":[0.2,0.5,0.8],"subjectId":"A1WH32GYQOHIRQ","assignmentId":"33LK57MYLUR8HL7DBB0U5XYF10LSZD","hitId":"3FJ2RVH25ZSYKBA8MWMNC8NVPF629N","url":"https://gershmanlab.com/experiments/alicia/teaching/experiment/?hitId=3FJ2RVH25ZSYKBA8MWMNC8NVPF629N&workerId=A1WH32GYQOHIRQ&assignmentId=33LK57MYLUR8HL7DBB0U5XYF10LSZD&a=Y5L37&tp_a=Y5L37&b=33LK57MYLUR8HL7DBB0U5XYF10LSZD&tp_b=33LK57MYLUR8HL7DBB0U5XYF10LSZD&c=365717&tp_c=365717"},{"rt":null,"stimulus":"<div style=\"font-size:60px;\">Next student</div>","response":null,"trial_type":"html-keyboard-response","trial_index":83,"time_elapsed":822150,"internal_node_id":"0.0-79.0-0.0","params":{"nStudents":24,"maxFlips":30,"completionMinutes":45,"basePay":8,"maxBonus":9,"perTrialBonus":0.5,"perTrialBonusThreshold":0.05,"exampleCost":0.01},"classroomParams":{"A":{"a":1,"b":4},"B":{"a":4,"b":1},"C":{"a":2,"b":8},"D":{"a":8,"b":2}},"conditions":["nonSeqFull","nonSeqPartial","seqNoFeedback","seqFeedback"],"classroomPairings":[["A","B"],["C","D"]],"coinWeights":[0.2,0.5,0.8],"subjectId":"A1WH32GYQOHIRQ","assignmentId":"33LK57MYLUR8HL7DBB0U5XYF10LSZD","hitId":"3FJ2RVH25ZSYKBA8MWMNC8NVPF629N","url":"https://gershmanlab.com/experiments/alicia/teaching/experiment/?hitId=3FJ2RVH25ZSYKBA8MWMNC8NVPF629N&workerId=A1WH32GYQOHIRQ&assignmentId=33LK57MYLUR8HL7DBB0U5XYF10LSZD&a=Y5L37&tp_a=Y5L37&b=33LK57MYLUR8HL7DBB0U5XYF10LSZD&tp_b=33LK57MYLUR8HL7DBB0U5XYF10LSZD&c=365717&tp_c=365717"},{"rt":5565,"stimulus":"\n            <h4 style=\"color:Orange;\">Student 12</h4>\n            <h2>The weight of your coin is <b style=\"color:Tomato;\">0.8</b>.</h2>\n            <p>In this block, you will be giving <b>one</b> set of examples to Student 12.</p>\n                <p>You will receive feedback at the end of the block.</p>\n            <p></p>","response":0,"trial_type":"html-button-response","trial_index":84,"time_elapsed":827717,"internal_node_id":"0.0-80.0","params":{"nStudents":24,"maxFlips":30,"completionMinutes":45,"basePay":8,"maxBonus":9,"perTrialBonus":0.5,"perTrialBonusThreshold":0.05,"exampleCost":0.01},"classroomParams":{"A":{"a":1,"b":4},"B":{"a":4,"b":1},"C":{"a":2,"b":8},"D":{"a":8,"b":2}},"conditions":["nonSeqFull","nonSeqPartial","seqNoFeedback","seqFeedback"],"classroomPairings":[["A","B"],["C","D"]],"coinWeights":[0.2,0.5,0.8],"subjectId":"A1WH32GYQOHIRQ","assignmentId":"33LK57MYLUR8HL7DBB0U5XYF10LSZD","hitId":"3FJ2RVH25ZSYKBA8MWMNC8NVPF629N","url":"https://gershmanlab.com/experiments/alicia/teaching/experiment/?hitId=3FJ2RVH25ZSYKBA8MWMNC8NVPF629N&workerId=A1WH32GYQOHIRQ&assignmentId=33LK57MYLUR8HL7DBB0U5XYF10LSZD&a=Y5L37&tp_a=Y5L37&b=33LK57MYLUR8HL7DBB0U5XYF10LSZD&tp_b=33LK57MYLUR8HL7DBB0U5XYF10LSZD&c=365717&tp_c=365717"},{"rt":9840,"response":{"heads":"2","tails":"8"},"type":"response","condition":"nonSeqFull","trueTheta":0.8,"classrooms":["C","D"],"studentTrueClassroom":"D","exampleSet":"first","trial_type":"survey-html-form","trial_index":85,"time_elapsed":837559,"internal_node_id":"0.0-81.0-0.0","params":{"nStudents":24,"maxFlips":30,"completionMinutes":45,"basePay":8,"maxBonus":9,"perTrialBonus":0.5,"perTrialBonusThreshold":0.05,"exampleCost":0.01},"classroomParams":{"A":{"a":1,"b":4},"B":{"a":4,"b":1},"C":{"a":2,"b":8},"D":{"a":8,"b":2}},"conditions":["nonSeqFull","nonSeqPartial","seqNoFeedback","seqFeedback"],"classroomPairings":[["A","B"],["C","D"]],"coinWeights":[0.2,0.5,0.8],"subjectId":"A1WH32GYQOHIRQ","assignmentId":"33LK57MYLUR8HL7DBB0U5XYF10LSZD","hitId":"3FJ2RVH25ZSYKBA8MWMNC8NVPF629N","url":"https://gershmanlab.com/experiments/alicia/teaching/experiment/?hitId=3FJ2RVH25ZSYKBA8MWMNC8NVPF629N&workerId=A1WH32GYQOHIRQ&assignmentId=33LK57MYLUR8HL7DBB0U5XYF10LSZD&a=Y5L37&tp_a=Y5L37&b=33LK57MYLUR8HL7DBB0U5XYF10LSZD&tp_b=33LK57MYLUR8HL7DBB0U5XYF10LSZD&c=365717&tp_c=365717","heads":2,"tails":8,"studentIndex":11,"studentTrueHypers":{"a":8,"b":2},"studentGuess":0.5,"delta":0.30000000000000004,"totalExamples":10,"bonus":0,"bonusSoFar":1.17},{"rt":null,"stimulus":"Sending examples to student... ","response":null,"trial_type":"html-keyboard-response","trial_index":86,"time_elapsed":839062,"internal_node_id":"0.0-82.0","params":{"nStudents":24,"maxFlips":30,"completionMinutes":45,"basePay":8,"maxBonus":9,"perTrialBonus":0.5,"perTrialBonusThreshold":0.05,"exampleCost":0.01},"classroomParams":{"A":