[{"rt":2924,"stimulus":"Welcome to the experiment. Press any key to begin.","response":" ","trial_type":"html-keyboard-response","trial_index":0,"time_elapsed":2963,"internal_node_id":"0.0-0.0","params":{"nStudents":24,"maxFlips":30,"completionMinutes":45,"basePay":8,"maxBonus":9,"perTrialBonus":0.5,"perTrialBonusThreshold":0.05,"exampleCost":0.01},"classroomParams":{"A":{"a":1,"b":4},"B":{"a":4,"b":1},"C":{"a":2,"b":8},"D":{"a":8,"b":2}},"conditions":["nonSeqFull","nonSeqPartial","seqNoFeedback","seqFeedback"],"classroomPairings":[["A","B"],["C","D"]],"coinWeights":[0.2,0.5,0.8],"subjectId":"A1WJGO38GJ99ZS","assignmentId":"3ZR9AIQJUCVSDFZCHGRK1VFN5D004N","hitId":"34KYK9TV2RUAD363EVFPUWVPB97SBP","url":"https://gershmanlab.com/experiments/alicia/teaching/experiment/?hitId=34KYK9TV2RUAD363EVFPUWVPB97SBP&workerId=A1WJGO38GJ99ZS&assignmentId=3ZR9AIQJUCVSDFZCHGRK1VFN5D004N&a=JARZ7&tp_a=JARZ7&b=3ZR9AIQJUCVSDFZCHGRK1VFN5D004N&tp_b=3ZR9AIQJUCVSDFZCHGRK1VFN5D004N&c=365717&tp_c=365717"},{"rt":19570,"stimulus":"\n        <h3>Please read this consent agreement carefully before deciding whether to participate in this experiment.</h3>\n        <p><b>Purpose of the research:</b> To examine how people teach effectively.</p>\n        <p><b>What you will do in this research:</b> You will teach students the weights of different coins.</p>\n        <p><b>Time required:</b> This experiment will take 45 minutes to complete.</p>\n        <p><b>Risks:</b> There are no anticipated risks associated with participating in this study.             The effects of participating should be comparable to those you would experience from viewing a computer monitor             and using a mouse and keyboard for the duration of the experiment.</p>\n        <p><b>Benefits:</b> The study provides important information about the nature of teaching.</p>\n        <p><b>Compensation:</b> You will receive <b>$8</b> for completing the experiment and a performance bonus of up to <b>$9</b>.</p>\n        <p><b>Confidentiality:</b> Your participation in this study will remain confidential.             No personally identifiable information will be associated with your data.             Your de-identified data may be shared with other researchers and used in future projects.</p>\n        <p><b>Participation and withdrawal:</b> Your participation in this study is completely voluntary and             you may refuse to participate or you may choose to withdraw at any time without penalty or loss of\n            benefits to which you are otherwise entitled.</p>\n        <p><b>How to contact the researcher:</b> If you have questions or concerns about your participation            or payment, or want to request a summary of research findings, please contact\n            Alicia Chen, aliciachen@college.harvard.edu.</p>\n        <p><b>Whom to contact about your rights in this research:</b> For questions, concerns, suggestions,             or complaints that have not been or cannot be addressed by the researcher, or to report             research-related harm, please contact the Committee on the Use of Human Subjects in Research at Harvard University,             1414 Massachusetts Avenue, Second Floor, Cambridge, MA 02138. Phone: 617-496-2847. Email: cuhs@fas.harvard.edu.</p>\n        ","response":0,"trial_type":"html-button-response","trial_index":1,"time_elapsed":22537,"internal_node_id":"0.0-1.0","params":{"nStudents":24,"maxFlips":30,"completionMinutes":45,"basePay":8,"maxBonus":9,"perTrialBonus":0.5,"perTrialBonusThreshold":0.05,"exampleCost":0.01},"classroomParams":{"A":{"a":1,"b":4},"B":{"a":4,"b":1},"C":{"a":2,"b":8},"D":{"a":8,"b":2}},"conditions":["nonSeqFull","nonSeqPartial","seqNoFeedback","seqFeedback"],"classroomPairings":[["A","B"],["C","D"]],"coinWeights":[0.2,0.5,0.8],"subjectId":"A1WJGO38GJ99ZS","assignmentId":"3ZR9AIQJUCVSDFZCHGRK1VFN5D004N","hitId":"34KYK9TV2RUAD363EVFPUWVPB97SBP","url":"https://gershmanlab.com/experiments/alicia/teaching/experiment/?hitId=34KYK9TV2RUAD363EVFPUWVPB97SBP&workerId=A1WJGO38GJ99ZS&assignmentId=3ZR9AIQJUCVSDFZCHGRK1VFN5D004N&a=JARZ7&tp_a=JARZ7&b=3ZR9AIQJUCVSDFZCHGRK1VFN5D004N&tp_b=3ZR9AIQJUCVSDFZCHGRK1VFN5D004N&c=365717&tp_c=365717"},{"view_history":[{"page_index":0,"viewing_time":7416},{"page_index":1,"viewing_time":4368},{"page_index":2,"viewing_time":43274},{"page_index":3,"viewing_time":24858},{"page_index":4,"viewing_time":14534},{"page_index":5,"viewing_time":32820},{"page_index":6,"viewing_time":36370}],"rt":163640,"trial_type":"instructions","trial_index":2,"time_elapsed":186179,"internal_node_id":"0.0-2.0-0.0","params":{"nStudents":24,"maxFlips":30,"completionMinutes":45,"basePay":8,"maxBonus":9,"perTrialBonus":0.5,"perTrialBonusThreshold":0.05,"exampleCost":0.01},"classroomParams":{"A":{"a":1,"b":4},"B":{"a":4,"b":1},"C":{"a":2,"b":8},"D":{"a":8,"b":2}},"conditions":["nonSeqFull","nonSeqPartial","seqNoFeedback","seqFeedback"],"classroomPairings":[["A","B"],["C","D"]],"coinWeights":[0.2,0.5,0.8],"subjectId":"A1WJGO38GJ99ZS","assignmentId":"3ZR9AIQJUCVSDFZCHGRK1VFN5D004N","hitId":"34KYK9TV2RUAD363EVFPUWVPB97SBP","url":"https://gershmanlab.com/experiments/alicia/teaching/experiment/?hitId=34KYK9TV2RUAD363EVFPUWVPB97SBP&workerId=A1WJGO38GJ99ZS&assignmentId=3ZR9AIQJUCVSDFZCHGRK1VFN5D004N&a=JARZ7&tp_a=JARZ7&b=3ZR9AIQJUCVSDFZCHGRK1VFN5D004N&tp_b=3ZR9AIQJUCVSDFZCHGRK1VFN5D004N&c=365717&tp_c=365717"},{"rt":71796,"response":{"Q0":"Students in different classrooms have seen a different proportion of fair and unfair coins before seeing the examples you select for them.","Q1":"By <b>considering the student's classroom information</b> so that I can teach efficiently and accurately/helpfully at the same time (because each example I give to the student costs money!).","Q2":"The coin lands heads 90% of the time.","Q3":"No, I will teach a <b>new</b> student each time.","Q4":"The students are also on the same alien planet as you, where coins can be unfair.","Q5":"Based on the student's second (and final) guess."},"question_order":[2,1,5,3,4,0],"trial_type":"survey-multi-choice","trial_index":3,"time_elapsed":257980,"internal_node_id":"0.0-2.0-1.0","params":{"nStudents":24,"maxFlips":30,"completionMinutes":45,"basePay":8,"maxBonus":9,"perTrialBonus":0.5,"perTrialBonusThreshold":0.05,"exampleCost":0.01},"classroomParams":{"A":{"a":1,"b":4},"B":{"a":4,"b":1},"C":{"a":2,"b":8},"D":{"a":8,"b":2}},"conditions":["nonSeqFull","nonSeqPartial","seqNoFeedback","seqFeedback"],"classroomPairings":[["A","B"],["C","D"]],"coinWeights":[0.2,0.5,0.8],"subjectId":"A1WJGO38GJ99ZS","assignmentId":"3ZR9AIQJUCVSDFZCHGRK1VFN5D004N","hitId":"34KYK9TV2RUAD363EVFPUWVPB97SBP","url":"https://gershmanlab.com/experiments/alicia/teaching/experiment/?hitId=34KYK9TV2RUAD363EVFPUWVPB97SBP&workerId=A1WJGO38GJ99ZS&assignmentId=3ZR9AIQJUCVSDFZCHGRK1VFN5D004N&a=JARZ7&tp_a=JARZ7&b=3ZR9AIQJUCVSDFZCHGRK1VFN5D004N&tp_b=3ZR9AIQJUCVSDFZCHGRK1VFN5D004N&c=365717&tp_c=365717","pass":false},{"rt":3530,"stimulus":"Oops, you have missed question(s) on the comprehension check! We'll show you the instructions again.","response":0,"trial_type":"html-button-response","trial_index":4,"time_elapsed":261516,"internal_node_id":"0.0-2.0-2.0-0.0","params":{"nStudents":24,"maxFlips":30,"completionMinutes":45,"basePay":8,"maxBonus":9,"perTrialBonus":0.5,"perTrialBonusThreshold":0.05,"exampleCost":0.01},"classroomParams":{"A":{"a":1,"b":4},"B":{"a":4,"b":1},"C":{"a":2,"b":8},"D":{"a":8,"b":2}},"conditions":["nonSeqFull","nonSeqPartial","seqNoFeedback","seqFeedback"],"classroomPairings":[["A","B"],["C","D"]],"coinWeights":[0.2,0.5,0.8],"subjectId":"A1WJGO38GJ99ZS","assignmentId":"3ZR9AIQJUCVSDFZCHGRK1VFN5D004N","hitId":"34KYK9TV2RUAD363EVFPUWVPB97SBP","url":"https://gershmanlab.com/experiments/alicia/teaching/experiment/?hitId=34KYK9TV2RUAD363EVFPUWVPB97SBP&workerId=A1WJGO38GJ99ZS&assignmentId=3ZR9AIQJUCVSDFZCHGRK1VFN5D004N&a=JARZ7&tp_a=JARZ7&b=3ZR9AIQJUCVSDFZCHGRK1VFN5D004N&tp_b=3ZR9AIQJUCVSDFZCHGRK1VFN5D004N&c=365717&tp_c=365717"},{"view_history":[{"page_index":0,"viewing_time":4697},{"page_index":1,"viewing_time":4522},{"page_index":2,"viewing_time":19052},{"page_index":3,"viewing_time":14868},{"page_index":4,"viewing_time":21696},{"page_index":5,"viewing_time":16390},{"page_index":6,"viewing_time":3878}],"rt":85104,"trial_type":"instructions","trial_index":5,"time_elapsed":346622,"internal_node_id":"0.0-2.1-0.1","params":{"nStudents":24,"maxFlips":30,"completionMinutes":45,"basePay":8,"maxBonus":9,"perTrialBonus":0.5,"perTrialBonusThreshold":0.05,"exampleCost":0.01},"classroomParams":{"A":{"a":1,"b":4},"B":{"a":4,"b":1},"C":{"a":2,"b":8},"D":{"a":8,"b":2}},"conditions":["nonSeqFull","nonSeqPartial","seqNoFeedback","seqFeedback"],"classroomPairings":[["A","B"],["C","D"]],"coinWeights":[0.2,0.5,0.8],"subjectId":"A1WJGO38GJ99ZS","assignmentId":"3ZR9AIQJUCVSDFZCHGRK1VFN5D004N","hitId":"34KYK9TV2RUAD363EVFPUWVPB97SBP","url":"https://gershmanlab.com/experiments/alicia/teaching/experiment/?hitId=34KYK9TV2RUAD363EVFPUWVPB97SBP&workerId=A1WJGO38GJ99ZS&assignmentId=3ZR9AIQJUCVSDFZCHGRK1VFN5D004N&a=JARZ7&tp_a=JARZ7&b=3ZR9AIQJUCVSDFZCHGRK1VFN5D004N&tp_b=3ZR9AIQJUCVSDFZCHGRK1VFN5D004N&c=365717&tp_c=365717"},{"rt":55989,"response":{"Q0":"The classrooms are all the same and aren't helpful for deciding how to teach.","Q1":"By <b>considering the student's classroom information</b> so that I can teach efficiently and accurately/helpfully at the same time (because each example I give to the student costs money!).","Q2":"The coin lands heads 90% of the time.","Q3":"Yes, I might encounter the same student twice.","Q4":"The students are also on the same alien planet as you, where coins can be unfair.","Q5":"Based on both guesses."},"question_order":[4,5,1,2,3,0],"trial_type":"survey-multi-choice","trial_index":6,"time_elapsed":402613,"internal_node_id":"0.0-2.1-1.1","params":{"nStudents":24,"maxFlips":30,"completionMinutes":45,"basePay":8,"maxBonus":9,"perTrialBonus":0.5,"perTrialBonusThreshold":0.05,"exampleCost":0.01},"classroomParams":{"A":{"a":1,"b":4},"B":{"a":4,"b":1},"C":{"a":2,"b":8},"D":{"a":8,"b":2}},"conditions":["nonSeqFull","nonSeqPartial","seqNoFeedback","seqFeedback"],"classroomPairings":[["A","B"],["C","D"]],"coinWeights":[0.2,0.5,0.8],"subjectId":"A1WJGO38GJ99ZS","assignmentId":"3ZR9AIQJUCVSDFZCHGRK1VFN5D004N","hitId":"34KYK9TV2RUAD363EVFPUWVPB97SBP","url":"https://gershmanlab.com/experiments/alicia/teaching/experiment/?hitId=34KYK9TV2RUAD363EVFPUWVPB97SBP&workerId=A1WJGO38GJ99ZS&assignmentId=3ZR9AIQJUCVSDFZCHGRK1VFN5D004N&a=JARZ7&tp_a=JARZ7&b=3ZR9AIQJUCVSDFZCHGRK1VFN5D004N&tp_b=3ZR9AIQJUCVSDFZCHGRK1VFN5D004N&c=365717&tp_c=365717","pass":false},{"rt":2841,"stimulus":"Oops, you have missed question(s) on the comprehension check! We'll show you the instructions again.","response":0,"trial_type":"html-button-response","trial_index":7,"time_elapsed":405460,"internal_node_id":"0.0-2.1-2.1-0.1","params":{"nStudents":24,"maxFlips":30,"completionMinutes":45,"basePay":8,"maxBonus":9,"perTrialBonus":0.5,"perTrialBonusThreshold":0.05,"exampleCost":0.01},"classroomParams":{"A":{"a":1,"b":4},"B":{"a":4,"b":1},"C":{"a":2,"b":8},"D":{"a":8,"b":2}},"conditions":["nonSeqFull","nonSeqPartial","seqNoFeedback","seqFeedback"],"classroomPairings":[["A","B"],["C","D"]],"coinWeights":[0.2,0.5,0.8],"subjectId":"A1WJGO38GJ99ZS","assignmentId":"3ZR9AIQJUCVSDFZCHGRK1VFN5D004N","hitId":"34KYK9TV2RUAD363EVFPUWVPB97SBP","url":"https://gershmanlab.com/experiments/alicia/teaching/experiment/?hitId=34KYK9TV2RUAD363EVFPUWVPB97SBP&workerId=A1WJGO38GJ99ZS&assignmentId=3ZR9AIQJUCVSDFZCHGRK1VFN5D004N&a=JARZ7&tp_a=JARZ7&b=3ZR9AIQJUCVSDFZCHGRK1VFN5D004N&tp_b=3ZR9AIQJUCVSDFZCHGRK1VFN5D004N&c=365717&tp_c=365717"},{"view_history":[{"page_index":0,"viewing_time":5495},{"page_index":1,"viewing_time":4228},{"page_index":2,"viewing_time":34314},{"page_index":3,"viewing_time":31036},{"page_index":4,"viewing_time":10762},{"page_index":5,"viewing_time":47304},{"page_index":4,"viewing_time":4894},{"page_index":3,"viewing_time":5148},{"page_index":2,"viewing_time":7690},{"page_index":1,"viewing_time":6814},{"page_index":0,"viewing_time":5482},{"page_index":1,"viewing_time":302},{"page_index":2,"viewing_time":1432},{"page_index":3,"viewing_time":760},{"page_index":4,"viewing_time":928},{"page_index":5,"viewing_time":7116},{"page_index":6,"viewing_time":35419}],"rt":209124,"trial_type":"instructions","trial_index":8,"time_elapsed":614585,"internal_node_id":"0.0-2.2-0.2","params":{"nStudents":24,"maxFlips":30,"completionMinutes":45,"basePay":8,"maxBonus":9,"perTrialBonus":0.5,"perTrialBonusThreshold":0.05,"exampleCost":0.01},"classroomParams":{"A":{"a":1,"b":4},"B":{"a":4,"b":1},"C":{"a":2,"b":8},"D":{"a":8,"b":2}},"conditions":["nonSeqFull","nonSeqPartial","seqNoFeedback","seqFeedback"],"classroomPairings":[["A","B"],["C","D"]],"coinWeights":[0.2,0.5,0.8],"subjectId":"A1WJGO38GJ99ZS","assignmentId":"3ZR9AIQJUCVSDFZCHGRK1VFN5D004N","hitId":"34KYK9TV2RUAD363EVFPUWVPB97SBP","url":"https://gershmanlab.com/experiments/alicia/teaching/experiment/?hitId=34KYK9TV2RUAD363EVFPUWVPB97SBP&workerId=A1WJGO38GJ99ZS&assignmentId=3ZR9AIQJUCVSDFZCHGRK1VFN5D004N&a=JARZ7&tp_a=JARZ7&b=3ZR9AIQJUCVSDFZCHGRK1VFN5D004N&tp_b=3ZR9AIQJUCVSDFZCHGRK1VFN5D004N&c=365717&tp_c=365717"},{"rt":263132,"response":{"Q0":"Students in different classrooms have seen a different proportion of fair and unfair coins before seeing the examples you select for them.","Q1":"By <b>considering the student's classroom information</b> so that I can teach efficiently and accurately/helpfully at the same time (because each example I give to the student costs money!).","Q2":"The coin lands heads 90% of the time.","Q3":"Yes, I might encounter the same student twice.","Q4":"The students are also on the same alien planet as you, where coins can be unfair.","Q5":"Based on the student's second (and final) guess."},"question_order":[0,1,4,2,3,5],"trial_type":"survey-multi-choice","trial_index":9,"time_elapsed":877719,"internal_node_id":"0.0-2.2-1.2","params":{"nStudents":24,"maxFlips":30,"completionMinutes":45,"basePay":8,"maxBonus":9,"perTrialBonus":0.5,"perTrialBonusThreshold":0.05,"exampleCost":0.01},"classroomParams":{"A":{"a":1,"b":4},"B":{"a":4,"b":1},"C":{"a":2,"b":8},"D":{"a":8,"b":2}},"conditions":["nonSeqFull","nonSeqPartial","seqNoFeedback","seqFeedback"],"classroomPairings":[["A","B"],["C","D"]],"coinWeights":[0.2,0.5,0.8],"subjectId":"A1WJGO38GJ99ZS","assignmentId":"3ZR9AIQJUCVSDFZCHGRK1VFN5D004N","hitId":"34KYK9TV2RUAD363EVFPUWVPB97SBP","url":"https://gershmanlab.com/experiments/alicia/teaching/experiment/?hitId=34KYK9TV2RUAD363EVFPUWVPB97SBP&workerId=A1WJGO38GJ99ZS&assignmentId=3ZR9AIQJUCVSDFZCHGRK1VFN5D004N&a=JARZ7&tp_a=JARZ7&b=3ZR9AIQJUCVSDFZCHGRK1VFN5D004N&tp_b=3ZR9AIQJUCVSDFZCHGRK1VFN5D004N&c=365717&tp_c=365717","pass":false},{"rt":1409,"stimulus":"Oops, you have missed question(s) on the comprehension check! We'll show you the instructions again.","response":0,"trial_type":"html-button-response","trial_index":10,"time_elapsed":879134,"internal_node_id":"0.0-2.2-2.2-0.2","params":{"nStudents":24,"maxFlips":30,"completionMinutes":45,"basePay":8,"maxBonus":9,"perTrialBonus":0.5,"perTrialBonusThreshold":0.05,"exampleCost":0.01},"classroomParams":{"A":{"a":1,"b":4},"B":{"a":4,"b":1},"C":{"a":2,"b":8},"D":{"a":8,"b":2}},"conditions":["nonSeqFull","nonSeqPartial","seqNoFeedback","seqFeedback"],"classroomPairings":[["A","B"],["C","D"]],"coinWeights":[0.2,0.5,0.8],"subjectId":"A1WJGO38GJ99ZS","assignmentId":"3ZR9AIQJUCVSDFZCHGRK1VFN5D004N","hitId":"34KYK9TV2RUAD363EVFPUWVPB97SBP","url":"https://gershmanlab.com/experiments/alicia/teaching/experiment/?hitId=34KYK9TV2RUAD363EVFPUWVPB97SBP&workerId=A1WJGO38GJ99ZS&assignmentId=3ZR9AIQJUCVSDFZCHGRK1VFN5D004N&a=JARZ7&tp_a=JARZ7&b=3ZR9AIQJUCVSDFZCHGRK1VFN5D004N&tp_b=3ZR9AIQJUCVSDFZCHGRK1VFN5D004N&c=365717&tp_c=365717"},{"view_history":[{"page_index":0,"viewing_time":1625},{"page_index":1,"viewing_time":456},{"page_index":2,"viewing_time":1170},{"page_index":3,"viewing_time":2896},{"page_index":4,"viewing_time":22138},{"page_index":5,"viewing_time":1394},{"page_index":4,"viewing_time":2424},{"page_index":5,"viewing_time":1317},{"page_index":6,"viewing_time":1370}],"rt":34789,"trial_type":"instructions","trial_index":11,"time_elapsed":913924,"internal_node_id":"0.0-2.3-0.3","params":{"nStudents":24,"maxFlips":30,"completionMinutes":45,"basePay":8,"maxBonus":9,"perTrialBonus":0.5,"perTrialBonusThreshold":0.05,"exampleCost":0.01},"classroomParams":{"A":{"a":1,"b":4},"B":{"a":4,"b":1},"C":{"a":2,"b":8},"D":{"a":8,"b":2}},"conditions":["nonSeqFull","nonSeqPartial","seqNoFeedback","seqFeedback"],"classroomPairings":[["A","B"],["C","D"]],"coinWeights":[0.2,0.5,0.8],"subjectId":"A1WJGO38GJ99ZS","assignmentId":"3ZR9AIQJUCVSDFZCHGRK1VFN5D004N","hitId":"34KYK9TV2RUAD363EVFPUWVPB97SBP","url":"https://gershmanlab.com/experiments/alicia/teaching/experiment/?hitId=34KYK9TV2RUAD363EVFPUWVPB97SBP&workerId=A1WJGO38GJ99ZS&assignmentId=3ZR9AIQJUCVSDFZCHGRK1VFN5D004N&a=JARZ7&tp_a=JARZ7&b=3ZR9AIQJUCVSDFZCHGRK1VFN5D004N&tp_b=3ZR9AIQJUCVSDFZCHGRK1VFN5D004N&c=365717&tp_c=365717"},{"rt":24597,"response":{"Q0":"Students in different classrooms have seen a different proportion of fair and unfair coins before seeing the examples you select for them.","Q1":"By <b>considering the student's classroom information</b> so that I can teach efficiently and accurately/helpfully at the same time (because each example I give to the student costs money!).","Q2":"The coin lands heads 90% of the time.","Q3":"No, I will teach a <b>new</b> student each time.","Q4":"The students are also on the same alien planet as you, where coins can be unfair.","Q5":"Based on the student's second (and final) guess."},"question_order":[3,2,5,0,4,1],"trial_type":"survey-multi-choice","trial_index":12,"time_elapsed":938523,"internal_node_id":"0.0-2.3-1.3","params":{"nStudents":24,"maxFlips":30,"completionMinutes":45,"basePay":8,"maxBonus":9,"perTrialBonus":0.5,"perTrialBonusThreshold":0.05,"exampleCost":0.01},"classroomParams":{"A":{"a":1,"b":4},"B":{"a":4,"b":1},"C":{"a":2,"b":8},"D":{"a":8,"b":2}},"conditions":["nonSeqFull","nonSeqPartial","seqNoFeedback","seqFeedback"],"classroomPairings":[["A","B"],["C","D"]],"coinWeights":[0.2,0.5,0.8],"subjectId":"A1WJGO38GJ99ZS","assignmentId":"3ZR9AIQJUCVSDFZCHGRK1VFN5D004N","hitId":"34KYK9TV2RUAD363EVFPUWVPB97SBP","url":"https://gershmanlab.com/experiments/alicia/teaching/experiment/?hitId=34KYK9TV2RUAD363EVFPUWVPB97SBP&workerId=A1WJGO38GJ99ZS&assignmentId=3ZR9AIQJUCVSDFZCHGRK1VFN5D004N&a=JARZ7&tp_a=JARZ7&b=3ZR9AIQJUCVSDFZCHGRK1VFN5D004N&tp_b=3ZR9AIQJUCVSDFZCHGRK1VFN5D004N&c=365717&tp_c=365717","pass":false},{"rt":3169,"stimulus":"Oops, you have missed question(s) on the comprehension check! We'll show you the instructions again.","response":0,"trial_type":"html-button-response","trial_index":13,"time_elapsed":941698,"internal_node_id":"0.0-2.3-2.3-0.3","params":{"nStudents":24,"maxFlips":30,"completionMinutes":45,"basePay":8,"maxBonus":9,"perTrialBonus":0.5,"perTrialBonusThreshold":0.05,"exampleCost":0.01},"classroomParams":{"A":{"a":1,"b":4},"B":{"a":4,"b":1},"C":{"a":2,"b":8},"D":{"a":8,"b":2}},"conditions":["nonSeqFull","nonSeqPartial","seqNoFeedback","seqFeedback"],"classroomPairings":[["A","B"],["C","D"]],"coinWeights":[0.2,0.5,0.8],"subjectId":"A1WJGO38GJ99ZS","assignmentId":"3ZR9AIQJUCVSDFZCHGRK1VFN5D004N","hitId":"34KYK9TV2RUAD363EVFPUWVPB97SBP","url":"https://gershmanlab.com/experiments/alicia/teaching/experiment/?hitId=34KYK9TV2RUAD363EVFPUWVPB97SBP&workerId=A1WJGO38GJ99ZS&assignmentId=3ZR9AIQJUCVSDFZCHGRK1VFN5D004N&a=JARZ7&tp_a=JARZ7&b=3ZR9AIQJUCVSDFZCHGRK1VFN5D004N&tp_b=3ZR9AIQJUCVSDFZCHGRK1VFN5D004N&c=365717&tp_c=365717"},{"view_history":[{"page_index":0,"viewing_time":1539},{"page_index":1,"viewing_time":976},{"page_index":2,"viewing_time":960},{"page_index":3,"viewing_time":682},{"page_index":4,"viewing_time":873},{"page_index":5,"viewing_time":31370},{"page_index":6,"viewing_time":18590}],"rt":54991,"trial_type":"instructions","trial_index":14,"time_elapsed":996690,"internal_node_id":"0.0-2.4-0.4","params":{"nStudents":24,"maxFlips":30,"completionMinutes":45,"basePay":8,"maxBonus":9,"perTrialBonus":0.5,"perTrialBonusThreshold":0.05,"exampleCost":0.01},"classroomParams":{"A":{"a":1,"b":4},"B":{"a":4,"b":1},"C":{"a":2,"b":8},"D":{"a":8,"b":2}},"conditions":["nonSeqFull","nonSeqPartial","seqNoFeedback","seqFeedback"],"classroomPairings":[["A","B"],["C","D"]],"coinWeights":[0.2,0.5,0.8],"subjectId":"A1WJGO38GJ99ZS","assignmentId":"3ZR9AIQJUCVSDFZCHGRK1VFN5D004N","hitId":"34KYK9TV2RUAD363EVFPUWVPB97SBP","url":"https://gershmanlab.com/experiments/alicia/teaching/experiment/?hitId=34KYK9TV2RUAD363EVFPUWVPB97SBP&workerId=A1WJGO38GJ99ZS&assignmentId=3ZR9AIQJUCVSDFZCHGRK1VFN5D004N&a=JARZ7&tp_a=JARZ7&b=3ZR9AIQJUCVSDFZCHGRK1VFN5D004N&tp_b=3ZR9AIQJUCVSDFZCHGRK1VFN5D004N&c=365717&tp_c=365717"},{"rt":13619,"response":{"Q0":"Students in different classrooms have seen a different proportion of fair and unfair coins before seeing the examples you select for them.","Q1":"By <b>considering the student's classroom information</b> so that I can teach efficiently and accurately/helpfully at the same time (because each example I give to the student costs money!).","Q2":"The coin lands heads 90% of the time.","Q3":"No, I will teach a <b>new</b> student each time.","Q4":"The students are also on the same alien planet as you, where coins can be unfair.","Q5":"Based on both guesses."},"question_order":[1,0,2,5,4,3],"trial_type":"survey-multi-choice","trial_index":15,"time_elapsed":1010311,"internal_node_id":"0.0-2.4-1.4","params":{"nStudents":24,"maxFlips":30,"completionMinutes":45,"basePay":8,"maxBonus":9,"perTrialBonus":0.5,"perTrialBonusThreshold":0.05,"exampleCost":0.01},"classroomParams":{"A":{"a":1,"b":4},"B":{"a":4,"b":1},"C":{"a":2,"b":8},"D":{"a":8,"b":2}},"conditions":["nonSeqFull","nonSeqPartial","seqNoFeedback","seqFeedback"],"classroomPairings":[["A","B"],["C","D"]],"coinWeights":[0.2,0.5,0.8],"subjectId":"A1WJGO38GJ99ZS","assignmentId":"3ZR9AIQJUCVSDFZCHGRK1VFN5D004N","hitId":"34KYK9TV2RUAD363EVFPUWVPB97SBP","url":"https://gershmanlab.com/experiments/alicia/teaching/experiment/?hitId=34KYK9TV2RUAD363EVFPUWVPB97SBP&workerId=A1WJGO38GJ99ZS&assignmentId=3ZR9AIQJUCVSDFZCHGRK1VFN5D004N&a=JARZ7&tp_a=JARZ7&b=3ZR9AIQJUCVSDFZCHGRK1VFN5D004N&tp_b=3ZR9AIQJUCVSDFZCHGRK1VFN5D004N&c=365717&tp_c=365717","pass":false},{"rt":1603,"stimulus":"Oops, you have missed question(s) on the comprehension check! We'll show you the instructions again.","response":0,"trial_type":"html-button-response","trial_index":16,"time_elapsed":1011920,"internal_node_id":"0.0-2.4-2.4-0.4","params":{"nStudents":24,"maxFlips":30,"completionMinutes":45,"basePay":8,"maxBonus":9,"perTrialBonus":0.5,"perTrialBonusThreshold":0.05,"exampleCost":0.01},"classroomParams":{"A":{"a":1,"b":4},"B":{"a":4,"b":1},"C":{"a":2,"b":8},"D":{"a":8,"b":2}},"conditions":["nonSeqFull","nonSeqPartial","seqNoFeedback","seqFeedback"],"classroomPairings":[["A","B"],["C","D"]],"coinWeights":[0.2,0.5,0.8],"subjectId":"A1WJGO38GJ99ZS","assignmentId":"3ZR9AIQJUCVSDFZCHGRK1VFN5D004N","hitId":"34KYK9TV2RUAD363EVFPUWVPB97SBP","url":"https://gershmanlab.com/experiments/alicia/teaching/experiment/?hitId=34KYK9TV2RUAD363EVFPUWVPB97SBP&workerId=A1WJGO38GJ99ZS&assignmentId=3ZR9AIQJUCVSDFZCHGRK1VFN5D004N&a=JARZ7&tp_a=JARZ7&b=3ZR9AIQJUCVSDFZCHGRK1VFN5D004N&tp_b=3ZR9AIQJUCVSDFZCHGRK1VFN5D004N&c=365717&tp_c=365717"},{"view_history":[{"page_index":0,"viewing_time":1051},{"page_index":1,"viewing_time":434},{"page_index":2,"viewing_time":1162},{"page_index":3,"viewing_time":1052},{"page_index":4,"viewing_time":1014},{"page_index":5,"viewing_time":1076},{"page_index":6,"viewing_time":1386}],"rt":7175,"trial_type":"instructions","trial_index":17,"time_elapsed":1019096,"internal_node_id":"0.0-2.5-0.5","params":{"nStudents":24,"maxFlips":30,"completionMinutes":45,"basePay":8,"maxBonus":9,"perTrialBonus":0.5,"perTrialBonusThreshold":0.05,"exampleCost":0.01},"classroomParams":{"A":{"a":1,"b":4},"B":{"a":4,"b":1},"C":{"a":2,"b":8},"D":{"a":8,"b":2}},"conditions":["nonSeqFull","nonSeqPartial","seqNoFeedback","seqFeedback"],"classroomPairings":[["A","B"],["C","D"]],"coinWeights":[0.2,0.5,0.8],"subjectId":"A1WJGO38GJ99ZS","assignmentId":"3ZR9AIQJUCVSDFZCHGRK1VFN5D004N","hitId":"34KYK9TV2RUAD363EVFPUWVPB97SBP","url":"https://gershmanlab.com/experiments/alicia/teaching/experiment/?hitId=34KYK9TV2RUAD363EVFPUWVPB97SBP&workerId=A1WJGO38GJ99ZS&assignmentId=3ZR9AIQJUCVSDFZCHGRK1VFN5D004N&a=JARZ7&tp_a=JARZ7&b=3ZR9AIQJUCVSDFZCHGRK1VFN5D004N&tp_b=3ZR9AIQJUCVSDFZCHGRK1VFN5D004N&c=365717&tp_c=365717"},{"rt":473179,"response":{"Q0":"Students in different classrooms will have seen a different number of heads and tails before seeing the examples you select for them.","Q1":"By <b>considering the student's classroom information</b> so that I can teach efficiently and accurately/helpfully at the same time (because each example I give to the student costs money!).","Q2":"The coin lands heads 90% of the time.","Q3":"No, I will teach a <b>new</b> student each time.","Q4":"The students are also on the same alien planet as you, where coins can be unfair.","Q5":"Based on the student's second (and final) guess."},"question_order":[1,2,5,3,4,0],"trial_type":"survey-multi-choice","trial_index":18,"time_elapsed":1492277,"internal_node_id":"0.0-2.5-1.5","params":{"nStudents":24,"maxFlips":30,"completionMinutes":45,"basePay":8,"maxBonus":9,"perTrialBonus":0.5,"perTrialBonusThreshold":0.05,"exampleCost":0.01},"classroomParams":{"A":{"a":1,"b":4},"B":{"a":4,"b":1},"C":{"a":2,"b":8},"D":{"a":8,"b":2}},"conditions":["nonSeqFull","nonSeqPartial","seqNoFeedback","seqFeedback"],"classroomPairings":[["A","B"],["C","D"]],"coinWeights":[0.2,0.5,0.8],"subjectId":"A1WJGO38GJ99ZS","assignmentId":"3ZR9AIQJUCVSDFZCHGRK1VFN5D004N","hitId":"34KYK9TV2RUAD363EVFPUWVPB97SBP","url":"https://gershmanlab.com/experiments/alicia/teaching/experiment/?hitId=34KYK9TV2RUAD363EVFPUWVPB97SBP&workerId=A1WJGO38GJ99ZS&assignmentId=3ZR9AIQJUCVSDFZCHGRK1VFN5D004N&a=JARZ7&tp_a=JARZ7&b=3ZR9AIQJUCVSDFZCHGRK1VFN5D004N&tp_b=3ZR9AIQJUCVSDFZCHGRK1VFN5D004N&c=365717&tp_c=365717","pass":true},{"rt":null,"stimulus":"<div style=\"font-size:30px;\">Congrats on passing the comprehension quiz! The experiment will begin in a few seconds.</div>","response":null,"trial_type":"html-keyboard-response","trial_index":19,"time_elapsed":1495294,"internal_node_id":"0.0-3.0","params":{"nStudents":24,"maxFlips":30,"completionMinutes":45,"basePay":8,"maxBonus":9,"perTrialBonus":0.5,"perTrialBonusThreshold":0.05,"exampleCost":0.01},"classroomParams":{"A":{"a":1,"b":4},"B":{"a":4,"b":1},"C":{"a":2,"b":8},"D":{"a":8,"b":2}},"conditions":["nonSeqFull","nonSeqPartial","seqNoFeedback","seqFeedback"],"classroomPairings":[["A","B"],["C","D"]],"coinWeights":[0.2,0.5,0.8],"subjectId":"A1WJGO38GJ99ZS","assignmentId":"3ZR9AIQJUCVSDFZCHGRK1VFN5D004N","hitId":"34KYK9TV2RUAD363EVFPUWVPB97SBP","url":"https://gershmanlab.com/experiments/alicia/teaching/experiment/?hitId=34KYK9TV2RUAD363EVFPUWVPB97SBP&workerId=A1WJGO38GJ99ZS&assignmentId=3ZR9AIQJUCVSDFZCHGRK1VFN5D004N&a=JARZ7&tp_a=JARZ7&b=3ZR9AIQJUCVSDFZCHGRK1VFN5D004N&tp_b=3ZR9AIQJUCVSDFZCHGRK1VFN5D004N&c=365717&tp_c=365717"},{"rt":null,"stimulus":"<div style=\"font-size:50px;\">First student</div>","response":null,"trial_type":"html-keyboard-response","trial_index":20,"time_elapsed":1498298,"internal_node_id":"0.0-4.0","params":{"nStudents":24,"maxFlips":30,"completionMinutes":45,"basePay":8,"maxBonus":9,"perTrialBonus":0.5,"perTrialBonusThreshold":0.05,"exampleCost":0.01},"classroomParams":{"A":{"a":1,"b":4},"B":{"a":4,"b":1},"C":{"a":2,"b":8},"D":{"a":8,"b":2}},"conditions":["nonSeqFull","nonSeqPartial","seqNoFeedback","seqFeedback"],"classroomPairings":[["A","B"],["C","D"]],"coinWeights":[0.2,0.5,0.8],"subjectId":"A1WJGO38GJ99ZS","assignmentId":"3ZR9AIQJUCVSDFZCHGRK1VFN5D004N","hitId":"34KYK9TV2RUAD363EVFPUWVPB97SBP","url":"https://gershmanlab.com/experiments/alicia/teaching/experiment/?hitId=34KYK9TV2RUAD363EVFPUWVPB97SBP&workerId=A1WJGO38GJ99ZS&assignmentId=3ZR9AIQJUCVSDFZCHGRK1VFN5D004N&a=JARZ7&tp_a=JARZ7&b=3ZR9AIQJUCVSDFZCHGRK1VFN5D004N&tp_b=3ZR9AIQJUCVSDFZCHGRK1VFN5D004N&c=365717&tp_c=365717"},{"rt":35287,"stimulus":"\n            <h4 style=\"color:Orange;\">Student 1</h4>\n            <h2>The weight of your coin is <b style=\"color:Tomato;\">0.2</b>.</h2>\n            <p>In this block, you will be giving <b>one</b> set of examples to Student 1.</p>\n                <p>You will receive feedback at the end of the block.</p>\n            <p></p>","response":0,"trial_type":"html-button-response","trial_index":21,"time_elapsed":1533589,"internal_node_id":"0.0-5.0","params":{"nStudents":24,"maxFlips":30,"completionMinutes":45,"basePay":8,"maxBonus":9,"perTrialBonus":0.5,"perTrialBonusThreshold":0.05,"exampleCost":0.01},"classroomParams":{"A":{"a":1,"b":4},"B":{"a":4,"b":1},"C":{"a":2,"b":8},"D":{"a":8,"b":2}},"conditions":["nonSeqFull","nonSeqPartial","seqNoFeedback","seqFeedback"],"classroomPairings":[["A","B"],["C","D"]],"coinWeights":[0.2,0.5,0.8],"subjectId":"A1WJGO38GJ99ZS","assignmentId":"3ZR9AIQJUCVSDFZCHGRK1VFN5D004N","hitId":"34KYK9TV2RUAD363EVFPUWVPB97SBP","url":"https://gershmanlab.com/experiments/alicia/teaching/experiment/?hitId=34KYK9TV2RUAD363EVFPUWVPB97SBP&workerId=A1WJGO38GJ99ZS&assignmentId=3ZR9AIQJUCVSDFZCHGRK1VFN5D004N&a=JARZ7&tp_a=JARZ7&b=3ZR9AIQJUCVSDFZCHGRK1VFN5D004N&tp_b=3ZR9AIQJUCVSDFZCHGRK1VFN5D004N&c=365717&tp_c=365717"},{"rt":80837,"response":{"heads":"3","tails":"7"},"type":"response","condition":"nonSeqPartial","trueTheta":0.2,"classrooms":["C","D"],"studentTrueClassroom":"D","exampleSet":"first","trial_type":"survey-html-form","trial_index":22,"time_elapsed":1614428,"internal_node_id":"0.0-6.0-0.0","params":{"nStudents":24,"maxFlips":30,"completionMinutes":45,"basePay":8,"maxBonus":9,"perTrialBonus":0.5,"perTrialBonusThreshold":0.05,"exampleCost":0.01},"classroomParams":{"A":{"a":1,"b":4},"B":{"a":4,"b":1},"C":{"a":2,"b":8},"D":{"a":8,"b":2}},"conditions":["nonSeqFull","nonSeqPartial","seqNoFeedback","seqFeedback"],"classroomPairings":[["A","B"],["C","D"]],"coinWeights":[0.2,0.5,0.8],"subjectId":"A1WJGO38GJ99ZS","assignmentId":"3ZR9AIQJUCVSDFZCHGRK1VFN5D004N","hitId":"34KYK9TV2RUAD363EVFPUWVPB97SBP","url":"https://gershmanlab.com/experiments/alicia/teaching/experiment/?hitId=34KYK9TV2RUAD363EVFPUWVPB97SBP&workerId=A1WJGO38GJ99ZS&assignmentId=3ZR9AIQJUCVSDFZCHGRK1VFN5D004N&a=JARZ7&tp_a=JARZ7&b=3ZR9AIQJUCVSDFZCHGRK1VFN5D004N&tp_b=3ZR9AIQJUCVSDFZCHGRK1VFN5D004N&c=365717&tp_c=365717","heads":3,"tails":7,"studentIndex":0,"studentTrueHypers":{"a":8,"b":2},"studentGuess":0.55,"delta":0.35000000000000003,"totalExamples":10,"bonus":0,"bonusSoFar":0},{"rt":null,"stimulus":"Sending examples to student... ","response":null,"trial_type":"html-keyboard-response","trial_index":23,"time_elapsed":1616194,"internal_node_id":"0.0-7.0","params":{"nStudents":24,"maxFlips":30,"completionMinutes":45,"basePay":8,"maxBonus":9,"perTrialBonus":0.5,"perTrialBonusThreshold":0.05,"exampleCost":0.01},"classroomParams":{"A":{"a":1,"b":4},"B":{"a":4,"b":1},"C":{"a":2,"b":8},"D":{"a":8,"b":2}},"conditions":["nonSeqFull","nonSeqPartial","seqNoFeedback","seqFeedback"],"classroomPairings":[["A","B"],["C","D"]],"coinWeights":[0.2,0.5,0.8],"subjectId":"A1WJGO38GJ99ZS","assignmentId":"3ZR9AIQJUCVSDFZCHGRK1VFN5D004N","hitId":"34KYK9TV2RUAD363EVFPUWVPB97SBP","url":"https://gershmanlab.com/experiments/alicia/teaching/experiment/?hitId=34KYK9TV2RUAD363EVFPUWVPB97SBP&workerId=A1WJGO38GJ99ZS&assignmentId=3ZR9AIQJUCVSDFZCHGRK1VFN5D004N&a=JARZ7&tp_a=JARZ7&b=3ZR9AIQJUCVSDFZCHGRK1VFN5D004N&tp_b=3ZR9AIQJUCVSDFZCHGRK1VFN5D004N&c=365717&tp_c=365717"},{"rt":null,"stimulus":"Examples sent to student! Waiting for student...","response":null,"trial_type":"html-keyboard-response","trial_index":24,"time_elapsed":1621701,"internal_node_id":"0.0-8.0","params":{"nStudents":24,"maxFlips":30,"completionMinutes":45,"basePay":8,"maxBonus":9,"perTrialBonus":0.5,"perTrialBonusThreshold":0.05,"exampleCost":0.01},"classroomParams":{"A":{"a":1,"b":4},"B":{"a":4,"b":1},"C":{"a":2,"b":8},"D":{"a":8,"b":2}},"conditions":["nonSeqFull","nonSeqPartial","seqNoFeedback","seqFeedback"],"classroomPairings":[["A","B"],["C","D"]],"coinWeights":[0.2,0.5,0.8],"subjectId":"A1WJGO38GJ99ZS","assignmentId":"3ZR9AIQJUCVSDFZCHGRK1VFN5D004N","hitId":"34KYK9TV2RUAD363EVFPUWVPB97SBP","url":"https://gershmanlab.com/experiments/alicia/teaching/experiment/?hitId=34KYK9TV2RUAD363EVFPUWVPB97SBP&workerId=A1WJGO38GJ99ZS&assignmentId=3ZR9AIQJUCVSDFZCHGRK1VFN5D004N&a=JARZ7&tp_a=JARZ7&b=3ZR9AIQJUCVSDFZCHGRK1VFN5D004N&tp_b=3ZR9AIQJUCVSDFZCHGRK1VFN5D004N&c=365717&tp_c=365717"},{"rt":7828,"stimulus":"\n                <p>Student's guess for coin weight: <b style=\"color:Tomato;\">0.55</b></p>\n                <p>You received a bonus of <b>$0</b>. Total bonus so far: <b>$0.00</b></b></p>\n                <p></p>\n                <p>Press any key to continue.</p>\n                ","response":" ","trial_type":"html-keyboard-response","trial_index":25,"time_elapsed":1629532,"internal_node_id":"0.0-9.0","params":{"nStudents":24,"maxFlips":30,"completionMinutes":45,"basePay":8,"maxBonus":9,"perTrialBonus":0.5,"perTrialBonusThreshold":0.05,"exampleCost":0.01},"classroomParams":{"A":{"a":1,"b":4},"B":{"a":4,"b":1},"C":{"a":2,"b":8},"D":{"a":8,"b":2}},"conditions":["nonSeqFull","nonSeqPartial","seqNoFeedback","seqFeedback"],"classroomPairings":[["A","B"],["C","D"]],"coinWeights":[0.2,0.5,0.8],"subjectId":"A1WJGO38GJ99ZS","assignmentId":"3ZR9AIQJUCVSDFZCHGRK1VFN5D004N","hitId":"34KYK9TV2RUAD363EVFPUWVPB97SBP","url":"https://gershmanlab.com/experiments/alicia/teaching/experiment/?hitId=34KYK9TV2RUAD363EVFPUWVPB97SBP&workerId=A1WJGO38GJ99ZS&assignmentId=3ZR9AIQJUCVSDFZCHGRK1VFN5D004N&a=JARZ7&tp_a=JARZ7&b=3ZR9AIQJUCVSDFZCHGRK1VFN5D004N&tp_b=3ZR9AIQJUCVSDFZCHGRK1VFN5D004N&c=365717&tp_c=365717"},{"rt":null,"stimulus":"<div style=\"font-size:60px;\">Next student</div>","response":null,"trial_type":"html-keyboard-response","trial_index":26,"time_elapsed":1631535,"internal_node_id":"0.0-10.0-0.0","params":{"nStudents":24,"maxFlips":30,"completionMinutes":45,"basePay":8,"maxBonus":9,"perTrialBonus":0.5,"perTrialBonusThreshold":0.05,"exampleCost":0.01},"classroomParams":{"A":{"a":1,"b":4},"B":{"a":4,"b":1},"C":{"a":2,"b":8},"D":{"a":8,"b":2}},"conditions":["nonSeqFull","nonSeqPartial","seqNoFeedback","seqFeedback"],"classroomPairings":[["A","B"],["C","D"]],"coinWeights":[0.2,0.5,0.8],"subjectId":"A1WJGO38GJ99ZS","assignmentId":"3ZR9AIQJUCVSDFZCHGRK1VFN5D004N","hitId":"34KYK9TV2RUAD363EVFPUWVPB97SBP","url":"https://gershmanlab.com/experiments/alicia/teaching/experiment/?hitId=34KYK9TV2RUAD363EVFPUWVPB97SBP&workerId=A1WJGO38GJ99ZS&assignmentId=3ZR9AIQJUCVSDFZCHGRK1VFN5D004N&a=JARZ7&tp_a=JARZ7&b=3ZR9AIQJUCVSDFZCHGRK1VFN5D004N&tp_b=3ZR9AIQJUCVSDFZCHGRK1VFN5D004N&c=365717&tp_c=365717"},{"rt":6795,"stimulus":"\n            <h4 style=\"color:Orange;\">Student 2</h4>\n            <h2>The weight of your coin is <b style=\"color:Tomato;\">0.5</b>.</h2>\n            <p>In this block, you will be giving <b>one</b> set of examples to Student 2.</p>\n                <p>You will receive feedback at the end of the block.</p>\n            <p></p>","response":0,"trial_type":"html-button-response","trial_index":27,"time_elapsed":1638333,"internal_node_id":"0.0-11.0","params":{"nStudents":24,"maxFlips":30,"completionMinutes":45,"basePay":8,"maxBonus":9,"perTrialBonus":0.5,"perTrialBonusThreshold":0.05,"exampleCost":0.01},"classroomParams":{"A":{"a":1,"b":4},"B":{"a":4,"b":1},"C":{"a":2,"b":8},"D":{"a":8,"b":2}},"conditions":["nonSeqFull","nonSeqPartial","seqNoFeedback","seqFeedback"],"classroomPairings":[["A","B"],["C","D"]],"coinWeights":[0.2,0.5,0.8],"subjectId":"A1WJGO38GJ99ZS","assignmentId":"3ZR9AIQJUCVSDFZCHGRK1VFN5D004N","hitId":"34KYK9TV2RUAD363EVFPUWVPB97SBP","url":"https://gershmanlab.com/experiments/alicia/teaching/experiment/?hitId=34KYK9TV2RUAD363EVFPUWVPB97SBP&workerId=A1WJGO38GJ99ZS&assignmentId=3ZR9AIQJUCVSDFZCHGRK1VFN5D004N&a=JARZ7&tp_a=JARZ7&b=3ZR9AIQJUCVSDFZCHGRK1VFN5D004N&tp_b=3ZR9AIQJUCVSDFZCHGRK1VFN5D004N&c=365717&tp_c=365717"},{"rt":29781,"response":{"heads":"5","tails":"5"},"type":"response","condition":"nonSeqPartial","trueTheta":0.5,"classrooms":["C","D"],"studentTrueClassroom":"C","exampleSet":"first","trial_type":"survey-html-form","trial_index":28,"time_elapsed":1668116,"internal_node_id":"0.0-12.0-0.0","params":{"nStudents":24,"maxFlips":30,"completionMinutes":45,"basePay":8,"maxBonus":9,"perTrialBonus":0.5,"perTrialBonusThreshold":0.05,"exampleCost":0.01},"classroomParams":{"A":{"a":1,"b":4},"B":{"a":4,"b":1},"C":{"a":2,"b":8},"D":{"a":8,"b":2}},"conditions":["nonSeqFull","nonSeqPartial","seqNoFeedback","seqFeedback"],"classroomPairings":[["A","B"],["C","D"]],"coinWeights":[0.2,0.5,0.8],"subjectId":"A1WJGO38GJ99ZS","assignmentId":"3ZR9AIQJUCVSDFZCHGRK1VFN5D004N","hitId":"34KYK9TV2RUAD363EVFPUWVPB97SBP","url":"https://gershmanlab.com/experiments/alicia/teaching/experiment/?hitId=34KYK9TV2RUAD363EVFPUWVPB97SBP&workerId=A1WJGO38GJ99ZS&assignmentId=3ZR9AIQJUCVSDFZCHGRK1VFN5D004N&a=JARZ7&tp_a=JARZ7&b=3ZR9AIQJUCVSDFZCHGRK1VFN5D004N&tp_b=3ZR9AIQJUCVSDFZCHGRK1VFN5D004N&c=365717&tp_c=365717","heads":5,"tails":5,"studentIndex":1,"studentTrueHypers":{"a":2,"b":8},"studentGuess":0.35,"delta":0.15000000000000002,"totalExamples":10,"bonus":0,"bonusSoFar":0},{"rt":null,"stimulus":"Sending examples to student... ","response":null,"trial_type":"html-keyboard-response","trial_index":29,"time_elapsed":1669369,"internal_node_id":"0.0-13.0","params":{"nStudents":24,"maxFlips":30,"completionMinutes":45,"basePay":8,"maxBonus":9,"perTrialBonus":0.5,"perTrialBonusThreshold":0.05,"exampleCost":0.01},"classroomParams":{"A":{"a":1,"b":4},"B":{"a":4,"b":1},"C":{"a":2,"b":8},"D":{"a":8,"b":2}},"conditions":["nonSeqFull","nonSeqPartial","seqNoFeedback","seqFeedback"],"classroomPairings":[["A","B"],["C","D"]],"coinWeights":[0.2,0.5,0.8],"subjectId":"A1WJGO38GJ99ZS","assignmentId":"3ZR9AIQJUCVSDFZCHGRK1VFN5D004N","hitId":"34KYK9TV2RUAD363EVFPUWVPB97SBP","url":"https://gershmanlab.com/experiments/alicia/teaching/experiment/?hitId=34KYK9TV2RUAD363EVFPUWVPB97SBP&workerId=A1WJGO38GJ99ZS&assignmentId=3ZR9AIQJUCVSDFZCHGRK1VFN5D004N&a=JARZ7&tp_a=JARZ7&b=3ZR9AIQJUCVSDFZCHGRK1VFN5D004N&tp_b=3ZR9AIQJUCVSDFZCHGRK1VFN5D004N&c=365717&tp_c=365717"},{"rt":null,"stimulus":"Examples sent to student! Waiting for student...","response":null,"trial_type":"html-keyboard-response","trial_index":30,"time_elapsed":1673372,"internal_node_id":"0.0-14.0","params":{"nStudents":24,"maxFlips":30,"completionMinutes":45,"basePay":8,"maxBonus":9,"perTrialBonus":0.5,"perTrialBonusThreshold":0.05,"exampleCost":0.01},"classroomParams":{"A":{"a":1,"b":4},"B":{"a":4,"b":1},"C":{"a":2,"b":8},"D":{"a":8,"b":2}},"conditions":["nonSeqFull","nonSeqPartial","seqNoFeedback","seqFeedback"],"classroomPairings":[["A","B"],["C","D"]],"coinWeights":[0.2,0.5,0.8],"subjectId":"A1WJGO38GJ99ZS","assignmentId":"3ZR9AIQJUCVSDFZCHGRK1VFN5D004N","hitId":"34KYK9TV2RUAD363EVFPUWVPB97SBP","url":"https://gershmanlab.com/experiments/alicia/teaching/experiment/?hitId=34KYK9TV2RUAD363EVFPUWVPB97SBP&workerId=A1WJGO38GJ99ZS&assignmentId=3ZR9AIQJUCVSDFZCHGRK1VFN5D004N&a=JARZ7&tp_a=JARZ7&b=3ZR9AIQJUCVSDFZCHGRK1VFN5D004N&tp_b=3ZR9AIQJUCVSDFZCHGRK1VFN5D004N&c=365717&tp_c=365717"},{"rt":7392,"stimulus":"\n                <p>Student's guess for coin weight: <b style=\"color:Tomato;\">0.35</b></p>\n                <p>You received a bonus of <b>$0</b>. Total bonus so far: <b>$0.00</b></b></p>\n                <p></p>\n                <p>Press any key to continue.</p>\n                ","response":" ","trial_type":"html-keyboard-response","trial_index":31,"time_elapsed":1680766,"internal_node_id":"0.0-15.0","params":{"nStudents":24,"maxFlips":30,"completionMinutes":45,"basePay":8,"maxBonus":9,"perTrialBonus":0.5,"perTrialBonusThreshold":0.05,"exampleCost":0.01},"classroomParams":{"A":{"a":1,"b":4},"B":{"a":4,"b":1},"C":{"a":2,"b":8},"D":{"a":8,"b":2}},"conditions":["nonSeqFull","nonSeqPartial","seqNoFeedback","seqFeedback"],"classroomPairings":[["A","B"],["C","D"]],"coinWeights":[0.2,0.5,0.8],"subjectId":"A1WJGO38GJ99ZS","assignmentId":"3ZR9AIQJUCVSDFZCHGRK1VFN5D004N","hitId":"34KYK9TV2RUAD363EVFPUWVPB97SBP","url":"https://gershmanlab.com/experiments/alicia/teaching/experiment/?hitId=34KYK9TV2RUAD363EVFPUWVPB97SBP&workerId=A1WJGO38GJ99ZS&assignmentId=3ZR9AIQJUCVSDFZCHGRK1VFN5D004N&a=JARZ7&tp_a=JARZ7&b=3ZR9AIQJUCVSDFZCHGRK1VFN5D004N&tp_b=3ZR9AIQJUCVSDFZCHGRK1VFN5D004N&c=365717&tp_c=365717"},{"rt":null,"stimulus":"<div style=\"font-size:60px;\">Next student</div>","response":null,"trial_type":"html-keyboard-response","trial_index":32,"time_elapsed":1683025,"internal_node_id":"0.0-16.0-0.0","params":{"nStudents":24,"maxFlips":30,"completionMinutes":45,"basePay":8,"maxBonus":9,"perTrialBonus":0.5,"perTrialBonusThreshold":0.05,"exampleCost":0.01},"classroomParams":{"A":{"a":1,"b":4},"B":{"a":4,"b":1},"C":{"a":2,"b":8},"D":{"a":8,"b":2}},"conditions":["nonSeqFull","nonSeqPartial","seqNoFeedback","seqFeedback"],"classroomPairings":[["A","B"],["C","D"]],"coinWeights":[0.2,0.5,0.8],"subjectId":"A1WJGO38GJ99ZS","assignmentId":"3ZR9AIQJUCVSDFZCHGRK1VFN5D004N","hitId":"34KYK9TV2RUAD363EVFPUWVPB97SBP","url":"https://gershmanlab.com/experiments/alicia/teaching/experiment/?hitId=34KYK9TV2RUAD363EVFPUWVPB97SBP&workerId=A1WJGO38GJ99ZS&assignmentId=3ZR9AIQJUCVSDFZCHGRK1VFN5D004N&a=JARZ7&tp_a=JARZ7&b=3ZR9AIQJUCVSDFZCHGRK1VFN5D004N&tp_b=3ZR9AIQJUCVSDFZCHGRK1VFN5D004N&c=365717&tp_c=365717"},{"rt":3297,"stimulus":"\n            <h4 style=\"color:Orange;\">Student 3</h4>\n            <h2>The weight of your coin is <b style=\"color:Tomato;\">0.5</b>.</h2>\n            <p>In this block, you will be giving <b>one</b> set of examples to Student 3.</p>\n                <p>You will receive feedback at the end of the block.</p>\n            <p></p>","response":0,"trial_type":"html-button-response","trial_index":33,"time_elapsed":1686325,"internal_node_id":"0.0-17.0","params":{"nStudents":24,"maxFlips":30,"completionMinutes":45,"basePay":8,"maxBonus":9,"perTrialBonus":0.5,"perTrialBonusThreshold":0.05,"exampleCost":0.01},"classroomParams":{"A":{"a":1,"b":4},"B":{"a":4,"b":1},"C":{"a":2,"b":8},"D":{"a":8,"b":2}},"conditions":["nonSeqFull","nonSeqPartial","seqNoFeedback","seqFeedback"],"classroomPairings":[["A","B"],["C","D"]],"coinWeights":[0.2,0.5,0.8],"subjectId":"A1WJGO38GJ99ZS","assignmentId":"3ZR9AIQJUCVSDFZCHGRK1VFN5D004N","hitId":"34KYK9TV2RUAD363EVFPUWVPB97SBP","url":"https://gershmanlab.com/experiments/alicia/teaching/experiment/?hitId=34KYK9TV2RUAD363EVFPUWVPB97SBP&workerId=A1WJGO38GJ99ZS&assignmentId=3ZR9AIQJUCVSDFZCHGRK1VFN5D004N&a=JARZ7&tp_a=JARZ7&b=3ZR9AIQJUCVSDFZCHGRK1VFN5D004N&tp_b=3ZR9AIQJUCVSDFZCHGRK1VFN5D004N&c=365717&tp_c=365717"},{"rt":13751,"response":{"heads":"1","tails":"1"},"type":"response","condition":"nonSeqFull","trueTheta":0.5,"classrooms":["A","B"],"studentTrueClassroom":"B","exampleSet":"first","trial_type":"survey-html-form","trial_index":34,"time_elapsed":1700078,"internal_node_id":"0.0-18.0-0.0","params":{"nStudents":24,"maxFlips":30,"completionMinutes":45,"basePay":8,"maxBonus":9,"perTrialBonus":0.5,"perTrialBonusThreshold":0.05,"exampleCost":0.01},"classroomParams":{"A":{"a":1,"b":4},"B":{"a":4,"b":1},"C":{"a":2,"b":8},"D":{"a":8,"b":2}},"conditions":["nonSeqFull","nonSeqPartial","seqNoFeedback","seqFeedback"],"classroomPairings":[["A","B"],["C","D"]],"coinWeights":[0.2,0.5,0.8],"subjectId":"A1WJGO38GJ99ZS","assignmentId":"3ZR9AIQJUCVSDFZCHGRK1VFN5D004N","hitId":"34KYK9TV2RUAD363EVFPUWVPB97SBP","url":"https://gershmanlab.com/experiments/alicia/teaching/experiment/?hitId=34KYK9TV2RUAD363EVFPUWVPB97SBP&workerId=A1WJGO38GJ99ZS&assignmentId=3ZR9AIQJUCVSDFZCHGRK1VFN5D004N&a=JARZ7&tp_a=JARZ7&b=3ZR9AIQJUCVSDFZCHGRK1VFN5D004N&tp_b=3ZR9AIQJUCVSDFZCHGRK1VFN5D004N&c=365717&tp_c=365717","heads":1,"tails":1,"studentIndex":2,"studentTrueHypers":{"a":4,"b":1},"studentGuess":0.7142857142857143,"delta":0.2142857142857143,"totalExamples":2,"bonus":0,"bonusSoFar":0},{"rt":null,"stimulus":"Sending examples to student... ","response":null,"trial_type":"html-keyboard-response","trial_index":35,"time_elapsed":1702080,"internal_node_id":"0.0-19.0","params":{"nStudents":24,"maxFlips":30,"completionMinutes":45,"basePay":8,"maxBonus":9,"perTrialBonus":0.5,"perTrialBonusThreshold":0.05,"exampleCost":0.01},"classroomParams":{"A":{"a":1,"b":4},"B":{"a":4,"b":1},"C":{"a":2,"b":8},"D":{"a":8,"b":2}},"conditions":["nonSeqFull","nonSeqPartial","seqNoFeedback","seqFeedback"],"classroomPairings":[["A","B"],["C","D"]],"coinWeights":[0.2,0.5,0.8],"subjectId":"A1WJGO38GJ99ZS","assignmentId":"3ZR9AIQJUCVSDFZCHGRK1VFN5D004N","hitId":"34KYK9TV2RUAD363EVFPUWVPB97SBP","url":"https://gershmanlab.com/experiments/alicia/teaching/experiment/?hitId=34KYK9TV2RUAD363EVFPUWVPB97SBP&workerId=A1WJGO38GJ99ZS&assignmentId=3ZR9AIQJUCVSDFZCHGRK1VFN5D004N&a=JARZ7&tp_a=JARZ7&b=3ZR9AIQJUCVSDFZCHGRK1VFN5D004N&tp_b=3ZR9AIQJUCVSDFZCHGRK1VFN5D004N&c=365717&tp_c=365717"},{"rt":null,"stimulus":"Examples sent to student! Waiting for student...","response":null,"trial_type":"html-keyboard-response","trial_index":36,"time_elapsed":1707585,"internal_node_id":"0.0-20.0","params":{"nStudents":24,"maxFlips":30,"completionMinutes":45,"basePay":8,"maxBonus":9,"perTrialBonus":0.5,"perTrialBonusThreshold":0.05,"exampleCost":0.01},"classroomParams":{"A":{"a":1,"b":4},"B":{"a":4,"b":1},"C":{"a":2,"b":8},"D":{"a":8,"b":2}},"conditions":["nonSeqFull","nonSeqPartial","seqNoFeedback","seqFeedback"],"classroomPairings":[["A","B"],["C","D"]],"coinWeights":[0.2,0.5,0.8],"subjectId":"A1WJGO38GJ99ZS","assignmentId":"3ZR9AIQJUCVSDFZCHGRK1VFN5D004N","hitId":"34KYK9TV2RUAD363EVFPUWVPB97SBP","url":"https://gershmanlab.com/experiments/alicia/teaching/experiment/?hitId=34KYK9TV2RUAD363EVFPUWVPB97SBP&workerId=A1WJGO38GJ99ZS&assignmentId=3ZR9AIQJUCVSDFZCHGRK1VFN5D004N&a=JARZ7&tp_a=JARZ7&b=3ZR9AIQJUCVSDFZCHGRK1VFN5D004N&tp_b=3ZR9AIQJUCVSDFZCHGRK1VFN5D004N&c=365717&tp_c=365717"},{"rt":5330,"stimulus":"\n                <p>Student's guess for coin weight: <b style=\"color:Tomato;\">0.71</b></p>\n                <p>You received a bonus of <b>$0</b>. Total bonus so far: <b>$0.00</b></b></p>\n                <p></p>\n                <p>Press any key to continue.</p>\n                ","response":" ","trial_type":"html-keyboard-response","trial_index":37,"time_elapsed":1712919,"internal_node_id":"0.0-21.0","params":{"nStudents":24,"maxFlips":30,"completionMinutes":45,"basePay":8,"maxBonus":9,"perTrialBonus":0.5,"perTrialBonusThreshold":0.05,"exampleCost":0.01},"classroomParams":{"A":{"a":1,"b":4},"B":{"a":4,"b":1},"C":{"a":2,"b":8},"D":{"a":8,"b":2}},"conditions":["nonSeqFull","nonSeqPartial","seqNoFeedback","seqFeedback"],"classroomPairings":[["A","B"],["C","D"]],"coinWeights":[0.2,0.5,0.8],"subjectId":"A1WJGO38GJ99ZS","assignmentId":"3ZR9AIQJUCVSDFZCHGRK1VFN5D004N","hitId":"34KYK9TV2RUAD363EVFPUWVPB97SBP","url":"https://gershmanlab.com/experiments/alicia/teaching/experiment/?hitId=34KYK9TV2RUAD363EVFPUWVPB97SBP&workerId=A1WJGO38GJ99ZS&assignmentId=3ZR9AIQJUCVSDFZCHGRK1VFN5D004N&a=JARZ7&tp_a=JARZ7&b=3ZR9AIQJUCVSDFZCHGRK1VFN5D004N&tp_b=3ZR9AIQJUCVSDFZCHGRK1VFN5D004N&c=365717&tp_c=365717"},{"rt":null,"stimulus":"<div style=\"font-size:60px;\">Next student</div>","response":null,"trial_type":"html-keyboard-response","trial_index":38,"time_elapsed":1714932,"internal_node_id":"0.0-22.0-0.0","params":{"nStudents":24,"maxFlips":30,"completionMinutes":45,"basePay":8,"maxBonus":9,"perTrialBonus":0.5,"perTrialBonusThreshold":0.05,"exampleCost":0.01},"classroomParams":{"A":{"a":1,"b":4},"B":{"a":4,"b":1},"C":{"a":2,"b":8},"D":{"a":8,"b":2}},"conditions":["nonSeqFull","nonSeqPartial","seqNoFeedback","seqFeedback"],"classroomPairings":[["A","B"],["C","D"]],"coinWeights":[0.2,0.5,0.8],"subjectId":"A1WJGO38GJ99ZS","assignmentId":"3ZR9AIQJUCVSDFZCHGRK1VFN5D004N","hitId":"34KYK9TV2RUAD363EVFPUWVPB97SBP","url":"https://gershmanlab.com/experiments/alicia/teaching/experiment/?hitId=34KYK9TV2RUAD363EVFPUWVPB97SBP&workerId=A1WJGO38GJ99ZS&assignmentId=3ZR9AIQJUCVSDFZCHGRK1VFN5D004N&a=JARZ7&tp_a=JARZ7&b=3ZR9AIQJUCVSDFZCHGRK1VFN5D004N&tp_b=3ZR9AIQJUCVSDFZCHGRK1VFN5D004N&c=365717&tp_c=365717"},{"rt":12188,"stimulus":"\n            <h4 style=\"color:Orange;\">Student 4</h4>\n            <h2>The weight of your coin is <b style=\"color:Tomato;\">0.5</b>.</h2>\n            <p>In this block, you will be giving <b>two</b> sets of examples to Student 4.</p>\n                <p>You will see the student's guess after the first set of examples. You will also receive feedback at the end of the block.</p>\n            <p>To earn the highest bonus, you will have to <b>take into consideration the student's guess</b> when you choose your second set of examples.</p>","response":0,"trial_type":"html-button-response","trial_index":39,"time_elapsed":1727123,"internal_node_id":"0.0-23.0","params":{"nStudents":24,"maxFlips":30,"completionMinutes":45,"basePay":8,"maxBonus":9,"perTrialBonus":0.5,"perTrialBonusThreshold":0.05,"exampleCost":0.01},"classroomParams":{"A":{"a":1,"b":4},"B":{"a":4,"b":1},"C":{"a":2,"b":8},"D":{"a":8,"b":2}},"conditions":["nonSeqFull","nonSeqPartial","seqNoFeedback","seqFeedback"],"classroomPairings":[["A","B"],["C","D"]],"coinWeights":[0.2,0.5,0.8],"subjectId":"A1WJGO38GJ99ZS","assignmentId":"3ZR9AIQJUCVSDFZCHGRK1VFN5D004N","hitId":"34KYK9TV2RUAD363EVFPUWVPB97SBP","url":"https://gershmanlab.com/experiments/alicia/teaching/experiment/?hitId=34KYK9TV2RUAD363EVFPUWVPB97SBP&workerId=A1WJGO38GJ99ZS&assignmentId=3ZR9AIQJUCVSDFZCHGRK1VFN5D004N&a=JARZ7&tp_a=JARZ7&b=3ZR9AIQJUCVSDFZCHGRK1VFN5D004N&tp_b=3ZR9AIQJUCVSDFZCHGRK1VFN5D004N&c=365717&tp_c=365717"},{"rt":5663,"response":{"heads":"2","tails":"2"},"type":"response","condition":"seqFeedback","trueTheta":0.5,"classrooms":["C","D"],"studentTrueClassroom":"D","exampleSet":"first","trial_type":"survey-html-form","trial_index":40,"time_elapsed":1732787,"internal_node_id":"0.0-24.0-0.0","params":{"nStudents":24,"maxFlips":30,"completionMinutes":45,"basePay":8,"maxBonus":9,"perTrialBonus":0.5,"perTrialBonusThreshold":0.05,"exampleCost":0.01},"classroomParams":{"A":{"a":1,"b":4},"B":{"a":4,"b":1},"C":{"a":2,"b":8},"D":{"a":8,"b":2}},"conditions":["nonSeqFull","nonSeqPartial","seqNoFeedback","seqFeedback"],"classroomPairings":[["A","B"],["C","D"]],"coinWeights":[0.2,0.5,0.8],"subjectId":"A1WJGO38GJ99ZS","assignmentId":"3ZR9AIQJUCVSDFZCHGRK1VFN5D004N","hitId":"34KYK9TV2RUAD363EVFPUWVPB97SBP","url":"https://gershmanlab.com/experiments/alicia/teaching/experiment/?hitId=34KYK9TV2RUAD363EVFPUWVPB97SBP&workerId=A1WJGO38GJ99ZS&assignmentId=3ZR9AIQJUCVSDFZCHGRK1VFN5D004N&a=JARZ7&tp_a=JARZ7&b=3ZR9AIQJUCVSDFZCHGRK1VFN5D004N&tp_b=3ZR9AIQJUCVSDFZCHGRK1VFN5D004N&c=365717&tp_c=365717","heads":2,"tails":2,"studentIndex":3,"studentTrueHypers":{"a":8,"b":2},"studentGuess":0.7142857142857143,"delta":0.2142857142857143,"totalExamples":4,"bonusSoFar":0},{"rt":null,"stimulus":"Sending examples to student... ","response":null,"trial_type":"html-keyboard-response","trial_index":41,"time_elapsed":1734793,"internal_node_id":"0.0-25.0","params":{"nStudents":24,"maxFlips":30,"completionMinutes":45,"basePay":8,"maxBonus":9,"perTrialBonus":0.5,"perTrialBonusThreshold":0.05,"exampleCost":0.01},"classroomParams":{"A":{"a":1,"b":4},"B":{"a":4,"b":1},"C":{"a":2,"b":8},"D":{"a":8,"b":2}},"conditions":["nonSeqFull","nonSeqPartial","seqNoFeedback","seqFeedback"],"classroomPairings":[["A","B"],["C","D"]],"coinWeights":[0.2,0.5,0.8],"subjectId":"A1WJGO38GJ99ZS","assignmentId":"3ZR9AIQJUCVSDFZCHGRK1VFN5D004N","hitId":"34KYK9TV2RUAD363EVFPUWVPB97SBP","url":"https://gershmanlab.com/experiments/alicia/teaching/experiment/?hitId=34KYK9TV2RUAD363EVFPUWVPB97SBP&workerId=A1WJGO38GJ99ZS&assignmentId=3ZR9AIQJUCVSDFZCHGRK1VFN5D004N&a=JARZ7&tp_a=JARZ7&b=3ZR9AIQJUCVSDFZCHGRK1VFN5D004N&tp_b=3ZR9AIQJUCVSDFZCHGRK1VFN5D004N&c=365717&tp_c=365717"},{"rt":null,"stimulus":"Examples sent to student! Waiting for student...","response":null,"trial_type":"html-keyboard-response","trial_index":42,"time_elapsed":1738796,"internal_node_id":"0.0-26.0","params":{"nStudents":24,"maxFlips":30,"completionMinutes":45,"basePay":8,"maxBonus":9,"perTrialBonus":0.5,"perTrialBonusThreshold":0.05,"exampleCost":0.01},"classroomParams":{"A":{"a":1,"b":4},"B":{"a":4,"b":1},"C":{"a":2,"b":8},"D":{"a":8,"b":2}},"conditions":["nonSeqFull","nonSeqPartial","seqNoFeedback","seqFeedback"],"classroomPairings":[["A","B"],["C","D"]],"coinWeights":[0.2,0.5,0.8],"subjectId":"A1WJGO38GJ99ZS","assignmentId":"3ZR9AIQJUCVSDFZCHGRK1VFN5D004N","hitId":"34KYK9TV2RUAD363EVFPUWVPB97SBP","url":"https://gershmanlab.com/experiments/alicia/teaching/experiment/?hitId=34KYK9TV2RUAD363EVFPUWVPB97SBP&workerId=A1WJGO38GJ99ZS&assignmentId=3ZR9AIQJUCVSDFZCHGRK1VFN5D004N&a=JARZ7&tp_a=JARZ7&b=3ZR9AIQJUCVSDFZCHGRK1VFN5D004N&tp_b=3ZR9AIQJUCVSDFZCHGRK1VFN5D004N&c=365717&tp_c=365717"},{"rt":6470,"stimulus":"\n                <p>Student's guess for coin weight: <b style=\"color:Tomato;\">0.71</b></p>\n                <p></b></p>\n                <p>You will now send another set of examples to your student. <b>Remember to take your student's guess into consideration so that you can earn the highest bonus possible!</b> </p>\n                <p>Press any key to continue.</p>\n                ","response":" ","trial_type":"html-keyboard-response","trial_index":43,"time_elapsed":1745268,"internal_node_id":"0.0-27.0","params":{"nStudents":24,"maxFlips":30,"completionMinutes":45,"basePay":8,"maxBonus":9,"perTrialBonus":0.5,"perTrialBonusThreshold":0.05,"exampleCost":0.01},"classroomParams":{"A":{"a":1,"b":4},"B":{"a":4,"b":1},"C":{"a":2,"b":8},"D":{"a":8,"b":2}},"conditions":["nonSeqFull","nonSeqPartial","seqNoFeedback","seqFeedback"],"classroomPairings":[["A","B"],["C","D"]],"coinWeights":[0.2,0.5,0.8],"subjectId":"A1WJGO38GJ99ZS","assignmentId":"3ZR9AIQJUCVSDFZCHGRK1VFN5D004N","hitId":"34KYK9TV2RUAD363EVFPUWVPB97SBP","url":"https://gershmanlab.com/experiments/alicia/teaching/experiment/?hitId=34KYK9TV2RUAD363EVFPUWVPB97SBP&workerId=A1WJGO38GJ99ZS&assignmentId=3ZR9AIQJUCVSDFZCHGRK1VFN5D004N&a=JARZ7&tp_a=JARZ7&b=3ZR9AIQJUCVSDFZCHGRK1VFN5D004N&tp_b=3ZR9AIQJUCVSDFZCHGRK1VFN5D004N&c=365717&tp_c=365717"},{"rt":8164,"response":{"heads":"4","tails":"4"},"type":"response","condition":"seqFeedback","trueTheta":0.5,"classrooms":["C","D"],"studentTrueClassroom":"D","exampleSet":"second","trial_type":"survey-html-form","trial_index":44,"time_elapsed":1753436,"internal_node_id":"0.0-28.0-0.0","params":{"nStudents":24,"maxFlips":30,"completionMinutes":45,"basePay":8,"maxBonus":9,"perTrialBonus":0.5,"perTrialBonusThreshold":0.05,"exampleCost":0.01},"classroomParams":{"A":{"a":1,"b":4},"B":{"a":4,"b":1},"C":{"a":2,"b":8},"D":{"a":8,"b":2}},"conditions":["nonSeqFull","nonSeqPartial","seqNoFeedback","seqFeedback"],"classroomPairings":[["A","B"],["C","D"]],"coinWeights":[0.2,0.5,0.8],"subjectId":"A1WJGO38GJ99ZS","assignmentId":"3ZR9AIQJUCVSDFZCHGRK1VFN5D004N","hitId":"34KYK9TV2RUAD363EVFPUWVPB97SBP","url":"https://gershmanlab.com/experiments/alicia/teaching/experiment/?hitId=34KYK9TV2RUAD363EVFPUWVPB97SBP&workerId=A1WJGO38GJ99ZS&assignmentId=3ZR9AIQJUCVSDFZCHGRK1VFN5D004N&a=JARZ7&tp_a=JARZ7&b=3ZR9AIQJUCVSDFZCHGRK1VFN5D004N&tp_b=3ZR9AIQJUCVSDFZCHGRK1VFN5D004N&c=365717&tp_c=365717","firstResponseHeads":2,"firstResponseTails":2,"secondResponseHeads":4,"secondResponseTails":4,"totalHeads":6,"totalTails":6,"studentIndex":3,"studentTrueHypers":{"a":8,"b":2},"studentGuess":0.6363636363636364,"delta":0.13636363636363635,"bonus":0,"bonusSoFar":0,"totalExamples":12},{"rt":null,"stimulus":"Sending examples to student... ","response":null,"trial_type":"html-keyboard-response","trial_index":45,"time_elapsed":1755202,"internal_node_id":"0.0-29.0","params":{"nStudents":24,"maxFlips":30,"completionMinutes":45,"basePay":8,"maxBonus":9,"perTrialBonus":0.5,"perTrialBonusThreshold":0.05,"exampleCost":0.01},"classroomParams":{"A":{"a":1,"b":4},"B":{"a":4,"b":1},"C":{"a":2,"b":8},"D":{"a":8,"b":2}},"conditions":["nonSeqFull","nonSeqPartial","seqNoFeedback","seqFeedback"],"classroomPairings":[["A","B"],["C","D"]],"coinWeights":[0.2,0.5,0.8],"subjectId":"A1WJGO38GJ99ZS","assignmentId":"3ZR9AIQJUCVSDFZCHGRK1VFN5D004N","hitId":"34KYK9TV2RUAD363EVFPUWVPB97SBP","url":"https://gershmanlab.com/experiments/alicia/teaching/experiment/?hitId=34KYK9TV2RUAD363EVFPUWVPB97SBP&workerId=A1WJGO38GJ99ZS&assignmentId=3ZR9AIQJUCVSDFZCHGRK1VFN5D004N&a=JARZ7&tp_a=JARZ7&b=3ZR9AIQJUCVSDFZCHGRK1VFN5D004N&tp_b=3ZR9AIQJUCVSDFZCHGRK1VFN5D004N&c=365717&tp_c=365717"},{"rt":null,"stimulus":"Examples sent to student! Waiting for student...","response":null,"trial_type":"html-keyboard-response","trial_index":46,"time_elapsed":1760707,"internal_node_id":"0.0-30.0","params":{"nStudents":24,"maxFlips":30,"completionMinutes":45,"basePay":8,"maxBonus":9,"perTrialBonus":0.5,"perTrialBonusThreshold":0.05,"exampleCost":0.01},"classroomParams":{"A":{"a":1,"b":4},"B":{"a":4,"b":1},"C":{"a":2,"b":8},"D":{"a":8,"b":2}},"conditions":["nonSeqFull","nonSeqPartial","seqNoFeedback","seqFeedback"],"classroomPairings":[["A","B"],["C","D"]],"coinWeights":[0.2,0.5,0.8],"subjectId":"A1WJGO38GJ99ZS","assignmentId":"3ZR9AIQJUCVSDFZCHGRK1VFN5D004N","hitId":"34KYK9TV2RUAD363EVFPUWVPB97SBP","url":"https://gershmanlab.com/experiments/alicia/teaching/experiment/?hitId=34KYK9TV2RUAD363EVFPUWVPB97SBP&workerId=A1WJGO38GJ99ZS&assignmentId=3ZR9AIQJUCVSDFZCHGRK1VFN5D004N&a=JARZ7&tp_a=JARZ7&b=3ZR9AIQJUCVSDFZCHGRK1VFN5D004N&tp_b=3ZR9AIQJUCVSDFZCHGRK1VFN5D004N&c=365717&tp_c=365717"},{"rt":4814,"stimulus":"\n                <p>Student 4's first guess for coin weight: <b style=\"color:Tomato\";>0.71</b></p>\n                <p>Student 4's second guess for coin weight: <b style=\"color:Tomato\";>0.64</b></p>\n                <p>You received a bonus of <b>$0.00</b> based on the student's second guess.</p>\n                <p>Total bonus so far: <b>$0.00</b></p>\n                <p>Press any key to continue.</p>\n                ","response":" ","trial_type":"html-keyboard-response","trial_index":47,"time_elapsed":1765524,"internal_node_id":"0.0-31.0","params":{"nStudents":24,"maxFlips":30,"completionMinutes":45,"basePay":8,"maxBonus":9,"perTrialBonus":0.5,"perTrialBonusThreshold":0.05,"exampleCost":0.01},"classroomParams":{"A":{"a":1,"b":4},"B":{"a":4,"b":1},"C":{"a":2,"b":8},"D":{"a":8,"b":2}},"conditions":["nonSeqFull","nonSeqPartial","seqNoFeedback","seqFeedback"],"classroomPairings":[["A","B"],["C","D"]],"coinWeights":[0.2,0.5,0.8],"subjectId":"A1WJGO38GJ99ZS","assignmentId":"3ZR9AIQJUCVSDFZCHGRK1VFN5D004N","hitId":"34KYK9TV2RUAD363EVFPUWVPB97SBP","url":"https://gershmanlab.com/experiments/alicia/teaching/experiment/?hitId=34KYK9TV2RUAD363EVFPUWVPB97SBP&workerId=A1WJGO38GJ99ZS&assignmentId=3ZR9AIQJUCVSDFZCHGRK1VFN5D004N&a=JARZ7&tp_a=JARZ7&b=3ZR9AIQJUCVSDFZCHGRK1VFN5D004N&tp_b=3ZR9AIQJUCVSDFZCHGRK1VFN5D004N&c=365717&tp_c=365717"},{"rt":null,"stimulus":"<div style=\"font-size:60px;\">Next student</div>","response":null,"trial_type":"html-keyboard-response","trial_index":48,"time_elapsed":1767532,"internal_node_id":"0.0-32.0-0.0","params":{"nStudents":24,"maxFlips":30,"completionMinutes":45,"basePay":8,"maxBonus":9,"perTrialBonus":0.5,"perTrialBonusThreshold":0.05,"exampleCost":0.01},"classroomParams":{"A":{"a":1,"b":4},"B":{"a":4,"b":1},"C":{"a":2,"b":8},"D":{"a":8,"b":2}},"conditions":["nonSeqFull","nonSeqPartial","seqNoFeedback","seqFeedback"],"classroomPairings":[["A","B"],["C","D"]],"coinWeights":[0.2,0.5,0.8],"subjectId":"A1WJGO38GJ99ZS","assignmentId":"3ZR9AIQJUCVSDFZCHGRK1VFN5D004N","hitId":"34KYK9TV2RUAD363EVFPUWVPB97SBP","url":"https://gershmanlab.com/experiments/alicia/teaching/experiment/?hitId=34KYK9TV2RUAD363EVFPUWVPB97SBP&workerId=A1WJGO38GJ99ZS&assignmentId=3ZR9AIQJUCVSDFZCHGRK1VFN5D004N&a=JARZ7&tp_a=JARZ7&b=3ZR9AIQJUCVSDFZCHGRK1VFN5D004N&tp_b=3ZR9AIQJUCVSDFZCHGRK1VFN5D004N&c=365717&tp_c=365717"},{"rt":4644,"stimulus":"\n            <h4 style=\"color:Orange;\">Student 5</h4>\n            <h2>The weight of your coin is <b style=\"color:Tomato;\">0.8</b>.</h2>\n            <p>In this block, you will be giving <b>two</b> sets of examples to Student 5.</p>\n                <p>You will receive feedback at the end of the block.</p>\n            <p></p>","response":0,"trial_type":"html-button-response","trial_index":49,"time_elapsed":1772180,"internal_node_id":"0.0-33.0","params":{"nStudents":24,"maxFlips":30,"completionMinutes":45,"basePay":8,"maxBonus":9,"perTrialBonus":0.5,"perTrialBonusThreshold":0.05,"exampleCost":0.01},"classroomParams":{"A":{"a":1,"b":4},"B":{"a":4,"b":1},"C":{"a":2,"b":8},"D":{"a":8,"b":2}},"conditions":["nonSeqFull","nonSeqPartial","seqNoFeedback","seqFeedback"],"classroomPairings":[["A","B"],["C","D"]],"coinWeights":[0.2,0.5,0.8],"subjectId":"A1WJGO38GJ99ZS","assignmentId":"3ZR9AIQJUCVSDFZCHGRK1VFN5D004N","hitId":"34KYK9TV2RUAD363EVFPUWVPB97SBP","url":"https://gershmanlab.com/experiments/alicia/teaching/experiment/?hitId=34KYK9TV2RUAD363EVFPUWVPB97SBP&workerId=A1WJGO38GJ99ZS&assignmentId=3ZR9AIQJUCVSDFZCHGRK1VFN5D004N&a=JARZ7&tp_a=JARZ7&b=3ZR9AIQJUCVSDFZCHGRK1VFN5D004N&tp_b=3ZR9AIQJUCVSDFZCHGRK1VFN5D004N&c=365717&tp_c=365717"},{"rt":9428,"response":{"heads":"8","tails":"2"},"type":"response","condition":"seqNoFeedback","trueTheta":0.8,"classrooms":["C","D"],"studentTrueClassroom":"D","exampleSet":"first","trial_type":"survey-html-form","trial_index":50,"time_elapsed":1781610,"internal_node_id":"0.0-34.0-0.0","params":{"nStudents":24,"maxFlips":30,"completionMinutes":45,"basePay":8,"maxBonus":9,"perTrialBonus":0.5,"perTrialBonusThreshold":0.05,"exampleCost":0.01},"classroomParams":{"A":{"a":1,"b":4},"B":{"a":4,"b":1},"C":{"a":2,"b":8},"D":{"a":8,"b":2}},"conditions":["nonSeqFull","nonSeqPartial","seqNoFeedback","seqFeedback"],"classroomPairings":[["A","B"],["C","D"]],"coinWeights":[0.2,0.5,0.8],"subjectId":"A1WJGO38GJ99ZS","assignmentId":"3ZR9AIQJUCVSDFZCHGRK1VFN5D004N","hitId":"34KYK9TV2RUAD363EVFPUWVPB97SBP","url":"https://gershmanlab.com/experiments/alicia/teaching/experiment/?hitId=34KYK9TV2RUAD363EVFPUWVPB97SBP&workerId=A1WJGO38GJ99ZS&assignmentId=3ZR9AIQJUCVSDFZCHGRK1VFN5D004N&a=JARZ7&tp_a=JARZ7&b=3ZR9AIQJUCVSDFZCHGRK1VFN5D004N&tp_b=3ZR9AIQJUCVSDFZCHGRK1VFN5D004N&c=365717&tp_c=365717","heads":8,"tails":2,"studentIndex":4,"studentTrueHypers":{"a":8,"b":2},"studentGuess":0.8,"delta":0,"totalExamples":10,"bonusSoFar":0},{"rt":null,"stimulus":"Sending examples to student... ","response":null,"trial_type":"html-keyboard-response","trial_index":51,"time_elapsed":1783366,"internal_node_id":"0.0-35.0","params":{"nStudents":24,"maxFlips":30,"completionMinutes":45,"basePay":8,"maxBonus":9,"perTrialBonus":0.5,"perTrialBonusThreshold":0.05,"exampleCost":0.01},"classroomParams":{"A":{"a":1,"b":4},"B":{"a":4,"b":1},"C":{"a":2,"b":8},"D":{"a":8,"b":2}},"conditions":["nonSeqFull","nonSeqPartial","seqNoFeedback","seqFeedback"],"classroomPairings":[["A","B"],["C","D"]],"coinWeights":[0.2,0.5,0.8],"subjectId":"A1WJGO38GJ99ZS","assignmentId":"3ZR9AIQJUCVSDFZCHGRK1VFN5D004N","hitId":"34KYK9TV2RUAD363EVFPUWVPB97SBP","url":"https://gershmanlab.com/experiments/alicia/teaching/experiment/?hitId=34KYK9TV2RUAD363EVFPUWVPB97SBP&workerId=A1WJGO38GJ99ZS&assignmentId=3ZR9AIQJUCVSDFZCHGRK1VFN5D004N&a=JARZ7&tp_a=JARZ7&b=3ZR9AIQJUCVSDFZCHGRK1VFN5D004N&tp_b=3ZR9AIQJUCVSDFZCHGRK1VFN5D004N&c=365717&tp_c=365717"},{"rt":null,"stimulus":"Examples sent to student! Waiting for student...","response":null,"trial_type":"html-keyboard-response","trial_index":52,"time_elapsed":1787368,"internal_node_id":"0.0-36.0","params":{"nStudents":24,"maxFlips":30,"completionMinutes":45,"basePay":8,"maxBonus":9,"perTrialBonus":0.5,"perTrialBonusThreshold":0.05,"exampleCost":0.01},"classroomParams":{"A":{"a":1,"b":4},"B":{"a":4,"b":1},"C":{"a":2,"b":8},"D":{"a":8,"b":2}},"conditions":["nonSeqFull","nonSeqPartial","seqNoFeedback","seqFeedback"],"classroomPairings":[["A","B"],["C","D"]],"coinWeights":[0.2,0.5,0.8],"subjectId":"A1WJGO38GJ99ZS","assignmentId":"3ZR9AIQJUCVSDFZCHGRK1VFN5D004N","hitId":"34KYK9TV2RUAD363EVFPUWVPB97SBP","url":"https://gershmanlab.com/experiments/alicia/teaching/experiment/?hitId=34KYK9TV2RUAD363EVFPUWVPB97SBP&workerId=A1WJGO38GJ99ZS&assignmentId=3ZR9AIQJUCVSDFZCHGRK1VFN5D004N&a=JARZ7&tp_a=JARZ7&b=3ZR9AIQJUCVSDFZCHGRK1VFN5D004N&tp_b=3ZR9AIQJUCVSDFZCHGRK1VFN5D004N&c=365717&tp_c=365717"},{"rt":10700,"response":{"heads":"8","tails":"2"},"type":"response","condition":"seqNoFeedback","trueTheta":0.8,"classrooms":["C","D"],"studentTrueClassroom":"D","exampleSet":"second","trial_type":"survey-html-form","trial_index":53,"time_elapsed":1798070,"internal_node_id":"0.0-37.0-0.0","params":{"nStudents":24,"maxFlips":30,"completionMinutes":45,"basePay":8,"maxBonus":9,"perTrialBonus":0.5,"perTrialBonusThreshold":0.05,"exampleCost":0.01},"classroomParams":{"A":{"a":1,"b":4},"B":{"a":4,"b":1},"C":{"a":2,"b":8},"D":{"a":8,"b":2}},"conditions":["nonSeqFull","nonSeqPartial","seqNoFeedback","seqFeedback"],"classroomPairings":[["A","B"],["C","D"]],"coinWeights":[0.2,0.5,0.8],"subjectId":"A1WJGO38GJ99ZS","assignmentId":"3ZR9AIQJUCVSDFZCHGRK1VFN5D004N","hitId":"34KYK9TV2RUAD363EVFPUWVPB97SBP","url":"https://gershmanlab.com/experiments/alicia/teaching/experiment/?hitId=34KYK9TV2RUAD363EVFPUWVPB97SBP&workerId=A1WJGO38GJ99ZS&assignmentId=3ZR9AIQJUCVSDFZCHGRK1VFN5D004N&a=JARZ7&tp_a=JARZ7&b=3ZR9AIQJUCVSDFZCHGRK1VFN5D004N&tp_b=3ZR9AIQJUCVSDFZCHGRK1VFN5D004N&c=365717&tp_c=365717","firstResponseHeads":8,"firstResponseTails":2,"secondResponseHeads":8,"secondResponseTails":2,"totalHeads":16,"totalTails":4,"studentIndex":4,"studentTrueHypers":{"a":8,"b":2},"studentGuess":0.8,"delta":0,"bonus":0.3,"bonusSoFar":0.3,"totalExamples":20},{"rt":null,"stimulus":"Sending examples to student... ","response":null,"trial_type":"html-keyboard-response","trial_index":54,"time_elapsed":1799573,"internal_node_id":"0.0-38.0","params":{"nStudents":24,"maxFlips":30,"completionMinutes":45,"basePay":8,"maxBonus":9,"perTrialBonus":0.5,"perTrialBonusThreshold":0.05,"exampleCost":0.01},"classroomParams":{"A":{"a":1,"b":4},"B":{"a":4,"b":1},"C":{"a":2,"b":8},"D":{"a":8,"b":2}},"conditions":["nonSeqFull","nonSeqPartial","seqNoFeedback","seqFeedback"],"classroomPairings":[["A","B"],["C","D"]],"coinWeights":[0.2,0.5,0.8],"subjectId":"A1WJGO38GJ99ZS","assignmentId":"3ZR9AIQJUCVSDFZCHGRK1VFN5D004N","hitId":"34KYK9TV2RUAD363EVFPUWVPB97SBP","url":"https://gershmanlab.com/experiments/alicia/teaching/experiment/?hitId=34KYK9TV2RUAD363EVFPUWVPB97SBP&workerId=A1WJGO38GJ99ZS&assignmentId=3ZR9AIQJUCVSDFZCHGRK1VFN5D004N&a=JARZ7&tp_a=JARZ7&b=3ZR9AIQJUCVSDFZCHGRK1VFN5D004N&tp_b=3ZR9AIQJUCVSDFZCHGRK1VFN5D004N&c=365717&tp_c=365717"},{"rt":null,"stimulus":"Examples sent to student! Waiting for student...","response":null,"trial_type":"html-keyboard-response","trial_index":55,"time_elapsed":1804588,"internal_node_id":"0.0-39.0","params":{"nStudents":24,"maxFlips":30,"completionMinutes":45,"basePay":8,"maxBonus":9,"perTrialBonus":0.5,"perTrialBonusThreshold":0.05,"exampleCost":0.01},"classroomParams":{"A":{"a":1,"b":4},"B":{"a":4,"b":1},"C":{"a":2,"b":8},"D":{"a":8,"b":2}},"conditions":["nonSeqFull","nonSeqPartial","seqNoFeedback","seqFeedback"],"classroomPairings":[["A","B"],["C","D"]],"coinWeights":[0.2,0.5,0.8],"subjectId":"A1WJGO38GJ99ZS","assignmentId":"3ZR9AIQJUCVSDFZCHGRK1VFN5D004N","hitId":"34KYK9TV2RUAD363EVFPUWVPB97SBP","url":"https://gershmanlab.com/experiments/alicia/teaching/experiment/?hitId=34KYK9TV2RUAD363EVFPUWVPB97SBP&workerId=A1WJGO38GJ99ZS&assignmentId=3ZR9AIQJUCVSDFZCHGRK1VFN5D004N&a=JARZ7&tp_a=JARZ7&b=3ZR9AIQJUCVSDFZCHGRK1VFN5D004N&tp_b=3ZR9AIQJUCVSDFZCHGRK1VFN5D004N&c=365717&tp_c=365717"},{"rt":3508,"stimulus":"\n                <p>Student 5's first guess for coin weight: <b style=\"color:Tomato\";>0.80</b></p>\n                <p>Student 5's second guess for coin weight: <b style=\"color:Tomato\";>0.80</b></p>\n                <p>You received a bonus of <b>$0.30</b> based on the student's second guess.</p>\n                <p>Total bonus so far: <b>$0.30</b></p>\n                <p>Press any key to continue.</p>\n                ","response":" ","trial_type":"html-keyboard-response","trial_index":56,"time_elapsed":1808099,"internal_node_id":"0.0-40.0","params":{"nStudents":24,"maxFlips":30,"completionMinutes":45,"basePay":8,"maxBonus":9,"perTrialBonus":0.5,"perTrialBonusThreshold":0.05,"exampleCost":0.01},"classroomParams":{"A":{"a":1,"b":4},"B":{"a":4,"b":1},"C":{"a":2,"b":8},"D":{"a":8,"b":2}},"conditions":["nonSeqFull","nonSeqPartial","seqNoFeedback","seqFeedback"],"classroomPairings":[["A","B"],["C","D"]],"coinWeights":[0.2,0.5,0.8],"subjectId":"A1WJGO38GJ99ZS","assignmentId":"3ZR9AIQJUCVSDFZCHGRK1VFN5D004N","hitId":"34KYK9TV2RUAD363EVFPUWVPB97SBP","url":"https://gershmanlab.com/experiments/alicia/teaching/experiment/?hitId=34KYK9TV2RUAD363EVFPUWVPB97SBP&workerId=A1WJGO38GJ99ZS&assignmentId=3ZR9AIQJUCVSDFZCHGRK1VFN5D004N&a=JARZ7&tp_a=JARZ7&b=3ZR9AIQJUCVSDFZCHGRK1VFN5D004N&tp_b=3ZR9AIQJUCVSDFZCHGRK1VFN5D004N&c=365717&tp_c=365717"},{"rt":null,"stimulus":"<div style=\"font-size:60px;\">Next student</div>","response":null,"trial_type":"html-keyboard-response","trial_index":57,"time_elapsed":1810606,"internal_node_id":"0.0-41.0-0.0","params":{"nStudents":24,"maxFlips":30,"completionMinutes":45,"basePay":8,"maxBonus":9,"perTrialBonus":0.5,"perTrialBonusThreshold":0.05,"exampleCost":0.01},"classroomParams":{"A":{"a":1,"b":4},"B":{"a":4,"b":1},"C":{"a":2,"b":8},"D":{"a":8,"b":2}},"conditions":["nonSeqFull","nonSeqPartial","seqNoFeedback","seqFeedback"],"classroomPairings":[["A","B"],["C","D"]],"coinWeights":[0.2,0.5,0.8],"subjectId":"A1WJGO38GJ99ZS","assignmentId":"3ZR9AIQJUCVSDFZCHGRK1VFN5D004N","hitId":"34KYK9TV2RUAD363EVFPUWVPB97SBP","url":"https://gershmanlab.com/experiments/alicia/teaching/experiment/?hitId=34KYK9TV2RUAD363EVFPUWVPB97SBP&workerId=A1WJGO38GJ99ZS&assignmentId=3ZR9AIQJUCVSDFZCHGRK1VFN5D004N&a=JARZ7&tp_a=JARZ7&b=3ZR9AIQJUCVSDFZCHGRK1VFN5D004N&tp_b=3ZR9AIQJUCVSDFZCHGRK1VFN5D004N&c=365717&tp_c=365717"},{"rt":2731,"stimulus":"\n            <h4 style=\"color:Orange;\">Student 6</h4>\n            <h2>The weight of your coin is <b style=\"color:Tomato;\">0.8</b>.</h2>\n            <p>In this block, you will be giving <b>one</b> set of examples to Student 6.</p>\n                <p>You will receive feedback at the end of the block.</p>\n            <p></p>","response":0,"trial_type":"html-button-response","trial_index":58,"time_elapsed":1813339,"internal_node_id":"0.0-42.0","params":{"nStudents":24,"maxFlips":30,"completionMinutes":45,"basePay":8,"maxBonus":9,"perTrialBonus":0.5,"perTrialBonusThreshold":0.05,"exampleCost":0.01},"classroomParams":{"A":{"a":1,"b":4},"B":{"a":4,"b":1},"C":{"a":2,"b":8},"D":{"a":8,"b":2}},"conditions":["nonSeqFull","nonSeqPartial","seqNoFeedback","seqFeedback"],"classroomPairings":[["A","B"],["C","D"]],"coinWeights":[0.2,0.5,0.8],"subjectId":"A1WJGO38GJ99ZS","assignmentId":"3ZR9AIQJUCVSDFZCHGRK1VFN5D004N","hitId":"34KYK9TV2RUAD363EVFPUWVPB97SBP","url":"https://gershmanlab.com/experiments/alicia/teaching/experiment/?hitId=34KYK9TV2RUAD363EVFPUWVPB97SBP&workerId=A1WJGO38GJ99ZS&assignmentId=3ZR9AIQJUCVSDFZCHGRK1VFN5D004N&a=JARZ7&tp_a=JARZ7&b=3ZR9AIQJUCVSDFZCHGRK1VFN5D004N&tp_b=3ZR9AIQJUCVSDFZCHGRK1VFN5D004N&c=365717&tp_c=365717"},{"rt":12495,"response":{"heads":"8","tails":"2"},"type":"response","condition":"nonSeqFull","trueTheta":0.8,"classrooms":["A","B"],"studentTrueClassroom":"A","exampleSet":"first","trial_type":"survey-html-form","trial_index":59,"time_elapsed":1825836,"internal_node_id":"0.0-43.0-0.0","params":{"nStudents":24,"maxFlips":30,"completionMinutes":45,"basePay":8,"maxBonus":9,"perTrialBonus":0.5,"perTrialBonusThreshold":0.05,"exampleCost":0.01},"classroomParams":{"A":{"a":1,"b":4},"B":{"a":4,"b":1},"C":{"a":2,"b":8},"D":{"a":8,"b":2}},"conditions":["nonSeqFull","nonSeqPartial","seqNoFeedback","seqFeedback"],"classroomPairings":[["A","B"],["C","D"]],"coinWeights":[0.2,0.5,0.8],"subjectId":"A1WJGO38GJ99ZS","assignmentId":"3ZR9AIQJUCVSDFZCHGRK1VFN5D004N","hitId":"34KYK9TV2RUAD363EVFPUWVPB97SBP","url":"https://gershmanlab.com/experiments/alicia/teaching/experiment/?hitId=34KYK9TV2RUAD363EVFPUWVPB97SBP&workerId=A1WJGO38GJ99ZS&assignmentId=3ZR9AIQJUCVSDFZCHGRK1VFN5D004N&a=JARZ7&tp_a=JARZ7&b=3ZR9AIQJUCVSDFZCHGRK1VFN5D004N&tp_b=3ZR9AIQJUCVSDFZCHGRK1VFN5D004N&c=365717&tp_c=365717","heads":8,"tails":2,"studentIndex":5,"studentTrueHypers":{"a":1,"b":4},"studentGuess":0.6,"delta":0.20000000000000007,"totalExamples":10,"bonus":0,"bonusSoFar":0.3},{"rt":null,"stimulus":"Sending examples to student... ","response":null,"trial_type":"html-keyboard-response","trial_index":60,"time_elapsed":1827088,"internal_node_id":"0.0-44.0","params":{"nStudents":24,"maxFlips":30,"completionMinutes":45,"basePay":8,"maxBonus":9,"perTrialBonus":0.5,"perTrialBonusThreshold":0.05,"exampleCost":0.01},"classroomParams":{"A":{"a":1,"b":4},"B":{"a":4,"b":1},"C":{"a":2,"b":8},"D":{"a":8,"b":2}},"conditions":["nonSeqFull","nonSeqPartial","seqNoFeedback","seqFeedback"],"classroomPairings":[["A","B"],["C","D"]],"coinWeights":[0.2,0.5,0.8],"subjectId":"A1WJGO38GJ99ZS","assignmentId":"3ZR9AIQJUCVSDFZCHGRK1VFN5D004N","hitId":"34KYK9TV2RUAD363EVFPUWVPB97SBP","url":"https://gershmanlab.com/experiments/alicia/teaching/experiment/?hitId=34KYK9TV2RUAD363EVFPUWVPB97SBP&workerId=A1WJGO38GJ99ZS&assignmentId=3ZR9AIQJUCVSDFZCHGRK1VFN5D004N&a=JARZ7&tp_a=JARZ7&b=3ZR9AIQJUCVSDFZCHGRK1VFN5D004N&tp_b=3ZR9AIQJUCVSDFZCHGRK1VFN5D004N&c=365717&tp_c=365717"},{"rt":null,"stimulus":"Examples sent to student! Waiting for student...","response":null,"trial_type":"html-keyboard-response","trial_index":61,"time_elapsed":1831103,"internal_node_id":"0.0-45.0","params":{"nStudents":24,"maxFlips":30,"completionMinutes":45,"basePay":8,"maxBonus":9,"perTrialBonus":0.5,"perTrialBonusThreshold":0.05,"exampleCost":0.01},"classroomParams":{"A":{"a":1,"b":4},"B":{"a":4,"b":1},"C":{"a":2,"b":8},"D":{"a":8,"b":2}},"conditions":["nonSeqFull","nonSeqPartial","seqNoFeedback","seqFeedback"],"classroomPairings":[["A","B"],["C","D"]],"coinWeights":[0.2,0.5,0.8],"subjectId":"A1WJGO38GJ99ZS","assignmentId":"3ZR9AIQJUCVSDFZCHGRK1VFN5D004N","hitId":"34KYK9TV2RUAD363EVFPUWVPB97SBP","url":"https://gershmanlab.com/experiments/alicia/teaching/experiment/?hitId=34KYK9TV2RUAD363EVFPUWVPB97SBP&workerId=A1WJGO38GJ99ZS&assignmentId=3ZR9AIQJUCVSDFZCHGRK1VFN5D004N&a=JARZ7&tp_a=JARZ7&b=3ZR9AIQJUCVSDFZCHGRK1VFN5D004N&tp_b=3ZR9AIQJUCVSDFZCHGRK1VFN5D004N&c=365717&tp_c=365717"},{"rt":4368,"stimulus":"\n                <p>Student's guess for coin weight: <b style=\"color:Tomato;\">0.60</b></p>\n                <p>You received a bonus of <b>$0</b>. Total bonus so far: <b>$0.30</b></b></p>\n                <p></p>\n                <p>Press any key to continue.</p>\n                ","response":" ","trial_type":"html-keyboard-response","trial_index":62,"time_elapsed":1835474,"internal_node_id":"0.0-46.0","params":{"nStudents":24,"maxFlips":30,"completionMinutes":45,"basePay":8,"maxBonus":9,"perTrialBonus":0.5,"perTrialBonusThreshold":0.05,"exampleCost":0.01},"classroomParams":{"A":{"a":1,"b":4},"B":{"a":4,"b":1},"C":{"a":2,"b":8},"D":{"a":8,"b":2}},"conditions":["nonSeqFull","nonSeqPartial","seqNoFeedback","seqFeedback"],"classroomPairings":[["A","B"],["C","D"]],"coinWeights":[0.2,0.5,0.8],"subjectId":"A1WJGO38GJ99ZS","assignmentId":"3ZR9AIQJUCVSDFZCHGRK1VFN5D004N","hitId":"34KYK9TV2RUAD363EVFPUWVPB97SBP","url":"https://gershmanlab.com/experiments/alicia/teaching/experiment/?hitId=34KYK9TV2RUAD363EVFPUWVPB97SBP&workerId=A1WJGO38GJ99ZS&assignmentId=3ZR9AIQJUCVSDFZCHGRK1VFN5D004N&a=JARZ7&tp_a=JARZ7&b=3ZR9AIQJUCVSDFZCHGRK1VFN5D004N&tp_b=3ZR9AIQJUCVSDFZCHGRK1VFN5D004N&c=365717&tp_c=365717"},{"rt":null,"stimulus":"<div style=\"font-size:60px;\">Next student</div>","response":null,"trial_type":"html-keyboard-response","trial_index":63,"time_elapsed":1837984,"internal_node_id":"0.0-47.0-0.0","params":{"nStudents":24,"maxFlips":30,"completionMinutes":45,"basePay":8,"maxBonus":9,"perTrialBonus":0.5,"perTrialBonusThreshold":0.05,"exampleCost":0.01},"classroomParams":{"A":{"a":1,"b":4},"B":{"a":4,"b":1},"C":{"a":2,"b":8},"D":{"a":8,"b":2}},"conditions":["nonSeqFull","nonSeqPartial","seqNoFeedback","seqFeedback"],"classroomPairings":[["A","B"],["C","D"]],"coinWeights":[0.2,0.5,0.8],"subjectId":"A1WJGO38GJ99ZS","assignmentId":"3ZR9AIQJUCVSDFZCHGRK1VFN5D004N","hitId":"34KYK9TV2RUAD363EVFPUWVPB97SBP","url":"https://gershmanlab.com/experiments/alicia/teaching/experiment/?hitId=34KYK9TV2RUAD363EVFPUWVPB97SBP&workerId=A1WJGO38GJ99ZS&assignmentId=3ZR9AIQJUCVSDFZCHGRK1VFN5D004N&a=JARZ7&tp_a=JARZ7&b=3ZR9AIQJUCVSDFZCHGRK1VFN5D004N&tp_b=3ZR9AIQJUCVSDFZCHGRK1VFN5D004N&c=365717&tp_c=365717"},{"rt":7933,"stimulus":"\n            <h4 style=\"color:Orange;\">Student 7</h4>\n            <h2>The weight of your coin is <b style=\"color:Tomato;\">0.2</b>.</h2>\n            <p>In this block, you will be giving <b>two</b> sets of examples to Student 7.</p>\n                <p>You will see the student's guess after the first set of examples. You will also receive feedback at the end of the block.</p>\n            <p>To earn the highest bonus, you will have to <b>take into consideration the student's guess</b> when you choose your second set of examples.</p>","response":0,"trial_type":"html-button-response","trial_index":64,"time_elapsed":1845919,"internal_node_id":"0.0-48.0","params":{"nStudents":24,"maxFlips":30,"completionMinutes":45,"basePay":8,"maxBonus":9,"perTrialBonus":0.5,"perTrialBonusThreshold":0.05,"exampleCost":0.01},"classroomParams":{"A":{"a":1,"b":4},"B":{"a":4,"b":1},"C":{"a":2,"b":8},"D":{"a":8,"b":2}},"conditions":["nonSeqFull","nonSeqPartial","seqNoFeedback","seqFeedback"],"classroomPairings":[["A","B"],["C","D"]],"coinWeights":[0.2,0.5,0.8],"subjectId":"A1WJGO38GJ99ZS","assignmentId":"3ZR9AIQJUCVSDFZCHGRK1VFN5D004N","hitId":"34KYK9TV2RUAD363EVFPUWVPB97SBP","url":"https://gershmanlab.com/experiments/alicia/teaching/experiment/?hitId=34KYK9TV2RUAD363EVFPUWVPB97SBP&workerId=A1WJGO38GJ99ZS&assignmentId=3ZR9AIQJUCVSDFZCHGRK1VFN5D004N&a=JARZ7&tp_a=JARZ7&b=3ZR9AIQJUCVSDFZCHGRK1VFN5D004N&tp_b=3ZR9AIQJUCVSDFZCHGRK1VFN5D004N&c=365717&tp_c=365717"},{"rt":16553,"response":{"heads":"0","tails":"2"},"type":"response","condition":"seqFeedback","trueTheta":0.2,"classrooms":["A","B"],"studentTrueClassroom":"B","exampleSet":"first","trial_type":"survey-html-form","trial_index":65,"time_elapsed":1862474,"internal_node_id":"0.0-49.0-0.0","params":{"nStudents":24,"maxFlips":30,"completionMinutes":45,"basePay":8,"maxBonus":9,"perTrialBonus":0.5,"perTrialBonusThreshold":0.05,"exampleCost":0.01},"classroomParams":{"A":{"a":1,"b":4},"B":{"a":4,"b":1},"C":{"a":2,"b":8},"D":{"a":8,"b":2}},"conditions":["nonSeqFull","nonSeqPartial","seqNoFeedback","seqFeedback"],"classroomPairings":[["A","B"],["C","D"]],"coinWeights":[0.2,0.5,0.8],"subjectId":"A1WJGO38GJ99ZS","assignmentId":"3ZR9AIQJUCVSDFZCHGRK1VFN5D004N","hitId":"34KYK9TV2RUAD363EVFPUWVPB97SBP","url":"https://gershmanlab.com/experiments/alicia/teaching/experiment/?hitId=34KYK9TV2RUAD363EVFPUWVPB97SBP&workerId=A1WJGO38GJ99ZS&assignmentId=3ZR9AIQJUCVSDFZCHGRK1VFN5D004N&a=JARZ7&tp_a=JARZ7&b=3ZR9AIQJUCVSDFZCHGRK1VFN5D004N&tp_b=3ZR9AIQJUCVSDFZCHGRK1VFN5D004N&c=365717&tp_c=365717","heads":0,"tails":2,"studentIndex":6,"studentTrueHypers":{"a":4,"b":1},"studentGuess":0.5714285714285714,"delta":0.3714285714285714,"totalExamples":2,"bonusSoFar":0.3},{"rt":null,"stimulus":"Sending examples to student... ","response":null,"trial_type":"html-keyboard-response","trial_index":66,"time_elapsed":1864479,"internal_node_id":"0.0-50.0","params":{"nStudents":24,"maxFlips":30,"completionMinutes":45,"basePay":8,"maxBonus":9,"perTrialBonus":0.5,"perTrialBonusThreshold":0.05,"exampleCost":0.01},"classroomParams":{"A":{"a":1,"b":4},"B":{"a":4,"b":1},"C":{"a":2,"b":8},"D":{"a":8,"b":2}},"conditions":["nonSeqFull","nonSeqPartial","seqNoFeedback","seqFeedback"],"classroomPairings":[["A","B"],["C","D"]],"coinWeights":[0.2,0.5,0.8],"subjectId":"A1WJGO38GJ99ZS","assignmentId":"3ZR9AIQJUCVSDFZCHGRK1VFN5D004N","hitId":"34KYK9TV2RUAD363EVFPUWVPB97SBP","url":"https://gershmanlab.com/experiments/alicia/teaching/experiment/?hitId=34KYK9TV2RUAD363EVFPUWVPB97SBP&workerId=A1WJGO38GJ99ZS&assignmentId=3ZR9AIQJUCVSDFZCHGRK1VFN5D004N&a=JARZ7&tp_a=JARZ7&b=3ZR9AIQJUCVSDFZCHGRK1VFN5D004N&tp_b=3ZR9AIQJUCVSDFZCHGRK1VFN5D004N&c=365717&tp_c=365717"},{"rt":null,"stimulus":"Examples sent to student! Waiting for student...","response":null,"trial_type":"html-keyboard-response","trial_index":67,"time_elapsed":1870496,"internal_node_id":"0.0-51.0","params":{"nStudents":24,"maxFlips":30,"completionMinutes":45,"basePay":8,"maxBonus":9,"perTrialBonus":0.5,"perTrialBonusThreshold":0.05,"exampleCost":0.01},"classroomParams":{"A":{"a":1,"b":4},"B":{"a":4,"b":1},"C":{"a":2,"b":8},"D":{"a":8,"b":2}},"conditions":["nonSeqFull","nonSeqPartial","seqNoFeedback","seqFeedback"],"classroomPairings":[["A","B"],["C","D"]],"coinWeights":[0.2,0.5,0.8],"subjectId":"A1WJGO38GJ99ZS","assignmentId":"3ZR9AIQJUCVSDFZCHGRK1VFN5D004N","hitId":"34KYK9TV2RUAD363EVFPUWVPB97SBP","url":"https://gershmanlab.com/experiments/alicia/teaching/experiment/?hitId=34KYK9TV2RUAD363EVFPUWVPB97SBP&workerId=A1WJGO38GJ99ZS&assignmentId=3ZR9AIQJUCVSDFZCHGRK1VFN5D004N&a=JARZ7&tp_a=JARZ7&b=3ZR9AIQJUCVSDFZCHGRK1VFN5D004N&tp_b=3ZR9AIQJUCVSDFZCHGRK1VFN5D004N&c=365717&tp_c=365717"},{"rt":5897,"stimulus":"\n                <p>Student's guess for coin weight: <b style=\"color:Tomato;\">0.57</b></p>\n                <p></b></p>\n                <p>You will now send another set of examples to your student. <b>Remember to take your student's guess into consideration so that you can earn the highest bonus possible!</b> </p>\n                <p>Press any key to continue.</p>\n                ","response":" ","trial_type":"html-keyboard-response","trial_index":68,"time_elapsed":1876395,"internal_node_id":"0.0-52.0","params":{"nStudents":24,"maxFlips":30,"completionMinutes":45,"basePay":8,"maxBonus":9,"perTrialBonus":0.5,"perTrialBonusThreshold":0.05,"exampleCost":0.01},"classroomParams":{"A":{"a":1,"b":4},"B":{"a":4,"b":1},"C":{"a":2,"b":8},"D":{"a":8,"b":2}},"conditions":["nonSeqFull","nonSeqPartial","seqNoFeedback","seqFeedback"],"classroomPairings":[["A","B"],["C","D"]],"coinWeights":[0.2,0.5,0.8],"subjectId":"A1WJGO38GJ99ZS","assignmentId":"3ZR9AIQJUCVSDFZCHGRK1VFN5D004N","hitId":"34KYK9TV2RUAD363EVFPUWVPB97SBP","url":"https://gershmanlab.com/experiments/alicia/teaching/experiment/?hitId=34KYK9TV2RUAD363EVFPUWVPB97SBP&workerId=A1WJGO38GJ99ZS&assignmentId=3ZR9AIQJUCVSDFZCHGRK1VFN5D004N&a=JARZ7&tp_a=JARZ7&b=3ZR9AIQJUCVSDFZCHGRK1VFN5D004N&tp_b=3ZR9AIQJUCVSDFZCHGRK1VFN5D004N&c=365717&tp_c=365717"},{"rt":5949,"response":{"heads":"0","tails":"1"},"type":"response","condition":"seqFeedback","trueTheta":0.2,"classrooms":["A","B"],"studentTrueClassroom":"B","exampleSet":"second","trial_type":"survey-html-form","trial_index":69,"time_elapsed":1882346,"internal_node_id":"0.0-53.0-0.0","params":{"nStudents":24,"maxFlips":30,"completionMinutes":45,"basePay":8,"maxBonus":9,"perTrialBonus":0.5,"perTrialBonusThreshold":0.05,"exampleCost":0.01},"classroomParams":{"A":{"a":1,"b":4},"B":{"a":4,"b":1},"C":{"a":2,"b":8},"D":{"a":8,"b":2}},"conditions":["nonSeqFull","nonSeqPartial","seqNoFeedback","seqFeedback"],"classroomPairings":[["A","B"],["C","D"]],"coinWeights":[0.2,0.5,0.8],"subjectId":"A1WJGO38GJ99ZS","assignmentId":"3ZR9AIQJUCVSDFZCHGRK1VFN5D004N","hitId":"34KYK9TV2RUAD363EVFPUWVPB97SBP","url":"https://gershmanlab.com/experiments/alicia/teaching/experiment/?hitId=34KYK9TV2RUAD363EVFPUWVPB97SBP&workerId=A1WJGO38GJ99ZS&assignmentId=3ZR9AIQJUCVSDFZCHGRK1VFN5D004N&a=JARZ7&tp_a=JARZ7&b=3ZR9AIQJUCVSDFZCHGRK1VFN5D004N&tp_b=3ZR9AIQJUCVSDFZCHGRK1VFN5D004N&c=365717&tp_c=365717","firstResponseHeads":0,"firstResponseTails":2,"secondResponseHeads":0,"secondResponseTails":1,"totalHeads":0,"totalTails":3,"studentIndex":6,"studentTrueHypers":{"a":4,"b":1},"studentGuess":0.5,"delta":0.3,"bonus":0,"bonusSoFar":0.3,"totalExamples":3},{"rt":null,"stimulus":"Sending examples to student... ","response":null,"trial_type":"html-keyboard-response","trial_index":70,"time_elapsed":1884108,"internal_node_id":"0.0-54.0","params":{"nStudents":24,"maxFlips":30,"completionMinutes":45,"basePay":8,"maxBonus":9,"perTrialBonus":0.5,"perTrialBonusThreshold":0.05,"exampleCost":0.01},"classroomParams":{"A":{"a":1,"b":4},"B":{"a":4,"b":1},"C":{"a":2,"b":8},"D":{"a":8,"b":2}},"conditions":["nonSeqFull","nonSeqPartial","seqNoFeedback","seqFeedback"],"classroomPairings":[["A","B"],["C","D"]],"coinWeights":[0.2,0.5,0.8],"subjectId":"A1WJGO38GJ99ZS","assignmentId":"3ZR9AIQJUCVSDFZCHGRK1VFN5D004N","hitId":"34KYK9TV2RUAD363EVFPUWVPB97SBP","url":"https://gershmanlab.com/experiments/alicia/teaching/experiment/?hitId=34KYK9TV2RUAD363EVFPUWVPB97SBP&workerId=A1WJGO38GJ99ZS&assignmentId=3ZR9AIQJUCVSDFZCHGRK1VFN5D004N&a=JARZ7&tp_a=JARZ7&b=3ZR9AIQJUCVSDFZCHGRK1VFN5D004N&tp_b=3ZR9AIQJUCVSDFZCHGRK1VFN5D004N&c=365717&tp_c=365717"},{"rt":null,"stimulus":"Examples sent to student! Waiting for student...","response":null,"trial_type":"html-keyboard-response","trial_index":71,"time_elapsed":1889612,"internal_node_id":"0.0-55.0","params":{"nStudents":24,"maxFlips":30,"completionMinutes":45,"basePay":8,"maxBonus":9,"perTrialBonus":0.5,"perTrialBonusThreshold":0.05,"exampleCost":0.01},"classroomParams":{"A":{"a":1,"b":4},"B":{"a":4,"b":1},"C":{"a":2,"b":8},"D":{"a":8,"b":2}},"conditions":["nonSeqFull","nonSeqPartial","seqNoFeedback","seqFeedback"],"classroomPairings":[["A","B"],["C","D"]],"coinWeights":[0.2,0.5,0.8],"subjectId":"A1WJGO38GJ99ZS","assignmentId":"3ZR9AIQJUCVSDFZCHGRK1VFN5D004N","hitId":"34KYK9TV2RUAD363EVFPUWVPB97SBP","url":"https://gershmanlab.com/experiments/alicia/teaching/experiment/?hitId=34KYK9TV2RUAD363EVFPUWVPB97SBP&workerId=A1WJGO38GJ99ZS&assignmentId=3ZR9AIQJUCVSDFZCHGRK1VFN5D004N&a=JARZ7&tp_a=JARZ7&b=3ZR9AIQJUCVSDFZCHGRK1VFN5D004N&tp_b=3ZR9AIQJUCVSDFZCHGRK1VFN5D004N&c=365717&tp_c=365717"},{"rt":7978,"stimulus":"\n                <p>Student 7's first guess for coin weight: <b style=\"color:Tomato\";>0.57</b></p>\n                <p>Student 7's second guess for coin weight: <b style=\"color:Tomato\";>0.50</b></p>\n                <p>You received a bonus of <b>$0.00</b> based on the student's second guess.</p>\n                <p>Total bonus so far: <b>$0.30</b></p>\n                <p>Press any key to continue.</p>\n                ","response":" ","trial_type":"html-keyboard-response","trial_index":72,"time_elapsed":1897593,"internal_node_id":"0.0-56.0","params":{"nStudents":24,"maxFlips":30,"completionMinutes":45,"basePay":8,"maxBonus":9,"perTrialBonus":0.5,"perTrialBonusThreshold":0.05,"exampleCost":0.01},"classroomParams":{"A":{"a":1,"b":4},"B":{"a":4,"b":1},"C":{"a":2,"b":8},"D":{"a":8,"b":2}},"conditions":["nonSeqFull","nonSeqPartial","seqNoFeedback","seqFeedback"],"classroomPairings":[["A","B"],["C","D"]],"coinWeights":[0.2,0.5,0.8],"subjectId":"A1WJGO38GJ99ZS","assignmentId":"3ZR9AIQJUCVSDFZCHGRK1VFN5D004N","hitId":"34KYK9TV2RUAD363EVFPUWVPB97SBP","url":"https://gershmanlab.com/experiments/alicia/teaching/experiment/?hitId=34KYK9TV2RUAD363EVFPUWVPB97SBP&workerId=A1WJGO38GJ99ZS&assignmentId=3ZR9AIQJUCVSDFZCHGRK1VFN5D004N&a=JARZ7&tp_a=JARZ7&b=3ZR9AIQJUCVSDFZCHGRK1VFN5D004N&tp_b=3ZR9AIQJUCVSDFZCHGRK1VFN5D004N&c=365717&tp_c=365717"},{"rt":null,"stimulus":"<div style=\"font-size:60px;\">Next student</div>","response":null,"trial_type":"html-keyboard-response","trial_index":73,"time_elapsed":1900607,"internal_node_id":"0.0-57.0-0.0","params":{"nStudents":24,"maxFlips":30,"completionMinutes":45,"basePay":8,"maxBonus":9,"perTrialBonus":0.5,"perTrialBonusThreshold":0.05,"exampleCost":0.01},"classroomParams":{"A":{"a":1,"b":4},"B":{"a":4,"b":1},"C":{"a":2,"b":8},"D":{"a":8,"b":2}},"conditions":["nonSeqFull","nonSeqPartial","seqNoFeedback","seqFeedback"],"classroomPairings":[["A","B"],["C","D"]],"coinWeights":[0.2,0.5,0.8],"subjectId":"A1WJGO38GJ99ZS","assignmentId":"3ZR9AIQJUCVSDFZCHGRK1VFN5D004N","hitId":"34KYK9TV2RUAD363EVFPUWVPB97SBP","url":"https://gershmanlab.com/experiments/alicia/teaching/experiment/?hitId=34KYK9TV2RUAD363EVFPUWVPB97SBP&workerId=A1WJGO38GJ99ZS&assignmentId=3ZR9AIQJUCVSDFZCHGRK1VFN5D004N&a=JARZ7&tp_a=JARZ7&b=3ZR9AIQJUCVSDFZCHGRK1VFN5D004N&tp_b=3ZR9AIQJUCVSDFZCHGRK1VFN5D004N&c=365717&tp_c=365717"},{"rt":4825,"stimulus":"\n            <h4 style=\"color:Orange;\">Student 8</h4>\n            <h2>The weight of your coin is <b style=\"color:Tomato;\">0.2</b>.</h2>\n            <p>In this block, you will be giving <b>one</b> set of examples to Student 8.</p>\n                <p>You will receive feedback at the end of the block.</p>\n            <p></p>","response":0,"trial_type":"html-button-response","trial_index":74,"time_elapsed":1905435,"internal_node_id":"0.0-58.0","params":{"nStudents":24,"maxFlips":30,"completionMinutes":45,"basePay":8,"maxBonus":9,"perTrialBonus":0.5,"perTrialBonusThreshold":0.05,"exampleCost":0.01},"classroomParams":{"A":{"a":1,"b":4},"B":{"a":4,"b":1},"C":{"a":2,"b":8},"D":{"a":8,"b":2}},"conditions":["nonSeqFull","nonSeqPartial","seqNoFeedback","seqFeedback"],"classroomPairings":[["A","B"],["C","D"]],"coinWeights":[0.2,0.5,0.8],"subjectId":"A1WJGO38GJ99ZS","assignmentId":"3ZR9AIQJUCVSDFZCHGRK1VFN5D004N","hitId":"34KYK9TV2RUAD363EVFPUWVPB97SBP","url":"https://gershmanlab.com/experiments/alicia/teaching/experiment/?hitId=34KYK9TV2RUAD363EVFPUWVPB97SBP&workerId=A1WJGO38GJ99ZS&assignmentId=3ZR9AIQJUCVSDFZCHGRK1VFN5D004N&a=JARZ7&tp_a=JARZ7&b=3ZR9AIQJUCVSDFZCHGRK1VFN5D004N&tp_b=3ZR9AIQJUCVSDFZCHGRK1VFN5D004N&c=365717&tp_c=365717"},{"rt":14795,"response":{"heads":"11","tails":"1"},"type":"response","condition":"nonSeqFull","trueTheta":0.2,"classrooms":["A","B"],"studentTrueClassroom":"B","exampleSet":"first","trial_type":"survey-html-form","trial_index":75,"time_elapsed":1920232,"internal_node_id":"0.0-59.0-0.0","params":{"nStudents":24,"maxFlips":30,"completionMinutes":45,"basePay":8,"maxBonus":9,"perTrialBonus":0.5,"perTrialBonusThreshold":0.05,"exampleCost":0.01},"classroomParams":{"A":{"a":1,"b":4},"B":{"a":4,"b":1},"C":{"a":2,"b":8},"D":{"a":8,"b":2}},"conditions":["nonSeqFull","nonSeqPartial","seqNoFeedback","seqFeedback"],"classroomPairings":[["A","B"],["C","D"]],"coinWeights":[0.2,0.5,0.8],"subjectId":"A1WJGO38GJ99ZS","assignmentId":"3ZR9AIQJUCVSDFZCHGRK1VFN5D004N","hitId":"34KYK9TV2RUAD363EVFPUWVPB97SBP","url":"https://gershmanlab.com/experiments/alicia/teaching/experiment/?hitId=34KYK9TV2RUAD363EVFPUWVPB97SBP&workerId=A1WJGO38GJ99ZS&assignmentId=3ZR9AIQJUCVSDFZCHGRK1VFN5D004N&a=JARZ7&tp_a=JARZ7&b=3ZR9AIQJUCVSDFZCHGRK1VFN5D004N&tp_b=3ZR9AIQJUCVSDFZCHGRK1VFN5D004N&c=365717&tp_c=365717","heads":11,"tails":1,"studentIndex":7,"studentTrueHypers":{"a":4,"b":1},"studentGuess":0.8823529411764706,"delta":0.6823529411764706,"totalExamples":12,"bonus":0,"bonusSoFar":0.3},{"rt":null,"stimulus":"Sending examples to student... ","response":null,"trial_type":"html-keyboard-response","trial_index":76,"time_elapsed":1921985,"internal_node_id":"0.0-60.0","params":{"nStudents":24,"maxFlips":30,"completionMinutes":45,"basePay":8,"maxBonus":9,"perTrialBonus":0.5,"perTrialBonusThreshold":0.05,"exampleCost":0.01},"classroomParams":{"A":{"a":1,"b":4},"B":{"a":4,"b":1},"C":{"a":2,"b":8},"D":{"a":8,"b":2}},"conditions":["nonSeqFull","nonSeqPartial","seqNoFeedback","seqFeedback"],"classroomPairings":[["A","B"],["C","D"]],"coinWeights":[0.2,0.5,0.8],"subjectId":"A1WJGO38GJ99ZS","assignmentId":"3ZR9AIQJUCVSDFZCHGRK1VFN5D004N","hitId":"34KYK9TV2RUAD363EVFPUWVPB97SBP","url":"https://gershmanlab.com/experiments/alicia/teaching/experiment/?hitId=34KYK9TV2RUAD363EVFPUWVPB97SBP&workerId=A1WJGO38GJ99ZS&assignmentId=3ZR9AIQJUCVSDFZCHGRK1VFN5D004N&a=JARZ7&tp_a=JARZ7&b=3ZR9AIQJUCVSDFZCHGRK1VFN5D004N&tp_b=3ZR9AIQJUCVSDFZCHGRK1VFN5D004N&c=365717&tp_c=365717"},{"rt":null,"stimulus":"Examples sent to student! Waiting for student...","response":null,"trial_type":"html-keyboard-response","trial_index":77,"time_elapsed":1926994,"internal_node_id":"0.0-61.0","params":{"nStudents":24,"maxFlips":30,"completionMinutes":45,"basePay":8,"maxBonus":9,"perTrialBonus":0.5,"perTrialBonusThreshold":0.05,"exampleCost":0.01},"classroomParams":{"A":{"a":1,"b":4},"B":{"a":4,"b":1},"C":{"a":2,"b":8},"D":{"a":8,"b":2}},"conditions":["nonSeqFull","nonSeqPartial","seqNoFeedback","seqFeedback"],"classroomPairings":[["A","B"],["C","D"]],"coinWeights":[0.2,0.5,0.8],"subjectId":"A1WJGO38GJ99ZS","assignmentId":"3ZR9AIQJUCVSDFZCHGRK1VFN5D004N","hitId":"34KYK9TV2RUAD363EVFPUWVPB97SBP","url":"https://gershmanlab.com/experiments/alicia/teaching/experiment/?hitId=34KYK9TV2RUAD363EVFPUWVPB97SBP&workerId=A1WJGO38GJ99ZS&assignmentId=3ZR9AIQJUCVSDFZCHGRK1VFN5D004N&a=JARZ7&tp_a=JARZ7&b=3ZR9AIQJUCVSDFZCHGRK1VFN5D004N&tp_b=3ZR9AIQJUCVSDFZCHGRK1VFN5D004N&c=365717&tp_c=365717"},{"rt":1370,"stimulus":"\n                <p>Student's guess for coin weight: <b style=\"color:Tomato;\">0.88</b></p>\n                <p>You received a bonus of <b>$0</b>. Total bonus so far: <b>$0.30</b></b></p>\n                <p></p>\n                <p>Press any key to continue.</p>\n                ","response":" ","trial_type":"html-keyboard-response","trial_index":78,"time_elapsed":1928366,"internal_node_id":"0.0-62.0","params":{"nStudents":24,"maxFlips":30,"completionMinutes":45,"basePay":8,"maxBonus":9,"perTrialBonus":0.5,"perTrialBonusThreshold":0.05,"exampleCost":0.01},"classroomParams":{"A":{"a":1,"b":4},"B":{"a":4,"b":1},"C":{"a":2,"b":8},"D":{"a":8,"b":2}},"conditions":["nonSeqFull","nonSeqPartial","seqNoFeedback","seqFeedback"],"classroomPairings":[["A","B"],["C","D"]],"coinWeights":[0.2,0.5,0.8],"subjectId":"A1WJGO38GJ99ZS","assignmentId":"3ZR9AIQJUCVSDFZCHGRK1VFN5D004N","hitId":"34KYK9TV2RUAD363EVFPUWVPB97SBP","url":"https://gershmanlab.com/experiments/alicia/teaching/experiment/?hitId=34KYK9TV2RUAD363EVFPUWVPB97SBP&workerId=A1WJGO38GJ99ZS&assignmentId=3ZR9AIQJUCVSDFZCHGRK1VFN5D004N&a=JARZ7&tp_a=JARZ7&b=3ZR9AIQJUCVSDFZCHGRK1VFN5D004N&tp_b=3ZR9AIQJUCVSDFZCHGRK1VFN5D004N&c=365717&tp_c=365717"},{"rt":null,"stimulus":"<div style=\"font-size:60px;\">Next student</div>","response":null,"trial_type":"html-keyboard-response","trial_index":79,"time_elapsed":1930622,"internal_node_id":"0.0-63.0-0.0","params":{"nStudents":24,"maxFlips":30,"completionMinutes":45,"basePay":8,"maxBonus":9,"perTrialBonus":0.5,"perTrialBonusThreshold":0.05,"exampleCost":0.01},"classroomParams":{"A":{"a":1,"b":4},"B":{"a":4,"b":1},"C":{"a":2,"b":8},"D":{"a":8,"b":2}},"conditions":["nonSeqFull","nonSeqPartial","seqNoFeedback","seqFeedback"],"classroomPairings":[["A","B"],["C","D"]],"coinWeights":[0.2,0.5,0.8],"subjectId":"A1WJGO38GJ99ZS","assignmentId":"3ZR9AIQJUCVSDFZCHGRK1VFN5D004N","hitId":"34KYK9TV2RUAD363EVFPUWVPB97SBP","url":"https://gershmanlab.com/experiments/alicia/teaching/experiment/?hitId=34KYK9TV2RUAD363EVFPUWVPB97SBP&workerId=A1WJGO38GJ99ZS&assignmentId=3ZR9AIQJUCVSDFZCHGRK1VFN5D004N&a=JARZ7&tp_a=JARZ7&b=3ZR9AIQJUCVSDFZCHGRK1VFN5D004N&tp_b=3ZR9AIQJUCVSDFZCHGRK1VFN5D004N&c=365717&tp_c=365717"},{"rt":3386,"stimulus":"\n            <h4 style=\"color:Orange;\">Student 9</h4>\n            <h2>The weight of your coin is <b style=\"color:Tomato;\">0.5</b>.</h2>\n            <p>In this block, you will be giving <b>one</b> set of examples to Student 9.</p>\n                <p>You will receive feedback at the end of the block.</p>\n            <p></p>","response":0,"trial_type":"html-button-response","trial_index":80,"time_elapsed":1934011,"internal_node_id":"0.0-64.0","params":{"nStudents":24,"maxFlips":30,"completionMinutes":45,"basePay":8,"maxBonus":9,"perTrialBonus":0.5,"perTrialBonusThreshold":0.05,"exampleCost":0.01},"classroomParams":{"A":{"a":1,"b":4},"B":{"a":4,"b":1},"C":{"a":2,"b":8},"D":{"a":8,"b":2}},"conditions":["nonSeqFull","nonSeqPartial","seqNoFeedback","seqFeedback"],"classroomPairings":[["A","B"],["C","D"]],"coinWeights":[0.2,0.5,0.8],"subjectId":"A1WJGO38GJ99ZS","assignmentId":"3ZR9AIQJUCVSDFZCHGRK1VFN5D004N","hitId":"34KYK9TV2RUAD363EVFPUWVPB97SBP","url":"https://gershmanlab.com/experiments/alicia/teaching/experiment/?hitId=34KYK9TV2RUAD363EVFPUWVPB97SBP&workerId=A1WJGO38GJ99ZS&assignmentId=3ZR9AIQJUCVSDFZCHGRK1VFN5D004N&a=JARZ7&tp_a=JARZ7&b=3ZR9AIQJUCVSDFZCHGRK1VFN5D004N&tp_b=3ZR9AIQJUCVSDFZCHGRK1VFN5D004N&c=365717&tp_c=365717"},{"rt":6541,"response":{"heads":"5","tails":"5"},"type":"response","condition":"nonSeqPartial","trueTheta":0.5,"classrooms":["A","B"],"studentTrueClassroom":"A","exampleSet":"first","trial_type":"survey-html-form","trial_index":81,"time_elapsed":1940554,"internal_node_id":"0.0-65.0-0.0","params":{"nStudents":24,"maxFlips":30,"completionMinutes":45,"basePay":8,"maxBonus":9,"perTrialBonus":0.5,"perTrialBonusThreshold":0.05,"exampleCost":0.01},"classroomParams":{"A":{"a":1,"b":4},"B":{"a":4,"b":1},"C":{"a":2,"b":8},"D":{"a":8,"b":2}},"conditions":["nonSeqFull","nonSeqPartial","seqNoFeedback","seqFeedback"],"classroomPairings":[["A","B"],["C","D"]],"coinWeights":[0.2,0.5,0.8],"subjectId":"A1WJGO38GJ99ZS","assignmentId":"3ZR9AIQJUCVSDFZCHGRK1VFN5D004N","hitId":"34KYK9TV2RUAD363EVFPUWVPB97SBP","url":"https://gershmanlab.com/experiments/alicia/teaching/experiment/?hitId=34KYK9TV2RUAD363EVFPUWVPB97SBP&workerId=A1WJGO38GJ99ZS&assignmentId=3ZR9AIQJUCVSDFZCHGRK1VFN5D004N&a=JARZ7&tp_a=JARZ7&b=3ZR9AIQJUCVSDFZCHGRK1VFN5D004N&tp_b=3ZR9AIQJUCVSDFZCHGRK1VFN5D004N&c=365717&tp_c=365717","heads":5,"tails":5,"studentIndex":8,"studentTrueHypers":{"a":1,"b":4},"studentGuess":0.4,"delta":0.09999999999999998,"totalExamples":10,"bonus":0,"bonusSoFar":0.3},{"rt":null,"stimulus":"Sending examples to student... ","response":null,"trial_type":"html-keyboard-response","trial_index":82,"time_elapsed":1942313,"internal_node_id":"0.0-66.0","params":{"nStudents":24,"maxFlips":30,"completionMinutes":45,"basePay":8,"maxBonus":9,"perTrialBonus":0.5,"perTrialBonusThreshold":0.05,"exampleCost":0.01},"classroomParams":{"A":{"a":1,"b":4},"B":{"a":4,"b":1},"C":{"a":2,"b":8},"D":{"a":8,"b":2}},"conditions":["nonSeqFull","nonSeqPartial","seqNoFeedback","seqFeedback"],"classroomPairings":[["A","B"],["C","D"]],"coinWeights":[0.2,0.5,0.8],"subjectId":"A1WJGO38GJ99ZS","assignmentId":"3ZR9AIQJUCVSDFZCHGRK1VFN5D004N","hitId":"34KYK9TV2RUAD363EVFPUWVPB97SBP","url":"https://gershmanlab.com/experiments/alicia/teaching/experiment/?hitId=34KYK9TV2RUAD363EVFPUWVPB97SBP&workerId=A1WJGO38GJ99ZS&assignmentId=3ZR9AIQJUCVSDFZCHGRK1VFN5D004N&a=JARZ7&tp_a=JARZ7&b=3ZR9AIQJUCVSDFZCHGRK1VFN5D004N&tp_b=3ZR9AIQJUCVSDFZCHGRK1VFN5D004N&c=365717&tp_c=365717"},{"rt":null,"stimulus":"Examples sent to student! Waiting for student...","response":null,"trial_type":"html-keyboard-response","trial_index":83,"time_elapsed":1948321,"internal_node_id":"0.0-67.0","params":{"nStudents":24,"maxFlips":30,"completionMinutes":45,"basePay":8,"maxBonus":9,"perTrialBonus":0.5,"perTrialBonusThreshold":0.05,"exampleCost":0.01},"classroomParams":{"A":{"a":1,"b":4},"B":{"a":4,"b":1},"C":{"a":2,"b":8},"D":{"a":8,"b":2}},"conditions":["nonSeqFull","nonSeqPartial","seqNoFeedback","seqFeedback"],"classroomPairings":[["A","B"],["C","D"]],"coinWeights":[0.2,0.5,0.8],"subjectId":"A1WJGO38GJ99ZS","assignmentId":"3ZR9AIQJUCVSDFZCHGRK1VFN5D004N","hitId":"34KYK9TV2RUAD363EVFPUWVPB97SBP","url":"https://gershmanlab.com/experiments/alicia/teaching/experiment/?hitId=34KYK9TV2RUAD363EVFPUWVPB97SBP&workerId=A1WJGO38GJ99ZS&assignmentId=3ZR9AIQJUCVSDFZCHGRK1VFN5D004N&a=JARZ7&t