[{"rt":null,"stimulus":"Welcome to the experiment. Press any key to begin.","response":null,"trial_type":"html-keyboard-response","trial_index":0,"time_elapsed":30034,"internal_node_id":"0.0-0.0","params":{"nStudents":24,"maxFlips":30,"completionMinutes":45,"basePay":8,"maxBonus":9,"perTrialBonus":0.5,"perTrialBonusThreshold":0.05,"exampleCost":0.01},"classroomParams":{"A":{"a":1,"b":4},"B":{"a":4,"b":1},"C":{"a":2,"b":8},"D":{"a":8,"b":2}},"conditions":["nonSeqFull","nonSeqPartial","seqNoFeedback","seqFeedback"],"classroomPairings":[["A","B"],["C","D"]],"coinWeights":[0.2,0.5,0.8],"subjectId":"A255A9FFZD8PQW","assignmentId":"3ZSY5X72NYXKH2TTUDP8ZPMFVVKRO9","hitId":"32TZXEA1OL6QYKM0MXQIQH2ABHN14I","url":"https://gershmanlab.com/experiments/alicia/teaching/experiment/?hitId=32TZXEA1OL6QYKM0MXQIQH2ABHN14I&workerId=A255A9FFZD8PQW&assignmentId=3ZSY5X72NYXKH2TTUDP8ZPMFVVKRO9&a=25SZ9&tp_a=25SZ9&b=3ZSY5X72NYXKH2TTUDP8ZPMFVVKRO9&tp_b=3ZSY5X72NYXKH2TTUDP8ZPMFVVKRO9&c=365799&tp_c=365799"},{"rt":149258,"stimulus":"\n        <h3>Please read this consent agreement carefully before deciding whether to participate in this experiment.</h3>\n        <p><b>Purpose of the research:</b> To examine how people teach effectively.</p>\n        <p><b>What you will do in this research:</b> You will teach students the weights of different coins.</p>\n        <p><b>Time required:</b> This experiment will take 45 minutes to complete.</p>\n        <p><b>Risks:</b> There are no anticipated risks associated with participating in this study.             The effects of participating should be comparable to those you would experience from viewing a computer monitor             and using a mouse and keyboard for the duration of the experiment.</p>\n        <p><b>Benefits:</b> The study provides important information about the nature of teaching.</p>\n        <p><b>Compensation:</b> You will receive <b>$8</b> for completing the experiment and a performance bonus of up to <b>$9</b>.</p>\n        <p><b>Confidentiality:</b> Your participation in this study will remain confidential.             No personally identifiable information will be associated with your data.             Your de-identified data may be shared with other researchers and used in future projects.</p>\n        <p><b>Participation and withdrawal:</b> Your participation in this study is completely voluntary and             you may refuse to participate or you may choose to withdraw at any time without penalty or loss of\n            benefits to which you are otherwise entitled.</p>\n        <p><b>How to contact the researcher:</b> If you have questions or concerns about your participation            or payment, or want to request a summary of research findings, please contact\n            Alicia Chen, aliciachen@college.harvard.edu.</p>\n        <p><b>Whom to contact about your rights in this research:</b> For questions, concerns, suggestions,             or complaints that have not been or cannot be addressed by the researcher, or to report             research-related harm, please contact the Committee on the Use of Human Subjects in Research at Harvard University,             1414 Massachusetts Avenue, Second Floor, Cambridge, MA 02138. Phone: 617-496-2847. Email: cuhs@fas.harvard.edu.</p>\n        ","response":0,"trial_type":"html-button-response","trial_index":1,"time_elapsed":179295,"internal_node_id":"0.0-1.0","params":{"nStudents":24,"maxFlips":30,"completionMinutes":45,"basePay":8,"maxBonus":9,"perTrialBonus":0.5,"perTrialBonusThreshold":0.05,"exampleCost":0.01},"classroomParams":{"A":{"a":1,"b":4},"B":{"a":4,"b":1},"C":{"a":2,"b":8},"D":{"a":8,"b":2}},"conditions":["nonSeqFull","nonSeqPartial","seqNoFeedback","seqFeedback"],"classroomPairings":[["A","B"],["C","D"]],"coinWeights":[0.2,0.5,0.8],"subjectId":"A255A9FFZD8PQW","assignmentId":"3ZSY5X72NYXKH2TTUDP8ZPMFVVKRO9","hitId":"32TZXEA1OL6QYKM0MXQIQH2ABHN14I","url":"https://gershmanlab.com/experiments/alicia/teaching/experiment/?hitId=32TZXEA1OL6QYKM0MXQIQH2ABHN14I&workerId=A255A9FFZD8PQW&assignmentId=3ZSY5X72NYXKH2TTUDP8ZPMFVVKRO9&a=25SZ9&tp_a=25SZ9&b=3ZSY5X72NYXKH2TTUDP8ZPMFVVKRO9&tp_b=3ZSY5X72NYXKH2TTUDP8ZPMFVVKRO9&c=365799&tp_c=365799"},{"view_history":[{"page_index":0,"viewing_time":5623},{"page_index":1,"viewing_time":2286},{"page_index":2,"viewing_time":18304},{"page_index":3,"viewing_time":32592},{"page_index":4,"viewing_time":3956},{"page_index":5,"viewing_time":13188},{"page_index":6,"viewing_time":21482}],"rt":97431,"trial_type":"instructions","trial_index":2,"time_elapsed":276727,"internal_node_id":"0.0-2.0-0.0","params":{"nStudents":24,"maxFlips":30,"completionMinutes":45,"basePay":8,"maxBonus":9,"perTrialBonus":0.5,"perTrialBonusThreshold":0.05,"exampleCost":0.01},"classroomParams":{"A":{"a":1,"b":4},"B":{"a":4,"b":1},"C":{"a":2,"b":8},"D":{"a":8,"b":2}},"conditions":["nonSeqFull","nonSeqPartial","seqNoFeedback","seqFeedback"],"classroomPairings":[["A","B"],["C","D"]],"coinWeights":[0.2,0.5,0.8],"subjectId":"A255A9FFZD8PQW","assignmentId":"3ZSY5X72NYXKH2TTUDP8ZPMFVVKRO9","hitId":"32TZXEA1OL6QYKM0MXQIQH2ABHN14I","url":"https://gershmanlab.com/experiments/alicia/teaching/experiment/?hitId=32TZXEA1OL6QYKM0MXQIQH2ABHN14I&workerId=A255A9FFZD8PQW&assignmentId=3ZSY5X72NYXKH2TTUDP8ZPMFVVKRO9&a=25SZ9&tp_a=25SZ9&b=3ZSY5X72NYXKH2TTUDP8ZPMFVVKRO9&tp_b=3ZSY5X72NYXKH2TTUDP8ZPMFVVKRO9&c=365799&tp_c=365799"},{"rt":44259,"response":{"Q0":"Students in different classrooms have seen a different proportion of fair and unfair coins before seeing the examples you select for them.","Q1":"By <b>considering the student's classroom information</b> so that I can teach efficiently and accurately/helpfully at the same time (because each example I give to the student costs money!).","Q2":"The coin lands heads 90% of the time.","Q3":"No, I will teach a <b>new</b> student each time.","Q4":"The students are also on the same alien planet as you, where coins can be unfair.","Q5":"Based on the student's second (and final) guess."},"question_order":[4,5,2,0,1,3],"trial_type":"survey-multi-choice","trial_index":3,"time_elapsed":320988,"internal_node_id":"0.0-2.0-1.0","params":{"nStudents":24,"maxFlips":30,"completionMinutes":45,"basePay":8,"maxBonus":9,"perTrialBonus":0.5,"perTrialBonusThreshold":0.05,"exampleCost":0.01},"classroomParams":{"A":{"a":1,"b":4},"B":{"a":4,"b":1},"C":{"a":2,"b":8},"D":{"a":8,"b":2}},"conditions":["nonSeqFull","nonSeqPartial","seqNoFeedback","seqFeedback"],"classroomPairings":[["A","B"],["C","D"]],"coinWeights":[0.2,0.5,0.8],"subjectId":"A255A9FFZD8PQW","assignmentId":"3ZSY5X72NYXKH2TTUDP8ZPMFVVKRO9","hitId":"32TZXEA1OL6QYKM0MXQIQH2ABHN14I","url":"https://gershmanlab.com/experiments/alicia/teaching/experiment/?hitId=32TZXEA1OL6QYKM0MXQIQH2ABHN14I&workerId=A255A9FFZD8PQW&assignmentId=3ZSY5X72NYXKH2TTUDP8ZPMFVVKRO9&a=25SZ9&tp_a=25SZ9&b=3ZSY5X72NYXKH2TTUDP8ZPMFVVKRO9&tp_b=3ZSY5X72NYXKH2TTUDP8ZPMFVVKRO9&c=365799&tp_c=365799","pass":false},{"rt":2996,"stimulus":"Oops, you have missed question(s) on the comprehension check! We'll show you the instructions again.","response":0,"trial_type":"html-button-response","trial_index":4,"time_elapsed":323987,"internal_node_id":"0.0-2.0-2.0-0.0","params":{"nStudents":24,"maxFlips":30,"completionMinutes":45,"basePay":8,"maxBonus":9,"perTrialBonus":0.5,"perTrialBonusThreshold":0.05,"exampleCost":0.01},"classroomParams":{"A":{"a":1,"b":4},"B":{"a":4,"b":1},"C":{"a":2,"b":8},"D":{"a":8,"b":2}},"conditions":["nonSeqFull","nonSeqPartial","seqNoFeedback","seqFeedback"],"classroomPairings":[["A","B"],["C","D"]],"coinWeights":[0.2,0.5,0.8],"subjectId":"A255A9FFZD8PQW","assignmentId":"3ZSY5X72NYXKH2TTUDP8ZPMFVVKRO9","hitId":"32TZXEA1OL6QYKM0MXQIQH2ABHN14I","url":"https://gershmanlab.com/experiments/alicia/teaching/experiment/?hitId=32TZXEA1OL6QYKM0MXQIQH2ABHN14I&workerId=A255A9FFZD8PQW&assignmentId=3ZSY5X72NYXKH2TTUDP8ZPMFVVKRO9&a=25SZ9&tp_a=25SZ9&b=3ZSY5X72NYXKH2TTUDP8ZPMFVVKRO9&tp_b=3ZSY5X72NYXKH2TTUDP8ZPMFVVKRO9&c=365799&tp_c=365799"},{"view_history":[{"page_index":0,"viewing_time":2423},{"page_index":1,"viewing_time":812},{"page_index":2,"viewing_time":6992},{"page_index":3,"viewing_time":9974},{"page_index":4,"viewing_time":12298},{"page_index":5,"viewing_time":9620},{"page_index":6,"viewing_time":16732}],"rt":58852,"trial_type":"instructions","trial_index":5,"time_elapsed":382839,"internal_node_id":"0.0-2.1-0.1","params":{"nStudents":24,"maxFlips":30,"completionMinutes":45,"basePay":8,"maxBonus":9,"perTrialBonus":0.5,"perTrialBonusThreshold":0.05,"exampleCost":0.01},"classroomParams":{"A":{"a":1,"b":4},"B":{"a":4,"b":1},"C":{"a":2,"b":8},"D":{"a":8,"b":2}},"conditions":["nonSeqFull","nonSeqPartial","seqNoFeedback","seqFeedback"],"classroomPairings":[["A","B"],["C","D"]],"coinWeights":[0.2,0.5,0.8],"subjectId":"A255A9FFZD8PQW","assignmentId":"3ZSY5X72NYXKH2TTUDP8ZPMFVVKRO9","hitId":"32TZXEA1OL6QYKM0MXQIQH2ABHN14I","url":"https://gershmanlab.com/experiments/alicia/teaching/experiment/?hitId=32TZXEA1OL6QYKM0MXQIQH2ABHN14I&workerId=A255A9FFZD8PQW&assignmentId=3ZSY5X72NYXKH2TTUDP8ZPMFVVKRO9&a=25SZ9&tp_a=25SZ9&b=3ZSY5X72NYXKH2TTUDP8ZPMFVVKRO9&tp_b=3ZSY5X72NYXKH2TTUDP8ZPMFVVKRO9&c=365799&tp_c=365799"},{"rt":37605,"response":{"Q0":"Students in different classrooms have seen a different proportion of fair and unfair coins before seeing the examples you select for them.","Q1":"By <b>considering the student's classroom information</b> so that I can teach efficiently and accurately/helpfully at the same time (because each example I give to the student costs money!).","Q2":"The coin lands heads 90% of the time.","Q3":"Yes, I might encounter the same student twice.","Q4":"The students are also on the same alien planet as you, where coins can be unfair.","Q5":"Based on the student's second (and final) guess."},"question_order":[1,5,3,4,0,2],"trial_type":"survey-multi-choice","trial_index":6,"time_elapsed":420446,"internal_node_id":"0.0-2.1-1.1","params":{"nStudents":24,"maxFlips":30,"completionMinutes":45,"basePay":8,"maxBonus":9,"perTrialBonus":0.5,"perTrialBonusThreshold":0.05,"exampleCost":0.01},"classroomParams":{"A":{"a":1,"b":4},"B":{"a":4,"b":1},"C":{"a":2,"b":8},"D":{"a":8,"b":2}},"conditions":["nonSeqFull","nonSeqPartial","seqNoFeedback","seqFeedback"],"classroomPairings":[["A","B"],["C","D"]],"coinWeights":[0.2,0.5,0.8],"subjectId":"A255A9FFZD8PQW","assignmentId":"3ZSY5X72NYXKH2TTUDP8ZPMFVVKRO9","hitId":"32TZXEA1OL6QYKM0MXQIQH2ABHN14I","url":"https://gershmanlab.com/experiments/alicia/teaching/experiment/?hitId=32TZXEA1OL6QYKM0MXQIQH2ABHN14I&workerId=A255A9FFZD8PQW&assignmentId=3ZSY5X72NYXKH2TTUDP8ZPMFVVKRO9&a=25SZ9&tp_a=25SZ9&b=3ZSY5X72NYXKH2TTUDP8ZPMFVVKRO9&tp_b=3ZSY5X72NYXKH2TTUDP8ZPMFVVKRO9&c=365799&tp_c=365799","pass":false},{"rt":1902,"stimulus":"Oops, you have missed question(s) on the comprehension check! We'll show you the instructions again.","response":0,"trial_type":"html-button-response","trial_index":7,"time_elapsed":422351,"internal_node_id":"0.0-2.1-2.1-0.1","params":{"nStudents":24,"maxFlips":30,"completionMinutes":45,"basePay":8,"maxBonus":9,"perTrialBonus":0.5,"perTrialBonusThreshold":0.05,"exampleCost":0.01},"classroomParams":{"A":{"a":1,"b":4},"B":{"a":4,"b":1},"C":{"a":2,"b":8},"D":{"a":8,"b":2}},"conditions":["nonSeqFull","nonSeqPartial","seqNoFeedback","seqFeedback"],"classroomPairings":[["A","B"],["C","D"]],"coinWeights":[0.2,0.5,0.8],"subjectId":"A255A9FFZD8PQW","assignmentId":"3ZSY5X72NYXKH2TTUDP8ZPMFVVKRO9","hitId":"32TZXEA1OL6QYKM0MXQIQH2ABHN14I","url":"https://gershmanlab.com/experiments/alicia/teaching/experiment/?hitId=32TZXEA1OL6QYKM0MXQIQH2ABHN14I&workerId=A255A9FFZD8PQW&assignmentId=3ZSY5X72NYXKH2TTUDP8ZPMFVVKRO9&a=25SZ9&tp_a=25SZ9&b=3ZSY5X72NYXKH2TTUDP8ZPMFVVKRO9&tp_b=3ZSY5X72NYXKH2TTUDP8ZPMFVVKRO9&c=365799&tp_c=365799"},{"view_history":[{"page_index":0,"viewing_time":1247},{"page_index":1,"viewing_time":722},{"page_index":2,"viewing_time":1578},{"page_index":3,"viewing_time":730},{"page_index":4,"viewing_time":1304},{"page_index":5,"viewing_time":1236},{"page_index":6,"viewing_time":6004},{"page_index":5,"viewing_time":8864},{"page_index":6,"viewing_time":2154}],"rt":23840,"trial_type":"instructions","trial_index":8,"time_elapsed":446191,"internal_node_id":"0.0-2.2-0.2","params":{"nStudents":24,"maxFlips":30,"completionMinutes":45,"basePay":8,"maxBonus":9,"perTrialBonus":0.5,"perTrialBonusThreshold":0.05,"exampleCost":0.01},"classroomParams":{"A":{"a":1,"b":4},"B":{"a":4,"b":1},"C":{"a":2,"b":8},"D":{"a":8,"b":2}},"conditions":["nonSeqFull","nonSeqPartial","seqNoFeedback","seqFeedback"],"classroomPairings":[["A","B"],["C","D"]],"coinWeights":[0.2,0.5,0.8],"subjectId":"A255A9FFZD8PQW","assignmentId":"3ZSY5X72NYXKH2TTUDP8ZPMFVVKRO9","hitId":"32TZXEA1OL6QYKM0MXQIQH2ABHN14I","url":"https://gershmanlab.com/experiments/alicia/teaching/experiment/?hitId=32TZXEA1OL6QYKM0MXQIQH2ABHN14I&workerId=A255A9FFZD8PQW&assignmentId=3ZSY5X72NYXKH2TTUDP8ZPMFVVKRO9&a=25SZ9&tp_a=25SZ9&b=3ZSY5X72NYXKH2TTUDP8ZPMFVVKRO9&tp_b=3ZSY5X72NYXKH2TTUDP8ZPMFVVKRO9&c=365799&tp_c=365799"},{"rt":20383,"response":{"Q0":"Students in different classrooms will have seen a different number of heads and tails before seeing the examples you select for them.","Q1":"By <b>considering the student's classroom information</b> so that I can teach efficiently and accurately/helpfully at the same time (because each example I give to the student costs money!).","Q2":"The coin lands heads 90% of the time.","Q3":"Yes, I might encounter the same student twice.","Q4":"The students are also on the same alien planet as you, where coins can be unfair.","Q5":"Based on the student's second (and final) guess."},"question_order":[5,2,4,0,3,1],"trial_type":"survey-multi-choice","trial_index":9,"time_elapsed":466576,"internal_node_id":"0.0-2.2-1.2","params":{"nStudents":24,"maxFlips":30,"completionMinutes":45,"basePay":8,"maxBonus":9,"perTrialBonus":0.5,"perTrialBonusThreshold":0.05,"exampleCost":0.01},"classroomParams":{"A":{"a":1,"b":4},"B":{"a":4,"b":1},"C":{"a":2,"b":8},"D":{"a":8,"b":2}},"conditions":["nonSeqFull","nonSeqPartial","seqNoFeedback","seqFeedback"],"classroomPairings":[["A","B"],["C","D"]],"coinWeights":[0.2,0.5,0.8],"subjectId":"A255A9FFZD8PQW","assignmentId":"3ZSY5X72NYXKH2TTUDP8ZPMFVVKRO9","hitId":"32TZXEA1OL6QYKM0MXQIQH2ABHN14I","url":"https://gershmanlab.com/experiments/alicia/teaching/experiment/?hitId=32TZXEA1OL6QYKM0MXQIQH2ABHN14I&workerId=A255A9FFZD8PQW&assignmentId=3ZSY5X72NYXKH2TTUDP8ZPMFVVKRO9&a=25SZ9&tp_a=25SZ9&b=3ZSY5X72NYXKH2TTUDP8ZPMFVVKRO9&tp_b=3ZSY5X72NYXKH2TTUDP8ZPMFVVKRO9&c=365799&tp_c=365799","pass":false},{"rt":1482,"stimulus":"Oops, you have missed question(s) on the comprehension check! We'll show you the instructions again.","response":0,"trial_type":"html-button-response","trial_index":10,"time_elapsed":468062,"internal_node_id":"0.0-2.2-2.2-0.2","params":{"nStudents":24,"maxFlips":30,"completionMinutes":45,"basePay":8,"maxBonus":9,"perTrialBonus":0.5,"perTrialBonusThreshold":0.05,"exampleCost":0.01},"classroomParams":{"A":{"a":1,"b":4},"B":{"a":4,"b":1},"C":{"a":2,"b":8},"D":{"a":8,"b":2}},"conditions":["nonSeqFull","nonSeqPartial","seqNoFeedback","seqFeedback"],"classroomPairings":[["A","B"],["C","D"]],"coinWeights":[0.2,0.5,0.8],"subjectId":"A255A9FFZD8PQW","assignmentId":"3ZSY5X72NYXKH2TTUDP8ZPMFVVKRO9","hitId":"32TZXEA1OL6QYKM0MXQIQH2ABHN14I","url":"https://gershmanlab.com/experiments/alicia/teaching/experiment/?hitId=32TZXEA1OL6QYKM0MXQIQH2ABHN14I&workerId=A255A9FFZD8PQW&assignmentId=3ZSY5X72NYXKH2TTUDP8ZPMFVVKRO9&a=25SZ9&tp_a=25SZ9&b=3ZSY5X72NYXKH2TTUDP8ZPMFVVKRO9&tp_b=3ZSY5X72NYXKH2TTUDP8ZPMFVVKRO9&c=365799&tp_c=365799"},{"view_history":[{"page_index":0,"viewing_time":915},{"page_index":1,"viewing_time":654},{"page_index":2,"viewing_time":954},{"page_index":3,"viewing_time":1100},{"page_index":4,"viewing_time":986},{"page_index":5,"viewing_time":1392},{"page_index":6,"viewing_time":1124}],"rt":7126,"trial_type":"instructions","trial_index":11,"time_elapsed":475188,"internal_node_id":"0.0-2.3-0.3","params":{"nStudents":24,"maxFlips":30,"completionMinutes":45,"basePay":8,"maxBonus":9,"perTrialBonus":0.5,"perTrialBonusThreshold":0.05,"exampleCost":0.01},"classroomParams":{"A":{"a":1,"b":4},"B":{"a":4,"b":1},"C":{"a":2,"b":8},"D":{"a":8,"b":2}},"conditions":["nonSeqFull","nonSeqPartial","seqNoFeedback","seqFeedback"],"classroomPairings":[["A","B"],["C","D"]],"coinWeights":[0.2,0.5,0.8],"subjectId":"A255A9FFZD8PQW","assignmentId":"3ZSY5X72NYXKH2TTUDP8ZPMFVVKRO9","hitId":"32TZXEA1OL6QYKM0MXQIQH2ABHN14I","url":"https://gershmanlab.com/experiments/alicia/teaching/experiment/?hitId=32TZXEA1OL6QYKM0MXQIQH2ABHN14I&workerId=A255A9FFZD8PQW&assignmentId=3ZSY5X72NYXKH2TTUDP8ZPMFVVKRO9&a=25SZ9&tp_a=25SZ9&b=3ZSY5X72NYXKH2TTUDP8ZPMFVVKRO9&tp_b=3ZSY5X72NYXKH2TTUDP8ZPMFVVKRO9&c=365799&tp_c=365799"},{"rt":11965,"response":{"Q0":"Students in different classrooms have seen a different proportion of fair and unfair coins before seeing the examples you select for them.","Q1":"By <b>considering the student's classroom information</b> so that I can teach efficiently and accurately/helpfully at the same time (because each example I give to the student costs money!).","Q2":"The coin lands heads 90% of the time.","Q3":"Yes, I might encounter the same student twice.","Q4":"The students are also on the same alien planet as you, where coins can be unfair.","Q5":"Based on the student's second (and final) guess."},"question_order":[4,2,1,5,3,0],"trial_type":"survey-multi-choice","trial_index":12,"time_elapsed":487154,"internal_node_id":"0.0-2.3-1.3","params":{"nStudents":24,"maxFlips":30,"completionMinutes":45,"basePay":8,"maxBonus":9,"perTrialBonus":0.5,"perTrialBonusThreshold":0.05,"exampleCost":0.01},"classroomParams":{"A":{"a":1,"b":4},"B":{"a":4,"b":1},"C":{"a":2,"b":8},"D":{"a":8,"b":2}},"conditions":["nonSeqFull","nonSeqPartial","seqNoFeedback","seqFeedback"],"classroomPairings":[["A","B"],["C","D"]],"coinWeights":[0.2,0.5,0.8],"subjectId":"A255A9FFZD8PQW","assignmentId":"3ZSY5X72NYXKH2TTUDP8ZPMFVVKRO9","hitId":"32TZXEA1OL6QYKM0MXQIQH2ABHN14I","url":"https://gershmanlab.com/experiments/alicia/teaching/experiment/?hitId=32TZXEA1OL6QYKM0MXQIQH2ABHN14I&workerId=A255A9FFZD8PQW&assignmentId=3ZSY5X72NYXKH2TTUDP8ZPMFVVKRO9&a=25SZ9&tp_a=25SZ9&b=3ZSY5X72NYXKH2TTUDP8ZPMFVVKRO9&tp_b=3ZSY5X72NYXKH2TTUDP8ZPMFVVKRO9&c=365799&tp_c=365799","pass":false},{"rt":1549,"stimulus":"Oops, you have missed question(s) on the comprehension check! We'll show you the instructions again.","response":0,"trial_type":"html-button-response","trial_index":13,"time_elapsed":488706,"internal_node_id":"0.0-2.3-2.3-0.3","params":{"nStudents":24,"maxFlips":30,"completionMinutes":45,"basePay":8,"maxBonus":9,"perTrialBonus":0.5,"perTrialBonusThreshold":0.05,"exampleCost":0.01},"classroomParams":{"A":{"a":1,"b":4},"B":{"a":4,"b":1},"C":{"a":2,"b":8},"D":{"a":8,"b":2}},"conditions":["nonSeqFull","nonSeqPartial","seqNoFeedback","seqFeedback"],"classroomPairings":[["A","B"],["C","D"]],"coinWeights":[0.2,0.5,0.8],"subjectId":"A255A9FFZD8PQW","assignmentId":"3ZSY5X72NYXKH2TTUDP8ZPMFVVKRO9","hitId":"32TZXEA1OL6QYKM0MXQIQH2ABHN14I","url":"https://gershmanlab.com/experiments/alicia/teaching/experiment/?hitId=32TZXEA1OL6QYKM0MXQIQH2ABHN14I&workerId=A255A9FFZD8PQW&assignmentId=3ZSY5X72NYXKH2TTUDP8ZPMFVVKRO9&a=25SZ9&tp_a=25SZ9&b=3ZSY5X72NYXKH2TTUDP8ZPMFVVKRO9&tp_b=3ZSY5X72NYXKH2TTUDP8ZPMFVVKRO9&c=365799&tp_c=365799"},{"view_history":[{"page_index":0,"viewing_time":1146},{"page_index":1,"viewing_time":462},{"page_index":2,"viewing_time":870},{"page_index":3,"viewing_time":492},{"page_index":4,"viewing_time":1024},{"page_index":5,"viewing_time":916},{"page_index":6,"viewing_time":1208}],"rt":6118,"trial_type":"instructions","trial_index":14,"time_elapsed":494825,"internal_node_id":"0.0-2.4-0.4","params":{"nStudents":24,"maxFlips":30,"completionMinutes":45,"basePay":8,"maxBonus":9,"perTrialBonus":0.5,"perTrialBonusThreshold":0.05,"exampleCost":0.01},"classroomParams":{"A":{"a":1,"b":4},"B":{"a":4,"b":1},"C":{"a":2,"b":8},"D":{"a":8,"b":2}},"conditions":["nonSeqFull","nonSeqPartial","seqNoFeedback","seqFeedback"],"classroomPairings":[["A","B"],["C","D"]],"coinWeights":[0.2,0.5,0.8],"subjectId":"A255A9FFZD8PQW","assignmentId":"3ZSY5X72NYXKH2TTUDP8ZPMFVVKRO9","hitId":"32TZXEA1OL6QYKM0MXQIQH2ABHN14I","url":"https://gershmanlab.com/experiments/alicia/teaching/experiment/?hitId=32TZXEA1OL6QYKM0MXQIQH2ABHN14I&workerId=A255A9FFZD8PQW&assignmentId=3ZSY5X72NYXKH2TTUDP8ZPMFVVKRO9&a=25SZ9&tp_a=25SZ9&b=3ZSY5X72NYXKH2TTUDP8ZPMFVVKRO9&tp_b=3ZSY5X72NYXKH2TTUDP8ZPMFVVKRO9&c=365799&tp_c=365799"},{"rt":18821,"response":{"Q0":"Students in different classrooms have seen a different proportion of fair and unfair coins before seeing the examples you select for them.","Q1":"By <b>considering the student's classroom information</b> so that I can teach efficiently and accurately/helpfully at the same time (because each example I give to the student costs money!).","Q2":"The coin lands heads 90% of the time.","Q3":"No, I will teach a <b>new</b> student each time.","Q4":"The students are also on the same alien planet as you, where coins can be unfair.","Q5":"Based on the student's second (and final) guess."},"question_order":[1,5,3,2,0,4],"trial_type":"survey-multi-choice","trial_index":15,"time_elapsed":513647,"internal_node_id":"0.0-2.4-1.4","params":{"nStudents":24,"maxFlips":30,"completionMinutes":45,"basePay":8,"maxBonus":9,"perTrialBonus":0.5,"perTrialBonusThreshold":0.05,"exampleCost":0.01},"classroomParams":{"A":{"a":1,"b":4},"B":{"a":4,"b":1},"C":{"a":2,"b":8},"D":{"a":8,"b":2}},"conditions":["nonSeqFull","nonSeqPartial","seqNoFeedback","seqFeedback"],"classroomPairings":[["A","B"],["C","D"]],"coinWeights":[0.2,0.5,0.8],"subjectId":"A255A9FFZD8PQW","assignmentId":"3ZSY5X72NYXKH2TTUDP8ZPMFVVKRO9","hitId":"32TZXEA1OL6QYKM0MXQIQH2ABHN14I","url":"https://gershmanlab.com/experiments/alicia/teaching/experiment/?hitId=32TZXEA1OL6QYKM0MXQIQH2ABHN14I&workerId=A255A9FFZD8PQW&assignmentId=3ZSY5X72NYXKH2TTUDP8ZPMFVVKRO9&a=25SZ9&tp_a=25SZ9&b=3ZSY5X72NYXKH2TTUDP8ZPMFVVKRO9&tp_b=3ZSY5X72NYXKH2TTUDP8ZPMFVVKRO9&c=365799&tp_c=365799","pass":false},{"rt":1388,"stimulus":"Oops, you have missed question(s) on the comprehension check! We'll show you the instructions again.","response":0,"trial_type":"html-button-response","trial_index":16,"time_elapsed":515038,"internal_node_id":"0.0-2.4-2.4-0.4","params":{"nStudents":24,"maxFlips":30,"completionMinutes":45,"basePay":8,"maxBonus":9,"perTrialBonus":0.5,"perTrialBonusThreshold":0.05,"exampleCost":0.01},"classroomParams":{"A":{"a":1,"b":4},"B":{"a":4,"b":1},"C":{"a":2,"b":8},"D":{"a":8,"b":2}},"conditions":["nonSeqFull","nonSeqPartial","seqNoFeedback","seqFeedback"],"classroomPairings":[["A","B"],["C","D"]],"coinWeights":[0.2,0.5,0.8],"subjectId":"A255A9FFZD8PQW","assignmentId":"3ZSY5X72NYXKH2TTUDP8ZPMFVVKRO9","hitId":"32TZXEA1OL6QYKM0MXQIQH2ABHN14I","url":"https://gershmanlab.com/experiments/alicia/teaching/experiment/?hitId=32TZXEA1OL6QYKM0MXQIQH2ABHN14I&workerId=A255A9FFZD8PQW&assignmentId=3ZSY5X72NYXKH2TTUDP8ZPMFVVKRO9&a=25SZ9&tp_a=25SZ9&b=3ZSY5X72NYXKH2TTUDP8ZPMFVVKRO9&tp_b=3ZSY5X72NYXKH2TTUDP8ZPMFVVKRO9&c=365799&tp_c=365799"},{"view_history":[{"page_index":0,"viewing_time":2047},{"page_index":1,"viewing_time":1038},{"page_index":2,"viewing_time":7142},{"page_index":3,"viewing_time":9088},{"page_index":4,"viewing_time":3826},{"page_index":5,"viewing_time":7788},{"page_index":6,"viewing_time":1670}],"rt":32599,"trial_type":"instructions","trial_index":17,"time_elapsed":547639,"internal_node_id":"0.0-2.5-0.5","params":{"nStudents":24,"maxFlips":30,"completionMinutes":45,"basePay":8,"maxBonus":9,"perTrialBonus":0.5,"perTrialBonusThreshold":0.05,"exampleCost":0.01},"classroomParams":{"A":{"a":1,"b":4},"B":{"a":4,"b":1},"C":{"a":2,"b":8},"D":{"a":8,"b":2}},"conditions":["nonSeqFull","nonSeqPartial","seqNoFeedback","seqFeedback"],"classroomPairings":[["A","B"],["C","D"]],"coinWeights":[0.2,0.5,0.8],"subjectId":"A255A9FFZD8PQW","assignmentId":"3ZSY5X72NYXKH2TTUDP8ZPMFVVKRO9","hitId":"32TZXEA1OL6QYKM0MXQIQH2ABHN14I","url":"https://gershmanlab.com/experiments/alicia/teaching/experiment/?hitId=32TZXEA1OL6QYKM0MXQIQH2ABHN14I&workerId=A255A9FFZD8PQW&assignmentId=3ZSY5X72NYXKH2TTUDP8ZPMFVVKRO9&a=25SZ9&tp_a=25SZ9&b=3ZSY5X72NYXKH2TTUDP8ZPMFVVKRO9&tp_b=3ZSY5X72NYXKH2TTUDP8ZPMFVVKRO9&c=365799&tp_c=365799"},{"rt":14897,"response":{"Q0":"Students in different classrooms will have seen a different number of heads and tails before seeing the examples you select for them.","Q1":"By <b>considering the student's classroom information</b> so that I can teach efficiently and accurately/helpfully at the same time (because each example I give to the student costs money!).","Q2":"The coin lands heads 90% of the time.","Q3":"No, I will teach a <b>new</b> student each time.","Q4":"The students are also on the same alien planet as you, where coins can be unfair.","Q5":"Based on the student's second (and final) guess."},"question_order":[5,2,4,0,3,1],"trial_type":"survey-multi-choice","trial_index":18,"time_elapsed":562537,"internal_node_id":"0.0-2.5-1.5","params":{"nStudents":24,"maxFlips":30,"completionMinutes":45,"basePay":8,"maxBonus":9,"perTrialBonus":0.5,"perTrialBonusThreshold":0.05,"exampleCost":0.01},"classroomParams":{"A":{"a":1,"b":4},"B":{"a":4,"b":1},"C":{"a":2,"b":8},"D":{"a":8,"b":2}},"conditions":["nonSeqFull","nonSeqPartial","seqNoFeedback","seqFeedback"],"classroomPairings":[["A","B"],["C","D"]],"coinWeights":[0.2,0.5,0.8],"subjectId":"A255A9FFZD8PQW","assignmentId":"3ZSY5X72NYXKH2TTUDP8ZPMFVVKRO9","hitId":"32TZXEA1OL6QYKM0MXQIQH2ABHN14I","url":"https://gershmanlab.com/experiments/alicia/teaching/experiment/?hitId=32TZXEA1OL6QYKM0MXQIQH2ABHN14I&workerId=A255A9FFZD8PQW&assignmentId=3ZSY5X72NYXKH2TTUDP8ZPMFVVKRO9&a=25SZ9&tp_a=25SZ9&b=3ZSY5X72NYXKH2TTUDP8ZPMFVVKRO9&tp_b=3ZSY5X72NYXKH2TTUDP8ZPMFVVKRO9&c=365799&tp_c=365799","pass":true},{"rt":null,"stimulus":"<div style=\"font-size:30px;\">Congrats on passing the comprehension quiz! The experiment will begin in a few seconds.</div>","response":null,"trial_type":"html-keyboard-response","trial_index":19,"time_elapsed":565554,"internal_node_id":"0.0-3.0","params":{"nStudents":24,"maxFlips":30,"completionMinutes":45,"basePay":8,"maxBonus":9,"perTrialBonus":0.5,"perTrialBonusThreshold":0.05,"exampleCost":0.01},"classroomParams":{"A":{"a":1,"b":4},"B":{"a":4,"b":1},"C":{"a":2,"b":8},"D":{"a":8,"b":2}},"conditions":["nonSeqFull","nonSeqPartial","seqNoFeedback","seqFeedback"],"classroomPairings":[["A","B"],["C","D"]],"coinWeights":[0.2,0.5,0.8],"subjectId":"A255A9FFZD8PQW","assignmentId":"3ZSY5X72NYXKH2TTUDP8ZPMFVVKRO9","hitId":"32TZXEA1OL6QYKM0MXQIQH2ABHN14I","url":"https://gershmanlab.com/experiments/alicia/teaching/experiment/?hitId=32TZXEA1OL6QYKM0MXQIQH2ABHN14I&workerId=A255A9FFZD8PQW&assignmentId=3ZSY5X72NYXKH2TTUDP8ZPMFVVKRO9&a=25SZ9&tp_a=25SZ9&b=3ZSY5X72NYXKH2TTUDP8ZPMFVVKRO9&tp_b=3ZSY5X72NYXKH2TTUDP8ZPMFVVKRO9&c=365799&tp_c=365799"},{"rt":null,"stimulus":"<div style=\"font-size:50px;\">First student</div>","response":null,"trial_type":"html-keyboard-response","trial_index":20,"time_elapsed":568557,"internal_node_id":"0.0-4.0","params":{"nStudents":24,"maxFlips":30,"completionMinutes":45,"basePay":8,"maxBonus":9,"perTrialBonus":0.5,"perTrialBonusThreshold":0.05,"exampleCost":0.01},"classroomParams":{"A":{"a":1,"b":4},"B":{"a":4,"b":1},"C":{"a":2,"b":8},"D":{"a":8,"b":2}},"conditions":["nonSeqFull","nonSeqPartial","seqNoFeedback","seqFeedback"],"classroomPairings":[["A","B"],["C","D"]],"coinWeights":[0.2,0.5,0.8],"subjectId":"A255A9FFZD8PQW","assignmentId":"3ZSY5X72NYXKH2TTUDP8ZPMFVVKRO9","hitId":"32TZXEA1OL6QYKM0MXQIQH2ABHN14I","url":"https://gershmanlab.com/experiments/alicia/teaching/experiment/?hitId=32TZXEA1OL6QYKM0MXQIQH2ABHN14I&workerId=A255A9FFZD8PQW&assignmentId=3ZSY5X72NYXKH2TTUDP8ZPMFVVKRO9&a=25SZ9&tp_a=25SZ9&b=3ZSY5X72NYXKH2TTUDP8ZPMFVVKRO9&tp_b=3ZSY5X72NYXKH2TTUDP8ZPMFVVKRO9&c=365799&tp_c=365799"},{"rt":6269,"stimulus":"\n            <h4 style=\"color:Orange;\">Student 1</h4>\n            <h2>The weight of your coin is <b style=\"color:Tomato;\">0.5</b>.</h2>\n            <p>In this block, you will be giving <b>one</b> set of examples to Student 1.</p>\n                <p>You will receive feedback at the end of the block.</p>\n            <p></p>","response":0,"trial_type":"html-button-response","trial_index":21,"time_elapsed":574827,"internal_node_id":"0.0-5.0","params":{"nStudents":24,"maxFlips":30,"completionMinutes":45,"basePay":8,"maxBonus":9,"perTrialBonus":0.5,"perTrialBonusThreshold":0.05,"exampleCost":0.01},"classroomParams":{"A":{"a":1,"b":4},"B":{"a":4,"b":1},"C":{"a":2,"b":8},"D":{"a":8,"b":2}},"conditions":["nonSeqFull","nonSeqPartial","seqNoFeedback","seqFeedback"],"classroomPairings":[["A","B"],["C","D"]],"coinWeights":[0.2,0.5,0.8],"subjectId":"A255A9FFZD8PQW","assignmentId":"3ZSY5X72NYXKH2TTUDP8ZPMFVVKRO9","hitId":"32TZXEA1OL6QYKM0MXQIQH2ABHN14I","url":"https://gershmanlab.com/experiments/alicia/teaching/experiment/?hitId=32TZXEA1OL6QYKM0MXQIQH2ABHN14I&workerId=A255A9FFZD8PQW&assignmentId=3ZSY5X72NYXKH2TTUDP8ZPMFVVKRO9&a=25SZ9&tp_a=25SZ9&b=3ZSY5X72NYXKH2TTUDP8ZPMFVVKRO9&tp_b=3ZSY5X72NYXKH2TTUDP8ZPMFVVKRO9&c=365799&tp_c=365799"},{"rt":44949,"response":{"heads":"2","tails":"1"},"type":"response","condition":"nonSeqPartial","trueTheta":0.5,"classrooms":["C","D"],"studentTrueClassroom":"D","exampleSet":"first","trial_type":"survey-html-form","trial_index":22,"time_elapsed":619777,"internal_node_id":"0.0-6.0-0.0","params":{"nStudents":24,"maxFlips":30,"completionMinutes":45,"basePay":8,"maxBonus":9,"perTrialBonus":0.5,"perTrialBonusThreshold":0.05,"exampleCost":0.01},"classroomParams":{"A":{"a":1,"b":4},"B":{"a":4,"b":1},"C":{"a":2,"b":8},"D":{"a":8,"b":2}},"conditions":["nonSeqFull","nonSeqPartial","seqNoFeedback","seqFeedback"],"classroomPairings":[["A","B"],["C","D"]],"coinWeights":[0.2,0.5,0.8],"subjectId":"A255A9FFZD8PQW","assignmentId":"3ZSY5X72NYXKH2TTUDP8ZPMFVVKRO9","hitId":"32TZXEA1OL6QYKM0MXQIQH2ABHN14I","url":"https://gershmanlab.com/experiments/alicia/teaching/experiment/?hitId=32TZXEA1OL6QYKM0MXQIQH2ABHN14I&workerId=A255A9FFZD8PQW&assignmentId=3ZSY5X72NYXKH2TTUDP8ZPMFVVKRO9&a=25SZ9&tp_a=25SZ9&b=3ZSY5X72NYXKH2TTUDP8ZPMFVVKRO9&tp_b=3ZSY5X72NYXKH2TTUDP8ZPMFVVKRO9&c=365799&tp_c=365799","heads":2,"tails":1,"studentIndex":0,"studentTrueHypers":{"a":8,"b":2},"studentGuess":0.7692307692307693,"delta":0.2692307692307693,"totalExamples":3,"bonus":0,"bonusSoFar":0},{"rt":null,"stimulus":"Sending examples to student... ","response":null,"trial_type":"html-keyboard-response","trial_index":23,"time_elapsed":621541,"internal_node_id":"0.0-7.0","params":{"nStudents":24,"maxFlips":30,"completionMinutes":45,"basePay":8,"maxBonus":9,"perTrialBonus":0.5,"perTrialBonusThreshold":0.05,"exampleCost":0.01},"classroomParams":{"A":{"a":1,"b":4},"B":{"a":4,"b":1},"C":{"a":2,"b":8},"D":{"a":8,"b":2}},"conditions":["nonSeqFull","nonSeqPartial","seqNoFeedback","seqFeedback"],"classroomPairings":[["A","B"],["C","D"]],"coinWeights":[0.2,0.5,0.8],"subjectId":"A255A9FFZD8PQW","assignmentId":"3ZSY5X72NYXKH2TTUDP8ZPMFVVKRO9","hitId":"32TZXEA1OL6QYKM0MXQIQH2ABHN14I","url":"https://gershmanlab.com/experiments/alicia/teaching/experiment/?hitId=32TZXEA1OL6QYKM0MXQIQH2ABHN14I&workerId=A255A9FFZD8PQW&assignmentId=3ZSY5X72NYXKH2TTUDP8ZPMFVVKRO9&a=25SZ9&tp_a=25SZ9&b=3ZSY5X72NYXKH2TTUDP8ZPMFVVKRO9&tp_b=3ZSY5X72NYXKH2TTUDP8ZPMFVVKRO9&c=365799&tp_c=365799"},{"rt":null,"stimulus":"Examples sent to student! Waiting for student...","response":null,"trial_type":"html-keyboard-response","trial_index":24,"time_elapsed":626553,"internal_node_id":"0.0-8.0","params":{"nStudents":24,"maxFlips":30,"completionMinutes":45,"basePay":8,"maxBonus":9,"perTrialBonus":0.5,"perTrialBonusThreshold":0.05,"exampleCost":0.01},"classroomParams":{"A":{"a":1,"b":4},"B":{"a":4,"b":1},"C":{"a":2,"b":8},"D":{"a":8,"b":2}},"conditions":["nonSeqFull","nonSeqPartial","seqNoFeedback","seqFeedback"],"classroomPairings":[["A","B"],["C","D"]],"coinWeights":[0.2,0.5,0.8],"subjectId":"A255A9FFZD8PQW","assignmentId":"3ZSY5X72NYXKH2TTUDP8ZPMFVVKRO9","hitId":"32TZXEA1OL6QYKM0MXQIQH2ABHN14I","url":"https://gershmanlab.com/experiments/alicia/teaching/experiment/?hitId=32TZXEA1OL6QYKM0MXQIQH2ABHN14I&workerId=A255A9FFZD8PQW&assignmentId=3ZSY5X72NYXKH2TTUDP8ZPMFVVKRO9&a=25SZ9&tp_a=25SZ9&b=3ZSY5X72NYXKH2TTUDP8ZPMFVVKRO9&tp_b=3ZSY5X72NYXKH2TTUDP8ZPMFVVKRO9&c=365799&tp_c=365799"},{"rt":3235,"stimulus":"\n                <p>Student's guess for coin weight: <b style=\"color:Tomato;\">0.77</b></p>\n                <p>You received a bonus of <b>$0</b>. Total bonus so far: <b>$0.00</b></b></p>\n                <p></p>\n                <p>Press any key to continue.</p>\n                ","response":" ","trial_type":"html-keyboard-response","trial_index":25,"time_elapsed":629790,"internal_node_id":"0.0-9.0","params":{"nStudents":24,"maxFlips":30,"completionMinutes":45,"basePay":8,"maxBonus":9,"perTrialBonus":0.5,"perTrialBonusThreshold":0.05,"exampleCost":0.01},"classroomParams":{"A":{"a":1,"b":4},"B":{"a":4,"b":1},"C":{"a":2,"b":8},"D":{"a":8,"b":2}},"conditions":["nonSeqFull","nonSeqPartial","seqNoFeedback","seqFeedback"],"classroomPairings":[["A","B"],["C","D"]],"coinWeights":[0.2,0.5,0.8],"subjectId":"A255A9FFZD8PQW","assignmentId":"3ZSY5X72NYXKH2TTUDP8ZPMFVVKRO9","hitId":"32TZXEA1OL6QYKM0MXQIQH2ABHN14I","url":"https://gershmanlab.com/experiments/alicia/teaching/experiment/?hitId=32TZXEA1OL6QYKM0MXQIQH2ABHN14I&workerId=A255A9FFZD8PQW&assignmentId=3ZSY5X72NYXKH2TTUDP8ZPMFVVKRO9&a=25SZ9&tp_a=25SZ9&b=3ZSY5X72NYXKH2TTUDP8ZPMFVVKRO9&tp_b=3ZSY5X72NYXKH2TTUDP8ZPMFVVKRO9&c=365799&tp_c=365799"},{"rt":null,"stimulus":"<div style=\"font-size:60px;\">Next student</div>","response":null,"trial_type":"html-keyboard-response","trial_index":26,"time_elapsed":632792,"internal_node_id":"0.0-10.0-0.0","params":{"nStudents":24,"maxFlips":30,"completionMinutes":45,"basePay":8,"maxBonus":9,"perTrialBonus":0.5,"perTrialBonusThreshold":0.05,"exampleCost":0.01},"classroomParams":{"A":{"a":1,"b":4},"B":{"a":4,"b":1},"C":{"a":2,"b":8},"D":{"a":8,"b":2}},"conditions":["nonSeqFull","nonSeqPartial","seqNoFeedback","seqFeedback"],"classroomPairings":[["A","B"],["C","D"]],"coinWeights":[0.2,0.5,0.8],"subjectId":"A255A9FFZD8PQW","assignmentId":"3ZSY5X72NYXKH2TTUDP8ZPMFVVKRO9","hitId":"32TZXEA1OL6QYKM0MXQIQH2ABHN14I","url":"https://gershmanlab.com/experiments/alicia/teaching/experiment/?hitId=32TZXEA1OL6QYKM0MXQIQH2ABHN14I&workerId=A255A9FFZD8PQW&assignmentId=3ZSY5X72NYXKH2TTUDP8ZPMFVVKRO9&a=25SZ9&tp_a=25SZ9&b=3ZSY5X72NYXKH2TTUDP8ZPMFVVKRO9&tp_b=3ZSY5X72NYXKH2TTUDP8ZPMFVVKRO9&c=365799&tp_c=365799"},{"rt":2064,"stimulus":"\n            <h4 style=\"color:Orange;\">Student 2</h4>\n            <h2>The weight of your coin is <b style=\"color:Tomato;\">0.2</b>.</h2>\n            <p>In this block, you will be giving <b>two</b> sets of examples to Student 2.</p>\n                <p>You will see the student's guess after the first set of examples. You will also receive feedback at the end of the block.</p>\n            <p>To earn the highest bonus, you will have to <b>take into consideration the student's guess</b> when you choose your second set of examples.</p>","response":0,"trial_type":"html-button-response","trial_index":27,"time_elapsed":634857,"internal_node_id":"0.0-11.0","params":{"nStudents":24,"maxFlips":30,"completionMinutes":45,"basePay":8,"maxBonus":9,"perTrialBonus":0.5,"perTrialBonusThreshold":0.05,"exampleCost":0.01},"classroomParams":{"A":{"a":1,"b":4},"B":{"a":4,"b":1},"C":{"a":2,"b":8},"D":{"a":8,"b":2}},"conditions":["nonSeqFull","nonSeqPartial","seqNoFeedback","seqFeedback"],"classroomPairings":[["A","B"],["C","D"]],"coinWeights":[0.2,0.5,0.8],"subjectId":"A255A9FFZD8PQW","assignmentId":"3ZSY5X72NYXKH2TTUDP8ZPMFVVKRO9","hitId":"32TZXEA1OL6QYKM0MXQIQH2ABHN14I","url":"https://gershmanlab.com/experiments/alicia/teaching/experiment/?hitId=32TZXEA1OL6QYKM0MXQIQH2ABHN14I&workerId=A255A9FFZD8PQW&assignmentId=3ZSY5X72NYXKH2TTUDP8ZPMFVVKRO9&a=25SZ9&tp_a=25SZ9&b=3ZSY5X72NYXKH2TTUDP8ZPMFVVKRO9&tp_b=3ZSY5X72NYXKH2TTUDP8ZPMFVVKRO9&c=365799&tp_c=365799"},{"rt":11102,"response":{"heads":"1","tails":"2"},"type":"response","condition":"seqFeedback","trueTheta":0.2,"classrooms":["C","D"],"studentTrueClassroom":"C","exampleSet":"first","trial_type":"survey-html-form","trial_index":28,"time_elapsed":645961,"internal_node_id":"0.0-12.0-0.0","params":{"nStudents":24,"maxFlips":30,"completionMinutes":45,"basePay":8,"maxBonus":9,"perTrialBonus":0.5,"perTrialBonusThreshold":0.05,"exampleCost":0.01},"classroomParams":{"A":{"a":1,"b":4},"B":{"a":4,"b":1},"C":{"a":2,"b":8},"D":{"a":8,"b":2}},"conditions":["nonSeqFull","nonSeqPartial","seqNoFeedback","seqFeedback"],"classroomPairings":[["A","B"],["C","D"]],"coinWeights":[0.2,0.5,0.8],"subjectId":"A255A9FFZD8PQW","assignmentId":"3ZSY5X72NYXKH2TTUDP8ZPMFVVKRO9","hitId":"32TZXEA1OL6QYKM0MXQIQH2ABHN14I","url":"https://gershmanlab.com/experiments/alicia/teaching/experiment/?hitId=32TZXEA1OL6QYKM0MXQIQH2ABHN14I&workerId=A255A9FFZD8PQW&assignmentId=3ZSY5X72NYXKH2TTUDP8ZPMFVVKRO9&a=25SZ9&tp_a=25SZ9&b=3ZSY5X72NYXKH2TTUDP8ZPMFVVKRO9&tp_b=3ZSY5X72NYXKH2TTUDP8ZPMFVVKRO9&c=365799&tp_c=365799","heads":1,"tails":2,"studentIndex":1,"studentTrueHypers":{"a":2,"b":8},"studentGuess":0.23076923076923078,"delta":0.03076923076923077,"totalExamples":3,"bonusSoFar":0},{"rt":null,"stimulus":"Sending examples to student... ","response":null,"trial_type":"html-keyboard-response","trial_index":29,"time_elapsed":647467,"internal_node_id":"0.0-13.0","params":{"nStudents":24,"maxFlips":30,"completionMinutes":45,"basePay":8,"maxBonus":9,"perTrialBonus":0.5,"perTrialBonusThreshold":0.05,"exampleCost":0.01},"classroomParams":{"A":{"a":1,"b":4},"B":{"a":4,"b":1},"C":{"a":2,"b":8},"D":{"a":8,"b":2}},"conditions":["nonSeqFull","nonSeqPartial","seqNoFeedback","seqFeedback"],"classroomPairings":[["A","B"],["C","D"]],"coinWeights":[0.2,0.5,0.8],"subjectId":"A255A9FFZD8PQW","assignmentId":"3ZSY5X72NYXKH2TTUDP8ZPMFVVKRO9","hitId":"32TZXEA1OL6QYKM0MXQIQH2ABHN14I","url":"https://gershmanlab.com/experiments/alicia/teaching/experiment/?hitId=32TZXEA1OL6QYKM0MXQIQH2ABHN14I&workerId=A255A9FFZD8PQW&assignmentId=3ZSY5X72NYXKH2TTUDP8ZPMFVVKRO9&a=25SZ9&tp_a=25SZ9&b=3ZSY5X72NYXKH2TTUDP8ZPMFVVKRO9&tp_b=3ZSY5X72NYXKH2TTUDP8ZPMFVVKRO9&c=365799&tp_c=365799"},{"rt":null,"stimulus":"Examples sent to student! Waiting for student...","response":null,"trial_type":"html-keyboard-response","trial_index":30,"time_elapsed":652471,"internal_node_id":"0.0-14.0","params":{"nStudents":24,"maxFlips":30,"completionMinutes":45,"basePay":8,"maxBonus":9,"perTrialBonus":0.5,"perTrialBonusThreshold":0.05,"exampleCost":0.01},"classroomParams":{"A":{"a":1,"b":4},"B":{"a":4,"b":1},"C":{"a":2,"b":8},"D":{"a":8,"b":2}},"conditions":["nonSeqFull","nonSeqPartial","seqNoFeedback","seqFeedback"],"classroomPairings":[["A","B"],["C","D"]],"coinWeights":[0.2,0.5,0.8],"subjectId":"A255A9FFZD8PQW","assignmentId":"3ZSY5X72NYXKH2TTUDP8ZPMFVVKRO9","hitId":"32TZXEA1OL6QYKM0MXQIQH2ABHN14I","url":"https://gershmanlab.com/experiments/alicia/teaching/experiment/?hitId=32TZXEA1OL6QYKM0MXQIQH2ABHN14I&workerId=A255A9FFZD8PQW&assignmentId=3ZSY5X72NYXKH2TTUDP8ZPMFVVKRO9&a=25SZ9&tp_a=25SZ9&b=3ZSY5X72NYXKH2TTUDP8ZPMFVVKRO9&tp_b=3ZSY5X72NYXKH2TTUDP8ZPMFVVKRO9&c=365799&tp_c=365799"},{"rt":9753,"stimulus":"\n                <p>Student's guess for coin weight: <b style=\"color:Tomato;\">0.23</b></p>\n                <p></b></p>\n                <p>You will now send another set of examples to your student. <b>Remember to take your student's guess into consideration so that you can earn the highest bonus possible!</b> </p>\n                <p>Press any key to continue.</p>\n                ","response":"enter","trial_type":"html-keyboard-response","trial_index":31,"time_elapsed":662225,"internal_node_id":"0.0-15.0","params":{"nStudents":24,"maxFlips":30,"completionMinutes":45,"basePay":8,"maxBonus":9,"perTrialBonus":0.5,"perTrialBonusThreshold":0.05,"exampleCost":0.01},"classroomParams":{"A":{"a":1,"b":4},"B":{"a":4,"b":1},"C":{"a":2,"b":8},"D":{"a":8,"b":2}},"conditions":["nonSeqFull","nonSeqPartial","seqNoFeedback","seqFeedback"],"classroomPairings":[["A","B"],["C","D"]],"coinWeights":[0.2,0.5,0.8],"subjectId":"A255A9FFZD8PQW","assignmentId":"3ZSY5X72NYXKH2TTUDP8ZPMFVVKRO9","hitId":"32TZXEA1OL6QYKM0MXQIQH2ABHN14I","url":"https://gershmanlab.com/experiments/alicia/teaching/experiment/?hitId=32TZXEA1OL6QYKM0MXQIQH2ABHN14I&workerId=A255A9FFZD8PQW&assignmentId=3ZSY5X72NYXKH2TTUDP8ZPMFVVKRO9&a=25SZ9&tp_a=25SZ9&b=3ZSY5X72NYXKH2TTUDP8ZPMFVVKRO9&tp_b=3ZSY5X72NYXKH2TTUDP8ZPMFVVKRO9&c=365799&tp_c=365799"},{"rt":15685,"response":{"heads":"2","tails":"1"},"type":"response","condition":"seqFeedback","trueTheta":0.2,"classrooms":["C","D"],"studentTrueClassroom":"C","exampleSet":"second","trial_type":"survey-html-form","trial_index":32,"time_elapsed":677911,"internal_node_id":"0.0-16.0-0.0","params":{"nStudents":24,"maxFlips":30,"completionMinutes":45,"basePay":8,"maxBonus":9,"perTrialBonus":0.5,"perTrialBonusThreshold":0.05,"exampleCost":0.01},"classroomParams":{"A":{"a":1,"b":4},"B":{"a":4,"b":1},"C":{"a":2,"b":8},"D":{"a":8,"b":2}},"conditions":["nonSeqFull","nonSeqPartial","seqNoFeedback","seqFeedback"],"classroomPairings":[["A","B"],["C","D"]],"coinWeights":[0.2,0.5,0.8],"subjectId":"A255A9FFZD8PQW","assignmentId":"3ZSY5X72NYXKH2TTUDP8ZPMFVVKRO9","hitId":"32TZXEA1OL6QYKM0MXQIQH2ABHN14I","url":"https://gershmanlab.com/experiments/alicia/teaching/experiment/?hitId=32TZXEA1OL6QYKM0MXQIQH2ABHN14I&workerId=A255A9FFZD8PQW&assignmentId=3ZSY5X72NYXKH2TTUDP8ZPMFVVKRO9&a=25SZ9&tp_a=25SZ9&b=3ZSY5X72NYXKH2TTUDP8ZPMFVVKRO9&tp_b=3ZSY5X72NYXKH2TTUDP8ZPMFVVKRO9&c=365799&tp_c=365799","firstResponseHeads":1,"firstResponseTails":2,"secondResponseHeads":2,"secondResponseTails":1,"totalHeads":3,"totalTails":3,"studentIndex":1,"studentTrueHypers":{"a":2,"b":8},"studentGuess":0.3125,"delta":0.11249999999999999,"bonus":0,"bonusSoFar":0,"totalExamples":6},{"rt":null,"stimulus":"Sending examples to student... ","response":null,"trial_type":"html-keyboard-response","trial_index":33,"time_elapsed":679179,"internal_node_id":"0.0-17.0","params":{"nStudents":24,"maxFlips":30,"completionMinutes":45,"basePay":8,"maxBonus":9,"perTrialBonus":0.5,"perTrialBonusThreshold":0.05,"exampleCost":0.01},"classroomParams":{"A":{"a":1,"b":4},"B":{"a":4,"b":1},"C":{"a":2,"b":8},"D":{"a":8,"b":2}},"conditions":["nonSeqFull","nonSeqPartial","seqNoFeedback","seqFeedback"],"classroomPairings":[["A","B"],["C","D"]],"coinWeights":[0.2,0.5,0.8],"subjectId":"A255A9FFZD8PQW","assignmentId":"3ZSY5X72NYXKH2TTUDP8ZPMFVVKRO9","hitId":"32TZXEA1OL6QYKM0MXQIQH2ABHN14I","url":"https://gershmanlab.com/experiments/alicia/teaching/experiment/?hitId=32TZXEA1OL6QYKM0MXQIQH2ABHN14I&workerId=A255A9FFZD8PQW&assignmentId=3ZSY5X72NYXKH2TTUDP8ZPMFVVKRO9&a=25SZ9&tp_a=25SZ9&b=3ZSY5X72NYXKH2TTUDP8ZPMFVVKRO9&tp_b=3ZSY5X72NYXKH2TTUDP8ZPMFVVKRO9&c=365799&tp_c=365799"},{"rt":null,"stimulus":"Examples sent to student! Waiting for student...","response":null,"trial_type":"html-keyboard-response","trial_index":34,"time_elapsed":684681,"internal_node_id":"0.0-18.0","params":{"nStudents":24,"maxFlips":30,"completionMinutes":45,"basePay":8,"maxBonus":9,"perTrialBonus":0.5,"perTrialBonusThreshold":0.05,"exampleCost":0.01},"classroomParams":{"A":{"a":1,"b":4},"B":{"a":4,"b":1},"C":{"a":2,"b":8},"D":{"a":8,"b":2}},"conditions":["nonSeqFull","nonSeqPartial","seqNoFeedback","seqFeedback"],"classroomPairings":[["A","B"],["C","D"]],"coinWeights":[0.2,0.5,0.8],"subjectId":"A255A9FFZD8PQW","assignmentId":"3ZSY5X72NYXKH2TTUDP8ZPMFVVKRO9","hitId":"32TZXEA1OL6QYKM0MXQIQH2ABHN14I","url":"https://gershmanlab.com/experiments/alicia/teaching/experiment/?hitId=32TZXEA1OL6QYKM0MXQIQH2ABHN14I&workerId=A255A9FFZD8PQW&assignmentId=3ZSY5X72NYXKH2TTUDP8ZPMFVVKRO9&a=25SZ9&tp_a=25SZ9&b=3ZSY5X72NYXKH2TTUDP8ZPMFVVKRO9&tp_b=3ZSY5X72NYXKH2TTUDP8ZPMFVVKRO9&c=365799&tp_c=365799"},{"rt":4310,"stimulus":"\n                <p>Student 2's first guess for coin weight: <b style=\"color:Tomato\";>0.23</b></p>\n                <p>Student 2's second guess for coin weight: <b style=\"color:Tomato\";>0.31</b></p>\n                <p>You received a bonus of <b>$0.00</b> based on the student's second guess.</p>\n                <p>Total bonus so far: <b>$0.00</b></p>\n                <p>Press any key to continue.</p>\n                ","response":" ","trial_type":"html-keyboard-response","trial_index":35,"time_elapsed":688992,"internal_node_id":"0.0-19.0","params":{"nStudents":24,"maxFlips":30,"completionMinutes":45,"basePay":8,"maxBonus":9,"perTrialBonus":0.5,"perTrialBonusThreshold":0.05,"exampleCost":0.01},"classroomParams":{"A":{"a":1,"b":4},"B":{"a":4,"b":1},"C":{"a":2,"b":8},"D":{"a":8,"b":2}},"conditions":["nonSeqFull","nonSeqPartial","seqNoFeedback","seqFeedback"],"classroomPairings":[["A","B"],["C","D"]],"coinWeights":[0.2,0.5,0.8],"subjectId":"A255A9FFZD8PQW","assignmentId":"3ZSY5X72NYXKH2TTUDP8ZPMFVVKRO9","hitId":"32TZXEA1OL6QYKM0MXQIQH2ABHN14I","url":"https://gershmanlab.com/experiments/alicia/teaching/experiment/?hitId=32TZXEA1OL6QYKM0MXQIQH2ABHN14I&workerId=A255A9FFZD8PQW&assignmentId=3ZSY5X72NYXKH2TTUDP8ZPMFVVKRO9&a=25SZ9&tp_a=25SZ9&b=3ZSY5X72NYXKH2TTUDP8ZPMFVVKRO9&tp_b=3ZSY5X72NYXKH2TTUDP8ZPMFVVKRO9&c=365799&tp_c=365799"},{"rt":null,"stimulus":"<div style=\"font-size:60px;\">Next student</div>","response":null,"trial_type":"html-keyboard-response","trial_index":36,"time_elapsed":691252,"internal_node_id":"0.0-20.0-0.0","params":{"nStudents":24,"maxFlips":30,"completionMinutes":45,"basePay":8,"maxBonus":9,"perTrialBonus":0.5,"perTrialBonusThreshold":0.05,"exampleCost":0.01},"classroomParams":{"A":{"a":1,"b":4},"B":{"a":4,"b":1},"C":{"a":2,"b":8},"D":{"a":8,"b":2}},"conditions":["nonSeqFull","nonSeqPartial","seqNoFeedback","seqFeedback"],"classroomPairings":[["A","B"],["C","D"]],"coinWeights":[0.2,0.5,0.8],"subjectId":"A255A9FFZD8PQW","assignmentId":"3ZSY5X72NYXKH2TTUDP8ZPMFVVKRO9","hitId":"32TZXEA1OL6QYKM0MXQIQH2ABHN14I","url":"https://gershmanlab.com/experiments/alicia/teaching/experiment/?hitId=32TZXEA1OL6QYKM0MXQIQH2ABHN14I&workerId=A255A9FFZD8PQW&assignmentId=3ZSY5X72NYXKH2TTUDP8ZPMFVVKRO9&a=25SZ9&tp_a=25SZ9&b=3ZSY5X72NYXKH2TTUDP8ZPMFVVKRO9&tp_b=3ZSY5X72NYXKH2TTUDP8ZPMFVVKRO9&c=365799&tp_c=365799"},{"rt":2379,"stimulus":"\n            <h4 style=\"color:Orange;\">Student 3</h4>\n            <h2>The weight of your coin is <b style=\"color:Tomato;\">0.8</b>.</h2>\n            <p>In this block, you will be giving <b>one</b> set of examples to Student 3.</p>\n                <p>You will receive feedback at the end of the block.</p>\n            <p></p>","response":0,"trial_type":"html-button-response","trial_index":37,"time_elapsed":693633,"internal_node_id":"0.0-21.0","params":{"nStudents":24,"maxFlips":30,"completionMinutes":45,"basePay":8,"maxBonus":9,"perTrialBonus":0.5,"perTrialBonusThreshold":0.05,"exampleCost":0.01},"classroomParams":{"A":{"a":1,"b":4},"B":{"a":4,"b":1},"C":{"a":2,"b":8},"D":{"a":8,"b":2}},"conditions":["nonSeqFull","nonSeqPartial","seqNoFeedback","seqFeedback"],"classroomPairings":[["A","B"],["C","D"]],"coinWeights":[0.2,0.5,0.8],"subjectId":"A255A9FFZD8PQW","assignmentId":"3ZSY5X72NYXKH2TTUDP8ZPMFVVKRO9","hitId":"32TZXEA1OL6QYKM0MXQIQH2ABHN14I","url":"https://gershmanlab.com/experiments/alicia/teaching/experiment/?hitId=32TZXEA1OL6QYKM0MXQIQH2ABHN14I&workerId=A255A9FFZD8PQW&assignmentId=3ZSY5X72NYXKH2TTUDP8ZPMFVVKRO9&a=25SZ9&tp_a=25SZ9&b=3ZSY5X72NYXKH2TTUDP8ZPMFVVKRO9&tp_b=3ZSY5X72NYXKH2TTUDP8ZPMFVVKRO9&c=365799&tp_c=365799"},{"rt":8125,"response":{"heads":"8","tails":"10"},"type":"response","condition":"nonSeqPartial","trueTheta":0.8,"classrooms":["A","B"],"studentTrueClassroom":"A","exampleSet":"first","trial_type":"survey-html-form","trial_index":38,"time_elapsed":701760,"internal_node_id":"0.0-22.0-0.0","params":{"nStudents":24,"maxFlips":30,"completionMinutes":45,"basePay":8,"maxBonus":9,"perTrialBonus":0.5,"perTrialBonusThreshold":0.05,"exampleCost":0.01},"classroomParams":{"A":{"a":1,"b":4},"B":{"a":4,"b":1},"C":{"a":2,"b":8},"D":{"a":8,"b":2}},"conditions":["nonSeqFull","nonSeqPartial","seqNoFeedback","seqFeedback"],"classroomPairings":[["A","B"],["C","D"]],"coinWeights":[0.2,0.5,0.8],"subjectId":"A255A9FFZD8PQW","assignmentId":"3ZSY5X72NYXKH2TTUDP8ZPMFVVKRO9","hitId":"32TZXEA1OL6QYKM0MXQIQH2ABHN14I","url":"https://gershmanlab.com/experiments/alicia/teaching/experiment/?hitId=32TZXEA1OL6QYKM0MXQIQH2ABHN14I&workerId=A255A9FFZD8PQW&assignmentId=3ZSY5X72NYXKH2TTUDP8ZPMFVVKRO9&a=25SZ9&tp_a=25SZ9&b=3ZSY5X72NYXKH2TTUDP8ZPMFVVKRO9&tp_b=3ZSY5X72NYXKH2TTUDP8ZPMFVVKRO9&c=365799&tp_c=365799","heads":8,"tails":10,"studentIndex":2,"studentTrueHypers":{"a":1,"b":4},"studentGuess":0.391304347826087,"delta":0.40869565217391307,"totalExamples":18,"bonus":0,"bonusSoFar":0},{"rt":null,"stimulus":"Sending examples to student... ","response":null,"trial_type":"html-keyboard-response","trial_index":39,"time_elapsed":703265,"internal_node_id":"0.0-23.0","params":{"nStudents":24,"maxFlips":30,"completionMinutes":45,"basePay":8,"maxBonus":9,"perTrialBonus":0.5,"perTrialBonusThreshold":0.05,"exampleCost":0.01},"classroomParams":{"A":{"a":1,"b":4},"B":{"a":4,"b":1},"C":{"a":2,"b":8},"D":{"a":8,"b":2}},"conditions":["nonSeqFull","nonSeqPartial","seqNoFeedback","seqFeedback"],"classroomPairings":[["A","B"],["C","D"]],"coinWeights":[0.2,0.5,0.8],"subjectId":"A255A9FFZD8PQW","assignmentId":"3ZSY5X72NYXKH2TTUDP8ZPMFVVKRO9","hitId":"32TZXEA1OL6QYKM0MXQIQH2ABHN14I","url":"https://gershmanlab.com/experiments/alicia/teaching/experiment/?hitId=32TZXEA1OL6QYKM0MXQIQH2ABHN14I&workerId=A255A9FFZD8PQW&assignmentId=3ZSY5X72NYXKH2TTUDP8ZPMFVVKRO9&a=25SZ9&tp_a=25SZ9&b=3ZSY5X72NYXKH2TTUDP8ZPMFVVKRO9&tp_b=3ZSY5X72NYXKH2TTUDP8ZPMFVVKRO9&c=365799&tp_c=365799"},{"rt":null,"stimulus":"Examples sent to student! Waiting for student...","response":null,"trial_type":"html-keyboard-response","trial_index":40,"time_elapsed":707781,"internal_node_id":"0.0-24.0","params":{"nStudents":24,"maxFlips":30,"completionMinutes":45,"basePay":8,"maxBonus":9,"perTrialBonus":0.5,"perTrialBonusThreshold":0.05,"exampleCost":0.01},"classroomParams":{"A":{"a":1,"b":4},"B":{"a":4,"b":1},"C":{"a":2,"b":8},"D":{"a":8,"b":2}},"conditions":["nonSeqFull","nonSeqPartial","seqNoFeedback","seqFeedback"],"classroomPairings":[["A","B"],["C","D"]],"coinWeights":[0.2,0.5,0.8],"subjectId":"A255A9FFZD8PQW","assignmentId":"3ZSY5X72NYXKH2TTUDP8ZPMFVVKRO9","hitId":"32TZXEA1OL6QYKM0MXQIQH2ABHN14I","url":"https://gershmanlab.com/experiments/alicia/teaching/experiment/?hitId=32TZXEA1OL6QYKM0MXQIQH2ABHN14I&workerId=A255A9FFZD8PQW&assignmentId=3ZSY5X72NYXKH2TTUDP8ZPMFVVKRO9&a=25SZ9&tp_a=25SZ9&b=3ZSY5X72NYXKH2TTUDP8ZPMFVVKRO9&tp_b=3ZSY5X72NYXKH2TTUDP8ZPMFVVKRO9&c=365799&tp_c=365799"},{"rt":2854,"stimulus":"\n                <p>Student's guess for coin weight: <b style=\"color:Tomato;\">0.39</b></p>\n                <p>You received a bonus of <b>$0</b>. Total bonus so far: <b>$0.00</b></b></p>\n                <p></p>\n                <p>Press any key to continue.</p>\n                ","response":" ","trial_type":"html-keyboard-response","trial_index":41,"time_elapsed":710636,"internal_node_id":"0.0-25.0","params":{"nStudents":24,"maxFlips":30,"completionMinutes":45,"basePay":8,"maxBonus":9,"perTrialBonus":0.5,"perTrialBonusThreshold":0.05,"exampleCost":0.01},"classroomParams":{"A":{"a":1,"b":4},"B":{"a":4,"b":1},"C":{"a":2,"b":8},"D":{"a":8,"b":2}},"conditions":["nonSeqFull","nonSeqPartial","seqNoFeedback","seqFeedback"],"classroomPairings":[["A","B"],["C","D"]],"coinWeights":[0.2,0.5,0.8],"subjectId":"A255A9FFZD8PQW","assignmentId":"3ZSY5X72NYXKH2TTUDP8ZPMFVVKRO9","hitId":"32TZXEA1OL6QYKM0MXQIQH2ABHN14I","url":"https://gershmanlab.com/experiments/alicia/teaching/experiment/?hitId=32TZXEA1OL6QYKM0MXQIQH2ABHN14I&workerId=A255A9FFZD8PQW&assignmentId=3ZSY5X72NYXKH2TTUDP8ZPMFVVKRO9&a=25SZ9&tp_a=25SZ9&b=3ZSY5X72NYXKH2TTUDP8ZPMFVVKRO9&tp_b=3ZSY5X72NYXKH2TTUDP8ZPMFVVKRO9&c=365799&tp_c=365799"},{"rt":null,"stimulus":"<div style=\"font-size:60px;\">Next student</div>","response":null,"trial_type":"html-keyboard-response","trial_index":42,"time_elapsed":712894,"internal_node_id":"0.0-26.0-0.0","params":{"nStudents":24,"maxFlips":30,"completionMinutes":45,"basePay":8,"maxBonus":9,"perTrialBonus":0.5,"perTrialBonusThreshold":0.05,"exampleCost":0.01},"classroomParams":{"A":{"a":1,"b":4},"B":{"a":4,"b":1},"C":{"a":2,"b":8},"D":{"a":8,"b":2}},"conditions":["nonSeqFull","nonSeqPartial","seqNoFeedback","seqFeedback"],"classroomPairings":[["A","B"],["C","D"]],"coinWeights":[0.2,0.5,0.8],"subjectId":"A255A9FFZD8PQW","assignmentId":"3ZSY5X72NYXKH2TTUDP8ZPMFVVKRO9","hitId":"32TZXEA1OL6QYKM0MXQIQH2ABHN14I","url":"https://gershmanlab.com/experiments/alicia/teaching/experiment/?hitId=32TZXEA1OL6QYKM0MXQIQH2ABHN14I&workerId=A255A9FFZD8PQW&assignmentId=3ZSY5X72NYXKH2TTUDP8ZPMFVVKRO9&a=25SZ9&tp_a=25SZ9&b=3ZSY5X72NYXKH2TTUDP8ZPMFVVKRO9&tp_b=3ZSY5X72NYXKH2TTUDP8ZPMFVVKRO9&c=365799&tp_c=365799"},{"rt":1818,"stimulus":"\n            <h4 style=\"color:Orange;\">Student 4</h4>\n            <h2>The weight of your coin is <b style=\"color:Tomato;\">0.5</b>.</h2>\n            <p>In this block, you will be giving <b>two</b> sets of examples to Student 4.</p>\n                <p>You will see the student's guess after the first set of examples. You will also receive feedback at the end of the block.</p>\n            <p>To earn the highest bonus, you will have to <b>take into consideration the student's guess</b> when you choose your second set of examples.</p>","response":0,"trial_type":"html-button-response","trial_index":43,"time_elapsed":714713,"internal_node_id":"0.0-27.0","params":{"nStudents":24,"maxFlips":30,"completionMinutes":45,"basePay":8,"maxBonus":9,"perTrialBonus":0.5,"perTrialBonusThreshold":0.05,"exampleCost":0.01},"classroomParams":{"A":{"a":1,"b":4},"B":{"a":4,"b":1},"C":{"a":2,"b":8},"D":{"a":8,"b":2}},"conditions":["nonSeqFull","nonSeqPartial","seqNoFeedback","seqFeedback"],"classroomPairings":[["A","B"],["C","D"]],"coinWeights":[0.2,0.5,0.8],"subjectId":"A255A9FFZD8PQW","assignmentId":"3ZSY5X72NYXKH2TTUDP8ZPMFVVKRO9","hitId":"32TZXEA1OL6QYKM0MXQIQH2ABHN14I","url":"https://gershmanlab.com/experiments/alicia/teaching/experiment/?hitId=32TZXEA1OL6QYKM0MXQIQH2ABHN14I&workerId=A255A9FFZD8PQW&assignmentId=3ZSY5X72NYXKH2TTUDP8ZPMFVVKRO9&a=25SZ9&tp_a=25SZ9&b=3ZSY5X72NYXKH2TTUDP8ZPMFVVKRO9&tp_b=3ZSY5X72NYXKH2TTUDP8ZPMFVVKRO9&c=365799&tp_c=365799"},{"rt":6929,"response":{"heads":"5","tails":"5"},"type":"response","condition":"seqFeedback","trueTheta":0.5,"classrooms":["A","B"],"studentTrueClassroom":"B","exampleSet":"first","trial_type":"survey-html-form","trial_index":44,"time_elapsed":721644,"internal_node_id":"0.0-28.0-0.0","params":{"nStudents":24,"maxFlips":30,"completionMinutes":45,"basePay":8,"maxBonus":9,"perTrialBonus":0.5,"perTrialBonusThreshold":0.05,"exampleCost":0.01},"classroomParams":{"A":{"a":1,"b":4},"B":{"a":4,"b":1},"C":{"a":2,"b":8},"D":{"a":8,"b":2}},"conditions":["nonSeqFull","nonSeqPartial","seqNoFeedback","seqFeedback"],"classroomPairings":[["A","B"],["C","D"]],"coinWeights":[0.2,0.5,0.8],"subjectId":"A255A9FFZD8PQW","assignmentId":"3ZSY5X72NYXKH2TTUDP8ZPMFVVKRO9","hitId":"32TZXEA1OL6QYKM0MXQIQH2ABHN14I","url":"https://gershmanlab.com/experiments/alicia/teaching/experiment/?hitId=32TZXEA1OL6QYKM0MXQIQH2ABHN14I&workerId=A255A9FFZD8PQW&assignmentId=3ZSY5X72NYXKH2TTUDP8ZPMFVVKRO9&a=25SZ9&tp_a=25SZ9&b=3ZSY5X72NYXKH2TTUDP8ZPMFVVKRO9&tp_b=3ZSY5X72NYXKH2TTUDP8ZPMFVVKRO9&c=365799&tp_c=365799","heads":5,"tails":5,"studentIndex":3,"studentTrueHypers":{"a":4,"b":1},"studentGuess":0.6,"delta":0.09999999999999998,"totalExamples":10,"bonusSoFar":0},{"rt":null,"stimulus":"Sending examples to student... ","response":null,"trial_type":"html-keyboard-response","trial_index":45,"time_elapsed":723400,"internal_node_id":"0.0-29.0","params":{"nStudents":24,"maxFlips":30,"completionMinutes":45,"basePay":8,"maxBonus":9,"perTrialBonus":0.5,"perTrialBonusThreshold":0.05,"exampleCost":0.01},"classroomParams":{"A":{"a":1,"b":4},"B":{"a":4,"b":1},"C":{"a":2,"b":8},"D":{"a":8,"b":2}},"conditions":["nonSeqFull","nonSeqPartial","seqNoFeedback","seqFeedback"],"classroomPairings":[["A","B"],["C","D"]],"coinWeights":[0.2,0.5,0.8],"subjectId":"A255A9FFZD8PQW","assignmentId":"3ZSY5X72NYXKH2TTUDP8ZPMFVVKRO9","hitId":"32TZXEA1OL6QYKM0MXQIQH2ABHN14I","url":"https://gershmanlab.com/experiments/alicia/teaching/experiment/?hitId=32TZXEA1OL6QYKM0MXQIQH2ABHN14I&workerId=A255A9FFZD8PQW&assignmentId=3ZSY5X72NYXKH2TTUDP8ZPMFVVKRO9&a=25SZ9&tp_a=25SZ9&b=3ZSY5X72NYXKH2TTUDP8ZPMFVVKRO9&tp_b=3ZSY5X72NYXKH2TTUDP8ZPMFVVKRO9&c=365799&tp_c=365799"},{"rt":null,"stimulus":"Examples sent to student! Waiting for student...","response":null,"trial_type":"html-keyboard-response","trial_index":46,"time_elapsed":728912,"internal_node_id":"0.0-30.0","params":{"nStudents":24,"maxFlips":30,"completionMinutes":45,"basePay":8,"maxBonus":9,"perTrialBonus":0.5,"perTrialBonusThreshold":0.05,"exampleCost":0.01},"classroomParams":{"A":{"a":1,"b":4},"B":{"a":4,"b":1},"C":{"a":2,"b":8},"D":{"a":8,"b":2}},"conditions":["nonSeqFull","nonSeqPartial","seqNoFeedback","seqFeedback"],"classroomPairings":[["A","B"],["C","D"]],"coinWeights":[0.2,0.5,0.8],"subjectId":"A255A9FFZD8PQW","assignmentId":"3ZSY5X72NYXKH2TTUDP8ZPMFVVKRO9","hitId":"32TZXEA1OL6QYKM0MXQIQH2ABHN14I","url":"https://gershmanlab.com/experiments/alicia/teaching/experiment/?hitId=32TZXEA1OL6QYKM0MXQIQH2ABHN14I&workerId=A255A9FFZD8PQW&assignmentId=3ZSY5X72NYXKH2TTUDP8ZPMFVVKRO9&a=25SZ9&tp_a=25SZ9&b=3ZSY5X72NYXKH2TTUDP8ZPMFVVKRO9&tp_b=3ZSY5X72NYXKH2TTUDP8ZPMFVVKRO9&c=365799&tp_c=365799"},{"rt":2774,"stimulus":"\n                <p>Student's guess for coin weight: <b style=\"color:Tomato;\">0.60</b></p>\n                <p></b></p>\n                <p>You will now send another set of examples to your student. <b>Remember to take your student's guess into consideration so that you can earn the highest bonus possible!</b> </p>\n                <p>Press any key to continue.</p>\n                ","response":"enter","trial_type":"html-keyboard-response","trial_index":47,"time_elapsed":731687,"internal_node_id":"0.0-31.0","params":{"nStudents":24,"maxFlips":30,"completionMinutes":45,"basePay":8,"maxBonus":9,"perTrialBonus":0.5,"perTrialBonusThreshold":0.05,"exampleCost":0.01},"classroomParams":{"A":{"a":1,"b":4},"B":{"a":4,"b":1},"C":{"a":2,"b":8},"D":{"a":8,"b":2}},"conditions":["nonSeqFull","nonSeqPartial","seqNoFeedback","seqFeedback"],"classroomPairings":[["A","B"],["C","D"]],"coinWeights":[0.2,0.5,0.8],"subjectId":"A255A9FFZD8PQW","assignmentId":"3ZSY5X72NYXKH2TTUDP8ZPMFVVKRO9","hitId":"32TZXEA1OL6QYKM0MXQIQH2ABHN14I","url":"https://gershmanlab.com/experiments/alicia/teaching/experiment/?hitId=32TZXEA1OL6QYKM0MXQIQH2ABHN14I&workerId=A255A9FFZD8PQW&assignmentId=3ZSY5X72NYXKH2TTUDP8ZPMFVVKRO9&a=25SZ9&tp_a=25SZ9&b=3ZSY5X72NYXKH2TTUDP8ZPMFVVKRO9&tp_b=3ZSY5X72NYXKH2TTUDP8ZPMFVVKRO9&c=365799&tp_c=365799"},{"rt":8094,"response":{"heads":"3","tails":"3"},"type":"response","condition":"seqFeedback","trueTheta":0.5,"classrooms":["A","B"],"studentTrueClassroom":"B","exampleSet":"second","trial_type":"survey-html-form","trial_index":48,"time_elapsed":739782,"internal_node_id":"0.0-32.0-0.0","params":{"nStudents":24,"maxFlips":30,"completionMinutes":45,"basePay":8,"maxBonus":9,"perTrialBonus":0.5,"perTrialBonusThreshold":0.05,"exampleCost":0.01},"classroomParams":{"A":{"a":1,"b":4},"B":{"a":4,"b":1},"C":{"a":2,"b":8},"D":{"a":8,"b":2}},"conditions":["nonSeqFull","nonSeqPartial","seqNoFeedback","seqFeedback"],"classroomPairings":[["A","B"],["C","D"]],"coinWeights":[0.2,0.5,0.8],"subjectId":"A255A9FFZD8PQW","assignmentId":"3ZSY5X72NYXKH2TTUDP8ZPMFVVKRO9","hitId":"32TZXEA1OL6QYKM0MXQIQH2ABHN14I","url":"https://gershmanlab.com/experiments/alicia/teaching/experiment/?hitId=32TZXEA1OL6QYKM0MXQIQH2ABHN14I&workerId=A255A9FFZD8PQW&assignmentId=3ZSY5X72NYXKH2TTUDP8ZPMFVVKRO9&a=25SZ9&tp_a=25SZ9&b=3ZSY5X72NYXKH2TTUDP8ZPMFVVKRO9&tp_b=3ZSY5X72NYXKH2TTUDP8ZPMFVVKRO9&c=365799&tp_c=365799","firstResponseHeads":5,"firstResponseTails":5,"secondResponseHeads":3,"secondResponseTails":3,"totalHeads":8,"totalTails":8,"studentIndex":3,"studentTrueHypers":{"a":4,"b":1},"studentGuess":0.5714285714285714,"delta":0.0714285714285714,"bonus":0,"bonusSoFar":0,"totalExamples":16},{"rt":null,"stimulus":"Sending examples to student... ","response":null,"trial_type":"html-keyboard-response","trial_index":49,"time_elapsed":741788,"internal_node_id":"0.0-33.0","params":{"nStudents":24,"maxFlips":30,"completionMinutes":45,"basePay":8,"maxBonus":9,"perTrialBonus":0.5,"perTrialBonusThreshold":0.05,"exampleCost":0.01},"classroomParams":{"A":{"a":1,"b":4},"B":{"a":4,"b":1},"C":{"a":2,"b":8},"D":{"a":8,"b":2}},"conditions":["nonSeqFull","nonSeqPartial","seqNoFeedback","seqFeedback"],"classroomPairings":[["A","B"],["C","D"]],"coinWeights":[0.2,0.5,0.8],"subjectId":"A255A9FFZD8PQW","assignmentId":"3ZSY5X72NYXKH2TTUDP8ZPMFVVKRO9","hitId":"32TZXEA1OL6QYKM0MXQIQH2ABHN14I","url":"https://gershmanlab.com/experiments/alicia/teaching/experiment/?hitId=32TZXEA1OL6QYKM0MXQIQH2ABHN14I&workerId=A255A9FFZD8PQW&assignmentId=3ZSY5X72NYXKH2TTUDP8ZPMFVVKRO9&a=25SZ9&tp_a=25SZ9&b=3ZSY5X72NYXKH2TTUDP8ZPMFVVKRO9&tp_b=3ZSY5X72NYXKH2TTUDP8ZPMFVVKRO9&c=365799&tp_c=365799"},{"rt":null,"stimulus":"Examples sent to student! Waiting for student...","response":null,"trial_type":"html-keyboard-response","trial_index":50,"time_elapsed":746799,"internal_node_id":"0.0-34.0","params":{"nStudents":24,"maxFlips":30,"completionMinutes":45,"basePay":8,"maxBonus":9,"perTrialBonus":0.5,"perTrialBonusThreshold":0.05,"exampleCost":0.01},"classroomParams":{"A":{"a":1,"b":4},"B":{"a":4,"b":1},"C":{"a":2,"b":8},"D":{"a":8,"b":2}},"conditions":["nonSeqFull","nonSeqPartial","seqNoFeedback","seqFeedback"],"classroomPairings":[["A","B"],["C","D"]],"coinWeights":[0.2,0.5,0.8],"subjectId":"A255A9FFZD8PQW","assignmentId":"3ZSY5X72NYXKH2TTUDP8ZPMFVVKRO9","hitId":"32TZXEA1OL6QYKM0MXQIQH2ABHN14I","url":"https://gershmanlab.com/experiments/alicia/teaching/experiment/?hitId=32TZXEA1OL6QYKM0MXQIQH2ABHN14I&workerId=A255A9FFZD8PQW&assignmentId=3ZSY5X72NYXKH2TTUDP8ZPMFVVKRO9&a=25SZ9&tp_a=25SZ9&b=3ZSY5X72NYXKH2TTUDP8ZPMFVVKRO9&tp_b=3ZSY5X72NYXKH2TTUDP8ZPMFVVKRO9&c=365799&tp_c=365799"},{"rt":4412,"stimulus":"\n                <p>Student 4's first guess for coin weight: <b style=\"color:Tomato\";>0.60</b></p>\n                <p>Student 4's second guess for coin weight: <b style=\"color:Tomato\";>0.57</b></p>\n                <p>You received a bonus of <b>$0.00</b> based on the student's second guess.</p>\n                <p>Total bonus so far: <b>$0.00</b></p>\n                <p>Press any key to continue.</p>\n                ","response":"enter","trial_type":"html-keyboard-response","trial_index":51,"time_elapsed":751213,"internal_node_id":"0.0-35.0","params":{"nStudents":24,"maxFlips":30,"completionMinutes":45,"basePay":8,"maxBonus":9,"perTrialBonus":0.5,"perTrialBonusThreshold":0.05,"exampleCost":0.01},"classroomParams":{"A":{"a":1,"b":4},"B":{"a":4,"b":1},"C":{"a":2,"b":8},"D":{"a":8,"b":2}},"conditions":["nonSeqFull","nonSeqPartial","seqNoFeedback","seqFeedback"],"classroomPairings":[["A","B"],["C","D"]],"coinWeights":[0.2,0.5,0.8],"subjectId":"A255A9FFZD8PQW","assignmentId":"3ZSY5X72NYXKH2TTUDP8ZPMFVVKRO9","hitId":"32TZXEA1OL6QYKM0MXQIQH2ABHN14I","url":"https://gershmanlab.com/experiments/alicia/teaching/experiment/?hitId=32TZXEA1OL6QYKM0MXQIQH2ABHN14I&workerId=A255A9FFZD8PQW&assignmentId=3ZSY5X72NYXKH2TTUDP8ZPMFVVKRO9&a=25SZ9&tp_a=25SZ9&b=3ZSY5X72NYXKH2TTUDP8ZPMFVVKRO9&tp_b=3ZSY5X72NYXKH2TTUDP8ZPMFVVKRO9&c=365799&tp_c=365799"},{"rt":null,"stimulus":"<div style=\"font-size:60px;\">Next student</div>","response":null,"trial_type":"html-keyboard-response","trial_index":52,"time_elapsed":753470,"internal_node_id":"0.0-36.0-0.0","params":{"nStudents":24,"maxFlips":30,"completionMinutes":45,"basePay":8,"maxBonus":9,"perTrialBonus":0.5,"perTrialBonusThreshold":0.05,"exampleCost":0.01},"classroomParams":{"A":{"a":1,"b":4},"B":{"a":4,"b":1},"C":{"a":2,"b":8},"D":{"a":8,"b":2}},"conditions":["nonSeqFull","nonSeqPartial","seqNoFeedback","seqFeedback"],"classroomPairings":[["A","B"],["C","D"]],"coinWeights":[0.2,0.5,0.8],"subjectId":"A255A9FFZD8PQW","assignmentId":"3ZSY5X72NYXKH2TTUDP8ZPMFVVKRO9","hitId":"32TZXEA1OL6QYKM0MXQIQH2ABHN14I","url":"https://gershmanlab.com/experiments/alicia/teaching/experiment/?hitId=32TZXEA1OL6QYKM0MXQIQH2ABHN14I&workerId=A255A9FFZD8PQW&assignmentId=3ZSY5X72NYXKH2TTUDP8ZPMFVVKRO9&a=25SZ9&tp_a=25SZ9&b=3ZSY5X72NYXKH2TTUDP8ZPMFVVKRO9&tp_b=3ZSY5X72NYXKH2TTUDP8ZPMFVVKRO9&c=365799&tp_c=365799"},{"rt":1873,"stimulus":"\n            <h4 style=\"color:Orange;\">Student 5</h4>\n            <h2>The weight of your coin is <b style=\"color:Tomato;\">0.2</b>.</h2>\n            <p>In this block, you will be giving <b>one</b> set of examples to Student 5.</p>\n                <p>You will receive feedback at the end of the block.</p>\n            <p></p>","response":0,"trial_type":"html-button-response","trial_index":53,"time_elapsed":755344,"internal_node_id":"0.0-37.0","params":{"nStudents":24,"maxFlips":30,"completionMinutes":45,"basePay":8,"maxBonus":9,"perTrialBonus":0.5,"perTrialBonusThreshold":0.05,"exampleCost":0.01},"classroomParams":{"A":{"a":1,"b":4},"B":{"a":4,"b":1},"C":{"a":2,"b":8},"D":{"a":8,"b":2}},"conditions":["nonSeqFull","nonSeqPartial","seqNoFeedback","seqFeedback"],"classroomPairings":[["A","B"],["C","D"]],"coinWeights":[0.2,0.5,0.8],"subjectId":"A255A9FFZD8PQW","assignmentId":"3ZSY5X72NYXKH2TTUDP8ZPMFVVKRO9","hitId":"32TZXEA1OL6QYKM0MXQIQH2ABHN14I","url":"https://gershmanlab.com/experiments/alicia/teaching/experiment/?hitId=32TZXEA1OL6QYKM0MXQIQH2ABHN14I&workerId=A255A9FFZD8PQW&assignmentId=3ZSY5X72NYXKH2TTUDP8ZPMFVVKRO9&a=25SZ9&tp_a=25SZ9&b=3ZSY5X72NYXKH2TTUDP8ZPMFVVKRO9&tp_b=3ZSY5X72NYXKH2TTUDP8ZPMFVVKRO9&c=365799&tp_c=365799"},{"rt":9610,"response":{"heads":"2","tails":"1"},"type":"response","condition":"nonSeqFull","trueTheta":0.2,"classrooms":["C","D"],"studentTrueClassroom":"D","exampleSet":"first","trial_type":"survey-html-form","trial_index":54,"time_elapsed":764955,"internal_node_id":"0.0-38.0-0.0","params":{"nStudents":24,"maxFlips":30,"completionMinutes":45,"basePay":8,"maxBonus":9,"perTrialBonus":0.5,"perTrialBonusThreshold":0.05,"exampleCost":0.01},"classroomParams":{"A":{"a":1,"b":4},"B":{"a":4,"b":1},"C":{"a":2,"b":8},"D":{"a":8,"b":2}},"conditions":["nonSeqFull","nonSeqPartial","seqNoFeedback","seqFeedback"],"classroomPairings":[["A","B"],["C","D"]],"coinWeights":[0.2,0.5,0.8],"subjectId":"A255A9FFZD8PQW","assignmentId":"3ZSY5X72NYXKH2TTUDP8ZPMFVVKRO9","hitId":"32TZXEA1OL6QYKM0MXQIQH2ABHN14I","url":"https://gershmanlab.com/experiments/alicia/teaching/experiment/?hitId=32TZXEA1OL6QYKM0MXQIQH2ABHN14I&workerId=A255A9FFZD8PQW&assignmentId=3ZSY5X72NYXKH2TTUDP8ZPMFVVKRO9&a=25SZ9&tp_a=25SZ9&b=3ZSY5X72NYXKH2TTUDP8ZPMFVVKRO9&tp_b=3ZSY5X72NYXKH2TTUDP8ZPMFVVKRO9&c=365799&tp_c=365799","heads":2,"tails":1,"studentIndex":4,"studentTrueHypers":{"a":8,"b":2},"studentGuess":0.7692307692307693,"delta":0.5692307692307692,"totalExamples":3,"bonus":0,"bonusSoFar":0},{"rt":null,"stimulus":"Sending examples to student... ","response":null,"trial_type":"html-keyboard-response","trial_index":55,"time_elapsed":766962,"internal_node_id":"0.0-39.0","params":{"nStudents":24,"maxFlips":30,"completionMinutes":45,"basePay":8,"maxBonus":9,"perTrialBonus":0.5,"perTrialBonusThreshold":0.05,"exampleCost":0.01},"classroomParams":{"A":{"a":1,"b":4},"B":{"a":4,"b":1},"C":{"a":2,"b":8},"D":{"a":8,"b":2}},"conditions":["nonSeqFull","nonSeqPartial","seqNoFeedback","seqFeedback"],"classroomPairings":[["A","B"],["C","D"]],"coinWeights":[0.2,0.5,0.8],"subjectId":"A255A9FFZD8PQW","assignmentId":"3ZSY5X72NYXKH2TTUDP8ZPMFVVKRO9","hitId":"32TZXEA1OL6QYKM0MXQIQH2ABHN14I","url":"https://gershmanlab.com/experiments/alicia/teaching/experiment/?hitId=32TZXEA1OL6QYKM0MXQIQH2ABHN14I&workerId=A255A9FFZD8PQW&assignmentId=3ZSY5X72NYXKH2TTUDP8ZPMFVVKRO9&a=25SZ9&tp_a=25SZ9&b=3ZSY5X72NYXKH2TTUDP8ZPMFVVKRO9&tp_b=3ZSY5X72NYXKH2TTUDP8ZPMFVVKRO9&c=365799&tp_c=365799"},{"rt":null,"stimulus":"Examples sent to student! Waiting for student...","response":null,"trial_type":"html-keyboard-response","trial_index":56,"time_elapsed":770963,"internal_node_id":"0.0-40.0","params":{"nStudents":24,"maxFlips":30,"completionMinutes":45,"basePay":8,"maxBonus":9,"perTrialBonus":0.5,"perTrialBonusThreshold":0.05,"exampleCost":0.01},"classroomParams":{"A":{"a":1,"b":4},"B":{"a":4,"b":1},"C":{"a":2,"b":8},"D":{"a":8,"b":2}},"conditions":["nonSeqFull","nonSeqPartial","seqNoFeedback","seqFeedback"],"classroomPairings":[["A","B"],["C","D"]],"coinWeights":[0.2,0.5,0.8],"subjectId":"A255A9FFZD8PQW","assignmentId":"3ZSY5X72NYXKH2TTUDP8ZPMFVVKRO9","hitId":"32TZXEA1OL6QYKM0MXQIQH2ABHN14I","url":"https://gershmanlab.com/experiments/alicia/teaching/experiment/?hitId=32TZXEA1OL6QYKM0MXQIQH2ABHN14I&workerId=A255A9FFZD8PQW&assignmentId=3ZSY5X72NYXKH2TTUDP8ZPMFVVKRO9&a=25SZ9&tp_a=25SZ9&b=3ZSY5X72NYXKH2TTUDP8ZPMFVVKRO9&tp_b=3ZSY5X72NYXKH2TTUDP8ZPMFVVKRO9&c=365799&tp_c=365799"},{"rt":2337,"stimulus":"\n                <p>Student's guess for coin weight: <b style=\"color:Tomato;\">0.77</b></p>\n                <p>You received a bonus of <b>$0</b>. Total bonus so far: <b>$0.00</b></b></p>\n                <p></p>\n                <p>Press any key to continue.</p>\n                ","response":"enter","trial_type":"html-keyboard-response","trial_index":57,"time_elapsed":773300,"internal_node_id":"0.0-41.0","params":{"nStudents":24,"maxFlips":30,"completionMinutes":45,"basePay":8,"maxBonus":9,"perTrialBonus":0.5,"perTrialBonusThreshold":0.05,"exampleCost":0.01},"classroomParams":{"A":{"a":1,"b":4},"B":{"a":4,"b":1},"C":{"a":2,"b":8},"D":{"a":8,"b":2}},"conditions":["nonSeqFull","nonSeqPartial","seqNoFeedback","seqFeedback"],"classroomPairings":[["A","B"],["C","D"]],"coinWeights":[0.2,0.5,0.8],"subjectId":"A255A9FFZD8PQW","assignmentId":"3ZSY5X72NYXKH2TTUDP8ZPMFVVKRO9","hitId":"32TZXEA1OL6QYKM0MXQIQH2ABHN14I","url":"https://gershmanlab.com/experiments/alicia/teaching/experiment/?hitId=32TZXEA1OL6QYKM0MXQIQH2ABHN14I&workerId=A255A9FFZD8PQW&assignmentId=3ZSY5X72NYXKH2TTUDP8ZPMFVVKRO9&a=25SZ9&tp_a=25SZ9&b=3ZSY5X72NYXKH2TTUDP8ZPMFVVKRO9&tp_b=3ZSY5X72NYXKH2TTUDP8ZPMFVVKRO9&c=365799&tp_c=365799"},{"rt":null,"stimulus":"<div style=\"font-size:60px;\">Next student</div>","response":null,"trial_type":"html-keyboard-response","trial_index":58,"time_elapsed":775311,"internal_node_id":"0.0-42.0-0.0","params":{"nStudents":24,"maxFlips":30,"completionMinutes":45,"basePay":8,"maxBonus":9,"perTrialBonus":0.5,"perTrialBonusThreshold":0.05,"exampleCost":0.01},"classroomParams":{"A":{"a":1,"b":4},"B":{"a":4,"b":1},"C":{"a":2,"b":8},"D":{"a":8,"b":2}},"conditions":["nonSeqFull","nonSeqPartial","seqNoFeedback","seqFeedback"],"classroomPairings":[["A","B"],["C","D"]],"coinWeights":[0.2,0.5,0.8],"subjectId":"A255A9FFZD8PQW","assignmentId":"3ZSY5X72NYXKH2TTUDP8ZPMFVVKRO9","hitId":"32TZXEA1OL6QYKM0MXQIQH2ABHN14I","url":"https://gershmanlab.com/experiments/alicia/teaching/experiment/?hitId=32TZXEA1OL6QYKM0MXQIQH2ABHN14I&workerId=A255A9FFZD8PQW&assignmentId=3ZSY5X72NYXKH2TTUDP8ZPMFVVKRO9&a=25SZ9&tp_a=25SZ9&b=3ZSY5X72NYXKH2TTUDP8ZPMFVVKRO9&tp_b=3ZSY5X72NYXKH2TTUDP8ZPMFVVKRO9&c=365799&tp_c=365799"},{"rt":1955,"stimulus":"\n            <h4 style=\"color:Orange;\">Student 6</h4>\n            <h2>The weight of your coin is <b style=\"color:Tomato;\">0.8</b>.</h2>\n            <p>In this block, you will be giving <b>one</b> set of examples to Student 6.</p>\n                <p>You will receive feedback at the end of the block.</p>\n            <p></p>","response":0,"trial_type":"html-button-response","trial_index":59,"time_elapsed":777268,"internal_node_id":"0.0-43.0","params":{"nStudents":24,"maxFlips":30,"completionMinutes":45,"basePay":8,"maxBonus":9,"perTrialBonus":0.5,"perTrialBonusThreshold":0.05,"exampleCost":0.01},"classroomParams":{"A":{"a":1,"b":4},"B":{"a":4,"b":1},"C":{"a":2,"b":8},"D":{"a":8,"b":2}},"conditions":["nonSeqFull","nonSeqPartial","seqNoFeedback","seqFeedback"],"classroomPairings":[["A","B"],["C","D"]],"coinWeights":[0.2,0.5,0.8],"subjectId":"A255A9FFZD8PQW","assignmentId":"3ZSY5X72NYXKH2TTUDP8ZPMFVVKRO9","hitId":"32TZXEA1OL6QYKM0MXQIQH2ABHN14I","url":"https://gershmanlab.com/experiments/alicia/teaching/experiment/?hitId=32TZXEA1OL6QYKM0MXQIQH2ABHN14I&workerId=A255A9FFZD8PQW&assignmentId=3ZSY5X72NYXKH2TTUDP8ZPMFVVKRO9&a=25SZ9&tp_a=25SZ9&b=3ZSY5X72NYXKH2TTUDP8ZPMFVVKRO9&tp_b=3ZSY5X72NYXKH2TTUDP8ZPMFVVKRO9&c=365799&tp_c=365799"},{"rt":10011,"response":{"heads":"8","tails":"10"},"type":"response","condition":"nonSeqFull","trueTheta":0.8,"classrooms":["A","B"],"studentTrueClassroom":"B","exampleSet":"first","trial_type":"survey-html-form","trial_index":60,"time_elapsed":787280,"internal_node_id":"0.0-44.0-0.0","params":{"nStudents":24,"maxFlips":30,"completionMinutes":45,"basePay":8,"maxBonus":9,"perTrialBonus":0.5,"perTrialBonusThreshold":0.05,"exampleCost":0.01},"classroomParams":{"A":{"a":1,"b":4},"B":{"a":4,"b":1},"C":{"a":2,"b":8},"D":{"a":8,"b":2}},"conditions":["nonSeqFull","nonSeqPartial","seqNoFeedback","seqFeedback"],"classroomPairings":[["A","B"],["C","D"]],"coinWeights":[0.2,0.5,0.8],"subjectId":"A255A9FFZD8PQW","assignmentId":"3ZSY5X72NYXKH2TTUDP8ZPMFVVKRO9","hitId":"32TZXEA1OL6QYKM0MXQIQH2ABHN14I","url":"https://gershmanlab.com/experiments/alicia/teaching/experiment/?hitId=32TZXEA1OL6QYKM0MXQIQH2ABHN14I&workerId=A255A9FFZD8PQW&assignmentId=3ZSY5X72NYXKH2TTUDP8ZPMFVVKRO9&a=25SZ9&tp_a=25SZ9&b=3ZSY5X72NYXKH2TTUDP8ZPMFVVKRO9&tp_b=3ZSY5X72NYXKH2TTUDP8ZPMFVVKRO9&c=365799&tp_c=365799","heads":8,"tails":10,"studentIndex":5,"studentTrueHypers":{"a":4,"b":1},"studentGuess":0.5217391304347826,"delta":0.27826086956521745,"totalExamples":18,"bonus":0,"bonusSoFar":0},{"rt":null,"stimulus":"Sending examples to student... ","response":null,"trial_type":"html-keyboard-response","trial_index":61,"time_elapsed":789281,"internal_node_id":"0.0-45.0","params":{"nStudents":24,"maxFlips":30,"completionMinutes":45,"basePay":8,"maxBonus":9,"perTrialBonus":0.5,"perTrialBonusThreshold":0.05,"exampleCost":0.01},"classroomParams":{"A":{"a":1,"b":4},"B":{"a":4,"b":1},"C":{"a":2,"b":8},"D":{"a":8,"b":2}},"conditions":["nonSeqFull","nonSeqPartial","seqNoFeedback","seqFeedback"],"classroomPairings":[["A","B"],["C","D"]],"coinWeights":[0.2,0.5,0.8],"subjectId":"A255A9FFZD8PQW","assignmentId":"3ZSY5X72NYXKH2TTUDP8ZPMFVVKRO9","hitId":"32TZXEA1OL6QYKM0MXQIQH2ABHN14I","url":"https://gershmanlab.com/experiments/alicia/teaching/experiment/?hitId=32TZXEA1OL6QYKM0MXQIQH2ABHN14I&workerId=A255A9FFZD8PQW&assignmentId=3ZSY5X72NYXKH2TTUDP8ZPMFVVKRO9&a=25SZ9&tp_a=25SZ9&b=3ZSY5X72NYXKH2TTUDP8ZPMFVVKRO9&tp_b=3ZSY5X72NYXKH2TTUDP8ZPMFVVKRO9&c=365799&tp_c=365799"},{"rt":null,"stimulus":"Examples sent to student! Waiting for student...","response":null,"trial_type":"html-keyboard-response","trial_index":62,"time_elapsed":793282,"internal_node_id":"0.0-46.0","params":{"nStudents":24,"maxFlips":30,"completionMinutes":45,"basePay":8,"maxBonus":9,"perTrialBonus":0.5,"perTrialBonusThreshold":0.05,"exampleCost":0.01},"classroomParams":{"A":{"a":1,"b":4},"B":{"a":4,"b":1},"C":{"a":2,"b":8},"D":{"a":8,"b":2}},"conditions":["nonSeqFull","nonSeqPartial","seqNoFeedback","seqFeedback"],"classroomPairings":[["A","B"],["C","D"]],"coinWeights":[0.2,0.5,0.8],"subjectId":"A255A9FFZD8PQW","assignmentId":"3ZSY5X72NYXKH2TTUDP8ZPMFVVKRO9","hitId":"32TZXEA1OL6QYKM0MXQIQH2ABHN14I","url":"https://gershmanlab.com/experiments/alicia/teaching/experiment/?hitId=32TZXEA1OL6QYKM0MXQIQH2ABHN14I&workerId=A255A9FFZD8PQW&assignmentId=3ZSY5X72NYXKH2TTUDP8ZPMFVVKRO9&a=25SZ9&tp_a=25SZ9&b=3ZSY5X72NYXKH2TTUDP8ZPMFVVKRO9&tp_b=3ZSY5X72NYXKH2TTUDP8ZPMFVVKRO9&c=365799&tp_c=365799"},{"rt":2394,"stimulus":"\n                <p>Student's guess for coin weight: <b style=\"color:Tomato;\">0.52</b></p>\n                <p>You received a bonus of <b>$0</b>. Total bonus so far: <b>$0.00</b></b></p>\n                <p></p>\n                <p>Press any key to continue.</p>\n                ","response":"enter","trial_type":"html-keyboard-response","trial_index":63,"time_elapsed":795678,"internal_node_id":"0.0-47.0","params":{"nStudents":24,"maxFlips":30,"completionMinutes":45,"basePay":8,"maxBonus":9,"perTrialBonus":0.5,"perTrialBonusThreshold":0.05,"exampleCost":0.01},"classroomParams":{"A":{"a":1,"b":4},"B":{"a":4,"b":1},"C":{"a":2,"b":8},"D":{"a":8,"b":2}},"conditions":["nonSeqFull","nonSeqPartial","seqNoFeedback","seqFeedback"],"classroomPairings":[["A","B"],["C","D"]],"coinWeights":[0.2,0.5,0.8],"subjectId":"A255A9FFZD8PQW","assignmentId":"3ZSY5X72NYXKH2TTUDP8ZPMFVVKRO9","hitId":"32TZXEA1OL6QYKM0MXQIQH2ABHN14I","url":"https://gershmanlab.com/experiments/alicia/teaching/experiment/?hitId=32TZXEA1OL6QYKM0MXQIQH2ABHN14I&workerId=A255A9FFZD8PQW&assignmentId=3ZSY5X72NYXKH2TTUDP8ZPMFVVKRO9&a=25SZ9&tp_a=25SZ9&b=3ZSY5X72NYXKH2TTUDP8ZPMFVVKRO9&tp_b=3ZSY5X72NYXKH2TTUDP8ZPMFVVKRO9&c=365799&tp_c=365799"},{"rt":null,"stimulus":"<div style=\"font-size:60px;\">Next student</div>","response":null,"trial_type":"html-keyboard-response","trial_index":64,"time_elapsed":798189,"internal_node_id":"0.0-48.0-0.0","params":{"nStudents":24,"maxFlips":30,"completionMinutes":45,"basePay":8,"maxBonus":9,"perTrialBonus":0.5,"perTrialBonusThreshold":0.05,"exampleCost":0.01},"classroomParams":{"A":{"a":1,"b":4},"B":{"a":4,"b":1},"C":{"a":2,"b":8},"D":{"a":8,"b":2}},"conditions":["nonSeqFull","nonSeqPartial","seqNoFeedback","seqFeedback"],"classroomPairings":[["A","B"],["C","D"]],"coinWeights":[0.2,0.5,0.8],"subjectId":"A255A9FFZD8PQW","assignmentId":"3ZSY5X72NYXKH2TTUDP8ZPMFVVKRO9","hitId":"32TZXEA1OL6QYKM0MXQIQH2ABHN14I","url":"https://gershmanlab.com/experiments/alicia/teaching/experiment/?hitId=32TZXEA1OL6QYKM0MXQIQH2ABHN14I&workerId=A255A9FFZD8PQW&assignmentId=3ZSY5X72NYXKH2TTUDP8ZPMFVVKRO9&a=25SZ9&tp_a=25SZ9&b=3ZSY5X72NYXKH2TTUDP8ZPMFVVKRO9&tp_b=3ZSY5X72NYXKH2TTUDP8ZPMFVVKRO9&c=365799&tp_c=365799"},{"rt":2079,"stimulus":"\n            <h4 style=\"color:Orange;\">Student 7</h4>\n            <h2>The weight of your coin is <b style=\"color:Tomato;\">0.5</b>.</h2>\n            <p>In this block, you will be giving <b>two</b> sets of examples to Student 7.</p>\n                <p>You will receive feedback at the end of the block.</p>\n            <p></p>","response":0,"trial_type":"html-button-response","trial_index":65,"time_elapsed":800269,"internal_node_id":"0.0-49.0","params":{"nStudents":24,"maxFlips":30,"completionMinutes":45,"basePay":8,"maxBonus":9,"perTrialBonus":0.5,"perTrialBonusThreshold":0.05,"exampleCost":0.01},"classroomParams":{"A":{"a":1,"b":4},"B":{"a":4,"b":1},"C":{"a":2,"b":8},"D":{"a":8,"b":2}},"conditions":["nonSeqFull","nonSeqPartial","seqNoFeedback","seqFeedback"],"classroomPairings":[["A","B"],["C","D"]],"coinWeights":[0.2,0.5,0.8],"subjectId":"A255A9FFZD8PQW","assignmentId":"3ZSY5X72NYXKH2TTUDP8ZPMFVVKRO9","hitId":"32TZXEA1OL6QYKM0MXQIQH2ABHN14I","url":"https://gershmanlab.com/experiments/alicia/teaching/experiment/?hitId=32TZXEA1OL6QYKM0MXQIQH2ABHN14I&workerId=A255A9FFZD8PQW&assignmentId=3ZSY5X72NYXKH2TTUDP8ZPMFVVKRO9&a=25SZ9&tp_a=25SZ9&b=3ZSY5X72NYXKH2TTUDP8ZPMFVVKRO9&tp_b=3ZSY5X72NYXKH2TTUDP8ZPMFVVKRO9&c=365799&tp_c=365799"},{"rt":8193,"response":{"heads":"5","tails":"5"},"type":"response","condition":"seqNoFeedback","trueTheta":0.5,"classrooms":["C","D"],"studentTrueClassroom":"D","exampleSet":"first","trial_type":"survey-html-form","trial_index":66,"time_elapsed":808464,"internal_node_id":"0.0-50.0-0.0","params":{"nStudents":24,"maxFlips":30,"completionMinutes":45,"basePay":8,"maxBonus":9,"perTrialBonus":0.5,"perTrialBonusThreshold":0.05,"exampleCost":0.01},"classroomParams":{"A":{"a":1,"b":4},"B":{"a":4,"b":1},"C":{"a":2,"b":8},"D":{"a":8,"b":2}},"conditions":["nonSeqFull","nonSeqPartial","seqNoFeedback","seqFeedback"],"classroomPairings":[["A","B"],["C","D"]],"coinWeights":[0.2,0.5,0.8],"subjectId":"A255A9FFZD8PQW","assignmentId":"3ZSY5X72NYXKH2TTUDP8ZPMFVVKRO9","hitId":"32TZXEA1OL6QYKM0MXQIQH2ABHN14I","url":"https://gershmanlab.com/experiments/alicia/teaching/experiment/?hitId=32TZXEA1OL6QYKM0MXQIQH2ABHN14I&workerId=A255A9FFZD8PQW&assignmentId=3ZSY5X72NYXKH2TTUDP8ZPMFVVKRO9&a=25SZ9&tp_a=25SZ9&b=3ZSY5X72NYXKH2TTUDP8ZPMFVVKRO9&tp_b=3ZSY5X72NYXKH2TTUDP8ZPMFVVKRO9&c=365799&tp_c=365799","heads":5,"tails":5,"studentIndex":6,"studentTrueHypers":{"a":8,"b":2},"studentGuess":0.65,"delta":0.15000000000000002,"totalExamples":10,"bonusSoFar":0},{"rt":null,"stimulus":"Sending examples to student... ","response":null,"trial_type":"html-keyboard-response","trial_index":67,"time_elapsed":810480,"internal_node_id":"0.0-51.0","params":{"nStudents":24,"maxFlips":30,"completionMinutes":45,"basePay":8,"maxBonus":9,"perTrialBonus":0.5,"perTrialBonusThreshold":0.05,"exampleCost":0.01},"classroomParams":{"A":{"a":1,"b":4},"B":{"a":4,"b":1},"C":{"a":2,"b":8},"D":{"a":8,"b":2}},"conditions":["nonSeqFull","nonSeqPartial","seqNoFeedback","seqFeedback"],"classroomPairings":[["A","B"],["C","D"]],"coinWeights":[0.2,0.5,0.8],"subjectId":"A255A9FFZD8PQW","assignmentId":"3ZSY5X72NYXKH2TTUDP8ZPMFVVKRO9","hitId":"32TZXEA1OL6QYKM0MXQIQH2ABHN14I","url":"https://gershmanlab.com/experiments/alicia/teaching/experiment/?hitId=32TZXEA1OL6QYKM0MXQIQH2ABHN14I&workerId=A255A9FFZD8PQW&assignmentId=3ZSY5X72NYXKH2TTUDP8ZPMFVVKRO9&a=25SZ9&tp_a=25SZ9&b=3ZSY5X72NYXKH2TTUDP8ZPMFVVKRO9&tp_b=3ZSY5X72NYXKH2TTUDP8ZPMFVVKRO9&c=365799&tp_c=365799"},{"rt":null,"stimulus":"Examples sent to student! Waiting for student...","response":null,"trial_type":"html-keyboard-response","trial_index":68,"time_elapsed":815983,"internal_node_id":"0.0-52.0","params":{"nStudents":24,"maxFlips":30,"completionMinutes":45,"basePay":8,"maxBonus":9,"perTrialBonus":0.5,"perTrialBonusThreshold":0.05,"exampleCost":0.01},"classroomParams":{"A":{"a":1,"b":4},"B":{"a":4,"b":1},"C":{"a":2,"b":8},"D":{"a":8,"b":2}},"conditions":["nonSeqFull","nonSeqPartial","seqNoFeedback","seqFeedback"],"classroomPairings":[["A","B"],["C","D"]],"coinWeights":[0.2,0.5,0.8],"subjectId":"A255A9FFZD8PQW","assignmentId":"3ZSY5X72NYXKH2TTUDP8ZPMFVVKRO9","hitId":"32TZXEA1OL6QYKM0MXQIQH2ABHN14I","url":"https://gershmanlab.com/experiments/alicia/teaching/experiment/?hitId=32TZXEA1OL6QYKM0MXQIQH2ABHN14I&workerId=A255A9FFZD8PQW&assignmentId=3ZSY5X72NYXKH2TTUDP8ZPMFVVKRO9&a=25SZ9&tp_a=25SZ9&b=3ZSY5X72NYXKH2TTUDP8ZPMFVVKRO9&tp_b=3ZSY5X72NYXKH2TTUDP8ZPMFVVKRO9&c=365799&tp_c=365799"},{"rt":13510,"response":{"heads":"5","tails":"10"},"type":"response","condition":"seqNoFeedback","trueTheta":0.5,"classrooms":["C","D"],"studentTrueClassroom":"D","exampleSet":"second","trial_type":"survey-html-form","trial_index":69,"time_elapsed":829494,"internal_node_id":"0.0-53.0-0.0","params":{"nStudents":24,"maxFlips":30,"completionMinutes":45,"basePay":8,"maxBonus":9,"perTrialBonus":0.5,"perTrialBonusThreshold":0.05,"exampleCost":0.01},"classroomParams":{"A":{"a":1,"b":4},"B":{"a":4,"b":1},"C":{"a":2,"b":8},"D":{"a":8,"b":2}},"conditions":["nonSeqFull","nonSeqPartial","seqNoFeedback","seqFeedback"],"classroomPairings":[["A","B"],["C","D"]],"coinWeights":[0.2,0.5,0.8],"subjectId":"A255A9FFZD8PQW","assignmentId":"3ZSY5X72NYXKH2TTUDP8ZPMFVVKRO9","hitId":"32TZXEA1OL6QYKM0MXQIQH2ABHN14I","url":"https://gershmanlab.com/experiments/alicia/teaching/experiment/?hitId=32TZXEA1OL6QYKM0MXQIQH2ABHN14I&workerId=A255A9FFZD8PQW&assignmentId=3ZSY5X72NYXKH2TTUDP8ZPMFVVKRO9&a=25SZ9&tp_a=25SZ9&b=3ZSY5X72NYXKH2TTUDP8ZPMFVVKRO9&tp_b=3ZSY5X72NYXKH2TTUDP8ZPMFVVKRO9&c=365799&tp_c=365799","firstResponseHeads":5,"firstResponseTails":5,"secondResponseHeads":5,"secondResponseTails":10,"totalHeads":10,"totalTails":15,"studentIndex":6,"studentTrueHypers":{"a":8,"b":2},"studentGuess":0.5142857142857142,"delta":0.014285714285714235,"bonus":0.25,"bonusSoFar":0.25,"totalExamples":25},{"rt":null,"stimulus":"Sending examples to student... ","response":null,"trial_type":"html-keyboard-response","trial_index":70,"time_elapsed":831002,"internal_node_id":"0.0-54.0","params":{"nStudents":24,"maxFlips":30,"completionMinutes":45,"basePay":8,"maxBonus":9,"perTrialBonus":0.5,"perTrialBonusThreshold":0.05,"exampleCost":0.01},"classroomParams":{"A":{"a":1,"b":4},"B":{"a":4,"b":1},"C":{"a":2,"b":8},"D":{"a":8,"b":2}},"conditions":["nonSeqFull","nonSeqPartial","seqNoFeedback","seqFeedback"],"classroomPairings":[["A","B"],["C","D"]],"coinWeights":[0.2,0.5,0.8],"subjectId":"A255A9FFZD8PQW","assignmentId":"3ZSY5X72NYXKH2TTUDP8ZPMFVVKRO9","hitId":"32TZXEA1OL6QYKM0MXQIQH2ABHN14I","url":"https://gershmanlab.com/experiments/alicia/teaching/experiment/?hitId=32TZXEA1OL6QYKM0MXQIQH2ABHN14I&workerId=A255A9FFZD8PQW&assignmentId=3ZSY5X72NYXKH2TTUDP8ZPMFVVKRO9&a=25SZ9&tp_a=25SZ9&b=3ZSY5X72NYXKH2TTUDP8ZPMFVVKRO9&tp_b=3ZSY5X72NYXKH2TTUDP8ZPMFVVKRO9&c=365799&tp_c=365799"},{"rt":null,"stimulus":"Examples sent to student! Waiting for student...","response":null,"trial_type":"html-keyboard-response","trial_index":71,"time_elapsed":837014,"internal_node_id":"0.0-55.0","params":{"nStudents":24,"maxFlips":30,"completionMinutes":45,"basePay":8,"maxBonus":9,"perTrialBonus":0.5,"perTrialBonusThreshold":0.05,"exampleCost":0.01},"classroomParams":{"A":{"a":1,"b":4},"B":{"a":4,"b":1},"C":{"a":2,"b":8},"D":{"a":8,"b":2}},"conditions":["nonSeqFull","nonSeqPartial","seqNoFeedback","seqFeedback"],"classroomPairings":[["A","B"],["C","D"]],"coinWeights":[0.2,0.5,0.8],"subjectId":"A255A9FFZD8PQW","assignmentId":"3ZSY5X72NYXKH2TTUDP8ZPMFVVKRO9","hitId":"32TZXEA1OL6QYKM0MXQIQH2ABHN14I","url":"https://gershmanlab.com/experiments/alicia/teaching/experiment/?hitId=32TZXEA1OL6QYKM0MXQIQH2ABHN14I&workerId=A255A9FFZD8PQW&assignmentId=3ZSY5X72NYXKH2TTUDP8ZPMFVVKRO9&a=25SZ9&tp_a=25SZ9&b=3ZSY5X72NYXKH2TTUDP8ZPMFVVKRO9&tp_b=3ZSY5X72NYXKH2TTUDP8ZPMFVVKRO9&c=365799&tp_c=365799"},{"rt":4622,"stimulus":"\n                <p>Student 7's first guess for coin weight: <b style=\"color:Tomato\";>0.65</b></p>\n                <p>Student 7's second guess for coin weight: <b style=\"color:Tomato\";>0.51</b></p>\n                <p>You received a bonus of <b>$0.25</b> based on the student's second guess.</p>\n                <p>Total bonus so far: <b>$0.25</b></p>\n                <p>Press any key to continue.</p>\n                ","response":"enter","trial_type":"html-keyboard-response","trial_index":72,"time_elapsed":841637,"internal_node_id":"0.0-56.0","params":{"nStudents":24,"maxFlips":30,"completionMinutes":45,"basePay":8,"maxBonus":9,"perTrialBonus":0.5,"perTrialBonusThreshold":0.05,"exampleCost":0.01},"classroomParams":{"A":{"a":1,"b":4},"B":{"a":4,"b":1},"C":{"a":2,"b":8},"D":{"a":8,"b":2}},"conditions":["nonSeqFull","nonSeqPartial","seqNoFeedback","seqFeedback"],"classroomPairings":[["A","B"],["C","D"]],"coinWeights":[0.2,0.5,0.8],"subjectId":"A255A9FFZD8PQW","assignmentId":"3ZSY5X72NYXKH2TTUDP8ZPMFVVKRO9","hitId":"32TZXEA1OL6QYKM0MXQIQH2ABHN14I","url":"https://gershmanlab.com/experiments/alicia/teaching/experiment/?hitId=32TZXEA1OL6QYKM0MXQIQH2ABHN14I&workerId=A255A9FFZD8PQW&assignmentId=3ZSY5X72NYXKH2TTUDP8ZPMFVVKRO9&a=25SZ9&tp_a=25SZ9&b=3ZSY5X72NYXKH2TTUDP8ZPMFVVKRO9&tp_b=3ZSY5X72NYXKH2TTUDP8ZPMFVVKRO9&c=365799&tp_c=365799"},{"rt":null,"stimulus":"<div style=\"font-size:60px;\">Next student</div>","response":null,"trial_type":"html-keyboard-response","trial_index":73,"time_elapsed":844139,"internal_node_id":"0.0-57.0-0.0","params":{"nStudents":24,"maxFlips":30,"completionMinutes":45,"basePay":8,"maxBonus":9,"perTrialBonus":0.5,"perTrialBonusThreshold":0.05,"exampleCost":0.01},"classroomParams":{"A":{"a":1,"b":4},"B":{"a":4,"b":1},"C":{"a":2,"b":8},"D":{"a":8,"b":2}},"conditions":["nonSeqFull","nonSeqPartial","seqNoFeedback","seqFeedback"],"classroomPairings":[["A","B"],["C","D"]],"coinWeights":[0.2,0.5,0.8],"subjectId":"A255A9FFZD8PQW","assignmentId":"3ZSY5X72NYXKH2TTUDP8ZPMFVVKRO9","hitId":"32TZXEA1OL6QYKM0MXQIQH2ABHN14I","url":"https://gershmanlab.com/experiments/alicia/teaching/experiment/?hitId=32TZXEA1OL6QYKM0MXQIQH2ABHN14I&workerId=A255A9FFZD8PQW&assignmentId=3ZSY5X72NYXKH2TTUDP8ZPMFVVKRO9&a=25SZ9&tp_a=25SZ9&b=3ZSY5X72NYXKH2TTUDP8ZPMFVVKRO9&tp_b=3ZSY5X72NYXKH2TTUDP8ZPMFVVKRO9&c=365799&tp_c=365799"},{"rt":1768,"stimulus":"\n            <h4 style=\"color:Orange;\">Student 8</h4>\n            <h2>The weight of your coin is <b style=\"color:Tomato;\">0.8</b>.</h2>\n            <p>In this block, you will be giving <b>two</b> sets of examples to Student 8.</p>\n                <p>You will receive feedback at the end of the block.</p>\n            <p></p>","response":0,"trial_type":"html-button-response","trial_index":74,"time_elapsed":845908,"internal_node_id":"0.0-58.0","params":{"nStudents":24,"maxFlips":30,"completionMinutes":45,"basePay":8,"maxBonus":9,"perTrialBonus":0.5,"perTrialBonusThreshold":0.05,"exampleCost":0.01},"classroomParams":{"A":{"a":1,"b":4},"B":{"a":4,"b":1},"C":{"a":2,"b":8},"D":{"a":8,"b":2}},"conditions":["nonSeqFull","nonSeqPartial","seqNoFeedback","seqFeedback"],"classroomPairings":[["A","B"],["C","D"]],"coinWeights":[0.2,0.5,0.8],"subjectId":"A255A9FFZD8PQW","assignmentId":"3ZSY5X72NYXKH2TTUDP8ZPMFVVKRO9","hitId":"32TZXEA1OL6QYKM0MXQIQH2ABHN14I","url":"https://gershmanlab.com/experiments/alicia/teaching/experiment/?hitId=32TZXEA1OL6QYKM0MXQIQH2ABHN14I&workerId=A255A9FFZD8PQW&assignmentId=3ZSY5X72NYXKH2TTUDP8ZPMFVVKRO9&a=25SZ9&tp_a=25SZ9&b=3ZSY5X72NYXKH2TTUDP8ZPMFVVKRO9&tp_b=3ZSY5X72NYXKH2TTUDP8ZPMFVVKRO9&c=365799&tp_c=365799"},{"rt":5779,"response":{"heads":"8","tails":"10"},"type":"response","condition":"seqNoFeedback","trueTheta":0.8,"classrooms":["A","B"],"studentTrueClassroom":"B","exampleSet":"first","trial_type":"survey-html-form","trial_index":75,"time_elapsed":851688,"internal_node_id":"0.0-59.0-0.0","params":{"nStudents":24,"maxFlips":30,"completionMinutes":45,"basePay":8,"maxBonus":9,"perTrialBonus":0.5,"perTrialBonusThreshold":0.05,"exampleCost":0.01},"classroomParams":{"A":{"a":1,"b":4},"B":{"a":4,"b":1},"C":{"a":2,"b":8},"D":{"a":8,"b":2}},"conditions":["nonSeqFull","nonSeqPartial","seqNoFeedback","seqFeedback"],"classroomPairings":[["A","B"],["C","D"]],"coinWeights":[0.2,0.5,0.8],"subjectId":"A255A9FFZD8PQW","assignmentId":"3ZSY5X72NYXKH2TTUDP8ZPMFVVKRO9","hitId":"32TZXEA1OL6QYKM0MXQIQH2ABHN14I","url":"https://gershmanlab.com/experiments/alicia/teaching/experiment/?hitId=32TZXEA1OL6QYKM0MXQIQH2ABHN14I&workerId=A255A9FFZD8PQW&assignmentId=3ZSY5X72NYXKH2TTUDP8ZPMFVVKRO9&a=25SZ9&tp_a=25SZ9&b=3ZSY5X72NYXKH2TTUDP8ZPMFVVKRO9&tp_b=3ZSY5X72NYXKH2TTUDP8ZPMFVVKRO9&c=365799&tp_c=365799","heads":8,"tails":10,"studentIndex":7,"studentTrueHypers":{"a":4,"b":1},"studentGuess":0.5217391304347826,"delta":0.27826086956521745,"totalExamples":18,"bonusSoFar":0.25},{"rt":null,"stimulus":"Sending examples to student... ","response":null,"trial_type":"html-keyboard-response","trial_index":76,"time_elapsed":853195,"internal_node_id":"0.0-60.0","params":{"nStudents":24,"maxFlips":30,"completionMinutes":45,"basePay":8,"maxBonus":9,"perTrialBonus":0.5,"perTrialBonusThreshold":0.05,"exampleCost":0.01},"classroomParams":{"A":{"a":1,"b":4},"B":{"a":4,"b":1},"C":{"a":2,"b":8},"D":{"a":8,"b":2}},"conditions":["nonSeqFull","nonSeqPartial","seqNoFeedback","seqFeedback"],"classroomPairings":[["A","B"],["C","D"]],"coinWeights":[0.2,0.5,0.8],"subjectId":"A255A9FFZD8PQW","assignmentId":"3ZSY5X72NYXKH2TTUDP8ZPMFVVKRO9","hitId":"32TZXEA1OL6QYKM0MXQIQH2ABHN14I","url":"https://gershmanlab.com/experiments/alicia/teaching/experiment/?hitId=32TZXEA1OL6QYKM0MXQIQH2ABHN14I&workerId=A255A9FFZD8PQW&assignmentId=3ZSY5X72NYXKH2TTUDP8ZPMFVVKRO9&a=25SZ9&tp_a=25SZ9&b=3ZSY5X72NYXKH2TTUDP8ZPMFVVKRO9&tp_b=3ZSY5X72NYXKH2TTUDP8ZPMFVVKRO9&c=365799&tp_c=365799"},{"rt":null,"stimulus":"Examples sent to student! Waiting for student...","response":null,"trial_type":"html-keyboard-response","trial_index":77,"time_elapsed":858701,"internal_node_id":"0.0-61.0","params":{"nStudents":24,"maxFlips":30,"completionMinutes":45,"basePay":8,"maxBonus":9,"perTrialBonus":0.5,"perTrialBonusThreshold":0.05,"exampleCost":0.01},"classroomParams":{"A":{"a":1,"b":4},"B":{"a":4,"b":1},"C":{"a":2,"b":8},"D":{"a":8,"b":2}},"conditions":["nonSeqFull","nonSeqPartial","seqNoFeedback","seqFeedback"],"classroomPairings":[["A","B"],["C","D"]],"coinWeights":[0.2,0.5,0.8],"subjectId":"A255A9FFZD8PQW","assignmentId":"3ZSY5X72NYXKH2TTUDP8ZPMFVVKRO9","hitId":"32TZXEA1OL6QYKM0MXQIQH2ABHN14I","url":"https://gershmanlab.com/experiments/alicia/teaching/experiment/?hitId=32TZXEA1OL6QYKM0MXQIQH2ABHN14I&workerId=A255A9FFZD8PQW&assignmentId=3ZSY5X72NYXKH2TTUDP8ZPMFVVKRO9&a=25SZ9&tp_a=25SZ9&b=3ZSY5X72NYXKH2TTUDP8ZPMFVVKRO9&tp_b=3ZSY5X72NYXKH2TTUDP8ZPMFVVKRO9&c=365799&tp_c=365799"},{"rt":6283,"response":{"heads":"10","tails":"8"},"type":"response","condition":"seqNoFeedback","trueTheta":0.8,"classrooms":["A","B"],"studentTrueClassroom":"B","exampleSet":"second","trial_type":"survey-html-form","trial_index":78,"time_elapsed":864985,"internal_node_id":"0.0-62.0-0.0","params":{"nStudents":24,"maxFlips":30,"completionMinutes":45,"basePay":8,"maxBonus":9,"perTrialBonus":0.5,"perTrialBonusThreshold":0.05,"exampleCost":0.01},"classroomParams":{"A":{"a":1,"b":4},"B":{"a":4,"b":1},"C":{"a":2,"b":8},"D":{"a":8,"b":2}},"conditions":["nonSeqFull","nonSeqPartial","seqNoFeedback","seqFeedback"],"classroomPairings":[["A","B"],["C","D"]],"coinWeights":[0.2,0.5,0.8],"subjectId":"A255A9FFZD8PQW","assignmentId":"3ZSY5X72NYXKH2TTUDP8ZPMFVVKRO9","hitId":"32TZXEA1OL6QYKM0MXQIQH2ABHN14I","url":"https://gershmanlab.com/experiments/alicia/teaching/experiment/?hitId=32TZXEA1OL6QYKM0MXQIQH2ABHN14I&workerId=A255A9FFZD8PQW&assignmentId=3ZSY5X72NYXKH2TTUDP8ZPMFVVKRO9&a=25SZ9&tp_a=25SZ9&b=3ZSY5X72NYXKH2TTUDP8ZPMFVVKRO9&tp_b=3ZSY5X72NYXKH2TTUDP8ZPMFVVKRO9&c=365799&tp_c=365799","firstResponseHeads":8,"firstResponseTails":10,"secondResponseHeads":10,"secondResponseTails":8,"totalHeads":18,"totalTails":18,"studentIndex":7,"studentTrueHypers":{"a":4,"b":1},"studentGuess":0.5365853658536586,"delta":0.2634146341463415,"bonus":0,"bonusSoFar":0.25,"totalExamples":36},{"rt":null,"stimulus":"Sending examples to student... ","response":null,"trial_type":"html-keyboard-response","trial_index":79,"time_elapsed":866999,"internal_node_id":"0.0-63.0","params":{"nStudents":24,"maxFlips":30,"completionMinutes":45,"basePay":8,"maxBonus":9,"perTrialBonus":0.5,"perTrialBonusThreshold":0.05,"exampleCost":0.01},"classroomParams":{"A":{"a":1,"b":4},"B":{"a":4,"b":1},"C":{"a":2,"b":8},"D":{"a":8,"b":2}},"conditions":["nonSeqFull","nonSeqPartial","seqNoFeedback","seqFeedback"],"classroomPairings":[["A","B"],["C","D"]],"coinWeights":[0.2,0.5,0.8],"subjectId":"A255A9FFZD8PQW","assignmentId":"3ZSY5X72NYXKH2TTUDP8ZPMFVVKRO9","hitId":"32TZXEA1OL6QYKM0MXQIQH2ABHN14I","url":"https://gershmanlab.com/experiments/alicia/teaching/experiment/?hitId=32TZXEA1OL6QYKM0MXQIQH2ABHN14I&workerId=A255A9FFZD8PQW&assignmentId=3ZSY5X72NYXKH2TTUDP8ZPMFVVKRO9&a=25SZ9&tp_a=25SZ9&b=3ZSY5X72NYXKH2TTUDP8ZPMFVVKRO9&tp_b=3ZSY5X72NYXKH2TTUDP8ZPMFVVKRO9&c=365799&tp_c=365799"},{"rt":null,"stimulus":"Examples sent to student! Waiting for student...","response":null,"trial_type":"html-keyboard-response","trial_index":80,"time_elapsed":873003,"internal_node_id":"0.0-64.0","params":{"nStudents":24,"maxFlips":30,"completionMinutes":45,"basePay":8,"maxBonus":9,"perTrialBonus":0.5,"perTrialBonusThreshold":0.05,"exampleCost":0.01},"classroomParams":{"A":{"a":1,"b":4},"B":{"a":4,"b":1},"C":{"a":2,"b":8},"D":{"a":8,"b":2}},"conditions":["nonSeqFull","nonSeqPartial","seqNoFeedback","seqFeedback"],"classroomPairings":[["A","B"],["C","D"]],"coinWeights":[0.2,0.5,0.8],"subjectId":"A255A9FFZD8PQW","assignmentId":"3ZSY5X72NYXKH2TTUDP8ZPMFVVKRO9","hitId":"32TZXEA1OL6QYKM0MXQIQH2ABHN14I","url":"https://gershmanlab.com/experiments/alicia/teaching/experiment/?hitId=32TZXEA1OL6QYKM0MXQIQH2ABHN14I&workerId=A255A9FFZD8PQW&assignmentId=3ZSY5X72NYXKH2TTUDP8ZPMFVVKRO9&a=25SZ9&tp_a=25SZ9&b=3ZSY5X72NYXKH2TTUDP8ZPMFVVKRO9&tp_b=3ZSY5X72NYXKH2TTUDP8ZPMFVVKRO9&c=365799&tp_c=365799"},{"rt":4621,"stimulus":"\n                <p>Student 8's first guess for coin weight: <b style=\"color:Tomato\";>0.52</b></p>\n                <p>Student 8's second guess for coin weight: <b style=\"color:Tomato\";>0.54</b></p>\n                <p>You received a bonus of <b>$0.00</b> based on the student's second guess.</p>\n                <p>Total bonus so far: <b>$0.25</b></p>\n                <p>Press any key to continue.</p>\n                ","response":"enter","trial_type":"html-keyboard-response","trial_index":81,"time_elapsed":877625,"internal_node_id":"0.0-65.0","params":{"nStudents":24,"maxFlips":30,"completionMinutes":45,"basePay":8,"maxBonus":9,"perTrialBonus":0.5,"perTrialBonusThreshold":0.05,"exampleCost":0.01},"classroomParams":{"A":{"a":1,"b":4},"B":{"a":4,"b":1},"C":{"a":2,"b":8},"D":{"a":8,"b":2}},"conditions":["nonSeqFull","nonSeqPartial","seqNoFeedback","seqFeedback"],"classroomPairings":[["A","B"],["C","D"]],"coinWeights":[0.2,0.5,0.8],"subjectId":"A255A9FFZD8PQW","assignmentId":"3ZSY5X72NYXKH2TTUDP8ZPMFVVKRO9","hitId":"32TZXEA1OL6QYKM0MXQIQH2ABHN14I","url":"https://gershmanlab.com/experiments/alicia/teaching/experiment/?hitId=32TZXEA1OL6QYKM0MXQIQH2ABHN14I&workerId=A255A9FFZD8PQW&assignmentId=3ZSY5X72NYXKH2TTUDP8ZPMFVVKRO9&a=25SZ9&tp_a=25SZ9&b=3ZSY5X72NYXKH2TTUDP8ZPMFVVKRO9&tp_b=3ZSY5X72NYXKH2TTUDP8ZPMFVVKRO9&c=365799&tp_c=365799"},{"rt":null,"stimulus":"<div style=\"font-size:60px;\">Next student</div>","response":null,"trial_type":"html-keyboard-response","trial_index":82,"time_elapsed":880130,"internal_node_id":"0.0-66.0-0.0","params":{"nStudents":24,"maxFlips":30,"completionMinutes":45,"basePay":8,"maxBonus":9,"perTrialBonus":0.5,"perTrialBonusThreshold":0.05,"exampleCost":0.01},"classroomParams":{"A":{"a":1,"b":4},"B":{"a":4,"b":1},"C":{"a":2,"b":8},"D":{"a":8,"b":2}},"conditions":["nonSeqFull","nonSeqPartial","seqNoFeedback","seqFeedback"],"classroomPairings":[["A","B"],["C","D"]],"coinWeights":[0.2,0.5,0.8],"subjectId":"A255A9FFZD8PQW","assignmentId":"3ZSY5X72NYXKH2TTUDP8ZPMFVVKRO9","hitId":"32TZXEA1OL6QYKM0MXQIQH2ABHN14I","url":"https://gershmanlab.com/experiments/alicia/teaching/experiment/?hitId=32TZXEA1OL6QYKM0MXQIQH2ABHN14I&workerId=A255A9FFZD8PQW&assignmentId=3ZSY5X72NYXKH2TTUDP8ZPMFVVKRO9&a=25SZ9&tp_a=25SZ9&b=3ZSY5X72NYXKH2TTUDP8ZPMFVVKRO9&tp_b=3ZSY5X72NYXKH2TTUDP8ZPMFVVKRO9&c=365799&tp_c=365799"},{"rt":1894,"stimulus":"\n            <h4 style=\"color:Orange;\">Student 9</h4>\n            <h2>The weight of your coin is <b style=\"color:Tomato;\">0.2</b>.</h2>\n            <p>In this block, you will be giving <b>two</b> sets of examples to Student 9.</p>\n                <p>You will receive feedback at the end of the block.</p>\n            <p></p>","response":0,"trial_type":"html-button-response","trial_index":83,"time_elapsed":882025,"internal_node_id":"0.0-67.0","params":{"nStudents":24,"maxFlips":30,"completionMinutes":45,"basePay":8,"maxBonus":9,"perTrialBonus":0.5,"perTrialBonusThreshold":0.05,"exampleCost":0.01},"classroomParams":{"A":{"a":1,"b":4},"B":{"a":4,"b":1},"C":{"a":2,"b":8},"D":{"a":8,"b":2}},"conditions":["nonSeqFull","nonSeqPartial","seqNoFeedback","seqFeedback"],"classroomPairings":[["A","B"],["C","D"]],"coinWeights":[0.2,0.5,0.8],"subjectId":"A255A9FFZD8PQW","assignmentId":"3ZSY5X72NYXKH2TTUDP8ZPMFVVKRO9","hitId":"32TZXEA1OL6QYKM0MXQIQH2ABHN14I","url":"https://gershmanlab.com/experiments/alicia/teaching/experiment/?hitId=32TZXEA1OL6QYKM0MXQIQH2ABHN14I&workerId=A255A9FFZD8PQW&assignm