[{"rt":null,"stimulus":"Welcome to the experiment. Press any key to begin.","response":null,"trial_type":"html-keyboard-response","trial_index":0,"time_elapsed":30190,"internal_node_id":"0.0-0.0","params":{"nStudents":24,"maxFlips":30,"completionMinutes":45,"basePay":8,"maxBonus":9,"perTrialBonus":0.5,"perTrialBonusThreshold":0.05,"exampleCost":0.01},"classroomParams":{"A":{"a":1,"b":4},"B":{"a":4,"b":1},"C":{"a":2,"b":8},"D":{"a":8,"b":2}},"conditions":["nonSeqFull","nonSeqPartial","seqNoFeedback","seqFeedback"],"classroomPairings":[["A","B"],["C","D"]],"coinWeights":[0.2,0.5,0.8],"subjectId":"A25FH7PXC446RG","assignmentId":"3MYYFCXHJ4TPOJAXVIGNMN23CWB4GK","hitId":"3SD15I2WD2G0NA4TSPXGB81L5S7630","url":"https://gershmanlab.com/experiments/alicia/teaching/experiment/?hitId=3SD15I2WD2G0NA4TSPXGB81L5S7630&workerId=A25FH7PXC446RG&assignmentId=3MYYFCXHJ4TPOJAXVIGNMN23CWB4GK&a=HFYM9&tp_a=HFYM9&b=3MYYFCXHJ4TPOJAXVIGNMN23CWB4GK&tp_b=3MYYFCXHJ4TPOJAXVIGNMN23CWB4GK&c=365799&tp_c=365799"},{"rt":272151,"stimulus":"\n        <h3>Please read this consent agreement carefully before deciding whether to participate in this experiment.</h3>\n        <p><b>Purpose of the research:</b> To examine how people teach effectively.</p>\n        <p><b>What you will do in this research:</b> You will teach students the weights of different coins.</p>\n        <p><b>Time required:</b> This experiment will take 45 minutes to complete.</p>\n        <p><b>Risks:</b> There are no anticipated risks associated with participating in this study.             The effects of participating should be comparable to those you would experience from viewing a computer monitor             and using a mouse and keyboard for the duration of the experiment.</p>\n        <p><b>Benefits:</b> The study provides important information about the nature of teaching.</p>\n        <p><b>Compensation:</b> You will receive <b>$8</b> for completing the experiment and a performance bonus of up to <b>$9</b>.</p>\n        <p><b>Confidentiality:</b> Your participation in this study will remain confidential.             No personally identifiable information will be associated with your data.             Your de-identified data may be shared with other researchers and used in future projects.</p>\n        <p><b>Participation and withdrawal:</b> Your participation in this study is completely voluntary and             you may refuse to participate or you may choose to withdraw at any time without penalty or loss of\n            benefits to which you are otherwise entitled.</p>\n        <p><b>How to contact the researcher:</b> If you have questions or concerns about your participation            or payment, or want to request a summary of research findings, please contact\n            Alicia Chen, aliciachen@college.harvard.edu.</p>\n        <p><b>Whom to contact about your rights in this research:</b> For questions, concerns, suggestions,             or complaints that have not been or cannot be addressed by the researcher, or to report             research-related harm, please contact the Committee on the Use of Human Subjects in Research at Harvard University,             1414 Massachusetts Avenue, Second Floor, Cambridge, MA 02138. Phone: 617-496-2847. Email: cuhs@fas.harvard.edu.</p>\n        ","response":0,"trial_type":"html-button-response","trial_index":1,"time_elapsed":302350,"internal_node_id":"0.0-1.0","params":{"nStudents":24,"maxFlips":30,"completionMinutes":45,"basePay":8,"maxBonus":9,"perTrialBonus":0.5,"perTrialBonusThreshold":0.05,"exampleCost":0.01},"classroomParams":{"A":{"a":1,"b":4},"B":{"a":4,"b":1},"C":{"a":2,"b":8},"D":{"a":8,"b":2}},"conditions":["nonSeqFull","nonSeqPartial","seqNoFeedback","seqFeedback"],"classroomPairings":[["A","B"],["C","D"]],"coinWeights":[0.2,0.5,0.8],"subjectId":"A25FH7PXC446RG","assignmentId":"3MYYFCXHJ4TPOJAXVIGNMN23CWB4GK","hitId":"3SD15I2WD2G0NA4TSPXGB81L5S7630","url":"https://gershmanlab.com/experiments/alicia/teaching/experiment/?hitId=3SD15I2WD2G0NA4TSPXGB81L5S7630&workerId=A25FH7PXC446RG&assignmentId=3MYYFCXHJ4TPOJAXVIGNMN23CWB4GK&a=HFYM9&tp_a=HFYM9&b=3MYYFCXHJ4TPOJAXVIGNMN23CWB4GK&tp_b=3MYYFCXHJ4TPOJAXVIGNMN23CWB4GK&c=365799&tp_c=365799"},{"view_history":[{"page_index":0,"viewing_time":13940},{"page_index":1,"viewing_time":13358},{"page_index":2,"viewing_time":46924},{"page_index":3,"viewing_time":63812},{"page_index":4,"viewing_time":37742},{"page_index":5,"viewing_time":36441},{"page_index":6,"viewing_time":59707}],"rt":271924,"trial_type":"instructions","trial_index":2,"time_elapsed":574273,"internal_node_id":"0.0-2.0-0.0","params":{"nStudents":24,"maxFlips":30,"completionMinutes":45,"basePay":8,"maxBonus":9,"perTrialBonus":0.5,"perTrialBonusThreshold":0.05,"exampleCost":0.01},"classroomParams":{"A":{"a":1,"b":4},"B":{"a":4,"b":1},"C":{"a":2,"b":8},"D":{"a":8,"b":2}},"conditions":["nonSeqFull","nonSeqPartial","seqNoFeedback","seqFeedback"],"classroomPairings":[["A","B"],["C","D"]],"coinWeights":[0.2,0.5,0.8],"subjectId":"A25FH7PXC446RG","assignmentId":"3MYYFCXHJ4TPOJAXVIGNMN23CWB4GK","hitId":"3SD15I2WD2G0NA4TSPXGB81L5S7630","url":"https://gershmanlab.com/experiments/alicia/teaching/experiment/?hitId=3SD15I2WD2G0NA4TSPXGB81L5S7630&workerId=A25FH7PXC446RG&assignmentId=3MYYFCXHJ4TPOJAXVIGNMN23CWB4GK&a=HFYM9&tp_a=HFYM9&b=3MYYFCXHJ4TPOJAXVIGNMN23CWB4GK&tp_b=3MYYFCXHJ4TPOJAXVIGNMN23CWB4GK&c=365799&tp_c=365799"},{"rt":149928,"response":{"Q0":"Students in different classrooms will have seen a different number of heads and tails before seeing the examples you select for them.","Q1":"By <b>considering the student's classroom information</b> so that I can teach efficiently and accurately/helpfully at the same time (because each example I give to the student costs money!).","Q2":"The coin lands heads 90% of the time.","Q3":"No, I will teach a <b>new</b> student each time.","Q4":"The students are also on the same alien planet as you, where coins can be unfair.","Q5":"Based on both guesses."},"question_order":[4,0,5,3,1,2],"trial_type":"survey-multi-choice","trial_index":3,"time_elapsed":724203,"internal_node_id":"0.0-2.0-1.0","params":{"nStudents":24,"maxFlips":30,"completionMinutes":45,"basePay":8,"maxBonus":9,"perTrialBonus":0.5,"perTrialBonusThreshold":0.05,"exampleCost":0.01},"classroomParams":{"A":{"a":1,"b":4},"B":{"a":4,"b":1},"C":{"a":2,"b":8},"D":{"a":8,"b":2}},"conditions":["nonSeqFull","nonSeqPartial","seqNoFeedback","seqFeedback"],"classroomPairings":[["A","B"],["C","D"]],"coinWeights":[0.2,0.5,0.8],"subjectId":"A25FH7PXC446RG","assignmentId":"3MYYFCXHJ4TPOJAXVIGNMN23CWB4GK","hitId":"3SD15I2WD2G0NA4TSPXGB81L5S7630","url":"https://gershmanlab.com/experiments/alicia/teaching/experiment/?hitId=3SD15I2WD2G0NA4TSPXGB81L5S7630&workerId=A25FH7PXC446RG&assignmentId=3MYYFCXHJ4TPOJAXVIGNMN23CWB4GK&a=HFYM9&tp_a=HFYM9&b=3MYYFCXHJ4TPOJAXVIGNMN23CWB4GK&tp_b=3MYYFCXHJ4TPOJAXVIGNMN23CWB4GK&c=365799&tp_c=365799","pass":false},{"rt":4185,"stimulus":"Oops, you have missed question(s) on the comprehension check! We'll show you the instructions again.","response":0,"trial_type":"html-button-response","trial_index":4,"time_elapsed":728393,"internal_node_id":"0.0-2.0-2.0-0.0","params":{"nStudents":24,"maxFlips":30,"completionMinutes":45,"basePay":8,"maxBonus":9,"perTrialBonus":0.5,"perTrialBonusThreshold":0.05,"exampleCost":0.01},"classroomParams":{"A":{"a":1,"b":4},"B":{"a":4,"b":1},"C":{"a":2,"b":8},"D":{"a":8,"b":2}},"conditions":["nonSeqFull","nonSeqPartial","seqNoFeedback","seqFeedback"],"classroomPairings":[["A","B"],["C","D"]],"coinWeights":[0.2,0.5,0.8],"subjectId":"A25FH7PXC446RG","assignmentId":"3MYYFCXHJ4TPOJAXVIGNMN23CWB4GK","hitId":"3SD15I2WD2G0NA4TSPXGB81L5S7630","url":"https://gershmanlab.com/experiments/alicia/teaching/experiment/?hitId=3SD15I2WD2G0NA4TSPXGB81L5S7630&workerId=A25FH7PXC446RG&assignmentId=3MYYFCXHJ4TPOJAXVIGNMN23CWB4GK&a=HFYM9&tp_a=HFYM9&b=3MYYFCXHJ4TPOJAXVIGNMN23CWB4GK&tp_b=3MYYFCXHJ4TPOJAXVIGNMN23CWB4GK&c=365799&tp_c=365799"},{"view_history":[{"page_index":0,"viewing_time":14178},{"page_index":1,"viewing_time":4918},{"page_index":2,"viewing_time":42109},{"page_index":3,"viewing_time":29717},{"page_index":4,"viewing_time":13250},{"page_index":5,"viewing_time":34961},{"page_index":6,"viewing_time":48447}],"rt":187582,"trial_type":"instructions","trial_index":5,"time_elapsed":915979,"internal_node_id":"0.0-2.1-0.1","params":{"nStudents":24,"maxFlips":30,"completionMinutes":45,"basePay":8,"maxBonus":9,"perTrialBonus":0.5,"perTrialBonusThreshold":0.05,"exampleCost":0.01},"classroomParams":{"A":{"a":1,"b":4},"B":{"a":4,"b":1},"C":{"a":2,"b":8},"D":{"a":8,"b":2}},"conditions":["nonSeqFull","nonSeqPartial","seqNoFeedback","seqFeedback"],"classroomPairings":[["A","B"],["C","D"]],"coinWeights":[0.2,0.5,0.8],"subjectId":"A25FH7PXC446RG","assignmentId":"3MYYFCXHJ4TPOJAXVIGNMN23CWB4GK","hitId":"3SD15I2WD2G0NA4TSPXGB81L5S7630","url":"https://gershmanlab.com/experiments/alicia/teaching/experiment/?hitId=3SD15I2WD2G0NA4TSPXGB81L5S7630&workerId=A25FH7PXC446RG&assignmentId=3MYYFCXHJ4TPOJAXVIGNMN23CWB4GK&a=HFYM9&tp_a=HFYM9&b=3MYYFCXHJ4TPOJAXVIGNMN23CWB4GK&tp_b=3MYYFCXHJ4TPOJAXVIGNMN23CWB4GK&c=365799&tp_c=365799"},{"rt":75595,"response":{"Q0":"Students in different classrooms have seen a different proportion of fair and unfair coins before seeing the examples you select for them.","Q1":"By <b>considering the student's classroom information</b> so that I can teach efficiently and accurately/helpfully at the same time (because each example I give to the student costs money!).","Q2":"The coin lands heads 90% of the time.","Q3":"Yes, I might encounter the same student twice.","Q4":"The students are also on the same alien planet as you, where coins can be unfair.","Q5":"Based on the student's second (and final) guess."},"question_order":[5,1,4,3,0,2],"trial_type":"survey-multi-choice","trial_index":6,"time_elapsed":991576,"internal_node_id":"0.0-2.1-1.1","params":{"nStudents":24,"maxFlips":30,"completionMinutes":45,"basePay":8,"maxBonus":9,"perTrialBonus":0.5,"perTrialBonusThreshold":0.05,"exampleCost":0.01},"classroomParams":{"A":{"a":1,"b":4},"B":{"a":4,"b":1},"C":{"a":2,"b":8},"D":{"a":8,"b":2}},"conditions":["nonSeqFull","nonSeqPartial","seqNoFeedback","seqFeedback"],"classroomPairings":[["A","B"],["C","D"]],"coinWeights":[0.2,0.5,0.8],"subjectId":"A25FH7PXC446RG","assignmentId":"3MYYFCXHJ4TPOJAXVIGNMN23CWB4GK","hitId":"3SD15I2WD2G0NA4TSPXGB81L5S7630","url":"https://gershmanlab.com/experiments/alicia/teaching/experiment/?hitId=3SD15I2WD2G0NA4TSPXGB81L5S7630&workerId=A25FH7PXC446RG&assignmentId=3MYYFCXHJ4TPOJAXVIGNMN23CWB4GK&a=HFYM9&tp_a=HFYM9&b=3MYYFCXHJ4TPOJAXVIGNMN23CWB4GK&tp_b=3MYYFCXHJ4TPOJAXVIGNMN23CWB4GK&c=365799&tp_c=365799","pass":false},{"rt":2035,"stimulus":"Oops, you have missed question(s) on the comprehension check! We'll show you the instructions again.","response":0,"trial_type":"html-button-response","trial_index":7,"time_elapsed":993618,"internal_node_id":"0.0-2.1-2.1-0.1","params":{"nStudents":24,"maxFlips":30,"completionMinutes":45,"basePay":8,"maxBonus":9,"perTrialBonus":0.5,"perTrialBonusThreshold":0.05,"exampleCost":0.01},"classroomParams":{"A":{"a":1,"b":4},"B":{"a":4,"b":1},"C":{"a":2,"b":8},"D":{"a":8,"b":2}},"conditions":["nonSeqFull","nonSeqPartial","seqNoFeedback","seqFeedback"],"classroomPairings":[["A","B"],["C","D"]],"coinWeights":[0.2,0.5,0.8],"subjectId":"A25FH7PXC446RG","assignmentId":"3MYYFCXHJ4TPOJAXVIGNMN23CWB4GK","hitId":"3SD15I2WD2G0NA4TSPXGB81L5S7630","url":"https://gershmanlab.com/experiments/alicia/teaching/experiment/?hitId=3SD15I2WD2G0NA4TSPXGB81L5S7630&workerId=A25FH7PXC446RG&assignmentId=3MYYFCXHJ4TPOJAXVIGNMN23CWB4GK&a=HFYM9&tp_a=HFYM9&b=3MYYFCXHJ4TPOJAXVIGNMN23CWB4GK&tp_b=3MYYFCXHJ4TPOJAXVIGNMN23CWB4GK&c=365799&tp_c=365799"},{"view_history":[{"page_index":0,"viewing_time":2038},{"page_index":1,"viewing_time":339},{"page_index":2,"viewing_time":1815},{"page_index":3,"viewing_time":1215},{"page_index":4,"viewing_time":9434},{"page_index":5,"viewing_time":19838},{"page_index":6,"viewing_time":2212}],"rt":36892,"trial_type":"instructions","trial_index":8,"time_elapsed":1030510,"internal_node_id":"0.0-2.2-0.2","params":{"nStudents":24,"maxFlips":30,"completionMinutes":45,"basePay":8,"maxBonus":9,"perTrialBonus":0.5,"perTrialBonusThreshold":0.05,"exampleCost":0.01},"classroomParams":{"A":{"a":1,"b":4},"B":{"a":4,"b":1},"C":{"a":2,"b":8},"D":{"a":8,"b":2}},"conditions":["nonSeqFull","nonSeqPartial","seqNoFeedback","seqFeedback"],"classroomPairings":[["A","B"],["C","D"]],"coinWeights":[0.2,0.5,0.8],"subjectId":"A25FH7PXC446RG","assignmentId":"3MYYFCXHJ4TPOJAXVIGNMN23CWB4GK","hitId":"3SD15I2WD2G0NA4TSPXGB81L5S7630","url":"https://gershmanlab.com/experiments/alicia/teaching/experiment/?hitId=3SD15I2WD2G0NA4TSPXGB81L5S7630&workerId=A25FH7PXC446RG&assignmentId=3MYYFCXHJ4TPOJAXVIGNMN23CWB4GK&a=HFYM9&tp_a=HFYM9&b=3MYYFCXHJ4TPOJAXVIGNMN23CWB4GK&tp_b=3MYYFCXHJ4TPOJAXVIGNMN23CWB4GK&c=365799&tp_c=365799"},{"rt":58146,"response":{"Q0":"Students in different classrooms will have seen a different number of heads and tails before seeing the examples you select for them.","Q1":"By <b>considering the student's classroom information</b> so that I can teach efficiently and accurately/helpfully at the same time (because each example I give to the student costs money!).","Q2":"The coin lands heads 90% of the time.","Q3":"No, I will teach a <b>new</b> student each time.","Q4":"The students are also on the same alien planet as you, where coins can be unfair.","Q5":"Based on the student's second (and final) guess."},"question_order":[4,3,5,2,1,0],"trial_type":"survey-multi-choice","trial_index":9,"time_elapsed":1088657,"internal_node_id":"0.0-2.2-1.2","params":{"nStudents":24,"maxFlips":30,"completionMinutes":45,"basePay":8,"maxBonus":9,"perTrialBonus":0.5,"perTrialBonusThreshold":0.05,"exampleCost":0.01},"classroomParams":{"A":{"a":1,"b":4},"B":{"a":4,"b":1},"C":{"a":2,"b":8},"D":{"a":8,"b":2}},"conditions":["nonSeqFull","nonSeqPartial","seqNoFeedback","seqFeedback"],"classroomPairings":[["A","B"],["C","D"]],"coinWeights":[0.2,0.5,0.8],"subjectId":"A25FH7PXC446RG","assignmentId":"3MYYFCXHJ4TPOJAXVIGNMN23CWB4GK","hitId":"3SD15I2WD2G0NA4TSPXGB81L5S7630","url":"https://gershmanlab.com/experiments/alicia/teaching/experiment/?hitId=3SD15I2WD2G0NA4TSPXGB81L5S7630&workerId=A25FH7PXC446RG&assignmentId=3MYYFCXHJ4TPOJAXVIGNMN23CWB4GK&a=HFYM9&tp_a=HFYM9&b=3MYYFCXHJ4TPOJAXVIGNMN23CWB4GK&tp_b=3MYYFCXHJ4TPOJAXVIGNMN23CWB4GK&c=365799&tp_c=365799","pass":true},{"rt":null,"stimulus":"<div style=\"font-size:30px;\">Congrats on passing the comprehension quiz! The experiment will begin in a few seconds.</div>","response":null,"trial_type":"html-keyboard-response","trial_index":10,"time_elapsed":1091666,"internal_node_id":"0.0-3.0","params":{"nStudents":24,"maxFlips":30,"completionMinutes":45,"basePay":8,"maxBonus":9,"perTrialBonus":0.5,"perTrialBonusThreshold":0.05,"exampleCost":0.01},"classroomParams":{"A":{"a":1,"b":4},"B":{"a":4,"b":1},"C":{"a":2,"b":8},"D":{"a":8,"b":2}},"conditions":["nonSeqFull","nonSeqPartial","seqNoFeedback","seqFeedback"],"classroomPairings":[["A","B"],["C","D"]],"coinWeights":[0.2,0.5,0.8],"subjectId":"A25FH7PXC446RG","assignmentId":"3MYYFCXHJ4TPOJAXVIGNMN23CWB4GK","hitId":"3SD15I2WD2G0NA4TSPXGB81L5S7630","url":"https://gershmanlab.com/experiments/alicia/teaching/experiment/?hitId=3SD15I2WD2G0NA4TSPXGB81L5S7630&workerId=A25FH7PXC446RG&assignmentId=3MYYFCXHJ4TPOJAXVIGNMN23CWB4GK&a=HFYM9&tp_a=HFYM9&b=3MYYFCXHJ4TPOJAXVIGNMN23CWB4GK&tp_b=3MYYFCXHJ4TPOJAXVIGNMN23CWB4GK&c=365799&tp_c=365799"},{"rt":null,"stimulus":"<div style=\"font-size:50px;\">First student</div>","response":null,"trial_type":"html-keyboard-response","trial_index":11,"time_elapsed":1094671,"internal_node_id":"0.0-4.0","params":{"nStudents":24,"maxFlips":30,"completionMinutes":45,"basePay":8,"maxBonus":9,"perTrialBonus":0.5,"perTrialBonusThreshold":0.05,"exampleCost":0.01},"classroomParams":{"A":{"a":1,"b":4},"B":{"a":4,"b":1},"C":{"a":2,"b":8},"D":{"a":8,"b":2}},"conditions":["nonSeqFull","nonSeqPartial","seqNoFeedback","seqFeedback"],"classroomPairings":[["A","B"],["C","D"]],"coinWeights":[0.2,0.5,0.8],"subjectId":"A25FH7PXC446RG","assignmentId":"3MYYFCXHJ4TPOJAXVIGNMN23CWB4GK","hitId":"3SD15I2WD2G0NA4TSPXGB81L5S7630","url":"https://gershmanlab.com/experiments/alicia/teaching/experiment/?hitId=3SD15I2WD2G0NA4TSPXGB81L5S7630&workerId=A25FH7PXC446RG&assignmentId=3MYYFCXHJ4TPOJAXVIGNMN23CWB4GK&a=HFYM9&tp_a=HFYM9&b=3MYYFCXHJ4TPOJAXVIGNMN23CWB4GK&tp_b=3MYYFCXHJ4TPOJAXVIGNMN23CWB4GK&c=365799&tp_c=365799"},{"rt":17026,"stimulus":"\n            <h4 style=\"color:Orange;\">Student 1</h4>\n            <h2>The weight of your coin is <b style=\"color:Tomato;\">0.2</b>.</h2>\n            <p>In this block, you will be giving <b>one</b> set of examples to Student 1.</p>\n                <p>You will receive feedback at the end of the block.</p>\n            <p></p>","response":0,"trial_type":"html-button-response","trial_index":12,"time_elapsed":1111698,"internal_node_id":"0.0-5.0","params":{"nStudents":24,"maxFlips":30,"completionMinutes":45,"basePay":8,"maxBonus":9,"perTrialBonus":0.5,"perTrialBonusThreshold":0.05,"exampleCost":0.01},"classroomParams":{"A":{"a":1,"b":4},"B":{"a":4,"b":1},"C":{"a":2,"b":8},"D":{"a":8,"b":2}},"conditions":["nonSeqFull","nonSeqPartial","seqNoFeedback","seqFeedback"],"classroomPairings":[["A","B"],["C","D"]],"coinWeights":[0.2,0.5,0.8],"subjectId":"A25FH7PXC446RG","assignmentId":"3MYYFCXHJ4TPOJAXVIGNMN23CWB4GK","hitId":"3SD15I2WD2G0NA4TSPXGB81L5S7630","url":"https://gershmanlab.com/experiments/alicia/teaching/experiment/?hitId=3SD15I2WD2G0NA4TSPXGB81L5S7630&workerId=A25FH7PXC446RG&assignmentId=3MYYFCXHJ4TPOJAXVIGNMN23CWB4GK&a=HFYM9&tp_a=HFYM9&b=3MYYFCXHJ4TPOJAXVIGNMN23CWB4GK&tp_b=3MYYFCXHJ4TPOJAXVIGNMN23CWB4GK&c=365799&tp_c=365799"},{"rt":82382,"response":{"heads":"4","tails":"2"},"type":"response","condition":"nonSeqPartial","trueTheta":0.2,"classrooms":["C","D"],"studentTrueClassroom":"C","exampleSet":"first","trial_type":"survey-html-form","trial_index":13,"time_elapsed":1194085,"internal_node_id":"0.0-6.0-0.0","params":{"nStudents":24,"maxFlips":30,"completionMinutes":45,"basePay":8,"maxBonus":9,"perTrialBonus":0.5,"perTrialBonusThreshold":0.05,"exampleCost":0.01},"classroomParams":{"A":{"a":1,"b":4},"B":{"a":4,"b":1},"C":{"a":2,"b":8},"D":{"a":8,"b":2}},"conditions":["nonSeqFull","nonSeqPartial","seqNoFeedback","seqFeedback"],"classroomPairings":[["A","B"],["C","D"]],"coinWeights":[0.2,0.5,0.8],"subjectId":"A25FH7PXC446RG","assignmentId":"3MYYFCXHJ4TPOJAXVIGNMN23CWB4GK","hitId":"3SD15I2WD2G0NA4TSPXGB81L5S7630","url":"https://gershmanlab.com/experiments/alicia/teaching/experiment/?hitId=3SD15I2WD2G0NA4TSPXGB81L5S7630&workerId=A25FH7PXC446RG&assignmentId=3MYYFCXHJ4TPOJAXVIGNMN23CWB4GK&a=HFYM9&tp_a=HFYM9&b=3MYYFCXHJ4TPOJAXVIGNMN23CWB4GK&tp_b=3MYYFCXHJ4TPOJAXVIGNMN23CWB4GK&c=365799&tp_c=365799","heads":4,"tails":2,"studentIndex":0,"studentTrueHypers":{"a":2,"b":8},"studentGuess":0.375,"delta":0.175,"totalExamples":6,"bonus":0,"bonusSoFar":0},{"rt":null,"stimulus":"Sending examples to student... ","response":null,"trial_type":"html-keyboard-response","trial_index":14,"time_elapsed":1195351,"internal_node_id":"0.0-7.0","params":{"nStudents":24,"maxFlips":30,"completionMinutes":45,"basePay":8,"maxBonus":9,"perTrialBonus":0.5,"perTrialBonusThreshold":0.05,"exampleCost":0.01},"classroomParams":{"A":{"a":1,"b":4},"B":{"a":4,"b":1},"C":{"a":2,"b":8},"D":{"a":8,"b":2}},"conditions":["nonSeqFull","nonSeqPartial","seqNoFeedback","seqFeedback"],"classroomPairings":[["A","B"],["C","D"]],"coinWeights":[0.2,0.5,0.8],"subjectId":"A25FH7PXC446RG","assignmentId":"3MYYFCXHJ4TPOJAXVIGNMN23CWB4GK","hitId":"3SD15I2WD2G0NA4TSPXGB81L5S7630","url":"https://gershmanlab.com/experiments/alicia/teaching/experiment/?hitId=3SD15I2WD2G0NA4TSPXGB81L5S7630&workerId=A25FH7PXC446RG&assignmentId=3MYYFCXHJ4TPOJAXVIGNMN23CWB4GK&a=HFYM9&tp_a=HFYM9&b=3MYYFCXHJ4TPOJAXVIGNMN23CWB4GK&tp_b=3MYYFCXHJ4TPOJAXVIGNMN23CWB4GK&c=365799&tp_c=365799"},{"rt":null,"stimulus":"Examples sent to student! Waiting for student...","response":null,"trial_type":"html-keyboard-response","trial_index":15,"time_elapsed":1199867,"internal_node_id":"0.0-8.0","params":{"nStudents":24,"maxFlips":30,"completionMinutes":45,"basePay":8,"maxBonus":9,"perTrialBonus":0.5,"perTrialBonusThreshold":0.05,"exampleCost":0.01},"classroomParams":{"A":{"a":1,"b":4},"B":{"a":4,"b":1},"C":{"a":2,"b":8},"D":{"a":8,"b":2}},"conditions":["nonSeqFull","nonSeqPartial","seqNoFeedback","seqFeedback"],"classroomPairings":[["A","B"],["C","D"]],"coinWeights":[0.2,0.5,0.8],"subjectId":"A25FH7PXC446RG","assignmentId":"3MYYFCXHJ4TPOJAXVIGNMN23CWB4GK","hitId":"3SD15I2WD2G0NA4TSPXGB81L5S7630","url":"https://gershmanlab.com/experiments/alicia/teaching/experiment/?hitId=3SD15I2WD2G0NA4TSPXGB81L5S7630&workerId=A25FH7PXC446RG&assignmentId=3MYYFCXHJ4TPOJAXVIGNMN23CWB4GK&a=HFYM9&tp_a=HFYM9&b=3MYYFCXHJ4TPOJAXVIGNMN23CWB4GK&tp_b=3MYYFCXHJ4TPOJAXVIGNMN23CWB4GK&c=365799&tp_c=365799"},{"rt":7344,"stimulus":"\n                <p>Student's guess for coin weight: <b style=\"color:Tomato;\">0.38</b></p>\n                <p>You received a bonus of <b>$0</b>. Total bonus so far: <b>$0.00</b></b></p>\n                <p></p>\n                <p>Press any key to continue.</p>\n                ","response":" ","trial_type":"html-keyboard-response","trial_index":16,"time_elapsed":1207212,"internal_node_id":"0.0-9.0","params":{"nStudents":24,"maxFlips":30,"completionMinutes":45,"basePay":8,"maxBonus":9,"perTrialBonus":0.5,"perTrialBonusThreshold":0.05,"exampleCost":0.01},"classroomParams":{"A":{"a":1,"b":4},"B":{"a":4,"b":1},"C":{"a":2,"b":8},"D":{"a":8,"b":2}},"conditions":["nonSeqFull","nonSeqPartial","seqNoFeedback","seqFeedback"],"classroomPairings":[["A","B"],["C","D"]],"coinWeights":[0.2,0.5,0.8],"subjectId":"A25FH7PXC446RG","assignmentId":"3MYYFCXHJ4TPOJAXVIGNMN23CWB4GK","hitId":"3SD15I2WD2G0NA4TSPXGB81L5S7630","url":"https://gershmanlab.com/experiments/alicia/teaching/experiment/?hitId=3SD15I2WD2G0NA4TSPXGB81L5S7630&workerId=A25FH7PXC446RG&assignmentId=3MYYFCXHJ4TPOJAXVIGNMN23CWB4GK&a=HFYM9&tp_a=HFYM9&b=3MYYFCXHJ4TPOJAXVIGNMN23CWB4GK&tp_b=3MYYFCXHJ4TPOJAXVIGNMN23CWB4GK&c=365799&tp_c=365799"},{"rt":null,"stimulus":"<div style=\"font-size:60px;\">Next student</div>","response":null,"trial_type":"html-keyboard-response","trial_index":17,"time_elapsed":1209229,"internal_node_id":"0.0-10.0-0.0","params":{"nStudents":24,"maxFlips":30,"completionMinutes":45,"basePay":8,"maxBonus":9,"perTrialBonus":0.5,"perTrialBonusThreshold":0.05,"exampleCost":0.01},"classroomParams":{"A":{"a":1,"b":4},"B":{"a":4,"b":1},"C":{"a":2,"b":8},"D":{"a":8,"b":2}},"conditions":["nonSeqFull","nonSeqPartial","seqNoFeedback","seqFeedback"],"classroomPairings":[["A","B"],["C","D"]],"coinWeights":[0.2,0.5,0.8],"subjectId":"A25FH7PXC446RG","assignmentId":"3MYYFCXHJ4TPOJAXVIGNMN23CWB4GK","hitId":"3SD15I2WD2G0NA4TSPXGB81L5S7630","url":"https://gershmanlab.com/experiments/alicia/teaching/experiment/?hitId=3SD15I2WD2G0NA4TSPXGB81L5S7630&workerId=A25FH7PXC446RG&assignmentId=3MYYFCXHJ4TPOJAXVIGNMN23CWB4GK&a=HFYM9&tp_a=HFYM9&b=3MYYFCXHJ4TPOJAXVIGNMN23CWB4GK&tp_b=3MYYFCXHJ4TPOJAXVIGNMN23CWB4GK&c=365799&tp_c=365799"},{"rt":19802,"stimulus":"\n            <h4 style=\"color:Orange;\">Student 2</h4>\n            <h2>The weight of your coin is <b style=\"color:Tomato;\">0.8</b>.</h2>\n            <p>In this block, you will be giving <b>two</b> sets of examples to Student 2.</p>\n                <p>You will see the student's guess after the first set of examples. You will also receive feedback at the end of the block.</p>\n            <p>To earn the highest bonus, you will have to <b>take into consideration the student's guess</b> when you choose your second set of examples.</p>","response":0,"trial_type":"html-button-response","trial_index":18,"time_elapsed":1229032,"internal_node_id":"0.0-11.0","params":{"nStudents":24,"maxFlips":30,"completionMinutes":45,"basePay":8,"maxBonus":9,"perTrialBonus":0.5,"perTrialBonusThreshold":0.05,"exampleCost":0.01},"classroomParams":{"A":{"a":1,"b":4},"B":{"a":4,"b":1},"C":{"a":2,"b":8},"D":{"a":8,"b":2}},"conditions":["nonSeqFull","nonSeqPartial","seqNoFeedback","seqFeedback"],"classroomPairings":[["A","B"],["C","D"]],"coinWeights":[0.2,0.5,0.8],"subjectId":"A25FH7PXC446RG","assignmentId":"3MYYFCXHJ4TPOJAXVIGNMN23CWB4GK","hitId":"3SD15I2WD2G0NA4TSPXGB81L5S7630","url":"https://gershmanlab.com/experiments/alicia/teaching/experiment/?hitId=3SD15I2WD2G0NA4TSPXGB81L5S7630&workerId=A25FH7PXC446RG&assignmentId=3MYYFCXHJ4TPOJAXVIGNMN23CWB4GK&a=HFYM9&tp_a=HFYM9&b=3MYYFCXHJ4TPOJAXVIGNMN23CWB4GK&tp_b=3MYYFCXHJ4TPOJAXVIGNMN23CWB4GK&c=365799&tp_c=365799"},{"rt":33341,"response":{"heads":"1","tails":"3"},"type":"response","condition":"seqFeedback","trueTheta":0.8,"classrooms":["A","B"],"studentTrueClassroom":"B","exampleSet":"first","trial_type":"survey-html-form","trial_index":19,"time_elapsed":1262375,"internal_node_id":"0.0-12.0-0.0","params":{"nStudents":24,"maxFlips":30,"completionMinutes":45,"basePay":8,"maxBonus":9,"perTrialBonus":0.5,"perTrialBonusThreshold":0.05,"exampleCost":0.01},"classroomParams":{"A":{"a":1,"b":4},"B":{"a":4,"b":1},"C":{"a":2,"b":8},"D":{"a":8,"b":2}},"conditions":["nonSeqFull","nonSeqPartial","seqNoFeedback","seqFeedback"],"classroomPairings":[["A","B"],["C","D"]],"coinWeights":[0.2,0.5,0.8],"subjectId":"A25FH7PXC446RG","assignmentId":"3MYYFCXHJ4TPOJAXVIGNMN23CWB4GK","hitId":"3SD15I2WD2G0NA4TSPXGB81L5S7630","url":"https://gershmanlab.com/experiments/alicia/teaching/experiment/?hitId=3SD15I2WD2G0NA4TSPXGB81L5S7630&workerId=A25FH7PXC446RG&assignmentId=3MYYFCXHJ4TPOJAXVIGNMN23CWB4GK&a=HFYM9&tp_a=HFYM9&b=3MYYFCXHJ4TPOJAXVIGNMN23CWB4GK&tp_b=3MYYFCXHJ4TPOJAXVIGNMN23CWB4GK&c=365799&tp_c=365799","heads":1,"tails":3,"studentIndex":1,"studentTrueHypers":{"a":4,"b":1},"studentGuess":0.5555555555555556,"delta":0.24444444444444446,"totalExamples":4,"bonusSoFar":0},{"rt":null,"stimulus":"Sending examples to student... ","response":null,"trial_type":"html-keyboard-response","trial_index":20,"time_elapsed":1263629,"internal_node_id":"0.0-13.0","params":{"nStudents":24,"maxFlips":30,"completionMinutes":45,"basePay":8,"maxBonus":9,"perTrialBonus":0.5,"perTrialBonusThreshold":0.05,"exampleCost":0.01},"classroomParams":{"A":{"a":1,"b":4},"B":{"a":4,"b":1},"C":{"a":2,"b":8},"D":{"a":8,"b":2}},"conditions":["nonSeqFull","nonSeqPartial","seqNoFeedback","seqFeedback"],"classroomPairings":[["A","B"],["C","D"]],"coinWeights":[0.2,0.5,0.8],"subjectId":"A25FH7PXC446RG","assignmentId":"3MYYFCXHJ4TPOJAXVIGNMN23CWB4GK","hitId":"3SD15I2WD2G0NA4TSPXGB81L5S7630","url":"https://gershmanlab.com/experiments/alicia/teaching/experiment/?hitId=3SD15I2WD2G0NA4TSPXGB81L5S7630&workerId=A25FH7PXC446RG&assignmentId=3MYYFCXHJ4TPOJAXVIGNMN23CWB4GK&a=HFYM9&tp_a=HFYM9&b=3MYYFCXHJ4TPOJAXVIGNMN23CWB4GK&tp_b=3MYYFCXHJ4TPOJAXVIGNMN23CWB4GK&c=365799&tp_c=365799"},{"rt":null,"stimulus":"Examples sent to student! Waiting for student...","response":null,"trial_type":"html-keyboard-response","trial_index":21,"time_elapsed":1267635,"internal_node_id":"0.0-14.0","params":{"nStudents":24,"maxFlips":30,"completionMinutes":45,"basePay":8,"maxBonus":9,"perTrialBonus":0.5,"perTrialBonusThreshold":0.05,"exampleCost":0.01},"classroomParams":{"A":{"a":1,"b":4},"B":{"a":4,"b":1},"C":{"a":2,"b":8},"D":{"a":8,"b":2}},"conditions":["nonSeqFull","nonSeqPartial","seqNoFeedback","seqFeedback"],"classroomPairings":[["A","B"],["C","D"]],"coinWeights":[0.2,0.5,0.8],"subjectId":"A25FH7PXC446RG","assignmentId":"3MYYFCXHJ4TPOJAXVIGNMN23CWB4GK","hitId":"3SD15I2WD2G0NA4TSPXGB81L5S7630","url":"https://gershmanlab.com/experiments/alicia/teaching/experiment/?hitId=3SD15I2WD2G0NA4TSPXGB81L5S7630&workerId=A25FH7PXC446RG&assignmentId=3MYYFCXHJ4TPOJAXVIGNMN23CWB4GK&a=HFYM9&tp_a=HFYM9&b=3MYYFCXHJ4TPOJAXVIGNMN23CWB4GK&tp_b=3MYYFCXHJ4TPOJAXVIGNMN23CWB4GK&c=365799&tp_c=365799"},{"rt":null,"stimulus":"\n                <p>Student's guess for coin weight: <b style=\"color:Tomato;\">0.56</b></p>\n                <p></b></p>\n                <p>You will now send another set of examples to your student. <b>Remember to take your student's guess into consideration so that you can earn the highest bonus possible!</b> </p>\n                <p>Press any key to continue.</p>\n                ","response":null,"trial_type":"html-keyboard-response","trial_index":22,"time_elapsed":1298190,"internal_node_id":"0.0-15.0","params":{"nStudents":24,"maxFlips":30,"completionMinutes":45,"basePay":8,"maxBonus":9,"perTrialBonus":0.5,"perTrialBonusThreshold":0.05,"exampleCost":0.01},"classroomParams":{"A":{"a":1,"b":4},"B":{"a":4,"b":1},"C":{"a":2,"b":8},"D":{"a":8,"b":2}},"conditions":["nonSeqFull","nonSeqPartial","seqNoFeedback","seqFeedback"],"classroomPairings":[["A","B"],["C","D"]],"coinWeights":[0.2,0.5,0.8],"subjectId":"A25FH7PXC446RG","assignmentId":"3MYYFCXHJ4TPOJAXVIGNMN23CWB4GK","hitId":"3SD15I2WD2G0NA4TSPXGB81L5S7630","url":"https://gershmanlab.com/experiments/alicia/teaching/experiment/?hitId=3SD15I2WD2G0NA4TSPXGB81L5S7630&workerId=A25FH7PXC446RG&assignmentId=3MYYFCXHJ4TPOJAXVIGNMN23CWB4GK&a=HFYM9&tp_a=HFYM9&b=3MYYFCXHJ4TPOJAXVIGNMN23CWB4GK&tp_b=3MYYFCXHJ4TPOJAXVIGNMN23CWB4GK&c=365799&tp_c=365799"},{"rt":134845,"response":{"heads":"8","tails":"4"},"type":"response","condition":"seqFeedback","trueTheta":0.8,"classrooms":["A","B"],"studentTrueClassroom":"B","exampleSet":"second","trial_type":"survey-html-form","trial_index":23,"time_elapsed":1433037,"internal_node_id":"0.0-16.0-0.0","params":{"nStudents":24,"maxFlips":30,"completionMinutes":45,"basePay":8,"maxBonus":9,"perTrialBonus":0.5,"perTrialBonusThreshold":0.05,"exampleCost":0.01},"classroomParams":{"A":{"a":1,"b":4},"B":{"a":4,"b":1},"C":{"a":2,"b":8},"D":{"a":8,"b":2}},"conditions":["nonSeqFull","nonSeqPartial","seqNoFeedback","seqFeedback"],"classroomPairings":[["A","B"],["C","D"]],"coinWeights":[0.2,0.5,0.8],"subjectId":"A25FH7PXC446RG","assignmentId":"3MYYFCXHJ4TPOJAXVIGNMN23CWB4GK","hitId":"3SD15I2WD2G0NA4TSPXGB81L5S7630","url":"https://gershmanlab.com/experiments/alicia/teaching/experiment/?hitId=3SD15I2WD2G0NA4TSPXGB81L5S7630&workerId=A25FH7PXC446RG&assignmentId=3MYYFCXHJ4TPOJAXVIGNMN23CWB4GK&a=HFYM9&tp_a=HFYM9&b=3MYYFCXHJ4TPOJAXVIGNMN23CWB4GK&tp_b=3MYYFCXHJ4TPOJAXVIGNMN23CWB4GK&c=365799&tp_c=365799","firstResponseHeads":1,"firstResponseTails":3,"secondResponseHeads":8,"secondResponseTails":4,"totalHeads":9,"totalTails":7,"studentIndex":1,"studentTrueHypers":{"a":4,"b":1},"studentGuess":0.6190476190476191,"delta":0.18095238095238098,"bonus":0,"bonusSoFar":0,"totalExamples":16},{"rt":null,"stimulus":"Sending examples to student... ","response":null,"trial_type":"html-keyboard-response","trial_index":24,"time_elapsed":1434797,"internal_node_id":"0.0-17.0","params":{"nStudents":24,"maxFlips":30,"completionMinutes":45,"basePay":8,"maxBonus":9,"perTrialBonus":0.5,"perTrialBonusThreshold":0.05,"exampleCost":0.01},"classroomParams":{"A":{"a":1,"b":4},"B":{"a":4,"b":1},"C":{"a":2,"b":8},"D":{"a":8,"b":2}},"conditions":["nonSeqFull","nonSeqPartial","seqNoFeedback","seqFeedback"],"classroomPairings":[["A","B"],["C","D"]],"coinWeights":[0.2,0.5,0.8],"subjectId":"A25FH7PXC446RG","assignmentId":"3MYYFCXHJ4TPOJAXVIGNMN23CWB4GK","hitId":"3SD15I2WD2G0NA4TSPXGB81L5S7630","url":"https://gershmanlab.com/experiments/alicia/teaching/experiment/?hitId=3SD15I2WD2G0NA4TSPXGB81L5S7630&workerId=A25FH7PXC446RG&assignmentId=3MYYFCXHJ4TPOJAXVIGNMN23CWB4GK&a=HFYM9&tp_a=HFYM9&b=3MYYFCXHJ4TPOJAXVIGNMN23CWB4GK&tp_b=3MYYFCXHJ4TPOJAXVIGNMN23CWB4GK&c=365799&tp_c=365799"},{"rt":null,"stimulus":"Examples sent to student! Waiting for student...","response":null,"trial_type":"html-keyboard-response","trial_index":25,"time_elapsed":1440804,"internal_node_id":"0.0-18.0","params":{"nStudents":24,"maxFlips":30,"completionMinutes":45,"basePay":8,"maxBonus":9,"perTrialBonus":0.5,"perTrialBonusThreshold":0.05,"exampleCost":0.01},"classroomParams":{"A":{"a":1,"b":4},"B":{"a":4,"b":1},"C":{"a":2,"b":8},"D":{"a":8,"b":2}},"conditions":["nonSeqFull","nonSeqPartial","seqNoFeedback","seqFeedback"],"classroomPairings":[["A","B"],["C","D"]],"coinWeights":[0.2,0.5,0.8],"subjectId":"A25FH7PXC446RG","assignmentId":"3MYYFCXHJ4TPOJAXVIGNMN23CWB4GK","hitId":"3SD15I2WD2G0NA4TSPXGB81L5S7630","url":"https://gershmanlab.com/experiments/alicia/teaching/experiment/?hitId=3SD15I2WD2G0NA4TSPXGB81L5S7630&workerId=A25FH7PXC446RG&assignmentId=3MYYFCXHJ4TPOJAXVIGNMN23CWB4GK&a=HFYM9&tp_a=HFYM9&b=3MYYFCXHJ4TPOJAXVIGNMN23CWB4GK&tp_b=3MYYFCXHJ4TPOJAXVIGNMN23CWB4GK&c=365799&tp_c=365799"},{"rt":null,"stimulus":"\n                <p>Student 2's first guess for coin weight: <b style=\"color:Tomato\";>0.56</b></p>\n                <p>Student 2's second guess for coin weight: <b style=\"color:Tomato\";>0.62</b></p>\n                <p>You received a bonus of <b>$0.00</b> based on the student's second guess.</p>\n                <p>Total bonus so far: <b>$0.00</b></p>\n                <p>Press any key to continue.</p>\n                ","response":null,"trial_type":"html-keyboard-response","trial_index":26,"time_elapsed":1471187,"internal_node_id":"0.0-19.0","params":{"nStudents":24,"maxFlips":30,"completionMinutes":45,"basePay":8,"maxBonus":9,"perTrialBonus":0.5,"perTrialBonusThreshold":0.05,"exampleCost":0.01},"classroomParams":{"A":{"a":1,"b":4},"B":{"a":4,"b":1},"C":{"a":2,"b":8},"D":{"a":8,"b":2}},"conditions":["nonSeqFull","nonSeqPartial","seqNoFeedback","seqFeedback"],"classroomPairings":[["A","B"],["C","D"]],"coinWeights":[0.2,0.5,0.8],"subjectId":"A25FH7PXC446RG","assignmentId":"3MYYFCXHJ4TPOJAXVIGNMN23CWB4GK","hitId":"3SD15I2WD2G0NA4TSPXGB81L5S7630","url":"https://gershmanlab.com/experiments/alicia/teaching/experiment/?hitId=3SD15I2WD2G0NA4TSPXGB81L5S7630&workerId=A25FH7PXC446RG&assignmentId=3MYYFCXHJ4TPOJAXVIGNMN23CWB4GK&a=HFYM9&tp_a=HFYM9&b=3MYYFCXHJ4TPOJAXVIGNMN23CWB4GK&tp_b=3MYYFCXHJ4TPOJAXVIGNMN23CWB4GK&c=365799&tp_c=365799"},{"rt":null,"stimulus":"<div style=\"font-size:60px;\">Next student</div>","response":null,"trial_type":"html-keyboard-response","trial_index":27,"time_elapsed":1475188,"internal_node_id":"0.0-20.0-0.0","params":{"nStudents":24,"maxFlips":30,"completionMinutes":45,"basePay":8,"maxBonus":9,"perTrialBonus":0.5,"perTrialBonusThreshold":0.05,"exampleCost":0.01},"classroomParams":{"A":{"a":1,"b":4},"B":{"a":4,"b":1},"C":{"a":2,"b":8},"D":{"a":8,"b":2}},"conditions":["nonSeqFull","nonSeqPartial","seqNoFeedback","seqFeedback"],"classroomPairings":[["A","B"],["C","D"]],"coinWeights":[0.2,0.5,0.8],"subjectId":"A25FH7PXC446RG","assignmentId":"3MYYFCXHJ4TPOJAXVIGNMN23CWB4GK","hitId":"3SD15I2WD2G0NA4TSPXGB81L5S7630","url":"https://gershmanlab.com/experiments/alicia/teaching/experiment/?hitId=3SD15I2WD2G0NA4TSPXGB81L5S7630&workerId=A25FH7PXC446RG&assignmentId=3MYYFCXHJ4TPOJAXVIGNMN23CWB4GK&a=HFYM9&tp_a=HFYM9&b=3MYYFCXHJ4TPOJAXVIGNMN23CWB4GK&tp_b=3MYYFCXHJ4TPOJAXVIGNMN23CWB4GK&c=365799&tp_c=365799"},{"rt":400046,"stimulus":"\n            <h4 style=\"color:Orange;\">Student 3</h4>\n            <h2>The weight of your coin is <b style=\"color:Tomato;\">0.8</b>.</h2>\n            <p>In this block, you will be giving <b>two</b> sets of examples to Student 3.</p>\n                <p>You will receive feedback at the end of the block.</p>\n            <p></p>","response":0,"trial_type":"html-button-response","trial_index":28,"time_elapsed":1875237,"internal_node_id":"0.0-21.0","params":{"nStudents":24,"maxFlips":30,"completionMinutes":45,"basePay":8,"maxBonus":9,"perTrialBonus":0.5,"perTrialBonusThreshold":0.05,"exampleCost":0.01},"classroomParams":{"A":{"a":1,"b":4},"B":{"a":4,"b":1},"C":{"a":2,"b":8},"D":{"a":8,"b":2}},"conditions":["nonSeqFull","nonSeqPartial","seqNoFeedback","seqFeedback"],"classroomPairings":[["A","B"],["C","D"]],"coinWeights":[0.2,0.5,0.8],"subjectId":"A25FH7PXC446RG","assignmentId":"3MYYFCXHJ4TPOJAXVIGNMN23CWB4GK","hitId":"3SD15I2WD2G0NA4TSPXGB81L5S7630","url":"https://gershmanlab.com/experiments/alicia/teaching/experiment/?hitId=3SD15I2WD2G0NA4TSPXGB81L5S7630&workerId=A25FH7PXC446RG&assignmentId=3MYYFCXHJ4TPOJAXVIGNMN23CWB4GK&a=HFYM9&tp_a=HFYM9&b=3MYYFCXHJ4TPOJAXVIGNMN23CWB4GK&tp_b=3MYYFCXHJ4TPOJAXVIGNMN23CWB4GK&c=365799&tp_c=365799"},{"rt":41594,"response":{"heads":"15","tails":"8"},"type":"response","condition":"seqNoFeedback","trueTheta":0.8,"classrooms":["C","D"],"studentTrueClassroom":"D","exampleSet":"first","trial_type":"survey-html-form","trial_index":29,"time_elapsed":1916833,"internal_node_id":"0.0-22.0-0.0","params":{"nStudents":24,"maxFlips":30,"completionMinutes":45,"basePay":8,"maxBonus":9,"perTrialBonus":0.5,"perTrialBonusThreshold":0.05,"exampleCost":0.01},"classroomParams":{"A":{"a":1,"b":4},"B":{"a":4,"b":1},"C":{"a":2,"b":8},"D":{"a":8,"b":2}},"conditions":["nonSeqFull","nonSeqPartial","seqNoFeedback","seqFeedback"],"classroomPairings":[["A","B"],["C","D"]],"coinWeights":[0.2,0.5,0.8],"subjectId":"A25FH7PXC446RG","assignmentId":"3MYYFCXHJ4TPOJAXVIGNMN23CWB4GK","hitId":"3SD15I2WD2G0NA4TSPXGB81L5S7630","url":"https://gershmanlab.com/experiments/alicia/teaching/experiment/?hitId=3SD15I2WD2G0NA4TSPXGB81L5S7630&workerId=A25FH7PXC446RG&assignmentId=3MYYFCXHJ4TPOJAXVIGNMN23CWB4GK&a=HFYM9&tp_a=HFYM9&b=3MYYFCXHJ4TPOJAXVIGNMN23CWB4GK&tp_b=3MYYFCXHJ4TPOJAXVIGNMN23CWB4GK&c=365799&tp_c=365799","heads":15,"tails":8,"studentIndex":2,"studentTrueHypers":{"a":8,"b":2},"studentGuess":0.696969696969697,"delta":0.10303030303030303,"totalExamples":23,"bonusSoFar":0},{"rt":null,"stimulus":"Sending examples to student... ","response":null,"trial_type":"html-keyboard-response","trial_index":30,"time_elapsed":1918838,"internal_node_id":"0.0-23.0","params":{"nStudents":24,"maxFlips":30,"completionMinutes":45,"basePay":8,"maxBonus":9,"perTrialBonus":0.5,"perTrialBonusThreshold":0.05,"exampleCost":0.01},"classroomParams":{"A":{"a":1,"b":4},"B":{"a":4,"b":1},"C":{"a":2,"b":8},"D":{"a":8,"b":2}},"conditions":["nonSeqFull","nonSeqPartial","seqNoFeedback","seqFeedback"],"classroomPairings":[["A","B"],["C","D"]],"coinWeights":[0.2,0.5,0.8],"subjectId":"A25FH7PXC446RG","assignmentId":"3MYYFCXHJ4TPOJAXVIGNMN23CWB4GK","hitId":"3SD15I2WD2G0NA4TSPXGB81L5S7630","url":"https://gershmanlab.com/experiments/alicia/teaching/experiment/?hitId=3SD15I2WD2G0NA4TSPXGB81L5S7630&workerId=A25FH7PXC446RG&assignmentId=3MYYFCXHJ4TPOJAXVIGNMN23CWB4GK&a=HFYM9&tp_a=HFYM9&b=3MYYFCXHJ4TPOJAXVIGNMN23CWB4GK&tp_b=3MYYFCXHJ4TPOJAXVIGNMN23CWB4GK&c=365799&tp_c=365799"},{"rt":null,"stimulus":"Examples sent to student! Waiting for student...","response":null,"trial_type":"html-keyboard-response","trial_index":31,"time_elapsed":1922856,"internal_node_id":"0.0-24.0","params":{"nStudents":24,"maxFlips":30,"completionMinutes":45,"basePay":8,"maxBonus":9,"perTrialBonus":0.5,"perTrialBonusThreshold":0.05,"exampleCost":0.01},"classroomParams":{"A":{"a":1,"b":4},"B":{"a":4,"b":1},"C":{"a":2,"b":8},"D":{"a":8,"b":2}},"conditions":["nonSeqFull","nonSeqPartial","seqNoFeedback","seqFeedback"],"classroomPairings":[["A","B"],["C","D"]],"coinWeights":[0.2,0.5,0.8],"subjectId":"A25FH7PXC446RG","assignmentId":"3MYYFCXHJ4TPOJAXVIGNMN23CWB4GK","hitId":"3SD15I2WD2G0NA4TSPXGB81L5S7630","url":"https://gershmanlab.com/experiments/alicia/teaching/experiment/?hitId=3SD15I2WD2G0NA4TSPXGB81L5S7630&workerId=A25FH7PXC446RG&assignmentId=3MYYFCXHJ4TPOJAXVIGNMN23CWB4GK&a=HFYM9&tp_a=HFYM9&b=3MYYFCXHJ4TPOJAXVIGNMN23CWB4GK&tp_b=3MYYFCXHJ4TPOJAXVIGNMN23CWB4GK&c=365799&tp_c=365799"},{"rt":20666,"response":{"heads":"20","tails":"10"},"type":"response","condition":"seqNoFeedback","trueTheta":0.8,"classrooms":["C","D"],"studentTrueClassroom":"D","exampleSet":"second","trial_type":"survey-html-form","trial_index":32,"time_elapsed":1943526,"internal_node_id":"0.0-25.0-0.0","params":{"nStudents":24,"maxFlips":30,"completionMinutes":45,"basePay":8,"maxBonus":9,"perTrialBonus":0.5,"perTrialBonusThreshold":0.05,"exampleCost":0.01},"classroomParams":{"A":{"a":1,"b":4},"B":{"a":4,"b":1},"C":{"a":2,"b":8},"D":{"a":8,"b":2}},"conditions":["nonSeqFull","nonSeqPartial","seqNoFeedback","seqFeedback"],"classroomPairings":[["A","B"],["C","D"]],"coinWeights":[0.2,0.5,0.8],"subjectId":"A25FH7PXC446RG","assignmentId":"3MYYFCXHJ4TPOJAXVIGNMN23CWB4GK","hitId":"3SD15I2WD2G0NA4TSPXGB81L5S7630","url":"https://gershmanlab.com/experiments/alicia/teaching/experiment/?hitId=3SD15I2WD2G0NA4TSPXGB81L5S7630&workerId=A25FH7PXC446RG&assignmentId=3MYYFCXHJ4TPOJAXVIGNMN23CWB4GK&a=HFYM9&tp_a=HFYM9&b=3MYYFCXHJ4TPOJAXVIGNMN23CWB4GK&tp_b=3MYYFCXHJ4TPOJAXVIGNMN23CWB4GK&c=365799&tp_c=365799","firstResponseHeads":15,"firstResponseTails":8,"secondResponseHeads":20,"secondResponseTails":10,"totalHeads":35,"totalTails":18,"studentIndex":2,"studentTrueHypers":{"a":8,"b":2},"studentGuess":0.6825396825396826,"delta":0.11746031746031749,"bonus":0,"bonusSoFar":0,"totalExamples":53},{"rt":null,"stimulus":"Sending examples to student... ","response":null,"trial_type":"html-keyboard-response","trial_index":33,"time_elapsed":1944793,"internal_node_id":"0.0-26.0","params":{"nStudents":24,"maxFlips":30,"completionMinutes":45,"basePay":8,"maxBonus":9,"perTrialBonus":0.5,"perTrialBonusThreshold":0.05,"exampleCost":0.01},"classroomParams":{"A":{"a":1,"b":4},"B":{"a":4,"b":1},"C":{"a":2,"b":8},"D":{"a":8,"b":2}},"conditions":["nonSeqFull","nonSeqPartial","seqNoFeedback","seqFeedback"],"classroomPairings":[["A","B"],["C","D"]],"coinWeights":[0.2,0.5,0.8],"subjectId":"A25FH7PXC446RG","assignmentId":"3MYYFCXHJ4TPOJAXVIGNMN23CWB4GK","hitId":"3SD15I2WD2G0NA4TSPXGB81L5S7630","url":"https://gershmanlab.com/experiments/alicia/teaching/experiment/?hitId=3SD15I2WD2G0NA4TSPXGB81L5S7630&workerId=A25FH7PXC446RG&assignmentId=3MYYFCXHJ4TPOJAXVIGNMN23CWB4GK&a=HFYM9&tp_a=HFYM9&b=3MYYFCXHJ4TPOJAXVIGNMN23CWB4GK&tp_b=3MYYFCXHJ4TPOJAXVIGNMN23CWB4GK&c=365799&tp_c=365799"},{"rt":null,"stimulus":"Examples sent to student! Waiting for student...","response":null,"trial_type":"html-keyboard-response","trial_index":34,"time_elapsed":1949809,"internal_node_id":"0.0-27.0","params":{"nStudents":24,"maxFlips":30,"completionMinutes":45,"basePay":8,"maxBonus":9,"perTrialBonus":0.5,"perTrialBonusThreshold":0.05,"exampleCost":0.01},"classroomParams":{"A":{"a":1,"b":4},"B":{"a":4,"b":1},"C":{"a":2,"b":8},"D":{"a":8,"b":2}},"conditions":["nonSeqFull","nonSeqPartial","seqNoFeedback","seqFeedback"],"classroomPairings":[["A","B"],["C","D"]],"coinWeights":[0.2,0.5,0.8],"subjectId":"A25FH7PXC446RG","assignmentId":"3MYYFCXHJ4TPOJAXVIGNMN23CWB4GK","hitId":"3SD15I2WD2G0NA4TSPXGB81L5S7630","url":"https://gershmanlab.com/experiments/alicia/teaching/experiment/?hitId=3SD15I2WD2G0NA4TSPXGB81L5S7630&workerId=A25FH7PXC446RG&assignmentId=3MYYFCXHJ4TPOJAXVIGNMN23CWB4GK&a=HFYM9&tp_a=HFYM9&b=3MYYFCXHJ4TPOJAXVIGNMN23CWB4GK&tp_b=3MYYFCXHJ4TPOJAXVIGNMN23CWB4GK&c=365799&tp_c=365799"},{"rt":7173,"stimulus":"\n                <p>Student 3's first guess for coin weight: <b style=\"color:Tomato\";>0.70</b></p>\n                <p>Student 3's second guess for coin weight: <b style=\"color:Tomato\";>0.68</b></p>\n                <p>You received a bonus of <b>$0.00</b> based on the student's second guess.</p>\n                <p>Total bonus so far: <b>$0.00</b></p>\n                <p>Press any key to continue.</p>\n                ","response":" ","trial_type":"html-keyboard-response","trial_index":35,"time_elapsed":1956985,"internal_node_id":"0.0-28.0","params":{"nStudents":24,"maxFlips":30,"completionMinutes":45,"basePay":8,"maxBonus":9,"perTrialBonus":0.5,"perTrialBonusThreshold":0.05,"exampleCost":0.01},"classroomParams":{"A":{"a":1,"b":4},"B":{"a":4,"b":1},"C":{"a":2,"b":8},"D":{"a":8,"b":2}},"conditions":["nonSeqFull","nonSeqPartial","seqNoFeedback","seqFeedback"],"classroomPairings":[["A","B"],["C","D"]],"coinWeights":[0.2,0.5,0.8],"subjectId":"A25FH7PXC446RG","assignmentId":"3MYYFCXHJ4TPOJAXVIGNMN23CWB4GK","hitId":"3SD15I2WD2G0NA4TSPXGB81L5S7630","url":"https://gershmanlab.com/experiments/alicia/teaching/experiment/?hitId=3SD15I2WD2G0NA4TSPXGB81L5S7630&workerId=A25FH7PXC446RG&assignmentId=3MYYFCXHJ4TPOJAXVIGNMN23CWB4GK&a=HFYM9&tp_a=HFYM9&b=3MYYFCXHJ4TPOJAXVIGNMN23CWB4GK&tp_b=3MYYFCXHJ4TPOJAXVIGNMN23CWB4GK&c=365799&tp_c=365799"},{"rt":null,"stimulus":"<div style=\"font-size:60px;\">Next student</div>","response":null,"trial_type":"html-keyboard-response","trial_index":36,"time_elapsed":1959489,"internal_node_id":"0.0-29.0-0.0","params":{"nStudents":24,"maxFlips":30,"completionMinutes":45,"basePay":8,"maxBonus":9,"perTrialBonus":0.5,"perTrialBonusThreshold":0.05,"exampleCost":0.01},"classroomParams":{"A":{"a":1,"b":4},"B":{"a":4,"b":1},"C":{"a":2,"b":8},"D":{"a":8,"b":2}},"conditions":["nonSeqFull","nonSeqPartial","seqNoFeedback","seqFeedback"],"classroomPairings":[["A","B"],["C","D"]],"coinWeights":[0.2,0.5,0.8],"subjectId":"A25FH7PXC446RG","assignmentId":"3MYYFCXHJ4TPOJAXVIGNMN23CWB4GK","hitId":"3SD15I2WD2G0NA4TSPXGB81L5S7630","url":"https://gershmanlab.com/experiments/alicia/teaching/experiment/?hitId=3SD15I2WD2G0NA4TSPXGB81L5S7630&workerId=A25FH7PXC446RG&assignmentId=3MYYFCXHJ4TPOJAXVIGNMN23CWB4GK&a=HFYM9&tp_a=HFYM9&b=3MYYFCXHJ4TPOJAXVIGNMN23CWB4GK&tp_b=3MYYFCXHJ4TPOJAXVIGNMN23CWB4GK&c=365799&tp_c=365799"},{"rt":7413,"stimulus":"\n            <h4 style=\"color:Orange;\">Student 4</h4>\n            <h2>The weight of your coin is <b style=\"color:Tomato;\">0.5</b>.</h2>\n            <p>In this block, you will be giving <b>one</b> set of examples to Student 4.</p>\n                <p>You will receive feedback at the end of the block.</p>\n            <p></p>","response":0,"trial_type":"html-button-response","trial_index":37,"time_elapsed":1966904,"internal_node_id":"0.0-30.0","params":{"nStudents":24,"maxFlips":30,"completionMinutes":45,"basePay":8,"maxBonus":9,"perTrialBonus":0.5,"perTrialBonusThreshold":0.05,"exampleCost":0.01},"classroomParams":{"A":{"a":1,"b":4},"B":{"a":4,"b":1},"C":{"a":2,"b":8},"D":{"a":8,"b":2}},"conditions":["nonSeqFull","nonSeqPartial","seqNoFeedback","seqFeedback"],"classroomPairings":[["A","B"],["C","D"]],"coinWeights":[0.2,0.5,0.8],"subjectId":"A25FH7PXC446RG","assignmentId":"3MYYFCXHJ4TPOJAXVIGNMN23CWB4GK","hitId":"3SD15I2WD2G0NA4TSPXGB81L5S7630","url":"https://gershmanlab.com/experiments/alicia/teaching/experiment/?hitId=3SD15I2WD2G0NA4TSPXGB81L5S7630&workerId=A25FH7PXC446RG&assignmentId=3MYYFCXHJ4TPOJAXVIGNMN23CWB4GK&a=HFYM9&tp_a=HFYM9&b=3MYYFCXHJ4TPOJAXVIGNMN23CWB4GK&tp_b=3MYYFCXHJ4TPOJAXVIGNMN23CWB4GK&c=365799&tp_c=365799"},{"rt":23666,"response":{"heads":"16","tails":"15"},"type":"response","condition":"nonSeqFull","trueTheta":0.5,"classrooms":["A","B"],"studentTrueClassroom":"A","exampleSet":"first","trial_type":"survey-html-form","trial_index":38,"time_elapsed":1990570,"internal_node_id":"0.0-31.0-0.0","params":{"nStudents":24,"maxFlips":30,"completionMinutes":45,"basePay":8,"maxBonus":9,"perTrialBonus":0.5,"perTrialBonusThreshold":0.05,"exampleCost":0.01},"classroomParams":{"A":{"a":1,"b":4},"B":{"a":4,"b":1},"C":{"a":2,"b":8},"D":{"a":8,"b":2}},"conditions":["nonSeqFull","nonSeqPartial","seqNoFeedback","seqFeedback"],"classroomPairings":[["A","B"],["C","D"]],"coinWeights":[0.2,0.5,0.8],"subjectId":"A25FH7PXC446RG","assignmentId":"3MYYFCXHJ4TPOJAXVIGNMN23CWB4GK","hitId":"3SD15I2WD2G0NA4TSPXGB81L5S7630","url":"https://gershmanlab.com/experiments/alicia/teaching/experiment/?hitId=3SD15I2WD2G0NA4TSPXGB81L5S7630&workerId=A25FH7PXC446RG&assignmentId=3MYYFCXHJ4TPOJAXVIGNMN23CWB4GK&a=HFYM9&tp_a=HFYM9&b=3MYYFCXHJ4TPOJAXVIGNMN23CWB4GK&tp_b=3MYYFCXHJ4TPOJAXVIGNMN23CWB4GK&c=365799&tp_c=365799","heads":16,"tails":15,"studentIndex":3,"studentTrueHypers":{"a":1,"b":4},"studentGuess":0.4722222222222222,"delta":0.02777777777777779,"totalExamples":31,"bonus":0.19,"bonusSoFar":0.19},{"rt":28876,"response":{"heads":"15","tails":"12"},"type":"response","condition":"nonSeqFull","trueTheta":0.5,"classrooms":["A","B"],"studentTrueClassroom":"A","exampleSet":"first","trial_type":"survey-html-form","trial_index":39,"time_elapsed":2019448,"internal_node_id":"0.0-31.1-0.1","params":{"nStudents":24,"maxFlips":30,"completionMinutes":45,"basePay":8,"maxBonus":9,"perTrialBonus":0.5,"perTrialBonusThreshold":0.05,"exampleCost":0.01},"classroomParams":{"A":{"a":1,"b":4},"B":{"a":4,"b":1},"C":{"a":2,"b":8},"D":{"a":8,"b":2}},"conditions":["nonSeqFull","nonSeqPartial","seqNoFeedback","seqFeedback"],"classroomPairings":[["A","B"],["C","D"]],"coinWeights":[0.2,0.5,0.8],"subjectId":"A25FH7PXC446RG","assignmentId":"3MYYFCXHJ4TPOJAXVIGNMN23CWB4GK","hitId":"3SD15I2WD2G0NA4TSPXGB81L5S7630","url":"https://gershmanlab.com/experiments/alicia/teaching/experiment/?hitId=3SD15I2WD2G0NA4TSPXGB81L5S7630&workerId=A25FH7PXC446RG&assignmentId=3MYYFCXHJ4TPOJAXVIGNMN23CWB4GK&a=HFYM9&tp_a=HFYM9&b=3MYYFCXHJ4TPOJAXVIGNMN23CWB4GK&tp_b=3MYYFCXHJ4TPOJAXVIGNMN23CWB4GK&c=365799&tp_c=365799","heads":15,"tails":12,"studentIndex":3,"studentTrueHypers":{"a":1,"b":4},"studentGuess":0.5,"delta":0,"totalExamples":27,"bonus":0.23,"bonusSoFar":0.42},{"rt":null,"stimulus":"Sending examples to student... ","response":null,"trial_type":"html-keyboard-response","trial_index":40,"time_elapsed":2020704,"internal_node_id":"0.0-32.0","params":{"nStudents":24,"maxFlips":30,"completionMinutes":45,"basePay":8,"maxBonus":9,"perTrialBonus":0.5,"perTrialBonusThreshold":0.05,"exampleCost":0.01},"classroomParams":{"A":{"a":1,"b":4},"B":{"a":4,"b":1},"C":{"a":2,"b":8},"D":{"a":8,"b":2}},"conditions":["nonSeqFull","nonSeqPartial","seqNoFeedback","seqFeedback"],"classroomPairings":[["A","B"],["C","D"]],"coinWeights":[0.2,0.5,0.8],"subjectId":"A25FH7PXC446RG","assignmentId":"3MYYFCXHJ4TPOJAXVIGNMN23CWB4GK","hitId":"3SD15I2WD2G0NA4TSPXGB81L5S7630","url":"https://gershmanlab.com/experiments/alicia/teaching/experiment/?hitId=3SD15I2WD2G0NA4TSPXGB81L5S7630&workerId=A25FH7PXC446RG&assignmentId=3MYYFCXHJ4TPOJAXVIGNMN23CWB4GK&a=HFYM9&tp_a=HFYM9&b=3MYYFCXHJ4TPOJAXVIGNMN23CWB4GK&tp_b=3MYYFCXHJ4TPOJAXVIGNMN23CWB4GK&c=365799&tp_c=365799"},{"rt":null,"stimulus":"Examples sent to student! Waiting for student...","response":null,"trial_type":"html-keyboard-response","trial_index":41,"time_elapsed":2025220,"internal_node_id":"0.0-33.0","params":{"nStudents":24,"maxFlips":30,"completionMinutes":45,"basePay":8,"maxBonus":9,"perTrialBonus":0.5,"perTrialBonusThreshold":0.05,"exampleCost":0.01},"classroomParams":{"A":{"a":1,"b":4},"B":{"a":4,"b":1},"C":{"a":2,"b":8},"D":{"a":8,"b":2}},"conditions":["nonSeqFull","nonSeqPartial","seqNoFeedback","seqFeedback"],"classroomPairings":[["A","B"],["C","D"]],"coinWeights":[0.2,0.5,0.8],"subjectId":"A25FH7PXC446RG","assignmentId":"3MYYFCXHJ4TPOJAXVIGNMN23CWB4GK","hitId":"3SD15I2WD2G0NA4TSPXGB81L5S7630","url":"https://gershmanlab.com/experiments/alicia/teaching/experiment/?hitId=3SD15I2WD2G0NA4TSPXGB81L5S7630&workerId=A25FH7PXC446RG&assignmentId=3MYYFCXHJ4TPOJAXVIGNMN23CWB4GK&a=HFYM9&tp_a=HFYM9&b=3MYYFCXHJ4TPOJAXVIGNMN23CWB4GK&tp_b=3MYYFCXHJ4TPOJAXVIGNMN23CWB4GK&c=365799&tp_c=365799"},{"rt":null,"stimulus":"\n                <p>Student's guess for coin weight: <b style=\"color:Tomato;\">0.47</b></p>\n                <p>You received a bonus of <b>$0.19</b>. Total bonus so far: <b>$0.42</b></b></p>\n                <p></p>\n                <p>Press any key to continue.</p>\n                ","response":null,"trial_type":"html-keyboard-response","trial_index":42,"time_elapsed":2056034,"internal_node_id":"0.0-34.0","params":{"nStudents":24,"maxFlips":30,"completionMinutes":45,"basePay":8,"maxBonus":9,"perTrialBonus":0.5,"perTrialBonusThreshold":0.05,"exampleCost":0.01},"classroomParams":{"A":{"a":1,"b":4},"B":{"a":4,"b":1},"C":{"a":2,"b":8},"D":{"a":8,"b":2}},"conditions":["nonSeqFull","nonSeqPartial","seqNoFeedback","seqFeedback"],"classroomPairings":[["A","B"],["C","D"]],"coinWeights":[0.2,0.5,0.8],"subjectId":"A25FH7PXC446RG","assignmentId":"3MYYFCXHJ4TPOJAXVIGNMN23CWB4GK","hitId":"3SD15I2WD2G0NA4TSPXGB81L5S7630","url":"https://gershmanlab.com/experiments/alicia/teaching/experiment/?hitId=3SD15I2WD2G0NA4TSPXGB81L5S7630&workerId=A25FH7PXC446RG&assignmentId=3MYYFCXHJ4TPOJAXVIGNMN23CWB4GK&a=HFYM9&tp_a=HFYM9&b=3MYYFCXHJ4TPOJAXVIGNMN23CWB4GK&tp_b=3MYYFCXHJ4TPOJAXVIGNMN23CWB4GK&c=365799&tp_c=365799"},{"rt":null,"stimulus":"<div style=\"font-size:60px;\">Next student</div>","response":null,"trial_type":"html-keyboard-response","trial_index":43,"time_elapsed":2059041,"internal_node_id":"0.0-35.0-0.0","params":{"nStudents":24,"maxFlips":30,"completionMinutes":45,"basePay":8,"maxBonus":9,"perTrialBonus":0.5,"perTrialBonusThreshold":0.05,"exampleCost":0.01},"classroomParams":{"A":{"a":1,"b":4},"B":{"a":4,"b":1},"C":{"a":2,"b":8},"D":{"a":8,"b":2}},"conditions":["nonSeqFull","nonSeqPartial","seqNoFeedback","seqFeedback"],"classroomPairings":[["A","B"],["C","D"]],"coinWeights":[0.2,0.5,0.8],"subjectId":"A25FH7PXC446RG","assignmentId":"3MYYFCXHJ4TPOJAXVIGNMN23CWB4GK","hitId":"3SD15I2WD2G0NA4TSPXGB81L5S7630","url":"https://gershmanlab.com/experiments/alicia/teaching/experiment/?hitId=3SD15I2WD2G0NA4TSPXGB81L5S7630&workerId=A25FH7PXC446RG&assignmentId=3MYYFCXHJ4TPOJAXVIGNMN23CWB4GK&a=HFYM9&tp_a=HFYM9&b=3MYYFCXHJ4TPOJAXVIGNMN23CWB4GK&tp_b=3MYYFCXHJ4TPOJAXVIGNMN23CWB4GK&c=365799&tp_c=365799"},{"rt":1798,"stimulus":"\n            <h4 style=\"color:Orange;\">Student 5</h4>\n            <h2>The weight of your coin is <b style=\"color:Tomato;\">0.5</b>.</h2>\n            <p>In this block, you will be giving <b>one</b> set of examples to Student 5.</p>\n                <p>You will receive feedback at the end of the block.</p>\n            <p></p>","response":0,"trial_type":"html-button-response","trial_index":44,"time_elapsed":2060840,"internal_node_id":"0.0-36.0","params":{"nStudents":24,"maxFlips":30,"completionMinutes":45,"basePay":8,"maxBonus":9,"perTrialBonus":0.5,"perTrialBonusThreshold":0.05,"exampleCost":0.01},"classroomParams":{"A":{"a":1,"b":4},"B":{"a":4,"b":1},"C":{"a":2,"b":8},"D":{"a":8,"b":2}},"conditions":["nonSeqFull","nonSeqPartial","seqNoFeedback","seqFeedback"],"classroomPairings":[["A","B"],["C","D"]],"coinWeights":[0.2,0.5,0.8],"subjectId":"A25FH7PXC446RG","assignmentId":"3MYYFCXHJ4TPOJAXVIGNMN23CWB4GK","hitId":"3SD15I2WD2G0NA4TSPXGB81L5S7630","url":"https://gershmanlab.com/experiments/alicia/teaching/experiment/?hitId=3SD15I2WD2G0NA4TSPXGB81L5S7630&workerId=A25FH7PXC446RG&assignmentId=3MYYFCXHJ4TPOJAXVIGNMN23CWB4GK&a=HFYM9&tp_a=HFYM9&b=3MYYFCXHJ4TPOJAXVIGNMN23CWB4GK&tp_b=3MYYFCXHJ4TPOJAXVIGNMN23CWB4GK&c=365799&tp_c=365799"},{"rt":12773,"response":{"heads":"17","tails":"13"},"type":"response","condition":"nonSeqPartial","trueTheta":0.5,"classrooms":["C","D"],"studentTrueClassroom":"C","exampleSet":"first","trial_type":"survey-html-form","trial_index":45,"time_elapsed":2073615,"internal_node_id":"0.0-37.0-0.0","params":{"nStudents":24,"maxFlips":30,"completionMinutes":45,"basePay":8,"maxBonus":9,"perTrialBonus":0.5,"perTrialBonusThreshold":0.05,"exampleCost":0.01},"classroomParams":{"A":{"a":1,"b":4},"B":{"a":4,"b":1},"C":{"a":2,"b":8},"D":{"a":8,"b":2}},"conditions":["nonSeqFull","nonSeqPartial","seqNoFeedback","seqFeedback"],"classroomPairings":[["A","B"],["C","D"]],"coinWeights":[0.2,0.5,0.8],"subjectId":"A25FH7PXC446RG","assignmentId":"3MYYFCXHJ4TPOJAXVIGNMN23CWB4GK","hitId":"3SD15I2WD2G0NA4TSPXGB81L5S7630","url":"https://gershmanlab.com/experiments/alicia/teaching/experiment/?hitId=3SD15I2WD2G0NA4TSPXGB81L5S7630&workerId=A25FH7PXC446RG&assignmentId=3MYYFCXHJ4TPOJAXVIGNMN23CWB4GK&a=HFYM9&tp_a=HFYM9&b=3MYYFCXHJ4TPOJAXVIGNMN23CWB4GK&tp_b=3MYYFCXHJ4TPOJAXVIGNMN23CWB4GK&c=365799&tp_c=365799","heads":17,"tails":13,"studentIndex":4,"studentTrueHypers":{"a":2,"b":8},"studentGuess":0.475,"delta":0.025000000000000022,"totalExamples":30,"bonus":0.2,"bonusSoFar":0.62},{"rt":null,"stimulus":"Sending examples to student... ","response":null,"trial_type":"html-keyboard-response","trial_index":46,"time_elapsed":2074873,"internal_node_id":"0.0-38.0","params":{"nStudents":24,"maxFlips":30,"completionMinutes":45,"basePay":8,"maxBonus":9,"perTrialBonus":0.5,"perTrialBonusThreshold":0.05,"exampleCost":0.01},"classroomParams":{"A":{"a":1,"b":4},"B":{"a":4,"b":1},"C":{"a":2,"b":8},"D":{"a":8,"b":2}},"conditions":["nonSeqFull","nonSeqPartial","seqNoFeedback","seqFeedback"],"classroomPairings":[["A","B"],["C","D"]],"coinWeights":[0.2,0.5,0.8],"subjectId":"A25FH7PXC446RG","assignmentId":"3MYYFCXHJ4TPOJAXVIGNMN23CWB4GK","hitId":"3SD15I2WD2G0NA4TSPXGB81L5S7630","url":"https://gershmanlab.com/experiments/alicia/teaching/experiment/?hitId=3SD15I2WD2G0NA4TSPXGB81L5S7630&workerId=A25FH7PXC446RG&assignmentId=3MYYFCXHJ4TPOJAXVIGNMN23CWB4GK&a=HFYM9&tp_a=HFYM9&b=3MYYFCXHJ4TPOJAXVIGNMN23CWB4GK&tp_b=3MYYFCXHJ4TPOJAXVIGNMN23CWB4GK&c=365799&tp_c=365799"},{"rt":null,"stimulus":"Examples sent to student! Waiting for student...","response":null,"trial_type":"html-keyboard-response","trial_index":47,"time_elapsed":2080376,"internal_node_id":"0.0-39.0","params":{"nStudents":24,"maxFlips":30,"completionMinutes":45,"basePay":8,"maxBonus":9,"perTrialBonus":0.5,"perTrialBonusThreshold":0.05,"exampleCost":0.01},"classroomParams":{"A":{"a":1,"b":4},"B":{"a":4,"b":1},"C":{"a":2,"b":8},"D":{"a":8,"b":2}},"conditions":["nonSeqFull","nonSeqPartial","seqNoFeedback","seqFeedback"],"classroomPairings":[["A","B"],["C","D"]],"coinWeights":[0.2,0.5,0.8],"subjectId":"A25FH7PXC446RG","assignmentId":"3MYYFCXHJ4TPOJAXVIGNMN23CWB4GK","hitId":"3SD15I2WD2G0NA4TSPXGB81L5S7630","url":"https://gershmanlab.com/experiments/alicia/teaching/experiment/?hitId=3SD15I2WD2G0NA4TSPXGB81L5S7630&workerId=A25FH7PXC446RG&assignmentId=3MYYFCXHJ4TPOJAXVIGNMN23CWB4GK&a=HFYM9&tp_a=HFYM9&b=3MYYFCXHJ4TPOJAXVIGNMN23CWB4GK&tp_b=3MYYFCXHJ4TPOJAXVIGNMN23CWB4GK&c=365799&tp_c=365799"},{"rt":4351,"stimulus":"\n                <p>Student's guess for coin weight: <b style=\"color:Tomato;\">0.47</b></p>\n                <p>You received a bonus of <b>$0.2</b>. Total bonus so far: <b>$0.62</b></b></p>\n                <p></p>\n                <p>Press any key to continue.</p>\n                ","response":" ","trial_type":"html-keyboard-response","trial_index":48,"time_elapsed":2084729,"internal_node_id":"0.0-40.0","params":{"nStudents":24,"maxFlips":30,"completionMinutes":45,"basePay":8,"maxBonus":9,"perTrialBonus":0.5,"perTrialBonusThreshold":0.05,"exampleCost":0.01},"classroomParams":{"A":{"a":1,"b":4},"B":{"a":4,"b":1},"C":{"a":2,"b":8},"D":{"a":8,"b":2}},"conditions":["nonSeqFull","nonSeqPartial","seqNoFeedback","seqFeedback"],"classroomPairings":[["A","B"],["C","D"]],"coinWeights":[0.2,0.5,0.8],"subjectId":"A25FH7PXC446RG","assignmentId":"3MYYFCXHJ4TPOJAXVIGNMN23CWB4GK","hitId":"3SD15I2WD2G0NA4TSPXGB81L5S7630","url":"https://gershmanlab.com/experiments/alicia/teaching/experiment/?hitId=3SD15I2WD2G0NA4TSPXGB81L5S7630&workerId=A25FH7PXC446RG&assignmentId=3MYYFCXHJ4TPOJAXVIGNMN23CWB4GK&a=HFYM9&tp_a=HFYM9&b=3MYYFCXHJ4TPOJAXVIGNMN23CWB4GK&tp_b=3MYYFCXHJ4TPOJAXVIGNMN23CWB4GK&c=365799&tp_c=365799"},{"rt":null,"stimulus":"<div style=\"font-size:60px;\">Next student</div>","response":null,"trial_type":"html-keyboard-response","trial_index":49,"time_elapsed":2087239,"internal_node_id":"0.0-41.0-0.0","params":{"nStudents":24,"maxFlips":30,"completionMinutes":45,"basePay":8,"maxBonus":9,"perTrialBonus":0.5,"perTrialBonusThreshold":0.05,"exampleCost":0.01},"classroomParams":{"A":{"a":1,"b":4},"B":{"a":4,"b":1},"C":{"a":2,"b":8},"D":{"a":8,"b":2}},"conditions":["nonSeqFull","nonSeqPartial","seqNoFeedback","seqFeedback"],"classroomPairings":[["A","B"],["C","D"]],"coinWeights":[0.2,0.5,0.8],"subjectId":"A25FH7PXC446RG","assignmentId":"3MYYFCXHJ4TPOJAXVIGNMN23CWB4GK","hitId":"3SD15I2WD2G0NA4TSPXGB81L5S7630","url":"https://gershmanlab.com/experiments/alicia/teaching/experiment/?hitId=3SD15I2WD2G0NA4TSPXGB81L5S7630&workerId=A25FH7PXC446RG&assignmentId=3MYYFCXHJ4TPOJAXVIGNMN23CWB4GK&a=HFYM9&tp_a=HFYM9&b=3MYYFCXHJ4TPOJAXVIGNMN23CWB4GK&tp_b=3MYYFCXHJ4TPOJAXVIGNMN23CWB4GK&c=365799&tp_c=365799"},{"rt":44436,"stimulus":"\n            <h4 style=\"color:Orange;\">Student 6</h4>\n            <h2>The weight of your coin is <b style=\"color:Tomato;\">0.5</b>.</h2>\n            <p>In this block, you will be giving <b>two</b> sets of examples to Student 6.</p>\n                <p>You will see the student's guess after the first set of examples. You will also receive feedback at the end of the block.</p>\n            <p>To earn the highest bonus, you will have to <b>take into consideration the student's guess</b> when you choose your second set of examples.</p>","response":0,"trial_type":"html-button-response","trial_index":50,"time_elapsed":2131676,"internal_node_id":"0.0-42.0","params":{"nStudents":24,"maxFlips":30,"completionMinutes":45,"basePay":8,"maxBonus":9,"perTrialBonus":0.5,"perTrialBonusThreshold":0.05,"exampleCost":0.01},"classroomParams":{"A":{"a":1,"b":4},"B":{"a":4,"b":1},"C":{"a":2,"b":8},"D":{"a":8,"b":2}},"conditions":["nonSeqFull","nonSeqPartial","seqNoFeedback","seqFeedback"],"classroomPairings":[["A","B"],["C","D"]],"coinWeights":[0.2,0.5,0.8],"subjectId":"A25FH7PXC446RG","assignmentId":"3MYYFCXHJ4TPOJAXVIGNMN23CWB4GK","hitId":"3SD15I2WD2G0NA4TSPXGB81L5S7630","url":"https://gershmanlab.com/experiments/alicia/teaching/experiment/?hitId=3SD15I2WD2G0NA4TSPXGB81L5S7630&workerId=A25FH7PXC446RG&assignmentId=3MYYFCXHJ4TPOJAXVIGNMN23CWB4GK&a=HFYM9&tp_a=HFYM9&b=3MYYFCXHJ4TPOJAXVIGNMN23CWB4GK&tp_b=3MYYFCXHJ4TPOJAXVIGNMN23CWB4GK&c=365799&tp_c=365799"},{"rt":29908,"response":{"heads":"19","tails":"11"},"type":"response","condition":"seqFeedback","trueTheta":0.5,"classrooms":["A","B"],"studentTrueClassroom":"A","exampleSet":"first","trial_type":"survey-html-form","trial_index":51,"time_elapsed":2161586,"internal_node_id":"0.0-43.0-0.0","params":{"nStudents":24,"maxFlips":30,"completionMinutes":45,"basePay":8,"maxBonus":9,"perTrialBonus":0.5,"perTrialBonusThreshold":0.05,"exampleCost":0.01},"classroomParams":{"A":{"a":1,"b":4},"B":{"a":4,"b":1},"C":{"a":2,"b":8},"D":{"a":8,"b":2}},"conditions":["nonSeqFull","nonSeqPartial","seqNoFeedback","seqFeedback"],"classroomPairings":[["A","B"],["C","D"]],"coinWeights":[0.2,0.5,0.8],"subjectId":"A25FH7PXC446RG","assignmentId":"3MYYFCXHJ4TPOJAXVIGNMN23CWB4GK","hitId":"3SD15I2WD2G0NA4TSPXGB81L5S7630","url":"https://gershmanlab.com/experiments/alicia/teaching/experiment/?hitId=3SD15I2WD2G0NA4TSPXGB81L5S7630&workerId=A25FH7PXC446RG&assignmentId=3MYYFCXHJ4TPOJAXVIGNMN23CWB4GK&a=HFYM9&tp_a=HFYM9&b=3MYYFCXHJ4TPOJAXVIGNMN23CWB4GK&tp_b=3MYYFCXHJ4TPOJAXVIGNMN23CWB4GK&c=365799&tp_c=365799","heads":19,"tails":11,"studentIndex":5,"studentTrueHypers":{"a":1,"b":4},"studentGuess":0.5714285714285714,"delta":0.0714285714285714,"totalExamples":30,"bonusSoFar":0.62},{"rt":null,"stimulus":"Sending examples to student... ","response":null,"trial_type":"html-keyboard-response","trial_index":52,"time_elapsed":2163589,"internal_node_id":"0.0-44.0","params":{"nStudents":24,"maxFlips":30,"completionMinutes":45,"basePay":8,"maxBonus":9,"perTrialBonus":0.5,"perTrialBonusThreshold":0.05,"exampleCost":0.01},"classroomParams":{"A":{"a":1,"b":4},"B":{"a":4,"b":1},"C":{"a":2,"b":8},"D":{"a":8,"b":2}},"conditions":["nonSeqFull","nonSeqPartial","seqNoFeedback","seqFeedback"],"classroomPairings":[["A","B"],["C","D"]],"coinWeights":[0.2,0.5,0.8],"subjectId":"A25FH7PXC446RG","assignmentId":"3MYYFCXHJ4TPOJAXVIGNMN23CWB4GK","hitId":"3SD15I2WD2G0NA4TSPXGB81L5S7630","url":"https://gershmanlab.com/experiments/alicia/teaching/experiment/?hitId=3SD15I2WD2G0NA4TSPXGB81L5S7630&workerId=A25FH7PXC446RG&assignmentId=3MYYFCXHJ4TPOJAXVIGNMN23CWB4GK&a=HFYM9&tp_a=HFYM9&b=3MYYFCXHJ4TPOJAXVIGNMN23CWB4GK&tp_b=3MYYFCXHJ4TPOJAXVIGNMN23CWB4GK&c=365799&tp_c=365799"},{"rt":null,"stimulus":"Examples sent to student! Waiting for student...","response":null,"trial_type":"html-keyboard-response","trial_index":53,"time_elapsed":2168598,"internal_node_id":"0.0-45.0","params":{"nStudents":24,"maxFlips":30,"completionMinutes":45,"basePay":8,"maxBonus":9,"perTrialBonus":0.5,"perTrialBonusThreshold":0.05,"exampleCost":0.01},"classroomParams":{"A":{"a":1,"b":4},"B":{"a":4,"b":1},"C":{"a":2,"b":8},"D":{"a":8,"b":2}},"conditions":["nonSeqFull","nonSeqPartial","seqNoFeedback","seqFeedback"],"classroomPairings":[["A","B"],["C","D"]],"coinWeights":[0.2,0.5,0.8],"subjectId":"A25FH7PXC446RG","assignmentId":"3MYYFCXHJ4TPOJAXVIGNMN23CWB4GK","hitId":"3SD15I2WD2G0NA4TSPXGB81L5S7630","url":"https://gershmanlab.com/experiments/alicia/teaching/experiment/?hitId=3SD15I2WD2G0NA4TSPXGB81L5S7630&workerId=A25FH7PXC446RG&assignmentId=3MYYFCXHJ4TPOJAXVIGNMN23CWB4GK&a=HFYM9&tp_a=HFYM9&b=3MYYFCXHJ4TPOJAXVIGNMN23CWB4GK&tp_b=3MYYFCXHJ4TPOJAXVIGNMN23CWB4GK&c=365799&tp_c=365799"},{"rt":7470,"stimulus":"\n                <p>Student's guess for coin weight: <b style=\"color:Tomato;\">0.57</b></p>\n                <p></b></p>\n                <p>You will now send another set of examples to your student. <b>Remember to take your student's guess into consideration so that you can earn the highest bonus possible!</b> </p>\n                <p>Press any key to continue.</p>\n                ","response":" ","trial_type":"html-keyboard-response","trial_index":54,"time_elapsed":2176069,"internal_node_id":"0.0-46.0","params":{"nStudents":24,"maxFlips":30,"completionMinutes":45,"basePay":8,"maxBonus":9,"perTrialBonus":0.5,"perTrialBonusThreshold":0.05,"exampleCost":0.01},"classroomParams":{"A":{"a":1,"b":4},"B":{"a":4,"b":1},"C":{"a":2,"b":8},"D":{"a":8,"b":2}},"conditions":["nonSeqFull","nonSeqPartial","seqNoFeedback","seqFeedback"],"classroomPairings":[["A","B"],["C","D"]],"coinWeights":[0.2,0.5,0.8],"subjectId":"A25FH7PXC446RG","assignmentId":"3MYYFCXHJ4TPOJAXVIGNMN23CWB4GK","hitId":"3SD15I2WD2G0NA4TSPXGB81L5S7630","url":"https://gershmanlab.com/experiments/alicia/teaching/experiment/?hitId=3SD15I2WD2G0NA4TSPXGB81L5S7630&workerId=A25FH7PXC446RG&assignmentId=3MYYFCXHJ4TPOJAXVIGNMN23CWB4GK&a=HFYM9&tp_a=HFYM9&b=3MYYFCXHJ4TPOJAXVIGNMN23CWB4GK&tp_b=3MYYFCXHJ4TPOJAXVIGNMN23CWB4GK&c=365799&tp_c=365799"},{"rt":21618,"response":{"heads":"17","tails":"13"},"type":"response","condition":"seqFeedback","trueTheta":0.5,"classrooms":["A","B"],"studentTrueClassroom":"A","exampleSet":"second","trial_type":"survey-html-form","trial_index":55,"time_elapsed":2197687,"internal_node_id":"0.0-47.0-0.0","params":{"nStudents":24,"maxFlips":30,"completionMinutes":45,"basePay":8,"maxBonus":9,"perTrialBonus":0.5,"perTrialBonusThreshold":0.05,"exampleCost":0.01},"classroomParams":{"A":{"a":1,"b":4},"B":{"a":4,"b":1},"C":{"a":2,"b":8},"D":{"a":8,"b":2}},"conditions":["nonSeqFull","nonSeqPartial","seqNoFeedback","seqFeedback"],"classroomPairings":[["A","B"],["C","D"]],"coinWeights":[0.2,0.5,0.8],"subjectId":"A25FH7PXC446RG","assignmentId":"3MYYFCXHJ4TPOJAXVIGNMN23CWB4GK","hitId":"3SD15I2WD2G0NA4TSPXGB81L5S7630","url":"https://gershmanlab.com/experiments/alicia/teaching/experiment/?hitId=3SD15I2WD2G0NA4TSPXGB81L5S7630&workerId=A25FH7PXC446RG&assignmentId=3MYYFCXHJ4TPOJAXVIGNMN23CWB4GK&a=HFYM9&tp_a=HFYM9&b=3MYYFCXHJ4TPOJAXVIGNMN23CWB4GK&tp_b=3MYYFCXHJ4TPOJAXVIGNMN23CWB4GK&c=365799&tp_c=365799","firstResponseHeads":19,"firstResponseTails":11,"secondResponseHeads":17,"secondResponseTails":13,"totalHeads":36,"totalTails":24,"studentIndex":5,"studentTrueHypers":{"a":1,"b":4},"studentGuess":0.5692307692307692,"delta":0.0692307692307692,"bonus":0,"bonusSoFar":0.62,"totalExamples":60},{"rt":null,"stimulus":"Sending examples to student... ","response":null,"trial_type":"html-keyboard-response","trial_index":56,"time_elapsed":2199447,"internal_node_id":"0.0-48.0","params":{"nStudents":24,"maxFlips":30,"completionMinutes":45,"basePay":8,"maxBonus":9,"perTrialBonus":0.5,"perTrialBonusThreshold":0.05,"exampleCost":0.01},"classroomParams":{"A":{"a":1,"b":4},"B":{"a":4,"b":1},"C":{"a":2,"b":8},"D":{"a":8,"b":2}},"conditions":["nonSeqFull","nonSeqPartial","seqNoFeedback","seqFeedback"],"classroomPairings":[["A","B"],["C","D"]],"coinWeights":[0.2,0.5,0.8],"subjectId":"A25FH7PXC446RG","assignmentId":"3MYYFCXHJ4TPOJAXVIGNMN23CWB4GK","hitId":"3SD15I2WD2G0NA4TSPXGB81L5S7630","url":"https://gershmanlab.com/experiments/alicia/teaching/experiment/?hitId=3SD15I2WD2G0NA4TSPXGB81L5S7630&workerId=A25FH7PXC446RG&assignmentId=3MYYFCXHJ4TPOJAXVIGNMN23CWB4GK&a=HFYM9&tp_a=HFYM9&b=3MYYFCXHJ4TPOJAXVIGNMN23CWB4GK&tp_b=3MYYFCXHJ4TPOJAXVIGNMN23CWB4GK&c=365799&tp_c=365799"},{"rt":null,"stimulus":"Examples sent to student! Waiting for student...","response":null,"trial_type":"html-keyboard-response","trial_index":57,"time_elapsed":2203949,"internal_node_id":"0.0-49.0","params":{"nStudents":24,"maxFlips":30,"completionMinutes":45,"basePay":8,"maxBonus":9,"perTrialBonus":0.5,"perTrialBonusThreshold":0.05,"exampleCost":0.01},"classroomParams":{"A":{"a":1,"b":4},"B":{"a":4,"b":1},"C":{"a":2,"b":8},"D":{"a":8,"b":2}},"conditions":["nonSeqFull","nonSeqPartial","seqNoFeedback","seqFeedback"],"classroomPairings":[["A","B"],["C","D"]],"coinWeights":[0.2,0.5,0.8],"subjectId":"A25FH7PXC446RG","assignmentId":"3MYYFCXHJ4TPOJAXVIGNMN23CWB4GK","hitId":"3SD15I2WD2G0NA4TSPXGB81L5S7630","url":"https://gershmanlab.com/experiments/alicia/teaching/experiment/?hitId=3SD15I2WD2G0NA4TSPXGB81L5S7630&workerId=A25FH7PXC446RG&assignmentId=3MYYFCXHJ4TPOJAXVIGNMN23CWB4GK&a=HFYM9&tp_a=HFYM9&b=3MYYFCXHJ4TPOJAXVIGNMN23CWB4GK&tp_b=3MYYFCXHJ4TPOJAXVIGNMN23CWB4GK&c=365799&tp_c=365799"},{"rt":3197,"stimulus":"\n                <p>Student 6's first guess for coin weight: <b style=\"color:Tomato\";>0.57</b></p>\n                <p>Student 6's second guess for coin weight: <b style=\"color:Tomato\";>0.57</b></p>\n                <p>You received a bonus of <b>$0.00</b> based on the student's second guess.</p>\n                <p>Total bonus so far: <b>$0.62</b></p>\n                <p>Press any key to continue.</p>\n                ","response":" ","trial_type":"html-keyboard-response","trial_index":58,"time_elapsed":2207148,"internal_node_id":"0.0-50.0","params":{"nStudents":24,"maxFlips":30,"completionMinutes":45,"basePay":8,"maxBonus":9,"perTrialBonus":0.5,"perTrialBonusThreshold":0.05,"exampleCost":0.01},"classroomParams":{"A":{"a":1,"b":4},"B":{"a":4,"b":1},"C":{"a":2,"b":8},"D":{"a":8,"b":2}},"conditions":["nonSeqFull","nonSeqPartial","seqNoFeedback","seqFeedback"],"classroomPairings":[["A","B"],["C","D"]],"coinWeights":[0.2,0.5,0.8],"subjectId":"A25FH7PXC446RG","assignmentId":"3MYYFCXHJ4TPOJAXVIGNMN23CWB4GK","hitId":"3SD15I2WD2G0NA4TSPXGB81L5S7630","url":"https://gershmanlab.com/experiments/alicia/teaching/experiment/?hitId=3SD15I2WD2G0NA4TSPXGB81L5S7630&workerId=A25FH7PXC446RG&assignmentId=3MYYFCXHJ4TPOJAXVIGNMN23CWB4GK&a=HFYM9&tp_a=HFYM9&b=3MYYFCXHJ4TPOJAXVIGNMN23CWB4GK&tp_b=3MYYFCXHJ4TPOJAXVIGNMN23CWB4GK&c=365799&tp_c=365799"},{"rt":null,"stimulus":"<div style=\"font-size:60px;\">Next student</div>","response":null,"trial_type":"html-keyboard-response","trial_index":59,"time_elapsed":2209655,"internal_node_id":"0.0-51.0-0.0","params":{"nStudents":24,"maxFlips":30,"completionMinutes":45,"basePay":8,"maxBonus":9,"perTrialBonus":0.5,"perTrialBonusThreshold":0.05,"exampleCost":0.01},"classroomParams":{"A":{"a":1,"b":4},"B":{"a":4,"b":1},"C":{"a":2,"b":8},"D":{"a":8,"b":2}},"conditions":["nonSeqFull","nonSeqPartial","seqNoFeedback","seqFeedback"],"classroomPairings":[["A","B"],["C","D"]],"coinWeights":[0.2,0.5,0.8],"subjectId":"A25FH7PXC446RG","assignmentId":"3MYYFCXHJ4TPOJAXVIGNMN23CWB4GK","hitId":"3SD15I2WD2G0NA4TSPXGB81L5S7630","url":"https://gershmanlab.com/experiments/alicia/teaching/experiment/?hitId=3SD15I2WD2G0NA4TSPXGB81L5S7630&workerId=A25FH7PXC446RG&assignmentId=3MYYFCXHJ4TPOJAXVIGNMN23CWB4GK&a=HFYM9&tp_a=HFYM9&b=3MYYFCXHJ4TPOJAXVIGNMN23CWB4GK&tp_b=3MYYFCXHJ4TPOJAXVIGNMN23CWB4GK&c=365799&tp_c=365799"},{"rt":2146,"stimulus":"\n            <h4 style=\"color:Orange;\">Student 7</h4>\n            <h2>The weight of your coin is <b style=\"color:Tomato;\">0.5</b>.</h2>\n            <p>In this block, you will be giving <b>one</b> set of examples to Student 7.</p>\n                <p>You will receive feedback at the end of the block.</p>\n            <p></p>","response":0,"trial_type":"html-button-response","trial_index":60,"time_elapsed":2211803,"internal_node_id":"0.0-52.0","params":{"nStudents":24,"maxFlips":30,"completionMinutes":45,"basePay":8,"maxBonus":9,"perTrialBonus":0.5,"perTrialBonusThreshold":0.05,"exampleCost":0.01},"classroomParams":{"A":{"a":1,"b":4},"B":{"a":4,"b":1},"C":{"a":2,"b":8},"D":{"a":8,"b":2}},"conditions":["nonSeqFull","nonSeqPartial","seqNoFeedback","seqFeedback"],"classroomPairings":[["A","B"],["C","D"]],"coinWeights":[0.2,0.5,0.8],"subjectId":"A25FH7PXC446RG","assignmentId":"3MYYFCXHJ4TPOJAXVIGNMN23CWB4GK","hitId":"3SD15I2WD2G0NA4TSPXGB81L5S7630","url":"https://gershmanlab.com/experiments/alicia/teaching/experiment/?hitId=3SD15I2WD2G0NA4TSPXGB81L5S7630&workerId=A25FH7PXC446RG&assignmentId=3MYYFCXHJ4TPOJAXVIGNMN23CWB4GK&a=HFYM9&tp_a=HFYM9&b=3MYYFCXHJ4TPOJAXVIGNMN23CWB4GK&tp_b=3MYYFCXHJ4TPOJAXVIGNMN23CWB4GK&c=365799&tp_c=365799"},{"rt":27698,"response":{"heads":"16","tails":"14"},"type":"response","condition":"nonSeqPartial","trueTheta":0.5,"classrooms":["A","B"],"studentTrueClassroom":"A","exampleSet":"first","trial_type":"survey-html-form","trial_index":61,"time_elapsed":2239502,"internal_node_id":"0.0-53.0-0.0","params":{"nStudents":24,"maxFlips":30,"completionMinutes":45,"basePay":8,"maxBonus":9,"perTrialBonus":0.5,"perTrialBonusThreshold":0.05,"exampleCost":0.01},"classroomParams":{"A":{"a":1,"b":4},"B":{"a":4,"b":1},"C":{"a":2,"b":8},"D":{"a":8,"b":2}},"conditions":["nonSeqFull","nonSeqPartial","seqNoFeedback","seqFeedback"],"classroomPairings":[["A","B"],["C","D"]],"coinWeights":[0.2,0.5,0.8],"subjectId":"A25FH7PXC446RG","assignmentId":"3MYYFCXHJ4TPOJAXVIGNMN23CWB4GK","hitId":"3SD15I2WD2G0NA4TSPXGB81L5S7630","url":"https://gershmanlab.com/experiments/alicia/teaching/experiment/?hitId=3SD15I2WD2G0NA4TSPXGB81L5S7630&workerId=A25FH7PXC446RG&assignmentId=3MYYFCXHJ4TPOJAXVIGNMN23CWB4GK&a=HFYM9&tp_a=HFYM9&b=3MYYFCXHJ4TPOJAXVIGNMN23CWB4GK&tp_b=3MYYFCXHJ4TPOJAXVIGNMN23CWB4GK&c=365799&tp_c=365799","heads":16,"tails":14,"studentIndex":6,"studentTrueHypers":{"a":1,"b":4},"studentGuess":0.4857142857142857,"delta":0.01428571428571429,"totalExamples":30,"bonus":0.2,"bonusSoFar":0.82},{"rt":null,"stimulus":"Sending examples to student... ","response":null,"trial_type":"html-keyboard-response","trial_index":62,"time_elapsed":2241011,"internal_node_id":"0.0-54.0","params":{"nStudents":24,"maxFlips":30,"completionMinutes":45,"basePay":8,"maxBonus":9,"perTrialBonus":0.5,"perTrialBonusThreshold":0.05,"exampleCost":0.01},"classroomParams":{"A":{"a":1,"b":4},"B":{"a":4,"b":1},"C":{"a":2,"b":8},"D":{"a":8,"b":2}},"conditions":["nonSeqFull","nonSeqPartial","seqNoFeedback","seqFeedback"],"classroomPairings":[["A","B"],["C","D"]],"coinWeights":[0.2,0.5,0.8],"subjectId":"A25FH7PXC446RG","assignmentId":"3MYYFCXHJ4TPOJAXVIGNMN23CWB4GK","hitId":"3SD15I2WD2G0NA4TSPXGB81L5S7630","url":"https://gershmanlab.com/experiments/alicia/teaching/experiment/?hitId=3SD15I2WD2G0NA4TSPXGB81L5S7630&workerId=A25FH7PXC446RG&assignmentId=3MYYFCXHJ4TPOJAXVIGNMN23CWB4GK&a=HFYM9&tp_a=HFYM9&b=3MYYFCXHJ4TPOJAXVIGNMN23CWB4GK&tp_b=3MYYFCXHJ4TPOJAXVIGNMN23CWB4GK&c=365799&tp_c=365799"},{"rt":null,"stimulus":"Examples sent to student! Waiting for student...","response":null,"trial_type":"html-keyboard-response","trial_index":63,"time_elapsed":2247019,"internal_node_id":"0.0-55.0","params":{"nStudents":24,"maxFlips":30,"completionMinutes":45,"basePay":8,"maxBonus":9,"perTrialBonus":0.5,"perTrialBonusThreshold":0.05,"exampleCost":0.01},"classroomParams":{"A":{"a":1,"b":4},"B":{"a":4,"b":1},"C":{"a":2,"b":8},"D":{"a":8,"b":2}},"conditions":["nonSeqFull","nonSeqPartial","seqNoFeedback","seqFeedback"],"classroomPairings":[["A","B"],["C","D"]],"coinWeights":[0.2,0.5,0.8],"subjectId":"A25FH7PXC446RG","assignmentId":"3MYYFCXHJ4TPOJAXVIGNMN23CWB4GK","hitId":"3SD15I2WD2G0NA4TSPXGB81L5S7630","url":"https://gershmanlab.com/experiments/alicia/teaching/experiment/?hitId=3SD15I2WD2G0NA4TSPXGB81L5S7630&workerId=A25FH7PXC446RG&assignmentId=3MYYFCXHJ4TPOJAXVIGNMN23CWB4GK&a=HFYM9&tp_a=HFYM9&b=3MYYFCXHJ4TPOJAXVIGNMN23CWB4GK&tp_b=3MYYFCXHJ4TPOJAXVIGNMN23CWB4GK&c=365799&tp_c=365799"},{"rt":4115,"stimulus":"\n                <p>Student's guess for coin weight: <b style=\"color:Tomato;\">0.49</b></p>\n                <p>You received a bonus of <b>$0.2</b>. Total bonus so far: <b>$0.82</b></b></p>\n                <p></p>\n                <p>Press any key to continue.</p>\n                ","response":" ","trial_type":"html-keyboard-response","trial_index":64,"time_elapsed":2251136,"internal_node_id":"0.0-56.0","params":{"nStudents":24,"maxFlips":30,"completionMinutes":45,"basePay":8,"maxBonus":9,"perTrialBonus":0.5,"perTrialBonusThreshold":0.05,"exampleCost":0.01},"classroomParams":{"A":{"a":1,"b":4},"B":{"a":4,"b":1},"C":{"a":2,"b":8},"D":{"a":8,"b":2}},"conditions":["nonSeqFull","nonSeqPartial","seqNoFeedback","seqFeedback"],"classroomPairings":[["A","B"],["C","D"]],"coinWeights":[0.2,0.5,0.8],"subjectId":"A25FH7PXC446RG","assignmentId":"3MYYFCXHJ4TPOJAXVIGNMN23CWB4GK","hitId":"3SD15I2WD2G0NA4TSPXGB81L5S7630","url":"https://gershmanlab.com/experiments/alicia/teaching/experiment/?hitId=3SD15I2WD2G0NA4TSPXGB81L5S7630&workerId=A25FH7PXC446RG&assignmentId=3MYYFCXHJ4TPOJAXVIGNMN23CWB4GK&a=HFYM9&tp_a=HFYM9&b=3MYYFCXHJ4TPOJAXVIGNMN23CWB4GK&tp_b=3MYYFCXHJ4TPOJAXVIGNMN23CWB4GK&c=365799&tp_c=365799"},{"rt":null,"stimulus":"<div style=\"font-size:60px;\">Next student</div>","response":null,"trial_type":"html-keyboard-response","trial_index":65,"time_elapsed":2253150,"internal_node_id":"0.0-57.0-0.0","params":{"nStudents":24,"maxFlips":30,"completionMinutes":45,"basePay":8,"maxBonus":9,"perTrialBonus":0.5,"perTrialBonusThreshold":0.05,"exampleCost":0.01},"classroomParams":{"A":{"a":1,"b":4},"B":{"a":4,"b":1},"C":{"a":2,"b":8},"D":{"a":8,"b":2}},"conditions":["nonSeqFull","nonSeqPartial","seqNoFeedback","seqFeedback"],"classroomPairings":[["A","B"],["C","D"]],"coinWeights":[0.2,0.5,0.8],"subjectId":"A25FH7PXC446RG","assignmentId":"3MYYFCXHJ4TPOJAXVIGNMN23CWB4GK","hitId":"3SD15I2WD2G0NA4TSPXGB81L5S7630","url":"https://gershmanlab.com/experiments/alicia/teaching/experiment/?hitId=3SD15I2WD2G0NA4TSPXGB81L5S7630&workerId=A25FH7PXC446RG&assignmentId=3MYYFCXHJ4TPOJAXVIGNMN23CWB4GK&a=HFYM9&tp_a=HFYM9&b=3MYYFCXHJ4TPOJAXVIGNMN23CWB4GK&tp_b=3MYYFCXHJ4TPOJAXVIGNMN23CWB4GK&c=365799&tp_c=365799"},{"rt":2631,"stimulus":"\n            <h4 style=\"color:Orange;\">Student 8</h4>\n            <h2>The weight of your coin is <b style=\"color:Tomato;\">0.8</b>.</h2>\n            <p>In this block, you will be giving <b>one</b> set of examples to Student 8.</p>\n                <p>You will receive feedback at the end of the block.</p>\n            <p></p>","response":0,"trial_type":"html-button-response","trial_index":66,"time_elapsed":2255783,"internal_node_id":"0.0-58.0","params":{"nStudents":24,"maxFlips":30,"completionMinutes":45,"basePay":8,"maxBonus":9,"perTrialBonus":0.5,"perTrialBonusThreshold":0.05,"exampleCost":0.01},"classroomParams":{"A":{"a":1,"b":4},"B":{"a":4,"b":1},"C":{"a":2,"b":8},"D":{"a":8,"b":2}},"conditions":["nonSeqFull","nonSeqPartial","seqNoFeedback","seqFeedback"],"classroomPairings":[["A","B"],["C","D"]],"coinWeights":[0.2,0.5,0.8],"subjectId":"A25FH7PXC446RG","assignmentId":"3MYYFCXHJ4TPOJAXVIGNMN23CWB4GK","hitId":"3SD15I2WD2G0NA4TSPXGB81L5S7630","url":"https://gershmanlab.com/experiments/alicia/teaching/experiment/?hitId=3SD15I2WD2G0NA4TSPXGB81L5S7630&workerId=A25FH7PXC446RG&assignmentId=3MYYFCXHJ4TPOJAXVIGNMN23CWB4GK&a=HFYM9&tp_a=HFYM9&b=3MYYFCXHJ4TPOJAXVIGNMN23CWB4GK&tp_b=3MYYFCXHJ4TPOJAXVIGNMN23CWB4GK&c=365799&tp_c=365799"},{"rt":11787,"response":{"heads":"22","tails":"8"},"type":"response","condition":"nonSeqPartial","trueTheta":0.8,"classrooms":["A","B"],"studentTrueClassroom":"B","exampleSet":"first","trial_type":"survey-html-form","trial_index":67,"time_elapsed":2267573,"internal_node_id":"0.0-59.0-0.0","params":{"nStudents":24,"maxFlips":30,"completionMinutes":45,"basePay":8,"maxBonus":9,"perTrialBonus":0.5,"perTrialBonusThreshold":0.05,"exampleCost":0.01},"classroomParams":{"A":{"a":1,"b":4},"B":{"a":4,"b":1},"C":{"a":2,"b":8},"D":{"a":8,"b":2}},"conditions":["nonSeqFull","nonSeqPartial","seqNoFeedback","seqFeedback"],"classroomPairings":[["A","B"],["C","D"]],"coinWeights":[0.2,0.5,0.8],"subjectId":"A25FH7PXC446RG","assignmentId":"3MYYFCXHJ4TPOJAXVIGNMN23CWB4GK","hitId":"3SD15I2WD2G0NA4TSPXGB81L5S7630","url":"https://gershmanlab.com/experiments/alicia/teaching/experiment/?hitId=3SD15I2WD2G0NA4TSPXGB81L5S7630&workerId=A25FH7PXC446RG&assignmentId=3MYYFCXHJ4TPOJAXVIGNMN23CWB4GK&a=HFYM9&tp_a=HFYM9&b=3MYYFCXHJ4TPOJAXVIGNMN23CWB4GK&tp_b=3MYYFCXHJ4TPOJAXVIGNMN23CWB4GK&c=365799&tp_c=365799","heads":22,"tails":8,"studentIndex":7,"studentTrueHypers":{"a":4,"b":1},"studentGuess":0.7428571428571429,"delta":0.05714285714285716,"totalExamples":30,"bonus":0,"bonusSoFar":0.82},{"rt":null,"stimulus":"Sending examples to student... ","response":null,"trial_type":"html-keyboard-response","trial_index":68,"time_elapsed":2269330,"internal_node_id":"0.0-60.0","params":{"nStudents":24,"maxFlips":30,"completionMinutes":45,"basePay":8,"maxBonus":9,"perTrialBonus":0.5,"perTrialBonusThreshold":0.05,"exampleCost":0.01},"classroomParams":{"A":{"a":1,"b":4},"B":{"a":4,"b":1},"C":{"a":2,"b":8},"D":{"a":8,"b":2}},"conditions":["nonSeqFull","nonSeqPartial","seqNoFeedback","seqFeedback"],"classroomPairings":[["A","B"],["C","D"]],"coinWeights":[0.2,0.5,0.8],"subjectId":"A25FH7PXC446RG","assignmentId":"3MYYFCXHJ4TPOJAXVIGNMN23CWB4GK","hitId":"3SD15I2WD2G0NA4TSPXGB81L5S7630","url":"https://gershmanlab.com/experiments/alicia/teaching/experiment/?hitId=3SD15I2WD2G0NA4TSPXGB81L5S7630&workerId=A25FH7PXC446RG&assignmentId=3MYYFCXHJ4TPOJAXVIGNMN23CWB4GK&a=HFYM9&tp_a=HFYM9&b=3MYYFCXHJ4TPOJAXVIGNMN23CWB4GK&tp_b=3MYYFCXHJ4TPOJAXVIGNMN23CWB4GK&c=365799&tp_c=365799"},{"rt":null,"stimulus":"Examples sent to student! Waiting for student...","response":null,"trial_type":"html-keyboard-response","trial_index":69,"time_elapsed":2273336,"internal_node_id":"0.0-61.0","params":{"nStudents":24,"maxFlips":30,"completionMinutes":45,"basePay":8,"maxBonus":9,"perTrialBonus":0.5,"perTrialBonusThreshold":0.05,"exampleCost":0.01},"classroomParams":{"A":{"a":1,"b":4},"B":{"a":4,"b":1},"C":{"a":2,"b":8},"D":{"a":8,"b":2}},"conditions":["nonSeqFull","nonSeqPartial","seqNoFeedback","seqFeedback"],"classroomPairings":[["A","B"],["C","D"]],"coinWeights":[0.2,0.5,0.8],"subjectId":"A25FH7PXC446RG","assignmentId":"3MYYFCXHJ4TPOJAXVIGNMN23CWB4GK","hitId":"3SD15I2WD2G0NA4TSPXGB81L5S7630","url":"https://gershmanlab.com/experiments/alicia/teaching/experiment/?hitId=3SD15I2WD2G0NA4TSPXGB81L5S7630&workerId=A25FH7PXC446RG&assignmentId=3MYYFCXHJ4TPOJAXVIGNMN23CWB4GK&a=HFYM9&tp_a=HFYM9&b=3MYYFCXHJ4TPOJAXVIGNMN23CWB4GK&tp_b=3MYYFCXHJ4TPOJAXVIGNMN23CWB4GK&c=365799&tp_c=365799"},{"rt":4534,"stimulus":"\n                <p>Student's guess for coin weight: <b style=\"color:Tomato;\">0.74</b></p>\n                <p>You received a bonus of <b>$0</b>. Total bonus so far: <b>$0.82</b></b></p>\n                <p></p>\n                <p>Press any key to continue.</p>\n                ","response":" ","trial_type":"html-keyboard-response","trial_index":70,"time_elapsed":2277871,"internal_node_id":"0.0-62.0","params":{"nStudents":24,"maxFlips":30,"completionMinutes":45,"basePay":8,"maxBonus":9,"perTrialBonus":0.5,"perTrialBonusThreshold":0.05,"exampleCost":0.01},"classroomParams":{"A":{"a":1,"b":4},"B":{"a":4,"b":1},"C":{"a":2,"b":8},"D":{"a":8,"b":2}},"conditions":["nonSeqFull","nonSeqPartial","seqNoFeedback","seqFeedback"],"classroomPairings":[["A","B"],["C","D"]],"coinWeights":[0.2,0.5,0.8],"subjectId":"A25FH7PXC446RG","assignmentId":"3MYYFCXHJ4TPOJAXVIGNMN23CWB4GK","hitId":"3SD15I2WD2G0NA4TSPXGB81L5S7630","url":"https://gershmanlab.com/experiments/alicia/teaching/experiment/?hitId=3SD15I2WD2G0NA4TSPXGB81L5S7630&workerId=A25FH7PXC446RG&assignmentId=3MYYFCXHJ4TPOJAXVIGNMN23CWB4GK&a=HFYM9&tp_a=HFYM9&b=3MYYFCXHJ4TPOJAXVIGNMN23CWB4GK&tp_b=3MYYFCXHJ4TPOJAXVIGNMN23CWB4GK&c=365799&tp_c=365799"},{"rt":null,"stimulus":"<div style=\"font-size:60px;\">Next student</div>","response":null,"trial_type":"html-keyboard-response","trial_index":71,"time_elapsed":2280129,"internal_node_id":"0.0-63.0-0.0","params":{"nStudents":24,"maxFlips":30,"completionMinutes":45,"basePay":8,"maxBonus":9,"perTrialBonus":0.5,"perTrialBonusThreshold":0.05,"exampleCost":0.01},"classroomParams":{"A":{"a":1,"b":4},"B":{"a":4,"b":1},"C":{"a":2,"b":8},"D":{"a":8,"b":2}},"conditions":["nonSeqFull","nonSeqPartial","seqNoFeedback","seqFeedback"],"classroomPairings":[["A","B"],["C","D"]],"coinWeights":[0.2,0.5,0.8],"subjectId":"A25FH7PXC446RG","assignmentId":"3MYYFCXHJ4TPOJAXVIGNMN23CWB4GK","hitId":"3SD15I2WD2G0NA4TSPXGB81L5S7630","url":"https://gershmanlab.com/experiments/alicia/teaching/experiment/?hitId=3SD15I2WD2G0NA4TSPXGB81L5S7630&workerId=A25FH7PXC446RG&assignmentId=3MYYFCXHJ4TPOJAXVIGNMN23CWB4GK&a=HFYM9&tp_a=HFYM9&b=3MYYFCXHJ4TPOJAXVIGNMN23CWB4GK&tp_b=3MYYFCXHJ4TPOJAXVIGNMN23CWB4GK&c=365799&tp_c=365799"},{"rt":1941,"stimulus":"\n            <h4 style=\"color:Orange;\">Student 9</h4>\n            <h2>The weight of your coin is <b style=\"color:Tomato;\">0.8</b>.</h2>\n            <p>In this block, you will be giving <b>one</b> set of examples to Student 9.</p>\n                <p>You will receive feedback at the end of the block.</p>\n            <p></p>","response":0,"trial_type":"html-button-response","trial_index":72,"time_elapsed":2282071,"internal_node_id":"0.0-64.0","params":{"nStudents":24,"maxFlips":30,"completionMinutes":45,"basePay":8,"maxBonus":9,"perTrialBonus":0.5,"perTrialBonusThreshold":0.05,"exampleCost":0.01},"classroomParams":{"A":{"a":1,"b":4},"B":{"a":4,"b":1},"C":{"a":2,"b":8},"D":{"a":8,"b":2}},"conditions":["nonSeqFull","nonSeqPartial","seqNoFeedback","seqFeedback"],"classroomPairings":[["A","B"],["C","D"]],"coinWeights":[0.2,0.5,0.8],"subjectId":"A25FH7PXC446RG","assignmentId":"3MYYFCXHJ4TPOJAXVIGNMN23CWB4GK","hitId":"3SD15I2WD2G0NA4TSPXGB81L5S7630","url":"https://gershmanlab.com/experiments/alicia/teaching/experiment/?hitId=3SD15I2WD2G0NA4TSPXGB81L5S7630&workerId=A25FH7PXC446RG&assignmentId=3MYYFCXHJ4TPOJAXVIGNMN23CWB4GK&a=HFYM9&tp_a=HFYM9&b=3MYYFCXHJ4TPOJAXVIGNMN23CWB4GK&tp_b=3MYYFCXHJ4TPOJAXVIGNMN23CWB4GK&c=365799&tp_c=365799"},{"rt":10376,"response":{"heads":"26","tails":"4"},"type":"response","condition":"nonSeqPartial","trueTheta":0.8,"classrooms":["C","D"],"studentTrueClassroom":"D","exampleSet":"first","trial_type":"survey-html-form","trial_index":73,"time_elapsed":2292448,"internal_node_id":"0.0-65.0-0.0","params":{"nStudents":24,"maxFlips":30,"completionMinutes":45,"basePay":8,"maxBonus":9,"perTrialBonus":0.5,"perTrialBonusThreshold":0.05,"exampleCost":0.01},"classroomParams":{"A":{"a":1,"b":4},"B":{"a":4,"b":1},"C":{"a":2,"b":8},"D":{"a":8,"b":2}},"conditions":["nonSeqFull","nonSeqPartial","seqNoFeedback","seqFeedback"],"classroomPairings":[["A","B"],["C","D"]],"coinWeights":[0.2,0.5,0.8],"subjectId":"A25FH7PXC446RG","assignmentId":"3MYYFCXHJ4TPOJAXVIGNMN23CWB4GK","hitId":"3SD15I2WD2G0NA4TSPXGB81L5S7630","url":"https://gershmanlab.com/experiments/alicia/teaching/experiment/?hitId=3SD15I2WD2G0NA4TSPXGB81L5S7630&workerId=A25FH7PXC446RG&assignmentId=3MYYFCXHJ4TPOJAXVIGNMN23CWB4GK&a=HFYM9&tp_a=HFYM9&b=3MYYFCXHJ4TPOJAXVIGNMN23CWB4GK&tp_b=3MYYFCXHJ4TPOJAXVIGNMN23CWB4GK&c=365799&tp_c=365799","heads":26,"tails":4,"studentIndex":8,"studentTrueHypers":{"a":8,"b":2},"studentGuess":0.85,"delta":0.04999999999999993,"totalExamples":30,"bonus":0.2,"bonusSoFar":1.02},{"rt":null,"stimulus":"Sending examples to student... ","response":null,"trial_type":"html-keyboard-response","trial_index":74,"time_elapsed":2293952,"internal_node_id":"0.0-66.0","params":{"nStudents":24,"maxFlips":30,"completionMinutes":45,"basePay":8,"maxBonus":9,"perTrialBonus":0.5,"perTrialBonusThreshold":0.05,"exampleCost":0.01},"classroomParams":{"A":{"a":1,"b":4},"B":{"a":4,"b":1},"C":{"a":2,"b":8},"D":{"a":8,"b":2}},"conditions":["nonSeqFull","nonSeqPartial","seqNoFeedback","seqFeedback"],"classroomPairings":[["A","B"],["C","D"]],"coinWeights":[0.2,0.5,0.8],"subjectId":"A25FH7PXC446RG","assignmentId":"3MYYFCXHJ4TPOJAXVIGNMN23CWB4GK","hitId":"3SD15I2WD2G0NA4TSPXGB81L5S7630","url":"https://gershmanlab.com/experiments/alicia/teaching/experiment/?hitId=3SD15I2WD2G0NA4TSPXGB81L5S7630&workerId=A25FH7PXC446RG&assignmentId=3MYYFCXHJ4TPOJAXVIGNMN23CWB4GK&a=HFYM9&tp_a=HFYM9&b=3MYYFCXHJ4TPOJAXVIGNMN23CWB4GK&tp_b=3MYYFCXHJ4TPOJAXVIGNMN23CWB4GK&c=365799&tp_c=365799"},{"rt":null,"stimulus":"Examples sent to student! Waiting for student...","response":null,"trial_type":"html-keyboard-response","trial_index":75,"time_elapsed":2298455,"internal_node_id":"0.0-67.0","params":{"nStudents":24,"maxFlips":30,"completionMinutes":45,"basePay":8,"maxBonus":9,"perTrialBonus":0.5,"perTrialBonusThreshold":0.05,"exampleCost":0.01},"classroomParams":{"A":{"a":1,"b":4},"B":{"a":4,"b":1},"C":{"a":2,"b":8},"D":{"a":8,"b":2}},"conditions":["nonSeqFull","nonSeqPartial","seqNoFeedback","seqFeedback"],"classroomPairings":[["A","B"],["C","D"]],"coinWeights":[0.2,0.5,0.8],"subjectId":"A25FH7PXC446RG","assignmentId":"3MYYFCXHJ4TPOJAXVIGNMN23CWB4GK","hitId":"3SD15I2WD2G0NA4TSPXGB81L5S7630","url":"https://gershmanlab.com/experiments/alicia/teaching/experiment/?hitId=3SD15I2WD2G0NA4TSPXGB81L5S7630&workerId=A25FH7PXC446RG&assignmentId=3MYYFCXHJ4TPOJAXVIGNMN23CWB4GK&a=HFYM9&tp_a=HFYM9&b=3MYYFCXHJ4TPOJAXVIGNMN23CWB4GK&tp_b=3MYYFCXHJ4TPOJAXVIGNMN23CWB4GK&c=365799&tp_c=365799"},{"rt":3565,"stimulus":"\n                <p>Student's guess for coin weight: <b style=\"color:Tomato;\">0.85</b></p>\n                <p>You received a bonus of <b>$0.2</b>. Total bonus so far: <b>$1.02</b></b></p>\n                <p></p>\n                <p>Press any key to continue.</p>\n                ","response":" ","trial_type":"html-keyboard-response","trial_index":76,"time_elapsed":2302021,"internal_node_id":"0.0-68.0","params":{"nStudents":24,"maxFlips":30,"completionMinutes":45,"basePay":8,"maxBonus":9,"perTrialBonus":0.5,"perTrialBonusThreshold":0.05,"exampleCost":0.01},"classroomParams":{"A":{"a":1,"b":4},"B":{"a":4,"b":1},"C":{"a":2,"b":8},"D":{"a":8,"b":2}},"conditions":["nonSeqFull","nonSeqPartial","seqNoFeedback","seqFeedback"],"classroomPairings":[["A","B"],["C","D"]],"coinWeights":[0.2,0.5,0.8],"subjectId":"A25FH7PXC446RG","assignmentId":"3MYYFCXHJ4TPOJAXVIGNMN23CWB4GK","hitId":"3SD15I2WD2G0NA4TSPXGB81L5S7630","url":"https://gershmanlab.com/experiments/alicia/teaching/experiment/?hitId=3SD15I2WD2G0NA4TSPXGB81L5S7630&workerId=A25FH7PXC446RG&assignmentId=3MYYFCXHJ4TPOJAXVIGNMN23CWB4GK&a=HFYM9&tp_a=HFYM9&b=3MYYFCXHJ4TPOJAXVIGNMN23CWB4GK&tp_b=3MYYFCXHJ4TPOJAXVIGNMN23CWB4GK&c=365799&tp_c=365799"},{"rt":null,"stimulus":"<div style=\"font-size:60px;\">Next student</div>","response":null,"trial_type":"html-keyboard-response","trial_index":77,"time_elapsed":2304278,"internal_node_id":"0.0-69.0-0.0","params":{"nStudents":24,"maxFlips":30,"completionMinutes":45,"basePay":8,"maxBonus":9,"perTrialBonus":0.5,"perTrialBonusThreshold":0.05,"exampleCost":0.01},"classroomParams":{"A":{"a":1,"b":4},"B":{"a":4,"b":1},"C":{"a":2,"b":8},"D":{"a":8,"b":2}},"conditions":["nonSeqFull","nonSeqPartial","seqNoFeedback","seqFeedback"],"classroomPairings":[["A","B"],["C","D"]],"coinWeights":[0.2,0.5,0.8],"subjectId":"A25FH7PXC446RG","assignmentId":"3MYYFCXHJ4TPOJAXVIGNMN23CWB4GK","hitId":"3SD15I2WD2G0NA4TSPXGB81L5S7630","url":"https://gershmanlab.com/experiments/alicia/teaching/experiment/?hitId=3SD15I2WD2G0NA4TSPXGB81L5S7630&workerId=A25FH7PXC446RG&assignmentId=3MYYFCXHJ4TPOJAXVIGNMN23CWB4GK&a=HFYM9&tp_a=HFYM9&b=3MYYFCXHJ4TPOJAXVIGNMN23CWB4GK&tp_b=3MYYFCXHJ4TPOJAXVIGNMN23CWB4GK&c=365799&tp_c=365799"},{"rt":2752,"stimulus":"\n            <h4 style=\"color:Orange;\">Student 10</h4>\n            <h2>The weight of your coin is <b style=\"color:Tomato;\">0.2</b>.</h2>\n            <p>In this block, you will be giving <b>one</b> set of examples to Student 10.</p>\n                <p>You will receive feedback at the end of the block.</p>\n            <p></p>","response":0,"trial_type":"html-button-response","trial_index":78,"time_elapsed":2307031,"internal_node_id":"0.0-70.0","params":{"nStudents":24,"maxFlips":30,"completionMinutes":45,"basePay":8,"maxBonus":9,"perTrialBonus":0.5,"perTrialBonusThreshold":0.05,"exampleCost":0.01},"classroomParams":{"A":{"a":1,"b":4},"B":{"a":4,"b":1},"C":{"a":2,"b":8},"D":{"a":8,"b":2}},"conditions":["nonSeqFull","nonSeqPartial","seqNoFeedback","seqFeedback"],"classroomPairings":[["A","B"],["C","D"]],"coinWeights":[0.2,0.5,0.8],"subjectId":"A25FH7PXC446RG","assignmentId":"3MYYFCXHJ4TPOJAXVIGNMN23CWB4GK","hitId":"3SD15I2WD2G0NA4TSPXGB81L5S7630","url":"https://gershmanlab.com/experiments/alicia/teaching/experiment/?hitId=3SD15I2WD2G0NA4TSPXGB81L5S7630&workerId=A25FH7PXC446RG&assignmentId=3MYYFCXHJ4TPOJAXVIGNMN23CWB4GK&a=HFYM9&tp_a=HFYM9&b=3MYYFCXHJ4TPOJAXVIGNMN23CWB4GK&tp_b=3MYYFCXHJ4TPOJAXVIGNMN23CWB4GK&c=365799&tp_c=365799"},{"rt":16325,"response":{"heads":"4","tails":"26"},"type":"response","condition":"nonSeqFull","trueTheta":0.2,"classrooms":["A","B"],"studentTrueClassroom":"A","exampleSet":"first","trial_type":"survey-html-form","trial_index":79,"time_elapsed":2323351,"internal_node_id":"0.0-71.0-0.0","params":{"nStudents":24,"maxFlips":30,"completionMinutes":45,"basePay":8,"maxBonus":9,"perTrialBonus":0.5,"perTrialBonusThreshold":0.05,"exampleCost":0.01},"classroomParams":{"A":{"a":1,"b":4},"B":{"a":4,"b":1},"C":{"a":2,"b":8},"D":{"a":8,"b":2}},"conditions":["nonSeqFull","nonSeqPartial","seqNoFeedback","seqFeedback"],"classroomPairings":[["A","B"],["C","D"]],"coinWeights":[0.2,0.5,0.8],"subjectId":"A25FH7PXC446RG","assignmentId":"3MYYFCXHJ4TPOJAXVIGNMN23CWB4GK","hitId":"3SD15I2WD2G0NA4TSPXGB81L5S7630","url":"https://gershmanlab.com/experiments/alicia/teaching/experiment/?hitId=3SD15I2WD2G0NA4TSPXGB81L5S7630&workerId=A25FH7PXC446RG&assignmentId=3MYYFCXHJ4TPOJAXVIGNMN23CWB4GK&a=HFYM9&tp_a=HFYM9&b=3MYYFCXHJ4TPOJAXVIGNMN23CWB4GK&tp_b=3MYYFCXHJ4TPOJAXVIGNMN23CWB4GK&c=365799&tp_c=365799","heads":4,"tails":26,"studentIndex":9,"studentTrueHypers":{"a":1,"b":4},"studentGuess":0.14285714285714285,"delta":0.05714285714285716,"totalExamples":30,"bonus":0,"bonusSoFar":1.02},{"rt":null,"stimulus":"Sending examples to student... ","response":null,"trial_type":"html-keyboard-response","trial_index":80,"time_elapsed":2325116,"internal_node_id":"0.0-72.0","params":{"nStudents":24,"maxFlips":30,"completionMinutes":45,"basePay":8,"maxBonus":9,"perTrialBonus":0.5,"perTrialBonusThreshold":0.05,"exampleCost":0.01},"classroomParams":{"A":{"a":1,"b":4},"B":{"a":4,"b":1},"C":{"a":2,"b":8},"D":{"a":8,"b":2}},"conditions":["nonSeqFull","nonSeqPartial","seqNoFeedback","seqFeedback"],"classroomPairings":[["A","B"],["C","D"]],"coinWeights":[0.2,0.5,0.8],"subjectId":"A25FH7PXC446RG","assignmentId":"3MYYFCXHJ4TPOJAXVIGNMN23CWB4GK","hitId":"3SD15I2WD2G0NA4TSPXGB81L5S7630","url":"https://gershmanlab.com/experiments/alicia/teaching/experiment/?hitId=3SD15I2WD2G0NA4TSPXGB81L5S7630&workerId=A25FH7PXC446RG&assignmentId=3MYYFCXHJ4TPOJAXVIGNMN23CWB4GK&a=HFYM9&tp_a=HFYM9&b=3MYYFCXHJ4TPOJAXVIGNMN23CWB4GK&tp_b=3MYYFCXHJ4TPOJAXVIGNMN23CWB4GK&c=365799&tp_c=365799"},{"rt":null,"stimulus":"Examples sent to student! Waiting for student...","response":null,"trial_type":"html-keyboard-response","trial_index":81,"time_elapsed":2331127,"internal_node_id":"0.0-73.0","params":{"nStudents":24,"maxFlips":30,"completionMinutes":45,"basePay":8,"maxBonus":9,"perTrialBonus":0.5,"perTrialBonusThreshold":0.05,"exampleCost":0.01},"classroomParams":{"A":{"a":1,"b":4},"B":{"a":4,"b":1},"C":{"a":2,"b":8},"D":{"a":8,"b":2}},"conditions":["nonSeqFull","nonSeqPartial","seqNoFeedback","seqFeedback"],"classroomPairings":[["A","B"],["C","D"]],"coinWeights":[0.2,0.5,0.8],"subjectId":"A25FH7PXC446RG","assignmentId":"3MYYFCXHJ4TPOJAXVIGNMN23CWB4GK","hitId":"3SD15I2WD2G0NA4TSPXGB81L5S7630","url":"https://gershmanlab.com/experiments/alicia/teaching/experiment/?hitId=3SD15I2WD2G0NA4TSPXGB81L5S7630&workerId=A25FH7PXC446RG&assignmentId=3MYYFCXHJ4TPOJAXVIGNMN23CWB4GK&a=HFYM9&tp_a=HFYM9&b=3MYYFCXHJ4TPOJAXVIGNMN23CWB4GK&tp_b=3MYYFCXHJ4TPOJAXVIGNMN23CWB4GK&c=365799&tp_c=365799"},{"rt":3879,"stimulus":"\n                <p>Student's guess for coin weight: <b style=\"color:Tomato;\">0.14</b></p>\n                <p>You received a bonus of <b>$0</b>. Total bonus so far: <b>$1.02</b></b></p>\n                <p></p>\n                <p>Press any key to continue.</p>\n                ","response":" ","trial_type":"html-keyboard-response","trial_index":82,"time_elapsed":2335007,"internal_node_id":"0.0-74.0","params":{"nStudents":24,"maxFlips":30,"completionMinutes":45,"basePay":8,"maxBonus":9,"perTrialBonus":0.5,"perTrialBonusThreshold":0.05,"exampleCost":0.01},"classroomParams":{"A":{"a":1,"b":4},"B":{"a":4,"b":1},"C":{"a":2,"b":8},"D":{"a":8,"b":2}},"conditions":["nonSeqFull","nonSeqPartial","seqNoFeedback","seqFeedback"],"classroomPairings":[["A","B"],["C","D"]],"coinWeights":[0.2,0.5,0.8],"subjectId":"A25FH7PXC446RG","assignmentId":"3MYYFCXHJ4TPOJAXVIGNMN23CWB4GK","hitId":"3SD15I2WD2G0NA4TSPXGB81L5S7630","url":"https://gershmanlab.com/experiments/alicia/teaching/experiment/?hitId=3SD15I2WD2G0NA4TSPXGB81L5S7630&workerId=A25FH7PXC446RG&assignmentId=3MYYFCXHJ4TPOJAXVIGNMN23CWB4GK&a=HFYM9&tp_a=HFYM9&b=3MYYFCXHJ4TPOJAXVIGNMN23CWB4GK&tp_b=3MYYFCXHJ4TPOJAXVIGNMN23CWB4GK&c=365799&tp_c=365799"},{"rt":null,"stimulus":"<div style=\"font-size:60px;\">Next student</div>","response":null,"trial_type":"html-keyboard-response","trial_index":83,"time_elapsed":2337260,"internal_node_id":"0.0-75.0-0.0","params":{"nStudents":24,"maxFlips":30,"completionMinutes":45,"basePay":8,"maxBonus":9,"perTrialBonus":0.5,"perTrialBonusThreshold":0.05,"exampleCost":0.01},"classroomParams":{"A":{"a":1,"b":4},"B":{"a":4,"b":1},"C":{"a":2,"b":8},"D":{"a":8,"b":2}},"conditions":["nonSeqFull","nonSeqPartial","seqNoFeedback","seqFeedback"],"classroomPairings":[["A","B"],["C","D"]],"coinWeights":[0.2,0.5,0.8],"subjectId":"A25FH7PXC446RG","assignmentId":"3MYYFCXHJ4TPOJAXVIGNMN23CWB4GK","hitId":"3SD15I2WD2G0NA4TSPXGB81L5S7630","url":"https://gershmanlab.com/experiments/alicia/teaching/experiment/?hitId=3SD15I2WD2G0NA4TSPXGB81L5S7630&workerId=A25FH7PXC446RG&assignmentId=3MYYFCXHJ4TPOJAXVIGNMN23CWB4GK&a=HFYM9&tp_a=HFYM9&b=3MYYFCXHJ4TPOJAXVIGNMN23CWB4GK&tp_b=3MYYFCXHJ4TPOJAXVIGNMN23CWB4GK&c=365799&tp_c=365799"},{"rt":1917,"stimulus":"\n            <h4 style=\"color:Orange;\">Student 11</h4>\n            <h2>The weight of your coin is <b style=\"color:Tomato;\">0.2</b>.</h2>\n            <p>In this block, you will be giving <b>two</b> sets of examples to Student 11.</p>\n                <p>You will receive feedback at the end of the block.</p>\n            <p></p>","response":0,"trial_type":"html-button-response","trial_index":84,"time_elapsed":2339178,"internal_node_id":"0.0-76.0","params":{"nStudents":24,"maxFlips":30,"completionMinutes":45,"basePay":8,"maxBonus":9,"perTrialBonus":0.5,"perTrialBonusThreshold":0.05,"exampleCost":0.01},"classroomParams":{"A":{"a":1,"b":4},"B":{"a":4,"b":1},"C":{"a":2,"b":8},"D":{"a":8,"b":2}},"conditions":["nonSeqFull","nonSeqPartial","seqNoFeedback","seqFeedback"],"classroomPairings":[["A","B"],["C","D"]],"coinWeights":[0.2,0.5,0.8],"subjectId":"A25FH7PXC446RG","assignmentId":"3MYYFCXHJ4TPOJAXVIGNMN23CWB4GK","hitId":"3SD15I2WD2G0NA4TSPXGB81L5S7630","url":"https://gershmanlab.com/experiments/alicia/teaching/experiment/?hitId=3SD15I2WD2G0NA4TSPXGB81L5S7630&workerId=A25FH7PXC446RG&assignmentId=3MYYFCXHJ4TPOJAXVIGNMN23CWB4GK&a=HFYM9&tp_a=HFYM9&b=3MYYFCXHJ4TPOJAXVIGNMN23CWB4GK&tp_b=3MYYFCXHJ4TPOJAXVIGNMN23CWB4GK