[{"rt":2666,"stimulus":"Welcome to the experiment. Press any key to begin.","response":"f","trial_type":"html-keyboard-response","trial_index":0,"time_elapsed":2680,"internal_node_id":"0.0-0.0","params":{"nStudents":24,"maxFlips":30,"completionMinutes":45,"basePay":8,"maxBonus":9,"perTrialBonus":0.5,"perTrialBonusThreshold":0.05,"exampleCost":0.01},"classroomParams":{"A":{"a":1,"b":4},"B":{"a":4,"b":1},"C":{"a":2,"b":8},"D":{"a":8,"b":2}},"conditions":["nonSeqFull","nonSeqPartial","seqNoFeedback","seqFeedback"],"classroomPairings":[["A","B"],["C","D"]],"coinWeights":[0.2,0.5,0.8],"subjectId":"A26SF9CTNKKBYB","assignmentId":"3S96KQ6I9NQ6TKFW8TGNOABYF1QDTP","hitId":"3FJ2RVH25ZSYKBA8MWMNC8NVPF629N","url":"https://gershmanlab.com/experiments/alicia/teaching/experiment/?hitId=3FJ2RVH25ZSYKBA8MWMNC8NVPF629N&workerId=A26SF9CTNKKBYB&assignmentId=3S96KQ6I9NQ6TKFW8TGNOABYF1QDTP&a=IK9S7&tp_a=IK9S7&b=3S96KQ6I9NQ6TKFW8TGNOABYF1QDTP&tp_b=3S96KQ6I9NQ6TKFW8TGNOABYF1QDTP&c=365717&tp_c=365717"},{"rt":4670,"stimulus":"\n        <h3>Please read this consent agreement carefully before deciding whether to participate in this experiment.</h3>\n        <p><b>Purpose of the research:</b> To examine how people teach effectively.</p>\n        <p><b>What you will do in this research:</b> You will teach students the weights of different coins.</p>\n        <p><b>Time required:</b> This experiment will take 45 minutes to complete.</p>\n        <p><b>Risks:</b> There are no anticipated risks associated with participating in this study.             The effects of participating should be comparable to those you would experience from viewing a computer monitor             and using a mouse and keyboard for the duration of the experiment.</p>\n        <p><b>Benefits:</b> The study provides important information about the nature of teaching.</p>\n        <p><b>Compensation:</b> You will receive <b>$8</b> for completing the experiment and a performance bonus of up to <b>$9</b>.</p>\n        <p><b>Confidentiality:</b> Your participation in this study will remain confidential.             No personally identifiable information will be associated with your data.             Your de-identified data may be shared with other researchers and used in future projects.</p>\n        <p><b>Participation and withdrawal:</b> Your participation in this study is completely voluntary and             you may refuse to participate or you may choose to withdraw at any time without penalty or loss of\n            benefits to which you are otherwise entitled.</p>\n        <p><b>How to contact the researcher:</b> If you have questions or concerns about your participation            or payment, or want to request a summary of research findings, please contact\n            Alicia Chen, aliciachen@college.harvard.edu.</p>\n        <p><b>Whom to contact about your rights in this research:</b> For questions, concerns, suggestions,             or complaints that have not been or cannot be addressed by the researcher, or to report             research-related harm, please contact the Committee on the Use of Human Subjects in Research at Harvard University,             1414 Massachusetts Avenue, Second Floor, Cambridge, MA 02138. Phone: 617-496-2847. Email: cuhs@fas.harvard.edu.</p>\n        ","response":0,"trial_type":"html-button-response","trial_index":1,"time_elapsed":7354,"internal_node_id":"0.0-1.0","params":{"nStudents":24,"maxFlips":30,"completionMinutes":45,"basePay":8,"maxBonus":9,"perTrialBonus":0.5,"perTrialBonusThreshold":0.05,"exampleCost":0.01},"classroomParams":{"A":{"a":1,"b":4},"B":{"a":4,"b":1},"C":{"a":2,"b":8},"D":{"a":8,"b":2}},"conditions":["nonSeqFull","nonSeqPartial","seqNoFeedback","seqFeedback"],"classroomPairings":[["A","B"],["C","D"]],"coinWeights":[0.2,0.5,0.8],"subjectId":"A26SF9CTNKKBYB","assignmentId":"3S96KQ6I9NQ6TKFW8TGNOABYF1QDTP","hitId":"3FJ2RVH25ZSYKBA8MWMNC8NVPF629N","url":"https://gershmanlab.com/experiments/alicia/teaching/experiment/?hitId=3FJ2RVH25ZSYKBA8MWMNC8NVPF629N&workerId=A26SF9CTNKKBYB&assignmentId=3S96KQ6I9NQ6TKFW8TGNOABYF1QDTP&a=IK9S7&tp_a=IK9S7&b=3S96KQ6I9NQ6TKFW8TGNOABYF1QDTP&tp_b=3S96KQ6I9NQ6TKFW8TGNOABYF1QDTP&c=365717&tp_c=365717"},{"view_history":[{"page_index":0,"viewing_time":5401},{"page_index":1,"viewing_time":3087},{"page_index":2,"viewing_time":29097},{"page_index":3,"viewing_time":16297},{"page_index":4,"viewing_time":13440},{"page_index":5,"viewing_time":26136},{"page_index":6,"viewing_time":27881}],"rt":121340,"trial_type":"instructions","trial_index":2,"time_elapsed":128700,"internal_node_id":"0.0-2.0-0.0","params":{"nStudents":24,"maxFlips":30,"completionMinutes":45,"basePay":8,"maxBonus":9,"perTrialBonus":0.5,"perTrialBonusThreshold":0.05,"exampleCost":0.01},"classroomParams":{"A":{"a":1,"b":4},"B":{"a":4,"b":1},"C":{"a":2,"b":8},"D":{"a":8,"b":2}},"conditions":["nonSeqFull","nonSeqPartial","seqNoFeedback","seqFeedback"],"classroomPairings":[["A","B"],["C","D"]],"coinWeights":[0.2,0.5,0.8],"subjectId":"A26SF9CTNKKBYB","assignmentId":"3S96KQ6I9NQ6TKFW8TGNOABYF1QDTP","hitId":"3FJ2RVH25ZSYKBA8MWMNC8NVPF629N","url":"https://gershmanlab.com/experiments/alicia/teaching/experiment/?hitId=3FJ2RVH25ZSYKBA8MWMNC8NVPF629N&workerId=A26SF9CTNKKBYB&assignmentId=3S96KQ6I9NQ6TKFW8TGNOABYF1QDTP&a=IK9S7&tp_a=IK9S7&b=3S96KQ6I9NQ6TKFW8TGNOABYF1QDTP&tp_b=3S96KQ6I9NQ6TKFW8TGNOABYF1QDTP&c=365717&tp_c=365717"},{"rt":50996,"response":{"Q0":"Students in different classrooms have seen a different proportion of fair and unfair coins before seeing the examples you select for them.","Q1":"By <b>considering the student's classroom information</b> so that I can teach efficiently and accurately/helpfully at the same time (because each example I give to the student costs money!).","Q2":"The coin lands heads 90% of the time.","Q3":"No, I will teach a <b>new</b> student each time.","Q4":"The students are also on the same alien planet as you, where coins can be unfair.","Q5":"Based on the student's second (and final) guess."},"question_order":[3,4,2,1,0,5],"trial_type":"survey-multi-choice","trial_index":3,"time_elapsed":179704,"internal_node_id":"0.0-2.0-1.0","params":{"nStudents":24,"maxFlips":30,"completionMinutes":45,"basePay":8,"maxBonus":9,"perTrialBonus":0.5,"perTrialBonusThreshold":0.05,"exampleCost":0.01},"classroomParams":{"A":{"a":1,"b":4},"B":{"a":4,"b":1},"C":{"a":2,"b":8},"D":{"a":8,"b":2}},"conditions":["nonSeqFull","nonSeqPartial","seqNoFeedback","seqFeedback"],"classroomPairings":[["A","B"],["C","D"]],"coinWeights":[0.2,0.5,0.8],"subjectId":"A26SF9CTNKKBYB","assignmentId":"3S96KQ6I9NQ6TKFW8TGNOABYF1QDTP","hitId":"3FJ2RVH25ZSYKBA8MWMNC8NVPF629N","url":"https://gershmanlab.com/experiments/alicia/teaching/experiment/?hitId=3FJ2RVH25ZSYKBA8MWMNC8NVPF629N&workerId=A26SF9CTNKKBYB&assignmentId=3S96KQ6I9NQ6TKFW8TGNOABYF1QDTP&a=IK9S7&tp_a=IK9S7&b=3S96KQ6I9NQ6TKFW8TGNOABYF1QDTP&tp_b=3S96KQ6I9NQ6TKFW8TGNOABYF1QDTP&c=365717&tp_c=365717","pass":false},{"rt":2352,"stimulus":"Oops, you have missed question(s) on the comprehension check! We'll show you the instructions again.","response":0,"trial_type":"html-button-response","trial_index":4,"time_elapsed":182067,"internal_node_id":"0.0-2.0-2.0-0.0","params":{"nStudents":24,"maxFlips":30,"completionMinutes":45,"basePay":8,"maxBonus":9,"perTrialBonus":0.5,"perTrialBonusThreshold":0.05,"exampleCost":0.01},"classroomParams":{"A":{"a":1,"b":4},"B":{"a":4,"b":1},"C":{"a":2,"b":8},"D":{"a":8,"b":2}},"conditions":["nonSeqFull","nonSeqPartial","seqNoFeedback","seqFeedback"],"classroomPairings":[["A","B"],["C","D"]],"coinWeights":[0.2,0.5,0.8],"subjectId":"A26SF9CTNKKBYB","assignmentId":"3S96KQ6I9NQ6TKFW8TGNOABYF1QDTP","hitId":"3FJ2RVH25ZSYKBA8MWMNC8NVPF629N","url":"https://gershmanlab.com/experiments/alicia/teaching/experiment/?hitId=3FJ2RVH25ZSYKBA8MWMNC8NVPF629N&workerId=A26SF9CTNKKBYB&assignmentId=3S96KQ6I9NQ6TKFW8TGNOABYF1QDTP&a=IK9S7&tp_a=IK9S7&b=3S96KQ6I9NQ6TKFW8TGNOABYF1QDTP&tp_b=3S96KQ6I9NQ6TKFW8TGNOABYF1QDTP&c=365717&tp_c=365717"},{"view_history":[{"page_index":0,"viewing_time":3126},{"page_index":1,"viewing_time":1496},{"page_index":2,"viewing_time":57394},{"page_index":3,"viewing_time":967},{"page_index":2,"viewing_time":3745},{"page_index":1,"viewing_time":3344},{"page_index":0,"viewing_time":1552},{"page_index":1,"viewing_time":504},{"page_index":2,"viewing_time":1472},{"page_index":3,"viewing_time":3184},{"page_index":4,"viewing_time":10552},{"page_index":5,"viewing_time":14256},{"page_index":6,"viewing_time":27145}],"rt":128738,"trial_type":"instructions","trial_index":5,"time_elapsed":310822,"internal_node_id":"0.0-2.1-0.1","params":{"nStudents":24,"maxFlips":30,"completionMinutes":45,"basePay":8,"maxBonus":9,"perTrialBonus":0.5,"perTrialBonusThreshold":0.05,"exampleCost":0.01},"classroomParams":{"A":{"a":1,"b":4},"B":{"a":4,"b":1},"C":{"a":2,"b":8},"D":{"a":8,"b":2}},"conditions":["nonSeqFull","nonSeqPartial","seqNoFeedback","seqFeedback"],"classroomPairings":[["A","B"],["C","D"]],"coinWeights":[0.2,0.5,0.8],"subjectId":"A26SF9CTNKKBYB","assignmentId":"3S96KQ6I9NQ6TKFW8TGNOABYF1QDTP","hitId":"3FJ2RVH25ZSYKBA8MWMNC8NVPF629N","url":"https://gershmanlab.com/experiments/alicia/teaching/experiment/?hitId=3FJ2RVH25ZSYKBA8MWMNC8NVPF629N&workerId=A26SF9CTNKKBYB&assignmentId=3S96KQ6I9NQ6TKFW8TGNOABYF1QDTP&a=IK9S7&tp_a=IK9S7&b=3S96KQ6I9NQ6TKFW8TGNOABYF1QDTP&tp_b=3S96KQ6I9NQ6TKFW8TGNOABYF1QDTP&c=365717&tp_c=365717"},{"rt":48001,"response":{"Q0":"Students in different classrooms will have seen a different number of heads and tails before seeing the examples you select for them.","Q1":"By <b>considering the student's classroom information</b> so that I can teach efficiently and accurately/helpfully at the same time (because each example I give to the student costs money!).","Q2":"The coin lands heads 90% of the time.","Q3":"Yes, I might encounter the same student twice.","Q4":"The students are also on the same alien planet as you, where coins can be unfair.","Q5":"Based on the student's second (and final) guess."},"question_order":[2,5,4,3,0,1],"trial_type":"survey-multi-choice","trial_index":6,"time_elapsed":358827,"internal_node_id":"0.0-2.1-1.1","params":{"nStudents":24,"maxFlips":30,"completionMinutes":45,"basePay":8,"maxBonus":9,"perTrialBonus":0.5,"perTrialBonusThreshold":0.05,"exampleCost":0.01},"classroomParams":{"A":{"a":1,"b":4},"B":{"a":4,"b":1},"C":{"a":2,"b":8},"D":{"a":8,"b":2}},"conditions":["nonSeqFull","nonSeqPartial","seqNoFeedback","seqFeedback"],"classroomPairings":[["A","B"],["C","D"]],"coinWeights":[0.2,0.5,0.8],"subjectId":"A26SF9CTNKKBYB","assignmentId":"3S96KQ6I9NQ6TKFW8TGNOABYF1QDTP","hitId":"3FJ2RVH25ZSYKBA8MWMNC8NVPF629N","url":"https://gershmanlab.com/experiments/alicia/teaching/experiment/?hitId=3FJ2RVH25ZSYKBA8MWMNC8NVPF629N&workerId=A26SF9CTNKKBYB&assignmentId=3S96KQ6I9NQ6TKFW8TGNOABYF1QDTP&a=IK9S7&tp_a=IK9S7&b=3S96KQ6I9NQ6TKFW8TGNOABYF1QDTP&tp_b=3S96KQ6I9NQ6TKFW8TGNOABYF1QDTP&c=365717&tp_c=365717","pass":false},{"rt":2524,"stimulus":"Oops, you have missed question(s) on the comprehension check! We'll show you the instructions again.","response":0,"trial_type":"html-button-response","trial_index":7,"time_elapsed":361361,"internal_node_id":"0.0-2.1-2.1-0.1","params":{"nStudents":24,"maxFlips":30,"completionMinutes":45,"basePay":8,"maxBonus":9,"perTrialBonus":0.5,"perTrialBonusThreshold":0.05,"exampleCost":0.01},"classroomParams":{"A":{"a":1,"b":4},"B":{"a":4,"b":1},"C":{"a":2,"b":8},"D":{"a":8,"b":2}},"conditions":["nonSeqFull","nonSeqPartial","seqNoFeedback","seqFeedback"],"classroomPairings":[["A","B"],["C","D"]],"coinWeights":[0.2,0.5,0.8],"subjectId":"A26SF9CTNKKBYB","assignmentId":"3S96KQ6I9NQ6TKFW8TGNOABYF1QDTP","hitId":"3FJ2RVH25ZSYKBA8MWMNC8NVPF629N","url":"https://gershmanlab.com/experiments/alicia/teaching/experiment/?hitId=3FJ2RVH25ZSYKBA8MWMNC8NVPF629N&workerId=A26SF9CTNKKBYB&assignmentId=3S96KQ6I9NQ6TKFW8TGNOABYF1QDTP&a=IK9S7&tp_a=IK9S7&b=3S96KQ6I9NQ6TKFW8TGNOABYF1QDTP&tp_b=3S96KQ6I9NQ6TKFW8TGNOABYF1QDTP&c=365717&tp_c=365717"},{"view_history":[{"page_index":0,"viewing_time":4892},{"page_index":1,"viewing_time":1120},{"page_index":2,"viewing_time":1144},{"page_index":1,"viewing_time":928},{"page_index":2,"viewing_time":17504},{"page_index":3,"viewing_time":13800},{"page_index":4,"viewing_time":17577},{"page_index":5,"viewing_time":20825},{"page_index":6,"viewing_time":3344}],"rt":81134,"trial_type":"instructions","trial_index":8,"time_elapsed":442497,"internal_node_id":"0.0-2.2-0.2","params":{"nStudents":24,"maxFlips":30,"completionMinutes":45,"basePay":8,"maxBonus":9,"perTrialBonus":0.5,"perTrialBonusThreshold":0.05,"exampleCost":0.01},"classroomParams":{"A":{"a":1,"b":4},"B":{"a":4,"b":1},"C":{"a":2,"b":8},"D":{"a":8,"b":2}},"conditions":["nonSeqFull","nonSeqPartial","seqNoFeedback","seqFeedback"],"classroomPairings":[["A","B"],["C","D"]],"coinWeights":[0.2,0.5,0.8],"subjectId":"A26SF9CTNKKBYB","assignmentId":"3S96KQ6I9NQ6TKFW8TGNOABYF1QDTP","hitId":"3FJ2RVH25ZSYKBA8MWMNC8NVPF629N","url":"https://gershmanlab.com/experiments/alicia/teaching/experiment/?hitId=3FJ2RVH25ZSYKBA8MWMNC8NVPF629N&workerId=A26SF9CTNKKBYB&assignmentId=3S96KQ6I9NQ6TKFW8TGNOABYF1QDTP&a=IK9S7&tp_a=IK9S7&b=3S96KQ6I9NQ6TKFW8TGNOABYF1QDTP&tp_b=3S96KQ6I9NQ6TKFW8TGNOABYF1QDTP&c=365717&tp_c=365717"},{"rt":37910,"response":{"Q0":"Students in different classrooms will have seen a different number of heads and tails before seeing the examples you select for them.","Q1":"By <b>considering the student's classroom information</b> so that I can teach efficiently and accurately/helpfully at the same time (because each example I give to the student costs money!).","Q2":"The coin lands heads 90% of the time.","Q3":"No, I will teach a <b>new</b> student each time.","Q4":"The students are also on the same alien planet as you, where coins can be unfair.","Q5":"Based on the student's second (and final) guess."},"question_order":[2,1,5,3,0,4],"trial_type":"survey-multi-choice","trial_index":9,"time_elapsed":480413,"internal_node_id":"0.0-2.2-1.2","params":{"nStudents":24,"maxFlips":30,"completionMinutes":45,"basePay":8,"maxBonus":9,"perTrialBonus":0.5,"perTrialBonusThreshold":0.05,"exampleCost":0.01},"classroomParams":{"A":{"a":1,"b":4},"B":{"a":4,"b":1},"C":{"a":2,"b":8},"D":{"a":8,"b":2}},"conditions":["nonSeqFull","nonSeqPartial","seqNoFeedback","seqFeedback"],"classroomPairings":[["A","B"],["C","D"]],"coinWeights":[0.2,0.5,0.8],"subjectId":"A26SF9CTNKKBYB","assignmentId":"3S96KQ6I9NQ6TKFW8TGNOABYF1QDTP","hitId":"3FJ2RVH25ZSYKBA8MWMNC8NVPF629N","url":"https://gershmanlab.com/experiments/alicia/teaching/experiment/?hitId=3FJ2RVH25ZSYKBA8MWMNC8NVPF629N&workerId=A26SF9CTNKKBYB&assignmentId=3S96KQ6I9NQ6TKFW8TGNOABYF1QDTP&a=IK9S7&tp_a=IK9S7&b=3S96KQ6I9NQ6TKFW8TGNOABYF1QDTP&tp_b=3S96KQ6I9NQ6TKFW8TGNOABYF1QDTP&c=365717&tp_c=365717","pass":true},{"rt":null,"stimulus":"<div style=\"font-size:30px;\">Congrats on passing the comprehension quiz! The experiment will begin in a few seconds.</div>","response":null,"trial_type":"html-keyboard-response","trial_index":10,"time_elapsed":483424,"internal_node_id":"0.0-3.0","params":{"nStudents":24,"maxFlips":30,"completionMinutes":45,"basePay":8,"maxBonus":9,"perTrialBonus":0.5,"perTrialBonusThreshold":0.05,"exampleCost":0.01},"classroomParams":{"A":{"a":1,"b":4},"B":{"a":4,"b":1},"C":{"a":2,"b":8},"D":{"a":8,"b":2}},"conditions":["nonSeqFull","nonSeqPartial","seqNoFeedback","seqFeedback"],"classroomPairings":[["A","B"],["C","D"]],"coinWeights":[0.2,0.5,0.8],"subjectId":"A26SF9CTNKKBYB","assignmentId":"3S96KQ6I9NQ6TKFW8TGNOABYF1QDTP","hitId":"3FJ2RVH25ZSYKBA8MWMNC8NVPF629N","url":"https://gershmanlab.com/experiments/alicia/teaching/experiment/?hitId=3FJ2RVH25ZSYKBA8MWMNC8NVPF629N&workerId=A26SF9CTNKKBYB&assignmentId=3S96KQ6I9NQ6TKFW8TGNOABYF1QDTP&a=IK9S7&tp_a=IK9S7&b=3S96KQ6I9NQ6TKFW8TGNOABYF1QDTP&tp_b=3S96KQ6I9NQ6TKFW8TGNOABYF1QDTP&c=365717&tp_c=365717"},{"rt":null,"stimulus":"<div style=\"font-size:50px;\">First student</div>","response":null,"trial_type":"html-keyboard-response","trial_index":11,"time_elapsed":486427,"internal_node_id":"0.0-4.0","params":{"nStudents":24,"maxFlips":30,"completionMinutes":45,"basePay":8,"maxBonus":9,"perTrialBonus":0.5,"perTrialBonusThreshold":0.05,"exampleCost":0.01},"classroomParams":{"A":{"a":1,"b":4},"B":{"a":4,"b":1},"C":{"a":2,"b":8},"D":{"a":8,"b":2}},"conditions":["nonSeqFull","nonSeqPartial","seqNoFeedback","seqFeedback"],"classroomPairings":[["A","B"],["C","D"]],"coinWeights":[0.2,0.5,0.8],"subjectId":"A26SF9CTNKKBYB","assignmentId":"3S96KQ6I9NQ6TKFW8TGNOABYF1QDTP","hitId":"3FJ2RVH25ZSYKBA8MWMNC8NVPF629N","url":"https://gershmanlab.com/experiments/alicia/teaching/experiment/?hitId=3FJ2RVH25ZSYKBA8MWMNC8NVPF629N&workerId=A26SF9CTNKKBYB&assignmentId=3S96KQ6I9NQ6TKFW8TGNOABYF1QDTP&a=IK9S7&tp_a=IK9S7&b=3S96KQ6I9NQ6TKFW8TGNOABYF1QDTP&tp_b=3S96KQ6I9NQ6TKFW8TGNOABYF1QDTP&c=365717&tp_c=365717"},{"rt":7355,"stimulus":"\n            <h4 style=\"color:Orange;\">Student 1</h4>\n            <h2>The weight of your coin is <b style=\"color:Tomato;\">0.8</b>.</h2>\n            <p>In this block, you will be giving <b>one</b> set of examples to Student 1.</p>\n                <p>You will receive feedback at the end of the block.</p>\n            <p></p>","response":0,"trial_type":"html-button-response","trial_index":12,"time_elapsed":493786,"internal_node_id":"0.0-5.0","params":{"nStudents":24,"maxFlips":30,"completionMinutes":45,"basePay":8,"maxBonus":9,"perTrialBonus":0.5,"perTrialBonusThreshold":0.05,"exampleCost":0.01},"classroomParams":{"A":{"a":1,"b":4},"B":{"a":4,"b":1},"C":{"a":2,"b":8},"D":{"a":8,"b":2}},"conditions":["nonSeqFull","nonSeqPartial","seqNoFeedback","seqFeedback"],"classroomPairings":[["A","B"],["C","D"]],"coinWeights":[0.2,0.5,0.8],"subjectId":"A26SF9CTNKKBYB","assignmentId":"3S96KQ6I9NQ6TKFW8TGNOABYF1QDTP","hitId":"3FJ2RVH25ZSYKBA8MWMNC8NVPF629N","url":"https://gershmanlab.com/experiments/alicia/teaching/experiment/?hitId=3FJ2RVH25ZSYKBA8MWMNC8NVPF629N&workerId=A26SF9CTNKKBYB&assignmentId=3S96KQ6I9NQ6TKFW8TGNOABYF1QDTP&a=IK9S7&tp_a=IK9S7&b=3S96KQ6I9NQ6TKFW8TGNOABYF1QDTP&tp_b=3S96KQ6I9NQ6TKFW8TGNOABYF1QDTP&c=365717&tp_c=365717"},{"rt":23868,"response":{"heads":"8","tails":"2"},"type":"response","condition":"nonSeqPartial","trueTheta":0.8,"classrooms":["A","B"],"studentTrueClassroom":"B","exampleSet":"first","trial_type":"survey-html-form","trial_index":13,"time_elapsed":517742,"internal_node_id":"0.0-6.0-0.0","params":{"nStudents":24,"maxFlips":30,"completionMinutes":45,"basePay":8,"maxBonus":9,"perTrialBonus":0.5,"perTrialBonusThreshold":0.05,"exampleCost":0.01},"classroomParams":{"A":{"a":1,"b":4},"B":{"a":4,"b":1},"C":{"a":2,"b":8},"D":{"a":8,"b":2}},"conditions":["nonSeqFull","nonSeqPartial","seqNoFeedback","seqFeedback"],"classroomPairings":[["A","B"],["C","D"]],"coinWeights":[0.2,0.5,0.8],"subjectId":"A26SF9CTNKKBYB","assignmentId":"3S96KQ6I9NQ6TKFW8TGNOABYF1QDTP","hitId":"3FJ2RVH25ZSYKBA8MWMNC8NVPF629N","url":"https://gershmanlab.com/experiments/alicia/teaching/experiment/?hitId=3FJ2RVH25ZSYKBA8MWMNC8NVPF629N&workerId=A26SF9CTNKKBYB&assignmentId=3S96KQ6I9NQ6TKFW8TGNOABYF1QDTP&a=IK9S7&tp_a=IK9S7&b=3S96KQ6I9NQ6TKFW8TGNOABYF1QDTP&tp_b=3S96KQ6I9NQ6TKFW8TGNOABYF1QDTP&c=365717&tp_c=365717","heads":8,"tails":2,"studentIndex":0,"studentTrueHypers":{"a":4,"b":1},"studentGuess":0.8,"delta":0,"totalExamples":10,"bonus":0.4,"bonusSoFar":0.4},{"rt":null,"stimulus":"Sending examples to student... ","response":null,"trial_type":"html-keyboard-response","trial_index":14,"time_elapsed":519746,"internal_node_id":"0.0-7.0","params":{"nStudents":24,"maxFlips":30,"completionMinutes":45,"basePay":8,"maxBonus":9,"perTrialBonus":0.5,"perTrialBonusThreshold":0.05,"exampleCost":0.01},"classroomParams":{"A":{"a":1,"b":4},"B":{"a":4,"b":1},"C":{"a":2,"b":8},"D":{"a":8,"b":2}},"conditions":["nonSeqFull","nonSeqPartial","seqNoFeedback","seqFeedback"],"classroomPairings":[["A","B"],["C","D"]],"coinWeights":[0.2,0.5,0.8],"subjectId":"A26SF9CTNKKBYB","assignmentId":"3S96KQ6I9NQ6TKFW8TGNOABYF1QDTP","hitId":"3FJ2RVH25ZSYKBA8MWMNC8NVPF629N","url":"https://gershmanlab.com/experiments/alicia/teaching/experiment/?hitId=3FJ2RVH25ZSYKBA8MWMNC8NVPF629N&workerId=A26SF9CTNKKBYB&assignmentId=3S96KQ6I9NQ6TKFW8TGNOABYF1QDTP&a=IK9S7&tp_a=IK9S7&b=3S96KQ6I9NQ6TKFW8TGNOABYF1QDTP&tp_b=3S96KQ6I9NQ6TKFW8TGNOABYF1QDTP&c=365717&tp_c=365717"},{"rt":null,"stimulus":"Examples sent to student! Waiting for student...","response":null,"trial_type":"html-keyboard-response","trial_index":15,"time_elapsed":524250,"internal_node_id":"0.0-8.0","params":{"nStudents":24,"maxFlips":30,"completionMinutes":45,"basePay":8,"maxBonus":9,"perTrialBonus":0.5,"perTrialBonusThreshold":0.05,"exampleCost":0.01},"classroomParams":{"A":{"a":1,"b":4},"B":{"a":4,"b":1},"C":{"a":2,"b":8},"D":{"a":8,"b":2}},"conditions":["nonSeqFull","nonSeqPartial","seqNoFeedback","seqFeedback"],"classroomPairings":[["A","B"],["C","D"]],"coinWeights":[0.2,0.5,0.8],"subjectId":"A26SF9CTNKKBYB","assignmentId":"3S96KQ6I9NQ6TKFW8TGNOABYF1QDTP","hitId":"3FJ2RVH25ZSYKBA8MWMNC8NVPF629N","url":"https://gershmanlab.com/experiments/alicia/teaching/experiment/?hitId=3FJ2RVH25ZSYKBA8MWMNC8NVPF629N&workerId=A26SF9CTNKKBYB&assignmentId=3S96KQ6I9NQ6TKFW8TGNOABYF1QDTP&a=IK9S7&tp_a=IK9S7&b=3S96KQ6I9NQ6TKFW8TGNOABYF1QDTP&tp_b=3S96KQ6I9NQ6TKFW8TGNOABYF1QDTP&c=365717&tp_c=365717"},{"rt":3574,"stimulus":"\n                <p>Student's guess for coin weight: <b style=\"color:Tomato;\">0.80</b></p>\n                <p>You received a bonus of <b>$0.4</b>. Total bonus so far: <b>$0.40</b></b></p>\n                <p></p>\n                <p>Press any key to continue.</p>\n                ","response":" ","trial_type":"html-keyboard-response","trial_index":16,"time_elapsed":527828,"internal_node_id":"0.0-9.0","params":{"nStudents":24,"maxFlips":30,"completionMinutes":45,"basePay":8,"maxBonus":9,"perTrialBonus":0.5,"perTrialBonusThreshold":0.05,"exampleCost":0.01},"classroomParams":{"A":{"a":1,"b":4},"B":{"a":4,"b":1},"C":{"a":2,"b":8},"D":{"a":8,"b":2}},"conditions":["nonSeqFull","nonSeqPartial","seqNoFeedback","seqFeedback"],"classroomPairings":[["A","B"],["C","D"]],"coinWeights":[0.2,0.5,0.8],"subjectId":"A26SF9CTNKKBYB","assignmentId":"3S96KQ6I9NQ6TKFW8TGNOABYF1QDTP","hitId":"3FJ2RVH25ZSYKBA8MWMNC8NVPF629N","url":"https://gershmanlab.com/experiments/alicia/teaching/experiment/?hitId=3FJ2RVH25ZSYKBA8MWMNC8NVPF629N&workerId=A26SF9CTNKKBYB&assignmentId=3S96KQ6I9NQ6TKFW8TGNOABYF1QDTP&a=IK9S7&tp_a=IK9S7&b=3S96KQ6I9NQ6TKFW8TGNOABYF1QDTP&tp_b=3S96KQ6I9NQ6TKFW8TGNOABYF1QDTP&c=365717&tp_c=365717"},{"rt":null,"stimulus":"<div style=\"font-size:60px;\">Next student</div>","response":null,"trial_type":"html-keyboard-response","trial_index":17,"time_elapsed":530330,"internal_node_id":"0.0-10.0-0.0","params":{"nStudents":24,"maxFlips":30,"completionMinutes":45,"basePay":8,"maxBonus":9,"perTrialBonus":0.5,"perTrialBonusThreshold":0.05,"exampleCost":0.01},"classroomParams":{"A":{"a":1,"b":4},"B":{"a":4,"b":1},"C":{"a":2,"b":8},"D":{"a":8,"b":2}},"conditions":["nonSeqFull","nonSeqPartial","seqNoFeedback","seqFeedback"],"classroomPairings":[["A","B"],["C","D"]],"coinWeights":[0.2,0.5,0.8],"subjectId":"A26SF9CTNKKBYB","assignmentId":"3S96KQ6I9NQ6TKFW8TGNOABYF1QDTP","hitId":"3FJ2RVH25ZSYKBA8MWMNC8NVPF629N","url":"https://gershmanlab.com/experiments/alicia/teaching/experiment/?hitId=3FJ2RVH25ZSYKBA8MWMNC8NVPF629N&workerId=A26SF9CTNKKBYB&assignmentId=3S96KQ6I9NQ6TKFW8TGNOABYF1QDTP&a=IK9S7&tp_a=IK9S7&b=3S96KQ6I9NQ6TKFW8TGNOABYF1QDTP&tp_b=3S96KQ6I9NQ6TKFW8TGNOABYF1QDTP&c=365717&tp_c=365717"},{"rt":6462,"stimulus":"\n            <h4 style=\"color:Orange;\">Student 2</h4>\n            <h2>The weight of your coin is <b style=\"color:Tomato;\">0.5</b>.</h2>\n            <p>In this block, you will be giving <b>one</b> set of examples to Student 2.</p>\n                <p>You will receive feedback at the end of the block.</p>\n            <p></p>","response":0,"trial_type":"html-button-response","trial_index":18,"time_elapsed":536796,"internal_node_id":"0.0-11.0","params":{"nStudents":24,"maxFlips":30,"completionMinutes":45,"basePay":8,"maxBonus":9,"perTrialBonus":0.5,"perTrialBonusThreshold":0.05,"exampleCost":0.01},"classroomParams":{"A":{"a":1,"b":4},"B":{"a":4,"b":1},"C":{"a":2,"b":8},"D":{"a":8,"b":2}},"conditions":["nonSeqFull","nonSeqPartial","seqNoFeedback","seqFeedback"],"classroomPairings":[["A","B"],["C","D"]],"coinWeights":[0.2,0.5,0.8],"subjectId":"A26SF9CTNKKBYB","assignmentId":"3S96KQ6I9NQ6TKFW8TGNOABYF1QDTP","hitId":"3FJ2RVH25ZSYKBA8MWMNC8NVPF629N","url":"https://gershmanlab.com/experiments/alicia/teaching/experiment/?hitId=3FJ2RVH25ZSYKBA8MWMNC8NVPF629N&workerId=A26SF9CTNKKBYB&assignmentId=3S96KQ6I9NQ6TKFW8TGNOABYF1QDTP&a=IK9S7&tp_a=IK9S7&b=3S96KQ6I9NQ6TKFW8TGNOABYF1QDTP&tp_b=3S96KQ6I9NQ6TKFW8TGNOABYF1QDTP&c=365717&tp_c=365717"},{"rt":36654,"response":{"heads":"14","tails":"10"},"type":"response","condition":"nonSeqFull","trueTheta":0.5,"classrooms":["A","B"],"studentTrueClassroom":"A","exampleSet":"first","trial_type":"survey-html-form","trial_index":19,"time_elapsed":573453,"internal_node_id":"0.0-12.0-0.0","params":{"nStudents":24,"maxFlips":30,"completionMinutes":45,"basePay":8,"maxBonus":9,"perTrialBonus":0.5,"perTrialBonusThreshold":0.05,"exampleCost":0.01},"classroomParams":{"A":{"a":1,"b":4},"B":{"a":4,"b":1},"C":{"a":2,"b":8},"D":{"a":8,"b":2}},"conditions":["nonSeqFull","nonSeqPartial","seqNoFeedback","seqFeedback"],"classroomPairings":[["A","B"],["C","D"]],"coinWeights":[0.2,0.5,0.8],"subjectId":"A26SF9CTNKKBYB","assignmentId":"3S96KQ6I9NQ6TKFW8TGNOABYF1QDTP","hitId":"3FJ2RVH25ZSYKBA8MWMNC8NVPF629N","url":"https://gershmanlab.com/experiments/alicia/teaching/experiment/?hitId=3FJ2RVH25ZSYKBA8MWMNC8NVPF629N&workerId=A26SF9CTNKKBYB&assignmentId=3S96KQ6I9NQ6TKFW8TGNOABYF1QDTP&a=IK9S7&tp_a=IK9S7&b=3S96KQ6I9NQ6TKFW8TGNOABYF1QDTP&tp_b=3S96KQ6I9NQ6TKFW8TGNOABYF1QDTP&c=365717&tp_c=365717","heads":14,"tails":10,"studentIndex":1,"studentTrueHypers":{"a":1,"b":4},"studentGuess":0.5172413793103449,"delta":0.017241379310344862,"totalExamples":24,"bonus":0.26,"bonusSoFar":0.66},{"rt":null,"stimulus":"Sending examples to student... ","response":null,"trial_type":"html-keyboard-response","trial_index":20,"time_elapsed":574706,"internal_node_id":"0.0-13.0","params":{"nStudents":24,"maxFlips":30,"completionMinutes":45,"basePay":8,"maxBonus":9,"perTrialBonus":0.5,"perTrialBonusThreshold":0.05,"exampleCost":0.01},"classroomParams":{"A":{"a":1,"b":4},"B":{"a":4,"b":1},"C":{"a":2,"b":8},"D":{"a":8,"b":2}},"conditions":["nonSeqFull","nonSeqPartial","seqNoFeedback","seqFeedback"],"classroomPairings":[["A","B"],["C","D"]],"coinWeights":[0.2,0.5,0.8],"subjectId":"A26SF9CTNKKBYB","assignmentId":"3S96KQ6I9NQ6TKFW8TGNOABYF1QDTP","hitId":"3FJ2RVH25ZSYKBA8MWMNC8NVPF629N","url":"https://gershmanlab.com/experiments/alicia/teaching/experiment/?hitId=3FJ2RVH25ZSYKBA8MWMNC8NVPF629N&workerId=A26SF9CTNKKBYB&assignmentId=3S96KQ6I9NQ6TKFW8TGNOABYF1QDTP&a=IK9S7&tp_a=IK9S7&b=3S96KQ6I9NQ6TKFW8TGNOABYF1QDTP&tp_b=3S96KQ6I9NQ6TKFW8TGNOABYF1QDTP&c=365717&tp_c=365717"},{"rt":null,"stimulus":"Examples sent to student! Waiting for student...","response":null,"trial_type":"html-keyboard-response","trial_index":21,"time_elapsed":579708,"internal_node_id":"0.0-14.0","params":{"nStudents":24,"maxFlips":30,"completionMinutes":45,"basePay":8,"maxBonus":9,"perTrialBonus":0.5,"perTrialBonusThreshold":0.05,"exampleCost":0.01},"classroomParams":{"A":{"a":1,"b":4},"B":{"a":4,"b":1},"C":{"a":2,"b":8},"D":{"a":8,"b":2}},"conditions":["nonSeqFull","nonSeqPartial","seqNoFeedback","seqFeedback"],"classroomPairings":[["A","B"],["C","D"]],"coinWeights":[0.2,0.5,0.8],"subjectId":"A26SF9CTNKKBYB","assignmentId":"3S96KQ6I9NQ6TKFW8TGNOABYF1QDTP","hitId":"3FJ2RVH25ZSYKBA8MWMNC8NVPF629N","url":"https://gershmanlab.com/experiments/alicia/teaching/experiment/?hitId=3FJ2RVH25ZSYKBA8MWMNC8NVPF629N&workerId=A26SF9CTNKKBYB&assignmentId=3S96KQ6I9NQ6TKFW8TGNOABYF1QDTP&a=IK9S7&tp_a=IK9S7&b=3S96KQ6I9NQ6TKFW8TGNOABYF1QDTP&tp_b=3S96KQ6I9NQ6TKFW8TGNOABYF1QDTP&c=365717&tp_c=365717"},{"rt":4876,"stimulus":"\n                <p>Student's guess for coin weight: <b style=\"color:Tomato;\">0.52</b></p>\n                <p>You received a bonus of <b>$0.26</b>. Total bonus so far: <b>$0.66</b></b></p>\n                <p></p>\n                <p>Press any key to continue.</p>\n                ","response":" ","trial_type":"html-keyboard-response","trial_index":22,"time_elapsed":584587,"internal_node_id":"0.0-15.0","params":{"nStudents":24,"maxFlips":30,"completionMinutes":45,"basePay":8,"maxBonus":9,"perTrialBonus":0.5,"perTrialBonusThreshold":0.05,"exampleCost":0.01},"classroomParams":{"A":{"a":1,"b":4},"B":{"a":4,"b":1},"C":{"a":2,"b":8},"D":{"a":8,"b":2}},"conditions":["nonSeqFull","nonSeqPartial","seqNoFeedback","seqFeedback"],"classroomPairings":[["A","B"],["C","D"]],"coinWeights":[0.2,0.5,0.8],"subjectId":"A26SF9CTNKKBYB","assignmentId":"3S96KQ6I9NQ6TKFW8TGNOABYF1QDTP","hitId":"3FJ2RVH25ZSYKBA8MWMNC8NVPF629N","url":"https://gershmanlab.com/experiments/alicia/teaching/experiment/?hitId=3FJ2RVH25ZSYKBA8MWMNC8NVPF629N&workerId=A26SF9CTNKKBYB&assignmentId=3S96KQ6I9NQ6TKFW8TGNOABYF1QDTP&a=IK9S7&tp_a=IK9S7&b=3S96KQ6I9NQ6TKFW8TGNOABYF1QDTP&tp_b=3S96KQ6I9NQ6TKFW8TGNOABYF1QDTP&c=365717&tp_c=365717"},{"rt":null,"stimulus":"<div style=\"font-size:60px;\">Next student</div>","response":null,"trial_type":"html-keyboard-response","trial_index":23,"time_elapsed":587590,"internal_node_id":"0.0-16.0-0.0","params":{"nStudents":24,"maxFlips":30,"completionMinutes":45,"basePay":8,"maxBonus":9,"perTrialBonus":0.5,"perTrialBonusThreshold":0.05,"exampleCost":0.01},"classroomParams":{"A":{"a":1,"b":4},"B":{"a":4,"b":1},"C":{"a":2,"b":8},"D":{"a":8,"b":2}},"conditions":["nonSeqFull","nonSeqPartial","seqNoFeedback","seqFeedback"],"classroomPairings":[["A","B"],["C","D"]],"coinWeights":[0.2,0.5,0.8],"subjectId":"A26SF9CTNKKBYB","assignmentId":"3S96KQ6I9NQ6TKFW8TGNOABYF1QDTP","hitId":"3FJ2RVH25ZSYKBA8MWMNC8NVPF629N","url":"https://gershmanlab.com/experiments/alicia/teaching/experiment/?hitId=3FJ2RVH25ZSYKBA8MWMNC8NVPF629N&workerId=A26SF9CTNKKBYB&assignmentId=3S96KQ6I9NQ6TKFW8TGNOABYF1QDTP&a=IK9S7&tp_a=IK9S7&b=3S96KQ6I9NQ6TKFW8TGNOABYF1QDTP&tp_b=3S96KQ6I9NQ6TKFW8TGNOABYF1QDTP&c=365717&tp_c=365717"},{"rt":3459,"stimulus":"\n            <h4 style=\"color:Orange;\">Student 3</h4>\n            <h2>The weight of your coin is <b style=\"color:Tomato;\">0.8</b>.</h2>\n            <p>In this block, you will be giving <b>two</b> sets of examples to Student 3.</p>\n                <p>You will receive feedback at the end of the block.</p>\n            <p></p>","response":0,"trial_type":"html-button-response","trial_index":24,"time_elapsed":591053,"internal_node_id":"0.0-17.0","params":{"nStudents":24,"maxFlips":30,"completionMinutes":45,"basePay":8,"maxBonus":9,"perTrialBonus":0.5,"perTrialBonusThreshold":0.05,"exampleCost":0.01},"classroomParams":{"A":{"a":1,"b":4},"B":{"a":4,"b":1},"C":{"a":2,"b":8},"D":{"a":8,"b":2}},"conditions":["nonSeqFull","nonSeqPartial","seqNoFeedback","seqFeedback"],"classroomPairings":[["A","B"],["C","D"]],"coinWeights":[0.2,0.5,0.8],"subjectId":"A26SF9CTNKKBYB","assignmentId":"3S96KQ6I9NQ6TKFW8TGNOABYF1QDTP","hitId":"3FJ2RVH25ZSYKBA8MWMNC8NVPF629N","url":"https://gershmanlab.com/experiments/alicia/teaching/experiment/?hitId=3FJ2RVH25ZSYKBA8MWMNC8NVPF629N&workerId=A26SF9CTNKKBYB&assignmentId=3S96KQ6I9NQ6TKFW8TGNOABYF1QDTP&a=IK9S7&tp_a=IK9S7&b=3S96KQ6I9NQ6TKFW8TGNOABYF1QDTP&tp_b=3S96KQ6I9NQ6TKFW8TGNOABYF1QDTP&c=365717&tp_c=365717"},{"rt":16006,"response":{"heads":"8","tails":"2"},"type":"response","condition":"seqNoFeedback","trueTheta":0.8,"classrooms":["C","D"],"studentTrueClassroom":"C","exampleSet":"first","trial_type":"survey-html-form","trial_index":25,"time_elapsed":607062,"internal_node_id":"0.0-18.0-0.0","params":{"nStudents":24,"maxFlips":30,"completionMinutes":45,"basePay":8,"maxBonus":9,"perTrialBonus":0.5,"perTrialBonusThreshold":0.05,"exampleCost":0.01},"classroomParams":{"A":{"a":1,"b":4},"B":{"a":4,"b":1},"C":{"a":2,"b":8},"D":{"a":8,"b":2}},"conditions":["nonSeqFull","nonSeqPartial","seqNoFeedback","seqFeedback"],"classroomPairings":[["A","B"],["C","D"]],"coinWeights":[0.2,0.5,0.8],"subjectId":"A26SF9CTNKKBYB","assignmentId":"3S96KQ6I9NQ6TKFW8TGNOABYF1QDTP","hitId":"3FJ2RVH25ZSYKBA8MWMNC8NVPF629N","url":"https://gershmanlab.com/experiments/alicia/teaching/experiment/?hitId=3FJ2RVH25ZSYKBA8MWMNC8NVPF629N&workerId=A26SF9CTNKKBYB&assignmentId=3S96KQ6I9NQ6TKFW8TGNOABYF1QDTP&a=IK9S7&tp_a=IK9S7&b=3S96KQ6I9NQ6TKFW8TGNOABYF1QDTP&tp_b=3S96KQ6I9NQ6TKFW8TGNOABYF1QDTP&c=365717&tp_c=365717","heads":8,"tails":2,"studentIndex":2,"studentTrueHypers":{"a":2,"b":8},"studentGuess":0.5,"delta":0.30000000000000004,"totalExamples":10,"bonusSoFar":0.66},{"rt":null,"stimulus":"Sending examples to student... ","response":null,"trial_type":"html-keyboard-response","trial_index":26,"time_elapsed":608566,"internal_node_id":"0.0-19.0","params":{"nStudents":24,"maxFlips":30,"completionMinutes":45,"basePay":8,"maxBonus":9,"perTrialBonus":0.5,"perTrialBonusThreshold":0.05,"exampleCost":0.01},"classroomParams":{"A":{"a":1,"b":4},"B":{"a":4,"b":1},"C":{"a":2,"b":8},"D":{"a":8,"b":2}},"conditions":["nonSeqFull","nonSeqPartial","seqNoFeedback","seqFeedback"],"classroomPairings":[["A","B"],["C","D"]],"coinWeights":[0.2,0.5,0.8],"subjectId":"A26SF9CTNKKBYB","assignmentId":"3S96KQ6I9NQ6TKFW8TGNOABYF1QDTP","hitId":"3FJ2RVH25ZSYKBA8MWMNC8NVPF629N","url":"https://gershmanlab.com/experiments/alicia/teaching/experiment/?hitId=3FJ2RVH25ZSYKBA8MWMNC8NVPF629N&workerId=A26SF9CTNKKBYB&assignmentId=3S96KQ6I9NQ6TKFW8TGNOABYF1QDTP&a=IK9S7&tp_a=IK9S7&b=3S96KQ6I9NQ6TKFW8TGNOABYF1QDTP&tp_b=3S96KQ6I9NQ6TKFW8TGNOABYF1QDTP&c=365717&tp_c=365717"},{"rt":null,"stimulus":"Examples sent to student! Waiting for student...","response":null,"trial_type":"html-keyboard-response","trial_index":27,"time_elapsed":613569,"internal_node_id":"0.0-20.0","params":{"nStudents":24,"maxFlips":30,"completionMinutes":45,"basePay":8,"maxBonus":9,"perTrialBonus":0.5,"perTrialBonusThreshold":0.05,"exampleCost":0.01},"classroomParams":{"A":{"a":1,"b":4},"B":{"a":4,"b":1},"C":{"a":2,"b":8},"D":{"a":8,"b":2}},"conditions":["nonSeqFull","nonSeqPartial","seqNoFeedback","seqFeedback"],"classroomPairings":[["A","B"],["C","D"]],"coinWeights":[0.2,0.5,0.8],"subjectId":"A26SF9CTNKKBYB","assignmentId":"3S96KQ6I9NQ6TKFW8TGNOABYF1QDTP","hitId":"3FJ2RVH25ZSYKBA8MWMNC8NVPF629N","url":"https://gershmanlab.com/experiments/alicia/teaching/experiment/?hitId=3FJ2RVH25ZSYKBA8MWMNC8NVPF629N&workerId=A26SF9CTNKKBYB&assignmentId=3S96KQ6I9NQ6TKFW8TGNOABYF1QDTP&a=IK9S7&tp_a=IK9S7&b=3S96KQ6I9NQ6TKFW8TGNOABYF1QDTP&tp_b=3S96KQ6I9NQ6TKFW8TGNOABYF1QDTP&c=365717&tp_c=365717"},{"rt":8659,"response":{"heads":"8","tails":"2"},"type":"response","condition":"seqNoFeedback","trueTheta":0.8,"classrooms":["C","D"],"studentTrueClassroom":"C","exampleSet":"second","trial_type":"survey-html-form","trial_index":28,"time_elapsed":622230,"internal_node_id":"0.0-21.0-0.0","params":{"nStudents":24,"maxFlips":30,"completionMinutes":45,"basePay":8,"maxBonus":9,"perTrialBonus":0.5,"perTrialBonusThreshold":0.05,"exampleCost":0.01},"classroomParams":{"A":{"a":1,"b":4},"B":{"a":4,"b":1},"C":{"a":2,"b":8},"D":{"a":8,"b":2}},"conditions":["nonSeqFull","nonSeqPartial","seqNoFeedback","seqFeedback"],"classroomPairings":[["A","B"],["C","D"]],"coinWeights":[0.2,0.5,0.8],"subjectId":"A26SF9CTNKKBYB","assignmentId":"3S96KQ6I9NQ6TKFW8TGNOABYF1QDTP","hitId":"3FJ2RVH25ZSYKBA8MWMNC8NVPF629N","url":"https://gershmanlab.com/experiments/alicia/teaching/experiment/?hitId=3FJ2RVH25ZSYKBA8MWMNC8NVPF629N&workerId=A26SF9CTNKKBYB&assignmentId=3S96KQ6I9NQ6TKFW8TGNOABYF1QDTP&a=IK9S7&tp_a=IK9S7&b=3S96KQ6I9NQ6TKFW8TGNOABYF1QDTP&tp_b=3S96KQ6I9NQ6TKFW8TGNOABYF1QDTP&c=365717&tp_c=365717","firstResponseHeads":8,"firstResponseTails":2,"secondResponseHeads":8,"secondResponseTails":2,"totalHeads":16,"totalTails":4,"studentIndex":2,"studentTrueHypers":{"a":2,"b":8},"studentGuess":0.6,"delta":0.20000000000000007,"bonus":0,"bonusSoFar":0.66,"totalExamples":20},{"rt":null,"stimulus":"Sending examples to student... ","response":null,"trial_type":"html-keyboard-response","trial_index":29,"time_elapsed":624234,"internal_node_id":"0.0-22.0","params":{"nStudents":24,"maxFlips":30,"completionMinutes":45,"basePay":8,"maxBonus":9,"perTrialBonus":0.5,"perTrialBonusThreshold":0.05,"exampleCost":0.01},"classroomParams":{"A":{"a":1,"b":4},"B":{"a":4,"b":1},"C":{"a":2,"b":8},"D":{"a":8,"b":2}},"conditions":["nonSeqFull","nonSeqPartial","seqNoFeedback","seqFeedback"],"classroomPairings":[["A","B"],["C","D"]],"coinWeights":[0.2,0.5,0.8],"subjectId":"A26SF9CTNKKBYB","assignmentId":"3S96KQ6I9NQ6TKFW8TGNOABYF1QDTP","hitId":"3FJ2RVH25ZSYKBA8MWMNC8NVPF629N","url":"https://gershmanlab.com/experiments/alicia/teaching/experiment/?hitId=3FJ2RVH25ZSYKBA8MWMNC8NVPF629N&workerId=A26SF9CTNKKBYB&assignmentId=3S96KQ6I9NQ6TKFW8TGNOABYF1QDTP&a=IK9S7&tp_a=IK9S7&b=3S96KQ6I9NQ6TKFW8TGNOABYF1QDTP&tp_b=3S96KQ6I9NQ6TKFW8TGNOABYF1QDTP&c=365717&tp_c=365717"},{"rt":null,"stimulus":"Examples sent to student! Waiting for student...","response":null,"trial_type":"html-keyboard-response","trial_index":30,"time_elapsed":628236,"internal_node_id":"0.0-23.0","params":{"nStudents":24,"maxFlips":30,"completionMinutes":45,"basePay":8,"maxBonus":9,"perTrialBonus":0.5,"perTrialBonusThreshold":0.05,"exampleCost":0.01},"classroomParams":{"A":{"a":1,"b":4},"B":{"a":4,"b":1},"C":{"a":2,"b":8},"D":{"a":8,"b":2}},"conditions":["nonSeqFull","nonSeqPartial","seqNoFeedback","seqFeedback"],"classroomPairings":[["A","B"],["C","D"]],"coinWeights":[0.2,0.5,0.8],"subjectId":"A26SF9CTNKKBYB","assignmentId":"3S96KQ6I9NQ6TKFW8TGNOABYF1QDTP","hitId":"3FJ2RVH25ZSYKBA8MWMNC8NVPF629N","url":"https://gershmanlab.com/experiments/alicia/teaching/experiment/?hitId=3FJ2RVH25ZSYKBA8MWMNC8NVPF629N&workerId=A26SF9CTNKKBYB&assignmentId=3S96KQ6I9NQ6TKFW8TGNOABYF1QDTP&a=IK9S7&tp_a=IK9S7&b=3S96KQ6I9NQ6TKFW8TGNOABYF1QDTP&tp_b=3S96KQ6I9NQ6TKFW8TGNOABYF1QDTP&c=365717&tp_c=365717"},{"rt":3846,"stimulus":"\n                <p>Student 3's first guess for coin weight: <b style=\"color:Tomato\";>0.50</b></p>\n                <p>Student 3's second guess for coin weight: <b style=\"color:Tomato\";>0.60</b></p>\n                <p>You received a bonus of <b>$0.00</b> based on the student's second guess.</p>\n                <p>Total bonus so far: <b>$0.66</b></p>\n                <p>Press any key to continue.</p>\n                ","response":" ","trial_type":"html-keyboard-response","trial_index":31,"time_elapsed":632084,"internal_node_id":"0.0-24.0","params":{"nStudents":24,"maxFlips":30,"completionMinutes":45,"basePay":8,"maxBonus":9,"perTrialBonus":0.5,"perTrialBonusThreshold":0.05,"exampleCost":0.01},"classroomParams":{"A":{"a":1,"b":4},"B":{"a":4,"b":1},"C":{"a":2,"b":8},"D":{"a":8,"b":2}},"conditions":["nonSeqFull","nonSeqPartial","seqNoFeedback","seqFeedback"],"classroomPairings":[["A","B"],["C","D"]],"coinWeights":[0.2,0.5,0.8],"subjectId":"A26SF9CTNKKBYB","assignmentId":"3S96KQ6I9NQ6TKFW8TGNOABYF1QDTP","hitId":"3FJ2RVH25ZSYKBA8MWMNC8NVPF629N","url":"https://gershmanlab.com/experiments/alicia/teaching/experiment/?hitId=3FJ2RVH25ZSYKBA8MWMNC8NVPF629N&workerId=A26SF9CTNKKBYB&assignmentId=3S96KQ6I9NQ6TKFW8TGNOABYF1QDTP&a=IK9S7&tp_a=IK9S7&b=3S96KQ6I9NQ6TKFW8TGNOABYF1QDTP&tp_b=3S96KQ6I9NQ6TKFW8TGNOABYF1QDTP&c=365717&tp_c=365717"},{"rt":null,"stimulus":"<div style=\"font-size:60px;\">Next student</div>","response":null,"trial_type":"html-keyboard-response","trial_index":32,"time_elapsed":635087,"internal_node_id":"0.0-25.0-0.0","params":{"nStudents":24,"maxFlips":30,"completionMinutes":45,"basePay":8,"maxBonus":9,"perTrialBonus":0.5,"perTrialBonusThreshold":0.05,"exampleCost":0.01},"classroomParams":{"A":{"a":1,"b":4},"B":{"a":4,"b":1},"C":{"a":2,"b":8},"D":{"a":8,"b":2}},"conditions":["nonSeqFull","nonSeqPartial","seqNoFeedback","seqFeedback"],"classroomPairings":[["A","B"],["C","D"]],"coinWeights":[0.2,0.5,0.8],"subjectId":"A26SF9CTNKKBYB","assignmentId":"3S96KQ6I9NQ6TKFW8TGNOABYF1QDTP","hitId":"3FJ2RVH25ZSYKBA8MWMNC8NVPF629N","url":"https://gershmanlab.com/experiments/alicia/teaching/experiment/?hitId=3FJ2RVH25ZSYKBA8MWMNC8NVPF629N&workerId=A26SF9CTNKKBYB&assignmentId=3S96KQ6I9NQ6TKFW8TGNOABYF1QDTP&a=IK9S7&tp_a=IK9S7&b=3S96KQ6I9NQ6TKFW8TGNOABYF1QDTP&tp_b=3S96KQ6I9NQ6TKFW8TGNOABYF1QDTP&c=365717&tp_c=365717"},{"rt":12748,"stimulus":"\n            <h4 style=\"color:Orange;\">Student 4</h4>\n            <h2>The weight of your coin is <b style=\"color:Tomato;\">0.5</b>.</h2>\n            <p>In this block, you will be giving <b>two</b> sets of examples to Student 4.</p>\n                <p>You will see the student's guess after the first set of examples. You will also receive feedback at the end of the block.</p>\n            <p>To earn the highest bonus, you will have to <b>take into consideration the student's guess</b> when you choose your second set of examples.</p>","response":0,"trial_type":"html-button-response","trial_index":33,"time_elapsed":647838,"internal_node_id":"0.0-26.0","params":{"nStudents":24,"maxFlips":30,"completionMinutes":45,"basePay":8,"maxBonus":9,"perTrialBonus":0.5,"perTrialBonusThreshold":0.05,"exampleCost":0.01},"classroomParams":{"A":{"a":1,"b":4},"B":{"a":4,"b":1},"C":{"a":2,"b":8},"D":{"a":8,"b":2}},"conditions":["nonSeqFull","nonSeqPartial","seqNoFeedback","seqFeedback"],"classroomPairings":[["A","B"],["C","D"]],"coinWeights":[0.2,0.5,0.8],"subjectId":"A26SF9CTNKKBYB","assignmentId":"3S96KQ6I9NQ6TKFW8TGNOABYF1QDTP","hitId":"3FJ2RVH25ZSYKBA8MWMNC8NVPF629N","url":"https://gershmanlab.com/experiments/alicia/teaching/experiment/?hitId=3FJ2RVH25ZSYKBA8MWMNC8NVPF629N&workerId=A26SF9CTNKKBYB&assignmentId=3S96KQ6I9NQ6TKFW8TGNOABYF1QDTP&a=IK9S7&tp_a=IK9S7&b=3S96KQ6I9NQ6TKFW8TGNOABYF1QDTP&tp_b=3S96KQ6I9NQ6TKFW8TGNOABYF1QDTP&c=365717&tp_c=365717"},{"rt":9837,"response":{"heads":"10","tails":"10"},"type":"response","condition":"seqFeedback","trueTheta":0.5,"classrooms":["C","D"],"studentTrueClassroom":"D","exampleSet":"first","trial_type":"survey-html-form","trial_index":34,"time_elapsed":657679,"internal_node_id":"0.0-27.0-0.0","params":{"nStudents":24,"maxFlips":30,"completionMinutes":45,"basePay":8,"maxBonus":9,"perTrialBonus":0.5,"perTrialBonusThreshold":0.05,"exampleCost":0.01},"classroomParams":{"A":{"a":1,"b":4},"B":{"a":4,"b":1},"C":{"a":2,"b":8},"D":{"a":8,"b":2}},"conditions":["nonSeqFull","nonSeqPartial","seqNoFeedback","seqFeedback"],"classroomPairings":[["A","B"],["C","D"]],"coinWeights":[0.2,0.5,0.8],"subjectId":"A26SF9CTNKKBYB","assignmentId":"3S96KQ6I9NQ6TKFW8TGNOABYF1QDTP","hitId":"3FJ2RVH25ZSYKBA8MWMNC8NVPF629N","url":"https://gershmanlab.com/experiments/alicia/teaching/experiment/?hitId=3FJ2RVH25ZSYKBA8MWMNC8NVPF629N&workerId=A26SF9CTNKKBYB&assignmentId=3S96KQ6I9NQ6TKFW8TGNOABYF1QDTP&a=IK9S7&tp_a=IK9S7&b=3S96KQ6I9NQ6TKFW8TGNOABYF1QDTP&tp_b=3S96KQ6I9NQ6TKFW8TGNOABYF1QDTP&c=365717&tp_c=365717","heads":10,"tails":10,"studentIndex":3,"studentTrueHypers":{"a":8,"b":2},"studentGuess":0.6,"delta":0.09999999999999998,"totalExamples":20,"bonusSoFar":0.66},{"rt":null,"stimulus":"Sending examples to student... ","response":null,"trial_type":"html-keyboard-response","trial_index":35,"time_elapsed":659681,"internal_node_id":"0.0-28.0","params":{"nStudents":24,"maxFlips":30,"completionMinutes":45,"basePay":8,"maxBonus":9,"perTrialBonus":0.5,"perTrialBonusThreshold":0.05,"exampleCost":0.01},"classroomParams":{"A":{"a":1,"b":4},"B":{"a":4,"b":1},"C":{"a":2,"b":8},"D":{"a":8,"b":2}},"conditions":["nonSeqFull","nonSeqPartial","seqNoFeedback","seqFeedback"],"classroomPairings":[["A","B"],["C","D"]],"coinWeights":[0.2,0.5,0.8],"subjectId":"A26SF9CTNKKBYB","assignmentId":"3S96KQ6I9NQ6TKFW8TGNOABYF1QDTP","hitId":"3FJ2RVH25ZSYKBA8MWMNC8NVPF629N","url":"https://gershmanlab.com/experiments/alicia/teaching/experiment/?hitId=3FJ2RVH25ZSYKBA8MWMNC8NVPF629N&workerId=A26SF9CTNKKBYB&assignmentId=3S96KQ6I9NQ6TKFW8TGNOABYF1QDTP&a=IK9S7&tp_a=IK9S7&b=3S96KQ6I9NQ6TKFW8TGNOABYF1QDTP&tp_b=3S96KQ6I9NQ6TKFW8TGNOABYF1QDTP&c=365717&tp_c=365717"},{"rt":null,"stimulus":"Examples sent to student! Waiting for student...","response":null,"trial_type":"html-keyboard-response","trial_index":36,"time_elapsed":665683,"internal_node_id":"0.0-29.0","params":{"nStudents":24,"maxFlips":30,"completionMinutes":45,"basePay":8,"maxBonus":9,"perTrialBonus":0.5,"perTrialBonusThreshold":0.05,"exampleCost":0.01},"classroomParams":{"A":{"a":1,"b":4},"B":{"a":4,"b":1},"C":{"a":2,"b":8},"D":{"a":8,"b":2}},"conditions":["nonSeqFull","nonSeqPartial","seqNoFeedback","seqFeedback"],"classroomPairings":[["A","B"],["C","D"]],"coinWeights":[0.2,0.5,0.8],"subjectId":"A26SF9CTNKKBYB","assignmentId":"3S96KQ6I9NQ6TKFW8TGNOABYF1QDTP","hitId":"3FJ2RVH25ZSYKBA8MWMNC8NVPF629N","url":"https://gershmanlab.com/experiments/alicia/teaching/experiment/?hitId=3FJ2RVH25ZSYKBA8MWMNC8NVPF629N&workerId=A26SF9CTNKKBYB&assignmentId=3S96KQ6I9NQ6TKFW8TGNOABYF1QDTP&a=IK9S7&tp_a=IK9S7&b=3S96KQ6I9NQ6TKFW8TGNOABYF1QDTP&tp_b=3S96KQ6I9NQ6TKFW8TGNOABYF1QDTP&c=365717&tp_c=365717"},{"rt":3688,"stimulus":"\n                <p>Student's guess for coin weight: <b style=\"color:Tomato;\">0.60</b></p>\n                <p></b></p>\n                <p>You will now send another set of examples to your student. <b>Remember to take your student's guess into consideration so that you can earn the highest bonus possible!</b> </p>\n                <p>Press any key to continue.</p>\n                ","response":" ","trial_type":"html-keyboard-response","trial_index":37,"time_elapsed":669374,"internal_node_id":"0.0-30.0","params":{"nStudents":24,"maxFlips":30,"completionMinutes":45,"basePay":8,"maxBonus":9,"perTrialBonus":0.5,"perTrialBonusThreshold":0.05,"exampleCost":0.01},"classroomParams":{"A":{"a":1,"b":4},"B":{"a":4,"b":1},"C":{"a":2,"b":8},"D":{"a":8,"b":2}},"conditions":["nonSeqFull","nonSeqPartial","seqNoFeedback","seqFeedback"],"classroomPairings":[["A","B"],["C","D"]],"coinWeights":[0.2,0.5,0.8],"subjectId":"A26SF9CTNKKBYB","assignmentId":"3S96KQ6I9NQ6TKFW8TGNOABYF1QDTP","hitId":"3FJ2RVH25ZSYKBA8MWMNC8NVPF629N","url":"https://gershmanlab.com/experiments/alicia/teaching/experiment/?hitId=3FJ2RVH25ZSYKBA8MWMNC8NVPF629N&workerId=A26SF9CTNKKBYB&assignmentId=3S96KQ6I9NQ6TKFW8TGNOABYF1QDTP&a=IK9S7&tp_a=IK9S7&b=3S96KQ6I9NQ6TKFW8TGNOABYF1QDTP&tp_b=3S96KQ6I9NQ6TKFW8TGNOABYF1QDTP&c=365717&tp_c=365717"},{"rt":8199,"response":{"heads":"8","tails":"10"},"type":"response","condition":"seqFeedback","trueTheta":0.5,"classrooms":["C","D"],"studentTrueClassroom":"D","exampleSet":"second","trial_type":"survey-html-form","trial_index":38,"time_elapsed":677575,"internal_node_id":"0.0-31.0-0.0","params":{"nStudents":24,"maxFlips":30,"completionMinutes":45,"basePay":8,"maxBonus":9,"perTrialBonus":0.5,"perTrialBonusThreshold":0.05,"exampleCost":0.01},"classroomParams":{"A":{"a":1,"b":4},"B":{"a":4,"b":1},"C":{"a":2,"b":8},"D":{"a":8,"b":2}},"conditions":["nonSeqFull","nonSeqPartial","seqNoFeedback","seqFeedback"],"classroomPairings":[["A","B"],["C","D"]],"coinWeights":[0.2,0.5,0.8],"subjectId":"A26SF9CTNKKBYB","assignmentId":"3S96KQ6I9NQ6TKFW8TGNOABYF1QDTP","hitId":"3FJ2RVH25ZSYKBA8MWMNC8NVPF629N","url":"https://gershmanlab.com/experiments/alicia/teaching/experiment/?hitId=3FJ2RVH25ZSYKBA8MWMNC8NVPF629N&workerId=A26SF9CTNKKBYB&assignmentId=3S96KQ6I9NQ6TKFW8TGNOABYF1QDTP&a=IK9S7&tp_a=IK9S7&b=3S96KQ6I9NQ6TKFW8TGNOABYF1QDTP&tp_b=3S96KQ6I9NQ6TKFW8TGNOABYF1QDTP&c=365717&tp_c=365717","firstResponseHeads":10,"firstResponseTails":10,"secondResponseHeads":8,"secondResponseTails":10,"totalHeads":18,"totalTails":20,"studentIndex":3,"studentTrueHypers":{"a":8,"b":2},"studentGuess":0.5416666666666666,"delta":0.04166666666666663,"bonus":0.12,"bonusSoFar":0.78,"totalExamples":38},{"rt":null,"stimulus":"Sending examples to student... ","response":null,"trial_type":"html-keyboard-response","trial_index":39,"time_elapsed":679078,"internal_node_id":"0.0-32.0","params":{"nStudents":24,"maxFlips":30,"completionMinutes":45,"basePay":8,"maxBonus":9,"perTrialBonus":0.5,"perTrialBonusThreshold":0.05,"exampleCost":0.01},"classroomParams":{"A":{"a":1,"b":4},"B":{"a":4,"b":1},"C":{"a":2,"b":8},"D":{"a":8,"b":2}},"conditions":["nonSeqFull","nonSeqPartial","seqNoFeedback","seqFeedback"],"classroomPairings":[["A","B"],["C","D"]],"coinWeights":[0.2,0.5,0.8],"subjectId":"A26SF9CTNKKBYB","assignmentId":"3S96KQ6I9NQ6TKFW8TGNOABYF1QDTP","hitId":"3FJ2RVH25ZSYKBA8MWMNC8NVPF629N","url":"https://gershmanlab.com/experiments/alicia/teaching/experiment/?hitId=3FJ2RVH25ZSYKBA8MWMNC8NVPF629N&workerId=A26SF9CTNKKBYB&assignmentId=3S96KQ6I9NQ6TKFW8TGNOABYF1QDTP&a=IK9S7&tp_a=IK9S7&b=3S96KQ6I9NQ6TKFW8TGNOABYF1QDTP&tp_b=3S96KQ6I9NQ6TKFW8TGNOABYF1QDTP&c=365717&tp_c=365717"},{"rt":null,"stimulus":"Examples sent to student! Waiting for student...","response":null,"trial_type":"html-keyboard-response","trial_index":40,"time_elapsed":684081,"internal_node_id":"0.0-33.0","params":{"nStudents":24,"maxFlips":30,"completionMinutes":45,"basePay":8,"maxBonus":9,"perTrialBonus":0.5,"perTrialBonusThreshold":0.05,"exampleCost":0.01},"classroomParams":{"A":{"a":1,"b":4},"B":{"a":4,"b":1},"C":{"a":2,"b":8},"D":{"a":8,"b":2}},"conditions":["nonSeqFull","nonSeqPartial","seqNoFeedback","seqFeedback"],"classroomPairings":[["A","B"],["C","D"]],"coinWeights":[0.2,0.5,0.8],"subjectId":"A26SF9CTNKKBYB","assignmentId":"3S96KQ6I9NQ6TKFW8TGNOABYF1QDTP","hitId":"3FJ2RVH25ZSYKBA8MWMNC8NVPF629N","url":"https://gershmanlab.com/experiments/alicia/teaching/experiment/?hitId=3FJ2RVH25ZSYKBA8MWMNC8NVPF629N&workerId=A26SF9CTNKKBYB&assignmentId=3S96KQ6I9NQ6TKFW8TGNOABYF1QDTP&a=IK9S7&tp_a=IK9S7&b=3S96KQ6I9NQ6TKFW8TGNOABYF1QDTP&tp_b=3S96KQ6I9NQ6TKFW8TGNOABYF1QDTP&c=365717&tp_c=365717"},{"rt":2947,"stimulus":"\n                <p>Student 4's first guess for coin weight: <b style=\"color:Tomato\";>0.60</b></p>\n                <p>Student 4's second guess for coin weight: <b style=\"color:Tomato\";>0.54</b></p>\n                <p>You received a bonus of <b>$0.12</b> based on the student's second guess.</p>\n                <p>Total bonus so far: <b>$0.78</b></p>\n                <p>Press any key to continue.</p>\n                ","response":" ","trial_type":"html-keyboard-response","trial_index":41,"time_elapsed":687030,"internal_node_id":"0.0-34.0","params":{"nStudents":24,"maxFlips":30,"completionMinutes":45,"basePay":8,"maxBonus":9,"perTrialBonus":0.5,"perTrialBonusThreshold":0.05,"exampleCost":0.01},"classroomParams":{"A":{"a":1,"b":4},"B":{"a":4,"b":1},"C":{"a":2,"b":8},"D":{"a":8,"b":2}},"conditions":["nonSeqFull","nonSeqPartial","seqNoFeedback","seqFeedback"],"classroomPairings":[["A","B"],["C","D"]],"coinWeights":[0.2,0.5,0.8],"subjectId":"A26SF9CTNKKBYB","assignmentId":"3S96KQ6I9NQ6TKFW8TGNOABYF1QDTP","hitId":"3FJ2RVH25ZSYKBA8MWMNC8NVPF629N","url":"https://gershmanlab.com/experiments/alicia/teaching/experiment/?hitId=3FJ2RVH25ZSYKBA8MWMNC8NVPF629N&workerId=A26SF9CTNKKBYB&assignmentId=3S96KQ6I9NQ6TKFW8TGNOABYF1QDTP&a=IK9S7&tp_a=IK9S7&b=3S96KQ6I9NQ6TKFW8TGNOABYF1QDTP&tp_b=3S96KQ6I9NQ6TKFW8TGNOABYF1QDTP&c=365717&tp_c=365717"},{"rt":null,"stimulus":"<div style=\"font-size:60px;\">Next student</div>","response":null,"trial_type":"html-keyboard-response","trial_index":42,"time_elapsed":689533,"internal_node_id":"0.0-35.0-0.0","params":{"nStudents":24,"maxFlips":30,"completionMinutes":45,"basePay":8,"maxBonus":9,"perTrialBonus":0.5,"perTrialBonusThreshold":0.05,"exampleCost":0.01},"classroomParams":{"A":{"a":1,"b":4},"B":{"a":4,"b":1},"C":{"a":2,"b":8},"D":{"a":8,"b":2}},"conditions":["nonSeqFull","nonSeqPartial","seqNoFeedback","seqFeedback"],"classroomPairings":[["A","B"],["C","D"]],"coinWeights":[0.2,0.5,0.8],"subjectId":"A26SF9CTNKKBYB","assignmentId":"3S96KQ6I9NQ6TKFW8TGNOABYF1QDTP","hitId":"3FJ2RVH25ZSYKBA8MWMNC8NVPF629N","url":"https://gershmanlab.com/experiments/alicia/teaching/experiment/?hitId=3FJ2RVH25ZSYKBA8MWMNC8NVPF629N&workerId=A26SF9CTNKKBYB&assignmentId=3S96KQ6I9NQ6TKFW8TGNOABYF1QDTP&a=IK9S7&tp_a=IK9S7&b=3S96KQ6I9NQ6TKFW8TGNOABYF1QDTP&tp_b=3S96KQ6I9NQ6TKFW8TGNOABYF1QDTP&c=365717&tp_c=365717"},{"rt":3648,"stimulus":"\n            <h4 style=\"color:Orange;\">Student 5</h4>\n            <h2>The weight of your coin is <b style=\"color:Tomato;\">0.5</b>.</h2>\n            <p>In this block, you will be giving <b>one</b> set of examples to Student 5.</p>\n                <p>You will receive feedback at the end of the block.</p>\n            <p></p>","response":0,"trial_type":"html-button-response","trial_index":43,"time_elapsed":693184,"internal_node_id":"0.0-36.0","params":{"nStudents":24,"maxFlips":30,"completionMinutes":45,"basePay":8,"maxBonus":9,"perTrialBonus":0.5,"perTrialBonusThreshold":0.05,"exampleCost":0.01},"classroomParams":{"A":{"a":1,"b":4},"B":{"a":4,"b":1},"C":{"a":2,"b":8},"D":{"a":8,"b":2}},"conditions":["nonSeqFull","nonSeqPartial","seqNoFeedback","seqFeedback"],"classroomPairings":[["A","B"],["C","D"]],"coinWeights":[0.2,0.5,0.8],"subjectId":"A26SF9CTNKKBYB","assignmentId":"3S96KQ6I9NQ6TKFW8TGNOABYF1QDTP","hitId":"3FJ2RVH25ZSYKBA8MWMNC8NVPF629N","url":"https://gershmanlab.com/experiments/alicia/teaching/experiment/?hitId=3FJ2RVH25ZSYKBA8MWMNC8NVPF629N&workerId=A26SF9CTNKKBYB&assignmentId=3S96KQ6I9NQ6TKFW8TGNOABYF1QDTP&a=IK9S7&tp_a=IK9S7&b=3S96KQ6I9NQ6TKFW8TGNOABYF1QDTP&tp_b=3S96KQ6I9NQ6TKFW8TGNOABYF1QDTP&c=365717&tp_c=365717"},{"rt":20813,"response":{"heads":"15","tails":"15"},"type":"response","condition":"nonSeqPartial","trueTheta":0.5,"classrooms":["A","B"],"studentTrueClassroom":"B","exampleSet":"first","trial_type":"survey-html-form","trial_index":44,"time_elapsed":714001,"internal_node_id":"0.0-37.0-0.0","params":{"nStudents":24,"maxFlips":30,"completionMinutes":45,"basePay":8,"maxBonus":9,"perTrialBonus":0.5,"perTrialBonusThreshold":0.05,"exampleCost":0.01},"classroomParams":{"A":{"a":1,"b":4},"B":{"a":4,"b":1},"C":{"a":2,"b":8},"D":{"a":8,"b":2}},"conditions":["nonSeqFull","nonSeqPartial","seqNoFeedback","seqFeedback"],"classroomPairings":[["A","B"],["C","D"]],"coinWeights":[0.2,0.5,0.8],"subjectId":"A26SF9CTNKKBYB","assignmentId":"3S96KQ6I9NQ6TKFW8TGNOABYF1QDTP","hitId":"3FJ2RVH25ZSYKBA8MWMNC8NVPF629N","url":"https://gershmanlab.com/experiments/alicia/teaching/experiment/?hitId=3FJ2RVH25ZSYKBA8MWMNC8NVPF629N&workerId=A26SF9CTNKKBYB&assignmentId=3S96KQ6I9NQ6TKFW8TGNOABYF1QDTP&a=IK9S7&tp_a=IK9S7&b=3S96KQ6I9NQ6TKFW8TGNOABYF1QDTP&tp_b=3S96KQ6I9NQ6TKFW8TGNOABYF1QDTP&c=365717&tp_c=365717","heads":15,"tails":15,"studentIndex":4,"studentTrueHypers":{"a":4,"b":1},"studentGuess":0.5428571428571428,"delta":0.042857142857142816,"totalExamples":30,"bonus":0.2,"bonusSoFar":0.98},{"rt":null,"stimulus":"Sending examples to student... ","response":null,"trial_type":"html-keyboard-response","trial_index":45,"time_elapsed":715254,"internal_node_id":"0.0-38.0","params":{"nStudents":24,"maxFlips":30,"completionMinutes":45,"basePay":8,"maxBonus":9,"perTrialBonus":0.5,"perTrialBonusThreshold":0.05,"exampleCost":0.01},"classroomParams":{"A":{"a":1,"b":4},"B":{"a":4,"b":1},"C":{"a":2,"b":8},"D":{"a":8,"b":2}},"conditions":["nonSeqFull","nonSeqPartial","seqNoFeedback","seqFeedback"],"classroomPairings":[["A","B"],["C","D"]],"coinWeights":[0.2,0.5,0.8],"subjectId":"A26SF9CTNKKBYB","assignmentId":"3S96KQ6I9NQ6TKFW8TGNOABYF1QDTP","hitId":"3FJ2RVH25ZSYKBA8MWMNC8NVPF629N","url":"https://gershmanlab.com/experiments/alicia/teaching/experiment/?hitId=3FJ2RVH25ZSYKBA8MWMNC8NVPF629N&workerId=A26SF9CTNKKBYB&assignmentId=3S96KQ6I9NQ6TKFW8TGNOABYF1QDTP&a=IK9S7&tp_a=IK9S7&b=3S96KQ6I9NQ6TKFW8TGNOABYF1QDTP&tp_b=3S96KQ6I9NQ6TKFW8TGNOABYF1QDTP&c=365717&tp_c=365717"},{"rt":null,"stimulus":"Examples sent to student! Waiting for student...","response":null,"trial_type":"html-keyboard-response","trial_index":46,"time_elapsed":719757,"internal_node_id":"0.0-39.0","params":{"nStudents":24,"maxFlips":30,"completionMinutes":45,"basePay":8,"maxBonus":9,"perTrialBonus":0.5,"perTrialBonusThreshold":0.05,"exampleCost":0.01},"classroomParams":{"A":{"a":1,"b":4},"B":{"a":4,"b":1},"C":{"a":2,"b":8},"D":{"a":8,"b":2}},"conditions":["nonSeqFull","nonSeqPartial","seqNoFeedback","seqFeedback"],"classroomPairings":[["A","B"],["C","D"]],"coinWeights":[0.2,0.5,0.8],"subjectId":"A26SF9CTNKKBYB","assignmentId":"3S96KQ6I9NQ6TKFW8TGNOABYF1QDTP","hitId":"3FJ2RVH25ZSYKBA8MWMNC8NVPF629N","url":"https://gershmanlab.com/experiments/alicia/teaching/experiment/?hitId=3FJ2RVH25ZSYKBA8MWMNC8NVPF629N&workerId=A26SF9CTNKKBYB&assignmentId=3S96KQ6I9NQ6TKFW8TGNOABYF1QDTP&a=IK9S7&tp_a=IK9S7&b=3S96KQ6I9NQ6TKFW8TGNOABYF1QDTP&tp_b=3S96KQ6I9NQ6TKFW8TGNOABYF1QDTP&c=365717&tp_c=365717"},{"rt":2009,"stimulus":"\n                <p>Student's guess for coin weight: <b style=\"color:Tomato;\">0.54</b></p>\n                <p>You received a bonus of <b>$0.2</b>. Total bonus so far: <b>$0.98</b></b></p>\n                <p></p>\n                <p>Press any key to continue.</p>\n                ","response":" ","trial_type":"html-keyboard-response","trial_index":47,"time_elapsed":721774,"internal_node_id":"0.0-40.0","params":{"nStudents":24,"maxFlips":30,"completionMinutes":45,"basePay":8,"maxBonus":9,"perTrialBonus":0.5,"perTrialBonusThreshold":0.05,"exampleCost":0.01},"classroomParams":{"A":{"a":1,"b":4},"B":{"a":4,"b":1},"C":{"a":2,"b":8},"D":{"a":8,"b":2}},"conditions":["nonSeqFull","nonSeqPartial","seqNoFeedback","seqFeedback"],"classroomPairings":[["A","B"],["C","D"]],"coinWeights":[0.2,0.5,0.8],"subjectId":"A26SF9CTNKKBYB","assignmentId":"3S96KQ6I9NQ6TKFW8TGNOABYF1QDTP","hitId":"3FJ2RVH25ZSYKBA8MWMNC8NVPF629N","url":"https://gershmanlab.com/experiments/alicia/teaching/experiment/?hitId=3FJ2RVH25ZSYKBA8MWMNC8NVPF629N&workerId=A26SF9CTNKKBYB&assignmentId=3S96KQ6I9NQ6TKFW8TGNOABYF1QDTP&a=IK9S7&tp_a=IK9S7&b=3S96KQ6I9NQ6TKFW8TGNOABYF1QDTP&tp_b=3S96KQ6I9NQ6TKFW8TGNOABYF1QDTP&c=365717&tp_c=365717"},{"rt":null,"stimulus":"<div style=\"font-size:60px;\">Next student</div>","response":null,"trial_type":"html-keyboard-response","trial_index":48,"time_elapsed":723777,"internal_node_id":"0.0-41.0-0.0","params":{"nStudents":24,"maxFlips":30,"completionMinutes":45,"basePay":8,"maxBonus":9,"perTrialBonus":0.5,"perTrialBonusThreshold":0.05,"exampleCost":0.01},"classroomParams":{"A":{"a":1,"b":4},"B":{"a":4,"b":1},"C":{"a":2,"b":8},"D":{"a":8,"b":2}},"conditions":["nonSeqFull","nonSeqPartial","seqNoFeedback","seqFeedback"],"classroomPairings":[["A","B"],["C","D"]],"coinWeights":[0.2,0.5,0.8],"subjectId":"A26SF9CTNKKBYB","assignmentId":"3S96KQ6I9NQ6TKFW8TGNOABYF1QDTP","hitId":"3FJ2RVH25ZSYKBA8MWMNC8NVPF629N","url":"https://gershmanlab.com/experiments/alicia/teaching/experiment/?hitId=3FJ2RVH25ZSYKBA8MWMNC8NVPF629N&workerId=A26SF9CTNKKBYB&assignmentId=3S96KQ6I9NQ6TKFW8TGNOABYF1QDTP&a=IK9S7&tp_a=IK9S7&b=3S96KQ6I9NQ6TKFW8TGNOABYF1QDTP&tp_b=3S96KQ6I9NQ6TKFW8TGNOABYF1QDTP&c=365717&tp_c=365717"},{"rt":1492,"stimulus":"\n            <h4 style=\"color:Orange;\">Student 6</h4>\n            <h2>The weight of your coin is <b style=\"color:Tomato;\">0.8</b>.</h2>\n            <p>In this block, you will be giving <b>one</b> set of examples to Student 6.</p>\n                <p>You will receive feedback at the end of the block.</p>\n            <p></p>","response":0,"trial_type":"html-button-response","trial_index":49,"time_elapsed":725273,"internal_node_id":"0.0-42.0","params":{"nStudents":24,"maxFlips":30,"completionMinutes":45,"basePay":8,"maxBonus":9,"perTrialBonus":0.5,"perTrialBonusThreshold":0.05,"exampleCost":0.01},"classroomParams":{"A":{"a":1,"b":4},"B":{"a":4,"b":1},"C":{"a":2,"b":8},"D":{"a":8,"b":2}},"conditions":["nonSeqFull","nonSeqPartial","seqNoFeedback","seqFeedback"],"classroomPairings":[["A","B"],["C","D"]],"coinWeights":[0.2,0.5,0.8],"subjectId":"A26SF9CTNKKBYB","assignmentId":"3S96KQ6I9NQ6TKFW8TGNOABYF1QDTP","hitId":"3FJ2RVH25ZSYKBA8MWMNC8NVPF629N","url":"https://gershmanlab.com/experiments/alicia/teaching/experiment/?hitId=3FJ2RVH25ZSYKBA8MWMNC8NVPF629N&workerId=A26SF9CTNKKBYB&assignmentId=3S96KQ6I9NQ6TKFW8TGNOABYF1QDTP&a=IK9S7&tp_a=IK9S7&b=3S96KQ6I9NQ6TKFW8TGNOABYF1QDTP&tp_b=3S96KQ6I9NQ6TKFW8TGNOABYF1QDTP&c=365717&tp_c=365717"},{"rt":17828,"response":{"heads":"20","tails":"5"},"type":"response","condition":"nonSeqPartial","trueTheta":0.8,"classrooms":["C","D"],"studentTrueClassroom":"D","exampleSet":"first","trial_type":"survey-html-form","trial_index":50,"time_elapsed":743105,"internal_node_id":"0.0-43.0-0.0","params":{"nStudents":24,"maxFlips":30,"completionMinutes":45,"basePay":8,"maxBonus":9,"perTrialBonus":0.5,"perTrialBonusThreshold":0.05,"exampleCost":0.01},"classroomParams":{"A":{"a":1,"b":4},"B":{"a":4,"b":1},"C":{"a":2,"b":8},"D":{"a":8,"b":2}},"conditions":["nonSeqFull","nonSeqPartial","seqNoFeedback","seqFeedback"],"classroomPairings":[["A","B"],["C","D"]],"coinWeights":[0.2,0.5,0.8],"subjectId":"A26SF9CTNKKBYB","assignmentId":"3S96KQ6I9NQ6TKFW8TGNOABYF1QDTP","hitId":"3FJ2RVH25ZSYKBA8MWMNC8NVPF629N","url":"https://gershmanlab.com/experiments/alicia/teaching/experiment/?hitId=3FJ2RVH25ZSYKBA8MWMNC8NVPF629N&workerId=A26SF9CTNKKBYB&assignmentId=3S96KQ6I9NQ6TKFW8TGNOABYF1QDTP&a=IK9S7&tp_a=IK9S7&b=3S96KQ6I9NQ6TKFW8TGNOABYF1QDTP&tp_b=3S96KQ6I9NQ6TKFW8TGNOABYF1QDTP&c=365717&tp_c=365717","heads":20,"tails":5,"studentIndex":5,"studentTrueHypers":{"a":8,"b":2},"studentGuess":0.8,"delta":0,"totalExamples":25,"bonus":0.25,"bonusSoFar":1.23},{"rt":null,"stimulus":"Sending examples to student... ","response":null,"trial_type":"html-keyboard-response","trial_index":51,"time_elapsed":744607,"internal_node_id":"0.0-44.0","params":{"nStudents":24,"maxFlips":30,"completionMinutes":45,"basePay":8,"maxBonus":9,"perTrialBonus":0.5,"perTrialBonusThreshold":0.05,"exampleCost":0.01},"classroomParams":{"A":{"a":1,"b":4},"B":{"a":4,"b":1},"C":{"a":2,"b":8},"D":{"a":8,"b":2}},"conditions":["nonSeqFull","nonSeqPartial","seqNoFeedback","seqFeedback"],"classroomPairings":[["A","B"],["C","D"]],"coinWeights":[0.2,0.5,0.8],"subjectId":"A26SF9CTNKKBYB","assignmentId":"3S96KQ6I9NQ6TKFW8TGNOABYF1QDTP","hitId":"3FJ2RVH25ZSYKBA8MWMNC8NVPF629N","url":"https://gershmanlab.com/experiments/alicia/teaching/experiment/?hitId=3FJ2RVH25ZSYKBA8MWMNC8NVPF629N&workerId=A26SF9CTNKKBYB&assignmentId=3S96KQ6I9NQ6TKFW8TGNOABYF1QDTP&a=IK9S7&tp_a=IK9S7&b=3S96KQ6I9NQ6TKFW8TGNOABYF1QDTP&tp_b=3S96KQ6I9NQ6TKFW8TGNOABYF1QDTP&c=365717&tp_c=365717"},{"rt":null,"stimulus":"Examples sent to student! Waiting for student...","response":null,"trial_type":"html-keyboard-response","trial_index":52,"time_elapsed":750612,"internal_node_id":"0.0-45.0","params":{"nStudents":24,"maxFlips":30,"completionMinutes":45,"basePay":8,"maxBonus":9,"perTrialBonus":0.5,"perTrialBonusThreshold":0.05,"exampleCost":0.01},"classroomParams":{"A":{"a":1,"b":4},"B":{"a":4,"b":1},"C":{"a":2,"b":8},"D":{"a":8,"b":2}},"conditions":["nonSeqFull","nonSeqPartial","seqNoFeedback","seqFeedback"],"classroomPairings":[["A","B"],["C","D"]],"coinWeights":[0.2,0.5,0.8],"subjectId":"A26SF9CTNKKBYB","assignmentId":"3S96KQ6I9NQ6TKFW8TGNOABYF1QDTP","hitId":"3FJ2RVH25ZSYKBA8MWMNC8NVPF629N","url":"https://gershmanlab.com/experiments/alicia/teaching/experiment/?hitId=3FJ2RVH25ZSYKBA8MWMNC8NVPF629N&workerId=A26SF9CTNKKBYB&assignmentId=3S96KQ6I9NQ6TKFW8TGNOABYF1QDTP&a=IK9S7&tp_a=IK9S7&b=3S96KQ6I9NQ6TKFW8TGNOABYF1QDTP&tp_b=3S96KQ6I9NQ6TKFW8TGNOABYF1QDTP&c=365717&tp_c=365717"},{"rt":2241,"stimulus":"\n                <p>Student's guess for coin weight: <b style=\"color:Tomato;\">0.80</b></p>\n                <p>You received a bonus of <b>$0.25</b>. Total bonus so far: <b>$1.23</b></b></p>\n                <p></p>\n                <p>Press any key to continue.</p>\n                ","response":" ","trial_type":"html-keyboard-response","trial_index":53,"time_elapsed":752855,"internal_node_id":"0.0-46.0","params":{"nStudents":24,"maxFlips":30,"completionMinutes":45,"basePay":8,"maxBonus":9,"perTrialBonus":0.5,"perTrialBonusThreshold":0.05,"exampleCost":0.01},"classroomParams":{"A":{"a":1,"b":4},"B":{"a":4,"b":1},"C":{"a":2,"b":8},"D":{"a":8,"b":2}},"conditions":["nonSeqFull","nonSeqPartial","seqNoFeedback","seqFeedback"],"classroomPairings":[["A","B"],["C","D"]],"coinWeights":[0.2,0.5,0.8],"subjectId":"A26SF9CTNKKBYB","assignmentId":"3S96KQ6I9NQ6TKFW8TGNOABYF1QDTP","hitId":"3FJ2RVH25ZSYKBA8MWMNC8NVPF629N","url":"https://gershmanlab.com/experiments/alicia/teaching/experiment/?hitId=3FJ2RVH25ZSYKBA8MWMNC8NVPF629N&workerId=A26SF9CTNKKBYB&assignmentId=3S96KQ6I9NQ6TKFW8TGNOABYF1QDTP&a=IK9S7&tp_a=IK9S7&b=3S96KQ6I9NQ6TKFW8TGNOABYF1QDTP&tp_b=3S96KQ6I9NQ6TKFW8TGNOABYF1QDTP&c=365717&tp_c=365717"},{"rt":null,"stimulus":"<div style=\"font-size:60px;\">Next student</div>","response":null,"trial_type":"html-keyboard-response","trial_index":54,"time_elapsed":755858,"internal_node_id":"0.0-47.0-0.0","params":{"nStudents":24,"maxFlips":30,"completionMinutes":45,"basePay":8,"maxBonus":9,"perTrialBonus":0.5,"perTrialBonusThreshold":0.05,"exampleCost":0.01},"classroomParams":{"A":{"a":1,"b":4},"B":{"a":4,"b":1},"C":{"a":2,"b":8},"D":{"a":8,"b":2}},"conditions":["nonSeqFull","nonSeqPartial","seqNoFeedback","seqFeedback"],"classroomPairings":[["A","B"],["C","D"]],"coinWeights":[0.2,0.5,0.8],"subjectId":"A26SF9CTNKKBYB","assignmentId":"3S96KQ6I9NQ6TKFW8TGNOABYF1QDTP","hitId":"3FJ2RVH25ZSYKBA8MWMNC8NVPF629N","url":"https://gershmanlab.com/experiments/alicia/teaching/experiment/?hitId=3FJ2RVH25ZSYKBA8MWMNC8NVPF629N&workerId=A26SF9CTNKKBYB&assignmentId=3S96KQ6I9NQ6TKFW8TGNOABYF1QDTP&a=IK9S7&tp_a=IK9S7&b=3S96KQ6I9NQ6TKFW8TGNOABYF1QDTP&tp_b=3S96KQ6I9NQ6TKFW8TGNOABYF1QDTP&c=365717&tp_c=365717"},{"rt":2236,"stimulus":"\n            <h4 style=\"color:Orange;\">Student 7</h4>\n            <h2>The weight of your coin is <b style=\"color:Tomato;\">0.5</b>.</h2>\n            <p>In this block, you will be giving <b>two</b> sets of examples to Student 7.</p>\n                <p>You will see the student's guess after the first set of examples. You will also receive feedback at the end of the block.</p>\n            <p>To earn the highest bonus, you will have to <b>take into consideration the student's guess</b> when you choose your second set of examples.</p>","response":0,"trial_type":"html-button-response","trial_index":55,"time_elapsed":758095,"internal_node_id":"0.0-48.0","params":{"nStudents":24,"maxFlips":30,"completionMinutes":45,"basePay":8,"maxBonus":9,"perTrialBonus":0.5,"perTrialBonusThreshold":0.05,"exampleCost":0.01},"classroomParams":{"A":{"a":1,"b":4},"B":{"a":4,"b":1},"C":{"a":2,"b":8},"D":{"a":8,"b":2}},"conditions":["nonSeqFull","nonSeqPartial","seqNoFeedback","seqFeedback"],"classroomPairings":[["A","B"],["C","D"]],"coinWeights":[0.2,0.5,0.8],"subjectId":"A26SF9CTNKKBYB","assignmentId":"3S96KQ6I9NQ6TKFW8TGNOABYF1QDTP","hitId":"3FJ2RVH25ZSYKBA8MWMNC8NVPF629N","url":"https://gershmanlab.com/experiments/alicia/teaching/experiment/?hitId=3FJ2RVH25ZSYKBA8MWMNC8NVPF629N&workerId=A26SF9CTNKKBYB&assignmentId=3S96KQ6I9NQ6TKFW8TGNOABYF1QDTP&a=IK9S7&tp_a=IK9S7&b=3S96KQ6I9NQ6TKFW8TGNOABYF1QDTP&tp_b=3S96KQ6I9NQ6TKFW8TGNOABYF1QDTP&c=365717&tp_c=365717"},{"rt":8488,"response":{"heads":"15","tails":"15"},"type":"response","condition":"seqFeedback","trueTheta":0.5,"classrooms":["A","B"],"studentTrueClassroom":"B","exampleSet":"first","trial_type":"survey-html-form","trial_index":56,"time_elapsed":766585,"internal_node_id":"0.0-49.0-0.0","params":{"nStudents":24,"maxFlips":30,"completionMinutes":45,"basePay":8,"maxBonus":9,"perTrialBonus":0.5,"perTrialBonusThreshold":0.05,"exampleCost":0.01},"classroomParams":{"A":{"a":1,"b":4},"B":{"a":4,"b":1},"C":{"a":2,"b":8},"D":{"a":8,"b":2}},"conditions":["nonSeqFull","nonSeqPartial","seqNoFeedback","seqFeedback"],"classroomPairings":[["A","B"],["C","D"]],"coinWeights":[0.2,0.5,0.8],"subjectId":"A26SF9CTNKKBYB","assignmentId":"3S96KQ6I9NQ6TKFW8TGNOABYF1QDTP","hitId":"3FJ2RVH25ZSYKBA8MWMNC8NVPF629N","url":"https://gershmanlab.com/experiments/alicia/teaching/experiment/?hitId=3FJ2RVH25ZSYKBA8MWMNC8NVPF629N&workerId=A26SF9CTNKKBYB&assignmentId=3S96KQ6I9NQ6TKFW8TGNOABYF1QDTP&a=IK9S7&tp_a=IK9S7&b=3S96KQ6I9NQ6TKFW8TGNOABYF1QDTP&tp_b=3S96KQ6I9NQ6TKFW8TGNOABYF1QDTP&c=365717&tp_c=365717","heads":15,"tails":15,"studentIndex":6,"studentTrueHypers":{"a":4,"b":1},"studentGuess":0.5428571428571428,"delta":0.042857142857142816,"totalExamples":30,"bonusSoFar":1.23},{"rt":null,"stimulus":"Sending examples to student... ","response":null,"trial_type":"html-keyboard-response","trial_index":57,"time_elapsed":768588,"internal_node_id":"0.0-50.0","params":{"nStudents":24,"maxFlips":30,"completionMinutes":45,"basePay":8,"maxBonus":9,"perTrialBonus":0.5,"perTrialBonusThreshold":0.05,"exampleCost":0.01},"classroomParams":{"A":{"a":1,"b":4},"B":{"a":4,"b":1},"C":{"a":2,"b":8},"D":{"a":8,"b":2}},"conditions":["nonSeqFull","nonSeqPartial","seqNoFeedback","seqFeedback"],"classroomPairings":[["A","B"],["C","D"]],"coinWeights":[0.2,0.5,0.8],"subjectId":"A26SF9CTNKKBYB","assignmentId":"3S96KQ6I9NQ6TKFW8TGNOABYF1QDTP","hitId":"3FJ2RVH25ZSYKBA8MWMNC8NVPF629N","url":"https://gershmanlab.com/experiments/alicia/teaching/experiment/?hitId=3FJ2RVH25ZSYKBA8MWMNC8NVPF629N&workerId=A26SF9CTNKKBYB&assignmentId=3S96KQ6I9NQ6TKFW8TGNOABYF1QDTP&a=IK9S7&tp_a=IK9S7&b=3S96KQ6I9NQ6TKFW8TGNOABYF1QDTP&tp_b=3S96KQ6I9NQ6TKFW8TGNOABYF1QDTP&c=365717&tp_c=365717"},{"rt":null,"stimulus":"Examples sent to student! Waiting for student...","response":null,"trial_type":"html-keyboard-response","trial_index":58,"time_elapsed":774090,"internal_node_id":"0.0-51.0","params":{"nStudents":24,"maxFlips":30,"completionMinutes":45,"basePay":8,"maxBonus":9,"perTrialBonus":0.5,"perTrialBonusThreshold":0.05,"exampleCost":0.01},"classroomParams":{"A":{"a":1,"b":4},"B":{"a":4,"b":1},"C":{"a":2,"b":8},"D":{"a":8,"b":2}},"conditions":["nonSeqFull","nonSeqPartial","seqNoFeedback","seqFeedback"],"classroomPairings":[["A","B"],["C","D"]],"coinWeights":[0.2,0.5,0.8],"subjectId":"A26SF9CTNKKBYB","assignmentId":"3S96KQ6I9NQ6TKFW8TGNOABYF1QDTP","hitId":"3FJ2RVH25ZSYKBA8MWMNC8NVPF629N","url":"https://gershmanlab.com/experiments/alicia/teaching/experiment/?hitId=3FJ2RVH25ZSYKBA8MWMNC8NVPF629N&workerId=A26SF9CTNKKBYB&assignmentId=3S96KQ6I9NQ6TKFW8TGNOABYF1QDTP&a=IK9S7&tp_a=IK9S7&b=3S96KQ6I9NQ6TKFW8TGNOABYF1QDTP&tp_b=3S96KQ6I9NQ6TKFW8TGNOABYF1QDTP&c=365717&tp_c=365717"},{"rt":3971,"stimulus":"\n                <p>Student's guess for coin weight: <b style=\"color:Tomato;\">0.54</b></p>\n                <p></b></p>\n                <p>You will now send another set of examples to your student. <b>Remember to take your student's guess into consideration so that you can earn the highest bonus possible!</b> </p>\n                <p>Press any key to continue.</p>\n                ","response":" ","trial_type":"html-keyboard-response","trial_index":59,"time_elapsed":778063,"internal_node_id":"0.0-52.0","params":{"nStudents":24,"maxFlips":30,"completionMinutes":45,"basePay":8,"maxBonus":9,"perTrialBonus":0.5,"perTrialBonusThreshold":0.05,"exampleCost":0.01},"classroomParams":{"A":{"a":1,"b":4},"B":{"a":4,"b":1},"C":{"a":2,"b":8},"D":{"a":8,"b":2}},"conditions":["nonSeqFull","nonSeqPartial","seqNoFeedback","seqFeedback"],"classroomPairings":[["A","B"],["C","D"]],"coinWeights":[0.2,0.5,0.8],"subjectId":"A26SF9CTNKKBYB","assignmentId":"3S96KQ6I9NQ6TKFW8TGNOABYF1QDTP","hitId":"3FJ2RVH25ZSYKBA8MWMNC8NVPF629N","url":"https://gershmanlab.com/experiments/alicia/teaching/experiment/?hitId=3FJ2RVH25ZSYKBA8MWMNC8NVPF629N&workerId=A26SF9CTNKKBYB&assignmentId=3S96KQ6I9NQ6TKFW8TGNOABYF1QDTP&a=IK9S7&tp_a=IK9S7&b=3S96KQ6I9NQ6TKFW8TGNOABYF1QDTP&tp_b=3S96KQ6I9NQ6TKFW8TGNOABYF1QDTP&c=365717&tp_c=365717"},{"rt":13832,"response":{"heads":"13","tails":"16"},"type":"response","condition":"seqFeedback","trueTheta":0.5,"classrooms":["A","B"],"studentTrueClassroom":"B","exampleSet":"second","trial_type":"survey-html-form","trial_index":60,"time_elapsed":791899,"internal_node_id":"0.0-53.0-0.0","params":{"nStudents":24,"maxFlips":30,"completionMinutes":45,"basePay":8,"maxBonus":9,"perTrialBonus":0.5,"perTrialBonusThreshold":0.05,"exampleCost":0.01},"classroomParams":{"A":{"a":1,"b":4},"B":{"a":4,"b":1},"C":{"a":2,"b":8},"D":{"a":8,"b":2}},"conditions":["nonSeqFull","nonSeqPartial","seqNoFeedback","seqFeedback"],"classroomPairings":[["A","B"],["C","D"]],"coinWeights":[0.2,0.5,0.8],"subjectId":"A26SF9CTNKKBYB","assignmentId":"3S96KQ6I9NQ6TKFW8TGNOABYF1QDTP","hitId":"3FJ2RVH25ZSYKBA8MWMNC8NVPF629N","url":"https://gershmanlab.com/experiments/alicia/teaching/experiment/?hitId=3FJ2RVH25ZSYKBA8MWMNC8NVPF629N&workerId=A26SF9CTNKKBYB&assignmentId=3S96KQ6I9NQ6TKFW8TGNOABYF1QDTP&a=IK9S7&tp_a=IK9S7&b=3S96KQ6I9NQ6TKFW8TGNOABYF1QDTP&tp_b=3S96KQ6I9NQ6TKFW8TGNOABYF1QDTP&c=365717&tp_c=365717","firstResponseHeads":15,"firstResponseTails":15,"secondResponseHeads":13,"secondResponseTails":16,"totalHeads":28,"totalTails":31,"studentIndex":6,"studentTrueHypers":{"a":4,"b":1},"studentGuess":0.5,"delta":0,"bonus":0,"bonusSoFar":1.23,"totalExamples":59},{"rt":null,"stimulus":"Sending examples to student... ","response":null,"trial_type":"html-keyboard-response","trial_index":61,"time_elapsed":793651,"internal_node_id":"0.0-54.0","params":{"nStudents":24,"maxFlips":30,"completionMinutes":45,"basePay":8,"maxBonus":9,"perTrialBonus":0.5,"perTrialBonusThreshold":0.05,"exampleCost":0.01},"classroomParams":{"A":{"a":1,"b":4},"B":{"a":4,"b":1},"C":{"a":2,"b":8},"D":{"a":8,"b":2}},"conditions":["nonSeqFull","nonSeqPartial","seqNoFeedback","seqFeedback"],"classroomPairings":[["A","B"],["C","D"]],"coinWeights":[0.2,0.5,0.8],"subjectId":"A26SF9CTNKKBYB","assignmentId":"3S96KQ6I9NQ6TKFW8TGNOABYF1QDTP","hitId":"3FJ2RVH25ZSYKBA8MWMNC8NVPF629N","url":"https://gershmanlab.com/experiments/alicia/teaching/experiment/?hitId=3FJ2RVH25ZSYKBA8MWMNC8NVPF629N&workerId=A26SF9CTNKKBYB&assignmentId=3S96KQ6I9NQ6TKFW8TGNOABYF1QDTP&a=IK9S7&tp_a=IK9S7&b=3S96KQ6I9NQ6TKFW8TGNOABYF1QDTP&tp_b=3S96KQ6I9NQ6TKFW8TGNOABYF1QDTP&c=365717&tp_c=365717"},{"rt":null,"stimulus":"Examples sent to student! Waiting for student...","response":null,"trial_type":"html-keyboard-response","trial_index":62,"time_elapsed":799153,"internal_node_id":"0.0-55.0","params":{"nStudents":24,"maxFlips":30,"completionMinutes":45,"basePay":8,"maxBonus":9,"perTrialBonus":0.5,"perTrialBonusThreshold":0.05,"exampleCost":0.01},"classroomParams":{"A":{"a":1,"b":4},"B":{"a":4,"b":1},"C":{"a":2,"b":8},"D":{"a":8,"b":2}},"conditions":["nonSeqFull","nonSeqPartial","seqNoFeedback","seqFeedback"],"classroomPairings":[["A","B"],["C","D"]],"coinWeights":[0.2,0.5,0.8],"subjectId":"A26SF9CTNKKBYB","assignmentId":"3S96KQ6I9NQ6TKFW8TGNOABYF1QDTP","hitId":"3FJ2RVH25ZSYKBA8MWMNC8NVPF629N","url":"https://gershmanlab.com/experiments/alicia/teaching/experiment/?hitId=3FJ2RVH25ZSYKBA8MWMNC8NVPF629N&workerId=A26SF9CTNKKBYB&assignmentId=3S96KQ6I9NQ6TKFW8TGNOABYF1QDTP&a=IK9S7&tp_a=IK9S7&b=3S96KQ6I9NQ6TKFW8TGNOABYF1QDTP&tp_b=3S96KQ6I9NQ6TKFW8TGNOABYF1QDTP&c=365717&tp_c=365717"},{"rt":2605,"stimulus":"\n                <p>Student 7's first guess for coin weight: <b style=\"color:Tomato\";>0.54</b></p>\n                <p>Student 7's second guess for coin weight: <b style=\"color:Tomato\";>0.50</b></p>\n                <p>You received a bonus of <b>$0.00</b> based on the student's second guess.</p>\n                <p>Total bonus so far: <b>$1.23</b></p>\n                <p>Press any key to continue.</p>\n                ","response":" ","trial_type":"html-keyboard-response","trial_index":63,"time_elapsed":801760,"internal_node_id":"0.0-56.0","params":{"nStudents":24,"maxFlips":30,"completionMinutes":45,"basePay":8,"maxBonus":9,"perTrialBonus":0.5,"perTrialBonusThreshold":0.05,"exampleCost":0.01},"classroomParams":{"A":{"a":1,"b":4},"B":{"a":4,"b":1},"C":{"a":2,"b":8},"D":{"a":8,"b":2}},"conditions":["nonSeqFull","nonSeqPartial","seqNoFeedback","seqFeedback"],"classroomPairings":[["A","B"],["C","D"]],"coinWeights":[0.2,0.5,0.8],"subjectId":"A26SF9CTNKKBYB","assignmentId":"3S96KQ6I9NQ6TKFW8TGNOABYF1QDTP","hitId":"3FJ2RVH25ZSYKBA8MWMNC8NVPF629N","url":"https://gershmanlab.com/experiments/alicia/teaching/experiment/?hitId=3FJ2RVH25ZSYKBA8MWMNC8NVPF629N&workerId=A26SF9CTNKKBYB&assignmentId=3S96KQ6I9NQ6TKFW8TGNOABYF1QDTP&a=IK9S7&tp_a=IK9S7&b=3S96KQ6I9NQ6TKFW8TGNOABYF1QDTP&tp_b=3S96KQ6I9NQ6TKFW8TGNOABYF1QDTP&c=365717&tp_c=365717"},{"rt":null,"stimulus":"<div style=\"font-size:60px;\">Next student</div>","response":null,"trial_type":"html-keyboard-response","trial_index":64,"time_elapsed":803762,"internal_node_id":"0.0-57.0-0.0","params":{"nStudents":24,"maxFlips":30,"completionMinutes":45,"basePay":8,"maxBonus":9,"perTrialBonus":0.5,"perTrialBonusThreshold":0.05,"exampleCost":0.01},"classroomParams":{"A":{"a":1,"b":4},"B":{"a":4,"b":1},"C":{"a":2,"b":8},"D":{"a":8,"b":2}},"conditions":["nonSeqFull","nonSeqPartial","seqNoFeedback","seqFeedback"],"classroomPairings":[["A","B"],["C","D"]],"coinWeights":[0.2,0.5,0.8],"subjectId":"A26SF9CTNKKBYB","assignmentId":"3S96KQ6I9NQ6TKFW8TGNOABYF1QDTP","hitId":"3FJ2RVH25ZSYKBA8MWMNC8NVPF629N","url":"https://gershmanlab.com/experiments/alicia/teaching/experiment/?hitId=3FJ2RVH25ZSYKBA8MWMNC8NVPF629N&workerId=A26SF9CTNKKBYB&assignmentId=3S96KQ6I9NQ6TKFW8TGNOABYF1QDTP&a=IK9S7&tp_a=IK9S7&b=3S96KQ6I9NQ6TKFW8TGNOABYF1QDTP&tp_b=3S96KQ6I9NQ6TKFW8TGNOABYF1QDTP&c=365717&tp_c=365717"},{"rt":5532,"stimulus":"\n            <h4 style=\"color:Orange;\">Student 8</h4>\n            <h2>The weight of your coin is <b style=\"color:Tomato;\">0.2</b>.</h2>\n            <p>In this block, you will be giving <b>one</b> set of examples to Student 8.</p>\n                <p>You will receive feedback at the end of the block.</p>\n            <p></p>","response":0,"trial_type":"html-button-response","trial_index":65,"time_elapsed":809298,"internal_node_id":"0.0-58.0","params":{"nStudents":24,"maxFlips":30,"completionMinutes":45,"basePay":8,"maxBonus":9,"perTrialBonus":0.5,"perTrialBonusThreshold":0.05,"exampleCost":0.01},"classroomParams":{"A":{"a":1,"b":4},"B":{"a":4,"b":1},"C":{"a":2,"b":8},"D":{"a":8,"b":2}},"conditions":["nonSeqFull","nonSeqPartial","seqNoFeedback","seqFeedback"],"classroomPairings":[["A","B"],["C","D"]],"coinWeights":[0.2,0.5,0.8],"subjectId":"A26SF9CTNKKBYB","assignmentId":"3S96KQ6I9NQ6TKFW8TGNOABYF1QDTP","hitId":"3FJ2RVH25ZSYKBA8MWMNC8NVPF629N","url":"https://gershmanlab.com/experiments/alicia/teaching/experiment/?hitId=3FJ2RVH25ZSYKBA8MWMNC8NVPF629N&workerId=A26SF9CTNKKBYB&assignmentId=3S96KQ6I9NQ6TKFW8TGNOABYF1QDTP&a=IK9S7&tp_a=IK9S7&b=3S96KQ6I9NQ6TKFW8TGNOABYF1QDTP&tp_b=3S96KQ6I9NQ6TKFW8TGNOABYF1QDTP&c=365717&tp_c=365717"},{"rt":14365,"response":{"heads":"2","tails":"10"},"type":"response","condition":"nonSeqPartial","trueTheta":0.2,"classrooms":["A","B"],"studentTrueClassroom":"A","exampleSet":"first","trial_type":"survey-html-form","trial_index":66,"time_elapsed":823666,"internal_node_id":"0.0-59.0-0.0","params":{"nStudents":24,"maxFlips":30,"completionMinutes":45,"basePay":8,"maxBonus":9,"perTrialBonus":0.5,"perTrialBonusThreshold":0.05,"exampleCost":0.01},"classroomParams":{"A":{"a":1,"b":4},"B":{"a":4,"b":1},"C":{"a":2,"b":8},"D":{"a":8,"b":2}},"conditions":["nonSeqFull","nonSeqPartial","seqNoFeedback","seqFeedback"],"classroomPairings":[["A","B"],["C","D"]],"coinWeights":[0.2,0.5,0.8],"subjectId":"A26SF9CTNKKBYB","assignmentId":"3S96KQ6I9NQ6TKFW8TGNOABYF1QDTP","hitId":"3FJ2RVH25ZSYKBA8MWMNC8NVPF629N","url":"https://gershmanlab.com/experiments/alicia/teaching/experiment/?hitId=3FJ2RVH25ZSYKBA8MWMNC8NVPF629N&workerId=A26SF9CTNKKBYB&assignmentId=3S96KQ6I9NQ6TKFW8TGNOABYF1QDTP&a=IK9S7&tp_a=IK9S7&b=3S96KQ6I9NQ6TKFW8TGNOABYF1QDTP&tp_b=3S96KQ6I9NQ6TKFW8TGNOABYF1QDTP&c=365717&tp_c=365717","heads":2,"tails":10,"studentIndex":7,"studentTrueHypers":{"a":1,"b":4},"studentGuess":0.17647058823529413,"delta":0.023529411764705882,"totalExamples":12,"bonus":0.38,"bonusSoFar":1.61},{"rt":null,"stimulus":"Sending examples to student... ","response":null,"trial_type":"html-keyboard-response","trial_index":67,"time_elapsed":824918,"internal_node_id":"0.0-60.0","params":{"nStudents":24,"maxFlips":30,"completionMinutes":45,"basePay":8,"maxBonus":9,"perTrialBonus":0.5,"perTrialBonusThreshold":0.05,"exampleCost":0.01},"classroomParams":{"A":{"a":1,"b":4},"B":{"a":4,"b":1},"C":{"a":2,"b":8},"D":{"a":8,"b":2}},"conditions":["nonSeqFull","nonSeqPartial","seqNoFeedback","seqFeedback"],"classroomPairings":[["A","B"],["C","D"]],"coinWeights":[0.2,0.5,0.8],"subjectId":"A26SF9CTNKKBYB","assignmentId":"3S96KQ6I9NQ6TKFW8TGNOABYF1QDTP","hitId":"3FJ2RVH25ZSYKBA8MWMNC8NVPF629N","url":"https://gershmanlab.com/experiments/alicia/teaching/experiment/?hitId=3FJ2RVH25ZSYKBA8MWMNC8NVPF629N&workerId=A26SF9CTNKKBYB&assignmentId=3S96KQ6I9NQ6TKFW8TGNOABYF1QDTP&a=IK9S7&tp_a=IK9S7&b=3S96KQ6I9NQ6TKFW8TGNOABYF1QDTP&tp_b=3S96KQ6I9NQ6TKFW8TGNOABYF1QDTP&c=365717&tp_c=365717"},{"rt":null,"stimulus":"Examples sent to student! Waiting for student...","response":null,"trial_type":"html-keyboard-response","trial_index":68,"time_elapsed":830421,"internal_node_id":"0.0-61.0","params":{"nStudents":24,"maxFlips":30,"completionMinutes":45,"basePay":8,"maxBonus":9,"perTrialBonus":0.5,"perTrialBonusThreshold":0.05,"exampleCost":0.01},"classroomParams":{"A":{"a":1,"b":4},"B":{"a":4,"b":1},"C":{"a":2,"b":8},"D":{"a":8,"b":2}},"conditions":["nonSeqFull","nonSeqPartial","seqNoFeedback","seqFeedback"],"classroomPairings":[["A","B"],["C","D"]],"coinWeights":[0.2,0.5,0.8],"subjectId":"A26SF9CTNKKBYB","assignmentId":"3S96KQ6I9NQ6TKFW8TGNOABYF1QDTP","hitId":"3FJ2RVH25ZSYKBA8MWMNC8NVPF629N","url":"https://gershmanlab.com/experiments/alicia/teaching/experiment/?hitId=3FJ2RVH25ZSYKBA8MWMNC8NVPF629N&workerId=A26SF9CTNKKBYB&assignmentId=3S96KQ6I9NQ6TKFW8TGNOABYF1QDTP&a=IK9S7&tp_a=IK9S7&b=3S96KQ6I9NQ6TKFW8TGNOABYF1QDTP&tp_b=3S96KQ6I9NQ6TKFW8TGNOABYF1QDTP&c=365717&tp_c=365717"},{"rt":2354,"stimulus":"\n                <p>Student's guess for coin weight: <b style=\"color:Tomato;\">0.18</b></p>\n                <p>You received a bonus of <b>$0.38</b>. Total bonus so far: <b>$1.61</b></b></p>\n                <p></p>\n                <p>Press any key to continue.</p>\n                ","response":" ","trial_type":"html-keyboard-response","trial_index":69,"time_elapsed":832777,"internal_node_id":"0.0-62.0","params":{"nStudents":24,"maxFlips":30,"completionMinutes":45,"basePay":8,"maxBonus":9,"perTrialBonus":0.5,"perTrialBonusThreshold":0.05,"exampleCost":0.01},"classroomParams":{"A":{"a":1,"b":4},"B":{"a":4,"b":1},"C":{"a":2,"b":8},"D":{"a":8,"b":2}},"conditions":["nonSeqFull","nonSeqPartial","seqNoFeedback","seqFeedback"],"classroomPairings":[["A","B"],["C","D"]],"coinWeights":[0.2,0.5,0.8],"subjectId":"A26SF9CTNKKBYB","assignmentId":"3S96KQ6I9NQ6TKFW8TGNOABYF1QDTP","hitId":"3FJ2RVH25ZSYKBA8MWMNC8NVPF629N","url":"https://gershmanlab.com/experiments/alicia/teaching/experiment/?hitId=3FJ2RVH25ZSYKBA8MWMNC8NVPF629N&workerId=A26SF9CTNKKBYB&assignmentId=3S96KQ6I9NQ6TKFW8TGNOABYF1QDTP&a=IK9S7&tp_a=IK9S7&b=3S96KQ6I9NQ6TKFW8TGNOABYF1QDTP&tp_b=3S96KQ6I9NQ6TKFW8TGNOABYF1QDTP&c=365717&tp_c=365717"},{"rt":null,"stimulus":"<div style=\"font-size:60px;\">Next student</div>","response":null,"trial_type":"html-keyboard-response","trial_index":70,"time_elapsed":835030,"internal_node_id":"0.0-63.0-0.0","params":{"nStudents":24,"maxFlips":30,"completionMinutes":45,"basePay":8,"maxBonus":9,"perTrialBonus":0.5,"perTrialBonusThreshold":0.05,"exampleCost":0.01},"classroomParams":{"A":{"a":1,"b":4},"B":{"a":4,"b":1},"C":{"a":2,"b":8},"D":{"a":8,"b":2}},"conditions":["nonSeqFull","nonSeqPartial","seqNoFeedback","seqFeedback"],"classroomPairings":[["A","B"],["C","D"]],"coinWeights":[0.2,0.5,0.8],"subjectId":"A26SF9CTNKKBYB","assignmentId":"3S96KQ6I9NQ6TKFW8TGNOABYF1QDTP","hitId":"3FJ2RVH25ZSYKBA8MWMNC8NVPF629N","url":"https://gershmanlab.com/experiments/alicia/teaching/experiment/?hitId=3FJ2RVH25ZSYKBA8MWMNC8NVPF629N&workerId=A26SF9CTNKKBYB&assignmentId=3S96KQ6I9NQ6TKFW8TGNOABYF1QDTP&a=IK9S7&tp_a=IK9S7&b=3S96KQ6I9NQ6TKFW8TGNOABYF1QDTP&tp_b=3S96KQ6I9NQ6TKFW8TGNOABYF1QDTP&c=365717&tp_c=365717"},{"rt":1721,"stimulus":"\n            <h4 style=\"color:Orange;\">Student 9</h4>\n            <h2>The weight of your coin is <b style=\"color:Tomato;\">0.5</b>.</h2>\n            <p>In this block, you will be giving <b>one</b> set of examples to Student 9.</p>\n                <p>You will receive feedback at the end of the block.</p>\n            <p></p>","response":0,"trial_type":"html-button-response","trial_index":71,"time_elapsed":836753,"internal_node_id":"0.0-64.0","params":{"nStudents":24,"maxFlips":30,"completionMinutes":45,"basePay":8,"maxBonus":9,"perTrialBonus":0.5,"perTrialBonusThreshold":0.05,"exampleCost":0.01},"classroomParams":{"A":{"a":1,"b":4},"B":{"a":4,"b":1},"C":{"a":2,"b":8},"D":{"a":8,"b":2}},"conditions":["nonSeqFull","nonSeqPartial","seqNoFeedback","seqFeedback"],"classroomPairings":[["A","B"],["C","D"]],"coinWeights":[0.2,0.5,0.8],"subjectId":"A26SF9CTNKKBYB","assignmentId":"3S96KQ6I9NQ6TKFW8TGNOABYF1QDTP","hitId":"3FJ2RVH25ZSYKBA8MWMNC8NVPF629N","url":"https://gershmanlab.com/experiments/alicia/teaching/experiment/?hitId=3FJ2RVH25ZSYKBA8MWMNC8NVPF629N&workerId=A26SF9CTNKKBYB&assignmentId=3S96KQ6I9NQ6TKFW8TGNOABYF1QDTP&a=IK9S7&tp_a=IK9S7&b=3S96KQ6I9NQ6TKFW8TGNOABYF1QDTP&tp_b=3S96KQ6I9NQ6TKFW8TGNOABYF1QDTP&c=365717&tp_c=365717"},{"rt":5063,"response":{"heads":"15","tails":"15"},"type":"response","condition":"nonSeqFull","trueTheta":0.5,"classrooms":["C","D"],"studentTrueClassroom":"D","exampleSet":"first","trial_type":"survey-html-form","trial_index":72,"time_elapsed":841819,"internal_node_id":"0.0-65.0-0.0","params":{"nStudents":24,"maxFlips":30,"completionMinutes":45,"basePay":8,"maxBonus":9,"perTrialBonus":0.5,"perTrialBonusThreshold":0.05,"exampleCost":0.01},"classroomParams":{"A":{"a":1,"b":4},"B":{"a":4,"b":1},"C":{"a":2,"b":8},"D":{"a":8,"b":2}},"conditions":["nonSeqFull","nonSeqPartial","seqNoFeedback","seqFeedback"],"classroomPairings":[["A","B"],["C","D"]],"coinWeights":[0.2,0.5,0.8],"subjectId":"A26SF9CTNKKBYB","assignmentId":"3S96KQ6I9NQ6TKFW8TGNOABYF1QDTP","hitId":"3FJ2RVH25ZSYKBA8MWMNC8NVPF629N","url":"https://gershmanlab.com/experiments/alicia/teaching/experiment/?hitId=3FJ2RVH25ZSYKBA8MWMNC8NVPF629N&workerId=A26SF9CTNKKBYB&assignmentId=3S96KQ6I9NQ6TKFW8TGNOABYF1QDTP&a=IK9S7&tp_a=IK9S7&b=3S96KQ6I9NQ6TKFW8TGNOABYF1QDTP&tp_b=3S96KQ6I9NQ6TKFW8TGNOABYF1QDTP&c=365717&tp_c=365717","heads":15,"tails":15,"studentIndex":8,"studentTrueHypers":{"a":8,"b":2},"studentGuess":0.575,"delta":0.07499999999999996,"totalExamples":30,"bonus":0,"bonusSoFar":1.61},{"rt":null,"stimulus":"Sending examples to student... ","response":null,"trial_type":"html-keyboard-response","trial_index":73,"time_elapsed":843571,"internal_node_id":"0.0-66.0","params":{"nStudents":24,"maxFlips":30,"completionMinutes":45,"basePay":8,"maxBonus":9,"perTrialBonus":0.5,"perTrialBonusThreshold":0.05,"exampleCost":0.01},"classroomParams":{"A":{"a":1,"b":4},"B":{"a":4,"b":1},"C":{"a":2,"b":8},"D":{"a":8,"b":2}},"conditions":["nonSeqFull","nonSeqPartial","seqNoFeedback","seqFeedback"],"classroomPairings":[["A","B"],["C","D"]],"coinWeights":[0.2,0.5,0.8],"subjectId":"A26SF9CTNKKBYB","assignmentId":"3S96KQ6I9NQ6TKFW8TGNOABYF1QDTP","hitId":"3FJ2RVH25ZSYKBA8MWMNC8NVPF629N","url":"https://gershmanlab.com/experiments/alicia/teaching/experiment/?hitId=3FJ2RVH25ZSYKBA8MWMNC8NVPF629N&workerId=A26SF9CTNKKBYB&assignmentId=3S96KQ6I9NQ6TKFW8TGNOABYF1QDTP&a=IK9S7&tp_a=IK9S7&b=3S96KQ6I9NQ6TKFW8TGNOABYF1QDTP&tp_b=3S96KQ6I9NQ6TKFW8TGNOABYF1QDTP&c=365717&tp_c=365717"},{"rt":null,"stimulus":"Examples sent to student! Waiting for student...","response":null,"trial_type":"html-keyboard-response","trial_index":74,"time_elapsed":848074,"internal_node_id":"0.0-67.0","params":{"nStudents":24,"maxFlips":30,"completionMinutes":45,"basePay":8,"maxBonus":9,"perTrialBonus":0.5,"perTrialBonusThreshold":0.05,"exampleCost":0.01},"classroomParams":{"A":{"a":1,"b":4},"B":{"a":4,"b":1},"C":{"a":2,"b":8},"D":{"a":8,"b":2}},"conditions":["nonSeqFull","nonSeqPartial","seqNoFeedback","seqFeedback"],"classroomPairings":[["A","B"],["C","D"]],"coinWeights":[0.2,0.5,0.8],"subjectId":"A26SF9CTNKKBYB","assignmentId":"3S96KQ6I9NQ6TKFW8TGNOABYF1QDTP","hitId":"3FJ2RVH25ZSYKBA8MWMNC8NVPF629N","url":"https://gershmanlab.com/experiments/alicia/teaching/experiment/?hitId=3FJ2RVH25ZSYKBA8MWMNC8NVPF629N&workerId=A26SF9CTNKKBYB&assignmentId=3S96KQ6I9NQ6TKFW8TGNOABYF1QDTP&a=IK9S7&tp_a=IK9S7&b=3S96KQ6I9NQ6TKFW8TGNOABYF1QDTP&tp_b=3S96KQ6I9NQ6TKFW8TGNOABYF1QDTP&c=365717&tp_c=365717"},{"rt":2373,"stimulus":"\n                <p>Student's guess for coin weight: <b style=\"color:Tomato;\">0.57</b></p>\n                <p>You received a bonus of <b>$0</b>. Total bonus so far: <b>$1.61</b></b></p>\n                <p></p>\n                <p>Press any key to continue.</p>\n                ","response":" ","trial_type":"html-keyboard-response","trial_index":75,"time_elapsed":850449,"internal_node_id":"0.0-68.0","params":{"nStudents":24,"maxFlips":30,"completionMinutes":45,"basePay":8,"maxBonus":9,"perTrialBonus":0.5,"perTrialBonusThreshold":0.05,"exampleCost":0.01},"classroomParams":{"A":{"a":1,"b":4},"B":{"a":4,"b":1},"C":{"a":2,"b":8},"D":{"a":8,"b":2}},"conditions":["nonSeqFull","nonSeqPartial","seqNoFeedback","seqFeedback"],"classroomPairings":[["A","B"],["C","D"]],"coinWeights":[0.2,0.5,0.8],"subjectId":"A26SF9CTNKKBYB","assignmentId":"3S96KQ6I9NQ6TKFW8TGNOABYF1QDTP","hitId":"3FJ2RVH25ZSYKBA8MWMNC8NVPF629N","url":"https://gershmanlab.com/experiments/alicia/teaching/experiment/?hitId=3FJ2RVH25ZSYKBA8MWMNC8NVPF629N&workerId=A26SF9CTNKKBYB&assignmentId=3S96KQ6I9NQ6TKFW8TGNOABYF1QDTP&a=IK9S7&tp_a=IK9S7&b=3S96KQ6I9NQ6TKFW8TGNOABYF1QDTP&tp_b=3S96KQ6I9NQ6TKFW8TGNOABYF1QDTP&c=365717&tp_c=365717"},{"rt":null,"stimulus":"<div style=\"font-size:60px;\">Next student</div>","response":null,"trial_type":"html-keyboard-response","trial_index":76,"time_elapsed":852702,"internal_node_id":"0.0-69.0-0.0","params":{"nStudents":24,"maxFlips":30,"completionMinutes":45,"basePay":8,"maxBonus":9,"perTrialBonus":0.5,"perTrialBonusThreshold":0.05,"exampleCost":0.01},"classroomParams":{"A":{"a":1,"b":4},"B":{"a":4,"b":1},"C":{"a":2,"b":8},"D":{"a":8,"b":2}},"conditions":["nonSeqFull","nonSeqPartial","seqNoFeedback","seqFeedback"],"classroomPairings":[["A","B"],["C","D"]],"coinWeights":[0.2,0.5,0.8],"subjectId":"A26SF9CTNKKBYB","assignmentId":"3S96KQ6I9NQ6TKFW8TGNOABYF1QDTP","hitId":"3FJ2RVH25ZSYKBA8MWMNC8NVPF629N","url":"https://gershmanlab.com/experiments/alicia/teaching/experiment/?hitId=3FJ2RVH25ZSYKBA8MWMNC8NVPF629N&workerId=A26SF9CTNKKBYB&assignmentId=3S96KQ6I9NQ6TKFW8TGNOABYF1QDTP&a=IK9S7&tp_a=IK9S7&b=3S96KQ6I9NQ6TKFW8TGNOABYF1QDTP&tp_b=3S96KQ6I9NQ6TKFW8TGNOABYF1QDTP&c=365717&tp_c=365717"},{"rt":1794,"stimulus":"\n            <h4 style=\"color:Orange;\">Student 10</h4>\n            <h2>The weight of your coin is <b style=\"color:Tomato;\">0.8</b>.</h2>\n            <p>In this block, you will be giving <b>two</b> sets of examples to Student 10.</p>\n                <p>You will see the student's guess after the first set of examples. You will also receive feedback at the end of the block.</p>\n            <p>To earn the highest bonus, you will have to <b>take into consideration the student's guess</b> when you choose your second set of examples.</p>","response":0,"trial_type":"html-button-response","trial_index":77,"time_elapsed":854499,"internal_node_id":"0.0-70.0","params":{"nStudents":24,"maxFlips":30,"completionMinutes":45,"basePay":8,"maxBonus":9,"perTrialBonus":0.5,"perTrialBonusThreshold":0.05,"exampleCost":0.01},"classroomParams":{"A":{"a":1,"b":4},"B":{"a":4,"b":1},"C":{"a":2,"b":8},"D":{"a":8,"b":2}},"conditions":["nonSeqFull","nonSeqPartial","seqNoFeedback","seqFeedback"],"classroomPairings":[["A","B"],["C","D"]],"coinWeights":[0.2,0.5,0.8],"subjectId":"A26SF9CTNKKBYB","assignmentId":"3S96KQ6I9NQ6TKFW8TGNOABYF1QDTP","hitId":"3FJ2RVH25ZSYKBA8MWMNC8NVPF629N","url":"https://gershmanlab.com/experiments/alicia/teaching/experiment/?hitId=3FJ2RVH25ZSYKBA8MWMNC8NVPF629N&workerId=A26SF9CTNKKBYB&assignmentId=3S96KQ6I9NQ6TKFW8TGNOABYF1QDTP&a=IK9S7&tp_a=IK9S7&b=3S96KQ6I9NQ6TKFW8TGNOABYF1QDTP&tp_b=3S96KQ6I9NQ6TKFW8TGNOABYF1QDTP&c=365717&tp_c=365717"},{"rt":37438,"response":{"heads":"8","tails":"2"},"type":"response","condition":"seqFeedback","trueTheta":0.8,"classrooms":["C","D"],"studentTrueClassroom":"C","exampleSet":"first","trial_type":"survey-html-form","trial_index":78,"time_elapsed":891941,"internal_node_id":"0.0-71.0-0.0","params":{"nStudents":24,"maxFlips":30,"completionMinutes":45,"basePay":8,"maxBonus":9,"perTrialBonus":0.5,"perTrialBonusThreshold":0.05,"exampleCost":0.01},"classroomParams":{"A":{"a":1,"b":4},"B":{"a":4,"b":1},"C":{"a":2,"b":8},"D":{"a":8,"b":2}},"conditions":["nonSeqFull","nonSeqPartial","seqNoFeedback","seqFeedback"],"classroomPairings":[["A","B"],["C","D"]],"coinWeights":[0.2,0.5,0.8],"subjectId":"A26SF9CTNKKBYB","assignmentId":"3S96KQ6I9NQ6TKFW8TGNOABYF1QDTP","hitId":"3FJ2RVH25ZSYKBA8MWMNC8NVPF629N","url":"https://gershmanlab.com/experiments/alicia/teaching/experiment/?hitId=3FJ2RVH25ZSYKBA8MWMNC8NVPF629N&workerId=A26SF9CTNKKBYB&assignmentId=3S96KQ6I9NQ6TKFW8TGNOABYF1QDTP&a=IK9S7&tp_a=IK9S7&b=3S96KQ6I9NQ6TKFW8TGNOABYF1QDTP&tp_b=3S96KQ6I9NQ6TKFW8TGNOABYF1QDTP&c=365717&tp_c=365717","heads":8,"tails":2,"studentIndex":9,"studentTrueHypers":{"a":2,"b":8},"studentGuess":0.5,"delta":0.30000000000000004,"totalExamples":10,"bonusSoFar":1.61},{"rt":null,"stimulus":"Sending examples to student... ","response":null,"trial_type":"html-keyboard-response","trial_index":79,"time_elapsed":893194,"internal_node_id":"0.0-72.0","params":{"nStudents":24,"maxFlips":30,"completionMinutes":45,"basePay":8,"maxBonus":9,"perTrialBonus":0.5,"perTrialBonusThreshold":0.05,"exampleCost":0.01},"classroomParams":{"A":{"a":1,"b":4},"B":{"a":4,"b":1},"C":{"a":2,"b":8},"D":{"a":8,"b":2}},"conditions":["nonSeqFull","nonSeqPartial","seqNoFeedback","seqFeedback"],"classroomPairings":[["A","B"],["C","D"]],"coinWeights":[0.2,0.5,0.8],"subjectId":"A26SF9CTNKKBYB","assignmentId":"3S96KQ6I9NQ6TKFW8TGNOABYF1QDTP","hitId":"3FJ2RVH25ZSYKBA8MWMNC8NVPF629N","url":"https://gershmanlab.com/experiments/alicia/teaching/experiment/?hitId=3FJ2RVH25ZSYKBA8MWMNC8NVPF629N&workerId=A26SF9CTNKKBYB&assignmentId=3S96KQ6I9NQ6TKFW8TGNOABYF1QDTP&a=IK9S7&tp_a=IK9S7&b=3S96KQ6I9NQ6TKFW8TGNOABYF1QDTP&tp_b=3S96KQ6I9NQ6TKFW8TGNOABYF1QDTP&c=365717&tp_c=365717"},{"rt":null,"stimulus":"Examples sent to student! Waiting for student...","response":null,"trial_type":"html-keyboard-response","trial_index":80,"time_elapsed":897696,"internal_node_id":"0.0-73.0","params":{"nStudents":24,"maxFlips":30,"completionMinutes":45,"basePay":8,"maxBonus":9,"perTrialBonus":0.5,"perTrialBonusThreshold":0.05,"exampleCost":0.01},"classroomParams":{"A":{"a":1,"b":4},"B":{"a":4,"b":1},"C":{"a":2,"b":8},"D":{"a":8,"b":2}},"conditions":["nonSeqFull","nonSeqPartial","seqNoFeedback","seqFeedback"],"classroomPairings":[["A","B"],["C","D"]],"coinWeights":[0.2,0.5,0.8],"subjectId":"A26SF9CTNKKBYB","assignmentId":"3S96KQ6I9NQ6TKFW8TGNOABYF1QDTP","hitId":"3FJ2RVH25ZSYKBA8MWMNC8NVPF629N","url":"https://gershmanlab.com/experiments/alicia/teaching/experiment/?hitId=3FJ2RVH25ZSYKBA8MWMNC8NVPF629N&workerId=A26SF9CTNKKBYB&assignmentId=3S96KQ6I9NQ6TKFW8TGNOABYF1QDTP&a=IK9S7&tp_a=IK9S7&b=3S96KQ6I9NQ6TKFW8TGNOABYF1QDTP&tp_b=3S96KQ6I9NQ6TKFW8TGNOABYF1QDTP&c=365717&tp_c=365717"},{"rt":6721,"stimulus":"\n                <p>Student's guess for coin weight: <b style=\"color:Tomato;\">0.50</b></p>\n                <p></b></p>\n                <p>You will now send another set of examples to your student. <b>Remember to take your student's guess into consideration so that you can earn the highest bonus possible!</b> </p>\n                <p>Press any key to continue.</p>\n                ","response":" ","trial_type":"html-keyboard-response","trial_index":81,"time_elapsed":904419,"internal_node_id":"0.0-74.0","params":{"nStudents":24,"maxFlips":30,"completionMinutes":45,"basePay":8,"maxBonus":9,"perTrialBonus":0.5,"perTrialBonusThreshold":0.05,"exampleCost":0.01},"classroomParams":{"A":{"a":1,"b":4},"B":{"a":4,"b":1},"C":{"a":2,"b":8},"D":{"a":8,"b":2}},"conditions":["nonSeqFull","nonSeqPartial","seqNoFeedback","seqFeedback"],"classroomPairings":[["A","B"],["C","D"]],"coinWeights":[0.2,0.5,0.8],"subjectId":"A26SF9CTNKKBYB","assignmentId":"3S96KQ6I9NQ6TKFW8TGNOABYF1QDTP","hitId":"3FJ2RVH25ZSYKBA8MWMNC8NVPF629N","url":"https://gershmanlab.com/experiments/alicia/teaching/experiment/?hitId=3FJ2RVH25ZSYKBA8MWMNC8NVPF629N&workerId=A26SF9CTNKKBYB&assignmentId=3S96KQ6I9NQ6TKFW8TGNOABYF1QDTP&a=IK9S7&tp_a=IK9S7&b=3S96KQ6I9NQ6TKFW8TGNOABYF1QDTP&tp_b=3S96KQ6I9NQ6TKFW8TGNOABYF1QDTP&c=365717&tp_c=365717"},{"rt":26078,"response":{"heads":"14","tails":"2"},"type":"response","condition":"seqFeedback","trueTheta":0.8,"classrooms":["C","D"],"studentTrueClassroom":"C","exampleSet":"second","trial_type":"survey-html-form","trial_index":82,"time_elapsed":930501,"internal_node_id":"0.0-75.0-0.0","params":{"nStudents":24,"maxFlips":30,"completionMinutes":45,"basePay":8,"maxBonus":9,"perTrialBonus":0.5,"perTrialBonusThreshold":0.05,"exampleCost":0.01},"classroomParams":{"A":{"a":1,"b":4},"B":{"a":4,"b":1},"C":{"a":2,"b":8},"D":{"a":8,"b":2}},"conditions":["nonSeqFull","nonSeqPartial","seqNoFeedback","seqFeedback"],"classroomPairings":[["A","B"],["C","D"]],"coinWeights":[0.2,0.5,0.8],"subjectId":"A26SF9CTNKKBYB","assignmentId":"3S96KQ6I9NQ6TKFW8TGNOABYF1QDTP","hitId":"3FJ2RVH25ZSYKBA8MWMNC8NVPF629N","url":"https://gershmanlab.com/experiments/alicia/teaching/experiment/?hitId=3FJ2RVH25ZSYKBA8MWMNC8NVPF629N&workerId=A26SF9CTNKKBYB&assignmentId=3S96KQ6I9NQ6TKFW8TGNOABYF1QDTP&a=IK9S7&tp_a=IK9S7&b=3S96KQ6I9NQ6TKFW8TGNOABYF1QDTP&tp_b=3S96KQ6I9NQ6TKFW8TGNOABYF1QDTP&c=365717&tp_c=365717","firstResponseHeads":8,"firstResponseTails":2,"secondResponseHeads":14,"secondResponseTails":2,"totalHeads":22,"totalTails":4,"studentIndex":9,"studentTrueHypers":{"a":2,"b":8},"studentGuess":0.6666666666666666,"delta":0.13333333333333341,"bonus":0,"bonusSoFar":1.61,"totalExamples":26},{"rt":null,"stimulus":"Sending examples to student... ","response":null,"trial_type":"html-keyboard-response","trial_index":83,"time_elapsed":932004,"internal_node_id":"0.0-76.0","params":{"nStudents":24,"maxFlips":30,"completionMinutes":45,"basePay":8,"maxBonus":9,"perTrialBonus":0.5,"perTrialBonusThreshold":0.05,"exampleCost":0.01},"classroomParams":{"A":{"a":1,"b":4},"B":{"a":4,"b":1},"C":{"a":2,"b":8},"D":{"a":8,"b":2}},"conditions":["nonSeqFull","nonSeqPartial","seqNoFeedback","seqFeedback"],"classroomPairings":[["A","B"],["C","D"]],"coinWeights":[0.2,0.5,0.8],"subjectId":"A26SF9CTNKKBYB","assignmentId":"3S96KQ6I9NQ6TKFW8TGNOABYF1QDTP","hitId":"3FJ2RVH25ZSYKBA8MWMNC8NVPF629N","url":"https://gershmanlab.com/experiments/alicia/teaching/experiment/?hitId=3FJ2RVH25ZSYKBA8MWMNC8NVPF629N&workerId=A26SF9CTNKKBYB&assignmentId=3S96KQ6I9NQ6TKFW8TGNOABYF1QDTP&a=IK9S7&tp_a=IK9S7&b=3S96KQ6I9NQ6TKFW8TGNOABYF1QDTP&tp_b=3S96KQ6I9NQ6TKFW8TGNOABYF1QDTP&c=365717&tp_c=365717"},{"rt":null,"stimulus":"Examples sent to student! Waiting for student...","response":null,"trial_type":"html-keyboard-response","trial_index":84,"time_elapsed":937507,"internal_node_id":"0.0-77.0","params":{"nStudents":24,"maxFlips":30,"completionMinutes":45,"basePay":8,"maxBonus":9,"perTrialBonus":0.5,"perTrialBonusThreshold":0.05,"exampleCost":0.01},"classroomParams":{"A":{"a":1,"b":4},"B":{"a":4,"b":1},"C":{"a":2,"b":8},"D":{"a":8,"b":2}},"conditions":["nonSeqFull","nonSeqPartial","seqNoFeedback","seqFeedback"],"classroomPairings":[["A","B"],["C","D"]],"coinWeights":[0.2,0.5,0.8],"subjectId":"A26SF9CTNKKBYB","assignmentId":"3S96KQ6I9NQ6TKFW8TGNOABYF1QDTP","hitId":"3FJ2RVH25ZSYKBA8MWMNC8N