[{"rt":1789,"stimulus":"Welcome to the experiment. Press any key to begin.","response":"enter","trial_type":"html-keyboard-response","trial_index":0,"time_elapsed":1796,"internal_node_id":"0.0-0.0","params":{"nStudents":24,"maxFlips":30,"completionMinutes":45,"basePay":8,"maxBonus":9,"perTrialBonus":0.5,"perTrialBonusThreshold":0.05,"exampleCost":0.01},"classroomParams":{"A":{"a":1,"b":4},"B":{"a":4,"b":1},"C":{"a":2,"b":8},"D":{"a":8,"b":2}},"conditions":["nonSeqFull","nonSeqPartial","seqNoFeedback","seqFeedback"],"classroomPairings":[["A","B"],["C","D"]],"coinWeights":[0.2,0.5,0.8],"subjectId":"A2E0LU8V4EUX5C","assignmentId":"3G5W44VEU84A2LZ0GA33T4RZ9HZKGM","hitId":"3AQN9REUTF20OMGWRXYK787QVFOYDP","url":"https://gershmanlab.com/experiments/alicia/teaching/experiment/?hitId=3AQN9REUTF20OMGWRXYK787QVFOYDP&workerId=A2E0LU8V4EUX5C&assignmentId=3G5W44VEU84A2LZ0GA33T4RZ9HZKGM&a=E45G9&tp_a=E45G9&b=3G5W44VEU84A2LZ0GA33T4RZ9HZKGM&tp_b=3G5W44VEU84A2LZ0GA33T4RZ9HZKGM&c=365799&tp_c=365799"},{"rt":6046,"stimulus":"\n        <h3>Please read this consent agreement carefully before deciding whether to participate in this experiment.</h3>\n        <p><b>Purpose of the research:</b> To examine how people teach effectively.</p>\n        <p><b>What you will do in this research:</b> You will teach students the weights of different coins.</p>\n        <p><b>Time required:</b> This experiment will take 45 minutes to complete.</p>\n        <p><b>Risks:</b> There are no anticipated risks associated with participating in this study.             The effects of participating should be comparable to those you would experience from viewing a computer monitor             and using a mouse and keyboard for the duration of the experiment.</p>\n        <p><b>Benefits:</b> The study provides important information about the nature of teaching.</p>\n        <p><b>Compensation:</b> You will receive <b>$8</b> for completing the experiment and a performance bonus of up to <b>$9</b>.</p>\n        <p><b>Confidentiality:</b> Your participation in this study will remain confidential.             No personally identifiable information will be associated with your data.             Your de-identified data may be shared with other researchers and used in future projects.</p>\n        <p><b>Participation and withdrawal:</b> Your participation in this study is completely voluntary and             you may refuse to participate or you may choose to withdraw at any time without penalty or loss of\n            benefits to which you are otherwise entitled.</p>\n        <p><b>How to contact the researcher:</b> If you have questions or concerns about your participation            or payment, or want to request a summary of research findings, please contact\n            Alicia Chen, aliciachen@college.harvard.edu.</p>\n        <p><b>Whom to contact about your rights in this research:</b> For questions, concerns, suggestions,             or complaints that have not been or cannot be addressed by the researcher, or to report             research-related harm, please contact the Committee on the Use of Human Subjects in Research at Harvard University,             1414 Massachusetts Avenue, Second Floor, Cambridge, MA 02138. Phone: 617-496-2847. Email: cuhs@fas.harvard.edu.</p>\n        ","response":0,"trial_type":"html-button-response","trial_index":1,"time_elapsed":7844,"internal_node_id":"0.0-1.0","params":{"nStudents":24,"maxFlips":30,"completionMinutes":45,"basePay":8,"maxBonus":9,"perTrialBonus":0.5,"perTrialBonusThreshold":0.05,"exampleCost":0.01},"classroomParams":{"A":{"a":1,"b":4},"B":{"a":4,"b":1},"C":{"a":2,"b":8},"D":{"a":8,"b":2}},"conditions":["nonSeqFull","nonSeqPartial","seqNoFeedback","seqFeedback"],"classroomPairings":[["A","B"],["C","D"]],"coinWeights":[0.2,0.5,0.8],"subjectId":"A2E0LU8V4EUX5C","assignmentId":"3G5W44VEU84A2LZ0GA33T4RZ9HZKGM","hitId":"3AQN9REUTF20OMGWRXYK787QVFOYDP","url":"https://gershmanlab.com/experiments/alicia/teaching/experiment/?hitId=3AQN9REUTF20OMGWRXYK787QVFOYDP&workerId=A2E0LU8V4EUX5C&assignmentId=3G5W44VEU84A2LZ0GA33T4RZ9HZKGM&a=E45G9&tp_a=E45G9&b=3G5W44VEU84A2LZ0GA33T4RZ9HZKGM&tp_b=3G5W44VEU84A2LZ0GA33T4RZ9HZKGM&c=365799&tp_c=365799"},{"view_history":[{"page_index":0,"viewing_time":6047},{"page_index":1,"viewing_time":4152},{"page_index":2,"viewing_time":42856},{"page_index":3,"viewing_time":20728},{"page_index":4,"viewing_time":13952},{"page_index":5,"viewing_time":32128},{"page_index":6,"viewing_time":41352}],"rt":161215,"trial_type":"instructions","trial_index":2,"time_elapsed":169060,"internal_node_id":"0.0-2.0-0.0","params":{"nStudents":24,"maxFlips":30,"completionMinutes":45,"basePay":8,"maxBonus":9,"perTrialBonus":0.5,"perTrialBonusThreshold":0.05,"exampleCost":0.01},"classroomParams":{"A":{"a":1,"b":4},"B":{"a":4,"b":1},"C":{"a":2,"b":8},"D":{"a":8,"b":2}},"conditions":["nonSeqFull","nonSeqPartial","seqNoFeedback","seqFeedback"],"classroomPairings":[["A","B"],["C","D"]],"coinWeights":[0.2,0.5,0.8],"subjectId":"A2E0LU8V4EUX5C","assignmentId":"3G5W44VEU84A2LZ0GA33T4RZ9HZKGM","hitId":"3AQN9REUTF20OMGWRXYK787QVFOYDP","url":"https://gershmanlab.com/experiments/alicia/teaching/experiment/?hitId=3AQN9REUTF20OMGWRXYK787QVFOYDP&workerId=A2E0LU8V4EUX5C&assignmentId=3G5W44VEU84A2LZ0GA33T4RZ9HZKGM&a=E45G9&tp_a=E45G9&b=3G5W44VEU84A2LZ0GA33T4RZ9HZKGM&tp_b=3G5W44VEU84A2LZ0GA33T4RZ9HZKGM&c=365799&tp_c=365799"},{"rt":56606,"response":{"Q0":"Students in different classrooms will have seen a different number of heads and tails before seeing the examples you select for them.","Q1":"By <b>considering the student's classroom information</b> so that I can teach efficiently and accurately/helpfully at the same time (because each example I give to the student costs money!).","Q2":"The coin lands heads 90% of the time.","Q3":"No, I will teach a <b>new</b> student each time.","Q4":"The students are also on the same alien planet as you, where coins can be unfair.","Q5":"Based on both guesses."},"question_order":[2,3,1,4,0,5],"trial_type":"survey-multi-choice","trial_index":3,"time_elapsed":225668,"internal_node_id":"0.0-2.0-1.0","params":{"nStudents":24,"maxFlips":30,"completionMinutes":45,"basePay":8,"maxBonus":9,"perTrialBonus":0.5,"perTrialBonusThreshold":0.05,"exampleCost":0.01},"classroomParams":{"A":{"a":1,"b":4},"B":{"a":4,"b":1},"C":{"a":2,"b":8},"D":{"a":8,"b":2}},"conditions":["nonSeqFull","nonSeqPartial","seqNoFeedback","seqFeedback"],"classroomPairings":[["A","B"],["C","D"]],"coinWeights":[0.2,0.5,0.8],"subjectId":"A2E0LU8V4EUX5C","assignmentId":"3G5W44VEU84A2LZ0GA33T4RZ9HZKGM","hitId":"3AQN9REUTF20OMGWRXYK787QVFOYDP","url":"https://gershmanlab.com/experiments/alicia/teaching/experiment/?hitId=3AQN9REUTF20OMGWRXYK787QVFOYDP&workerId=A2E0LU8V4EUX5C&assignmentId=3G5W44VEU84A2LZ0GA33T4RZ9HZKGM&a=E45G9&tp_a=E45G9&b=3G5W44VEU84A2LZ0GA33T4RZ9HZKGM&tp_b=3G5W44VEU84A2LZ0GA33T4RZ9HZKGM&c=365799&tp_c=365799","pass":false},{"rt":2522,"stimulus":"Oops, you have missed question(s) on the comprehension check! We'll show you the instructions again.","response":0,"trial_type":"html-button-response","trial_index":4,"time_elapsed":228196,"internal_node_id":"0.0-2.0-2.0-0.0","params":{"nStudents":24,"maxFlips":30,"completionMinutes":45,"basePay":8,"maxBonus":9,"perTrialBonus":0.5,"perTrialBonusThreshold":0.05,"exampleCost":0.01},"classroomParams":{"A":{"a":1,"b":4},"B":{"a":4,"b":1},"C":{"a":2,"b":8},"D":{"a":8,"b":2}},"conditions":["nonSeqFull","nonSeqPartial","seqNoFeedback","seqFeedback"],"classroomPairings":[["A","B"],["C","D"]],"coinWeights":[0.2,0.5,0.8],"subjectId":"A2E0LU8V4EUX5C","assignmentId":"3G5W44VEU84A2LZ0GA33T4RZ9HZKGM","hitId":"3AQN9REUTF20OMGWRXYK787QVFOYDP","url":"https://gershmanlab.com/experiments/alicia/teaching/experiment/?hitId=3AQN9REUTF20OMGWRXYK787QVFOYDP&workerId=A2E0LU8V4EUX5C&assignmentId=3G5W44VEU84A2LZ0GA33T4RZ9HZKGM&a=E45G9&tp_a=E45G9&b=3G5W44VEU84A2LZ0GA33T4RZ9HZKGM&tp_b=3G5W44VEU84A2LZ0GA33T4RZ9HZKGM&c=365799&tp_c=365799"},{"view_history":[{"page_index":0,"viewing_time":2151},{"page_index":1,"viewing_time":2336},{"page_index":2,"viewing_time":13600},{"page_index":3,"viewing_time":8504},{"page_index":2,"viewing_time":2832},{"page_index":3,"viewing_time":2064},{"page_index":4,"viewing_time":6040},{"page_index":5,"viewing_time":13752},{"page_index":6,"viewing_time":9226}],"rt":60505,"trial_type":"instructions","trial_index":5,"time_elapsed":288701,"internal_node_id":"0.0-2.1-0.1","params":{"nStudents":24,"maxFlips":30,"completionMinutes":45,"basePay":8,"maxBonus":9,"perTrialBonus":0.5,"perTrialBonusThreshold":0.05,"exampleCost":0.01},"classroomParams":{"A":{"a":1,"b":4},"B":{"a":4,"b":1},"C":{"a":2,"b":8},"D":{"a":8,"b":2}},"conditions":["nonSeqFull","nonSeqPartial","seqNoFeedback","seqFeedback"],"classroomPairings":[["A","B"],["C","D"]],"coinWeights":[0.2,0.5,0.8],"subjectId":"A2E0LU8V4EUX5C","assignmentId":"3G5W44VEU84A2LZ0GA33T4RZ9HZKGM","hitId":"3AQN9REUTF20OMGWRXYK787QVFOYDP","url":"https://gershmanlab.com/experiments/alicia/teaching/experiment/?hitId=3AQN9REUTF20OMGWRXYK787QVFOYDP&workerId=A2E0LU8V4EUX5C&assignmentId=3G5W44VEU84A2LZ0GA33T4RZ9HZKGM&a=E45G9&tp_a=E45G9&b=3G5W44VEU84A2LZ0GA33T4RZ9HZKGM&tp_b=3G5W44VEU84A2LZ0GA33T4RZ9HZKGM&c=365799&tp_c=365799"},{"rt":53653,"response":{"Q0":"Students in different classrooms have seen a different proportion of fair and unfair coins before seeing the examples you select for them.","Q1":"By <b>considering the student's classroom information</b> so that I can teach efficiently and accurately/helpfully at the same time (because each example I give to the student costs money!).","Q2":"The coin lands heads 90% of the time.","Q3":"Yes, I might encounter the same student twice.","Q4":"The students are also on the same alien planet as you, where coins can be unfair.","Q5":"Based on the student's second (and final) guess."},"question_order":[2,3,5,0,4,1],"trial_type":"survey-multi-choice","trial_index":6,"time_elapsed":342356,"internal_node_id":"0.0-2.1-1.1","params":{"nStudents":24,"maxFlips":30,"completionMinutes":45,"basePay":8,"maxBonus":9,"perTrialBonus":0.5,"perTrialBonusThreshold":0.05,"exampleCost":0.01},"classroomParams":{"A":{"a":1,"b":4},"B":{"a":4,"b":1},"C":{"a":2,"b":8},"D":{"a":8,"b":2}},"conditions":["nonSeqFull","nonSeqPartial","seqNoFeedback","seqFeedback"],"classroomPairings":[["A","B"],["C","D"]],"coinWeights":[0.2,0.5,0.8],"subjectId":"A2E0LU8V4EUX5C","assignmentId":"3G5W44VEU84A2LZ0GA33T4RZ9HZKGM","hitId":"3AQN9REUTF20OMGWRXYK787QVFOYDP","url":"https://gershmanlab.com/experiments/alicia/teaching/experiment/?hitId=3AQN9REUTF20OMGWRXYK787QVFOYDP&workerId=A2E0LU8V4EUX5C&assignmentId=3G5W44VEU84A2LZ0GA33T4RZ9HZKGM&a=E45G9&tp_a=E45G9&b=3G5W44VEU84A2LZ0GA33T4RZ9HZKGM&tp_b=3G5W44VEU84A2LZ0GA33T4RZ9HZKGM&c=365799&tp_c=365799","pass":false},{"rt":2362,"stimulus":"Oops, you have missed question(s) on the comprehension check! We'll show you the instructions again.","response":0,"trial_type":"html-button-response","trial_index":7,"time_elapsed":344724,"internal_node_id":"0.0-2.1-2.1-0.1","params":{"nStudents":24,"maxFlips":30,"completionMinutes":45,"basePay":8,"maxBonus":9,"perTrialBonus":0.5,"perTrialBonusThreshold":0.05,"exampleCost":0.01},"classroomParams":{"A":{"a":1,"b":4},"B":{"a":4,"b":1},"C":{"a":2,"b":8},"D":{"a":8,"b":2}},"conditions":["nonSeqFull","nonSeqPartial","seqNoFeedback","seqFeedback"],"classroomPairings":[["A","B"],["C","D"]],"coinWeights":[0.2,0.5,0.8],"subjectId":"A2E0LU8V4EUX5C","assignmentId":"3G5W44VEU84A2LZ0GA33T4RZ9HZKGM","hitId":"3AQN9REUTF20OMGWRXYK787QVFOYDP","url":"https://gershmanlab.com/experiments/alicia/teaching/experiment/?hitId=3AQN9REUTF20OMGWRXYK787QVFOYDP&workerId=A2E0LU8V4EUX5C&assignmentId=3G5W44VEU84A2LZ0GA33T4RZ9HZKGM&a=E45G9&tp_a=E45G9&b=3G5W44VEU84A2LZ0GA33T4RZ9HZKGM&tp_b=3G5W44VEU84A2LZ0GA33T4RZ9HZKGM&c=365799&tp_c=365799"},{"view_history":[{"page_index":0,"viewing_time":2671},{"page_index":1,"viewing_time":2176},{"page_index":2,"viewing_time":11584},{"page_index":3,"viewing_time":8992},{"page_index":4,"viewing_time":13880},{"page_index":5,"viewing_time":15848},{"page_index":6,"viewing_time":11576}],"rt":66727,"trial_type":"instructions","trial_index":8,"time_elapsed":411452,"internal_node_id":"0.0-2.2-0.2","params":{"nStudents":24,"maxFlips":30,"completionMinutes":45,"basePay":8,"maxBonus":9,"perTrialBonus":0.5,"perTrialBonusThreshold":0.05,"exampleCost":0.01},"classroomParams":{"A":{"a":1,"b":4},"B":{"a":4,"b":1},"C":{"a":2,"b":8},"D":{"a":8,"b":2}},"conditions":["nonSeqFull","nonSeqPartial","seqNoFeedback","seqFeedback"],"classroomPairings":[["A","B"],["C","D"]],"coinWeights":[0.2,0.5,0.8],"subjectId":"A2E0LU8V4EUX5C","assignmentId":"3G5W44VEU84A2LZ0GA33T4RZ9HZKGM","hitId":"3AQN9REUTF20OMGWRXYK787QVFOYDP","url":"https://gershmanlab.com/experiments/alicia/teaching/experiment/?hitId=3AQN9REUTF20OMGWRXYK787QVFOYDP&workerId=A2E0LU8V4EUX5C&assignmentId=3G5W44VEU84A2LZ0GA33T4RZ9HZKGM&a=E45G9&tp_a=E45G9&b=3G5W44VEU84A2LZ0GA33T4RZ9HZKGM&tp_b=3G5W44VEU84A2LZ0GA33T4RZ9HZKGM&c=365799&tp_c=365799"},{"rt":48719,"response":{"Q0":"Students in different classrooms will have seen a different number of heads and tails before seeing the examples you select for them.","Q1":"By <b>considering the student's classroom information</b> so that I can teach efficiently and accurately/helpfully at the same time (because each example I give to the student costs money!).","Q2":"The coin lands heads 90% of the time.","Q3":"No, I will teach a <b>new</b> student each time.","Q4":"The students are also on the same alien planet as you, where coins can be unfair.","Q5":"Based on both guesses."},"question_order":[0,4,2,1,3,5],"trial_type":"survey-multi-choice","trial_index":9,"time_elapsed":460172,"internal_node_id":"0.0-2.2-1.2","params":{"nStudents":24,"maxFlips":30,"completionMinutes":45,"basePay":8,"maxBonus":9,"perTrialBonus":0.5,"perTrialBonusThreshold":0.05,"exampleCost":0.01},"classroomParams":{"A":{"a":1,"b":4},"B":{"a":4,"b":1},"C":{"a":2,"b":8},"D":{"a":8,"b":2}},"conditions":["nonSeqFull","nonSeqPartial","seqNoFeedback","seqFeedback"],"classroomPairings":[["A","B"],["C","D"]],"coinWeights":[0.2,0.5,0.8],"subjectId":"A2E0LU8V4EUX5C","assignmentId":"3G5W44VEU84A2LZ0GA33T4RZ9HZKGM","hitId":"3AQN9REUTF20OMGWRXYK787QVFOYDP","url":"https://gershmanlab.com/experiments/alicia/teaching/experiment/?hitId=3AQN9REUTF20OMGWRXYK787QVFOYDP&workerId=A2E0LU8V4EUX5C&assignmentId=3G5W44VEU84A2LZ0GA33T4RZ9HZKGM&a=E45G9&tp_a=E45G9&b=3G5W44VEU84A2LZ0GA33T4RZ9HZKGM&tp_b=3G5W44VEU84A2LZ0GA33T4RZ9HZKGM&c=365799&tp_c=365799","pass":false},{"rt":1498,"stimulus":"Oops, you have missed question(s) on the comprehension check! We'll show you the instructions again.","response":0,"trial_type":"html-button-response","trial_index":10,"time_elapsed":461676,"internal_node_id":"0.0-2.2-2.2-0.2","params":{"nStudents":24,"maxFlips":30,"completionMinutes":45,"basePay":8,"maxBonus":9,"perTrialBonus":0.5,"perTrialBonusThreshold":0.05,"exampleCost":0.01},"classroomParams":{"A":{"a":1,"b":4},"B":{"a":4,"b":1},"C":{"a":2,"b":8},"D":{"a":8,"b":2}},"conditions":["nonSeqFull","nonSeqPartial","seqNoFeedback","seqFeedback"],"classroomPairings":[["A","B"],["C","D"]],"coinWeights":[0.2,0.5,0.8],"subjectId":"A2E0LU8V4EUX5C","assignmentId":"3G5W44VEU84A2LZ0GA33T4RZ9HZKGM","hitId":"3AQN9REUTF20OMGWRXYK787QVFOYDP","url":"https://gershmanlab.com/experiments/alicia/teaching/experiment/?hitId=3AQN9REUTF20OMGWRXYK787QVFOYDP&workerId=A2E0LU8V4EUX5C&assignmentId=3G5W44VEU84A2LZ0GA33T4RZ9HZKGM&a=E45G9&tp_a=E45G9&b=3G5W44VEU84A2LZ0GA33T4RZ9HZKGM&tp_b=3G5W44VEU84A2LZ0GA33T4RZ9HZKGM&c=365799&tp_c=365799"},{"view_history":[{"page_index":0,"viewing_time":871},{"page_index":1,"viewing_time":240},{"page_index":2,"viewing_time":1336},{"page_index":3,"viewing_time":512},{"page_index":4,"viewing_time":1360},{"page_index":5,"viewing_time":1760},{"page_index":6,"viewing_time":6304}],"rt":12383,"trial_type":"instructions","trial_index":11,"time_elapsed":474060,"internal_node_id":"0.0-2.3-0.3","params":{"nStudents":24,"maxFlips":30,"completionMinutes":45,"basePay":8,"maxBonus":9,"perTrialBonus":0.5,"perTrialBonusThreshold":0.05,"exampleCost":0.01},"classroomParams":{"A":{"a":1,"b":4},"B":{"a":4,"b":1},"C":{"a":2,"b":8},"D":{"a":8,"b":2}},"conditions":["nonSeqFull","nonSeqPartial","seqNoFeedback","seqFeedback"],"classroomPairings":[["A","B"],["C","D"]],"coinWeights":[0.2,0.5,0.8],"subjectId":"A2E0LU8V4EUX5C","assignmentId":"3G5W44VEU84A2LZ0GA33T4RZ9HZKGM","hitId":"3AQN9REUTF20OMGWRXYK787QVFOYDP","url":"https://gershmanlab.com/experiments/alicia/teaching/experiment/?hitId=3AQN9REUTF20OMGWRXYK787QVFOYDP&workerId=A2E0LU8V4EUX5C&assignmentId=3G5W44VEU84A2LZ0GA33T4RZ9HZKGM&a=E45G9&tp_a=E45G9&b=3G5W44VEU84A2LZ0GA33T4RZ9HZKGM&tp_b=3G5W44VEU84A2LZ0GA33T4RZ9HZKGM&c=365799&tp_c=365799"},{"rt":21143,"response":{"Q0":"Students in different classrooms will have seen a different number of heads and tails before seeing the examples you select for them.","Q1":"By <b>considering the student's classroom information</b> so that I can teach efficiently and accurately/helpfully at the same time (because each example I give to the student costs money!).","Q2":"The coin lands heads 90% of the time.","Q3":"No, I will teach a <b>new</b> student each time.","Q4":"The students are also on the same alien planet as you, where coins can be unfair.","Q5":"Based on the student's second (and final) guess."},"question_order":[2,3,4,1,5,0],"trial_type":"survey-multi-choice","trial_index":12,"time_elapsed":495203,"internal_node_id":"0.0-2.3-1.3","params":{"nStudents":24,"maxFlips":30,"completionMinutes":45,"basePay":8,"maxBonus":9,"perTrialBonus":0.5,"perTrialBonusThreshold":0.05,"exampleCost":0.01},"classroomParams":{"A":{"a":1,"b":4},"B":{"a":4,"b":1},"C":{"a":2,"b":8},"D":{"a":8,"b":2}},"conditions":["nonSeqFull","nonSeqPartial","seqNoFeedback","seqFeedback"],"classroomPairings":[["A","B"],["C","D"]],"coinWeights":[0.2,0.5,0.8],"subjectId":"A2E0LU8V4EUX5C","assignmentId":"3G5W44VEU84A2LZ0GA33T4RZ9HZKGM","hitId":"3AQN9REUTF20OMGWRXYK787QVFOYDP","url":"https://gershmanlab.com/experiments/alicia/teaching/experiment/?hitId=3AQN9REUTF20OMGWRXYK787QVFOYDP&workerId=A2E0LU8V4EUX5C&assignmentId=3G5W44VEU84A2LZ0GA33T4RZ9HZKGM&a=E45G9&tp_a=E45G9&b=3G5W44VEU84A2LZ0GA33T4RZ9HZKGM&tp_b=3G5W44VEU84A2LZ0GA33T4RZ9HZKGM&c=365799&tp_c=365799","pass":true},{"rt":null,"stimulus":"<div style=\"font-size:30px;\">Congrats on passing the comprehension quiz! The experiment will begin in a few seconds.</div>","response":null,"trial_type":"html-keyboard-response","trial_index":13,"time_elapsed":498210,"internal_node_id":"0.0-3.0","params":{"nStudents":24,"maxFlips":30,"completionMinutes":45,"basePay":8,"maxBonus":9,"perTrialBonus":0.5,"perTrialBonusThreshold":0.05,"exampleCost":0.01},"classroomParams":{"A":{"a":1,"b":4},"B":{"a":4,"b":1},"C":{"a":2,"b":8},"D":{"a":8,"b":2}},"conditions":["nonSeqFull","nonSeqPartial","seqNoFeedback","seqFeedback"],"classroomPairings":[["A","B"],["C","D"]],"coinWeights":[0.2,0.5,0.8],"subjectId":"A2E0LU8V4EUX5C","assignmentId":"3G5W44VEU84A2LZ0GA33T4RZ9HZKGM","hitId":"3AQN9REUTF20OMGWRXYK787QVFOYDP","url":"https://gershmanlab.com/experiments/alicia/teaching/experiment/?hitId=3AQN9REUTF20OMGWRXYK787QVFOYDP&workerId=A2E0LU8V4EUX5C&assignmentId=3G5W44VEU84A2LZ0GA33T4RZ9HZKGM&a=E45G9&tp_a=E45G9&b=3G5W44VEU84A2LZ0GA33T4RZ9HZKGM&tp_b=3G5W44VEU84A2LZ0GA33T4RZ9HZKGM&c=365799&tp_c=365799"},{"rt":null,"stimulus":"<div style=\"font-size:50px;\">First student</div>","response":null,"trial_type":"html-keyboard-response","trial_index":14,"time_elapsed":501213,"internal_node_id":"0.0-4.0","params":{"nStudents":24,"maxFlips":30,"completionMinutes":45,"basePay":8,"maxBonus":9,"perTrialBonus":0.5,"perTrialBonusThreshold":0.05,"exampleCost":0.01},"classroomParams":{"A":{"a":1,"b":4},"B":{"a":4,"b":1},"C":{"a":2,"b":8},"D":{"a":8,"b":2}},"conditions":["nonSeqFull","nonSeqPartial","seqNoFeedback","seqFeedback"],"classroomPairings":[["A","B"],["C","D"]],"coinWeights":[0.2,0.5,0.8],"subjectId":"A2E0LU8V4EUX5C","assignmentId":"3G5W44VEU84A2LZ0GA33T4RZ9HZKGM","hitId":"3AQN9REUTF20OMGWRXYK787QVFOYDP","url":"https://gershmanlab.com/experiments/alicia/teaching/experiment/?hitId=3AQN9REUTF20OMGWRXYK787QVFOYDP&workerId=A2E0LU8V4EUX5C&assignmentId=3G5W44VEU84A2LZ0GA33T4RZ9HZKGM&a=E45G9&tp_a=E45G9&b=3G5W44VEU84A2LZ0GA33T4RZ9HZKGM&tp_b=3G5W44VEU84A2LZ0GA33T4RZ9HZKGM&c=365799&tp_c=365799"},{"rt":4516,"stimulus":"\n            <h4 style=\"color:Orange;\">Student 1</h4>\n            <h2>The weight of your coin is <b style=\"color:Tomato;\">0.5</b>.</h2>\n            <p>In this block, you will be giving <b>two</b> sets of examples to Student 1.</p>\n                <p>You will see the student's guess after the first set of examples. You will also receive feedback at the end of the block.</p>\n            <p>To earn the highest bonus, you will have to <b>take into consideration the student's guess</b> when you choose your second set of examples.</p>","response":0,"trial_type":"html-button-response","trial_index":15,"time_elapsed":505731,"internal_node_id":"0.0-5.0","params":{"nStudents":24,"maxFlips":30,"completionMinutes":45,"basePay":8,"maxBonus":9,"perTrialBonus":0.5,"perTrialBonusThreshold":0.05,"exampleCost":0.01},"classroomParams":{"A":{"a":1,"b":4},"B":{"a":4,"b":1},"C":{"a":2,"b":8},"D":{"a":8,"b":2}},"conditions":["nonSeqFull","nonSeqPartial","seqNoFeedback","seqFeedback"],"classroomPairings":[["A","B"],["C","D"]],"coinWeights":[0.2,0.5,0.8],"subjectId":"A2E0LU8V4EUX5C","assignmentId":"3G5W44VEU84A2LZ0GA33T4RZ9HZKGM","hitId":"3AQN9REUTF20OMGWRXYK787QVFOYDP","url":"https://gershmanlab.com/experiments/alicia/teaching/experiment/?hitId=3AQN9REUTF20OMGWRXYK787QVFOYDP&workerId=A2E0LU8V4EUX5C&assignmentId=3G5W44VEU84A2LZ0GA33T4RZ9HZKGM&a=E45G9&tp_a=E45G9&b=3G5W44VEU84A2LZ0GA33T4RZ9HZKGM&tp_b=3G5W44VEU84A2LZ0GA33T4RZ9HZKGM&c=365799&tp_c=365799"},{"rt":28887,"response":{"heads":"5","tails":"5"},"type":"response","condition":"seqFeedback","trueTheta":0.5,"classrooms":["A","B"],"studentTrueClassroom":"A","exampleSet":"first","trial_type":"survey-html-form","trial_index":16,"time_elapsed":534619,"internal_node_id":"0.0-6.0-0.0","params":{"nStudents":24,"maxFlips":30,"completionMinutes":45,"basePay":8,"maxBonus":9,"perTrialBonus":0.5,"perTrialBonusThreshold":0.05,"exampleCost":0.01},"classroomParams":{"A":{"a":1,"b":4},"B":{"a":4,"b":1},"C":{"a":2,"b":8},"D":{"a":8,"b":2}},"conditions":["nonSeqFull","nonSeqPartial","seqNoFeedback","seqFeedback"],"classroomPairings":[["A","B"],["C","D"]],"coinWeights":[0.2,0.5,0.8],"subjectId":"A2E0LU8V4EUX5C","assignmentId":"3G5W44VEU84A2LZ0GA33T4RZ9HZKGM","hitId":"3AQN9REUTF20OMGWRXYK787QVFOYDP","url":"https://gershmanlab.com/experiments/alicia/teaching/experiment/?hitId=3AQN9REUTF20OMGWRXYK787QVFOYDP&workerId=A2E0LU8V4EUX5C&assignmentId=3G5W44VEU84A2LZ0GA33T4RZ9HZKGM&a=E45G9&tp_a=E45G9&b=3G5W44VEU84A2LZ0GA33T4RZ9HZKGM&tp_b=3G5W44VEU84A2LZ0GA33T4RZ9HZKGM&c=365799&tp_c=365799","heads":5,"tails":5,"studentIndex":0,"studentTrueHypers":{"a":1,"b":4},"studentGuess":0.4,"delta":0.09999999999999998,"totalExamples":10,"bonusSoFar":0},{"rt":null,"stimulus":"Sending examples to student... ","response":null,"trial_type":"html-keyboard-response","trial_index":17,"time_elapsed":536371,"internal_node_id":"0.0-7.0","params":{"nStudents":24,"maxFlips":30,"completionMinutes":45,"basePay":8,"maxBonus":9,"perTrialBonus":0.5,"perTrialBonusThreshold":0.05,"exampleCost":0.01},"classroomParams":{"A":{"a":1,"b":4},"B":{"a":4,"b":1},"C":{"a":2,"b":8},"D":{"a":8,"b":2}},"conditions":["nonSeqFull","nonSeqPartial","seqNoFeedback","seqFeedback"],"classroomPairings":[["A","B"],["C","D"]],"coinWeights":[0.2,0.5,0.8],"subjectId":"A2E0LU8V4EUX5C","assignmentId":"3G5W44VEU84A2LZ0GA33T4RZ9HZKGM","hitId":"3AQN9REUTF20OMGWRXYK787QVFOYDP","url":"https://gershmanlab.com/experiments/alicia/teaching/experiment/?hitId=3AQN9REUTF20OMGWRXYK787QVFOYDP&workerId=A2E0LU8V4EUX5C&assignmentId=3G5W44VEU84A2LZ0GA33T4RZ9HZKGM&a=E45G9&tp_a=E45G9&b=3G5W44VEU84A2LZ0GA33T4RZ9HZKGM&tp_b=3G5W44VEU84A2LZ0GA33T4RZ9HZKGM&c=365799&tp_c=365799"},{"rt":null,"stimulus":"Examples sent to student! Waiting for student...","response":null,"trial_type":"html-keyboard-response","trial_index":18,"time_elapsed":540372,"internal_node_id":"0.0-8.0","params":{"nStudents":24,"maxFlips":30,"completionMinutes":45,"basePay":8,"maxBonus":9,"perTrialBonus":0.5,"perTrialBonusThreshold":0.05,"exampleCost":0.01},"classroomParams":{"A":{"a":1,"b":4},"B":{"a":4,"b":1},"C":{"a":2,"b":8},"D":{"a":8,"b":2}},"conditions":["nonSeqFull","nonSeqPartial","seqNoFeedback","seqFeedback"],"classroomPairings":[["A","B"],["C","D"]],"coinWeights":[0.2,0.5,0.8],"subjectId":"A2E0LU8V4EUX5C","assignmentId":"3G5W44VEU84A2LZ0GA33T4RZ9HZKGM","hitId":"3AQN9REUTF20OMGWRXYK787QVFOYDP","url":"https://gershmanlab.com/experiments/alicia/teaching/experiment/?hitId=3AQN9REUTF20OMGWRXYK787QVFOYDP&workerId=A2E0LU8V4EUX5C&assignmentId=3G5W44VEU84A2LZ0GA33T4RZ9HZKGM&a=E45G9&tp_a=E45G9&b=3G5W44VEU84A2LZ0GA33T4RZ9HZKGM&tp_b=3G5W44VEU84A2LZ0GA33T4RZ9HZKGM&c=365799&tp_c=365799"},{"rt":7071,"stimulus":"\n                <p>Student's guess for coin weight: <b style=\"color:Tomato;\">0.40</b></p>\n                <p></b></p>\n                <p>You will now send another set of examples to your student. <b>Remember to take your student's guess into consideration so that you can earn the highest bonus possible!</b> </p>\n                <p>Press any key to continue.</p>\n                ","response":"enter","trial_type":"html-keyboard-response","trial_index":19,"time_elapsed":547444,"internal_node_id":"0.0-9.0","params":{"nStudents":24,"maxFlips":30,"completionMinutes":45,"basePay":8,"maxBonus":9,"perTrialBonus":0.5,"perTrialBonusThreshold":0.05,"exampleCost":0.01},"classroomParams":{"A":{"a":1,"b":4},"B":{"a":4,"b":1},"C":{"a":2,"b":8},"D":{"a":8,"b":2}},"conditions":["nonSeqFull","nonSeqPartial","seqNoFeedback","seqFeedback"],"classroomPairings":[["A","B"],["C","D"]],"coinWeights":[0.2,0.5,0.8],"subjectId":"A2E0LU8V4EUX5C","assignmentId":"3G5W44VEU84A2LZ0GA33T4RZ9HZKGM","hitId":"3AQN9REUTF20OMGWRXYK787QVFOYDP","url":"https://gershmanlab.com/experiments/alicia/teaching/experiment/?hitId=3AQN9REUTF20OMGWRXYK787QVFOYDP&workerId=A2E0LU8V4EUX5C&assignmentId=3G5W44VEU84A2LZ0GA33T4RZ9HZKGM&a=E45G9&tp_a=E45G9&b=3G5W44VEU84A2LZ0GA33T4RZ9HZKGM&tp_b=3G5W44VEU84A2LZ0GA33T4RZ9HZKGM&c=365799&tp_c=365799"},{"rt":8039,"response":{"heads":"6","tails":"2"},"type":"response","condition":"seqFeedback","trueTheta":0.5,"classrooms":["A","B"],"studentTrueClassroom":"A","exampleSet":"second","trial_type":"survey-html-form","trial_index":20,"time_elapsed":555483,"internal_node_id":"0.0-10.0-0.0","params":{"nStudents":24,"maxFlips":30,"completionMinutes":45,"basePay":8,"maxBonus":9,"perTrialBonus":0.5,"perTrialBonusThreshold":0.05,"exampleCost":0.01},"classroomParams":{"A":{"a":1,"b":4},"B":{"a":4,"b":1},"C":{"a":2,"b":8},"D":{"a":8,"b":2}},"conditions":["nonSeqFull","nonSeqPartial","seqNoFeedback","seqFeedback"],"classroomPairings":[["A","B"],["C","D"]],"coinWeights":[0.2,0.5,0.8],"subjectId":"A2E0LU8V4EUX5C","assignmentId":"3G5W44VEU84A2LZ0GA33T4RZ9HZKGM","hitId":"3AQN9REUTF20OMGWRXYK787QVFOYDP","url":"https://gershmanlab.com/experiments/alicia/teaching/experiment/?hitId=3AQN9REUTF20OMGWRXYK787QVFOYDP&workerId=A2E0LU8V4EUX5C&assignmentId=3G5W44VEU84A2LZ0GA33T4RZ9HZKGM&a=E45G9&tp_a=E45G9&b=3G5W44VEU84A2LZ0GA33T4RZ9HZKGM&tp_b=3G5W44VEU84A2LZ0GA33T4RZ9HZKGM&c=365799&tp_c=365799","firstResponseHeads":5,"firstResponseTails":5,"secondResponseHeads":6,"secondResponseTails":2,"totalHeads":11,"totalTails":7,"studentIndex":0,"studentTrueHypers":{"a":1,"b":4},"studentGuess":0.5217391304347826,"delta":0.021739130434782594,"bonus":0.32,"bonusSoFar":0.32,"totalExamples":18},{"rt":null,"stimulus":"Sending examples to student... ","response":null,"trial_type":"html-keyboard-response","trial_index":21,"time_elapsed":556985,"internal_node_id":"0.0-11.0","params":{"nStudents":24,"maxFlips":30,"completionMinutes":45,"basePay":8,"maxBonus":9,"perTrialBonus":0.5,"perTrialBonusThreshold":0.05,"exampleCost":0.01},"classroomParams":{"A":{"a":1,"b":4},"B":{"a":4,"b":1},"C":{"a":2,"b":8},"D":{"a":8,"b":2}},"conditions":["nonSeqFull","nonSeqPartial","seqNoFeedback","seqFeedback"],"classroomPairings":[["A","B"],["C","D"]],"coinWeights":[0.2,0.5,0.8],"subjectId":"A2E0LU8V4EUX5C","assignmentId":"3G5W44VEU84A2LZ0GA33T4RZ9HZKGM","hitId":"3AQN9REUTF20OMGWRXYK787QVFOYDP","url":"https://gershmanlab.com/experiments/alicia/teaching/experiment/?hitId=3AQN9REUTF20OMGWRXYK787QVFOYDP&workerId=A2E0LU8V4EUX5C&assignmentId=3G5W44VEU84A2LZ0GA33T4RZ9HZKGM&a=E45G9&tp_a=E45G9&b=3G5W44VEU84A2LZ0GA33T4RZ9HZKGM&tp_b=3G5W44VEU84A2LZ0GA33T4RZ9HZKGM&c=365799&tp_c=365799"},{"rt":null,"stimulus":"Examples sent to student! Waiting for student...","response":null,"trial_type":"html-keyboard-response","trial_index":22,"time_elapsed":562488,"internal_node_id":"0.0-12.0","params":{"nStudents":24,"maxFlips":30,"completionMinutes":45,"basePay":8,"maxBonus":9,"perTrialBonus":0.5,"perTrialBonusThreshold":0.05,"exampleCost":0.01},"classroomParams":{"A":{"a":1,"b":4},"B":{"a":4,"b":1},"C":{"a":2,"b":8},"D":{"a":8,"b":2}},"conditions":["nonSeqFull","nonSeqPartial","seqNoFeedback","seqFeedback"],"classroomPairings":[["A","B"],["C","D"]],"coinWeights":[0.2,0.5,0.8],"subjectId":"A2E0LU8V4EUX5C","assignmentId":"3G5W44VEU84A2LZ0GA33T4RZ9HZKGM","hitId":"3AQN9REUTF20OMGWRXYK787QVFOYDP","url":"https://gershmanlab.com/experiments/alicia/teaching/experiment/?hitId=3AQN9REUTF20OMGWRXYK787QVFOYDP&workerId=A2E0LU8V4EUX5C&assignmentId=3G5W44VEU84A2LZ0GA33T4RZ9HZKGM&a=E45G9&tp_a=E45G9&b=3G5W44VEU84A2LZ0GA33T4RZ9HZKGM&tp_b=3G5W44VEU84A2LZ0GA33T4RZ9HZKGM&c=365799&tp_c=365799"},{"rt":3194,"stimulus":"\n                <p>Student 1's first guess for coin weight: <b style=\"color:Tomato\";>0.40</b></p>\n                <p>Student 1's second guess for coin weight: <b style=\"color:Tomato\";>0.52</b></p>\n                <p>You received a bonus of <b>$0.32</b> based on the student's second guess.</p>\n                <p>Total bonus so far: <b>$0.32</b></p>\n                <p>Press any key to continue.</p>\n                ","response":"j","trial_type":"html-keyboard-response","trial_index":23,"time_elapsed":565684,"internal_node_id":"0.0-13.0","params":{"nStudents":24,"maxFlips":30,"completionMinutes":45,"basePay":8,"maxBonus":9,"perTrialBonus":0.5,"perTrialBonusThreshold":0.05,"exampleCost":0.01},"classroomParams":{"A":{"a":1,"b":4},"B":{"a":4,"b":1},"C":{"a":2,"b":8},"D":{"a":8,"b":2}},"conditions":["nonSeqFull","nonSeqPartial","seqNoFeedback","seqFeedback"],"classroomPairings":[["A","B"],["C","D"]],"coinWeights":[0.2,0.5,0.8],"subjectId":"A2E0LU8V4EUX5C","assignmentId":"3G5W44VEU84A2LZ0GA33T4RZ9HZKGM","hitId":"3AQN9REUTF20OMGWRXYK787QVFOYDP","url":"https://gershmanlab.com/experiments/alicia/teaching/experiment/?hitId=3AQN9REUTF20OMGWRXYK787QVFOYDP&workerId=A2E0LU8V4EUX5C&assignmentId=3G5W44VEU84A2LZ0GA33T4RZ9HZKGM&a=E45G9&tp_a=E45G9&b=3G5W44VEU84A2LZ0GA33T4RZ9HZKGM&tp_b=3G5W44VEU84A2LZ0GA33T4RZ9HZKGM&c=365799&tp_c=365799"},{"rt":null,"stimulus":"<div style=\"font-size:60px;\">Next student</div>","response":null,"trial_type":"html-keyboard-response","trial_index":24,"time_elapsed":568186,"internal_node_id":"0.0-14.0-0.0","params":{"nStudents":24,"maxFlips":30,"completionMinutes":45,"basePay":8,"maxBonus":9,"perTrialBonus":0.5,"perTrialBonusThreshold":0.05,"exampleCost":0.01},"classroomParams":{"A":{"a":1,"b":4},"B":{"a":4,"b":1},"C":{"a":2,"b":8},"D":{"a":8,"b":2}},"conditions":["nonSeqFull","nonSeqPartial","seqNoFeedback","seqFeedback"],"classroomPairings":[["A","B"],["C","D"]],"coinWeights":[0.2,0.5,0.8],"subjectId":"A2E0LU8V4EUX5C","assignmentId":"3G5W44VEU84A2LZ0GA33T4RZ9HZKGM","hitId":"3AQN9REUTF20OMGWRXYK787QVFOYDP","url":"https://gershmanlab.com/experiments/alicia/teaching/experiment/?hitId=3AQN9REUTF20OMGWRXYK787QVFOYDP&workerId=A2E0LU8V4EUX5C&assignmentId=3G5W44VEU84A2LZ0GA33T4RZ9HZKGM&a=E45G9&tp_a=E45G9&b=3G5W44VEU84A2LZ0GA33T4RZ9HZKGM&tp_b=3G5W44VEU84A2LZ0GA33T4RZ9HZKGM&c=365799&tp_c=365799"},{"rt":3343,"stimulus":"\n            <h4 style=\"color:Orange;\">Student 2</h4>\n            <h2>The weight of your coin is <b style=\"color:Tomato;\">0.2</b>.</h2>\n            <p>In this block, you will be giving <b>two</b> sets of examples to Student 2.</p>\n                <p>You will see the student's guess after the first set of examples. You will also receive feedback at the end of the block.</p>\n            <p>To earn the highest bonus, you will have to <b>take into consideration the student's guess</b> when you choose your second set of examples.</p>","response":0,"trial_type":"html-button-response","trial_index":25,"time_elapsed":571531,"internal_node_id":"0.0-15.0","params":{"nStudents":24,"maxFlips":30,"completionMinutes":45,"basePay":8,"maxBonus":9,"perTrialBonus":0.5,"perTrialBonusThreshold":0.05,"exampleCost":0.01},"classroomParams":{"A":{"a":1,"b":4},"B":{"a":4,"b":1},"C":{"a":2,"b":8},"D":{"a":8,"b":2}},"conditions":["nonSeqFull","nonSeqPartial","seqNoFeedback","seqFeedback"],"classroomPairings":[["A","B"],["C","D"]],"coinWeights":[0.2,0.5,0.8],"subjectId":"A2E0LU8V4EUX5C","assignmentId":"3G5W44VEU84A2LZ0GA33T4RZ9HZKGM","hitId":"3AQN9REUTF20OMGWRXYK787QVFOYDP","url":"https://gershmanlab.com/experiments/alicia/teaching/experiment/?hitId=3AQN9REUTF20OMGWRXYK787QVFOYDP&workerId=A2E0LU8V4EUX5C&assignmentId=3G5W44VEU84A2LZ0GA33T4RZ9HZKGM&a=E45G9&tp_a=E45G9&b=3G5W44VEU84A2LZ0GA33T4RZ9HZKGM&tp_b=3G5W44VEU84A2LZ0GA33T4RZ9HZKGM&c=365799&tp_c=365799"},{"rt":8352,"response":{"heads":"1","tails":"4"},"type":"response","condition":"seqFeedback","trueTheta":0.2,"classrooms":["C","D"],"studentTrueClassroom":"D","exampleSet":"first","trial_type":"survey-html-form","trial_index":26,"time_elapsed":579883,"internal_node_id":"0.0-16.0-0.0","params":{"nStudents":24,"maxFlips":30,"completionMinutes":45,"basePay":8,"maxBonus":9,"perTrialBonus":0.5,"perTrialBonusThreshold":0.05,"exampleCost":0.01},"classroomParams":{"A":{"a":1,"b":4},"B":{"a":4,"b":1},"C":{"a":2,"b":8},"D":{"a":8,"b":2}},"conditions":["nonSeqFull","nonSeqPartial","seqNoFeedback","seqFeedback"],"classroomPairings":[["A","B"],["C","D"]],"coinWeights":[0.2,0.5,0.8],"subjectId":"A2E0LU8V4EUX5C","assignmentId":"3G5W44VEU84A2LZ0GA33T4RZ9HZKGM","hitId":"3AQN9REUTF20OMGWRXYK787QVFOYDP","url":"https://gershmanlab.com/experiments/alicia/teaching/experiment/?hitId=3AQN9REUTF20OMGWRXYK787QVFOYDP&workerId=A2E0LU8V4EUX5C&assignmentId=3G5W44VEU84A2LZ0GA33T4RZ9HZKGM&a=E45G9&tp_a=E45G9&b=3G5W44VEU84A2LZ0GA33T4RZ9HZKGM&tp_b=3G5W44VEU84A2LZ0GA33T4RZ9HZKGM&c=365799&tp_c=365799","heads":1,"tails":4,"studentIndex":1,"studentTrueHypers":{"a":8,"b":2},"studentGuess":0.6,"delta":0.39999999999999997,"totalExamples":5,"bonusSoFar":0.32},{"rt":null,"stimulus":"Sending examples to student... ","response":null,"trial_type":"html-keyboard-response","trial_index":27,"time_elapsed":581884,"internal_node_id":"0.0-17.0","params":{"nStudents":24,"maxFlips":30,"completionMinutes":45,"basePay":8,"maxBonus":9,"perTrialBonus":0.5,"perTrialBonusThreshold":0.05,"exampleCost":0.01},"classroomParams":{"A":{"a":1,"b":4},"B":{"a":4,"b":1},"C":{"a":2,"b":8},"D":{"a":8,"b":2}},"conditions":["nonSeqFull","nonSeqPartial","seqNoFeedback","seqFeedback"],"classroomPairings":[["A","B"],["C","D"]],"coinWeights":[0.2,0.5,0.8],"subjectId":"A2E0LU8V4EUX5C","assignmentId":"3G5W44VEU84A2LZ0GA33T4RZ9HZKGM","hitId":"3AQN9REUTF20OMGWRXYK787QVFOYDP","url":"https://gershmanlab.com/experiments/alicia/teaching/experiment/?hitId=3AQN9REUTF20OMGWRXYK787QVFOYDP&workerId=A2E0LU8V4EUX5C&assignmentId=3G5W44VEU84A2LZ0GA33T4RZ9HZKGM&a=E45G9&tp_a=E45G9&b=3G5W44VEU84A2LZ0GA33T4RZ9HZKGM&tp_b=3G5W44VEU84A2LZ0GA33T4RZ9HZKGM&c=365799&tp_c=365799"},{"rt":null,"stimulus":"Examples sent to student! Waiting for student...","response":null,"trial_type":"html-keyboard-response","trial_index":28,"time_elapsed":585887,"internal_node_id":"0.0-18.0","params":{"nStudents":24,"maxFlips":30,"completionMinutes":45,"basePay":8,"maxBonus":9,"perTrialBonus":0.5,"perTrialBonusThreshold":0.05,"exampleCost":0.01},"classroomParams":{"A":{"a":1,"b":4},"B":{"a":4,"b":1},"C":{"a":2,"b":8},"D":{"a":8,"b":2}},"conditions":["nonSeqFull","nonSeqPartial","seqNoFeedback","seqFeedback"],"classroomPairings":[["A","B"],["C","D"]],"coinWeights":[0.2,0.5,0.8],"subjectId":"A2E0LU8V4EUX5C","assignmentId":"3G5W44VEU84A2LZ0GA33T4RZ9HZKGM","hitId":"3AQN9REUTF20OMGWRXYK787QVFOYDP","url":"https://gershmanlab.com/experiments/alicia/teaching/experiment/?hitId=3AQN9REUTF20OMGWRXYK787QVFOYDP&workerId=A2E0LU8V4EUX5C&assignmentId=3G5W44VEU84A2LZ0GA33T4RZ9HZKGM&a=E45G9&tp_a=E45G9&b=3G5W44VEU84A2LZ0GA33T4RZ9HZKGM&tp_b=3G5W44VEU84A2LZ0GA33T4RZ9HZKGM&c=365799&tp_c=365799"},{"rt":2253,"stimulus":"\n                <p>Student's guess for coin weight: <b style=\"color:Tomato;\">0.60</b></p>\n                <p></b></p>\n                <p>You will now send another set of examples to your student. <b>Remember to take your student's guess into consideration so that you can earn the highest bonus possible!</b> </p>\n                <p>Press any key to continue.</p>\n                ","response":"h","trial_type":"html-keyboard-response","trial_index":29,"time_elapsed":588142,"internal_node_id":"0.0-19.0","params":{"nStudents":24,"maxFlips":30,"completionMinutes":45,"basePay":8,"maxBonus":9,"perTrialBonus":0.5,"perTrialBonusThreshold":0.05,"exampleCost":0.01},"classroomParams":{"A":{"a":1,"b":4},"B":{"a":4,"b":1},"C":{"a":2,"b":8},"D":{"a":8,"b":2}},"conditions":["nonSeqFull","nonSeqPartial","seqNoFeedback","seqFeedback"],"classroomPairings":[["A","B"],["C","D"]],"coinWeights":[0.2,0.5,0.8],"subjectId":"A2E0LU8V4EUX5C","assignmentId":"3G5W44VEU84A2LZ0GA33T4RZ9HZKGM","hitId":"3AQN9REUTF20OMGWRXYK787QVFOYDP","url":"https://gershmanlab.com/experiments/alicia/teaching/experiment/?hitId=3AQN9REUTF20OMGWRXYK787QVFOYDP&workerId=A2E0LU8V4EUX5C&assignmentId=3G5W44VEU84A2LZ0GA33T4RZ9HZKGM&a=E45G9&tp_a=E45G9&b=3G5W44VEU84A2LZ0GA33T4RZ9HZKGM&tp_b=3G5W44VEU84A2LZ0GA33T4RZ9HZKGM&c=365799&tp_c=365799"},{"rt":4235,"response":{"heads":"1","tails":"5"},"type":"response","condition":"seqFeedback","trueTheta":0.2,"classrooms":["C","D"],"studentTrueClassroom":"D","exampleSet":"second","trial_type":"survey-html-form","trial_index":30,"time_elapsed":592379,"internal_node_id":"0.0-20.0-0.0","params":{"nStudents":24,"maxFlips":30,"completionMinutes":45,"basePay":8,"maxBonus":9,"perTrialBonus":0.5,"perTrialBonusThreshold":0.05,"exampleCost":0.01},"classroomParams":{"A":{"a":1,"b":4},"B":{"a":4,"b":1},"C":{"a":2,"b":8},"D":{"a":8,"b":2}},"conditions":["nonSeqFull","nonSeqPartial","seqNoFeedback","seqFeedback"],"classroomPairings":[["A","B"],["C","D"]],"coinWeights":[0.2,0.5,0.8],"subjectId":"A2E0LU8V4EUX5C","assignmentId":"3G5W44VEU84A2LZ0GA33T4RZ9HZKGM","hitId":"3AQN9REUTF20OMGWRXYK787QVFOYDP","url":"https://gershmanlab.com/experiments/alicia/teaching/experiment/?hitId=3AQN9REUTF20OMGWRXYK787QVFOYDP&workerId=A2E0LU8V4EUX5C&assignmentId=3G5W44VEU84A2LZ0GA33T4RZ9HZKGM&a=E45G9&tp_a=E45G9&b=3G5W44VEU84A2LZ0GA33T4RZ9HZKGM&tp_b=3G5W44VEU84A2LZ0GA33T4RZ9HZKGM&c=365799&tp_c=365799","firstResponseHeads":1,"firstResponseTails":4,"secondResponseHeads":1,"secondResponseTails":5,"totalHeads":2,"totalTails":9,"studentIndex":1,"studentTrueHypers":{"a":8,"b":2},"studentGuess":0.47619047619047616,"delta":0.27619047619047615,"bonus":0,"bonusSoFar":0.32,"totalExamples":11},{"rt":null,"stimulus":"Sending examples to student... ","response":null,"trial_type":"html-keyboard-response","trial_index":31,"time_elapsed":593631,"internal_node_id":"0.0-21.0","params":{"nStudents":24,"maxFlips":30,"completionMinutes":45,"basePay":8,"maxBonus":9,"perTrialBonus":0.5,"perTrialBonusThreshold":0.05,"exampleCost":0.01},"classroomParams":{"A":{"a":1,"b":4},"B":{"a":4,"b":1},"C":{"a":2,"b":8},"D":{"a":8,"b":2}},"conditions":["nonSeqFull","nonSeqPartial","seqNoFeedback","seqFeedback"],"classroomPairings":[["A","B"],["C","D"]],"coinWeights":[0.2,0.5,0.8],"subjectId":"A2E0LU8V4EUX5C","assignmentId":"3G5W44VEU84A2LZ0GA33T4RZ9HZKGM","hitId":"3AQN9REUTF20OMGWRXYK787QVFOYDP","url":"https://gershmanlab.com/experiments/alicia/teaching/experiment/?hitId=3AQN9REUTF20OMGWRXYK787QVFOYDP&workerId=A2E0LU8V4EUX5C&assignmentId=3G5W44VEU84A2LZ0GA33T4RZ9HZKGM&a=E45G9&tp_a=E45G9&b=3G5W44VEU84A2LZ0GA33T4RZ9HZKGM&tp_b=3G5W44VEU84A2LZ0GA33T4RZ9HZKGM&c=365799&tp_c=365799"},{"rt":null,"stimulus":"Examples sent to student! Waiting for student...","response":null,"trial_type":"html-keyboard-response","trial_index":32,"time_elapsed":597633,"internal_node_id":"0.0-22.0","params":{"nStudents":24,"maxFlips":30,"completionMinutes":45,"basePay":8,"maxBonus":9,"perTrialBonus":0.5,"perTrialBonusThreshold":0.05,"exampleCost":0.01},"classroomParams":{"A":{"a":1,"b":4},"B":{"a":4,"b":1},"C":{"a":2,"b":8},"D":{"a":8,"b":2}},"conditions":["nonSeqFull","nonSeqPartial","seqNoFeedback","seqFeedback"],"classroomPairings":[["A","B"],["C","D"]],"coinWeights":[0.2,0.5,0.8],"subjectId":"A2E0LU8V4EUX5C","assignmentId":"3G5W44VEU84A2LZ0GA33T4RZ9HZKGM","hitId":"3AQN9REUTF20OMGWRXYK787QVFOYDP","url":"https://gershmanlab.com/experiments/alicia/teaching/experiment/?hitId=3AQN9REUTF20OMGWRXYK787QVFOYDP&workerId=A2E0LU8V4EUX5C&assignmentId=3G5W44VEU84A2LZ0GA33T4RZ9HZKGM&a=E45G9&tp_a=E45G9&b=3G5W44VEU84A2LZ0GA33T4RZ9HZKGM&tp_b=3G5W44VEU84A2LZ0GA33T4RZ9HZKGM&c=365799&tp_c=365799"},{"rt":4628,"stimulus":"\n                <p>Student 2's first guess for coin weight: <b style=\"color:Tomato\";>0.60</b></p>\n                <p>Student 2's second guess for coin weight: <b style=\"color:Tomato\";>0.48</b></p>\n                <p>You received a bonus of <b>$0.00</b> based on the student's second guess.</p>\n                <p>Total bonus so far: <b>$0.32</b></p>\n                <p>Press any key to continue.</p>\n                ","response":"o","trial_type":"html-keyboard-response","trial_index":33,"time_elapsed":602262,"internal_node_id":"0.0-23.0","params":{"nStudents":24,"maxFlips":30,"completionMinutes":45,"basePay":8,"maxBonus":9,"perTrialBonus":0.5,"perTrialBonusThreshold":0.05,"exampleCost":0.01},"classroomParams":{"A":{"a":1,"b":4},"B":{"a":4,"b":1},"C":{"a":2,"b":8},"D":{"a":8,"b":2}},"conditions":["nonSeqFull","nonSeqPartial","seqNoFeedback","seqFeedback"],"classroomPairings":[["A","B"],["C","D"]],"coinWeights":[0.2,0.5,0.8],"subjectId":"A2E0LU8V4EUX5C","assignmentId":"3G5W44VEU84A2LZ0GA33T4RZ9HZKGM","hitId":"3AQN9REUTF20OMGWRXYK787QVFOYDP","url":"https://gershmanlab.com/experiments/alicia/teaching/experiment/?hitId=3AQN9REUTF20OMGWRXYK787QVFOYDP&workerId=A2E0LU8V4EUX5C&assignmentId=3G5W44VEU84A2LZ0GA33T4RZ9HZKGM&a=E45G9&tp_a=E45G9&b=3G5W44VEU84A2LZ0GA33T4RZ9HZKGM&tp_b=3G5W44VEU84A2LZ0GA33T4RZ9HZKGM&c=365799&tp_c=365799"},{"rt":null,"stimulus":"<div style=\"font-size:60px;\">Next student</div>","response":null,"trial_type":"html-keyboard-response","trial_index":34,"time_elapsed":604264,"internal_node_id":"0.0-24.0-0.0","params":{"nStudents":24,"maxFlips":30,"completionMinutes":45,"basePay":8,"maxBonus":9,"perTrialBonus":0.5,"perTrialBonusThreshold":0.05,"exampleCost":0.01},"classroomParams":{"A":{"a":1,"b":4},"B":{"a":4,"b":1},"C":{"a":2,"b":8},"D":{"a":8,"b":2}},"conditions":["nonSeqFull","nonSeqPartial","seqNoFeedback","seqFeedback"],"classroomPairings":[["A","B"],["C","D"]],"coinWeights":[0.2,0.5,0.8],"subjectId":"A2E0LU8V4EUX5C","assignmentId":"3G5W44VEU84A2LZ0GA33T4RZ9HZKGM","hitId":"3AQN9REUTF20OMGWRXYK787QVFOYDP","url":"https://gershmanlab.com/experiments/alicia/teaching/experiment/?hitId=3AQN9REUTF20OMGWRXYK787QVFOYDP&workerId=A2E0LU8V4EUX5C&assignmentId=3G5W44VEU84A2LZ0GA33T4RZ9HZKGM&a=E45G9&tp_a=E45G9&b=3G5W44VEU84A2LZ0GA33T4RZ9HZKGM&tp_b=3G5W44VEU84A2LZ0GA33T4RZ9HZKGM&c=365799&tp_c=365799"},{"rt":1209,"stimulus":"\n            <h4 style=\"color:Orange;\">Student 3</h4>\n            <h2>The weight of your coin is <b style=\"color:Tomato;\">0.8</b>.</h2>\n            <p>In this block, you will be giving <b>one</b> set of examples to Student 3.</p>\n                <p>You will receive feedback at the end of the block.</p>\n            <p></p>","response":0,"trial_type":"html-button-response","trial_index":35,"time_elapsed":605475,"internal_node_id":"0.0-25.0","params":{"nStudents":24,"maxFlips":30,"completionMinutes":45,"basePay":8,"maxBonus":9,"perTrialBonus":0.5,"perTrialBonusThreshold":0.05,"exampleCost":0.01},"classroomParams":{"A":{"a":1,"b":4},"B":{"a":4,"b":1},"C":{"a":2,"b":8},"D":{"a":8,"b":2}},"conditions":["nonSeqFull","nonSeqPartial","seqNoFeedback","seqFeedback"],"classroomPairings":[["A","B"],["C","D"]],"coinWeights":[0.2,0.5,0.8],"subjectId":"A2E0LU8V4EUX5C","assignmentId":"3G5W44VEU84A2LZ0GA33T4RZ9HZKGM","hitId":"3AQN9REUTF20OMGWRXYK787QVFOYDP","url":"https://gershmanlab.com/experiments/alicia/teaching/experiment/?hitId=3AQN9REUTF20OMGWRXYK787QVFOYDP&workerId=A2E0LU8V4EUX5C&assignmentId=3G5W44VEU84A2LZ0GA33T4RZ9HZKGM&a=E45G9&tp_a=E45G9&b=3G5W44VEU84A2LZ0GA33T4RZ9HZKGM&tp_b=3G5W44VEU84A2LZ0GA33T4RZ9HZKGM&c=365799&tp_c=365799"},{"rt":5039,"response":{"heads":"4","tails":"0"},"type":"response","condition":"nonSeqPartial","trueTheta":0.8,"classrooms":["C","D"],"studentTrueClassroom":"C","exampleSet":"first","trial_type":"survey-html-form","trial_index":36,"time_elapsed":610516,"internal_node_id":"0.0-26.0-0.0","params":{"nStudents":24,"maxFlips":30,"completionMinutes":45,"basePay":8,"maxBonus":9,"perTrialBonus":0.5,"perTrialBonusThreshold":0.05,"exampleCost":0.01},"classroomParams":{"A":{"a":1,"b":4},"B":{"a":4,"b":1},"C":{"a":2,"b":8},"D":{"a":8,"b":2}},"conditions":["nonSeqFull","nonSeqPartial","seqNoFeedback","seqFeedback"],"classroomPairings":[["A","B"],["C","D"]],"coinWeights":[0.2,0.5,0.8],"subjectId":"A2E0LU8V4EUX5C","assignmentId":"3G5W44VEU84A2LZ0GA33T4RZ9HZKGM","hitId":"3AQN9REUTF20OMGWRXYK787QVFOYDP","url":"https://gershmanlab.com/experiments/alicia/teaching/experiment/?hitId=3AQN9REUTF20OMGWRXYK787QVFOYDP&workerId=A2E0LU8V4EUX5C&assignmentId=3G5W44VEU84A2LZ0GA33T4RZ9HZKGM&a=E45G9&tp_a=E45G9&b=3G5W44VEU84A2LZ0GA33T4RZ9HZKGM&tp_b=3G5W44VEU84A2LZ0GA33T4RZ9HZKGM&c=365799&tp_c=365799","heads":4,"tails":0,"studentIndex":2,"studentTrueHypers":{"a":2,"b":8},"studentGuess":0.42857142857142855,"delta":0.3714285714285715,"totalExamples":4,"bonus":0,"bonusSoFar":0.32},{"rt":null,"stimulus":"Sending examples to student... ","response":null,"trial_type":"html-keyboard-response","trial_index":37,"time_elapsed":611767,"internal_node_id":"0.0-27.0","params":{"nStudents":24,"maxFlips":30,"completionMinutes":45,"basePay":8,"maxBonus":9,"perTrialBonus":0.5,"perTrialBonusThreshold":0.05,"exampleCost":0.01},"classroomParams":{"A":{"a":1,"b":4},"B":{"a":4,"b":1},"C":{"a":2,"b":8},"D":{"a":8,"b":2}},"conditions":["nonSeqFull","nonSeqPartial","seqNoFeedback","seqFeedback"],"classroomPairings":[["A","B"],["C","D"]],"coinWeights":[0.2,0.5,0.8],"subjectId":"A2E0LU8V4EUX5C","assignmentId":"3G5W44VEU84A2LZ0GA33T4RZ9HZKGM","hitId":"3AQN9REUTF20OMGWRXYK787QVFOYDP","url":"https://gershmanlab.com/experiments/alicia/teaching/experiment/?hitId=3AQN9REUTF20OMGWRXYK787QVFOYDP&workerId=A2E0LU8V4EUX5C&assignmentId=3G5W44VEU84A2LZ0GA33T4RZ9HZKGM&a=E45G9&tp_a=E45G9&b=3G5W44VEU84A2LZ0GA33T4RZ9HZKGM&tp_b=3G5W44VEU84A2LZ0GA33T4RZ9HZKGM&c=365799&tp_c=365799"},{"rt":null,"stimulus":"Examples sent to student! Waiting for student...","response":null,"trial_type":"html-keyboard-response","trial_index":38,"time_elapsed":617769,"internal_node_id":"0.0-28.0","params":{"nStudents":24,"maxFlips":30,"completionMinutes":45,"basePay":8,"maxBonus":9,"perTrialBonus":0.5,"perTrialBonusThreshold":0.05,"exampleCost":0.01},"classroomParams":{"A":{"a":1,"b":4},"B":{"a":4,"b":1},"C":{"a":2,"b":8},"D":{"a":8,"b":2}},"conditions":["nonSeqFull","nonSeqPartial","seqNoFeedback","seqFeedback"],"classroomPairings":[["A","B"],["C","D"]],"coinWeights":[0.2,0.5,0.8],"subjectId":"A2E0LU8V4EUX5C","assignmentId":"3G5W44VEU84A2LZ0GA33T4RZ9HZKGM","hitId":"3AQN9REUTF20OMGWRXYK787QVFOYDP","url":"https://gershmanlab.com/experiments/alicia/teaching/experiment/?hitId=3AQN9REUTF20OMGWRXYK787QVFOYDP&workerId=A2E0LU8V4EUX5C&assignmentId=3G5W44VEU84A2LZ0GA33T4RZ9HZKGM&a=E45G9&tp_a=E45G9&b=3G5W44VEU84A2LZ0GA33T4RZ9HZKGM&tp_b=3G5W44VEU84A2LZ0GA33T4RZ9HZKGM&c=365799&tp_c=365799"},{"rt":2445,"stimulus":"\n                <p>Student's guess for coin weight: <b style=\"color:Tomato;\">0.43</b></p>\n                <p>You received a bonus of <b>$0</b>. Total bonus so far: <b>$0.32</b></b></p>\n                <p></p>\n                <p>Press any key to continue.</p>\n                ","response":"y","trial_type":"html-keyboard-response","trial_index":39,"time_elapsed":620215,"internal_node_id":"0.0-29.0","params":{"nStudents":24,"maxFlips":30,"completionMinutes":45,"basePay":8,"maxBonus":9,"perTrialBonus":0.5,"perTrialBonusThreshold":0.05,"exampleCost":0.01},"classroomParams":{"A":{"a":1,"b":4},"B":{"a":4,"b":1},"C":{"a":2,"b":8},"D":{"a":8,"b":2}},"conditions":["nonSeqFull","nonSeqPartial","seqNoFeedback","seqFeedback"],"classroomPairings":[["A","B"],["C","D"]],"coinWeights":[0.2,0.5,0.8],"subjectId":"A2E0LU8V4EUX5C","assignmentId":"3G5W44VEU84A2LZ0GA33T4RZ9HZKGM","hitId":"3AQN9REUTF20OMGWRXYK787QVFOYDP","url":"https://gershmanlab.com/experiments/alicia/teaching/experiment/?hitId=3AQN9REUTF20OMGWRXYK787QVFOYDP&workerId=A2E0LU8V4EUX5C&assignmentId=3G5W44VEU84A2LZ0GA33T4RZ9HZKGM&a=E45G9&tp_a=E45G9&b=3G5W44VEU84A2LZ0GA33T4RZ9HZKGM&tp_b=3G5W44VEU84A2LZ0GA33T4RZ9HZKGM&c=365799&tp_c=365799"},{"rt":null,"stimulus":"<div style=\"font-size:60px;\">Next student</div>","response":null,"trial_type":"html-keyboard-response","trial_index":40,"time_elapsed":622717,"internal_node_id":"0.0-30.0-0.0","params":{"nStudents":24,"maxFlips":30,"completionMinutes":45,"basePay":8,"maxBonus":9,"perTrialBonus":0.5,"perTrialBonusThreshold":0.05,"exampleCost":0.01},"classroomParams":{"A":{"a":1,"b":4},"B":{"a":4,"b":1},"C":{"a":2,"b":8},"D":{"a":8,"b":2}},"conditions":["nonSeqFull","nonSeqPartial","seqNoFeedback","seqFeedback"],"classroomPairings":[["A","B"],["C","D"]],"coinWeights":[0.2,0.5,0.8],"subjectId":"A2E0LU8V4EUX5C","assignmentId":"3G5W44VEU84A2LZ0GA33T4RZ9HZKGM","hitId":"3AQN9REUTF20OMGWRXYK787QVFOYDP","url":"https://gershmanlab.com/experiments/alicia/teaching/experiment/?hitId=3AQN9REUTF20OMGWRXYK787QVFOYDP&workerId=A2E0LU8V4EUX5C&assignmentId=3G5W44VEU84A2LZ0GA33T4RZ9HZKGM&a=E45G9&tp_a=E45G9&b=3G5W44VEU84A2LZ0GA33T4RZ9HZKGM&tp_b=3G5W44VEU84A2LZ0GA33T4RZ9HZKGM&c=365799&tp_c=365799"},{"rt":3829,"stimulus":"\n            <h4 style=\"color:Orange;\">Student 4</h4>\n            <h2>The weight of your coin is <b style=\"color:Tomato;\">0.8</b>.</h2>\n            <p>In this block, you will be giving <b>two</b> sets of examples to Student 4.</p>\n                <p>You will see the student's guess after the first set of examples. You will also receive feedback at the end of the block.</p>\n            <p>To earn the highest bonus, you will have to <b>take into consideration the student's guess</b> when you choose your second set of examples.</p>","response":0,"trial_type":"html-button-response","trial_index":41,"time_elapsed":626547,"internal_node_id":"0.0-31.0","params":{"nStudents":24,"maxFlips":30,"completionMinutes":45,"basePay":8,"maxBonus":9,"perTrialBonus":0.5,"perTrialBonusThreshold":0.05,"exampleCost":0.01},"classroomParams":{"A":{"a":1,"b":4},"B":{"a":4,"b":1},"C":{"a":2,"b":8},"D":{"a":8,"b":2}},"conditions":["nonSeqFull","nonSeqPartial","seqNoFeedback","seqFeedback"],"classroomPairings":[["A","B"],["C","D"]],"coinWeights":[0.2,0.5,0.8],"subjectId":"A2E0LU8V4EUX5C","assignmentId":"3G5W44VEU84A2LZ0GA33T4RZ9HZKGM","hitId":"3AQN9REUTF20OMGWRXYK787QVFOYDP","url":"https://gershmanlab.com/experiments/alicia/teaching/experiment/?hitId=3AQN9REUTF20OMGWRXYK787QVFOYDP&workerId=A2E0LU8V4EUX5C&assignmentId=3G5W44VEU84A2LZ0GA33T4RZ9HZKGM&a=E45G9&tp_a=E45G9&b=3G5W44VEU84A2LZ0GA33T4RZ9HZKGM&tp_b=3G5W44VEU84A2LZ0GA33T4RZ9HZKGM&c=365799&tp_c=365799"},{"rt":5087,"response":{"heads":"5","tails":"2"},"type":"response","condition":"seqFeedback","trueTheta":0.8,"classrooms":["A","B"],"studentTrueClassroom":"A","exampleSet":"first","trial_type":"survey-html-form","trial_index":42,"time_elapsed":631636,"internal_node_id":"0.0-32.0-0.0","params":{"nStudents":24,"maxFlips":30,"completionMinutes":45,"basePay":8,"maxBonus":9,"perTrialBonus":0.5,"perTrialBonusThreshold":0.05,"exampleCost":0.01},"classroomParams":{"A":{"a":1,"b":4},"B":{"a":4,"b":1},"C":{"a":2,"b":8},"D":{"a":8,"b":2}},"conditions":["nonSeqFull","nonSeqPartial","seqNoFeedback","seqFeedback"],"classroomPairings":[["A","B"],["C","D"]],"coinWeights":[0.2,0.5,0.8],"subjectId":"A2E0LU8V4EUX5C","assignmentId":"3G5W44VEU84A2LZ0GA33T4RZ9HZKGM","hitId":"3AQN9REUTF20OMGWRXYK787QVFOYDP","url":"https://gershmanlab.com/experiments/alicia/teaching/experiment/?hitId=3AQN9REUTF20OMGWRXYK787QVFOYDP&workerId=A2E0LU8V4EUX5C&assignmentId=3G5W44VEU84A2LZ0GA33T4RZ9HZKGM&a=E45G9&tp_a=E45G9&b=3G5W44VEU84A2LZ0GA33T4RZ9HZKGM&tp_b=3G5W44VEU84A2LZ0GA33T4RZ9HZKGM&c=365799&tp_c=365799","heads":5,"tails":2,"studentIndex":3,"studentTrueHypers":{"a":1,"b":4},"studentGuess":0.5,"delta":0.30000000000000004,"totalExamples":7,"bonusSoFar":0.32},{"rt":null,"stimulus":"Sending examples to student... ","response":null,"trial_type":"html-keyboard-response","trial_index":43,"time_elapsed":633138,"internal_node_id":"0.0-33.0","params":{"nStudents":24,"maxFlips":30,"completionMinutes":45,"basePay":8,"maxBonus":9,"perTrialBonus":0.5,"perTrialBonusThreshold":0.05,"exampleCost":0.01},"classroomParams":{"A":{"a":1,"b":4},"B":{"a":4,"b":1},"C":{"a":2,"b":8},"D":{"a":8,"b":2}},"conditions":["nonSeqFull","nonSeqPartial","seqNoFeedback","seqFeedback"],"classroomPairings":[["A","B"],["C","D"]],"coinWeights":[0.2,0.5,0.8],"subjectId":"A2E0LU8V4EUX5C","assignmentId":"3G5W44VEU84A2LZ0GA33T4RZ9HZKGM","hitId":"3AQN9REUTF20OMGWRXYK787QVFOYDP","url":"https://gershmanlab.com/experiments/alicia/teaching/experiment/?hitId=3AQN9REUTF20OMGWRXYK787QVFOYDP&workerId=A2E0LU8V4EUX5C&assignmentId=3G5W44VEU84A2LZ0GA33T4RZ9HZKGM&a=E45G9&tp_a=E45G9&b=3G5W44VEU84A2LZ0GA33T4RZ9HZKGM&tp_b=3G5W44VEU84A2LZ0GA33T4RZ9HZKGM&c=365799&tp_c=365799"},{"rt":null,"stimulus":"Examples sent to student! Waiting for student...","response":null,"trial_type":"html-keyboard-response","trial_index":44,"time_elapsed":637640,"internal_node_id":"0.0-34.0","params":{"nStudents":24,"maxFlips":30,"completionMinutes":45,"basePay":8,"maxBonus":9,"perTrialBonus":0.5,"perTrialBonusThreshold":0.05,"exampleCost":0.01},"classroomParams":{"A":{"a":1,"b":4},"B":{"a":4,"b":1},"C":{"a":2,"b":8},"D":{"a":8,"b":2}},"conditions":["nonSeqFull","nonSeqPartial","seqNoFeedback","seqFeedback"],"classroomPairings":[["A","B"],["C","D"]],"coinWeights":[0.2,0.5,0.8],"subjectId":"A2E0LU8V4EUX5C","assignmentId":"3G5W44VEU84A2LZ0GA33T4RZ9HZKGM","hitId":"3AQN9REUTF20OMGWRXYK787QVFOYDP","url":"https://gershmanlab.com/experiments/alicia/teaching/experiment/?hitId=3AQN9REUTF20OMGWRXYK787QVFOYDP&workerId=A2E0LU8V4EUX5C&assignmentId=3G5W44VEU84A2LZ0GA33T4RZ9HZKGM&a=E45G9&tp_a=E45G9&b=3G5W44VEU84A2LZ0GA33T4RZ9HZKGM&tp_b=3G5W44VEU84A2LZ0GA33T4RZ9HZKGM&c=365799&tp_c=365799"},{"rt":2941,"stimulus":"\n                <p>Student's guess for coin weight: <b style=\"color:Tomato;\">0.50</b></p>\n                <p></b></p>\n                <p>You will now send another set of examples to your student. <b>Remember to take your student's guess into consideration so that you can earn the highest bonus possible!</b> </p>\n                <p>Press any key to continue.</p>\n                ","response":"h","trial_type":"html-keyboard-response","trial_index":45,"time_elapsed":640582,"internal_node_id":"0.0-35.0","params":{"nStudents":24,"maxFlips":30,"completionMinutes":45,"basePay":8,"maxBonus":9,"perTrialBonus":0.5,"perTrialBonusThreshold":0.05,"exampleCost":0.01},"classroomParams":{"A":{"a":1,"b":4},"B":{"a":4,"b":1},"C":{"a":2,"b":8},"D":{"a":8,"b":2}},"conditions":["nonSeqFull","nonSeqPartial","seqNoFeedback","seqFeedback"],"classroomPairings":[["A","B"],["C","D"]],"coinWeights":[0.2,0.5,0.8],"subjectId":"A2E0LU8V4EUX5C","assignmentId":"3G5W44VEU84A2LZ0GA33T4RZ9HZKGM","hitId":"3AQN9REUTF20OMGWRXYK787QVFOYDP","url":"https://gershmanlab.com/experiments/alicia/teaching/experiment/?hitId=3AQN9REUTF20OMGWRXYK787QVFOYDP&workerId=A2E0LU8V4EUX5C&assignmentId=3G5W44VEU84A2LZ0GA33T4RZ9HZKGM&a=E45G9&tp_a=E45G9&b=3G5W44VEU84A2LZ0GA33T4RZ9HZKGM&tp_b=3G5W44VEU84A2LZ0GA33T4RZ9HZKGM&c=365799&tp_c=365799"},{"rt":10499,"response":{"heads":"6","tails":"2"},"type":"response","condition":"seqFeedback","trueTheta":0.8,"classrooms":["A","B"],"studentTrueClassroom":"A","exampleSet":"second","trial_type":"survey-html-form","trial_index":46,"time_elapsed":651084,"internal_node_id":"0.0-36.0-0.0","params":{"nStudents":24,"maxFlips":30,"completionMinutes":45,"basePay":8,"maxBonus":9,"perTrialBonus":0.5,"perTrialBonusThreshold":0.05,"exampleCost":0.01},"classroomParams":{"A":{"a":1,"b":4},"B":{"a":4,"b":1},"C":{"a":2,"b":8},"D":{"a":8,"b":2}},"conditions":["nonSeqFull","nonSeqPartial","seqNoFeedback","seqFeedback"],"classroomPairings":[["A","B"],["C","D"]],"coinWeights":[0.2,0.5,0.8],"subjectId":"A2E0LU8V4EUX5C","assignmentId":"3G5W44VEU84A2LZ0GA33T4RZ9HZKGM","hitId":"3AQN9REUTF20OMGWRXYK787QVFOYDP","url":"https://gershmanlab.com/experiments/alicia/teaching/experiment/?hitId=3AQN9REUTF20OMGWRXYK787QVFOYDP&workerId=A2E0LU8V4EUX5C&assignmentId=3G5W44VEU84A2LZ0GA33T4RZ9HZKGM&a=E45G9&tp_a=E45G9&b=3G5W44VEU84A2LZ0GA33T4RZ9HZKGM&tp_b=3G5W44VEU84A2LZ0GA33T4RZ9HZKGM&c=365799&tp_c=365799","firstResponseHeads":5,"firstResponseTails":2,"secondResponseHeads":6,"secondResponseTails":2,"totalHeads":11,"totalTails":4,"studentIndex":3,"studentTrueHypers":{"a":1,"b":4},"studentGuess":0.6,"delta":0.20000000000000007,"bonus":0,"bonusSoFar":0.32,"totalExamples":15},{"rt":null,"stimulus":"Sending examples to student... ","response":null,"trial_type":"html-keyboard-response","trial_index":47,"time_elapsed":652835,"internal_node_id":"0.0-37.0","params":{"nStudents":24,"maxFlips":30,"completionMinutes":45,"basePay":8,"maxBonus":9,"perTrialBonus":0.5,"perTrialBonusThreshold":0.05,"exampleCost":0.01},"classroomParams":{"A":{"a":1,"b":4},"B":{"a":4,"b":1},"C":{"a":2,"b":8},"D":{"a":8,"b":2}},"conditions":["nonSeqFull","nonSeqPartial","seqNoFeedback","seqFeedback"],"classroomPairings":[["A","B"],["C","D"]],"coinWeights":[0.2,0.5,0.8],"subjectId":"A2E0LU8V4EUX5C","assignmentId":"3G5W44VEU84A2LZ0GA33T4RZ9HZKGM","hitId":"3AQN9REUTF20OMGWRXYK787QVFOYDP","url":"https://gershmanlab.com/experiments/alicia/teaching/experiment/?hitId=3AQN9REUTF20OMGWRXYK787QVFOYDP&workerId=A2E0LU8V4EUX5C&assignmentId=3G5W44VEU84A2LZ0GA33T4RZ9HZKGM&a=E45G9&tp_a=E45G9&b=3G5W44VEU84A2LZ0GA33T4RZ9HZKGM&tp_b=3G5W44VEU84A2LZ0GA33T4RZ9HZKGM&c=365799&tp_c=365799"},{"rt":null,"stimulus":"Examples sent to student! Waiting for student...","response":null,"trial_type":"html-keyboard-response","trial_index":48,"time_elapsed":656837,"internal_node_id":"0.0-38.0","params":{"nStudents":24,"maxFlips":30,"completionMinutes":45,"basePay":8,"maxBonus":9,"perTrialBonus":0.5,"perTrialBonusThreshold":0.05,"exampleCost":0.01},"classroomParams":{"A":{"a":1,"b":4},"B":{"a":4,"b":1},"C":{"a":2,"b":8},"D":{"a":8,"b":2}},"conditions":["nonSeqFull","nonSeqPartial","seqNoFeedback","seqFeedback"],"classroomPairings":[["A","B"],["C","D"]],"coinWeights":[0.2,0.5,0.8],"subjectId":"A2E0LU8V4EUX5C","assignmentId":"3G5W44VEU84A2LZ0GA33T4RZ9HZKGM","hitId":"3AQN9REUTF20OMGWRXYK787QVFOYDP","url":"https://gershmanlab.com/experiments/alicia/teaching/experiment/?hitId=3AQN9REUTF20OMGWRXYK787QVFOYDP&workerId=A2E0LU8V4EUX5C&assignmentId=3G5W44VEU84A2LZ0GA33T4RZ9HZKGM&a=E45G9&tp_a=E45G9&b=3G5W44VEU84A2LZ0GA33T4RZ9HZKGM&tp_b=3G5W44VEU84A2LZ0GA33T4RZ9HZKGM&c=365799&tp_c=365799"},{"rt":3312,"stimulus":"\n                <p>Student 4's first guess for coin weight: <b style=\"color:Tomato\";>0.50</b></p>\n                <p>Student 4's second guess for coin weight: <b style=\"color:Tomato\";>0.60</b></p>\n                <p>You received a bonus of <b>$0.00</b> based on the student's second guess.</p>\n                <p>Total bonus so far: <b>$0.32</b></p>\n                <p>Press any key to continue.</p>\n                ","response":"h","trial_type":"html-keyboard-response","trial_index":49,"time_elapsed":660150,"internal_node_id":"0.0-39.0","params":{"nStudents":24,"maxFlips":30,"completionMinutes":45,"basePay":8,"maxBonus":9,"perTrialBonus":0.5,"perTrialBonusThreshold":0.05,"exampleCost":0.01},"classroomParams":{"A":{"a":1,"b":4},"B":{"a":4,"b":1},"C":{"a":2,"b":8},"D":{"a":8,"b":2}},"conditions":["nonSeqFull","nonSeqPartial","seqNoFeedback","seqFeedback"],"classroomPairings":[["A","B"],["C","D"]],"coinWeights":[0.2,0.5,0.8],"subjectId":"A2E0LU8V4EUX5C","assignmentId":"3G5W44VEU84A2LZ0GA33T4RZ9HZKGM","hitId":"3AQN9REUTF20OMGWRXYK787QVFOYDP","url":"https://gershmanlab.com/experiments/alicia/teaching/experiment/?hitId=3AQN9REUTF20OMGWRXYK787QVFOYDP&workerId=A2E0LU8V4EUX5C&assignmentId=3G5W44VEU84A2LZ0GA33T4RZ9HZKGM&a=E45G9&tp_a=E45G9&b=3G5W44VEU84A2LZ0GA33T4RZ9HZKGM&tp_b=3G5W44VEU84A2LZ0GA33T4RZ9HZKGM&c=365799&tp_c=365799"},{"rt":null,"stimulus":"<div style=\"font-size:60px;\">Next student</div>","response":null,"trial_type":"html-keyboard-response","trial_index":50,"time_elapsed":662403,"internal_node_id":"0.0-40.0-0.0","params":{"nStudents":24,"maxFlips":30,"completionMinutes":45,"basePay":8,"maxBonus":9,"perTrialBonus":0.5,"perTrialBonusThreshold":0.05,"exampleCost":0.01},"classroomParams":{"A":{"a":1,"b":4},"B":{"a":4,"b":1},"C":{"a":2,"b":8},"D":{"a":8,"b":2}},"conditions":["nonSeqFull","nonSeqPartial","seqNoFeedback","seqFeedback"],"classroomPairings":[["A","B"],["C","D"]],"coinWeights":[0.2,0.5,0.8],"subjectId":"A2E0LU8V4EUX5C","assignmentId":"3G5W44VEU84A2LZ0GA33T4RZ9HZKGM","hitId":"3AQN9REUTF20OMGWRXYK787QVFOYDP","url":"https://gershmanlab.com/experiments/alicia/teaching/experiment/?hitId=3AQN9REUTF20OMGWRXYK787QVFOYDP&workerId=A2E0LU8V4EUX5C&assignmentId=3G5W44VEU84A2LZ0GA33T4RZ9HZKGM&a=E45G9&tp_a=E45G9&b=3G5W44VEU84A2LZ0GA33T4RZ9HZKGM&tp_b=3G5W44VEU84A2LZ0GA33T4RZ9HZKGM&c=365799&tp_c=365799"},{"rt":2559,"stimulus":"\n            <h4 style=\"color:Orange;\">Student 5</h4>\n            <h2>The weight of your coin is <b style=\"color:Tomato;\">0.2</b>.</h2>\n            <p>In this block, you will be giving <b>two</b> sets of examples to Student 5.</p>\n                <p>You will receive feedback at the end of the block.</p>\n            <p></p>","response":0,"trial_type":"html-button-response","trial_index":51,"time_elapsed":664963,"internal_node_id":"0.0-41.0","params":{"nStudents":24,"maxFlips":30,"completionMinutes":45,"basePay":8,"maxBonus":9,"perTrialBonus":0.5,"perTrialBonusThreshold":0.05,"exampleCost":0.01},"classroomParams":{"A":{"a":1,"b":4},"B":{"a":4,"b":1},"C":{"a":2,"b":8},"D":{"a":8,"b":2}},"conditions":["nonSeqFull","nonSeqPartial","seqNoFeedback","seqFeedback"],"classroomPairings":[["A","B"],["C","D"]],"coinWeights":[0.2,0.5,0.8],"subjectId":"A2E0LU8V4EUX5C","assignmentId":"3G5W44VEU84A2LZ0GA33T4RZ9HZKGM","hitId":"3AQN9REUTF20OMGWRXYK787QVFOYDP","url":"https://gershmanlab.com/experiments/alicia/teaching/experiment/?hitId=3AQN9REUTF20OMGWRXYK787QVFOYDP&workerId=A2E0LU8V4EUX5C&assignmentId=3G5W44VEU84A2LZ0GA33T4RZ9HZKGM&a=E45G9&tp_a=E45G9&b=3G5W44VEU84A2LZ0GA33T4RZ9HZKGM&tp_b=3G5W44VEU84A2LZ0GA33T4RZ9HZKGM&c=365799&tp_c=365799"},{"rt":6215,"response":{"heads":"1","tails":"3"},"type":"response","condition":"seqNoFeedback","trueTheta":0.2,"classrooms":["C","D"],"studentTrueClassroom":"C","exampleSet":"first","trial_type":"survey-html-form","trial_index":52,"time_elapsed":671180,"internal_node_id":"0.0-42.0-0.0","params":{"nStudents":24,"maxFlips":30,"completionMinutes":45,"basePay":8,"maxBonus":9,"perTrialBonus":0.5,"perTrialBonusThreshold":0.05,"exampleCost":0.01},"classroomParams":{"A":{"a":1,"b":4},"B":{"a":4,"b":1},"C":{"a":2,"b":8},"D":{"a":8,"b":2}},"conditions":["nonSeqFull","nonSeqPartial","seqNoFeedback","seqFeedback"],"classroomPairings":[["A","B"],["C","D"]],"coinWeights":[0.2,0.5,0.8],"subjectId":"A2E0LU8V4EUX5C","assignmentId":"3G5W44VEU84A2LZ0GA33T4RZ9HZKGM","hitId":"3AQN9REUTF20OMGWRXYK787QVFOYDP","url":"https://gershmanlab.com/experiments/alicia/teaching/experiment/?hitId=3AQN9REUTF20OMGWRXYK787QVFOYDP&workerId=A2E0LU8V4EUX5C&assignmentId=3G5W44VEU84A2LZ0GA33T4RZ9HZKGM&a=E45G9&tp_a=E45G9&b=3G5W44VEU84A2LZ0GA33T4RZ9HZKGM&tp_b=3G5W44VEU84A2LZ0GA33T4RZ9HZKGM&c=365799&tp_c=365799","heads":1,"tails":3,"studentIndex":4,"studentTrueHypers":{"a":2,"b":8},"studentGuess":0.21428571428571427,"delta":0.014285714285714263,"totalExamples":4,"bonusSoFar":0.32},{"rt":null,"stimulus":"Sending examples to student... ","response":null,"trial_type":"html-keyboard-response","trial_index":53,"time_elapsed":672931,"internal_node_id":"0.0-43.0","params":{"nStudents":24,"maxFlips":30,"completionMinutes":45,"basePay":8,"maxBonus":9,"perTrialBonus":0.5,"perTrialBonusThreshold":0.05,"exampleCost":0.01},"classroomParams":{"A":{"a":1,"b":4},"B":{"a":4,"b":1},"C":{"a":2,"b":8},"D":{"a":8,"b":2}},"conditions":["nonSeqFull","nonSeqPartial","seqNoFeedback","seqFeedback"],"classroomPairings":[["A","B"],["C","D"]],"coinWeights":[0.2,0.5,0.8],"subjectId":"A2E0LU8V4EUX5C","assignmentId":"3G5W44VEU84A2LZ0GA33T4RZ9HZKGM","hitId":"3AQN9REUTF20OMGWRXYK787QVFOYDP","url":"https://gershmanlab.com/experiments/alicia/teaching/experiment/?hitId=3AQN9REUTF20OMGWRXYK787QVFOYDP&workerId=A2E0LU8V4EUX5C&assignmentId=3G5W44VEU84A2LZ0GA33T4RZ9HZKGM&a=E45G9&tp_a=E45G9&b=3G5W44VEU84A2LZ0GA33T4RZ9HZKGM&tp_b=3G5W44VEU84A2LZ0GA33T4RZ9HZKGM&c=365799&tp_c=365799"},{"rt":null,"stimulus":"Examples sent to student! Waiting for student...","response":null,"trial_type":"html-keyboard-response","trial_index":54,"time_elapsed":678433,"internal_node_id":"0.0-44.0","params":{"nStudents":24,"maxFlips":30,"completionMinutes":45,"basePay":8,"maxBonus":9,"perTrialBonus":0.5,"perTrialBonusThreshold":0.05,"exampleCost":0.01},"classroomParams":{"A":{"a":1,"b":4},"B":{"a":4,"b":1},"C":{"a":2,"b":8},"D":{"a":8,"b":2}},"conditions":["nonSeqFull","nonSeqPartial","seqNoFeedback","seqFeedback"],"classroomPairings":[["A","B"],["C","D"]],"coinWeights":[0.2,0.5,0.8],"subjectId":"A2E0LU8V4EUX5C","assignmentId":"3G5W44VEU84A2LZ0GA33T4RZ9HZKGM","hitId":"3AQN9REUTF20OMGWRXYK787QVFOYDP","url":"https://gershmanlab.com/experiments/alicia/teaching/experiment/?hitId=3AQN9REUTF20OMGWRXYK787QVFOYDP&workerId=A2E0LU8V4EUX5C&assignmentId=3G5W44VEU84A2LZ0GA33T4RZ9HZKGM&a=E45G9&tp_a=E45G9&b=3G5W44VEU84A2LZ0GA33T4RZ9HZKGM&tp_b=3G5W44VEU84A2LZ0GA33T4RZ9HZKGM&c=365799&tp_c=365799"},{"rt":10625,"response":{"heads":"1","tails":"5"},"type":"response","condition":"seqNoFeedback","trueTheta":0.2,"classrooms":["C","D"],"studentTrueClassroom":"C","exampleSet":"second","trial_type":"survey-html-form","trial_index":55,"time_elapsed":689060,"internal_node_id":"0.0-45.0-0.0","params":{"nStudents":24,"maxFlips":30,"completionMinutes":45,"basePay":8,"maxBonus":9,"perTrialBonus":0.5,"perTrialBonusThreshold":0.05,"exampleCost":0.01},"classroomParams":{"A":{"a":1,"b":4},"B":{"a":4,"b":1},"C":{"a":2,"b":8},"D":{"a":8,"b":2}},"conditions":["nonSeqFull","nonSeqPartial","seqNoFeedback","seqFeedback"],"classroomPairings":[["A","B"],["C","D"]],"coinWeights":[0.2,0.5,0.8],"subjectId":"A2E0LU8V4EUX5C","assignmentId":"3G5W44VEU84A2LZ0GA33T4RZ9HZKGM","hitId":"3AQN9REUTF20OMGWRXYK787QVFOYDP","url":"https://gershmanlab.com/experiments/alicia/teaching/experiment/?hitId=3AQN9REUTF20OMGWRXYK787QVFOYDP&workerId=A2E0LU8V4EUX5C&assignmentId=3G5W44VEU84A2LZ0GA33T4RZ9HZKGM&a=E45G9&tp_a=E45G9&b=3G5W44VEU84A2LZ0GA33T4RZ9HZKGM&tp_b=3G5W44VEU84A2LZ0GA33T4RZ9HZKGM&c=365799&tp_c=365799","firstResponseHeads":1,"firstResponseTails":3,"secondResponseHeads":1,"secondResponseTails":5,"totalHeads":2,"totalTails":8,"studentIndex":4,"studentTrueHypers":{"a":2,"b":8},"studentGuess":0.2,"delta":0,"bonus":0.4,"bonusSoFar":0.72,"totalExamples":10},{"rt":null,"stimulus":"Sending examples to student... ","response":null,"trial_type":"html-keyboard-response","trial_index":56,"time_elapsed":690311,"internal_node_id":"0.0-46.0","params":{"nStudents":24,"maxFlips":30,"completionMinutes":45,"basePay":8,"maxBonus":9,"perTrialBonus":0.5,"perTrialBonusThreshold":0.05,"exampleCost":0.01},"classroomParams":{"A":{"a":1,"b":4},"B":{"a":4,"b":1},"C":{"a":2,"b":8},"D":{"a":8,"b":2}},"conditions":["nonSeqFull","nonSeqPartial","seqNoFeedback","seqFeedback"],"classroomPairings":[["A","B"],["C","D"]],"coinWeights":[0.2,0.5,0.8],"subjectId":"A2E0LU8V4EUX5C","assignmentId":"3G5W44VEU84A2LZ0GA33T4RZ9HZKGM","hitId":"3AQN9REUTF20OMGWRXYK787QVFOYDP","url":"https://gershmanlab.com/experiments/alicia/teaching/experiment/?hitId=3AQN9REUTF20OMGWRXYK787QVFOYDP&workerId=A2E0LU8V4EUX5C&assignmentId=3G5W44VEU84A2LZ0GA33T4RZ9HZKGM&a=E45G9&tp_a=E45G9&b=3G5W44VEU84A2LZ0GA33T4RZ9HZKGM&tp_b=3G5W44VEU84A2LZ0GA33T4RZ9HZKGM&c=365799&tp_c=365799"},{"rt":null,"stimulus":"Examples sent to student! Waiting for student...","response":null,"trial_type":"html-keyboard-response","trial_index":57,"time_elapsed":694312,"internal_node_id":"0.0-47.0","params":{"nStudents":24,"maxFlips":30,"completionMinutes":45,"basePay":8,"maxBonus":9,"perTrialBonus":0.5,"perTrialBonusThreshold":0.05,"exampleCost":0.01},"classroomParams":{"A":{"a":1,"b":4},"B":{"a":4,"b":1},"C":{"a":2,"b":8},"D":{"a":8,"b":2}},"conditions":["nonSeqFull","nonSeqPartial","seqNoFeedback","seqFeedback"],"classroomPairings":[["A","B"],["C","D"]],"coinWeights":[0.2,0.5,0.8],"subjectId":"A2E0LU8V4EUX5C","assignmentId":"3G5W44VEU84A2LZ0GA33T4RZ9HZKGM","hitId":"3AQN9REUTF20OMGWRXYK787QVFOYDP","url":"https://gershmanlab.com/experiments/alicia/teaching/experiment/?hitId=3AQN9REUTF20OMGWRXYK787QVFOYDP&workerId=A2E0LU8V4EUX5C&assignmentId=3G5W44VEU84A2LZ0GA33T4RZ9HZKGM&a=E45G9&tp_a=E45G9&b=3G5W44VEU84A2LZ0GA33T4RZ9HZKGM&tp_b=3G5W44VEU84A2LZ0GA33T4RZ9HZKGM&c=365799&tp_c=365799"},{"rt":4027,"stimulus":"\n                <p>Student 5's first guess for coin weight: <b style=\"color:Tomato\";>0.21</b></p>\n                <p>Student 5's second guess for coin weight: <b style=\"color:Tomato\";>0.20</b></p>\n                <p>You received a bonus of <b>$0.40</b> based on the student's second guess.</p>\n                <p>Total bonus so far: <b>$0.72</b></p>\n                <p>Press any key to continue.</p>\n                ","response":"h","trial_type":"html-keyboard-response","trial_index":58,"time_elapsed":698341,"internal_node_id":"0.0-48.0","params":{"nStudents":24,"maxFlips":30,"completionMinutes":45,"basePay":8,"maxBonus":9,"perTrialBonus":0.5,"perTrialBonusThreshold":0.05,"exampleCost":0.01},"classroomParams":{"A":{"a":1,"b":4},"B":{"a":4,"b":1},"C":{"a":2,"b":8},"D":{"a":8,"b":2}},"conditions":["nonSeqFull","nonSeqPartial","seqNoFeedback","seqFeedback"],"classroomPairings":[["A","B"],["C","D"]],"coinWeights":[0.2,0.5,0.8],"subjectId":"A2E0LU8V4EUX5C","assignmentId":"3G5W44VEU84A2LZ0GA33T4RZ9HZKGM","hitId":"3AQN9REUTF20OMGWRXYK787QVFOYDP","url":"https://gershmanlab.com/experiments/alicia/teaching/experiment/?hitId=3AQN9REUTF20OMGWRXYK787QVFOYDP&workerId=A2E0LU8V4EUX5C&assignmentId=3G5W44VEU84A2LZ0GA33T4RZ9HZKGM&a=E45G9&tp_a=E45G9&b=3G5W44VEU84A2LZ0GA33T4RZ9HZKGM&tp_b=3G5W44VEU84A2LZ0GA33T4RZ9HZKGM&c=365799&tp_c=365799"},{"rt":null,"stimulus":"<div style=\"font-size:60px;\">Next student</div>","response":null,"trial_type":"html-keyboard-response","trial_index":59,"time_elapsed":700343,"internal_node_id":"0.0-49.0-0.0","params":{"nStudents":24,"maxFlips":30,"completionMinutes":45,"basePay":8,"maxBonus":9,"perTrialBonus":0.5,"perTrialBonusThreshold":0.05,"exampleCost":0.01},"classroomParams":{"A":{"a":1,"b":4},"B":{"a":4,"b":1},"C":{"a":2,"b":8},"D":{"a":8,"b":2}},"conditions":["nonSeqFull","nonSeqPartial","seqNoFeedback","seqFeedback"],"classroomPairings":[["A","B"],["C","D"]],"coinWeights":[0.2,0.5,0.8],"subjectId":"A2E0LU8V4EUX5C","assignmentId":"3G5W44VEU84A2LZ0GA33T4RZ9HZKGM","hitId":"3AQN9REUTF20OMGWRXYK787QVFOYDP","url":"https://gershmanlab.com/experiments/alicia/teaching/experiment/?hitId=3AQN9REUTF20OMGWRXYK787QVFOYDP&workerId=A2E0LU8V4EUX5C&assignmentId=3G5W44VEU84A2LZ0GA33T4RZ9HZKGM&a=E45G9&tp_a=E45G9&b=3G5W44VEU84A2LZ0GA33T4RZ9HZKGM&tp_b=3G5W44VEU84A2LZ0GA33T4RZ9HZKGM&c=365799&tp_c=365799"},{"rt":3308,"stimulus":"\n            <h4 style=\"color:Orange;\">Student 6</h4>\n            <h2>The weight of your coin is <b style=\"color:Tomato;\">0.8</b>.</h2>\n            <p>In this block, you will be giving <b>one</b> set of examples to Student 6.</p>\n                <p>You will receive feedback at the end of the block.</p>\n            <p></p>","response":0,"trial_type":"html-button-response","trial_index":60,"time_elapsed":703651,"internal_node_id":"0.0-50.0","params":{"nStudents":24,"maxFlips":30,"completionMinutes":45,"basePay":8,"maxBonus":9,"perTrialBonus":0.5,"perTrialBonusThreshold":0.05,"exampleCost":0.01},"classroomParams":{"A":{"a":1,"b":4},"B":{"a":4,"b":1},"C":{"a":2,"b":8},"D":{"a":8,"b":2}},"conditions":["nonSeqFull","nonSeqPartial","seqNoFeedback","seqFeedback"],"classroomPairings":[["A","B"],["C","D"]],"coinWeights":[0.2,0.5,0.8],"subjectId":"A2E0LU8V4EUX5C","assignmentId":"3G5W44VEU84A2LZ0GA33T4RZ9HZKGM","hitId":"3AQN9REUTF20OMGWRXYK787QVFOYDP","url":"https://gershmanlab.com/experiments/alicia/teaching/experiment/?hitId=3AQN9REUTF20OMGWRXYK787QVFOYDP&workerId=A2E0LU8V4EUX5C&assignmentId=3G5W44VEU84A2LZ0GA33T4RZ9HZKGM&a=E45G9&tp_a=E45G9&b=3G5W44VEU84A2LZ0GA33T4RZ9HZKGM&tp_b=3G5W44VEU84A2LZ0GA33T4RZ9HZKGM&c=365799&tp_c=365799"},{"rt":8119,"response":{"heads":"6","tails":"0"},"type":"response","condition":"nonSeqFull","trueTheta":0.8,"classrooms":["A","B"],"studentTrueClassroom":"A","exampleSet":"first","trial_type":"survey-html-form","trial_index":61,"time_elapsed":711772,"internal_node_id":"0.0-51.0-0.0","params":{"nStudents":24,"maxFlips":30,"completionMinutes":45,"basePay":8,"maxBonus":9,"perTrialBonus":0.5,"perTrialBonusThreshold":0.05,"exampleCost":0.01},"classroomParams":{"A":{"a":1,"b":4},"B":{"a":4,"b":1},"C":{"a":2,"b":8},"D":{"a":8,"b":2}},"conditions":["nonSeqFull","nonSeqPartial","seqNoFeedback","seqFeedback"],"classroomPairings":[["A","B"],["C","D"]],"coinWeights":[0.2,0.5,0.8],"subjectId":"A2E0LU8V4EUX5C","assignmentId":"3G5W44VEU84A2LZ0GA33T4RZ9HZKGM","hitId":"3AQN9REUTF20OMGWRXYK787QVFOYDP","url":"https://gershmanlab.com/experiments/alicia/teaching/experiment/?hitId=3AQN9REUTF20OMGWRXYK787QVFOYDP&workerId=A2E0LU8V4EUX5C&assignmentId=3G5W44VEU84A2LZ0GA33T4RZ9HZKGM&a=E45G9&tp_a=E45G9&b=3G5W44VEU84A2LZ0GA33T4RZ9HZKGM&tp_b=3G5W44VEU84A2LZ0GA33T4RZ9HZKGM&c=365799&tp_c=365799","heads":6,"tails":0,"studentIndex":5,"studentTrueHypers":{"a":1,"b":4},"studentGuess":0.6363636363636364,"delta":0.1636363636363637,"totalExamples":6,"bonus":0,"bonusSoFar":0.72},{"rt":null,"stimulus":"Sending examples to student... ","response":null,"trial_type":"html-keyboard-response","trial_index":62,"time_elapsed":713773,"internal_node_id":"0.0-52.0","params":{"nStudents":24,"maxFlips":30,"completionMinutes":45,"basePay":8,"maxBonus":9,"perTrialBonus":0.5,"perTrialBonusThreshold":0.05,"exampleCost":0.01},"classroomParams":{"A":{"a":1,"b":4},"B":{"a":4,"b":1},"C":{"a":2,"b":8},"D":{"a":8,"b":2}},"conditions":["nonSeqFull","nonSeqPartial","seqNoFeedback","seqFeedback"],"classroomPairings":[["A","B"],["C","D"]],"coinWeights":[0.2,0.5,0.8],"subjectId":"A2E0LU8V4EUX5C","assignmentId":"3G5W44VEU84A2LZ0GA33T4RZ9HZKGM","hitId":"3AQN9REUTF20OMGWRXYK787QVFOYDP","url":"https://gershmanlab.com/experiments/alicia/teaching/experiment/?hitId=3AQN9REUTF20OMGWRXYK787QVFOYDP&workerId=A2E0LU8V4EUX5C&assignmentId=3G5W44VEU84A2LZ0GA33T4RZ9HZKGM&a=E45G9&tp_a=E45G9&b=3G5W44VEU84A2LZ0GA33T4RZ9HZKGM&tp_b=3G5W44VEU84A2LZ0GA33T4RZ9HZKGM&c=365799&tp_c=365799"},{"rt":null,"stimulus":"Examples sent to student! Waiting for student...","response":null,"trial_type":"html-keyboard-response","trial_index":63,"time_elapsed":719774,"internal_node_id":"0.0-53.0","params":{"nStudents":24,"maxFlips":30,"completionMinutes":45,"basePay":8,"maxBonus":9,"perTrialBonus":0.5,"perTrialBonusThreshold":0.05,"exampleCost":0.01},"classroomParams":{"A":{"a":1,"b":4},"B":{"a":4,"b":1},"C":{"a":2,"b":8},"D":{"a":8,"b":2}},"conditions":["nonSeqFull","nonSeqPartial","seqNoFeedback","seqFeedback"],"classroomPairings":[["A","B"],["C","D"]],"coinWeights":[0.2,0.5,0.8],"subjectId":"A2E0LU8V4EUX5C","assignmentId":"3G5W44VEU84A2LZ0GA33T4RZ9HZKGM","hitId":"3AQN9REUTF20OMGWRXYK787QVFOYDP","url":"https://gershmanlab.com/experiments/alicia/teaching/experiment/?hitId=3AQN9REUTF20OMGWRXYK787QVFOYDP&workerId=A2E0LU8V4EUX5C&assignmentId=3G5W44VEU84A2LZ0GA33T4RZ9HZKGM&a=E45G9&tp_a=E45G9&b=3G5W44VEU84A2LZ0GA33T4RZ9HZKGM&tp_b=3G5W44VEU84A2LZ0GA33T4RZ9HZKGM&c=365799&tp_c=365799"},{"rt":2519,"stimulus":"\n                <p>Student's guess for coin weight: <b style=\"color:Tomato;\">0.64</b></p>\n                <p>You received a bonus of <b>$0</b>. Total bonus so far: <b>$0.72</b></b></p>\n                <p></p>\n                <p>Press any key to continue.</p>\n                ","response":"h","trial_type":"html-keyboard-response","trial_index":64,"time_elapsed":722295,"internal_node_id":"0.0-54.0","params":{"nStudents":24,"maxFlips":30,"completionMinutes":45,"basePay":8,"maxBonus":9,"perTrialBonus":0.5,"perTrialBonusThreshold":0.05,"exampleCost":0.01},"classroomParams":{"A":{"a":1,"b":4},"B":{"a":4,"b":1},"C":{"a":2,"b":8},"D":{"a":8,"b":2}},"conditions":["nonSeqFull","nonSeqPartial","seqNoFeedback","seqFeedback"],"classroomPairings":[["A","B"],["C","D"]],"coinWeights":[0.2,0.5,0.8],"subjectId":"A2E0LU8V4EUX5C","assignmentId":"3G5W44VEU84A2LZ0GA33T4RZ9HZKGM","hitId":"3AQN9REUTF20OMGWRXYK787QVFOYDP","url":"https://gershmanlab.com/experiments/alicia/teaching/experiment/?hitId=3AQN9REUTF20OMGWRXYK787QVFOYDP&workerId=A2E0LU8V4EUX5C&assignmentId=3G5W44VEU84A2LZ0GA33T4RZ9HZKGM&a=E45G9&tp_a=E45G9&b=3G5W44VEU84A2LZ0GA33T4RZ9HZKGM&tp_b=3G5W44VEU84A2LZ0GA33T4RZ9HZKGM&c=365799&tp_c=365799"},{"rt":null,"stimulus":"<div style=\"font-size:60px;\">Next student</div>","response":null,"trial_type":"html-keyboard-response","trial_index":65,"time_elapsed":724796,"internal_node_id":"0.0-55.0-0.0","params":{"nStudents":24,"maxFlips":30,"completionMinutes":45,"basePay":8,"maxBonus":9,"perTrialBonus":0.5,"perTrialBonusThreshold":0.05,"exampleCost":0.01},"classroomParams":{"A":{"a":1,"b":4},"B":{"a":4,"b":1},"C":{"a":2,"b":8},"D":{"a":8,"b":2}},"conditions":["nonSeqFull","nonSeqPartial","seqNoFeedback","seqFeedback"],"classroomPairings":[["A","B"],["C","D"]],"coinWeights":[0.2,0.5,0.8],"subjectId":"A2E0LU8V4EUX5C","assignmentId":"3G5W44VEU84A2LZ0GA33T4RZ9HZKGM","hitId":"3AQN9REUTF20OMGWRXYK787QVFOYDP","url":"https://gershmanlab.com/experiments/alicia/teaching/experiment/?hitId=3AQN9REUTF20OMGWRXYK787QVFOYDP&workerId=A2E0LU8V4EUX5C&assignmentId=3G5W44VEU84A2LZ0GA33T4RZ9HZKGM&a=E45G9&tp_a=E45G9&b=3G5W44VEU84A2LZ0GA33T4RZ9HZKGM&tp_b=3G5W44VEU84A2LZ0GA33T4RZ9HZKGM&c=365799&tp_c=365799"},{"rt":4502,"stimulus":"\n            <h4 style=\"color:Orange;\">Student 7</h4>\n            <h2>The weight of your coin is <b style=\"color:Tomato;\">0.2</b>.</h2>\n            <p>In this block, you will be giving <b>one</b> set of examples to Student 7.</p>\n                <p>You will receive feedback at the end of the block.</p>\n            <p></p>","response":0,"trial_type":"html-button-response","trial_index":66,"time_elapsed":729299,"internal_node_id":"0.0-56.0","params":{"nStudents":24,"maxFlips":30,"completionMinutes":45,"basePay":8,"maxBonus":9,"perTrialBonus":0.5,"perTrialBonusThreshold":0.05,"exampleCost":0.01},"classroomParams":{"A":{"a":1,"b":4},"B":{"a":4,"b":1},"C":{"a":2,"b":8},"D":{"a":8,"b":2}},"conditions":["nonSeqFull","nonSeqPartial","seqNoFeedback","seqFeedback"],"classroomPairings":[["A","B"],["C","D"]],"coinWeights":[0.2,0.5,0.8],"subjectId":"A2E0LU8V4EUX5C","assignmentId":"3G5W44VEU84A2LZ0GA33T4RZ9HZKGM","hitId":"3AQN9REUTF20OMGWRXYK787QVFOYDP","url":"https://gershmanlab.com/experiments/alicia/teaching/experiment/?hitId=3AQN9REUTF20OMGWRXYK787QVFOYDP&workerId=A2E0LU8V4EUX5C&assignmentId=3G5W44VEU84A2LZ0GA33T4RZ9HZKGM&a=E45G9&tp_a=E45G9&b=3G5W44VEU84A2LZ0GA33T4RZ9HZKGM&tp_b=3G5W44VEU84A2LZ0GA33T4RZ9HZKGM&c=365799&tp_c=365799"},{"rt":8959,"response":{"heads":"1","tails":"5"},"type":"response","condition":"nonSeqPartial","trueTheta":0.2,"classrooms":["A","B"],"studentTrueClassroom":"A","exampleSet":"first","trial_type":"survey-html-form","trial_index":67,"time_elapsed":738260,"internal_node_id":"0.0-57.0-0.0","params":{"nStudents":24,"maxFlips":30,"completionMinutes":45,"basePay":8,"maxBonus":9,"perTrialBonus":0.5,"perTrialBonusThreshold":0.05,"exampleCost":0.01},"classroomParams":{"A":{"a":1,"b":4},"B":{"a":4,"b":1},"C":{"a":2,"b":8},"D":{"a":8,"b":2}},"conditions":["nonSeqFull","nonSeqPartial","seqNoFeedback","seqFeedback"],"classroomPairings":[["A","B"],["C","D"]],"coinWeights":[0.2,0.5,0.8],"subjectId":"A2E0LU8V4EUX5C","assignmentId":"3G5W44VEU84A2LZ0GA33T4RZ9HZKGM","hitId":"3AQN9REUTF20OMGWRXYK787QVFOYDP","url":"https://gershmanlab.com/experiments/alicia/teaching/experiment/?hitId=3AQN9REUTF20OMGWRXYK787QVFOYDP&workerId=A2E0LU8V4EUX5C&assignmentId=3G5W44VEU84A2LZ0GA33T4RZ9HZKGM&a=E45G9&tp_a=E45G9&b=3G5W44VEU84A2LZ0GA33T4RZ9HZKGM&tp_b=3G5W44VEU84A2LZ0GA33T4RZ9HZKGM&c=365799&tp_c=365799","heads":1,"tails":5,"studentIndex":6,"studentTrueHypers":{"a":1,"b":4},"studentGuess":0.18181818181818182,"delta":0.018181818181818188,"totalExamples":6,"bonus":0.44,"bonusSoFar":1.16},{"rt":null,"stimulus":"Sending examples to student... ","response":null,"trial_type":"html-keyboard-response","trial_index":68,"time_elapsed":739761,"internal_node_id":"0.0-58.0","params":{"nStudents":24,"maxFlips":30,"completionMinutes":45,"basePay":8,"maxBonus":9,"perTrialBonus":0.5,"perTrialBonusThreshold":0.05,"exampleCost":0.01},"classroomParams":{"A":{"a":1,"b":4},"B":{"a":4,"b":1},"C":{"a":2,"b":8},"D":{"a":8,"b":2}},"conditions":["nonSeqFull","nonSeqPartial","seqNoFeedback","seqFeedback"],"classroomPairings":[["A","B"],["C","D"]],"coinWeights":[0.2,0.5,0.8],"subjectId":"A2E0LU8V4EUX5C","assignmentId":"3G5W44VEU84A2LZ0GA33T4RZ9HZKGM","hitId":"3AQN9REUTF20OMGWRXYK787QVFOYDP","url":"https://gershmanlab.com/experiments/alicia/teaching/experiment/?hitId=3AQN9REUTF20OMGWRXYK787QVFOYDP&workerId=A2E0LU8V4EUX5C&assignmentId=3G5W44VEU84A2LZ0GA33T4RZ9HZKGM&a=E45G9&tp_a=E45G9&b=3G5W44VEU84A2LZ0GA33T4RZ9HZKGM&tp_b=3G5W44VEU84A2LZ0GA33T4RZ9HZKGM&c=365799&tp_c=365799"},{"rt":null,"stimulus":"Examples sent to student! Waiting for student...","response":null,"trial_type":"html-keyboard-response","trial_index":69,"time_elapsed":744763,"internal_node_id":"0.0-59.0","params":{"nStudents":24,"maxFlips":30,"completionMinutes":45,"basePay":8,"maxBonus":9,"perTrialBonus":0.5,"perTrialBonusThreshold":0.05,"exampleCost":0.01},"classroomParams":{"A":{"a":1,"b":4},"B":{"a":4,"b":1},"C":{"a":2,"b":8},"D":{"a":8,"b":2}},"conditions":["nonSeqFull","nonSeqPartial","seqNoFeedback","seqFeedback"],"classroomPairings":[["A","B"],["C","D"]],"coinWeights":[0.2,0.5,0.8],"subjectId":"A2E0LU8V4EUX5C","assignmentId":"3G5W44VEU84A2LZ0GA33T4RZ9HZKGM","hitId":"3AQN9REUTF20OMGWRXYK787QVFOYDP","url":"https://gershmanlab.com/experiments/alicia/teaching/experiment/?hitId=3AQN9REUTF20OMGWRXYK787QVFOYDP&workerId=A2E0LU8V4EUX5C&assignmentId=3G5W44VEU84A2LZ0GA33T4RZ9HZKGM&a=E45G9&tp_a=E45G9&b=3G5W44VEU84A2LZ0GA33T4RZ9HZKGM&tp_b=3G5W44VEU84A2LZ0GA33T4RZ9HZKGM&c=365799&tp_c=365799"},{"rt":3976,"stimulus":"\n                <p>Student's guess for coin weight: <b style=\"color:Tomato;\">0.18</b></p>\n                <p>You received a bonus of <b>$0.44</b>. Total bonus so far: <b>$1.16</b></b></p>\n                <p></p>\n                <p>Press any key to continue.</p>\n                ","response":"h","trial_type":"html-keyboard-response","trial_index":70,"time_elapsed":748740,"internal_node_id":"0.0-60.0","params":{"nStudents":24,"maxFlips":30,"completionMinutes":45,"basePay":8,"maxBonus":9,"perTrialBonus":0.5,"perTrialBonusThreshold":0.05,"exampleCost":0.01},"classroomParams":{"A":{"a":1,"b":4},"B":{"a":4,"b":1},"C":{"a":2,"b":8},"D":{"a":8,"b":2}},"conditions":["nonSeqFull","nonSeqPartial","seqNoFeedback","seqFeedback"],"classroomPairings":[["A","B"],["C","D"]],"coinWeights":[0.2,0.5,0.8],"subjectId":"A2E0LU8V4EUX5C","assignmentId":"3G5W44VEU84A2LZ0GA33T4RZ9HZKGM","hitId":"3AQN9REUTF20OMGWRXYK787QVFOYDP","url":"https://gershmanlab.com/experiments/alicia/teaching/experiment/?hitId=3AQN9REUTF20OMGWRXYK787QVFOYDP&workerId=A2E0LU8V4EUX5C&assignmentId=3G5W44VEU84A2LZ0GA33T4RZ9HZKGM&a=E45G9&tp_a=E45G9&b=3G5W44VEU84A2LZ0GA33T4RZ9HZKGM&tp_b=3G5W44VEU84A2LZ0GA33T4RZ9HZKGM&c=365799&tp_c=365799"},{"rt":null,"stimulus":"<div style=\"font-size:60px;\">Next student</div>","response":null,"trial_type":"html-keyboard-response","trial_index":71,"time_elapsed":750741,"internal_node_id":"0.0-61.0-0.0","params":{"nStudents":24,"maxFlips":30,"completionMinutes":45,"basePay":8,"maxBonus":9,"perTrialBonus":0.5,"perTrialBonusThreshold":0.05,"exampleCost":0.01},"classroomParams":{"A":{"a":1,"b":4},"B":{"a":4,"b":1},"C":{"a":2,"b":8},"D":{"a":8,"b":2}},"conditions":["nonSeqFull","nonSeqPartial","seqNoFeedback","seqFeedback"],"classroomPairings":[["A","B"],["C","D"]],"coinWeights":[0.2,0.5,0.8],"subjectId":"A2E0LU8V4EUX5C","assignmentId":"3G5W44VEU84A2LZ0GA33T4RZ9HZKGM","hitId":"3AQN9REUTF20OMGWRXYK787QVFOYDP","url":"https://gershmanlab.com/experiments/alicia/teaching/experiment/?hitId=3AQN9REUTF20OMGWRXYK787QVFOYDP&workerId=A2E0LU8V4EUX5C&assignmentId=3G5W44VEU84A2LZ0GA33T4RZ9HZKGM&a=E45G9&tp_a=E45G9&b=3G5W44VEU84A2LZ0GA33T4RZ9HZKGM&tp_b=3G5W44VEU84A2LZ0GA33T4RZ9HZKGM&c=365799&tp_c=365799"},{"rt":5102,"stimulus":"\n            <h4 style=\"color:Orange;\">Student 8</h4>\n            <h2>The weight of your coin is <b style=\"color:Tomato;\">0.2</b>.</h2>\n            <p>In this block, you will be giving <b>two</b> sets of examples to Student 8.</p>\n                <p>You will see the student's guess after the first set of examples. You will also receive feedback at the end of the block.</p>\n            <p>To earn the highest bonus, you will have to <b>take into consideration the student's guess</b> when you choose your second set of examples.</p>","response":0,"trial_type":"html-button-response","trial_index":72,"time_elapsed":755844,"internal_node_id":"0.0-62.0","params":{"nStudents":24,"maxFlips":30,"completionMinutes":45,"basePay":8,"maxBonus":9,"perTrialBonus":0.5,"perTrialBonusThreshold":0.05,"exampleCost":0.01},"classroomParams":{"A":{"a":1,"b":4},"B":{"a":4,"b":1},"C":{"a":2,"b":8},"D":{"a":8,"b":2}},"conditions":["nonSeqFull","nonSeqPartial","seqNoFeedback","seqFeedback"],"classroomPairings":[["A","B"],["C","D"]],"coinWeights":[0.2,0.5,0.8],"subjectId":"A2E0LU8V4EUX5C","assignmentId":"3G5W44VEU84A2LZ0GA33T4RZ9HZKGM","hitId":"3AQN9REUTF20OMGWRXYK787QVFOYDP","url":"https://gershmanlab.com/experiments/alicia/teaching/experiment/?hitId=3AQN9REUTF20OMGWRXYK787QVFOYDP&workerId=A2E0LU8V4EUX5C&assignmentId=3G5W44VEU84A2LZ0GA33T4RZ9HZKGM&a=E45G9&tp_a=E45G9&b=3G5W44VEU84A2LZ0GA33T4RZ9HZKGM&tp_b=3G5W44VEU84A2LZ0GA33T4RZ9HZKGM&c=365799&tp_c=365799"},{"rt":14335,"response":{"heads":"1","tails":"4"},"type":"response","condition":"seqFeedback","trueTheta":0.2,"classrooms":["A","B"],"studentTrueClassroom":"B","exampleSet":"first","trial_type":"survey-html-form","trial_index":73,"time_elapsed":770180,"internal_node_id":"0.0-63.0-0.0","params":{"nStudents":24,"maxFlips":30,"completionMinutes":45,"basePay":8,"maxBonus":9,"perTrialBonus":0.5,"perTrialBonusThreshold":0.05,"exampleCost":0.01},"classroomParams":{"A":{"a":1,"b":4},"B":{"a":4,"b":1},"C":{"a":2,"b":8},"D":{"a":8,"b":2}},"conditions":["nonSeqFull","nonSeqPartial","seqNoFeedback","seqFeedback"],"classroomPairings":[["A","B"],["C","D"]],"coinWeights":[0.2,0.5,0.8],"subjectId":"A2E0LU8V4EUX5C","assignmentId":"3G5W44VEU84A2LZ0GA33T4RZ9HZKGM","hitId":"3AQN9REUTF20OMGWRXYK787QVFOYDP","url":"https://gershmanlab.com/experiments/alicia/teaching/experiment/?hitId=3AQN9REUTF20OMGWRXYK787QVFOYDP&workerId=A2E0LU8V4EUX5C&assignmentId=3G5W44VEU84A2LZ0GA33T4RZ9HZKGM&a=E45G9&tp_a=E45G9&b=3G5W44VEU84A2LZ0GA33T4RZ9HZKGM&tp_b=3G5W44VEU84A2LZ0GA33T4RZ9HZKGM&c=365799&tp_c=365799","heads":1,"tails":4,"studentIndex":7,"studentTrueHypers":{"a":4,"b":1},"studentGuess":0.5,"delta":0.3,"totalExamples":5,"bonusSoFar":1.16},{"rt":null,"stimulus":"Sending examples to student... ","response":null,"trial_type":"html-keyboard-response","trial_index":74,"time_elapsed":772181,"internal_node_id":"0.0-64.0","params":{"nStudents":24,"maxFlips":30,"completionMinutes":45,"basePay":8,"maxBonus":9,"perTrialBonus":0.5,"perTrialBonusThreshold":0.05,"exampleCost":0.01},"classroomParams":{"A":{"a":1,"b":4},"B":{"a":4,"b":1},"C":{"a":2,"b":8},"D":{"a":8,"b":2}},"conditions":["nonSeqFull","nonSeqPartial","seqNoFeedback","seqFeedback"],"classroomPairings":[["A","B"],["C","D"]],"coinWeights":[0.2,0.5,0.8],"subjectId":"A2E0LU8V4EUX5C","assignmentId":"3G5W44VEU84A2LZ0GA33T4RZ9HZKGM","hitId":"3AQN9REUTF20OMGWRXYK787QVFOYDP","url":"https://gershmanlab.com/experiments/alicia/teaching/experiment/?hitId=3AQN9REUTF20OMGWRXYK787QVFOYDP&workerId=A2E0LU8V4EUX5C&assignmentId=3G5W44VEU84A2LZ0GA33T4RZ9HZKGM&a=E45G9&tp_a=E45G9&b=3G5W44VEU84A2LZ0GA33T4RZ9HZKGM&tp_b=3G5W44VEU84A2LZ0GA33T4RZ9HZKGM&c=365799&tp_c=365799"},{"rt":null,"stimulus":"Examples sent to student! Waiting for student...","response":null,"trial_type":"html-keyboard-response","trial_index":75,"time_elapsed":777682,"internal_node_id":"0.0-65.0","params":{"nStudents":24,"maxFlips":30,"completionMinutes":45,"basePay":8,"maxBonus":9,"perTrialBonus":0.5,"perTrialBonusThreshold":0.05,"exampleCost":0.01},"classroomParams":{"A":{"a":1,"b":4},"B":{"a":4,"b":1},"C":{"a":2,"b":8},"D":{"a":8,"b":2}},"conditions":["nonSeqFull","nonSeqPartial","seqNoFeedback","seqFeedback"],"classroomPairings":[["A","B"],["C","D"]],"coinWeights":[0.2,0.5,0.8],"subjectId":"A2E0LU8V4EUX5C","assignmentId":"3G5W44VEU84A2LZ0GA33T4RZ9HZKGM","hitId":"3AQN9REUTF20OMGWRXYK787QVFOYDP","url":"https://gershmanlab.com/experiments/alicia/teaching/experiment/?hitId=3AQN9REUTF20OMGWRXYK787QVFOYDP&workerId=A2E0LU8V4EUX5C&assignmentId=3G5W44VEU84A2LZ0GA33T4RZ9HZKGM&a=E45G9&tp_a=E45G9&b=3G5W44VEU84A2LZ0GA33T4RZ9HZKGM&tp_b=3G5W44VEU84A2LZ0GA33T4RZ9HZKGM&c=365799&tp_c=365799"},{"rt":2953,"stimulus":"\n                <p>Student's guess for coin weight: <b style=\"color:Tomato;\">0.50</b></p>\n                <p></b></p>\n                <p>You will now send another set of examples to your student. <b>Remember to take your student's guess into consideration so that you can earn the highest bonus possible!</b> </p>\n                <p>Press any key to continue.</p>\n                ","response":"enter","trial_type":"html-keyboard-response","trial_index":76,"time_elapsed":780636,"internal_node_id":"0.0-66.0","params":{"nStudents":24,"maxFlips":30,"completionMinutes":45,"basePay":8,"maxBonus":9,"perTrialBonus":0.5,"perTrialBonusThreshold":0.05,"exampleCost":0.01},"classroomParams":{"A":{"a":1,"b":4},"B":{"a":4,"b":1},"C":{"a":2,"b":8},"D":{"a":8,"b":2}},"conditions":["nonSeqFull","nonSeqPartial","seqNoFeedback","seqFeedback"],"classroomPairings":[["A","B"],["C","D"]],"coinWeights":[0.2,0.5,0.8],"subjectId":"A2E0LU8V4EUX5C","assignmentId":"3G5W44VEU84A2LZ0GA33T4RZ9HZKGM","hitId":"3AQN9REUTF20OMGWRXYK787QVFOYDP","url":"https://gershmanlab.com/experiments/alicia/teaching/experiment/?hitId=3AQN9REUTF20OMGWRXYK787QVFOYDP&workerId=A2E0LU8V4EUX5C&assignmentId=3G5W44VEU84A2LZ0GA33T4RZ9HZKGM&a=E45G9&tp_a=E45G9&b=3G5W44VEU84A2LZ0GA33T4RZ9HZKGM&tp_b=3G5W44VEU84A2LZ0GA33T4RZ9HZKGM&c=365799&tp_c=365799"},{"rt":12215,"response":{"heads":"1","tails":"5"},"type":"response","condition":"seqFeedback","trueTheta":0.2,"classrooms":["A","B"],"studentTrueClassroom":"B","exampleSet":"second","trial_type":"survey-html-form","trial_index":77,"time_elapsed":792852,"internal_node_id":"0.0-67.0-0.0","params":{"nStudents":24,"maxFlips":30,"completionMinutes":45,"basePay":8,"maxBonus":9,"perTrialBonus":0.5,"perTrialBonusThreshold":0.05,"exampleCost":0.01},"classroomParams":{"A":{"a":1,"b":4},"B":{"a":4,"b":1},"C":{"a":2,"b":8},"D":{"a":8,"b":2}},"conditions":["nonSeqFull","nonSeqPartial","seqNoFeedback","seqFeedback"],"classroomPairings":[["A","B"],["C","D"]],"coinWeights":[0.2,0.5,0.8],"subjectId":"A2E0LU8V4EUX5C","assignmentId":"3G5W44VEU84A2LZ0GA33T4RZ9HZKGM","hitId":"3AQN9REUTF20OMGWRXYK787QVFOYDP","url":"https://gershmanlab.com/experiments/alicia/teaching/experiment/?hitId=3AQN9REUTF20OMGWRXYK787QVFOYDP&workerId=A2E0LU8V4EUX5C&assignmentId=3G5W44VEU84A2LZ0GA33T4RZ9HZKGM&a=E45G9&tp_a=E45G9&b=3G5W44VEU84A2LZ0GA33T4RZ9HZKGM&tp_b=3G5W44VEU84A2LZ0GA33T4RZ9HZKGM&c=365799&tp_c=365799","firstResponseHeads":1,"firstResponseTails":4,"secondResponseHeads":1,"secondResponseTails":5,"totalHeads":2,"totalTails":9,"studentIndex":7,"studentTrueHypers":{"a":4,"b":1},"studentGuess":0.375,"delta":0.175,"bonus":0,"bonusSoFar":1.16,"totalExamples":11},{"rt":null,"stimulus":"Sending examples to student... ","response":null,"trial_type":"html-keyboard-response","trial_index":78,"time_elapsed":794103,"internal_node_id":"0.0-68.0","params":{"nStudents":24,"maxFlips":30,"completionMinutes":45,"basePay":8,"maxBonus":9,"perTrialBonus":0.5,"perTrialBonusThreshold":0.05,"exampleCost":0.01},"classroomParams":{"A":{"a":1,"b":4},"B":{"a":4,"b":1},"C":{"a":2,"b":8},"D":{"a":8,"b":2}},"conditions":["nonSeqFull","nonSeqPartial","seqNoFeedback","seqFeedback"],"classroomPairings":[["A","B"],["C","D"]],"coinWeights":[0.2,0.5,0.8],"subjectId":"A2E0LU8V4EUX5C","assignmentId":"3G5W44VEU84A2LZ0GA33T4RZ9HZKGM","hitId":"3AQN9REUTF20OMGWRXYK787QVFOYDP","url":"https://gershmanlab.com/experiments/alicia/teaching/experiment/?hitId=3AQN9REUTF20OMGWRXYK787QVFOYDP&workerId=A2E0LU8V4EUX5C&assignmentId=3G5W44VEU84A2LZ0GA33T4RZ9HZKGM&a=E45G9&tp_a=E45G9&b=3G5W44VEU84A2LZ0GA33T4RZ9HZKGM&tp_b=3G5W44VEU84A2LZ0GA33T4RZ9HZKGM&c=365799&tp_c=365799"},{"rt":null,"stimulus":"Examples sent to student! Waiting for student...","response":null,"trial_type":"html-keyboard-response","trial_index":79,"time_elapsed":798105,"internal_node_id":"0.0-69.0","params":{"nStudents":24,"maxFlips":30,"completionMinutes":45,"basePay":8,"maxBonus":9,"perTrialBonus":0.5,"perTrialBonusThreshold":0.05,"exampleCost":0.01},"classroomParams":{"A":{"a":1,"b":4},"B":{"a":4,"b":1},"C":{"a":2,"b":8},"D":{"a":8,"b":2}},"conditions":["nonSeqFull","nonSeqPartial","seqNoFeedback","seqFeedback"],"classroomPairings":[["A","B"],["C","D"]],"coinWeights":[0.2,0.5,0.8],"subjectId":"A2E0LU8V4EUX5C","assignmentId":"3G5W44VEU84A2LZ0GA33T4RZ9HZKGM","hitId":"3AQN9REUTF20OMGWRXYK787QVFOYDP","url":"https://gershmanlab.com/experiments/alicia/teaching/experiment/?hitId=3AQN9REUTF20OMGWRXYK787QVFOYDP&workerId=A2E0LU8V4EUX5C&assignmentId=3G5W44VEU84A2LZ0GA33T4RZ9HZKGM&a=E45G9&tp_a=E45G9&b=3G5W44VEU84A2LZ0GA33T4RZ9HZKGM&tp_b=3G5W44VEU84A2LZ0GA33T4RZ9HZKGM&c=365799&tp_c=365799"},{"rt":3490,"stimulus":"\n                <p>Student 8's first guess for coin weight: <b style=\"color:Tomato\";>0.50</b></p>\n                <p>Student 8's second guess for coin weight: <b style=\"color:Tomato\";>0.38</b></p>\n                <p>You received a bonus of <b>$0.00</b> based on the student's second guess.</p>\n                <p>Total bonus so far: <b>$1.16</b></p>\n                <p>Press any key to continue.</p>\n                ","response":".","trial_type":"html-keyboard-response","trial_index":80,"time_elapsed":801597,"internal_node_id":"0.0-70.0","params":{"nStudents":24,"maxFlips":30,"completionMinutes":45,"basePay":8,"maxBonus":9,"perTrialBonus":0.5,"perTrialBonusThreshold":0.05,"exampleCost":0.01},"classroomParams":{"A":{"a":1,"b":4},"B":{"a":4,"b":1},"C":{"a":2,"b":8},"D":{"a":8,"b":2}},"conditions":["nonSeqFull","nonSeqPartial","seqNoFeedback","seqFeedback"],"classroomPairings":[["A","B"],["C","D"]],"coinWeights":[0.2,0.5,0.8],"subjectId":"A2E0LU8V4EUX5C","assignmentId":"3G5W44VEU84A2LZ0GA33T4RZ9HZKGM","hitId":"3AQN9REUTF20OMGWRXYK787QVFOYDP","url":"https://gershmanlab.com/experiments/alicia/teaching/experiment/?hitId=3AQN9REUTF20OMGWRXYK787QVFOYDP&workerId=A2E0LU8V4EUX5C&assignmentId=3G5W44VEU84A2LZ0GA33T4RZ9HZKGM&a=E45G9&tp_a=E45G9&b=3G5W44VEU84A2LZ0GA33T4RZ9HZKGM&tp_b=3G5W44VEU84A2LZ0GA33T4RZ9HZKGM&c=365799&tp_c=365799"},{"rt":null,"stimulus":"<div style=\"font-size:60px;\">Next student</div>","response":null,"trial_type":"html-keyboard-response","trial_index":81,"time_elapsed":803599,"internal_node_id":"0.0-71.0-0.0","params":{"nStudents":24,"maxFlips":30,"completionMinutes":45,"basePay":8,"maxBonus":9,"perTrialBonus":0.5,"perTrialBonusThreshold":0.05,"exampleCost":0.01},"classroomParams":{"A":{"a":1,"b":4},"B":{"a":4,"b":1},"C":{"a":2,"b":8},"D":{"a":8,"b":2}},"conditions":["nonSeqFull","nonSeqPartial","seqNoFeedback","seqFeedback"],"classroomPairings":[["A","B"],["C","D"]],"coinWeights":[0.2,0.5,0.8],"subjectId":"A2E0LU8V4EUX5C","assignmentId":"3G5W44VEU84A2LZ0GA33T4RZ9HZKGM","hitId":"3AQN9REUTF20OMGWRXYK787QVFOYDP","url":"https://gershmanlab.com/experiments/alicia/teaching/experiment/?hitId=3AQN9REUTF20OMGWRXYK787QVFOYDP&workerId=A2E0LU8V4EUX5C&assignmentId=3G5W44VEU84A2LZ0GA33T4RZ9HZKGM&a=E45G9&tp_a=E45G9&b=3G5W44VEU84A2LZ0GA33T4RZ9HZKGM&tp_b=3G5W44VEU84A2LZ0GA33T4RZ9HZKGM&c=365799&tp_c=365799"},{"rt":5083,"stimulus":"\n            <h4 style=\"color:Orange;\">Student 9</h4>\n            <h2>The weight of your coin is <b style=\"color:Tomato;\">0.5</b>.</h2>\n            <p>In this block, you will be giving <b>two</b> sets of examples to Student 9.</p>\n                <p>You will receive feedback at the end of the block.</p>\n            <p></p>","response":0,"trial_type":"html-button-response","trial_index":82,"time_elapsed":808683,"internal_node_id":"0.0-72.0","params":{"nStudents":24,"maxFlips":30,"completionMinutes":45,"basePay":8,"maxBonus":9,"perTrialBonus":0.5,"perTrialBonusThreshold":0.05,"exampleCost":0.01},"classroomParams":{"A":{"a":1,"b":4},"B":{"a":4,"b":1},"C":{"a":2,"b":8},"D":{"a":8,"b":2}},"conditions":["nonSeqFull","nonSeqPartial","seqNoFeedback","seqFeedback"],"classroomPairings":[["A","B"],["C","D"]],"coinWeights":[0.2,0.5,0.8],"subjectId":"A2E0LU8V4EUX5C","assignmentId":"3G5W44VEU84A2LZ0GA33T4RZ9HZKGM","hitId":"3AQN9REUTF20OMGWRXYK787QVFOYDP","url":"https://gershmanlab.com/experiments/alicia/teaching/experiment/?hitId=3AQN9REUTF20OMGWRXYK787QVFOYDP&workerId=A2E0LU8V4EUX5C&assignmentId=3G5W44VEU84A2LZ0GA33T4RZ9HZKGM&a=E45G9&tp_a=E45G9&b=3G5W44VEU84A2LZ0GA33T4RZ9HZKGM&tp_b=3G5W44VEU84A2LZ0GA33T4RZ9HZKGM&c=365799&tp_c=365799"},{"rt":9983,"response":{"heads":"5","tails":"5"},"type":"response","condition":"seqNoFeedback","trueTheta":0.5,"classrooms":["A","B"],"studentTrueClassroom":"A","exampleSet":"first","trial_type":"survey-html-form","trial_index":83,"time_elapsed":818668,"internal_node_id":"0.0-73.0-0.0","params":{"nStudents":24,"maxFlips":30,"completionMinutes":45,"basePay":8,"maxBonus":9,"perTrialBonus":0.5,"perTrialBonusThreshold":0.05,"exampleCost":0.01},"classroomParams":{"A":{"a":1,"b":4},"B":{"a":4,"b":1},"C":{"a":2,"b":8},"D":{"a":8,"b":2}},"conditions":["nonSeqFull","nonSeqPartial","seqNoFeedback","seqFeedback"],"classroomPairings":[["A","B"],["C","D"]],"coinWeights":[0.2,0.5,0.8],"subjectId":"A2E0LU8V4EUX5C","assignmentId":"3G5W44VEU84A2LZ0GA33T4RZ9HZKGM","hitId":"3AQN9REUTF20OMGWRXYK787QVFOYDP","url":"https://gershmanlab.com/experiments/alicia/teaching/experiment/?hitId=3AQN9REUTF20OMGWRXYK787QVFOYDP&workerId=A2E0LU8V4EUX5C&assignmentId=3G5W44VEU84A2LZ0GA33T4RZ9HZKGM&a=E45G9&tp_a=E45G9&b=3G5W44VEU84A2LZ0GA33T4RZ9HZKGM&tp_b=3G5W44V