[{"rt":3724,"stimulus":"Welcome to the experiment. Press any key to begin.","response":" ","trial_type":"html-keyboard-response","trial_index":0,"time_elapsed":3734,"internal_node_id":"0.0-0.0","params":{"nStudents":24,"maxFlips":30,"completionMinutes":45,"basePay":8,"maxBonus":9,"perTrialBonus":0.5,"perTrialBonusThreshold":0.05,"exampleCost":0.01},"classroomParams":{"A":{"a":1,"b":4},"B":{"a":4,"b":1},"C":{"a":2,"b":8},"D":{"a":8,"b":2}},"conditions":["nonSeqFull","nonSeqPartial","seqNoFeedback","seqFeedback"],"classroomPairings":[["A","B"],["C","D"]],"coinWeights":[0.2,0.5,0.8],"subjectId":"A2EI075XZT9Y2S","assignmentId":"3QFUFYSY9Z1JAJE2KYA5422RBG9F4S","hitId":"3AQN9REUTF20OMGWRXYK787QVFOYDP","url":"https://gershmanlab.com/experiments/alicia/teaching/experiment/?hitId=3AQN9REUTF20OMGWRXYK787QVFOYDP&workerId=A2EI075XZT9Y2S&assignmentId=3QFUFYSY9Z1JAJE2KYA5422RBG9F4S&a=YFFQ9&tp_a=YFFQ9&b=3QFUFYSY9Z1JAJE2KYA5422RBG9F4S&tp_b=3QFUFYSY9Z1JAJE2KYA5422RBG9F4S&c=365799&tp_c=365799"},{"rt":2942,"stimulus":"\n        <h3>Please read this consent agreement carefully before deciding whether to participate in this experiment.</h3>\n        <p><b>Purpose of the research:</b> To examine how people teach effectively.</p>\n        <p><b>What you will do in this research:</b> You will teach students the weights of different coins.</p>\n        <p><b>Time required:</b> This experiment will take 45 minutes to complete.</p>\n        <p><b>Risks:</b> There are no anticipated risks associated with participating in this study.             The effects of participating should be comparable to those you would experience from viewing a computer monitor             and using a mouse and keyboard for the duration of the experiment.</p>\n        <p><b>Benefits:</b> The study provides important information about the nature of teaching.</p>\n        <p><b>Compensation:</b> You will receive <b>$8</b> for completing the experiment and a performance bonus of up to <b>$9</b>.</p>\n        <p><b>Confidentiality:</b> Your participation in this study will remain confidential.             No personally identifiable information will be associated with your data.             Your de-identified data may be shared with other researchers and used in future projects.</p>\n        <p><b>Participation and withdrawal:</b> Your participation in this study is completely voluntary and             you may refuse to participate or you may choose to withdraw at any time without penalty or loss of\n            benefits to which you are otherwise entitled.</p>\n        <p><b>How to contact the researcher:</b> If you have questions or concerns about your participation            or payment, or want to request a summary of research findings, please contact\n            Alicia Chen, aliciachen@college.harvard.edu.</p>\n        <p><b>Whom to contact about your rights in this research:</b> For questions, concerns, suggestions,             or complaints that have not been or cannot be addressed by the researcher, or to report             research-related harm, please contact the Committee on the Use of Human Subjects in Research at Harvard University,             1414 Massachusetts Avenue, Second Floor, Cambridge, MA 02138. Phone: 617-496-2847. Email: cuhs@fas.harvard.edu.</p>\n        ","response":0,"trial_type":"html-button-response","trial_index":1,"time_elapsed":6678,"internal_node_id":"0.0-1.0","params":{"nStudents":24,"maxFlips":30,"completionMinutes":45,"basePay":8,"maxBonus":9,"perTrialBonus":0.5,"perTrialBonusThreshold":0.05,"exampleCost":0.01},"classroomParams":{"A":{"a":1,"b":4},"B":{"a":4,"b":1},"C":{"a":2,"b":8},"D":{"a":8,"b":2}},"conditions":["nonSeqFull","nonSeqPartial","seqNoFeedback","seqFeedback"],"classroomPairings":[["A","B"],["C","D"]],"coinWeights":[0.2,0.5,0.8],"subjectId":"A2EI075XZT9Y2S","assignmentId":"3QFUFYSY9Z1JAJE2KYA5422RBG9F4S","hitId":"3AQN9REUTF20OMGWRXYK787QVFOYDP","url":"https://gershmanlab.com/experiments/alicia/teaching/experiment/?hitId=3AQN9REUTF20OMGWRXYK787QVFOYDP&workerId=A2EI075XZT9Y2S&assignmentId=3QFUFYSY9Z1JAJE2KYA5422RBG9F4S&a=YFFQ9&tp_a=YFFQ9&b=3QFUFYSY9Z1JAJE2KYA5422RBG9F4S&tp_b=3QFUFYSY9Z1JAJE2KYA5422RBG9F4S&c=365799&tp_c=365799"},{"view_history":[{"page_index":0,"viewing_time":248387},{"page_index":1,"viewing_time":33745},{"page_index":2,"viewing_time":96084},{"page_index":3,"viewing_time":66663},{"page_index":4,"viewing_time":21022},{"page_index":5,"viewing_time":33484},{"page_index":6,"viewing_time":52305}],"rt":551690,"trial_type":"instructions","trial_index":2,"time_elapsed":558368,"internal_node_id":"0.0-2.0-0.0","params":{"nStudents":24,"maxFlips":30,"completionMinutes":45,"basePay":8,"maxBonus":9,"perTrialBonus":0.5,"perTrialBonusThreshold":0.05,"exampleCost":0.01},"classroomParams":{"A":{"a":1,"b":4},"B":{"a":4,"b":1},"C":{"a":2,"b":8},"D":{"a":8,"b":2}},"conditions":["nonSeqFull","nonSeqPartial","seqNoFeedback","seqFeedback"],"classroomPairings":[["A","B"],["C","D"]],"coinWeights":[0.2,0.5,0.8],"subjectId":"A2EI075XZT9Y2S","assignmentId":"3QFUFYSY9Z1JAJE2KYA5422RBG9F4S","hitId":"3AQN9REUTF20OMGWRXYK787QVFOYDP","url":"https://gershmanlab.com/experiments/alicia/teaching/experiment/?hitId=3AQN9REUTF20OMGWRXYK787QVFOYDP&workerId=A2EI075XZT9Y2S&assignmentId=3QFUFYSY9Z1JAJE2KYA5422RBG9F4S&a=YFFQ9&tp_a=YFFQ9&b=3QFUFYSY9Z1JAJE2KYA5422RBG9F4S&tp_b=3QFUFYSY9Z1JAJE2KYA5422RBG9F4S&c=365799&tp_c=365799"},{"rt":172667,"response":{"Q0":"Students in different classrooms will have seen a different number of heads and tails before seeing the examples you select for them.","Q1":"By <b>considering the student's classroom information</b> so that I can teach efficiently and accurately/helpfully at the same time (because each example I give to the student costs money!).","Q2":"The coin lands heads 90% of the time.","Q3":"No, I will teach a <b>new</b> student each time.","Q4":"The students are also on the same alien planet as you, where coins can be unfair.","Q5":"Based on the student's second (and final) guess."},"question_order":[0,5,4,3,1,2],"trial_type":"survey-multi-choice","trial_index":3,"time_elapsed":731036,"internal_node_id":"0.0-2.0-1.0","params":{"nStudents":24,"maxFlips":30,"completionMinutes":45,"basePay":8,"maxBonus":9,"perTrialBonus":0.5,"perTrialBonusThreshold":0.05,"exampleCost":0.01},"classroomParams":{"A":{"a":1,"b":4},"B":{"a":4,"b":1},"C":{"a":2,"b":8},"D":{"a":8,"b":2}},"conditions":["nonSeqFull","nonSeqPartial","seqNoFeedback","seqFeedback"],"classroomPairings":[["A","B"],["C","D"]],"coinWeights":[0.2,0.5,0.8],"subjectId":"A2EI075XZT9Y2S","assignmentId":"3QFUFYSY9Z1JAJE2KYA5422RBG9F4S","hitId":"3AQN9REUTF20OMGWRXYK787QVFOYDP","url":"https://gershmanlab.com/experiments/alicia/teaching/experiment/?hitId=3AQN9REUTF20OMGWRXYK787QVFOYDP&workerId=A2EI075XZT9Y2S&assignmentId=3QFUFYSY9Z1JAJE2KYA5422RBG9F4S&a=YFFQ9&tp_a=YFFQ9&b=3QFUFYSY9Z1JAJE2KYA5422RBG9F4S&tp_b=3QFUFYSY9Z1JAJE2KYA5422RBG9F4S&c=365799&tp_c=365799","pass":true},{"rt":null,"stimulus":"<div style=\"font-size:30px;\">Congrats on passing the comprehension quiz! The experiment will begin in a few seconds.</div>","response":null,"trial_type":"html-keyboard-response","trial_index":4,"time_elapsed":734042,"internal_node_id":"0.0-3.0","params":{"nStudents":24,"maxFlips":30,"completionMinutes":45,"basePay":8,"maxBonus":9,"perTrialBonus":0.5,"perTrialBonusThreshold":0.05,"exampleCost":0.01},"classroomParams":{"A":{"a":1,"b":4},"B":{"a":4,"b":1},"C":{"a":2,"b":8},"D":{"a":8,"b":2}},"conditions":["nonSeqFull","nonSeqPartial","seqNoFeedback","seqFeedback"],"classroomPairings":[["A","B"],["C","D"]],"coinWeights":[0.2,0.5,0.8],"subjectId":"A2EI075XZT9Y2S","assignmentId":"3QFUFYSY9Z1JAJE2KYA5422RBG9F4S","hitId":"3AQN9REUTF20OMGWRXYK787QVFOYDP","url":"https://gershmanlab.com/experiments/alicia/teaching/experiment/?hitId=3AQN9REUTF20OMGWRXYK787QVFOYDP&workerId=A2EI075XZT9Y2S&assignmentId=3QFUFYSY9Z1JAJE2KYA5422RBG9F4S&a=YFFQ9&tp_a=YFFQ9&b=3QFUFYSY9Z1JAJE2KYA5422RBG9F4S&tp_b=3QFUFYSY9Z1JAJE2KYA5422RBG9F4S&c=365799&tp_c=365799"},{"rt":null,"stimulus":"<div style=\"font-size:50px;\">First student</div>","response":null,"trial_type":"html-keyboard-response","trial_index":5,"time_elapsed":737050,"internal_node_id":"0.0-4.0","params":{"nStudents":24,"maxFlips":30,"completionMinutes":45,"basePay":8,"maxBonus":9,"perTrialBonus":0.5,"perTrialBonusThreshold":0.05,"exampleCost":0.01},"classroomParams":{"A":{"a":1,"b":4},"B":{"a":4,"b":1},"C":{"a":2,"b":8},"D":{"a":8,"b":2}},"conditions":["nonSeqFull","nonSeqPartial","seqNoFeedback","seqFeedback"],"classroomPairings":[["A","B"],["C","D"]],"coinWeights":[0.2,0.5,0.8],"subjectId":"A2EI075XZT9Y2S","assignmentId":"3QFUFYSY9Z1JAJE2KYA5422RBG9F4S","hitId":"3AQN9REUTF20OMGWRXYK787QVFOYDP","url":"https://gershmanlab.com/experiments/alicia/teaching/experiment/?hitId=3AQN9REUTF20OMGWRXYK787QVFOYDP&workerId=A2EI075XZT9Y2S&assignmentId=3QFUFYSY9Z1JAJE2KYA5422RBG9F4S&a=YFFQ9&tp_a=YFFQ9&b=3QFUFYSY9Z1JAJE2KYA5422RBG9F4S&tp_b=3QFUFYSY9Z1JAJE2KYA5422RBG9F4S&c=365799&tp_c=365799"},{"rt":15106,"stimulus":"\n            <h4 style=\"color:Orange;\">Student 1</h4>\n            <h2>The weight of your coin is <b style=\"color:Tomato;\">0.2</b>.</h2>\n            <p>In this block, you will be giving <b>two</b> sets of examples to Student 1.</p>\n                <p>You will receive feedback at the end of the block.</p>\n            <p></p>","response":0,"trial_type":"html-button-response","trial_index":6,"time_elapsed":752157,"internal_node_id":"0.0-5.0","params":{"nStudents":24,"maxFlips":30,"completionMinutes":45,"basePay":8,"maxBonus":9,"perTrialBonus":0.5,"perTrialBonusThreshold":0.05,"exampleCost":0.01},"classroomParams":{"A":{"a":1,"b":4},"B":{"a":4,"b":1},"C":{"a":2,"b":8},"D":{"a":8,"b":2}},"conditions":["nonSeqFull","nonSeqPartial","seqNoFeedback","seqFeedback"],"classroomPairings":[["A","B"],["C","D"]],"coinWeights":[0.2,0.5,0.8],"subjectId":"A2EI075XZT9Y2S","assignmentId":"3QFUFYSY9Z1JAJE2KYA5422RBG9F4S","hitId":"3AQN9REUTF20OMGWRXYK787QVFOYDP","url":"https://gershmanlab.com/experiments/alicia/teaching/experiment/?hitId=3AQN9REUTF20OMGWRXYK787QVFOYDP&workerId=A2EI075XZT9Y2S&assignmentId=3QFUFYSY9Z1JAJE2KYA5422RBG9F4S&a=YFFQ9&tp_a=YFFQ9&b=3QFUFYSY9Z1JAJE2KYA5422RBG9F4S&tp_b=3QFUFYSY9Z1JAJE2KYA5422RBG9F4S&c=365799&tp_c=365799"},{"rt":60743,"response":{"heads":"1","tails":"4"},"type":"response","condition":"seqNoFeedback","trueTheta":0.2,"classrooms":["A","B"],"studentTrueClassroom":"A","exampleSet":"first","trial_type":"survey-html-form","trial_index":7,"time_elapsed":812901,"internal_node_id":"0.0-6.0-0.0","params":{"nStudents":24,"maxFlips":30,"completionMinutes":45,"basePay":8,"maxBonus":9,"perTrialBonus":0.5,"perTrialBonusThreshold":0.05,"exampleCost":0.01},"classroomParams":{"A":{"a":1,"b":4},"B":{"a":4,"b":1},"C":{"a":2,"b":8},"D":{"a":8,"b":2}},"conditions":["nonSeqFull","nonSeqPartial","seqNoFeedback","seqFeedback"],"classroomPairings":[["A","B"],["C","D"]],"coinWeights":[0.2,0.5,0.8],"subjectId":"A2EI075XZT9Y2S","assignmentId":"3QFUFYSY9Z1JAJE2KYA5422RBG9F4S","hitId":"3AQN9REUTF20OMGWRXYK787QVFOYDP","url":"https://gershmanlab.com/experiments/alicia/teaching/experiment/?hitId=3AQN9REUTF20OMGWRXYK787QVFOYDP&workerId=A2EI075XZT9Y2S&assignmentId=3QFUFYSY9Z1JAJE2KYA5422RBG9F4S&a=YFFQ9&tp_a=YFFQ9&b=3QFUFYSY9Z1JAJE2KYA5422RBG9F4S&tp_b=3QFUFYSY9Z1JAJE2KYA5422RBG9F4S&c=365799&tp_c=365799","heads":1,"tails":4,"studentIndex":0,"studentTrueHypers":{"a":1,"b":4},"studentGuess":0.2,"delta":0,"totalExamples":5,"bonusSoFar":0},{"rt":null,"stimulus":"Sending examples to student... ","response":null,"trial_type":"html-keyboard-response","trial_index":8,"time_elapsed":814417,"internal_node_id":"0.0-7.0","params":{"nStudents":24,"maxFlips":30,"completionMinutes":45,"basePay":8,"maxBonus":9,"perTrialBonus":0.5,"perTrialBonusThreshold":0.05,"exampleCost":0.01},"classroomParams":{"A":{"a":1,"b":4},"B":{"a":4,"b":1},"C":{"a":2,"b":8},"D":{"a":8,"b":2}},"conditions":["nonSeqFull","nonSeqPartial","seqNoFeedback","seqFeedback"],"classroomPairings":[["A","B"],["C","D"]],"coinWeights":[0.2,0.5,0.8],"subjectId":"A2EI075XZT9Y2S","assignmentId":"3QFUFYSY9Z1JAJE2KYA5422RBG9F4S","hitId":"3AQN9REUTF20OMGWRXYK787QVFOYDP","url":"https://gershmanlab.com/experiments/alicia/teaching/experiment/?hitId=3AQN9REUTF20OMGWRXYK787QVFOYDP&workerId=A2EI075XZT9Y2S&assignmentId=3QFUFYSY9Z1JAJE2KYA5422RBG9F4S&a=YFFQ9&tp_a=YFFQ9&b=3QFUFYSY9Z1JAJE2KYA5422RBG9F4S&tp_b=3QFUFYSY9Z1JAJE2KYA5422RBG9F4S&c=365799&tp_c=365799"},{"rt":null,"stimulus":"Examples sent to student! Waiting for student...","response":null,"trial_type":"html-keyboard-response","trial_index":9,"time_elapsed":818933,"internal_node_id":"0.0-8.0","params":{"nStudents":24,"maxFlips":30,"completionMinutes":45,"basePay":8,"maxBonus":9,"perTrialBonus":0.5,"perTrialBonusThreshold":0.05,"exampleCost":0.01},"classroomParams":{"A":{"a":1,"b":4},"B":{"a":4,"b":1},"C":{"a":2,"b":8},"D":{"a":8,"b":2}},"conditions":["nonSeqFull","nonSeqPartial","seqNoFeedback","seqFeedback"],"classroomPairings":[["A","B"],["C","D"]],"coinWeights":[0.2,0.5,0.8],"subjectId":"A2EI075XZT9Y2S","assignmentId":"3QFUFYSY9Z1JAJE2KYA5422RBG9F4S","hitId":"3AQN9REUTF20OMGWRXYK787QVFOYDP","url":"https://gershmanlab.com/experiments/alicia/teaching/experiment/?hitId=3AQN9REUTF20OMGWRXYK787QVFOYDP&workerId=A2EI075XZT9Y2S&assignmentId=3QFUFYSY9Z1JAJE2KYA5422RBG9F4S&a=YFFQ9&tp_a=YFFQ9&b=3QFUFYSY9Z1JAJE2KYA5422RBG9F4S&tp_b=3QFUFYSY9Z1JAJE2KYA5422RBG9F4S&c=365799&tp_c=365799"},{"rt":31201,"response":{"heads":"1","tails":"5"},"type":"response","condition":"seqNoFeedback","trueTheta":0.2,"classrooms":["A","B"],"studentTrueClassroom":"A","exampleSet":"second","trial_type":"survey-html-form","trial_index":10,"time_elapsed":850135,"internal_node_id":"0.0-9.0-0.0","params":{"nStudents":24,"maxFlips":30,"completionMinutes":45,"basePay":8,"maxBonus":9,"perTrialBonus":0.5,"perTrialBonusThreshold":0.05,"exampleCost":0.01},"classroomParams":{"A":{"a":1,"b":4},"B":{"a":4,"b":1},"C":{"a":2,"b":8},"D":{"a":8,"b":2}},"conditions":["nonSeqFull","nonSeqPartial","seqNoFeedback","seqFeedback"],"classroomPairings":[["A","B"],["C","D"]],"coinWeights":[0.2,0.5,0.8],"subjectId":"A2EI075XZT9Y2S","assignmentId":"3QFUFYSY9Z1JAJE2KYA5422RBG9F4S","hitId":"3AQN9REUTF20OMGWRXYK787QVFOYDP","url":"https://gershmanlab.com/experiments/alicia/teaching/experiment/?hitId=3AQN9REUTF20OMGWRXYK787QVFOYDP&workerId=A2EI075XZT9Y2S&assignmentId=3QFUFYSY9Z1JAJE2KYA5422RBG9F4S&a=YFFQ9&tp_a=YFFQ9&b=3QFUFYSY9Z1JAJE2KYA5422RBG9F4S&tp_b=3QFUFYSY9Z1JAJE2KYA5422RBG9F4S&c=365799&tp_c=365799","firstResponseHeads":1,"firstResponseTails":4,"secondResponseHeads":1,"secondResponseTails":5,"totalHeads":2,"totalTails":9,"studentIndex":0,"studentTrueHypers":{"a":1,"b":4},"studentGuess":0.1875,"delta":0.012500000000000011,"bonus":0.39,"bonusSoFar":0.39,"totalExamples":11},{"rt":null,"stimulus":"Sending examples to student... ","response":null,"trial_type":"html-keyboard-response","trial_index":11,"time_elapsed":851642,"internal_node_id":"0.0-10.0","params":{"nStudents":24,"maxFlips":30,"completionMinutes":45,"basePay":8,"maxBonus":9,"perTrialBonus":0.5,"perTrialBonusThreshold":0.05,"exampleCost":0.01},"classroomParams":{"A":{"a":1,"b":4},"B":{"a":4,"b":1},"C":{"a":2,"b":8},"D":{"a":8,"b":2}},"conditions":["nonSeqFull","nonSeqPartial","seqNoFeedback","seqFeedback"],"classroomPairings":[["A","B"],["C","D"]],"coinWeights":[0.2,0.5,0.8],"subjectId":"A2EI075XZT9Y2S","assignmentId":"3QFUFYSY9Z1JAJE2KYA5422RBG9F4S","hitId":"3AQN9REUTF20OMGWRXYK787QVFOYDP","url":"https://gershmanlab.com/experiments/alicia/teaching/experiment/?hitId=3AQN9REUTF20OMGWRXYK787QVFOYDP&workerId=A2EI075XZT9Y2S&assignmentId=3QFUFYSY9Z1JAJE2KYA5422RBG9F4S&a=YFFQ9&tp_a=YFFQ9&b=3QFUFYSY9Z1JAJE2KYA5422RBG9F4S&tp_b=3QFUFYSY9Z1JAJE2KYA5422RBG9F4S&c=365799&tp_c=365799"},{"rt":null,"stimulus":"Examples sent to student! Waiting for student...","response":null,"trial_type":"html-keyboard-response","trial_index":12,"time_elapsed":855643,"internal_node_id":"0.0-11.0","params":{"nStudents":24,"maxFlips":30,"completionMinutes":45,"basePay":8,"maxBonus":9,"perTrialBonus":0.5,"perTrialBonusThreshold":0.05,"exampleCost":0.01},"classroomParams":{"A":{"a":1,"b":4},"B":{"a":4,"b":1},"C":{"a":2,"b":8},"D":{"a":8,"b":2}},"conditions":["nonSeqFull","nonSeqPartial","seqNoFeedback","seqFeedback"],"classroomPairings":[["A","B"],["C","D"]],"coinWeights":[0.2,0.5,0.8],"subjectId":"A2EI075XZT9Y2S","assignmentId":"3QFUFYSY9Z1JAJE2KYA5422RBG9F4S","hitId":"3AQN9REUTF20OMGWRXYK787QVFOYDP","url":"https://gershmanlab.com/experiments/alicia/teaching/experiment/?hitId=3AQN9REUTF20OMGWRXYK787QVFOYDP&workerId=A2EI075XZT9Y2S&assignmentId=3QFUFYSY9Z1JAJE2KYA5422RBG9F4S&a=YFFQ9&tp_a=YFFQ9&b=3QFUFYSY9Z1JAJE2KYA5422RBG9F4S&tp_b=3QFUFYSY9Z1JAJE2KYA5422RBG9F4S&c=365799&tp_c=365799"},{"rt":20019,"stimulus":"\n                <p>Student 1's first guess for coin weight: <b style=\"color:Tomato\";>0.20</b></p>\n                <p>Student 1's second guess for coin weight: <b style=\"color:Tomato\";>0.19</b></p>\n                <p>You received a bonus of <b>$0.39</b> based on the student's second guess.</p>\n                <p>Total bonus so far: <b>$0.39</b></p>\n                <p>Press any key to continue.</p>\n                ","response":" ","trial_type":"html-keyboard-response","trial_index":13,"time_elapsed":875664,"internal_node_id":"0.0-12.0","params":{"nStudents":24,"maxFlips":30,"completionMinutes":45,"basePay":8,"maxBonus":9,"perTrialBonus":0.5,"perTrialBonusThreshold":0.05,"exampleCost":0.01},"classroomParams":{"A":{"a":1,"b":4},"B":{"a":4,"b":1},"C":{"a":2,"b":8},"D":{"a":8,"b":2}},"conditions":["nonSeqFull","nonSeqPartial","seqNoFeedback","seqFeedback"],"classroomPairings":[["A","B"],["C","D"]],"coinWeights":[0.2,0.5,0.8],"subjectId":"A2EI075XZT9Y2S","assignmentId":"3QFUFYSY9Z1JAJE2KYA5422RBG9F4S","hitId":"3AQN9REUTF20OMGWRXYK787QVFOYDP","url":"https://gershmanlab.com/experiments/alicia/teaching/experiment/?hitId=3AQN9REUTF20OMGWRXYK787QVFOYDP&workerId=A2EI075XZT9Y2S&assignmentId=3QFUFYSY9Z1JAJE2KYA5422RBG9F4S&a=YFFQ9&tp_a=YFFQ9&b=3QFUFYSY9Z1JAJE2KYA5422RBG9F4S&tp_b=3QFUFYSY9Z1JAJE2KYA5422RBG9F4S&c=365799&tp_c=365799"},{"rt":null,"stimulus":"<div style=\"font-size:60px;\">Next student</div>","response":null,"trial_type":"html-keyboard-response","trial_index":14,"time_elapsed":878670,"internal_node_id":"0.0-13.0-0.0","params":{"nStudents":24,"maxFlips":30,"completionMinutes":45,"basePay":8,"maxBonus":9,"perTrialBonus":0.5,"perTrialBonusThreshold":0.05,"exampleCost":0.01},"classroomParams":{"A":{"a":1,"b":4},"B":{"a":4,"b":1},"C":{"a":2,"b":8},"D":{"a":8,"b":2}},"conditions":["nonSeqFull","nonSeqPartial","seqNoFeedback","seqFeedback"],"classroomPairings":[["A","B"],["C","D"]],"coinWeights":[0.2,0.5,0.8],"subjectId":"A2EI075XZT9Y2S","assignmentId":"3QFUFYSY9Z1JAJE2KYA5422RBG9F4S","hitId":"3AQN9REUTF20OMGWRXYK787QVFOYDP","url":"https://gershmanlab.com/experiments/alicia/teaching/experiment/?hitId=3AQN9REUTF20OMGWRXYK787QVFOYDP&workerId=A2EI075XZT9Y2S&assignmentId=3QFUFYSY9Z1JAJE2KYA5422RBG9F4S&a=YFFQ9&tp_a=YFFQ9&b=3QFUFYSY9Z1JAJE2KYA5422RBG9F4S&tp_b=3QFUFYSY9Z1JAJE2KYA5422RBG9F4S&c=365799&tp_c=365799"},{"rt":8741,"stimulus":"\n            <h4 style=\"color:Orange;\">Student 2</h4>\n            <h2>The weight of your coin is <b style=\"color:Tomato;\">0.2</b>.</h2>\n            <p>In this block, you will be giving <b>one</b> set of examples to Student 2.</p>\n                <p>You will receive feedback at the end of the block.</p>\n            <p></p>","response":0,"trial_type":"html-button-response","trial_index":15,"time_elapsed":887412,"internal_node_id":"0.0-14.0","params":{"nStudents":24,"maxFlips":30,"completionMinutes":45,"basePay":8,"maxBonus":9,"perTrialBonus":0.5,"perTrialBonusThreshold":0.05,"exampleCost":0.01},"classroomParams":{"A":{"a":1,"b":4},"B":{"a":4,"b":1},"C":{"a":2,"b":8},"D":{"a":8,"b":2}},"conditions":["nonSeqFull","nonSeqPartial","seqNoFeedback","seqFeedback"],"classroomPairings":[["A","B"],["C","D"]],"coinWeights":[0.2,0.5,0.8],"subjectId":"A2EI075XZT9Y2S","assignmentId":"3QFUFYSY9Z1JAJE2KYA5422RBG9F4S","hitId":"3AQN9REUTF20OMGWRXYK787QVFOYDP","url":"https://gershmanlab.com/experiments/alicia/teaching/experiment/?hitId=3AQN9REUTF20OMGWRXYK787QVFOYDP&workerId=A2EI075XZT9Y2S&assignmentId=3QFUFYSY9Z1JAJE2KYA5422RBG9F4S&a=YFFQ9&tp_a=YFFQ9&b=3QFUFYSY9Z1JAJE2KYA5422RBG9F4S&tp_b=3QFUFYSY9Z1JAJE2KYA5422RBG9F4S&c=365799&tp_c=365799"},{"rt":18040,"response":{"heads":"1","tails":"4"},"type":"response","condition":"nonSeqPartial","trueTheta":0.2,"classrooms":["A","B"],"studentTrueClassroom":"A","exampleSet":"first","trial_type":"survey-html-form","trial_index":16,"time_elapsed":905453,"internal_node_id":"0.0-15.0-0.0","params":{"nStudents":24,"maxFlips":30,"completionMinutes":45,"basePay":8,"maxBonus":9,"perTrialBonus":0.5,"perTrialBonusThreshold":0.05,"exampleCost":0.01},"classroomParams":{"A":{"a":1,"b":4},"B":{"a":4,"b":1},"C":{"a":2,"b":8},"D":{"a":8,"b":2}},"conditions":["nonSeqFull","nonSeqPartial","seqNoFeedback","seqFeedback"],"classroomPairings":[["A","B"],["C","D"]],"coinWeights":[0.2,0.5,0.8],"subjectId":"A2EI075XZT9Y2S","assignmentId":"3QFUFYSY9Z1JAJE2KYA5422RBG9F4S","hitId":"3AQN9REUTF20OMGWRXYK787QVFOYDP","url":"https://gershmanlab.com/experiments/alicia/teaching/experiment/?hitId=3AQN9REUTF20OMGWRXYK787QVFOYDP&workerId=A2EI075XZT9Y2S&assignmentId=3QFUFYSY9Z1JAJE2KYA5422RBG9F4S&a=YFFQ9&tp_a=YFFQ9&b=3QFUFYSY9Z1JAJE2KYA5422RBG9F4S&tp_b=3QFUFYSY9Z1JAJE2KYA5422RBG9F4S&c=365799&tp_c=365799","heads":1,"tails":4,"studentIndex":1,"studentTrueHypers":{"a":1,"b":4},"studentGuess":0.2,"delta":0,"totalExamples":5,"bonus":0.45,"bonusSoFar":0.84},{"rt":null,"stimulus":"Sending examples to student... ","response":null,"trial_type":"html-keyboard-response","trial_index":17,"time_elapsed":907457,"internal_node_id":"0.0-16.0","params":{"nStudents":24,"maxFlips":30,"completionMinutes":45,"basePay":8,"maxBonus":9,"perTrialBonus":0.5,"perTrialBonusThreshold":0.05,"exampleCost":0.01},"classroomParams":{"A":{"a":1,"b":4},"B":{"a":4,"b":1},"C":{"a":2,"b":8},"D":{"a":8,"b":2}},"conditions":["nonSeqFull","nonSeqPartial","seqNoFeedback","seqFeedback"],"classroomPairings":[["A","B"],["C","D"]],"coinWeights":[0.2,0.5,0.8],"subjectId":"A2EI075XZT9Y2S","assignmentId":"3QFUFYSY9Z1JAJE2KYA5422RBG9F4S","hitId":"3AQN9REUTF20OMGWRXYK787QVFOYDP","url":"https://gershmanlab.com/experiments/alicia/teaching/experiment/?hitId=3AQN9REUTF20OMGWRXYK787QVFOYDP&workerId=A2EI075XZT9Y2S&assignmentId=3QFUFYSY9Z1JAJE2KYA5422RBG9F4S&a=YFFQ9&tp_a=YFFQ9&b=3QFUFYSY9Z1JAJE2KYA5422RBG9F4S&tp_b=3QFUFYSY9Z1JAJE2KYA5422RBG9F4S&c=365799&tp_c=365799"},{"rt":null,"stimulus":"Examples sent to student! Waiting for student...","response":null,"trial_type":"html-keyboard-response","trial_index":18,"time_elapsed":914044,"internal_node_id":"0.0-17.0","params":{"nStudents":24,"maxFlips":30,"completionMinutes":45,"basePay":8,"maxBonus":9,"perTrialBonus":0.5,"perTrialBonusThreshold":0.05,"exampleCost":0.01},"classroomParams":{"A":{"a":1,"b":4},"B":{"a":4,"b":1},"C":{"a":2,"b":8},"D":{"a":8,"b":2}},"conditions":["nonSeqFull","nonSeqPartial","seqNoFeedback","seqFeedback"],"classroomPairings":[["A","B"],["C","D"]],"coinWeights":[0.2,0.5,0.8],"subjectId":"A2EI075XZT9Y2S","assignmentId":"3QFUFYSY9Z1JAJE2KYA5422RBG9F4S","hitId":"3AQN9REUTF20OMGWRXYK787QVFOYDP","url":"https://gershmanlab.com/experiments/alicia/teaching/experiment/?hitId=3AQN9REUTF20OMGWRXYK787QVFOYDP&workerId=A2EI075XZT9Y2S&assignmentId=3QFUFYSY9Z1JAJE2KYA5422RBG9F4S&a=YFFQ9&tp_a=YFFQ9&b=3QFUFYSY9Z1JAJE2KYA5422RBG9F4S&tp_b=3QFUFYSY9Z1JAJE2KYA5422RBG9F4S&c=365799&tp_c=365799"},{"rt":9856,"stimulus":"\n                <p>Student's guess for coin weight: <b style=\"color:Tomato;\">0.20</b></p>\n                <p>You received a bonus of <b>$0.45</b>. Total bonus so far: <b>$0.84</b></b></p>\n                <p></p>\n                <p>Press any key to continue.</p>\n                ","response":" ","trial_type":"html-keyboard-response","trial_index":19,"time_elapsed":923901,"internal_node_id":"0.0-18.0","params":{"nStudents":24,"maxFlips":30,"completionMinutes":45,"basePay":8,"maxBonus":9,"perTrialBonus":0.5,"perTrialBonusThreshold":0.05,"exampleCost":0.01},"classroomParams":{"A":{"a":1,"b":4},"B":{"a":4,"b":1},"C":{"a":2,"b":8},"D":{"a":8,"b":2}},"conditions":["nonSeqFull","nonSeqPartial","seqNoFeedback","seqFeedback"],"classroomPairings":[["A","B"],["C","D"]],"coinWeights":[0.2,0.5,0.8],"subjectId":"A2EI075XZT9Y2S","assignmentId":"3QFUFYSY9Z1JAJE2KYA5422RBG9F4S","hitId":"3AQN9REUTF20OMGWRXYK787QVFOYDP","url":"https://gershmanlab.com/experiments/alicia/teaching/experiment/?hitId=3AQN9REUTF20OMGWRXYK787QVFOYDP&workerId=A2EI075XZT9Y2S&assignmentId=3QFUFYSY9Z1JAJE2KYA5422RBG9F4S&a=YFFQ9&tp_a=YFFQ9&b=3QFUFYSY9Z1JAJE2KYA5422RBG9F4S&tp_b=3QFUFYSY9Z1JAJE2KYA5422RBG9F4S&c=365799&tp_c=365799"},{"rt":null,"stimulus":"<div style=\"font-size:60px;\">Next student</div>","response":null,"trial_type":"html-keyboard-response","trial_index":20,"time_elapsed":926402,"internal_node_id":"0.0-19.0-0.0","params":{"nStudents":24,"maxFlips":30,"completionMinutes":45,"basePay":8,"maxBonus":9,"perTrialBonus":0.5,"perTrialBonusThreshold":0.05,"exampleCost":0.01},"classroomParams":{"A":{"a":1,"b":4},"B":{"a":4,"b":1},"C":{"a":2,"b":8},"D":{"a":8,"b":2}},"conditions":["nonSeqFull","nonSeqPartial","seqNoFeedback","seqFeedback"],"classroomPairings":[["A","B"],["C","D"]],"coinWeights":[0.2,0.5,0.8],"subjectId":"A2EI075XZT9Y2S","assignmentId":"3QFUFYSY9Z1JAJE2KYA5422RBG9F4S","hitId":"3AQN9REUTF20OMGWRXYK787QVFOYDP","url":"https://gershmanlab.com/experiments/alicia/teaching/experiment/?hitId=3AQN9REUTF20OMGWRXYK787QVFOYDP&workerId=A2EI075XZT9Y2S&assignmentId=3QFUFYSY9Z1JAJE2KYA5422RBG9F4S&a=YFFQ9&tp_a=YFFQ9&b=3QFUFYSY9Z1JAJE2KYA5422RBG9F4S&tp_b=3QFUFYSY9Z1JAJE2KYA5422RBG9F4S&c=365799&tp_c=365799"},{"rt":18404,"stimulus":"\n            <h4 style=\"color:Orange;\">Student 3</h4>\n            <h2>The weight of your coin is <b style=\"color:Tomato;\">0.5</b>.</h2>\n            <p>In this block, you will be giving <b>two</b> sets of examples to Student 3.</p>\n                <p>You will see the student's guess after the first set of examples. You will also receive feedback at the end of the block.</p>\n            <p>To earn the highest bonus, you will have to <b>take into consideration the student's guess</b> when you choose your second set of examples.</p>","response":0,"trial_type":"html-button-response","trial_index":21,"time_elapsed":944807,"internal_node_id":"0.0-20.0","params":{"nStudents":24,"maxFlips":30,"completionMinutes":45,"basePay":8,"maxBonus":9,"perTrialBonus":0.5,"perTrialBonusThreshold":0.05,"exampleCost":0.01},"classroomParams":{"A":{"a":1,"b":4},"B":{"a":4,"b":1},"C":{"a":2,"b":8},"D":{"a":8,"b":2}},"conditions":["nonSeqFull","nonSeqPartial","seqNoFeedback","seqFeedback"],"classroomPairings":[["A","B"],["C","D"]],"coinWeights":[0.2,0.5,0.8],"subjectId":"A2EI075XZT9Y2S","assignmentId":"3QFUFYSY9Z1JAJE2KYA5422RBG9F4S","hitId":"3AQN9REUTF20OMGWRXYK787QVFOYDP","url":"https://gershmanlab.com/experiments/alicia/teaching/experiment/?hitId=3AQN9REUTF20OMGWRXYK787QVFOYDP&workerId=A2EI075XZT9Y2S&assignmentId=3QFUFYSY9Z1JAJE2KYA5422RBG9F4S&a=YFFQ9&tp_a=YFFQ9&b=3QFUFYSY9Z1JAJE2KYA5422RBG9F4S&tp_b=3QFUFYSY9Z1JAJE2KYA5422RBG9F4S&c=365799&tp_c=365799"},{"rt":21935,"response":{"heads":"3","tails":"3"},"type":"response","condition":"seqFeedback","trueTheta":0.5,"classrooms":["A","B"],"studentTrueClassroom":"A","exampleSet":"first","trial_type":"survey-html-form","trial_index":22,"time_elapsed":966743,"internal_node_id":"0.0-21.0-0.0","params":{"nStudents":24,"maxFlips":30,"completionMinutes":45,"basePay":8,"maxBonus":9,"perTrialBonus":0.5,"perTrialBonusThreshold":0.05,"exampleCost":0.01},"classroomParams":{"A":{"a":1,"b":4},"B":{"a":4,"b":1},"C":{"a":2,"b":8},"D":{"a":8,"b":2}},"conditions":["nonSeqFull","nonSeqPartial","seqNoFeedback","seqFeedback"],"classroomPairings":[["A","B"],["C","D"]],"coinWeights":[0.2,0.5,0.8],"subjectId":"A2EI075XZT9Y2S","assignmentId":"3QFUFYSY9Z1JAJE2KYA5422RBG9F4S","hitId":"3AQN9REUTF20OMGWRXYK787QVFOYDP","url":"https://gershmanlab.com/experiments/alicia/teaching/experiment/?hitId=3AQN9REUTF20OMGWRXYK787QVFOYDP&workerId=A2EI075XZT9Y2S&assignmentId=3QFUFYSY9Z1JAJE2KYA5422RBG9F4S&a=YFFQ9&tp_a=YFFQ9&b=3QFUFYSY9Z1JAJE2KYA5422RBG9F4S&tp_b=3QFUFYSY9Z1JAJE2KYA5422RBG9F4S&c=365799&tp_c=365799","heads":3,"tails":3,"studentIndex":2,"studentTrueHypers":{"a":1,"b":4},"studentGuess":0.36363636363636365,"delta":0.13636363636363635,"totalExamples":6,"bonusSoFar":0.84},{"rt":null,"stimulus":"Sending examples to student... ","response":null,"trial_type":"html-keyboard-response","trial_index":23,"time_elapsed":968751,"internal_node_id":"0.0-22.0","params":{"nStudents":24,"maxFlips":30,"completionMinutes":45,"basePay":8,"maxBonus":9,"perTrialBonus":0.5,"perTrialBonusThreshold":0.05,"exampleCost":0.01},"classroomParams":{"A":{"a":1,"b":4},"B":{"a":4,"b":1},"C":{"a":2,"b":8},"D":{"a":8,"b":2}},"conditions":["nonSeqFull","nonSeqPartial","seqNoFeedback","seqFeedback"],"classroomPairings":[["A","B"],["C","D"]],"coinWeights":[0.2,0.5,0.8],"subjectId":"A2EI075XZT9Y2S","assignmentId":"3QFUFYSY9Z1JAJE2KYA5422RBG9F4S","hitId":"3AQN9REUTF20OMGWRXYK787QVFOYDP","url":"https://gershmanlab.com/experiments/alicia/teaching/experiment/?hitId=3AQN9REUTF20OMGWRXYK787QVFOYDP&workerId=A2EI075XZT9Y2S&assignmentId=3QFUFYSY9Z1JAJE2KYA5422RBG9F4S&a=YFFQ9&tp_a=YFFQ9&b=3QFUFYSY9Z1JAJE2KYA5422RBG9F4S&tp_b=3QFUFYSY9Z1JAJE2KYA5422RBG9F4S&c=365799&tp_c=365799"},{"rt":null,"stimulus":"Examples sent to student! Waiting for student...","response":null,"trial_type":"html-keyboard-response","trial_index":24,"time_elapsed":973254,"internal_node_id":"0.0-23.0","params":{"nStudents":24,"maxFlips":30,"completionMinutes":45,"basePay":8,"maxBonus":9,"perTrialBonus":0.5,"perTrialBonusThreshold":0.05,"exampleCost":0.01},"classroomParams":{"A":{"a":1,"b":4},"B":{"a":4,"b":1},"C":{"a":2,"b":8},"D":{"a":8,"b":2}},"conditions":["nonSeqFull","nonSeqPartial","seqNoFeedback","seqFeedback"],"classroomPairings":[["A","B"],["C","D"]],"coinWeights":[0.2,0.5,0.8],"subjectId":"A2EI075XZT9Y2S","assignmentId":"3QFUFYSY9Z1JAJE2KYA5422RBG9F4S","hitId":"3AQN9REUTF20OMGWRXYK787QVFOYDP","url":"https://gershmanlab.com/experiments/alicia/teaching/experiment/?hitId=3AQN9REUTF20OMGWRXYK787QVFOYDP&workerId=A2EI075XZT9Y2S&assignmentId=3QFUFYSY9Z1JAJE2KYA5422RBG9F4S&a=YFFQ9&tp_a=YFFQ9&b=3QFUFYSY9Z1JAJE2KYA5422RBG9F4S&tp_b=3QFUFYSY9Z1JAJE2KYA5422RBG9F4S&c=365799&tp_c=365799"},{"rt":12099,"stimulus":"\n                <p>Student's guess for coin weight: <b style=\"color:Tomato;\">0.36</b></p>\n                <p></b></p>\n                <p>You will now send another set of examples to your student. <b>Remember to take your student's guess into consideration so that you can earn the highest bonus possible!</b> </p>\n                <p>Press any key to continue.</p>\n                ","response":" ","trial_type":"html-keyboard-response","trial_index":25,"time_elapsed":985354,"internal_node_id":"0.0-24.0","params":{"nStudents":24,"maxFlips":30,"completionMinutes":45,"basePay":8,"maxBonus":9,"perTrialBonus":0.5,"perTrialBonusThreshold":0.05,"exampleCost":0.01},"classroomParams":{"A":{"a":1,"b":4},"B":{"a":4,"b":1},"C":{"a":2,"b":8},"D":{"a":8,"b":2}},"conditions":["nonSeqFull","nonSeqPartial","seqNoFeedback","seqFeedback"],"classroomPairings":[["A","B"],["C","D"]],"coinWeights":[0.2,0.5,0.8],"subjectId":"A2EI075XZT9Y2S","assignmentId":"3QFUFYSY9Z1JAJE2KYA5422RBG9F4S","hitId":"3AQN9REUTF20OMGWRXYK787QVFOYDP","url":"https://gershmanlab.com/experiments/alicia/teaching/experiment/?hitId=3AQN9REUTF20OMGWRXYK787QVFOYDP&workerId=A2EI075XZT9Y2S&assignmentId=3QFUFYSY9Z1JAJE2KYA5422RBG9F4S&a=YFFQ9&tp_a=YFFQ9&b=3QFUFYSY9Z1JAJE2KYA5422RBG9F4S&tp_b=3QFUFYSY9Z1JAJE2KYA5422RBG9F4S&c=365799&tp_c=365799"},{"rt":13772,"response":{"heads":"3","tails":"2"},"type":"response","condition":"seqFeedback","trueTheta":0.5,"classrooms":["A","B"],"studentTrueClassroom":"A","exampleSet":"second","trial_type":"survey-html-form","trial_index":26,"time_elapsed":999128,"internal_node_id":"0.0-25.0-0.0","params":{"nStudents":24,"maxFlips":30,"completionMinutes":45,"basePay":8,"maxBonus":9,"perTrialBonus":0.5,"perTrialBonusThreshold":0.05,"exampleCost":0.01},"classroomParams":{"A":{"a":1,"b":4},"B":{"a":4,"b":1},"C":{"a":2,"b":8},"D":{"a":8,"b":2}},"conditions":["nonSeqFull","nonSeqPartial","seqNoFeedback","seqFeedback"],"classroomPairings":[["A","B"],["C","D"]],"coinWeights":[0.2,0.5,0.8],"subjectId":"A2EI075XZT9Y2S","assignmentId":"3QFUFYSY9Z1JAJE2KYA5422RBG9F4S","hitId":"3AQN9REUTF20OMGWRXYK787QVFOYDP","url":"https://gershmanlab.com/experiments/alicia/teaching/experiment/?hitId=3AQN9REUTF20OMGWRXYK787QVFOYDP&workerId=A2EI075XZT9Y2S&assignmentId=3QFUFYSY9Z1JAJE2KYA5422RBG9F4S&a=YFFQ9&tp_a=YFFQ9&b=3QFUFYSY9Z1JAJE2KYA5422RBG9F4S&tp_b=3QFUFYSY9Z1JAJE2KYA5422RBG9F4S&c=365799&tp_c=365799","firstResponseHeads":3,"firstResponseTails":3,"secondResponseHeads":3,"secondResponseTails":2,"totalHeads":6,"totalTails":5,"studentIndex":2,"studentTrueHypers":{"a":1,"b":4},"studentGuess":0.4375,"delta":0.0625,"bonus":0,"bonusSoFar":0.84,"totalExamples":11},{"rt":null,"stimulus":"Sending examples to student... ","response":null,"trial_type":"html-keyboard-response","trial_index":27,"time_elapsed":1000389,"internal_node_id":"0.0-26.0","params":{"nStudents":24,"maxFlips":30,"completionMinutes":45,"basePay":8,"maxBonus":9,"perTrialBonus":0.5,"perTrialBonusThreshold":0.05,"exampleCost":0.01},"classroomParams":{"A":{"a":1,"b":4},"B":{"a":4,"b":1},"C":{"a":2,"b":8},"D":{"a":8,"b":2}},"conditions":["nonSeqFull","nonSeqPartial","seqNoFeedback","seqFeedback"],"classroomPairings":[["A","B"],["C","D"]],"coinWeights":[0.2,0.5,0.8],"subjectId":"A2EI075XZT9Y2S","assignmentId":"3QFUFYSY9Z1JAJE2KYA5422RBG9F4S","hitId":"3AQN9REUTF20OMGWRXYK787QVFOYDP","url":"https://gershmanlab.com/experiments/alicia/teaching/experiment/?hitId=3AQN9REUTF20OMGWRXYK787QVFOYDP&workerId=A2EI075XZT9Y2S&assignmentId=3QFUFYSY9Z1JAJE2KYA5422RBG9F4S&a=YFFQ9&tp_a=YFFQ9&b=3QFUFYSY9Z1JAJE2KYA5422RBG9F4S&tp_b=3QFUFYSY9Z1JAJE2KYA5422RBG9F4S&c=365799&tp_c=365799"},{"rt":null,"stimulus":"Examples sent to student! Waiting for student...","response":null,"trial_type":"html-keyboard-response","trial_index":28,"time_elapsed":1004904,"internal_node_id":"0.0-27.0","params":{"nStudents":24,"maxFlips":30,"completionMinutes":45,"basePay":8,"maxBonus":9,"perTrialBonus":0.5,"perTrialBonusThreshold":0.05,"exampleCost":0.01},"classroomParams":{"A":{"a":1,"b":4},"B":{"a":4,"b":1},"C":{"a":2,"b":8},"D":{"a":8,"b":2}},"conditions":["nonSeqFull","nonSeqPartial","seqNoFeedback","seqFeedback"],"classroomPairings":[["A","B"],["C","D"]],"coinWeights":[0.2,0.5,0.8],"subjectId":"A2EI075XZT9Y2S","assignmentId":"3QFUFYSY9Z1JAJE2KYA5422RBG9F4S","hitId":"3AQN9REUTF20OMGWRXYK787QVFOYDP","url":"https://gershmanlab.com/experiments/alicia/teaching/experiment/?hitId=3AQN9REUTF20OMGWRXYK787QVFOYDP&workerId=A2EI075XZT9Y2S&assignmentId=3QFUFYSY9Z1JAJE2KYA5422RBG9F4S&a=YFFQ9&tp_a=YFFQ9&b=3QFUFYSY9Z1JAJE2KYA5422RBG9F4S&tp_b=3QFUFYSY9Z1JAJE2KYA5422RBG9F4S&c=365799&tp_c=365799"},{"rt":10872,"stimulus":"\n                <p>Student 3's first guess for coin weight: <b style=\"color:Tomato\";>0.36</b></p>\n                <p>Student 3's second guess for coin weight: <b style=\"color:Tomato\";>0.44</b></p>\n                <p>You received a bonus of <b>$0.00</b> based on the student's second guess.</p>\n                <p>Total bonus so far: <b>$0.84</b></p>\n                <p>Press any key to continue.</p>\n                ","response":" ","trial_type":"html-keyboard-response","trial_index":29,"time_elapsed":1015778,"internal_node_id":"0.0-28.0","params":{"nStudents":24,"maxFlips":30,"completionMinutes":45,"basePay":8,"maxBonus":9,"perTrialBonus":0.5,"perTrialBonusThreshold":0.05,"exampleCost":0.01},"classroomParams":{"A":{"a":1,"b":4},"B":{"a":4,"b":1},"C":{"a":2,"b":8},"D":{"a":8,"b":2}},"conditions":["nonSeqFull","nonSeqPartial","seqNoFeedback","seqFeedback"],"classroomPairings":[["A","B"],["C","D"]],"coinWeights":[0.2,0.5,0.8],"subjectId":"A2EI075XZT9Y2S","assignmentId":"3QFUFYSY9Z1JAJE2KYA5422RBG9F4S","hitId":"3AQN9REUTF20OMGWRXYK787QVFOYDP","url":"https://gershmanlab.com/experiments/alicia/teaching/experiment/?hitId=3AQN9REUTF20OMGWRXYK787QVFOYDP&workerId=A2EI075XZT9Y2S&assignmentId=3QFUFYSY9Z1JAJE2KYA5422RBG9F4S&a=YFFQ9&tp_a=YFFQ9&b=3QFUFYSY9Z1JAJE2KYA5422RBG9F4S&tp_b=3QFUFYSY9Z1JAJE2KYA5422RBG9F4S&c=365799&tp_c=365799"},{"rt":null,"stimulus":"<div style=\"font-size:60px;\">Next student</div>","response":null,"trial_type":"html-keyboard-response","trial_index":30,"time_elapsed":1018279,"internal_node_id":"0.0-29.0-0.0","params":{"nStudents":24,"maxFlips":30,"completionMinutes":45,"basePay":8,"maxBonus":9,"perTrialBonus":0.5,"perTrialBonusThreshold":0.05,"exampleCost":0.01},"classroomParams":{"A":{"a":1,"b":4},"B":{"a":4,"b":1},"C":{"a":2,"b":8},"D":{"a":8,"b":2}},"conditions":["nonSeqFull","nonSeqPartial","seqNoFeedback","seqFeedback"],"classroomPairings":[["A","B"],["C","D"]],"coinWeights":[0.2,0.5,0.8],"subjectId":"A2EI075XZT9Y2S","assignmentId":"3QFUFYSY9Z1JAJE2KYA5422RBG9F4S","hitId":"3AQN9REUTF20OMGWRXYK787QVFOYDP","url":"https://gershmanlab.com/experiments/alicia/teaching/experiment/?hitId=3AQN9REUTF20OMGWRXYK787QVFOYDP&workerId=A2EI075XZT9Y2S&assignmentId=3QFUFYSY9Z1JAJE2KYA5422RBG9F4S&a=YFFQ9&tp_a=YFFQ9&b=3QFUFYSY9Z1JAJE2KYA5422RBG9F4S&tp_b=3QFUFYSY9Z1JAJE2KYA5422RBG9F4S&c=365799&tp_c=365799"},{"rt":7580,"stimulus":"\n            <h4 style=\"color:Orange;\">Student 4</h4>\n            <h2>The weight of your coin is <b style=\"color:Tomato;\">0.5</b>.</h2>\n            <p>In this block, you will be giving <b>two</b> sets of examples to Student 4.</p>\n                <p>You will receive feedback at the end of the block.</p>\n            <p></p>","response":0,"trial_type":"html-button-response","trial_index":31,"time_elapsed":1025860,"internal_node_id":"0.0-30.0","params":{"nStudents":24,"maxFlips":30,"completionMinutes":45,"basePay":8,"maxBonus":9,"perTrialBonus":0.5,"perTrialBonusThreshold":0.05,"exampleCost":0.01},"classroomParams":{"A":{"a":1,"b":4},"B":{"a":4,"b":1},"C":{"a":2,"b":8},"D":{"a":8,"b":2}},"conditions":["nonSeqFull","nonSeqPartial","seqNoFeedback","seqFeedback"],"classroomPairings":[["A","B"],["C","D"]],"coinWeights":[0.2,0.5,0.8],"subjectId":"A2EI075XZT9Y2S","assignmentId":"3QFUFYSY9Z1JAJE2KYA5422RBG9F4S","hitId":"3AQN9REUTF20OMGWRXYK787QVFOYDP","url":"https://gershmanlab.com/experiments/alicia/teaching/experiment/?hitId=3AQN9REUTF20OMGWRXYK787QVFOYDP&workerId=A2EI075XZT9Y2S&assignmentId=3QFUFYSY9Z1JAJE2KYA5422RBG9F4S&a=YFFQ9&tp_a=YFFQ9&b=3QFUFYSY9Z1JAJE2KYA5422RBG9F4S&tp_b=3QFUFYSY9Z1JAJE2KYA5422RBG9F4S&c=365799&tp_c=365799"},{"rt":21639,"response":{"heads":"3","tails":"3"},"type":"response","condition":"seqNoFeedback","trueTheta":0.5,"classrooms":["C","D"],"studentTrueClassroom":"D","exampleSet":"first","trial_type":"survey-html-form","trial_index":32,"time_elapsed":1047500,"internal_node_id":"0.0-31.0-0.0","params":{"nStudents":24,"maxFlips":30,"completionMinutes":45,"basePay":8,"maxBonus":9,"perTrialBonus":0.5,"perTrialBonusThreshold":0.05,"exampleCost":0.01},"classroomParams":{"A":{"a":1,"b":4},"B":{"a":4,"b":1},"C":{"a":2,"b":8},"D":{"a":8,"b":2}},"conditions":["nonSeqFull","nonSeqPartial","seqNoFeedback","seqFeedback"],"classroomPairings":[["A","B"],["C","D"]],"coinWeights":[0.2,0.5,0.8],"subjectId":"A2EI075XZT9Y2S","assignmentId":"3QFUFYSY9Z1JAJE2KYA5422RBG9F4S","hitId":"3AQN9REUTF20OMGWRXYK787QVFOYDP","url":"https://gershmanlab.com/experiments/alicia/teaching/experiment/?hitId=3AQN9REUTF20OMGWRXYK787QVFOYDP&workerId=A2EI075XZT9Y2S&assignmentId=3QFUFYSY9Z1JAJE2KYA5422RBG9F4S&a=YFFQ9&tp_a=YFFQ9&b=3QFUFYSY9Z1JAJE2KYA5422RBG9F4S&tp_b=3QFUFYSY9Z1JAJE2KYA5422RBG9F4S&c=365799&tp_c=365799","heads":3,"tails":3,"studentIndex":3,"studentTrueHypers":{"a":8,"b":2},"studentGuess":0.6875,"delta":0.1875,"totalExamples":6,"bonusSoFar":0.84},{"rt":null,"stimulus":"Sending examples to student... ","response":null,"trial_type":"html-keyboard-response","trial_index":33,"time_elapsed":1049011,"internal_node_id":"0.0-32.0","params":{"nStudents":24,"maxFlips":30,"completionMinutes":45,"basePay":8,"maxBonus":9,"perTrialBonus":0.5,"perTrialBonusThreshold":0.05,"exampleCost":0.01},"classroomParams":{"A":{"a":1,"b":4},"B":{"a":4,"b":1},"C":{"a":2,"b":8},"D":{"a":8,"b":2}},"conditions":["nonSeqFull","nonSeqPartial","seqNoFeedback","seqFeedback"],"classroomPairings":[["A","B"],["C","D"]],"coinWeights":[0.2,0.5,0.8],"subjectId":"A2EI075XZT9Y2S","assignmentId":"3QFUFYSY9Z1JAJE2KYA5422RBG9F4S","hitId":"3AQN9REUTF20OMGWRXYK787QVFOYDP","url":"https://gershmanlab.com/experiments/alicia/teaching/experiment/?hitId=3AQN9REUTF20OMGWRXYK787QVFOYDP&workerId=A2EI075XZT9Y2S&assignmentId=3QFUFYSY9Z1JAJE2KYA5422RBG9F4S&a=YFFQ9&tp_a=YFFQ9&b=3QFUFYSY9Z1JAJE2KYA5422RBG9F4S&tp_b=3QFUFYSY9Z1JAJE2KYA5422RBG9F4S&c=365799&tp_c=365799"},{"rt":null,"stimulus":"Examples sent to student! Waiting for student...","response":null,"trial_type":"html-keyboard-response","trial_index":34,"time_elapsed":1054019,"internal_node_id":"0.0-33.0","params":{"nStudents":24,"maxFlips":30,"completionMinutes":45,"basePay":8,"maxBonus":9,"perTrialBonus":0.5,"perTrialBonusThreshold":0.05,"exampleCost":0.01},"classroomParams":{"A":{"a":1,"b":4},"B":{"a":4,"b":1},"C":{"a":2,"b":8},"D":{"a":8,"b":2}},"conditions":["nonSeqFull","nonSeqPartial","seqNoFeedback","seqFeedback"],"classroomPairings":[["A","B"],["C","D"]],"coinWeights":[0.2,0.5,0.8],"subjectId":"A2EI075XZT9Y2S","assignmentId":"3QFUFYSY9Z1JAJE2KYA5422RBG9F4S","hitId":"3AQN9REUTF20OMGWRXYK787QVFOYDP","url":"https://gershmanlab.com/experiments/alicia/teaching/experiment/?hitId=3AQN9REUTF20OMGWRXYK787QVFOYDP&workerId=A2EI075XZT9Y2S&assignmentId=3QFUFYSY9Z1JAJE2KYA5422RBG9F4S&a=YFFQ9&tp_a=YFFQ9&b=3QFUFYSY9Z1JAJE2KYA5422RBG9F4S&tp_b=3QFUFYSY9Z1JAJE2KYA5422RBG9F4S&c=365799&tp_c=365799"},{"rt":13656,"response":{"heads":"3","tails":"3"},"type":"response","condition":"seqNoFeedback","trueTheta":0.5,"classrooms":["C","D"],"studentTrueClassroom":"D","exampleSet":"second","trial_type":"survey-html-form","trial_index":35,"time_elapsed":1067676,"internal_node_id":"0.0-34.0-0.0","params":{"nStudents":24,"maxFlips":30,"completionMinutes":45,"basePay":8,"maxBonus":9,"perTrialBonus":0.5,"perTrialBonusThreshold":0.05,"exampleCost":0.01},"classroomParams":{"A":{"a":1,"b":4},"B":{"a":4,"b":1},"C":{"a":2,"b":8},"D":{"a":8,"b":2}},"conditions":["nonSeqFull","nonSeqPartial","seqNoFeedback","seqFeedback"],"classroomPairings":[["A","B"],["C","D"]],"coinWeights":[0.2,0.5,0.8],"subjectId":"A2EI075XZT9Y2S","assignmentId":"3QFUFYSY9Z1JAJE2KYA5422RBG9F4S","hitId":"3AQN9REUTF20OMGWRXYK787QVFOYDP","url":"https://gershmanlab.com/experiments/alicia/teaching/experiment/?hitId=3AQN9REUTF20OMGWRXYK787QVFOYDP&workerId=A2EI075XZT9Y2S&assignmentId=3QFUFYSY9Z1JAJE2KYA5422RBG9F4S&a=YFFQ9&tp_a=YFFQ9&b=3QFUFYSY9Z1JAJE2KYA5422RBG9F4S&tp_b=3QFUFYSY9Z1JAJE2KYA5422RBG9F4S&c=365799&tp_c=365799","firstResponseHeads":3,"firstResponseTails":3,"secondResponseHeads":3,"secondResponseTails":3,"totalHeads":6,"totalTails":6,"studentIndex":3,"studentTrueHypers":{"a":8,"b":2},"studentGuess":0.6363636363636364,"delta":0.13636363636363635,"bonus":0,"bonusSoFar":0.84,"totalExamples":12},{"rt":null,"stimulus":"Sending examples to student... ","response":null,"trial_type":"html-keyboard-response","trial_index":36,"time_elapsed":1069688,"internal_node_id":"0.0-35.0","params":{"nStudents":24,"maxFlips":30,"completionMinutes":45,"basePay":8,"maxBonus":9,"perTrialBonus":0.5,"perTrialBonusThreshold":0.05,"exampleCost":0.01},"classroomParams":{"A":{"a":1,"b":4},"B":{"a":4,"b":1},"C":{"a":2,"b":8},"D":{"a":8,"b":2}},"conditions":["nonSeqFull","nonSeqPartial","seqNoFeedback","seqFeedback"],"classroomPairings":[["A","B"],["C","D"]],"coinWeights":[0.2,0.5,0.8],"subjectId":"A2EI075XZT9Y2S","assignmentId":"3QFUFYSY9Z1JAJE2KYA5422RBG9F4S","hitId":"3AQN9REUTF20OMGWRXYK787QVFOYDP","url":"https://gershmanlab.com/experiments/alicia/teaching/experiment/?hitId=3AQN9REUTF20OMGWRXYK787QVFOYDP&workerId=A2EI075XZT9Y2S&assignmentId=3QFUFYSY9Z1JAJE2KYA5422RBG9F4S&a=YFFQ9&tp_a=YFFQ9&b=3QFUFYSY9Z1JAJE2KYA5422RBG9F4S&tp_b=3QFUFYSY9Z1JAJE2KYA5422RBG9F4S&c=365799&tp_c=365799"},{"rt":null,"stimulus":"Examples sent to student! Waiting for student...","response":null,"trial_type":"html-keyboard-response","trial_index":37,"time_elapsed":1073694,"internal_node_id":"0.0-36.0","params":{"nStudents":24,"maxFlips":30,"completionMinutes":45,"basePay":8,"maxBonus":9,"perTrialBonus":0.5,"perTrialBonusThreshold":0.05,"exampleCost":0.01},"classroomParams":{"A":{"a":1,"b":4},"B":{"a":4,"b":1},"C":{"a":2,"b":8},"D":{"a":8,"b":2}},"conditions":["nonSeqFull","nonSeqPartial","seqNoFeedback","seqFeedback"],"classroomPairings":[["A","B"],["C","D"]],"coinWeights":[0.2,0.5,0.8],"subjectId":"A2EI075XZT9Y2S","assignmentId":"3QFUFYSY9Z1JAJE2KYA5422RBG9F4S","hitId":"3AQN9REUTF20OMGWRXYK787QVFOYDP","url":"https://gershmanlab.com/experiments/alicia/teaching/experiment/?hitId=3AQN9REUTF20OMGWRXYK787QVFOYDP&workerId=A2EI075XZT9Y2S&assignmentId=3QFUFYSY9Z1JAJE2KYA5422RBG9F4S&a=YFFQ9&tp_a=YFFQ9&b=3QFUFYSY9Z1JAJE2KYA5422RBG9F4S&tp_b=3QFUFYSY9Z1JAJE2KYA5422RBG9F4S&c=365799&tp_c=365799"},{"rt":4894,"stimulus":"\n                <p>Student 4's first guess for coin weight: <b style=\"color:Tomato\";>0.69</b></p>\n                <p>Student 4's second guess for coin weight: <b style=\"color:Tomato\";>0.64</b></p>\n                <p>You received a bonus of <b>$0.00</b> based on the student's second guess.</p>\n                <p>Total bonus so far: <b>$0.84</b></p>\n                <p>Press any key to continue.</p>\n                ","response":" ","trial_type":"html-keyboard-response","trial_index":38,"time_elapsed":1078588,"internal_node_id":"0.0-37.0","params":{"nStudents":24,"maxFlips":30,"completionMinutes":45,"basePay":8,"maxBonus":9,"perTrialBonus":0.5,"perTrialBonusThreshold":0.05,"exampleCost":0.01},"classroomParams":{"A":{"a":1,"b":4},"B":{"a":4,"b":1},"C":{"a":2,"b":8},"D":{"a":8,"b":2}},"conditions":["nonSeqFull","nonSeqPartial","seqNoFeedback","seqFeedback"],"classroomPairings":[["A","B"],["C","D"]],"coinWeights":[0.2,0.5,0.8],"subjectId":"A2EI075XZT9Y2S","assignmentId":"3QFUFYSY9Z1JAJE2KYA5422RBG9F4S","hitId":"3AQN9REUTF20OMGWRXYK787QVFOYDP","url":"https://gershmanlab.com/experiments/alicia/teaching/experiment/?hitId=3AQN9REUTF20OMGWRXYK787QVFOYDP&workerId=A2EI075XZT9Y2S&assignmentId=3QFUFYSY9Z1JAJE2KYA5422RBG9F4S&a=YFFQ9&tp_a=YFFQ9&b=3QFUFYSY9Z1JAJE2KYA5422RBG9F4S&tp_b=3QFUFYSY9Z1JAJE2KYA5422RBG9F4S&c=365799&tp_c=365799"},{"rt":null,"stimulus":"<div style=\"font-size:60px;\">Next student</div>","response":null,"trial_type":"html-keyboard-response","trial_index":39,"time_elapsed":1081595,"internal_node_id":"0.0-38.0-0.0","params":{"nStudents":24,"maxFlips":30,"completionMinutes":45,"basePay":8,"maxBonus":9,"perTrialBonus":0.5,"perTrialBonusThreshold":0.05,"exampleCost":0.01},"classroomParams":{"A":{"a":1,"b":4},"B":{"a":4,"b":1},"C":{"a":2,"b":8},"D":{"a":8,"b":2}},"conditions":["nonSeqFull","nonSeqPartial","seqNoFeedback","seqFeedback"],"classroomPairings":[["A","B"],["C","D"]],"coinWeights":[0.2,0.5,0.8],"subjectId":"A2EI075XZT9Y2S","assignmentId":"3QFUFYSY9Z1JAJE2KYA5422RBG9F4S","hitId":"3AQN9REUTF20OMGWRXYK787QVFOYDP","url":"https://gershmanlab.com/experiments/alicia/teaching/experiment/?hitId=3AQN9REUTF20OMGWRXYK787QVFOYDP&workerId=A2EI075XZT9Y2S&assignmentId=3QFUFYSY9Z1JAJE2KYA5422RBG9F4S&a=YFFQ9&tp_a=YFFQ9&b=3QFUFYSY9Z1JAJE2KYA5422RBG9F4S&tp_b=3QFUFYSY9Z1JAJE2KYA5422RBG9F4S&c=365799&tp_c=365799"},{"rt":4626,"stimulus":"\n            <h4 style=\"color:Orange;\">Student 5</h4>\n            <h2>The weight of your coin is <b style=\"color:Tomato;\">0.2</b>.</h2>\n            <p>In this block, you will be giving <b>two</b> sets of examples to Student 5.</p>\n                <p>You will see the student's guess after the first set of examples. You will also receive feedback at the end of the block.</p>\n            <p>To earn the highest bonus, you will have to <b>take into consideration the student's guess</b> when you choose your second set of examples.</p>","response":0,"trial_type":"html-button-response","trial_index":40,"time_elapsed":1086222,"internal_node_id":"0.0-39.0","params":{"nStudents":24,"maxFlips":30,"completionMinutes":45,"basePay":8,"maxBonus":9,"perTrialBonus":0.5,"perTrialBonusThreshold":0.05,"exampleCost":0.01},"classroomParams":{"A":{"a":1,"b":4},"B":{"a":4,"b":1},"C":{"a":2,"b":8},"D":{"a":8,"b":2}},"conditions":["nonSeqFull","nonSeqPartial","seqNoFeedback","seqFeedback"],"classroomPairings":[["A","B"],["C","D"]],"coinWeights":[0.2,0.5,0.8],"subjectId":"A2EI075XZT9Y2S","assignmentId":"3QFUFYSY9Z1JAJE2KYA5422RBG9F4S","hitId":"3AQN9REUTF20OMGWRXYK787QVFOYDP","url":"https://gershmanlab.com/experiments/alicia/teaching/experiment/?hitId=3AQN9REUTF20OMGWRXYK787QVFOYDP&workerId=A2EI075XZT9Y2S&assignmentId=3QFUFYSY9Z1JAJE2KYA5422RBG9F4S&a=YFFQ9&tp_a=YFFQ9&b=3QFUFYSY9Z1JAJE2KYA5422RBG9F4S&tp_b=3QFUFYSY9Z1JAJE2KYA5422RBG9F4S&c=365799&tp_c=365799"},{"rt":29229,"response":{"heads":"1","tails":"4"},"type":"response","condition":"seqFeedback","trueTheta":0.2,"classrooms":["C","D"],"studentTrueClassroom":"D","exampleSet":"first","trial_type":"survey-html-form","trial_index":41,"time_elapsed":1115452,"internal_node_id":"0.0-40.0-0.0","params":{"nStudents":24,"maxFlips":30,"completionMinutes":45,"basePay":8,"maxBonus":9,"perTrialBonus":0.5,"perTrialBonusThreshold":0.05,"exampleCost":0.01},"classroomParams":{"A":{"a":1,"b":4},"B":{"a":4,"b":1},"C":{"a":2,"b":8},"D":{"a":8,"b":2}},"conditions":["nonSeqFull","nonSeqPartial","seqNoFeedback","seqFeedback"],"classroomPairings":[["A","B"],["C","D"]],"coinWeights":[0.2,0.5,0.8],"subjectId":"A2EI075XZT9Y2S","assignmentId":"3QFUFYSY9Z1JAJE2KYA5422RBG9F4S","hitId":"3AQN9REUTF20OMGWRXYK787QVFOYDP","url":"https://gershmanlab.com/experiments/alicia/teaching/experiment/?hitId=3AQN9REUTF20OMGWRXYK787QVFOYDP&workerId=A2EI075XZT9Y2S&assignmentId=3QFUFYSY9Z1JAJE2KYA5422RBG9F4S&a=YFFQ9&tp_a=YFFQ9&b=3QFUFYSY9Z1JAJE2KYA5422RBG9F4S&tp_b=3QFUFYSY9Z1JAJE2KYA5422RBG9F4S&c=365799&tp_c=365799","heads":1,"tails":4,"studentIndex":4,"studentTrueHypers":{"a":8,"b":2},"studentGuess":0.6,"delta":0.39999999999999997,"totalExamples":5,"bonusSoFar":0.84},{"rt":null,"stimulus":"Sending examples to student... ","response":null,"trial_type":"html-keyboard-response","trial_index":42,"time_elapsed":1116962,"internal_node_id":"0.0-41.0","params":{"nStudents":24,"maxFlips":30,"completionMinutes":45,"basePay":8,"maxBonus":9,"perTrialBonus":0.5,"perTrialBonusThreshold":0.05,"exampleCost":0.01},"classroomParams":{"A":{"a":1,"b":4},"B":{"a":4,"b":1},"C":{"a":2,"b":8},"D":{"a":8,"b":2}},"conditions":["nonSeqFull","nonSeqPartial","seqNoFeedback","seqFeedback"],"classroomPairings":[["A","B"],["C","D"]],"coinWeights":[0.2,0.5,0.8],"subjectId":"A2EI075XZT9Y2S","assignmentId":"3QFUFYSY9Z1JAJE2KYA5422RBG9F4S","hitId":"3AQN9REUTF20OMGWRXYK787QVFOYDP","url":"https://gershmanlab.com/experiments/alicia/teaching/experiment/?hitId=3AQN9REUTF20OMGWRXYK787QVFOYDP&workerId=A2EI075XZT9Y2S&assignmentId=3QFUFYSY9Z1JAJE2KYA5422RBG9F4S&a=YFFQ9&tp_a=YFFQ9&b=3QFUFYSY9Z1JAJE2KYA5422RBG9F4S&tp_b=3QFUFYSY9Z1JAJE2KYA5422RBG9F4S&c=365799&tp_c=365799"},{"rt":null,"stimulus":"Examples sent to student! Waiting for student...","response":null,"trial_type":"html-keyboard-response","trial_index":43,"time_elapsed":1120970,"internal_node_id":"0.0-42.0","params":{"nStudents":24,"maxFlips":30,"completionMinutes":45,"basePay":8,"maxBonus":9,"perTrialBonus":0.5,"perTrialBonusThreshold":0.05,"exampleCost":0.01},"classroomParams":{"A":{"a":1,"b":4},"B":{"a":4,"b":1},"C":{"a":2,"b":8},"D":{"a":8,"b":2}},"conditions":["nonSeqFull","nonSeqPartial","seqNoFeedback","seqFeedback"],"classroomPairings":[["A","B"],["C","D"]],"coinWeights":[0.2,0.5,0.8],"subjectId":"A2EI075XZT9Y2S","assignmentId":"3QFUFYSY9Z1JAJE2KYA5422RBG9F4S","hitId":"3AQN9REUTF20OMGWRXYK787QVFOYDP","url":"https://gershmanlab.com/experiments/alicia/teaching/experiment/?hitId=3AQN9REUTF20OMGWRXYK787QVFOYDP&workerId=A2EI075XZT9Y2S&assignmentId=3QFUFYSY9Z1JAJE2KYA5422RBG9F4S&a=YFFQ9&tp_a=YFFQ9&b=3QFUFYSY9Z1JAJE2KYA5422RBG9F4S&tp_b=3QFUFYSY9Z1JAJE2KYA5422RBG9F4S&c=365799&tp_c=365799"},{"rt":7706,"stimulus":"\n                <p>Student's guess for coin weight: <b style=\"color:Tomato;\">0.60</b></p>\n                <p></b></p>\n                <p>You will now send another set of examples to your student. <b>Remember to take your student's guess into consideration so that you can earn the highest bonus possible!</b> </p>\n                <p>Press any key to continue.</p>\n                ","response":" ","trial_type":"html-keyboard-response","trial_index":44,"time_elapsed":1128677,"internal_node_id":"0.0-43.0","params":{"nStudents":24,"maxFlips":30,"completionMinutes":45,"basePay":8,"maxBonus":9,"perTrialBonus":0.5,"perTrialBonusThreshold":0.05,"exampleCost":0.01},"classroomParams":{"A":{"a":1,"b":4},"B":{"a":4,"b":1},"C":{"a":2,"b":8},"D":{"a":8,"b":2}},"conditions":["nonSeqFull","nonSeqPartial","seqNoFeedback","seqFeedback"],"classroomPairings":[["A","B"],["C","D"]],"coinWeights":[0.2,0.5,0.8],"subjectId":"A2EI075XZT9Y2S","assignmentId":"3QFUFYSY9Z1JAJE2KYA5422RBG9F4S","hitId":"3AQN9REUTF20OMGWRXYK787QVFOYDP","url":"https://gershmanlab.com/experiments/alicia/teaching/experiment/?hitId=3AQN9REUTF20OMGWRXYK787QVFOYDP&workerId=A2EI075XZT9Y2S&assignmentId=3QFUFYSY9Z1JAJE2KYA5422RBG9F4S&a=YFFQ9&tp_a=YFFQ9&b=3QFUFYSY9Z1JAJE2KYA5422RBG9F4S&tp_b=3QFUFYSY9Z1JAJE2KYA5422RBG9F4S&c=365799&tp_c=365799"},{"rt":11524,"response":{"heads":"1","tails":"7"},"type":"response","condition":"seqFeedback","trueTheta":0.2,"classrooms":["C","D"],"studentTrueClassroom":"D","exampleSet":"second","trial_type":"survey-html-form","trial_index":45,"time_elapsed":1140202,"internal_node_id":"0.0-44.0-0.0","params":{"nStudents":24,"maxFlips":30,"completionMinutes":45,"basePay":8,"maxBonus":9,"perTrialBonus":0.5,"perTrialBonusThreshold":0.05,"exampleCost":0.01},"classroomParams":{"A":{"a":1,"b":4},"B":{"a":4,"b":1},"C":{"a":2,"b":8},"D":{"a":8,"b":2}},"conditions":["nonSeqFull","nonSeqPartial","seqNoFeedback","seqFeedback"],"classroomPairings":[["A","B"],["C","D"]],"coinWeights":[0.2,0.5,0.8],"subjectId":"A2EI075XZT9Y2S","assignmentId":"3QFUFYSY9Z1JAJE2KYA5422RBG9F4S","hitId":"3AQN9REUTF20OMGWRXYK787QVFOYDP","url":"https://gershmanlab.com/experiments/alicia/teaching/experiment/?hitId=3AQN9REUTF20OMGWRXYK787QVFOYDP&workerId=A2EI075XZT9Y2S&assignmentId=3QFUFYSY9Z1JAJE2KYA5422RBG9F4S&a=YFFQ9&tp_a=YFFQ9&b=3QFUFYSY9Z1JAJE2KYA5422RBG9F4S&tp_b=3QFUFYSY9Z1JAJE2KYA5422RBG9F4S&c=365799&tp_c=365799","firstResponseHeads":1,"firstResponseTails":4,"secondResponseHeads":1,"secondResponseTails":7,"totalHeads":2,"totalTails":11,"studentIndex":4,"studentTrueHypers":{"a":8,"b":2},"studentGuess":0.43478260869565216,"delta":0.23478260869565215,"bonus":0,"bonusSoFar":0.84,"totalExamples":13},{"rt":null,"stimulus":"Sending examples to student... ","response":null,"trial_type":"html-keyboard-response","trial_index":46,"time_elapsed":1141467,"internal_node_id":"0.0-45.0","params":{"nStudents":24,"maxFlips":30,"completionMinutes":45,"basePay":8,"maxBonus":9,"perTrialBonus":0.5,"perTrialBonusThreshold":0.05,"exampleCost":0.01},"classroomParams":{"A":{"a":1,"b":4},"B":{"a":4,"b":1},"C":{"a":2,"b":8},"D":{"a":8,"b":2}},"conditions":["nonSeqFull","nonSeqPartial","seqNoFeedback","seqFeedback"],"classroomPairings":[["A","B"],["C","D"]],"coinWeights":[0.2,0.5,0.8],"subjectId":"A2EI075XZT9Y2S","assignmentId":"3QFUFYSY9Z1JAJE2KYA5422RBG9F4S","hitId":"3AQN9REUTF20OMGWRXYK787QVFOYDP","url":"https://gershmanlab.com/experiments/alicia/teaching/experiment/?hitId=3AQN9REUTF20OMGWRXYK787QVFOYDP&workerId=A2EI075XZT9Y2S&assignmentId=3QFUFYSY9Z1JAJE2KYA5422RBG9F4S&a=YFFQ9&tp_a=YFFQ9&b=3QFUFYSY9Z1JAJE2KYA5422RBG9F4S&tp_b=3QFUFYSY9Z1JAJE2KYA5422RBG9F4S&c=365799&tp_c=365799"},{"rt":null,"stimulus":"Examples sent to student! Waiting for student...","response":null,"trial_type":"html-keyboard-response","trial_index":47,"time_elapsed":1145977,"internal_node_id":"0.0-46.0","params":{"nStudents":24,"maxFlips":30,"completionMinutes":45,"basePay":8,"maxBonus":9,"perTrialBonus":0.5,"perTrialBonusThreshold":0.05,"exampleCost":0.01},"classroomParams":{"A":{"a":1,"b":4},"B":{"a":4,"b":1},"C":{"a":2,"b":8},"D":{"a":8,"b":2}},"conditions":["nonSeqFull","nonSeqPartial","seqNoFeedback","seqFeedback"],"classroomPairings":[["A","B"],["C","D"]],"coinWeights":[0.2,0.5,0.8],"subjectId":"A2EI075XZT9Y2S","assignmentId":"3QFUFYSY9Z1JAJE2KYA5422RBG9F4S","hitId":"3AQN9REUTF20OMGWRXYK787QVFOYDP","url":"https://gershmanlab.com/experiments/alicia/teaching/experiment/?hitId=3AQN9REUTF20OMGWRXYK787QVFOYDP&workerId=A2EI075XZT9Y2S&assignmentId=3QFUFYSY9Z1JAJE2KYA5422RBG9F4S&a=YFFQ9&tp_a=YFFQ9&b=3QFUFYSY9Z1JAJE2KYA5422RBG9F4S&tp_b=3QFUFYSY9Z1JAJE2KYA5422RBG9F4S&c=365799&tp_c=365799"},{"rt":5144,"stimulus":"\n                <p>Student 5's first guess for coin weight: <b style=\"color:Tomato\";>0.60</b></p>\n                <p>Student 5's second guess for coin weight: <b style=\"color:Tomato\";>0.43</b></p>\n                <p>You received a bonus of <b>$0.00</b> based on the student's second guess.</p>\n                <p>Total bonus so far: <b>$0.84</b></p>\n                <p>Press any key to continue.</p>\n                ","response":" ","trial_type":"html-keyboard-response","trial_index":48,"time_elapsed":1151121,"internal_node_id":"0.0-47.0","params":{"nStudents":24,"maxFlips":30,"completionMinutes":45,"basePay":8,"maxBonus":9,"perTrialBonus":0.5,"perTrialBonusThreshold":0.05,"exampleCost":0.01},"classroomParams":{"A":{"a":1,"b":4},"B":{"a":4,"b":1},"C":{"a":2,"b":8},"D":{"a":8,"b":2}},"conditions":["nonSeqFull","nonSeqPartial","seqNoFeedback","seqFeedback"],"classroomPairings":[["A","B"],["C","D"]],"coinWeights":[0.2,0.5,0.8],"subjectId":"A2EI075XZT9Y2S","assignmentId":"3QFUFYSY9Z1JAJE2KYA5422RBG9F4S","hitId":"3AQN9REUTF20OMGWRXYK787QVFOYDP","url":"https://gershmanlab.com/experiments/alicia/teaching/experiment/?hitId=3AQN9REUTF20OMGWRXYK787QVFOYDP&workerId=A2EI075XZT9Y2S&assignmentId=3QFUFYSY9Z1JAJE2KYA5422RBG9F4S&a=YFFQ9&tp_a=YFFQ9&b=3QFUFYSY9Z1JAJE2KYA5422RBG9F4S&tp_b=3QFUFYSY9Z1JAJE2KYA5422RBG9F4S&c=365799&tp_c=365799"},{"rt":null,"stimulus":"<div style=\"font-size:60px;\">Next student</div>","response":null,"trial_type":"html-keyboard-response","trial_index":49,"time_elapsed":1153624,"internal_node_id":"0.0-48.0-0.0","params":{"nStudents":24,"maxFlips":30,"completionMinutes":45,"basePay":8,"maxBonus":9,"perTrialBonus":0.5,"perTrialBonusThreshold":0.05,"exampleCost":0.01},"classroomParams":{"A":{"a":1,"b":4},"B":{"a":4,"b":1},"C":{"a":2,"b":8},"D":{"a":8,"b":2}},"conditions":["nonSeqFull","nonSeqPartial","seqNoFeedback","seqFeedback"],"classroomPairings":[["A","B"],["C","D"]],"coinWeights":[0.2,0.5,0.8],"subjectId":"A2EI075XZT9Y2S","assignmentId":"3QFUFYSY9Z1JAJE2KYA5422RBG9F4S","hitId":"3AQN9REUTF20OMGWRXYK787QVFOYDP","url":"https://gershmanlab.com/experiments/alicia/teaching/experiment/?hitId=3AQN9REUTF20OMGWRXYK787QVFOYDP&workerId=A2EI075XZT9Y2S&assignmentId=3QFUFYSY9Z1JAJE2KYA5422RBG9F4S&a=YFFQ9&tp_a=YFFQ9&b=3QFUFYSY9Z1JAJE2KYA5422RBG9F4S&tp_b=3QFUFYSY9Z1JAJE2KYA5422RBG9F4S&c=365799&tp_c=365799"},{"rt":5758,"stimulus":"\n            <h4 style=\"color:Orange;\">Student 6</h4>\n            <h2>The weight of your coin is <b style=\"color:Tomato;\">0.8</b>.</h2>\n            <p>In this block, you will be giving <b>one</b> set of examples to Student 6.</p>\n                <p>You will receive feedback at the end of the block.</p>\n            <p></p>","response":0,"trial_type":"html-button-response","trial_index":50,"time_elapsed":1159383,"internal_node_id":"0.0-49.0","params":{"nStudents":24,"maxFlips":30,"completionMinutes":45,"basePay":8,"maxBonus":9,"perTrialBonus":0.5,"perTrialBonusThreshold":0.05,"exampleCost":0.01},"classroomParams":{"A":{"a":1,"b":4},"B":{"a":4,"b":1},"C":{"a":2,"b":8},"D":{"a":8,"b":2}},"conditions":["nonSeqFull","nonSeqPartial","seqNoFeedback","seqFeedback"],"classroomPairings":[["A","B"],["C","D"]],"coinWeights":[0.2,0.5,0.8],"subjectId":"A2EI075XZT9Y2S","assignmentId":"3QFUFYSY9Z1JAJE2KYA5422RBG9F4S","hitId":"3AQN9REUTF20OMGWRXYK787QVFOYDP","url":"https://gershmanlab.com/experiments/alicia/teaching/experiment/?hitId=3AQN9REUTF20OMGWRXYK787QVFOYDP&workerId=A2EI075XZT9Y2S&assignmentId=3QFUFYSY9Z1JAJE2KYA5422RBG9F4S&a=YFFQ9&tp_a=YFFQ9&b=3QFUFYSY9Z1JAJE2KYA5422RBG9F4S&tp_b=3QFUFYSY9Z1JAJE2KYA5422RBG9F4S&c=365799&tp_c=365799"},{"rt":35440,"response":{"heads":"14","tails":"1"},"type":"response","condition":"nonSeqFull","trueTheta":0.8,"classrooms":["C","D"],"studentTrueClassroom":"C","exampleSet":"first","trial_type":"survey-html-form","trial_index":51,"time_elapsed":1194823,"internal_node_id":"0.0-50.0-0.0","params":{"nStudents":24,"maxFlips":30,"completionMinutes":45,"basePay":8,"maxBonus":9,"perTrialBonus":0.5,"perTrialBonusThreshold":0.05,"exampleCost":0.01},"classroomParams":{"A":{"a":1,"b":4},"B":{"a":4,"b":1},"C":{"a":2,"b":8},"D":{"a":8,"b":2}},"conditions":["nonSeqFull","nonSeqPartial","seqNoFeedback","seqFeedback"],"classroomPairings":[["A","B"],["C","D"]],"coinWeights":[0.2,0.5,0.8],"subjectId":"A2EI075XZT9Y2S","assignmentId":"3QFUFYSY9Z1JAJE2KYA5422RBG9F4S","hitId":"3AQN9REUTF20OMGWRXYK787QVFOYDP","url":"https://gershmanlab.com/experiments/alicia/teaching/experiment/?hitId=3AQN9REUTF20OMGWRXYK787QVFOYDP&workerId=A2EI075XZT9Y2S&assignmentId=3QFUFYSY9Z1JAJE2KYA5422RBG9F4S&a=YFFQ9&tp_a=YFFQ9&b=3QFUFYSY9Z1JAJE2KYA5422RBG9F4S&tp_b=3QFUFYSY9Z1JAJE2KYA5422RBG9F4S&c=365799&tp_c=365799","heads":14,"tails":1,"studentIndex":5,"studentTrueHypers":{"a":2,"b":8},"studentGuess":0.64,"delta":0.16000000000000003,"totalExamples":15,"bonus":0,"bonusSoFar":0.84},{"rt":null,"stimulus":"Sending examples to student... ","response":null,"trial_type":"html-keyboard-response","trial_index":52,"time_elapsed":1196827,"internal_node_id":"0.0-51.0","params":{"nStudents":24,"maxFlips":30,"completionMinutes":45,"basePay":8,"maxBonus":9,"perTrialBonus":0.5,"perTrialBonusThreshold":0.05,"exampleCost":0.01},"classroomParams":{"A":{"a":1,"b":4},"B":{"a":4,"b":1},"C":{"a":2,"b":8},"D":{"a":8,"b":2}},"conditions":["nonSeqFull","nonSeqPartial","seqNoFeedback","seqFeedback"],"classroomPairings":[["A","B"],["C","D"]],"coinWeights":[0.2,0.5,0.8],"subjectId":"A2EI075XZT9Y2S","assignmentId":"3QFUFYSY9Z1JAJE2KYA5422RBG9F4S","hitId":"3AQN9REUTF20OMGWRXYK787QVFOYDP","url":"https://gershmanlab.com/experiments/alicia/teaching/experiment/?hitId=3AQN9REUTF20OMGWRXYK787QVFOYDP&workerId=A2EI075XZT9Y2S&assignmentId=3QFUFYSY9Z1JAJE2KYA5422RBG9F4S&a=YFFQ9&tp_a=YFFQ9&b=3QFUFYSY9Z1JAJE2KYA5422RBG9F4S&tp_b=3QFUFYSY9Z1JAJE2KYA5422RBG9F4S&c=365799&tp_c=365799"},{"rt":null,"stimulus":"Examples sent to student! Waiting for student...","response":null,"trial_type":"html-keyboard-response","trial_index":53,"time_elapsed":1201338,"internal_node_id":"0.0-52.0","params":{"nStudents":24,"maxFlips":30,"completionMinutes":45,"basePay":8,"maxBonus":9,"perTrialBonus":0.5,"perTrialBonusThreshold":0.05,"exampleCost":0.01},"classroomParams":{"A":{"a":1,"b":4},"B":{"a":4,"b":1},"C":{"a":2,"b":8},"D":{"a":8,"b":2}},"conditions":["nonSeqFull","nonSeqPartial","seqNoFeedback","seqFeedback"],"classroomPairings":[["A","B"],["C","D"]],"coinWeights":[0.2,0.5,0.8],"subjectId":"A2EI075XZT9Y2S","assignmentId":"3QFUFYSY9Z1JAJE2KYA5422RBG9F4S","hitId":"3AQN9REUTF20OMGWRXYK787QVFOYDP","url":"https://gershmanlab.com/experiments/alicia/teaching/experiment/?hitId=3AQN9REUTF20OMGWRXYK787QVFOYDP&workerId=A2EI075XZT9Y2S&assignmentId=3QFUFYSY9Z1JAJE2KYA5422RBG9F4S&a=YFFQ9&tp_a=YFFQ9&b=3QFUFYSY9Z1JAJE2KYA5422RBG9F4S&tp_b=3QFUFYSY9Z1JAJE2KYA5422RBG9F4S&c=365799&tp_c=365799"},{"rt":4935,"stimulus":"\n                <p>Student's guess for coin weight: <b style=\"color:Tomato;\">0.64</b></p>\n                <p>You received a bonus of <b>$0</b>. Total bonus so far: <b>$0.84</b></b></p>\n                <p></p>\n                <p>Press any key to continue.</p>\n                ","response":" ","trial_type":"html-keyboard-response","trial_index":54,"time_elapsed":1206274,"internal_node_id":"0.0-53.0","params":{"nStudents":24,"maxFlips":30,"completionMinutes":45,"basePay":8,"maxBonus":9,"perTrialBonus":0.5,"perTrialBonusThreshold":0.05,"exampleCost":0.01},"classroomParams":{"A":{"a":1,"b":4},"B":{"a":4,"b":1},"C":{"a":2,"b":8},"D":{"a":8,"b":2}},"conditions":["nonSeqFull","nonSeqPartial","seqNoFeedback","seqFeedback"],"classroomPairings":[["A","B"],["C","D"]],"coinWeights":[0.2,0.5,0.8],"subjectId":"A2EI075XZT9Y2S","assignmentId":"3QFUFYSY9Z1JAJE2KYA5422RBG9F4S","hitId":"3AQN9REUTF20OMGWRXYK787QVFOYDP","url":"https://gershmanlab.com/experiments/alicia/teaching/experiment/?hitId=3AQN9REUTF20OMGWRXYK787QVFOYDP&workerId=A2EI075XZT9Y2S&assignmentId=3QFUFYSY9Z1JAJE2KYA5422RBG9F4S&a=YFFQ9&tp_a=YFFQ9&b=3QFUFYSY9Z1JAJE2KYA5422RBG9F4S&tp_b=3QFUFYSY9Z1JAJE2KYA5422RBG9F4S&c=365799&tp_c=365799"},{"rt":null,"stimulus":"<div style=\"font-size:60px;\">Next student</div>","response":null,"trial_type":"html-keyboard-response","trial_index":55,"time_elapsed":1208527,"internal_node_id":"0.0-54.0-0.0","params":{"nStudents":24,"maxFlips":30,"completionMinutes":45,"basePay":8,"maxBonus":9,"perTrialBonus":0.5,"perTrialBonusThreshold":0.05,"exampleCost":0.01},"classroomParams":{"A":{"a":1,"b":4},"B":{"a":4,"b":1},"C":{"a":2,"b":8},"D":{"a":8,"b":2}},"conditions":["nonSeqFull","nonSeqPartial","seqNoFeedback","seqFeedback"],"classroomPairings":[["A","B"],["C","D"]],"coinWeights":[0.2,0.5,0.8],"subjectId":"A2EI075XZT9Y2S","assignmentId":"3QFUFYSY9Z1JAJE2KYA5422RBG9F4S","hitId":"3AQN9REUTF20OMGWRXYK787QVFOYDP","url":"https://gershmanlab.com/experiments/alicia/teaching/experiment/?hitId=3AQN9REUTF20OMGWRXYK787QVFOYDP&workerId=A2EI075XZT9Y2S&assignmentId=3QFUFYSY9Z1JAJE2KYA5422RBG9F4S&a=YFFQ9&tp_a=YFFQ9&b=3QFUFYSY9Z1JAJE2KYA5422RBG9F4S&tp_b=3QFUFYSY9Z1JAJE2KYA5422RBG9F4S&c=365799&tp_c=365799"},{"rt":2859,"stimulus":"\n            <h4 style=\"color:Orange;\">Student 7</h4>\n            <h2>The weight of your coin is <b style=\"color:Tomato;\">0.8</b>.</h2>\n            <p>In this block, you will be giving <b>two</b> sets of examples to Student 7.</p>\n                <p>You will receive feedback at the end of the block.</p>\n            <p></p>","response":0,"trial_type":"html-button-response","trial_index":56,"time_elapsed":1211387,"internal_node_id":"0.0-55.0","params":{"nStudents":24,"maxFlips":30,"completionMinutes":45,"basePay":8,"maxBonus":9,"perTrialBonus":0.5,"perTrialBonusThreshold":0.05,"exampleCost":0.01},"classroomParams":{"A":{"a":1,"b":4},"B":{"a":4,"b":1},"C":{"a":2,"b":8},"D":{"a":8,"b":2}},"conditions":["nonSeqFull","nonSeqPartial","seqNoFeedback","seqFeedback"],"classroomPairings":[["A","B"],["C","D"]],"coinWeights":[0.2,0.5,0.8],"subjectId":"A2EI075XZT9Y2S","assignmentId":"3QFUFYSY9Z1JAJE2KYA5422RBG9F4S","hitId":"3AQN9REUTF20OMGWRXYK787QVFOYDP","url":"https://gershmanlab.com/experiments/alicia/teaching/experiment/?hitId=3AQN9REUTF20OMGWRXYK787QVFOYDP&workerId=A2EI075XZT9Y2S&assignmentId=3QFUFYSY9Z1JAJE2KYA5422RBG9F4S&a=YFFQ9&tp_a=YFFQ9&b=3QFUFYSY9Z1JAJE2KYA5422RBG9F4S&tp_b=3QFUFYSY9Z1JAJE2KYA5422RBG9F4S&c=365799&tp_c=365799"},{"rt":16031,"response":{"heads":"9","tails":"1"},"type":"response","condition":"seqNoFeedback","trueTheta":0.8,"classrooms":["A","B"],"studentTrueClassroom":"B","exampleSet":"first","trial_type":"survey-html-form","trial_index":57,"time_elapsed":1227419,"internal_node_id":"0.0-56.0-0.0","params":{"nStudents":24,"maxFlips":30,"completionMinutes":45,"basePay":8,"maxBonus":9,"perTrialBonus":0.5,"perTrialBonusThreshold":0.05,"exampleCost":0.01},"classroomParams":{"A":{"a":1,"b":4},"B":{"a":4,"b":1},"C":{"a":2,"b":8},"D":{"a":8,"b":2}},"conditions":["nonSeqFull","nonSeqPartial","seqNoFeedback","seqFeedback"],"classroomPairings":[["A","B"],["C","D"]],"coinWeights":[0.2,0.5,0.8],"subjectId":"A2EI075XZT9Y2S","assignmentId":"3QFUFYSY9Z1JAJE2KYA5422RBG9F4S","hitId":"3AQN9REUTF20OMGWRXYK787QVFOYDP","url":"https://gershmanlab.com/experiments/alicia/teaching/experiment/?hitId=3AQN9REUTF20OMGWRXYK787QVFOYDP&workerId=A2EI075XZT9Y2S&assignmentId=3QFUFYSY9Z1JAJE2KYA5422RBG9F4S&a=YFFQ9&tp_a=YFFQ9&b=3QFUFYSY9Z1JAJE2KYA5422RBG9F4S&tp_b=3QFUFYSY9Z1JAJE2KYA5422RBG9F4S&c=365799&tp_c=365799","heads":9,"tails":1,"studentIndex":6,"studentTrueHypers":{"a":4,"b":1},"studentGuess":0.8666666666666667,"delta":0.06666666666666665,"totalExamples":10,"bonusSoFar":0.84},{"rt":null,"stimulus":"Sending examples to student... ","response":null,"trial_type":"html-keyboard-response","trial_index":58,"time_elapsed":1228671,"internal_node_id":"0.0-57.0","params":{"nStudents":24,"maxFlips":30,"completionMinutes":45,"basePay":8,"maxBonus":9,"perTrialBonus":0.5,"perTrialBonusThreshold":0.05,"exampleCost":0.01},"classroomParams":{"A":{"a":1,"b":4},"B":{"a":4,"b":1},"C":{"a":2,"b":8},"D":{"a":8,"b":2}},"conditions":["nonSeqFull","nonSeqPartial","seqNoFeedback","seqFeedback"],"classroomPairings":[["A","B"],["C","D"]],"coinWeights":[0.2,0.5,0.8],"subjectId":"A2EI075XZT9Y2S","assignmentId":"3QFUFYSY9Z1JAJE2KYA5422RBG9F4S","hitId":"3AQN9REUTF20OMGWRXYK787QVFOYDP","url":"https://gershmanlab.com/experiments/alicia/teaching/experiment/?hitId=3AQN9REUTF20OMGWRXYK787QVFOYDP&workerId=A2EI075XZT9Y2S&assignmentId=3QFUFYSY9Z1JAJE2KYA5422RBG9F4S&a=YFFQ9&tp_a=YFFQ9&b=3QFUFYSY9Z1JAJE2KYA5422RBG9F4S&tp_b=3QFUFYSY9Z1JAJE2KYA5422RBG9F4S&c=365799&tp_c=365799"},{"rt":null,"stimulus":"Examples sent to student! Waiting for student...","response":null,"trial_type":"html-keyboard-response","trial_index":59,"time_elapsed":1233682,"internal_node_id":"0.0-58.0","params":{"nStudents":24,"maxFlips":30,"completionMinutes":45,"basePay":8,"maxBonus":9,"perTrialBonus":0.5,"perTrialBonusThreshold":0.05,"exampleCost":0.01},"classroomParams":{"A":{"a":1,"b":4},"B":{"a":4,"b":1},"C":{"a":2,"b":8},"D":{"a":8,"b":2}},"conditions":["nonSeqFull","nonSeqPartial","seqNoFeedback","seqFeedback"],"classroomPairings":[["A","B"],["C","D"]],"coinWeights":[0.2,0.5,0.8],"subjectId":"A2EI075XZT9Y2S","assignmentId":"3QFUFYSY9Z1JAJE2KYA5422RBG9F4S","hitId":"3AQN9REUTF20OMGWRXYK787QVFOYDP","url":"https://gershmanlab.com/experiments/alicia/teaching/experiment/?hitId=3AQN9REUTF20OMGWRXYK787QVFOYDP&workerId=A2EI075XZT9Y2S&assignmentId=3QFUFYSY9Z1JAJE2KYA5422RBG9F4S&a=YFFQ9&tp_a=YFFQ9&b=3QFUFYSY9Z1JAJE2KYA5422RBG9F4S&tp_b=3QFUFYSY9Z1JAJE2KYA5422RBG9F4S&c=365799&tp_c=365799"},{"rt":21524,"response":{"heads":"8","tails":"2"},"type":"response","condition":"seqNoFeedback","trueTheta":0.8,"classrooms":["A","B"],"studentTrueClassroom":"B","exampleSet":"second","trial_type":"survey-html-form","trial_index":60,"time_elapsed":1255206,"internal_node_id":"0.0-59.0-0.0","params":{"nStudents":24,"maxFlips":30,"completionMinutes":45,"basePay":8,"maxBonus":9,"perTrialBonus":0.5,"perTrialBonusThreshold":0.05,"exampleCost":0.01},"classroomParams":{"A":{"a":1,"b":4},"B":{"a":4,"b":1},"C":{"a":2,"b":8},"D":{"a":8,"b":2}},"conditions":["nonSeqFull","nonSeqPartial","seqNoFeedback","seqFeedback"],"classroomPairings":[["A","B"],["C","D"]],"coinWeights":[0.2,0.5,0.8],"subjectId":"A2EI075XZT9Y2S","assignmentId":"3QFUFYSY9Z1JAJE2KYA5422RBG9F4S","hitId":"3AQN9REUTF20OMGWRXYK787QVFOYDP","url":"https://gershmanlab.com/experiments/alicia/teaching/experiment/?hitId=3AQN9REUTF20OMGWRXYK787QVFOYDP&workerId=A2EI075XZT9Y2S&assignmentId=3QFUFYSY9Z1JAJE2KYA5422RBG9F4S&a=YFFQ9&tp_a=YFFQ9&b=3QFUFYSY9Z1JAJE2KYA5422RBG9F4S&tp_b=3QFUFYSY9Z1JAJE2KYA5422RBG9F4S&c=365799&tp_c=365799","firstResponseHeads":9,"firstResponseTails":1,"secondResponseHeads":8,"secondResponseTails":2,"totalHeads":17,"totalTails":3,"studentIndex":6,"studentTrueHypers":{"a":4,"b":1},"studentGuess":0.84,"delta":0.039999999999999925,"bonus":0.3,"bonusSoFar":1.14,"totalExamples":20},{"rt":null,"stimulus":"Sending examples to student... ","response":null,"trial_type":"html-keyboard-response","trial_index":61,"time_elapsed":1257207,"internal_node_id":"0.0-60.0","params":{"nStudents":24,"maxFlips":30,"completionMinutes":45,"basePay":8,"maxBonus":9,"perTrialBonus":0.5,"perTrialBonusThreshold":0.05,"exampleCost":0.01},"classroomParams":{"A":{"a":1,"b":4},"B":{"a":4,"b":1},"C":{"a":2,"b":8},"D":{"a":8,"b":2}},"conditions":["nonSeqFull","nonSeqPartial","seqNoFeedback","seqFeedback"],"classroomPairings":[["A","B"],["C","D"]],"coinWeights":[0.2,0.5,0.8],"subjectId":"A2EI075XZT9Y2S","assignmentId":"3QFUFYSY9Z1JAJE2KYA5422RBG9F4S","hitId":"3AQN9REUTF20OMGWRXYK787QVFOYDP","url":"https://gershmanlab.com/experiments/alicia/teaching/experiment/?hitId=3AQN9REUTF20OMGWRXYK787QVFOYDP&workerId=A2EI075XZT9Y2S&assignmentId=3QFUFYSY9Z1JAJE2KYA5422RBG9F4S&a=YFFQ9&tp_a=YFFQ9&b=3QFUFYSY9Z1JAJE2KYA5422RBG9F4S&tp_b=3QFUFYSY9Z1JAJE2KYA5422RBG9F4S&c=365799&tp_c=365799"},{"rt":null,"stimulus":"Examples sent to student! Waiting for student...","response":null,"trial_type":"html-keyboard-response","trial_index":62,"time_elapsed":1263210,"internal_node_id":"0.0-61.0","params":{"nStudents":24,"maxFlips":30,"completionMinutes":45,"basePay":8,"maxBonus":9,"perTrialBonus":0.5,"perTrialBonusThreshold":0.05,"exampleCost":0.01},"classroomParams":{"A":{"a":1,"b":4},"B":{"a":4,"b":1},"C":{"a":2,"b":8},"D":{"a":8,"b":2}},"conditions":["nonSeqFull","nonSeqPartial","seqNoFeedback","seqFeedback"],"classroomPairings":[["A","B"],["C","D"]],"coinWeights":[0.2,0.5,0.8],"subjectId":"A2EI075XZT9Y2S","assignmentId":"3QFUFYSY9Z1JAJE2KYA5422RBG9F4S","hitId":"3AQN9REUTF20OMGWRXYK787QVFOYDP","url":"https://gershmanlab.com/experiments/alicia/teaching/experiment/?hitId=3AQN9REUTF20OMGWRXYK787QVFOYDP&workerId=A2EI075XZT9Y2S&assignmentId=3QFUFYSY9Z1JAJE2KYA5422RBG9F4S&a=YFFQ9&tp_a=YFFQ9&b=3QFUFYSY9Z1JAJE2KYA5422RBG9F4S&tp_b=3QFUFYSY9Z1JAJE2KYA5422RBG9F4S&c=365799&tp_c=365799"},{"rt":5747,"stimulus":"\n                <p>Student 7's first guess for coin weight: <b style=\"color:Tomato\";>0.87</b></p>\n                <p>Student 7's second guess for coin weight: <b style=\"color:Tomato\";>0.84</b></p>\n                <p>You received a bonus of <b>$0.30</b> based on the student's second guess.</p>\n                <p>Total bonus so far: <b>$1.14</b></p>\n                <p>Press any key to continue.</p>\n                ","response":" ","trial_type":"html-keyboard-response","trial_index":63,"time_elapsed":1268957,"internal_node_id":"0.0-62.0","params":{"nStudents":24,"maxFlips":30,"completionMinutes":45,"basePay":8,"maxBonus":9,"perTrialBonus":0.5,"perTrialBonusThreshold":0.05,"exampleCost":0.01},"classroomParams":{"A":{"a":1,"b":4},"B":{"a":4,"b":1},"C":{"a":2,"b":8},"D":{"a":8,"b":2}},"conditions":["nonSeqFull","nonSeqPartial","seqNoFeedback","seqFeedback"],"classroomPairings":[["A","B"],["C","D"]],"coinWeights":[0.2,0.5,0.8],"subjectId":"A2EI075XZT9Y2S","assignmentId":"3QFUFYSY9Z1JAJE2KYA5422RBG9F4S","hitId":"3AQN9REUTF20OMGWRXYK787QVFOYDP","url":"https://gershmanlab.com/experiments/alicia/teaching/experiment/?hitId=3AQN9REUTF20OMGWRXYK787QVFOYDP&workerId=A2EI075XZT9Y2S&assignmentId=3QFUFYSY9Z1JAJE2KYA5422RBG9F4S&a=YFFQ9&tp_a=YFFQ9&b=3QFUFYSY9Z1JAJE2KYA5422RBG9F4S&tp_b=3QFUFYSY9Z1JAJE2KYA5422RBG9F4S&c=365799&tp_c=365799"},{"rt":null,"stimulus":"<div style=\"font-size:60px;\">Next student</div>","response":null,"trial_type":"html-keyboard-response","trial_index":64,"time_elapsed":1271209,"internal_node_id":"0.0-63.0-0.0","params":{"nStudents":24,"maxFlips":30,"completionMinutes":45,"basePay":8,"maxBonus":9,"perTrialBonus":0.5,"perTrialBonusThreshold":0.05,"exampleCost":0.01},"classroomParams":{"A":{"a":1,"b":4},"B":{"a":4,"b":1},"C":{"a":2,"b":8},"D":{"a":8,"b":2}},"conditions":["nonSeqFull","nonSeqPartial","seqNoFeedback","seqFeedback"],"classroomPairings":[["A","B"],["C","D"]],"coinWeights":[0.2,0.5,0.8],"subjectId":"A2EI075XZT9Y2S","assignmentId":"3QFUFYSY9Z1JAJE2KYA5422RBG9F4S","hitId":"3AQN9REUTF20OMGWRXYK787QVFOYDP","url":"https://gershmanlab.com/experiments/alicia/teaching/experiment/?hitId=3AQN9REUTF20OMGWRXYK787QVFOYDP&workerId=A2EI075XZT9Y2S&assignmentId=3QFUFYSY9Z1JAJE2KYA5422RBG9F4S&a=YFFQ9&tp_a=YFFQ9&b=3QFUFYSY9Z1JAJE2KYA5422RBG9F4S&tp_b=3QFUFYSY9Z1JAJE2KYA5422RBG9F4S&c=365799&tp_c=365799"},{"rt":3758,"stimulus":"\n            <h4 style=\"color:Orange;\">Student 8</h4>\n            <h2>The weight of your coin is <b style=\"color:Tomato;\">0.2</b>.</h2>\n            <p>In this block, you will be giving <b>one</b> set of examples to Student 8.</p>\n                <p>You will receive feedback at the end of the block.</p>\n            <p></p>","response":0,"trial_type":"html-button-response","trial_index":65,"time_elapsed":1274968,"internal_node_id":"0.0-64.0","params":{"nStudents":24,"maxFlips":30,"completionMinutes":45,"basePay":8,"maxBonus":9,"perTrialBonus":0.5,"perTrialBonusThreshold":0.05,"exampleCost":0.01},"classroomParams":{"A":{"a":1,"b":4},"B":{"a":4,"b":1},"C":{"a":2,"b":8},"D":{"a":8,"b":2}},"conditions":["nonSeqFull","nonSeqPartial","seqNoFeedback","seqFeedback"],"classroomPairings":[["A","B"],["C","D"]],"coinWeights":[0.2,0.5,0.8],"subjectId":"A2EI075XZT9Y2S","assignmentId":"3QFUFYSY9Z1JAJE2KYA5422RBG9F4S","hitId":"3AQN9REUTF20OMGWRXYK787QVFOYDP","url":"https://gershmanlab.com/experiments/alicia/teaching/experiment/?hitId=3AQN9REUTF20OMGWRXYK787QVFOYDP&workerId=A2EI075XZT9Y2S&assignmentId=3QFUFYSY9Z1JAJE2KYA5422RBG9F4S&a=YFFQ9&tp_a=YFFQ9&b=3QFUFYSY9Z1JAJE2KYA5422RBG9F4S&tp_b=3QFUFYSY9Z1JAJE2KYA5422RBG9F4S&c=365799&tp_c=365799"},{"rt":17097,"response":{"heads":"1","tails":"4"},"type":"response","condition":"nonSeqFull","trueTheta":0.2,"classrooms":["C","D"],"studentTrueClassroom":"C","exampleSet":"first","trial_type":"survey-html-form","trial_index":66,"time_elapsed":1292065,"internal_node_id":"0.0-65.0-0.0","params":{"nStudents":24,"maxFlips":30,"completionMinutes":45,"basePay":8,"maxBonus":9,"perTrialBonus":0.5,"perTrialBonusThreshold":0.05,"exampleCost":0.01},"classroomParams":{"A":{"a":1,"b":4},"B":{"a":4,"b":1},"C":{"a":2,"b":8},"D":{"a":8,"b":2}},"conditions":["nonSeqFull","nonSeqPartial","seqNoFeedback","seqFeedback"],"classroomPairings":[["A","B"],["C","D"]],"coinWeights":[0.2,0.5,0.8],"subjectId":"A2EI075XZT9Y2S","assignmentId":"3QFUFYSY9Z1JAJE2KYA5422RBG9F4S","hitId":"3AQN9REUTF20OMGWRXYK787QVFOYDP","url":"https://gershmanlab.com/experiments/alicia/teaching/experiment/?hitId=3AQN9REUTF20OMGWRXYK787QVFOYDP&workerId=A2EI075XZT9Y2S&assignmentId=3QFUFYSY9Z1JAJE2KYA5422RBG9F4S&a=YFFQ9&tp_a=YFFQ9&b=3QFUFYSY9Z1JAJE2KYA5422RBG9F4S&tp_b=3QFUFYSY9Z1JAJE2KYA5422RBG9F4S&c=365799&tp_c=365799","heads":1,"tails":4,"studentIndex":7,"studentTrueHypers":{"a":2,"b":8},"studentGuess":0.2,"delta":0,"totalExamples":5,"bonus":0.45,"bonusSoFar":1.59},{"rt":null,"stimulus":"Sending examples to student... ","response":null,"trial_type":"html-keyboard-response","trial_index":67,"time_elapsed":1293317,"internal_node_id":"0.0-66.0","params":{"nStudents":24,"maxFlips":30,"completionMinutes":45,"basePay":8,"maxBonus":9,"perTrialBonus":0.5,"perTrialBonusThreshold":0.05,"exampleCost":0.01},"classroomParams":{"A":{"a":1,"b":4},"B":{"a":4,"b":1},"C":{"a":2,"b":8},"D":{"a":8,"b":2}},"conditions":["nonSeqFull","nonSeqPartial","seqNoFeedback","seqFeedback"],"classroomPairings":[["A","B"],["C","D"]],"coinWeights":[0.2,0.5,0.8],"subjectId":"A2EI075XZT9Y2S","assignmentId":"3QFUFYSY9Z1JAJE2KYA5422RBG9F4S","hitId":"3AQN9REUTF20OMGWRXYK787QVFOYDP","url":"https://gershmanlab.com/experiments/alicia/teaching/experiment/?hitId=3AQN9REUTF20OMGWRXYK787QVFOYDP&workerId=A2EI075XZT9Y2S&assignmentId=3QFUFYSY9Z1JAJE2KYA5422RBG9F4S&a=YFFQ9&tp_a=YFFQ9&b=3QFUFYSY9Z1JAJE2KYA5422RBG9F4S&tp_b=3QFUFYSY9Z1JAJE2KYA5422RBG9F4S&c=365799&tp_c=365799"},{"rt":null,"stimulus":"Examples sent to student! Waiting for student...","response":null,"trial_type":"html-keyboard-response","trial_index":68,"time_elapsed":1298823,"internal_node_id":"0.0-67.0","params":{"nStudents":24,"maxFlips":30,"completionMinutes":45,"basePay":8,"maxBonus":9,"perTrialBonus":0.5,"perTrialBonusThreshold":0.05,"exampleCost":0.01},"classroomParams":{"A":{"a":1,"b":4},"B":{"a":4,"b":1},"C":{"a":2,"b":8},"D":{"a":8,"b":2}},"conditions":["nonSeqFull","nonSeqPartial","seqNoFeedback","seqFeedback"],"classroomPairings":[["A","B"],["C","D"]],"coinWeights":[0.2,0.5,0.8],"subjectId":"A2EI075XZT9Y2S","assignmentId":"3QFUFYSY9Z1JAJE2KYA5422RBG9F4S","hitId":"3AQN9REUTF20OMGWRXYK787QVFOYDP","url":"https://gershmanlab.com/experiments/alicia/teaching/experiment/?hitId=3AQN9REUTF20OMGWRXYK787QVFOYDP&workerId=A2EI075XZT9Y2S&assignmentId=3QFUFYSY9Z1JAJE2KYA5422RBG9F4S&a=YFFQ9&tp_a=YFFQ9&b=3QFUFYSY9Z1JAJE2KYA5422RBG9F4S&tp_b=3QFUFYSY9Z1JAJE2KYA5422RBG9F4S&c=365799&tp_c=365799"},{"rt":7058,"stimulus":"\n                <p>Student's guess for coin weight: <b style=\"color:Tomato;\">0.20</b></p>\n                <p>You received a bonus of <b>$0.45</b>. Total bonus so far: <b>$1.59</b></b></p>\n                <p></p>\n                <p>Press any key to continue.</p>\n                ","response":" ","trial_type":"html-keyboard-response","trial_index":69,"time_elapsed":1305881,"internal_node_id":"0.0-68.0","params":{"nStudents":24,"maxFlips":30,"completionMinutes":45,"basePay":8,"maxBonus":9,"perTrialBonus":0.5,"perTrialBonusThreshold":0.05,"exampleCost":0.01},"classroomParams":{"A":{"a":1,"b":4},"B":{"a":4,"b":1},"C":{"a":2,"b":8},"D":{"a":8,"b":2}},"conditions":["nonSeqFull","nonSeqPartial","seqNoFeedback","seqFeedback"],"classroomPairings":[["A","B"],["C","D"]],"coinWeights":[0.2,0.5,0.8],"subjectId":"A2EI075XZT9Y2S","assignmentId":"3QFUFYSY9Z1JAJE2KYA5422RBG9F4S","hitId":"3AQN9REUTF20OMGWRXYK787QVFOYDP","url":"https://gershmanlab.com/experiments/alicia/teaching/experiment/?hitId=3AQN9REUTF20OMGWRXYK787QVFOYDP&workerId=A2EI075XZT9Y2S&assignmentId=3QFUFYSY9Z1JAJE2KYA5422RBG9F4S&a=YFFQ9&tp_a=YFFQ9&b=3QFUFYSY9Z1JAJE2KYA5422RBG9F4S&tp_b=3QFUFYSY9Z1JAJE2KYA5422RBG9F4S&c=365799&tp_c=365799"},{"rt":null,"stimulus":"<div style=\"font-size:60px;\">Next student</div>","response":null,"trial_type":"html-keyboard-response","trial_index":70,"time_elapsed":1308139,"internal_node_id":"0.0-69.0-0.0","params":{"nStudents":24,"maxFlips":30,"completionMinutes":45,"basePay":8,"maxBonus":9,"perTrialBonus":0.5,"perTrialBonusThreshold":0.05,"exampleCost":0.01},"classroomParams":{"A":{"a":1,"b":4},"B":{"a":4,"b":1},"C":{"a":2,"b":8},"D":{"a":8,"b":2}},"conditions":["nonSeqFull","nonSeqPartial","seqNoFeedback","seqFeedback"],"classroomPairings":[["A","B"],["C","D"]],"coinWeights":[0.2,0.5,0.8],"subjectId":"A2EI075XZT9Y2S","assignmentId":"3QFUFYSY9Z1JAJE2KYA5422RBG9F4S","hitId":"3AQN9REUTF20OMGWRXYK787QVFOYDP","url":"https://gershmanlab.com/experiments/alicia/teaching/experiment/?hitId=3AQN9REUTF20OMGWRXYK787QVFOYDP&workerId=A2EI075XZT9Y2S&assignmentId=3QFUFYSY9Z1JAJE2KYA5422RBG9F4S&a=YFFQ9&tp_a=YFFQ9&b=3QFUFYSY9Z1JAJE2KYA5422RBG9F4S&tp_b=3QFUFYSY9Z1JAJE2KYA5422RBG9F4S&c=365799&tp_c=365799"},{"rt":3658,"stimulus":"\n            <h4 style=\"color:Orange;\">Student 9</h4>\n            <h2>The weight of your coin is <b style=\"color:Tomato;\">0.8</b>.</h2>\n            <p>In this block, you will be giving <b>two</b> sets of examples to Student 9.</p>\n                <p>You will receive feedback at the end of the block.</p>\n            <p></p>","response":0,"trial_type":"html-button-response","trial_index":71,"time_elapsed":1311798,"internal_node_id":"0.0-70.0","params":{"nStudents":24,"maxFlips":30,"completionMinutes":45,"basePay":8,"maxBonus":9,"perTrialBonus":0.5,"perTrialBonusThreshold":0.05,"exampleCost":0.01},"classroomParams":{"A":{"a":1,"b":4},"B":{"a":4,"b":1},"C":{"a":2,"b":8},"D":{"a":8,"b":2}},"conditions":["nonSeqFull","nonSeqPartial","seqNoFeedback","seqFeedback"],"classroomPairings":[["A","B"],["C","D"]],"coinWeights":[0.2,0.5,0.8],"subjectId":"A2EI075XZT9Y2S","assignmentId":"3QFUFYSY9Z1JAJE2KYA5422RBG9F4S","hitId":"3AQN9REUTF20OMGWRXYK787QVFOYDP","url":"https://gershmanlab.com/experiments/alicia/teaching/experiment/?hitId=3AQN9REUTF20OMGWRXYK787QVFOYDP&workerId=A2EI075XZT9Y2S&assignmentId=3QFUFYSY9Z1JAJE2KYA5422RBG9F4S&a=YFFQ9&tp_a=YFFQ9&b=3QFUFYSY9Z1JAJE2KYA5422RBG9F4S&tp_b=3QFUFYSY9Z1JAJE2KYA5422RBG9F4S&c=365799&tp_c=365799"},{"rt":12508,"response":{"heads":"8","tails":"2"},"type":"response","condition":"seqNoFeedback","trueTheta":0.8,"classrooms":["C","D"],"studentTrueClassroom":"D","exampleSet":"first","trial_type":"survey-html-form","trial_index":72,"time_elapsed":1324307,"internal_node_id":"0.0-71.0-0.0","params":{"nStudents":24,"maxFlips":30,"completionMinutes":45,"basePay":8,"maxBonus":9,"perTrialBonus":0.5,"perTrialBonusThreshold":0.05,"exampleCost":0.01},"classroomParams":{"A":{"a":1,"b":4},"B":{"a":4,"b":1},"C":{"a":2,"b":8},"D":{"a":8,"b":2}},"conditions":["nonSeqFull","nonSeqPartial","seqNoFeedback","seqFeedback"],"classroomPairings":[["A","B"],["C","D"]],"coinWeights":[0.2,0.5,0.8],"subjectId":"A2EI075XZT9Y2S","assignmentId":"3QFUFYSY9Z1JAJE2KYA5422RBG9F4S","hitId":"3AQN9REUTF20OMGWRXYK787QVFOYDP","url":"https://gershmanlab.com/experiments/alicia/teaching/experiment/?hitId=3AQN9REUTF20OMGWRXYK787QVFOYDP&workerId=A2EI075XZT9Y2S&assignmentId=3QFUFYSY9Z1JAJE2KYA5422RBG9F4S&a=YFFQ9&tp_a=YFFQ9&b=3QFUFYSY9Z1JAJE2KYA5422RBG9F4S&tp_b=3QFUFYSY9Z1JAJE2KYA5422RBG9F4S&c=365799&tp_c=365799","heads":8,"tails":2,"studentIndex":8,"studentTrueHypers":{"a":8,"b":2},"studentGuess":0.8,"delta":0,"totalExamples":10,"bonusSoFar":1.59},{"rt":null,"stimulus":"Sending examples to student... ","response":null,"trial_type":"html-keyboard-response","trial_index":73,"time_elapsed":1326062,"internal_node_id":"0.0-72.0","params":{"nStudents":24,"maxFlips":30,"completionMinutes":45,"basePay":8,"maxBonus":9,"perTrialBonus":0.5,"perTrialBonusThreshold":0.05,"exampleCost":0.01},"classroomParams":{"A":{"a":1,"b":4},"B":{"a":4,"b":1},"C":{"a":2,"b":8},"D":{"a":8,"b":2}},"conditions":["nonSeqFull","nonSeqPartial","seqNoFeedback","seqFeedback"],"classroomPairings":[["A","B"],["C","D"]],"coinWeights":[0.2,0.5,0.8],"subjectId":"A2EI075XZT9Y2S","assignmentId":"3QFUFYSY9Z1JAJE2KYA5422RBG9F4S","hitId":"3AQN9REUTF20OMGWRXYK787QVFOYDP","url":"https://gershmanlab.com/experiments/alicia/teaching/experiment/?hitId=3AQN9REUTF20OMGWRXYK787QVFOYDP&workerId=A2EI075XZT9Y2S&assignmentId=3QFUFYSY9Z1JAJE2KYA5422RBG9F4S&a=YFFQ9&tp_a=YFFQ9&b=3QFUFYSY9Z1JAJE2KYA5422RBG9F4S&tp_b=3QFUFYSY9Z1JAJE2KYA5422RBG9F4S&c=365799&tp_c=365799"},{"rt":null,"stimulus":"Examples sent to student! Waiting for student...","response":null,"trial_type":"html-keyboard-response","trial_index":74,"time_elapsed":1331578,"internal_node_id":"0.0-73.0","params":{"nStudents":24,"maxFlips":30,"completionMinutes":45,"basePay":8,"maxBonus":9,"perTrialBonus":0.5,"perTrialBonusThreshold":0.05,"exampleCost":0.01},"classroomParams":{"A":{"a":1,"b":4},"B":{"a":4,"b":1},"C":{"a":2,"b":8},"D":{"a":8,"b":2}},"conditions":["nonSeqFull","nonSeqPartial","seqNoFeedback","seqFeedback"],"classroomPairings":[["A","B"],["C","D"]],"coinWeights":[0.2,0.5,0.8],"subjectId":"A2EI075XZT9Y2S","assignmentId":"3QFUFYSY9Z1JAJE2KYA5422RBG9F4S","hitId":"3AQN9REUTF20OMGWRXYK787QVFOYDP","url":"https://gershmanlab.com/experiments/alicia/teaching/experiment/?hitId=3AQN9REUTF20OMGWRXYK787QVFOYDP&workerId=A2EI075XZT9Y2S&assignmentId=3QFUFYSY9Z1JAJE2KYA5422RBG9F4S&a=YFFQ9&tp_a=YFFQ9&b=3QFUFYSY9Z1JAJE2KYA5422RBG9F4S&tp_b=3QFUFYSY9Z1JAJE2KYA5422RBG9F4S&c=365799&tp_c=365799"},{"rt":11499,"response":{"heads":"4","tails":"1"},"type":"response","condition":"seqNoFeedback","trueTheta":0.8,"classrooms":["C","D"],"studentTrueClassroom":"D","exampleSet":"second","trial_type":"survey-html-form","trial_index":75,"time_elapsed":1343078,"internal_node_id":"0.0-74.0-0.0","params":{"nStudents":24,"maxFlips":30,"completionMinutes":45,"basePay":8,"maxBonus":9,"perTrialBonus":0.5,"perTrialBonusThreshold":0.05,"exampleCost":0.01},"classroomParams":{"A":{"a":1,"b":4},"B":{"a":4,"b":1},"C":{"a":2,"b":8},"D":{"a":8,"b":2}},"conditions":["nonSeqFull","nonSeqPartial","seqNoFeedback","seqFeedback"],"classroomPairings":[["A","B"],["C","D"]],"coinWeights":[0.2,0.5,0.8],"subjectId":"A2EI075XZT9Y2S","assignmentId":"3QFUFYSY9Z1JAJE2KYA5422RBG9F4S","hitId":"3AQN9REUTF20OMGWRXYK787QVFOYDP","url":"https://gershmanlab.com/experiments/alicia/teaching/experiment/?hitId=3AQN9REUTF20OMGWRXYK787QVFOYDP&workerId=A2EI075XZT9Y2S&assignmentId=3QFUFYSY9Z1JAJE2KYA5422RBG9F4S&a=YFFQ9&tp_a=YFFQ9&b=3QFUFYSY9Z1JAJE2KYA5422RBG9F4S&tp_b=3QFUFYSY9Z1JAJE2KYA5422RBG9F4S&c=365799&tp_c=365799","firstResponseHeads":8,"firstResponseTails":2,"secondResponseHeads":4,"secondResponseTails":1,"totalHeads":12,"totalTails":3,"studentIndex":8,"studentTrueHypers":{"a":8,"b":2},"studentGuess":0.8,"delta":0,"bonus":0.35,"bonusSoFar":1.94,"totalExamples":15},{"rt":null,"stimulus":"Sending examples to student... ","response":null,"trial_type":"html-keyboard-response","trial_index":76,"time_elapsed":1344831,"internal_node_id":"0.0-75.0","params":{"nStudents":24,"maxFlips":30,"completionMinutes":45,"basePay":8,"maxBonus":9,"perTrialBonus":0.5,"perTrialBonusThreshold":0.05,"exampleCost":0.01},"classroomParams":{"A":{"a":1,"b":4},"B":{"a":4,"b":1},"C":{"a":2,"b":8},"D":{"a":8,"b":2}},"conditions":["nonSeqFull","nonSeqPartial","seqNoFeedback","seqFeedback"],"classroomPairings":[["A","B"],["C","D"]],"coinWeights":[0.2,0.5,0.8],"subjectId":"A2EI075XZT9Y2S","assignmentId":"3QFUFYSY9Z1JAJE2KYA5422RBG9F4S","hitId":"3AQN9REUTF20OMGWRXYK787QVFOYDP","url":"https://gershmanlab.com/experiments/alicia/teaching/experiment/?hitId=3AQN9REUTF20OMGWRXYK787QVFOYDP&workerId=A2EI075XZT9Y2S&assignmentId=3QFUFYSY9Z1JAJE2KYA5422RBG9F4S&a=YFFQ9&tp_a=YFFQ9&b=3QFUFYSY9Z1JAJE2KYA5422RBG9F4S&tp_b=3QFUFYSY9Z1JAJE2KYA5422RBG9F4S&c=365799&tp_c=365799"},{"rt":null,"stimulus":"Examples sent to student! Waiting for student...","response":null,"trial_type":"html-keyboard-response","trial_index":77,"time_elapsed":1350334,"internal_node_id":"0.0-76.0","params":{"nStudents":24,"maxFlips":30,"completionMinutes":45,"basePay":8,"maxBonus":9,"perTrialBonus":0.5,"perTrialBonusThreshold":0.05,"exampleCost":0.01},"classroomParams":{"A":{"a":1,"b":4},"B":{"a":4,"b":1},"C":{"a":2,"b":8},"D":{"a":8,"b":2}},"conditions":["nonSeqFull","nonSeqPartial","seqNoFeedback","seqFeedback"],"classroomPairings":[["A","B"],["C","D"]],"coinWeights":[0.2,0.5,0.8],"subjectId":"A2EI075XZT9Y2S","assignmentId":"3QFUFYSY9Z1JAJE2KYA5422RBG9F4S","hitId":"3AQN9REUTF20OMGWRXYK787QVFOYDP","url":"https://gershmanlab.com/experiments/alicia/teaching/experiment/?hitId=3AQN9REUTF20OMGWRXYK787QVFOYDP&workerId=A2EI075XZT9Y2S&assignmentId=3QFUFYSY9Z1JAJE2KYA5422RBG9F4S&a=YFFQ9&tp_a=YFFQ9&b=3QFUFYSY9Z1JAJE2KYA5422RBG9F4S&tp_b=3QFUFYSY9Z1JAJE2KYA5422RBG9F4S&c=365799&tp_c=365799"},{"rt":3727,"stimulus":"\n                <p>Student 9's first guess for coin weight: <b style=\"color:Tomato\";>0.80</b></p>\n                <p>Student 9's second guess for coin weight: <b style=\"color:Tomato\";>0.80</b></p>\n                <p>You received a bonus of <b>$0.35</b> based on the student's second guess.</p>\n                <p>Total bonus so far: <b>$1.94</b></p>\n                <p>Press any key to continue.</p>\n                ","response":" ","trial_type":"html-keyboard-response","trial_index":78,"time_elapsed":1354062,"internal_node_id":"0.0-77.0","params":{"nStudents":24,"maxFlips":30,"completionMinutes":45,"basePay":8,"maxBonus":9,"perTrialBonus":0.5,"perTrialBonusThreshold":0.05,"exampleCost":0.01},"classroomParams":{"A":{"a":1,"b":4},"B":{"a":4,"b":1},"C":{"a":2,"b":8},"D":{"a":8,"b":2}},"conditions":["nonSeqFull","nonSeqPartial","seqNoFeedback","seqFeedback"],"classroomPairings":[["A","B"],["C","D"]],"coinWeights":[0.2,0.5,0.8],"subjectId":"A2EI075XZT9Y2S","assignmentId":"3QFUFYSY9Z1JAJE2KYA5422RBG9F4S","hitId":"3AQN9REUTF20OMGWRXYK787QVFOYDP","url":"https://gershmanlab.com/experiments/alicia/teaching/experiment/?hitId=3AQN9REUTF20OMGWRXYK787QVFOYDP&workerId=A2EI075XZT9Y2S&assignmentId=3QFUFYSY9Z1JAJE2KYA5422RBG9F4S&a=YFFQ9&tp_a=YFFQ9&b=3QFUFYSY9Z1JAJE2KYA5422RBG9F4S&tp_b=3QFUFYSY9Z1JAJE2KYA5422RBG9F4S&c=365799&tp_c=365799"},{"rt":null,"stimulus":"<div style=\"font-size:60px;\">Next student</div>","response":null,"trial_type":"html-keyboard-response","trial_index":79,"time_elapsed":1356563,"internal_node_id":"0.0-78.0-0.0","params":{"nStudents":24,"maxFlips":30,"completionMinutes":45,"basePay":8,"maxBonus":9,"perTrialBonus":0.5,"perTrialBonusThreshold":0.05,"exampleCost":0.01},"classroomParams":{"A":{"a":1,"b":4},"B":{"a":4,"b":1},"C":{"a":2,"b":8},"D":{"a":8,"b":2}},"conditions":["nonSeqFull","nonSeqPartial","seqNoFeedback","seqFeedback"],"classroomPairings":[["A","B"],["C","D"]],"coinWeights":[0.2,0.5,0.8],"subjectId":"A2EI075XZT9Y2S","assignmentId":"3QFUFYSY9Z1JAJE2KYA5422RBG9F4S","hitId":"3AQN9REUTF20OMGWRXYK787QVFOYDP","url":"https://gershmanlab.com/experiments/alicia/teaching/experiment/?hitId=3AQN9REUTF20OMGWRXYK787QVFOYDP&workerId=A2EI075XZT9Y2S&assignmentId=3QFUFYSY9Z1JAJE2KYA5422RBG9F4S&a=YFFQ9&tp_a=YFFQ9&b=3QFUFYSY9Z1JAJE2KYA5422RBG9F4S&tp_b=3QFUFYSY9Z1JAJE2KYA5422RBG9F4S&c=365799&tp_c=365799"},{"rt":23320,"stimulus":"\n            <h4 style=\"color:Orange;\">Student 10</h4>\n            <h2>The weight of your coin is <b style=\"color:Tomato;\">0.8</b>.</h2>\n            <p>In this block, you will be giving <b>two</b> sets of examples to Student 10.</p>\n                <p>You will see the student's guess after the first set of examples. You will also receive feedback at the end of the block.</p>\n            <p>To earn the highest bonus, you will have to <b>take into consideration the student's guess</b> when you choose your second set of examples.</p>","response":0,"trial_type":"html-button-response","trial_index":80,"time_elapsed":1379884,"internal_node_id":"0.0-79.0","params":{"nStudents":24,"maxFlips":30,"completionMinutes":45,"basePay":8,"maxBonus":9,"perTrialBonus":0.5,"perTrialBonusThreshold":0.05,"exampleCost":0.01},"classroomParams":{"A":{"a":1,"b":4},"B":{"a":4,"b":1},"C":{"a":2,"b":8},"D":{"a":8,"b":2}},"conditions":["nonSeqFull","nonSeqPartial","seqNoFeedback","seqFeedback"],"classroomPairings":[["A","B"],["C","D"]],"coinWeights":[0.2,0.5,0.8],"subjectId":"A2EI075XZT9Y2S","assignmentId":"3QFUFYSY9Z1JAJE2KYA5422RBG9F4S","hitId":"3AQN9REUTF20OMGWRXYK787QVFOYDP","url":"https://gershmanlab.com/experiments/alicia/teaching/experiment/?hitId=3AQN9REUTF20OMGWRXYK787QVFOYDP&workerId=A2EI075XZT9Y2S&assignmentId=3QFUFYSY9Z1JAJE2KYA5422RBG9F4S&a=YFFQ9&tp_a=YFFQ9&b=3QFUFYSY9Z1JAJE2KYA5422RBG9F4S&tp_b=3QFUFYSY9Z1JAJE2KYA5422RBG9F4S&c=365799&tp_c=365799"},{"rt":23585,"response":{"heads":"8","tails":"2"},"type":"response","condition":"seqFeedback","trueTheta":0.8,"classrooms":["A","B"],"studentTrueClassroom":"B","exampleSet":"first","trial_type":"survey-html-form","trial_index":81,"time_elapsed":1403470,"internal_node_id":"0.0-80.0-0.0","params":{"nStudents":24,"maxFlips":30,"completionMinutes":45,"basePay":8,"maxBonus":9,"perTrialBonus":0.5,"perTrialBonusThreshold":0.05,"exampleCost":0.01},"classroomParams":{"A":{"a":1,"b":4},"B":{"a":4,"b":1},"C":{"a":2,"b":8},"D":{"a":8,"b":2}},"conditions":["nonSeqFull","nonSeqPartial","seqNoFeedback","seqFeedback"],"classroomPairings":[["A","B"],["C","D"]],"coinWeights":[0.2,0.5,0.8],"subjectId":"A2EI075XZT9Y2S","assignmentId":"3QFUFYSY9Z1JAJE2KYA5422RBG9F4S","hitId":"3AQN9REUTF20OMGWRXYK787QVFOYDP","url":"https://gershmanlab.com/experiments/alicia/teaching/experiment/?hitId=3AQN9REUTF20OMGWRXYK787QVFOYDP&workerId=A2EI075XZT9Y2S&assignmentId=3QFUFYSY9Z1JAJE2KYA5422RBG9F4S&a=YFFQ9&tp_a=YFFQ9&b=3QFUFYSY9Z1JAJE2KYA5422RBG9F4S&tp_b=3QFUFYSY9Z1JAJE2KYA5422RBG9F4S&c=365799&tp_c=365799","heads":8,"tails":2,"studentIndex":9,"studentTrueHypers":{"a":4,"b":1},"studentGuess":0.8,"delta":0,"totalExamples":10,"bonusSoFar":1.94},{"rt":null,"stimulus":"Sending examples to student... ","response":null,"trial_type":"html-keyboard-response","trial_index":82,"time_elapsed":1405476,"internal_node_id":"0.0-81.0","params":{"nStudents":24,"maxFlips":30,"completionMinutes":45,"basePay":8,"maxBonus":9,"perTrialBonus":0.5,"perTrialBonusThreshold":0.05,"exampleCost":0.01},"classroomParams":{"A":{"a":1,"b":4},"B":{"a":4,"b":1},"C":{"a":2,"b":8},"D":{"a":8,"b":2}},"conditions":["nonSeqFull","nonSeqPartial","seqNoFeedback","seqFeedback"],"classroomPairings":[["A","B"],["C","D"]],"coinWeights":[0.2,0.5,0.8],"subjectId":"A2EI075XZT9Y2S","assignmentId":"3QFUFYSY9Z1JAJE2KYA5422RBG9F4S","hitId":"3AQN9REUTF20OMGWRXYK787QVFOYDP","url":"https://gershmanlab.com/experiments/alicia/teaching/experiment/?hitId=3AQN9REUTF20OMGWRXYK787QVFOYDP&workerId=A2EI075XZT9Y2S&assignmentId=3QFUFYSY9Z1JAJE2KYA5422RBG9F4S&a=YFFQ9&tp_a=YFFQ9&b=3QFUFYSY9Z1JAJE2KYA5422RBG9F4S&tp_b=3QFUFYSY9Z1JAJE2KYA5422RBG9F4S&c=365799&tp_c=365799"},{"rt":null,"stimulus":"Examples sent to student! Waiting for student...","response":null,"trial_type":"html-keyboard-response","trial_index":83,"time_elapsed":1409978,"internal_node_id":"0.0-82.0","params":{"nStudents":24,"maxFlips":30,"completionMinutes":45,"basePay":8,"maxBonus":9,"perTrialBonus":0.5,"perTrialBonusThreshold":0.05,"exampleCost":0.01},"classroomParams":{"A":{"a":1,"b":4},"B":{"a":4,"b":1},"C":{"a":2,"b":8},"D":{"a":8,"b":2}},"conditions":["nonSeqFull","nonSeqPartial","seqNoFeedback","seqFeedback"],"classroomPairings":[["A","B"],["C","D"]],"coinWeights":[0.2,0.5,0.8],"subjectId":"A2EI075XZT9Y2S","assignmentId":"3QFUFYSY9Z1JAJE2KYA5422RBG9F4S","hitId":"3AQN9REUTF20OMGWRXYK787QVFOYDP","url":"https://gershmanlab.com/experiments/alicia/teaching/experiment/?hitId=3AQN9REUTF20OMGWRXYK787QVFOYDP&workerId=A2EI075XZT9Y2S&assignmentId=3QFUFYSY9Z1JAJE2KYA5422RBG9F4S&a=YFFQ9&tp_a=YFFQ9&b=3QFUFYSY9Z1JAJE2KYA5422RBG9F4S&tp_b=3QFUFYSY9Z1JAJE2KYA5422RBG9F4S&c=365799&tp_c=365799"},{"rt":6045,"stimulus":"\n                <p>Student's guess for coin weight: <b style=\"color:Tomato;\">0.80</b></p>\n                <p></b></p>\n                <p>You will now send another set of examples to your student. <b>Remember to take your student's guess into consideration so that you can earn the highest bonus possible!</b> </p>\n                <p>Press any key to continue.</p>\n                ","response":" ","trial_type":"html-keyboard-response","trial_index":84,"time_elapsed":1416023,"internal_node_id":"0.0-83.0","params":{"nStudents":24,"maxFlips":30,"completionMinutes":45,"basePay":8,"maxBonus":9,"perTrialBonus":0.5,"perTrialBonusThreshold":0.05,"exampleCost":0.01},"classroomParams":{"A":{"a":1,"b":4},"B":{"a":4,"b":1},"C":{"a":2,"b":8},"D":{"a":8,"b":2}},"conditions":["nonSeqFull","nonSeqPartial","seqNoFeedback","seqFeedback"],"classroomPairings":[["A","B"],["C","D"]],"coinWeights":[0.2,0.5,0.8],"subjectId":"A2EI075XZT9Y2S","assignmentId":"3QFUFYSY9Z1JAJE2KYA5422RBG9F4S","hitId":"3AQN9REUTF20OMGWRXYK787QVFOYDP","url":"https://gershmanlab.com/experiments/alicia/teaching/experiment/?hitId=3AQN9REUTF20OMGWRXYK787QVFOYDP&workerId=A2EI075XZT9Y2S&assignmentId=3QFUFYSY9Z1JAJE2KYA5422RBG9F4S&a=YFFQ9&tp_a=YFFQ9&b=3QFUFYSY9Z1JAJE2KYA5422RBG9F4S&tp_b=3QFUFYSY9Z1JAJE2KYA5422RBG9F4S&c=365799&tp_c=365799"},{"rt":10477,"response":{"heads":"4","tails":"1"},"type":"response","condition":"seqFeedback","trueTheta":0.8,"classrooms":["A","B"],"studentTrueClassroom":"B","exampleSet":"second","trial_type":"survey-html-form","trial_index":85,"time_elapsed":1426501,"internal_node_id":"0.0-84.0-0.0","params":{"nStudents":24,"maxFlips":30,"completionMinutes":45,"basePay":8,"maxBonus":9,"perTrialBonus":0.5,"perTrialBonusThreshold":0.05,"exampleCost":0.01},"classroomParams":{"A":{"a":1,"b":4},"B":{"a":4,"b":1},"C":{"a":2,"b":8},"D":{"a":8,"b":2}},"conditions":["nonSeqFull","nonSeqPartial","seqNoFeedback","seqFeedback"],"classroom