[{"rt":1546,"stimulus":"Welcome to the experiment. Press any key to begin.","response":" ","trial_type":"html-keyboard-response","trial_index":0,"time_elapsed":1563,"internal_node_id":"0.0-0.0","params":{"nStudents":24,"maxFlips":30,"completionMinutes":45,"basePay":8,"maxBonus":9,"perTrialBonus":0.5,"perTrialBonusThreshold":0.05,"exampleCost":0.01},"classroomParams":{"A":{"a":1,"b":4},"B":{"a":4,"b":1},"C":{"a":2,"b":8},"D":{"a":8,"b":2}},"conditions":["nonSeqFull","nonSeqPartial","seqNoFeedback","seqFeedback"],"classroomPairings":[["A","B"],["C","D"]],"coinWeights":[0.2,0.5,0.8],"subjectId":"A2ELXYKRPPGRPB","assignmentId":"3ATTHHXXWBAUIC425HIV4ACHK36IX1","hitId":"363A7XIFV48LMLIF2CKYA8VQSVQAVR","url":"https://gershmanlab.com/experiments/alicia/teaching/experiment/?hitId=363A7XIFV48LMLIF2CKYA8VQSVQAVR&workerId=A2ELXYKRPPGRPB&assignmentId=3ATTHHXXWBAUIC425HIV4ACHK36IX1&a=XHTA9&tp_a=XHTA9&b=3ATTHHXXWBAUIC425HIV4ACHK36IX1&tp_b=3ATTHHXXWBAUIC425HIV4ACHK36IX1&c=365799&tp_c=365799"},{"rt":3500,"stimulus":"\n        <h3>Please read this consent agreement carefully before deciding whether to participate in this experiment.</h3>\n        <p><b>Purpose of the research:</b> To examine how people teach effectively.</p>\n        <p><b>What you will do in this research:</b> You will teach students the weights of different coins.</p>\n        <p><b>Time required:</b> This experiment will take 45 minutes to complete.</p>\n        <p><b>Risks:</b> There are no anticipated risks associated with participating in this study.             The effects of participating should be comparable to those you would experience from viewing a computer monitor             and using a mouse and keyboard for the duration of the experiment.</p>\n        <p><b>Benefits:</b> The study provides important information about the nature of teaching.</p>\n        <p><b>Compensation:</b> You will receive <b>$8</b> for completing the experiment and a performance bonus of up to <b>$9</b>.</p>\n        <p><b>Confidentiality:</b> Your participation in this study will remain confidential.             No personally identifiable information will be associated with your data.             Your de-identified data may be shared with other researchers and used in future projects.</p>\n        <p><b>Participation and withdrawal:</b> Your participation in this study is completely voluntary and             you may refuse to participate or you may choose to withdraw at any time without penalty or loss of\n            benefits to which you are otherwise entitled.</p>\n        <p><b>How to contact the researcher:</b> If you have questions or concerns about your participation            or payment, or want to request a summary of research findings, please contact\n            Alicia Chen, aliciachen@college.harvard.edu.</p>\n        <p><b>Whom to contact about your rights in this research:</b> For questions, concerns, suggestions,             or complaints that have not been or cannot be addressed by the researcher, or to report             research-related harm, please contact the Committee on the Use of Human Subjects in Research at Harvard University,             1414 Massachusetts Avenue, Second Floor, Cambridge, MA 02138. Phone: 617-496-2847. Email: cuhs@fas.harvard.edu.</p>\n        ","response":0,"trial_type":"html-button-response","trial_index":1,"time_elapsed":5065,"internal_node_id":"0.0-1.0","params":{"nStudents":24,"maxFlips":30,"completionMinutes":45,"basePay":8,"maxBonus":9,"perTrialBonus":0.5,"perTrialBonusThreshold":0.05,"exampleCost":0.01},"classroomParams":{"A":{"a":1,"b":4},"B":{"a":4,"b":1},"C":{"a":2,"b":8},"D":{"a":8,"b":2}},"conditions":["nonSeqFull","nonSeqPartial","seqNoFeedback","seqFeedback"],"classroomPairings":[["A","B"],["C","D"]],"coinWeights":[0.2,0.5,0.8],"subjectId":"A2ELXYKRPPGRPB","assignmentId":"3ATTHHXXWBAUIC425HIV4ACHK36IX1","hitId":"363A7XIFV48LMLIF2CKYA8VQSVQAVR","url":"https://gershmanlab.com/experiments/alicia/teaching/experiment/?hitId=363A7XIFV48LMLIF2CKYA8VQSVQAVR&workerId=A2ELXYKRPPGRPB&assignmentId=3ATTHHXXWBAUIC425HIV4ACHK36IX1&a=XHTA9&tp_a=XHTA9&b=3ATTHHXXWBAUIC425HIV4ACHK36IX1&tp_b=3ATTHHXXWBAUIC425HIV4ACHK36IX1&c=365799&tp_c=365799"},{"view_history":[{"page_index":0,"viewing_time":3007},{"page_index":1,"viewing_time":2111},{"page_index":2,"viewing_time":12634},{"page_index":3,"viewing_time":10738},{"page_index":4,"viewing_time":4020},{"page_index":5,"viewing_time":12680},{"page_index":6,"viewing_time":15806}],"rt":60997,"trial_type":"instructions","trial_index":2,"time_elapsed":66063,"internal_node_id":"0.0-2.0-0.0","params":{"nStudents":24,"maxFlips":30,"completionMinutes":45,"basePay":8,"maxBonus":9,"perTrialBonus":0.5,"perTrialBonusThreshold":0.05,"exampleCost":0.01},"classroomParams":{"A":{"a":1,"b":4},"B":{"a":4,"b":1},"C":{"a":2,"b":8},"D":{"a":8,"b":2}},"conditions":["nonSeqFull","nonSeqPartial","seqNoFeedback","seqFeedback"],"classroomPairings":[["A","B"],["C","D"]],"coinWeights":[0.2,0.5,0.8],"subjectId":"A2ELXYKRPPGRPB","assignmentId":"3ATTHHXXWBAUIC425HIV4ACHK36IX1","hitId":"363A7XIFV48LMLIF2CKYA8VQSVQAVR","url":"https://gershmanlab.com/experiments/alicia/teaching/experiment/?hitId=363A7XIFV48LMLIF2CKYA8VQSVQAVR&workerId=A2ELXYKRPPGRPB&assignmentId=3ATTHHXXWBAUIC425HIV4ACHK36IX1&a=XHTA9&tp_a=XHTA9&b=3ATTHHXXWBAUIC425HIV4ACHK36IX1&tp_b=3ATTHHXXWBAUIC425HIV4ACHK36IX1&c=365799&tp_c=365799"},{"rt":29180,"response":{"Q0":"Students in different classrooms will have seen a different number of heads and tails before seeing the examples you select for them.","Q1":"By <b>considering the student's classroom information</b> so that I can teach efficiently and accurately/helpfully at the same time (because each example I give to the student costs money!).","Q2":"The coin lands heads 90% of the time.","Q3":"No, I will teach a <b>new</b> student each time.","Q4":"The students are also on the same alien planet as you, where coins can be unfair.","Q5":"Based on the student's second (and final) guess."},"question_order":[4,3,0,5,1,2],"trial_type":"survey-multi-choice","trial_index":3,"time_elapsed":95246,"internal_node_id":"0.0-2.0-1.0","params":{"nStudents":24,"maxFlips":30,"completionMinutes":45,"basePay":8,"maxBonus":9,"perTrialBonus":0.5,"perTrialBonusThreshold":0.05,"exampleCost":0.01},"classroomParams":{"A":{"a":1,"b":4},"B":{"a":4,"b":1},"C":{"a":2,"b":8},"D":{"a":8,"b":2}},"conditions":["nonSeqFull","nonSeqPartial","seqNoFeedback","seqFeedback"],"classroomPairings":[["A","B"],["C","D"]],"coinWeights":[0.2,0.5,0.8],"subjectId":"A2ELXYKRPPGRPB","assignmentId":"3ATTHHXXWBAUIC425HIV4ACHK36IX1","hitId":"363A7XIFV48LMLIF2CKYA8VQSVQAVR","url":"https://gershmanlab.com/experiments/alicia/teaching/experiment/?hitId=363A7XIFV48LMLIF2CKYA8VQSVQAVR&workerId=A2ELXYKRPPGRPB&assignmentId=3ATTHHXXWBAUIC425HIV4ACHK36IX1&a=XHTA9&tp_a=XHTA9&b=3ATTHHXXWBAUIC425HIV4ACHK36IX1&tp_b=3ATTHHXXWBAUIC425HIV4ACHK36IX1&c=365799&tp_c=365799","pass":true},{"rt":null,"stimulus":"<div style=\"font-size:30px;\">Congrats on passing the comprehension quiz! The experiment will begin in a few seconds.</div>","response":null,"trial_type":"html-keyboard-response","trial_index":4,"time_elapsed":98261,"internal_node_id":"0.0-3.0","params":{"nStudents":24,"maxFlips":30,"completionMinutes":45,"basePay":8,"maxBonus":9,"perTrialBonus":0.5,"perTrialBonusThreshold":0.05,"exampleCost":0.01},"classroomParams":{"A":{"a":1,"b":4},"B":{"a":4,"b":1},"C":{"a":2,"b":8},"D":{"a":8,"b":2}},"conditions":["nonSeqFull","nonSeqPartial","seqNoFeedback","seqFeedback"],"classroomPairings":[["A","B"],["C","D"]],"coinWeights":[0.2,0.5,0.8],"subjectId":"A2ELXYKRPPGRPB","assignmentId":"3ATTHHXXWBAUIC425HIV4ACHK36IX1","hitId":"363A7XIFV48LMLIF2CKYA8VQSVQAVR","url":"https://gershmanlab.com/experiments/alicia/teaching/experiment/?hitId=363A7XIFV48LMLIF2CKYA8VQSVQAVR&workerId=A2ELXYKRPPGRPB&assignmentId=3ATTHHXXWBAUIC425HIV4ACHK36IX1&a=XHTA9&tp_a=XHTA9&b=3ATTHHXXWBAUIC425HIV4ACHK36IX1&tp_b=3ATTHHXXWBAUIC425HIV4ACHK36IX1&c=365799&tp_c=365799"},{"rt":null,"stimulus":"<div style=\"font-size:50px;\">First student</div>","response":null,"trial_type":"html-keyboard-response","trial_index":5,"time_elapsed":101278,"internal_node_id":"0.0-4.0","params":{"nStudents":24,"maxFlips":30,"completionMinutes":45,"basePay":8,"maxBonus":9,"perTrialBonus":0.5,"perTrialBonusThreshold":0.05,"exampleCost":0.01},"classroomParams":{"A":{"a":1,"b":4},"B":{"a":4,"b":1},"C":{"a":2,"b":8},"D":{"a":8,"b":2}},"conditions":["nonSeqFull","nonSeqPartial","seqNoFeedback","seqFeedback"],"classroomPairings":[["A","B"],["C","D"]],"coinWeights":[0.2,0.5,0.8],"subjectId":"A2ELXYKRPPGRPB","assignmentId":"3ATTHHXXWBAUIC425HIV4ACHK36IX1","hitId":"363A7XIFV48LMLIF2CKYA8VQSVQAVR","url":"https://gershmanlab.com/experiments/alicia/teaching/experiment/?hitId=363A7XIFV48LMLIF2CKYA8VQSVQAVR&workerId=A2ELXYKRPPGRPB&assignmentId=3ATTHHXXWBAUIC425HIV4ACHK36IX1&a=XHTA9&tp_a=XHTA9&b=3ATTHHXXWBAUIC425HIV4ACHK36IX1&tp_b=3ATTHHXXWBAUIC425HIV4ACHK36IX1&c=365799&tp_c=365799"},{"rt":3381,"stimulus":"\n            <h4 style=\"color:Orange;\">Student 1</h4>\n            <h2>The weight of your coin is <b style=\"color:Tomato;\">0.5</b>.</h2>\n            <p>In this block, you will be giving <b>two</b> sets of examples to Student 1.</p>\n                <p>You will see the student's guess after the first set of examples. You will also receive feedback at the end of the block.</p>\n            <p>To earn the highest bonus, you will have to <b>take into consideration the student's guess</b> when you choose your second set of examples.</p>","response":0,"trial_type":"html-button-response","trial_index":6,"time_elapsed":104661,"internal_node_id":"0.0-5.0","params":{"nStudents":24,"maxFlips":30,"completionMinutes":45,"basePay":8,"maxBonus":9,"perTrialBonus":0.5,"perTrialBonusThreshold":0.05,"exampleCost":0.01},"classroomParams":{"A":{"a":1,"b":4},"B":{"a":4,"b":1},"C":{"a":2,"b":8},"D":{"a":8,"b":2}},"conditions":["nonSeqFull","nonSeqPartial","seqNoFeedback","seqFeedback"],"classroomPairings":[["A","B"],["C","D"]],"coinWeights":[0.2,0.5,0.8],"subjectId":"A2ELXYKRPPGRPB","assignmentId":"3ATTHHXXWBAUIC425HIV4ACHK36IX1","hitId":"363A7XIFV48LMLIF2CKYA8VQSVQAVR","url":"https://gershmanlab.com/experiments/alicia/teaching/experiment/?hitId=363A7XIFV48LMLIF2CKYA8VQSVQAVR&workerId=A2ELXYKRPPGRPB&assignmentId=3ATTHHXXWBAUIC425HIV4ACHK36IX1&a=XHTA9&tp_a=XHTA9&b=3ATTHHXXWBAUIC425HIV4ACHK36IX1&tp_b=3ATTHHXXWBAUIC425HIV4ACHK36IX1&c=365799&tp_c=365799"},{"rt":44219,"response":{"heads":"10","tails":"10"},"type":"response","condition":"seqFeedback","trueTheta":0.5,"classrooms":["C","D"],"studentTrueClassroom":"C","exampleSet":"first","trial_type":"survey-html-form","trial_index":7,"time_elapsed":148882,"internal_node_id":"0.0-6.0-0.0","params":{"nStudents":24,"maxFlips":30,"completionMinutes":45,"basePay":8,"maxBonus":9,"perTrialBonus":0.5,"perTrialBonusThreshold":0.05,"exampleCost":0.01},"classroomParams":{"A":{"a":1,"b":4},"B":{"a":4,"b":1},"C":{"a":2,"b":8},"D":{"a":8,"b":2}},"conditions":["nonSeqFull","nonSeqPartial","seqNoFeedback","seqFeedback"],"classroomPairings":[["A","B"],["C","D"]],"coinWeights":[0.2,0.5,0.8],"subjectId":"A2ELXYKRPPGRPB","assignmentId":"3ATTHHXXWBAUIC425HIV4ACHK36IX1","hitId":"363A7XIFV48LMLIF2CKYA8VQSVQAVR","url":"https://gershmanlab.com/experiments/alicia/teaching/experiment/?hitId=363A7XIFV48LMLIF2CKYA8VQSVQAVR&workerId=A2ELXYKRPPGRPB&assignmentId=3ATTHHXXWBAUIC425HIV4ACHK36IX1&a=XHTA9&tp_a=XHTA9&b=3ATTHHXXWBAUIC425HIV4ACHK36IX1&tp_b=3ATTHHXXWBAUIC425HIV4ACHK36IX1&c=365799&tp_c=365799","heads":10,"tails":10,"studentIndex":0,"studentTrueHypers":{"a":2,"b":8},"studentGuess":0.4,"delta":0.09999999999999998,"totalExamples":20,"bonusSoFar":0},{"rt":null,"stimulus":"Sending examples to student... ","response":null,"trial_type":"html-keyboard-response","trial_index":8,"time_elapsed":150383,"internal_node_id":"0.0-7.0","params":{"nStudents":24,"maxFlips":30,"completionMinutes":45,"basePay":8,"maxBonus":9,"perTrialBonus":0.5,"perTrialBonusThreshold":0.05,"exampleCost":0.01},"classroomParams":{"A":{"a":1,"b":4},"B":{"a":4,"b":1},"C":{"a":2,"b":8},"D":{"a":8,"b":2}},"conditions":["nonSeqFull","nonSeqPartial","seqNoFeedback","seqFeedback"],"classroomPairings":[["A","B"],["C","D"]],"coinWeights":[0.2,0.5,0.8],"subjectId":"A2ELXYKRPPGRPB","assignmentId":"3ATTHHXXWBAUIC425HIV4ACHK36IX1","hitId":"363A7XIFV48LMLIF2CKYA8VQSVQAVR","url":"https://gershmanlab.com/experiments/alicia/teaching/experiment/?hitId=363A7XIFV48LMLIF2CKYA8VQSVQAVR&workerId=A2ELXYKRPPGRPB&assignmentId=3ATTHHXXWBAUIC425HIV4ACHK36IX1&a=XHTA9&tp_a=XHTA9&b=3ATTHHXXWBAUIC425HIV4ACHK36IX1&tp_b=3ATTHHXXWBAUIC425HIV4ACHK36IX1&c=365799&tp_c=365799"},{"rt":null,"stimulus":"Examples sent to student! Waiting for student...","response":null,"trial_type":"html-keyboard-response","trial_index":9,"time_elapsed":155385,"internal_node_id":"0.0-8.0","params":{"nStudents":24,"maxFlips":30,"completionMinutes":45,"basePay":8,"maxBonus":9,"perTrialBonus":0.5,"perTrialBonusThreshold":0.05,"exampleCost":0.01},"classroomParams":{"A":{"a":1,"b":4},"B":{"a":4,"b":1},"C":{"a":2,"b":8},"D":{"a":8,"b":2}},"conditions":["nonSeqFull","nonSeqPartial","seqNoFeedback","seqFeedback"],"classroomPairings":[["A","B"],["C","D"]],"coinWeights":[0.2,0.5,0.8],"subjectId":"A2ELXYKRPPGRPB","assignmentId":"3ATTHHXXWBAUIC425HIV4ACHK36IX1","hitId":"363A7XIFV48LMLIF2CKYA8VQSVQAVR","url":"https://gershmanlab.com/experiments/alicia/teaching/experiment/?hitId=363A7XIFV48LMLIF2CKYA8VQSVQAVR&workerId=A2ELXYKRPPGRPB&assignmentId=3ATTHHXXWBAUIC425HIV4ACHK36IX1&a=XHTA9&tp_a=XHTA9&b=3ATTHHXXWBAUIC425HIV4ACHK36IX1&tp_b=3ATTHHXXWBAUIC425HIV4ACHK36IX1&c=365799&tp_c=365799"},{"rt":6871,"stimulus":"\n                <p>Student's guess for coin weight: <b style=\"color:Tomato;\">0.40</b></p>\n                <p></b></p>\n                <p>You will now send another set of examples to your student. <b>Remember to take your student's guess into consideration so that you can earn the highest bonus possible!</b> </p>\n                <p>Press any key to continue.</p>\n                ","response":" ","trial_type":"html-keyboard-response","trial_index":10,"time_elapsed":162257,"internal_node_id":"0.0-9.0","params":{"nStudents":24,"maxFlips":30,"completionMinutes":45,"basePay":8,"maxBonus":9,"perTrialBonus":0.5,"perTrialBonusThreshold":0.05,"exampleCost":0.01},"classroomParams":{"A":{"a":1,"b":4},"B":{"a":4,"b":1},"C":{"a":2,"b":8},"D":{"a":8,"b":2}},"conditions":["nonSeqFull","nonSeqPartial","seqNoFeedback","seqFeedback"],"classroomPairings":[["A","B"],["C","D"]],"coinWeights":[0.2,0.5,0.8],"subjectId":"A2ELXYKRPPGRPB","assignmentId":"3ATTHHXXWBAUIC425HIV4ACHK36IX1","hitId":"363A7XIFV48LMLIF2CKYA8VQSVQAVR","url":"https://gershmanlab.com/experiments/alicia/teaching/experiment/?hitId=363A7XIFV48LMLIF2CKYA8VQSVQAVR&workerId=A2ELXYKRPPGRPB&assignmentId=3ATTHHXXWBAUIC425HIV4ACHK36IX1&a=XHTA9&tp_a=XHTA9&b=3ATTHHXXWBAUIC425HIV4ACHK36IX1&tp_b=3ATTHHXXWBAUIC425HIV4ACHK36IX1&c=365799&tp_c=365799"},{"rt":9156,"response":{"heads":"15","tails":"10"},"type":"response","condition":"seqFeedback","trueTheta":0.5,"classrooms":["C","D"],"studentTrueClassroom":"C","exampleSet":"second","trial_type":"survey-html-form","trial_index":11,"time_elapsed":171415,"internal_node_id":"0.0-10.0-0.0","params":{"nStudents":24,"maxFlips":30,"completionMinutes":45,"basePay":8,"maxBonus":9,"perTrialBonus":0.5,"perTrialBonusThreshold":0.05,"exampleCost":0.01},"classroomParams":{"A":{"a":1,"b":4},"B":{"a":4,"b":1},"C":{"a":2,"b":8},"D":{"a":8,"b":2}},"conditions":["nonSeqFull","nonSeqPartial","seqNoFeedback","seqFeedback"],"classroomPairings":[["A","B"],["C","D"]],"coinWeights":[0.2,0.5,0.8],"subjectId":"A2ELXYKRPPGRPB","assignmentId":"3ATTHHXXWBAUIC425HIV4ACHK36IX1","hitId":"363A7XIFV48LMLIF2CKYA8VQSVQAVR","url":"https://gershmanlab.com/experiments/alicia/teaching/experiment/?hitId=363A7XIFV48LMLIF2CKYA8VQSVQAVR&workerId=A2ELXYKRPPGRPB&assignmentId=3ATTHHXXWBAUIC425HIV4ACHK36IX1&a=XHTA9&tp_a=XHTA9&b=3ATTHHXXWBAUIC425HIV4ACHK36IX1&tp_b=3ATTHHXXWBAUIC425HIV4ACHK36IX1&c=365799&tp_c=365799","firstResponseHeads":10,"firstResponseTails":10,"secondResponseHeads":15,"secondResponseTails":10,"totalHeads":25,"totalTails":20,"studentIndex":0,"studentTrueHypers":{"a":2,"b":8},"studentGuess":0.4909090909090909,"delta":0.009090909090909094,"bonus":0.05,"bonusSoFar":0.05,"totalExamples":45},{"rt":null,"stimulus":"Sending examples to student... ","response":null,"trial_type":"html-keyboard-response","trial_index":12,"time_elapsed":172672,"internal_node_id":"0.0-11.0","params":{"nStudents":24,"maxFlips":30,"completionMinutes":45,"basePay":8,"maxBonus":9,"perTrialBonus":0.5,"perTrialBonusThreshold":0.05,"exampleCost":0.01},"classroomParams":{"A":{"a":1,"b":4},"B":{"a":4,"b":1},"C":{"a":2,"b":8},"D":{"a":8,"b":2}},"conditions":["nonSeqFull","nonSeqPartial","seqNoFeedback","seqFeedback"],"classroomPairings":[["A","B"],["C","D"]],"coinWeights":[0.2,0.5,0.8],"subjectId":"A2ELXYKRPPGRPB","assignmentId":"3ATTHHXXWBAUIC425HIV4ACHK36IX1","hitId":"363A7XIFV48LMLIF2CKYA8VQSVQAVR","url":"https://gershmanlab.com/experiments/alicia/teaching/experiment/?hitId=363A7XIFV48LMLIF2CKYA8VQSVQAVR&workerId=A2ELXYKRPPGRPB&assignmentId=3ATTHHXXWBAUIC425HIV4ACHK36IX1&a=XHTA9&tp_a=XHTA9&b=3ATTHHXXWBAUIC425HIV4ACHK36IX1&tp_b=3ATTHHXXWBAUIC425HIV4ACHK36IX1&c=365799&tp_c=365799"},{"rt":null,"stimulus":"Examples sent to student! Waiting for student...","response":null,"trial_type":"html-keyboard-response","trial_index":13,"time_elapsed":177675,"internal_node_id":"0.0-12.0","params":{"nStudents":24,"maxFlips":30,"completionMinutes":45,"basePay":8,"maxBonus":9,"perTrialBonus":0.5,"perTrialBonusThreshold":0.05,"exampleCost":0.01},"classroomParams":{"A":{"a":1,"b":4},"B":{"a":4,"b":1},"C":{"a":2,"b":8},"D":{"a":8,"b":2}},"conditions":["nonSeqFull","nonSeqPartial","seqNoFeedback","seqFeedback"],"classroomPairings":[["A","B"],["C","D"]],"coinWeights":[0.2,0.5,0.8],"subjectId":"A2ELXYKRPPGRPB","assignmentId":"3ATTHHXXWBAUIC425HIV4ACHK36IX1","hitId":"363A7XIFV48LMLIF2CKYA8VQSVQAVR","url":"https://gershmanlab.com/experiments/alicia/teaching/experiment/?hitId=363A7XIFV48LMLIF2CKYA8VQSVQAVR&workerId=A2ELXYKRPPGRPB&assignmentId=3ATTHHXXWBAUIC425HIV4ACHK36IX1&a=XHTA9&tp_a=XHTA9&b=3ATTHHXXWBAUIC425HIV4ACHK36IX1&tp_b=3ATTHHXXWBAUIC425HIV4ACHK36IX1&c=365799&tp_c=365799"},{"rt":4430,"stimulus":"\n                <p>Student 1's first guess for coin weight: <b style=\"color:Tomato\";>0.40</b></p>\n                <p>Student 1's second guess for coin weight: <b style=\"color:Tomato\";>0.49</b></p>\n                <p>You received a bonus of <b>$0.05</b> based on the student's second guess.</p>\n                <p>Total bonus so far: <b>$0.05</b></p>\n                <p>Press any key to continue.</p>\n                ","response":" ","trial_type":"html-keyboard-response","trial_index":14,"time_elapsed":182109,"internal_node_id":"0.0-13.0","params":{"nStudents":24,"maxFlips":30,"completionMinutes":45,"basePay":8,"maxBonus":9,"perTrialBonus":0.5,"perTrialBonusThreshold":0.05,"exampleCost":0.01},"classroomParams":{"A":{"a":1,"b":4},"B":{"a":4,"b":1},"C":{"a":2,"b":8},"D":{"a":8,"b":2}},"conditions":["nonSeqFull","nonSeqPartial","seqNoFeedback","seqFeedback"],"classroomPairings":[["A","B"],["C","D"]],"coinWeights":[0.2,0.5,0.8],"subjectId":"A2ELXYKRPPGRPB","assignmentId":"3ATTHHXXWBAUIC425HIV4ACHK36IX1","hitId":"363A7XIFV48LMLIF2CKYA8VQSVQAVR","url":"https://gershmanlab.com/experiments/alicia/teaching/experiment/?hitId=363A7XIFV48LMLIF2CKYA8VQSVQAVR&workerId=A2ELXYKRPPGRPB&assignmentId=3ATTHHXXWBAUIC425HIV4ACHK36IX1&a=XHTA9&tp_a=XHTA9&b=3ATTHHXXWBAUIC425HIV4ACHK36IX1&tp_b=3ATTHHXXWBAUIC425HIV4ACHK36IX1&c=365799&tp_c=365799"},{"rt":null,"stimulus":"<div style=\"font-size:60px;\">Next student</div>","response":null,"trial_type":"html-keyboard-response","trial_index":15,"time_elapsed":185111,"internal_node_id":"0.0-14.0-0.0","params":{"nStudents":24,"maxFlips":30,"completionMinutes":45,"basePay":8,"maxBonus":9,"perTrialBonus":0.5,"perTrialBonusThreshold":0.05,"exampleCost":0.01},"classroomParams":{"A":{"a":1,"b":4},"B":{"a":4,"b":1},"C":{"a":2,"b":8},"D":{"a":8,"b":2}},"conditions":["nonSeqFull","nonSeqPartial","seqNoFeedback","seqFeedback"],"classroomPairings":[["A","B"],["C","D"]],"coinWeights":[0.2,0.5,0.8],"subjectId":"A2ELXYKRPPGRPB","assignmentId":"3ATTHHXXWBAUIC425HIV4ACHK36IX1","hitId":"363A7XIFV48LMLIF2CKYA8VQSVQAVR","url":"https://gershmanlab.com/experiments/alicia/teaching/experiment/?hitId=363A7XIFV48LMLIF2CKYA8VQSVQAVR&workerId=A2ELXYKRPPGRPB&assignmentId=3ATTHHXXWBAUIC425HIV4ACHK36IX1&a=XHTA9&tp_a=XHTA9&b=3ATTHHXXWBAUIC425HIV4ACHK36IX1&tp_b=3ATTHHXXWBAUIC425HIV4ACHK36IX1&c=365799&tp_c=365799"},{"rt":2535,"stimulus":"\n            <h4 style=\"color:Orange;\">Student 2</h4>\n            <h2>The weight of your coin is <b style=\"color:Tomato;\">0.5</b>.</h2>\n            <p>In this block, you will be giving <b>one</b> set of examples to Student 2.</p>\n                <p>You will receive feedback at the end of the block.</p>\n            <p></p>","response":0,"trial_type":"html-button-response","trial_index":16,"time_elapsed":187648,"internal_node_id":"0.0-15.0","params":{"nStudents":24,"maxFlips":30,"completionMinutes":45,"basePay":8,"maxBonus":9,"perTrialBonus":0.5,"perTrialBonusThreshold":0.05,"exampleCost":0.01},"classroomParams":{"A":{"a":1,"b":4},"B":{"a":4,"b":1},"C":{"a":2,"b":8},"D":{"a":8,"b":2}},"conditions":["nonSeqFull","nonSeqPartial","seqNoFeedback","seqFeedback"],"classroomPairings":[["A","B"],["C","D"]],"coinWeights":[0.2,0.5,0.8],"subjectId":"A2ELXYKRPPGRPB","assignmentId":"3ATTHHXXWBAUIC425HIV4ACHK36IX1","hitId":"363A7XIFV48LMLIF2CKYA8VQSVQAVR","url":"https://gershmanlab.com/experiments/alicia/teaching/experiment/?hitId=363A7XIFV48LMLIF2CKYA8VQSVQAVR&workerId=A2ELXYKRPPGRPB&assignmentId=3ATTHHXXWBAUIC425HIV4ACHK36IX1&a=XHTA9&tp_a=XHTA9&b=3ATTHHXXWBAUIC425HIV4ACHK36IX1&tp_b=3ATTHHXXWBAUIC425HIV4ACHK36IX1&c=365799&tp_c=365799"},{"rt":18215,"response":{"heads":"3","tails":"0"},"type":"response","condition":"nonSeqFull","trueTheta":0.5,"classrooms":["A","B"],"studentTrueClassroom":"A","exampleSet":"first","trial_type":"survey-html-form","trial_index":17,"time_elapsed":205864,"internal_node_id":"0.0-16.0-0.0","params":{"nStudents":24,"maxFlips":30,"completionMinutes":45,"basePay":8,"maxBonus":9,"perTrialBonus":0.5,"perTrialBonusThreshold":0.05,"exampleCost":0.01},"classroomParams":{"A":{"a":1,"b":4},"B":{"a":4,"b":1},"C":{"a":2,"b":8},"D":{"a":8,"b":2}},"conditions":["nonSeqFull","nonSeqPartial","seqNoFeedback","seqFeedback"],"classroomPairings":[["A","B"],["C","D"]],"coinWeights":[0.2,0.5,0.8],"subjectId":"A2ELXYKRPPGRPB","assignmentId":"3ATTHHXXWBAUIC425HIV4ACHK36IX1","hitId":"363A7XIFV48LMLIF2CKYA8VQSVQAVR","url":"https://gershmanlab.com/experiments/alicia/teaching/experiment/?hitId=363A7XIFV48LMLIF2CKYA8VQSVQAVR&workerId=A2ELXYKRPPGRPB&assignmentId=3ATTHHXXWBAUIC425HIV4ACHK36IX1&a=XHTA9&tp_a=XHTA9&b=3ATTHHXXWBAUIC425HIV4ACHK36IX1&tp_b=3ATTHHXXWBAUIC425HIV4ACHK36IX1&c=365799&tp_c=365799","heads":3,"tails":0,"studentIndex":1,"studentTrueHypers":{"a":1,"b":4},"studentGuess":0.5,"delta":0,"totalExamples":3,"bonus":0.47,"bonusSoFar":0.52},{"rt":null,"stimulus":"Sending examples to student... ","response":null,"trial_type":"html-keyboard-response","trial_index":18,"time_elapsed":207370,"internal_node_id":"0.0-17.0","params":{"nStudents":24,"maxFlips":30,"completionMinutes":45,"basePay":8,"maxBonus":9,"perTrialBonus":0.5,"perTrialBonusThreshold":0.05,"exampleCost":0.01},"classroomParams":{"A":{"a":1,"b":4},"B":{"a":4,"b":1},"C":{"a":2,"b":8},"D":{"a":8,"b":2}},"conditions":["nonSeqFull","nonSeqPartial","seqNoFeedback","seqFeedback"],"classroomPairings":[["A","B"],["C","D"]],"coinWeights":[0.2,0.5,0.8],"subjectId":"A2ELXYKRPPGRPB","assignmentId":"3ATTHHXXWBAUIC425HIV4ACHK36IX1","hitId":"363A7XIFV48LMLIF2CKYA8VQSVQAVR","url":"https://gershmanlab.com/experiments/alicia/teaching/experiment/?hitId=363A7XIFV48LMLIF2CKYA8VQSVQAVR&workerId=A2ELXYKRPPGRPB&assignmentId=3ATTHHXXWBAUIC425HIV4ACHK36IX1&a=XHTA9&tp_a=XHTA9&b=3ATTHHXXWBAUIC425HIV4ACHK36IX1&tp_b=3ATTHHXXWBAUIC425HIV4ACHK36IX1&c=365799&tp_c=365799"},{"rt":null,"stimulus":"Examples sent to student! Waiting for student...","response":null,"trial_type":"html-keyboard-response","trial_index":19,"time_elapsed":212668,"internal_node_id":"0.0-18.0","params":{"nStudents":24,"maxFlips":30,"completionMinutes":45,"basePay":8,"maxBonus":9,"perTrialBonus":0.5,"perTrialBonusThreshold":0.05,"exampleCost":0.01},"classroomParams":{"A":{"a":1,"b":4},"B":{"a":4,"b":1},"C":{"a":2,"b":8},"D":{"a":8,"b":2}},"conditions":["nonSeqFull","nonSeqPartial","seqNoFeedback","seqFeedback"],"classroomPairings":[["A","B"],["C","D"]],"coinWeights":[0.2,0.5,0.8],"subjectId":"A2ELXYKRPPGRPB","assignmentId":"3ATTHHXXWBAUIC425HIV4ACHK36IX1","hitId":"363A7XIFV48LMLIF2CKYA8VQSVQAVR","url":"https://gershmanlab.com/experiments/alicia/teaching/experiment/?hitId=363A7XIFV48LMLIF2CKYA8VQSVQAVR&workerId=A2ELXYKRPPGRPB&assignmentId=3ATTHHXXWBAUIC425HIV4ACHK36IX1&a=XHTA9&tp_a=XHTA9&b=3ATTHHXXWBAUIC425HIV4ACHK36IX1&tp_b=3ATTHHXXWBAUIC425HIV4ACHK36IX1&c=365799&tp_c=365799"},{"rt":4914,"stimulus":"\n                <p>Student's guess for coin weight: <b style=\"color:Tomato;\">0.50</b></p>\n                <p>You received a bonus of <b>$0.47</b>. Total bonus so far: <b>$0.52</b></b></p>\n                <p></p>\n                <p>Press any key to continue.</p>\n                ","response":" ","trial_type":"html-keyboard-response","trial_index":20,"time_elapsed":217583,"internal_node_id":"0.0-19.0","params":{"nStudents":24,"maxFlips":30,"completionMinutes":45,"basePay":8,"maxBonus":9,"perTrialBonus":0.5,"perTrialBonusThreshold":0.05,"exampleCost":0.01},"classroomParams":{"A":{"a":1,"b":4},"B":{"a":4,"b":1},"C":{"a":2,"b":8},"D":{"a":8,"b":2}},"conditions":["nonSeqFull","nonSeqPartial","seqNoFeedback","seqFeedback"],"classroomPairings":[["A","B"],["C","D"]],"coinWeights":[0.2,0.5,0.8],"subjectId":"A2ELXYKRPPGRPB","assignmentId":"3ATTHHXXWBAUIC425HIV4ACHK36IX1","hitId":"363A7XIFV48LMLIF2CKYA8VQSVQAVR","url":"https://gershmanlab.com/experiments/alicia/teaching/experiment/?hitId=363A7XIFV48LMLIF2CKYA8VQSVQAVR&workerId=A2ELXYKRPPGRPB&assignmentId=3ATTHHXXWBAUIC425HIV4ACHK36IX1&a=XHTA9&tp_a=XHTA9&b=3ATTHHXXWBAUIC425HIV4ACHK36IX1&tp_b=3ATTHHXXWBAUIC425HIV4ACHK36IX1&c=365799&tp_c=365799"},{"rt":null,"stimulus":"<div style=\"font-size:60px;\">Next student</div>","response":null,"trial_type":"html-keyboard-response","trial_index":21,"time_elapsed":220584,"internal_node_id":"0.0-20.0-0.0","params":{"nStudents":24,"maxFlips":30,"completionMinutes":45,"basePay":8,"maxBonus":9,"perTrialBonus":0.5,"perTrialBonusThreshold":0.05,"exampleCost":0.01},"classroomParams":{"A":{"a":1,"b":4},"B":{"a":4,"b":1},"C":{"a":2,"b":8},"D":{"a":8,"b":2}},"conditions":["nonSeqFull","nonSeqPartial","seqNoFeedback","seqFeedback"],"classroomPairings":[["A","B"],["C","D"]],"coinWeights":[0.2,0.5,0.8],"subjectId":"A2ELXYKRPPGRPB","assignmentId":"3ATTHHXXWBAUIC425HIV4ACHK36IX1","hitId":"363A7XIFV48LMLIF2CKYA8VQSVQAVR","url":"https://gershmanlab.com/experiments/alicia/teaching/experiment/?hitId=363A7XIFV48LMLIF2CKYA8VQSVQAVR&workerId=A2ELXYKRPPGRPB&assignmentId=3ATTHHXXWBAUIC425HIV4ACHK36IX1&a=XHTA9&tp_a=XHTA9&b=3ATTHHXXWBAUIC425HIV4ACHK36IX1&tp_b=3ATTHHXXWBAUIC425HIV4ACHK36IX1&c=365799&tp_c=365799"},{"rt":2056,"stimulus":"\n            <h4 style=\"color:Orange;\">Student 3</h4>\n            <h2>The weight of your coin is <b style=\"color:Tomato;\">0.8</b>.</h2>\n            <p>In this block, you will be giving <b>two</b> sets of examples to Student 3.</p>\n                <p>You will receive feedback at the end of the block.</p>\n            <p></p>","response":0,"trial_type":"html-button-response","trial_index":22,"time_elapsed":222642,"internal_node_id":"0.0-21.0","params":{"nStudents":24,"maxFlips":30,"completionMinutes":45,"basePay":8,"maxBonus":9,"perTrialBonus":0.5,"perTrialBonusThreshold":0.05,"exampleCost":0.01},"classroomParams":{"A":{"a":1,"b":4},"B":{"a":4,"b":1},"C":{"a":2,"b":8},"D":{"a":8,"b":2}},"conditions":["nonSeqFull","nonSeqPartial","seqNoFeedback","seqFeedback"],"classroomPairings":[["A","B"],["C","D"]],"coinWeights":[0.2,0.5,0.8],"subjectId":"A2ELXYKRPPGRPB","assignmentId":"3ATTHHXXWBAUIC425HIV4ACHK36IX1","hitId":"363A7XIFV48LMLIF2CKYA8VQSVQAVR","url":"https://gershmanlab.com/experiments/alicia/teaching/experiment/?hitId=363A7XIFV48LMLIF2CKYA8VQSVQAVR&workerId=A2ELXYKRPPGRPB&assignmentId=3ATTHHXXWBAUIC425HIV4ACHK36IX1&a=XHTA9&tp_a=XHTA9&b=3ATTHHXXWBAUIC425HIV4ACHK36IX1&tp_b=3ATTHHXXWBAUIC425HIV4ACHK36IX1&c=365799&tp_c=365799"},{"rt":13753,"response":{"heads":"10","tails":"0"},"type":"response","condition":"seqNoFeedback","trueTheta":0.8,"classrooms":["A","B"],"studentTrueClassroom":"A","exampleSet":"first","trial_type":"survey-html-form","trial_index":23,"time_elapsed":236395,"internal_node_id":"0.0-22.0-0.0","params":{"nStudents":24,"maxFlips":30,"completionMinutes":45,"basePay":8,"maxBonus":9,"perTrialBonus":0.5,"perTrialBonusThreshold":0.05,"exampleCost":0.01},"classroomParams":{"A":{"a":1,"b":4},"B":{"a":4,"b":1},"C":{"a":2,"b":8},"D":{"a":8,"b":2}},"conditions":["nonSeqFull","nonSeqPartial","seqNoFeedback","seqFeedback"],"classroomPairings":[["A","B"],["C","D"]],"coinWeights":[0.2,0.5,0.8],"subjectId":"A2ELXYKRPPGRPB","assignmentId":"3ATTHHXXWBAUIC425HIV4ACHK36IX1","hitId":"363A7XIFV48LMLIF2CKYA8VQSVQAVR","url":"https://gershmanlab.com/experiments/alicia/teaching/experiment/?hitId=363A7XIFV48LMLIF2CKYA8VQSVQAVR&workerId=A2ELXYKRPPGRPB&assignmentId=3ATTHHXXWBAUIC425HIV4ACHK36IX1&a=XHTA9&tp_a=XHTA9&b=3ATTHHXXWBAUIC425HIV4ACHK36IX1&tp_b=3ATTHHXXWBAUIC425HIV4ACHK36IX1&c=365799&tp_c=365799","heads":10,"tails":0,"studentIndex":2,"studentTrueHypers":{"a":1,"b":4},"studentGuess":0.7333333333333333,"delta":0.06666666666666676,"totalExamples":10,"bonusSoFar":0.52},{"rt":null,"stimulus":"Sending examples to student... ","response":null,"trial_type":"html-keyboard-response","trial_index":24,"time_elapsed":237911,"internal_node_id":"0.0-23.0","params":{"nStudents":24,"maxFlips":30,"completionMinutes":45,"basePay":8,"maxBonus":9,"perTrialBonus":0.5,"perTrialBonusThreshold":0.05,"exampleCost":0.01},"classroomParams":{"A":{"a":1,"b":4},"B":{"a":4,"b":1},"C":{"a":2,"b":8},"D":{"a":8,"b":2}},"conditions":["nonSeqFull","nonSeqPartial","seqNoFeedback","seqFeedback"],"classroomPairings":[["A","B"],["C","D"]],"coinWeights":[0.2,0.5,0.8],"subjectId":"A2ELXYKRPPGRPB","assignmentId":"3ATTHHXXWBAUIC425HIV4ACHK36IX1","hitId":"363A7XIFV48LMLIF2CKYA8VQSVQAVR","url":"https://gershmanlab.com/experiments/alicia/teaching/experiment/?hitId=363A7XIFV48LMLIF2CKYA8VQSVQAVR&workerId=A2ELXYKRPPGRPB&assignmentId=3ATTHHXXWBAUIC425HIV4ACHK36IX1&a=XHTA9&tp_a=XHTA9&b=3ATTHHXXWBAUIC425HIV4ACHK36IX1&tp_b=3ATTHHXXWBAUIC425HIV4ACHK36IX1&c=365799&tp_c=365799"},{"rt":null,"stimulus":"Examples sent to student! Waiting for student...","response":null,"trial_type":"html-keyboard-response","trial_index":25,"time_elapsed":242424,"internal_node_id":"0.0-24.0","params":{"nStudents":24,"maxFlips":30,"completionMinutes":45,"basePay":8,"maxBonus":9,"perTrialBonus":0.5,"perTrialBonusThreshold":0.05,"exampleCost":0.01},"classroomParams":{"A":{"a":1,"b":4},"B":{"a":4,"b":1},"C":{"a":2,"b":8},"D":{"a":8,"b":2}},"conditions":["nonSeqFull","nonSeqPartial","seqNoFeedback","seqFeedback"],"classroomPairings":[["A","B"],["C","D"]],"coinWeights":[0.2,0.5,0.8],"subjectId":"A2ELXYKRPPGRPB","assignmentId":"3ATTHHXXWBAUIC425HIV4ACHK36IX1","hitId":"363A7XIFV48LMLIF2CKYA8VQSVQAVR","url":"https://gershmanlab.com/experiments/alicia/teaching/experiment/?hitId=363A7XIFV48LMLIF2CKYA8VQSVQAVR&workerId=A2ELXYKRPPGRPB&assignmentId=3ATTHHXXWBAUIC425HIV4ACHK36IX1&a=XHTA9&tp_a=XHTA9&b=3ATTHHXXWBAUIC425HIV4ACHK36IX1&tp_b=3ATTHHXXWBAUIC425HIV4ACHK36IX1&c=365799&tp_c=365799"},{"rt":22806,"response":{"heads":"15","tails":"3"},"type":"response","condition":"seqNoFeedback","trueTheta":0.8,"classrooms":["A","B"],"studentTrueClassroom":"A","exampleSet":"second","trial_type":"survey-html-form","trial_index":26,"time_elapsed":265231,"internal_node_id":"0.0-25.0-0.0","params":{"nStudents":24,"maxFlips":30,"completionMinutes":45,"basePay":8,"maxBonus":9,"perTrialBonus":0.5,"perTrialBonusThreshold":0.05,"exampleCost":0.01},"classroomParams":{"A":{"a":1,"b":4},"B":{"a":4,"b":1},"C":{"a":2,"b":8},"D":{"a":8,"b":2}},"conditions":["nonSeqFull","nonSeqPartial","seqNoFeedback","seqFeedback"],"classroomPairings":[["A","B"],["C","D"]],"coinWeights":[0.2,0.5,0.8],"subjectId":"A2ELXYKRPPGRPB","assignmentId":"3ATTHHXXWBAUIC425HIV4ACHK36IX1","hitId":"363A7XIFV48LMLIF2CKYA8VQSVQAVR","url":"https://gershmanlab.com/experiments/alicia/teaching/experiment/?hitId=363A7XIFV48LMLIF2CKYA8VQSVQAVR&workerId=A2ELXYKRPPGRPB&assignmentId=3ATTHHXXWBAUIC425HIV4ACHK36IX1&a=XHTA9&tp_a=XHTA9&b=3ATTHHXXWBAUIC425HIV4ACHK36IX1&tp_b=3ATTHHXXWBAUIC425HIV4ACHK36IX1&c=365799&tp_c=365799","firstResponseHeads":10,"firstResponseTails":0,"secondResponseHeads":15,"secondResponseTails":3,"totalHeads":25,"totalTails":3,"studentIndex":2,"studentTrueHypers":{"a":1,"b":4},"studentGuess":0.7878787878787878,"delta":0.0121212121212122,"bonus":0.22,"bonusSoFar":0.74,"totalExamples":28},{"rt":null,"stimulus":"Sending examples to student... ","response":null,"trial_type":"html-keyboard-response","trial_index":27,"time_elapsed":266995,"internal_node_id":"0.0-26.0","params":{"nStudents":24,"maxFlips":30,"completionMinutes":45,"basePay":8,"maxBonus":9,"perTrialBonus":0.5,"perTrialBonusThreshold":0.05,"exampleCost":0.01},"classroomParams":{"A":{"a":1,"b":4},"B":{"a":4,"b":1},"C":{"a":2,"b":8},"D":{"a":8,"b":2}},"conditions":["nonSeqFull","nonSeqPartial","seqNoFeedback","seqFeedback"],"classroomPairings":[["A","B"],["C","D"]],"coinWeights":[0.2,0.5,0.8],"subjectId":"A2ELXYKRPPGRPB","assignmentId":"3ATTHHXXWBAUIC425HIV4ACHK36IX1","hitId":"363A7XIFV48LMLIF2CKYA8VQSVQAVR","url":"https://gershmanlab.com/experiments/alicia/teaching/experiment/?hitId=363A7XIFV48LMLIF2CKYA8VQSVQAVR&workerId=A2ELXYKRPPGRPB&assignmentId=3ATTHHXXWBAUIC425HIV4ACHK36IX1&a=XHTA9&tp_a=XHTA9&b=3ATTHHXXWBAUIC425HIV4ACHK36IX1&tp_b=3ATTHHXXWBAUIC425HIV4ACHK36IX1&c=365799&tp_c=365799"},{"rt":null,"stimulus":"Examples sent to student! Waiting for student...","response":null,"trial_type":"html-keyboard-response","trial_index":28,"time_elapsed":270997,"internal_node_id":"0.0-27.0","params":{"nStudents":24,"maxFlips":30,"completionMinutes":45,"basePay":8,"maxBonus":9,"perTrialBonus":0.5,"perTrialBonusThreshold":0.05,"exampleCost":0.01},"classroomParams":{"A":{"a":1,"b":4},"B":{"a":4,"b":1},"C":{"a":2,"b":8},"D":{"a":8,"b":2}},"conditions":["nonSeqFull","nonSeqPartial","seqNoFeedback","seqFeedback"],"classroomPairings":[["A","B"],["C","D"]],"coinWeights":[0.2,0.5,0.8],"subjectId":"A2ELXYKRPPGRPB","assignmentId":"3ATTHHXXWBAUIC425HIV4ACHK36IX1","hitId":"363A7XIFV48LMLIF2CKYA8VQSVQAVR","url":"https://gershmanlab.com/experiments/alicia/teaching/experiment/?hitId=363A7XIFV48LMLIF2CKYA8VQSVQAVR&workerId=A2ELXYKRPPGRPB&assignmentId=3ATTHHXXWBAUIC425HIV4ACHK36IX1&a=XHTA9&tp_a=XHTA9&b=3ATTHHXXWBAUIC425HIV4ACHK36IX1&tp_b=3ATTHHXXWBAUIC425HIV4ACHK36IX1&c=365799&tp_c=365799"},{"rt":4513,"stimulus":"\n                <p>Student 3's first guess for coin weight: <b style=\"color:Tomato\";>0.73</b></p>\n                <p>Student 3's second guess for coin weight: <b style=\"color:Tomato\";>0.79</b></p>\n                <p>You received a bonus of <b>$0.22</b> based on the student's second guess.</p>\n                <p>Total bonus so far: <b>$0.74</b></p>\n                <p>Press any key to continue.</p>\n                ","response":" ","trial_type":"html-keyboard-response","trial_index":29,"time_elapsed":275512,"internal_node_id":"0.0-28.0","params":{"nStudents":24,"maxFlips":30,"completionMinutes":45,"basePay":8,"maxBonus":9,"perTrialBonus":0.5,"perTrialBonusThreshold":0.05,"exampleCost":0.01},"classroomParams":{"A":{"a":1,"b":4},"B":{"a":4,"b":1},"C":{"a":2,"b":8},"D":{"a":8,"b":2}},"conditions":["nonSeqFull","nonSeqPartial","seqNoFeedback","seqFeedback"],"classroomPairings":[["A","B"],["C","D"]],"coinWeights":[0.2,0.5,0.8],"subjectId":"A2ELXYKRPPGRPB","assignmentId":"3ATTHHXXWBAUIC425HIV4ACHK36IX1","hitId":"363A7XIFV48LMLIF2CKYA8VQSVQAVR","url":"https://gershmanlab.com/experiments/alicia/teaching/experiment/?hitId=363A7XIFV48LMLIF2CKYA8VQSVQAVR&workerId=A2ELXYKRPPGRPB&assignmentId=3ATTHHXXWBAUIC425HIV4ACHK36IX1&a=XHTA9&tp_a=XHTA9&b=3ATTHHXXWBAUIC425HIV4ACHK36IX1&tp_b=3ATTHHXXWBAUIC425HIV4ACHK36IX1&c=365799&tp_c=365799"},{"rt":null,"stimulus":"<div style=\"font-size:60px;\">Next student</div>","response":null,"trial_type":"html-keyboard-response","trial_index":30,"time_elapsed":277763,"internal_node_id":"0.0-29.0-0.0","params":{"nStudents":24,"maxFlips":30,"completionMinutes":45,"basePay":8,"maxBonus":9,"perTrialBonus":0.5,"perTrialBonusThreshold":0.05,"exampleCost":0.01},"classroomParams":{"A":{"a":1,"b":4},"B":{"a":4,"b":1},"C":{"a":2,"b":8},"D":{"a":8,"b":2}},"conditions":["nonSeqFull","nonSeqPartial","seqNoFeedback","seqFeedback"],"classroomPairings":[["A","B"],["C","D"]],"coinWeights":[0.2,0.5,0.8],"subjectId":"A2ELXYKRPPGRPB","assignmentId":"3ATTHHXXWBAUIC425HIV4ACHK36IX1","hitId":"363A7XIFV48LMLIF2CKYA8VQSVQAVR","url":"https://gershmanlab.com/experiments/alicia/teaching/experiment/?hitId=363A7XIFV48LMLIF2CKYA8VQSVQAVR&workerId=A2ELXYKRPPGRPB&assignmentId=3ATTHHXXWBAUIC425HIV4ACHK36IX1&a=XHTA9&tp_a=XHTA9&b=3ATTHHXXWBAUIC425HIV4ACHK36IX1&tp_b=3ATTHHXXWBAUIC425HIV4ACHK36IX1&c=365799&tp_c=365799"},{"rt":1608,"stimulus":"\n            <h4 style=\"color:Orange;\">Student 4</h4>\n            <h2>The weight of your coin is <b style=\"color:Tomato;\">0.2</b>.</h2>\n            <p>In this block, you will be giving <b>one</b> set of examples to Student 4.</p>\n                <p>You will receive feedback at the end of the block.</p>\n            <p></p>","response":0,"trial_type":"html-button-response","trial_index":31,"time_elapsed":279373,"internal_node_id":"0.0-30.0","params":{"nStudents":24,"maxFlips":30,"completionMinutes":45,"basePay":8,"maxBonus":9,"perTrialBonus":0.5,"perTrialBonusThreshold":0.05,"exampleCost":0.01},"classroomParams":{"A":{"a":1,"b":4},"B":{"a":4,"b":1},"C":{"a":2,"b":8},"D":{"a":8,"b":2}},"conditions":["nonSeqFull","nonSeqPartial","seqNoFeedback","seqFeedback"],"classroomPairings":[["A","B"],["C","D"]],"coinWeights":[0.2,0.5,0.8],"subjectId":"A2ELXYKRPPGRPB","assignmentId":"3ATTHHXXWBAUIC425HIV4ACHK36IX1","hitId":"363A7XIFV48LMLIF2CKYA8VQSVQAVR","url":"https://gershmanlab.com/experiments/alicia/teaching/experiment/?hitId=363A7XIFV48LMLIF2CKYA8VQSVQAVR&workerId=A2ELXYKRPPGRPB&assignmentId=3ATTHHXXWBAUIC425HIV4ACHK36IX1&a=XHTA9&tp_a=XHTA9&b=3ATTHHXXWBAUIC425HIV4ACHK36IX1&tp_b=3ATTHHXXWBAUIC425HIV4ACHK36IX1&c=365799&tp_c=365799"},{"rt":8396,"response":{"heads":"0","tails":"15"},"type":"response","condition":"nonSeqFull","trueTheta":0.2,"classrooms":["C","D"],"studentTrueClassroom":"D","exampleSet":"first","trial_type":"survey-html-form","trial_index":32,"time_elapsed":287770,"internal_node_id":"0.0-31.0-0.0","params":{"nStudents":24,"maxFlips":30,"completionMinutes":45,"basePay":8,"maxBonus":9,"perTrialBonus":0.5,"perTrialBonusThreshold":0.05,"exampleCost":0.01},"classroomParams":{"A":{"a":1,"b":4},"B":{"a":4,"b":1},"C":{"a":2,"b":8},"D":{"a":8,"b":2}},"conditions":["nonSeqFull","nonSeqPartial","seqNoFeedback","seqFeedback"],"classroomPairings":[["A","B"],["C","D"]],"coinWeights":[0.2,0.5,0.8],"subjectId":"A2ELXYKRPPGRPB","assignmentId":"3ATTHHXXWBAUIC425HIV4ACHK36IX1","hitId":"363A7XIFV48LMLIF2CKYA8VQSVQAVR","url":"https://gershmanlab.com/experiments/alicia/teaching/experiment/?hitId=363A7XIFV48LMLIF2CKYA8VQSVQAVR&workerId=A2ELXYKRPPGRPB&assignmentId=3ATTHHXXWBAUIC425HIV4ACHK36IX1&a=XHTA9&tp_a=XHTA9&b=3ATTHHXXWBAUIC425HIV4ACHK36IX1&tp_b=3ATTHHXXWBAUIC425HIV4ACHK36IX1&c=365799&tp_c=365799","heads":0,"tails":15,"studentIndex":3,"studentTrueHypers":{"a":8,"b":2},"studentGuess":0.32,"delta":0.12,"totalExamples":15,"bonus":0,"bonusSoFar":0.74},{"rt":null,"stimulus":"Sending examples to student... ","response":null,"trial_type":"html-keyboard-response","trial_index":33,"time_elapsed":289022,"internal_node_id":"0.0-32.0","params":{"nStudents":24,"maxFlips":30,"completionMinutes":45,"basePay":8,"maxBonus":9,"perTrialBonus":0.5,"perTrialBonusThreshold":0.05,"exampleCost":0.01},"classroomParams":{"A":{"a":1,"b":4},"B":{"a":4,"b":1},"C":{"a":2,"b":8},"D":{"a":8,"b":2}},"conditions":["nonSeqFull","nonSeqPartial","seqNoFeedback","seqFeedback"],"classroomPairings":[["A","B"],["C","D"]],"coinWeights":[0.2,0.5,0.8],"subjectId":"A2ELXYKRPPGRPB","assignmentId":"3ATTHHXXWBAUIC425HIV4ACHK36IX1","hitId":"363A7XIFV48LMLIF2CKYA8VQSVQAVR","url":"https://gershmanlab.com/experiments/alicia/teaching/experiment/?hitId=363A7XIFV48LMLIF2CKYA8VQSVQAVR&workerId=A2ELXYKRPPGRPB&assignmentId=3ATTHHXXWBAUIC425HIV4ACHK36IX1&a=XHTA9&tp_a=XHTA9&b=3ATTHHXXWBAUIC425HIV4ACHK36IX1&tp_b=3ATTHHXXWBAUIC425HIV4ACHK36IX1&c=365799&tp_c=365799"},{"rt":null,"stimulus":"Examples sent to student! Waiting for student...","response":null,"trial_type":"html-keyboard-response","trial_index":34,"time_elapsed":293025,"internal_node_id":"0.0-33.0","params":{"nStudents":24,"maxFlips":30,"completionMinutes":45,"basePay":8,"maxBonus":9,"perTrialBonus":0.5,"perTrialBonusThreshold":0.05,"exampleCost":0.01},"classroomParams":{"A":{"a":1,"b":4},"B":{"a":4,"b":1},"C":{"a":2,"b":8},"D":{"a":8,"b":2}},"conditions":["nonSeqFull","nonSeqPartial","seqNoFeedback","seqFeedback"],"classroomPairings":[["A","B"],["C","D"]],"coinWeights":[0.2,0.5,0.8],"subjectId":"A2ELXYKRPPGRPB","assignmentId":"3ATTHHXXWBAUIC425HIV4ACHK36IX1","hitId":"363A7XIFV48LMLIF2CKYA8VQSVQAVR","url":"https://gershmanlab.com/experiments/alicia/teaching/experiment/?hitId=363A7XIFV48LMLIF2CKYA8VQSVQAVR&workerId=A2ELXYKRPPGRPB&assignmentId=3ATTHHXXWBAUIC425HIV4ACHK36IX1&a=XHTA9&tp_a=XHTA9&b=3ATTHHXXWBAUIC425HIV4ACHK36IX1&tp_b=3ATTHHXXWBAUIC425HIV4ACHK36IX1&c=365799&tp_c=365799"},{"rt":2982,"stimulus":"\n                <p>Student's guess for coin weight: <b style=\"color:Tomato;\">0.32</b></p>\n                <p>You received a bonus of <b>$0</b>. Total bonus so far: <b>$0.74</b></b></p>\n                <p></p>\n                <p>Press any key to continue.</p>\n                ","response":" ","trial_type":"html-keyboard-response","trial_index":35,"time_elapsed":296008,"internal_node_id":"0.0-34.0","params":{"nStudents":24,"maxFlips":30,"completionMinutes":45,"basePay":8,"maxBonus":9,"perTrialBonus":0.5,"perTrialBonusThreshold":0.05,"exampleCost":0.01},"classroomParams":{"A":{"a":1,"b":4},"B":{"a":4,"b":1},"C":{"a":2,"b":8},"D":{"a":8,"b":2}},"conditions":["nonSeqFull","nonSeqPartial","seqNoFeedback","seqFeedback"],"classroomPairings":[["A","B"],["C","D"]],"coinWeights":[0.2,0.5,0.8],"subjectId":"A2ELXYKRPPGRPB","assignmentId":"3ATTHHXXWBAUIC425HIV4ACHK36IX1","hitId":"363A7XIFV48LMLIF2CKYA8VQSVQAVR","url":"https://gershmanlab.com/experiments/alicia/teaching/experiment/?hitId=363A7XIFV48LMLIF2CKYA8VQSVQAVR&workerId=A2ELXYKRPPGRPB&assignmentId=3ATTHHXXWBAUIC425HIV4ACHK36IX1&a=XHTA9&tp_a=XHTA9&b=3ATTHHXXWBAUIC425HIV4ACHK36IX1&tp_b=3ATTHHXXWBAUIC425HIV4ACHK36IX1&c=365799&tp_c=365799"},{"rt":null,"stimulus":"<div style=\"font-size:60px;\">Next student</div>","response":null,"trial_type":"html-keyboard-response","trial_index":36,"time_elapsed":298510,"internal_node_id":"0.0-35.0-0.0","params":{"nStudents":24,"maxFlips":30,"completionMinutes":45,"basePay":8,"maxBonus":9,"perTrialBonus":0.5,"perTrialBonusThreshold":0.05,"exampleCost":0.01},"classroomParams":{"A":{"a":1,"b":4},"B":{"a":4,"b":1},"C":{"a":2,"b":8},"D":{"a":8,"b":2}},"conditions":["nonSeqFull","nonSeqPartial","seqNoFeedback","seqFeedback"],"classroomPairings":[["A","B"],["C","D"]],"coinWeights":[0.2,0.5,0.8],"subjectId":"A2ELXYKRPPGRPB","assignmentId":"3ATTHHXXWBAUIC425HIV4ACHK36IX1","hitId":"363A7XIFV48LMLIF2CKYA8VQSVQAVR","url":"https://gershmanlab.com/experiments/alicia/teaching/experiment/?hitId=363A7XIFV48LMLIF2CKYA8VQSVQAVR&workerId=A2ELXYKRPPGRPB&assignmentId=3ATTHHXXWBAUIC425HIV4ACHK36IX1&a=XHTA9&tp_a=XHTA9&b=3ATTHHXXWBAUIC425HIV4ACHK36IX1&tp_b=3ATTHHXXWBAUIC425HIV4ACHK36IX1&c=365799&tp_c=365799"},{"rt":1496,"stimulus":"\n            <h4 style=\"color:Orange;\">Student 5</h4>\n            <h2>The weight of your coin is <b style=\"color:Tomato;\">0.2</b>.</h2>\n            <p>In this block, you will be giving <b>one</b> set of examples to Student 5.</p>\n                <p>You will receive feedback at the end of the block.</p>\n            <p></p>","response":0,"trial_type":"html-button-response","trial_index":37,"time_elapsed":300007,"internal_node_id":"0.0-36.0","params":{"nStudents":24,"maxFlips":30,"completionMinutes":45,"basePay":8,"maxBonus":9,"perTrialBonus":0.5,"perTrialBonusThreshold":0.05,"exampleCost":0.01},"classroomParams":{"A":{"a":1,"b":4},"B":{"a":4,"b":1},"C":{"a":2,"b":8},"D":{"a":8,"b":2}},"conditions":["nonSeqFull","nonSeqPartial","seqNoFeedback","seqFeedback"],"classroomPairings":[["A","B"],["C","D"]],"coinWeights":[0.2,0.5,0.8],"subjectId":"A2ELXYKRPPGRPB","assignmentId":"3ATTHHXXWBAUIC425HIV4ACHK36IX1","hitId":"363A7XIFV48LMLIF2CKYA8VQSVQAVR","url":"https://gershmanlab.com/experiments/alicia/teaching/experiment/?hitId=363A7XIFV48LMLIF2CKYA8VQSVQAVR&workerId=A2ELXYKRPPGRPB&assignmentId=3ATTHHXXWBAUIC425HIV4ACHK36IX1&a=XHTA9&tp_a=XHTA9&b=3ATTHHXXWBAUIC425HIV4ACHK36IX1&tp_b=3ATTHHXXWBAUIC425HIV4ACHK36IX1&c=365799&tp_c=365799"},{"rt":11289,"response":{"heads":"0","tails":"10"},"type":"response","condition":"nonSeqPartial","trueTheta":0.2,"classrooms":["C","D"],"studentTrueClassroom":"C","exampleSet":"first","trial_type":"survey-html-form","trial_index":38,"time_elapsed":311296,"internal_node_id":"0.0-37.0-0.0","params":{"nStudents":24,"maxFlips":30,"completionMinutes":45,"basePay":8,"maxBonus":9,"perTrialBonus":0.5,"perTrialBonusThreshold":0.05,"exampleCost":0.01},"classroomParams":{"A":{"a":1,"b":4},"B":{"a":4,"b":1},"C":{"a":2,"b":8},"D":{"a":8,"b":2}},"conditions":["nonSeqFull","nonSeqPartial","seqNoFeedback","seqFeedback"],"classroomPairings":[["A","B"],["C","D"]],"coinWeights":[0.2,0.5,0.8],"subjectId":"A2ELXYKRPPGRPB","assignmentId":"3ATTHHXXWBAUIC425HIV4ACHK36IX1","hitId":"363A7XIFV48LMLIF2CKYA8VQSVQAVR","url":"https://gershmanlab.com/experiments/alicia/teaching/experiment/?hitId=363A7XIFV48LMLIF2CKYA8VQSVQAVR&workerId=A2ELXYKRPPGRPB&assignmentId=3ATTHHXXWBAUIC425HIV4ACHK36IX1&a=XHTA9&tp_a=XHTA9&b=3ATTHHXXWBAUIC425HIV4ACHK36IX1&tp_b=3ATTHHXXWBAUIC425HIV4ACHK36IX1&c=365799&tp_c=365799","heads":0,"tails":10,"studentIndex":4,"studentTrueHypers":{"a":2,"b":8},"studentGuess":0.1,"delta":0.1,"totalExamples":10,"bonus":0,"bonusSoFar":0.74},{"rt":null,"stimulus":"Sending examples to student... ","response":null,"trial_type":"html-keyboard-response","trial_index":39,"time_elapsed":312561,"internal_node_id":"0.0-38.0","params":{"nStudents":24,"maxFlips":30,"completionMinutes":45,"basePay":8,"maxBonus":9,"perTrialBonus":0.5,"perTrialBonusThreshold":0.05,"exampleCost":0.01},"classroomParams":{"A":{"a":1,"b":4},"B":{"a":4,"b":1},"C":{"a":2,"b":8},"D":{"a":8,"b":2}},"conditions":["nonSeqFull","nonSeqPartial","seqNoFeedback","seqFeedback"],"classroomPairings":[["A","B"],["C","D"]],"coinWeights":[0.2,0.5,0.8],"subjectId":"A2ELXYKRPPGRPB","assignmentId":"3ATTHHXXWBAUIC425HIV4ACHK36IX1","hitId":"363A7XIFV48LMLIF2CKYA8VQSVQAVR","url":"https://gershmanlab.com/experiments/alicia/teaching/experiment/?hitId=363A7XIFV48LMLIF2CKYA8VQSVQAVR&workerId=A2ELXYKRPPGRPB&assignmentId=3ATTHHXXWBAUIC425HIV4ACHK36IX1&a=XHTA9&tp_a=XHTA9&b=3ATTHHXXWBAUIC425HIV4ACHK36IX1&tp_b=3ATTHHXXWBAUIC425HIV4ACHK36IX1&c=365799&tp_c=365799"},{"rt":null,"stimulus":"Examples sent to student! Waiting for student...","response":null,"trial_type":"html-keyboard-response","trial_index":40,"time_elapsed":317063,"internal_node_id":"0.0-39.0","params":{"nStudents":24,"maxFlips":30,"completionMinutes":45,"basePay":8,"maxBonus":9,"perTrialBonus":0.5,"perTrialBonusThreshold":0.05,"exampleCost":0.01},"classroomParams":{"A":{"a":1,"b":4},"B":{"a":4,"b":1},"C":{"a":2,"b":8},"D":{"a":8,"b":2}},"conditions":["nonSeqFull","nonSeqPartial","seqNoFeedback","seqFeedback"],"classroomPairings":[["A","B"],["C","D"]],"coinWeights":[0.2,0.5,0.8],"subjectId":"A2ELXYKRPPGRPB","assignmentId":"3ATTHHXXWBAUIC425HIV4ACHK36IX1","hitId":"363A7XIFV48LMLIF2CKYA8VQSVQAVR","url":"https://gershmanlab.com/experiments/alicia/teaching/experiment/?hitId=363A7XIFV48LMLIF2CKYA8VQSVQAVR&workerId=A2ELXYKRPPGRPB&assignmentId=3ATTHHXXWBAUIC425HIV4ACHK36IX1&a=XHTA9&tp_a=XHTA9&b=3ATTHHXXWBAUIC425HIV4ACHK36IX1&tp_b=3ATTHHXXWBAUIC425HIV4ACHK36IX1&c=365799&tp_c=365799"},{"rt":1569,"stimulus":"\n                <p>Student's guess for coin weight: <b style=\"color:Tomato;\">0.10</b></p>\n                <p>You received a bonus of <b>$0</b>. Total bonus so far: <b>$0.74</b></b></p>\n                <p></p>\n                <p>Press any key to continue.</p>\n                ","response":" ","trial_type":"html-keyboard-response","trial_index":41,"time_elapsed":318634,"internal_node_id":"0.0-40.0","params":{"nStudents":24,"maxFlips":30,"completionMinutes":45,"basePay":8,"maxBonus":9,"perTrialBonus":0.5,"perTrialBonusThreshold":0.05,"exampleCost":0.01},"classroomParams":{"A":{"a":1,"b":4},"B":{"a":4,"b":1},"C":{"a":2,"b":8},"D":{"a":8,"b":2}},"conditions":["nonSeqFull","nonSeqPartial","seqNoFeedback","seqFeedback"],"classroomPairings":[["A","B"],["C","D"]],"coinWeights":[0.2,0.5,0.8],"subjectId":"A2ELXYKRPPGRPB","assignmentId":"3ATTHHXXWBAUIC425HIV4ACHK36IX1","hitId":"363A7XIFV48LMLIF2CKYA8VQSVQAVR","url":"https://gershmanlab.com/experiments/alicia/teaching/experiment/?hitId=363A7XIFV48LMLIF2CKYA8VQSVQAVR&workerId=A2ELXYKRPPGRPB&assignmentId=3ATTHHXXWBAUIC425HIV4ACHK36IX1&a=XHTA9&tp_a=XHTA9&b=3ATTHHXXWBAUIC425HIV4ACHK36IX1&tp_b=3ATTHHXXWBAUIC425HIV4ACHK36IX1&c=365799&tp_c=365799"},{"rt":null,"stimulus":"<div style=\"font-size:60px;\">Next student</div>","response":null,"trial_type":"html-keyboard-response","trial_index":42,"time_elapsed":321137,"internal_node_id":"0.0-41.0-0.0","params":{"nStudents":24,"maxFlips":30,"completionMinutes":45,"basePay":8,"maxBonus":9,"perTrialBonus":0.5,"perTrialBonusThreshold":0.05,"exampleCost":0.01},"classroomParams":{"A":{"a":1,"b":4},"B":{"a":4,"b":1},"C":{"a":2,"b":8},"D":{"a":8,"b":2}},"conditions":["nonSeqFull","nonSeqPartial","seqNoFeedback","seqFeedback"],"classroomPairings":[["A","B"],["C","D"]],"coinWeights":[0.2,0.5,0.8],"subjectId":"A2ELXYKRPPGRPB","assignmentId":"3ATTHHXXWBAUIC425HIV4ACHK36IX1","hitId":"363A7XIFV48LMLIF2CKYA8VQSVQAVR","url":"https://gershmanlab.com/experiments/alicia/teaching/experiment/?hitId=363A7XIFV48LMLIF2CKYA8VQSVQAVR&workerId=A2ELXYKRPPGRPB&assignmentId=3ATTHHXXWBAUIC425HIV4ACHK36IX1&a=XHTA9&tp_a=XHTA9&b=3ATTHHXXWBAUIC425HIV4ACHK36IX1&tp_b=3ATTHHXXWBAUIC425HIV4ACHK36IX1&c=365799&tp_c=365799"},{"rt":1280,"stimulus":"\n            <h4 style=\"color:Orange;\">Student 6</h4>\n            <h2>The weight of your coin is <b style=\"color:Tomato;\">0.8</b>.</h2>\n            <p>In this block, you will be giving <b>one</b> set of examples to Student 6.</p>\n                <p>You will receive feedback at the end of the block.</p>\n            <p></p>","response":0,"trial_type":"html-button-response","trial_index":43,"time_elapsed":322418,"internal_node_id":"0.0-42.0","params":{"nStudents":24,"maxFlips":30,"completionMinutes":45,"basePay":8,"maxBonus":9,"perTrialBonus":0.5,"perTrialBonusThreshold":0.05,"exampleCost":0.01},"classroomParams":{"A":{"a":1,"b":4},"B":{"a":4,"b":1},"C":{"a":2,"b":8},"D":{"a":8,"b":2}},"conditions":["nonSeqFull","nonSeqPartial","seqNoFeedback","seqFeedback"],"classroomPairings":[["A","B"],["C","D"]],"coinWeights":[0.2,0.5,0.8],"subjectId":"A2ELXYKRPPGRPB","assignmentId":"3ATTHHXXWBAUIC425HIV4ACHK36IX1","hitId":"363A7XIFV48LMLIF2CKYA8VQSVQAVR","url":"https://gershmanlab.com/experiments/alicia/teaching/experiment/?hitId=363A7XIFV48LMLIF2CKYA8VQSVQAVR&workerId=A2ELXYKRPPGRPB&assignmentId=3ATTHHXXWBAUIC425HIV4ACHK36IX1&a=XHTA9&tp_a=XHTA9&b=3ATTHHXXWBAUIC425HIV4ACHK36IX1&tp_b=3ATTHHXXWBAUIC425HIV4ACHK36IX1&c=365799&tp_c=365799"},{"rt":9874,"response":{"heads":"10","tails":"2"},"type":"response","condition":"nonSeqFull","trueTheta":0.8,"classrooms":["A","B"],"studentTrueClassroom":"B","exampleSet":"first","trial_type":"survey-html-form","trial_index":44,"time_elapsed":332293,"internal_node_id":"0.0-43.0-0.0","params":{"nStudents":24,"maxFlips":30,"completionMinutes":45,"basePay":8,"maxBonus":9,"perTrialBonus":0.5,"perTrialBonusThreshold":0.05,"exampleCost":0.01},"classroomParams":{"A":{"a":1,"b":4},"B":{"a":4,"b":1},"C":{"a":2,"b":8},"D":{"a":8,"b":2}},"conditions":["nonSeqFull","nonSeqPartial","seqNoFeedback","seqFeedback"],"classroomPairings":[["A","B"],["C","D"]],"coinWeights":[0.2,0.5,0.8],"subjectId":"A2ELXYKRPPGRPB","assignmentId":"3ATTHHXXWBAUIC425HIV4ACHK36IX1","hitId":"363A7XIFV48LMLIF2CKYA8VQSVQAVR","url":"https://gershmanlab.com/experiments/alicia/teaching/experiment/?hitId=363A7XIFV48LMLIF2CKYA8VQSVQAVR&workerId=A2ELXYKRPPGRPB&assignmentId=3ATTHHXXWBAUIC425HIV4ACHK36IX1&a=XHTA9&tp_a=XHTA9&b=3ATTHHXXWBAUIC425HIV4ACHK36IX1&tp_b=3ATTHHXXWBAUIC425HIV4ACHK36IX1&c=365799&tp_c=365799","heads":10,"tails":2,"studentIndex":5,"studentTrueHypers":{"a":4,"b":1},"studentGuess":0.8235294117647058,"delta":0.0235294117647058,"totalExamples":12,"bonus":0.38,"bonusSoFar":1.12},{"rt":null,"stimulus":"Sending examples to student... ","response":null,"trial_type":"html-keyboard-response","trial_index":45,"time_elapsed":334046,"internal_node_id":"0.0-44.0","params":{"nStudents":24,"maxFlips":30,"completionMinutes":45,"basePay":8,"maxBonus":9,"perTrialBonus":0.5,"perTrialBonusThreshold":0.05,"exampleCost":0.01},"classroomParams":{"A":{"a":1,"b":4},"B":{"a":4,"b":1},"C":{"a":2,"b":8},"D":{"a":8,"b":2}},"conditions":["nonSeqFull","nonSeqPartial","seqNoFeedback","seqFeedback"],"classroomPairings":[["A","B"],["C","D"]],"coinWeights":[0.2,0.5,0.8],"subjectId":"A2ELXYKRPPGRPB","assignmentId":"3ATTHHXXWBAUIC425HIV4ACHK36IX1","hitId":"363A7XIFV48LMLIF2CKYA8VQSVQAVR","url":"https://gershmanlab.com/experiments/alicia/teaching/experiment/?hitId=363A7XIFV48LMLIF2CKYA8VQSVQAVR&workerId=A2ELXYKRPPGRPB&assignmentId=3ATTHHXXWBAUIC425HIV4ACHK36IX1&a=XHTA9&tp_a=XHTA9&b=3ATTHHXXWBAUIC425HIV4ACHK36IX1&tp_b=3ATTHHXXWBAUIC425HIV4ACHK36IX1&c=365799&tp_c=365799"},{"rt":null,"stimulus":"Examples sent to student! Waiting for student...","response":null,"trial_type":"html-keyboard-response","trial_index":46,"time_elapsed":340052,"internal_node_id":"0.0-45.0","params":{"nStudents":24,"maxFlips":30,"completionMinutes":45,"basePay":8,"maxBonus":9,"perTrialBonus":0.5,"perTrialBonusThreshold":0.05,"exampleCost":0.01},"classroomParams":{"A":{"a":1,"b":4},"B":{"a":4,"b":1},"C":{"a":2,"b":8},"D":{"a":8,"b":2}},"conditions":["nonSeqFull","nonSeqPartial","seqNoFeedback","seqFeedback"],"classroomPairings":[["A","B"],["C","D"]],"coinWeights":[0.2,0.5,0.8],"subjectId":"A2ELXYKRPPGRPB","assignmentId":"3ATTHHXXWBAUIC425HIV4ACHK36IX1","hitId":"363A7XIFV48LMLIF2CKYA8VQSVQAVR","url":"https://gershmanlab.com/experiments/alicia/teaching/experiment/?hitId=363A7XIFV48LMLIF2CKYA8VQSVQAVR&workerId=A2ELXYKRPPGRPB&assignmentId=3ATTHHXXWBAUIC425HIV4ACHK36IX1&a=XHTA9&tp_a=XHTA9&b=3ATTHHXXWBAUIC425HIV4ACHK36IX1&tp_b=3ATTHHXXWBAUIC425HIV4ACHK36IX1&c=365799&tp_c=365799"},{"rt":2231,"stimulus":"\n                <p>Student's guess for coin weight: <b style=\"color:Tomato;\">0.82</b></p>\n                <p>You received a bonus of <b>$0.38</b>. Total bonus so far: <b>$1.12</b></b></p>\n                <p></p>\n                <p>Press any key to continue.</p>\n                ","response":" ","trial_type":"html-keyboard-response","trial_index":47,"time_elapsed":342285,"internal_node_id":"0.0-46.0","params":{"nStudents":24,"maxFlips":30,"completionMinutes":45,"basePay":8,"maxBonus":9,"perTrialBonus":0.5,"perTrialBonusThreshold":0.05,"exampleCost":0.01},"classroomParams":{"A":{"a":1,"b":4},"B":{"a":4,"b":1},"C":{"a":2,"b":8},"D":{"a":8,"b":2}},"conditions":["nonSeqFull","nonSeqPartial","seqNoFeedback","seqFeedback"],"classroomPairings":[["A","B"],["C","D"]],"coinWeights":[0.2,0.5,0.8],"subjectId":"A2ELXYKRPPGRPB","assignmentId":"3ATTHHXXWBAUIC425HIV4ACHK36IX1","hitId":"363A7XIFV48LMLIF2CKYA8VQSVQAVR","url":"https://gershmanlab.com/experiments/alicia/teaching/experiment/?hitId=363A7XIFV48LMLIF2CKYA8VQSVQAVR&workerId=A2ELXYKRPPGRPB&assignmentId=3ATTHHXXWBAUIC425HIV4ACHK36IX1&a=XHTA9&tp_a=XHTA9&b=3ATTHHXXWBAUIC425HIV4ACHK36IX1&tp_b=3ATTHHXXWBAUIC425HIV4ACHK36IX1&c=365799&tp_c=365799"},{"rt":null,"stimulus":"<div style=\"font-size:60px;\">Next student</div>","response":null,"trial_type":"html-keyboard-response","trial_index":48,"time_elapsed":344294,"internal_node_id":"0.0-47.0-0.0","params":{"nStudents":24,"maxFlips":30,"completionMinutes":45,"basePay":8,"maxBonus":9,"perTrialBonus":0.5,"perTrialBonusThreshold":0.05,"exampleCost":0.01},"classroomParams":{"A":{"a":1,"b":4},"B":{"a":4,"b":1},"C":{"a":2,"b":8},"D":{"a":8,"b":2}},"conditions":["nonSeqFull","nonSeqPartial","seqNoFeedback","seqFeedback"],"classroomPairings":[["A","B"],["C","D"]],"coinWeights":[0.2,0.5,0.8],"subjectId":"A2ELXYKRPPGRPB","assignmentId":"3ATTHHXXWBAUIC425HIV4ACHK36IX1","hitId":"363A7XIFV48LMLIF2CKYA8VQSVQAVR","url":"https://gershmanlab.com/experiments/alicia/teaching/experiment/?hitId=363A7XIFV48LMLIF2CKYA8VQSVQAVR&workerId=A2ELXYKRPPGRPB&assignmentId=3ATTHHXXWBAUIC425HIV4ACHK36IX1&a=XHTA9&tp_a=XHTA9&b=3ATTHHXXWBAUIC425HIV4ACHK36IX1&tp_b=3ATTHHXXWBAUIC425HIV4ACHK36IX1&c=365799&tp_c=365799"},{"rt":1625,"stimulus":"\n            <h4 style=\"color:Orange;\">Student 7</h4>\n            <h2>The weight of your coin is <b style=\"color:Tomato;\">0.5</b>.</h2>\n            <p>In this block, you will be giving <b>two</b> sets of examples to Student 7.</p>\n                <p>You will receive feedback at the end of the block.</p>\n            <p></p>","response":0,"trial_type":"html-button-response","trial_index":49,"time_elapsed":345921,"internal_node_id":"0.0-48.0","params":{"nStudents":24,"maxFlips":30,"completionMinutes":45,"basePay":8,"maxBonus":9,"perTrialBonus":0.5,"perTrialBonusThreshold":0.05,"exampleCost":0.01},"classroomParams":{"A":{"a":1,"b":4},"B":{"a":4,"b":1},"C":{"a":2,"b":8},"D":{"a":8,"b":2}},"conditions":["nonSeqFull","nonSeqPartial","seqNoFeedback","seqFeedback"],"classroomPairings":[["A","B"],["C","D"]],"coinWeights":[0.2,0.5,0.8],"subjectId":"A2ELXYKRPPGRPB","assignmentId":"3ATTHHXXWBAUIC425HIV4ACHK36IX1","hitId":"363A7XIFV48LMLIF2CKYA8VQSVQAVR","url":"https://gershmanlab.com/experiments/alicia/teaching/experiment/?hitId=363A7XIFV48LMLIF2CKYA8VQSVQAVR&workerId=A2ELXYKRPPGRPB&assignmentId=3ATTHHXXWBAUIC425HIV4ACHK36IX1&a=XHTA9&tp_a=XHTA9&b=3ATTHHXXWBAUIC425HIV4ACHK36IX1&tp_b=3ATTHHXXWBAUIC425HIV4ACHK36IX1&c=365799&tp_c=365799"},{"rt":8424,"response":{"heads":"10","tails":"10"},"type":"response","condition":"seqNoFeedback","trueTheta":0.5,"classrooms":["A","B"],"studentTrueClassroom":"A","exampleSet":"first","trial_type":"survey-html-form","trial_index":50,"time_elapsed":354346,"internal_node_id":"0.0-49.0-0.0","params":{"nStudents":24,"maxFlips":30,"completionMinutes":45,"basePay":8,"maxBonus":9,"perTrialBonus":0.5,"perTrialBonusThreshold":0.05,"exampleCost":0.01},"classroomParams":{"A":{"a":1,"b":4},"B":{"a":4,"b":1},"C":{"a":2,"b":8},"D":{"a":8,"b":2}},"conditions":["nonSeqFull","nonSeqPartial","seqNoFeedback","seqFeedback"],"classroomPairings":[["A","B"],["C","D"]],"coinWeights":[0.2,0.5,0.8],"subjectId":"A2ELXYKRPPGRPB","assignmentId":"3ATTHHXXWBAUIC425HIV4ACHK36IX1","hitId":"363A7XIFV48LMLIF2CKYA8VQSVQAVR","url":"https://gershmanlab.com/experiments/alicia/teaching/experiment/?hitId=363A7XIFV48LMLIF2CKYA8VQSVQAVR&workerId=A2ELXYKRPPGRPB&assignmentId=3ATTHHXXWBAUIC425HIV4ACHK36IX1&a=XHTA9&tp_a=XHTA9&b=3ATTHHXXWBAUIC425HIV4ACHK36IX1&tp_b=3ATTHHXXWBAUIC425HIV4ACHK36IX1&c=365799&tp_c=365799","heads":10,"tails":10,"studentIndex":6,"studentTrueHypers":{"a":1,"b":4},"studentGuess":0.44,"delta":0.06,"totalExamples":20,"bonusSoFar":1.12},{"rt":null,"stimulus":"Sending examples to student... ","response":null,"trial_type":"html-keyboard-response","trial_index":51,"time_elapsed":355609,"internal_node_id":"0.0-50.0","params":{"nStudents":24,"maxFlips":30,"completionMinutes":45,"basePay":8,"maxBonus":9,"perTrialBonus":0.5,"perTrialBonusThreshold":0.05,"exampleCost":0.01},"classroomParams":{"A":{"a":1,"b":4},"B":{"a":4,"b":1},"C":{"a":2,"b":8},"D":{"a":8,"b":2}},"conditions":["nonSeqFull","nonSeqPartial","seqNoFeedback","seqFeedback"],"classroomPairings":[["A","B"],["C","D"]],"coinWeights":[0.2,0.5,0.8],"subjectId":"A2ELXYKRPPGRPB","assignmentId":"3ATTHHXXWBAUIC425HIV4ACHK36IX1","hitId":"363A7XIFV48LMLIF2CKYA8VQSVQAVR","url":"https://gershmanlab.com/experiments/alicia/teaching/experiment/?hitId=363A7XIFV48LMLIF2CKYA8VQSVQAVR&workerId=A2ELXYKRPPGRPB&assignmentId=3ATTHHXXWBAUIC425HIV4ACHK36IX1&a=XHTA9&tp_a=XHTA9&b=3ATTHHXXWBAUIC425HIV4ACHK36IX1&tp_b=3ATTHHXXWBAUIC425HIV4ACHK36IX1&c=365799&tp_c=365799"},{"rt":null,"stimulus":"Examples sent to student! Waiting for student...","response":null,"trial_type":"html-keyboard-response","trial_index":52,"time_elapsed":361610,"internal_node_id":"0.0-51.0","params":{"nStudents":24,"maxFlips":30,"completionMinutes":45,"basePay":8,"maxBonus":9,"perTrialBonus":0.5,"perTrialBonusThreshold":0.05,"exampleCost":0.01},"classroomParams":{"A":{"a":1,"b":4},"B":{"a":4,"b":1},"C":{"a":2,"b":8},"D":{"a":8,"b":2}},"conditions":["nonSeqFull","nonSeqPartial","seqNoFeedback","seqFeedback"],"classroomPairings":[["A","B"],["C","D"]],"coinWeights":[0.2,0.5,0.8],"subjectId":"A2ELXYKRPPGRPB","assignmentId":"3ATTHHXXWBAUIC425HIV4ACHK36IX1","hitId":"363A7XIFV48LMLIF2CKYA8VQSVQAVR","url":"https://gershmanlab.com/experiments/alicia/teaching/experiment/?hitId=363A7XIFV48LMLIF2CKYA8VQSVQAVR&workerId=A2ELXYKRPPGRPB&assignmentId=3ATTHHXXWBAUIC425HIV4ACHK36IX1&a=XHTA9&tp_a=XHTA9&b=3ATTHHXXWBAUIC425HIV4ACHK36IX1&tp_b=3ATTHHXXWBAUIC425HIV4ACHK36IX1&c=365799&tp_c=365799"},{"rt":10902,"response":{"heads":"10","tails":"10"},"type":"response","condition":"seqNoFeedback","trueTheta":0.5,"classrooms":["A","B"],"studentTrueClassroom":"A","exampleSet":"second","trial_type":"survey-html-form","trial_index":53,"time_elapsed":372514,"internal_node_id":"0.0-52.0-0.0","params":{"nStudents":24,"maxFlips":30,"completionMinutes":45,"basePay":8,"maxBonus":9,"perTrialBonus":0.5,"perTrialBonusThreshold":0.05,"exampleCost":0.01},"classroomParams":{"A":{"a":1,"b":4},"B":{"a":4,"b":1},"C":{"a":2,"b":8},"D":{"a":8,"b":2}},"conditions":["nonSeqFull","nonSeqPartial","seqNoFeedback","seqFeedback"],"classroomPairings":[["A","B"],["C","D"]],"coinWeights":[0.2,0.5,0.8],"subjectId":"A2ELXYKRPPGRPB","assignmentId":"3ATTHHXXWBAUIC425HIV4ACHK36IX1","hitId":"363A7XIFV48LMLIF2CKYA8VQSVQAVR","url":"https://gershmanlab.com/experiments/alicia/teaching/experiment/?hitId=363A7XIFV48LMLIF2CKYA8VQSVQAVR&workerId=A2ELXYKRPPGRPB&assignmentId=3ATTHHXXWBAUIC425HIV4ACHK36IX1&a=XHTA9&tp_a=XHTA9&b=3ATTHHXXWBAUIC425HIV4ACHK36IX1&tp_b=3ATTHHXXWBAUIC425HIV4ACHK36IX1&c=365799&tp_c=365799","firstResponseHeads":10,"firstResponseTails":10,"secondResponseHeads":10,"secondResponseTails":10,"totalHeads":20,"totalTails":20,"studentIndex":6,"studentTrueHypers":{"a":1,"b":4},"studentGuess":0.4666666666666667,"delta":0.033333333333333326,"bonus":0.1,"bonusSoFar":1.22,"totalExamples":40},{"rt":null,"stimulus":"Sending examples to student... ","response":null,"trial_type":"html-keyboard-response","trial_index":54,"time_elapsed":373772,"internal_node_id":"0.0-53.0","params":{"nStudents":24,"maxFlips":30,"completionMinutes":45,"basePay":8,"maxBonus":9,"perTrialBonus":0.5,"perTrialBonusThreshold":0.05,"exampleCost":0.01},"classroomParams":{"A":{"a":1,"b":4},"B":{"a":4,"b":1},"C":{"a":2,"b":8},"D":{"a":8,"b":2}},"conditions":["nonSeqFull","nonSeqPartial","seqNoFeedback","seqFeedback"],"classroomPairings":[["A","B"],["C","D"]],"coinWeights":[0.2,0.5,0.8],"subjectId":"A2ELXYKRPPGRPB","assignmentId":"3ATTHHXXWBAUIC425HIV4ACHK36IX1","hitId":"363A7XIFV48LMLIF2CKYA8VQSVQAVR","url":"https://gershmanlab.com/experiments/alicia/teaching/experiment/?hitId=363A7XIFV48LMLIF2CKYA8VQSVQAVR&workerId=A2ELXYKRPPGRPB&assignmentId=3ATTHHXXWBAUIC425HIV4ACHK36IX1&a=XHTA9&tp_a=XHTA9&b=3ATTHHXXWBAUIC425HIV4ACHK36IX1&tp_b=3ATTHHXXWBAUIC425HIV4ACHK36IX1&c=365799&tp_c=365799"},{"rt":null,"stimulus":"Examples sent to student! Waiting for student...","response":null,"trial_type":"html-keyboard-response","trial_index":55,"time_elapsed":379775,"internal_node_id":"0.0-54.0","params":{"nStudents":24,"maxFlips":30,"completionMinutes":45,"basePay":8,"maxBonus":9,"perTrialBonus":0.5,"perTrialBonusThreshold":0.05,"exampleCost":0.01},"classroomParams":{"A":{"a":1,"b":4},"B":{"a":4,"b":1},"C":{"a":2,"b":8},"D":{"a":8,"b":2}},"conditions":["nonSeqFull","nonSeqPartial","seqNoFeedback","seqFeedback"],"classroomPairings":[["A","B"],["C","D"]],"coinWeights":[0.2,0.5,0.8],"subjectId":"A2ELXYKRPPGRPB","assignmentId":"3ATTHHXXWBAUIC425HIV4ACHK36IX1","hitId":"363A7XIFV48LMLIF2CKYA8VQSVQAVR","url":"https://gershmanlab.com/experiments/alicia/teaching/experiment/?hitId=363A7XIFV48LMLIF2CKYA8VQSVQAVR&workerId=A2ELXYKRPPGRPB&assignmentId=3ATTHHXXWBAUIC425HIV4ACHK36IX1&a=XHTA9&tp_a=XHTA9&b=3ATTHHXXWBAUIC425HIV4ACHK36IX1&tp_b=3ATTHHXXWBAUIC425HIV4ACHK36IX1&c=365799&tp_c=365799"},{"rt":2810,"stimulus":"\n                <p>Student 7's first guess for coin weight: <b style=\"color:Tomato\";>0.44</b></p>\n                <p>Student 7's second guess for coin weight: <b style=\"color:Tomato\";>0.47</b></p>\n                <p>You received a bonus of <b>$0.10</b> based on the student's second guess.</p>\n                <p>Total bonus so far: <b>$1.22</b></p>\n                <p>Press any key to continue.</p>\n                ","response":" ","trial_type":"html-keyboard-response","trial_index":56,"time_elapsed":382586,"internal_node_id":"0.0-55.0","params":{"nStudents":24,"maxFlips":30,"completionMinutes":45,"basePay":8,"maxBonus":9,"perTrialBonus":0.5,"perTrialBonusThreshold":0.05,"exampleCost":0.01},"classroomParams":{"A":{"a":1,"b":4},"B":{"a":4,"b":1},"C":{"a":2,"b":8},"D":{"a":8,"b":2}},"conditions":["nonSeqFull","nonSeqPartial","seqNoFeedback","seqFeedback"],"classroomPairings":[["A","B"],["C","D"]],"coinWeights":[0.2,0.5,0.8],"subjectId":"A2ELXYKRPPGRPB","assignmentId":"3ATTHHXXWBAUIC425HIV4ACHK36IX1","hitId":"363A7XIFV48LMLIF2CKYA8VQSVQAVR","url":"https://gershmanlab.com/experiments/alicia/teaching/experiment/?hitId=363A7XIFV48LMLIF2CKYA8VQSVQAVR&workerId=A2ELXYKRPPGRPB&assignmentId=3ATTHHXXWBAUIC425HIV4ACHK36IX1&a=XHTA9&tp_a=XHTA9&b=3ATTHHXXWBAUIC425HIV4ACHK36IX1&tp_b=3ATTHHXXWBAUIC425HIV4ACHK36IX1&c=365799&tp_c=365799"},{"rt":null,"stimulus":"<div style=\"font-size:60px;\">Next student</div>","response":null,"trial_type":"html-keyboard-response","trial_index":57,"time_elapsed":384837,"internal_node_id":"0.0-56.0-0.0","params":{"nStudents":24,"maxFlips":30,"completionMinutes":45,"basePay":8,"maxBonus":9,"perTrialBonus":0.5,"perTrialBonusThreshold":0.05,"exampleCost":0.01},"classroomParams":{"A":{"a":1,"b":4},"B":{"a":4,"b":1},"C":{"a":2,"b":8},"D":{"a":8,"b":2}},"conditions":["nonSeqFull","nonSeqPartial","seqNoFeedback","seqFeedback"],"classroomPairings":[["A","B"],["C","D"]],"coinWeights":[0.2,0.5,0.8],"subjectId":"A2ELXYKRPPGRPB","assignmentId":"3ATTHHXXWBAUIC425HIV4ACHK36IX1","hitId":"363A7XIFV48LMLIF2CKYA8VQSVQAVR","url":"https://gershmanlab.com/experiments/alicia/teaching/experiment/?hitId=363A7XIFV48LMLIF2CKYA8VQSVQAVR&workerId=A2ELXYKRPPGRPB&assignmentId=3ATTHHXXWBAUIC425HIV4ACHK36IX1&a=XHTA9&tp_a=XHTA9&b=3ATTHHXXWBAUIC425HIV4ACHK36IX1&tp_b=3ATTHHXXWBAUIC425HIV4ACHK36IX1&c=365799&tp_c=365799"},{"rt":1756,"stimulus":"\n            <h4 style=\"color:Orange;\">Student 8</h4>\n            <h2>The weight of your coin is <b style=\"color:Tomato;\">0.5</b>.</h2>\n            <p>In this block, you will be giving <b>two</b> sets of examples to Student 8.</p>\n                <p>You will receive feedback at the end of the block.</p>\n            <p></p>","response":0,"trial_type":"html-button-response","trial_index":58,"time_elapsed":386595,"internal_node_id":"0.0-57.0","params":{"nStudents":24,"maxFlips":30,"completionMinutes":45,"basePay":8,"maxBonus":9,"perTrialBonus":0.5,"perTrialBonusThreshold":0.05,"exampleCost":0.01},"classroomParams":{"A":{"a":1,"b":4},"B":{"a":4,"b":1},"C":{"a":2,"b":8},"D":{"a":8,"b":2}},"conditions":["nonSeqFull","nonSeqPartial","seqNoFeedback","seqFeedback"],"classroomPairings":[["A","B"],["C","D"]],"coinWeights":[0.2,0.5,0.8],"subjectId":"A2ELXYKRPPGRPB","assignmentId":"3ATTHHXXWBAUIC425HIV4ACHK36IX1","hitId":"363A7XIFV48LMLIF2CKYA8VQSVQAVR","url":"https://gershmanlab.com/experiments/alicia/teaching/experiment/?hitId=363A7XIFV48LMLIF2CKYA8VQSVQAVR&workerId=A2ELXYKRPPGRPB&assignmentId=3ATTHHXXWBAUIC425HIV4ACHK36IX1&a=XHTA9&tp_a=XHTA9&b=3ATTHHXXWBAUIC425HIV4ACHK36IX1&tp_b=3ATTHHXXWBAUIC425HIV4ACHK36IX1&c=365799&tp_c=365799"},{"rt":7705,"response":{"heads":"15","tails":"15"},"type":"response","condition":"seqNoFeedback","trueTheta":0.5,"classrooms":["C","D"],"studentTrueClassroom":"D","exampleSet":"first","trial_type":"survey-html-form","trial_index":59,"time_elapsed":394301,"internal_node_id":"0.0-58.0-0.0","params":{"nStudents":24,"maxFlips":30,"completionMinutes":45,"basePay":8,"maxBonus":9,"perTrialBonus":0.5,"perTrialBonusThreshold":0.05,"exampleCost":0.01},"classroomParams":{"A":{"a":1,"b":4},"B":{"a":4,"b":1},"C":{"a":2,"b":8},"D":{"a":8,"b":2}},"conditions":["nonSeqFull","nonSeqPartial","seqNoFeedback","seqFeedback"],"classroomPairings":[["A","B"],["C","D"]],"coinWeights":[0.2,0.5,0.8],"subjectId":"A2ELXYKRPPGRPB","assignmentId":"3ATTHHXXWBAUIC425HIV4ACHK36IX1","hitId":"363A7XIFV48LMLIF2CKYA8VQSVQAVR","url":"https://gershmanlab.com/experiments/alicia/teaching/experiment/?hitId=363A7XIFV48LMLIF2CKYA8VQSVQAVR&workerId=A2ELXYKRPPGRPB&assignmentId=3ATTHHXXWBAUIC425HIV4ACHK36IX1&a=XHTA9&tp_a=XHTA9&b=3ATTHHXXWBAUIC425HIV4ACHK36IX1&tp_b=3ATTHHXXWBAUIC425HIV4ACHK36IX1&c=365799&tp_c=365799","heads":15,"tails":15,"studentIndex":7,"studentTrueHypers":{"a":8,"b":2},"studentGuess":0.575,"delta":0.07499999999999996,"totalExamples":30,"bonusSoFar":1.22},{"rt":null,"stimulus":"Sending examples to student... ","response":null,"trial_type":"html-keyboard-response","trial_index":60,"time_elapsed":396304,"internal_node_id":"0.0-59.0","params":{"nStudents":24,"maxFlips":30,"completionMinutes":45,"basePay":8,"maxBonus":9,"perTrialBonus":0.5,"perTrialBonusThreshold":0.05,"exampleCost":0.01},"classroomParams":{"A":{"a":1,"b":4},"B":{"a":4,"b":1},"C":{"a":2,"b":8},"D":{"a":8,"b":2}},"conditions":["nonSeqFull","nonSeqPartial","seqNoFeedback","seqFeedback"],"classroomPairings":[["A","B"],["C","D"]],"coinWeights":[0.2,0.5,0.8],"subjectId":"A2ELXYKRPPGRPB","assignmentId":"3ATTHHXXWBAUIC425HIV4ACHK36IX1","hitId":"363A7XIFV48LMLIF2CKYA8VQSVQAVR","url":"https://gershmanlab.com/experiments/alicia/teaching/experiment/?hitId=363A7XIFV48LMLIF2CKYA8VQSVQAVR&workerId=A2ELXYKRPPGRPB&assignmentId=3ATTHHXXWBAUIC425HIV4ACHK36IX1&a=XHTA9&tp_a=XHTA9&b=3ATTHHXXWBAUIC425HIV4ACHK36IX1&tp_b=3ATTHHXXWBAUIC425HIV4ACHK36IX1&c=365799&tp_c=365799"},{"rt":null,"stimulus":"Examples sent to student! Waiting for student...","response":null,"trial_type":"html-keyboard-response","trial_index":61,"time_elapsed":401813,"internal_node_id":"0.0-60.0","params":{"nStudents":24,"maxFlips":30,"completionMinutes":45,"basePay":8,"maxBonus":9,"perTrialBonus":0.5,"perTrialBonusThreshold":0.05,"exampleCost":0.01},"classroomParams":{"A":{"a":1,"b":4},"B":{"a":4,"b":1},"C":{"a":2,"b":8},"D":{"a":8,"b":2}},"conditions":["nonSeqFull","nonSeqPartial","seqNoFeedback","seqFeedback"],"classroomPairings":[["A","B"],["C","D"]],"coinWeights":[0.2,0.5,0.8],"subjectId":"A2ELXYKRPPGRPB","assignmentId":"3ATTHHXXWBAUIC425HIV4ACHK36IX1","hitId":"363A7XIFV48LMLIF2CKYA8VQSVQAVR","url":"https://gershmanlab.com/experiments/alicia/teaching/experiment/?hitId=363A7XIFV48LMLIF2CKYA8VQSVQAVR&workerId=A2ELXYKRPPGRPB&assignmentId=3ATTHHXXWBAUIC425HIV4ACHK36IX1&a=XHTA9&tp_a=XHTA9&b=3ATTHHXXWBAUIC425HIV4ACHK36IX1&tp_b=3ATTHHXXWBAUIC425HIV4ACHK36IX1&c=365799&tp_c=365799"},{"rt":8351,"response":{"heads":"15","tails":"15"},"type":"response","condition":"seqNoFeedback","trueTheta":0.5,"classrooms":["C","D"],"studentTrueClassroom":"D","exampleSet":"second","trial_type":"survey-html-form","trial_index":62,"time_elapsed":410166,"internal_node_id":"0.0-61.0-0.0","params":{"nStudents":24,"maxFlips":30,"completionMinutes":45,"basePay":8,"maxBonus":9,"perTrialBonus":0.5,"perTrialBonusThreshold":0.05,"exampleCost":0.01},"classroomParams":{"A":{"a":1,"b":4},"B":{"a":4,"b":1},"C":{"a":2,"b":8},"D":{"a":8,"b":2}},"conditions":["nonSeqFull","nonSeqPartial","seqNoFeedback","seqFeedback"],"classroomPairings":[["A","B"],["C","D"]],"coinWeights":[0.2,0.5,0.8],"subjectId":"A2ELXYKRPPGRPB","assignmentId":"3ATTHHXXWBAUIC425HIV4ACHK36IX1","hitId":"363A7XIFV48LMLIF2CKYA8VQSVQAVR","url":"https://gershmanlab.com/experiments/alicia/teaching/experiment/?hitId=363A7XIFV48LMLIF2CKYA8VQSVQAVR&workerId=A2ELXYKRPPGRPB&assignmentId=3ATTHHXXWBAUIC425HIV4ACHK36IX1&a=XHTA9&tp_a=XHTA9&b=3ATTHHXXWBAUIC425HIV4ACHK36IX1&tp_b=3ATTHHXXWBAUIC425HIV4ACHK36IX1&c=365799&tp_c=365799","firstResponseHeads":15,"firstResponseTails":15,"secondResponseHeads":15,"secondResponseTails":15,"totalHeads":30,"totalTails":30,"studentIndex":7,"studentTrueHypers":{"a":8,"b":2},"studentGuess":0.5428571428571428,"delta":0.042857142857142816,"bonus":0,"bonusSoFar":1.22,"totalExamples":60},{"rt":null,"stimulus":"Sending examples to student... ","response":null,"trial_type":"html-keyboard-response","trial_index":63,"time_elapsed":411917,"internal_node_id":"0.0-62.0","params":{"nStudents":24,"maxFlips":30,"completionMinutes":45,"basePay":8,"maxBonus":9,"perTrialBonus":0.5,"perTrialBonusThreshold":0.05,"exampleCost":0.01},"classroomParams":{"A":{"a":1,"b":4},"B":{"a":4,"b":1},"C":{"a":2,"b":8},"D":{"a":8,"b":2}},"conditions":["nonSeqFull","nonSeqPartial","seqNoFeedback","seqFeedback"],"classroomPairings":[["A","B"],["C","D"]],"coinWeights":[0.2,0.5,0.8],"subjectId":"A2ELXYKRPPGRPB","assignmentId":"3ATTHHXXWBAUIC425HIV4ACHK36IX1","hitId":"363A7XIFV48LMLIF2CKYA8VQSVQAVR","url":"https://gershmanlab.com/experiments/alicia/teaching/experiment/?hitId=363A7XIFV48LMLIF2CKYA8VQSVQAVR&workerId=A2ELXYKRPPGRPB&assignmentId=3ATTHHXXWBAUIC425HIV4ACHK36IX1&a=XHTA9&tp_a=XHTA9&b=3ATTHHXXWBAUIC425HIV4ACHK36IX1&tp_b=3ATTHHXXWBAUIC425HIV4ACHK36IX1&c=365799&tp_c=365799"},{"rt":null,"stimulus":"Examples sent to student! Waiting for student...","response":null,"trial_type":"html-keyboard-response","trial_index":64,"time_elapsed":416744,"internal_node_id":"0.0-63.0","params":{"nStudents":24,"maxFlips":30,"completionMinutes":45,"basePay":8,"maxBonus":9,"perTrialBonus":0.5,"perTrialBonusThreshold":0.05,"exampleCost":0.01},"classroomParams":{"A":{"a":1,"b":4},"B":{"a":4,"b":1},"C":{"a":2,"b":8},"D":{"a":8,"b":2}},"conditions":["nonSeqFull","nonSeqPartial","seqNoFeedback","seqFeedback"],"classroomPairings":[["A","B"],["C","D"]],"coinWeights":[0.2,0.5,0.8],"subjectId":"A2ELXYKRPPGRPB","assignmentId":"3ATTHHXXWBAUIC425HIV4ACHK36IX1","hitId":"363A7XIFV48LMLIF2CKYA8VQSVQAVR","url":"https://gershmanlab.com/experiments/alicia/teaching/experiment/?hitId=363A7XIFV48LMLIF2CKYA8VQSVQAVR&workerId=A2ELXYKRPPGRPB&assignmentId=3ATTHHXXWBAUIC425HIV4ACHK36IX1&a=XHTA9&tp_a=XHTA9&b=3ATTHHXXWBAUIC425HIV4ACHK36IX1&tp_b=3ATTHHXXWBAUIC425HIV4ACHK36IX1&c=365799&tp_c=365799"},{"rt":4244,"stimulus":"\n                <p>Student 8's first guess for coin weight: <b style=\"color:Tomato\";>0.57</b></p>\n                <p>Student 8's second guess for coin weight: <b style=\"color:Tomato\";>0.54</b></p>\n                <p>You received a bonus of <b>$0.00</b> based on the student's second guess.</p>\n                <p>Total bonus so far: <b>$1.22</b></p>\n                <p>Press any key to continue.</p>\n                ","response":" ","trial_type":"html-keyboard-response","trial_index":65,"time_elapsed":420989,"internal_node_id":"0.0-64.0","params":{"nStudents":24,"maxFlips":30,"completionMinutes":45,"basePay":8,"maxBonus":9,"perTrialBonus":0.5,"perTrialBonusThreshold":0.05,"exampleCost":0.01},"classroomParams":{"A":{"a":1,"b":4},"B":{"a":4,"b":1},"C":{"a":2,"b":8},"D":{"a":8,"b":2}},"conditions":["nonSeqFull","nonSeqPartial","seqNoFeedback","seqFeedback"],"classroomPairings":[["A","B"],["C","D"]],"coinWeights":[0.2,0.5,0.8],"subjectId":"A2ELXYKRPPGRPB","assignmentId":"3ATTHHXXWBAUIC425HIV4ACHK36IX1","hitId":"363A7XIFV48LMLIF2CKYA8VQSVQAVR","url":"https://gershmanlab.com/experiments/alicia/teaching/experiment/?hitId=363A7XIFV48LMLIF2CKYA8VQSVQAVR&workerId=A2ELXYKRPPGRPB&assignmentId=3ATTHHXXWBAUIC425HIV4ACHK36IX1&a=XHTA9&tp_a=XHTA9&b=3ATTHHXXWBAUIC425HIV4ACHK36IX1&tp_b=3ATTHHXXWBAUIC425HIV4ACHK36IX1&c=365799&tp_c=365799"},{"rt":null,"stimulus":"<div style=\"font-size:60px;\">Next student</div>","response":null,"trial_type":"html-keyboard-response","trial_index":66,"time_elapsed":423254,"internal_node_id":"0.0-65.0-0.0","params":{"nStudents":24,"maxFlips":30,"completionMinutes":45,"basePay":8,"maxBonus":9,"perTrialBonus":0.5,"perTrialBonusThreshold":0.05,"exampleCost":0.01},"classroomParams":{"A":{"a":1,"b":4},"B":{"a":4,"b":1},"C":{"a":2,"b":8},"D":{"a":8,"b":2}},"conditions":["nonSeqFull","nonSeqPartial","seqNoFeedback","seqFeedback"],"classroomPairings":[["A","B"],["C","D"]],"coinWeights":[0.2,0.5,0.8],"subjectId":"A2ELXYKRPPGRPB","assignmentId":"3ATTHHXXWBAUIC425HIV4ACHK36IX1","hitId":"363A7XIFV48LMLIF2CKYA8VQSVQAVR","url":"https://gershmanlab.com/experiments/alicia/teaching/experiment/?hitId=363A7XIFV48LMLIF2CKYA8VQSVQAVR&workerId=A2ELXYKRPPGRPB&assignmentId=3ATTHHXXWBAUIC425HIV4ACHK36IX1&a=XHTA9&tp_a=XHTA9&b=3ATTHHXXWBAUIC425HIV4ACHK36IX1&tp_b=3ATTHHXXWBAUIC425HIV4ACHK36IX1&c=365799&tp_c=365799"},{"rt":1461,"stimulus":"\n            <h4 style=\"color:Orange;\">Student 9</h4>\n            <h2>The weight of your coin is <b style=\"color:Tomato;\">0.8</b>.</h2>\n            <p>In this block, you will be giving <b>one</b> set of examples to Student 9.</p>\n                <p>You will receive feedback at the end of the block.</p>\n            <p></p>","response":0,"trial_type":"html-button-response","trial_index":67,"time_elapsed":424715,"internal_node_id":"0.0-66.0","params":{"nStudents":24,"maxFlips":30,"completionMinutes":45,"basePay":8,"maxBonus":9,"perTrialBonus":0.5,"perTrialBonusThreshold":0.05,"exampleCost":0.01},"classroomParams":{"A":{"a":1,"b":4},"B":{"a":4,"b":1},"C":{"a":2,"b":8},"D":{"a":8,"b":2}},"conditions":["nonSeqFull","nonSeqPartial","seqNoFeedback","seqFeedback"],"classroomPairings":[["A","B"],["C","D"]],"coinWeights":[0.2,0.5,0.8],"subjectId":"A2ELXYKRPPGRPB","assignmentId":"3ATTHHXXWBAUIC425HIV4ACHK36IX1","hitId":"363A7XIFV48LMLIF2CKYA8VQSVQAVR","url":"https://gershmanlab.com/experiments/alicia/teaching/experiment/?hitId=363A7XIFV48LMLIF2CKYA8VQSVQAVR&workerId=A2ELXYKRPPGRPB&assignmentId=3ATTHHXXWBAUIC425HIV4ACHK36IX1&a=XHTA9&tp_a=XHTA9&b=3ATTHHXXWBAUIC425HIV4ACHK36IX1&tp_b=3ATTHHXXWBAUIC425HIV4ACHK36IX1&c=365799&tp_c=365799"},{"rt":7111,"response":{"heads":"10","tails":"0"},"type":"response","condition":"nonSeqPartial","trueTheta":0.8,"classrooms":["A","B"],"studentTrueClassroom":"A","exampleSet":"first","trial_type":"survey-html-form","trial_index":68,"time_elapsed":431828,"internal_node_id":"0.0-67.0-0.0","params":{"nStudents":24,"maxFlips":30,"completionMinutes":45,"basePay":8,"maxBonus":9,"perTrialBonus":0.5,"perTrialBonusThreshold":0.05,"exampleCost":0.01},"classroomParams":{"A":{"a":1,"b":4},"B":{"a":4,"b":1},"C":{"a":2,"b":8},"D":{"a":8,"b":2}},"conditions":["nonSeqFull","nonSeqPartial","seqNoFeedback","seqFeedback"],"classroomPairings":[["A","B"],["C","D"]],"coinWeights":[0.2,0.5,0.8],"subjectId":"A2ELXYKRPPGRPB","assignmentId":"3ATTHHXXWBAUIC425HIV4ACHK36IX1","hitId":"363A7XIFV48LMLIF2CKYA8VQSVQAVR","url":"https://gershmanlab.com/experiments/alicia/teaching/experiment/?hitId=363A7XIFV48LMLIF2CKYA8VQSVQAVR&workerId=A2ELXYKRPPGRPB&assignmentId=3ATTHHXXWBAUIC425HIV4ACHK36IX1&a=XHTA9&tp_a=XHTA9&b=3ATTHHXXWBAUIC425HIV4ACHK36IX1&tp_b=3ATTHHXXWBAUIC425HIV4ACHK36IX1&c=365799&tp_c=365799","heads":10,"tails":0,"studentIndex":8,"studentTrueHypers":{"a":1,"b":4},"studentGuess":0.7333333333333333,"delta":0.06666666666666676,"totalExamples":10,"bonus":0,"bonusSoFar":1.22},{"rt":null,"stimulus":"Sending examples to student... ","response":null,"trial_type":"html-keyboard-response","trial_index":69,"time_elapsed":433081,"internal_node_id":"0.0-68.0","params":{"nStudents":24,"maxFlips":30,"completionMinutes":45,"basePay":8,"maxBonus":9,"perTrialBonus":0.5,"perTrialBonusThreshold":0.05,"exampleCost":0.01},"classroomParams":{"A":{"a":1,"b":4},"B":{"a":4,"b":1},"C":{"a":2,"b":8},"D":{"a":8,"b":2}},"conditions":["nonSeqFull","nonSeqPartial","seqNoFeedback","seqFeedback"],"classroomPairings":[["A","B"],["C","D"]],"coinWeights":[0.2,0.5,0.8],"subjectId":"A2ELXYKRPPGRPB","assignmentId":"3ATTHHXXWBAUIC425HIV4ACHK36IX1","hitId":"363A7XIFV48LMLIF2CKYA8VQSVQAVR","url":"https://gershmanlab.com/experiments/alicia/teaching/experiment/?hitId=363A7XIFV48LMLIF2CKYA8VQSVQAVR&workerId=A2ELXYKRPPGRPB&assignmentId=3ATTHHXXWBAUIC425HIV4ACHK36IX1&a=XHTA9&tp_a=XHTA9&b=3ATTHHXXWBAUIC425HIV4ACHK36IX1&tp_b=3ATTHHXXWBAUIC425HIV4ACHK36IX1&c=365799&tp_c=365799"},{"rt":null,"stimulus":"Examples sent to student! Waiting for student...","response":null,"trial_type":"html-keyboard-response","trial_index":70,"time_elapsed":439087,"internal_node_id":"0.0-69.0","params":{"nStudents":24,"maxFlips":30,"completionMinutes":45,"basePay":8,"maxBonus":9,"perTrialBonus":0.5,"perTrialBonusThreshold":0.05,"exampleCost":0.01},"classroomParams":{"A":{"a":1,"b":4},"B":{"a":4,"b":1},"C":{"a":2,"b":8},"D":{"a":8,"b":2}},"conditions":["nonSeqFull","nonSeqPartial","seqNoFeedback","seqFeedback"],"classroomPairings":[["A","B"],["C","D"]],"coinWeights":[0.2,0.5,0.8],"subjectId":"A2ELXYKRPPGRPB","assignmentId":"3ATTHHXXWBAUIC425HIV4ACHK36IX1","hitId":"363A7XIFV48LMLIF2CKYA8VQSVQAVR","url":"https://gershmanlab.com/experiments/alicia/teaching/experiment/?hitId=363A7XIFV48LMLIF2CKYA8VQSVQAVR&workerId=A2ELXYKRPPGRPB&assignmentId=3ATTHHXXWBAUIC425HIV4ACHK36IX1&a=XHTA9&tp_a=XHTA9&b=3ATTHHXXWBAUIC425HIV4ACHK36IX1&tp_b=3ATTHHXXWBAUIC425HIV4ACHK36IX1&c=365799&tp_c=365799"},{"rt":1465,"stimulus":"\n                <p>Student's guess for coin weight: <b style=\"color:Tomato;\">0.73</b></p>\n                <p>You received a bonus of <b>$0</b>. Total bonus so far: <b>$1.22</b></b></p>\n                <p></p>\n                <p>Press any key to continue.</p>\n                ","response":" ","trial_type":"html-keyboard-response","trial_index":71,"time_elapsed":440553,"internal_node_id":"0.0-70.0","params":{"nStudents":24,"maxFlips":30,"completionMinutes":45,"basePay":8,"maxBonus":9,"perTrialBonus":0.5,"perTrialBonusThreshold":0.05,"exampleCost":0.01},"classroomParams":{"A":{"a":1,"b":4},"B":{"a":4,"b":1},"C":{"a":2,"b":8},"D":{"a":8,"b":2}},"conditions":["nonSeqFull","nonSeqPartial","seqNoFeedback","seqFeedback"],"classroomPairings":[["A","B"],["C","D"]],"coinWeights":[0.2,0.5,0.8],"subjectId":"A2ELXYKRPPGRPB","assignmentId":"3ATTHHXXWBAUIC425HIV4ACHK36IX1","hitId":"363A7XIFV48LMLIF2CKYA8VQSVQAVR","url":"https://gershmanlab.com/experiments/alicia/teaching/experiment/?hitId=363A7XIFV48LMLIF2CKYA8VQSVQAVR&workerId=A2ELXYKRPPGRPB&assignmentId=3ATTHHXXWBAUIC425HIV4ACHK36IX1&a=XHTA9&tp_a=XHTA9&b=3ATTHHXXWBAUIC425HIV4ACHK36IX1&tp_b=3ATTHHXXWBAUIC425HIV4ACHK36IX1&c=365799&tp_c=365799"},{"rt":null,"stimulus":"<div style=\"font-size:60px;\">Next student</div>","response":null,"trial_type":"html-keyboard-response","trial_index":72,"time_elapsed":442563,"internal_node_id":"0.0-71.0-0.0","params":{"nStudents":24,"maxFlips":30,"completionMinutes":45,"basePay":8,"maxBonus":9,"perTrialBonus":0.5,"perTrialBonusThreshold":0.05,"exampleCost":0.01},"classroomParams":{"A":{"a":1,"b":4},"B":{"a":4,"b":1},"C":{"a":2,"b":8},"D":{"a":8,"b":2}},"conditions":["nonSeqFull","nonSeqPartial","seqNoFeedback","seqFeedback"],"classroomPairings":[["A","B"],["C","D"]],"coinWeights":[0.2,0.5,0.8],"subjectId":"A2ELXYKRPPGRPB","assignmentId":"3ATTHHXXWBAUIC425HIV4ACHK36IX1","hitId":"363A7XIFV48LMLIF2CKYA8VQSVQAVR","url":"https://gershmanlab.com/experiments/alicia/teaching/experiment/?hitId=363A7XIFV48LMLIF2CKYA8VQSVQAVR&workerId=A2ELXYKRPPGRPB&assignmentId=3ATTHHXXWBAUIC425HIV4ACHK36IX1&a=XHTA9&tp_a=XHTA9&b=3ATTHHXXWBAUIC425HIV4ACHK36IX1&tp_b=3ATTHHXXWBAUIC425HIV4ACHK36IX1&c=365799&tp_c=365799"},{"rt":1501,"stimulus":"\n            <h4 style=\"color:Orange;\">Student 10</h4>\n            <h2>The weight of your coin is <b style=\"color:Tomato;\">0.2</b>.</h2>\n            <p>In this block, you will be giving <b>one</b> set of examples to Student 10.</p>\n                <p>You will receive feedback at the end of the block.</p>\n            <p></p>","response":0,"trial_type":"html-button-response","trial_index":73,"time_elapsed":444066,"internal_node_id":"0.0-72.0","params":{"nStudents":24,"maxFlips":30,"completionMinutes":45,"basePay":8,"maxBonus":9,"perTrialBonus":0.5,"perTrialBonusThreshold":0.05,"exampleCost":0.01},"classroomParams":{"A":{"a":1,"b":4},"B":{"a":4,"b":1},"C":{"a":2,"b":8},"D":{"a":8,"b":2}},"conditions":["nonSeqFull","nonSeqPartial","seqNoFeedback","seqFeedback"],"classroomPairings":[["A","B"],["C","D"]],"coinWeights":[0.2,0.5,0.8],"subjectId":"A2ELXYKRPPGRPB","assignmentId":"3ATTHHXXWBAUIC425HIV4ACHK36IX1","hitId":"363A7XIFV48LMLIF2CKYA8VQSVQAVR","url":"https://gershmanlab.com/experiments/alicia/teaching/experiment/?hitId=363A7XIFV48LMLIF2CKYA8VQSVQAVR&workerId=A2ELXYKRPPGRPB&assignmentId=3ATTHHXXWBAUIC425HIV4ACHK36IX1&a=XHTA9&tp_a=XHTA9&b=3ATTHHXXWBAUIC425HIV4ACHK36IX1&tp_b=3ATTHHXXWBAUIC425HIV4ACHK36IX1&c=365799&tp_c=365799"},{"rt":11717,"response":{"heads":"0","tails":"12"},"type":"response","condition":"nonSeqPartial","trueTheta":0.2,"classrooms":["A","B"],"studentTrueClassroom":"A","exampleSet":"first","trial_type":"survey-html-form","trial_index":74,"time_elapsed":455784,"internal_node_id":"0.0-73.0-0.0","params":{"nStudents":24,"maxFlips":30,"completionMinutes":45,"basePay":8,"maxBonus":9,"perTrialBonus":0.5,"perTrialBonusThreshold":0.05,"exampleCost":0.01},"classroomParams":{"A":{"a":1,"b":4},"B":{"a":4,"b":1},"C":{"a":2,"b":8},"D":{"a":8,"b":2}},"conditions":["nonSeqFull","nonSeqPartial","seqNoFeedback","seqFeedback"],"classroomPairings":[["A","B"],["C","D"]],"coinWeights":[0.2,0.5,0.8],"subjectId":"A2ELXYKRPPGRPB","assignmentId":"3ATTHHXXWBAUIC425HIV4ACHK36IX1","hitId":"363A7XIFV48LMLIF2CKYA8VQSVQAVR","url":"https://gershmanlab.com/experiments/alicia/teaching/experiment/?hitId=363A7XIFV48LMLIF2CKYA8VQSVQAVR&workerId=A2ELXYKRPPGRPB&assignmentId=3ATTHHXXWBAUIC425HIV4ACHK36IX1&a=XHTA9&tp_a=XHTA9&b=3ATTHHXXWBAUIC425HIV4ACHK36IX1&tp_b=3ATTHHXXWBAUIC425HIV4ACHK36IX1&c=365799&tp_c=365799","heads":0,"tails":12,"studentIndex":9,"studentTrueHypers":{"a":1,"b":4},"studentGuess":0.058823529411764705,"delta":0.1411764705882353,"totalExamples":12,"bonus":0,"bonusSoFar":1.22},{"rt":null,"stimulus":"Sending examples to student... ","response":null,"trial_type":"html-keyboard-response","trial_index":75,"time_elapsed":457536,"internal_node_id":"0.0-74.0","params":{"nStudents":24,"maxFlips":30,"completionMinutes":45,"basePay":8,"maxBonus":9,"perTrialBonus":0.5,"perTrialBonusThreshold":0.05,"exampleCost":0.01},"classroomParams":{"A":{"a":1,"b":4},"B":{"a":4,"b":1},"C":{"a":2,"b":8},"D":{"a":8,"b":2}},"conditions":["nonSeqFull","nonSeqPartial","seqNoFeedback","seqFeedback"],"classroomPairings":[["A","B"],["C","D"]],"coinWeights":[0.2,0.5,0.8],"subjectId":"A2ELXYKRPPGRPB","assignmentId":"3ATTHHXXWBAUIC425HIV4ACHK36IX1","hitId":"363A7XIFV48LMLIF2CKYA8VQSVQAVR","url":"https://gershmanlab.com/experiments/alicia/teaching/experiment/?hitId=363A7XIFV48LMLIF2CKYA8VQSVQAVR&workerId=A2ELXYKRPPGRPB&assignmentId=3ATTHHXXWBAUIC425HIV4ACHK36IX1&a=XHTA9&tp_a=XHTA9&b=3ATTHHXXWBAUIC425HIV4ACHK36IX1&tp_b=3ATTHHXXWBAUIC425HIV4ACHK36IX1&c=365799&tp_c=365799"},{"rt":null,"stimulus":"Examples sent to student! Waiting for student...","response":null,"trial_type":"html-keyboard-response","trial_index":76,"time_elapsed":463538,"internal_node_id":"0.0-75.0","params":{"nStudents":24,"maxFlips":30,"completionMinutes":45,"basePay":8,"maxBonus":9,"perTrialBonus":0.5,"perTrialBonusThreshold":0.05,"exampleCost":0.01},"classroomParams":{"A":{"a":1,"b":4},"B":{"a":4,"b":1},"C":{"a":2,"b":8},"D":{"a":8,"b":2}},"conditions":["nonSeqFull","nonSeqPartial","seqNoFeedback","seqFeedback"],"classroomPairings":[["A","B"],["C","D"]],"coinWeights":[0.2,0.5,0.8],"subjectId":"A2ELXYKRPPGRPB","assignmentId":"3ATTHHXXWBAUIC425HIV4ACHK36IX1","hitId":"363A7XIFV48LMLIF2CKYA8VQSVQAVR","url":"https://gershmanlab.com/experiments/alicia/teaching/experiment/?hitId=363A7XIFV48LMLIF2CKYA8VQSVQAVR&workerId=A2ELXYKRPPGRPB&assignmentId=3ATTHHXXWBAUIC425HIV4ACHK36IX1&a=XHTA9&tp_a=XHTA9&b=3ATTHHXXWBAUIC425HIV4ACHK36IX1&tp_b=3ATTHHXXWBAUIC425HIV4ACHK36IX1&c=365799&tp_c=365799"},{"rt":2777,"stimulus":"\n                <p>Student's guess for coin weight: <b style=\"color:Tomato;\">0.06</b></p>\n                <p>You received a bonus of <b>$0</b>. Total bonus so far: <b>$1.22</b></b></p>\n                <p></p>\n                <p>Press any key to continue.</p>\n                ","response":" ","trial_type":"html-keyboard-response","trial_index":77,"time_elapsed":466316,"internal_node_id":"0.0-76.0","params":{"nStudents":24,"maxFlips":30,"completionMinutes":45,"basePay":8,"maxBonus":9,"perTrialBonus":0.5,"perTrialBonusThreshold":0.05,"exampleCost":0.01},"classroomParams":{"A":{"a":1,"b":4},"B":{"a":4,"b":1},"C":{"a":2,"b":8},"D":{"a":8,"b":2}},"conditions":["nonSeqFull","nonSeqPartial","seqNoFeedback","seqFeedback"],"classroomPairings":[["A","B"],["C","D"]],"coinWeights":[0.2,0.5,0.8],"subjectId":"A2ELXYKRPPGRPB","assignmentId":"3ATTHHXXWBAUIC425HIV4ACHK36IX1","hitId":"363A7XIFV48LMLIF2CKYA8VQSVQAVR","url":"https://gershmanlab.com/experiments/alicia/teaching/experiment/?hitId=363A7XIFV48LMLIF2CKYA8VQSVQAVR&workerId=A2ELXYKRPPGRPB&assignmentId=3ATTHHXXWBAUIC425HIV4ACHK36IX1&a=XHTA9&tp_a=XHTA9&b=3ATTHHXXWBAUIC425HIV4ACHK36IX1&tp_b=3ATTHHXXWBAUIC425HIV4ACHK36IX1&c=365799&tp_c=365799"},{"rt":null,"stimulus":"<div style=\"font-size:60px;\">Next student</div>","response":null,"trial_type":"html-keyboard-response","trial_index":78,"time_elapsed":469706,"internal_node_id":"0.0-77.0-0.0","params":{"nStudents":24,"maxFlips":30,"completionMinutes":45,"basePay":8,"maxBonus":9,"perTrialBonus":0.5,"perTrialBonusThreshold":0.05,"exampleCost":0.01},"classroomParams":{"A":{"a":1,"b":4},"B":{"a":4,"b":1},"C":{"a":2,"b":8},"D":{"a":8,"b":2}},"conditions":["nonSeqFull","nonSeqPartial","seqNoFeedback","seqFeedback"],"classroomPairings":[["A","B"],["C","D"]],"coinWeights":[0.2,0.5,0.8],"subjectId":"A2ELXYKRPPGRPB","assignmentId":"3ATTHHXXWBAUIC425HIV4ACHK36IX1","hitId":"363A7XIFV48LMLIF2CKYA8VQSVQAVR","url":"https://gershmanlab.com/experiments/alicia/teaching/experiment/?hitId=363A7XIFV48LMLIF2CKYA8VQSVQAVR&workerId=A2ELXYKRPPGRPB&assignmentId=3ATTHHXXWBAUIC425HIV4ACHK36IX1&a=XHTA9&tp_a=XHTA9&b=3ATTHHXXWBAUIC425HIV4ACHK36IX1&tp_b=3ATTHHXXWBAUIC425HIV4ACHK36IX1&c=365799&tp_c=365799"},{"rt":4648,"stimulus":"\n            <h4 style=\"color:Orange;\">Student 11</h4>\n            <h2>The weight of your coin is <b style=\"color:Tomato;\">0.2</b>.</h2>\n            <p>In this block, you will be giving <b>two</b> sets of examples to Student 11.</p>\n                <p>You will see the student's guess after the first set of examples. You will also receive feedback at the end of the block.</p>\n            <p>To earn the highest bonus, you will have to <b>take into consideration the student's guess</b> when you choose your second set of examples.</p>","response":0,"trial_type":"html-button-response","trial_index":79,"time_elapsed":474356,"internal_node_id":"0.0-78.0","params":{"nStudents":24,"maxFlips":30,"completionMinutes":45,"basePay":8,"maxBonus":9,"perTrialBonus":0.5,"perTrialBonusThreshold":0.05,"exampleCost":0.01},"classroomParams":{"A":{"a":1,"b":4},"B":{"a":4,"b":1},"C":{"a":2,"b":8},"D":{"a":8,"b":2}},"conditions":["nonSeqFull","nonSeqPartial","seqNoFeedback","seqFeedback"],"classroomPairings":[["A","B"],["C","D"]],"coinWeights":[0.2,0.5,0.8],"subjectId":"A2ELXYKRPPGRPB","assignmentId":"3ATTHHXXWBAUIC425HIV4ACHK36IX1","hitId":"363A7XIFV48LMLIF2CKYA8VQSVQAVR","url":"https://gershmanlab.com/experiments/alicia/teaching/experiment/?hitId=363A7XIFV48LMLIF2CKYA8VQSVQAVR&workerId=A2ELXYKRPPGRPB&assignmentId=3ATTHHXXWBAUIC425HIV4ACHK36IX1&a=XHTA9&tp_a=XHTA9&b=3ATTHHXXWBAUIC425HIV4ACHK36IX1&tp_b=3ATTHHXXWBAUIC425HIV4ACHK36IX1&c=365799&tp_c=365799"},{"rt":10769,"response":{"heads":"2","tails":"15"},"type":"response","condition":"seqFeedback","trueTheta":0.2,"classrooms":["A","B"],"studentTrueClassroom":"A","exampleSet":"first","trial_type":"survey-html-form","trial_index":80,"time_elapsed":485125,"internal_node_id":"0.0-79.0-0.0","params":{"nStudents":24,"maxFlips":30,"completionMinutes":45,"basePay":8,"maxBonus":9,"perTrialBonus":0.5,"perTrialBonusThreshold":0.05,"exampleCost":0.01},"classroomParams":{"A":{"a":1,"b":4},"B":{"a":4,"b":1},"C":{"a":2,"b":8},"D":{"a":8,"b":2}},"conditions":["nonSeqFull","nonSeqPartial","seqNoFeedback","seqFeedback"],"classroomPairings":[["A","B"],["C","D"]],"coinWeights":[0.2,0.5,0.8],"subjectId":"A2ELXYKRPPGRPB","assignmentId":"3ATTHHXXWBAUIC425HIV4ACHK36IX1","hitId":"363A7XIFV48LMLIF2CKYA8VQSVQAVR","url":"https://gershmanlab.com/experiments/alicia/teaching/experiment/?hitId=363A7XIFV48LMLIF2CKYA8VQSVQAVR&workerId=A2ELXYKRPPGRPB&assignmentId=3ATTHHXXWBAUIC425HIV4ACHK36IX1&a=XHTA9&tp_a=XHTA9&b=3ATTHHXXWBAUIC425HIV4ACHK36IX1&tp_b=3ATTHHXXWBAUIC425HIV4ACHK36IX1&c=365799&tp_c=365799","heads":2,"tails":15,"studentIndex":10,"studentTrueHypers":{"a":1,"b":4},"studentGuess":0.13636363636363635,"delta":0.06363636363636366,"totalExamples":17,"bonusSoFar":1.22},{"rt":null,"stimulus":"Sending examples to student... ","response":null,"trial_type":"html-keyboard-response","trial_index":81,"time_elapsed":487131,"internal_node_id":"0.0-80.0","params":{"nStudents":24,"maxFlips":30,"completionMinutes":45,"basePay":8,"maxBonus":9,"perTrialBonus":0.5,"perTrialBonusThreshold":0.05,"exampleCost":0.01},"classroomParams":{"A":{"a":1,"b":4},"B":{"a":4,"b":1},"C":{"a":2,"b":8},"D":{"a":8,"b":2}},"conditions":["nonSeqFull","nonSeqPartial","seqNoFeedback","seqFeedback"],"classroomPairings":[["A","B"],["C","D"]],"coinWeights":[0.2,0.5,0.8],"subjectId":"A2ELXYKRPPGRPB","assignmentId":"3ATTHHXXWBAUIC425HIV4ACHK36IX1","hitId":"363A7XIFV48LMLIF2CKYA8VQSVQAVR","url":"https://gershmanlab.com/experiments/alicia/teaching/experiment/?hitId=363A7XIFV48LMLIF2CKYA8VQSVQAVR&workerId=A2ELXYKRPPGRPB&assignmentId=3ATTHHXXWBAUIC425HIV4ACHK36IX1&a=XHTA9&tp_a=XHTA9&b=3ATTHHXXWBAUIC425HIV4ACHK36IX1&tp_b=3ATTHHXXWBAUIC425HIV4ACHK36IX1&c=365799&tp_c=365799"},{"rt":null,"stimulus":"Examples sent to student! Waiting for student...","response":null,"trial_type":"html-keyboard-response","trial_index":82,"time_elapsed":493133,"internal_node_id":"0.0-81.0","params":{"nStudents":24,"maxFlips":30,"completionMinutes":45,"basePay":8,"maxBonus":9,"perTrialBonus":0.5,"perTrialBonusThreshold":0.05,"exampleCost":0.01},"classroomParams":{"A":{"a":1,"b":4},"B":{"a":4,"b":1},"C":{"a":2,"b":8},"D":{"a":8,"b":2}},"conditions":["nonSeqFull","nonSeqPartial","seqNoFeedback","seqFeedback"],"classroomPairings":[["A","B"],["C","D"]],"coinWeights":[0.2,0.5,0.8],"subjectId":"A2ELXYKRPPGRPB","assignmentId":"3ATTHHXXWBAUIC425HIV4ACHK36IX1","hitId":"363A7XIFV48LMLIF2CKYA8VQSVQAVR","url":"https://gershmanlab.com/experiments/alicia/teaching/experiment/?hitId=363A7XIFV48LMLIF2CKYA8VQSVQAVR&workerId=A2ELXYKRPPGRPB&assignmentId=3ATTHHXXWBAUIC425HIV4ACHK36IX1&a=XHTA9&tp_a=XHTA9&b=3ATTHHXXWBAUIC425HIV4ACHK36IX1&tp_b=3ATTHHXXWBAUIC425HIV4ACHK36IX1&c=365799&tp_c=365799"},{"rt":4458,"stimulus":"\n                <p>Student's guess for coin weight: <b style=\"color:Tomato;\">0.14</b></p>\n                <p></b></p>\n                <p>You will now send another set of examples to your student. <b>Remember to take your student's guess into consideration so that you can earn the highest bonus possible!</b> </p>\n                <p>Press any key to continue.</p>\n                ","response":" ","trial_type":"html-keyboard-response","trial_index":83,"time_elapsed":497592,"internal_node_id":"0.0-82.0","params":{"nStudents":24,"maxFlips":30,"completionMinutes":45,"basePay":8,"maxBonus":9,"perTrialBonus":0.5,"perTrialBonusThreshold":0.05,"exampleCost":0.01},"classroomParams":{"A":{"a":1,"b":4},"B":{"a":4,"b":1},"C":{"a":2,"b":8},"D":{"a":8,"b":2}},"conditions":["nonSeqFull","nonSeqPartial","seqNoFeedback","seqFeedback"],"classroomPairings":[["A","B"],["C","D"]],"coinWeights":[0.2,0.5,0.8],"subjectId":"A2ELXYKRPPGRPB","assignmentId":"3ATTHHXXWBAUIC425HIV4ACHK36IX1","hitId":"363A7XIFV48LMLIF2CKYA8VQSVQAVR","url":"https://gershmanlab.com/experiments/alicia/teaching/experiment/?hitId=363A7XIFV48LMLIF2CKYA8VQSVQAVR&workerId=A2ELXYKRPPGRPB&assignmentId=3ATTHHXXWBAUIC425HIV4ACHK36IX1&a=XHTA9&tp_a=XHTA9&b=3ATTHHXXWBAUIC425HIV4ACHK36IX1&tp_b=3ATTHHXXWBAUIC425HIV4ACHK36IX1&c=365799&tp_c=365799"},{"rt":8662,"response":{"heads":"3","tails":"15"},"type":"response","condition":"seqFeedback","trueTheta":0.2,"classrooms":["A","B"],"studentTrueClassroom":"A","exampleSet":"second","trial_type":"survey-html-form","trial_index":84,"time_elapsed":506256,"internal_node_id":"0.0-83.0-0.0","params":{"nStudents":24,"maxFlips":30,"completionMinutes":45,"basePay":8,"maxBonus":9,"perTrialBonus":0.5,"perTrialBonusThreshold":0.05,"exampleCost":0.01},"classroomParams":{"A":{"a":1,"b":4},"B":{"a":4,"b":1},"C":{"a":2,"b":8},"D":{"a":8,"b":2}},"conditions":["nonSeqFull","nonSeqPartial","seqNoFeedback","seqFeedback"],"classroomPairings":[["A","B"],["C","D"]],"coinWeights":[0.2,0.5,0.8],"subjectId":"A2ELXYKRPPGRPB","assignmentId":"3ATTHHXXWBAUIC425HIV4ACHK36IX1","hitId":"363A7XIFV48LMLIF2CKYA8VQSVQAVR","url":"https://gershmanlab.com/experiments/alicia/teaching/experiment/?hitId=363A7XIFV48LMLIF2CKYA8VQSVQAVR&workerId=A2ELXYKRPPGRPB&assignmentId=3ATTHHXXWBAUIC425HIV4ACHK36IX1&a=XHTA9&tp_a=XHTA9&b=3ATTHHXXWBAUIC425HIV4ACHK36IX1&tp_b=3ATTHHXXWBAUIC425HIV4ACHK36IX1&c=365799&tp_c=365799","firstResponseHeads":2,"firstResponseTails":15,"secondResponseHeads":3,"secondResponseTails":15,"totalHeads":5,"totalTails":30,"studentIndex":10,"studentTrueHypers":{"a":1,"b":4},"studentGuess":0.15,"delta":0.05000000000000002,"bonus":0,"bonusSoFar":1.22,"totalExamples":35},{"rt":null,"stimulus":"Sending examples to student... ","response":null,"trial_type":"html-keyboard-response","trial_index":85,"time_elapsed":507522,"internal_node_id":"0.0-84.0","params":{"nStudents":24,"maxFlips":30,"completionMinutes":45,"basePay":8,"maxBonus":9,"perTrialBonus":0.5,"perTrialBonusThreshold":0.05,"exampleCost":0.01},"classroomParams":{"A":{"a":1,"b":4},"B":{"a":4,"b":1},"C":{"a":2,"b":8},"D":{"a":8,"b":2}},"conditions":["nonSeqFull","nonSeqPartial","seqNoFeedback","seqFeedback"],"classroomPairings":[["A","B"],["C","D"]],"coinWeights":[0.2,0.5,0.8],"subjectId":"A2ELXYKRPPGRPB","assignmentId":"3ATTHHXXWBAUIC425HIV4ACHK36IX1","hitId":"363A7XIFV48LMLIF2CKYA8VQSVQAVR","url":"https://gershmanlab.com/experiments/alicia/teaching/experiment/?hitId=363A7XIFV48LMLIF2CKYA8VQSVQAVR&workerId=A2ELXYKRPPGRPB&assignmentId=3ATTHHXXWBAUIC425HIV4ACHK36IX1&a=XHTA9&tp_a=XHTA9&b=3ATT