[{"rt":2123,"stimulus":"Welcome to the experiment. Press any key to begin.","response":"j","trial_type":"html-keyboard-response","trial_index":0,"time_elapsed":2136,"internal_node_id":"0.0-0.0","params":{"nStudents":24,"maxFlips":30,"completionMinutes":45,"basePay":8,"maxBonus":9,"perTrialBonus":0.5,"perTrialBonusThreshold":0.05,"exampleCost":0.01},"classroomParams":{"A":{"a":1,"b":4},"B":{"a":4,"b":1},"C":{"a":2,"b":8},"D":{"a":8,"b":2}},"conditions":["nonSeqFull","nonSeqPartial","seqNoFeedback","seqFeedback"],"classroomPairings":[["A","B"],["C","D"]],"coinWeights":[0.2,0.5,0.8],"subjectId":"A2G43KS55YGYQE","assignmentId":"3RANCT1ZVG3SE0W1U2FRYG90VV5UBC","hitId":"3SD15I2WD2G0NA4TSPXGB81L5S7630","url":"https://gershmanlab.com/experiments/alicia/teaching/experiment/?hitId=3SD15I2WD2G0NA4TSPXGB81L5S7630&workerId=A2G43KS55YGYQE&assignmentId=3RANCT1ZVG3SE0W1U2FRYG90VV5UBC&a=ZCAR9&tp_a=ZCAR9&b=3RANCT1ZVG3SE0W1U2FRYG90VV5UBC&tp_b=3RANCT1ZVG3SE0W1U2FRYG90VV5UBC&c=365799&tp_c=365799"},{"rt":19823,"stimulus":"\n        <h3>Please read this consent agreement carefully before deciding whether to participate in this experiment.</h3>\n        <p><b>Purpose of the research:</b> To examine how people teach effectively.</p>\n        <p><b>What you will do in this research:</b> You will teach students the weights of different coins.</p>\n        <p><b>Time required:</b> This experiment will take 45 minutes to complete.</p>\n        <p><b>Risks:</b> There are no anticipated risks associated with participating in this study.             The effects of participating should be comparable to those you would experience from viewing a computer monitor             and using a mouse and keyboard for the duration of the experiment.</p>\n        <p><b>Benefits:</b> The study provides important information about the nature of teaching.</p>\n        <p><b>Compensation:</b> You will receive <b>$8</b> for completing the experiment and a performance bonus of up to <b>$9</b>.</p>\n        <p><b>Confidentiality:</b> Your participation in this study will remain confidential.             No personally identifiable information will be associated with your data.             Your de-identified data may be shared with other researchers and used in future projects.</p>\n        <p><b>Participation and withdrawal:</b> Your participation in this study is completely voluntary and             you may refuse to participate or you may choose to withdraw at any time without penalty or loss of\n            benefits to which you are otherwise entitled.</p>\n        <p><b>How to contact the researcher:</b> If you have questions or concerns about your participation            or payment, or want to request a summary of research findings, please contact\n            Alicia Chen, aliciachen@college.harvard.edu.</p>\n        <p><b>Whom to contact about your rights in this research:</b> For questions, concerns, suggestions,             or complaints that have not been or cannot be addressed by the researcher, or to report             research-related harm, please contact the Committee on the Use of Human Subjects in Research at Harvard University,             1414 Massachusetts Avenue, Second Floor, Cambridge, MA 02138. Phone: 617-496-2847. Email: cuhs@fas.harvard.edu.</p>\n        ","response":0,"trial_type":"html-button-response","trial_index":1,"time_elapsed":21960,"internal_node_id":"0.0-1.0","params":{"nStudents":24,"maxFlips":30,"completionMinutes":45,"basePay":8,"maxBonus":9,"perTrialBonus":0.5,"perTrialBonusThreshold":0.05,"exampleCost":0.01},"classroomParams":{"A":{"a":1,"b":4},"B":{"a":4,"b":1},"C":{"a":2,"b":8},"D":{"a":8,"b":2}},"conditions":["nonSeqFull","nonSeqPartial","seqNoFeedback","seqFeedback"],"classroomPairings":[["A","B"],["C","D"]],"coinWeights":[0.2,0.5,0.8],"subjectId":"A2G43KS55YGYQE","assignmentId":"3RANCT1ZVG3SE0W1U2FRYG90VV5UBC","hitId":"3SD15I2WD2G0NA4TSPXGB81L5S7630","url":"https://gershmanlab.com/experiments/alicia/teaching/experiment/?hitId=3SD15I2WD2G0NA4TSPXGB81L5S7630&workerId=A2G43KS55YGYQE&assignmentId=3RANCT1ZVG3SE0W1U2FRYG90VV5UBC&a=ZCAR9&tp_a=ZCAR9&b=3RANCT1ZVG3SE0W1U2FRYG90VV5UBC&tp_b=3RANCT1ZVG3SE0W1U2FRYG90VV5UBC&c=365799&tp_c=365799"},{"view_history":[{"page_index":0,"viewing_time":6968},{"page_index":1,"viewing_time":3508},{"page_index":2,"viewing_time":42652},{"page_index":3,"viewing_time":19726},{"page_index":4,"viewing_time":13429},{"page_index":5,"viewing_time":30986},{"page_index":6,"viewing_time":30784}],"rt":148053,"trial_type":"instructions","trial_index":2,"time_elapsed":170011,"internal_node_id":"0.0-2.0-0.0","params":{"nStudents":24,"maxFlips":30,"completionMinutes":45,"basePay":8,"maxBonus":9,"perTrialBonus":0.5,"perTrialBonusThreshold":0.05,"exampleCost":0.01},"classroomParams":{"A":{"a":1,"b":4},"B":{"a":4,"b":1},"C":{"a":2,"b":8},"D":{"a":8,"b":2}},"conditions":["nonSeqFull","nonSeqPartial","seqNoFeedback","seqFeedback"],"classroomPairings":[["A","B"],["C","D"]],"coinWeights":[0.2,0.5,0.8],"subjectId":"A2G43KS55YGYQE","assignmentId":"3RANCT1ZVG3SE0W1U2FRYG90VV5UBC","hitId":"3SD15I2WD2G0NA4TSPXGB81L5S7630","url":"https://gershmanlab.com/experiments/alicia/teaching/experiment/?hitId=3SD15I2WD2G0NA4TSPXGB81L5S7630&workerId=A2G43KS55YGYQE&assignmentId=3RANCT1ZVG3SE0W1U2FRYG90VV5UBC&a=ZCAR9&tp_a=ZCAR9&b=3RANCT1ZVG3SE0W1U2FRYG90VV5UBC&tp_b=3RANCT1ZVG3SE0W1U2FRYG90VV5UBC&c=365799&tp_c=365799"},{"rt":41557,"response":{"Q0":"Students in different classrooms will have seen a different number of heads and tails before seeing the examples you select for them.","Q1":"By <b>considering the student's classroom information</b> so that I can teach efficiently and accurately/helpfully at the same time (because each example I give to the student costs money!).","Q2":"The coin lands heads 90% of the time.","Q3":"No, I will teach a <b>new</b> student each time.","Q4":"The students are also on the same alien planet as you, where coins can be unfair.","Q5":"Based on the student's second (and final) guess."},"question_order":[3,0,5,2,4,1],"trial_type":"survey-multi-choice","trial_index":3,"time_elapsed":211572,"internal_node_id":"0.0-2.0-1.0","params":{"nStudents":24,"maxFlips":30,"completionMinutes":45,"basePay":8,"maxBonus":9,"perTrialBonus":0.5,"perTrialBonusThreshold":0.05,"exampleCost":0.01},"classroomParams":{"A":{"a":1,"b":4},"B":{"a":4,"b":1},"C":{"a":2,"b":8},"D":{"a":8,"b":2}},"conditions":["nonSeqFull","nonSeqPartial","seqNoFeedback","seqFeedback"],"classroomPairings":[["A","B"],["C","D"]],"coinWeights":[0.2,0.5,0.8],"subjectId":"A2G43KS55YGYQE","assignmentId":"3RANCT1ZVG3SE0W1U2FRYG90VV5UBC","hitId":"3SD15I2WD2G0NA4TSPXGB81L5S7630","url":"https://gershmanlab.com/experiments/alicia/teaching/experiment/?hitId=3SD15I2WD2G0NA4TSPXGB81L5S7630&workerId=A2G43KS55YGYQE&assignmentId=3RANCT1ZVG3SE0W1U2FRYG90VV5UBC&a=ZCAR9&tp_a=ZCAR9&b=3RANCT1ZVG3SE0W1U2FRYG90VV5UBC&tp_b=3RANCT1ZVG3SE0W1U2FRYG90VV5UBC&c=365799&tp_c=365799","pass":true},{"rt":null,"stimulus":"<div style=\"font-size:30px;\">Congrats on passing the comprehension quiz! The experiment will begin in a few seconds.</div>","response":null,"trial_type":"html-keyboard-response","trial_index":4,"time_elapsed":214582,"internal_node_id":"0.0-3.0","params":{"nStudents":24,"maxFlips":30,"completionMinutes":45,"basePay":8,"maxBonus":9,"perTrialBonus":0.5,"perTrialBonusThreshold":0.05,"exampleCost":0.01},"classroomParams":{"A":{"a":1,"b":4},"B":{"a":4,"b":1},"C":{"a":2,"b":8},"D":{"a":8,"b":2}},"conditions":["nonSeqFull","nonSeqPartial","seqNoFeedback","seqFeedback"],"classroomPairings":[["A","B"],["C","D"]],"coinWeights":[0.2,0.5,0.8],"subjectId":"A2G43KS55YGYQE","assignmentId":"3RANCT1ZVG3SE0W1U2FRYG90VV5UBC","hitId":"3SD15I2WD2G0NA4TSPXGB81L5S7630","url":"https://gershmanlab.com/experiments/alicia/teaching/experiment/?hitId=3SD15I2WD2G0NA4TSPXGB81L5S7630&workerId=A2G43KS55YGYQE&assignmentId=3RANCT1ZVG3SE0W1U2FRYG90VV5UBC&a=ZCAR9&tp_a=ZCAR9&b=3RANCT1ZVG3SE0W1U2FRYG90VV5UBC&tp_b=3RANCT1ZVG3SE0W1U2FRYG90VV5UBC&c=365799&tp_c=365799"},{"rt":null,"stimulus":"<div style=\"font-size:50px;\">First student</div>","response":null,"trial_type":"html-keyboard-response","trial_index":5,"time_elapsed":217592,"internal_node_id":"0.0-4.0","params":{"nStudents":24,"maxFlips":30,"completionMinutes":45,"basePay":8,"maxBonus":9,"perTrialBonus":0.5,"perTrialBonusThreshold":0.05,"exampleCost":0.01},"classroomParams":{"A":{"a":1,"b":4},"B":{"a":4,"b":1},"C":{"a":2,"b":8},"D":{"a":8,"b":2}},"conditions":["nonSeqFull","nonSeqPartial","seqNoFeedback","seqFeedback"],"classroomPairings":[["A","B"],["C","D"]],"coinWeights":[0.2,0.5,0.8],"subjectId":"A2G43KS55YGYQE","assignmentId":"3RANCT1ZVG3SE0W1U2FRYG90VV5UBC","hitId":"3SD15I2WD2G0NA4TSPXGB81L5S7630","url":"https://gershmanlab.com/experiments/alicia/teaching/experiment/?hitId=3SD15I2WD2G0NA4TSPXGB81L5S7630&workerId=A2G43KS55YGYQE&assignmentId=3RANCT1ZVG3SE0W1U2FRYG90VV5UBC&a=ZCAR9&tp_a=ZCAR9&b=3RANCT1ZVG3SE0W1U2FRYG90VV5UBC&tp_b=3RANCT1ZVG3SE0W1U2FRYG90VV5UBC&c=365799&tp_c=365799"},{"rt":14494,"stimulus":"\n            <h4 style=\"color:Orange;\">Student 1</h4>\n            <h2>The weight of your coin is <b style=\"color:Tomato;\">0.8</b>.</h2>\n            <p>In this block, you will be giving <b>two</b> sets of examples to Student 1.</p>\n                <p>You will see the student's guess after the first set of examples. You will also receive feedback at the end of the block.</p>\n            <p>To earn the highest bonus, you will have to <b>take into consideration the student's guess</b> when you choose your second set of examples.</p>","response":0,"trial_type":"html-button-response","trial_index":6,"time_elapsed":232088,"internal_node_id":"0.0-5.0","params":{"nStudents":24,"maxFlips":30,"completionMinutes":45,"basePay":8,"maxBonus":9,"perTrialBonus":0.5,"perTrialBonusThreshold":0.05,"exampleCost":0.01},"classroomParams":{"A":{"a":1,"b":4},"B":{"a":4,"b":1},"C":{"a":2,"b":8},"D":{"a":8,"b":2}},"conditions":["nonSeqFull","nonSeqPartial","seqNoFeedback","seqFeedback"],"classroomPairings":[["A","B"],["C","D"]],"coinWeights":[0.2,0.5,0.8],"subjectId":"A2G43KS55YGYQE","assignmentId":"3RANCT1ZVG3SE0W1U2FRYG90VV5UBC","hitId":"3SD15I2WD2G0NA4TSPXGB81L5S7630","url":"https://gershmanlab.com/experiments/alicia/teaching/experiment/?hitId=3SD15I2WD2G0NA4TSPXGB81L5S7630&workerId=A2G43KS55YGYQE&assignmentId=3RANCT1ZVG3SE0W1U2FRYG90VV5UBC&a=ZCAR9&tp_a=ZCAR9&b=3RANCT1ZVG3SE0W1U2FRYG90VV5UBC&tp_b=3RANCT1ZVG3SE0W1U2FRYG90VV5UBC&c=365799&tp_c=365799"},{"rt":31367,"response":{"heads":"4","tails":"1"},"type":"response","condition":"seqFeedback","trueTheta":0.8,"classrooms":["A","B"],"studentTrueClassroom":"B","exampleSet":"first","trial_type":"survey-html-form","trial_index":7,"time_elapsed":263456,"internal_node_id":"0.0-6.0-0.0","params":{"nStudents":24,"maxFlips":30,"completionMinutes":45,"basePay":8,"maxBonus":9,"perTrialBonus":0.5,"perTrialBonusThreshold":0.05,"exampleCost":0.01},"classroomParams":{"A":{"a":1,"b":4},"B":{"a":4,"b":1},"C":{"a":2,"b":8},"D":{"a":8,"b":2}},"conditions":["nonSeqFull","nonSeqPartial","seqNoFeedback","seqFeedback"],"classroomPairings":[["A","B"],["C","D"]],"coinWeights":[0.2,0.5,0.8],"subjectId":"A2G43KS55YGYQE","assignmentId":"3RANCT1ZVG3SE0W1U2FRYG90VV5UBC","hitId":"3SD15I2WD2G0NA4TSPXGB81L5S7630","url":"https://gershmanlab.com/experiments/alicia/teaching/experiment/?hitId=3SD15I2WD2G0NA4TSPXGB81L5S7630&workerId=A2G43KS55YGYQE&assignmentId=3RANCT1ZVG3SE0W1U2FRYG90VV5UBC&a=ZCAR9&tp_a=ZCAR9&b=3RANCT1ZVG3SE0W1U2FRYG90VV5UBC&tp_b=3RANCT1ZVG3SE0W1U2FRYG90VV5UBC&c=365799&tp_c=365799","heads":4,"tails":1,"studentIndex":0,"studentTrueHypers":{"a":4,"b":1},"studentGuess":0.8,"delta":0,"totalExamples":5,"bonusSoFar":0},{"rt":null,"stimulus":"Sending examples to student... ","response":null,"trial_type":"html-keyboard-response","trial_index":8,"time_elapsed":264711,"internal_node_id":"0.0-7.0","params":{"nStudents":24,"maxFlips":30,"completionMinutes":45,"basePay":8,"maxBonus":9,"perTrialBonus":0.5,"perTrialBonusThreshold":0.05,"exampleCost":0.01},"classroomParams":{"A":{"a":1,"b":4},"B":{"a":4,"b":1},"C":{"a":2,"b":8},"D":{"a":8,"b":2}},"conditions":["nonSeqFull","nonSeqPartial","seqNoFeedback","seqFeedback"],"classroomPairings":[["A","B"],["C","D"]],"coinWeights":[0.2,0.5,0.8],"subjectId":"A2G43KS55YGYQE","assignmentId":"3RANCT1ZVG3SE0W1U2FRYG90VV5UBC","hitId":"3SD15I2WD2G0NA4TSPXGB81L5S7630","url":"https://gershmanlab.com/experiments/alicia/teaching/experiment/?hitId=3SD15I2WD2G0NA4TSPXGB81L5S7630&workerId=A2G43KS55YGYQE&assignmentId=3RANCT1ZVG3SE0W1U2FRYG90VV5UBC&a=ZCAR9&tp_a=ZCAR9&b=3RANCT1ZVG3SE0W1U2FRYG90VV5UBC&tp_b=3RANCT1ZVG3SE0W1U2FRYG90VV5UBC&c=365799&tp_c=365799"},{"rt":null,"stimulus":"Examples sent to student! Waiting for student...","response":null,"trial_type":"html-keyboard-response","trial_index":9,"time_elapsed":269224,"internal_node_id":"0.0-8.0","params":{"nStudents":24,"maxFlips":30,"completionMinutes":45,"basePay":8,"maxBonus":9,"perTrialBonus":0.5,"perTrialBonusThreshold":0.05,"exampleCost":0.01},"classroomParams":{"A":{"a":1,"b":4},"B":{"a":4,"b":1},"C":{"a":2,"b":8},"D":{"a":8,"b":2}},"conditions":["nonSeqFull","nonSeqPartial","seqNoFeedback","seqFeedback"],"classroomPairings":[["A","B"],["C","D"]],"coinWeights":[0.2,0.5,0.8],"subjectId":"A2G43KS55YGYQE","assignmentId":"3RANCT1ZVG3SE0W1U2FRYG90VV5UBC","hitId":"3SD15I2WD2G0NA4TSPXGB81L5S7630","url":"https://gershmanlab.com/experiments/alicia/teaching/experiment/?hitId=3SD15I2WD2G0NA4TSPXGB81L5S7630&workerId=A2G43KS55YGYQE&assignmentId=3RANCT1ZVG3SE0W1U2FRYG90VV5UBC&a=ZCAR9&tp_a=ZCAR9&b=3RANCT1ZVG3SE0W1U2FRYG90VV5UBC&tp_b=3RANCT1ZVG3SE0W1U2FRYG90VV5UBC&c=365799&tp_c=365799"},{"rt":8445,"stimulus":"\n                <p>Student's guess for coin weight: <b style=\"color:Tomato;\">0.80</b></p>\n                <p></b></p>\n                <p>You will now send another set of examples to your student. <b>Remember to take your student's guess into consideration so that you can earn the highest bonus possible!</b> </p>\n                <p>Press any key to continue.</p>\n                ","response":" ","trial_type":"html-keyboard-response","trial_index":10,"time_elapsed":277671,"internal_node_id":"0.0-9.0","params":{"nStudents":24,"maxFlips":30,"completionMinutes":45,"basePay":8,"maxBonus":9,"perTrialBonus":0.5,"perTrialBonusThreshold":0.05,"exampleCost":0.01},"classroomParams":{"A":{"a":1,"b":4},"B":{"a":4,"b":1},"C":{"a":2,"b":8},"D":{"a":8,"b":2}},"conditions":["nonSeqFull","nonSeqPartial","seqNoFeedback","seqFeedback"],"classroomPairings":[["A","B"],["C","D"]],"coinWeights":[0.2,0.5,0.8],"subjectId":"A2G43KS55YGYQE","assignmentId":"3RANCT1ZVG3SE0W1U2FRYG90VV5UBC","hitId":"3SD15I2WD2G0NA4TSPXGB81L5S7630","url":"https://gershmanlab.com/experiments/alicia/teaching/experiment/?hitId=3SD15I2WD2G0NA4TSPXGB81L5S7630&workerId=A2G43KS55YGYQE&assignmentId=3RANCT1ZVG3SE0W1U2FRYG90VV5UBC&a=ZCAR9&tp_a=ZCAR9&b=3RANCT1ZVG3SE0W1U2FRYG90VV5UBC&tp_b=3RANCT1ZVG3SE0W1U2FRYG90VV5UBC&c=365799&tp_c=365799"},{"rt":5130,"response":{"heads":"0","tails":"0"},"type":"response","condition":"seqFeedback","trueTheta":0.8,"classrooms":["A","B"],"studentTrueClassroom":"B","exampleSet":"second","trial_type":"survey-html-form","trial_index":11,"time_elapsed":282803,"internal_node_id":"0.0-10.0-0.0","params":{"nStudents":24,"maxFlips":30,"completionMinutes":45,"basePay":8,"maxBonus":9,"perTrialBonus":0.5,"perTrialBonusThreshold":0.05,"exampleCost":0.01},"classroomParams":{"A":{"a":1,"b":4},"B":{"a":4,"b":1},"C":{"a":2,"b":8},"D":{"a":8,"b":2}},"conditions":["nonSeqFull","nonSeqPartial","seqNoFeedback","seqFeedback"],"classroomPairings":[["A","B"],["C","D"]],"coinWeights":[0.2,0.5,0.8],"subjectId":"A2G43KS55YGYQE","assignmentId":"3RANCT1ZVG3SE0W1U2FRYG90VV5UBC","hitId":"3SD15I2WD2G0NA4TSPXGB81L5S7630","url":"https://gershmanlab.com/experiments/alicia/teaching/experiment/?hitId=3SD15I2WD2G0NA4TSPXGB81L5S7630&workerId=A2G43KS55YGYQE&assignmentId=3RANCT1ZVG3SE0W1U2FRYG90VV5UBC&a=ZCAR9&tp_a=ZCAR9&b=3RANCT1ZVG3SE0W1U2FRYG90VV5UBC&tp_b=3RANCT1ZVG3SE0W1U2FRYG90VV5UBC&c=365799&tp_c=365799","firstResponseHeads":4,"firstResponseTails":1,"secondResponseHeads":0,"secondResponseTails":0,"totalHeads":4,"totalTails":1,"studentIndex":0,"studentTrueHypers":{"a":4,"b":1},"studentGuess":0.8,"delta":0,"bonus":0.45,"bonusSoFar":0.45,"totalExamples":5},{"rt":6968,"response":{"heads":"0","tails":"0"},"type":"response","condition":"seqFeedback","trueTheta":0.8,"classrooms":["A","B"],"studentTrueClassroom":"B","exampleSet":"second","trial_type":"survey-html-form","trial_index":12,"time_elapsed":289772,"internal_node_id":"0.0-10.1-0.1","params":{"nStudents":24,"maxFlips":30,"completionMinutes":45,"basePay":8,"maxBonus":9,"perTrialBonus":0.5,"perTrialBonusThreshold":0.05,"exampleCost":0.01},"classroomParams":{"A":{"a":1,"b":4},"B":{"a":4,"b":1},"C":{"a":2,"b":8},"D":{"a":8,"b":2}},"conditions":["nonSeqFull","nonSeqPartial","seqNoFeedback","seqFeedback"],"classroomPairings":[["A","B"],["C","D"]],"coinWeights":[0.2,0.5,0.8],"subjectId":"A2G43KS55YGYQE","assignmentId":"3RANCT1ZVG3SE0W1U2FRYG90VV5UBC","hitId":"3SD15I2WD2G0NA4TSPXGB81L5S7630","url":"https://gershmanlab.com/experiments/alicia/teaching/experiment/?hitId=3SD15I2WD2G0NA4TSPXGB81L5S7630&workerId=A2G43KS55YGYQE&assignmentId=3RANCT1ZVG3SE0W1U2FRYG90VV5UBC&a=ZCAR9&tp_a=ZCAR9&b=3RANCT1ZVG3SE0W1U2FRYG90VV5UBC&tp_b=3RANCT1ZVG3SE0W1U2FRYG90VV5UBC&c=365799&tp_c=365799","firstResponseHeads":4,"firstResponseTails":1,"secondResponseHeads":0,"secondResponseTails":0,"totalHeads":4,"totalTails":1,"studentIndex":0,"studentTrueHypers":{"a":4,"b":1},"studentGuess":0.8,"delta":0,"bonus":0.45,"bonusSoFar":0.9,"totalExamples":5},{"rt":11611,"response":{"heads":"4","tails":"1"},"type":"response","condition":"seqFeedback","trueTheta":0.8,"classrooms":["A","B"],"studentTrueClassroom":"B","exampleSet":"second","trial_type":"survey-html-form","trial_index":13,"time_elapsed":301384,"internal_node_id":"0.0-10.2-0.2","params":{"nStudents":24,"maxFlips":30,"completionMinutes":45,"basePay":8,"maxBonus":9,"perTrialBonus":0.5,"perTrialBonusThreshold":0.05,"exampleCost":0.01},"classroomParams":{"A":{"a":1,"b":4},"B":{"a":4,"b":1},"C":{"a":2,"b":8},"D":{"a":8,"b":2}},"conditions":["nonSeqFull","nonSeqPartial","seqNoFeedback","seqFeedback"],"classroomPairings":[["A","B"],["C","D"]],"coinWeights":[0.2,0.5,0.8],"subjectId":"A2G43KS55YGYQE","assignmentId":"3RANCT1ZVG3SE0W1U2FRYG90VV5UBC","hitId":"3SD15I2WD2G0NA4TSPXGB81L5S7630","url":"https://gershmanlab.com/experiments/alicia/teaching/experiment/?hitId=3SD15I2WD2G0NA4TSPXGB81L5S7630&workerId=A2G43KS55YGYQE&assignmentId=3RANCT1ZVG3SE0W1U2FRYG90VV5UBC&a=ZCAR9&tp_a=ZCAR9&b=3RANCT1ZVG3SE0W1U2FRYG90VV5UBC&tp_b=3RANCT1ZVG3SE0W1U2FRYG90VV5UBC&c=365799&tp_c=365799","firstResponseHeads":4,"firstResponseTails":1,"secondResponseHeads":4,"secondResponseTails":1,"totalHeads":8,"totalTails":2,"studentIndex":0,"studentTrueHypers":{"a":4,"b":1},"studentGuess":0.8,"delta":0,"bonus":0.4,"bonusSoFar":1.3,"totalExamples":10},{"rt":null,"stimulus":"Sending examples to student... ","response":null,"trial_type":"html-keyboard-response","trial_index":14,"time_elapsed":303392,"internal_node_id":"0.0-11.0","params":{"nStudents":24,"maxFlips":30,"completionMinutes":45,"basePay":8,"maxBonus":9,"perTrialBonus":0.5,"perTrialBonusThreshold":0.05,"exampleCost":0.01},"classroomParams":{"A":{"a":1,"b":4},"B":{"a":4,"b":1},"C":{"a":2,"b":8},"D":{"a":8,"b":2}},"conditions":["nonSeqFull","nonSeqPartial","seqNoFeedback","seqFeedback"],"classroomPairings":[["A","B"],["C","D"]],"coinWeights":[0.2,0.5,0.8],"subjectId":"A2G43KS55YGYQE","assignmentId":"3RANCT1ZVG3SE0W1U2FRYG90VV5UBC","hitId":"3SD15I2WD2G0NA4TSPXGB81L5S7630","url":"https://gershmanlab.com/experiments/alicia/teaching/experiment/?hitId=3SD15I2WD2G0NA4TSPXGB81L5S7630&workerId=A2G43KS55YGYQE&assignmentId=3RANCT1ZVG3SE0W1U2FRYG90VV5UBC&a=ZCAR9&tp_a=ZCAR9&b=3RANCT1ZVG3SE0W1U2FRYG90VV5UBC&tp_b=3RANCT1ZVG3SE0W1U2FRYG90VV5UBC&c=365799&tp_c=365799"},{"rt":null,"stimulus":"Examples sent to student! Waiting for student...","response":null,"trial_type":"html-keyboard-response","trial_index":15,"time_elapsed":307399,"internal_node_id":"0.0-12.0","params":{"nStudents":24,"maxFlips":30,"completionMinutes":45,"basePay":8,"maxBonus":9,"perTrialBonus":0.5,"perTrialBonusThreshold":0.05,"exampleCost":0.01},"classroomParams":{"A":{"a":1,"b":4},"B":{"a":4,"b":1},"C":{"a":2,"b":8},"D":{"a":8,"b":2}},"conditions":["nonSeqFull","nonSeqPartial","seqNoFeedback","seqFeedback"],"classroomPairings":[["A","B"],["C","D"]],"coinWeights":[0.2,0.5,0.8],"subjectId":"A2G43KS55YGYQE","assignmentId":"3RANCT1ZVG3SE0W1U2FRYG90VV5UBC","hitId":"3SD15I2WD2G0NA4TSPXGB81L5S7630","url":"https://gershmanlab.com/experiments/alicia/teaching/experiment/?hitId=3SD15I2WD2G0NA4TSPXGB81L5S7630&workerId=A2G43KS55YGYQE&assignmentId=3RANCT1ZVG3SE0W1U2FRYG90VV5UBC&a=ZCAR9&tp_a=ZCAR9&b=3RANCT1ZVG3SE0W1U2FRYG90VV5UBC&tp_b=3RANCT1ZVG3SE0W1U2FRYG90VV5UBC&c=365799&tp_c=365799"},{"rt":7883,"stimulus":"\n                <p>Student 1's first guess for coin weight: <b style=\"color:Tomato\";>0.80</b></p>\n                <p>Student 1's second guess for coin weight: <b style=\"color:Tomato\";>0.80</b></p>\n                <p>You received a bonus of <b>$0.45</b> based on the student's second guess.</p>\n                <p>Total bonus so far: <b>$1.30</b></p>\n                <p>Press any key to continue.</p>\n                ","response":" ","trial_type":"html-keyboard-response","trial_index":16,"time_elapsed":315283,"internal_node_id":"0.0-13.0","params":{"nStudents":24,"maxFlips":30,"completionMinutes":45,"basePay":8,"maxBonus":9,"perTrialBonus":0.5,"perTrialBonusThreshold":0.05,"exampleCost":0.01},"classroomParams":{"A":{"a":1,"b":4},"B":{"a":4,"b":1},"C":{"a":2,"b":8},"D":{"a":8,"b":2}},"conditions":["nonSeqFull","nonSeqPartial","seqNoFeedback","seqFeedback"],"classroomPairings":[["A","B"],["C","D"]],"coinWeights":[0.2,0.5,0.8],"subjectId":"A2G43KS55YGYQE","assignmentId":"3RANCT1ZVG3SE0W1U2FRYG90VV5UBC","hitId":"3SD15I2WD2G0NA4TSPXGB81L5S7630","url":"https://gershmanlab.com/experiments/alicia/teaching/experiment/?hitId=3SD15I2WD2G0NA4TSPXGB81L5S7630&workerId=A2G43KS55YGYQE&assignmentId=3RANCT1ZVG3SE0W1U2FRYG90VV5UBC&a=ZCAR9&tp_a=ZCAR9&b=3RANCT1ZVG3SE0W1U2FRYG90VV5UBC&tp_b=3RANCT1ZVG3SE0W1U2FRYG90VV5UBC&c=365799&tp_c=365799"},{"rt":null,"stimulus":"<div style=\"font-size:60px;\">Next student</div>","response":null,"trial_type":"html-keyboard-response","trial_index":17,"time_elapsed":317784,"internal_node_id":"0.0-14.0-0.0","params":{"nStudents":24,"maxFlips":30,"completionMinutes":45,"basePay":8,"maxBonus":9,"perTrialBonus":0.5,"perTrialBonusThreshold":0.05,"exampleCost":0.01},"classroomParams":{"A":{"a":1,"b":4},"B":{"a":4,"b":1},"C":{"a":2,"b":8},"D":{"a":8,"b":2}},"conditions":["nonSeqFull","nonSeqPartial","seqNoFeedback","seqFeedback"],"classroomPairings":[["A","B"],["C","D"]],"coinWeights":[0.2,0.5,0.8],"subjectId":"A2G43KS55YGYQE","assignmentId":"3RANCT1ZVG3SE0W1U2FRYG90VV5UBC","hitId":"3SD15I2WD2G0NA4TSPXGB81L5S7630","url":"https://gershmanlab.com/experiments/alicia/teaching/experiment/?hitId=3SD15I2WD2G0NA4TSPXGB81L5S7630&workerId=A2G43KS55YGYQE&assignmentId=3RANCT1ZVG3SE0W1U2FRYG90VV5UBC&a=ZCAR9&tp_a=ZCAR9&b=3RANCT1ZVG3SE0W1U2FRYG90VV5UBC&tp_b=3RANCT1ZVG3SE0W1U2FRYG90VV5UBC&c=365799&tp_c=365799"},{"rt":8672,"stimulus":"\n            <h4 style=\"color:Orange;\">Student 2</h4>\n            <h2>The weight of your coin is <b style=\"color:Tomato;\">0.2</b>.</h2>\n            <p>In this block, you will be giving <b>two</b> sets of examples to Student 2.</p>\n                <p>You will receive feedback at the end of the block.</p>\n            <p></p>","response":0,"trial_type":"html-button-response","trial_index":18,"time_elapsed":326458,"internal_node_id":"0.0-15.0","params":{"nStudents":24,"maxFlips":30,"completionMinutes":45,"basePay":8,"maxBonus":9,"perTrialBonus":0.5,"perTrialBonusThreshold":0.05,"exampleCost":0.01},"classroomParams":{"A":{"a":1,"b":4},"B":{"a":4,"b":1},"C":{"a":2,"b":8},"D":{"a":8,"b":2}},"conditions":["nonSeqFull","nonSeqPartial","seqNoFeedback","seqFeedback"],"classroomPairings":[["A","B"],["C","D"]],"coinWeights":[0.2,0.5,0.8],"subjectId":"A2G43KS55YGYQE","assignmentId":"3RANCT1ZVG3SE0W1U2FRYG90VV5UBC","hitId":"3SD15I2WD2G0NA4TSPXGB81L5S7630","url":"https://gershmanlab.com/experiments/alicia/teaching/experiment/?hitId=3SD15I2WD2G0NA4TSPXGB81L5S7630&workerId=A2G43KS55YGYQE&assignmentId=3RANCT1ZVG3SE0W1U2FRYG90VV5UBC&a=ZCAR9&tp_a=ZCAR9&b=3RANCT1ZVG3SE0W1U2FRYG90VV5UBC&tp_b=3RANCT1ZVG3SE0W1U2FRYG90VV5UBC&c=365799&tp_c=365799"},{"rt":15089,"response":{"heads":"1","tails":"4"},"type":"response","condition":"seqNoFeedback","trueTheta":0.2,"classrooms":["C","D"],"studentTrueClassroom":"D","exampleSet":"first","trial_type":"survey-html-form","trial_index":19,"time_elapsed":341548,"internal_node_id":"0.0-16.0-0.0","params":{"nStudents":24,"maxFlips":30,"completionMinutes":45,"basePay":8,"maxBonus":9,"perTrialBonus":0.5,"perTrialBonusThreshold":0.05,"exampleCost":0.01},"classroomParams":{"A":{"a":1,"b":4},"B":{"a":4,"b":1},"C":{"a":2,"b":8},"D":{"a":8,"b":2}},"conditions":["nonSeqFull","nonSeqPartial","seqNoFeedback","seqFeedback"],"classroomPairings":[["A","B"],["C","D"]],"coinWeights":[0.2,0.5,0.8],"subjectId":"A2G43KS55YGYQE","assignmentId":"3RANCT1ZVG3SE0W1U2FRYG90VV5UBC","hitId":"3SD15I2WD2G0NA4TSPXGB81L5S7630","url":"https://gershmanlab.com/experiments/alicia/teaching/experiment/?hitId=3SD15I2WD2G0NA4TSPXGB81L5S7630&workerId=A2G43KS55YGYQE&assignmentId=3RANCT1ZVG3SE0W1U2FRYG90VV5UBC&a=ZCAR9&tp_a=ZCAR9&b=3RANCT1ZVG3SE0W1U2FRYG90VV5UBC&tp_b=3RANCT1ZVG3SE0W1U2FRYG90VV5UBC&c=365799&tp_c=365799","heads":1,"tails":4,"studentIndex":1,"studentTrueHypers":{"a":8,"b":2},"studentGuess":0.6,"delta":0.39999999999999997,"totalExamples":5,"bonusSoFar":1.3},{"rt":null,"stimulus":"Sending examples to student... ","response":null,"trial_type":"html-keyboard-response","trial_index":20,"time_elapsed":343315,"internal_node_id":"0.0-17.0","params":{"nStudents":24,"maxFlips":30,"completionMinutes":45,"basePay":8,"maxBonus":9,"perTrialBonus":0.5,"perTrialBonusThreshold":0.05,"exampleCost":0.01},"classroomParams":{"A":{"a":1,"b":4},"B":{"a":4,"b":1},"C":{"a":2,"b":8},"D":{"a":8,"b":2}},"conditions":["nonSeqFull","nonSeqPartial","seqNoFeedback","seqFeedback"],"classroomPairings":[["A","B"],["C","D"]],"coinWeights":[0.2,0.5,0.8],"subjectId":"A2G43KS55YGYQE","assignmentId":"3RANCT1ZVG3SE0W1U2FRYG90VV5UBC","hitId":"3SD15I2WD2G0NA4TSPXGB81L5S7630","url":"https://gershmanlab.com/experiments/alicia/teaching/experiment/?hitId=3SD15I2WD2G0NA4TSPXGB81L5S7630&workerId=A2G43KS55YGYQE&assignmentId=3RANCT1ZVG3SE0W1U2FRYG90VV5UBC&a=ZCAR9&tp_a=ZCAR9&b=3RANCT1ZVG3SE0W1U2FRYG90VV5UBC&tp_b=3RANCT1ZVG3SE0W1U2FRYG90VV5UBC&c=365799&tp_c=365799"},{"rt":null,"stimulus":"Examples sent to student! Waiting for student...","response":null,"trial_type":"html-keyboard-response","trial_index":21,"time_elapsed":348327,"internal_node_id":"0.0-18.0","params":{"nStudents":24,"maxFlips":30,"completionMinutes":45,"basePay":8,"maxBonus":9,"perTrialBonus":0.5,"perTrialBonusThreshold":0.05,"exampleCost":0.01},"classroomParams":{"A":{"a":1,"b":4},"B":{"a":4,"b":1},"C":{"a":2,"b":8},"D":{"a":8,"b":2}},"conditions":["nonSeqFull","nonSeqPartial","seqNoFeedback","seqFeedback"],"classroomPairings":[["A","B"],["C","D"]],"coinWeights":[0.2,0.5,0.8],"subjectId":"A2G43KS55YGYQE","assignmentId":"3RANCT1ZVG3SE0W1U2FRYG90VV5UBC","hitId":"3SD15I2WD2G0NA4TSPXGB81L5S7630","url":"https://gershmanlab.com/experiments/alicia/teaching/experiment/?hitId=3SD15I2WD2G0NA4TSPXGB81L5S7630&workerId=A2G43KS55YGYQE&assignmentId=3RANCT1ZVG3SE0W1U2FRYG90VV5UBC&a=ZCAR9&tp_a=ZCAR9&b=3RANCT1ZVG3SE0W1U2FRYG90VV5UBC&tp_b=3RANCT1ZVG3SE0W1U2FRYG90VV5UBC&c=365799&tp_c=365799"},{"rt":18654,"response":{"heads":"1","tails":"4"},"type":"response","condition":"seqNoFeedback","trueTheta":0.2,"classrooms":["C","D"],"studentTrueClassroom":"D","exampleSet":"second","trial_type":"survey-html-form","trial_index":22,"time_elapsed":366982,"internal_node_id":"0.0-19.0-0.0","params":{"nStudents":24,"maxFlips":30,"completionMinutes":45,"basePay":8,"maxBonus":9,"perTrialBonus":0.5,"perTrialBonusThreshold":0.05,"exampleCost":0.01},"classroomParams":{"A":{"a":1,"b":4},"B":{"a":4,"b":1},"C":{"a":2,"b":8},"D":{"a":8,"b":2}},"conditions":["nonSeqFull","nonSeqPartial","seqNoFeedback","seqFeedback"],"classroomPairings":[["A","B"],["C","D"]],"coinWeights":[0.2,0.5,0.8],"subjectId":"A2G43KS55YGYQE","assignmentId":"3RANCT1ZVG3SE0W1U2FRYG90VV5UBC","hitId":"3SD15I2WD2G0NA4TSPXGB81L5S7630","url":"https://gershmanlab.com/experiments/alicia/teaching/experiment/?hitId=3SD15I2WD2G0NA4TSPXGB81L5S7630&workerId=A2G43KS55YGYQE&assignmentId=3RANCT1ZVG3SE0W1U2FRYG90VV5UBC&a=ZCAR9&tp_a=ZCAR9&b=3RANCT1ZVG3SE0W1U2FRYG90VV5UBC&tp_b=3RANCT1ZVG3SE0W1U2FRYG90VV5UBC&c=365799&tp_c=365799","firstResponseHeads":1,"firstResponseTails":4,"secondResponseHeads":1,"secondResponseTails":4,"totalHeads":2,"totalTails":8,"studentIndex":1,"studentTrueHypers":{"a":8,"b":2},"studentGuess":0.5,"delta":0.3,"bonus":0,"bonusSoFar":1.3,"totalExamples":10},{"rt":null,"stimulus":"Sending examples to student... ","response":null,"trial_type":"html-keyboard-response","trial_index":23,"time_elapsed":368241,"internal_node_id":"0.0-20.0","params":{"nStudents":24,"maxFlips":30,"completionMinutes":45,"basePay":8,"maxBonus":9,"perTrialBonus":0.5,"perTrialBonusThreshold":0.05,"exampleCost":0.01},"classroomParams":{"A":{"a":1,"b":4},"B":{"a":4,"b":1},"C":{"a":2,"b":8},"D":{"a":8,"b":2}},"conditions":["nonSeqFull","nonSeqPartial","seqNoFeedback","seqFeedback"],"classroomPairings":[["A","B"],["C","D"]],"coinWeights":[0.2,0.5,0.8],"subjectId":"A2G43KS55YGYQE","assignmentId":"3RANCT1ZVG3SE0W1U2FRYG90VV5UBC","hitId":"3SD15I2WD2G0NA4TSPXGB81L5S7630","url":"https://gershmanlab.com/experiments/alicia/teaching/experiment/?hitId=3SD15I2WD2G0NA4TSPXGB81L5S7630&workerId=A2G43KS55YGYQE&assignmentId=3RANCT1ZVG3SE0W1U2FRYG90VV5UBC&a=ZCAR9&tp_a=ZCAR9&b=3RANCT1ZVG3SE0W1U2FRYG90VV5UBC&tp_b=3RANCT1ZVG3SE0W1U2FRYG90VV5UBC&c=365799&tp_c=365799"},{"rt":null,"stimulus":"Examples sent to student! Waiting for student...","response":null,"trial_type":"html-keyboard-response","trial_index":24,"time_elapsed":374256,"internal_node_id":"0.0-21.0","params":{"nStudents":24,"maxFlips":30,"completionMinutes":45,"basePay":8,"maxBonus":9,"perTrialBonus":0.5,"perTrialBonusThreshold":0.05,"exampleCost":0.01},"classroomParams":{"A":{"a":1,"b":4},"B":{"a":4,"b":1},"C":{"a":2,"b":8},"D":{"a":8,"b":2}},"conditions":["nonSeqFull","nonSeqPartial","seqNoFeedback","seqFeedback"],"classroomPairings":[["A","B"],["C","D"]],"coinWeights":[0.2,0.5,0.8],"subjectId":"A2G43KS55YGYQE","assignmentId":"3RANCT1ZVG3SE0W1U2FRYG90VV5UBC","hitId":"3SD15I2WD2G0NA4TSPXGB81L5S7630","url":"https://gershmanlab.com/experiments/alicia/teaching/experiment/?hitId=3SD15I2WD2G0NA4TSPXGB81L5S7630&workerId=A2G43KS55YGYQE&assignmentId=3RANCT1ZVG3SE0W1U2FRYG90VV5UBC&a=ZCAR9&tp_a=ZCAR9&b=3RANCT1ZVG3SE0W1U2FRYG90VV5UBC&tp_b=3RANCT1ZVG3SE0W1U2FRYG90VV5UBC&c=365799&tp_c=365799"},{"rt":7543,"stimulus":"\n                <p>Student 2's first guess for coin weight: <b style=\"color:Tomato\";>0.60</b></p>\n                <p>Student 2's second guess for coin weight: <b style=\"color:Tomato\";>0.50</b></p>\n                <p>You received a bonus of <b>$0.00</b> based on the student's second guess.</p>\n                <p>Total bonus so far: <b>$1.30</b></p>\n                <p>Press any key to continue.</p>\n                ","response":" ","trial_type":"html-keyboard-response","trial_index":25,"time_elapsed":381798,"internal_node_id":"0.0-22.0","params":{"nStudents":24,"maxFlips":30,"completionMinutes":45,"basePay":8,"maxBonus":9,"perTrialBonus":0.5,"perTrialBonusThreshold":0.05,"exampleCost":0.01},"classroomParams":{"A":{"a":1,"b":4},"B":{"a":4,"b":1},"C":{"a":2,"b":8},"D":{"a":8,"b":2}},"conditions":["nonSeqFull","nonSeqPartial","seqNoFeedback","seqFeedback"],"classroomPairings":[["A","B"],["C","D"]],"coinWeights":[0.2,0.5,0.8],"subjectId":"A2G43KS55YGYQE","assignmentId":"3RANCT1ZVG3SE0W1U2FRYG90VV5UBC","hitId":"3SD15I2WD2G0NA4TSPXGB81L5S7630","url":"https://gershmanlab.com/experiments/alicia/teaching/experiment/?hitId=3SD15I2WD2G0NA4TSPXGB81L5S7630&workerId=A2G43KS55YGYQE&assignmentId=3RANCT1ZVG3SE0W1U2FRYG90VV5UBC&a=ZCAR9&tp_a=ZCAR9&b=3RANCT1ZVG3SE0W1U2FRYG90VV5UBC&tp_b=3RANCT1ZVG3SE0W1U2FRYG90VV5UBC&c=365799&tp_c=365799"},{"rt":null,"stimulus":"<div style=\"font-size:60px;\">Next student</div>","response":null,"trial_type":"html-keyboard-response","trial_index":26,"time_elapsed":384801,"internal_node_id":"0.0-23.0-0.0","params":{"nStudents":24,"maxFlips":30,"completionMinutes":45,"basePay":8,"maxBonus":9,"perTrialBonus":0.5,"perTrialBonusThreshold":0.05,"exampleCost":0.01},"classroomParams":{"A":{"a":1,"b":4},"B":{"a":4,"b":1},"C":{"a":2,"b":8},"D":{"a":8,"b":2}},"conditions":["nonSeqFull","nonSeqPartial","seqNoFeedback","seqFeedback"],"classroomPairings":[["A","B"],["C","D"]],"coinWeights":[0.2,0.5,0.8],"subjectId":"A2G43KS55YGYQE","assignmentId":"3RANCT1ZVG3SE0W1U2FRYG90VV5UBC","hitId":"3SD15I2WD2G0NA4TSPXGB81L5S7630","url":"https://gershmanlab.com/experiments/alicia/teaching/experiment/?hitId=3SD15I2WD2G0NA4TSPXGB81L5S7630&workerId=A2G43KS55YGYQE&assignmentId=3RANCT1ZVG3SE0W1U2FRYG90VV5UBC&a=ZCAR9&tp_a=ZCAR9&b=3RANCT1ZVG3SE0W1U2FRYG90VV5UBC&tp_b=3RANCT1ZVG3SE0W1U2FRYG90VV5UBC&c=365799&tp_c=365799"},{"rt":7743,"stimulus":"\n            <h4 style=\"color:Orange;\">Student 3</h4>\n            <h2>The weight of your coin is <b style=\"color:Tomato;\">0.5</b>.</h2>\n            <p>In this block, you will be giving <b>two</b> sets of examples to Student 3.</p>\n                <p>You will see the student's guess after the first set of examples. You will also receive feedback at the end of the block.</p>\n            <p>To earn the highest bonus, you will have to <b>take into consideration the student's guess</b> when you choose your second set of examples.</p>","response":0,"trial_type":"html-button-response","trial_index":27,"time_elapsed":392546,"internal_node_id":"0.0-24.0","params":{"nStudents":24,"maxFlips":30,"completionMinutes":45,"basePay":8,"maxBonus":9,"perTrialBonus":0.5,"perTrialBonusThreshold":0.05,"exampleCost":0.01},"classroomParams":{"A":{"a":1,"b":4},"B":{"a":4,"b":1},"C":{"a":2,"b":8},"D":{"a":8,"b":2}},"conditions":["nonSeqFull","nonSeqPartial","seqNoFeedback","seqFeedback"],"classroomPairings":[["A","B"],["C","D"]],"coinWeights":[0.2,0.5,0.8],"subjectId":"A2G43KS55YGYQE","assignmentId":"3RANCT1ZVG3SE0W1U2FRYG90VV5UBC","hitId":"3SD15I2WD2G0NA4TSPXGB81L5S7630","url":"https://gershmanlab.com/experiments/alicia/teaching/experiment/?hitId=3SD15I2WD2G0NA4TSPXGB81L5S7630&workerId=A2G43KS55YGYQE&assignmentId=3RANCT1ZVG3SE0W1U2FRYG90VV5UBC&a=ZCAR9&tp_a=ZCAR9&b=3RANCT1ZVG3SE0W1U2FRYG90VV5UBC&tp_b=3RANCT1ZVG3SE0W1U2FRYG90VV5UBC&c=365799&tp_c=365799"},{"rt":6309,"response":{"heads":"1","tails":"1"},"type":"response","condition":"seqFeedback","trueTheta":0.5,"classrooms":["C","D"],"studentTrueClassroom":"D","exampleSet":"first","trial_type":"survey-html-form","trial_index":28,"time_elapsed":398857,"internal_node_id":"0.0-25.0-0.0","params":{"nStudents":24,"maxFlips":30,"completionMinutes":45,"basePay":8,"maxBonus":9,"perTrialBonus":0.5,"perTrialBonusThreshold":0.05,"exampleCost":0.01},"classroomParams":{"A":{"a":1,"b":4},"B":{"a":4,"b":1},"C":{"a":2,"b":8},"D":{"a":8,"b":2}},"conditions":["nonSeqFull","nonSeqPartial","seqNoFeedback","seqFeedback"],"classroomPairings":[["A","B"],["C","D"]],"coinWeights":[0.2,0.5,0.8],"subjectId":"A2G43KS55YGYQE","assignmentId":"3RANCT1ZVG3SE0W1U2FRYG90VV5UBC","hitId":"3SD15I2WD2G0NA4TSPXGB81L5S7630","url":"https://gershmanlab.com/experiments/alicia/teaching/experiment/?hitId=3SD15I2WD2G0NA4TSPXGB81L5S7630&workerId=A2G43KS55YGYQE&assignmentId=3RANCT1ZVG3SE0W1U2FRYG90VV5UBC&a=ZCAR9&tp_a=ZCAR9&b=3RANCT1ZVG3SE0W1U2FRYG90VV5UBC&tp_b=3RANCT1ZVG3SE0W1U2FRYG90VV5UBC&c=365799&tp_c=365799","heads":1,"tails":1,"studentIndex":2,"studentTrueHypers":{"a":8,"b":2},"studentGuess":0.75,"delta":0.25,"totalExamples":2,"bonusSoFar":1.3},{"rt":null,"stimulus":"Sending examples to student... ","response":null,"trial_type":"html-keyboard-response","trial_index":29,"time_elapsed":400869,"internal_node_id":"0.0-26.0","params":{"nStudents":24,"maxFlips":30,"completionMinutes":45,"basePay":8,"maxBonus":9,"perTrialBonus":0.5,"perTrialBonusThreshold":0.05,"exampleCost":0.01},"classroomParams":{"A":{"a":1,"b":4},"B":{"a":4,"b":1},"C":{"a":2,"b":8},"D":{"a":8,"b":2}},"conditions":["nonSeqFull","nonSeqPartial","seqNoFeedback","seqFeedback"],"classroomPairings":[["A","B"],["C","D"]],"coinWeights":[0.2,0.5,0.8],"subjectId":"A2G43KS55YGYQE","assignmentId":"3RANCT1ZVG3SE0W1U2FRYG90VV5UBC","hitId":"3SD15I2WD2G0NA4TSPXGB81L5S7630","url":"https://gershmanlab.com/experiments/alicia/teaching/experiment/?hitId=3SD15I2WD2G0NA4TSPXGB81L5S7630&workerId=A2G43KS55YGYQE&assignmentId=3RANCT1ZVG3SE0W1U2FRYG90VV5UBC&a=ZCAR9&tp_a=ZCAR9&b=3RANCT1ZVG3SE0W1U2FRYG90VV5UBC&tp_b=3RANCT1ZVG3SE0W1U2FRYG90VV5UBC&c=365799&tp_c=365799"},{"rt":null,"stimulus":"Examples sent to student! Waiting for student...","response":null,"trial_type":"html-keyboard-response","trial_index":30,"time_elapsed":406373,"internal_node_id":"0.0-27.0","params":{"nStudents":24,"maxFlips":30,"completionMinutes":45,"basePay":8,"maxBonus":9,"perTrialBonus":0.5,"perTrialBonusThreshold":0.05,"exampleCost":0.01},"classroomParams":{"A":{"a":1,"b":4},"B":{"a":4,"b":1},"C":{"a":2,"b":8},"D":{"a":8,"b":2}},"conditions":["nonSeqFull","nonSeqPartial","seqNoFeedback","seqFeedback"],"classroomPairings":[["A","B"],["C","D"]],"coinWeights":[0.2,0.5,0.8],"subjectId":"A2G43KS55YGYQE","assignmentId":"3RANCT1ZVG3SE0W1U2FRYG90VV5UBC","hitId":"3SD15I2WD2G0NA4TSPXGB81L5S7630","url":"https://gershmanlab.com/experiments/alicia/teaching/experiment/?hitId=3SD15I2WD2G0NA4TSPXGB81L5S7630&workerId=A2G43KS55YGYQE&assignmentId=3RANCT1ZVG3SE0W1U2FRYG90VV5UBC&a=ZCAR9&tp_a=ZCAR9&b=3RANCT1ZVG3SE0W1U2FRYG90VV5UBC&tp_b=3RANCT1ZVG3SE0W1U2FRYG90VV5UBC&c=365799&tp_c=365799"},{"rt":12594,"stimulus":"\n                <p>Student's guess for coin weight: <b style=\"color:Tomato;\">0.75</b></p>\n                <p></b></p>\n                <p>You will now send another set of examples to your student. <b>Remember to take your student's guess into consideration so that you can earn the highest bonus possible!</b> </p>\n                <p>Press any key to continue.</p>\n                ","response":" ","trial_type":"html-keyboard-response","trial_index":31,"time_elapsed":418969,"internal_node_id":"0.0-28.0","params":{"nStudents":24,"maxFlips":30,"completionMinutes":45,"basePay":8,"maxBonus":9,"perTrialBonus":0.5,"perTrialBonusThreshold":0.05,"exampleCost":0.01},"classroomParams":{"A":{"a":1,"b":4},"B":{"a":4,"b":1},"C":{"a":2,"b":8},"D":{"a":8,"b":2}},"conditions":["nonSeqFull","nonSeqPartial","seqNoFeedback","seqFeedback"],"classroomPairings":[["A","B"],["C","D"]],"coinWeights":[0.2,0.5,0.8],"subjectId":"A2G43KS55YGYQE","assignmentId":"3RANCT1ZVG3SE0W1U2FRYG90VV5UBC","hitId":"3SD15I2WD2G0NA4TSPXGB81L5S7630","url":"https://gershmanlab.com/experiments/alicia/teaching/experiment/?hitId=3SD15I2WD2G0NA4TSPXGB81L5S7630&workerId=A2G43KS55YGYQE&assignmentId=3RANCT1ZVG3SE0W1U2FRYG90VV5UBC&a=ZCAR9&tp_a=ZCAR9&b=3RANCT1ZVG3SE0W1U2FRYG90VV5UBC&tp_b=3RANCT1ZVG3SE0W1U2FRYG90VV5UBC&c=365799&tp_c=365799"},{"rt":16538,"response":{"heads":"1","tails":"1"},"type":"response","condition":"seqFeedback","trueTheta":0.5,"classrooms":["C","D"],"studentTrueClassroom":"D","exampleSet":"second","trial_type":"survey-html-form","trial_index":32,"time_elapsed":435509,"internal_node_id":"0.0-29.0-0.0","params":{"nStudents":24,"maxFlips":30,"completionMinutes":45,"basePay":8,"maxBonus":9,"perTrialBonus":0.5,"perTrialBonusThreshold":0.05,"exampleCost":0.01},"classroomParams":{"A":{"a":1,"b":4},"B":{"a":4,"b":1},"C":{"a":2,"b":8},"D":{"a":8,"b":2}},"conditions":["nonSeqFull","nonSeqPartial","seqNoFeedback","seqFeedback"],"classroomPairings":[["A","B"],["C","D"]],"coinWeights":[0.2,0.5,0.8],"subjectId":"A2G43KS55YGYQE","assignmentId":"3RANCT1ZVG3SE0W1U2FRYG90VV5UBC","hitId":"3SD15I2WD2G0NA4TSPXGB81L5S7630","url":"https://gershmanlab.com/experiments/alicia/teaching/experiment/?hitId=3SD15I2WD2G0NA4TSPXGB81L5S7630&workerId=A2G43KS55YGYQE&assignmentId=3RANCT1ZVG3SE0W1U2FRYG90VV5UBC&a=ZCAR9&tp_a=ZCAR9&b=3RANCT1ZVG3SE0W1U2FRYG90VV5UBC&tp_b=3RANCT1ZVG3SE0W1U2FRYG90VV5UBC&c=365799&tp_c=365799","firstResponseHeads":1,"firstResponseTails":1,"secondResponseHeads":1,"secondResponseTails":1,"totalHeads":2,"totalTails":2,"studentIndex":2,"studentTrueHypers":{"a":8,"b":2},"studentGuess":0.7142857142857143,"delta":0.2142857142857143,"bonus":0,"bonusSoFar":1.3,"totalExamples":4},{"rt":null,"stimulus":"Sending examples to student... ","response":null,"trial_type":"html-keyboard-response","trial_index":33,"time_elapsed":436769,"internal_node_id":"0.0-30.0","params":{"nStudents":24,"maxFlips":30,"completionMinutes":45,"basePay":8,"maxBonus":9,"perTrialBonus":0.5,"perTrialBonusThreshold":0.05,"exampleCost":0.01},"classroomParams":{"A":{"a":1,"b":4},"B":{"a":4,"b":1},"C":{"a":2,"b":8},"D":{"a":8,"b":2}},"conditions":["nonSeqFull","nonSeqPartial","seqNoFeedback","seqFeedback"],"classroomPairings":[["A","B"],["C","D"]],"coinWeights":[0.2,0.5,0.8],"subjectId":"A2G43KS55YGYQE","assignmentId":"3RANCT1ZVG3SE0W1U2FRYG90VV5UBC","hitId":"3SD15I2WD2G0NA4TSPXGB81L5S7630","url":"https://gershmanlab.com/experiments/alicia/teaching/experiment/?hitId=3SD15I2WD2G0NA4TSPXGB81L5S7630&workerId=A2G43KS55YGYQE&assignmentId=3RANCT1ZVG3SE0W1U2FRYG90VV5UBC&a=ZCAR9&tp_a=ZCAR9&b=3RANCT1ZVG3SE0W1U2FRYG90VV5UBC&tp_b=3RANCT1ZVG3SE0W1U2FRYG90VV5UBC&c=365799&tp_c=365799"},{"rt":null,"stimulus":"Examples sent to student! Waiting for student...","response":null,"trial_type":"html-keyboard-response","trial_index":34,"time_elapsed":441272,"internal_node_id":"0.0-31.0","params":{"nStudents":24,"maxFlips":30,"completionMinutes":45,"basePay":8,"maxBonus":9,"perTrialBonus":0.5,"perTrialBonusThreshold":0.05,"exampleCost":0.01},"classroomParams":{"A":{"a":1,"b":4},"B":{"a":4,"b":1},"C":{"a":2,"b":8},"D":{"a":8,"b":2}},"conditions":["nonSeqFull","nonSeqPartial","seqNoFeedback","seqFeedback"],"classroomPairings":[["A","B"],["C","D"]],"coinWeights":[0.2,0.5,0.8],"subjectId":"A2G43KS55YGYQE","assignmentId":"3RANCT1ZVG3SE0W1U2FRYG90VV5UBC","hitId":"3SD15I2WD2G0NA4TSPXGB81L5S7630","url":"https://gershmanlab.com/experiments/alicia/teaching/experiment/?hitId=3SD15I2WD2G0NA4TSPXGB81L5S7630&workerId=A2G43KS55YGYQE&assignmentId=3RANCT1ZVG3SE0W1U2FRYG90VV5UBC&a=ZCAR9&tp_a=ZCAR9&b=3RANCT1ZVG3SE0W1U2FRYG90VV5UBC&tp_b=3RANCT1ZVG3SE0W1U2FRYG90VV5UBC&c=365799&tp_c=365799"},{"rt":4806,"stimulus":"\n                <p>Student 3's first guess for coin weight: <b style=\"color:Tomato\";>0.75</b></p>\n                <p>Student 3's second guess for coin weight: <b style=\"color:Tomato\";>0.71</b></p>\n                <p>You received a bonus of <b>$0.00</b> based on the student's second guess.</p>\n                <p>Total bonus so far: <b>$1.30</b></p>\n                <p>Press any key to continue.</p>\n                ","response":" ","trial_type":"html-keyboard-response","trial_index":35,"time_elapsed":446083,"internal_node_id":"0.0-32.0","params":{"nStudents":24,"maxFlips":30,"completionMinutes":45,"basePay":8,"maxBonus":9,"perTrialBonus":0.5,"perTrialBonusThreshold":0.05,"exampleCost":0.01},"classroomParams":{"A":{"a":1,"b":4},"B":{"a":4,"b":1},"C":{"a":2,"b":8},"D":{"a":8,"b":2}},"conditions":["nonSeqFull","nonSeqPartial","seqNoFeedback","seqFeedback"],"classroomPairings":[["A","B"],["C","D"]],"coinWeights":[0.2,0.5,0.8],"subjectId":"A2G43KS55YGYQE","assignmentId":"3RANCT1ZVG3SE0W1U2FRYG90VV5UBC","hitId":"3SD15I2WD2G0NA4TSPXGB81L5S7630","url":"https://gershmanlab.com/experiments/alicia/teaching/experiment/?hitId=3SD15I2WD2G0NA4TSPXGB81L5S7630&workerId=A2G43KS55YGYQE&assignmentId=3RANCT1ZVG3SE0W1U2FRYG90VV5UBC&a=ZCAR9&tp_a=ZCAR9&b=3RANCT1ZVG3SE0W1U2FRYG90VV5UBC&tp_b=3RANCT1ZVG3SE0W1U2FRYG90VV5UBC&c=365799&tp_c=365799"},{"rt":null,"stimulus":"<div style=\"font-size:60px;\">Next student</div>","response":null,"trial_type":"html-keyboard-response","trial_index":36,"time_elapsed":448341,"internal_node_id":"0.0-33.0-0.0","params":{"nStudents":24,"maxFlips":30,"completionMinutes":45,"basePay":8,"maxBonus":9,"perTrialBonus":0.5,"perTrialBonusThreshold":0.05,"exampleCost":0.01},"classroomParams":{"A":{"a":1,"b":4},"B":{"a":4,"b":1},"C":{"a":2,"b":8},"D":{"a":8,"b":2}},"conditions":["nonSeqFull","nonSeqPartial","seqNoFeedback","seqFeedback"],"classroomPairings":[["A","B"],["C","D"]],"coinWeights":[0.2,0.5,0.8],"subjectId":"A2G43KS55YGYQE","assignmentId":"3RANCT1ZVG3SE0W1U2FRYG90VV5UBC","hitId":"3SD15I2WD2G0NA4TSPXGB81L5S7630","url":"https://gershmanlab.com/experiments/alicia/teaching/experiment/?hitId=3SD15I2WD2G0NA4TSPXGB81L5S7630&workerId=A2G43KS55YGYQE&assignmentId=3RANCT1ZVG3SE0W1U2FRYG90VV5UBC&a=ZCAR9&tp_a=ZCAR9&b=3RANCT1ZVG3SE0W1U2FRYG90VV5UBC&tp_b=3RANCT1ZVG3SE0W1U2FRYG90VV5UBC&c=365799&tp_c=365799"},{"rt":2668,"stimulus":"\n            <h4 style=\"color:Orange;\">Student 4</h4>\n            <h2>The weight of your coin is <b style=\"color:Tomato;\">0.2</b>.</h2>\n            <p>In this block, you will be giving <b>two</b> sets of examples to Student 4.</p>\n                <p>You will receive feedback at the end of the block.</p>\n            <p></p>","response":0,"trial_type":"html-button-response","trial_index":37,"time_elapsed":451010,"internal_node_id":"0.0-34.0","params":{"nStudents":24,"maxFlips":30,"completionMinutes":45,"basePay":8,"maxBonus":9,"perTrialBonus":0.5,"perTrialBonusThreshold":0.05,"exampleCost":0.01},"classroomParams":{"A":{"a":1,"b":4},"B":{"a":4,"b":1},"C":{"a":2,"b":8},"D":{"a":8,"b":2}},"conditions":["nonSeqFull","nonSeqPartial","seqNoFeedback","seqFeedback"],"classroomPairings":[["A","B"],["C","D"]],"coinWeights":[0.2,0.5,0.8],"subjectId":"A2G43KS55YGYQE","assignmentId":"3RANCT1ZVG3SE0W1U2FRYG90VV5UBC","hitId":"3SD15I2WD2G0NA4TSPXGB81L5S7630","url":"https://gershmanlab.com/experiments/alicia/teaching/experiment/?hitId=3SD15I2WD2G0NA4TSPXGB81L5S7630&workerId=A2G43KS55YGYQE&assignmentId=3RANCT1ZVG3SE0W1U2FRYG90VV5UBC&a=ZCAR9&tp_a=ZCAR9&b=3RANCT1ZVG3SE0W1U2FRYG90VV5UBC&tp_b=3RANCT1ZVG3SE0W1U2FRYG90VV5UBC&c=365799&tp_c=365799"},{"rt":23730,"response":{"heads":"1","tails":"4"},"type":"response","condition":"seqNoFeedback","trueTheta":0.2,"classrooms":["A","B"],"studentTrueClassroom":"B","exampleSet":"first","trial_type":"survey-html-form","trial_index":38,"time_elapsed":474741,"internal_node_id":"0.0-35.0-0.0","params":{"nStudents":24,"maxFlips":30,"completionMinutes":45,"basePay":8,"maxBonus":9,"perTrialBonus":0.5,"perTrialBonusThreshold":0.05,"exampleCost":0.01},"classroomParams":{"A":{"a":1,"b":4},"B":{"a":4,"b":1},"C":{"a":2,"b":8},"D":{"a":8,"b":2}},"conditions":["nonSeqFull","nonSeqPartial","seqNoFeedback","seqFeedback"],"classroomPairings":[["A","B"],["C","D"]],"coinWeights":[0.2,0.5,0.8],"subjectId":"A2G43KS55YGYQE","assignmentId":"3RANCT1ZVG3SE0W1U2FRYG90VV5UBC","hitId":"3SD15I2WD2G0NA4TSPXGB81L5S7630","url":"https://gershmanlab.com/experiments/alicia/teaching/experiment/?hitId=3SD15I2WD2G0NA4TSPXGB81L5S7630&workerId=A2G43KS55YGYQE&assignmentId=3RANCT1ZVG3SE0W1U2FRYG90VV5UBC&a=ZCAR9&tp_a=ZCAR9&b=3RANCT1ZVG3SE0W1U2FRYG90VV5UBC&tp_b=3RANCT1ZVG3SE0W1U2FRYG90VV5UBC&c=365799&tp_c=365799","heads":1,"tails":4,"studentIndex":3,"studentTrueHypers":{"a":4,"b":1},"studentGuess":0.5,"delta":0.3,"totalExamples":5,"bonusSoFar":1.3},{"rt":null,"stimulus":"Sending examples to student... ","response":null,"trial_type":"html-keyboard-response","trial_index":39,"time_elapsed":476243,"internal_node_id":"0.0-36.0","params":{"nStudents":24,"maxFlips":30,"completionMinutes":45,"basePay":8,"maxBonus":9,"perTrialBonus":0.5,"perTrialBonusThreshold":0.05,"exampleCost":0.01},"classroomParams":{"A":{"a":1,"b":4},"B":{"a":4,"b":1},"C":{"a":2,"b":8},"D":{"a":8,"b":2}},"conditions":["nonSeqFull","nonSeqPartial","seqNoFeedback","seqFeedback"],"classroomPairings":[["A","B"],["C","D"]],"coinWeights":[0.2,0.5,0.8],"subjectId":"A2G43KS55YGYQE","assignmentId":"3RANCT1ZVG3SE0W1U2FRYG90VV5UBC","hitId":"3SD15I2WD2G0NA4TSPXGB81L5S7630","url":"https://gershmanlab.com/experiments/alicia/teaching/experiment/?hitId=3SD15I2WD2G0NA4TSPXGB81L5S7630&workerId=A2G43KS55YGYQE&assignmentId=3RANCT1ZVG3SE0W1U2FRYG90VV5UBC&a=ZCAR9&tp_a=ZCAR9&b=3RANCT1ZVG3SE0W1U2FRYG90VV5UBC&tp_b=3RANCT1ZVG3SE0W1U2FRYG90VV5UBC&c=365799&tp_c=365799"},{"rt":null,"stimulus":"Examples sent to student! Waiting for student...","response":null,"trial_type":"html-keyboard-response","trial_index":40,"time_elapsed":481745,"internal_node_id":"0.0-37.0","params":{"nStudents":24,"maxFlips":30,"completionMinutes":45,"basePay":8,"maxBonus":9,"perTrialBonus":0.5,"perTrialBonusThreshold":0.05,"exampleCost":0.01},"classroomParams":{"A":{"a":1,"b":4},"B":{"a":4,"b":1},"C":{"a":2,"b":8},"D":{"a":8,"b":2}},"conditions":["nonSeqFull","nonSeqPartial","seqNoFeedback","seqFeedback"],"classroomPairings":[["A","B"],["C","D"]],"coinWeights":[0.2,0.5,0.8],"subjectId":"A2G43KS55YGYQE","assignmentId":"3RANCT1ZVG3SE0W1U2FRYG90VV5UBC","hitId":"3SD15I2WD2G0NA4TSPXGB81L5S7630","url":"https://gershmanlab.com/experiments/alicia/teaching/experiment/?hitId=3SD15I2WD2G0NA4TSPXGB81L5S7630&workerId=A2G43KS55YGYQE&assignmentId=3RANCT1ZVG3SE0W1U2FRYG90VV5UBC&a=ZCAR9&tp_a=ZCAR9&b=3RANCT1ZVG3SE0W1U2FRYG90VV5UBC&tp_b=3RANCT1ZVG3SE0W1U2FRYG90VV5UBC&c=365799&tp_c=365799"},{"rt":9299,"response":{"heads":"0","tails":"2"},"type":"response","condition":"seqNoFeedback","trueTheta":0.2,"classrooms":["A","B"],"studentTrueClassroom":"B","exampleSet":"second","trial_type":"survey-html-form","trial_index":41,"time_elapsed":491045,"internal_node_id":"0.0-38.0-0.0","params":{"nStudents":24,"maxFlips":30,"completionMinutes":45,"basePay":8,"maxBonus":9,"perTrialBonus":0.5,"perTrialBonusThreshold":0.05,"exampleCost":0.01},"classroomParams":{"A":{"a":1,"b":4},"B":{"a":4,"b":1},"C":{"a":2,"b":8},"D":{"a":8,"b":2}},"conditions":["nonSeqFull","nonSeqPartial","seqNoFeedback","seqFeedback"],"classroomPairings":[["A","B"],["C","D"]],"coinWeights":[0.2,0.5,0.8],"subjectId":"A2G43KS55YGYQE","assignmentId":"3RANCT1ZVG3SE0W1U2FRYG90VV5UBC","hitId":"3SD15I2WD2G0NA4TSPXGB81L5S7630","url":"https://gershmanlab.com/experiments/alicia/teaching/experiment/?hitId=3SD15I2WD2G0NA4TSPXGB81L5S7630&workerId=A2G43KS55YGYQE&assignmentId=3RANCT1ZVG3SE0W1U2FRYG90VV5UBC&a=ZCAR9&tp_a=ZCAR9&b=3RANCT1ZVG3SE0W1U2FRYG90VV5UBC&tp_b=3RANCT1ZVG3SE0W1U2FRYG90VV5UBC&c=365799&tp_c=365799","firstResponseHeads":1,"firstResponseTails":4,"secondResponseHeads":0,"secondResponseTails":2,"totalHeads":1,"totalTails":6,"studentIndex":3,"studentTrueHypers":{"a":4,"b":1},"studentGuess":0.4166666666666667,"delta":0.21666666666666667,"bonus":0,"bonusSoFar":1.3,"totalExamples":7},{"rt":null,"stimulus":"Sending examples to student... ","response":null,"trial_type":"html-keyboard-response","trial_index":42,"time_elapsed":492798,"internal_node_id":"0.0-39.0","params":{"nStudents":24,"maxFlips":30,"completionMinutes":45,"basePay":8,"maxBonus":9,"perTrialBonus":0.5,"perTrialBonusThreshold":0.05,"exampleCost":0.01},"classroomParams":{"A":{"a":1,"b":4},"B":{"a":4,"b":1},"C":{"a":2,"b":8},"D":{"a":8,"b":2}},"conditions":["nonSeqFull","nonSeqPartial","seqNoFeedback","seqFeedback"],"classroomPairings":[["A","B"],["C","D"]],"coinWeights":[0.2,0.5,0.8],"subjectId":"A2G43KS55YGYQE","assignmentId":"3RANCT1ZVG3SE0W1U2FRYG90VV5UBC","hitId":"3SD15I2WD2G0NA4TSPXGB81L5S7630","url":"https://gershmanlab.com/experiments/alicia/teaching/experiment/?hitId=3SD15I2WD2G0NA4TSPXGB81L5S7630&workerId=A2G43KS55YGYQE&assignmentId=3RANCT1ZVG3SE0W1U2FRYG90VV5UBC&a=ZCAR9&tp_a=ZCAR9&b=3RANCT1ZVG3SE0W1U2FRYG90VV5UBC&tp_b=3RANCT1ZVG3SE0W1U2FRYG90VV5UBC&c=365799&tp_c=365799"},{"rt":null,"stimulus":"Examples sent to student! Waiting for student...","response":null,"trial_type":"html-keyboard-response","trial_index":43,"time_elapsed":496804,"internal_node_id":"0.0-40.0","params":{"nStudents":24,"maxFlips":30,"completionMinutes":45,"basePay":8,"maxBonus":9,"perTrialBonus":0.5,"perTrialBonusThreshold":0.05,"exampleCost":0.01},"classroomParams":{"A":{"a":1,"b":4},"B":{"a":4,"b":1},"C":{"a":2,"b":8},"D":{"a":8,"b":2}},"conditions":["nonSeqFull","nonSeqPartial","seqNoFeedback","seqFeedback"],"classroomPairings":[["A","B"],["C","D"]],"coinWeights":[0.2,0.5,0.8],"subjectId":"A2G43KS55YGYQE","assignmentId":"3RANCT1ZVG3SE0W1U2FRYG90VV5UBC","hitId":"3SD15I2WD2G0NA4TSPXGB81L5S7630","url":"https://gershmanlab.com/experiments/alicia/teaching/experiment/?hitId=3SD15I2WD2G0NA4TSPXGB81L5S7630&workerId=A2G43KS55YGYQE&assignmentId=3RANCT1ZVG3SE0W1U2FRYG90VV5UBC&a=ZCAR9&tp_a=ZCAR9&b=3RANCT1ZVG3SE0W1U2FRYG90VV5UBC&tp_b=3RANCT1ZVG3SE0W1U2FRYG90VV5UBC&c=365799&tp_c=365799"},{"rt":11009,"stimulus":"\n                <p>Student 4's first guess for coin weight: <b style=\"color:Tomato\";>0.50</b></p>\n                <p>Student 4's second guess for coin weight: <b style=\"color:Tomato\";>0.42</b></p>\n                <p>You received a bonus of <b>$0.00</b> based on the student's second guess.</p>\n                <p>Total bonus so far: <b>$1.30</b></p>\n                <p>Press any key to continue.</p>\n                ","response":" ","trial_type":"html-keyboard-response","trial_index":44,"time_elapsed":507817,"internal_node_id":"0.0-41.0","params":{"nStudents":24,"maxFlips":30,"completionMinutes":45,"basePay":8,"maxBonus":9,"perTrialBonus":0.5,"perTrialBonusThreshold":0.05,"exampleCost":0.01},"classroomParams":{"A":{"a":1,"b":4},"B":{"a":4,"b":1},"C":{"a":2,"b":8},"D":{"a":8,"b":2}},"conditions":["nonSeqFull","nonSeqPartial","seqNoFeedback","seqFeedback"],"classroomPairings":[["A","B"],["C","D"]],"coinWeights":[0.2,0.5,0.8],"subjectId":"A2G43KS55YGYQE","assignmentId":"3RANCT1ZVG3SE0W1U2FRYG90VV5UBC","hitId":"3SD15I2WD2G0NA4TSPXGB81L5S7630","url":"https://gershmanlab.com/experiments/alicia/teaching/experiment/?hitId=3SD15I2WD2G0NA4TSPXGB81L5S7630&workerId=A2G43KS55YGYQE&assignmentId=3RANCT1ZVG3SE0W1U2FRYG90VV5UBC&a=ZCAR9&tp_a=ZCAR9&b=3RANCT1ZVG3SE0W1U2FRYG90VV5UBC&tp_b=3RANCT1ZVG3SE0W1U2FRYG90VV5UBC&c=365799&tp_c=365799"},{"rt":null,"stimulus":"<div style=\"font-size:60px;\">Next student</div>","response":null,"trial_type":"html-keyboard-response","trial_index":45,"time_elapsed":509825,"internal_node_id":"0.0-42.0-0.0","params":{"nStudents":24,"maxFlips":30,"completionMinutes":45,"basePay":8,"maxBonus":9,"perTrialBonus":0.5,"perTrialBonusThreshold":0.05,"exampleCost":0.01},"classroomParams":{"A":{"a":1,"b":4},"B":{"a":4,"b":1},"C":{"a":2,"b":8},"D":{"a":8,"b":2}},"conditions":["nonSeqFull","nonSeqPartial","seqNoFeedback","seqFeedback"],"classroomPairings":[["A","B"],["C","D"]],"coinWeights":[0.2,0.5,0.8],"subjectId":"A2G43KS55YGYQE","assignmentId":"3RANCT1ZVG3SE0W1U2FRYG90VV5UBC","hitId":"3SD15I2WD2G0NA4TSPXGB81L5S7630","url":"https://gershmanlab.com/experiments/alicia/teaching/experiment/?hitId=3SD15I2WD2G0NA4TSPXGB81L5S7630&workerId=A2G43KS55YGYQE&assignmentId=3RANCT1ZVG3SE0W1U2FRYG90VV5UBC&a=ZCAR9&tp_a=ZCAR9&b=3RANCT1ZVG3SE0W1U2FRYG90VV5UBC&tp_b=3RANCT1ZVG3SE0W1U2FRYG90VV5UBC&c=365799&tp_c=365799"},{"rt":3177,"stimulus":"\n            <h4 style=\"color:Orange;\">Student 5</h4>\n            <h2>The weight of your coin is <b style=\"color:Tomato;\">0.5</b>.</h2>\n            <p>In this block, you will be giving <b>one</b> set of examples to Student 5.</p>\n                <p>You will receive feedback at the end of the block.</p>\n            <p></p>","response":0,"trial_type":"html-button-response","trial_index":46,"time_elapsed":513005,"internal_node_id":"0.0-43.0","params":{"nStudents":24,"maxFlips":30,"completionMinutes":45,"basePay":8,"maxBonus":9,"perTrialBonus":0.5,"perTrialBonusThreshold":0.05,"exampleCost":0.01},"classroomParams":{"A":{"a":1,"b":4},"B":{"a":4,"b":1},"C":{"a":2,"b":8},"D":{"a":8,"b":2}},"conditions":["nonSeqFull","nonSeqPartial","seqNoFeedback","seqFeedback"],"classroomPairings":[["A","B"],["C","D"]],"coinWeights":[0.2,0.5,0.8],"subjectId":"A2G43KS55YGYQE","assignmentId":"3RANCT1ZVG3SE0W1U2FRYG90VV5UBC","hitId":"3SD15I2WD2G0NA4TSPXGB81L5S7630","url":"https://gershmanlab.com/experiments/alicia/teaching/experiment/?hitId=3SD15I2WD2G0NA4TSPXGB81L5S7630&workerId=A2G43KS55YGYQE&assignmentId=3RANCT1ZVG3SE0W1U2FRYG90VV5UBC&a=ZCAR9&tp_a=ZCAR9&b=3RANCT1ZVG3SE0W1U2FRYG90VV5UBC&tp_b=3RANCT1ZVG3SE0W1U2FRYG90VV5UBC&c=365799&tp_c=365799"},{"rt":15728,"response":{"heads":"5","tails":"5"},"type":"response","condition":"nonSeqPartial","trueTheta":0.5,"classrooms":["A","B"],"studentTrueClassroom":"A","exampleSet":"first","trial_type":"survey-html-form","trial_index":47,"time_elapsed":528734,"internal_node_id":"0.0-44.0-0.0","params":{"nStudents":24,"maxFlips":30,"completionMinutes":45,"basePay":8,"maxBonus":9,"perTrialBonus":0.5,"perTrialBonusThreshold":0.05,"exampleCost":0.01},"classroomParams":{"A":{"a":1,"b":4},"B":{"a":4,"b":1},"C":{"a":2,"b":8},"D":{"a":8,"b":2}},"conditions":["nonSeqFull","nonSeqPartial","seqNoFeedback","seqFeedback"],"classroomPairings":[["A","B"],["C","D"]],"coinWeights":[0.2,0.5,0.8],"subjectId":"A2G43KS55YGYQE","assignmentId":"3RANCT1ZVG3SE0W1U2FRYG90VV5UBC","hitId":"3SD15I2WD2G0NA4TSPXGB81L5S7630","url":"https://gershmanlab.com/experiments/alicia/teaching/experiment/?hitId=3SD15I2WD2G0NA4TSPXGB81L5S7630&workerId=A2G43KS55YGYQE&assignmentId=3RANCT1ZVG3SE0W1U2FRYG90VV5UBC&a=ZCAR9&tp_a=ZCAR9&b=3RANCT1ZVG3SE0W1U2FRYG90VV5UBC&tp_b=3RANCT1ZVG3SE0W1U2FRYG90VV5UBC&c=365799&tp_c=365799","heads":5,"tails":5,"studentIndex":4,"studentTrueHypers":{"a":1,"b":4},"studentGuess":0.4,"delta":0.09999999999999998,"totalExamples":10,"bonus":0,"bonusSoFar":1.3},{"rt":null,"stimulus":"Sending examples to student... ","response":null,"trial_type":"html-keyboard-response","trial_index":48,"time_elapsed":530486,"internal_node_id":"0.0-45.0","params":{"nStudents":24,"maxFlips":30,"completionMinutes":45,"basePay":8,"maxBonus":9,"perTrialBonus":0.5,"perTrialBonusThreshold":0.05,"exampleCost":0.01},"classroomParams":{"A":{"a":1,"b":4},"B":{"a":4,"b":1},"C":{"a":2,"b":8},"D":{"a":8,"b":2}},"conditions":["nonSeqFull","nonSeqPartial","seqNoFeedback","seqFeedback"],"classroomPairings":[["A","B"],["C","D"]],"coinWeights":[0.2,0.5,0.8],"subjectId":"A2G43KS55YGYQE","assignmentId":"3RANCT1ZVG3SE0W1U2FRYG90VV5UBC","hitId":"3SD15I2WD2G0NA4TSPXGB81L5S7630","url":"https://gershmanlab.com/experiments/alicia/teaching/experiment/?hitId=3SD15I2WD2G0NA4TSPXGB81L5S7630&workerId=A2G43KS55YGYQE&assignmentId=3RANCT1ZVG3SE0W1U2FRYG90VV5UBC&a=ZCAR9&tp_a=ZCAR9&b=3RANCT1ZVG3SE0W1U2FRYG90VV5UBC&tp_b=3RANCT1ZVG3SE0W1U2FRYG90VV5UBC&c=365799&tp_c=365799"},{"rt":null,"stimulus":"Examples sent to student! Waiting for student...","response":null,"trial_type":"html-keyboard-response","trial_index":49,"time_elapsed":535995,"internal_node_id":"0.0-46.0","params":{"nStudents":24,"maxFlips":30,"completionMinutes":45,"basePay":8,"maxBonus":9,"perTrialBonus":0.5,"perTrialBonusThreshold":0.05,"exampleCost":0.01},"classroomParams":{"A":{"a":1,"b":4},"B":{"a":4,"b":1},"C":{"a":2,"b":8},"D":{"a":8,"b":2}},"conditions":["nonSeqFull","nonSeqPartial","seqNoFeedback","seqFeedback"],"classroomPairings":[["A","B"],["C","D"]],"coinWeights":[0.2,0.5,0.8],"subjectId":"A2G43KS55YGYQE","assignmentId":"3RANCT1ZVG3SE0W1U2FRYG90VV5UBC","hitId":"3SD15I2WD2G0NA4TSPXGB81L5S7630","url":"https://gershmanlab.com/experiments/alicia/teaching/experiment/?hitId=3SD15I2WD2G0NA4TSPXGB81L5S7630&workerId=A2G43KS55YGYQE&assignmentId=3RANCT1ZVG3SE0W1U2FRYG90VV5UBC&a=ZCAR9&tp_a=ZCAR9&b=3RANCT1ZVG3SE0W1U2FRYG90VV5UBC&tp_b=3RANCT1ZVG3SE0W1U2FRYG90VV5UBC&c=365799&tp_c=365799"},{"rt":13490,"stimulus":"\n                <p>Student's guess for coin weight: <b style=\"color:Tomato;\">0.40</b></p>\n                <p>You received a bonus of <b>$0</b>. Total bonus so far: <b>$1.30</b></b></p>\n                <p></p>\n                <p>Press any key to continue.</p>\n                ","response":" ","trial_type":"html-keyboard-response","trial_index":50,"time_elapsed":549487,"internal_node_id":"0.0-47.0","params":{"nStudents":24,"maxFlips":30,"completionMinutes":45,"basePay":8,"maxBonus":9,"perTrialBonus":0.5,"perTrialBonusThreshold":0.05,"exampleCost":0.01},"classroomParams":{"A":{"a":1,"b":4},"B":{"a":4,"b":1},"C":{"a":2,"b":8},"D":{"a":8,"b":2}},"conditions":["nonSeqFull","nonSeqPartial","seqNoFeedback","seqFeedback"],"classroomPairings":[["A","B"],["C","D"]],"coinWeights":[0.2,0.5,0.8],"subjectId":"A2G43KS55YGYQE","assignmentId":"3RANCT1ZVG3SE0W1U2FRYG90VV5UBC","hitId":"3SD15I2WD2G0NA4TSPXGB81L5S7630","url":"https://gershmanlab.com/experiments/alicia/teaching/experiment/?hitId=3SD15I2WD2G0NA4TSPXGB81L5S7630&workerId=A2G43KS55YGYQE&assignmentId=3RANCT1ZVG3SE0W1U2FRYG90VV5UBC&a=ZCAR9&tp_a=ZCAR9&b=3RANCT1ZVG3SE0W1U2FRYG90VV5UBC&tp_b=3RANCT1ZVG3SE0W1U2FRYG90VV5UBC&c=365799&tp_c=365799"},{"rt":null,"stimulus":"<div style=\"font-size:60px;\">Next student</div>","response":null,"trial_type":"html-keyboard-response","trial_index":51,"time_elapsed":551989,"internal_node_id":"0.0-48.0-0.0","params":{"nStudents":24,"maxFlips":30,"completionMinutes":45,"basePay":8,"maxBonus":9,"perTrialBonus":0.5,"perTrialBonusThreshold":0.05,"exampleCost":0.01},"classroomParams":{"A":{"a":1,"b":4},"B":{"a":4,"b":1},"C":{"a":2,"b":8},"D":{"a":8,"b":2}},"conditions":["nonSeqFull","nonSeqPartial","seqNoFeedback","seqFeedback"],"classroomPairings":[["A","B"],["C","D"]],"coinWeights":[0.2,0.5,0.8],"subjectId":"A2G43KS55YGYQE","assignmentId":"3RANCT1ZVG3SE0W1U2FRYG90VV5UBC","hitId":"3SD15I2WD2G0NA4TSPXGB81L5S7630","url":"https://gershmanlab.com/experiments/alicia/teaching/experiment/?hitId=3SD15I2WD2G0NA4TSPXGB81L5S7630&workerId=A2G43KS55YGYQE&assignmentId=3RANCT1ZVG3SE0W1U2FRYG90VV5UBC&a=ZCAR9&tp_a=ZCAR9&b=3RANCT1ZVG3SE0W1U2FRYG90VV5UBC&tp_b=3RANCT1ZVG3SE0W1U2FRYG90VV5UBC&c=365799&tp_c=365799"},{"rt":3565,"stimulus":"\n            <h4 style=\"color:Orange;\">Student 6</h4>\n            <h2>The weight of your coin is <b style=\"color:Tomato;\">0.8</b>.</h2>\n            <p>In this block, you will be giving <b>one</b> set of examples to Student 6.</p>\n                <p>You will receive feedback at the end of the block.</p>\n            <p></p>","response":0,"trial_type":"html-button-response","trial_index":52,"time_elapsed":555555,"internal_node_id":"0.0-49.0","params":{"nStudents":24,"maxFlips":30,"completionMinutes":45,"basePay":8,"maxBonus":9,"perTrialBonus":0.5,"perTrialBonusThreshold":0.05,"exampleCost":0.01},"classroomParams":{"A":{"a":1,"b":4},"B":{"a":4,"b":1},"C":{"a":2,"b":8},"D":{"a":8,"b":2}},"conditions":["nonSeqFull","nonSeqPartial","seqNoFeedback","seqFeedback"],"classroomPairings":[["A","B"],["C","D"]],"coinWeights":[0.2,0.5,0.8],"subjectId":"A2G43KS55YGYQE","assignmentId":"3RANCT1ZVG3SE0W1U2FRYG90VV5UBC","hitId":"3SD15I2WD2G0NA4TSPXGB81L5S7630","url":"https://gershmanlab.com/experiments/alicia/teaching/experiment/?hitId=3SD15I2WD2G0NA4TSPXGB81L5S7630&workerId=A2G43KS55YGYQE&assignmentId=3RANCT1ZVG3SE0W1U2FRYG90VV5UBC&a=ZCAR9&tp_a=ZCAR9&b=3RANCT1ZVG3SE0W1U2FRYG90VV5UBC&tp_b=3RANCT1ZVG3SE0W1U2FRYG90VV5UBC&c=365799&tp_c=365799"},{"rt":18882,"response":{"heads":"4","tails":"1"},"type":"response","condition":"nonSeqFull","trueTheta":0.8,"classrooms":["C","D"],"studentTrueClassroom":"D","exampleSet":"first","trial_type":"survey-html-form","trial_index":53,"time_elapsed":574439,"internal_node_id":"0.0-50.0-0.0","params":{"nStudents":24,"maxFlips":30,"completionMinutes":45,"basePay":8,"maxBonus":9,"perTrialBonus":0.5,"perTrialBonusThreshold":0.05,"exampleCost":0.01},"classroomParams":{"A":{"a":1,"b":4},"B":{"a":4,"b":1},"C":{"a":2,"b":8},"D":{"a":8,"b":2}},"conditions":["nonSeqFull","nonSeqPartial","seqNoFeedback","seqFeedback"],"classroomPairings":[["A","B"],["C","D"]],"coinWeights":[0.2,0.5,0.8],"subjectId":"A2G43KS55YGYQE","assignmentId":"3RANCT1ZVG3SE0W1U2FRYG90VV5UBC","hitId":"3SD15I2WD2G0NA4TSPXGB81L5S7630","url":"https://gershmanlab.com/experiments/alicia/teaching/experiment/?hitId=3SD15I2WD2G0NA4TSPXGB81L5S7630&workerId=A2G43KS55YGYQE&assignmentId=3RANCT1ZVG3SE0W1U2FRYG90VV5UBC&a=ZCAR9&tp_a=ZCAR9&b=3RANCT1ZVG3SE0W1U2FRYG90VV5UBC&tp_b=3RANCT1ZVG3SE0W1U2FRYG90VV5UBC&c=365799&tp_c=365799","heads":4,"tails":1,"studentIndex":5,"studentTrueHypers":{"a":8,"b":2},"studentGuess":0.8,"delta":0,"totalExamples":5,"bonus":0.45,"bonusSoFar":1.75},{"rt":null,"stimulus":"Sending examples to student... ","response":null,"trial_type":"html-keyboard-response","trial_index":54,"time_elapsed":575696,"internal_node_id":"0.0-51.0","params":{"nStudents":24,"maxFlips":30,"completionMinutes":45,"basePay":8,"maxBonus":9,"perTrialBonus":0.5,"perTrialBonusThreshold":0.05,"exampleCost":0.01},"classroomParams":{"A":{"a":1,"b":4},"B":{"a":4,"b":1},"C":{"a":2,"b":8},"D":{"a":8,"b":2}},"conditions":["nonSeqFull","nonSeqPartial","seqNoFeedback","seqFeedback"],"classroomPairings":[["A","B"],["C","D"]],"coinWeights":[0.2,0.5,0.8],"subjectId":"A2G43KS55YGYQE","assignmentId":"3RANCT1ZVG3SE0W1U2FRYG90VV5UBC","hitId":"3SD15I2WD2G0NA4TSPXGB81L5S7630","url":"https://gershmanlab.com/experiments/alicia/teaching/experiment/?hitId=3SD15I2WD2G0NA4TSPXGB81L5S7630&workerId=A2G43KS55YGYQE&assignmentId=3RANCT1ZVG3SE0W1U2FRYG90VV5UBC&a=ZCAR9&tp_a=ZCAR9&b=3RANCT1ZVG3SE0W1U2FRYG90VV5UBC&tp_b=3RANCT1ZVG3SE0W1U2FRYG90VV5UBC&c=365799&tp_c=365799"},{"rt":null,"stimulus":"Examples sent to student! Waiting for student...","response":null,"trial_type":"html-keyboard-response","trial_index":55,"time_elapsed":580203,"internal_node_id":"0.0-52.0","params":{"nStudents":24,"maxFlips":30,"completionMinutes":45,"basePay":8,"maxBonus":9,"perTrialBonus":0.5,"perTrialBonusThreshold":0.05,"exampleCost":0.01},"classroomParams":{"A":{"a":1,"b":4},"B":{"a":4,"b":1},"C":{"a":2,"b":8},"D":{"a":8,"b":2}},"conditions":["nonSeqFull","nonSeqPartial","seqNoFeedback","seqFeedback"],"classroomPairings":[["A","B"],["C","D"]],"coinWeights":[0.2,0.5,0.8],"subjectId":"A2G43KS55YGYQE","assignmentId":"3RANCT1ZVG3SE0W1U2FRYG90VV5UBC","hitId":"3SD15I2WD2G0NA4TSPXGB81L5S7630","url":"https://gershmanlab.com/experiments/alicia/teaching/experiment/?hitId=3SD15I2WD2G0NA4TSPXGB81L5S7630&workerId=A2G43KS55YGYQE&assignmentId=3RANCT1ZVG3SE0W1U2FRYG90VV5UBC&a=ZCAR9&tp_a=ZCAR9&b=3RANCT1ZVG3SE0W1U2FRYG90VV5UBC&tp_b=3RANCT1ZVG3SE0W1U2FRYG90VV5UBC&c=365799&tp_c=365799"},{"rt":6125,"stimulus":"\n                <p>Student's guess for coin weight: <b style=\"color:Tomato;\">0.80</b></p>\n                <p>You received a bonus of <b>$0.45</b>. Total bonus so far: <b>$1.75</b></b></p>\n                <p></p>\n                <p>Press any key to continue.</p>\n                ","response":" ","trial_type":"html-keyboard-response","trial_index":56,"time_elapsed":586330,"internal_node_id":"0.0-53.0","params":{"nStudents":24,"maxFlips":30,"completionMinutes":45,"basePay":8,"maxBonus":9,"perTrialBonus":0.5,"perTrialBonusThreshold":0.05,"exampleCost":0.01},"classroomParams":{"A":{"a":1,"b":4},"B":{"a":4,"b":1},"C":{"a":2,"b":8},"D":{"a":8,"b":2}},"conditions":["nonSeqFull","nonSeqPartial","seqNoFeedback","seqFeedback"],"classroomPairings":[["A","B"],["C","D"]],"coinWeights":[0.2,0.5,0.8],"subjectId":"A2G43KS55YGYQE","assignmentId":"3RANCT1ZVG3SE0W1U2FRYG90VV5UBC","hitId":"3SD15I2WD2G0NA4TSPXGB81L5S7630","url":"https://gershmanlab.com/experiments/alicia/teaching/experiment/?hitId=3SD15I2WD2G0NA4TSPXGB81L5S7630&workerId=A2G43KS55YGYQE&assignmentId=3RANCT1ZVG3SE0W1U2FRYG90VV5UBC&a=ZCAR9&tp_a=ZCAR9&b=3RANCT1ZVG3SE0W1U2FRYG90VV5UBC&tp_b=3RANCT1ZVG3SE0W1U2FRYG90VV5UBC&c=365799&tp_c=365799"},{"rt":null,"stimulus":"<div style=\"font-size:60px;\">Next student</div>","response":null,"trial_type":"html-keyboard-response","trial_index":57,"time_elapsed":588584,"internal_node_id":"0.0-54.0-0.0","params":{"nStudents":24,"maxFlips":30,"completionMinutes":45,"basePay":8,"maxBonus":9,"perTrialBonus":0.5,"perTrialBonusThreshold":0.05,"exampleCost":0.01},"classroomParams":{"A":{"a":1,"b":4},"B":{"a":4,"b":1},"C":{"a":2,"b":8},"D":{"a":8,"b":2}},"conditions":["nonSeqFull","nonSeqPartial","seqNoFeedback","seqFeedback"],"classroomPairings":[["A","B"],["C","D"]],"coinWeights":[0.2,0.5,0.8],"subjectId":"A2G43KS55YGYQE","assignmentId":"3RANCT1ZVG3SE0W1U2FRYG90VV5UBC","hitId":"3SD15I2WD2G0NA4TSPXGB81L5S7630","url":"https://gershmanlab.com/experiments/alicia/teaching/experiment/?hitId=3SD15I2WD2G0NA4TSPXGB81L5S7630&workerId=A2G43KS55YGYQE&assignmentId=3RANCT1ZVG3SE0W1U2FRYG90VV5UBC&a=ZCAR9&tp_a=ZCAR9&b=3RANCT1ZVG3SE0W1U2FRYG90VV5UBC&tp_b=3RANCT1ZVG3SE0W1U2FRYG90VV5UBC&c=365799&tp_c=365799"},{"rt":3338,"stimulus":"\n            <h4 style=\"color:Orange;\">Student 7</h4>\n            <h2>The weight of your coin is <b style=\"color:Tomato;\">0.8</b>.</h2>\n            <p>In this block, you will be giving <b>one</b> set of examples to Student 7.</p>\n                <p>You will receive feedback at the end of the block.</p>\n            <p></p>","response":0,"trial_type":"html-button-response","trial_index":58,"time_elapsed":591924,"internal_node_id":"0.0-55.0","params":{"nStudents":24,"maxFlips":30,"completionMinutes":45,"basePay":8,"maxBonus":9,"perTrialBonus":0.5,"perTrialBonusThreshold":0.05,"exampleCost":0.01},"classroomParams":{"A":{"a":1,"b":4},"B":{"a":4,"b":1},"C":{"a":2,"b":8},"D":{"a":8,"b":2}},"conditions":["nonSeqFull","nonSeqPartial","seqNoFeedback","seqFeedback"],"classroomPairings":[["A","B"],["C","D"]],"coinWeights":[0.2,0.5,0.8],"subjectId":"A2G43KS55YGYQE","assignmentId":"3RANCT1ZVG3SE0W1U2FRYG90VV5UBC","hitId":"3SD15I2WD2G0NA4TSPXGB81L5S7630","url":"https://gershmanlab.com/experiments/alicia/teaching/experiment/?hitId=3SD15I2WD2G0NA4TSPXGB81L5S7630&workerId=A2G43KS55YGYQE&assignmentId=3RANCT1ZVG3SE0W1U2FRYG90VV5UBC&a=ZCAR9&tp_a=ZCAR9&b=3RANCT1ZVG3SE0W1U2FRYG90VV5UBC&tp_b=3RANCT1ZVG3SE0W1U2FRYG90VV5UBC&c=365799&tp_c=365799"},{"rt":8733,"response":{"heads":"4","tails":"1"},"type":"response","condition":"nonSeqFull","trueTheta":0.8,"classrooms":["A","B"],"studentTrueClassroom":"B","exampleSet":"first","trial_type":"survey-html-form","trial_index":59,"time_elapsed":600658,"internal_node_id":"0.0-56.0-0.0","params":{"nStudents":24,"maxFlips":30,"completionMinutes":45,"basePay":8,"maxBonus":9,"perTrialBonus":0.5,"perTrialBonusThreshold":0.05,"exampleCost":0.01},"classroomParams":{"A":{"a":1,"b":4},"B":{"a":4,"b":1},"C":{"a":2,"b":8},"D":{"a":8,"b":2}},"conditions":["nonSeqFull","nonSeqPartial","seqNoFeedback","seqFeedback"],"classroomPairings":[["A","B"],["C","D"]],"coinWeights":[0.2,0.5,0.8],"subjectId":"A2G43KS55YGYQE","assignmentId":"3RANCT1ZVG3SE0W1U2FRYG90VV5UBC","hitId":"3SD15I2WD2G0NA4TSPXGB81L5S7630","url":"https://gershmanlab.com/experiments/alicia/teaching/experiment/?hitId=3SD15I2WD2G0NA4TSPXGB81L5S7630&workerId=A2G43KS55YGYQE&assignmentId=3RANCT1ZVG3SE0W1U2FRYG90VV5UBC&a=ZCAR9&tp_a=ZCAR9&b=3RANCT1ZVG3SE0W1U2FRYG90VV5UBC&tp_b=3RANCT1ZVG3SE0W1U2FRYG90VV5UBC&c=365799&tp_c=365799","heads":4,"tails":1,"studentIndex":6,"studentTrueHypers":{"a":4,"b":1},"studentGuess":0.8,"delta":0,"totalExamples":5,"bonus":0.45,"bonusSoFar":2.2},{"rt":null,"stimulus":"Sending examples to student... ","response":null,"trial_type":"html-keyboard-response","trial_index":60,"time_elapsed":602161,"internal_node_id":"0.0-57.0","params":{"nStudents":24,"maxFlips":30,"completionMinutes":45,"basePay":8,"maxBonus":9,"perTrialBonus":0.5,"perTrialBonusThreshold":0.05,"exampleCost":0.01},"classroomParams":{"A":{"a":1,"b":4},"B":{"a":4,"b":1},"C":{"a":2,"b":8},"D":{"a":8,"b":2}},"conditions":["nonSeqFull","nonSeqPartial","seqNoFeedback","seqFeedback"],"classroomPairings":[["A","B"],["C","D"]],"coinWeights":[0.2,0.5,0.8],"subjectId":"A2G43KS55YGYQE","assignmentId":"3RANCT1ZVG3SE0W1U2FRYG90VV5UBC","hitId":"3SD15I2WD2G0NA4TSPXGB81L5S7630","url":"https://gershmanlab.com/experiments/alicia/teaching/experiment/?hitId=3SD15I2WD2G0NA4TSPXGB81L5S7630&workerId=A2G43KS55YGYQE&assignmentId=3RANCT1ZVG3SE0W1U2FRYG90VV5UBC&a=ZCAR9&tp_a=ZCAR9&b=3RANCT1ZVG3SE0W1U2FRYG90VV5UBC&tp_b=3RANCT1ZVG3SE0W1U2FRYG90VV5UBC&c=365799&tp_c=365799"},{"rt":null,"stimulus":"Examples sent to student! Waiting for student...","response":null,"trial_type":"html-keyboard-response","trial_index":61,"time_elapsed":608176,"internal_node_id":"0.0-58.0","params":{"nStudents":24,"maxFlips":30,"completionMinutes":45,"basePay":8,"maxBonus":9,"perTrialBonus":0.5,"perTrialBonusThreshold":0.05,"exampleCost":0.01},"classroomParams":{"A":{"a":1,"b":4},"B":{"a":4,"b":1},"C":{"a":2,"b":8},"D":{"a":8,"b":2}},"conditions":["nonSeqFull","nonSeqPartial","seqNoFeedback","seqFeedback"],"classroomPairings":[["A","B"],["C","D"]],"coinWeights":[0.2,0.5,0.8],"subjectId":"A2G43KS55YGYQE","assignmentId":"3RANCT1ZVG3SE0W1U2FRYG90VV5UBC","hitId":"3SD15I2WD2G0NA4TSPXGB81L5S7630","url":"https://gershmanlab.com/experiments/alicia/teaching/experiment/?hitId=3SD15I2WD2G0NA4TSPXGB81L5S7630&workerId=A2G43KS55YGYQE&assignmentId=3RANCT1ZVG3SE0W1U2FRYG90VV5UBC&a=ZCAR9&tp_a=ZCAR9&b=3RANCT1ZVG3SE0W1U2FRYG90VV5UBC&tp_b=3RANCT1ZVG3SE0W1U2FRYG90VV5UBC&c=365799&tp_c=365799"},{"rt":3697,"stimulus":"\n                <p>Student's guess for coin weight: <b style=\"color:Tomato;\">0.80</b></p>\n                <p>You received a bonus of <b>$0.45</b>. Total bonus so far: <b>$2.20</b></b></p>\n                <p></p>\n                <p>Press any key to continue.</p>\n                ","response":" ","trial_type":"html-keyboard-response","trial_index":62,"time_elapsed":611875,"internal_node_id":"0.0-59.0","params":{"nStudents":24,"maxFlips":30,"completionMinutes":45,"basePay":8,"maxBonus":9,"perTrialBonus":0.5,"perTrialBonusThreshold":0.05,"exampleCost":0.01},"classroomParams":{"A":{"a":1,"b":4},"B":{"a":4,"b":1},"C":{"a":2,"b":8},"D":{"a":8,"b":2}},"conditions":["nonSeqFull","nonSeqPartial","seqNoFeedback","seqFeedback"],"classroomPairings":[["A","B"],["C","D"]],"coinWeights":[0.2,0.5,0.8],"subjectId":"A2G43KS55YGYQE","assignmentId":"3RANCT1ZVG3SE0W1U2FRYG90VV5UBC","hitId":"3SD15I2WD2G0NA4TSPXGB81L5S7630","url":"https://gershmanlab.com/experiments/alicia/teaching/experiment/?hitId=3SD15I2WD2G0NA4TSPXGB81L5S7630&workerId=A2G43KS55YGYQE&assignmentId=3RANCT1ZVG3SE0W1U2FRYG90VV5UBC&a=ZCAR9&tp_a=ZCAR9&b=3RANCT1ZVG3SE0W1U2FRYG90VV5UBC&tp_b=3RANCT1ZVG3SE0W1U2FRYG90VV5UBC&c=365799&tp_c=365799"},{"rt":null,"stimulus":"<div style=\"font-size:60px;\">Next student</div>","response":null,"trial_type":"html-keyboard-response","trial_index":63,"time_elapsed":614889,"internal_node_id":"0.0-60.0-0.0","params":{"nStudents":24,"maxFlips":30,"completionMinutes":45,"basePay":8,"maxBonus":9,"perTrialBonus":0.5,"perTrialBonusThreshold":0.05,"exampleCost":0.01},"classroomParams":{"A":{"a":1,"b":4},"B":{"a":4,"b":1},"C":{"a":2,"b":8},"D":{"a":8,"b":2}},"conditions":["nonSeqFull","nonSeqPartial","seqNoFeedback","seqFeedback"],"classroomPairings":[["A","B"],["C","D"]],"coinWeights":[0.2,0.5,0.8],"subjectId":"A2G43KS55YGYQE","assignmentId":"3RANCT1ZVG3SE0W1U2FRYG90VV5UBC","hitId":"3SD15I2WD2G0NA4TSPXGB81L5S7630","url":"https://gershmanlab.com/experiments/alicia/teaching/experiment/?hitId=3SD15I2WD2G0NA4TSPXGB81L5S7630&workerId=A2G43KS55YGYQE&assignmentId=3RANCT1ZVG3SE0W1U2FRYG90VV5UBC&a=ZCAR9&tp_a=ZCAR9&b=3RANCT1ZVG3SE0W1U2FRYG90VV5UBC&tp_b=3RANCT1ZVG3SE0W1U2FRYG90VV5UBC&c=365799&tp_c=365799"},{"rt":8736,"stimulus":"\n            <h4 style=\"color:Orange;\">Student 8</h4>\n            <h2>The weight of your coin is <b style=\"color:Tomato;\">0.2</b>.</h2>\n            <p>In this block, you will be giving <b>two</b> sets of examples to Student 8.</p>\n                <p>You will see the student's guess after the first set of examples. You will also receive feedback at the end of the block.</p>\n            <p>To earn the highest bonus, you will have to <b>take into consideration the student's guess</b> when you choose your second set of examples.</p>","response":0,"trial_type":"html-button-response","trial_index":64,"time_elapsed":623626,"internal_node_id":"0.0-61.0","params":{"nStudents":24,"maxFlips":30,"completionMinutes":45,"basePay":8,"maxBonus":9,"perTrialBonus":0.5,"perTrialBonusThreshold":0.05,"exampleCost":0.01},"classroomParams":{"A":{"a":1,"b":4},"B":{"a":4,"b":1},"C":{"a":2,"b":8},"D":{"a":8,"b":2}},"conditions":["nonSeqFull","nonSeqPartial","seqNoFeedback","seqFeedback"],"classroomPairings":[["A","B"],["C","D"]],"coinWeights":[0.2,0.5,0.8],"subjectId":"A2G43KS55YGYQE","assignmentId":"3RANCT1ZVG3SE0W1U2FRYG90VV5UBC","hitId":"3SD15I2WD2G0NA4TSPXGB81L5S7630","url":"https://gershmanlab.com/experiments/alicia/teaching/experiment/?hitId=3SD15I2WD2G0NA4TSPXGB81L5S7630&workerId=A2G43KS55YGYQE&assignmentId=3RANCT1ZVG3SE0W1U2FRYG90VV5UBC&a=ZCAR9&tp_a=ZCAR9&b=3RANCT1ZVG3SE0W1U2FRYG90VV5UBC&tp_b=3RANCT1ZVG3SE0W1U2FRYG90VV5UBC&c=365799&tp_c=365799"},{"rt":21514,"response":{"heads":"1","tails":"4"},"type":"response","condition":"seqFeedback","trueTheta":0.2,"classrooms":["C","D"],"studentTrueClassroom":"C","exampleSet":"first","trial_type":"survey-html-form","trial_index":65,"time_elapsed":645141,"internal_node_id":"0.0-62.0-0.0","params":{"nStudents":24,"maxFlips":30,"completionMinutes":45,"basePay":8,"maxBonus":9,"perTrialBonus":0.5,"perTrialBonusThreshold":0.05,"exampleCost":0.01},"classroomParams":{"A":{"a":1,"b":4},"B":{"a":4,"b":1},"C":{"a":2,"b":8},"D":{"a":8,"b":2}},"conditions":["nonSeqFull","nonSeqPartial","seqNoFeedback","seqFeedback"],"classroomPairings":[["A","B"],["C","D"]],"coinWeights":[0.2,0.5,0.8],"subjectId":"A2G43KS55YGYQE","assignmentId":"3RANCT1ZVG3SE0W1U2FRYG90VV5UBC","hitId":"3SD15I2WD2G0NA4TSPXGB81L5S7630","url":"https://gershmanlab.com/experiments/alicia/teaching/experiment/?hitId=3SD15I2WD2G0NA4TSPXGB81L5S7630&workerId=A2G43KS55YGYQE&assignmentId=3RANCT1ZVG3SE0W1U2FRYG90VV5UBC&a=ZCAR9&tp_a=ZCAR9&b=3RANCT1ZVG3SE0W1U2FRYG90VV5UBC&tp_b=3RANCT1ZVG3SE0W1U2FRYG90VV5UBC&c=365799&tp_c=365799","heads":1,"tails":4,"studentIndex":7,"studentTrueHypers":{"a":2,"b":8},"studentGuess":0.2,"delta":0,"totalExamples":5,"bonusSoFar":2.2},{"rt":null,"stimulus":"Sending examples to student... ","response":null,"trial_type":"html-keyboard-response","trial_index":66,"time_elapsed":646903,"internal_node_id":"0.0-63.0","params":{"nStudents":24,"maxFlips":30,"completionMinutes":45,"basePay":8,"maxBonus":9,"perTrialBonus":0.5,"perTrialBonusThreshold":0.05,"exampleCost":0.01},"classroomParams":{"A":{"a":1,"b":4},"B":{"a":4,"b":1},"C":{"a":2,"b":8},"D":{"a":8,"b":2}},"conditions":["nonSeqFull","nonSeqPartial","seqNoFeedback","seqFeedback"],"classroomPairings":[["A","B"],["C","D"]],"coinWeights":[0.2,0.5,0.8],"subjectId":"A2G43KS55YGYQE","assignmentId":"3RANCT1ZVG3SE0W1U2FRYG90VV5UBC","hitId":"3SD15I2WD2G0NA4TSPXGB81L5S7630","url":"https://gershmanlab.com/experiments/alicia/teaching/experiment/?hitId=3SD15I2WD2G0NA4TSPXGB81L5S7630&workerId=A2G43KS55YGYQE&assignmentId=3RANCT1ZVG3SE0W1U2FRYG90VV5UBC&a=ZCAR9&tp_a=ZCAR9&b=3RANCT1ZVG3SE0W1U2FRYG90VV5UBC&tp_b=3RANCT1ZVG3SE0W1U2FRYG90VV5UBC&c=365799&tp_c=365799"},{"rt":null,"stimulus":"Examples sent to student! Waiting for student...","response":null,"trial_type":"html-keyboard-response","trial_index":67,"time_elapsed":652411,"internal_node_id":"0.0-64.0","params":{"nStudents":24,"maxFlips":30,"completionMinutes":45,"basePay":8,"maxBonus":9,"perTrialBonus":0.5,"perTrialBonusThreshold":0.05,"exampleCost":0.01},"classroomParams":{"A":{"a":1,"b":4},"B":{"a":4,"b":1},"C":{"a":2,"b":8},"D":{"a":8,"b":2}},"conditions":["nonSeqFull","nonSeqPartial","seqNoFeedback","seqFeedback"],"classroomPairings":[["A","B"],["C","D"]],"coinWeights":[0.2,0.5,0.8],"subjectId":"A2G43KS55YGYQE","assignmentId":"3RANCT1ZVG3SE0W1U2FRYG90VV5UBC","hitId":"3SD15I2WD2G0NA4TSPXGB81L5S7630","url":"https://gershmanlab.com/experiments/alicia/teaching/experiment/?hitId=3SD15I2WD2G0NA4TSPXGB81L5S7630&workerId=A2G43KS55YGYQE&assignmentId=3RANCT1ZVG3SE0W1U2FRYG90VV5UBC&a=ZCAR9&tp_a=ZCAR9&b=3RANCT1ZVG3SE0W1U2FRYG90VV5UBC&tp_b=3RANCT1ZVG3SE0W1U2FRYG90VV5UBC&c=365799&tp_c=365799"},{"rt":4227,"stimulus":"\n                <p>Student's guess for coin weight: <b style=\"color:Tomato;\">0.20</b></p>\n                <p></b></p>\n                <p>You will now send another set of examples to your student. <b>Remember to take your student's guess into consideration so that you can earn the highest bonus possible!</b> </p>\n                <p>Press any key to continue.</p>\n                ","response":" ","trial_type":"html-keyboard-response","trial_index":68,"time_elapsed":656640,"internal_node_id":"0.0-65.0","params":{"nStudents":24,"maxFlips":30,"completionMinutes":45,"basePay":8,"maxBonus":9,"perTrialBonus":0.5,"perTrialBonusThreshold":0.05,"exampleCost":0.01},"classroomParams":{"A":{"a":1,"b":4},"B":{"a":4,"b":1},"C":{"a":2,"b":8},"D":{"a":8,"b":2}},"conditions":["nonSeqFull","nonSeqPartial","seqNoFeedback","seqFeedback"],"classroomPairings":[["A","B"],["C","D"]],"coinWeights":[0.2,0.5,0.8],"subjectId":"A2G43KS55YGYQE","assignmentId":"3RANCT1ZVG3SE0W1U2FRYG90VV5UBC","hitId":"3SD15I2WD2G0NA4TSPXGB81L5S7630","url":"https://gershmanlab.com/experiments/alicia/teaching/experiment/?hitId=3SD15I2WD2G0NA4TSPXGB81L5S7630&workerId=A2G43KS55YGYQE&assignmentId=3RANCT1ZVG3SE0W1U2FRYG90VV5UBC&a=ZCAR9&tp_a=ZCAR9&b=3RANCT1ZVG3SE0W1U2FRYG90VV5UBC&tp_b=3RANCT1ZVG3SE0W1U2FRYG90VV5UBC&c=365799&tp_c=365799"},{"rt":8482,"response":{"heads":"1","tails":"4"},"type":"response","condition":"seqFeedback","trueTheta":0.2,"classrooms":["C","D"],"studentTrueClassroom":"C","exampleSet":"second","trial_type":"survey-html-form","trial_index":69,"time_elapsed":665124,"internal_node_id":"0.0-66.0-0.0","params":{"nStudents":24,"maxFlips":30,"completionMinutes":45,"basePay":8,"maxBonus":9,"perTrialBonus":0.5,"perTrialBonusThreshold":0.05,"exampleCost":0.01},"classroomParams":{"A":{"a":1,"b":4},"B":{"a":4,"b":1},"C":{"a":2,"b":8},"D":{"a":8,"b":2}},"conditions":["nonSeqFull","nonSeqPartial","seqNoFeedback","seqFeedback"],"classroomPairings":[["A","B"],["C","D"]],"coinWeights":[0.2,0.5,0.8],"subjectId":"A2G43KS55YGYQE","assignmentId":"3RANCT1ZVG3SE0W1U2FRYG90VV5UBC","hitId":"3SD15I2WD2G0NA4TSPXGB81L5S7630","url":"https://gershmanlab.com/experiments/alicia/teaching/experiment/?hitId=3SD15I2WD2G0NA4TSPXGB81L5S7630&workerId=A2G43KS55YGYQE&assignmentId=3RANCT1ZVG3SE0W1U2FRYG90VV5UBC&a=ZCAR9&tp_a=ZCAR9&b=3RANCT1ZVG3SE0W1U2FRYG90VV5UBC&tp_b=3RANCT1ZVG3SE0W1U2FRYG90VV5UBC&c=365799&tp_c=365799","firstResponseHeads":1,"firstResponseTails":4,"secondResponseHeads":1,"secondResponseTails":4,"totalHeads":2,"totalTails":8,"studentIndex":7,"studentTrueHypers":{"a":2,"b":8},"studentGuess":0.2,"delta":0,"bonus":0.4,"bonusSoFar":2.6,"totalExamples":10},{"rt":null,"stimulus":"Sending examples to student... ","response":null,"trial_type":"html-keyboard-response","trial_index":70,"time_elapsed":666889,"internal_node_id":"0.0-67.0","params":{"nStudents":24,"maxFlips":30,"completionMinutes":45,"basePay":8,"maxBonus":9,"perTrialBonus":0.5,"perTrialBonusThreshold":0.05,"exampleCost":0.01},"classroomParams":{"A":{"a":1,"b":4},"B":{"a":4,"b":1},"C":{"a":2,"b":8},"D":{"a":8,"b":2}},"conditions":["nonSeqFull","nonSeqPartial","seqNoFeedback","seqFeedback"],"classroomPairings":[["A","B"],["C","D"]],"coinWeights":[0.2,0.5,0.8],"subjectId":"A2G43KS55YGYQE","assignmentId":"3RANCT1ZVG3SE0W1U2FRYG90VV5UBC","hitId":"3SD15I2WD2G0NA4TSPXGB81L5S7630","url":"https://gershmanlab.com/experiments/alicia/teaching/experiment/?hitId=3SD15I2WD2G0NA4TSPXGB81L5S7630&workerId=A2G43KS55YGYQE&assignmentId=3RANCT1ZVG3SE0W1U2FRYG90VV5UBC&a=ZCAR9&tp_a=ZCAR9&b=3RANCT1ZVG3SE0W1U2FRYG90VV5UBC&tp_b=3RANCT1ZVG3SE0W1U2FRYG90VV5UBC&c=365799&tp_c=365799"},{"rt":null,"stimulus":"Examples sent to student! Waiting for student...","response":null,"trial_type":"html-keyboard-response","trial_index":71,"time_elapsed":671392,"internal_node_id":"0.0-68.0","params":{"nStudents":24,"maxFlips":30,"completionMinutes":45,"basePay":8,"maxBonus":9,"perTrialBonus":0.5,"perTrialBonusThreshold":0.05,"exampleCost":0.01},"classroomParams":{"A":{"a":1,"b":4},"B":{"a":4,"b":1},"C":{"a":2,"b":8},"D":{"a":8,"b":2}},"conditions":["nonSeqFull","nonSeqPartial","seqNoFeedback","seqFeedback"],"classroomPairings":[["A","B"],["C","D"]],"coinWeights":[0.2,0.5,0.8],"subjectId":"A2G43KS55YGYQE","assignmentId":"3RANCT1ZVG3SE0W1U2FRYG90VV5UBC","hitId":"3SD15I2WD2G0NA4TSPXGB81L5S7630","url":"https://gershmanlab.com/experiments/alicia/teaching/experiment/?hitId=3SD15I2WD2G0NA4TSPXGB81L5S7630&workerId=A2G43KS55YGYQE&assignmentId=3RANCT1ZVG3SE0W1U2FRYG90VV5UBC&a=ZCAR9&tp_a=ZCAR9&b=3RANCT1ZVG3SE0W1U2FRYG90VV5UBC&tp_b=3RANCT1ZVG3SE0W1U2FRYG90VV5UBC&c=365799&tp_c=365799"},{"rt":4343,"stimulus":"\n                <p>Student 8's first guess for coin weight: <b style=\"color:Tomato\";>0.20</b></p>\n                <p>Student 8's second guess for coin weight: <b style=\"color:Tomato\";>0.20</b></p>\n                <p>You received a bonus of <b>$0.40</b> based on the student's second guess.</p>\n                <p>Total bonus so far: <b>$2.60</b></p>\n                <p>Press any key to continue.</p>\n                ","response":" ","trial_type":"html-keyboard-response","trial_index":72,"time_elapsed":675737,"internal_node_id":"0.0-69.0","params":{"nStudents":24,"maxFlips":30,"completionMinutes":45,"basePay":8,"maxBonus":9,"perTrialBonus":0.5,"perTrialBonusThreshold":0.05,"exampleCost":0.01},"classroomParams":{"A":{"a":1,"b":4},"B":{"a":4,"b":1},"C":{"a":2,"b":8},"D":{"a":8,"b":2}},"conditions":["nonSeqFull","nonSeqPartial","seqNoFeedback","seqFeedback"],"classroomPairings":[["A","B"],["C","D"]],"coinWeights":[0.2,0.5,0.8],"subjectId":"A2G43KS55YGYQE","assignmentId":"3RANCT1ZVG3SE0W1U2FRYG90VV5UBC","hitId":"3SD15I2WD2G0NA4TSPXGB81L5S7630","url":"https://gershmanlab.com/experiments/alicia/teaching/experiment/?hitId=3SD15I2WD2G0NA4TSPXGB81L5S7630&workerId=A2G43KS55YGYQE&assignmentId=3RANCT1ZVG3SE0W1U2FRYG90VV5UBC&a=ZCAR9&tp_a=ZCAR9&b=3RANCT1ZVG3SE0W1U2FRYG90VV5UBC&tp_b=3RANCT1ZVG3SE0W1U2FRYG90VV5UBC&c=365799&tp_c=365799"},{"rt":null,"stimulus":"<div style=\"font-size:60px;\">Next student</div>","response":null,"trial_type":"html-keyboard-response","trial_index":73,"time_elapsed":678741,"internal_node_id":"0.0-70.0-0.0","params":{"nStudents":24,"maxFlips":30,"completionMinutes":45,"basePay":8,"maxBonus":9,"perTrialBonus":0.5,"perTrialBonusThreshold":0.05,"exampleCost":0.01},"classroomParams":{"A":{"a":1,"b":4},"B":{"a":4,"b":1},"C":{"a":2,"b":8},"D":{"a":8,"b":2}},"conditions":["nonSeqFull","nonSeqPartial","seqNoFeedback","seqFeedback"],"classroomPairings":[["A","B"],["C","D"]],"coinWeights":[0.2,0.5,0.8],"subjectId":"A2G43KS55YGYQE","assignmentId":"3RANCT1ZVG3SE0W1U2FRYG90VV5UBC","hitId":"3SD15I2WD2G0NA4TSPXGB81L5S7630","url":"https://gershmanlab.com/experiments/alicia/teaching/experiment/?hitId=3SD15I2WD2G0NA4TSPXGB81L5S7630&workerId=A2G43KS55YGYQE&assignmentId=3RANCT1ZVG3SE0W1U2FRYG90VV5UBC&a=ZCAR9&tp_a=ZCAR9&b=3RANCT1ZVG3SE0W1U2FRYG90VV5UBC&tp_b=3RANCT1ZVG3SE0W1U2FRYG90VV5UBC&c=365799&tp_c=365799"},{"rt":2586,"stimulus":"\n            <h4 style=\"color:Orange;\">Student 9</h4>\n            <h2>The weight of your coin is <b style=\"color:Tomato;\">0.8</b>.</h2>\n            <p>In this block, you will be giving <b>one</b> set of examples to Student 9.</p>\n                <p>You will receive feedback at the end of the block.</p>\n            <p></p>","response":0,"trial_type":"html-button-response","trial_index":74,"time_elapsed":681330,"internal_node_id":"0.0-71.0","params":{"nStudents":24,"maxFlips":30,"completionMinutes":45,"basePay":8,"maxBonus":9,"perTrialBonus":0.5,"perTrialBonusThreshold":0.05,"exampleCost":0.01},"classroomParams":{"A":{"a":1,"b":4},"B":{"a":4,"b":1},"C":{"a":2,"b":8},"D":{"a":8,"b":2}},"conditions":["nonSeqFull","nonSeqPartial","seqNoFeedback","seqFeedback"],"classroomPairings":[["A","B"],["C","D"]],"coinWeights":[0.2,0.5,0.8],"subjectId":"A2G43KS55YGYQE","assignmentId":"3RANCT1ZVG3SE0W1U2FRYG90VV5UBC","hitId":"3SD15I2WD2G0NA4TSPXGB81L5S7630","url":"https://gershmanlab.com/experiments/alicia/teaching/experiment/?hitId=3SD15I2WD2G0NA4TSPXGB81L5S7630&workerId=A2G43KS55YGYQE&assignmentId=3RANCT1ZVG3SE0W1U2FRYG90VV5UBC&a=ZCAR9&tp_a=ZCAR9&b=3RANCT1ZVG3SE0W1U2FRYG90VV5UBC&tp_b=3RANCT1ZVG3SE0W1U2FRYG90VV5UBC&c=365799&tp_c=365799"},{"rt":9239,"response":{"heads":"4","tails":"1"},"type":"response","condition":"nonSeqPartial","trueTheta":0.8,"classrooms":["C","D"],"studentTrueClassroom":"D","exampleSet":"first","trial_type":"survey-html-form","trial_index":75,"time_elapsed":690570,"internal_node_id":"0.0-72.0-0.0","params":{"nStudents":24,"maxFlips":30,"completionMinutes":45,"basePay":8,"maxBonus":9,"perTrialBonus":0.5,"perTrialBonusThreshold":0.05,"exampleCost":0.01},"classroomParams":{"A":{"a":1,"b":4},"B":{"a":4,"b":1},"C":{"a":2,"b":8},"D":{"a":8,"b":2}},"conditions":["nonSeqFull","nonSeqPartial","seqNoFeedback","seqFeedback"],"classroomPairings":[["A","B"],["C","D"]],"coinWeights":[0.2,0.5,0.8],"subjectId":"A2G43KS55YGYQE","assignmentId":"3RANCT1ZVG3SE0W1U2FRYG90VV5UBC","hitId":"3SD15I2WD2G0NA4TSPXGB81L5S7630","url":"https://gershmanlab.com/experiments/alicia/teaching/experiment/?hitId=3SD15I2WD2G0NA4TSPXGB81L5S7630&workerId=A2G43KS55YGYQE&assignmentId=3RANCT1ZVG3SE0W1U2FRYG90VV5UBC&a=ZCAR9&tp_a=ZCAR9&b=3RANCT1ZVG3SE0W1U2FRYG90VV5UBC&tp_b=3RANCT1ZVG3SE0W1U2FRYG90VV5UBC&c=365799&tp_c=365799","heads":4,"tails":1,"studentIndex":8,"studentTrueHypers":{"a":8,"b":2},"studentGuess":0.8,"delta":0,"totalExamples":5,"bonus":0.45,"bonusSoFar":3.05},{"rt":null,"stimulus":"Sending examples to student... ","response":null,"trial_type":"html-keyboard-response","trial_index":76,"time_elapsed":691833,"internal_node_id":"0.0-73.0","params":{"nStudents":24,"maxFlips":30,"completionMinutes":45,"basePay":8,"maxBonus":9,"perTrialBonus":0.5,"perTrialBonusThreshold":0.05,"exampleCost":0.01},"classroomParams":{"A":{"a":1,"b":4},"B":{"a":4,"b":1},"C":{"a":2,"b":8},"D":{"a":8,"b":2}},"conditions":["nonSeqFull","nonSeqPartial","seqNoFeedback","seqFeedback"],"classroomPairings":[["A","B"],["C","D"]],"coinWeights":[0.2,0.5,0.8],"subjectId":"A2G43KS55YGYQE","assignmentId":"3RANCT1ZVG3SE0W1U2FRYG90VV5UBC","hitId":"3SD15I2WD2G0NA4TSPXGB81L5S7630","url":"https://gershmanlab.com/experiments/alicia/teaching/experiment/?hitId=3SD15I2WD2G0NA4TSPXGB81L5S7630&workerId=A2G43KS55YGYQE&assignmentId=3RANCT1ZVG3SE0W1U2FRYG90VV5UBC&a=ZCAR9&tp_a=ZCAR9&b=3RANCT1ZVG3SE0W1U2FRYG90VV5UBC&tp_b=3RANCT1ZVG3SE0W1U2FRYG90VV5UBC&c=365799&tp_c=365799"},{"rt":null,"stimulus":"Examples sent to student! Waiting for student...","response":null,"trial_type":"html-keyboard-response","trial_index":77,"time_elapsed":696339,"internal_node_id":"0.0-74.0","params":{"nStudents":24,"maxFlips":30,"completionMinutes":45,"basePay":8,"maxBonus":9,"perTrialBonus":0.5,"perTrialBonusThreshold":0.05,"exampleCost":0.01},"classroomParams":{"A":{"a":1,"b":4},"B":{"a":4,"b":1},"C":{"a":2,"b":8},"D":{"a":8,"b":2}},"conditions":["nonSeqFull","nonSeqPartial","seqNoFeedback","seqFeedback"],"classroomPairings":[["A","B"],["C","D"]],"coinWeights":[0.2,0.5,0.8],"subjectId":"A2G43KS55YGYQE","assignmentId":"3RANCT1ZVG3SE0W1U2FRYG90VV5UBC","hitId":"3SD15I2WD2G0NA4TSPXGB81L5S7630","url":"https://gershmanlab.com/experiments/alicia/teaching/experiment/?hitId=3SD15I2WD2G0NA4TSPXGB81L5S7630&workerId=A2G43KS55YGYQE&assignmentId=3RANCT1ZVG3SE0W1U2FRYG90VV5UBC&a=ZCAR9&tp_a=ZCAR9&b=3RANCT1ZVG3SE0W1U2FRYG90VV5UBC&tp_b=3RANCT1ZVG3SE0W1U2FRYG90VV5UBC&c=365799&tp_c=365799"},{"rt":3296,"stimulus":"\n                <p>Student's guess for coin weight: <b style=\"color:Tomato;\">0.80</b></p>\n                <p>You received a bonus of <b>$0.45</b>. Total bonus so far: <b>$3.05</b></b></p>\n                <p></p>\n                <p>Press any key to continue.</p>\n                ","response":" ","trial_type":"html-keyboard-response","trial_index":78,"time_elapsed":699635,"internal_node_id":"0.0-75.0","params":{"nStudents":24,"maxFlips":30,"completionMinutes":45,"basePay":8,"maxBonus":9,"perTrialBonus":0.5,"perTrialBonusThreshold":0.05,"exampleCost":0.01},"classroomParams":{"A":{"a":1,"b":4},"B":{"a":4,"b":1},"C":{"a":2,"b":8},"D":{"a":8,"b":2}},"conditions":["nonSeqFull","nonSeqPartial","seqNoFeedback","seqFeedback"],"classroomPairings":[["A","B"],["C","D"]],"coinWeights":[0.2,0.5,0.8],"subjectId":"A2G43KS55YGYQE","assignmentId":"3RANCT1ZVG3SE0W1U2FRYG90VV5UBC","hitId":"3SD15I2WD2G0NA4TSPXGB81L5S7630","url":"https://gershmanlab.com/experiments/alicia/teaching/experiment/?hitId=3SD15I2WD2G0NA4TSPXGB81L5S7630&workerId=A2G43KS55YGYQE&assignmentId=3RANCT1ZVG3SE0W1U2FRYG90VV5UBC&a=ZCAR9&tp_a=ZCAR9&b=3RANCT1ZVG3SE0W1U2FRYG90VV5UBC&tp_b=3RANCT1ZVG3SE0W1U2FRYG90VV5UBC&c=365799&tp_c=365799"},{"rt":null,"stimulus":"<div style=\"font-size:60px;\">Next student</div>","response":null,"trial_type":"html-keyboard-response","trial_index":79,"time_elapsed":701891,"internal_node_id":"0.0-76.0-0.0","params":{"nStudents":24,"maxFlips":30,"completionMinutes":45,"basePay":8,"maxBonus":9,"perTrialBonus":0.5,"perTrialBonusThreshold":0.05,"exampleCost":0.01},"classroomParams":{"A":{"a":1,"b":4},"B":{"a":4,"b":1},"C":{"a":2,"b":8},"D":{"a":8,"b":2}},"conditions":["nonSeqFull","nonSeqPartial","seqNoFeedback","seqFeedback"],"classroomPairings":[["A","B"],["C","D"]],"coinWeights":[0.2,0.5,0.8],"subjectId":"A2G43KS55YGYQE","assignmentId":"3RANCT1ZVG3SE0W1U2FRYG90VV5UBC","hitId":"3SD15I2WD2G0NA4TSPXGB81L5S7630","url":"https://gershmanlab.com/experiments/alicia/teaching/experiment/?hitId=3SD15I2WD2G0NA4TSPXGB81L5S7630&workerId=A2G43KS55YGYQE&assignmentId=3RANCT1ZVG3SE0W1U2FRYG90VV5UBC&a=ZCAR9&tp_a=ZCAR9&b=3RANCT1ZVG3SE0W1U2FRYG90VV5UBC&tp_b=3RANCT1ZVG3SE0W1U2FRYG90VV5UBC&c=365799&tp_c=365799"},{"rt":2460,"stimulus":"\n            <h4 style=\"color:Orange;\">Student 10</h4>\n            <h2>The weight of your coin is <b style=\"color:Tomato;\">0.2</b>.</h2>\n            <p>In this block, you will be giving <b>one</b> set of examples to Student 10.</p>\n                <p>You will receive feedback at the end of the block.</p>\n            <p></p>","response":0,"trial_type":"html-button-response","trial_index":80,"time_elapsed":704353,"internal_node_id":"0.0-77.0","params":{"nStudents":24,"maxFlips":30,"completionMinutes":45,"basePay":8,"maxBonus":9,"perTrialBonus":0.5,"perTrialBonusThreshold":0.05,"exampleCost":0.01},"classroomParams":{"A":{"a":1,"b":4},"B":{"a":4,"b":1},"C":{"a":2,"b":8},"D":{"a":8,"b":2}},"conditions":["nonSeqFull","nonSeqPartial","seqNoFeedback","seqFeedback"],"classroomPairings":[["A","B"],["C","D"]],"coinWeights":[0.2,0.5,0.8],"subjectId":"A2G43KS55YGYQE","assignmentId":"3RANCT1ZVG3SE0W1U2FRYG90VV5UBC","hitId":"3SD15I2WD2G0NA4TSPXGB81L5S7630","url":"https://gershmanlab.com/experiments/alicia/teaching/experiment/?hitId=3SD15I2WD2G0NA4TSPXGB81L5S7630&workerId=A2G43KS55YGYQE&assignmentId=3RANCT1ZVG3SE0W1U2FRYG90VV5UBC&a=ZCAR9&tp_a=ZCAR9&b=3RANCT1ZVG3SE0W1U2FRYG90VV5UBC&tp_b=3RANCT1ZVG3SE0W1U2FRYG90VV5UBC&c=365799&tp_c=365799"},{"rt":30036,"response":{"heads":"1","tails":"4"},"type":"response","condition":"nonSeqFull","trueTheta":0.2,"classrooms":["C","D"],"studentTrueClassroom":"C","exampleSet":"first","trial_type":"survey-html-form","trial_index":81,"time_elapsed":734390,"internal_node_id":"0.0-78.0-0.0","params":{"nStudents":24,"maxFlips":30,"completionMinutes":45,"basePay":8,"maxBonus":9,"perTrialBonus":0.5,"perTrialBonusThreshold":0.05,"exampleCost":0.01},"classroomParams":{"A":{"a":1,"b":4},"B":{"a":4,"b":1},"C":{"a":2,"b":8},"D":{"a":8,"b":2}},"conditions":["nonSeqFull","nonSeqPartial","seqNoFeedback","seqFeedback"],"classroomPairings":[["A","B"],["C","D"]],"coinWeights":[0.2,0.5,0.8],"subjectId":"A2G43KS55YGYQE","assignmentId":"3RANCT1ZVG3SE0W1U2FRYG90VV5UBC","hitId":"3SD15I2WD2G0NA4TSPXGB81L5S7630","url":"https://gershmanlab.com/experiments/alicia/teaching/experiment/?hitId=3SD15I2WD2G0NA4TSPXGB81L5S7630&workerId=A2G43KS55YGYQE&assignmentId=3RANCT1ZVG3SE0W1U2FRYG90VV5UBC&a=ZCAR9&tp_a=ZCAR9&b=3RANCT1ZVG3SE0W1U2FRYG90VV5UBC&tp_b=3RANCT1ZVG3SE0W1U2FRYG90VV5UBC&c=365799&tp_c=365799","heads":1,"tails":4,"studentIndex":9,"studentTrueHypers":{"a":2,"b":8},"studentGuess":0.2,"delta":0,"totalExamples":5,"bonus":0.45,"bonusSoFar":3.5},{"rt":null,"stimulus":"Sending examples to student... ","response":null,"trial_type":"html-keyboard-response","trial_index":82,"time_elapsed":735642,"internal_node_id":"0.0-79.0","params":{"nStudents":24,"maxFlips":30,"completionMinutes":45,"basePay":8,"maxBonus":9,"perTrialBonus":0.5,"perTrialBonusThreshold":0.05,"exampleCost":0.01},"classroomParams":{"A":{"a":1,"b":4},"B":{"a":4,"b":1},"C":{"a":2,"b":8},"D":{"a":8,"b":2}},"conditions":["nonSeqFull","nonSeqPartial","seqNoFeedback","seqFeedback"],"classroomPairings":[["A","B"],["C","D"]],"coinWeights":[0.2,0.5,0.8],"subjectId":"A2G43KS55YGYQE","assignmentId":"3RANCT1ZVG3SE0W1U2FRYG90VV5UBC","hitId":"3SD15I2WD2G0NA4TSPXGB81L5S7630","url":"https://gershmanlab.com/experiments/alicia/teaching/experiment/?hitId=3SD15I2WD2G0NA4TSPXGB81L5S7630&workerId=A2G43KS55YGYQE&assignmentId=3RANCT1ZVG3SE0W1U2FRYG90VV5UBC&a=ZCAR9&tp_a=ZCAR9&b=3RANCT1ZVG3SE0W1U2FRYG90VV5UBC&tp_b=3RANCT1ZVG3SE0W1U2FRYG90VV5UBC&c=365799&tp_c=365799"},{"rt":null,"stimulus":"Examples sent to student! Waiting for student...","response":null,"trial_type":"html-keyboard-response","trial_index":83,"time_elapsed":739650,"internal_node_id":"0.0-80.0","params":{"nStudents":24,"maxFlips":30,"completionMinutes":45,"basePay":8,"maxBonus":9,"perTrialBonus":0.5,"perTrialBonusThreshold":0.05,"exampleCost":0.01},"classroomParams":{"A":{"a":1,"b":4},"B":{"a":4,"b":1},"C":{"a":2,"b":8},"D":{"a":8,"b":2}},"conditions":["nonSeqFull","nonSeqPartial","seqNoFeedback","seqFeedback"],"classroomPairings":[["A","B"],["C","D"]],"coinWeights":[0.2,0.5,0.8],"subjectId":"A2G43KS55YGYQE","assignmentId":"3RANCT1ZVG3SE0W1U2FRYG90VV5UBC","hitId":"3SD15I2WD2G0NA4TSPXGB81L5S7630","url":"https://gershmanlab.com/experiments/alicia/teaching/experiment/?hitId=3SD15I2WD2G0NA4TSPXGB81L5S7630&workerId=A2G43KS55YGYQE&assignmentId=3RANCT1ZVG3SE0W1U2FRYG90VV5UBC&a=ZCAR9&tp_a=ZCAR9&b=3RANCT1ZVG3SE0W1U2FRYG90VV5UBC&tp_b=3RANCT1ZVG3SE0W1U2FRYG90VV5UBC&c=365799&tp_c=365799"},{"rt":2991,"stimulus":"\n                <p>Student's guess for coin weight: <b style=\"color:Tomato;\">0.20</b></p>\n                <p>You received a bonus of <b>$0.45</b>. Total bonus so far: <b>$3.50</b></b></p>\n                <p></p>\n                <p>Press any key to continue.</p>\n                ","response":" ","trial_type":"html-keyboard-response","trial_index":84,"time_elapsed":742642,"internal_node_id":"0.0-81.0","params":{"nStudents":24,"maxFlips":30,"completionMinutes":45,"basePay":8,"maxBonus":9,"perTrialBonus":0.5,"perTrialBonusThreshold":0.05,"exampleCost":0.01},"classroomParams":{"A":{"a":1,"b":4},"B":{"a":4,"b":1},"C":{"a":2,"b":8},"D":{"a":8,"b":2}},"conditions":["nonSeqFull","nonSeqPartial","seqNoFeedback","seqFeedback"],"classroomPairings":[["A","B"],["C","D"]],"coinWeights":[0.2,0.5,0.8],"subjectId":"A2G43KS55YGYQE","assignmentId":"3RANCT1ZVG3SE0W1U2FRYG90VV5UBC","hitId":"3SD15I2WD2G0NA4TSPXGB81L5S7630","url":"https://gershmanlab.com/experiments/alicia/teaching/experiment/?hitId=3SD15I2WD2G0NA4TSPXGB81L5S7630&workerId=A2G43KS55YGYQE&assignmentId=3RANCT1ZVG3SE0W1U2FRYG90VV5UBC&a=ZCAR9&tp_a=ZCAR9&b=3RANCT1ZVG3SE0W1U2FRYG90VV5UBC&tp_b=3RANCT1ZVG3SE0W1U2FRYG90VV5UBC&c=365799&tp_c=365799"},{"rt":null,"stimulus":"<div style=\"font-size:60px;\">Next student</div>","response":null,"trial_type":"html-keyboard-response","trial_index":85,"time_elapsed":744644,"internal_node_id":"0.0-82.0-0.0","params":{"nStudents":24,"maxFlips":30,"completionMinutes":45,"basePay":8,"maxBonus":9,"perTrialBonus":0.5,"perTrialBonusThreshold":0.05,"exampleCost":0.01},"cl