[{"rt":null,"stimulus":"Welcome to the experiment. Press any key to begin.","response":null,"trial_type":"html-keyboard-response","trial_index":0,"time_elapsed":30325,"internal_node_id":"0.0-0.0","params":{"nStudents":24,"maxFlips":30,"completionMinutes":45,"basePay":8,"maxBonus":9,"perTrialBonus":0.5,"perTrialBonusThreshold":0.05,"exampleCost":0.01},"classroomParams":{"A":{"a":1,"b":4},"B":{"a":4,"b":1},"C":{"a":2,"b":8},"D":{"a":8,"b":2}},"conditions":["nonSeqFull","nonSeqPartial","seqNoFeedback","seqFeedback"],"classroomPairings":[["A","B"],["C","D"]],"coinWeights":[0.2,0.5,0.8],"subjectId":"A2GXEIRTHCKDHK","assignmentId":"3K4J6M3CXFF4Q8QE4JQEZQO3455AGX","hitId":"3UDTAB6HH6LRO17U79I9TKUGSHV90J","url":"https://gershmanlab.com/experiments/alicia/teaching/experiment/?hitId=3UDTAB6HH6LRO17U79I9TKUGSHV90J&workerId=A2GXEIRTHCKDHK&assignmentId=3K4J6M3CXFF4Q8QE4JQEZQO3455AGX&a=C64K9&tp_a=C64K9&b=3K4J6M3CXFF4Q8QE4JQEZQO3455AGX&tp_b=3K4J6M3CXFF4Q8QE4JQEZQO3455AGX&c=365799&tp_c=365799"},{"rt":338773,"stimulus":"\n        <h3>Please read this consent agreement carefully before deciding whether to participate in this experiment.</h3>\n        <p><b>Purpose of the research:</b> To examine how people teach effectively.</p>\n        <p><b>What you will do in this research:</b> You will teach students the weights of different coins.</p>\n        <p><b>Time required:</b> This experiment will take 45 minutes to complete.</p>\n        <p><b>Risks:</b> There are no anticipated risks associated with participating in this study.             The effects of participating should be comparable to those you would experience from viewing a computer monitor             and using a mouse and keyboard for the duration of the experiment.</p>\n        <p><b>Benefits:</b> The study provides important information about the nature of teaching.</p>\n        <p><b>Compensation:</b> You will receive <b>$8</b> for completing the experiment and a performance bonus of up to <b>$9</b>.</p>\n        <p><b>Confidentiality:</b> Your participation in this study will remain confidential.             No personally identifiable information will be associated with your data.             Your de-identified data may be shared with other researchers and used in future projects.</p>\n        <p><b>Participation and withdrawal:</b> Your participation in this study is completely voluntary and             you may refuse to participate or you may choose to withdraw at any time without penalty or loss of\n            benefits to which you are otherwise entitled.</p>\n        <p><b>How to contact the researcher:</b> If you have questions or concerns about your participation            or payment, or want to request a summary of research findings, please contact\n            Alicia Chen, aliciachen@college.harvard.edu.</p>\n        <p><b>Whom to contact about your rights in this research:</b> For questions, concerns, suggestions,             or complaints that have not been or cannot be addressed by the researcher, or to report             research-related harm, please contact the Committee on the Use of Human Subjects in Research at Harvard University,             1414 Massachusetts Avenue, Second Floor, Cambridge, MA 02138. Phone: 617-496-2847. Email: cuhs@fas.harvard.edu.</p>\n        ","response":0,"trial_type":"html-button-response","trial_index":1,"time_elapsed":369126,"internal_node_id":"0.0-1.0","params":{"nStudents":24,"maxFlips":30,"completionMinutes":45,"basePay":8,"maxBonus":9,"perTrialBonus":0.5,"perTrialBonusThreshold":0.05,"exampleCost":0.01},"classroomParams":{"A":{"a":1,"b":4},"B":{"a":4,"b":1},"C":{"a":2,"b":8},"D":{"a":8,"b":2}},"conditions":["nonSeqFull","nonSeqPartial","seqNoFeedback","seqFeedback"],"classroomPairings":[["A","B"],["C","D"]],"coinWeights":[0.2,0.5,0.8],"subjectId":"A2GXEIRTHCKDHK","assignmentId":"3K4J6M3CXFF4Q8QE4JQEZQO3455AGX","hitId":"3UDTAB6HH6LRO17U79I9TKUGSHV90J","url":"https://gershmanlab.com/experiments/alicia/teaching/experiment/?hitId=3UDTAB6HH6LRO17U79I9TKUGSHV90J&workerId=A2GXEIRTHCKDHK&assignmentId=3K4J6M3CXFF4Q8QE4JQEZQO3455AGX&a=C64K9&tp_a=C64K9&b=3K4J6M3CXFF4Q8QE4JQEZQO3455AGX&tp_b=3K4J6M3CXFF4Q8QE4JQEZQO3455AGX&c=365799&tp_c=365799"},{"view_history":[{"page_index":0,"viewing_time":2903},{"page_index":1,"viewing_time":59189},{"page_index":2,"viewing_time":35541},{"page_index":3,"viewing_time":22776},{"page_index":4,"viewing_time":27481},{"page_index":5,"viewing_time":20537},{"page_index":6,"viewing_time":26932}],"rt":195360,"trial_type":"instructions","trial_index":2,"time_elapsed":564495,"internal_node_id":"0.0-2.0-0.0","params":{"nStudents":24,"maxFlips":30,"completionMinutes":45,"basePay":8,"maxBonus":9,"perTrialBonus":0.5,"perTrialBonusThreshold":0.05,"exampleCost":0.01},"classroomParams":{"A":{"a":1,"b":4},"B":{"a":4,"b":1},"C":{"a":2,"b":8},"D":{"a":8,"b":2}},"conditions":["nonSeqFull","nonSeqPartial","seqNoFeedback","seqFeedback"],"classroomPairings":[["A","B"],["C","D"]],"coinWeights":[0.2,0.5,0.8],"subjectId":"A2GXEIRTHCKDHK","assignmentId":"3K4J6M3CXFF4Q8QE4JQEZQO3455AGX","hitId":"3UDTAB6HH6LRO17U79I9TKUGSHV90J","url":"https://gershmanlab.com/experiments/alicia/teaching/experiment/?hitId=3UDTAB6HH6LRO17U79I9TKUGSHV90J&workerId=A2GXEIRTHCKDHK&assignmentId=3K4J6M3CXFF4Q8QE4JQEZQO3455AGX&a=C64K9&tp_a=C64K9&b=3K4J6M3CXFF4Q8QE4JQEZQO3455AGX&tp_b=3K4J6M3CXFF4Q8QE4JQEZQO3455AGX&c=365799&tp_c=365799"},{"rt":76586,"response":{"Q0":"Students in different classrooms have seen a different proportion of fair and unfair coins before seeing the examples you select for them.","Q1":"By <b>considering the student's classroom information</b> so that I can teach efficiently and accurately/helpfully at the same time (because each example I give to the student costs money!).","Q2":"The coin lands heads 90% of the time.","Q3":"No, I will teach a <b>new</b> student each time.","Q4":"The students are also on the same alien planet as you, where coins can be unfair.","Q5":"Based on the student's second (and final) guess."},"question_order":[3,1,0,4,5,2],"trial_type":"survey-multi-choice","trial_index":3,"time_elapsed":641097,"internal_node_id":"0.0-2.0-1.0","params":{"nStudents":24,"maxFlips":30,"completionMinutes":45,"basePay":8,"maxBonus":9,"perTrialBonus":0.5,"perTrialBonusThreshold":0.05,"exampleCost":0.01},"classroomParams":{"A":{"a":1,"b":4},"B":{"a":4,"b":1},"C":{"a":2,"b":8},"D":{"a":8,"b":2}},"conditions":["nonSeqFull","nonSeqPartial","seqNoFeedback","seqFeedback"],"classroomPairings":[["A","B"],["C","D"]],"coinWeights":[0.2,0.5,0.8],"subjectId":"A2GXEIRTHCKDHK","assignmentId":"3K4J6M3CXFF4Q8QE4JQEZQO3455AGX","hitId":"3UDTAB6HH6LRO17U79I9TKUGSHV90J","url":"https://gershmanlab.com/experiments/alicia/teaching/experiment/?hitId=3UDTAB6HH6LRO17U79I9TKUGSHV90J&workerId=A2GXEIRTHCKDHK&assignmentId=3K4J6M3CXFF4Q8QE4JQEZQO3455AGX&a=C64K9&tp_a=C64K9&b=3K4J6M3CXFF4Q8QE4JQEZQO3455AGX&tp_b=3K4J6M3CXFF4Q8QE4JQEZQO3455AGX&c=365799&tp_c=365799","pass":false},{"rt":2227,"stimulus":"Oops, you have missed question(s) on the comprehension check! We'll show you the instructions again.","response":0,"trial_type":"html-button-response","trial_index":4,"time_elapsed":643343,"internal_node_id":"0.0-2.0-2.0-0.0","params":{"nStudents":24,"maxFlips":30,"completionMinutes":45,"basePay":8,"maxBonus":9,"perTrialBonus":0.5,"perTrialBonusThreshold":0.05,"exampleCost":0.01},"classroomParams":{"A":{"a":1,"b":4},"B":{"a":4,"b":1},"C":{"a":2,"b":8},"D":{"a":8,"b":2}},"conditions":["nonSeqFull","nonSeqPartial","seqNoFeedback","seqFeedback"],"classroomPairings":[["A","B"],["C","D"]],"coinWeights":[0.2,0.5,0.8],"subjectId":"A2GXEIRTHCKDHK","assignmentId":"3K4J6M3CXFF4Q8QE4JQEZQO3455AGX","hitId":"3UDTAB6HH6LRO17U79I9TKUGSHV90J","url":"https://gershmanlab.com/experiments/alicia/teaching/experiment/?hitId=3UDTAB6HH6LRO17U79I9TKUGSHV90J&workerId=A2GXEIRTHCKDHK&assignmentId=3K4J6M3CXFF4Q8QE4JQEZQO3455AGX&a=C64K9&tp_a=C64K9&b=3K4J6M3CXFF4Q8QE4JQEZQO3455AGX&tp_b=3K4J6M3CXFF4Q8QE4JQEZQO3455AGX&c=365799&tp_c=365799"},{"view_history":[{"page_index":0,"viewing_time":951},{"page_index":1,"viewing_time":360},{"page_index":2,"viewing_time":968},{"page_index":3,"viewing_time":489},{"page_index":4,"viewing_time":784},{"page_index":5,"viewing_time":1120},{"page_index":4,"viewing_time":8761},{"page_index":5,"viewing_time":2168},{"page_index":6,"viewing_time":1736}],"rt":17337,"trial_type":"instructions","trial_index":5,"time_elapsed":660686,"internal_node_id":"0.0-2.1-0.1","params":{"nStudents":24,"maxFlips":30,"completionMinutes":45,"basePay":8,"maxBonus":9,"perTrialBonus":0.5,"perTrialBonusThreshold":0.05,"exampleCost":0.01},"classroomParams":{"A":{"a":1,"b":4},"B":{"a":4,"b":1},"C":{"a":2,"b":8},"D":{"a":8,"b":2}},"conditions":["nonSeqFull","nonSeqPartial","seqNoFeedback","seqFeedback"],"classroomPairings":[["A","B"],["C","D"]],"coinWeights":[0.2,0.5,0.8],"subjectId":"A2GXEIRTHCKDHK","assignmentId":"3K4J6M3CXFF4Q8QE4JQEZQO3455AGX","hitId":"3UDTAB6HH6LRO17U79I9TKUGSHV90J","url":"https://gershmanlab.com/experiments/alicia/teaching/experiment/?hitId=3UDTAB6HH6LRO17U79I9TKUGSHV90J&workerId=A2GXEIRTHCKDHK&assignmentId=3K4J6M3CXFF4Q8QE4JQEZQO3455AGX&a=C64K9&tp_a=C64K9&b=3K4J6M3CXFF4Q8QE4JQEZQO3455AGX&tp_b=3K4J6M3CXFF4Q8QE4JQEZQO3455AGX&c=365799&tp_c=365799"},{"rt":21718,"response":{"Q0":"Students in different classrooms have seen a different proportion of fair and unfair coins before seeing the examples you select for them.","Q1":"By <b>considering the student's classroom information</b> so that I can teach efficiently and accurately/helpfully at the same time (because each example I give to the student costs money!).","Q2":"The coin lands heads 90% of the time.","Q3":"Yes, I might encounter the same student twice.","Q4":"The students are also on the same alien planet as you, where coins can be unfair.","Q5":"Based on the student's second (and final) guess."},"question_order":[3,2,0,5,1,4],"trial_type":"survey-multi-choice","trial_index":6,"time_elapsed":682413,"internal_node_id":"0.0-2.1-1.1","params":{"nStudents":24,"maxFlips":30,"completionMinutes":45,"basePay":8,"maxBonus":9,"perTrialBonus":0.5,"perTrialBonusThreshold":0.05,"exampleCost":0.01},"classroomParams":{"A":{"a":1,"b":4},"B":{"a":4,"b":1},"C":{"a":2,"b":8},"D":{"a":8,"b":2}},"conditions":["nonSeqFull","nonSeqPartial","seqNoFeedback","seqFeedback"],"classroomPairings":[["A","B"],["C","D"]],"coinWeights":[0.2,0.5,0.8],"subjectId":"A2GXEIRTHCKDHK","assignmentId":"3K4J6M3CXFF4Q8QE4JQEZQO3455AGX","hitId":"3UDTAB6HH6LRO17U79I9TKUGSHV90J","url":"https://gershmanlab.com/experiments/alicia/teaching/experiment/?hitId=3UDTAB6HH6LRO17U79I9TKUGSHV90J&workerId=A2GXEIRTHCKDHK&assignmentId=3K4J6M3CXFF4Q8QE4JQEZQO3455AGX&a=C64K9&tp_a=C64K9&b=3K4J6M3CXFF4Q8QE4JQEZQO3455AGX&tp_b=3K4J6M3CXFF4Q8QE4JQEZQO3455AGX&c=365799&tp_c=365799","pass":false},{"rt":1246,"stimulus":"Oops, you have missed question(s) on the comprehension check! We'll show you the instructions again.","response":0,"trial_type":"html-button-response","trial_index":7,"time_elapsed":683671,"internal_node_id":"0.0-2.1-2.1-0.1","params":{"nStudents":24,"maxFlips":30,"completionMinutes":45,"basePay":8,"maxBonus":9,"perTrialBonus":0.5,"perTrialBonusThreshold":0.05,"exampleCost":0.01},"classroomParams":{"A":{"a":1,"b":4},"B":{"a":4,"b":1},"C":{"a":2,"b":8},"D":{"a":8,"b":2}},"conditions":["nonSeqFull","nonSeqPartial","seqNoFeedback","seqFeedback"],"classroomPairings":[["A","B"],["C","D"]],"coinWeights":[0.2,0.5,0.8],"subjectId":"A2GXEIRTHCKDHK","assignmentId":"3K4J6M3CXFF4Q8QE4JQEZQO3455AGX","hitId":"3UDTAB6HH6LRO17U79I9TKUGSHV90J","url":"https://gershmanlab.com/experiments/alicia/teaching/experiment/?hitId=3UDTAB6HH6LRO17U79I9TKUGSHV90J&workerId=A2GXEIRTHCKDHK&assignmentId=3K4J6M3CXFF4Q8QE4JQEZQO3455AGX&a=C64K9&tp_a=C64K9&b=3K4J6M3CXFF4Q8QE4JQEZQO3455AGX&tp_b=3K4J6M3CXFF4Q8QE4JQEZQO3455AGX&c=365799&tp_c=365799"},{"view_history":[{"page_index":0,"viewing_time":596},{"page_index":1,"viewing_time":240},{"page_index":2,"viewing_time":1447},{"page_index":3,"viewing_time":2041},{"page_index":4,"viewing_time":1175},{"page_index":5,"viewing_time":1514},{"page_index":6,"viewing_time":5407}],"rt":12420,"trial_type":"instructions","trial_index":8,"time_elapsed":696094,"internal_node_id":"0.0-2.2-0.2","params":{"nStudents":24,"maxFlips":30,"completionMinutes":45,"basePay":8,"maxBonus":9,"perTrialBonus":0.5,"perTrialBonusThreshold":0.05,"exampleCost":0.01},"classroomParams":{"A":{"a":1,"b":4},"B":{"a":4,"b":1},"C":{"a":2,"b":8},"D":{"a":8,"b":2}},"conditions":["nonSeqFull","nonSeqPartial","seqNoFeedback","seqFeedback"],"classroomPairings":[["A","B"],["C","D"]],"coinWeights":[0.2,0.5,0.8],"subjectId":"A2GXEIRTHCKDHK","assignmentId":"3K4J6M3CXFF4Q8QE4JQEZQO3455AGX","hitId":"3UDTAB6HH6LRO17U79I9TKUGSHV90J","url":"https://gershmanlab.com/experiments/alicia/teaching/experiment/?hitId=3UDTAB6HH6LRO17U79I9TKUGSHV90J&workerId=A2GXEIRTHCKDHK&assignmentId=3K4J6M3CXFF4Q8QE4JQEZQO3455AGX&a=C64K9&tp_a=C64K9&b=3K4J6M3CXFF4Q8QE4JQEZQO3455AGX&tp_b=3K4J6M3CXFF4Q8QE4JQEZQO3455AGX&c=365799&tp_c=365799"},{"rt":19878,"response":{"Q0":"Students in different classrooms have seen a different proportion of fair and unfair coins before seeing the examples you select for them.","Q1":"By <b>considering the student's classroom information</b> so that I can teach efficiently and accurately/helpfully at the same time (because each example I give to the student costs money!).","Q2":"The coin lands heads 90% of the time.","Q3":"Yes, I might encounter the same student twice.","Q4":"The students are also on the same alien planet as you, where coins can be unfair.","Q5":"Based on both guesses."},"question_order":[5,0,2,4,3,1],"trial_type":"survey-multi-choice","trial_index":9,"time_elapsed":715978,"internal_node_id":"0.0-2.2-1.2","params":{"nStudents":24,"maxFlips":30,"completionMinutes":45,"basePay":8,"maxBonus":9,"perTrialBonus":0.5,"perTrialBonusThreshold":0.05,"exampleCost":0.01},"classroomParams":{"A":{"a":1,"b":4},"B":{"a":4,"b":1},"C":{"a":2,"b":8},"D":{"a":8,"b":2}},"conditions":["nonSeqFull","nonSeqPartial","seqNoFeedback","seqFeedback"],"classroomPairings":[["A","B"],["C","D"]],"coinWeights":[0.2,0.5,0.8],"subjectId":"A2GXEIRTHCKDHK","assignmentId":"3K4J6M3CXFF4Q8QE4JQEZQO3455AGX","hitId":"3UDTAB6HH6LRO17U79I9TKUGSHV90J","url":"https://gershmanlab.com/experiments/alicia/teaching/experiment/?hitId=3UDTAB6HH6LRO17U79I9TKUGSHV90J&workerId=A2GXEIRTHCKDHK&assignmentId=3K4J6M3CXFF4Q8QE4JQEZQO3455AGX&a=C64K9&tp_a=C64K9&b=3K4J6M3CXFF4Q8QE4JQEZQO3455AGX&tp_b=3K4J6M3CXFF4Q8QE4JQEZQO3455AGX&c=365799&tp_c=365799","pass":false},{"rt":1278,"stimulus":"Oops, you have missed question(s) on the comprehension check! We'll show you the instructions again.","response":0,"trial_type":"html-button-response","trial_index":10,"time_elapsed":717271,"internal_node_id":"0.0-2.2-2.2-0.2","params":{"nStudents":24,"maxFlips":30,"completionMinutes":45,"basePay":8,"maxBonus":9,"perTrialBonus":0.5,"perTrialBonusThreshold":0.05,"exampleCost":0.01},"classroomParams":{"A":{"a":1,"b":4},"B":{"a":4,"b":1},"C":{"a":2,"b":8},"D":{"a":8,"b":2}},"conditions":["nonSeqFull","nonSeqPartial","seqNoFeedback","seqFeedback"],"classroomPairings":[["A","B"],["C","D"]],"coinWeights":[0.2,0.5,0.8],"subjectId":"A2GXEIRTHCKDHK","assignmentId":"3K4J6M3CXFF4Q8QE4JQEZQO3455AGX","hitId":"3UDTAB6HH6LRO17U79I9TKUGSHV90J","url":"https://gershmanlab.com/experiments/alicia/teaching/experiment/?hitId=3UDTAB6HH6LRO17U79I9TKUGSHV90J&workerId=A2GXEIRTHCKDHK&assignmentId=3K4J6M3CXFF4Q8QE4JQEZQO3455AGX&a=C64K9&tp_a=C64K9&b=3K4J6M3CXFF4Q8QE4JQEZQO3455AGX&tp_b=3K4J6M3CXFF4Q8QE4JQEZQO3455AGX&c=365799&tp_c=365799"},{"view_history":[{"page_index":0,"viewing_time":885},{"page_index":1,"viewing_time":920},{"page_index":2,"viewing_time":15792},{"page_index":3,"viewing_time":4169},{"page_index":4,"viewing_time":5392},{"page_index":5,"viewing_time":8153},{"page_index":6,"viewing_time":11183}],"rt":46496,"trial_type":"instructions","trial_index":11,"time_elapsed":763768,"internal_node_id":"0.0-2.3-0.3","params":{"nStudents":24,"maxFlips":30,"completionMinutes":45,"basePay":8,"maxBonus":9,"perTrialBonus":0.5,"perTrialBonusThreshold":0.05,"exampleCost":0.01},"classroomParams":{"A":{"a":1,"b":4},"B":{"a":4,"b":1},"C":{"a":2,"b":8},"D":{"a":8,"b":2}},"conditions":["nonSeqFull","nonSeqPartial","seqNoFeedback","seqFeedback"],"classroomPairings":[["A","B"],["C","D"]],"coinWeights":[0.2,0.5,0.8],"subjectId":"A2GXEIRTHCKDHK","assignmentId":"3K4J6M3CXFF4Q8QE4JQEZQO3455AGX","hitId":"3UDTAB6HH6LRO17U79I9TKUGSHV90J","url":"https://gershmanlab.com/experiments/alicia/teaching/experiment/?hitId=3UDTAB6HH6LRO17U79I9TKUGSHV90J&workerId=A2GXEIRTHCKDHK&assignmentId=3K4J6M3CXFF4Q8QE4JQEZQO3455AGX&a=C64K9&tp_a=C64K9&b=3K4J6M3CXFF4Q8QE4JQEZQO3455AGX&tp_b=3K4J6M3CXFF4Q8QE4JQEZQO3455AGX&c=365799&tp_c=365799"},{"rt":20350,"response":{"Q0":"Students in different classrooms will have seen a different number of heads and tails before seeing the examples you select for them.","Q1":"By <b>considering the student's classroom information</b> so that I can teach efficiently and accurately/helpfully at the same time (because each example I give to the student costs money!).","Q2":"The coin lands heads 90% of the time.","Q3":"Yes, I might encounter the same student twice.","Q4":"The students are also on the same alien planet as you, where coins can be unfair.","Q5":"Based on the student's second (and final) guess."},"question_order":[2,5,1,4,0,3],"trial_type":"survey-multi-choice","trial_index":12,"time_elapsed":784123,"internal_node_id":"0.0-2.3-1.3","params":{"nStudents":24,"maxFlips":30,"completionMinutes":45,"basePay":8,"maxBonus":9,"perTrialBonus":0.5,"perTrialBonusThreshold":0.05,"exampleCost":0.01},"classroomParams":{"A":{"a":1,"b":4},"B":{"a":4,"b":1},"C":{"a":2,"b":8},"D":{"a":8,"b":2}},"conditions":["nonSeqFull","nonSeqPartial","seqNoFeedback","seqFeedback"],"classroomPairings":[["A","B"],["C","D"]],"coinWeights":[0.2,0.5,0.8],"subjectId":"A2GXEIRTHCKDHK","assignmentId":"3K4J6M3CXFF4Q8QE4JQEZQO3455AGX","hitId":"3UDTAB6HH6LRO17U79I9TKUGSHV90J","url":"https://gershmanlab.com/experiments/alicia/teaching/experiment/?hitId=3UDTAB6HH6LRO17U79I9TKUGSHV90J&workerId=A2GXEIRTHCKDHK&assignmentId=3K4J6M3CXFF4Q8QE4JQEZQO3455AGX&a=C64K9&tp_a=C64K9&b=3K4J6M3CXFF4Q8QE4JQEZQO3455AGX&tp_b=3K4J6M3CXFF4Q8QE4JQEZQO3455AGX&c=365799&tp_c=365799","pass":false},{"rt":1242,"stimulus":"Oops, you have missed question(s) on the comprehension check! We'll show you the instructions again.","response":0,"trial_type":"html-button-response","trial_index":13,"time_elapsed":785377,"internal_node_id":"0.0-2.3-2.3-0.3","params":{"nStudents":24,"maxFlips":30,"completionMinutes":45,"basePay":8,"maxBonus":9,"perTrialBonus":0.5,"perTrialBonusThreshold":0.05,"exampleCost":0.01},"classroomParams":{"A":{"a":1,"b":4},"B":{"a":4,"b":1},"C":{"a":2,"b":8},"D":{"a":8,"b":2}},"conditions":["nonSeqFull","nonSeqPartial","seqNoFeedback","seqFeedback"],"classroomPairings":[["A","B"],["C","D"]],"coinWeights":[0.2,0.5,0.8],"subjectId":"A2GXEIRTHCKDHK","assignmentId":"3K4J6M3CXFF4Q8QE4JQEZQO3455AGX","hitId":"3UDTAB6HH6LRO17U79I9TKUGSHV90J","url":"https://gershmanlab.com/experiments/alicia/teaching/experiment/?hitId=3UDTAB6HH6LRO17U79I9TKUGSHV90J&workerId=A2GXEIRTHCKDHK&assignmentId=3K4J6M3CXFF4Q8QE4JQEZQO3455AGX&a=C64K9&tp_a=C64K9&b=3K4J6M3CXFF4Q8QE4JQEZQO3455AGX&tp_b=3K4J6M3CXFF4Q8QE4JQEZQO3455AGX&c=365799&tp_c=365799"},{"view_history":[{"page_index":0,"viewing_time":877},{"page_index":1,"viewing_time":191},{"page_index":2,"viewing_time":961},{"page_index":3,"viewing_time":616},{"page_index":4,"viewing_time":632},{"page_index":5,"viewing_time":1136},{"page_index":6,"viewing_time":1584}],"rt":5997,"trial_type":"instructions","trial_index":14,"time_elapsed":791376,"internal_node_id":"0.0-2.4-0.4","params":{"nStudents":24,"maxFlips":30,"completionMinutes":45,"basePay":8,"maxBonus":9,"perTrialBonus":0.5,"perTrialBonusThreshold":0.05,"exampleCost":0.01},"classroomParams":{"A":{"a":1,"b":4},"B":{"a":4,"b":1},"C":{"a":2,"b":8},"D":{"a":8,"b":2}},"conditions":["nonSeqFull","nonSeqPartial","seqNoFeedback","seqFeedback"],"classroomPairings":[["A","B"],["C","D"]],"coinWeights":[0.2,0.5,0.8],"subjectId":"A2GXEIRTHCKDHK","assignmentId":"3K4J6M3CXFF4Q8QE4JQEZQO3455AGX","hitId":"3UDTAB6HH6LRO17U79I9TKUGSHV90J","url":"https://gershmanlab.com/experiments/alicia/teaching/experiment/?hitId=3UDTAB6HH6LRO17U79I9TKUGSHV90J&workerId=A2GXEIRTHCKDHK&assignmentId=3K4J6M3CXFF4Q8QE4JQEZQO3455AGX&a=C64K9&tp_a=C64K9&b=3K4J6M3CXFF4Q8QE4JQEZQO3455AGX&tp_b=3K4J6M3CXFF4Q8QE4JQEZQO3455AGX&c=365799&tp_c=365799"},{"rt":14548,"response":{"Q0":"Students in different classrooms will have seen a different number of heads and tails before seeing the examples you select for them.","Q1":"By <b>considering the student's classroom information</b> so that I can teach efficiently and accurately/helpfully at the same time (because each example I give to the student costs money!).","Q2":"The coin lands heads 90% of the time.","Q3":"Yes, I might encounter the same student twice.","Q4":"The students are also on the same alien planet as you, where coins can be unfair.","Q5":"Based on the student's second (and final) guess."},"question_order":[5,4,3,1,0,2],"trial_type":"survey-multi-choice","trial_index":15,"time_elapsed":805931,"internal_node_id":"0.0-2.4-1.4","params":{"nStudents":24,"maxFlips":30,"completionMinutes":45,"basePay":8,"maxBonus":9,"perTrialBonus":0.5,"perTrialBonusThreshold":0.05,"exampleCost":0.01},"classroomParams":{"A":{"a":1,"b":4},"B":{"a":4,"b":1},"C":{"a":2,"b":8},"D":{"a":8,"b":2}},"conditions":["nonSeqFull","nonSeqPartial","seqNoFeedback","seqFeedback"],"classroomPairings":[["A","B"],["C","D"]],"coinWeights":[0.2,0.5,0.8],"subjectId":"A2GXEIRTHCKDHK","assignmentId":"3K4J6M3CXFF4Q8QE4JQEZQO3455AGX","hitId":"3UDTAB6HH6LRO17U79I9TKUGSHV90J","url":"https://gershmanlab.com/experiments/alicia/teaching/experiment/?hitId=3UDTAB6HH6LRO17U79I9TKUGSHV90J&workerId=A2GXEIRTHCKDHK&assignmentId=3K4J6M3CXFF4Q8QE4JQEZQO3455AGX&a=C64K9&tp_a=C64K9&b=3K4J6M3CXFF4Q8QE4JQEZQO3455AGX&tp_b=3K4J6M3CXFF4Q8QE4JQEZQO3455AGX&c=365799&tp_c=365799","pass":false},{"rt":1304,"stimulus":"Oops, you have missed question(s) on the comprehension check! We'll show you the instructions again.","response":0,"trial_type":"html-button-response","trial_index":16,"time_elapsed":807249,"internal_node_id":"0.0-2.4-2.4-0.4","params":{"nStudents":24,"maxFlips":30,"completionMinutes":45,"basePay":8,"maxBonus":9,"perTrialBonus":0.5,"perTrialBonusThreshold":0.05,"exampleCost":0.01},"classroomParams":{"A":{"a":1,"b":4},"B":{"a":4,"b":1},"C":{"a":2,"b":8},"D":{"a":8,"b":2}},"conditions":["nonSeqFull","nonSeqPartial","seqNoFeedback","seqFeedback"],"classroomPairings":[["A","B"],["C","D"]],"coinWeights":[0.2,0.5,0.8],"subjectId":"A2GXEIRTHCKDHK","assignmentId":"3K4J6M3CXFF4Q8QE4JQEZQO3455AGX","hitId":"3UDTAB6HH6LRO17U79I9TKUGSHV90J","url":"https://gershmanlab.com/experiments/alicia/teaching/experiment/?hitId=3UDTAB6HH6LRO17U79I9TKUGSHV90J&workerId=A2GXEIRTHCKDHK&assignmentId=3K4J6M3CXFF4Q8QE4JQEZQO3455AGX&a=C64K9&tp_a=C64K9&b=3K4J6M3CXFF4Q8QE4JQEZQO3455AGX&tp_b=3K4J6M3CXFF4Q8QE4JQEZQO3455AGX&c=365799&tp_c=365799"},{"view_history":[{"page_index":0,"viewing_time":6366},{"page_index":1,"viewing_time":1247},{"page_index":2,"viewing_time":12401},{"page_index":3,"viewing_time":8969},{"page_index":4,"viewing_time":6967},{"page_index":5,"viewing_time":920},{"page_index":6,"viewing_time":929}],"rt":37800,"trial_type":"instructions","trial_index":17,"time_elapsed":845051,"internal_node_id":"0.0-2.5-0.5","params":{"nStudents":24,"maxFlips":30,"completionMinutes":45,"basePay":8,"maxBonus":9,"perTrialBonus":0.5,"perTrialBonusThreshold":0.05,"exampleCost":0.01},"classroomParams":{"A":{"a":1,"b":4},"B":{"a":4,"b":1},"C":{"a":2,"b":8},"D":{"a":8,"b":2}},"conditions":["nonSeqFull","nonSeqPartial","seqNoFeedback","seqFeedback"],"classroomPairings":[["A","B"],["C","D"]],"coinWeights":[0.2,0.5,0.8],"subjectId":"A2GXEIRTHCKDHK","assignmentId":"3K4J6M3CXFF4Q8QE4JQEZQO3455AGX","hitId":"3UDTAB6HH6LRO17U79I9TKUGSHV90J","url":"https://gershmanlab.com/experiments/alicia/teaching/experiment/?hitId=3UDTAB6HH6LRO17U79I9TKUGSHV90J&workerId=A2GXEIRTHCKDHK&assignmentId=3K4J6M3CXFF4Q8QE4JQEZQO3455AGX&a=C64K9&tp_a=C64K9&b=3K4J6M3CXFF4Q8QE4JQEZQO3455AGX&tp_b=3K4J6M3CXFF4Q8QE4JQEZQO3455AGX&c=365799&tp_c=365799"},{"rt":22788,"response":{"Q0":"Students in different classrooms will have seen a different number of heads and tails before seeing the examples you select for them.","Q1":"By <b>considering the student's classroom information</b> so that I can teach efficiently and accurately/helpfully at the same time (because each example I give to the student costs money!).","Q2":"The coin lands heads 90% of the time.","Q3":"No, I will teach a <b>new</b> student each time.","Q4":"The students are also on the same alien planet as you, where coins can be unfair.","Q5":"Based on the student's second (and final) guess."},"question_order":[2,0,4,1,3,5],"trial_type":"survey-multi-choice","trial_index":18,"time_elapsed":867846,"internal_node_id":"0.0-2.5-1.5","params":{"nStudents":24,"maxFlips":30,"completionMinutes":45,"basePay":8,"maxBonus":9,"perTrialBonus":0.5,"perTrialBonusThreshold":0.05,"exampleCost":0.01},"classroomParams":{"A":{"a":1,"b":4},"B":{"a":4,"b":1},"C":{"a":2,"b":8},"D":{"a":8,"b":2}},"conditions":["nonSeqFull","nonSeqPartial","seqNoFeedback","seqFeedback"],"classroomPairings":[["A","B"],["C","D"]],"coinWeights":[0.2,0.5,0.8],"subjectId":"A2GXEIRTHCKDHK","assignmentId":"3K4J6M3CXFF4Q8QE4JQEZQO3455AGX","hitId":"3UDTAB6HH6LRO17U79I9TKUGSHV90J","url":"https://gershmanlab.com/experiments/alicia/teaching/experiment/?hitId=3UDTAB6HH6LRO17U79I9TKUGSHV90J&workerId=A2GXEIRTHCKDHK&assignmentId=3K4J6M3CXFF4Q8QE4JQEZQO3455AGX&a=C64K9&tp_a=C64K9&b=3K4J6M3CXFF4Q8QE4JQEZQO3455AGX&tp_b=3K4J6M3CXFF4Q8QE4JQEZQO3455AGX&c=365799&tp_c=365799","pass":true},{"rt":null,"stimulus":"<div style=\"font-size:30px;\">Congrats on passing the comprehension quiz! The experiment will begin in a few seconds.</div>","response":null,"trial_type":"html-keyboard-response","trial_index":19,"time_elapsed":870859,"internal_node_id":"0.0-3.0","params":{"nStudents":24,"maxFlips":30,"completionMinutes":45,"basePay":8,"maxBonus":9,"perTrialBonus":0.5,"perTrialBonusThreshold":0.05,"exampleCost":0.01},"classroomParams":{"A":{"a":1,"b":4},"B":{"a":4,"b":1},"C":{"a":2,"b":8},"D":{"a":8,"b":2}},"conditions":["nonSeqFull","nonSeqPartial","seqNoFeedback","seqFeedback"],"classroomPairings":[["A","B"],["C","D"]],"coinWeights":[0.2,0.5,0.8],"subjectId":"A2GXEIRTHCKDHK","assignmentId":"3K4J6M3CXFF4Q8QE4JQEZQO3455AGX","hitId":"3UDTAB6HH6LRO17U79I9TKUGSHV90J","url":"https://gershmanlab.com/experiments/alicia/teaching/experiment/?hitId=3UDTAB6HH6LRO17U79I9TKUGSHV90J&workerId=A2GXEIRTHCKDHK&assignmentId=3K4J6M3CXFF4Q8QE4JQEZQO3455AGX&a=C64K9&tp_a=C64K9&b=3K4J6M3CXFF4Q8QE4JQEZQO3455AGX&tp_b=3K4J6M3CXFF4Q8QE4JQEZQO3455AGX&c=365799&tp_c=365799"},{"rt":null,"stimulus":"<div style=\"font-size:50px;\">First student</div>","response":null,"trial_type":"html-keyboard-response","trial_index":20,"time_elapsed":873873,"internal_node_id":"0.0-4.0","params":{"nStudents":24,"maxFlips":30,"completionMinutes":45,"basePay":8,"maxBonus":9,"perTrialBonus":0.5,"perTrialBonusThreshold":0.05,"exampleCost":0.01},"classroomParams":{"A":{"a":1,"b":4},"B":{"a":4,"b":1},"C":{"a":2,"b":8},"D":{"a":8,"b":2}},"conditions":["nonSeqFull","nonSeqPartial","seqNoFeedback","seqFeedback"],"classroomPairings":[["A","B"],["C","D"]],"coinWeights":[0.2,0.5,0.8],"subjectId":"A2GXEIRTHCKDHK","assignmentId":"3K4J6M3CXFF4Q8QE4JQEZQO3455AGX","hitId":"3UDTAB6HH6LRO17U79I9TKUGSHV90J","url":"https://gershmanlab.com/experiments/alicia/teaching/experiment/?hitId=3UDTAB6HH6LRO17U79I9TKUGSHV90J&workerId=A2GXEIRTHCKDHK&assignmentId=3K4J6M3CXFF4Q8QE4JQEZQO3455AGX&a=C64K9&tp_a=C64K9&b=3K4J6M3CXFF4Q8QE4JQEZQO3455AGX&tp_b=3K4J6M3CXFF4Q8QE4JQEZQO3455AGX&c=365799&tp_c=365799"},{"rt":3310,"stimulus":"\n            <h4 style=\"color:Orange;\">Student 1</h4>\n            <h2>The weight of your coin is <b style=\"color:Tomato;\">0.8</b>.</h2>\n            <p>In this block, you will be giving <b>two</b> sets of examples to Student 1.</p>\n                <p>You will receive feedback at the end of the block.</p>\n            <p></p>","response":0,"trial_type":"html-button-response","trial_index":21,"time_elapsed":877189,"internal_node_id":"0.0-5.0","params":{"nStudents":24,"maxFlips":30,"completionMinutes":45,"basePay":8,"maxBonus":9,"perTrialBonus":0.5,"perTrialBonusThreshold":0.05,"exampleCost":0.01},"classroomParams":{"A":{"a":1,"b":4},"B":{"a":4,"b":1},"C":{"a":2,"b":8},"D":{"a":8,"b":2}},"conditions":["nonSeqFull","nonSeqPartial","seqNoFeedback","seqFeedback"],"classroomPairings":[["A","B"],["C","D"]],"coinWeights":[0.2,0.5,0.8],"subjectId":"A2GXEIRTHCKDHK","assignmentId":"3K4J6M3CXFF4Q8QE4JQEZQO3455AGX","hitId":"3UDTAB6HH6LRO17U79I9TKUGSHV90J","url":"https://gershmanlab.com/experiments/alicia/teaching/experiment/?hitId=3UDTAB6HH6LRO17U79I9TKUGSHV90J&workerId=A2GXEIRTHCKDHK&assignmentId=3K4J6M3CXFF4Q8QE4JQEZQO3455AGX&a=C64K9&tp_a=C64K9&b=3K4J6M3CXFF4Q8QE4JQEZQO3455AGX&tp_b=3K4J6M3CXFF4Q8QE4JQEZQO3455AGX&c=365799&tp_c=365799"},{"rt":14223,"response":{"heads":"4","tails":"1"},"type":"response","condition":"seqNoFeedback","trueTheta":0.8,"classrooms":["C","D"],"studentTrueClassroom":"C","exampleSet":"first","trial_type":"survey-html-form","trial_index":22,"time_elapsed":891418,"internal_node_id":"0.0-6.0-0.0","params":{"nStudents":24,"maxFlips":30,"completionMinutes":45,"basePay":8,"maxBonus":9,"perTrialBonus":0.5,"perTrialBonusThreshold":0.05,"exampleCost":0.01},"classroomParams":{"A":{"a":1,"b":4},"B":{"a":4,"b":1},"C":{"a":2,"b":8},"D":{"a":8,"b":2}},"conditions":["nonSeqFull","nonSeqPartial","seqNoFeedback","seqFeedback"],"classroomPairings":[["A","B"],["C","D"]],"coinWeights":[0.2,0.5,0.8],"subjectId":"A2GXEIRTHCKDHK","assignmentId":"3K4J6M3CXFF4Q8QE4JQEZQO3455AGX","hitId":"3UDTAB6HH6LRO17U79I9TKUGSHV90J","url":"https://gershmanlab.com/experiments/alicia/teaching/experiment/?hitId=3UDTAB6HH6LRO17U79I9TKUGSHV90J&workerId=A2GXEIRTHCKDHK&assignmentId=3K4J6M3CXFF4Q8QE4JQEZQO3455AGX&a=C64K9&tp_a=C64K9&b=3K4J6M3CXFF4Q8QE4JQEZQO3455AGX&tp_b=3K4J6M3CXFF4Q8QE4JQEZQO3455AGX&c=365799&tp_c=365799","heads":4,"tails":1,"studentIndex":0,"studentTrueHypers":{"a":2,"b":8},"studentGuess":0.4,"delta":0.4,"totalExamples":5,"bonusSoFar":0},{"rt":null,"stimulus":"Sending examples to student... ","response":null,"trial_type":"html-keyboard-response","trial_index":23,"time_elapsed":892685,"internal_node_id":"0.0-7.0","params":{"nStudents":24,"maxFlips":30,"completionMinutes":45,"basePay":8,"maxBonus":9,"perTrialBonus":0.5,"perTrialBonusThreshold":0.05,"exampleCost":0.01},"classroomParams":{"A":{"a":1,"b":4},"B":{"a":4,"b":1},"C":{"a":2,"b":8},"D":{"a":8,"b":2}},"conditions":["nonSeqFull","nonSeqPartial","seqNoFeedback","seqFeedback"],"classroomPairings":[["A","B"],["C","D"]],"coinWeights":[0.2,0.5,0.8],"subjectId":"A2GXEIRTHCKDHK","assignmentId":"3K4J6M3CXFF4Q8QE4JQEZQO3455AGX","hitId":"3UDTAB6HH6LRO17U79I9TKUGSHV90J","url":"https://gershmanlab.com/experiments/alicia/teaching/experiment/?hitId=3UDTAB6HH6LRO17U79I9TKUGSHV90J&workerId=A2GXEIRTHCKDHK&assignmentId=3K4J6M3CXFF4Q8QE4JQEZQO3455AGX&a=C64K9&tp_a=C64K9&b=3K4J6M3CXFF4Q8QE4JQEZQO3455AGX&tp_b=3K4J6M3CXFF4Q8QE4JQEZQO3455AGX&c=365799&tp_c=365799"},{"rt":null,"stimulus":"Examples sent to student! Waiting for student...","response":null,"trial_type":"html-keyboard-response","trial_index":24,"time_elapsed":896702,"internal_node_id":"0.0-8.0","params":{"nStudents":24,"maxFlips":30,"completionMinutes":45,"basePay":8,"maxBonus":9,"perTrialBonus":0.5,"perTrialBonusThreshold":0.05,"exampleCost":0.01},"classroomParams":{"A":{"a":1,"b":4},"B":{"a":4,"b":1},"C":{"a":2,"b":8},"D":{"a":8,"b":2}},"conditions":["nonSeqFull","nonSeqPartial","seqNoFeedback","seqFeedback"],"classroomPairings":[["A","B"],["C","D"]],"coinWeights":[0.2,0.5,0.8],"subjectId":"A2GXEIRTHCKDHK","assignmentId":"3K4J6M3CXFF4Q8QE4JQEZQO3455AGX","hitId":"3UDTAB6HH6LRO17U79I9TKUGSHV90J","url":"https://gershmanlab.com/experiments/alicia/teaching/experiment/?hitId=3UDTAB6HH6LRO17U79I9TKUGSHV90J&workerId=A2GXEIRTHCKDHK&assignmentId=3K4J6M3CXFF4Q8QE4JQEZQO3455AGX&a=C64K9&tp_a=C64K9&b=3K4J6M3CXFF4Q8QE4JQEZQO3455AGX&tp_b=3K4J6M3CXFF4Q8QE4JQEZQO3455AGX&c=365799&tp_c=365799"},{"rt":15616,"response":{"heads":"8","tails":"2"},"type":"response","condition":"seqNoFeedback","trueTheta":0.8,"classrooms":["C","D"],"studentTrueClassroom":"C","exampleSet":"second","trial_type":"survey-html-form","trial_index":25,"time_elapsed":912326,"internal_node_id":"0.0-9.0-0.0","params":{"nStudents":24,"maxFlips":30,"completionMinutes":45,"basePay":8,"maxBonus":9,"perTrialBonus":0.5,"perTrialBonusThreshold":0.05,"exampleCost":0.01},"classroomParams":{"A":{"a":1,"b":4},"B":{"a":4,"b":1},"C":{"a":2,"b":8},"D":{"a":8,"b":2}},"conditions":["nonSeqFull","nonSeqPartial","seqNoFeedback","seqFeedback"],"classroomPairings":[["A","B"],["C","D"]],"coinWeights":[0.2,0.5,0.8],"subjectId":"A2GXEIRTHCKDHK","assignmentId":"3K4J6M3CXFF4Q8QE4JQEZQO3455AGX","hitId":"3UDTAB6HH6LRO17U79I9TKUGSHV90J","url":"https://gershmanlab.com/experiments/alicia/teaching/experiment/?hitId=3UDTAB6HH6LRO17U79I9TKUGSHV90J&workerId=A2GXEIRTHCKDHK&assignmentId=3K4J6M3CXFF4Q8QE4JQEZQO3455AGX&a=C64K9&tp_a=C64K9&b=3K4J6M3CXFF4Q8QE4JQEZQO3455AGX&tp_b=3K4J6M3CXFF4Q8QE4JQEZQO3455AGX&c=365799&tp_c=365799","firstResponseHeads":4,"firstResponseTails":1,"secondResponseHeads":8,"secondResponseTails":2,"totalHeads":12,"totalTails":3,"studentIndex":0,"studentTrueHypers":{"a":2,"b":8},"studentGuess":0.56,"delta":0.24,"bonus":0,"bonusSoFar":0,"totalExamples":15},{"rt":null,"stimulus":"Sending examples to student... ","response":null,"trial_type":"html-keyboard-response","trial_index":26,"time_elapsed":913837,"internal_node_id":"0.0-10.0","params":{"nStudents":24,"maxFlips":30,"completionMinutes":45,"basePay":8,"maxBonus":9,"perTrialBonus":0.5,"perTrialBonusThreshold":0.05,"exampleCost":0.01},"classroomParams":{"A":{"a":1,"b":4},"B":{"a":4,"b":1},"C":{"a":2,"b":8},"D":{"a":8,"b":2}},"conditions":["nonSeqFull","nonSeqPartial","seqNoFeedback","seqFeedback"],"classroomPairings":[["A","B"],["C","D"]],"coinWeights":[0.2,0.5,0.8],"subjectId":"A2GXEIRTHCKDHK","assignmentId":"3K4J6M3CXFF4Q8QE4JQEZQO3455AGX","hitId":"3UDTAB6HH6LRO17U79I9TKUGSHV90J","url":"https://gershmanlab.com/experiments/alicia/teaching/experiment/?hitId=3UDTAB6HH6LRO17U79I9TKUGSHV90J&workerId=A2GXEIRTHCKDHK&assignmentId=3K4J6M3CXFF4Q8QE4JQEZQO3455AGX&a=C64K9&tp_a=C64K9&b=3K4J6M3CXFF4Q8QE4JQEZQO3455AGX&tp_b=3K4J6M3CXFF4Q8QE4JQEZQO3455AGX&c=365799&tp_c=365799"},{"rt":null,"stimulus":"Examples sent to student! Waiting for student...","response":null,"trial_type":"html-keyboard-response","trial_index":27,"time_elapsed":918350,"internal_node_id":"0.0-11.0","params":{"nStudents":24,"maxFlips":30,"completionMinutes":45,"basePay":8,"maxBonus":9,"perTrialBonus":0.5,"perTrialBonusThreshold":0.05,"exampleCost":0.01},"classroomParams":{"A":{"a":1,"b":4},"B":{"a":4,"b":1},"C":{"a":2,"b":8},"D":{"a":8,"b":2}},"conditions":["nonSeqFull","nonSeqPartial","seqNoFeedback","seqFeedback"],"classroomPairings":[["A","B"],["C","D"]],"coinWeights":[0.2,0.5,0.8],"subjectId":"A2GXEIRTHCKDHK","assignmentId":"3K4J6M3CXFF4Q8QE4JQEZQO3455AGX","hitId":"3UDTAB6HH6LRO17U79I9TKUGSHV90J","url":"https://gershmanlab.com/experiments/alicia/teaching/experiment/?hitId=3UDTAB6HH6LRO17U79I9TKUGSHV90J&workerId=A2GXEIRTHCKDHK&assignmentId=3K4J6M3CXFF4Q8QE4JQEZQO3455AGX&a=C64K9&tp_a=C64K9&b=3K4J6M3CXFF4Q8QE4JQEZQO3455AGX&tp_b=3K4J6M3CXFF4Q8QE4JQEZQO3455AGX&c=365799&tp_c=365799"},{"rt":10032,"stimulus":"\n                <p>Student 1's first guess for coin weight: <b style=\"color:Tomato\";>0.40</b></p>\n                <p>Student 1's second guess for coin weight: <b style=\"color:Tomato\";>0.56</b></p>\n                <p>You received a bonus of <b>$0.00</b> based on the student's second guess.</p>\n                <p>Total bonus so far: <b>$0.00</b></p>\n                <p>Press any key to continue.</p>\n                ","response":"enter","trial_type":"html-keyboard-response","trial_index":28,"time_elapsed":928391,"internal_node_id":"0.0-12.0","params":{"nStudents":24,"maxFlips":30,"completionMinutes":45,"basePay":8,"maxBonus":9,"perTrialBonus":0.5,"perTrialBonusThreshold":0.05,"exampleCost":0.01},"classroomParams":{"A":{"a":1,"b":4},"B":{"a":4,"b":1},"C":{"a":2,"b":8},"D":{"a":8,"b":2}},"conditions":["nonSeqFull","nonSeqPartial","seqNoFeedback","seqFeedback"],"classroomPairings":[["A","B"],["C","D"]],"coinWeights":[0.2,0.5,0.8],"subjectId":"A2GXEIRTHCKDHK","assignmentId":"3K4J6M3CXFF4Q8QE4JQEZQO3455AGX","hitId":"3UDTAB6HH6LRO17U79I9TKUGSHV90J","url":"https://gershmanlab.com/experiments/alicia/teaching/experiment/?hitId=3UDTAB6HH6LRO17U79I9TKUGSHV90J&workerId=A2GXEIRTHCKDHK&assignmentId=3K4J6M3CXFF4Q8QE4JQEZQO3455AGX&a=C64K9&tp_a=C64K9&b=3K4J6M3CXFF4Q8QE4JQEZQO3455AGX&tp_b=3K4J6M3CXFF4Q8QE4JQEZQO3455AGX&c=365799&tp_c=365799"},{"rt":null,"stimulus":"<div style=\"font-size:60px;\">Next student</div>","response":null,"trial_type":"html-keyboard-response","trial_index":29,"time_elapsed":930667,"internal_node_id":"0.0-13.0-0.0","params":{"nStudents":24,"maxFlips":30,"completionMinutes":45,"basePay":8,"maxBonus":9,"perTrialBonus":0.5,"perTrialBonusThreshold":0.05,"exampleCost":0.01},"classroomParams":{"A":{"a":1,"b":4},"B":{"a":4,"b":1},"C":{"a":2,"b":8},"D":{"a":8,"b":2}},"conditions":["nonSeqFull","nonSeqPartial","seqNoFeedback","seqFeedback"],"classroomPairings":[["A","B"],["C","D"]],"coinWeights":[0.2,0.5,0.8],"subjectId":"A2GXEIRTHCKDHK","assignmentId":"3K4J6M3CXFF4Q8QE4JQEZQO3455AGX","hitId":"3UDTAB6HH6LRO17U79I9TKUGSHV90J","url":"https://gershmanlab.com/experiments/alicia/teaching/experiment/?hitId=3UDTAB6HH6LRO17U79I9TKUGSHV90J&workerId=A2GXEIRTHCKDHK&assignmentId=3K4J6M3CXFF4Q8QE4JQEZQO3455AGX&a=C64K9&tp_a=C64K9&b=3K4J6M3CXFF4Q8QE4JQEZQO3455AGX&tp_b=3K4J6M3CXFF4Q8QE4JQEZQO3455AGX&c=365799&tp_c=365799"},{"rt":26879,"stimulus":"\n            <h4 style=\"color:Orange;\">Student 2</h4>\n            <h2>The weight of your coin is <b style=\"color:Tomato;\">0.2</b>.</h2>\n            <p>In this block, you will be giving <b>one</b> set of examples to Student 2.</p>\n                <p>You will receive feedback at the end of the block.</p>\n            <p></p>","response":0,"trial_type":"html-button-response","trial_index":30,"time_elapsed":957550,"internal_node_id":"0.0-14.0","params":{"nStudents":24,"maxFlips":30,"completionMinutes":45,"basePay":8,"maxBonus":9,"perTrialBonus":0.5,"perTrialBonusThreshold":0.05,"exampleCost":0.01},"classroomParams":{"A":{"a":1,"b":4},"B":{"a":4,"b":1},"C":{"a":2,"b":8},"D":{"a":8,"b":2}},"conditions":["nonSeqFull","nonSeqPartial","seqNoFeedback","seqFeedback"],"classroomPairings":[["A","B"],["C","D"]],"coinWeights":[0.2,0.5,0.8],"subjectId":"A2GXEIRTHCKDHK","assignmentId":"3K4J6M3CXFF4Q8QE4JQEZQO3455AGX","hitId":"3UDTAB6HH6LRO17U79I9TKUGSHV90J","url":"https://gershmanlab.com/experiments/alicia/teaching/experiment/?hitId=3UDTAB6HH6LRO17U79I9TKUGSHV90J&workerId=A2GXEIRTHCKDHK&assignmentId=3K4J6M3CXFF4Q8QE4JQEZQO3455AGX&a=C64K9&tp_a=C64K9&b=3K4J6M3CXFF4Q8QE4JQEZQO3455AGX&tp_b=3K4J6M3CXFF4Q8QE4JQEZQO3455AGX&c=365799&tp_c=365799"},{"rt":11580,"response":{"heads":"1","tails":"4"},"type":"response","condition":"nonSeqFull","trueTheta":0.2,"classrooms":["C","D"],"studentTrueClassroom":"C","exampleSet":"first","trial_type":"survey-html-form","trial_index":31,"time_elapsed":969138,"internal_node_id":"0.0-15.0-0.0","params":{"nStudents":24,"maxFlips":30,"completionMinutes":45,"basePay":8,"maxBonus":9,"perTrialBonus":0.5,"perTrialBonusThreshold":0.05,"exampleCost":0.01},"classroomParams":{"A":{"a":1,"b":4},"B":{"a":4,"b":1},"C":{"a":2,"b":8},"D":{"a":8,"b":2}},"conditions":["nonSeqFull","nonSeqPartial","seqNoFeedback","seqFeedback"],"classroomPairings":[["A","B"],["C","D"]],"coinWeights":[0.2,0.5,0.8],"subjectId":"A2GXEIRTHCKDHK","assignmentId":"3K4J6M3CXFF4Q8QE4JQEZQO3455AGX","hitId":"3UDTAB6HH6LRO17U79I9TKUGSHV90J","url":"https://gershmanlab.com/experiments/alicia/teaching/experiment/?hitId=3UDTAB6HH6LRO17U79I9TKUGSHV90J&workerId=A2GXEIRTHCKDHK&assignmentId=3K4J6M3CXFF4Q8QE4JQEZQO3455AGX&a=C64K9&tp_a=C64K9&b=3K4J6M3CXFF4Q8QE4JQEZQO3455AGX&tp_b=3K4J6M3CXFF4Q8QE4JQEZQO3455AGX&c=365799&tp_c=365799","heads":1,"tails":4,"studentIndex":1,"studentTrueHypers":{"a":2,"b":8},"studentGuess":0.2,"delta":0,"totalExamples":5,"bonus":0.45,"bonusSoFar":0.45},{"rt":null,"stimulus":"Sending examples to student... ","response":null,"trial_type":"html-keyboard-response","trial_index":32,"time_elapsed":970404,"internal_node_id":"0.0-16.0","params":{"nStudents":24,"maxFlips":30,"completionMinutes":45,"basePay":8,"maxBonus":9,"perTrialBonus":0.5,"perTrialBonusThreshold":0.05,"exampleCost":0.01},"classroomParams":{"A":{"a":1,"b":4},"B":{"a":4,"b":1},"C":{"a":2,"b":8},"D":{"a":8,"b":2}},"conditions":["nonSeqFull","nonSeqPartial","seqNoFeedback","seqFeedback"],"classroomPairings":[["A","B"],["C","D"]],"coinWeights":[0.2,0.5,0.8],"subjectId":"A2GXEIRTHCKDHK","assignmentId":"3K4J6M3CXFF4Q8QE4JQEZQO3455AGX","hitId":"3UDTAB6HH6LRO17U79I9TKUGSHV90J","url":"https://gershmanlab.com/experiments/alicia/teaching/experiment/?hitId=3UDTAB6HH6LRO17U79I9TKUGSHV90J&workerId=A2GXEIRTHCKDHK&assignmentId=3K4J6M3CXFF4Q8QE4JQEZQO3455AGX&a=C64K9&tp_a=C64K9&b=3K4J6M3CXFF4Q8QE4JQEZQO3455AGX&tp_b=3K4J6M3CXFF4Q8QE4JQEZQO3455AGX&c=365799&tp_c=365799"},{"rt":null,"stimulus":"Examples sent to student! Waiting for student...","response":null,"trial_type":"html-keyboard-response","trial_index":33,"time_elapsed":975924,"internal_node_id":"0.0-17.0","params":{"nStudents":24,"maxFlips":30,"completionMinutes":45,"basePay":8,"maxBonus":9,"perTrialBonus":0.5,"perTrialBonusThreshold":0.05,"exampleCost":0.01},"classroomParams":{"A":{"a":1,"b":4},"B":{"a":4,"b":1},"C":{"a":2,"b":8},"D":{"a":8,"b":2}},"conditions":["nonSeqFull","nonSeqPartial","seqNoFeedback","seqFeedback"],"classroomPairings":[["A","B"],["C","D"]],"coinWeights":[0.2,0.5,0.8],"subjectId":"A2GXEIRTHCKDHK","assignmentId":"3K4J6M3CXFF4Q8QE4JQEZQO3455AGX","hitId":"3UDTAB6HH6LRO17U79I9TKUGSHV90J","url":"https://gershmanlab.com/experiments/alicia/teaching/experiment/?hitId=3UDTAB6HH6LRO17U79I9TKUGSHV90J&workerId=A2GXEIRTHCKDHK&assignmentId=3K4J6M3CXFF4Q8QE4JQEZQO3455AGX&a=C64K9&tp_a=C64K9&b=3K4J6M3CXFF4Q8QE4JQEZQO3455AGX&tp_b=3K4J6M3CXFF4Q8QE4JQEZQO3455AGX&c=365799&tp_c=365799"},{"rt":3477,"stimulus":"\n                <p>Student's guess for coin weight: <b style=\"color:Tomato;\">0.20</b></p>\n                <p>You received a bonus of <b>$0.45</b>. Total bonus so far: <b>$0.45</b></b></p>\n                <p></p>\n                <p>Press any key to continue.</p>\n                ","response":"enter","trial_type":"html-keyboard-response","trial_index":34,"time_elapsed":979406,"internal_node_id":"0.0-18.0","params":{"nStudents":24,"maxFlips":30,"completionMinutes":45,"basePay":8,"maxBonus":9,"perTrialBonus":0.5,"perTrialBonusThreshold":0.05,"exampleCost":0.01},"classroomParams":{"A":{"a":1,"b":4},"B":{"a":4,"b":1},"C":{"a":2,"b":8},"D":{"a":8,"b":2}},"conditions":["nonSeqFull","nonSeqPartial","seqNoFeedback","seqFeedback"],"classroomPairings":[["A","B"],["C","D"]],"coinWeights":[0.2,0.5,0.8],"subjectId":"A2GXEIRTHCKDHK","assignmentId":"3K4J6M3CXFF4Q8QE4JQEZQO3455AGX","hitId":"3UDTAB6HH6LRO17U79I9TKUGSHV90J","url":"https://gershmanlab.com/experiments/alicia/teaching/experiment/?hitId=3UDTAB6HH6LRO17U79I9TKUGSHV90J&workerId=A2GXEIRTHCKDHK&assignmentId=3K4J6M3CXFF4Q8QE4JQEZQO3455AGX&a=C64K9&tp_a=C64K9&b=3K4J6M3CXFF4Q8QE4JQEZQO3455AGX&tp_b=3K4J6M3CXFF4Q8QE4JQEZQO3455AGX&c=365799&tp_c=365799"},{"rt":null,"stimulus":"<div style=\"font-size:60px;\">Next student</div>","response":null,"trial_type":"html-keyboard-response","trial_index":35,"time_elapsed":981672,"internal_node_id":"0.0-19.0-0.0","params":{"nStudents":24,"maxFlips":30,"completionMinutes":45,"basePay":8,"maxBonus":9,"perTrialBonus":0.5,"perTrialBonusThreshold":0.05,"exampleCost":0.01},"classroomParams":{"A":{"a":1,"b":4},"B":{"a":4,"b":1},"C":{"a":2,"b":8},"D":{"a":8,"b":2}},"conditions":["nonSeqFull","nonSeqPartial","seqNoFeedback","seqFeedback"],"classroomPairings":[["A","B"],["C","D"]],"coinWeights":[0.2,0.5,0.8],"subjectId":"A2GXEIRTHCKDHK","assignmentId":"3K4J6M3CXFF4Q8QE4JQEZQO3455AGX","hitId":"3UDTAB6HH6LRO17U79I9TKUGSHV90J","url":"https://gershmanlab.com/experiments/alicia/teaching/experiment/?hitId=3UDTAB6HH6LRO17U79I9TKUGSHV90J&workerId=A2GXEIRTHCKDHK&assignmentId=3K4J6M3CXFF4Q8QE4JQEZQO3455AGX&a=C64K9&tp_a=C64K9&b=3K4J6M3CXFF4Q8QE4JQEZQO3455AGX&tp_b=3K4J6M3CXFF4Q8QE4JQEZQO3455AGX&c=365799&tp_c=365799"},{"rt":2263,"stimulus":"\n            <h4 style=\"color:Orange;\">Student 3</h4>\n            <h2>The weight of your coin is <b style=\"color:Tomato;\">0.8</b>.</h2>\n            <p>In this block, you will be giving <b>one</b> set of examples to Student 3.</p>\n                <p>You will receive feedback at the end of the block.</p>\n            <p></p>","response":0,"trial_type":"html-button-response","trial_index":36,"time_elapsed":983942,"internal_node_id":"0.0-20.0","params":{"nStudents":24,"maxFlips":30,"completionMinutes":45,"basePay":8,"maxBonus":9,"perTrialBonus":0.5,"perTrialBonusThreshold":0.05,"exampleCost":0.01},"classroomParams":{"A":{"a":1,"b":4},"B":{"a":4,"b":1},"C":{"a":2,"b":8},"D":{"a":8,"b":2}},"conditions":["nonSeqFull","nonSeqPartial","seqNoFeedback","seqFeedback"],"classroomPairings":[["A","B"],["C","D"]],"coinWeights":[0.2,0.5,0.8],"subjectId":"A2GXEIRTHCKDHK","assignmentId":"3K4J6M3CXFF4Q8QE4JQEZQO3455AGX","hitId":"3UDTAB6HH6LRO17U79I9TKUGSHV90J","url":"https://gershmanlab.com/experiments/alicia/teaching/experiment/?hitId=3UDTAB6HH6LRO17U79I9TKUGSHV90J&workerId=A2GXEIRTHCKDHK&assignmentId=3K4J6M3CXFF4Q8QE4JQEZQO3455AGX&a=C64K9&tp_a=C64K9&b=3K4J6M3CXFF4Q8QE4JQEZQO3455AGX&tp_b=3K4J6M3CXFF4Q8QE4JQEZQO3455AGX&c=365799&tp_c=365799"},{"rt":9078,"response":{"heads":"4","tails":"1"},"type":"response","condition":"nonSeqPartial","trueTheta":0.8,"classrooms":["A","B"],"studentTrueClassroom":"B","exampleSet":"first","trial_type":"survey-html-form","trial_index":37,"time_elapsed":993026,"internal_node_id":"0.0-21.0-0.0","params":{"nStudents":24,"maxFlips":30,"completionMinutes":45,"basePay":8,"maxBonus":9,"perTrialBonus":0.5,"perTrialBonusThreshold":0.05,"exampleCost":0.01},"classroomParams":{"A":{"a":1,"b":4},"B":{"a":4,"b":1},"C":{"a":2,"b":8},"D":{"a":8,"b":2}},"conditions":["nonSeqFull","nonSeqPartial","seqNoFeedback","seqFeedback"],"classroomPairings":[["A","B"],["C","D"]],"coinWeights":[0.2,0.5,0.8],"subjectId":"A2GXEIRTHCKDHK","assignmentId":"3K4J6M3CXFF4Q8QE4JQEZQO3455AGX","hitId":"3UDTAB6HH6LRO17U79I9TKUGSHV90J","url":"https://gershmanlab.com/experiments/alicia/teaching/experiment/?hitId=3UDTAB6HH6LRO17U79I9TKUGSHV90J&workerId=A2GXEIRTHCKDHK&assignmentId=3K4J6M3CXFF4Q8QE4JQEZQO3455AGX&a=C64K9&tp_a=C64K9&b=3K4J6M3CXFF4Q8QE4JQEZQO3455AGX&tp_b=3K4J6M3CXFF4Q8QE4JQEZQO3455AGX&c=365799&tp_c=365799","heads":4,"tails":1,"studentIndex":2,"studentTrueHypers":{"a":4,"b":1},"studentGuess":0.8,"delta":0,"totalExamples":5,"bonus":0.45,"bonusSoFar":0.9},{"rt":null,"stimulus":"Sending examples to student... ","response":null,"trial_type":"html-keyboard-response","trial_index":38,"time_elapsed":995037,"internal_node_id":"0.0-22.0","params":{"nStudents":24,"maxFlips":30,"completionMinutes":45,"basePay":8,"maxBonus":9,"perTrialBonus":0.5,"perTrialBonusThreshold":0.05,"exampleCost":0.01},"classroomParams":{"A":{"a":1,"b":4},"B":{"a":4,"b":1},"C":{"a":2,"b":8},"D":{"a":8,"b":2}},"conditions":["nonSeqFull","nonSeqPartial","seqNoFeedback","seqFeedback"],"classroomPairings":[["A","B"],["C","D"]],"coinWeights":[0.2,0.5,0.8],"subjectId":"A2GXEIRTHCKDHK","assignmentId":"3K4J6M3CXFF4Q8QE4JQEZQO3455AGX","hitId":"3UDTAB6HH6LRO17U79I9TKUGSHV90J","url":"https://gershmanlab.com/experiments/alicia/teaching/experiment/?hitId=3UDTAB6HH6LRO17U79I9TKUGSHV90J&workerId=A2GXEIRTHCKDHK&assignmentId=3K4J6M3CXFF4Q8QE4JQEZQO3455AGX&a=C64K9&tp_a=C64K9&b=3K4J6M3CXFF4Q8QE4JQEZQO3455AGX&tp_b=3K4J6M3CXFF4Q8QE4JQEZQO3455AGX&c=365799&tp_c=365799"},{"rt":null,"stimulus":"Examples sent to student! Waiting for student...","response":null,"trial_type":"html-keyboard-response","trial_index":39,"time_elapsed":999056,"internal_node_id":"0.0-23.0","params":{"nStudents":24,"maxFlips":30,"completionMinutes":45,"basePay":8,"maxBonus":9,"perTrialBonus":0.5,"perTrialBonusThreshold":0.05,"exampleCost":0.01},"classroomParams":{"A":{"a":1,"b":4},"B":{"a":4,"b":1},"C":{"a":2,"b":8},"D":{"a":8,"b":2}},"conditions":["nonSeqFull","nonSeqPartial","seqNoFeedback","seqFeedback"],"classroomPairings":[["A","B"],["C","D"]],"coinWeights":[0.2,0.5,0.8],"subjectId":"A2GXEIRTHCKDHK","assignmentId":"3K4J6M3CXFF4Q8QE4JQEZQO3455AGX","hitId":"3UDTAB6HH6LRO17U79I9TKUGSHV90J","url":"https://gershmanlab.com/experiments/alicia/teaching/experiment/?hitId=3UDTAB6HH6LRO17U79I9TKUGSHV90J&workerId=A2GXEIRTHCKDHK&assignmentId=3K4J6M3CXFF4Q8QE4JQEZQO3455AGX&a=C64K9&tp_a=C64K9&b=3K4J6M3CXFF4Q8QE4JQEZQO3455AGX&tp_b=3K4J6M3CXFF4Q8QE4JQEZQO3455AGX&c=365799&tp_c=365799"},{"rt":14246,"stimulus":"\n                <p>Student's guess for coin weight: <b style=\"color:Tomato;\">0.80</b></p>\n                <p>You received a bonus of <b>$0.45</b>. Total bonus so far: <b>$0.90</b></b></p>\n                <p></p>\n                <p>Press any key to continue.</p>\n                ","response":"enter","trial_type":"html-keyboard-response","trial_index":40,"time_elapsed":1013304,"internal_node_id":"0.0-24.0","params":{"nStudents":24,"maxFlips":30,"completionMinutes":45,"basePay":8,"maxBonus":9,"perTrialBonus":0.5,"perTrialBonusThreshold":0.05,"exampleCost":0.01},"classroomParams":{"A":{"a":1,"b":4},"B":{"a":4,"b":1},"C":{"a":2,"b":8},"D":{"a":8,"b":2}},"conditions":["nonSeqFull","nonSeqPartial","seqNoFeedback","seqFeedback"],"classroomPairings":[["A","B"],["C","D"]],"coinWeights":[0.2,0.5,0.8],"subjectId":"A2GXEIRTHCKDHK","assignmentId":"3K4J6M3CXFF4Q8QE4JQEZQO3455AGX","hitId":"3UDTAB6HH6LRO17U79I9TKUGSHV90J","url":"https://gershmanlab.com/experiments/alicia/teaching/experiment/?hitId=3UDTAB6HH6LRO17U79I9TKUGSHV90J&workerId=A2GXEIRTHCKDHK&assignmentId=3K4J6M3CXFF4Q8QE4JQEZQO3455AGX&a=C64K9&tp_a=C64K9&b=3K4J6M3CXFF4Q8QE4JQEZQO3455AGX&tp_b=3K4J6M3CXFF4Q8QE4JQEZQO3455AGX&c=365799&tp_c=365799"},{"rt":null,"stimulus":"<div style=\"font-size:60px;\">Next student</div>","response":null,"trial_type":"html-keyboard-response","trial_index":41,"time_elapsed":1015313,"internal_node_id":"0.0-25.0-0.0","params":{"nStudents":24,"maxFlips":30,"completionMinutes":45,"basePay":8,"maxBonus":9,"perTrialBonus":0.5,"perTrialBonusThreshold":0.05,"exampleCost":0.01},"classroomParams":{"A":{"a":1,"b":4},"B":{"a":4,"b":1},"C":{"a":2,"b":8},"D":{"a":8,"b":2}},"conditions":["nonSeqFull","nonSeqPartial","seqNoFeedback","seqFeedback"],"classroomPairings":[["A","B"],["C","D"]],"coinWeights":[0.2,0.5,0.8],"subjectId":"A2GXEIRTHCKDHK","assignmentId":"3K4J6M3CXFF4Q8QE4JQEZQO3455AGX","hitId":"3UDTAB6HH6LRO17U79I9TKUGSHV90J","url":"https://gershmanlab.com/experiments/alicia/teaching/experiment/?hitId=3UDTAB6HH6LRO17U79I9TKUGSHV90J&workerId=A2GXEIRTHCKDHK&assignmentId=3K4J6M3CXFF4Q8QE4JQEZQO3455AGX&a=C64K9&tp_a=C64K9&b=3K4J6M3CXFF4Q8QE4JQEZQO3455AGX&tp_b=3K4J6M3CXFF4Q8QE4JQEZQO3455AGX&c=365799&tp_c=365799"},{"rt":8081,"stimulus":"\n            <h4 style=\"color:Orange;\">Student 4</h4>\n            <h2>The weight of your coin is <b style=\"color:Tomato;\">0.5</b>.</h2>\n            <p>In this block, you will be giving <b>one</b> set of examples to Student 4.</p>\n                <p>You will receive feedback at the end of the block.</p>\n            <p></p>","response":0,"trial_type":"html-button-response","trial_index":42,"time_elapsed":1023401,"internal_node_id":"0.0-26.0","params":{"nStudents":24,"maxFlips":30,"completionMinutes":45,"basePay":8,"maxBonus":9,"perTrialBonus":0.5,"perTrialBonusThreshold":0.05,"exampleCost":0.01},"classroomParams":{"A":{"a":1,"b":4},"B":{"a":4,"b":1},"C":{"a":2,"b":8},"D":{"a":8,"b":2}},"conditions":["nonSeqFull","nonSeqPartial","seqNoFeedback","seqFeedback"],"classroomPairings":[["A","B"],["C","D"]],"coinWeights":[0.2,0.5,0.8],"subjectId":"A2GXEIRTHCKDHK","assignmentId":"3K4J6M3CXFF4Q8QE4JQEZQO3455AGX","hitId":"3UDTAB6HH6LRO17U79I9TKUGSHV90J","url":"https://gershmanlab.com/experiments/alicia/teaching/experiment/?hitId=3UDTAB6HH6LRO17U79I9TKUGSHV90J&workerId=A2GXEIRTHCKDHK&assignmentId=3K4J6M3CXFF4Q8QE4JQEZQO3455AGX&a=C64K9&tp_a=C64K9&b=3K4J6M3CXFF4Q8QE4JQEZQO3455AGX&tp_b=3K4J6M3CXFF4Q8QE4JQEZQO3455AGX&c=365799&tp_c=365799"},{"rt":4782,"response":{"heads":"1","tails":"1"},"type":"response","condition":"nonSeqPartial","trueTheta":0.5,"classrooms":["C","D"],"studentTrueClassroom":"C","exampleSet":"first","trial_type":"survey-html-form","trial_index":43,"time_elapsed":1028188,"internal_node_id":"0.0-27.0-0.0","params":{"nStudents":24,"maxFlips":30,"completionMinutes":45,"basePay":8,"maxBonus":9,"perTrialBonus":0.5,"perTrialBonusThreshold":0.05,"exampleCost":0.01},"classroomParams":{"A":{"a":1,"b":4},"B":{"a":4,"b":1},"C":{"a":2,"b":8},"D":{"a":8,"b":2}},"conditions":["nonSeqFull","nonSeqPartial","seqNoFeedback","seqFeedback"],"classroomPairings":[["A","B"],["C","D"]],"coinWeights":[0.2,0.5,0.8],"subjectId":"A2GXEIRTHCKDHK","assignmentId":"3K4J6M3CXFF4Q8QE4JQEZQO3455AGX","hitId":"3UDTAB6HH6LRO17U79I9TKUGSHV90J","url":"https://gershmanlab.com/experiments/alicia/teaching/experiment/?hitId=3UDTAB6HH6LRO17U79I9TKUGSHV90J&workerId=A2GXEIRTHCKDHK&assignmentId=3K4J6M3CXFF4Q8QE4JQEZQO3455AGX&a=C64K9&tp_a=C64K9&b=3K4J6M3CXFF4Q8QE4JQEZQO3455AGX&tp_b=3K4J6M3CXFF4Q8QE4JQEZQO3455AGX&c=365799&tp_c=365799","heads":1,"tails":1,"studentIndex":3,"studentTrueHypers":{"a":2,"b":8},"studentGuess":0.25,"delta":0.25,"totalExamples":2,"bonus":0,"bonusSoFar":0.9},{"rt":null,"stimulus":"Sending examples to student... ","response":null,"trial_type":"html-keyboard-response","trial_index":44,"time_elapsed":1030202,"internal_node_id":"0.0-28.0","params":{"nStudents":24,"maxFlips":30,"completionMinutes":45,"basePay":8,"maxBonus":9,"perTrialBonus":0.5,"perTrialBonusThreshold":0.05,"exampleCost":0.01},"classroomParams":{"A":{"a":1,"b":4},"B":{"a":4,"b":1},"C":{"a":2,"b":8},"D":{"a":8,"b":2}},"conditions":["nonSeqFull","nonSeqPartial","seqNoFeedback","seqFeedback"],"classroomPairings":[["A","B"],["C","D"]],"coinWeights":[0.2,0.5,0.8],"subjectId":"A2GXEIRTHCKDHK","assignmentId":"3K4J6M3CXFF4Q8QE4JQEZQO3455AGX","hitId":"3UDTAB6HH6LRO17U79I9TKUGSHV90J","url":"https://gershmanlab.com/experiments/alicia/teaching/experiment/?hitId=3UDTAB6HH6LRO17U79I9TKUGSHV90J&workerId=A2GXEIRTHCKDHK&assignmentId=3K4J6M3CXFF4Q8QE4JQEZQO3455AGX&a=C64K9&tp_a=C64K9&b=3K4J6M3CXFF4Q8QE4JQEZQO3455AGX&tp_b=3K4J6M3CXFF4Q8QE4JQEZQO3455AGX&c=365799&tp_c=365799"},{"rt":null,"stimulus":"Examples sent to student! Waiting for student...","response":null,"trial_type":"html-keyboard-response","trial_index":45,"time_elapsed":1034711,"internal_node_id":"0.0-29.0","params":{"nStudents":24,"maxFlips":30,"completionMinutes":45,"basePay":8,"maxBonus":9,"perTrialBonus":0.5,"perTrialBonusThreshold":0.05,"exampleCost":0.01},"classroomParams":{"A":{"a":1,"b":4},"B":{"a":4,"b":1},"C":{"a":2,"b":8},"D":{"a":8,"b":2}},"conditions":["nonSeqFull","nonSeqPartial","seqNoFeedback","seqFeedback"],"classroomPairings":[["A","B"],["C","D"]],"coinWeights":[0.2,0.5,0.8],"subjectId":"A2GXEIRTHCKDHK","assignmentId":"3K4J6M3CXFF4Q8QE4JQEZQO3455AGX","hitId":"3UDTAB6HH6LRO17U79I9TKUGSHV90J","url":"https://gershmanlab.com/experiments/alicia/teaching/experiment/?hitId=3UDTAB6HH6LRO17U79I9TKUGSHV90J&workerId=A2GXEIRTHCKDHK&assignmentId=3K4J6M3CXFF4Q8QE4JQEZQO3455AGX&a=C64K9&tp_a=C64K9&b=3K4J6M3CXFF4Q8QE4JQEZQO3455AGX&tp_b=3K4J6M3CXFF4Q8QE4JQEZQO3455AGX&c=365799&tp_c=365799"},{"rt":4853,"stimulus":"\n                <p>Student's guess for coin weight: <b style=\"color:Tomato;\">0.25</b></p>\n                <p>You received a bonus of <b>$0</b>. Total bonus so far: <b>$0.90</b></b></p>\n                <p></p>\n                <p>Press any key to continue.</p>\n                ","response":"enter","trial_type":"html-keyboard-response","trial_index":46,"time_elapsed":1039568,"internal_node_id":"0.0-30.0","params":{"nStudents":24,"maxFlips":30,"completionMinutes":45,"basePay":8,"maxBonus":9,"perTrialBonus":0.5,"perTrialBonusThreshold":0.05,"exampleCost":0.01},"classroomParams":{"A":{"a":1,"b":4},"B":{"a":4,"b":1},"C":{"a":2,"b":8},"D":{"a":8,"b":2}},"conditions":["nonSeqFull","nonSeqPartial","seqNoFeedback","seqFeedback"],"classroomPairings":[["A","B"],["C","D"]],"coinWeights":[0.2,0.5,0.8],"subjectId":"A2GXEIRTHCKDHK","assignmentId":"3K4J6M3CXFF4Q8QE4JQEZQO3455AGX","hitId":"3UDTAB6HH6LRO17U79I9TKUGSHV90J","url":"https://gershmanlab.com/experiments/alicia/teaching/experiment/?hitId=3UDTAB6HH6LRO17U79I9TKUGSHV90J&workerId=A2GXEIRTHCKDHK&assignmentId=3K4J6M3CXFF4Q8QE4JQEZQO3455AGX&a=C64K9&tp_a=C64K9&b=3K4J6M3CXFF4Q8QE4JQEZQO3455AGX&tp_b=3K4J6M3CXFF4Q8QE4JQEZQO3455AGX&c=365799&tp_c=365799"},{"rt":null,"stimulus":"<div style=\"font-size:60px;\">Next student</div>","response":null,"trial_type":"html-keyboard-response","trial_index":47,"time_elapsed":1042574,"internal_node_id":"0.0-31.0-0.0","params":{"nStudents":24,"maxFlips":30,"completionMinutes":45,"basePay":8,"maxBonus":9,"perTrialBonus":0.5,"perTrialBonusThreshold":0.05,"exampleCost":0.01},"classroomParams":{"A":{"a":1,"b":4},"B":{"a":4,"b":1},"C":{"a":2,"b":8},"D":{"a":8,"b":2}},"conditions":["nonSeqFull","nonSeqPartial","seqNoFeedback","seqFeedback"],"classroomPairings":[["A","B"],["C","D"]],"coinWeights":[0.2,0.5,0.8],"subjectId":"A2GXEIRTHCKDHK","assignmentId":"3K4J6M3CXFF4Q8QE4JQEZQO3455AGX","hitId":"3UDTAB6HH6LRO17U79I9TKUGSHV90J","url":"https://gershmanlab.com/experiments/alicia/teaching/experiment/?hitId=3UDTAB6HH6LRO17U79I9TKUGSHV90J&workerId=A2GXEIRTHCKDHK&assignmentId=3K4J6M3CXFF4Q8QE4JQEZQO3455AGX&a=C64K9&tp_a=C64K9&b=3K4J6M3CXFF4Q8QE4JQEZQO3455AGX&tp_b=3K4J6M3CXFF4Q8QE4JQEZQO3455AGX&c=365799&tp_c=365799"},{"rt":1272,"stimulus":"\n            <h4 style=\"color:Orange;\">Student 5</h4>\n            <h2>The weight of your coin is <b style=\"color:Tomato;\">0.2</b>.</h2>\n            <p>In this block, you will be giving <b>one</b> set of examples to Student 5.</p>\n                <p>You will receive feedback at the end of the block.</p>\n            <p></p>","response":0,"trial_type":"html-button-response","trial_index":48,"time_elapsed":1043849,"internal_node_id":"0.0-32.0","params":{"nStudents":24,"maxFlips":30,"completionMinutes":45,"basePay":8,"maxBonus":9,"perTrialBonus":0.5,"perTrialBonusThreshold":0.05,"exampleCost":0.01},"classroomParams":{"A":{"a":1,"b":4},"B":{"a":4,"b":1},"C":{"a":2,"b":8},"D":{"a":8,"b":2}},"conditions":["nonSeqFull","nonSeqPartial","seqNoFeedback","seqFeedback"],"classroomPairings":[["A","B"],["C","D"]],"coinWeights":[0.2,0.5,0.8],"subjectId":"A2GXEIRTHCKDHK","assignmentId":"3K4J6M3CXFF4Q8QE4JQEZQO3455AGX","hitId":"3UDTAB6HH6LRO17U79I9TKUGSHV90J","url":"https://gershmanlab.com/experiments/alicia/teaching/experiment/?hitId=3UDTAB6HH6LRO17U79I9TKUGSHV90J&workerId=A2GXEIRTHCKDHK&assignmentId=3K4J6M3CXFF4Q8QE4JQEZQO3455AGX&a=C64K9&tp_a=C64K9&b=3K4J6M3CXFF4Q8QE4JQEZQO3455AGX&tp_b=3K4J6M3CXFF4Q8QE4JQEZQO3455AGX&c=365799&tp_c=365799"},{"rt":7173,"response":{"heads":"1","tails":"5"},"type":"response","condition":"nonSeqPartial","trueTheta":0.2,"classrooms":["A","B"],"studentTrueClassroom":"B","exampleSet":"first","trial_type":"survey-html-form","trial_index":49,"time_elapsed":1051028,"internal_node_id":"0.0-33.0-0.0","params":{"nStudents":24,"maxFlips":30,"completionMinutes":45,"basePay":8,"maxBonus":9,"perTrialBonus":0.5,"perTrialBonusThreshold":0.05,"exampleCost":0.01},"classroomParams":{"A":{"a":1,"b":4},"B":{"a":4,"b":1},"C":{"a":2,"b":8},"D":{"a":8,"b":2}},"conditions":["nonSeqFull","nonSeqPartial","seqNoFeedback","seqFeedback"],"classroomPairings":[["A","B"],["C","D"]],"coinWeights":[0.2,0.5,0.8],"subjectId":"A2GXEIRTHCKDHK","assignmentId":"3K4J6M3CXFF4Q8QE4JQEZQO3455AGX","hitId":"3UDTAB6HH6LRO17U79I9TKUGSHV90J","url":"https://gershmanlab.com/experiments/alicia/teaching/experiment/?hitId=3UDTAB6HH6LRO17U79I9TKUGSHV90J&workerId=A2GXEIRTHCKDHK&assignmentId=3K4J6M3CXFF4Q8QE4JQEZQO3455AGX&a=C64K9&tp_a=C64K9&b=3K4J6M3CXFF4Q8QE4JQEZQO3455AGX&tp_b=3K4J6M3CXFF4Q8QE4JQEZQO3455AGX&c=365799&tp_c=365799","heads":1,"tails":5,"studentIndex":4,"studentTrueHypers":{"a":4,"b":1},"studentGuess":0.45454545454545453,"delta":0.2545454545454545,"totalExamples":6,"bonus":0,"bonusSoFar":0.9},{"rt":null,"stimulus":"Sending examples to student... ","response":null,"trial_type":"html-keyboard-response","trial_index":50,"time_elapsed":1052534,"internal_node_id":"0.0-34.0","params":{"nStudents":24,"maxFlips":30,"completionMinutes":45,"basePay":8,"maxBonus":9,"perTrialBonus":0.5,"perTrialBonusThreshold":0.05,"exampleCost":0.01},"classroomParams":{"A":{"a":1,"b":4},"B":{"a":4,"b":1},"C":{"a":2,"b":8},"D":{"a":8,"b":2}},"conditions":["nonSeqFull","nonSeqPartial","seqNoFeedback","seqFeedback"],"classroomPairings":[["A","B"],["C","D"]],"coinWeights":[0.2,0.5,0.8],"subjectId":"A2GXEIRTHCKDHK","assignmentId":"3K4J6M3CXFF4Q8QE4JQEZQO3455AGX","hitId":"3UDTAB6HH6LRO17U79I9TKUGSHV90J","url":"https://gershmanlab.com/experiments/alicia/teaching/experiment/?hitId=3UDTAB6HH6LRO17U79I9TKUGSHV90J&workerId=A2GXEIRTHCKDHK&assignmentId=3K4J6M3CXFF4Q8QE4JQEZQO3455AGX&a=C64K9&tp_a=C64K9&b=3K4J6M3CXFF4Q8QE4JQEZQO3455AGX&tp_b=3K4J6M3CXFF4Q8QE4JQEZQO3455AGX&c=365799&tp_c=365799"},{"rt":null,"stimulus":"Examples sent to student! Waiting for student...","response":null,"trial_type":"html-keyboard-response","trial_index":51,"time_elapsed":1056569,"internal_node_id":"0.0-35.0","params":{"nStudents":24,"maxFlips":30,"completionMinutes":45,"basePay":8,"maxBonus":9,"perTrialBonus":0.5,"perTrialBonusThreshold":0.05,"exampleCost":0.01},"classroomParams":{"A":{"a":1,"b":4},"B":{"a":4,"b":1},"C":{"a":2,"b":8},"D":{"a":8,"b":2}},"conditions":["nonSeqFull","nonSeqPartial","seqNoFeedback","seqFeedback"],"classroomPairings":[["A","B"],["C","D"]],"coinWeights":[0.2,0.5,0.8],"subjectId":"A2GXEIRTHCKDHK","assignmentId":"3K4J6M3CXFF4Q8QE4JQEZQO3455AGX","hitId":"3UDTAB6HH6LRO17U79I9TKUGSHV90J","url":"https://gershmanlab.com/experiments/alicia/teaching/experiment/?hitId=3UDTAB6HH6LRO17U79I9TKUGSHV90J&workerId=A2GXEIRTHCKDHK&assignmentId=3K4J6M3CXFF4Q8QE4JQEZQO3455AGX&a=C64K9&tp_a=C64K9&b=3K4J6M3CXFF4Q8QE4JQEZQO3455AGX&tp_b=3K4J6M3CXFF4Q8QE4JQEZQO3455AGX&c=365799&tp_c=365799"},{"rt":3998,"stimulus":"\n                <p>Student's guess for coin weight: <b style=\"color:Tomato;\">0.45</b></p>\n                <p>You received a bonus of <b>$0</b>. Total bonus so far: <b>$0.90</b></b></p>\n                <p></p>\n                <p>Press any key to continue.</p>\n                ","response":"enter","trial_type":"html-keyboard-response","trial_index":52,"time_elapsed":1060569,"internal_node_id":"0.0-36.0","params":{"nStudents":24,"maxFlips":30,"completionMinutes":45,"basePay":8,"maxBonus":9,"perTrialBonus":0.5,"perTrialBonusThreshold":0.05,"exampleCost":0.01},"classroomParams":{"A":{"a":1,"b":4},"B":{"a":4,"b":1},"C":{"a":2,"b":8},"D":{"a":8,"b":2}},"conditions":["nonSeqFull","nonSeqPartial","seqNoFeedback","seqFeedback"],"classroomPairings":[["A","B"],["C","D"]],"coinWeights":[0.2,0.5,0.8],"subjectId":"A2GXEIRTHCKDHK","assignmentId":"3K4J6M3CXFF4Q8QE4JQEZQO3455AGX","hitId":"3UDTAB6HH6LRO17U79I9TKUGSHV90J","url":"https://gershmanlab.com/experiments/alicia/teaching/experiment/?hitId=3UDTAB6HH6LRO17U79I9TKUGSHV90J&workerId=A2GXEIRTHCKDHK&assignmentId=3K4J6M3CXFF4Q8QE4JQEZQO3455AGX&a=C64K9&tp_a=C64K9&b=3K4J6M3CXFF4Q8QE4JQEZQO3455AGX&tp_b=3K4J6M3CXFF4Q8QE4JQEZQO3455AGX&c=365799&tp_c=365799"},{"rt":null,"stimulus":"<div style=\"font-size:60px;\">Next student</div>","response":null,"trial_type":"html-keyboard-response","trial_index":53,"time_elapsed":1062572,"internal_node_id":"0.0-37.0-0.0","params":{"nStudents":24,"maxFlips":30,"completionMinutes":45,"basePay":8,"maxBonus":9,"perTrialBonus":0.5,"perTrialBonusThreshold":0.05,"exampleCost":0.01},"classroomParams":{"A":{"a":1,"b":4},"B":{"a":4,"b":1},"C":{"a":2,"b":8},"D":{"a":8,"b":2}},"conditions":["nonSeqFull","nonSeqPartial","seqNoFeedback","seqFeedback"],"classroomPairings":[["A","B"],["C","D"]],"coinWeights":[0.2,0.5,0.8],"subjectId":"A2GXEIRTHCKDHK","assignmentId":"3K4J6M3CXFF4Q8QE4JQEZQO3455AGX","hitId":"3UDTAB6HH6LRO17U79I9TKUGSHV90J","url":"https://gershmanlab.com/experiments/alicia/teaching/experiment/?hitId=3UDTAB6HH6LRO17U79I9TKUGSHV90J&workerId=A2GXEIRTHCKDHK&assignmentId=3K4J6M3CXFF4Q8QE4JQEZQO3455AGX&a=C64K9&tp_a=C64K9&b=3K4J6M3CXFF4Q8QE4JQEZQO3455AGX&tp_b=3K4J6M3CXFF4Q8QE4JQEZQO3455AGX&c=365799&tp_c=365799"},{"rt":1214,"stimulus":"\n            <h4 style=\"color:Orange;\">Student 6</h4>\n            <h2>The weight of your coin is <b style=\"color:Tomato;\">0.2</b>.</h2>\n            <p>In this block, you will be giving <b>two</b> sets of examples to Student 6.</p>\n                <p>You will see the student's guess after the first set of examples. You will also receive feedback at the end of the block.</p>\n            <p>To earn the highest bonus, you will have to <b>take into consideration the student's guess</b> when you choose your second set of examples.</p>","response":0,"trial_type":"html-button-response","trial_index":54,"time_elapsed":1063789,"internal_node_id":"0.0-38.0","params":{"nStudents":24,"maxFlips":30,"completionMinutes":45,"basePay":8,"maxBonus":9,"perTrialBonus":0.5,"perTrialBonusThreshold":0.05,"exampleCost":0.01},"classroomParams":{"A":{"a":1,"b":4},"B":{"a":4,"b":1},"C":{"a":2,"b":8},"D":{"a":8,"b":2}},"conditions":["nonSeqFull","nonSeqPartial","seqNoFeedback","seqFeedback"],"classroomPairings":[["A","B"],["C","D"]],"coinWeights":[0.2,0.5,0.8],"subjectId":"A2GXEIRTHCKDHK","assignmentId":"3K4J6M3CXFF4Q8QE4JQEZQO3455AGX","hitId":"3UDTAB6HH6LRO17U79I9TKUGSHV90J","url":"https://gershmanlab.com/experiments/alicia/teaching/experiment/?hitId=3UDTAB6HH6LRO17U79I9TKUGSHV90J&workerId=A2GXEIRTHCKDHK&assignmentId=3K4J6M3CXFF4Q8QE4JQEZQO3455AGX&a=C64K9&tp_a=C64K9&b=3K4J6M3CXFF4Q8QE4JQEZQO3455AGX&tp_b=3K4J6M3CXFF4Q8QE4JQEZQO3455AGX&c=365799&tp_c=365799"},{"rt":12004,"response":{"heads":"0","tails":"4"},"type":"response","condition":"seqFeedback","trueTheta":0.2,"classrooms":["A","B"],"studentTrueClassroom":"A","exampleSet":"first","trial_type":"survey-html-form","trial_index":55,"time_elapsed":1075797,"internal_node_id":"0.0-39.0-0.0","params":{"nStudents":24,"maxFlips":30,"completionMinutes":45,"basePay":8,"maxBonus":9,"perTrialBonus":0.5,"perTrialBonusThreshold":0.05,"exampleCost":0.01},"classroomParams":{"A":{"a":1,"b":4},"B":{"a":4,"b":1},"C":{"a":2,"b":8},"D":{"a":8,"b":2}},"conditions":["nonSeqFull","nonSeqPartial","seqNoFeedback","seqFeedback"],"classroomPairings":[["A","B"],["C","D"]],"coinWeights":[0.2,0.5,0.8],"subjectId":"A2GXEIRTHCKDHK","assignmentId":"3K4J6M3CXFF4Q8QE4JQEZQO3455AGX","hitId":"3UDTAB6HH6LRO17U79I9TKUGSHV90J","url":"https://gershmanlab.com/experiments/alicia/teaching/experiment/?hitId=3UDTAB6HH6LRO17U79I9TKUGSHV90J&workerId=A2GXEIRTHCKDHK&assignmentId=3K4J6M3CXFF4Q8QE4JQEZQO3455AGX&a=C64K9&tp_a=C64K9&b=3K4J6M3CXFF4Q8QE4JQEZQO3455AGX&tp_b=3K4J6M3CXFF4Q8QE4JQEZQO3455AGX&c=365799&tp_c=365799","heads":0,"tails":4,"studentIndex":5,"studentTrueHypers":{"a":1,"b":4},"studentGuess":0.1111111111111111,"delta":0.0888888888888889,"totalExamples":4,"bonusSoFar":0.9},{"rt":null,"stimulus":"Sending examples to student... ","response":null,"trial_type":"html-keyboard-response","trial_index":56,"time_elapsed":1077311,"internal_node_id":"0.0-40.0","params":{"nStudents":24,"maxFlips":30,"completionMinutes":45,"basePay":8,"maxBonus":9,"perTrialBonus":0.5,"perTrialBonusThreshold":0.05,"exampleCost":0.01},"classroomParams":{"A":{"a":1,"b":4},"B":{"a":4,"b":1},"C":{"a":2,"b":8},"D":{"a":8,"b":2}},"conditions":["nonSeqFull","nonSeqPartial","seqNoFeedback","seqFeedback"],"classroomPairings":[["A","B"],["C","D"]],"coinWeights":[0.2,0.5,0.8],"subjectId":"A2GXEIRTHCKDHK","assignmentId":"3K4J6M3CXFF4Q8QE4JQEZQO3455AGX","hitId":"3UDTAB6HH6LRO17U79I9TKUGSHV90J","url":"https://gershmanlab.com/experiments/alicia/teaching/experiment/?hitId=3UDTAB6HH6LRO17U79I9TKUGSHV90J&workerId=A2GXEIRTHCKDHK&assignmentId=3K4J6M3CXFF4Q8QE4JQEZQO3455AGX&a=C64K9&tp_a=C64K9&b=3K4J6M3CXFF4Q8QE4JQEZQO3455AGX&tp_b=3K4J6M3CXFF4Q8QE4JQEZQO3455AGX&c=365799&tp_c=365799"},{"rt":null,"stimulus":"Examples sent to student! Waiting for student...","response":null,"trial_type":"html-keyboard-response","trial_index":57,"time_elapsed":1081322,"internal_node_id":"0.0-41.0","params":{"nStudents":24,"maxFlips":30,"completionMinutes":45,"basePay":8,"maxBonus":9,"perTrialBonus":0.5,"perTrialBonusThreshold":0.05,"exampleCost":0.01},"classroomParams":{"A":{"a":1,"b":4},"B":{"a":4,"b":1},"C":{"a":2,"b":8},"D":{"a":8,"b":2}},"conditions":["nonSeqFull","nonSeqPartial","seqNoFeedback","seqFeedback"],"classroomPairings":[["A","B"],["C","D"]],"coinWeights":[0.2,0.5,0.8],"subjectId":"A2GXEIRTHCKDHK","assignmentId":"3K4J6M3CXFF4Q8QE4JQEZQO3455AGX","hitId":"3UDTAB6HH6LRO17U79I9TKUGSHV90J","url":"https://gershmanlab.com/experiments/alicia/teaching/experiment/?hitId=3UDTAB6HH6LRO17U79I9TKUGSHV90J&workerId=A2GXEIRTHCKDHK&assignmentId=3K4J6M3CXFF4Q8QE4JQEZQO3455AGX&a=C64K9&tp_a=C64K9&b=3K4J6M3CXFF4Q8QE4JQEZQO3455AGX&tp_b=3K4J6M3CXFF4Q8QE4JQEZQO3455AGX&c=365799&tp_c=365799"},{"rt":4525,"stimulus":"\n                <p>Student's guess for coin weight: <b style=\"color:Tomato;\">0.11</b></p>\n                <p></b></p>\n                <p>You will now send another set of examples to your student. <b>Remember to take your student's guess into consideration so that you can earn the highest bonus possible!</b> </p>\n                <p>Press any key to continue.</p>\n                ","response":"enter","trial_type":"html-keyboard-response","trial_index":58,"time_elapsed":1085849,"internal_node_id":"0.0-42.0","params":{"nStudents":24,"maxFlips":30,"completionMinutes":45,"basePay":8,"maxBonus":9,"perTrialBonus":0.5,"perTrialBonusThreshold":0.05,"exampleCost":0.01},"classroomParams":{"A":{"a":1,"b":4},"B":{"a":4,"b":1},"C":{"a":2,"b":8},"D":{"a":8,"b":2}},"conditions":["nonSeqFull","nonSeqPartial","seqNoFeedback","seqFeedback"],"classroomPairings":[["A","B"],["C","D"]],"coinWeights":[0.2,0.5,0.8],"subjectId":"A2GXEIRTHCKDHK","assignmentId":"3K4J6M3CXFF4Q8QE4JQEZQO3455AGX","hitId":"3UDTAB6HH6LRO17U79I9TKUGSHV90J","url":"https://gershmanlab.com/experiments/alicia/teaching/experiment/?hitId=3UDTAB6HH6LRO17U79I9TKUGSHV90J&workerId=A2GXEIRTHCKDHK&assignmentId=3K4J6M3CXFF4Q8QE4JQEZQO3455AGX&a=C64K9&tp_a=C64K9&b=3K4J6M3CXFF4Q8QE4JQEZQO3455AGX&tp_b=3K4J6M3CXFF4Q8QE4JQEZQO3455AGX&c=365799&tp_c=365799"},{"rt":9702,"response":{"heads":"1","tails":"6"},"type":"response","condition":"seqFeedback","trueTheta":0.2,"classrooms":["A","B"],"studentTrueClassroom":"A","exampleSet":"second","trial_type":"survey-html-form","trial_index":59,"time_elapsed":1095555,"internal_node_id":"0.0-43.0-0.0","params":{"nStudents":24,"maxFlips":30,"completionMinutes":45,"basePay":8,"maxBonus":9,"perTrialBonus":0.5,"perTrialBonusThreshold":0.05,"exampleCost":0.01},"classroomParams":{"A":{"a":1,"b":4},"B":{"a":4,"b":1},"C":{"a":2,"b":8},"D":{"a":8,"b":2}},"conditions":["nonSeqFull","nonSeqPartial","seqNoFeedback","seqFeedback"],"classroomPairings":[["A","B"],["C","D"]],"coinWeights":[0.2,0.5,0.8],"subjectId":"A2GXEIRTHCKDHK","assignmentId":"3K4J6M3CXFF4Q8QE4JQEZQO3455AGX","hitId":"3UDTAB6HH6LRO17U79I9TKUGSHV90J","url":"https://gershmanlab.com/experiments/alicia/teaching/experiment/?hitId=3UDTAB6HH6LRO17U79I9TKUGSHV90J&workerId=A2GXEIRTHCKDHK&assignmentId=3K4J6M3CXFF4Q8QE4JQEZQO3455AGX&a=C64K9&tp_a=C64K9&b=3K4J6M3CXFF4Q8QE4JQEZQO3455AGX&tp_b=3K4J6M3CXFF4Q8QE4JQEZQO3455AGX&c=365799&tp_c=365799","firstResponseHeads":0,"firstResponseTails":4,"secondResponseHeads":1,"secondResponseTails":6,"totalHeads":1,"totalTails":10,"studentIndex":5,"studentTrueHypers":{"a":1,"b":4},"studentGuess":0.125,"delta":0.07500000000000001,"bonus":0,"bonusSoFar":0.9,"totalExamples":11},{"rt":null,"stimulus":"Sending examples to student... ","response":null,"trial_type":"html-keyboard-response","trial_index":60,"time_elapsed":1097065,"internal_node_id":"0.0-44.0","params":{"nStudents":24,"maxFlips":30,"completionMinutes":45,"basePay":8,"maxBonus":9,"perTrialBonus":0.5,"perTrialBonusThreshold":0.05,"exampleCost":0.01},"classroomParams":{"A":{"a":1,"b":4},"B":{"a":4,"b":1},"C":{"a":2,"b":8},"D":{"a":8,"b":2}},"conditions":["nonSeqFull","nonSeqPartial","seqNoFeedback","seqFeedback"],"classroomPairings":[["A","B"],["C","D"]],"coinWeights":[0.2,0.5,0.8],"subjectId":"A2GXEIRTHCKDHK","assignmentId":"3K4J6M3CXFF4Q8QE4JQEZQO3455AGX","hitId":"3UDTAB6HH6LRO17U79I9TKUGSHV90J","url":"https://gershmanlab.com/experiments/alicia/teaching/experiment/?hitId=3UDTAB6HH6LRO17U79I9TKUGSHV90J&workerId=A2GXEIRTHCKDHK&assignmentId=3K4J6M3CXFF4Q8QE4JQEZQO3455AGX&a=C64K9&tp_a=C64K9&b=3K4J6M3CXFF4Q8QE4JQEZQO3455AGX&tp_b=3K4J6M3CXFF4Q8QE4JQEZQO3455AGX&c=365799&tp_c=365799"},{"rt":null,"stimulus":"Examples sent to student! Waiting for student...","response":null,"trial_type":"html-keyboard-response","trial_index":61,"time_elapsed":1101574,"internal_node_id":"0.0-45.0","params":{"nStudents":24,"maxFlips":30,"completionMinutes":45,"basePay":8,"maxBonus":9,"perTrialBonus":0.5,"perTrialBonusThreshold":0.05,"exampleCost":0.01},"classroomParams":{"A":{"a":1,"b":4},"B":{"a":4,"b":1},"C":{"a":2,"b":8},"D":{"a":8,"b":2}},"conditions":["nonSeqFull","nonSeqPartial","seqNoFeedback","seqFeedback"],"classroomPairings":[["A","B"],["C","D"]],"coinWeights":[0.2,0.5,0.8],"subjectId":"A2GXEIRTHCKDHK","assignmentId":"3K4J6M3CXFF4Q8QE4JQEZQO3455AGX","hitId":"3UDTAB6HH6LRO17U79I9TKUGSHV90J","url":"https://gershmanlab.com/experiments/alicia/teaching/experiment/?hitId=3UDTAB6HH6LRO17U79I9TKUGSHV90J&workerId=A2GXEIRTHCKDHK&assignmentId=3K4J6M3CXFF4Q8QE4JQEZQO3455AGX&a=C64K9&tp_a=C64K9&b=3K4J6M3CXFF4Q8QE4JQEZQO3455AGX&tp_b=3K4J6M3CXFF4Q8QE4JQEZQO3455AGX&c=365799&tp_c=365799"},{"rt":5501,"stimulus":"\n                <p>Student 6's first guess for coin weight: <b style=\"color:Tomato\";>0.11</b></p>\n                <p>Student 6's second guess for coin weight: <b style=\"color:Tomato\";>0.13</b></p>\n                <p>You received a bonus of <b>$0.00</b> based on the student's second guess.</p>\n                <p>Total bonus so far: <b>$0.90</b></p>\n                <p>Press any key to continue.</p>\n                ","response":"enter","trial_type":"html-keyboard-response","trial_index":62,"time_elapsed":1107082,"internal_node_id":"0.0-46.0","params":{"nStudents":24,"maxFlips":30,"completionMinutes":45,"basePay":8,"maxBonus":9,"perTrialBonus":0.5,"perTrialBonusThreshold":0.05,"exampleCost":0.01},"classroomParams":{"A":{"a":1,"b":4},"B":{"a":4,"b":1},"C":{"a":2,"b":8},"D":{"a":8,"b":2}},"conditions":["nonSeqFull","nonSeqPartial","seqNoFeedback","seqFeedback"],"classroomPairings":[["A","B"],["C","D"]],"coinWeights":[0.2,0.5,0.8],"subjectId":"A2GXEIRTHCKDHK","assignmentId":"3K4J6M3CXFF4Q8QE4JQEZQO3455AGX","hitId":"3UDTAB6HH6LRO17U79I9TKUGSHV90J","url":"https://gershmanlab.com/experiments/alicia/teaching/experiment/?hitId=3UDTAB6HH6LRO17U79I9TKUGSHV90J&workerId=A2GXEIRTHCKDHK&assignmentId=3K4J6M3CXFF4Q8QE4JQEZQO3455AGX&a=C64K9&tp_a=C64K9&b=3K4J6M3CXFF4Q8QE4JQEZQO3455AGX&tp_b=3K4J6M3CXFF4Q8QE4JQEZQO3455AGX&c=365799&tp_c=365799"},{"rt":null,"stimulus":"<div style=\"font-size:60px;\">Next student</div>","response":null,"trial_type":"html-keyboard-response","trial_index":63,"time_elapsed":1109335,"internal_node_id":"0.0-47.0-0.0","params":{"nStudents":24,"maxFlips":30,"completionMinutes":45,"basePay":8,"maxBonus":9,"perTrialBonus":0.5,"perTrialBonusThreshold":0.05,"exampleCost":0.01},"classroomParams":{"A":{"a":1,"b":4},"B":{"a":4,"b":1},"C":{"a":2,"b":8},"D":{"a":8,"b":2}},"conditions":["nonSeqFull","nonSeqPartial","seqNoFeedback","seqFeedback"],"classroomPairings":[["A","B"],["C","D"]],"coinWeights":[0.2,0.5,0.8],"subjectId":"A2GXEIRTHCKDHK","assignmentId":"3K4J6M3CXFF4Q8QE4JQEZQO3455AGX","hitId":"3UDTAB6HH6LRO17U79I9TKUGSHV90J","url":"https://gershmanlab.com/experiments/alicia/teaching/experiment/?hitId=3UDTAB6HH6LRO17U79I9TKUGSHV90J&workerId=A2GXEIRTHCKDHK&assignmentId=3K4J6M3CXFF4Q8QE4JQEZQO3455AGX&a=C64K9&tp_a=C64K9&b=3K4J6M3CXFF4Q8QE4JQEZQO3455AGX&tp_b=3K4J6M3CXFF4Q8QE4JQEZQO3455AGX&c=365799&tp_c=365799"},{"rt":2112,"stimulus":"\n            <h4 style=\"color:Orange;\">Student 7</h4>\n            <h2>The weight of your coin is <b style=\"color:Tomato;\">0.2</b>.</h2>\n            <p>In this block, you will be giving <b>two</b> sets of examples to Student 7.</p>\n                <p>You will see the student's guess after the first set of examples. You will also receive feedback at the end of the block.</p>\n            <p>To earn the highest bonus, you will have to <b>take into consideration the student's guess</b> when you choose your second set of examples.</p>","response":0,"trial_type":"html-button-response","trial_index":64,"time_elapsed":1111450,"internal_node_id":"0.0-48.0","params":{"nStudents":24,"maxFlips":30,"completionMinutes":45,"basePay":8,"maxBonus":9,"perTrialBonus":0.5,"perTrialBonusThreshold":0.05,"exampleCost":0.01},"classroomParams":{"A":{"a":1,"b":4},"B":{"a":4,"b":1},"C":{"a":2,"b":8},"D":{"a":8,"b":2}},"conditions":["nonSeqFull","nonSeqPartial","seqNoFeedback","seqFeedback"],"classroomPairings":[["A","B"],["C","D"]],"coinWeights":[0.2,0.5,0.8],"subjectId":"A2GXEIRTHCKDHK","assignmentId":"3K4J6M3CXFF4Q8QE4JQEZQO3455AGX","hitId":"3UDTAB6HH6LRO17U79I9TKUGSHV90J","url":"https://gershmanlab.com/experiments/alicia/teaching/experiment/?hitId=3UDTAB6HH6LRO17U79I9TKUGSHV90J&workerId=A2GXEIRTHCKDHK&assignmentId=3K4J6M3CXFF4Q8QE4JQEZQO3455AGX&a=C64K9&tp_a=C64K9&b=3K4J6M3CXFF4Q8QE4JQEZQO3455AGX&tp_b=3K4J6M3CXFF4Q8QE4JQEZQO3455AGX&c=365799&tp_c=365799"},{"rt":3380,"response":{"heads":"0","tails":"5"},"type":"response","condition":"seqFeedback","trueTheta":0.2,"classrooms":["C","D"],"studentTrueClassroom":"D","exampleSet":"first","trial_type":"survey-html-form","trial_index":65,"time_elapsed":1114836,"internal_node_id":"0.0-49.0-0.0","params":{"nStudents":24,"maxFlips":30,"completionMinutes":45,"basePay":8,"maxBonus":9,"perTrialBonus":0.5,"perTrialBonusThreshold":0.05,"exampleCost":0.01},"classroomParams":{"A":{"a":1,"b":4},"B":{"a":4,"b":1},"C":{"a":2,"b":8},"D":{"a":8,"b":2}},"conditions":["nonSeqFull","nonSeqPartial","seqNoFeedback","seqFeedback"],"classroomPairings":[["A","B"],["C","D"]],"coinWeights":[0.2,0.5,0.8],"subjectId":"A2GXEIRTHCKDHK","assignmentId":"3K4J6M3CXFF4Q8QE4JQEZQO3455AGX","hitId":"3UDTAB6HH6LRO17U79I9TKUGSHV90J","url":"https://gershmanlab.com/experiments/alicia/teaching/experiment/?hitId=3UDTAB6HH6LRO17U79I9TKUGSHV90J&workerId=A2GXEIRTHCKDHK&assignmentId=3K4J6M3CXFF4Q8QE4JQEZQO3455AGX&a=C64K9&tp_a=C64K9&b=3K4J6M3CXFF4Q8QE4JQEZQO3455AGX&tp_b=3K4J6M3CXFF4Q8QE4JQEZQO3455AGX&c=365799&tp_c=365799","heads":0,"tails":5,"studentIndex":6,"studentTrueHypers":{"a":8,"b":2},"studentGuess":0.5333333333333333,"delta":0.3333333333333333,"totalExamples":5,"bonusSoFar":0.9},{"rt":null,"stimulus":"Sending examples to student... ","response":null,"trial_type":"html-keyboard-response","trial_index":66,"time_elapsed":1116595,"internal_node_id":"0.0-50.0","params":{"nStudents":24,"maxFlips":30,"completionMinutes":45,"basePay":8,"maxBonus":9,"perTrialBonus":0.5,"perTrialBonusThreshold":0.05,"exampleCost":0.01},"classroomParams":{"A":{"a":1,"b":4},"B":{"a":4,"b":1},"C":{"a":2,"b":8},"D":{"a":8,"b":2}},"conditions":["nonSeqFull","nonSeqPartial","seqNoFeedback","seqFeedback"],"classroomPairings":[["A","B"],["C","D"]],"coinWeights":[0.2,0.5,0.8],"subjectId":"A2GXEIRTHCKDHK","assignmentId":"3K4J6M3CXFF4Q8QE4JQEZQO3455AGX","hitId":"3UDTAB6HH6LRO17U79I9TKUGSHV90J","url":"https://gershmanlab.com/experiments/alicia/teaching/experiment/?hitId=3UDTAB6HH6LRO17U79I9TKUGSHV90J&workerId=A2GXEIRTHCKDHK&assignmentId=3K4J6M3CXFF4Q8QE4JQEZQO3455AGX&a=C64K9&tp_a=C64K9&b=3K4J6M3CXFF4Q8QE4JQEZQO3455AGX&tp_b=3K4J6M3CXFF4Q8QE4JQEZQO3455AGX&c=365799&tp_c=365799"},{"rt":null,"stimulus":"Examples sent to student! Waiting for student...","response":null,"trial_type":"html-keyboard-response","trial_index":67,"time_elapsed":1121109,"internal_node_id":"0.0-51.0","params":{"nStudents":24,"maxFlips":30,"completionMinutes":45,"basePay":8,"maxBonus":9,"perTrialBonus":0.5,"perTrialBonusThreshold":0.05,"exampleCost":0.01},"classroomParams":{"A":{"a":1,"b":4},"B":{"a":4,"b":1},"C":{"a":2,"b":8},"D":{"a":8,"b":2}},"conditions":["nonSeqFull","nonSeqPartial","seqNoFeedback","seqFeedback"],"classroomPairings":[["A","B"],["C","D"]],"coinWeights":[0.2,0.5,0.8],"subjectId":"A2GXEIRTHCKDHK","assignmentId":"3K4J6M3CXFF4Q8QE4JQEZQO3455AGX","hitId":"3UDTAB6HH6LRO17U79I9TKUGSHV90J","url":"https://gershmanlab.com/experiments/alicia/teaching/experiment/?hitId=3UDTAB6HH6LRO17U79I9TKUGSHV90J&workerId=A2GXEIRTHCKDHK&assignmentId=3K4J6M3CXFF4Q8QE4JQEZQO3455AGX&a=C64K9&tp_a=C64K9&b=3K4J6M3CXFF4Q8QE4JQEZQO3455AGX&tp_b=3K4J6M3CXFF4Q8QE4JQEZQO3455AGX&c=365799&tp_c=365799"},{"rt":2209,"stimulus":"\n                <p>Student's guess for coin weight: <b style=\"color:Tomato;\">0.53</b></p>\n                <p></b></p>\n                <p>You will now send another set of examples to your student. <b>Remember to take your student's guess into consideration so that you can earn the highest bonus possible!</b> </p>\n                <p>Press any key to continue.</p>\n                ","response":"enter","trial_type":"html-keyboard-response","trial_index":68,"time_elapsed":1123322,"internal_node_id":"0.0-52.0","params":{"nStudents":24,"maxFlips":30,"completionMinutes":45,"basePay":8,"maxBonus":9,"perTrialBonus":0.5,"perTrialBonusThreshold":0.05,"exampleCost":0.01},"classroomParams":{"A":{"a":1,"b":4},"B":{"a":4,"b":1},"C":{"a":2,"b":8},"D":{"a":8,"b":2}},"conditions":["nonSeqFull","nonSeqPartial","seqNoFeedback","seqFeedback"],"classroomPairings":[["A","B"],["C","D"]],"coinWeights":[0.2,0.5,0.8],"subjectId":"A2GXEIRTHCKDHK","assignmentId":"3K4J6M3CXFF4Q8QE4JQEZQO3455AGX","hitId":"3UDTAB6HH6LRO17U79I9TKUGSHV90J","url":"https://gershmanlab.com/experiments/alicia/teaching/experiment/?hitId=3UDTAB6HH6LRO17U79I9TKUGSHV90J&workerId=A2GXEIRTHCKDHK&assignmentId=3K4J6M3CXFF4Q8QE4JQEZQO3455AGX&a=C64K9&tp_a=C64K9&b=3K4J6M3CXFF4Q8QE4JQEZQO3455AGX&tp_b=3K4J6M3CXFF4Q8QE4JQEZQO3455AGX&c=365799&tp_c=365799"},{"rt":6264,"response":{"heads":"1","tails":"10"},"type":"response","condition":"seqFeedback","trueTheta":0.2,"classrooms":["C","D"],"studentTrueClassroom":"D","exampleSet":"second","trial_type":"survey-html-form","trial_index":69,"time_elapsed":1129590,"internal_node_id":"0.0-53.0-0.0","params":{"nStudents":24,"maxFlips":30,"completionMinutes":45,"basePay":8,"maxBonus":9,"perTrialBonus":0.5,"perTrialBonusThreshold":0.05,"exampleCost":0.01},"classroomParams":{"A":{"a":1,"b":4},"B":{"a":4,"b":1},"C":{"a":2,"b":8},"D":{"a":8,"b":2}},"conditions":["nonSeqFull","nonSeqPartial","seqNoFeedback","seqFeedback"],"classroomPairings":[["A","B"],["C","D"]],"coinWeights":[0.2,0.5,0.8],"subjectId":"A2GXEIRTHCKDHK","assignmentId":"3K4J6M3CXFF4Q8QE4JQEZQO3455AGX","hitId":"3UDTAB6HH6LRO17U79I9TKUGSHV90J","url":"https://gershmanlab.com/experiments/alicia/teaching/experiment/?hitId=3UDTAB6HH6LRO17U79I9TKUGSHV90J&workerId=A2GXEIRTHCKDHK&assignmentId=3K4J6M3CXFF4Q8QE4JQEZQO3455AGX&a=C64K9&tp_a=C64K9&b=3K4J6M3CXFF4Q8QE4JQEZQO3455AGX&tp_b=3K4J6M3CXFF4Q8QE4JQEZQO3455AGX&c=365799&tp_c=365799","firstResponseHeads":0,"firstResponseTails":5,"secondResponseHeads":1,"secondResponseTails":10,"totalHeads":1,"totalTails":15,"studentIndex":6,"studentTrueHypers":{"a":8,"b":2},"studentGuess":0.34615384615384615,"delta":0.14615384615384613,"bonus":0,"bonusSoFar":0.9,"totalExamples":16},{"rt":null,"stimulus":"Sending examples to student... ","response":null,"trial_type":"html-keyboard-response","trial_index":70,"time_elapsed":1131105,"internal_node_id":"0.0-54.0","params":{"nStudents":24,"maxFlips":30,"completionMinutes":45,"basePay":8,"maxBonus":9,"perTrialBonus":0.5,"perTrialBonusThreshold":0.05,"exampleCost":0.01},"classroomParams":{"A":{"a":1,"b":4},"B":{"a":4,"b":1},"C":{"a":2,"b":8},"D":{"a":8,"b":2}},"conditions":["nonSeqFull","nonSeqPartial","seqNoFeedback","seqFeedback"],"classroomPairings":[["A","B"],["C","D"]],"coinWeights":[0.2,0.5,0.8],"subjectId":"A2GXEIRTHCKDHK","assignmentId":"3K4J6M3CXFF4Q8QE4JQEZQO3455AGX","hitId":"3UDTAB6HH6LRO17U79I9TKUGSHV90J","url":"https://gershmanlab.com/experiments/alicia/teaching/experiment/?hitId=3UDTAB6HH6LRO17U79I9TKUGSHV90J&workerId=A2GXEIRTHCKDHK&assignmentId=3K4J6M3CXFF4Q8QE4JQEZQO3455AGX&a=C64K9&tp_a=C64K9&b=3K4J6M3CXFF4Q8QE4JQEZQO3455AGX&tp_b=3K4J6M3CXFF4Q8QE4JQEZQO3455AGX&c=365799&tp_c=365799"},{"rt":null,"stimulus":"Examples sent to student! Waiting for student...","response":null,"trial_type":"html-keyboard-response","trial_index":71,"time_elapsed":1135116,"internal_node_id":"0.0-55.0","params":{"nStudents":24,"maxFlips":30,"completionMinutes":45,"basePay":8,"maxBonus":9,"perTrialBonus":0.5,"perTrialBonusThreshold":0.05,"exampleCost":0.01},"classroomParams":{"A":{"a":1,"b":4},"B":{"a":4,"b":1},"C":{"a":2,"b":8},"D":{"a":8,"b":2}},"conditions":["nonSeqFull","nonSeqPartial","seqNoFeedback","seqFeedback"],"classroomPairings":[["A","B"],["C","D"]],"coinWeights":[0.2,0.5,0.8],"subjectId":"A2GXEIRTHCKDHK","assignmentId":"3K4J6M3CXFF4Q8QE4JQEZQO3455AGX","hitId":"3UDTAB6HH6LRO17U79I9TKUGSHV90J","url":"https://gershmanlab.com/experiments/alicia/teaching/experiment/?hitId=3UDTAB6HH6LRO17U79I9TKUGSHV90J&workerId=A2GXEIRTHCKDHK&assignmentId=3K4J6M3CXFF4Q8QE4JQEZQO3455AGX&a=C64K9&tp_a=C64K9&b=3K4J6M3CXFF4Q8QE4JQEZQO3455AGX&tp_b=3K4J6M3CXFF4Q8QE4JQEZQO3455AGX&c=365799&tp_c=365799"},{"rt":3949,"stimulus":"\n                <p>Student 7's first guess for coin weight: <b style=\"color:Tomato\";>0.53</b></p>\n                <p>Student 7's second guess for coin weight: <b style=\"color:Tomato\";>0.35</b></p>\n                <p>You received a bonus of <b>$0.00</b> based on the student's second guess.</p>\n                <p>Total bonus so far: <b>$0.90</b></p>\n                <p>Press any key to continue.</p>\n                ","response":"enter","trial_type":"html-keyboard-response","trial_index":72,"time_elapsed":1139066,"internal_node_id":"0.0-56.0","params":{"nStudents":24,"maxFlips":30,"completionMinutes":45,"basePay":8,"maxBonus":9,"perTrialBonus":0.5,"perTrialBonusThreshold":0.05,"exampleCost":0.01},"classroomParams":{"A":{"a":1,"b":4},"B":{"a":4,"b":1},"C":{"a":2,"b":8},"D":{"a":8,"b":2}},"conditions":["nonSeqFull","nonSeqPartial","seqNoFeedback","seqFeedback"],"classroomPairings":[["A","B"],["C","D"]],"coinWeights":[0.2,0.5,0.8],"subjectId":"A2GXEIRTHCKDHK","assignmentId":"3K4J6M3CXFF4Q8QE4JQEZQO3455AGX","hitId":"3UDTAB6HH6LRO17U79I9TKUGSHV90J","url":"https://gershmanlab.com/experiments/alicia/teaching/experiment/?hitId=3UDTAB6HH6LRO17U79I9TKUGSHV90J&workerId=A2GXEIRTHCKDHK&assignmentId=3K4J6M3CXFF4Q8QE4JQEZQO3455AGX&a=C64K9&tp_a=C64K9&b=3K4J6M3CXFF4Q8QE4JQEZQO3455AGX&tp_b=3K4J6M3CXFF4Q8QE4JQEZQO3455AGX&c=365799&tp_c=365799"},{"rt":null,"stimulus":"<div style=\"font-size:60px;\">Next student</div>","response":null,"trial_type":"html-keyboard-response","trial_index":73,"time_elapsed":1142070,"internal_node_id":"0.0-57.0-0.0","params":{"nStudents":24,"maxFlips":30,"completionMinutes":45,"basePay":8,"maxBonus":9,"perTrialBonus":0.5,"perTrialBonusThreshold":0.05,"exampleCost":0.01},"classroomParams":{"A":{"a":1,"b":4},"B":{"a":4,"b":1},"C":{"a":2,"b":8},"D":{"a":8,"b":2}},"conditions":["nonSeqFull","nonSeqPartial","seqNoFeedback","seqFeedback"],"classroomPairings":[["A","B"],["C","D"]],"coinWeights":[0.2,0.5,0.8],"subjectId":"A2GXEIRTHCKDHK","assignmentId":"3K4J6M3CXFF4Q8QE4JQEZQO3455AGX","hitId":"3UDTAB6HH6LRO17U79I9TKUGSHV90J","url":"https://gershmanlab.com/experiments/alicia/teaching/experiment/?hitId=3UDTAB6HH6LRO17U79I9TKUGSHV90J&workerId=A2GXEIRTHCKDHK&assignmentId=3K4J6M3CXFF4Q8QE4JQEZQO3455AGX&a=C64K9&tp_a=C64K9&b=3K4J6M3CXFF4Q8QE4JQEZQO3455AGX&tp_b=3K4J6M3CXFF4Q8QE4JQEZQO3455AGX&c=365799&tp_c=365799"},{"rt":1311,"stimulus":"\n            <h4 style=\"color:Orange;\">Student 8</h4>\n            <h2>The weight of your coin is <b style=\"color:Tomato;\">0.5</b>.</h2>\n            <p>In this block, you will be giving <b>two</b> sets of examples to Student 8.</p>\n                <p>You will receive feedback at the end of the block.</p>\n            <p></p>","response":0,"trial_type":"html-button-response","trial_index":74,"time_elapsed":1143387,"internal_node_id":"0.0-58.0","params":{"nStudents":24,"maxFlips":30,"completionMinutes":45,"basePay":8,"maxBonus":9,"perTrialBonus":0.5,"perTrialBonusThreshold":0.05,"exampleCost":0.01},"classroomParams":{"A":{"a":1,"b":4},"B":{"a":4,"b":1},"C":{"a":2,"b":8},"D":{"a":8,"b":2}},"conditions":["nonSeqFull","nonSeqPartial","seqNoFeedback","seqFeedback"],"classroomPairings":[["A","B"],["C","D"]],"coinWeights":[0.2,0.5,0.8],"subjectId":"A2GXEIRTHCKDHK","assignmentId":"3K4J6M3CXFF4Q8QE4JQEZQO3455AGX","hitId":"3UDTAB6HH6LRO17U79I9TKUGSHV90J","url":"https://gershmanlab.com/experiments/alicia/teaching/experiment/?hitId=3UDTAB6HH6LRO17U79I9TKUGSHV90J&workerId=A2GXEIRTHCKDHK&assignmentId=3K4J6M3CXFF4Q8QE4JQEZQO3455AGX&a=C64K9&tp_a=C64K9&b=3K4J6M3CXFF4Q8QE4JQEZQO3455AGX&tp_b=3K4J6M3CXFF4Q8QE4JQEZQO3455AGX&c=365799&tp_c=365799"},{"rt":5672,"response":{"heads":"5","tails":"5"},"type":"response","condition":"seqNoFeedback","trueTheta":0.5,"classrooms":["C","D"],"studentTrueClassroom":"D","exampleSet":"first","trial_type":"survey-html-form","trial_index":75,"time_elapsed":1149064,"internal_node_id":"0.0-59.0-0.0","params":{"nStudents":24,"maxFlips":30,"completionMinutes":45,"basePay":8,"maxBonus":9,"perTrialBonus":0.5,"perTrialBonusThreshold":0.05,"exampleCost":0.01},"classroomParams":{"A":{"a":1,"b":4},"B":{"a":4,"b":1},"C":{"a":2,"b":8},"D":{"a":8,"b":2}},"conditions":["nonSeqFull","nonSeqPartial","seqNoFeedback","seqFeedback"],"classroomPairings":[["A","B"],["C","D"]],"coinWeights":[0.2,0.5,0.8],"subjectId":"A2GXEIRTHCKDHK","assignmentId":"3K4J6M3CXFF4Q8QE4JQEZQO3455AGX","hitId":"3UDTAB6HH6LRO17U79I9TKUGSHV90J","url":"https://gershmanlab.com/experiments/alicia/teaching/experiment/?hitId=3UDTAB6HH6LRO17U79I9TKUGSHV90J&workerId=A2GXEIRTHCKDHK&assignmentId=3K4J6M3CXFF4Q8QE4JQEZQO3455AGX&a=C64K9&tp_a=C64K9&b=3K4J6M3CXFF4Q8QE4JQEZQO3455AGX&tp_b=3K4J6M3CXFF4Q8QE4JQEZQO3455AGX&c=365799&tp_c=365799","heads":5,"tails":5,"studentIndex":7,"studentTrueHypers":{"a":8,"b":2},"studentGuess":0.65,"delta":0.15000000000000002,"totalExamples":10,"bonusSoFar":0.9},{"rt":null,"stimulus":"Sending examples to student... ","response":null,"trial_type":"html-keyboard-response","trial_index":76,"time_elapsed":1150826,"internal_node_id":"0.0-60.0","params":{"nStudents":24,"maxFlips":30,"completionMinutes":45,"basePay":8,"maxBonus":9,"perTrialBonus":0.5,"perTrialBonusThreshold":0.05,"exampleCost":0.01},"classroomParams":{"A":{"a":1,"b":4},"B":{"a":4,"b":1},"C":{"a":2,"b":8},"D":{"a":8,"b":2}},"conditions":["nonSeqFull","nonSeqPartial","seqNoFeedback","seqFeedback"],"classroomPairings":[["A","B"],["C","D"]],"coinWeights":[0.2,0.5,0.8],"subjectId":"A2GXEIRTHCKDHK","assignmentId":"3K4J6M3CXFF4Q8QE4JQEZQO3455AGX","hitId":"3UDTAB6HH6LRO17U79I9TKUGSHV90J","url":"https://gershmanlab.com/experiments/alicia/teaching/experiment/?hitId=3UDTAB6HH6LRO17U79I9TKUGSHV90J&workerId=A2GXEIRTHCKDHK&assignmentId=3K4J6M3CXFF4Q8QE4JQEZQO3455AGX&a=C64K9&tp_a=C64K9&b=3K4J6M3CXFF4Q8QE4JQEZQO3455AGX&tp_b=3K4J6M3CXFF4Q8QE4JQEZQO3455AGX&c=365799&tp_c=365799"},{"rt":null,"stimulus":"Examples sent to student! Waiting for student...","response":null,"trial_type":"html-keyboard-response","trial_index":77,"time_elapsed":1156346,"internal_node_id":"0.0-61.0","params":{"nStudents":24,"maxFlips":30,"completionMinutes":45,"basePay":8,"maxBonus":9,"perTrialBonus":0.5,"perTrialBonusThreshold":0.05,"exampleCost":0.01},"classroomParams":{"A":{"a":1,"b":4},"B":{"a":4,"b":1},"C":{"a":2,"b":8},"D":{"a":8,"b":2}},"conditions":["nonSeqFull","nonSeqPartial","seqNoFeedback","seqFeedback"],"classroomPairings":[["A","B"],["C","D"]],"coinWeights":[0.2,0.5,0.8],"subjectId":"A2GXEIRTHCKDHK","assignmentId":"3K4J6M3CXFF4Q8QE4JQEZQO3455AGX","hitId":"3UDTAB6HH6LRO17U79I9TKUGSHV90J","url":"https://gershmanlab.com/experiments/alicia/teaching/experiment/?hitId=3UDTAB6HH6LRO17U79I9TKUGSHV90J&workerId=A2GXEIRTHCKDHK&assignmentId=3K4J6M3CXFF4Q8QE4JQEZQO3455AGX&a=C64K9&tp_a=C64K9&b=3K4J6M3CXFF4Q8QE4JQEZQO3455AGX&tp_b=3K4J6M3CXFF4Q8QE4JQEZQO3455AGX&c=365799&tp_c=365799"},{"rt":7185,"response":{"heads":"2","tails":"2"},"type":"response","condition":"seqNoFeedback","trueTheta":0.5,"classrooms":["C","D"],"studentTrueClassroom":"D","exampleSet":"second","trial_type":"survey-html-form","trial_index":78,"time_elapsed":1163540,"internal_node_id":"0.0-62.0-0.0","params":{"nStudents":24,"maxFlips":30,"completionMinutes":45,"basePay":8,"maxBonus":9,"perTrialBonus":0.5,"perTrialBonusThreshold":0.05,"exampleCost":0.01},"classroomParams":{"A":{"a":1,"b":4},"B":{"a":4,"b":1},"C":{"a":2,"b":8},"D":{"a":8,"b":2}},"conditions":["nonSeqFull","nonSeqPartial","seqNoFeedback","seqFeedback"],"classroomPairings":[["A","B"],["C","D"]],"coinWeights":[0.2,0.5,0.8],"subjectId":"A2GXEIRTHCKDHK","assignmentId":"3K4J6M3CXFF4Q8QE4JQEZQO3455AGX","hitId":"3UDTAB6HH6LRO17U79I9TKUGSHV90J","url":"https://gershmanlab.com/experiments/alicia/teaching/experiment/?hitId=3UDTAB6HH6LRO17U79I9TKUGSHV90J&workerId=A2GXEIRTHCKDHK&assignmentId=3K4J6M3CXFF4Q8QE4JQEZQO3455AGX&a=C64K9&tp_a=C64K9&b=3K4J6M3CXFF4Q8QE4JQEZQO3455AGX&tp_b=3K4J6M3CXFF4Q8QE4JQEZQO3455AGX&c=365799&tp_c=365799","firstResponseHeads":5,"firstResponseTails":5,"secondResponseHeads":2,"secondResponseTails":2,"totalHeads":7,"totalTails":7,"studentIndex":7,"studentTrueHypers":{"a":8,"b":2},"studentGuess":0.625,"delta":0.125,"bonus":0,"bonusSoFar":0.9,"totalExamples":14},{"rt":null,"stimulus":"Sending examples to student... ","response":null,"trial_type":"html-keyboard-response","trial_index":79,"time_elapsed":1164797,"internal_node_id":"0.0-63.0","params":{"nStudents":24,"maxFlips":30,"completionMinutes":45,"basePay":8,"maxBonus":9,"perTrialBonus":0.5,"perTrialBonusThreshold":0.05,"exampleCost":0.01},"classroomParams":{"A":{"a":1,"b":4},"B":{"a":4,"b":1},"C":{"a":2,"b":8},"D":{"a":8,"b":2}},"conditions":["nonSeqFull","nonSeqPartial","seqNoFeedback","seqFeedback"],"classroomPairings":[["A","B"],["C","D"]],"coinWeights":[0.2,0.5,0.8],"subjectId":"A2GXEIRTHCKDHK","assignmentId":"3K4J6M3CXFF4Q8QE4JQEZQO3455AGX","hitId":"3UDTAB6HH6LRO17U79I9TKUGSHV90J","url":"https://gershmanlab.com/experiments/alicia/teaching/experiment/?hitId=3UDTAB6HH6LRO17U79I9TKUGSHV90J&workerId=A2GXEIRTHCKDHK&assignmentId=3K4J6M3CXFF4Q8QE4JQEZQO3455AGX&a=C64K9&tp_a=C64K9&b=3K4J6M3CXFF4Q8QE4JQEZQO3455AGX&tp_b=3K4J6M3CXFF4Q8QE4JQEZQO3455AGX&c=365799&tp_c=365799"},{"rt":null,"stimulus":"Examples sent to student! Waiting for student...","response":null,"trial_type":"html-keyboard-response","trial_index":80,"time_elapsed":1170816,"internal_node_id":"0.0-64.0","params":{"nStudents":24,"maxFlips":30,"completionMinutes":45,"basePay":8,"maxBonus":9,"perTrialBonus":0.5,"perTrialBonusThreshold":0.05,"exampleCost":0.01},"classroomParams":{"A":{"a":1,"b":4},"B":{"a":4,"b":1},"C":{"a":2,"b":8},"D":{"a":8,"b":2}},"conditions":["nonSeqFull","nonSeqPartial","seqNoFeedback","seqFeedback"],"classroomPairings":[["A","B"],["C","D"]],"coinWeights":[0.2,0.5,0.8],"subjectId":"A2GXEIRTHCKDHK","assignmentId":"3K4J6M3CXFF4Q8QE4JQEZQO3455AGX","hitId":"3UDTAB6HH6LRO17U79I9TKUGSHV90J","url":"https://gershmanlab.com/experiments/alicia/teaching/experiment/?hitId=3UDTAB6HH6LRO17U79I9TKUGSHV90J&workerId=A2GXEIRTHCKDHK&assignmentId=3K4J6M3CXFF4Q8QE4JQEZQO3455AGX&a=C64K9&tp_a=C64K9&b=3K4J6M3CXFF4Q8QE4JQEZQO3455AGX&tp_b=3K4J6M3CXFF4Q8QE4JQEZQO3455AGX&c=365799&tp_c=365799"},{"rt":3108,"stimulus":"\n                <p>Student 8's first guess for coin weight: <b style=\"color:Tomato\";>0.65</b></p>\n                <p>Student 8's second guess for coin weight: <b style=\"color:Tomato\";>0.63</b></p>\n                <p>You received a bonus of <b>$0.00</b> based on the student's second guess.</p>\n                <p>Total bonus so far: <b>$0.90</b></p>\n                <p>Press any key to continue.</p>\n                ","response":"enter","trial_type":"html-keyboard-response","trial_index":81,"time_elapsed":1173932,"internal_node_id":"0.0-65.0","params":{"nStudents":24,"maxFlips":30,"completionMinutes":45,"basePay":8,"maxBonus":9,"perTrialBonus":0.5,"perTrialBonusThreshold":0.05,"exampleCost":0.01},"classroomParams":{"A":{"a":1,"b":4},"B":{"a":4,"b":1},"C":{"a":2,"b":8},"D":{"a":8,"b":2}},"conditions":["nonSeqFull","nonSeqPartial","seqNoFeedback","seqFeedback"],"classroomPairings":[["A","B"],["C","D"]],"coinWeights":[0.2,0.5,0.8],"subjectId":"A2GXEIRTHCKDHK","assignmentId":"3K4J6M3CXFF4Q8QE4JQEZQO3455AGX","hitId":"3UDTAB6HH6LRO17U79I9TKUGSHV90J","url":"https://gershmanlab.com/experiments/alicia/teaching/experiment/?hitId=3UDTAB6HH6LRO17U79I9TKUGSHV90J&workerId=A2GXEIRTHCKDHK&assignmentId=3K4J6M3CXFF4Q8QE4JQEZQO3455AGX&a=C64K9&tp_a=C64K9&b=3K4J6M3CXFF4Q8QE4JQEZQO3455AGX&tp_b=3K4J6M3CXFF4Q8QE4JQEZQO3455AGX&c=365799&tp_c=365799"},{"rt":null,"stimulus":"<div style=\"font-size:60px;\">Next student</div>","response":null,"trial_type":"html-keyboard-response","trial_index":82,"time_elapsed":1176188,"internal_node_id":"0.0-66.0-0.0","params":{"nStudents":24,"maxFlips":30,"completionMinutes":45,"basePay":8,"maxBonus":9,"perTrialBonus":0.5,"perTrialBonusThreshold":0.05,"exampleCost":0.01},"classroomParams":{"A":{"a":1,"b":4},"B":{"a":4,"b":1},"C":{"a":2,"b":8},"D":{"a":8,"b":2}},"conditions":["nonSeqFull","nonSeqPartial","seqNoFeedback","seqFeedback"],"classroomPairings":[["A","B"],["C","D"]],"coinWeights":[0.2,0.5,0.8],"subjectId":"A2GXEIRTHCKDHK","assignmentId":"3K4J6M3CXFF4Q8QE4JQEZQO3455AGX","hitId":"3UDTAB6HH6LRO17U79I9TKUGSHV90J","url":"https://gershmanlab.com/experiments/alicia/teaching/experiment/?hitId=3UDTAB6HH6LRO17U79I9TKUGSHV90J&workerId=A2GXEIRTHCKDHK&assignmentId=3K4J6M3CXFF4Q8QE4JQEZQO3455AGX&a=C64K9&tp_a=C64K9&b=3K4J6M3CXFF4Q8QE4JQEZQO3455AGX&tp_b=3K4J6M3CXFF4Q8QE4JQEZQO3455AGX&c=365799&tp_c=365799"},{"rt":1282,"stimulus":"\n            <h4 style=\"color:Orange;\">Student 9</h4>\n            <h2>The weight of your coin is <b style=\"color:Tomato;\">0.8</b>.</h2>\n            <p>In this block, you will be giving <b>one</b> set of examples to Student 9.</p>\n                <p>You will receive feedback at the end of the block.</p>\n            <p></p>","response":0,"trial_type":"html-button-response","trial_index":83,"time_elapsed":1177476,"internal_node_id":"0.0-67.0","params":{"nStudents":24,"maxFlips":30,"completionMinutes":45,"basePay":8,"maxBonus":9,"perTrialBonus":0.5,"perTrialBonusThreshold":0.05,"exampleCost":0.01},"classroomParams":{"A":{"a":1,"b":4},"B":{"a":4,"b":1},"C":{"a":2,"b":8},"D":{"a":8,"b":2}},"conditions":["nonSeqFull","nonSeqPartial","seqNoFeedback","seqFeedback"],"classroomPairings":[["A","B"],["C","D"]],"coinWeights":[0.2,0.5,0.8],"subjectId":"A2GXEIRTHCKDHK","assignmentId":"3K4J6M3CXFF4Q8QE4JQEZQO3455AGX","hitId":"3UDTAB6HH6LRO17U79I9TKUGSHV90J","url":"https://gershmanlab.com/experiments/alicia/teaching/experiment/?hitId=3UDTAB6HH6LRO17U79I9TKUGSHV90J&workerId=A2GXEIRTHCKDHK&assignmentId=3K4J6M3CXFF4Q8QE4JQEZQO3455AGX&a=C64K9&tp_a=C64K9&b=3K4J6M3CXFF4Q8QE4JQEZQO3455AGX&tp_b=3K4J6M3CXFF4Q8QE4JQEZQO3455AGX&c=3657