[{"rt":884,"stimulus":"Welcome to the experiment. Press any key to begin.","response":"control","trial_type":"html-keyboard-response","trial_index":0,"time_elapsed":891,"internal_node_id":"0.0-0.0","params":{"nStudents":24,"maxFlips":30,"completionMinutes":45,"basePay":8,"maxBonus":9,"perTrialBonus":0.5,"perTrialBonusThreshold":0.05,"exampleCost":0.01},"classroomParams":{"A":{"a":1,"b":4},"B":{"a":4,"b":1},"C":{"a":2,"b":8},"D":{"a":8,"b":2}},"conditions":["nonSeqFull","nonSeqPartial","seqNoFeedback","seqFeedback"],"classroomPairings":[["A","B"],["C","D"]],"coinWeights":[0.2,0.5,0.8],"subjectId":"A2JP9IKRHNLRPI","assignmentId":"3X0H8UUIT2A4NQ280OGN6T4XKZ3WSF","hitId":"363A7XIFV48LMLIF2CKYA8VQSVQAVR","url":"https://gershmanlab.com/experiments/alicia/teaching/experiment/?hitId=363A7XIFV48LMLIF2CKYA8VQSVQAVR&workerId=A2JP9IKRHNLRPI&assignmentId=3X0H8UUIT2A4NQ280OGN6T4XKZ3WSF&a=I80X9&tp_a=I80X9&b=3X0H8UUIT2A4NQ280OGN6T4XKZ3WSF&tp_b=3X0H8UUIT2A4NQ280OGN6T4XKZ3WSF&c=365799&tp_c=365799"},{"rt":1465,"stimulus":"\n        <h3>Please read this consent agreement carefully before deciding whether to participate in this experiment.</h3>\n        <p><b>Purpose of the research:</b> To examine how people teach effectively.</p>\n        <p><b>What you will do in this research:</b> You will teach students the weights of different coins.</p>\n        <p><b>Time required:</b> This experiment will take 45 minutes to complete.</p>\n        <p><b>Risks:</b> There are no anticipated risks associated with participating in this study.             The effects of participating should be comparable to those you would experience from viewing a computer monitor             and using a mouse and keyboard for the duration of the experiment.</p>\n        <p><b>Benefits:</b> The study provides important information about the nature of teaching.</p>\n        <p><b>Compensation:</b> You will receive <b>$8</b> for completing the experiment and a performance bonus of up to <b>$9</b>.</p>\n        <p><b>Confidentiality:</b> Your participation in this study will remain confidential.             No personally identifiable information will be associated with your data.             Your de-identified data may be shared with other researchers and used in future projects.</p>\n        <p><b>Participation and withdrawal:</b> Your participation in this study is completely voluntary and             you may refuse to participate or you may choose to withdraw at any time without penalty or loss of\n            benefits to which you are otherwise entitled.</p>\n        <p><b>How to contact the researcher:</b> If you have questions or concerns about your participation            or payment, or want to request a summary of research findings, please contact\n            Alicia Chen, aliciachen@college.harvard.edu.</p>\n        <p><b>Whom to contact about your rights in this research:</b> For questions, concerns, suggestions,             or complaints that have not been or cannot be addressed by the researcher, or to report             research-related harm, please contact the Committee on the Use of Human Subjects in Research at Harvard University,             1414 Massachusetts Avenue, Second Floor, Cambridge, MA 02138. Phone: 617-496-2847. Email: cuhs@fas.harvard.edu.</p>\n        ","response":0,"trial_type":"html-button-response","trial_index":1,"time_elapsed":2356,"internal_node_id":"0.0-1.0","params":{"nStudents":24,"maxFlips":30,"completionMinutes":45,"basePay":8,"maxBonus":9,"perTrialBonus":0.5,"perTrialBonusThreshold":0.05,"exampleCost":0.01},"classroomParams":{"A":{"a":1,"b":4},"B":{"a":4,"b":1},"C":{"a":2,"b":8},"D":{"a":8,"b":2}},"conditions":["nonSeqFull","nonSeqPartial","seqNoFeedback","seqFeedback"],"classroomPairings":[["A","B"],["C","D"]],"coinWeights":[0.2,0.5,0.8],"subjectId":"A2JP9IKRHNLRPI","assignmentId":"3X0H8UUIT2A4NQ280OGN6T4XKZ3WSF","hitId":"363A7XIFV48LMLIF2CKYA8VQSVQAVR","url":"https://gershmanlab.com/experiments/alicia/teaching/experiment/?hitId=363A7XIFV48LMLIF2CKYA8VQSVQAVR&workerId=A2JP9IKRHNLRPI&assignmentId=3X0H8UUIT2A4NQ280OGN6T4XKZ3WSF&a=I80X9&tp_a=I80X9&b=3X0H8UUIT2A4NQ280OGN6T4XKZ3WSF&tp_b=3X0H8UUIT2A4NQ280OGN6T4XKZ3WSF&c=365799&tp_c=365799"},{"view_history":[{"page_index":0,"viewing_time":2802},{"page_index":1,"viewing_time":5027},{"page_index":2,"viewing_time":20086},{"page_index":3,"viewing_time":12024},{"page_index":4,"viewing_time":6717},{"page_index":5,"viewing_time":16843},{"page_index":6,"viewing_time":22837}],"rt":86336,"trial_type":"instructions","trial_index":2,"time_elapsed":88693,"internal_node_id":"0.0-2.0-0.0","params":{"nStudents":24,"maxFlips":30,"completionMinutes":45,"basePay":8,"maxBonus":9,"perTrialBonus":0.5,"perTrialBonusThreshold":0.05,"exampleCost":0.01},"classroomParams":{"A":{"a":1,"b":4},"B":{"a":4,"b":1},"C":{"a":2,"b":8},"D":{"a":8,"b":2}},"conditions":["nonSeqFull","nonSeqPartial","seqNoFeedback","seqFeedback"],"classroomPairings":[["A","B"],["C","D"]],"coinWeights":[0.2,0.5,0.8],"subjectId":"A2JP9IKRHNLRPI","assignmentId":"3X0H8UUIT2A4NQ280OGN6T4XKZ3WSF","hitId":"363A7XIFV48LMLIF2CKYA8VQSVQAVR","url":"https://gershmanlab.com/experiments/alicia/teaching/experiment/?hitId=363A7XIFV48LMLIF2CKYA8VQSVQAVR&workerId=A2JP9IKRHNLRPI&assignmentId=3X0H8UUIT2A4NQ280OGN6T4XKZ3WSF&a=I80X9&tp_a=I80X9&b=3X0H8UUIT2A4NQ280OGN6T4XKZ3WSF&tp_b=3X0H8UUIT2A4NQ280OGN6T4XKZ3WSF&c=365799&tp_c=365799"},{"rt":116305,"response":{"Q0":"Students in different classrooms will have seen a different number of heads and tails before seeing the examples you select for them.","Q1":"By <b>considering the student's classroom information</b> so that I can teach efficiently and accurately/helpfully at the same time (because each example I give to the student costs money!).","Q2":"The coin lands heads 90% of the time.","Q3":"No, I will teach a <b>new</b> student each time.","Q4":"The students are also on the same alien planet as you, where coins can be unfair.","Q5":"Based on the student's second (and final) guess."},"question_order":[4,0,3,2,1,5],"trial_type":"survey-multi-choice","trial_index":3,"time_elapsed":204999,"internal_node_id":"0.0-2.0-1.0","params":{"nStudents":24,"maxFlips":30,"completionMinutes":45,"basePay":8,"maxBonus":9,"perTrialBonus":0.5,"perTrialBonusThreshold":0.05,"exampleCost":0.01},"classroomParams":{"A":{"a":1,"b":4},"B":{"a":4,"b":1},"C":{"a":2,"b":8},"D":{"a":8,"b":2}},"conditions":["nonSeqFull","nonSeqPartial","seqNoFeedback","seqFeedback"],"classroomPairings":[["A","B"],["C","D"]],"coinWeights":[0.2,0.5,0.8],"subjectId":"A2JP9IKRHNLRPI","assignmentId":"3X0H8UUIT2A4NQ280OGN6T4XKZ3WSF","hitId":"363A7XIFV48LMLIF2CKYA8VQSVQAVR","url":"https://gershmanlab.com/experiments/alicia/teaching/experiment/?hitId=363A7XIFV48LMLIF2CKYA8VQSVQAVR&workerId=A2JP9IKRHNLRPI&assignmentId=3X0H8UUIT2A4NQ280OGN6T4XKZ3WSF&a=I80X9&tp_a=I80X9&b=3X0H8UUIT2A4NQ280OGN6T4XKZ3WSF&tp_b=3X0H8UUIT2A4NQ280OGN6T4XKZ3WSF&c=365799&tp_c=365799","pass":true},{"rt":null,"stimulus":"<div style=\"font-size:30px;\">Congrats on passing the comprehension quiz! The experiment will begin in a few seconds.</div>","response":null,"trial_type":"html-keyboard-response","trial_index":4,"time_elapsed":208002,"internal_node_id":"0.0-3.0","params":{"nStudents":24,"maxFlips":30,"completionMinutes":45,"basePay":8,"maxBonus":9,"perTrialBonus":0.5,"perTrialBonusThreshold":0.05,"exampleCost":0.01},"classroomParams":{"A":{"a":1,"b":4},"B":{"a":4,"b":1},"C":{"a":2,"b":8},"D":{"a":8,"b":2}},"conditions":["nonSeqFull","nonSeqPartial","seqNoFeedback","seqFeedback"],"classroomPairings":[["A","B"],["C","D"]],"coinWeights":[0.2,0.5,0.8],"subjectId":"A2JP9IKRHNLRPI","assignmentId":"3X0H8UUIT2A4NQ280OGN6T4XKZ3WSF","hitId":"363A7XIFV48LMLIF2CKYA8VQSVQAVR","url":"https://gershmanlab.com/experiments/alicia/teaching/experiment/?hitId=363A7XIFV48LMLIF2CKYA8VQSVQAVR&workerId=A2JP9IKRHNLRPI&assignmentId=3X0H8UUIT2A4NQ280OGN6T4XKZ3WSF&a=I80X9&tp_a=I80X9&b=3X0H8UUIT2A4NQ280OGN6T4XKZ3WSF&tp_b=3X0H8UUIT2A4NQ280OGN6T4XKZ3WSF&c=365799&tp_c=365799"},{"rt":null,"stimulus":"<div style=\"font-size:50px;\">First student</div>","response":null,"trial_type":"html-keyboard-response","trial_index":5,"time_elapsed":211016,"internal_node_id":"0.0-4.0","params":{"nStudents":24,"maxFlips":30,"completionMinutes":45,"basePay":8,"maxBonus":9,"perTrialBonus":0.5,"perTrialBonusThreshold":0.05,"exampleCost":0.01},"classroomParams":{"A":{"a":1,"b":4},"B":{"a":4,"b":1},"C":{"a":2,"b":8},"D":{"a":8,"b":2}},"conditions":["nonSeqFull","nonSeqPartial","seqNoFeedback","seqFeedback"],"classroomPairings":[["A","B"],["C","D"]],"coinWeights":[0.2,0.5,0.8],"subjectId":"A2JP9IKRHNLRPI","assignmentId":"3X0H8UUIT2A4NQ280OGN6T4XKZ3WSF","hitId":"363A7XIFV48LMLIF2CKYA8VQSVQAVR","url":"https://gershmanlab.com/experiments/alicia/teaching/experiment/?hitId=363A7XIFV48LMLIF2CKYA8VQSVQAVR&workerId=A2JP9IKRHNLRPI&assignmentId=3X0H8UUIT2A4NQ280OGN6T4XKZ3WSF&a=I80X9&tp_a=I80X9&b=3X0H8UUIT2A4NQ280OGN6T4XKZ3WSF&tp_b=3X0H8UUIT2A4NQ280OGN6T4XKZ3WSF&c=365799&tp_c=365799"},{"rt":33644,"stimulus":"\n            <h4 style=\"color:Orange;\">Student 1</h4>\n            <h2>The weight of your coin is <b style=\"color:Tomato;\">0.2</b>.</h2>\n            <p>In this block, you will be giving <b>two</b> sets of examples to Student 1.</p>\n                <p>You will receive feedback at the end of the block.</p>\n            <p></p>","response":0,"trial_type":"html-button-response","trial_index":6,"time_elapsed":244661,"internal_node_id":"0.0-5.0","params":{"nStudents":24,"maxFlips":30,"completionMinutes":45,"basePay":8,"maxBonus":9,"perTrialBonus":0.5,"perTrialBonusThreshold":0.05,"exampleCost":0.01},"classroomParams":{"A":{"a":1,"b":4},"B":{"a":4,"b":1},"C":{"a":2,"b":8},"D":{"a":8,"b":2}},"conditions":["nonSeqFull","nonSeqPartial","seqNoFeedback","seqFeedback"],"classroomPairings":[["A","B"],["C","D"]],"coinWeights":[0.2,0.5,0.8],"subjectId":"A2JP9IKRHNLRPI","assignmentId":"3X0H8UUIT2A4NQ280OGN6T4XKZ3WSF","hitId":"363A7XIFV48LMLIF2CKYA8VQSVQAVR","url":"https://gershmanlab.com/experiments/alicia/teaching/experiment/?hitId=363A7XIFV48LMLIF2CKYA8VQSVQAVR&workerId=A2JP9IKRHNLRPI&assignmentId=3X0H8UUIT2A4NQ280OGN6T4XKZ3WSF&a=I80X9&tp_a=I80X9&b=3X0H8UUIT2A4NQ280OGN6T4XKZ3WSF&tp_b=3X0H8UUIT2A4NQ280OGN6T4XKZ3WSF&c=365799&tp_c=365799"},{"rt":31890,"response":{"heads":"0","tails":"0"},"type":"response","condition":"seqNoFeedback","trueTheta":0.2,"classrooms":["C","D"],"studentTrueClassroom":"C","exampleSet":"first","trial_type":"survey-html-form","trial_index":7,"time_elapsed":276551,"internal_node_id":"0.0-6.0-0.0","params":{"nStudents":24,"maxFlips":30,"completionMinutes":45,"basePay":8,"maxBonus":9,"perTrialBonus":0.5,"perTrialBonusThreshold":0.05,"exampleCost":0.01},"classroomParams":{"A":{"a":1,"b":4},"B":{"a":4,"b":1},"C":{"a":2,"b":8},"D":{"a":8,"b":2}},"conditions":["nonSeqFull","nonSeqPartial","seqNoFeedback","seqFeedback"],"classroomPairings":[["A","B"],["C","D"]],"coinWeights":[0.2,0.5,0.8],"subjectId":"A2JP9IKRHNLRPI","assignmentId":"3X0H8UUIT2A4NQ280OGN6T4XKZ3WSF","hitId":"363A7XIFV48LMLIF2CKYA8VQSVQAVR","url":"https://gershmanlab.com/experiments/alicia/teaching/experiment/?hitId=363A7XIFV48LMLIF2CKYA8VQSVQAVR&workerId=A2JP9IKRHNLRPI&assignmentId=3X0H8UUIT2A4NQ280OGN6T4XKZ3WSF&a=I80X9&tp_a=I80X9&b=3X0H8UUIT2A4NQ280OGN6T4XKZ3WSF&tp_b=3X0H8UUIT2A4NQ280OGN6T4XKZ3WSF&c=365799&tp_c=365799","heads":0,"tails":0,"studentIndex":0,"studentTrueHypers":{"a":2,"b":8},"studentGuess":0.2,"delta":0,"totalExamples":0,"bonusSoFar":0},{"rt":2712,"response":{"heads":"0","tails":"0"},"type":"response","condition":"seqNoFeedback","trueTheta":0.2,"classrooms":["C","D"],"studentTrueClassroom":"C","exampleSet":"first","trial_type":"survey-html-form","trial_index":8,"time_elapsed":279264,"internal_node_id":"0.0-6.1-0.1","params":{"nStudents":24,"maxFlips":30,"completionMinutes":45,"basePay":8,"maxBonus":9,"perTrialBonus":0.5,"perTrialBonusThreshold":0.05,"exampleCost":0.01},"classroomParams":{"A":{"a":1,"b":4},"B":{"a":4,"b":1},"C":{"a":2,"b":8},"D":{"a":8,"b":2}},"conditions":["nonSeqFull","nonSeqPartial","seqNoFeedback","seqFeedback"],"classroomPairings":[["A","B"],["C","D"]],"coinWeights":[0.2,0.5,0.8],"subjectId":"A2JP9IKRHNLRPI","assignmentId":"3X0H8UUIT2A4NQ280OGN6T4XKZ3WSF","hitId":"363A7XIFV48LMLIF2CKYA8VQSVQAVR","url":"https://gershmanlab.com/experiments/alicia/teaching/experiment/?hitId=363A7XIFV48LMLIF2CKYA8VQSVQAVR&workerId=A2JP9IKRHNLRPI&assignmentId=3X0H8UUIT2A4NQ280OGN6T4XKZ3WSF&a=I80X9&tp_a=I80X9&b=3X0H8UUIT2A4NQ280OGN6T4XKZ3WSF&tp_b=3X0H8UUIT2A4NQ280OGN6T4XKZ3WSF&c=365799&tp_c=365799","heads":0,"tails":0,"studentIndex":0,"studentTrueHypers":{"a":2,"b":8},"studentGuess":0.2,"delta":0,"totalExamples":0,"bonusSoFar":0},{"rt":6983,"response":{"heads":"0","tails":"0"},"type":"response","condition":"seqNoFeedback","trueTheta":0.2,"classrooms":["C","D"],"studentTrueClassroom":"C","exampleSet":"first","trial_type":"survey-html-form","trial_index":9,"time_elapsed":286248,"internal_node_id":"0.0-6.2-0.2","params":{"nStudents":24,"maxFlips":30,"completionMinutes":45,"basePay":8,"maxBonus":9,"perTrialBonus":0.5,"perTrialBonusThreshold":0.05,"exampleCost":0.01},"classroomParams":{"A":{"a":1,"b":4},"B":{"a":4,"b":1},"C":{"a":2,"b":8},"D":{"a":8,"b":2}},"conditions":["nonSeqFull","nonSeqPartial","seqNoFeedback","seqFeedback"],"classroomPairings":[["A","B"],["C","D"]],"coinWeights":[0.2,0.5,0.8],"subjectId":"A2JP9IKRHNLRPI","assignmentId":"3X0H8UUIT2A4NQ280OGN6T4XKZ3WSF","hitId":"363A7XIFV48LMLIF2CKYA8VQSVQAVR","url":"https://gershmanlab.com/experiments/alicia/teaching/experiment/?hitId=363A7XIFV48LMLIF2CKYA8VQSVQAVR&workerId=A2JP9IKRHNLRPI&assignmentId=3X0H8UUIT2A4NQ280OGN6T4XKZ3WSF&a=I80X9&tp_a=I80X9&b=3X0H8UUIT2A4NQ280OGN6T4XKZ3WSF&tp_b=3X0H8UUIT2A4NQ280OGN6T4XKZ3WSF&c=365799&tp_c=365799","heads":0,"tails":0,"studentIndex":0,"studentTrueHypers":{"a":2,"b":8},"studentGuess":0.2,"delta":0,"totalExamples":0,"bonusSoFar":0},{"rt":9158,"response":{"heads":"0","tails":"1"},"type":"response","condition":"seqNoFeedback","trueTheta":0.2,"classrooms":["C","D"],"studentTrueClassroom":"C","exampleSet":"first","trial_type":"survey-html-form","trial_index":10,"time_elapsed":295407,"internal_node_id":"0.0-6.3-0.3","params":{"nStudents":24,"maxFlips":30,"completionMinutes":45,"basePay":8,"maxBonus":9,"perTrialBonus":0.5,"perTrialBonusThreshold":0.05,"exampleCost":0.01},"classroomParams":{"A":{"a":1,"b":4},"B":{"a":4,"b":1},"C":{"a":2,"b":8},"D":{"a":8,"b":2}},"conditions":["nonSeqFull","nonSeqPartial","seqNoFeedback","seqFeedback"],"classroomPairings":[["A","B"],["C","D"]],"coinWeights":[0.2,0.5,0.8],"subjectId":"A2JP9IKRHNLRPI","assignmentId":"3X0H8UUIT2A4NQ280OGN6T4XKZ3WSF","hitId":"363A7XIFV48LMLIF2CKYA8VQSVQAVR","url":"https://gershmanlab.com/experiments/alicia/teaching/experiment/?hitId=363A7XIFV48LMLIF2CKYA8VQSVQAVR&workerId=A2JP9IKRHNLRPI&assignmentId=3X0H8UUIT2A4NQ280OGN6T4XKZ3WSF&a=I80X9&tp_a=I80X9&b=3X0H8UUIT2A4NQ280OGN6T4XKZ3WSF&tp_b=3X0H8UUIT2A4NQ280OGN6T4XKZ3WSF&c=365799&tp_c=365799","heads":0,"tails":1,"studentIndex":0,"studentTrueHypers":{"a":2,"b":8},"studentGuess":0.18181818181818182,"delta":0.018181818181818188,"totalExamples":1,"bonusSoFar":0},{"rt":null,"stimulus":"Sending examples to student... ","response":null,"trial_type":"html-keyboard-response","trial_index":11,"time_elapsed":297409,"internal_node_id":"0.0-7.0","params":{"nStudents":24,"maxFlips":30,"completionMinutes":45,"basePay":8,"maxBonus":9,"perTrialBonus":0.5,"perTrialBonusThreshold":0.05,"exampleCost":0.01},"classroomParams":{"A":{"a":1,"b":4},"B":{"a":4,"b":1},"C":{"a":2,"b":8},"D":{"a":8,"b":2}},"conditions":["nonSeqFull","nonSeqPartial","seqNoFeedback","seqFeedback"],"classroomPairings":[["A","B"],["C","D"]],"coinWeights":[0.2,0.5,0.8],"subjectId":"A2JP9IKRHNLRPI","assignmentId":"3X0H8UUIT2A4NQ280OGN6T4XKZ3WSF","hitId":"363A7XIFV48LMLIF2CKYA8VQSVQAVR","url":"https://gershmanlab.com/experiments/alicia/teaching/experiment/?hitId=363A7XIFV48LMLIF2CKYA8VQSVQAVR&workerId=A2JP9IKRHNLRPI&assignmentId=3X0H8UUIT2A4NQ280OGN6T4XKZ3WSF&a=I80X9&tp_a=I80X9&b=3X0H8UUIT2A4NQ280OGN6T4XKZ3WSF&tp_b=3X0H8UUIT2A4NQ280OGN6T4XKZ3WSF&c=365799&tp_c=365799"},{"rt":null,"stimulus":"Examples sent to student! Waiting for student...","response":null,"trial_type":"html-keyboard-response","trial_index":12,"time_elapsed":301920,"internal_node_id":"0.0-8.0","params":{"nStudents":24,"maxFlips":30,"completionMinutes":45,"basePay":8,"maxBonus":9,"perTrialBonus":0.5,"perTrialBonusThreshold":0.05,"exampleCost":0.01},"classroomParams":{"A":{"a":1,"b":4},"B":{"a":4,"b":1},"C":{"a":2,"b":8},"D":{"a":8,"b":2}},"conditions":["nonSeqFull","nonSeqPartial","seqNoFeedback","seqFeedback"],"classroomPairings":[["A","B"],["C","D"]],"coinWeights":[0.2,0.5,0.8],"subjectId":"A2JP9IKRHNLRPI","assignmentId":"3X0H8UUIT2A4NQ280OGN6T4XKZ3WSF","hitId":"363A7XIFV48LMLIF2CKYA8VQSVQAVR","url":"https://gershmanlab.com/experiments/alicia/teaching/experiment/?hitId=363A7XIFV48LMLIF2CKYA8VQSVQAVR&workerId=A2JP9IKRHNLRPI&assignmentId=3X0H8UUIT2A4NQ280OGN6T4XKZ3WSF&a=I80X9&tp_a=I80X9&b=3X0H8UUIT2A4NQ280OGN6T4XKZ3WSF&tp_b=3X0H8UUIT2A4NQ280OGN6T4XKZ3WSF&c=365799&tp_c=365799"},{"rt":17249,"response":{"heads":"0","tails":"0"},"type":"response","condition":"seqNoFeedback","trueTheta":0.2,"classrooms":["C","D"],"studentTrueClassroom":"C","exampleSet":"second","trial_type":"survey-html-form","trial_index":13,"time_elapsed":319170,"internal_node_id":"0.0-9.0-0.0","params":{"nStudents":24,"maxFlips":30,"completionMinutes":45,"basePay":8,"maxBonus":9,"perTrialBonus":0.5,"perTrialBonusThreshold":0.05,"exampleCost":0.01},"classroomParams":{"A":{"a":1,"b":4},"B":{"a":4,"b":1},"C":{"a":2,"b":8},"D":{"a":8,"b":2}},"conditions":["nonSeqFull","nonSeqPartial","seqNoFeedback","seqFeedback"],"classroomPairings":[["A","B"],["C","D"]],"coinWeights":[0.2,0.5,0.8],"subjectId":"A2JP9IKRHNLRPI","assignmentId":"3X0H8UUIT2A4NQ280OGN6T4XKZ3WSF","hitId":"363A7XIFV48LMLIF2CKYA8VQSVQAVR","url":"https://gershmanlab.com/experiments/alicia/teaching/experiment/?hitId=363A7XIFV48LMLIF2CKYA8VQSVQAVR&workerId=A2JP9IKRHNLRPI&assignmentId=3X0H8UUIT2A4NQ280OGN6T4XKZ3WSF&a=I80X9&tp_a=I80X9&b=3X0H8UUIT2A4NQ280OGN6T4XKZ3WSF&tp_b=3X0H8UUIT2A4NQ280OGN6T4XKZ3WSF&c=365799&tp_c=365799","firstResponseHeads":0,"firstResponseTails":0,"secondResponseHeads":0,"secondResponseTails":0,"totalHeads":0,"totalTails":0,"studentIndex":0,"studentTrueHypers":{"a":2,"b":8},"studentGuess":0.2,"delta":0,"bonus":0.5,"bonusSoFar":0.5,"totalExamples":0},{"rt":894,"response":{"heads":"0","tails":"0"},"type":"response","condition":"seqNoFeedback","trueTheta":0.2,"classrooms":["C","D"],"studentTrueClassroom":"C","exampleSet":"second","trial_type":"survey-html-form","trial_index":14,"time_elapsed":320065,"internal_node_id":"0.0-9.1-0.1","params":{"nStudents":24,"maxFlips":30,"completionMinutes":45,"basePay":8,"maxBonus":9,"perTrialBonus":0.5,"perTrialBonusThreshold":0.05,"exampleCost":0.01},"classroomParams":{"A":{"a":1,"b":4},"B":{"a":4,"b":1},"C":{"a":2,"b":8},"D":{"a":8,"b":2}},"conditions":["nonSeqFull","nonSeqPartial","seqNoFeedback","seqFeedback"],"classroomPairings":[["A","B"],["C","D"]],"coinWeights":[0.2,0.5,0.8],"subjectId":"A2JP9IKRHNLRPI","assignmentId":"3X0H8UUIT2A4NQ280OGN6T4XKZ3WSF","hitId":"363A7XIFV48LMLIF2CKYA8VQSVQAVR","url":"https://gershmanlab.com/experiments/alicia/teaching/experiment/?hitId=363A7XIFV48LMLIF2CKYA8VQSVQAVR&workerId=A2JP9IKRHNLRPI&assignmentId=3X0H8UUIT2A4NQ280OGN6T4XKZ3WSF&a=I80X9&tp_a=I80X9&b=3X0H8UUIT2A4NQ280OGN6T4XKZ3WSF&tp_b=3X0H8UUIT2A4NQ280OGN6T4XKZ3WSF&c=365799&tp_c=365799","firstResponseHeads":0,"firstResponseTails":0,"secondResponseHeads":0,"secondResponseTails":0,"totalHeads":0,"totalTails":0,"studentIndex":0,"studentTrueHypers":{"a":2,"b":8},"studentGuess":0.2,"delta":0,"bonus":0.5,"bonusSoFar":1,"totalExamples":0},{"rt":539,"response":{"heads":"0","tails":"0"},"type":"response","condition":"seqNoFeedback","trueTheta":0.2,"classrooms":["C","D"],"studentTrueClassroom":"C","exampleSet":"second","trial_type":"survey-html-form","trial_index":15,"time_elapsed":320604,"internal_node_id":"0.0-9.2-0.2","params":{"nStudents":24,"maxFlips":30,"completionMinutes":45,"basePay":8,"maxBonus":9,"perTrialBonus":0.5,"perTrialBonusThreshold":0.05,"exampleCost":0.01},"classroomParams":{"A":{"a":1,"b":4},"B":{"a":4,"b":1},"C":{"a":2,"b":8},"D":{"a":8,"b":2}},"conditions":["nonSeqFull","nonSeqPartial","seqNoFeedback","seqFeedback"],"classroomPairings":[["A","B"],["C","D"]],"coinWeights":[0.2,0.5,0.8],"subjectId":"A2JP9IKRHNLRPI","assignmentId":"3X0H8UUIT2A4NQ280OGN6T4XKZ3WSF","hitId":"363A7XIFV48LMLIF2CKYA8VQSVQAVR","url":"https://gershmanlab.com/experiments/alicia/teaching/experiment/?hitId=363A7XIFV48LMLIF2CKYA8VQSVQAVR&workerId=A2JP9IKRHNLRPI&assignmentId=3X0H8UUIT2A4NQ280OGN6T4XKZ3WSF&a=I80X9&tp_a=I80X9&b=3X0H8UUIT2A4NQ280OGN6T4XKZ3WSF&tp_b=3X0H8UUIT2A4NQ280OGN6T4XKZ3WSF&c=365799&tp_c=365799","firstResponseHeads":0,"firstResponseTails":0,"secondResponseHeads":0,"secondResponseTails":0,"totalHeads":0,"totalTails":0,"studentIndex":0,"studentTrueHypers":{"a":2,"b":8},"studentGuess":0.2,"delta":0,"bonus":0.5,"bonusSoFar":1.5,"totalExamples":0},{"rt":937,"response":{"heads":"0","tails":"0"},"type":"response","condition":"seqNoFeedback","trueTheta":0.2,"classrooms":["C","D"],"studentTrueClassroom":"C","exampleSet":"second","trial_type":"survey-html-form","trial_index":16,"time_elapsed":321542,"internal_node_id":"0.0-9.3-0.3","params":{"nStudents":24,"maxFlips":30,"completionMinutes":45,"basePay":8,"maxBonus":9,"perTrialBonus":0.5,"perTrialBonusThreshold":0.05,"exampleCost":0.01},"classroomParams":{"A":{"a":1,"b":4},"B":{"a":4,"b":1},"C":{"a":2,"b":8},"D":{"a":8,"b":2}},"conditions":["nonSeqFull","nonSeqPartial","seqNoFeedback","seqFeedback"],"classroomPairings":[["A","B"],["C","D"]],"coinWeights":[0.2,0.5,0.8],"subjectId":"A2JP9IKRHNLRPI","assignmentId":"3X0H8UUIT2A4NQ280OGN6T4XKZ3WSF","hitId":"363A7XIFV48LMLIF2CKYA8VQSVQAVR","url":"https://gershmanlab.com/experiments/alicia/teaching/experiment/?hitId=363A7XIFV48LMLIF2CKYA8VQSVQAVR&workerId=A2JP9IKRHNLRPI&assignmentId=3X0H8UUIT2A4NQ280OGN6T4XKZ3WSF&a=I80X9&tp_a=I80X9&b=3X0H8UUIT2A4NQ280OGN6T4XKZ3WSF&tp_b=3X0H8UUIT2A4NQ280OGN6T4XKZ3WSF&c=365799&tp_c=365799","firstResponseHeads":0,"firstResponseTails":0,"secondResponseHeads":0,"secondResponseTails":0,"totalHeads":0,"totalTails":0,"studentIndex":0,"studentTrueHypers":{"a":2,"b":8},"studentGuess":0.2,"delta":0,"bonus":0.5,"bonusSoFar":2,"totalExamples":0},{"rt":5801,"response":{"heads":"2","tails":"8"},"type":"response","condition":"seqNoFeedback","trueTheta":0.2,"classrooms":["C","D"],"studentTrueClassroom":"C","exampleSet":"second","trial_type":"survey-html-form","trial_index":17,"time_elapsed":327343,"internal_node_id":"0.0-9.4-0.4","params":{"nStudents":24,"maxFlips":30,"completionMinutes":45,"basePay":8,"maxBonus":9,"perTrialBonus":0.5,"perTrialBonusThreshold":0.05,"exampleCost":0.01},"classroomParams":{"A":{"a":1,"b":4},"B":{"a":4,"b":1},"C":{"a":2,"b":8},"D":{"a":8,"b":2}},"conditions":["nonSeqFull","nonSeqPartial","seqNoFeedback","seqFeedback"],"classroomPairings":[["A","B"],["C","D"]],"coinWeights":[0.2,0.5,0.8],"subjectId":"A2JP9IKRHNLRPI","assignmentId":"3X0H8UUIT2A4NQ280OGN6T4XKZ3WSF","hitId":"363A7XIFV48LMLIF2CKYA8VQSVQAVR","url":"https://gershmanlab.com/experiments/alicia/teaching/experiment/?hitId=363A7XIFV48LMLIF2CKYA8VQSVQAVR&workerId=A2JP9IKRHNLRPI&assignmentId=3X0H8UUIT2A4NQ280OGN6T4XKZ3WSF&a=I80X9&tp_a=I80X9&b=3X0H8UUIT2A4NQ280OGN6T4XKZ3WSF&tp_b=3X0H8UUIT2A4NQ280OGN6T4XKZ3WSF&c=365799&tp_c=365799","firstResponseHeads":0,"firstResponseTails":0,"secondResponseHeads":2,"secondResponseTails":8,"totalHeads":2,"totalTails":8,"studentIndex":0,"studentTrueHypers":{"a":2,"b":8},"studentGuess":0.2,"delta":0,"bonus":0.4,"bonusSoFar":2.4,"totalExamples":10},{"rt":null,"stimulus":"Sending examples to student... ","response":null,"trial_type":"html-keyboard-response","trial_index":18,"time_elapsed":329358,"internal_node_id":"0.0-10.0","params":{"nStudents":24,"maxFlips":30,"completionMinutes":45,"basePay":8,"maxBonus":9,"perTrialBonus":0.5,"perTrialBonusThreshold":0.05,"exampleCost":0.01},"classroomParams":{"A":{"a":1,"b":4},"B":{"a":4,"b":1},"C":{"a":2,"b":8},"D":{"a":8,"b":2}},"conditions":["nonSeqFull","nonSeqPartial","seqNoFeedback","seqFeedback"],"classroomPairings":[["A","B"],["C","D"]],"coinWeights":[0.2,0.5,0.8],"subjectId":"A2JP9IKRHNLRPI","assignmentId":"3X0H8UUIT2A4NQ280OGN6T4XKZ3WSF","hitId":"363A7XIFV48LMLIF2CKYA8VQSVQAVR","url":"https://gershmanlab.com/experiments/alicia/teaching/experiment/?hitId=363A7XIFV48LMLIF2CKYA8VQSVQAVR&workerId=A2JP9IKRHNLRPI&assignmentId=3X0H8UUIT2A4NQ280OGN6T4XKZ3WSF&a=I80X9&tp_a=I80X9&b=3X0H8UUIT2A4NQ280OGN6T4XKZ3WSF&tp_b=3X0H8UUIT2A4NQ280OGN6T4XKZ3WSF&c=365799&tp_c=365799"},{"rt":null,"stimulus":"Examples sent to student! Waiting for student...","response":null,"trial_type":"html-keyboard-response","trial_index":19,"time_elapsed":335359,"internal_node_id":"0.0-11.0","params":{"nStudents":24,"maxFlips":30,"completionMinutes":45,"basePay":8,"maxBonus":9,"perTrialBonus":0.5,"perTrialBonusThreshold":0.05,"exampleCost":0.01},"classroomParams":{"A":{"a":1,"b":4},"B":{"a":4,"b":1},"C":{"a":2,"b":8},"D":{"a":8,"b":2}},"conditions":["nonSeqFull","nonSeqPartial","seqNoFeedback","seqFeedback"],"classroomPairings":[["A","B"],["C","D"]],"coinWeights":[0.2,0.5,0.8],"subjectId":"A2JP9IKRHNLRPI","assignmentId":"3X0H8UUIT2A4NQ280OGN6T4XKZ3WSF","hitId":"363A7XIFV48LMLIF2CKYA8VQSVQAVR","url":"https://gershmanlab.com/experiments/alicia/teaching/experiment/?hitId=363A7XIFV48LMLIF2CKYA8VQSVQAVR&workerId=A2JP9IKRHNLRPI&assignmentId=3X0H8UUIT2A4NQ280OGN6T4XKZ3WSF&a=I80X9&tp_a=I80X9&b=3X0H8UUIT2A4NQ280OGN6T4XKZ3WSF&tp_b=3X0H8UUIT2A4NQ280OGN6T4XKZ3WSF&c=365799&tp_c=365799"},{"rt":8045,"stimulus":"\n                <p>Student 1's first guess for coin weight: <b style=\"color:Tomato\";>0.20</b></p>\n                <p>Student 1's second guess for coin weight: <b style=\"color:Tomato\";>0.20</b></p>\n                <p>You received a bonus of <b>$0.50</b> based on the student's second guess.</p>\n                <p>Total bonus so far: <b>$2.40</b></p>\n                <p>Press any key to continue.</p>\n                ","response":" ","trial_type":"html-keyboard-response","trial_index":20,"time_elapsed":343405,"internal_node_id":"0.0-12.0","params":{"nStudents":24,"maxFlips":30,"completionMinutes":45,"basePay":8,"maxBonus":9,"perTrialBonus":0.5,"perTrialBonusThreshold":0.05,"exampleCost":0.01},"classroomParams":{"A":{"a":1,"b":4},"B":{"a":4,"b":1},"C":{"a":2,"b":8},"D":{"a":8,"b":2}},"conditions":["nonSeqFull","nonSeqPartial","seqNoFeedback","seqFeedback"],"classroomPairings":[["A","B"],["C","D"]],"coinWeights":[0.2,0.5,0.8],"subjectId":"A2JP9IKRHNLRPI","assignmentId":"3X0H8UUIT2A4NQ280OGN6T4XKZ3WSF","hitId":"363A7XIFV48LMLIF2CKYA8VQSVQAVR","url":"https://gershmanlab.com/experiments/alicia/teaching/experiment/?hitId=363A7XIFV48LMLIF2CKYA8VQSVQAVR&workerId=A2JP9IKRHNLRPI&assignmentId=3X0H8UUIT2A4NQ280OGN6T4XKZ3WSF&a=I80X9&tp_a=I80X9&b=3X0H8UUIT2A4NQ280OGN6T4XKZ3WSF&tp_b=3X0H8UUIT2A4NQ280OGN6T4XKZ3WSF&c=365799&tp_c=365799"},{"rt":null,"stimulus":"<div style=\"font-size:60px;\">Next student</div>","response":null,"trial_type":"html-keyboard-response","trial_index":21,"time_elapsed":345406,"internal_node_id":"0.0-13.0-0.0","params":{"nStudents":24,"maxFlips":30,"completionMinutes":45,"basePay":8,"maxBonus":9,"perTrialBonus":0.5,"perTrialBonusThreshold":0.05,"exampleCost":0.01},"classroomParams":{"A":{"a":1,"b":4},"B":{"a":4,"b":1},"C":{"a":2,"b":8},"D":{"a":8,"b":2}},"conditions":["nonSeqFull","nonSeqPartial","seqNoFeedback","seqFeedback"],"classroomPairings":[["A","B"],["C","D"]],"coinWeights":[0.2,0.5,0.8],"subjectId":"A2JP9IKRHNLRPI","assignmentId":"3X0H8UUIT2A4NQ280OGN6T4XKZ3WSF","hitId":"363A7XIFV48LMLIF2CKYA8VQSVQAVR","url":"https://gershmanlab.com/experiments/alicia/teaching/experiment/?hitId=363A7XIFV48LMLIF2CKYA8VQSVQAVR&workerId=A2JP9IKRHNLRPI&assignmentId=3X0H8UUIT2A4NQ280OGN6T4XKZ3WSF&a=I80X9&tp_a=I80X9&b=3X0H8UUIT2A4NQ280OGN6T4XKZ3WSF&tp_b=3X0H8UUIT2A4NQ280OGN6T4XKZ3WSF&c=365799&tp_c=365799"},{"rt":2822,"stimulus":"\n            <h4 style=\"color:Orange;\">Student 2</h4>\n            <h2>The weight of your coin is <b style=\"color:Tomato;\">0.5</b>.</h2>\n            <p>In this block, you will be giving <b>one</b> set of examples to Student 2.</p>\n                <p>You will receive feedback at the end of the block.</p>\n            <p></p>","response":0,"trial_type":"html-button-response","trial_index":22,"time_elapsed":348229,"internal_node_id":"0.0-14.0","params":{"nStudents":24,"maxFlips":30,"completionMinutes":45,"basePay":8,"maxBonus":9,"perTrialBonus":0.5,"perTrialBonusThreshold":0.05,"exampleCost":0.01},"classroomParams":{"A":{"a":1,"b":4},"B":{"a":4,"b":1},"C":{"a":2,"b":8},"D":{"a":8,"b":2}},"conditions":["nonSeqFull","nonSeqPartial","seqNoFeedback","seqFeedback"],"classroomPairings":[["A","B"],["C","D"]],"coinWeights":[0.2,0.5,0.8],"subjectId":"A2JP9IKRHNLRPI","assignmentId":"3X0H8UUIT2A4NQ280OGN6T4XKZ3WSF","hitId":"363A7XIFV48LMLIF2CKYA8VQSVQAVR","url":"https://gershmanlab.com/experiments/alicia/teaching/experiment/?hitId=363A7XIFV48LMLIF2CKYA8VQSVQAVR&workerId=A2JP9IKRHNLRPI&assignmentId=3X0H8UUIT2A4NQ280OGN6T4XKZ3WSF&a=I80X9&tp_a=I80X9&b=3X0H8UUIT2A4NQ280OGN6T4XKZ3WSF&tp_b=3X0H8UUIT2A4NQ280OGN6T4XKZ3WSF&c=365799&tp_c=365799"},{"rt":12337,"response":{"heads":"1","tails":"4"},"type":"response","condition":"nonSeqFull","trueTheta":0.5,"classrooms":["A","B"],"studentTrueClassroom":"B","exampleSet":"first","trial_type":"survey-html-form","trial_index":23,"time_elapsed":360566,"internal_node_id":"0.0-15.0-0.0","params":{"nStudents":24,"maxFlips":30,"completionMinutes":45,"basePay":8,"maxBonus":9,"perTrialBonus":0.5,"perTrialBonusThreshold":0.05,"exampleCost":0.01},"classroomParams":{"A":{"a":1,"b":4},"B":{"a":4,"b":1},"C":{"a":2,"b":8},"D":{"a":8,"b":2}},"conditions":["nonSeqFull","nonSeqPartial","seqNoFeedback","seqFeedback"],"classroomPairings":[["A","B"],["C","D"]],"coinWeights":[0.2,0.5,0.8],"subjectId":"A2JP9IKRHNLRPI","assignmentId":"3X0H8UUIT2A4NQ280OGN6T4XKZ3WSF","hitId":"363A7XIFV48LMLIF2CKYA8VQSVQAVR","url":"https://gershmanlab.com/experiments/alicia/teaching/experiment/?hitId=363A7XIFV48LMLIF2CKYA8VQSVQAVR&workerId=A2JP9IKRHNLRPI&assignmentId=3X0H8UUIT2A4NQ280OGN6T4XKZ3WSF&a=I80X9&tp_a=I80X9&b=3X0H8UUIT2A4NQ280OGN6T4XKZ3WSF&tp_b=3X0H8UUIT2A4NQ280OGN6T4XKZ3WSF&c=365799&tp_c=365799","heads":1,"tails":4,"studentIndex":1,"studentTrueHypers":{"a":4,"b":1},"studentGuess":0.5,"delta":0,"totalExamples":5,"bonus":0.45,"bonusSoFar":2.85},{"rt":null,"stimulus":"Sending examples to student... ","response":null,"trial_type":"html-keyboard-response","trial_index":24,"time_elapsed":361831,"internal_node_id":"0.0-16.0","params":{"nStudents":24,"maxFlips":30,"completionMinutes":45,"basePay":8,"maxBonus":9,"perTrialBonus":0.5,"perTrialBonusThreshold":0.05,"exampleCost":0.01},"classroomParams":{"A":{"a":1,"b":4},"B":{"a":4,"b":1},"C":{"a":2,"b":8},"D":{"a":8,"b":2}},"conditions":["nonSeqFull","nonSeqPartial","seqNoFeedback","seqFeedback"],"classroomPairings":[["A","B"],["C","D"]],"coinWeights":[0.2,0.5,0.8],"subjectId":"A2JP9IKRHNLRPI","assignmentId":"3X0H8UUIT2A4NQ280OGN6T4XKZ3WSF","hitId":"363A7XIFV48LMLIF2CKYA8VQSVQAVR","url":"https://gershmanlab.com/experiments/alicia/teaching/experiment/?hitId=363A7XIFV48LMLIF2CKYA8VQSVQAVR&workerId=A2JP9IKRHNLRPI&assignmentId=3X0H8UUIT2A4NQ280OGN6T4XKZ3WSF&a=I80X9&tp_a=I80X9&b=3X0H8UUIT2A4NQ280OGN6T4XKZ3WSF&tp_b=3X0H8UUIT2A4NQ280OGN6T4XKZ3WSF&c=365799&tp_c=365799"},{"rt":null,"stimulus":"Examples sent to student! Waiting for student...","response":null,"trial_type":"html-keyboard-response","trial_index":25,"time_elapsed":367833,"internal_node_id":"0.0-17.0","params":{"nStudents":24,"maxFlips":30,"completionMinutes":45,"basePay":8,"maxBonus":9,"perTrialBonus":0.5,"perTrialBonusThreshold":0.05,"exampleCost":0.01},"classroomParams":{"A":{"a":1,"b":4},"B":{"a":4,"b":1},"C":{"a":2,"b":8},"D":{"a":8,"b":2}},"conditions":["nonSeqFull","nonSeqPartial","seqNoFeedback","seqFeedback"],"classroomPairings":[["A","B"],["C","D"]],"coinWeights":[0.2,0.5,0.8],"subjectId":"A2JP9IKRHNLRPI","assignmentId":"3X0H8UUIT2A4NQ280OGN6T4XKZ3WSF","hitId":"363A7XIFV48LMLIF2CKYA8VQSVQAVR","url":"https://gershmanlab.com/experiments/alicia/teaching/experiment/?hitId=363A7XIFV48LMLIF2CKYA8VQSVQAVR&workerId=A2JP9IKRHNLRPI&assignmentId=3X0H8UUIT2A4NQ280OGN6T4XKZ3WSF&a=I80X9&tp_a=I80X9&b=3X0H8UUIT2A4NQ280OGN6T4XKZ3WSF&tp_b=3X0H8UUIT2A4NQ280OGN6T4XKZ3WSF&c=365799&tp_c=365799"},{"rt":2328,"stimulus":"\n                <p>Student's guess for coin weight: <b style=\"color:Tomato;\">0.50</b></p>\n                <p>You received a bonus of <b>$0.45</b>. Total bonus so far: <b>$2.85</b></b></p>\n                <p></p>\n                <p>Press any key to continue.</p>\n                ","response":" ","trial_type":"html-keyboard-response","trial_index":26,"time_elapsed":370161,"internal_node_id":"0.0-18.0","params":{"nStudents":24,"maxFlips":30,"completionMinutes":45,"basePay":8,"maxBonus":9,"perTrialBonus":0.5,"perTrialBonusThreshold":0.05,"exampleCost":0.01},"classroomParams":{"A":{"a":1,"b":4},"B":{"a":4,"b":1},"C":{"a":2,"b":8},"D":{"a":8,"b":2}},"conditions":["nonSeqFull","nonSeqPartial","seqNoFeedback","seqFeedback"],"classroomPairings":[["A","B"],["C","D"]],"coinWeights":[0.2,0.5,0.8],"subjectId":"A2JP9IKRHNLRPI","assignmentId":"3X0H8UUIT2A4NQ280OGN6T4XKZ3WSF","hitId":"363A7XIFV48LMLIF2CKYA8VQSVQAVR","url":"https://gershmanlab.com/experiments/alicia/teaching/experiment/?hitId=363A7XIFV48LMLIF2CKYA8VQSVQAVR&workerId=A2JP9IKRHNLRPI&assignmentId=3X0H8UUIT2A4NQ280OGN6T4XKZ3WSF&a=I80X9&tp_a=I80X9&b=3X0H8UUIT2A4NQ280OGN6T4XKZ3WSF&tp_b=3X0H8UUIT2A4NQ280OGN6T4XKZ3WSF&c=365799&tp_c=365799"},{"rt":null,"stimulus":"<div style=\"font-size:60px;\">Next student</div>","response":null,"trial_type":"html-keyboard-response","trial_index":27,"time_elapsed":373165,"internal_node_id":"0.0-19.0-0.0","params":{"nStudents":24,"maxFlips":30,"completionMinutes":45,"basePay":8,"maxBonus":9,"perTrialBonus":0.5,"perTrialBonusThreshold":0.05,"exampleCost":0.01},"classroomParams":{"A":{"a":1,"b":4},"B":{"a":4,"b":1},"C":{"a":2,"b":8},"D":{"a":8,"b":2}},"conditions":["nonSeqFull","nonSeqPartial","seqNoFeedback","seqFeedback"],"classroomPairings":[["A","B"],["C","D"]],"coinWeights":[0.2,0.5,0.8],"subjectId":"A2JP9IKRHNLRPI","assignmentId":"3X0H8UUIT2A4NQ280OGN6T4XKZ3WSF","hitId":"363A7XIFV48LMLIF2CKYA8VQSVQAVR","url":"https://gershmanlab.com/experiments/alicia/teaching/experiment/?hitId=363A7XIFV48LMLIF2CKYA8VQSVQAVR&workerId=A2JP9IKRHNLRPI&assignmentId=3X0H8UUIT2A4NQ280OGN6T4XKZ3WSF&a=I80X9&tp_a=I80X9&b=3X0H8UUIT2A4NQ280OGN6T4XKZ3WSF&tp_b=3X0H8UUIT2A4NQ280OGN6T4XKZ3WSF&c=365799&tp_c=365799"},{"rt":23030,"stimulus":"\n            <h4 style=\"color:Orange;\">Student 3</h4>\n            <h2>The weight of your coin is <b style=\"color:Tomato;\">0.5</b>.</h2>\n            <p>In this block, you will be giving <b>two</b> sets of examples to Student 3.</p>\n                <p>You will see the student's guess after the first set of examples. You will also receive feedback at the end of the block.</p>\n            <p>To earn the highest bonus, you will have to <b>take into consideration the student's guess</b> when you choose your second set of examples.</p>","response":0,"trial_type":"html-button-response","trial_index":28,"time_elapsed":396196,"internal_node_id":"0.0-20.0","params":{"nStudents":24,"maxFlips":30,"completionMinutes":45,"basePay":8,"maxBonus":9,"perTrialBonus":0.5,"perTrialBonusThreshold":0.05,"exampleCost":0.01},"classroomParams":{"A":{"a":1,"b":4},"B":{"a":4,"b":1},"C":{"a":2,"b":8},"D":{"a":8,"b":2}},"conditions":["nonSeqFull","nonSeqPartial","seqNoFeedback","seqFeedback"],"classroomPairings":[["A","B"],["C","D"]],"coinWeights":[0.2,0.5,0.8],"subjectId":"A2JP9IKRHNLRPI","assignmentId":"3X0H8UUIT2A4NQ280OGN6T4XKZ3WSF","hitId":"363A7XIFV48LMLIF2CKYA8VQSVQAVR","url":"https://gershmanlab.com/experiments/alicia/teaching/experiment/?hitId=363A7XIFV48LMLIF2CKYA8VQSVQAVR&workerId=A2JP9IKRHNLRPI&assignmentId=3X0H8UUIT2A4NQ280OGN6T4XKZ3WSF&a=I80X9&tp_a=I80X9&b=3X0H8UUIT2A4NQ280OGN6T4XKZ3WSF&tp_b=3X0H8UUIT2A4NQ280OGN6T4XKZ3WSF&c=365799&tp_c=365799"},{"rt":11710,"response":{"heads":"1","tails":"1"},"type":"response","condition":"seqFeedback","trueTheta":0.5,"classrooms":["A","B"],"studentTrueClassroom":"B","exampleSet":"first","trial_type":"survey-html-form","trial_index":29,"time_elapsed":407906,"internal_node_id":"0.0-21.0-0.0","params":{"nStudents":24,"maxFlips":30,"completionMinutes":45,"basePay":8,"maxBonus":9,"perTrialBonus":0.5,"perTrialBonusThreshold":0.05,"exampleCost":0.01},"classroomParams":{"A":{"a":1,"b":4},"B":{"a":4,"b":1},"C":{"a":2,"b":8},"D":{"a":8,"b":2}},"conditions":["nonSeqFull","nonSeqPartial","seqNoFeedback","seqFeedback"],"classroomPairings":[["A","B"],["C","D"]],"coinWeights":[0.2,0.5,0.8],"subjectId":"A2JP9IKRHNLRPI","assignmentId":"3X0H8UUIT2A4NQ280OGN6T4XKZ3WSF","hitId":"363A7XIFV48LMLIF2CKYA8VQSVQAVR","url":"https://gershmanlab.com/experiments/alicia/teaching/experiment/?hitId=363A7XIFV48LMLIF2CKYA8VQSVQAVR&workerId=A2JP9IKRHNLRPI&assignmentId=3X0H8UUIT2A4NQ280OGN6T4XKZ3WSF&a=I80X9&tp_a=I80X9&b=3X0H8UUIT2A4NQ280OGN6T4XKZ3WSF&tp_b=3X0H8UUIT2A4NQ280OGN6T4XKZ3WSF&c=365799&tp_c=365799","heads":1,"tails":1,"studentIndex":2,"studentTrueHypers":{"a":4,"b":1},"studentGuess":0.7142857142857143,"delta":0.2142857142857143,"totalExamples":2,"bonusSoFar":2.85},{"rt":null,"stimulus":"Sending examples to student... ","response":null,"trial_type":"html-keyboard-response","trial_index":30,"time_elapsed":409158,"internal_node_id":"0.0-22.0","params":{"nStudents":24,"maxFlips":30,"completionMinutes":45,"basePay":8,"maxBonus":9,"perTrialBonus":0.5,"perTrialBonusThreshold":0.05,"exampleCost":0.01},"classroomParams":{"A":{"a":1,"b":4},"B":{"a":4,"b":1},"C":{"a":2,"b":8},"D":{"a":8,"b":2}},"conditions":["nonSeqFull","nonSeqPartial","seqNoFeedback","seqFeedback"],"classroomPairings":[["A","B"],["C","D"]],"coinWeights":[0.2,0.5,0.8],"subjectId":"A2JP9IKRHNLRPI","assignmentId":"3X0H8UUIT2A4NQ280OGN6T4XKZ3WSF","hitId":"363A7XIFV48LMLIF2CKYA8VQSVQAVR","url":"https://gershmanlab.com/experiments/alicia/teaching/experiment/?hitId=363A7XIFV48LMLIF2CKYA8VQSVQAVR&workerId=A2JP9IKRHNLRPI&assignmentId=3X0H8UUIT2A4NQ280OGN6T4XKZ3WSF&a=I80X9&tp_a=I80X9&b=3X0H8UUIT2A4NQ280OGN6T4XKZ3WSF&tp_b=3X0H8UUIT2A4NQ280OGN6T4XKZ3WSF&c=365799&tp_c=365799"},{"rt":null,"stimulus":"Examples sent to student! Waiting for student...","response":null,"trial_type":"html-keyboard-response","trial_index":31,"time_elapsed":414168,"internal_node_id":"0.0-23.0","params":{"nStudents":24,"maxFlips":30,"completionMinutes":45,"basePay":8,"maxBonus":9,"perTrialBonus":0.5,"perTrialBonusThreshold":0.05,"exampleCost":0.01},"classroomParams":{"A":{"a":1,"b":4},"B":{"a":4,"b":1},"C":{"a":2,"b":8},"D":{"a":8,"b":2}},"conditions":["nonSeqFull","nonSeqPartial","seqNoFeedback","seqFeedback"],"classroomPairings":[["A","B"],["C","D"]],"coinWeights":[0.2,0.5,0.8],"subjectId":"A2JP9IKRHNLRPI","assignmentId":"3X0H8UUIT2A4NQ280OGN6T4XKZ3WSF","hitId":"363A7XIFV48LMLIF2CKYA8VQSVQAVR","url":"https://gershmanlab.com/experiments/alicia/teaching/experiment/?hitId=363A7XIFV48LMLIF2CKYA8VQSVQAVR&workerId=A2JP9IKRHNLRPI&assignmentId=3X0H8UUIT2A4NQ280OGN6T4XKZ3WSF&a=I80X9&tp_a=I80X9&b=3X0H8UUIT2A4NQ280OGN6T4XKZ3WSF&tp_b=3X0H8UUIT2A4NQ280OGN6T4XKZ3WSF&c=365799&tp_c=365799"},{"rt":3553,"stimulus":"\n                <p>Student's guess for coin weight: <b style=\"color:Tomato;\">0.71</b></p>\n                <p></b></p>\n                <p>You will now send another set of examples to your student. <b>Remember to take your student's guess into consideration so that you can earn the highest bonus possible!</b> </p>\n                <p>Press any key to continue.</p>\n                ","response":" ","trial_type":"html-keyboard-response","trial_index":32,"time_elapsed":417722,"internal_node_id":"0.0-24.0","params":{"nStudents":24,"maxFlips":30,"completionMinutes":45,"basePay":8,"maxBonus":9,"perTrialBonus":0.5,"perTrialBonusThreshold":0.05,"exampleCost":0.01},"classroomParams":{"A":{"a":1,"b":4},"B":{"a":4,"b":1},"C":{"a":2,"b":8},"D":{"a":8,"b":2}},"conditions":["nonSeqFull","nonSeqPartial","seqNoFeedback","seqFeedback"],"classroomPairings":[["A","B"],["C","D"]],"coinWeights":[0.2,0.5,0.8],"subjectId":"A2JP9IKRHNLRPI","assignmentId":"3X0H8UUIT2A4NQ280OGN6T4XKZ3WSF","hitId":"363A7XIFV48LMLIF2CKYA8VQSVQAVR","url":"https://gershmanlab.com/experiments/alicia/teaching/experiment/?hitId=363A7XIFV48LMLIF2CKYA8VQSVQAVR&workerId=A2JP9IKRHNLRPI&assignmentId=3X0H8UUIT2A4NQ280OGN6T4XKZ3WSF&a=I80X9&tp_a=I80X9&b=3X0H8UUIT2A4NQ280OGN6T4XKZ3WSF&tp_b=3X0H8UUIT2A4NQ280OGN6T4XKZ3WSF&c=365799&tp_c=365799"},{"rt":12256,"response":{"heads":"1","tails":"4"},"type":"response","condition":"seqFeedback","trueTheta":0.5,"classrooms":["A","B"],"studentTrueClassroom":"B","exampleSet":"second","trial_type":"survey-html-form","trial_index":33,"time_elapsed":429978,"internal_node_id":"0.0-25.0-0.0","params":{"nStudents":24,"maxFlips":30,"completionMinutes":45,"basePay":8,"maxBonus":9,"perTrialBonus":0.5,"perTrialBonusThreshold":0.05,"exampleCost":0.01},"classroomParams":{"A":{"a":1,"b":4},"B":{"a":4,"b":1},"C":{"a":2,"b":8},"D":{"a":8,"b":2}},"conditions":["nonSeqFull","nonSeqPartial","seqNoFeedback","seqFeedback"],"classroomPairings":[["A","B"],["C","D"]],"coinWeights":[0.2,0.5,0.8],"subjectId":"A2JP9IKRHNLRPI","assignmentId":"3X0H8UUIT2A4NQ280OGN6T4XKZ3WSF","hitId":"363A7XIFV48LMLIF2CKYA8VQSVQAVR","url":"https://gershmanlab.com/experiments/alicia/teaching/experiment/?hitId=363A7XIFV48LMLIF2CKYA8VQSVQAVR&workerId=A2JP9IKRHNLRPI&assignmentId=3X0H8UUIT2A4NQ280OGN6T4XKZ3WSF&a=I80X9&tp_a=I80X9&b=3X0H8UUIT2A4NQ280OGN6T4XKZ3WSF&tp_b=3X0H8UUIT2A4NQ280OGN6T4XKZ3WSF&c=365799&tp_c=365799","firstResponseHeads":1,"firstResponseTails":1,"secondResponseHeads":1,"secondResponseTails":4,"totalHeads":2,"totalTails":5,"studentIndex":2,"studentTrueHypers":{"a":4,"b":1},"studentGuess":0.5,"delta":0,"bonus":0.43,"bonusSoFar":3.28,"totalExamples":7},{"rt":null,"stimulus":"Sending examples to student... ","response":null,"trial_type":"html-keyboard-response","trial_index":34,"time_elapsed":431729,"internal_node_id":"0.0-26.0","params":{"nStudents":24,"maxFlips":30,"completionMinutes":45,"basePay":8,"maxBonus":9,"perTrialBonus":0.5,"perTrialBonusThreshold":0.05,"exampleCost":0.01},"classroomParams":{"A":{"a":1,"b":4},"B":{"a":4,"b":1},"C":{"a":2,"b":8},"D":{"a":8,"b":2}},"conditions":["nonSeqFull","nonSeqPartial","seqNoFeedback","seqFeedback"],"classroomPairings":[["A","B"],["C","D"]],"coinWeights":[0.2,0.5,0.8],"subjectId":"A2JP9IKRHNLRPI","assignmentId":"3X0H8UUIT2A4NQ280OGN6T4XKZ3WSF","hitId":"363A7XIFV48LMLIF2CKYA8VQSVQAVR","url":"https://gershmanlab.com/experiments/alicia/teaching/experiment/?hitId=363A7XIFV48LMLIF2CKYA8VQSVQAVR&workerId=A2JP9IKRHNLRPI&assignmentId=3X0H8UUIT2A4NQ280OGN6T4XKZ3WSF&a=I80X9&tp_a=I80X9&b=3X0H8UUIT2A4NQ280OGN6T4XKZ3WSF&tp_b=3X0H8UUIT2A4NQ280OGN6T4XKZ3WSF&c=365799&tp_c=365799"},{"rt":null,"stimulus":"Examples sent to student! Waiting for student...","response":null,"trial_type":"html-keyboard-response","trial_index":35,"time_elapsed":436730,"internal_node_id":"0.0-27.0","params":{"nStudents":24,"maxFlips":30,"completionMinutes":45,"basePay":8,"maxBonus":9,"perTrialBonus":0.5,"perTrialBonusThreshold":0.05,"exampleCost":0.01},"classroomParams":{"A":{"a":1,"b":4},"B":{"a":4,"b":1},"C":{"a":2,"b":8},"D":{"a":8,"b":2}},"conditions":["nonSeqFull","nonSeqPartial","seqNoFeedback","seqFeedback"],"classroomPairings":[["A","B"],["C","D"]],"coinWeights":[0.2,0.5,0.8],"subjectId":"A2JP9IKRHNLRPI","assignmentId":"3X0H8UUIT2A4NQ280OGN6T4XKZ3WSF","hitId":"363A7XIFV48LMLIF2CKYA8VQSVQAVR","url":"https://gershmanlab.com/experiments/alicia/teaching/experiment/?hitId=363A7XIFV48LMLIF2CKYA8VQSVQAVR&workerId=A2JP9IKRHNLRPI&assignmentId=3X0H8UUIT2A4NQ280OGN6T4XKZ3WSF&a=I80X9&tp_a=I80X9&b=3X0H8UUIT2A4NQ280OGN6T4XKZ3WSF&tp_b=3X0H8UUIT2A4NQ280OGN6T4XKZ3WSF&c=365799&tp_c=365799"},{"rt":3479,"stimulus":"\n                <p>Student 3's first guess for coin weight: <b style=\"color:Tomato\";>0.71</b></p>\n                <p>Student 3's second guess for coin weight: <b style=\"color:Tomato\";>0.50</b></p>\n                <p>You received a bonus of <b>$0.43</b> based on the student's second guess.</p>\n                <p>Total bonus so far: <b>$3.28</b></p>\n                <p>Press any key to continue.</p>\n                ","response":" ","trial_type":"html-keyboard-response","trial_index":36,"time_elapsed":440210,"internal_node_id":"0.0-28.0","params":{"nStudents":24,"maxFlips":30,"completionMinutes":45,"basePay":8,"maxBonus":9,"perTrialBonus":0.5,"perTrialBonusThreshold":0.05,"exampleCost":0.01},"classroomParams":{"A":{"a":1,"b":4},"B":{"a":4,"b":1},"C":{"a":2,"b":8},"D":{"a":8,"b":2}},"conditions":["nonSeqFull","nonSeqPartial","seqNoFeedback","seqFeedback"],"classroomPairings":[["A","B"],["C","D"]],"coinWeights":[0.2,0.5,0.8],"subjectId":"A2JP9IKRHNLRPI","assignmentId":"3X0H8UUIT2A4NQ280OGN6T4XKZ3WSF","hitId":"363A7XIFV48LMLIF2CKYA8VQSVQAVR","url":"https://gershmanlab.com/experiments/alicia/teaching/experiment/?hitId=363A7XIFV48LMLIF2CKYA8VQSVQAVR&workerId=A2JP9IKRHNLRPI&assignmentId=3X0H8UUIT2A4NQ280OGN6T4XKZ3WSF&a=I80X9&tp_a=I80X9&b=3X0H8UUIT2A4NQ280OGN6T4XKZ3WSF&tp_b=3X0H8UUIT2A4NQ280OGN6T4XKZ3WSF&c=365799&tp_c=365799"},{"rt":null,"stimulus":"<div style=\"font-size:60px;\">Next student</div>","response":null,"trial_type":"html-keyboard-response","trial_index":37,"time_elapsed":443213,"internal_node_id":"0.0-29.0-0.0","params":{"nStudents":24,"maxFlips":30,"completionMinutes":45,"basePay":8,"maxBonus":9,"perTrialBonus":0.5,"perTrialBonusThreshold":0.05,"exampleCost":0.01},"classroomParams":{"A":{"a":1,"b":4},"B":{"a":4,"b":1},"C":{"a":2,"b":8},"D":{"a":8,"b":2}},"conditions":["nonSeqFull","nonSeqPartial","seqNoFeedback","seqFeedback"],"classroomPairings":[["A","B"],["C","D"]],"coinWeights":[0.2,0.5,0.8],"subjectId":"A2JP9IKRHNLRPI","assignmentId":"3X0H8UUIT2A4NQ280OGN6T4XKZ3WSF","hitId":"363A7XIFV48LMLIF2CKYA8VQSVQAVR","url":"https://gershmanlab.com/experiments/alicia/teaching/experiment/?hitId=363A7XIFV48LMLIF2CKYA8VQSVQAVR&workerId=A2JP9IKRHNLRPI&assignmentId=3X0H8UUIT2A4NQ280OGN6T4XKZ3WSF&a=I80X9&tp_a=I80X9&b=3X0H8UUIT2A4NQ280OGN6T4XKZ3WSF&tp_b=3X0H8UUIT2A4NQ280OGN6T4XKZ3WSF&c=365799&tp_c=365799"},{"rt":1625,"stimulus":"\n            <h4 style=\"color:Orange;\">Student 4</h4>\n            <h2>The weight of your coin is <b style=\"color:Tomato;\">0.8</b>.</h2>\n            <p>In this block, you will be giving <b>one</b> set of examples to Student 4.</p>\n                <p>You will receive feedback at the end of the block.</p>\n            <p></p>","response":0,"trial_type":"html-button-response","trial_index":38,"time_elapsed":444839,"internal_node_id":"0.0-30.0","params":{"nStudents":24,"maxFlips":30,"completionMinutes":45,"basePay":8,"maxBonus":9,"perTrialBonus":0.5,"perTrialBonusThreshold":0.05,"exampleCost":0.01},"classroomParams":{"A":{"a":1,"b":4},"B":{"a":4,"b":1},"C":{"a":2,"b":8},"D":{"a":8,"b":2}},"conditions":["nonSeqFull","nonSeqPartial","seqNoFeedback","seqFeedback"],"classroomPairings":[["A","B"],["C","D"]],"coinWeights":[0.2,0.5,0.8],"subjectId":"A2JP9IKRHNLRPI","assignmentId":"3X0H8UUIT2A4NQ280OGN6T4XKZ3WSF","hitId":"363A7XIFV48LMLIF2CKYA8VQSVQAVR","url":"https://gershmanlab.com/experiments/alicia/teaching/experiment/?hitId=363A7XIFV48LMLIF2CKYA8VQSVQAVR&workerId=A2JP9IKRHNLRPI&assignmentId=3X0H8UUIT2A4NQ280OGN6T4XKZ3WSF&a=I80X9&tp_a=I80X9&b=3X0H8UUIT2A4NQ280OGN6T4XKZ3WSF&tp_b=3X0H8UUIT2A4NQ280OGN6T4XKZ3WSF&c=365799&tp_c=365799"},{"rt":11036,"response":{"heads":"4","tails":"1"},"type":"response","condition":"nonSeqPartial","trueTheta":0.8,"classrooms":["A","B"],"studentTrueClassroom":"A","exampleSet":"first","trial_type":"survey-html-form","trial_index":39,"time_elapsed":455874,"internal_node_id":"0.0-31.0-0.0","params":{"nStudents":24,"maxFlips":30,"completionMinutes":45,"basePay":8,"maxBonus":9,"perTrialBonus":0.5,"perTrialBonusThreshold":0.05,"exampleCost":0.01},"classroomParams":{"A":{"a":1,"b":4},"B":{"a":4,"b":1},"C":{"a":2,"b":8},"D":{"a":8,"b":2}},"conditions":["nonSeqFull","nonSeqPartial","seqNoFeedback","seqFeedback"],"classroomPairings":[["A","B"],["C","D"]],"coinWeights":[0.2,0.5,0.8],"subjectId":"A2JP9IKRHNLRPI","assignmentId":"3X0H8UUIT2A4NQ280OGN6T4XKZ3WSF","hitId":"363A7XIFV48LMLIF2CKYA8VQSVQAVR","url":"https://gershmanlab.com/experiments/alicia/teaching/experiment/?hitId=363A7XIFV48LMLIF2CKYA8VQSVQAVR&workerId=A2JP9IKRHNLRPI&assignmentId=3X0H8UUIT2A4NQ280OGN6T4XKZ3WSF&a=I80X9&tp_a=I80X9&b=3X0H8UUIT2A4NQ280OGN6T4XKZ3WSF&tp_b=3X0H8UUIT2A4NQ280OGN6T4XKZ3WSF&c=365799&tp_c=365799","heads":4,"tails":1,"studentIndex":3,"studentTrueHypers":{"a":1,"b":4},"studentGuess":0.5,"delta":0.30000000000000004,"totalExamples":5,"bonus":0,"bonusSoFar":3.28},{"rt":null,"stimulus":"Sending examples to student... ","response":null,"trial_type":"html-keyboard-response","trial_index":40,"time_elapsed":457641,"internal_node_id":"0.0-32.0","params":{"nStudents":24,"maxFlips":30,"completionMinutes":45,"basePay":8,"maxBonus":9,"perTrialBonus":0.5,"perTrialBonusThreshold":0.05,"exampleCost":0.01},"classroomParams":{"A":{"a":1,"b":4},"B":{"a":4,"b":1},"C":{"a":2,"b":8},"D":{"a":8,"b":2}},"conditions":["nonSeqFull","nonSeqPartial","seqNoFeedback","seqFeedback"],"classroomPairings":[["A","B"],["C","D"]],"coinWeights":[0.2,0.5,0.8],"subjectId":"A2JP9IKRHNLRPI","assignmentId":"3X0H8UUIT2A4NQ280OGN6T4XKZ3WSF","hitId":"363A7XIFV48LMLIF2CKYA8VQSVQAVR","url":"https://gershmanlab.com/experiments/alicia/teaching/experiment/?hitId=363A7XIFV48LMLIF2CKYA8VQSVQAVR&workerId=A2JP9IKRHNLRPI&assignmentId=3X0H8UUIT2A4NQ280OGN6T4XKZ3WSF&a=I80X9&tp_a=I80X9&b=3X0H8UUIT2A4NQ280OGN6T4XKZ3WSF&tp_b=3X0H8UUIT2A4NQ280OGN6T4XKZ3WSF&c=365799&tp_c=365799"},{"rt":null,"stimulus":"Examples sent to student! Waiting for student...","response":null,"trial_type":"html-keyboard-response","trial_index":41,"time_elapsed":463151,"internal_node_id":"0.0-33.0","params":{"nStudents":24,"maxFlips":30,"completionMinutes":45,"basePay":8,"maxBonus":9,"perTrialBonus":0.5,"perTrialBonusThreshold":0.05,"exampleCost":0.01},"classroomParams":{"A":{"a":1,"b":4},"B":{"a":4,"b":1},"C":{"a":2,"b":8},"D":{"a":8,"b":2}},"conditions":["nonSeqFull","nonSeqPartial","seqNoFeedback","seqFeedback"],"classroomPairings":[["A","B"],["C","D"]],"coinWeights":[0.2,0.5,0.8],"subjectId":"A2JP9IKRHNLRPI","assignmentId":"3X0H8UUIT2A4NQ280OGN6T4XKZ3WSF","hitId":"363A7XIFV48LMLIF2CKYA8VQSVQAVR","url":"https://gershmanlab.com/experiments/alicia/teaching/experiment/?hitId=363A7XIFV48LMLIF2CKYA8VQSVQAVR&workerId=A2JP9IKRHNLRPI&assignmentId=3X0H8UUIT2A4NQ280OGN6T4XKZ3WSF&a=I80X9&tp_a=I80X9&b=3X0H8UUIT2A4NQ280OGN6T4XKZ3WSF&tp_b=3X0H8UUIT2A4NQ280OGN6T4XKZ3WSF&c=365799&tp_c=365799"},{"rt":3002,"stimulus":"\n                <p>Student's guess for coin weight: <b style=\"color:Tomato;\">0.50</b></p>\n                <p>You received a bonus of <b>$0</b>. Total bonus so far: <b>$3.28</b></b></p>\n                <p></p>\n                <p>Press any key to continue.</p>\n                ","response":" ","trial_type":"html-keyboard-response","trial_index":42,"time_elapsed":466154,"internal_node_id":"0.0-34.0","params":{"nStudents":24,"maxFlips":30,"completionMinutes":45,"basePay":8,"maxBonus":9,"perTrialBonus":0.5,"perTrialBonusThreshold":0.05,"exampleCost":0.01},"classroomParams":{"A":{"a":1,"b":4},"B":{"a":4,"b":1},"C":{"a":2,"b":8},"D":{"a":8,"b":2}},"conditions":["nonSeqFull","nonSeqPartial","seqNoFeedback","seqFeedback"],"classroomPairings":[["A","B"],["C","D"]],"coinWeights":[0.2,0.5,0.8],"subjectId":"A2JP9IKRHNLRPI","assignmentId":"3X0H8UUIT2A4NQ280OGN6T4XKZ3WSF","hitId":"363A7XIFV48LMLIF2CKYA8VQSVQAVR","url":"https://gershmanlab.com/experiments/alicia/teaching/experiment/?hitId=363A7XIFV48LMLIF2CKYA8VQSVQAVR&workerId=A2JP9IKRHNLRPI&assignmentId=3X0H8UUIT2A4NQ280OGN6T4XKZ3WSF&a=I80X9&tp_a=I80X9&b=3X0H8UUIT2A4NQ280OGN6T4XKZ3WSF&tp_b=3X0H8UUIT2A4NQ280OGN6T4XKZ3WSF&c=365799&tp_c=365799"},{"rt":null,"stimulus":"<div style=\"font-size:60px;\">Next student</div>","response":null,"trial_type":"html-keyboard-response","trial_index":43,"time_elapsed":468168,"internal_node_id":"0.0-35.0-0.0","params":{"nStudents":24,"maxFlips":30,"completionMinutes":45,"basePay":8,"maxBonus":9,"perTrialBonus":0.5,"perTrialBonusThreshold":0.05,"exampleCost":0.01},"classroomParams":{"A":{"a":1,"b":4},"B":{"a":4,"b":1},"C":{"a":2,"b":8},"D":{"a":8,"b":2}},"conditions":["nonSeqFull","nonSeqPartial","seqNoFeedback","seqFeedback"],"classroomPairings":[["A","B"],["C","D"]],"coinWeights":[0.2,0.5,0.8],"subjectId":"A2JP9IKRHNLRPI","assignmentId":"3X0H8UUIT2A4NQ280OGN6T4XKZ3WSF","hitId":"363A7XIFV48LMLIF2CKYA8VQSVQAVR","url":"https://gershmanlab.com/experiments/alicia/teaching/experiment/?hitId=363A7XIFV48LMLIF2CKYA8VQSVQAVR&workerId=A2JP9IKRHNLRPI&assignmentId=3X0H8UUIT2A4NQ280OGN6T4XKZ3WSF&a=I80X9&tp_a=I80X9&b=3X0H8UUIT2A4NQ280OGN6T4XKZ3WSF&tp_b=3X0H8UUIT2A4NQ280OGN6T4XKZ3WSF&c=365799&tp_c=365799"},{"rt":1962,"stimulus":"\n            <h4 style=\"color:Orange;\">Student 5</h4>\n            <h2>The weight of your coin is <b style=\"color:Tomato;\">0.8</b>.</h2>\n            <p>In this block, you will be giving <b>two</b> sets of examples to Student 5.</p>\n                <p>You will see the student's guess after the first set of examples. You will also receive feedback at the end of the block.</p>\n            <p>To earn the highest bonus, you will have to <b>take into consideration the student's guess</b> when you choose your second set of examples.</p>","response":0,"trial_type":"html-button-response","trial_index":44,"time_elapsed":470130,"internal_node_id":"0.0-36.0","params":{"nStudents":24,"maxFlips":30,"completionMinutes":45,"basePay":8,"maxBonus":9,"perTrialBonus":0.5,"perTrialBonusThreshold":0.05,"exampleCost":0.01},"classroomParams":{"A":{"a":1,"b":4},"B":{"a":4,"b":1},"C":{"a":2,"b":8},"D":{"a":8,"b":2}},"conditions":["nonSeqFull","nonSeqPartial","seqNoFeedback","seqFeedback"],"classroomPairings":[["A","B"],["C","D"]],"coinWeights":[0.2,0.5,0.8],"subjectId":"A2JP9IKRHNLRPI","assignmentId":"3X0H8UUIT2A4NQ280OGN6T4XKZ3WSF","hitId":"363A7XIFV48LMLIF2CKYA8VQSVQAVR","url":"https://gershmanlab.com/experiments/alicia/teaching/experiment/?hitId=363A7XIFV48LMLIF2CKYA8VQSVQAVR&workerId=A2JP9IKRHNLRPI&assignmentId=3X0H8UUIT2A4NQ280OGN6T4XKZ3WSF&a=I80X9&tp_a=I80X9&b=3X0H8UUIT2A4NQ280OGN6T4XKZ3WSF&tp_b=3X0H8UUIT2A4NQ280OGN6T4XKZ3WSF&c=365799&tp_c=365799"},{"rt":3557,"response":{"heads":"4","tails":"1"},"type":"response","condition":"seqFeedback","trueTheta":0.8,"classrooms":["A","B"],"studentTrueClassroom":"B","exampleSet":"first","trial_type":"survey-html-form","trial_index":45,"time_elapsed":473687,"internal_node_id":"0.0-37.0-0.0","params":{"nStudents":24,"maxFlips":30,"completionMinutes":45,"basePay":8,"maxBonus":9,"perTrialBonus":0.5,"perTrialBonusThreshold":0.05,"exampleCost":0.01},"classroomParams":{"A":{"a":1,"b":4},"B":{"a":4,"b":1},"C":{"a":2,"b":8},"D":{"a":8,"b":2}},"conditions":["nonSeqFull","nonSeqPartial","seqNoFeedback","seqFeedback"],"classroomPairings":[["A","B"],["C","D"]],"coinWeights":[0.2,0.5,0.8],"subjectId":"A2JP9IKRHNLRPI","assignmentId":"3X0H8UUIT2A4NQ280OGN6T4XKZ3WSF","hitId":"363A7XIFV48LMLIF2CKYA8VQSVQAVR","url":"https://gershmanlab.com/experiments/alicia/teaching/experiment/?hitId=363A7XIFV48LMLIF2CKYA8VQSVQAVR&workerId=A2JP9IKRHNLRPI&assignmentId=3X0H8UUIT2A4NQ280OGN6T4XKZ3WSF&a=I80X9&tp_a=I80X9&b=3X0H8UUIT2A4NQ280OGN6T4XKZ3WSF&tp_b=3X0H8UUIT2A4NQ280OGN6T4XKZ3WSF&c=365799&tp_c=365799","heads":4,"tails":1,"studentIndex":4,"studentTrueHypers":{"a":4,"b":1},"studentGuess":0.8,"delta":0,"totalExamples":5,"bonusSoFar":3.28},{"rt":null,"stimulus":"Sending examples to student... ","response":null,"trial_type":"html-keyboard-response","trial_index":46,"time_elapsed":474951,"internal_node_id":"0.0-38.0","params":{"nStudents":24,"maxFlips":30,"completionMinutes":45,"basePay":8,"maxBonus":9,"perTrialBonus":0.5,"perTrialBonusThreshold":0.05,"exampleCost":0.01},"classroomParams":{"A":{"a":1,"b":4},"B":{"a":4,"b":1},"C":{"a":2,"b":8},"D":{"a":8,"b":2}},"conditions":["nonSeqFull","nonSeqPartial","seqNoFeedback","seqFeedback"],"classroomPairings":[["A","B"],["C","D"]],"coinWeights":[0.2,0.5,0.8],"subjectId":"A2JP9IKRHNLRPI","assignmentId":"3X0H8UUIT2A4NQ280OGN6T4XKZ3WSF","hitId":"363A7XIFV48LMLIF2CKYA8VQSVQAVR","url":"https://gershmanlab.com/experiments/alicia/teaching/experiment/?hitId=363A7XIFV48LMLIF2CKYA8VQSVQAVR&workerId=A2JP9IKRHNLRPI&assignmentId=3X0H8UUIT2A4NQ280OGN6T4XKZ3WSF&a=I80X9&tp_a=I80X9&b=3X0H8UUIT2A4NQ280OGN6T4XKZ3WSF&tp_b=3X0H8UUIT2A4NQ280OGN6T4XKZ3WSF&c=365799&tp_c=365799"},{"rt":null,"stimulus":"Examples sent to student! Waiting for student...","response":null,"trial_type":"html-keyboard-response","trial_index":47,"time_elapsed":480464,"internal_node_id":"0.0-39.0","params":{"nStudents":24,"maxFlips":30,"completionMinutes":45,"basePay":8,"maxBonus":9,"perTrialBonus":0.5,"perTrialBonusThreshold":0.05,"exampleCost":0.01},"classroomParams":{"A":{"a":1,"b":4},"B":{"a":4,"b":1},"C":{"a":2,"b":8},"D":{"a":8,"b":2}},"conditions":["nonSeqFull","nonSeqPartial","seqNoFeedback","seqFeedback"],"classroomPairings":[["A","B"],["C","D"]],"coinWeights":[0.2,0.5,0.8],"subjectId":"A2JP9IKRHNLRPI","assignmentId":"3X0H8UUIT2A4NQ280OGN6T4XKZ3WSF","hitId":"363A7XIFV48LMLIF2CKYA8VQSVQAVR","url":"https://gershmanlab.com/experiments/alicia/teaching/experiment/?hitId=363A7XIFV48LMLIF2CKYA8VQSVQAVR&workerId=A2JP9IKRHNLRPI&assignmentId=3X0H8UUIT2A4NQ280OGN6T4XKZ3WSF&a=I80X9&tp_a=I80X9&b=3X0H8UUIT2A4NQ280OGN6T4XKZ3WSF&tp_b=3X0H8UUIT2A4NQ280OGN6T4XKZ3WSF&c=365799&tp_c=365799"},{"rt":2006,"stimulus":"\n                <p>Student's guess for coin weight: <b style=\"color:Tomato;\">0.80</b></p>\n                <p></b></p>\n                <p>You will now send another set of examples to your student. <b>Remember to take your student's guess into consideration so that you can earn the highest bonus possible!</b> </p>\n                <p>Press any key to continue.</p>\n                ","response":" ","trial_type":"html-keyboard-response","trial_index":48,"time_elapsed":482471,"internal_node_id":"0.0-40.0","params":{"nStudents":24,"maxFlips":30,"completionMinutes":45,"basePay":8,"maxBonus":9,"perTrialBonus":0.5,"perTrialBonusThreshold":0.05,"exampleCost":0.01},"classroomParams":{"A":{"a":1,"b":4},"B":{"a":4,"b":1},"C":{"a":2,"b":8},"D":{"a":8,"b":2}},"conditions":["nonSeqFull","nonSeqPartial","seqNoFeedback","seqFeedback"],"classroomPairings":[["A","B"],["C","D"]],"coinWeights":[0.2,0.5,0.8],"subjectId":"A2JP9IKRHNLRPI","assignmentId":"3X0H8UUIT2A4NQ280OGN6T4XKZ3WSF","hitId":"363A7XIFV48LMLIF2CKYA8VQSVQAVR","url":"https://gershmanlab.com/experiments/alicia/teaching/experiment/?hitId=363A7XIFV48LMLIF2CKYA8VQSVQAVR&workerId=A2JP9IKRHNLRPI&assignmentId=3X0H8UUIT2A4NQ280OGN6T4XKZ3WSF&a=I80X9&tp_a=I80X9&b=3X0H8UUIT2A4NQ280OGN6T4XKZ3WSF&tp_b=3X0H8UUIT2A4NQ280OGN6T4XKZ3WSF&c=365799&tp_c=365799"},{"rt":5963,"response":{"heads":"4","tails":"1"},"type":"response","condition":"seqFeedback","trueTheta":0.8,"classrooms":["A","B"],"studentTrueClassroom":"B","exampleSet":"second","trial_type":"survey-html-form","trial_index":49,"time_elapsed":488434,"internal_node_id":"0.0-41.0-0.0","params":{"nStudents":24,"maxFlips":30,"completionMinutes":45,"basePay":8,"maxBonus":9,"perTrialBonus":0.5,"perTrialBonusThreshold":0.05,"exampleCost":0.01},"classroomParams":{"A":{"a":1,"b":4},"B":{"a":4,"b":1},"C":{"a":2,"b":8},"D":{"a":8,"b":2}},"conditions":["nonSeqFull","nonSeqPartial","seqNoFeedback","seqFeedback"],"classroomPairings":[["A","B"],["C","D"]],"coinWeights":[0.2,0.5,0.8],"subjectId":"A2JP9IKRHNLRPI","assignmentId":"3X0H8UUIT2A4NQ280OGN6T4XKZ3WSF","hitId":"363A7XIFV48LMLIF2CKYA8VQSVQAVR","url":"https://gershmanlab.com/experiments/alicia/teaching/experiment/?hitId=363A7XIFV48LMLIF2CKYA8VQSVQAVR&workerId=A2JP9IKRHNLRPI&assignmentId=3X0H8UUIT2A4NQ280OGN6T4XKZ3WSF&a=I80X9&tp_a=I80X9&b=3X0H8UUIT2A4NQ280OGN6T4XKZ3WSF&tp_b=3X0H8UUIT2A4NQ280OGN6T4XKZ3WSF&c=365799&tp_c=365799","firstResponseHeads":4,"firstResponseTails":1,"secondResponseHeads":4,"secondResponseTails":1,"totalHeads":8,"totalTails":2,"studentIndex":4,"studentTrueHypers":{"a":4,"b":1},"studentGuess":0.8,"delta":0,"bonus":0.4,"bonusSoFar":3.68,"totalExamples":10},{"rt":null,"stimulus":"Sending examples to student... ","response":null,"trial_type":"html-keyboard-response","trial_index":50,"time_elapsed":489694,"internal_node_id":"0.0-42.0","params":{"nStudents":24,"maxFlips":30,"completionMinutes":45,"basePay":8,"maxBonus":9,"perTrialBonus":0.5,"perTrialBonusThreshold":0.05,"exampleCost":0.01},"classroomParams":{"A":{"a":1,"b":4},"B":{"a":4,"b":1},"C":{"a":2,"b":8},"D":{"a":8,"b":2}},"conditions":["nonSeqFull","nonSeqPartial","seqNoFeedback","seqFeedback"],"classroomPairings":[["A","B"],["C","D"]],"coinWeights":[0.2,0.5,0.8],"subjectId":"A2JP9IKRHNLRPI","assignmentId":"3X0H8UUIT2A4NQ280OGN6T4XKZ3WSF","hitId":"363A7XIFV48LMLIF2CKYA8VQSVQAVR","url":"https://gershmanlab.com/experiments/alicia/teaching/experiment/?hitId=363A7XIFV48LMLIF2CKYA8VQSVQAVR&workerId=A2JP9IKRHNLRPI&assignmentId=3X0H8UUIT2A4NQ280OGN6T4XKZ3WSF&a=I80X9&tp_a=I80X9&b=3X0H8UUIT2A4NQ280OGN6T4XKZ3WSF&tp_b=3X0H8UUIT2A4NQ280OGN6T4XKZ3WSF&c=365799&tp_c=365799"},{"rt":null,"stimulus":"Examples sent to student! Waiting for student...","response":null,"trial_type":"html-keyboard-response","trial_index":51,"time_elapsed":494203,"internal_node_id":"0.0-43.0","params":{"nStudents":24,"maxFlips":30,"completionMinutes":45,"basePay":8,"maxBonus":9,"perTrialBonus":0.5,"perTrialBonusThreshold":0.05,"exampleCost":0.01},"classroomParams":{"A":{"a":1,"b":4},"B":{"a":4,"b":1},"C":{"a":2,"b":8},"D":{"a":8,"b":2}},"conditions":["nonSeqFull","nonSeqPartial","seqNoFeedback","seqFeedback"],"classroomPairings":[["A","B"],["C","D"]],"coinWeights":[0.2,0.5,0.8],"subjectId":"A2JP9IKRHNLRPI","assignmentId":"3X0H8UUIT2A4NQ280OGN6T4XKZ3WSF","hitId":"363A7XIFV48LMLIF2CKYA8VQSVQAVR","url":"https://gershmanlab.com/experiments/alicia/teaching/experiment/?hitId=363A7XIFV48LMLIF2CKYA8VQSVQAVR&workerId=A2JP9IKRHNLRPI&assignmentId=3X0H8UUIT2A4NQ280OGN6T4XKZ3WSF&a=I80X9&tp_a=I80X9&b=3X0H8UUIT2A4NQ280OGN6T4XKZ3WSF&tp_b=3X0H8UUIT2A4NQ280OGN6T4XKZ3WSF&c=365799&tp_c=365799"},{"rt":2189,"stimulus":"\n                <p>Student 5's first guess for coin weight: <b style=\"color:Tomato\";>0.80</b></p>\n                <p>Student 5's second guess for coin weight: <b style=\"color:Tomato\";>0.80</b></p>\n                <p>You received a bonus of <b>$0.40</b> based on the student's second guess.</p>\n                <p>Total bonus so far: <b>$3.68</b></p>\n                <p>Press any key to continue.</p>\n                ","response":" ","trial_type":"html-keyboard-response","trial_index":52,"time_elapsed":496393,"internal_node_id":"0.0-44.0","params":{"nStudents":24,"maxFlips":30,"completionMinutes":45,"basePay":8,"maxBonus":9,"perTrialBonus":0.5,"perTrialBonusThreshold":0.05,"exampleCost":0.01},"classroomParams":{"A":{"a":1,"b":4},"B":{"a":4,"b":1},"C":{"a":2,"b":8},"D":{"a":8,"b":2}},"conditions":["nonSeqFull","nonSeqPartial","seqNoFeedback","seqFeedback"],"classroomPairings":[["A","B"],["C","D"]],"coinWeights":[0.2,0.5,0.8],"subjectId":"A2JP9IKRHNLRPI","assignmentId":"3X0H8UUIT2A4NQ280OGN6T4XKZ3WSF","hitId":"363A7XIFV48LMLIF2CKYA8VQSVQAVR","url":"https://gershmanlab.com/experiments/alicia/teaching/experiment/?hitId=363A7XIFV48LMLIF2CKYA8VQSVQAVR&workerId=A2JP9IKRHNLRPI&assignmentId=3X0H8UUIT2A4NQ280OGN6T4XKZ3WSF&a=I80X9&tp_a=I80X9&b=3X0H8UUIT2A4NQ280OGN6T4XKZ3WSF&tp_b=3X0H8UUIT2A4NQ280OGN6T4XKZ3WSF&c=365799&tp_c=365799"},{"rt":null,"stimulus":"<div style=\"font-size:60px;\">Next student</div>","response":null,"trial_type":"html-keyboard-response","trial_index":53,"time_elapsed":498904,"internal_node_id":"0.0-45.0-0.0","params":{"nStudents":24,"maxFlips":30,"completionMinutes":45,"basePay":8,"maxBonus":9,"perTrialBonus":0.5,"perTrialBonusThreshold":0.05,"exampleCost":0.01},"classroomParams":{"A":{"a":1,"b":4},"B":{"a":4,"b":1},"C":{"a":2,"b":8},"D":{"a":8,"b":2}},"conditions":["nonSeqFull","nonSeqPartial","seqNoFeedback","seqFeedback"],"classroomPairings":[["A","B"],["C","D"]],"coinWeights":[0.2,0.5,0.8],"subjectId":"A2JP9IKRHNLRPI","assignmentId":"3X0H8UUIT2A4NQ280OGN6T4XKZ3WSF","hitId":"363A7XIFV48LMLIF2CKYA8VQSVQAVR","url":"https://gershmanlab.com/experiments/alicia/teaching/experiment/?hitId=363A7XIFV48LMLIF2CKYA8VQSVQAVR&workerId=A2JP9IKRHNLRPI&assignmentId=3X0H8UUIT2A4NQ280OGN6T4XKZ3WSF&a=I80X9&tp_a=I80X9&b=3X0H8UUIT2A4NQ280OGN6T4XKZ3WSF&tp_b=3X0H8UUIT2A4NQ280OGN6T4XKZ3WSF&c=365799&tp_c=365799"},{"rt":32292,"stimulus":"\n            <h4 style=\"color:Orange;\">Student 6</h4>\n            <h2>The weight of your coin is <b style=\"color:Tomato;\">0.5</b>.</h2>\n            <p>In this block, you will be giving <b>one</b> set of examples to Student 6.</p>\n                <p>You will receive feedback at the end of the block.</p>\n            <p></p>","response":0,"trial_type":"html-button-response","trial_index":54,"time_elapsed":531197,"internal_node_id":"0.0-46.0","params":{"nStudents":24,"maxFlips":30,"completionMinutes":45,"basePay":8,"maxBonus":9,"perTrialBonus":0.5,"perTrialBonusThreshold":0.05,"exampleCost":0.01},"classroomParams":{"A":{"a":1,"b":4},"B":{"a":4,"b":1},"C":{"a":2,"b":8},"D":{"a":8,"b":2}},"conditions":["nonSeqFull","nonSeqPartial","seqNoFeedback","seqFeedback"],"classroomPairings":[["A","B"],["C","D"]],"coinWeights":[0.2,0.5,0.8],"subjectId":"A2JP9IKRHNLRPI","assignmentId":"3X0H8UUIT2A4NQ280OGN6T4XKZ3WSF","hitId":"363A7XIFV48LMLIF2CKYA8VQSVQAVR","url":"https://gershmanlab.com/experiments/alicia/teaching/experiment/?hitId=363A7XIFV48LMLIF2CKYA8VQSVQAVR&workerId=A2JP9IKRHNLRPI&assignmentId=3X0H8UUIT2A4NQ280OGN6T4XKZ3WSF&a=I80X9&tp_a=I80X9&b=3X0H8UUIT2A4NQ280OGN6T4XKZ3WSF&tp_b=3X0H8UUIT2A4NQ280OGN6T4XKZ3WSF&c=365799&tp_c=365799"},{"rt":14114,"response":{"heads":"6","tails":"0"},"type":"response","condition":"nonSeqFull","trueTheta":0.5,"classrooms":["C","D"],"studentTrueClassroom":"C","exampleSet":"first","trial_type":"survey-html-form","trial_index":55,"time_elapsed":545311,"internal_node_id":"0.0-47.0-0.0","params":{"nStudents":24,"maxFlips":30,"completionMinutes":45,"basePay":8,"maxBonus":9,"perTrialBonus":0.5,"perTrialBonusThreshold":0.05,"exampleCost":0.01},"classroomParams":{"A":{"a":1,"b":4},"B":{"a":4,"b":1},"C":{"a":2,"b":8},"D":{"a":8,"b":2}},"conditions":["nonSeqFull","nonSeqPartial","seqNoFeedback","seqFeedback"],"classroomPairings":[["A","B"],["C","D"]],"coinWeights":[0.2,0.5,0.8],"subjectId":"A2JP9IKRHNLRPI","assignmentId":"3X0H8UUIT2A4NQ280OGN6T4XKZ3WSF","hitId":"363A7XIFV48LMLIF2CKYA8VQSVQAVR","url":"https://gershmanlab.com/experiments/alicia/teaching/experiment/?hitId=363A7XIFV48LMLIF2CKYA8VQSVQAVR&workerId=A2JP9IKRHNLRPI&assignmentId=3X0H8UUIT2A4NQ280OGN6T4XKZ3WSF&a=I80X9&tp_a=I80X9&b=3X0H8UUIT2A4NQ280OGN6T4XKZ3WSF&tp_b=3X0H8UUIT2A4NQ280OGN6T4XKZ3WSF&c=365799&tp_c=365799","heads":6,"tails":0,"studentIndex":5,"studentTrueHypers":{"a":2,"b":8},"studentGuess":0.5,"delta":0,"totalExamples":6,"bonus":0.44,"bonusSoFar":4.12},{"rt":null,"stimulus":"Sending examples to student... ","response":null,"trial_type":"html-keyboard-response","trial_index":56,"time_elapsed":547317,"internal_node_id":"0.0-48.0","params":{"nStudents":24,"maxFlips":30,"completionMinutes":45,"basePay":8,"maxBonus":9,"perTrialBonus":0.5,"perTrialBonusThreshold":0.05,"exampleCost":0.01},"classroomParams":{"A":{"a":1,"b":4},"B":{"a":4,"b":1},"C":{"a":2,"b":8},"D":{"a":8,"b":2}},"conditions":["nonSeqFull","nonSeqPartial","seqNoFeedback","seqFeedback"],"classroomPairings":[["A","B"],["C","D"]],"coinWeights":[0.2,0.5,0.8],"subjectId":"A2JP9IKRHNLRPI","assignmentId":"3X0H8UUIT2A4NQ280OGN6T4XKZ3WSF","hitId":"363A7XIFV48LMLIF2CKYA8VQSVQAVR","url":"https://gershmanlab.com/experiments/alicia/teaching/experiment/?hitId=363A7XIFV48LMLIF2CKYA8VQSVQAVR&workerId=A2JP9IKRHNLRPI&assignmentId=3X0H8UUIT2A4NQ280OGN6T4XKZ3WSF&a=I80X9&tp_a=I80X9&b=3X0H8UUIT2A4NQ280OGN6T4XKZ3WSF&tp_b=3X0H8UUIT2A4NQ280OGN6T4XKZ3WSF&c=365799&tp_c=365799"},{"rt":null,"stimulus":"Examples sent to student! Waiting for student...","response":null,"trial_type":"html-keyboard-response","trial_index":57,"time_elapsed":552326,"internal_node_id":"0.0-49.0","params":{"nStudents":24,"maxFlips":30,"completionMinutes":45,"basePay":8,"maxBonus":9,"perTrialBonus":0.5,"perTrialBonusThreshold":0.05,"exampleCost":0.01},"classroomParams":{"A":{"a":1,"b":4},"B":{"a":4,"b":1},"C":{"a":2,"b":8},"D":{"a":8,"b":2}},"conditions":["nonSeqFull","nonSeqPartial","seqNoFeedback","seqFeedback"],"classroomPairings":[["A","B"],["C","D"]],"coinWeights":[0.2,0.5,0.8],"subjectId":"A2JP9IKRHNLRPI","assignmentId":"3X0H8UUIT2A4NQ280OGN6T4XKZ3WSF","hitId":"363A7XIFV48LMLIF2CKYA8VQSVQAVR","url":"https://gershmanlab.com/experiments/alicia/teaching/experiment/?hitId=363A7XIFV48LMLIF2CKYA8VQSVQAVR&workerId=A2JP9IKRHNLRPI&assignmentId=3X0H8UUIT2A4NQ280OGN6T4XKZ3WSF&a=I80X9&tp_a=I80X9&b=3X0H8UUIT2A4NQ280OGN6T4XKZ3WSF&tp_b=3X0H8UUIT2A4NQ280OGN6T4XKZ3WSF&c=365799&tp_c=365799"},{"rt":1849,"stimulus":"\n                <p>Student's guess for coin weight: <b style=\"color:Tomato;\">0.50</b></p>\n                <p>You received a bonus of <b>$0.44</b>. Total bonus so far: <b>$4.12</b></b></p>\n                <p></p>\n                <p>Press any key to continue.</p>\n                ","response":" ","trial_type":"html-keyboard-response","trial_index":58,"time_elapsed":554175,"internal_node_id":"0.0-50.0","params":{"nStudents":24,"maxFlips":30,"completionMinutes":45,"basePay":8,"maxBonus":9,"perTrialBonus":0.5,"perTrialBonusThreshold":0.05,"exampleCost":0.01},"classroomParams":{"A":{"a":1,"b":4},"B":{"a":4,"b":1},"C":{"a":2,"b":8},"D":{"a":8,"b":2}},"conditions":["nonSeqFull","nonSeqPartial","seqNoFeedback","seqFeedback"],"classroomPairings":[["A","B"],["C","D"]],"coinWeights":[0.2,0.5,0.8],"subjectId":"A2JP9IKRHNLRPI","assignmentId":"3X0H8UUIT2A4NQ280OGN6T4XKZ3WSF","hitId":"363A7XIFV48LMLIF2CKYA8VQSVQAVR","url":"https://gershmanlab.com/experiments/alicia/teaching/experiment/?hitId=363A7XIFV48LMLIF2CKYA8VQSVQAVR&workerId=A2JP9IKRHNLRPI&assignmentId=3X0H8UUIT2A4NQ280OGN6T4XKZ3WSF&a=I80X9&tp_a=I80X9&b=3X0H8UUIT2A4NQ280OGN6T4XKZ3WSF&tp_b=3X0H8UUIT2A4NQ280OGN6T4XKZ3WSF&c=365799&tp_c=365799"},{"rt":null,"stimulus":"<div style=\"font-size:60px;\">Next student</div>","response":null,"trial_type":"html-keyboard-response","trial_index":59,"time_elapsed":556685,"internal_node_id":"0.0-51.0-0.0","params":{"nStudents":24,"maxFlips":30,"completionMinutes":45,"basePay":8,"maxBonus":9,"perTrialBonus":0.5,"perTrialBonusThreshold":0.05,"exampleCost":0.01},"classroomParams":{"A":{"a":1,"b":4},"B":{"a":4,"b":1},"C":{"a":2,"b":8},"D":{"a":8,"b":2}},"conditions":["nonSeqFull","nonSeqPartial","seqNoFeedback","seqFeedback"],"classroomPairings":[["A","B"],["C","D"]],"coinWeights":[0.2,0.5,0.8],"subjectId":"A2JP9IKRHNLRPI","assignmentId":"3X0H8UUIT2A4NQ280OGN6T4XKZ3WSF","hitId":"363A7XIFV48LMLIF2CKYA8VQSVQAVR","url":"https://gershmanlab.com/experiments/alicia/teaching/experiment/?hitId=363A7XIFV48LMLIF2CKYA8VQSVQAVR&workerId=A2JP9IKRHNLRPI&assignmentId=3X0H8UUIT2A4NQ280OGN6T4XKZ3WSF&a=I80X9&tp_a=I80X9&b=3X0H8UUIT2A4NQ280OGN6T4XKZ3WSF&tp_b=3X0H8UUIT2A4NQ280OGN6T4XKZ3WSF&c=365799&tp_c=365799"},{"rt":1887,"stimulus":"\n            <h4 style=\"color:Orange;\">Student 7</h4>\n            <h2>The weight of your coin is <b style=\"color:Tomato;\">0.8</b>.</h2>\n            <p>In this block, you will be giving <b>one</b> set of examples to Student 7.</p>\n                <p>You will receive feedback at the end of the block.</p>\n            <p></p>","response":0,"trial_type":"html-button-response","trial_index":60,"time_elapsed":558573,"internal_node_id":"0.0-52.0","params":{"nStudents":24,"maxFlips":30,"completionMinutes":45,"basePay":8,"maxBonus":9,"perTrialBonus":0.5,"perTrialBonusThreshold":0.05,"exampleCost":0.01},"classroomParams":{"A":{"a":1,"b":4},"B":{"a":4,"b":1},"C":{"a":2,"b":8},"D":{"a":8,"b":2}},"conditions":["nonSeqFull","nonSeqPartial","seqNoFeedback","seqFeedback"],"classroomPairings":[["A","B"],["C","D"]],"coinWeights":[0.2,0.5,0.8],"subjectId":"A2JP9IKRHNLRPI","assignmentId":"3X0H8UUIT2A4NQ280OGN6T4XKZ3WSF","hitId":"363A7XIFV48LMLIF2CKYA8VQSVQAVR","url":"https://gershmanlab.com/experiments/alicia/teaching/experiment/?hitId=363A7XIFV48LMLIF2CKYA8VQSVQAVR&workerId=A2JP9IKRHNLRPI&assignmentId=3X0H8UUIT2A4NQ280OGN6T4XKZ3WSF&a=I80X9&tp_a=I80X9&b=3X0H8UUIT2A4NQ280OGN6T4XKZ3WSF&tp_b=3X0H8UUIT2A4NQ280OGN6T4XKZ3WSF&c=365799&tp_c=365799"},{"rt":10045,"response":{"heads":"0","tails":"0"},"type":"response","condition":"nonSeqFull","trueTheta":0.8,"classrooms":["C","D"],"studentTrueClassroom":"D","exampleSet":"first","trial_type":"survey-html-form","trial_index":61,"time_elapsed":568618,"internal_node_id":"0.0-53.0-0.0","params":{"nStudents":24,"maxFlips":30,"completionMinutes":45,"basePay":8,"maxBonus":9,"perTrialBonus":0.5,"perTrialBonusThreshold":0.05,"exampleCost":0.01},"classroomParams":{"A":{"a":1,"b":4},"B":{"a":4,"b":1},"C":{"a":2,"b":8},"D":{"a":8,"b":2}},"conditions":["nonSeqFull","nonSeqPartial","seqNoFeedback","seqFeedback"],"classroomPairings":[["A","B"],["C","D"]],"coinWeights":[0.2,0.5,0.8],"subjectId":"A2JP9IKRHNLRPI","assignmentId":"3X0H8UUIT2A4NQ280OGN6T4XKZ3WSF","hitId":"363A7XIFV48LMLIF2CKYA8VQSVQAVR","url":"https://gershmanlab.com/experiments/alicia/teaching/experiment/?hitId=363A7XIFV48LMLIF2CKYA8VQSVQAVR&workerId=A2JP9IKRHNLRPI&assignmentId=3X0H8UUIT2A4NQ280OGN6T4XKZ3WSF&a=I80X9&tp_a=I80X9&b=3X0H8UUIT2A4NQ280OGN6T4XKZ3WSF&tp_b=3X0H8UUIT2A4NQ280OGN6T4XKZ3WSF&c=365799&tp_c=365799","heads":0,"tails":0,"studentIndex":6,"studentTrueHypers":{"a":8,"b":2},"studentGuess":0.8,"delta":0,"totalExamples":0,"bonus":0.5,"bonusSoFar":4.62},{"rt":19443,"response":{"heads":"4","tails":"1"},"type":"response","condition":"nonSeqFull","trueTheta":0.8,"classrooms":["C","D"],"studentTrueClassroom":"D","exampleSet":"first","trial_type":"survey-html-form","trial_index":62,"time_elapsed":588061,"internal_node_id":"0.0-53.1-0.1","params":{"nStudents":24,"maxFlips":30,"completionMinutes":45,"basePay":8,"maxBonus":9,"perTrialBonus":0.5,"perTrialBonusThreshold":0.05,"exampleCost":0.01},"classroomParams":{"A":{"a":1,"b":4},"B":{"a":4,"b":1},"C":{"a":2,"b":8},"D":{"a":8,"b":2}},"conditions":["nonSeqFull","nonSeqPartial","seqNoFeedback","seqFeedback"],"classroomPairings":[["A","B"],["C","D"]],"coinWeights":[0.2,0.5,0.8],"subjectId":"A2JP9IKRHNLRPI","assignmentId":"3X0H8UUIT2A4NQ280OGN6T4XKZ3WSF","hitId":"363A7XIFV48LMLIF2CKYA8VQSVQAVR","url":"https://gershmanlab.com/experiments/alicia/teaching/experiment/?hitId=363A7XIFV48LMLIF2CKYA8VQSVQAVR&workerId=A2JP9IKRHNLRPI&assignmentId=3X0H8UUIT2A4NQ280OGN6T4XKZ3WSF&a=I80X9&tp_a=I80X9&b=3X0H8UUIT2A4NQ280OGN6T4XKZ3WSF&tp_b=3X0H8UUIT2A4NQ280OGN6T4XKZ3WSF&c=365799&tp_c=365799","heads":4,"tails":1,"studentIndex":6,"studentTrueHypers":{"a":8,"b":2},"studentGuess":0.8,"delta":0,"totalExamples":5,"bonus":0.45,"bonusSoFar":5.07},{"rt":null,"stimulus":"Sending examples to student... ","response":null,"trial_type":"html-keyboard-response","trial_index":63,"time_elapsed":589813,"internal_node_id":"0.0-54.0","params":{"nStudents":24,"maxFlips":30,"completionMinutes":45,"basePay":8,"maxBonus":9,"perTrialBonus":0.5,"perTrialBonusThreshold":0.05,"exampleCost":0.01},"classroomParams":{"A":{"a":1,"b":4},"B":{"a":4,"b":1},"C":{"a":2,"b":8},"D":{"a":8,"b":2}},"conditions":["nonSeqFull","nonSeqPartial","seqNoFeedback","seqFeedback"],"classroomPairings":[["A","B"],["C","D"]],"coinWeights":[0.2,0.5,0.8],"subjectId":"A2JP9IKRHNLRPI","assignmentId":"3X0H8UUIT2A4NQ280OGN6T4XKZ3WSF","hitId":"363A7XIFV48LMLIF2CKYA8VQSVQAVR","url":"https://gershmanlab.com/experiments/alicia/teaching/experiment/?hitId=363A7XIFV48LMLIF2CKYA8VQSVQAVR&workerId=A2JP9IKRHNLRPI&assignmentId=3X0H8UUIT2A4NQ280OGN6T4XKZ3WSF&a=I80X9&tp_a=I80X9&b=3X0H8UUIT2A4NQ280OGN6T4XKZ3WSF&tp_b=3X0H8UUIT2A4NQ280OGN6T4XKZ3WSF&c=365799&tp_c=365799"},{"rt":null,"stimulus":"Examples sent to student! Waiting for student...","response":null,"trial_type":"html-keyboard-response","trial_index":64,"time_elapsed":593814,"internal_node_id":"0.0-55.0","params":{"nStudents":24,"maxFlips":30,"completionMinutes":45,"basePay":8,"maxBonus":9,"perTrialBonus":0.5,"perTrialBonusThreshold":0.05,"exampleCost":0.01},"classroomParams":{"A":{"a":1,"b":4},"B":{"a":4,"b":1},"C":{"a":2,"b":8},"D":{"a":8,"b":2}},"conditions":["nonSeqFull","nonSeqPartial","seqNoFeedback","seqFeedback"],"classroomPairings":[["A","B"],["C","D"]],"coinWeights":[0.2,0.5,0.8],"subjectId":"A2JP9IKRHNLRPI","assignmentId":"3X0H8UUIT2A4NQ280OGN6T4XKZ3WSF","hitId":"363A7XIFV48LMLIF2CKYA8VQSVQAVR","url":"https://gershmanlab.com/experiments/alicia/teaching/experiment/?hitId=363A7XIFV48LMLIF2CKYA8VQSVQAVR&workerId=A2JP9IKRHNLRPI&assignmentId=3X0H8UUIT2A4NQ280OGN6T4XKZ3WSF&a=I80X9&tp_a=I80X9&b=3X0H8UUIT2A4NQ280OGN6T4XKZ3WSF&tp_b=3X0H8UUIT2A4NQ280OGN6T4XKZ3WSF&c=365799&tp_c=365799"},{"rt":1623,"stimulus":"\n                <p>Student's guess for coin weight: <b style=\"color:Tomato;\">0.80</b></p>\n                <p>You received a bonus of <b>$0.5</b>. Total bonus so far: <b>$5.07</b></b></p>\n                <p></p>\n                <p>Press any key to continue.</p>\n                ","response":" ","trial_type":"html-keyboard-response","trial_index":65,"time_elapsed":595438,"internal_node_id":"0.0-56.0","params":{"nStudents":24,"maxFlips":30,"completionMinutes":45,"basePay":8,"maxBonus":9,"perTrialBonus":0.5,"perTrialBonusThreshold":0.05,"exampleCost":0.01},"classroomParams":{"A":{"a":1,"b":4},"B":{"a":4,"b":1},"C":{"a":2,"b":8},"D":{"a":8,"b":2}},"conditions":["nonSeqFull","nonSeqPartial","seqNoFeedback","seqFeedback"],"classroomPairings":[["A","B"],["C","D"]],"coinWeights":[0.2,0.5,0.8],"subjectId":"A2JP9IKRHNLRPI","assignmentId":"3X0H8UUIT2A4NQ280OGN6T4XKZ3WSF","hitId":"363A7XIFV48LMLIF2CKYA8VQSVQAVR","url":"https://gershmanlab.com/experiments/alicia/teaching/experiment/?hitId=363A7XIFV48LMLIF2CKYA8VQSVQAVR&workerId=A2JP9IKRHNLRPI&assignmentId=3X0H8UUIT2A4NQ280OGN6T4XKZ3WSF&a=I80X9&tp_a=I80X9&b=3X0H8UUIT2A4NQ280OGN6T4XKZ3WSF&tp_b=3X0H8UUIT2A4NQ280OGN6T4XKZ3WSF&c=365799&tp_c=365799"},{"rt":null,"stimulus":"<div style=\"font-size:60px;\">Next student</div>","response":null,"trial_type":"html-keyboard-response","trial_index":66,"time_elapsed":597698,"internal_node_id":"0.0-57.0-0.0","params":{"nStudents":24,"maxFlips":30,"completionMinutes":45,"basePay":8,"maxBonus":9,"perTrialBonus":0.5,"perTrialBonusThreshold":0.05,"exampleCost":0.01},"classroomParams":{"A":{"a":1,"b":4},"B":{"a":4,"b":1},"C":{"a":2,"b":8},"D":{"a":8,"b":2}},"conditions":["nonSeqFull","nonSeqPartial","seqNoFeedback","seqFeedback"],"classroomPairings":[["A","B"],["C","D"]],"coinWeights":[0.2,0.5,0.8],"subjectId":"A2JP9IKRHNLRPI","assignmentId":"3X0H8UUIT2A4NQ280OGN6T4XKZ3WSF","hitId":"363A7XIFV48LMLIF2CKYA8VQSVQAVR","url":"https://gershmanlab.com/experiments/alicia/teaching/experiment/?hitId=363A7XIFV48LMLIF2CKYA8VQSVQAVR&workerId=A2JP9IKRHNLRPI&assignmentId=3X0H8UUIT2A4NQ280OGN6T4XKZ3WSF&a=I80X9&tp_a=I80X9&b=3X0H8UUIT2A4NQ280OGN6T4XKZ3WSF&tp_b=3X0H8UUIT2A4NQ280OGN6T4XKZ3WSF&c=365799&tp_c=365799"},{"rt":2039,"stimulus":"\n            <h4 style=\"color:Orange;\">Student 8</h4>\n            <h2>The weight of your coin is <b style=\"color:Tomato;\">0.5</b>.</h2>\n            <p>In this block, you will be giving <b>two</b> sets of examples to Student 8.</p>\n                <p>You will see the student's guess after the first set of examples. You will also receive feedback at the end of the block.</p>\n            <p>To earn the highest bonus, you will have to <b>take into consideration the student's guess</b> when you choose your second set of examples.</p>","response":0,"trial_type":"html-button-response","trial_index":67,"time_elapsed":599737,"internal_node_id":"0.0-58.0","params":{"nStudents":24,"maxFlips":30,"completionMinutes":45,"basePay":8,"maxBonus":9,"perTrialBonus":0.5,"perTrialBonusThreshold":0.05,"exampleCost":0.01},"classroomParams":{"A":{"a":1,"b":4},"B":{"a":4,"b":1},"C":{"a":2,"b":8},"D":{"a":8,"b":2}},"conditions":["nonSeqFull","nonSeqPartial","seqNoFeedback","seqFeedback"],"classroomPairings":[["A","B"],["C","D"]],"coinWeights":[0.2,0.5,0.8],"subjectId":"A2JP9IKRHNLRPI","assignmentId":"3X0H8UUIT2A4NQ280OGN6T4XKZ3WSF","hitId":"363A7XIFV48LMLIF2CKYA8VQSVQAVR","url":"https://gershmanlab.com/experiments/alicia/teaching/experiment/?hitId=363A7XIFV48LMLIF2CKYA8VQSVQAVR&workerId=A2JP9IKRHNLRPI&assignmentId=3X0H8UUIT2A4NQ280OGN6T4XKZ3WSF&a=I80X9&tp_a=I80X9&b=3X0H8UUIT2A4NQ280OGN6T4XKZ3WSF&tp_b=3X0H8UUIT2A4NQ280OGN6T4XKZ3WSF&c=365799&tp_c=365799"},{"rt":11367,"response":{"heads":"0","tails":"6"},"type":"response","condition":"seqFeedback","trueTheta":0.5,"classrooms":["C","D"],"studentTrueClassroom":"D","exampleSet":"first","trial_type":"survey-html-form","trial_index":68,"time_elapsed":611105,"internal_node_id":"0.0-59.0-0.0","params":{"nStudents":24,"maxFlips":30,"completionMinutes":45,"basePay":8,"maxBonus":9,"perTrialBonus":0.5,"perTrialBonusThreshold":0.05,"exampleCost":0.01},"classroomParams":{"A":{"a":1,"b":4},"B":{"a":4,"b":1},"C":{"a":2,"b":8},"D":{"a":8,"b":2}},"conditions":["nonSeqFull","nonSeqPartial","seqNoFeedback","seqFeedback"],"classroomPairings":[["A","B"],["C","D"]],"coinWeights":[0.2,0.5,0.8],"subjectId":"A2JP9IKRHNLRPI","assignmentId":"3X0H8UUIT2A4NQ280OGN6T4XKZ3WSF","hitId":"363A7XIFV48LMLIF2CKYA8VQSVQAVR","url":"https://gershmanlab.com/experiments/alicia/teaching/experiment/?hitId=363A7XIFV48LMLIF2CKYA8VQSVQAVR&workerId=A2JP9IKRHNLRPI&assignmentId=3X0H8UUIT2A4NQ280OGN6T4XKZ3WSF&a=I80X9&tp_a=I80X9&b=3X0H8UUIT2A4NQ280OGN6T4XKZ3WSF&tp_b=3X0H8UUIT2A4NQ280OGN6T4XKZ3WSF&c=365799&tp_c=365799","heads":0,"tails":6,"studentIndex":7,"studentTrueHypers":{"a":8,"b":2},"studentGuess":0.5,"delta":0,"totalExamples":6,"bonusSoFar":5.07},{"rt":null,"stimulus":"Sending examples to student... ","response":null,"trial_type":"html-keyboard-response","trial_index":69,"time_elapsed":612871,"internal_node_id":"0.0-60.0","params":{"nStudents":24,"maxFlips":30,"completionMinutes":45,"basePay":8,"maxBonus":9,"perTrialBonus":0.5,"perTrialBonusThreshold":0.05,"exampleCost":0.01},"classroomParams":{"A":{"a":1,"b":4},"B":{"a":4,"b":1},"C":{"a":2,"b":8},"D":{"a":8,"b":2}},"conditions":["nonSeqFull","nonSeqPartial","seqNoFeedback","seqFeedback"],"classroomPairings":[["A","B"],["C","D"]],"coinWeights":[0.2,0.5,0.8],"subjectId":"A2JP9IKRHNLRPI","assignmentId":"3X0H8UUIT2A4NQ280OGN6T4XKZ3WSF","hitId":"363A7XIFV48LMLIF2CKYA8VQSVQAVR","url":"https://gershmanlab.com/experiments/alicia/teaching/experiment/?hitId=363A7XIFV48LMLIF2CKYA8VQSVQAVR&workerId=A2JP9IKRHNLRPI&assignmentId=3X0H8UUIT2A4NQ280OGN6T4XKZ3WSF&a=I80X9&tp_a=I80X9&b=3X0H8UUIT2A4NQ280OGN6T4XKZ3WSF&tp_b=3X0H8UUIT2A4NQ280OGN6T4XKZ3WSF&c=365799&tp_c=365799"},{"rt":null,"stimulus":"Examples sent to student! Waiting for student...","response":null,"trial_type":"html-keyboard-response","trial_index":70,"time_elapsed":618385,"internal_node_id":"0.0-61.0","params":{"nStudents":24,"maxFlips":30,"completionMinutes":45,"basePay":8,"maxBonus":9,"perTrialBonus":0.5,"perTrialBonusThreshold":0.05,"exampleCost":0.01},"classroomParams":{"A":{"a":1,"b":4},"B":{"a":4,"b":1},"C":{"a":2,"b":8},"D":{"a":8,"b":2}},"conditions":["nonSeqFull","nonSeqPartial","seqNoFeedback","seqFeedback"],"classroomPairings":[["A","B"],["C","D"]],"coinWeights":[0.2,0.5,0.8],"subjectId":"A2JP9IKRHNLRPI","assignmentId":"3X0H8UUIT2A4NQ280OGN6T4XKZ3WSF","hitId":"363A7XIFV48LMLIF2CKYA8VQSVQAVR","url":"https://gershmanlab.com/experiments/alicia/teaching/experiment/?hitId=363A7XIFV48LMLIF2CKYA8VQSVQAVR&workerId=A2JP9IKRHNLRPI&assignmentId=3X0H8UUIT2A4NQ280OGN6T4XKZ3WSF&a=I80X9&tp_a=I80X9&b=3X0H8UUIT2A4NQ280OGN6T4XKZ3WSF&tp_b=3X0H8UUIT2A4NQ280OGN6T4XKZ3WSF&c=365799&tp_c=365799"},{"rt":1630,"stimulus":"\n                <p>Student's guess for coin weight: <b style=\"color:Tomato;\">0.50</b></p>\n                <p></b></p>\n                <p>You will now send another set of examples to your student. <b>Remember to take your student's guess into consideration so that you can earn the highest bonus possible!</b> </p>\n                <p>Press any key to continue.</p>\n                ","response":" ","trial_type":"html-keyboard-response","trial_index":71,"time_elapsed":620015,"internal_node_id":"0.0-62.0","params":{"nStudents":24,"maxFlips":30,"completionMinutes":45,"basePay":8,"maxBonus":9,"perTrialBonus":0.5,"perTrialBonusThreshold":0.05,"exampleCost":0.01},"classroomParams":{"A":{"a":1,"b":4},"B":{"a":4,"b":1},"C":{"a":2,"b":8},"D":{"a":8,"b":2}},"conditions":["nonSeqFull","nonSeqPartial","seqNoFeedback","seqFeedback"],"classroomPairings":[["A","B"],["C","D"]],"coinWeights":[0.2,0.5,0.8],"subjectId":"A2JP9IKRHNLRPI","assignmentId":"3X0H8UUIT2A4NQ280OGN6T4XKZ3WSF","hitId":"363A7XIFV48LMLIF2CKYA8VQSVQAVR","url":"https://gershmanlab.com/experiments/alicia/teaching/experiment/?hitId=363A7XIFV48LMLIF2CKYA8VQSVQAVR&workerId=A2JP9IKRHNLRPI&assignmentId=3X0H8UUIT2A4NQ280OGN6T4XKZ3WSF&a=I80X9&tp_a=I80X9&b=3X0H8UUIT2A4NQ280OGN6T4XKZ3WSF&tp_b=3X0H8UUIT2A4NQ280OGN6T4XKZ3WSF&c=365799&tp_c=365799"},{"rt":3617,"response":{"heads":"0","tails":"6"},"type":"response","condition":"seqFeedback","trueTheta":0.5,"classrooms":["C","D"],"studentTrueClassroom":"D","exampleSet":"second","trial_type":"survey-html-form","trial_index":72,"time_elapsed":623633,"internal_node_id":"0.0-63.0-0.0","params":{"nStudents":24,"maxFlips":30,"completionMinutes":45,"basePay":8,"maxBonus":9,"perTrialBonus":0.5,"perTrialBonusThreshold":0.05,"exampleCost":0.01},"classroomParams":{"A":{"a":1,"b":4},"B":{"a":4,"b":1},"C":{"a":2,"b":8},"D":{"a":8,"b":2}},"conditions":["nonSeqFull","nonSeqPartial","seqNoFeedback","seqFeedback"],"classroomPairings":[["A","B"],["C","D"]],"coinWeights":[0.2,0.5,0.8],"subjectId":"A2JP9IKRHNLRPI","assignmentId":"3X0H8UUIT2A4NQ280OGN6T4XKZ3WSF","hitId":"363A7XIFV48LMLIF2CKYA8VQSVQAVR","url":"https://gershmanlab.com/experiments/alicia/teaching/experiment/?hitId=363A7XIFV48LMLIF2CKYA8VQSVQAVR&workerId=A2JP9IKRHNLRPI&assignmentId=3X0H8UUIT2A4NQ280OGN6T4XKZ3WSF&a=I80X9&tp_a=I80X9&b=3X0H8UUIT2A4NQ280OGN6T4XKZ3WSF&tp_b=3X0H8UUIT2A4NQ280OGN6T4XKZ3WSF&c=365799&tp_c=365799","firstResponseHeads":0,"firstResponseTails":6,"secondResponseHeads":0,"secondResponseTails":6,"totalHeads":0,"totalTails":12,"studentIndex":7,"studentTrueHypers":{"a":8,"b":2},"studentGuess":0.36363636363636365,"delta":0.13636363636363635,"bonus":0,"bonusSoFar":5.07,"totalExamples":12},{"rt":null,"stimulus":"Sending examples to student... ","response":null,"trial_type":"html-keyboard-response","trial_index":73,"time_elapsed":625145,"internal_node_id":"0.0-64.0","params":{"nStudents":24,"maxFlips":30,"completionMinutes":45,"basePay":8,"maxBonus":9,"perTrialBonus":0.5,"perTrialBonusThreshold":0.05,"exampleCost":0.01},"classroomParams":{"A":{"a":1,"b":4},"B":{"a":4,"b":1},"C":{"a":2,"b":8},"D":{"a":8,"b":2}},"conditions":["nonSeqFull","nonSeqPartial","seqNoFeedback","seqFeedback"],"classroomPairings":[["A","B"],["C","D"]],"coinWeights":[0.2,0.5,0.8],"subjectId":"A2JP9IKRHNLRPI","assignmentId":"3X0H8UUIT2A4NQ280OGN6T4XKZ3WSF","hitId":"363A7XIFV48LMLIF2CKYA8VQSVQAVR","url":"https://gershmanlab.com/experiments/alicia/teaching/experiment/?hitId=363A7XIFV48LMLIF2CKYA8VQSVQAVR&workerId=A2JP9IKRHNLRPI&assignmentId=3X0H8UUIT2A4NQ280OGN6T4XKZ3WSF&a=I80X9&tp_a=I80X9&b=3X0H8UUIT2A4NQ280OGN6T4XKZ3WSF&tp_b=3X0H8UUIT2A4NQ280OGN6T4XKZ3WSF&c=365799&tp_c=365799"},{"rt":null,"stimulus":"Examples sent to student! Waiting for student...","response":null,"trial_type":"html-keyboard-response","trial_index":74,"time_elapsed":630647,"internal_node_id":"0.0-65.0","params":{"nStudents":24,"maxFlips":30,"completionMinutes":45,"basePay":8,"maxBonus":9,"perTrialBonus":0.5,"perTrialBonusThreshold":0.05,"exampleCost":0.01},"classroomParams":{"A":{"a":1,"b":4},"B":{"a":4,"b":1},"C":{"a":2,"b":8},"D":{"a":8,"b":2}},"conditions":["nonSeqFull","nonSeqPartial","seqNoFeedback","seqFeedback"],"classroomPairings":[["A","B"],["C","D"]],"coinWeights":[0.2,0.5,0.8],"subjectId":"A2JP9IKRHNLRPI","assignmentId":"3X0H8UUIT2A4NQ280OGN6T4XKZ3WSF","hitId":"363A7XIFV48LMLIF2CKYA8VQSVQAVR","url":"https://gershmanlab.com/experiments/alicia/teaching/experiment/?hitId=363A7XIFV48LMLIF2CKYA8VQSVQAVR&workerId=A2JP9IKRHNLRPI&assignmentId=3X0H8UUIT2A4NQ280OGN6T4XKZ3WSF&a=I80X9&tp_a=I80X9&b=3X0H8UUIT2A4NQ280OGN6T4XKZ3WSF&tp_b=3X0H8UUIT2A4NQ280OGN6T4XKZ3WSF&c=365799&tp_c=365799"},{"rt":3812,"stimulus":"\n                <p>Student 8's first guess for coin weight: <b style=\"color:Tomato\";>0.50</b></p>\n                <p>Student 8's second guess for coin weight: <b style=\"color:Tomato\";>0.36</b></p>\n                <p>You received a bonus of <b>$0.00</b> based on the student's second guess.</p>\n                <p>Total bonus so far: <b>$5.07</b></p>\n                <p>Press any key to continue.</p>\n                ","response":" ","trial_type":"html-keyboard-response","trial_index":75,"time_elapsed":634460,"internal_node_id":"0.0-66.0","params":{"nStudents":24,"maxFlips":30,"completionMinutes":45,"basePay":8,"maxBonus":9,"perTrialBonus":0.5,"perTrialBonusThreshold":0.05,"exampleCost":0.01},"classroomParams":{"A":{"a":1,"b":4},"B":{"a":4,"b":1},"C":{"a":2,"b":8},"D":{"a":8,"b":2}},"conditions":["nonSeqFull","nonSeqPartial","seqNoFeedback","seqFeedback"],"classroomPairings":[["A","B"],["C","D"]],"coinWeights":[0.2,0.5,0.8],"subjectId":"A2JP9IKRHNLRPI","assignmentId":"3X0H8UUIT2A4NQ280OGN6T4XKZ3WSF","hitId":"363A7XIFV48LMLIF2CKYA8VQSVQAVR","url":"https://gershmanlab.com/experiments/alicia/teaching/experiment/?hitId=363A7XIFV48LMLIF2CKYA8VQSVQAVR&workerId=A2JP9IKRHNLRPI&assignmentId=3X0H8UUIT2A4NQ280OGN6T4XKZ3WSF&a=I80X9&tp_a=I80X9&b=3X0H8UUIT2A4NQ280OGN6T4XKZ3WSF&tp_b=3X0H8UUIT2A4NQ280OGN6T4XKZ3WSF&c=365799&tp_c=365799"},{"rt":null,"stimulus":"<div style=\"font-size:60px;\">Next student</div>","response":null,"trial_type":"html-keyboard-response","trial_index":76,"time_elapsed":636468,"internal_node_id":"0.0-67.0-0.0","params":{"nStudents":24,"maxFlips":30,"completionMinutes":45,"basePay":8,"maxBonus":9,"perTrialBonus":0.5,"perTrialBonusThreshold":0.05,"exampleCost":0.01},"classroomParams":{"A":{"a":1,"b":4},"B":{"a":4,"b":1},"C":{"a":2,"b":8},"D":{"a":8,"b":2}},"conditions":["nonSeqFull","nonSeqPartial","seqNoFeedback","seqFeedback"],"classroomPairings":[["A","B"],["C","D"]],"coinWeights":[0.2,0.5,0.8],"subjectId":"A2JP9IKRHNLRPI","assignmentId":"3X0H8UUIT2A4NQ280OGN6T4XKZ3WSF","hitId":"363A7XIFV48LMLIF2CKYA8VQSVQAVR","url":"https://gershmanlab.com/experiments/alicia/teaching/experiment/?hitId=363A7XIFV48LMLIF2CKYA8VQSVQAVR&workerId=A2JP9IKRHNLRPI&assignmentId=3X0H8UUIT2A4NQ280OGN6T4XKZ3WSF&a=I80X9&tp_a=I80X9&b=3X0H8UUIT2A4NQ280OGN6T4XKZ3WSF&tp_b=3X0H8UUIT2A4NQ280OGN6T4XKZ3WSF&c=365799&tp_c=365799"},{"rt":1145,"stimulus":"\n            <h4 style=\"color:Orange;\">Student 9</h4>\n            <h2>The weight of your coin is <b style=\"color:Tomato;\">0.8</b>.</h2>\n            <p>In this block, you will be giving <b>one</b> set of examples to Student 9.</p>\n                <p>You will receive feedback at the end of the block.</p>\n            <p></p>","response":0,"trial_type":"html-button-response","trial_index":77,"time_elapsed":637613,"internal_node_id":"0.0-68.0","params":{"nStudents":24,"maxFlips":30,"completionMinutes":45,"basePay":8,"maxBonus":9,"perTrialBonus":0.5,"perTrialBonusThreshold":0.05,"exampleCost":0.01},"classroomParams":{"A":{"a":1,"b":4},"B":{"a":4,"b":1},"C":{"a":2,"b":8},"D":{"a":8,"b":2}},"conditions":["nonSeqFull","nonSeqPartial","seqNoFeedback","seqFeedback"],"classroomPairings":[["A","B"],["C","D"]],"coinWeights":[0.2,0.5,0.8],"subjectId":"A2JP9IKRHNLRPI","assignmentId":"3X0H8UUIT2A4NQ280OGN6T4XKZ3WSF","hitId":"363A7XIFV48LMLIF2CKYA8VQSVQAVR","url":"https://gershmanlab.com/experiments/alicia/teaching/experiment/?hitId=363A7XIFV48LMLIF2CKYA8VQSVQAVR&workerId=A2JP9IKRHNLRPI&assignmentId=3X0H8UUIT2A4NQ280OGN6T4XKZ3WSF&a=I80X9&tp_a=I80X9&b=3X0H8UUIT2A4NQ280OGN6T4XKZ3WSF&tp_b=3X0H8UUIT2A4NQ280OGN6T4XKZ3WSF&c=365799&tp_c=365799"},{"rt":13147,"response":{"heads":"15","tails":"0"},"type":"response","condition":"nonSeqFull","trueTheta":0.8,"classrooms":["A","B"],"studentTrueClassroom":"A","exampleSet":"first","trial_type":"survey-html-form","trial_index":78,"time_elapsed":650760,"internal_node_id":"0.0-69.0-0.0","params":{"nStudents":24,"maxFlips":30,"completionMinutes":45,"basePay":8,"maxBonus":9,"perTrialBonus":0.5,"perTrialBonusThreshold":0.05,"exampleCost":0.01},"classroomParams":{"A":{"a":1,"b":4},"B":{"a":4,"b":1},"C":{"a":2,"b":8},"D":{"a":8,"b":2}},"conditions":["nonSeqFull","nonSeqPartial","seqNoFeedback","seqFeedback"],"classroomPairings":[["A","B"],["C","D"]],"coinWeights":[0.2,0.5,0.8],"subjectId":"A2JP9IKRHNLRPI","assignmentId":"3X0H8UUIT2A4NQ280OGN6T4XKZ3WSF","hitId":"363A7XIFV48LMLIF2CKYA8VQSVQAVR","url":"https://gershmanlab.com/experiments/alicia/teaching/experiment/?hitId=363A7XIFV48LMLIF2CKYA8VQSVQAVR&workerId=A2JP9IKRHNLRPI&assignmentId=3X0H8UUIT2A4NQ280OGN6T4XKZ3WSF&a=I80X9&tp_a=I80X9&b=3X0H8UUIT2A4NQ280OGN6T4XKZ3WSF&tp_b=3X0H8UUIT2A4NQ280OGN6T4XKZ3WSF&c=365799&tp_c=365799","heads":15,"tails":0,"studentIndex":8,"studentTrueHypers":{"a":1,"b":4},"studentGuess":0.8,"delta":0,"totalExamples":15,"bonus":0.35,"bonusSoFar":5.42},{"rt":null,"stimulus":"Sending examples to student... ","response":null,"trial_type":"html-keyboard-response","trial_index":79,"time_elapsed":652261,"internal_node_id":"0.0-70.0","params":{"nStudents":24,"maxFlips":30,"completionMinutes":45,"basePay":8,"maxBonus":9,"perTrialBonus":0.5,"perTrialBonusThreshold":0.05,"exampleCost":0.01},"classroomParams":{"A":{"a":1,"b":4},"B":{"a":4,"b":1},"C":{"a":2,"b":8},"D":{"a":8,"b":2}},"conditions":["nonSeqFull","nonSeqPartial","seqNoFeedback","seqFeedback"],"classroomPairings":[["A","B"],["C","D"]],"coinWeights":[0.2,0.5,0.8],"subjectId":"A2JP9IKRHNLRPI","assignmentId":"3X0H8UUIT2A4NQ280OGN6T4XKZ3WSF","hitId":"363A7XIFV48LMLIF2CKYA8VQSVQAVR","url":"https://gershmanlab.com/experiments/alicia/teaching/experiment/?hitId=363A7XIFV48LMLIF2CKYA8VQSVQAVR&workerId=A2JP9IKRHNLRPI&assignmentId=3X0H8UUIT2A4NQ280OGN6T4XKZ3WSF&a=I80X9&tp_a=I80X9&b=3X0H8UUIT2A4NQ280OGN6T4XKZ3WSF&tp_b=3X0H8UUIT2A4NQ280OGN6T4XKZ3WSF&c=365799&tp_c=365799"},{"rt":null,"stimulus":"Examples sent to student! Waiting for student...","response":null,"trial_type":"html-keyboard-response","trial_index":80,"time_elapsed":656267,"internal_node_id":"0.0-71.0","params":{"nStudents":24,"maxFlips":30,"completionMinutes":45,"basePay":8,"maxBonus":9,"perTrialBonus":0.5,"perTrialBonusThreshold":0.05,"exampleCost":0.01},"classroomParams":{"A":{"a":1,"b":4},"B":{"a":4,"b":1},"C":{"a":2,"b":8},"D":{"a":8,"b":2}},"conditions":["nonSeqFull","nonSeqPartial","seqNoFeedback","seqFeedback"],"classroomPairings":[["A","B"],["C","D"]],"coinWeights":[0.2,0.5,0.8],"subjectId":"A2JP9IKRHNLRPI","assignmentId":"3X0H8UUIT2A4NQ280OGN6T4XKZ3WSF","hitId":"363A7XIFV48LMLIF2CKYA8VQSVQAVR","url":"https://gershmanlab.com/experiments/alicia/teaching/experiment/?hitId=363A7XIFV48LMLIF2CKYA8VQSVQAVR&workerId=A2JP9IKRHNLRPI&assignmentId=3X0H8UUIT2A4NQ280OGN6T4XKZ3WSF&a=I80X9&tp_a=I80X9&b=3X0H8UUIT2A4NQ280OGN6T4XKZ3WSF&tp_b=3X0H8UUIT2A4NQ280OGN6T4XKZ3WSF&c=365799&tp_c=365799"},{"rt":1529,"stimulus":"\n                <p>Student's guess for coin weight: <b style=\"color:Tomato;\">0.80</b></p>\n                <p>You received a bonus of <b>$0.35</b>. Total bonus so far: <b>$5.42</b></b></p>\n                <p></p>\n                <p>Press any key to continue.</p>\n                ","response":" ","trial_type":"html-keyboard-response","trial_index":81,"time_elapsed":657796,"internal_node_id":"0.0-72.0","params":{"nStudents":24,"maxFlips":30,"completionMinutes":45,"basePay":8,"maxBonus":9,"perTrialBonus":0.5,"perTrialBonusThreshold":0.05,"exampleCost":0.01},"classroomParams":{"A":{"a":1,"b":4},"B":{"a":4,"b":1},"C":{"a":2,"b":8},"D":{"a":8,"b":2}},"conditions":["nonSeqFull","nonSeqPartial","seqNoFeedback","seqFeedback"],"classroomPairings":[["A","B"],["C","D"]],"coinWeights":[0.2,0.5,0.8],"subjectId":"A2JP9IKRHNLRPI","assignmentId":"3X0H8UUIT2A4NQ280OGN6T4XKZ3WSF","hitId":"363A7XIFV48LMLIF2CKYA8VQSVQAVR","url":"https://gershmanlab.com/experiments/alicia/teaching/experiment/?hitId=363A7XIFV48LMLIF2CKYA8VQSVQAVR&workerId=A2JP9IKRHNLRPI&assignmentId=3X0H8UUIT2A4NQ280OGN6T4XKZ3WSF&a=I80X9&tp_a=I80X9&b=3X0H8UUIT2A4NQ280OGN6T4XKZ3WSF&tp_b=3X0H8UUIT2A4NQ280OGN6T4XKZ3WSF&c=365799&tp_c=365799"},{"rt":null,"stimulus":"<div style=\"font-size:60px;\">Next student</div>","response":null,"trial_type":"html-keyboard-response","trial_index":82,"time_elapsed":660047,"internal_node_id":"0.0-73.0-0.0","params":{"nStudents":24,"maxFlips":30,"completionMinutes":45,"basePay":8,"maxBonus":9,"perTrialBonus":0.5,"perTrialBonusThreshold":0.05,"exampleCost":0.01},"classroomParams":{"A":{"a":1,"b":4},"B":{"a":4,"b":1},"C":{"a":2,"b":8},"D":{"a":8,"b":2}},"conditions":["nonSeqFull","nonSeqPartial","seqNoFeedback","seqFeedback"],"classroomPairings":[["A","B"],["C","D"]],"coinWeights":[0.2,0.5,0.8],"subjectId":"A2JP9IKRHNLRPI","assignmentId":"3X0H8UUIT2A4NQ280OGN6T4XKZ3WSF","hitId":"363A7XIFV48LMLIF2CKYA8VQSVQAVR","url":"https://gershmanlab.com/experiments/alicia/teaching/experiment/?hitId=363A7XIFV48LMLIF2CKYA8VQSVQAVR&workerId=A2JP9IKRHNLRPI&assignmentId=3X0H8UUIT2A4NQ280OGN6T4XKZ3WSF&a=I80X9&tp_a=I80X9&b=3X0H8UUIT2A4NQ280OGN6T4XKZ3WSF&tp_b=3X0H8UUIT2A4NQ280OGN6T4XKZ3WSF&c=365799&tp_c=365799"},{"rt":1109,"stimulus":"\n            <h4 style=\"color:Orange;\">Student 10</h4>\n            <h2>The weight of your coin is <b style=\"color:Tomato;\">0.5</b>.</h2>\n            <p>In this block, you will be giving <b>one</b> set of examples to Student 10.</p>\n                <p>You will receive feedback at the end of the block.</p>\n            <p></p>","response":0,"trial_type":"html-button-response","trial_index":83,"time_elapsed":661156,"internal_node_id":"0.0-74.0","params":{"nStudents":24,"maxFlips":30,"completionMinutes":45,"basePay":8,"maxBonus":9,"perTrialBonus":0.5,"perTrialBonusThreshold":0.05,"exampleCost":0.01},"classroomParams":{"A":{"a":1,"b":4},"B":{"a":4,"b":1},"C":{"a":2,"b":8},"D":{"a":8,"b":2}},"conditions":["nonSeqFull","nonSeqPartial","seqNoFeedback","seqFeedback"],"classroomPairings":[["A","B"],["C","D"]],"coinWeights":[0.2,0.5,0.8],"subjectId":"A2JP9IKRHNLRPI","assignmentId":"3X0H8UUIT2A4NQ280OGN6T4XKZ3WSF","hitId":"363A7XIFV48LMLIF2CKYA8VQSVQAVR","url":"https://gershmanlab.com/experiments/alicia/teaching/experiment/?hitId=363A7XIFV48LMLIF2CKYA8VQSVQAVR&workerId=A2JP9IKRHNLRPI&assignmentId=3X0H8UUIT2A4NQ280OGN6T4XKZ3WSF&a=I80X9&tp_a=I80X9&b=3X0H8UUIT2A4NQ280OGN6T4XKZ3WSF&tp_b=3X0H8UUIT2A4NQ280OGN6T4XKZ3WSF&c=365799&tp_c=365799"},{"rt":8394,"response":{"heads":"3","tails":"0"},"type":"response","condition":"nonSeqPartial","trueTheta":0.5,"classrooms":["A","B"],"studentTrueClassroom":"A","exampleSet":"first","trial_type":"survey-html-form","trial_index":84,"time_elapsed":669550,"internal_node_id":"0.0-75.0-0.0","params":{"nStudents":24,"maxFlips":30,"completionMinutes":45,"basePay":8,"maxBonus":9,"perTrialBonus":0.5,"perTrialBonusThreshold":0.05,"exampleCost":0.01},"classroomParams":{"A":{"a":1,"b":4},"B":{"a":4,"b":1},"C":{"a":2,"b":8},"D":{"a":8,"b":2}},"conditions":["nonSeqFull","nonSeqPartial","seqNoFeedback","seqFeedback"],"classroomPairings":[["A","B"],["C","D"]],"coinWeights":[0.2