[{"rt":3410,"stimulus":"Welcome to the experiment. Press any key to begin.","response":" ","trial_type":"html-keyboard-response","trial_index":0,"time_elapsed":3429,"internal_node_id":"0.0-0.0","params":{"nStudents":24,"maxFlips":30,"completionMinutes":45,"basePay":8,"maxBonus":9,"perTrialBonus":0.5,"perTrialBonusThreshold":0.05,"exampleCost":0.01},"classroomParams":{"A":{"a":1,"b":4},"B":{"a":4,"b":1},"C":{"a":2,"b":8},"D":{"a":8,"b":2}},"conditions":["nonSeqFull","nonSeqPartial","seqNoFeedback","seqFeedback"],"classroomPairings":[["A","B"],["C","D"]],"coinWeights":[0.2,0.5,0.8],"subjectId":"A2L5QFUJKKYE6G","assignmentId":"3I33IC7ZWGOEBEI7545PXMU2ULGA2S","hitId":"34KYK9TV2RUAD363EVFPUWVPB97SBP","url":"https://gershmanlab.com/experiments/alicia/teaching/experiment/?hitId=34KYK9TV2RUAD363EVFPUWVPB97SBP&workerId=A2L5QFUJKKYE6G&assignmentId=3I33IC7ZWGOEBEI7545PXMU2ULGA2S&a=ZI3I7&tp_a=ZI3I7&b=3I33IC7ZWGOEBEI7545PXMU2ULGA2S&tp_b=3I33IC7ZWGOEBEI7545PXMU2ULGA2S&c=365717&tp_c=365717"},{"rt":12764,"stimulus":"\n        <h3>Please read this consent agreement carefully before deciding whether to participate in this experiment.</h3>\n        <p><b>Purpose of the research:</b> To examine how people teach effectively.</p>\n        <p><b>What you will do in this research:</b> You will teach students the weights of different coins.</p>\n        <p><b>Time required:</b> This experiment will take 45 minutes to complete.</p>\n        <p><b>Risks:</b> There are no anticipated risks associated with participating in this study.             The effects of participating should be comparable to those you would experience from viewing a computer monitor             and using a mouse and keyboard for the duration of the experiment.</p>\n        <p><b>Benefits:</b> The study provides important information about the nature of teaching.</p>\n        <p><b>Compensation:</b> You will receive <b>$8</b> for completing the experiment and a performance bonus of up to <b>$9</b>.</p>\n        <p><b>Confidentiality:</b> Your participation in this study will remain confidential.             No personally identifiable information will be associated with your data.             Your de-identified data may be shared with other researchers and used in future projects.</p>\n        <p><b>Participation and withdrawal:</b> Your participation in this study is completely voluntary and             you may refuse to participate or you may choose to withdraw at any time without penalty or loss of\n            benefits to which you are otherwise entitled.</p>\n        <p><b>How to contact the researcher:</b> If you have questions or concerns about your participation            or payment, or want to request a summary of research findings, please contact\n            Alicia Chen, aliciachen@college.harvard.edu.</p>\n        <p><b>Whom to contact about your rights in this research:</b> For questions, concerns, suggestions,             or complaints that have not been or cannot be addressed by the researcher, or to report             research-related harm, please contact the Committee on the Use of Human Subjects in Research at Harvard University,             1414 Massachusetts Avenue, Second Floor, Cambridge, MA 02138. Phone: 617-496-2847. Email: cuhs@fas.harvard.edu.</p>\n        ","response":0,"trial_type":"html-button-response","trial_index":1,"time_elapsed":16195,"internal_node_id":"0.0-1.0","params":{"nStudents":24,"maxFlips":30,"completionMinutes":45,"basePay":8,"maxBonus":9,"perTrialBonus":0.5,"perTrialBonusThreshold":0.05,"exampleCost":0.01},"classroomParams":{"A":{"a":1,"b":4},"B":{"a":4,"b":1},"C":{"a":2,"b":8},"D":{"a":8,"b":2}},"conditions":["nonSeqFull","nonSeqPartial","seqNoFeedback","seqFeedback"],"classroomPairings":[["A","B"],["C","D"]],"coinWeights":[0.2,0.5,0.8],"subjectId":"A2L5QFUJKKYE6G","assignmentId":"3I33IC7ZWGOEBEI7545PXMU2ULGA2S","hitId":"34KYK9TV2RUAD363EVFPUWVPB97SBP","url":"https://gershmanlab.com/experiments/alicia/teaching/experiment/?hitId=34KYK9TV2RUAD363EVFPUWVPB97SBP&workerId=A2L5QFUJKKYE6G&assignmentId=3I33IC7ZWGOEBEI7545PXMU2ULGA2S&a=ZI3I7&tp_a=ZI3I7&b=3I33IC7ZWGOEBEI7545PXMU2ULGA2S&tp_b=3I33IC7ZWGOEBEI7545PXMU2ULGA2S&c=365717&tp_c=365717"},{"view_history":[{"page_index":0,"viewing_time":10953},{"page_index":1,"viewing_time":3894},{"page_index":2,"viewing_time":51872},{"page_index":3,"viewing_time":29821},{"page_index":4,"viewing_time":12709},{"page_index":5,"viewing_time":27692},{"page_index":6,"viewing_time":89713}],"rt":226653,"trial_type":"instructions","trial_index":2,"time_elapsed":242849,"internal_node_id":"0.0-2.0-0.0","params":{"nStudents":24,"maxFlips":30,"completionMinutes":45,"basePay":8,"maxBonus":9,"perTrialBonus":0.5,"perTrialBonusThreshold":0.05,"exampleCost":0.01},"classroomParams":{"A":{"a":1,"b":4},"B":{"a":4,"b":1},"C":{"a":2,"b":8},"D":{"a":8,"b":2}},"conditions":["nonSeqFull","nonSeqPartial","seqNoFeedback","seqFeedback"],"classroomPairings":[["A","B"],["C","D"]],"coinWeights":[0.2,0.5,0.8],"subjectId":"A2L5QFUJKKYE6G","assignmentId":"3I33IC7ZWGOEBEI7545PXMU2ULGA2S","hitId":"34KYK9TV2RUAD363EVFPUWVPB97SBP","url":"https://gershmanlab.com/experiments/alicia/teaching/experiment/?hitId=34KYK9TV2RUAD363EVFPUWVPB97SBP&workerId=A2L5QFUJKKYE6G&assignmentId=3I33IC7ZWGOEBEI7545PXMU2ULGA2S&a=ZI3I7&tp_a=ZI3I7&b=3I33IC7ZWGOEBEI7545PXMU2ULGA2S&tp_b=3I33IC7ZWGOEBEI7545PXMU2ULGA2S&c=365717&tp_c=365717"},{"rt":79610,"response":{"Q0":"Students in different classrooms have seen a different proportion of fair and unfair coins before seeing the examples you select for them.","Q1":"By <b>considering the student's classroom information</b> so that I can teach efficiently and accurately/helpfully at the same time (because each example I give to the student costs money!).","Q2":"The coin lands heads 90% of the time.","Q3":"No, I will teach a <b>new</b> student each time.","Q4":"The students are also on the same alien planet as you, where coins can be unfair.","Q5":"Based on the student's second (and final) guess."},"question_order":[4,5,2,1,0,3],"trial_type":"survey-multi-choice","trial_index":3,"time_elapsed":322463,"internal_node_id":"0.0-2.0-1.0","params":{"nStudents":24,"maxFlips":30,"completionMinutes":45,"basePay":8,"maxBonus":9,"perTrialBonus":0.5,"perTrialBonusThreshold":0.05,"exampleCost":0.01},"classroomParams":{"A":{"a":1,"b":4},"B":{"a":4,"b":1},"C":{"a":2,"b":8},"D":{"a":8,"b":2}},"conditions":["nonSeqFull","nonSeqPartial","seqNoFeedback","seqFeedback"],"classroomPairings":[["A","B"],["C","D"]],"coinWeights":[0.2,0.5,0.8],"subjectId":"A2L5QFUJKKYE6G","assignmentId":"3I33IC7ZWGOEBEI7545PXMU2ULGA2S","hitId":"34KYK9TV2RUAD363EVFPUWVPB97SBP","url":"https://gershmanlab.com/experiments/alicia/teaching/experiment/?hitId=34KYK9TV2RUAD363EVFPUWVPB97SBP&workerId=A2L5QFUJKKYE6G&assignmentId=3I33IC7ZWGOEBEI7545PXMU2ULGA2S&a=ZI3I7&tp_a=ZI3I7&b=3I33IC7ZWGOEBEI7545PXMU2ULGA2S&tp_b=3I33IC7ZWGOEBEI7545PXMU2ULGA2S&c=365717&tp_c=365717","pass":false},{"rt":8013,"stimulus":"Oops, you have missed question(s) on the comprehension check! We'll show you the instructions again.","response":0,"trial_type":"html-button-response","trial_index":4,"time_elapsed":330484,"internal_node_id":"0.0-2.0-2.0-0.0","params":{"nStudents":24,"maxFlips":30,"completionMinutes":45,"basePay":8,"maxBonus":9,"perTrialBonus":0.5,"perTrialBonusThreshold":0.05,"exampleCost":0.01},"classroomParams":{"A":{"a":1,"b":4},"B":{"a":4,"b":1},"C":{"a":2,"b":8},"D":{"a":8,"b":2}},"conditions":["nonSeqFull","nonSeqPartial","seqNoFeedback","seqFeedback"],"classroomPairings":[["A","B"],["C","D"]],"coinWeights":[0.2,0.5,0.8],"subjectId":"A2L5QFUJKKYE6G","assignmentId":"3I33IC7ZWGOEBEI7545PXMU2ULGA2S","hitId":"34KYK9TV2RUAD363EVFPUWVPB97SBP","url":"https://gershmanlab.com/experiments/alicia/teaching/experiment/?hitId=34KYK9TV2RUAD363EVFPUWVPB97SBP&workerId=A2L5QFUJKKYE6G&assignmentId=3I33IC7ZWGOEBEI7545PXMU2ULGA2S&a=ZI3I7&tp_a=ZI3I7&b=3I33IC7ZWGOEBEI7545PXMU2ULGA2S&tp_b=3I33IC7ZWGOEBEI7545PXMU2ULGA2S&c=365717&tp_c=365717"},{"view_history":[{"page_index":0,"viewing_time":13231},{"page_index":1,"viewing_time":2730},{"page_index":2,"viewing_time":23652},{"page_index":3,"viewing_time":20559},{"page_index":4,"viewing_time":10464},{"page_index":5,"viewing_time":25871},{"page_index":6,"viewing_time":20149}],"rt":116655,"trial_type":"instructions","trial_index":5,"time_elapsed":447141,"internal_node_id":"0.0-2.1-0.1","params":{"nStudents":24,"maxFlips":30,"completionMinutes":45,"basePay":8,"maxBonus":9,"perTrialBonus":0.5,"perTrialBonusThreshold":0.05,"exampleCost":0.01},"classroomParams":{"A":{"a":1,"b":4},"B":{"a":4,"b":1},"C":{"a":2,"b":8},"D":{"a":8,"b":2}},"conditions":["nonSeqFull","nonSeqPartial","seqNoFeedback","seqFeedback"],"classroomPairings":[["A","B"],["C","D"]],"coinWeights":[0.2,0.5,0.8],"subjectId":"A2L5QFUJKKYE6G","assignmentId":"3I33IC7ZWGOEBEI7545PXMU2ULGA2S","hitId":"34KYK9TV2RUAD363EVFPUWVPB97SBP","url":"https://gershmanlab.com/experiments/alicia/teaching/experiment/?hitId=34KYK9TV2RUAD363EVFPUWVPB97SBP&workerId=A2L5QFUJKKYE6G&assignmentId=3I33IC7ZWGOEBEI7545PXMU2ULGA2S&a=ZI3I7&tp_a=ZI3I7&b=3I33IC7ZWGOEBEI7545PXMU2ULGA2S&tp_b=3I33IC7ZWGOEBEI7545PXMU2ULGA2S&c=365717&tp_c=365717"},{"rt":70299,"response":{"Q0":"Students in different classrooms will have seen a different number of heads and tails before seeing the examples you select for them.","Q1":"By <b>considering the student's classroom information</b> so that I can teach efficiently and accurately/helpfully at the same time (because each example I give to the student costs money!).","Q2":"The coin lands heads 90% of the time.","Q3":"No, I will teach a <b>new</b> student each time.","Q4":"The students are also on the same alien planet as you, where coins can be unfair.","Q5":"Based on the student's second (and final) guess."},"question_order":[4,0,1,3,2,5],"trial_type":"survey-multi-choice","trial_index":6,"time_elapsed":517445,"internal_node_id":"0.0-2.1-1.1","params":{"nStudents":24,"maxFlips":30,"completionMinutes":45,"basePay":8,"maxBonus":9,"perTrialBonus":0.5,"perTrialBonusThreshold":0.05,"exampleCost":0.01},"classroomParams":{"A":{"a":1,"b":4},"B":{"a":4,"b":1},"C":{"a":2,"b":8},"D":{"a":8,"b":2}},"conditions":["nonSeqFull","nonSeqPartial","seqNoFeedback","seqFeedback"],"classroomPairings":[["A","B"],["C","D"]],"coinWeights":[0.2,0.5,0.8],"subjectId":"A2L5QFUJKKYE6G","assignmentId":"3I33IC7ZWGOEBEI7545PXMU2ULGA2S","hitId":"34KYK9TV2RUAD363EVFPUWVPB97SBP","url":"https://gershmanlab.com/experiments/alicia/teaching/experiment/?hitId=34KYK9TV2RUAD363EVFPUWVPB97SBP&workerId=A2L5QFUJKKYE6G&assignmentId=3I33IC7ZWGOEBEI7545PXMU2ULGA2S&a=ZI3I7&tp_a=ZI3I7&b=3I33IC7ZWGOEBEI7545PXMU2ULGA2S&tp_b=3I33IC7ZWGOEBEI7545PXMU2ULGA2S&c=365717&tp_c=365717","pass":true},{"rt":null,"stimulus":"<div style=\"font-size:30px;\">Congrats on passing the comprehension quiz! The experiment will begin in a few seconds.</div>","response":null,"trial_type":"html-keyboard-response","trial_index":7,"time_elapsed":520464,"internal_node_id":"0.0-3.0","params":{"nStudents":24,"maxFlips":30,"completionMinutes":45,"basePay":8,"maxBonus":9,"perTrialBonus":0.5,"perTrialBonusThreshold":0.05,"exampleCost":0.01},"classroomParams":{"A":{"a":1,"b":4},"B":{"a":4,"b":1},"C":{"a":2,"b":8},"D":{"a":8,"b":2}},"conditions":["nonSeqFull","nonSeqPartial","seqNoFeedback","seqFeedback"],"classroomPairings":[["A","B"],["C","D"]],"coinWeights":[0.2,0.5,0.8],"subjectId":"A2L5QFUJKKYE6G","assignmentId":"3I33IC7ZWGOEBEI7545PXMU2ULGA2S","hitId":"34KYK9TV2RUAD363EVFPUWVPB97SBP","url":"https://gershmanlab.com/experiments/alicia/teaching/experiment/?hitId=34KYK9TV2RUAD363EVFPUWVPB97SBP&workerId=A2L5QFUJKKYE6G&assignmentId=3I33IC7ZWGOEBEI7545PXMU2ULGA2S&a=ZI3I7&tp_a=ZI3I7&b=3I33IC7ZWGOEBEI7545PXMU2ULGA2S&tp_b=3I33IC7ZWGOEBEI7545PXMU2ULGA2S&c=365717&tp_c=365717"},{"rt":null,"stimulus":"<div style=\"font-size:50px;\">First student</div>","response":null,"trial_type":"html-keyboard-response","trial_index":8,"time_elapsed":523802,"internal_node_id":"0.0-4.0","params":{"nStudents":24,"maxFlips":30,"completionMinutes":45,"basePay":8,"maxBonus":9,"perTrialBonus":0.5,"perTrialBonusThreshold":0.05,"exampleCost":0.01},"classroomParams":{"A":{"a":1,"b":4},"B":{"a":4,"b":1},"C":{"a":2,"b":8},"D":{"a":8,"b":2}},"conditions":["nonSeqFull","nonSeqPartial","seqNoFeedback","seqFeedback"],"classroomPairings":[["A","B"],["C","D"]],"coinWeights":[0.2,0.5,0.8],"subjectId":"A2L5QFUJKKYE6G","assignmentId":"3I33IC7ZWGOEBEI7545PXMU2ULGA2S","hitId":"34KYK9TV2RUAD363EVFPUWVPB97SBP","url":"https://gershmanlab.com/experiments/alicia/teaching/experiment/?hitId=34KYK9TV2RUAD363EVFPUWVPB97SBP&workerId=A2L5QFUJKKYE6G&assignmentId=3I33IC7ZWGOEBEI7545PXMU2ULGA2S&a=ZI3I7&tp_a=ZI3I7&b=3I33IC7ZWGOEBEI7545PXMU2ULGA2S&tp_b=3I33IC7ZWGOEBEI7545PXMU2ULGA2S&c=365717&tp_c=365717"},{"rt":14212,"stimulus":"\n            <h4 style=\"color:Orange;\">Student 1</h4>\n            <h2>The weight of your coin is <b style=\"color:Tomato;\">0.2</b>.</h2>\n            <p>In this block, you will be giving <b>one</b> set of examples to Student 1.</p>\n                <p>You will receive feedback at the end of the block.</p>\n            <p></p>","response":0,"trial_type":"html-button-response","trial_index":9,"time_elapsed":538015,"internal_node_id":"0.0-5.0","params":{"nStudents":24,"maxFlips":30,"completionMinutes":45,"basePay":8,"maxBonus":9,"perTrialBonus":0.5,"perTrialBonusThreshold":0.05,"exampleCost":0.01},"classroomParams":{"A":{"a":1,"b":4},"B":{"a":4,"b":1},"C":{"a":2,"b":8},"D":{"a":8,"b":2}},"conditions":["nonSeqFull","nonSeqPartial","seqNoFeedback","seqFeedback"],"classroomPairings":[["A","B"],["C","D"]],"coinWeights":[0.2,0.5,0.8],"subjectId":"A2L5QFUJKKYE6G","assignmentId":"3I33IC7ZWGOEBEI7545PXMU2ULGA2S","hitId":"34KYK9TV2RUAD363EVFPUWVPB97SBP","url":"https://gershmanlab.com/experiments/alicia/teaching/experiment/?hitId=34KYK9TV2RUAD363EVFPUWVPB97SBP&workerId=A2L5QFUJKKYE6G&assignmentId=3I33IC7ZWGOEBEI7545PXMU2ULGA2S&a=ZI3I7&tp_a=ZI3I7&b=3I33IC7ZWGOEBEI7545PXMU2ULGA2S&tp_b=3I33IC7ZWGOEBEI7545PXMU2ULGA2S&c=365717&tp_c=365717"},{"rt":43555,"response":{"heads":"2","tails":"8"},"type":"response","condition":"nonSeqPartial","trueTheta":0.2,"classrooms":["C","D"],"studentTrueClassroom":"D","exampleSet":"first","trial_type":"survey-html-form","trial_index":10,"time_elapsed":581573,"internal_node_id":"0.0-6.0-0.0","params":{"nStudents":24,"maxFlips":30,"completionMinutes":45,"basePay":8,"maxBonus":9,"perTrialBonus":0.5,"perTrialBonusThreshold":0.05,"exampleCost":0.01},"classroomParams":{"A":{"a":1,"b":4},"B":{"a":4,"b":1},"C":{"a":2,"b":8},"D":{"a":8,"b":2}},"conditions":["nonSeqFull","nonSeqPartial","seqNoFeedback","seqFeedback"],"classroomPairings":[["A","B"],["C","D"]],"coinWeights":[0.2,0.5,0.8],"subjectId":"A2L5QFUJKKYE6G","assignmentId":"3I33IC7ZWGOEBEI7545PXMU2ULGA2S","hitId":"34KYK9TV2RUAD363EVFPUWVPB97SBP","url":"https://gershmanlab.com/experiments/alicia/teaching/experiment/?hitId=34KYK9TV2RUAD363EVFPUWVPB97SBP&workerId=A2L5QFUJKKYE6G&assignmentId=3I33IC7ZWGOEBEI7545PXMU2ULGA2S&a=ZI3I7&tp_a=ZI3I7&b=3I33IC7ZWGOEBEI7545PXMU2ULGA2S&tp_b=3I33IC7ZWGOEBEI7545PXMU2ULGA2S&c=365717&tp_c=365717","heads":2,"tails":8,"studentIndex":0,"studentTrueHypers":{"a":8,"b":2},"studentGuess":0.5,"delta":0.3,"totalExamples":10,"bonus":0,"bonusSoFar":0},{"rt":null,"stimulus":"Sending examples to student... ","response":null,"trial_type":"html-keyboard-response","trial_index":11,"time_elapsed":583591,"internal_node_id":"0.0-7.0","params":{"nStudents":24,"maxFlips":30,"completionMinutes":45,"basePay":8,"maxBonus":9,"perTrialBonus":0.5,"perTrialBonusThreshold":0.05,"exampleCost":0.01},"classroomParams":{"A":{"a":1,"b":4},"B":{"a":4,"b":1},"C":{"a":2,"b":8},"D":{"a":8,"b":2}},"conditions":["nonSeqFull","nonSeqPartial","seqNoFeedback","seqFeedback"],"classroomPairings":[["A","B"],["C","D"]],"coinWeights":[0.2,0.5,0.8],"subjectId":"A2L5QFUJKKYE6G","assignmentId":"3I33IC7ZWGOEBEI7545PXMU2ULGA2S","hitId":"34KYK9TV2RUAD363EVFPUWVPB97SBP","url":"https://gershmanlab.com/experiments/alicia/teaching/experiment/?hitId=34KYK9TV2RUAD363EVFPUWVPB97SBP&workerId=A2L5QFUJKKYE6G&assignmentId=3I33IC7ZWGOEBEI7545PXMU2ULGA2S&a=ZI3I7&tp_a=ZI3I7&b=3I33IC7ZWGOEBEI7545PXMU2ULGA2S&tp_b=3I33IC7ZWGOEBEI7545PXMU2ULGA2S&c=365717&tp_c=365717"},{"rt":null,"stimulus":"Examples sent to student! Waiting for student...","response":null,"trial_type":"html-keyboard-response","trial_index":12,"time_elapsed":589099,"internal_node_id":"0.0-8.0","params":{"nStudents":24,"maxFlips":30,"completionMinutes":45,"basePay":8,"maxBonus":9,"perTrialBonus":0.5,"perTrialBonusThreshold":0.05,"exampleCost":0.01},"classroomParams":{"A":{"a":1,"b":4},"B":{"a":4,"b":1},"C":{"a":2,"b":8},"D":{"a":8,"b":2}},"conditions":["nonSeqFull","nonSeqPartial","seqNoFeedback","seqFeedback"],"classroomPairings":[["A","B"],["C","D"]],"coinWeights":[0.2,0.5,0.8],"subjectId":"A2L5QFUJKKYE6G","assignmentId":"3I33IC7ZWGOEBEI7545PXMU2ULGA2S","hitId":"34KYK9TV2RUAD363EVFPUWVPB97SBP","url":"https://gershmanlab.com/experiments/alicia/teaching/experiment/?hitId=34KYK9TV2RUAD363EVFPUWVPB97SBP&workerId=A2L5QFUJKKYE6G&assignmentId=3I33IC7ZWGOEBEI7545PXMU2ULGA2S&a=ZI3I7&tp_a=ZI3I7&b=3I33IC7ZWGOEBEI7545PXMU2ULGA2S&tp_b=3I33IC7ZWGOEBEI7545PXMU2ULGA2S&c=365717&tp_c=365717"},{"rt":9972,"stimulus":"\n                <p>Student's guess for coin weight: <b style=\"color:Tomato;\">0.50</b></p>\n                <p>You received a bonus of <b>$0</b>. Total bonus so far: <b>$0.00</b></b></p>\n                <p></p>\n                <p>Press any key to continue.</p>\n                ","response":" ","trial_type":"html-keyboard-response","trial_index":13,"time_elapsed":599073,"internal_node_id":"0.0-9.0","params":{"nStudents":24,"maxFlips":30,"completionMinutes":45,"basePay":8,"maxBonus":9,"perTrialBonus":0.5,"perTrialBonusThreshold":0.05,"exampleCost":0.01},"classroomParams":{"A":{"a":1,"b":4},"B":{"a":4,"b":1},"C":{"a":2,"b":8},"D":{"a":8,"b":2}},"conditions":["nonSeqFull","nonSeqPartial","seqNoFeedback","seqFeedback"],"classroomPairings":[["A","B"],["C","D"]],"coinWeights":[0.2,0.5,0.8],"subjectId":"A2L5QFUJKKYE6G","assignmentId":"3I33IC7ZWGOEBEI7545PXMU2ULGA2S","hitId":"34KYK9TV2RUAD363EVFPUWVPB97SBP","url":"https://gershmanlab.com/experiments/alicia/teaching/experiment/?hitId=34KYK9TV2RUAD363EVFPUWVPB97SBP&workerId=A2L5QFUJKKYE6G&assignmentId=3I33IC7ZWGOEBEI7545PXMU2ULGA2S&a=ZI3I7&tp_a=ZI3I7&b=3I33IC7ZWGOEBEI7545PXMU2ULGA2S&tp_b=3I33IC7ZWGOEBEI7545PXMU2ULGA2S&c=365717&tp_c=365717"},{"rt":null,"stimulus":"<div style=\"font-size:60px;\">Next student</div>","response":null,"trial_type":"html-keyboard-response","trial_index":14,"time_elapsed":601084,"internal_node_id":"0.0-10.0-0.0","params":{"nStudents":24,"maxFlips":30,"completionMinutes":45,"basePay":8,"maxBonus":9,"perTrialBonus":0.5,"perTrialBonusThreshold":0.05,"exampleCost":0.01},"classroomParams":{"A":{"a":1,"b":4},"B":{"a":4,"b":1},"C":{"a":2,"b":8},"D":{"a":8,"b":2}},"conditions":["nonSeqFull","nonSeqPartial","seqNoFeedback","seqFeedback"],"classroomPairings":[["A","B"],["C","D"]],"coinWeights":[0.2,0.5,0.8],"subjectId":"A2L5QFUJKKYE6G","assignmentId":"3I33IC7ZWGOEBEI7545PXMU2ULGA2S","hitId":"34KYK9TV2RUAD363EVFPUWVPB97SBP","url":"https://gershmanlab.com/experiments/alicia/teaching/experiment/?hitId=34KYK9TV2RUAD363EVFPUWVPB97SBP&workerId=A2L5QFUJKKYE6G&assignmentId=3I33IC7ZWGOEBEI7545PXMU2ULGA2S&a=ZI3I7&tp_a=ZI3I7&b=3I33IC7ZWGOEBEI7545PXMU2ULGA2S&tp_b=3I33IC7ZWGOEBEI7545PXMU2ULGA2S&c=365717&tp_c=365717"},{"rt":8885,"stimulus":"\n            <h4 style=\"color:Orange;\">Student 2</h4>\n            <h2>The weight of your coin is <b style=\"color:Tomato;\">0.2</b>.</h2>\n            <p>In this block, you will be giving <b>two</b> sets of examples to Student 2.</p>\n                <p>You will see the student's guess after the first set of examples. You will also receive feedback at the end of the block.</p>\n            <p>To earn the highest bonus, you will have to <b>take into consideration the student's guess</b> when you choose your second set of examples.</p>","response":0,"trial_type":"html-button-response","trial_index":15,"time_elapsed":609971,"internal_node_id":"0.0-11.0","params":{"nStudents":24,"maxFlips":30,"completionMinutes":45,"basePay":8,"maxBonus":9,"perTrialBonus":0.5,"perTrialBonusThreshold":0.05,"exampleCost":0.01},"classroomParams":{"A":{"a":1,"b":4},"B":{"a":4,"b":1},"C":{"a":2,"b":8},"D":{"a":8,"b":2}},"conditions":["nonSeqFull","nonSeqPartial","seqNoFeedback","seqFeedback"],"classroomPairings":[["A","B"],["C","D"]],"coinWeights":[0.2,0.5,0.8],"subjectId":"A2L5QFUJKKYE6G","assignmentId":"3I33IC7ZWGOEBEI7545PXMU2ULGA2S","hitId":"34KYK9TV2RUAD363EVFPUWVPB97SBP","url":"https://gershmanlab.com/experiments/alicia/teaching/experiment/?hitId=34KYK9TV2RUAD363EVFPUWVPB97SBP&workerId=A2L5QFUJKKYE6G&assignmentId=3I33IC7ZWGOEBEI7545PXMU2ULGA2S&a=ZI3I7&tp_a=ZI3I7&b=3I33IC7ZWGOEBEI7545PXMU2ULGA2S&tp_b=3I33IC7ZWGOEBEI7545PXMU2ULGA2S&c=365717&tp_c=365717"},{"rt":31601,"response":{"heads":"1","tails":"4"},"type":"response","condition":"seqFeedback","trueTheta":0.2,"classrooms":["A","B"],"studentTrueClassroom":"B","exampleSet":"first","trial_type":"survey-html-form","trial_index":16,"time_elapsed":641575,"internal_node_id":"0.0-12.0-0.0","params":{"nStudents":24,"maxFlips":30,"completionMinutes":45,"basePay":8,"maxBonus":9,"perTrialBonus":0.5,"perTrialBonusThreshold":0.05,"exampleCost":0.01},"classroomParams":{"A":{"a":1,"b":4},"B":{"a":4,"b":1},"C":{"a":2,"b":8},"D":{"a":8,"b":2}},"conditions":["nonSeqFull","nonSeqPartial","seqNoFeedback","seqFeedback"],"classroomPairings":[["A","B"],["C","D"]],"coinWeights":[0.2,0.5,0.8],"subjectId":"A2L5QFUJKKYE6G","assignmentId":"3I33IC7ZWGOEBEI7545PXMU2ULGA2S","hitId":"34KYK9TV2RUAD363EVFPUWVPB97SBP","url":"https://gershmanlab.com/experiments/alicia/teaching/experiment/?hitId=34KYK9TV2RUAD363EVFPUWVPB97SBP&workerId=A2L5QFUJKKYE6G&assignmentId=3I33IC7ZWGOEBEI7545PXMU2ULGA2S&a=ZI3I7&tp_a=ZI3I7&b=3I33IC7ZWGOEBEI7545PXMU2ULGA2S&tp_b=3I33IC7ZWGOEBEI7545PXMU2ULGA2S&c=365717&tp_c=365717","heads":1,"tails":4,"studentIndex":1,"studentTrueHypers":{"a":4,"b":1},"studentGuess":0.5,"delta":0.3,"totalExamples":5,"bonusSoFar":0},{"rt":null,"stimulus":"Sending examples to student... ","response":null,"trial_type":"html-keyboard-response","trial_index":17,"time_elapsed":643085,"internal_node_id":"0.0-13.0","params":{"nStudents":24,"maxFlips":30,"completionMinutes":45,"basePay":8,"maxBonus":9,"perTrialBonus":0.5,"perTrialBonusThreshold":0.05,"exampleCost":0.01},"classroomParams":{"A":{"a":1,"b":4},"B":{"a":4,"b":1},"C":{"a":2,"b":8},"D":{"a":8,"b":2}},"conditions":["nonSeqFull","nonSeqPartial","seqNoFeedback","seqFeedback"],"classroomPairings":[["A","B"],["C","D"]],"coinWeights":[0.2,0.5,0.8],"subjectId":"A2L5QFUJKKYE6G","assignmentId":"3I33IC7ZWGOEBEI7545PXMU2ULGA2S","hitId":"34KYK9TV2RUAD363EVFPUWVPB97SBP","url":"https://gershmanlab.com/experiments/alicia/teaching/experiment/?hitId=34KYK9TV2RUAD363EVFPUWVPB97SBP&workerId=A2L5QFUJKKYE6G&assignmentId=3I33IC7ZWGOEBEI7545PXMU2ULGA2S&a=ZI3I7&tp_a=ZI3I7&b=3I33IC7ZWGOEBEI7545PXMU2ULGA2S&tp_b=3I33IC7ZWGOEBEI7545PXMU2ULGA2S&c=365717&tp_c=365717"},{"rt":null,"stimulus":"Examples sent to student! Waiting for student...","response":null,"trial_type":"html-keyboard-response","trial_index":18,"time_elapsed":649092,"internal_node_id":"0.0-14.0","params":{"nStudents":24,"maxFlips":30,"completionMinutes":45,"basePay":8,"maxBonus":9,"perTrialBonus":0.5,"perTrialBonusThreshold":0.05,"exampleCost":0.01},"classroomParams":{"A":{"a":1,"b":4},"B":{"a":4,"b":1},"C":{"a":2,"b":8},"D":{"a":8,"b":2}},"conditions":["nonSeqFull","nonSeqPartial","seqNoFeedback","seqFeedback"],"classroomPairings":[["A","B"],["C","D"]],"coinWeights":[0.2,0.5,0.8],"subjectId":"A2L5QFUJKKYE6G","assignmentId":"3I33IC7ZWGOEBEI7545PXMU2ULGA2S","hitId":"34KYK9TV2RUAD363EVFPUWVPB97SBP","url":"https://gershmanlab.com/experiments/alicia/teaching/experiment/?hitId=34KYK9TV2RUAD363EVFPUWVPB97SBP&workerId=A2L5QFUJKKYE6G&assignmentId=3I33IC7ZWGOEBEI7545PXMU2ULGA2S&a=ZI3I7&tp_a=ZI3I7&b=3I33IC7ZWGOEBEI7545PXMU2ULGA2S&tp_b=3I33IC7ZWGOEBEI7545PXMU2ULGA2S&c=365717&tp_c=365717"},{"rt":13751,"stimulus":"\n                <p>Student's guess for coin weight: <b style=\"color:Tomato;\">0.50</b></p>\n                <p></b></p>\n                <p>You will now send another set of examples to your student. <b>Remember to take your student's guess into consideration so that you can earn the highest bonus possible!</b> </p>\n                <p>Press any key to continue.</p>\n                ","response":" ","trial_type":"html-keyboard-response","trial_index":19,"time_elapsed":662844,"internal_node_id":"0.0-15.0","params":{"nStudents":24,"maxFlips":30,"completionMinutes":45,"basePay":8,"maxBonus":9,"perTrialBonus":0.5,"perTrialBonusThreshold":0.05,"exampleCost":0.01},"classroomParams":{"A":{"a":1,"b":4},"B":{"a":4,"b":1},"C":{"a":2,"b":8},"D":{"a":8,"b":2}},"conditions":["nonSeqFull","nonSeqPartial","seqNoFeedback","seqFeedback"],"classroomPairings":[["A","B"],["C","D"]],"coinWeights":[0.2,0.5,0.8],"subjectId":"A2L5QFUJKKYE6G","assignmentId":"3I33IC7ZWGOEBEI7545PXMU2ULGA2S","hitId":"34KYK9TV2RUAD363EVFPUWVPB97SBP","url":"https://gershmanlab.com/experiments/alicia/teaching/experiment/?hitId=34KYK9TV2RUAD363EVFPUWVPB97SBP&workerId=A2L5QFUJKKYE6G&assignmentId=3I33IC7ZWGOEBEI7545PXMU2ULGA2S&a=ZI3I7&tp_a=ZI3I7&b=3I33IC7ZWGOEBEI7545PXMU2ULGA2S&tp_b=3I33IC7ZWGOEBEI7545PXMU2ULGA2S&c=365717&tp_c=365717"},{"rt":31275,"response":{"heads":"2","tails":"6"},"type":"response","condition":"seqFeedback","trueTheta":0.2,"classrooms":["A","B"],"studentTrueClassroom":"B","exampleSet":"second","trial_type":"survey-html-form","trial_index":20,"time_elapsed":694121,"internal_node_id":"0.0-16.0-0.0","params":{"nStudents":24,"maxFlips":30,"completionMinutes":45,"basePay":8,"maxBonus":9,"perTrialBonus":0.5,"perTrialBonusThreshold":0.05,"exampleCost":0.01},"classroomParams":{"A":{"a":1,"b":4},"B":{"a":4,"b":1},"C":{"a":2,"b":8},"D":{"a":8,"b":2}},"conditions":["nonSeqFull","nonSeqPartial","seqNoFeedback","seqFeedback"],"classroomPairings":[["A","B"],["C","D"]],"coinWeights":[0.2,0.5,0.8],"subjectId":"A2L5QFUJKKYE6G","assignmentId":"3I33IC7ZWGOEBEI7545PXMU2ULGA2S","hitId":"34KYK9TV2RUAD363EVFPUWVPB97SBP","url":"https://gershmanlab.com/experiments/alicia/teaching/experiment/?hitId=34KYK9TV2RUAD363EVFPUWVPB97SBP&workerId=A2L5QFUJKKYE6G&assignmentId=3I33IC7ZWGOEBEI7545PXMU2ULGA2S&a=ZI3I7&tp_a=ZI3I7&b=3I33IC7ZWGOEBEI7545PXMU2ULGA2S&tp_b=3I33IC7ZWGOEBEI7545PXMU2ULGA2S&c=365717&tp_c=365717","firstResponseHeads":1,"firstResponseTails":4,"secondResponseHeads":2,"secondResponseTails":6,"totalHeads":3,"totalTails":10,"studentIndex":1,"studentTrueHypers":{"a":4,"b":1},"studentGuess":0.3888888888888889,"delta":0.18888888888888888,"bonus":0,"bonusSoFar":0,"totalExamples":13},{"rt":null,"stimulus":"Sending examples to student... ","response":null,"trial_type":"html-keyboard-response","trial_index":21,"time_elapsed":695379,"internal_node_id":"0.0-17.0","params":{"nStudents":24,"maxFlips":30,"completionMinutes":45,"basePay":8,"maxBonus":9,"perTrialBonus":0.5,"perTrialBonusThreshold":0.05,"exampleCost":0.01},"classroomParams":{"A":{"a":1,"b":4},"B":{"a":4,"b":1},"C":{"a":2,"b":8},"D":{"a":8,"b":2}},"conditions":["nonSeqFull","nonSeqPartial","seqNoFeedback","seqFeedback"],"classroomPairings":[["A","B"],["C","D"]],"coinWeights":[0.2,0.5,0.8],"subjectId":"A2L5QFUJKKYE6G","assignmentId":"3I33IC7ZWGOEBEI7545PXMU2ULGA2S","hitId":"34KYK9TV2RUAD363EVFPUWVPB97SBP","url":"https://gershmanlab.com/experiments/alicia/teaching/experiment/?hitId=34KYK9TV2RUAD363EVFPUWVPB97SBP&workerId=A2L5QFUJKKYE6G&assignmentId=3I33IC7ZWGOEBEI7545PXMU2ULGA2S&a=ZI3I7&tp_a=ZI3I7&b=3I33IC7ZWGOEBEI7545PXMU2ULGA2S&tp_b=3I33IC7ZWGOEBEI7545PXMU2ULGA2S&c=365717&tp_c=365717"},{"rt":null,"stimulus":"Examples sent to student! Waiting for student...","response":null,"trial_type":"html-keyboard-response","trial_index":22,"time_elapsed":699390,"internal_node_id":"0.0-18.0","params":{"nStudents":24,"maxFlips":30,"completionMinutes":45,"basePay":8,"maxBonus":9,"perTrialBonus":0.5,"perTrialBonusThreshold":0.05,"exampleCost":0.01},"classroomParams":{"A":{"a":1,"b":4},"B":{"a":4,"b":1},"C":{"a":2,"b":8},"D":{"a":8,"b":2}},"conditions":["nonSeqFull","nonSeqPartial","seqNoFeedback","seqFeedback"],"classroomPairings":[["A","B"],["C","D"]],"coinWeights":[0.2,0.5,0.8],"subjectId":"A2L5QFUJKKYE6G","assignmentId":"3I33IC7ZWGOEBEI7545PXMU2ULGA2S","hitId":"34KYK9TV2RUAD363EVFPUWVPB97SBP","url":"https://gershmanlab.com/experiments/alicia/teaching/experiment/?hitId=34KYK9TV2RUAD363EVFPUWVPB97SBP&workerId=A2L5QFUJKKYE6G&assignmentId=3I33IC7ZWGOEBEI7545PXMU2ULGA2S&a=ZI3I7&tp_a=ZI3I7&b=3I33IC7ZWGOEBEI7545PXMU2ULGA2S&tp_b=3I33IC7ZWGOEBEI7545PXMU2ULGA2S&c=365717&tp_c=365717"},{"rt":5703,"stimulus":"\n                <p>Student 2's first guess for coin weight: <b style=\"color:Tomato\";>0.50</b></p>\n                <p>Student 2's second guess for coin weight: <b style=\"color:Tomato\";>0.39</b></p>\n                <p>You received a bonus of <b>$0.00</b> based on the student's second guess.</p>\n                <p>Total bonus so far: <b>$0.00</b></p>\n                <p>Press any key to continue.</p>\n                ","response":" ","trial_type":"html-keyboard-response","trial_index":23,"time_elapsed":705095,"internal_node_id":"0.0-19.0","params":{"nStudents":24,"maxFlips":30,"completionMinutes":45,"basePay":8,"maxBonus":9,"perTrialBonus":0.5,"perTrialBonusThreshold":0.05,"exampleCost":0.01},"classroomParams":{"A":{"a":1,"b":4},"B":{"a":4,"b":1},"C":{"a":2,"b":8},"D":{"a":8,"b":2}},"conditions":["nonSeqFull","nonSeqPartial","seqNoFeedback","seqFeedback"],"classroomPairings":[["A","B"],["C","D"]],"coinWeights":[0.2,0.5,0.8],"subjectId":"A2L5QFUJKKYE6G","assignmentId":"3I33IC7ZWGOEBEI7545PXMU2ULGA2S","hitId":"34KYK9TV2RUAD363EVFPUWVPB97SBP","url":"https://gershmanlab.com/experiments/alicia/teaching/experiment/?hitId=34KYK9TV2RUAD363EVFPUWVPB97SBP&workerId=A2L5QFUJKKYE6G&assignmentId=3I33IC7ZWGOEBEI7545PXMU2ULGA2S&a=ZI3I7&tp_a=ZI3I7&b=3I33IC7ZWGOEBEI7545PXMU2ULGA2S&tp_b=3I33IC7ZWGOEBEI7545PXMU2ULGA2S&c=365717&tp_c=365717"},{"rt":null,"stimulus":"<div style=\"font-size:60px;\">Next student</div>","response":null,"trial_type":"html-keyboard-response","trial_index":24,"time_elapsed":707108,"internal_node_id":"0.0-20.0-0.0","params":{"nStudents":24,"maxFlips":30,"completionMinutes":45,"basePay":8,"maxBonus":9,"perTrialBonus":0.5,"perTrialBonusThreshold":0.05,"exampleCost":0.01},"classroomParams":{"A":{"a":1,"b":4},"B":{"a":4,"b":1},"C":{"a":2,"b":8},"D":{"a":8,"b":2}},"conditions":["nonSeqFull","nonSeqPartial","seqNoFeedback","seqFeedback"],"classroomPairings":[["A","B"],["C","D"]],"coinWeights":[0.2,0.5,0.8],"subjectId":"A2L5QFUJKKYE6G","assignmentId":"3I33IC7ZWGOEBEI7545PXMU2ULGA2S","hitId":"34KYK9TV2RUAD363EVFPUWVPB97SBP","url":"https://gershmanlab.com/experiments/alicia/teaching/experiment/?hitId=34KYK9TV2RUAD363EVFPUWVPB97SBP&workerId=A2L5QFUJKKYE6G&assignmentId=3I33IC7ZWGOEBEI7545PXMU2ULGA2S&a=ZI3I7&tp_a=ZI3I7&b=3I33IC7ZWGOEBEI7545PXMU2ULGA2S&tp_b=3I33IC7ZWGOEBEI7545PXMU2ULGA2S&c=365717&tp_c=365717"},{"rt":9351,"stimulus":"\n            <h4 style=\"color:Orange;\">Student 3</h4>\n            <h2>The weight of your coin is <b style=\"color:Tomato;\">0.5</b>.</h2>\n            <p>In this block, you will be giving <b>two</b> sets of examples to Student 3.</p>\n                <p>You will see the student's guess after the first set of examples. You will also receive feedback at the end of the block.</p>\n            <p>To earn the highest bonus, you will have to <b>take into consideration the student's guess</b> when you choose your second set of examples.</p>","response":0,"trial_type":"html-button-response","trial_index":25,"time_elapsed":716461,"internal_node_id":"0.0-21.0","params":{"nStudents":24,"maxFlips":30,"completionMinutes":45,"basePay":8,"maxBonus":9,"perTrialBonus":0.5,"perTrialBonusThreshold":0.05,"exampleCost":0.01},"classroomParams":{"A":{"a":1,"b":4},"B":{"a":4,"b":1},"C":{"a":2,"b":8},"D":{"a":8,"b":2}},"conditions":["nonSeqFull","nonSeqPartial","seqNoFeedback","seqFeedback"],"classroomPairings":[["A","B"],["C","D"]],"coinWeights":[0.2,0.5,0.8],"subjectId":"A2L5QFUJKKYE6G","assignmentId":"3I33IC7ZWGOEBEI7545PXMU2ULGA2S","hitId":"34KYK9TV2RUAD363EVFPUWVPB97SBP","url":"https://gershmanlab.com/experiments/alicia/teaching/experiment/?hitId=34KYK9TV2RUAD363EVFPUWVPB97SBP&workerId=A2L5QFUJKKYE6G&assignmentId=3I33IC7ZWGOEBEI7545PXMU2ULGA2S&a=ZI3I7&tp_a=ZI3I7&b=3I33IC7ZWGOEBEI7545PXMU2ULGA2S&tp_b=3I33IC7ZWGOEBEI7545PXMU2ULGA2S&c=365717&tp_c=365717"},{"rt":17073,"response":{"heads":"4","tails":"4"},"type":"response","condition":"seqFeedback","trueTheta":0.5,"classrooms":["C","D"],"studentTrueClassroom":"D","exampleSet":"first","trial_type":"survey-html-form","trial_index":26,"time_elapsed":733535,"internal_node_id":"0.0-22.0-0.0","params":{"nStudents":24,"maxFlips":30,"completionMinutes":45,"basePay":8,"maxBonus":9,"perTrialBonus":0.5,"perTrialBonusThreshold":0.05,"exampleCost":0.01},"classroomParams":{"A":{"a":1,"b":4},"B":{"a":4,"b":1},"C":{"a":2,"b":8},"D":{"a":8,"b":2}},"conditions":["nonSeqFull","nonSeqPartial","seqNoFeedback","seqFeedback"],"classroomPairings":[["A","B"],["C","D"]],"coinWeights":[0.2,0.5,0.8],"subjectId":"A2L5QFUJKKYE6G","assignmentId":"3I33IC7ZWGOEBEI7545PXMU2ULGA2S","hitId":"34KYK9TV2RUAD363EVFPUWVPB97SBP","url":"https://gershmanlab.com/experiments/alicia/teaching/experiment/?hitId=34KYK9TV2RUAD363EVFPUWVPB97SBP&workerId=A2L5QFUJKKYE6G&assignmentId=3I33IC7ZWGOEBEI7545PXMU2ULGA2S&a=ZI3I7&tp_a=ZI3I7&b=3I33IC7ZWGOEBEI7545PXMU2ULGA2S&tp_b=3I33IC7ZWGOEBEI7545PXMU2ULGA2S&c=365717&tp_c=365717","heads":4,"tails":4,"studentIndex":2,"studentTrueHypers":{"a":8,"b":2},"studentGuess":0.6666666666666666,"delta":0.16666666666666663,"totalExamples":8,"bonusSoFar":0},{"rt":null,"stimulus":"Sending examples to student... ","response":null,"trial_type":"html-keyboard-response","trial_index":27,"time_elapsed":734805,"internal_node_id":"0.0-23.0","params":{"nStudents":24,"maxFlips":30,"completionMinutes":45,"basePay":8,"maxBonus":9,"perTrialBonus":0.5,"perTrialBonusThreshold":0.05,"exampleCost":0.01},"classroomParams":{"A":{"a":1,"b":4},"B":{"a":4,"b":1},"C":{"a":2,"b":8},"D":{"a":8,"b":2}},"conditions":["nonSeqFull","nonSeqPartial","seqNoFeedback","seqFeedback"],"classroomPairings":[["A","B"],["C","D"]],"coinWeights":[0.2,0.5,0.8],"subjectId":"A2L5QFUJKKYE6G","assignmentId":"3I33IC7ZWGOEBEI7545PXMU2ULGA2S","hitId":"34KYK9TV2RUAD363EVFPUWVPB97SBP","url":"https://gershmanlab.com/experiments/alicia/teaching/experiment/?hitId=34KYK9TV2RUAD363EVFPUWVPB97SBP&workerId=A2L5QFUJKKYE6G&assignmentId=3I33IC7ZWGOEBEI7545PXMU2ULGA2S&a=ZI3I7&tp_a=ZI3I7&b=3I33IC7ZWGOEBEI7545PXMU2ULGA2S&tp_b=3I33IC7ZWGOEBEI7545PXMU2ULGA2S&c=365717&tp_c=365717"},{"rt":null,"stimulus":"Examples sent to student! Waiting for student...","response":null,"trial_type":"html-keyboard-response","trial_index":28,"time_elapsed":739820,"internal_node_id":"0.0-24.0","params":{"nStudents":24,"maxFlips":30,"completionMinutes":45,"basePay":8,"maxBonus":9,"perTrialBonus":0.5,"perTrialBonusThreshold":0.05,"exampleCost":0.01},"classroomParams":{"A":{"a":1,"b":4},"B":{"a":4,"b":1},"C":{"a":2,"b":8},"D":{"a":8,"b":2}},"conditions":["nonSeqFull","nonSeqPartial","seqNoFeedback","seqFeedback"],"classroomPairings":[["A","B"],["C","D"]],"coinWeights":[0.2,0.5,0.8],"subjectId":"A2L5QFUJKKYE6G","assignmentId":"3I33IC7ZWGOEBEI7545PXMU2ULGA2S","hitId":"34KYK9TV2RUAD363EVFPUWVPB97SBP","url":"https://gershmanlab.com/experiments/alicia/teaching/experiment/?hitId=34KYK9TV2RUAD363EVFPUWVPB97SBP&workerId=A2L5QFUJKKYE6G&assignmentId=3I33IC7ZWGOEBEI7545PXMU2ULGA2S&a=ZI3I7&tp_a=ZI3I7&b=3I33IC7ZWGOEBEI7545PXMU2ULGA2S&tp_b=3I33IC7ZWGOEBEI7545PXMU2ULGA2S&c=365717&tp_c=365717"},{"rt":10359,"stimulus":"\n                <p>Student's guess for coin weight: <b style=\"color:Tomato;\">0.67</b></p>\n                <p></b></p>\n                <p>You will now send another set of examples to your student. <b>Remember to take your student's guess into consideration so that you can earn the highest bonus possible!</b> </p>\n                <p>Press any key to continue.</p>\n                ","response":" ","trial_type":"html-keyboard-response","trial_index":29,"time_elapsed":750180,"internal_node_id":"0.0-25.0","params":{"nStudents":24,"maxFlips":30,"completionMinutes":45,"basePay":8,"maxBonus":9,"perTrialBonus":0.5,"perTrialBonusThreshold":0.05,"exampleCost":0.01},"classroomParams":{"A":{"a":1,"b":4},"B":{"a":4,"b":1},"C":{"a":2,"b":8},"D":{"a":8,"b":2}},"conditions":["nonSeqFull","nonSeqPartial","seqNoFeedback","seqFeedback"],"classroomPairings":[["A","B"],["C","D"]],"coinWeights":[0.2,0.5,0.8],"subjectId":"A2L5QFUJKKYE6G","assignmentId":"3I33IC7ZWGOEBEI7545PXMU2ULGA2S","hitId":"34KYK9TV2RUAD363EVFPUWVPB97SBP","url":"https://gershmanlab.com/experiments/alicia/teaching/experiment/?hitId=34KYK9TV2RUAD363EVFPUWVPB97SBP&workerId=A2L5QFUJKKYE6G&assignmentId=3I33IC7ZWGOEBEI7545PXMU2ULGA2S&a=ZI3I7&tp_a=ZI3I7&b=3I33IC7ZWGOEBEI7545PXMU2ULGA2S&tp_b=3I33IC7ZWGOEBEI7545PXMU2ULGA2S&c=365717&tp_c=365717"},{"rt":13840,"response":{"heads":"8","tails":"8"},"type":"response","condition":"seqFeedback","trueTheta":0.5,"classrooms":["C","D"],"studentTrueClassroom":"D","exampleSet":"second","trial_type":"survey-html-form","trial_index":30,"time_elapsed":764022,"internal_node_id":"0.0-26.0-0.0","params":{"nStudents":24,"maxFlips":30,"completionMinutes":45,"basePay":8,"maxBonus":9,"perTrialBonus":0.5,"perTrialBonusThreshold":0.05,"exampleCost":0.01},"classroomParams":{"A":{"a":1,"b":4},"B":{"a":4,"b":1},"C":{"a":2,"b":8},"D":{"a":8,"b":2}},"conditions":["nonSeqFull","nonSeqPartial","seqNoFeedback","seqFeedback"],"classroomPairings":[["A","B"],["C","D"]],"coinWeights":[0.2,0.5,0.8],"subjectId":"A2L5QFUJKKYE6G","assignmentId":"3I33IC7ZWGOEBEI7545PXMU2ULGA2S","hitId":"34KYK9TV2RUAD363EVFPUWVPB97SBP","url":"https://gershmanlab.com/experiments/alicia/teaching/experiment/?hitId=34KYK9TV2RUAD363EVFPUWVPB97SBP&workerId=A2L5QFUJKKYE6G&assignmentId=3I33IC7ZWGOEBEI7545PXMU2ULGA2S&a=ZI3I7&tp_a=ZI3I7&b=3I33IC7ZWGOEBEI7545PXMU2ULGA2S&tp_b=3I33IC7ZWGOEBEI7545PXMU2ULGA2S&c=365717&tp_c=365717","firstResponseHeads":4,"firstResponseTails":4,"secondResponseHeads":8,"secondResponseTails":8,"totalHeads":12,"totalTails":12,"studentIndex":2,"studentTrueHypers":{"a":8,"b":2},"studentGuess":0.5882352941176471,"delta":0.08823529411764708,"bonus":0,"bonusSoFar":0,"totalExamples":24},{"rt":null,"stimulus":"Sending examples to student... ","response":null,"trial_type":"html-keyboard-response","trial_index":31,"time_elapsed":765529,"internal_node_id":"0.0-27.0","params":{"nStudents":24,"maxFlips":30,"completionMinutes":45,"basePay":8,"maxBonus":9,"perTrialBonus":0.5,"perTrialBonusThreshold":0.05,"exampleCost":0.01},"classroomParams":{"A":{"a":1,"b":4},"B":{"a":4,"b":1},"C":{"a":2,"b":8},"D":{"a":8,"b":2}},"conditions":["nonSeqFull","nonSeqPartial","seqNoFeedback","seqFeedback"],"classroomPairings":[["A","B"],["C","D"]],"coinWeights":[0.2,0.5,0.8],"subjectId":"A2L5QFUJKKYE6G","assignmentId":"3I33IC7ZWGOEBEI7545PXMU2ULGA2S","hitId":"34KYK9TV2RUAD363EVFPUWVPB97SBP","url":"https://gershmanlab.com/experiments/alicia/teaching/experiment/?hitId=34KYK9TV2RUAD363EVFPUWVPB97SBP&workerId=A2L5QFUJKKYE6G&assignmentId=3I33IC7ZWGOEBEI7545PXMU2ULGA2S&a=ZI3I7&tp_a=ZI3I7&b=3I33IC7ZWGOEBEI7545PXMU2ULGA2S&tp_b=3I33IC7ZWGOEBEI7545PXMU2ULGA2S&c=365717&tp_c=365717"},{"rt":null,"stimulus":"Examples sent to student! Waiting for student...","response":null,"trial_type":"html-keyboard-response","trial_index":32,"time_elapsed":769547,"internal_node_id":"0.0-28.0","params":{"nStudents":24,"maxFlips":30,"completionMinutes":45,"basePay":8,"maxBonus":9,"perTrialBonus":0.5,"perTrialBonusThreshold":0.05,"exampleCost":0.01},"classroomParams":{"A":{"a":1,"b":4},"B":{"a":4,"b":1},"C":{"a":2,"b":8},"D":{"a":8,"b":2}},"conditions":["nonSeqFull","nonSeqPartial","seqNoFeedback","seqFeedback"],"classroomPairings":[["A","B"],["C","D"]],"coinWeights":[0.2,0.5,0.8],"subjectId":"A2L5QFUJKKYE6G","assignmentId":"3I33IC7ZWGOEBEI7545PXMU2ULGA2S","hitId":"34KYK9TV2RUAD363EVFPUWVPB97SBP","url":"https://gershmanlab.com/experiments/alicia/teaching/experiment/?hitId=34KYK9TV2RUAD363EVFPUWVPB97SBP&workerId=A2L5QFUJKKYE6G&assignmentId=3I33IC7ZWGOEBEI7545PXMU2ULGA2S&a=ZI3I7&tp_a=ZI3I7&b=3I33IC7ZWGOEBEI7545PXMU2ULGA2S&tp_b=3I33IC7ZWGOEBEI7545PXMU2ULGA2S&c=365717&tp_c=365717"},{"rt":6616,"stimulus":"\n                <p>Student 3's first guess for coin weight: <b style=\"color:Tomato\";>0.67</b></p>\n                <p>Student 3's second guess for coin weight: <b style=\"color:Tomato\";>0.59</b></p>\n                <p>You received a bonus of <b>$0.00</b> based on the student's second guess.</p>\n                <p>Total bonus so far: <b>$0.00</b></p>\n                <p>Press any key to continue.</p>\n                ","response":" ","trial_type":"html-keyboard-response","trial_index":33,"time_elapsed":776164,"internal_node_id":"0.0-29.0","params":{"nStudents":24,"maxFlips":30,"completionMinutes":45,"basePay":8,"maxBonus":9,"perTrialBonus":0.5,"perTrialBonusThreshold":0.05,"exampleCost":0.01},"classroomParams":{"A":{"a":1,"b":4},"B":{"a":4,"b":1},"C":{"a":2,"b":8},"D":{"a":8,"b":2}},"conditions":["nonSeqFull","nonSeqPartial","seqNoFeedback","seqFeedback"],"classroomPairings":[["A","B"],["C","D"]],"coinWeights":[0.2,0.5,0.8],"subjectId":"A2L5QFUJKKYE6G","assignmentId":"3I33IC7ZWGOEBEI7545PXMU2ULGA2S","hitId":"34KYK9TV2RUAD363EVFPUWVPB97SBP","url":"https://gershmanlab.com/experiments/alicia/teaching/experiment/?hitId=34KYK9TV2RUAD363EVFPUWVPB97SBP&workerId=A2L5QFUJKKYE6G&assignmentId=3I33IC7ZWGOEBEI7545PXMU2ULGA2S&a=ZI3I7&tp_a=ZI3I7&b=3I33IC7ZWGOEBEI7545PXMU2ULGA2S&tp_b=3I33IC7ZWGOEBEI7545PXMU2ULGA2S&c=365717&tp_c=365717"},{"rt":null,"stimulus":"<div style=\"font-size:60px;\">Next student</div>","response":null,"trial_type":"html-keyboard-response","trial_index":34,"time_elapsed":778424,"internal_node_id":"0.0-30.0-0.0","params":{"nStudents":24,"maxFlips":30,"completionMinutes":45,"basePay":8,"maxBonus":9,"perTrialBonus":0.5,"perTrialBonusThreshold":0.05,"exampleCost":0.01},"classroomParams":{"A":{"a":1,"b":4},"B":{"a":4,"b":1},"C":{"a":2,"b":8},"D":{"a":8,"b":2}},"conditions":["nonSeqFull","nonSeqPartial","seqNoFeedback","seqFeedback"],"classroomPairings":[["A","B"],["C","D"]],"coinWeights":[0.2,0.5,0.8],"subjectId":"A2L5QFUJKKYE6G","assignmentId":"3I33IC7ZWGOEBEI7545PXMU2ULGA2S","hitId":"34KYK9TV2RUAD363EVFPUWVPB97SBP","url":"https://gershmanlab.com/experiments/alicia/teaching/experiment/?hitId=34KYK9TV2RUAD363EVFPUWVPB97SBP&workerId=A2L5QFUJKKYE6G&assignmentId=3I33IC7ZWGOEBEI7545PXMU2ULGA2S&a=ZI3I7&tp_a=ZI3I7&b=3I33IC7ZWGOEBEI7545PXMU2ULGA2S&tp_b=3I33IC7ZWGOEBEI7545PXMU2ULGA2S&c=365717&tp_c=365717"},{"rt":3290,"stimulus":"\n            <h4 style=\"color:Orange;\">Student 4</h4>\n            <h2>The weight of your coin is <b style=\"color:Tomato;\">0.8</b>.</h2>\n            <p>In this block, you will be giving <b>two</b> sets of examples to Student 4.</p>\n                <p>You will receive feedback at the end of the block.</p>\n            <p></p>","response":0,"trial_type":"html-button-response","trial_index":35,"time_elapsed":781716,"internal_node_id":"0.0-31.0","params":{"nStudents":24,"maxFlips":30,"completionMinutes":45,"basePay":8,"maxBonus":9,"perTrialBonus":0.5,"perTrialBonusThreshold":0.05,"exampleCost":0.01},"classroomParams":{"A":{"a":1,"b":4},"B":{"a":4,"b":1},"C":{"a":2,"b":8},"D":{"a":8,"b":2}},"conditions":["nonSeqFull","nonSeqPartial","seqNoFeedback","seqFeedback"],"classroomPairings":[["A","B"],["C","D"]],"coinWeights":[0.2,0.5,0.8],"subjectId":"A2L5QFUJKKYE6G","assignmentId":"3I33IC7ZWGOEBEI7545PXMU2ULGA2S","hitId":"34KYK9TV2RUAD363EVFPUWVPB97SBP","url":"https://gershmanlab.com/experiments/alicia/teaching/experiment/?hitId=34KYK9TV2RUAD363EVFPUWVPB97SBP&workerId=A2L5QFUJKKYE6G&assignmentId=3I33IC7ZWGOEBEI7545PXMU2ULGA2S&a=ZI3I7&tp_a=ZI3I7&b=3I33IC7ZWGOEBEI7545PXMU2ULGA2S&tp_b=3I33IC7ZWGOEBEI7545PXMU2ULGA2S&c=365717&tp_c=365717"},{"rt":36052,"response":{"heads":"4","tails":"12"},"type":"response","condition":"seqNoFeedback","trueTheta":0.8,"classrooms":["C","D"],"studentTrueClassroom":"D","exampleSet":"first","trial_type":"survey-html-form","trial_index":36,"time_elapsed":817771,"internal_node_id":"0.0-32.0-0.0","params":{"nStudents":24,"maxFlips":30,"completionMinutes":45,"basePay":8,"maxBonus":9,"perTrialBonus":0.5,"perTrialBonusThreshold":0.05,"exampleCost":0.01},"classroomParams":{"A":{"a":1,"b":4},"B":{"a":4,"b":1},"C":{"a":2,"b":8},"D":{"a":8,"b":2}},"conditions":["nonSeqFull","nonSeqPartial","seqNoFeedback","seqFeedback"],"classroomPairings":[["A","B"],["C","D"]],"coinWeights":[0.2,0.5,0.8],"subjectId":"A2L5QFUJKKYE6G","assignmentId":"3I33IC7ZWGOEBEI7545PXMU2ULGA2S","hitId":"34KYK9TV2RUAD363EVFPUWVPB97SBP","url":"https://gershmanlab.com/experiments/alicia/teaching/experiment/?hitId=34KYK9TV2RUAD363EVFPUWVPB97SBP&workerId=A2L5QFUJKKYE6G&assignmentId=3I33IC7ZWGOEBEI7545PXMU2ULGA2S&a=ZI3I7&tp_a=ZI3I7&b=3I33IC7ZWGOEBEI7545PXMU2ULGA2S&tp_b=3I33IC7ZWGOEBEI7545PXMU2ULGA2S&c=365717&tp_c=365717","heads":4,"tails":12,"studentIndex":3,"studentTrueHypers":{"a":8,"b":2},"studentGuess":0.46153846153846156,"delta":0.3384615384615385,"totalExamples":16,"bonusSoFar":0},{"rt":null,"stimulus":"Sending examples to student... ","response":null,"trial_type":"html-keyboard-response","trial_index":37,"time_elapsed":819781,"internal_node_id":"0.0-33.0","params":{"nStudents":24,"maxFlips":30,"completionMinutes":45,"basePay":8,"maxBonus":9,"perTrialBonus":0.5,"perTrialBonusThreshold":0.05,"exampleCost":0.01},"classroomParams":{"A":{"a":1,"b":4},"B":{"a":4,"b":1},"C":{"a":2,"b":8},"D":{"a":8,"b":2}},"conditions":["nonSeqFull","nonSeqPartial","seqNoFeedback","seqFeedback"],"classroomPairings":[["A","B"],["C","D"]],"coinWeights":[0.2,0.5,0.8],"subjectId":"A2L5QFUJKKYE6G","assignmentId":"3I33IC7ZWGOEBEI7545PXMU2ULGA2S","hitId":"34KYK9TV2RUAD363EVFPUWVPB97SBP","url":"https://gershmanlab.com/experiments/alicia/teaching/experiment/?hitId=34KYK9TV2RUAD363EVFPUWVPB97SBP&workerId=A2L5QFUJKKYE6G&assignmentId=3I33IC7ZWGOEBEI7545PXMU2ULGA2S&a=ZI3I7&tp_a=ZI3I7&b=3I33IC7ZWGOEBEI7545PXMU2ULGA2S&tp_b=3I33IC7ZWGOEBEI7545PXMU2ULGA2S&c=365717&tp_c=365717"},{"rt":null,"stimulus":"Examples sent to student! Waiting for student...","response":null,"trial_type":"html-keyboard-response","trial_index":38,"time_elapsed":824799,"internal_node_id":"0.0-34.0","params":{"nStudents":24,"maxFlips":30,"completionMinutes":45,"basePay":8,"maxBonus":9,"perTrialBonus":0.5,"perTrialBonusThreshold":0.05,"exampleCost":0.01},"classroomParams":{"A":{"a":1,"b":4},"B":{"a":4,"b":1},"C":{"a":2,"b":8},"D":{"a":8,"b":2}},"conditions":["nonSeqFull","nonSeqPartial","seqNoFeedback","seqFeedback"],"classroomPairings":[["A","B"],["C","D"]],"coinWeights":[0.2,0.5,0.8],"subjectId":"A2L5QFUJKKYE6G","assignmentId":"3I33IC7ZWGOEBEI7545PXMU2ULGA2S","hitId":"34KYK9TV2RUAD363EVFPUWVPB97SBP","url":"https://gershmanlab.com/experiments/alicia/teaching/experiment/?hitId=34KYK9TV2RUAD363EVFPUWVPB97SBP&workerId=A2L5QFUJKKYE6G&assignmentId=3I33IC7ZWGOEBEI7545PXMU2ULGA2S&a=ZI3I7&tp_a=ZI3I7&b=3I33IC7ZWGOEBEI7545PXMU2ULGA2S&tp_b=3I33IC7ZWGOEBEI7545PXMU2ULGA2S&c=365717&tp_c=365717"},{"rt":24715,"response":{"heads":"12","tails":"4"},"type":"response","condition":"seqNoFeedback","trueTheta":0.8,"classrooms":["C","D"],"studentTrueClassroom":"D","exampleSet":"second","trial_type":"survey-html-form","trial_index":39,"time_elapsed":849516,"internal_node_id":"0.0-35.0-0.0","params":{"nStudents":24,"maxFlips":30,"completionMinutes":45,"basePay":8,"maxBonus":9,"perTrialBonus":0.5,"perTrialBonusThreshold":0.05,"exampleCost":0.01},"classroomParams":{"A":{"a":1,"b":4},"B":{"a":4,"b":1},"C":{"a":2,"b":8},"D":{"a":8,"b":2}},"conditions":["nonSeqFull","nonSeqPartial","seqNoFeedback","seqFeedback"],"classroomPairings":[["A","B"],["C","D"]],"coinWeights":[0.2,0.5,0.8],"subjectId":"A2L5QFUJKKYE6G","assignmentId":"3I33IC7ZWGOEBEI7545PXMU2ULGA2S","hitId":"34KYK9TV2RUAD363EVFPUWVPB97SBP","url":"https://gershmanlab.com/experiments/alicia/teaching/experiment/?hitId=34KYK9TV2RUAD363EVFPUWVPB97SBP&workerId=A2L5QFUJKKYE6G&assignmentId=3I33IC7ZWGOEBEI7545PXMU2ULGA2S&a=ZI3I7&tp_a=ZI3I7&b=3I33IC7ZWGOEBEI7545PXMU2ULGA2S&tp_b=3I33IC7ZWGOEBEI7545PXMU2ULGA2S&c=365717&tp_c=365717","firstResponseHeads":4,"firstResponseTails":12,"secondResponseHeads":12,"secondResponseTails":4,"totalHeads":16,"totalTails":16,"studentIndex":3,"studentTrueHypers":{"a":8,"b":2},"studentGuess":0.5714285714285714,"delta":0.22857142857142865,"bonus":0,"bonusSoFar":0,"totalExamples":32},{"rt":null,"stimulus":"Sending examples to student... ","response":null,"trial_type":"html-keyboard-response","trial_index":40,"time_elapsed":851020,"internal_node_id":"0.0-36.0","params":{"nStudents":24,"maxFlips":30,"completionMinutes":45,"basePay":8,"maxBonus":9,"perTrialBonus":0.5,"perTrialBonusThreshold":0.05,"exampleCost":0.01},"classroomParams":{"A":{"a":1,"b":4},"B":{"a":4,"b":1},"C":{"a":2,"b":8},"D":{"a":8,"b":2}},"conditions":["nonSeqFull","nonSeqPartial","seqNoFeedback","seqFeedback"],"classroomPairings":[["A","B"],["C","D"]],"coinWeights":[0.2,0.5,0.8],"subjectId":"A2L5QFUJKKYE6G","assignmentId":"3I33IC7ZWGOEBEI7545PXMU2ULGA2S","hitId":"34KYK9TV2RUAD363EVFPUWVPB97SBP","url":"https://gershmanlab.com/experiments/alicia/teaching/experiment/?hitId=34KYK9TV2RUAD363EVFPUWVPB97SBP&workerId=A2L5QFUJKKYE6G&assignmentId=3I33IC7ZWGOEBEI7545PXMU2ULGA2S&a=ZI3I7&tp_a=ZI3I7&b=3I33IC7ZWGOEBEI7545PXMU2ULGA2S&tp_b=3I33IC7ZWGOEBEI7545PXMU2ULGA2S&c=365717&tp_c=365717"},{"rt":null,"stimulus":"Examples sent to student! Waiting for student...","response":null,"trial_type":"html-keyboard-response","trial_index":41,"time_elapsed":855023,"internal_node_id":"0.0-37.0","params":{"nStudents":24,"maxFlips":30,"completionMinutes":45,"basePay":8,"maxBonus":9,"perTrialBonus":0.5,"perTrialBonusThreshold":0.05,"exampleCost":0.01},"classroomParams":{"A":{"a":1,"b":4},"B":{"a":4,"b":1},"C":{"a":2,"b":8},"D":{"a":8,"b":2}},"conditions":["nonSeqFull","nonSeqPartial","seqNoFeedback","seqFeedback"],"classroomPairings":[["A","B"],["C","D"]],"coinWeights":[0.2,0.5,0.8],"subjectId":"A2L5QFUJKKYE6G","assignmentId":"3I33IC7ZWGOEBEI7545PXMU2ULGA2S","hitId":"34KYK9TV2RUAD363EVFPUWVPB97SBP","url":"https://gershmanlab.com/experiments/alicia/teaching/experiment/?hitId=34KYK9TV2RUAD363EVFPUWVPB97SBP&workerId=A2L5QFUJKKYE6G&assignmentId=3I33IC7ZWGOEBEI7545PXMU2ULGA2S&a=ZI3I7&tp_a=ZI3I7&b=3I33IC7ZWGOEBEI7545PXMU2ULGA2S&tp_b=3I33IC7ZWGOEBEI7545PXMU2ULGA2S&c=365717&tp_c=365717"},{"rt":10381,"stimulus":"\n                <p>Student 4's first guess for coin weight: <b style=\"color:Tomato\";>0.46</b></p>\n                <p>Student 4's second guess for coin weight: <b style=\"color:Tomato\";>0.57</b></p>\n                <p>You received a bonus of <b>$0.00</b> based on the student's second guess.</p>\n                <p>Total bonus so far: <b>$0.00</b></p>\n                <p>Press any key to continue.</p>\n                ","response":" ","trial_type":"html-keyboard-response","trial_index":42,"time_elapsed":865406,"internal_node_id":"0.0-38.0","params":{"nStudents":24,"maxFlips":30,"completionMinutes":45,"basePay":8,"maxBonus":9,"perTrialBonus":0.5,"perTrialBonusThreshold":0.05,"exampleCost":0.01},"classroomParams":{"A":{"a":1,"b":4},"B":{"a":4,"b":1},"C":{"a":2,"b":8},"D":{"a":8,"b":2}},"conditions":["nonSeqFull","nonSeqPartial","seqNoFeedback","seqFeedback"],"classroomPairings":[["A","B"],["C","D"]],"coinWeights":[0.2,0.5,0.8],"subjectId":"A2L5QFUJKKYE6G","assignmentId":"3I33IC7ZWGOEBEI7545PXMU2ULGA2S","hitId":"34KYK9TV2RUAD363EVFPUWVPB97SBP","url":"https://gershmanlab.com/experiments/alicia/teaching/experiment/?hitId=34KYK9TV2RUAD363EVFPUWVPB97SBP&workerId=A2L5QFUJKKYE6G&assignmentId=3I33IC7ZWGOEBEI7545PXMU2ULGA2S&a=ZI3I7&tp_a=ZI3I7&b=3I33IC7ZWGOEBEI7545PXMU2ULGA2S&tp_b=3I33IC7ZWGOEBEI7545PXMU2ULGA2S&c=365717&tp_c=365717"},{"rt":null,"stimulus":"<div style=\"font-size:60px;\">Next student</div>","response":null,"trial_type":"html-keyboard-response","trial_index":43,"time_elapsed":867659,"internal_node_id":"0.0-39.0-0.0","params":{"nStudents":24,"maxFlips":30,"completionMinutes":45,"basePay":8,"maxBonus":9,"perTrialBonus":0.5,"perTrialBonusThreshold":0.05,"exampleCost":0.01},"classroomParams":{"A":{"a":1,"b":4},"B":{"a":4,"b":1},"C":{"a":2,"b":8},"D":{"a":8,"b":2}},"conditions":["nonSeqFull","nonSeqPartial","seqNoFeedback","seqFeedback"],"classroomPairings":[["A","B"],["C","D"]],"coinWeights":[0.2,0.5,0.8],"subjectId":"A2L5QFUJKKYE6G","assignmentId":"3I33IC7ZWGOEBEI7545PXMU2ULGA2S","hitId":"34KYK9TV2RUAD363EVFPUWVPB97SBP","url":"https://gershmanlab.com/experiments/alicia/teaching/experiment/?hitId=34KYK9TV2RUAD363EVFPUWVPB97SBP&workerId=A2L5QFUJKKYE6G&assignmentId=3I33IC7ZWGOEBEI7545PXMU2ULGA2S&a=ZI3I7&tp_a=ZI3I7&b=3I33IC7ZWGOEBEI7545PXMU2ULGA2S&tp_b=3I33IC7ZWGOEBEI7545PXMU2ULGA2S&c=365717&tp_c=365717"},{"rt":6017,"stimulus":"\n            <h4 style=\"color:Orange;\">Student 5</h4>\n            <h2>The weight of your coin is <b style=\"color:Tomato;\">0.5</b>.</h2>\n            <p>In this block, you will be giving <b>two</b> sets of examples to Student 5.</p>\n                <p>You will receive feedback at the end of the block.</p>\n            <p></p>","response":0,"trial_type":"html-button-response","trial_index":44,"time_elapsed":873678,"internal_node_id":"0.0-40.0","params":{"nStudents":24,"maxFlips":30,"completionMinutes":45,"basePay":8,"maxBonus":9,"perTrialBonus":0.5,"perTrialBonusThreshold":0.05,"exampleCost":0.01},"classroomParams":{"A":{"a":1,"b":4},"B":{"a":4,"b":1},"C":{"a":2,"b":8},"D":{"a":8,"b":2}},"conditions":["nonSeqFull","nonSeqPartial","seqNoFeedback","seqFeedback"],"classroomPairings":[["A","B"],["C","D"]],"coinWeights":[0.2,0.5,0.8],"subjectId":"A2L5QFUJKKYE6G","assignmentId":"3I33IC7ZWGOEBEI7545PXMU2ULGA2S","hitId":"34KYK9TV2RUAD363EVFPUWVPB97SBP","url":"https://gershmanlab.com/experiments/alicia/teaching/experiment/?hitId=34KYK9TV2RUAD363EVFPUWVPB97SBP&workerId=A2L5QFUJKKYE6G&assignmentId=3I33IC7ZWGOEBEI7545PXMU2ULGA2S&a=ZI3I7&tp_a=ZI3I7&b=3I33IC7ZWGOEBEI7545PXMU2ULGA2S&tp_b=3I33IC7ZWGOEBEI7545PXMU2ULGA2S&c=365717&tp_c=365717"},{"rt":15564,"response":{"heads":"10","tails":"5"},"type":"response","condition":"seqNoFeedback","trueTheta":0.5,"classrooms":["A","B"],"studentTrueClassroom":"A","exampleSet":"first","trial_type":"survey-html-form","trial_index":45,"time_elapsed":889243,"internal_node_id":"0.0-41.0-0.0","params":{"nStudents":24,"maxFlips":30,"completionMinutes":45,"basePay":8,"maxBonus":9,"perTrialBonus":0.5,"perTrialBonusThreshold":0.05,"exampleCost":0.01},"classroomParams":{"A":{"a":1,"b":4},"B":{"a":4,"b":1},"C":{"a":2,"b":8},"D":{"a":8,"b":2}},"conditions":["nonSeqFull","nonSeqPartial","seqNoFeedback","seqFeedback"],"classroomPairings":[["A","B"],["C","D"]],"coinWeights":[0.2,0.5,0.8],"subjectId":"A2L5QFUJKKYE6G","assignmentId":"3I33IC7ZWGOEBEI7545PXMU2ULGA2S","hitId":"34KYK9TV2RUAD363EVFPUWVPB97SBP","url":"https://gershmanlab.com/experiments/alicia/teaching/experiment/?hitId=34KYK9TV2RUAD363EVFPUWVPB97SBP&workerId=A2L5QFUJKKYE6G&assignmentId=3I33IC7ZWGOEBEI7545PXMU2ULGA2S&a=ZI3I7&tp_a=ZI3I7&b=3I33IC7ZWGOEBEI7545PXMU2ULGA2S&tp_b=3I33IC7ZWGOEBEI7545PXMU2ULGA2S&c=365717&tp_c=365717","heads":10,"tails":5,"studentIndex":4,"studentTrueHypers":{"a":1,"b":4},"studentGuess":0.55,"delta":0.050000000000000044,"totalExamples":15,"bonusSoFar":0},{"rt":null,"stimulus":"Sending examples to student... ","response":null,"trial_type":"html-keyboard-response","trial_index":46,"time_elapsed":891014,"internal_node_id":"0.0-42.0","params":{"nStudents":24,"maxFlips":30,"completionMinutes":45,"basePay":8,"maxBonus":9,"perTrialBonus":0.5,"perTrialBonusThreshold":0.05,"exampleCost":0.01},"classroomParams":{"A":{"a":1,"b":4},"B":{"a":4,"b":1},"C":{"a":2,"b":8},"D":{"a":8,"b":2}},"conditions":["nonSeqFull","nonSeqPartial","seqNoFeedback","seqFeedback"],"classroomPairings":[["A","B"],["C","D"]],"coinWeights":[0.2,0.5,0.8],"subjectId":"A2L5QFUJKKYE6G","assignmentId":"3I33IC7ZWGOEBEI7545PXMU2ULGA2S","hitId":"34KYK9TV2RUAD363EVFPUWVPB97SBP","url":"https://gershmanlab.com/experiments/alicia/teaching/experiment/?hitId=34KYK9TV2RUAD363EVFPUWVPB97SBP&workerId=A2L5QFUJKKYE6G&assignmentId=3I33IC7ZWGOEBEI7545PXMU2ULGA2S&a=ZI3I7&tp_a=ZI3I7&b=3I33IC7ZWGOEBEI7545PXMU2ULGA2S&tp_b=3I33IC7ZWGOEBEI7545PXMU2ULGA2S&c=365717&tp_c=365717"},{"rt":null,"stimulus":"Examples sent to student! Waiting for student...","response":null,"trial_type":"html-keyboard-response","trial_index":47,"time_elapsed":895031,"internal_node_id":"0.0-43.0","params":{"nStudents":24,"maxFlips":30,"completionMinutes":45,"basePay":8,"maxBonus":9,"perTrialBonus":0.5,"perTrialBonusThreshold":0.05,"exampleCost":0.01},"classroomParams":{"A":{"a":1,"b":4},"B":{"a":4,"b":1},"C":{"a":2,"b":8},"D":{"a":8,"b":2}},"conditions":["nonSeqFull","nonSeqPartial","seqNoFeedback","seqFeedback"],"classroomPairings":[["A","B"],["C","D"]],"coinWeights":[0.2,0.5,0.8],"subjectId":"A2L5QFUJKKYE6G","assignmentId":"3I33IC7ZWGOEBEI7545PXMU2ULGA2S","hitId":"34KYK9TV2RUAD363EVFPUWVPB97SBP","url":"https://gershmanlab.com/experiments/alicia/teaching/experiment/?hitId=34KYK9TV2RUAD363EVFPUWVPB97SBP&workerId=A2L5QFUJKKYE6G&assignmentId=3I33IC7ZWGOEBEI7545PXMU2ULGA2S&a=ZI3I7&tp_a=ZI3I7&b=3I33IC7ZWGOEBEI7545PXMU2ULGA2S&tp_b=3I33IC7ZWGOEBEI7545PXMU2ULGA2S&c=365717&tp_c=365717"},{"rt":15464,"response":{"heads":"10","tails":"5"},"type":"response","condition":"seqNoFeedback","trueTheta":0.5,"classrooms":["A","B"],"studentTrueClassroom":"A","exampleSet":"second","trial_type":"survey-html-form","trial_index":48,"time_elapsed":910495,"internal_node_id":"0.0-44.0-0.0","params":{"nStudents":24,"maxFlips":30,"completionMinutes":45,"basePay":8,"maxBonus":9,"perTrialBonus":0.5,"perTrialBonusThreshold":0.05,"exampleCost":0.01},"classroomParams":{"A":{"a":1,"b":4},"B":{"a":4,"b":1},"C":{"a":2,"b":8},"D":{"a":8,"b":2}},"conditions":["nonSeqFull","nonSeqPartial","seqNoFeedback","seqFeedback"],"classroomPairings":[["A","B"],["C","D"]],"coinWeights":[0.2,0.5,0.8],"subjectId":"A2L5QFUJKKYE6G","assignmentId":"3I33IC7ZWGOEBEI7545PXMU2ULGA2S","hitId":"34KYK9TV2RUAD363EVFPUWVPB97SBP","url":"https://gershmanlab.com/experiments/alicia/teaching/experiment/?hitId=34KYK9TV2RUAD363EVFPUWVPB97SBP&workerId=A2L5QFUJKKYE6G&assignmentId=3I33IC7ZWGOEBEI7545PXMU2ULGA2S&a=ZI3I7&tp_a=ZI3I7&b=3I33IC7ZWGOEBEI7545PXMU2ULGA2S&tp_b=3I33IC7ZWGOEBEI7545PXMU2ULGA2S&c=365717&tp_c=365717","firstResponseHeads":10,"firstResponseTails":5,"secondResponseHeads":10,"secondResponseTails":5,"totalHeads":20,"totalTails":10,"studentIndex":4,"studentTrueHypers":{"a":1,"b":4},"studentGuess":0.6,"delta":0.09999999999999998,"bonus":0,"bonusSoFar":0,"totalExamples":30},{"rt":null,"stimulus":"Sending examples to student... ","response":null,"trial_type":"html-keyboard-response","trial_index":49,"time_elapsed":911756,"internal_node_id":"0.0-45.0","params":{"nStudents":24,"maxFlips":30,"completionMinutes":45,"basePay":8,"maxBonus":9,"perTrialBonus":0.5,"perTrialBonusThreshold":0.05,"exampleCost":0.01},"classroomParams":{"A":{"a":1,"b":4},"B":{"a":4,"b":1},"C":{"a":2,"b":8},"D":{"a":8,"b":2}},"conditions":["nonSeqFull","nonSeqPartial","seqNoFeedback","seqFeedback"],"classroomPairings":[["A","B"],["C","D"]],"coinWeights":[0.2,0.5,0.8],"subjectId":"A2L5QFUJKKYE6G","assignmentId":"3I33IC7ZWGOEBEI7545PXMU2ULGA2S","hitId":"34KYK9TV2RUAD363EVFPUWVPB97SBP","url":"https://gershmanlab.com/experiments/alicia/teaching/experiment/?hitId=34KYK9TV2RUAD363EVFPUWVPB97SBP&workerId=A2L5QFUJKKYE6G&assignmentId=3I33IC7ZWGOEBEI7545PXMU2ULGA2S&a=ZI3I7&tp_a=ZI3I7&b=3I33IC7ZWGOEBEI7545PXMU2ULGA2S&tp_b=3I33IC7ZWGOEBEI7545PXMU2ULGA2S&c=365717&tp_c=365717"},{"rt":null,"stimulus":"Examples sent to student! Waiting for student...","response":null,"trial_type":"html-keyboard-response","trial_index":50,"time_elapsed":915772,"internal_node_id":"0.0-46.0","params":{"nStudents":24,"maxFlips":30,"completionMinutes":45,"basePay":8,"maxBonus":9,"perTrialBonus":0.5,"perTrialBonusThreshold":0.05,"exampleCost":0.01},"classroomParams":{"A":{"a":1,"b":4},"B":{"a":4,"b":1},"C":{"a":2,"b":8},"D":{"a":8,"b":2}},"conditions":["nonSeqFull","nonSeqPartial","seqNoFeedback","seqFeedback"],"classroomPairings":[["A","B"],["C","D"]],"coinWeights":[0.2,0.5,0.8],"subjectId":"A2L5QFUJKKYE6G","assignmentId":"3I33IC7ZWGOEBEI7545PXMU2ULGA2S","hitId":"34KYK9TV2RUAD363EVFPUWVPB97SBP","url":"https://gershmanlab.com/experiments/alicia/teaching/experiment/?hitId=34KYK9TV2RUAD363EVFPUWVPB97SBP&workerId=A2L5QFUJKKYE6G&assignmentId=3I33IC7ZWGOEBEI7545PXMU2ULGA2S&a=ZI3I7&tp_a=ZI3I7&b=3I33IC7ZWGOEBEI7545PXMU2ULGA2S&tp_b=3I33IC7ZWGOEBEI7545PXMU2ULGA2S&c=365717&tp_c=365717"},{"rt":6959,"stimulus":"\n                <p>Student 5's first guess for coin weight: <b style=\"color:Tomato\";>0.55</b></p>\n                <p>Student 5's second guess for coin weight: <b style=\"color:Tomato\";>0.60</b></p>\n                <p>You received a bonus of <b>$0.00</b> based on the student's second guess.</p>\n                <p>Total bonus so far: <b>$0.00</b></p>\n                <p>Press any key to continue.</p>\n                ","response":" ","trial_type":"html-keyboard-response","trial_index":51,"time_elapsed":922732,"internal_node_id":"0.0-47.0","params":{"nStudents":24,"maxFlips":30,"completionMinutes":45,"basePay":8,"maxBonus":9,"perTrialBonus":0.5,"perTrialBonusThreshold":0.05,"exampleCost":0.01},"classroomParams":{"A":{"a":1,"b":4},"B":{"a":4,"b":1},"C":{"a":2,"b":8},"D":{"a":8,"b":2}},"conditions":["nonSeqFull","nonSeqPartial","seqNoFeedback","seqFeedback"],"classroomPairings":[["A","B"],["C","D"]],"coinWeights":[0.2,0.5,0.8],"subjectId":"A2L5QFUJKKYE6G","assignmentId":"3I33IC7ZWGOEBEI7545PXMU2ULGA2S","hitId":"34KYK9TV2RUAD363EVFPUWVPB97SBP","url":"https://gershmanlab.com/experiments/alicia/teaching/experiment/?hitId=34KYK9TV2RUAD363EVFPUWVPB97SBP&workerId=A2L5QFUJKKYE6G&assignmentId=3I33IC7ZWGOEBEI7545PXMU2ULGA2S&a=ZI3I7&tp_a=ZI3I7&b=3I33IC7ZWGOEBEI7545PXMU2ULGA2S&tp_b=3I33IC7ZWGOEBEI7545PXMU2ULGA2S&c=365717&tp_c=365717"},{"rt":null,"stimulus":"<div style=\"font-size:60px;\">Next student</div>","response":null,"trial_type":"html-keyboard-response","trial_index":52,"time_elapsed":925254,"internal_node_id":"0.0-48.0-0.0","params":{"nStudents":24,"maxFlips":30,"completionMinutes":45,"basePay":8,"maxBonus":9,"perTrialBonus":0.5,"perTrialBonusThreshold":0.05,"exampleCost":0.01},"classroomParams":{"A":{"a":1,"b":4},"B":{"a":4,"b":1},"C":{"a":2,"b":8},"D":{"a":8,"b":2}},"conditions":["nonSeqFull","nonSeqPartial","seqNoFeedback","seqFeedback"],"classroomPairings":[["A","B"],["C","D"]],"coinWeights":[0.2,0.5,0.8],"subjectId":"A2L5QFUJKKYE6G","assignmentId":"3I33IC7ZWGOEBEI7545PXMU2ULGA2S","hitId":"34KYK9TV2RUAD363EVFPUWVPB97SBP","url":"https://gershmanlab.com/experiments/alicia/teaching/experiment/?hitId=34KYK9TV2RUAD363EVFPUWVPB97SBP&workerId=A2L5QFUJKKYE6G&assignmentId=3I33IC7ZWGOEBEI7545PXMU2ULGA2S&a=ZI3I7&tp_a=ZI3I7&b=3I33IC7ZWGOEBEI7545PXMU2ULGA2S&tp_b=3I33IC7ZWGOEBEI7545PXMU2ULGA2S&c=365717&tp_c=365717"},{"rt":3703,"stimulus":"\n            <h4 style=\"color:Orange;\">Student 6</h4>\n            <h2>The weight of your coin is <b style=\"color:Tomato;\">0.5</b>.</h2>\n            <p>In this block, you will be giving <b>one</b> set of examples to Student 6.</p>\n                <p>You will receive feedback at the end of the block.</p>\n            <p></p>","response":0,"trial_type":"html-button-response","trial_index":53,"time_elapsed":928958,"internal_node_id":"0.0-49.0","params":{"nStudents":24,"maxFlips":30,"completionMinutes":45,"basePay":8,"maxBonus":9,"perTrialBonus":0.5,"perTrialBonusThreshold":0.05,"exampleCost":0.01},"classroomParams":{"A":{"a":1,"b":4},"B":{"a":4,"b":1},"C":{"a":2,"b":8},"D":{"a":8,"b":2}},"conditions":["nonSeqFull","nonSeqPartial","seqNoFeedback","seqFeedback"],"classroomPairings":[["A","B"],["C","D"]],"coinWeights":[0.2,0.5,0.8],"subjectId":"A2L5QFUJKKYE6G","assignmentId":"3I33IC7ZWGOEBEI7545PXMU2ULGA2S","hitId":"34KYK9TV2RUAD363EVFPUWVPB97SBP","url":"https://gershmanlab.com/experiments/alicia/teaching/experiment/?hitId=34KYK9TV2RUAD363EVFPUWVPB97SBP&workerId=A2L5QFUJKKYE6G&assignmentId=3I33IC7ZWGOEBEI7545PXMU2ULGA2S&a=ZI3I7&tp_a=ZI3I7&b=3I33IC7ZWGOEBEI7545PXMU2ULGA2S&tp_b=3I33IC7ZWGOEBEI7545PXMU2ULGA2S&c=365717&tp_c=365717"},{"rt":26519,"response":{"heads":"10","tails":"10"},"type":"response","condition":"nonSeqPartial","trueTheta":0.5,"classrooms":["C","D"],"studentTrueClassroom":"D","exampleSet":"first","trial_type":"survey-html-form","trial_index":54,"time_elapsed":955479,"internal_node_id":"0.0-50.0-0.0","params":{"nStudents":24,"maxFlips":30,"completionMinutes":45,"basePay":8,"maxBonus":9,"perTrialBonus":0.5,"perTrialBonusThreshold":0.05,"exampleCost":0.01},"classroomParams":{"A":{"a":1,"b":4},"B":{"a":4,"b":1},"C":{"a":2,"b":8},"D":{"a":8,"b":2}},"conditions":["nonSeqFull","nonSeqPartial","seqNoFeedback","seqFeedback"],"classroomPairings":[["A","B"],["C","D"]],"coinWeights":[0.2,0.5,0.8],"subjectId":"A2L5QFUJKKYE6G","assignmentId":"3I33IC7ZWGOEBEI7545PXMU2ULGA2S","hitId":"34KYK9TV2RUAD363EVFPUWVPB97SBP","url":"https://gershmanlab.com/experiments/alicia/teaching/experiment/?hitId=34KYK9TV2RUAD363EVFPUWVPB97SBP&workerId=A2L5QFUJKKYE6G&assignmentId=3I33IC7ZWGOEBEI7545PXMU2ULGA2S&a=ZI3I7&tp_a=ZI3I7&b=3I33IC7ZWGOEBEI7545PXMU2ULGA2S&tp_b=3I33IC7ZWGOEBEI7545PXMU2ULGA2S&c=365717&tp_c=365717","heads":10,"tails":10,"studentIndex":5,"studentTrueHypers":{"a":8,"b":2},"studentGuess":0.6,"delta":0.09999999999999998,"totalExamples":20,"bonus":0,"bonusSoFar":0},{"rt":null,"stimulus":"Sending examples to student... ","response":null,"trial_type":"html-keyboard-response","trial_index":55,"time_elapsed":956740,"internal_node_id":"0.0-51.0","params":{"nStudents":24,"maxFlips":30,"completionMinutes":45,"basePay":8,"maxBonus":9,"perTrialBonus":0.5,"perTrialBonusThreshold":0.05,"exampleCost":0.01},"classroomParams":{"A":{"a":1,"b":4},"B":{"a":4,"b":1},"C":{"a":2,"b":8},"D":{"a":8,"b":2}},"conditions":["nonSeqFull","nonSeqPartial","seqNoFeedback","seqFeedback"],"classroomPairings":[["A","B"],["C","D"]],"coinWeights":[0.2,0.5,0.8],"subjectId":"A2L5QFUJKKYE6G","assignmentId":"3I33IC7ZWGOEBEI7545PXMU2ULGA2S","hitId":"34KYK9TV2RUAD363EVFPUWVPB97SBP","url":"https://gershmanlab.com/experiments/alicia/teaching/experiment/?hitId=34KYK9TV2RUAD363EVFPUWVPB97SBP&workerId=A2L5QFUJKKYE6G&assignmentId=3I33IC7ZWGOEBEI7545PXMU2ULGA2S&a=ZI3I7&tp_a=ZI3I7&b=3I33IC7ZWGOEBEI7545PXMU2ULGA2S&tp_b=3I33IC7ZWGOEBEI7545PXMU2ULGA2S&c=365717&tp_c=365717"},{"rt":null,"stimulus":"Examples sent to student! Waiting for student...","response":null,"trial_type":"html-keyboard-response","trial_index":56,"time_elapsed":961742,"internal_node_id":"0.0-52.0","params":{"nStudents":24,"maxFlips":30,"completionMinutes":45,"basePay":8,"maxBonus":9,"perTrialBonus":0.5,"perTrialBonusThreshold":0.05,"exampleCost":0.01},"classroomParams":{"A":{"a":1,"b":4},"B":{"a":4,"b":1},"C":{"a":2,"b":8},"D":{"a":8,"b":2}},"conditions":["nonSeqFull","nonSeqPartial","seqNoFeedback","seqFeedback"],"classroomPairings":[["A","B"],["C","D"]],"coinWeights":[0.2,0.5,0.8],"subjectId":"A2L5QFUJKKYE6G","assignmentId":"3I33IC7ZWGOEBEI7545PXMU2ULGA2S","hitId":"34KYK9TV2RUAD363EVFPUWVPB97SBP","url":"https://gershmanlab.com/experiments/alicia/teaching/experiment/?hitId=34KYK9TV2RUAD363EVFPUWVPB97SBP&workerId=A2L5QFUJKKYE6G&assignmentId=3I33IC7ZWGOEBEI7545PXMU2ULGA2S&a=ZI3I7&tp_a=ZI3I7&b=3I33IC7ZWGOEBEI7545PXMU2ULGA2S&tp_b=3I33IC7ZWGOEBEI7545PXMU2ULGA2S&c=365717&tp_c=365717"},{"rt":2056,"stimulus":"\n                <p>Student's guess for coin weight: <b style=\"color:Tomato;\">0.60</b></p>\n                <p>You received a bonus of <b>$0</b>. Total bonus so far: <b>$0.00</b></b></p>\n                <p></p>\n                <p>Press any key to continue.</p>\n                ","response":" ","trial_type":"html-keyboard-response","trial_index":57,"time_elapsed":963800,"internal_node_id":"0.0-53.0","params":{"nStudents":24,"maxFlips":30,"completionMinutes":45,"basePay":8,"maxBonus":9,"perTrialBonus":0.5,"perTrialBonusThreshold":0.05,"exampleCost":0.01},"classroomParams":{"A":{"a":1,"b":4},"B":{"a":4,"b":1},"C":{"a":2,"b":8},"D":{"a":8,"b":2}},"conditions":["nonSeqFull","nonSeqPartial","seqNoFeedback","seqFeedback"],"classroomPairings":[["A","B"],["C","D"]],"coinWeights":[0.2,0.5,0.8],"subjectId":"A2L5QFUJKKYE6G","assignmentId":"3I33IC7ZWGOEBEI7545PXMU2ULGA2S","hitId":"34KYK9TV2RUAD363EVFPUWVPB97SBP","url":"https://gershmanlab.com/experiments/alicia/teaching/experiment/?hitId=34KYK9TV2RUAD363EVFPUWVPB97SBP&workerId=A2L5QFUJKKYE6G&assignmentId=3I33IC7ZWGOEBEI7545PXMU2ULGA2S&a=ZI3I7&tp_a=ZI3I7&b=3I33IC7ZWGOEBEI7545PXMU2ULGA2S&tp_b=3I33IC7ZWGOEBEI7545PXMU2ULGA2S&c=365717&tp_c=365717"},{"rt":null,"stimulus":"<div style=\"font-size:60px;\">Next student</div>","response":null,"trial_type":"html-keyboard-response","trial_index":58,"time_elapsed":966065,"internal_node_id":"0.0-54.0-0.0","params":{"nStudents":24,"maxFlips":30,"completionMinutes":45,"basePay":8,"maxBonus":9,"perTrialBonus":0.5,"perTrialBonusThreshold":0.05,"exampleCost":0.01},"classroomParams":{"A":{"a":1,"b":4},"B":{"a":4,"b":1},"C":{"a":2,"b":8},"D":{"a":8,"b":2}},"conditions":["nonSeqFull","nonSeqPartial","seqNoFeedback","seqFeedback"],"classroomPairings":[["A","B"],["C","D"]],"coinWeights":[0.2,0.5,0.8],"subjectId":"A2L5QFUJKKYE6G","assignmentId":"3I33IC7ZWGOEBEI7545PXMU2ULGA2S","hitId":"34KYK9TV2RUAD363EVFPUWVPB97SBP","url":"https://gershmanlab.com/experiments/alicia/teaching/experiment/?hitId=34KYK9TV2RUAD363EVFPUWVPB97SBP&workerId=A2L5QFUJKKYE6G&assignmentId=3I33IC7ZWGOEBEI7545PXMU2ULGA2S&a=ZI3I7&tp_a=ZI3I7&b=3I33IC7ZWGOEBEI7545PXMU2ULGA2S&tp_b=3I33IC7ZWGOEBEI7545PXMU2ULGA2S&c=365717&tp_c=365717"},{"rt":2220,"stimulus":"\n            <h4 style=\"color:Orange;\">Student 7</h4>\n            <h2>The weight of your coin is <b style=\"color:Tomato;\">0.2</b>.</h2>\n            <p>In this block, you will be giving <b>two</b> sets of examples to Student 7.</p>\n                <p>You will receive feedback at the end of the block.</p>\n            <p></p>","response":0,"trial_type":"html-button-response","trial_index":59,"time_elapsed":968287,"internal_node_id":"0.0-55.0","params":{"nStudents":24,"maxFlips":30,"completionMinutes":45,"basePay":8,"maxBonus":9,"perTrialBonus":0.5,"perTrialBonusThreshold":0.05,"exampleCost":0.01},"classroomParams":{"A":{"a":1,"b":4},"B":{"a":4,"b":1},"C":{"a":2,"b":8},"D":{"a":8,"b":2}},"conditions":["nonSeqFull","nonSeqPartial","seqNoFeedback","seqFeedback"],"classroomPairings":[["A","B"],["C","D"]],"coinWeights":[0.2,0.5,0.8],"subjectId":"A2L5QFUJKKYE6G","assignmentId":"3I33IC7ZWGOEBEI7545PXMU2ULGA2S","hitId":"34KYK9TV2RUAD363EVFPUWVPB97SBP","url":"https://gershmanlab.com/experiments/alicia/teaching/experiment/?hitId=34KYK9TV2RUAD363EVFPUWVPB97SBP&workerId=A2L5QFUJKKYE6G&assignmentId=3I33IC7ZWGOEBEI7545PXMU2ULGA2S&a=ZI3I7&tp_a=ZI3I7&b=3I33IC7ZWGOEBEI7545PXMU2ULGA2S&tp_b=3I33IC7ZWGOEBEI7545PXMU2ULGA2S&c=365717&tp_c=365717"},{"rt":13976,"response":{"heads":"1","tails":"3"},"type":"response","condition":"seqNoFeedback","trueTheta":0.2,"classrooms":["A","B"],"studentTrueClassroom":"B","exampleSet":"first","trial_type":"survey-html-form","trial_index":60,"time_elapsed":982265,"internal_node_id":"0.0-56.0-0.0","params":{"nStudents":24,"maxFlips":30,"completionMinutes":45,"basePay":8,"maxBonus":9,"perTrialBonus":0.5,"perTrialBonusThreshold":0.05,"exampleCost":0.01},"classroomParams":{"A":{"a":1,"b":4},"B":{"a":4,"b":1},"C":{"a":2,"b":8},"D":{"a":8,"b":2}},"conditions":["nonSeqFull","nonSeqPartial","seqNoFeedback","seqFeedback"],"classroomPairings":[["A","B"],["C","D"]],"coinWeights":[0.2,0.5,0.8],"subjectId":"A2L5QFUJKKYE6G","assignmentId":"3I33IC7ZWGOEBEI7545PXMU2ULGA2S","hitId":"34KYK9TV2RUAD363EVFPUWVPB97SBP","url":"https://gershmanlab.com/experiments/alicia/teaching/experiment/?hitId=34KYK9TV2RUAD363EVFPUWVPB97SBP&workerId=A2L5QFUJKKYE6G&assignmentId=3I33IC7ZWGOEBEI7545PXMU2ULGA2S&a=ZI3I7&tp_a=ZI3I7&b=3I33IC7ZWGOEBEI7545PXMU2ULGA2S&tp_b=3I33IC7ZWGOEBEI7545PXMU2ULGA2S&c=365717&tp_c=365717","heads":1,"tails":3,"studentIndex":6,"studentTrueHypers":{"a":4,"b":1},"studentGuess":0.5555555555555556,"delta":0.35555555555555557,"totalExamples":4,"bonusSoFar":0},{"rt":null,"stimulus":"Sending examples to student... ","response":null,"trial_type":"html-keyboard-response","trial_index":61,"time_elapsed":984018,"internal_node_id":"0.0-57.0","params":{"nStudents":24,"maxFlips":30,"completionMinutes":45,"basePay":8,"maxBonus":9,"perTrialBonus":0.5,"perTrialBonusThreshold":0.05,"exampleCost":0.01},"classroomParams":{"A":{"a":1,"b":4},"B":{"a":4,"b":1},"C":{"a":2,"b":8},"D":{"a":8,"b":2}},"conditions":["nonSeqFull","nonSeqPartial","seqNoFeedback","seqFeedback"],"classroomPairings":[["A","B"],["C","D"]],"coinWeights":[0.2,0.5,0.8],"subjectId":"A2L5QFUJKKYE6G","assignmentId":"3I33IC7ZWGOEBEI7545PXMU2ULGA2S","hitId":"34KYK9TV2RUAD363EVFPUWVPB97SBP","url":"https://gershmanlab.com/experiments/alicia/teaching/experiment/?hitId=34KYK9TV2RUAD363EVFPUWVPB97SBP&workerId=A2L5QFUJKKYE6G&assignmentId=3I33IC7ZWGOEBEI7545PXMU2ULGA2S&a=ZI3I7&tp_a=ZI3I7&b=3I33IC7ZWGOEBEI7545PXMU2ULGA2S&tp_b=3I33IC7ZWGOEBEI7545PXMU2ULGA2S&c=365717&tp_c=365717"},{"rt":null,"stimulus":"Examples sent to student! Waiting for student...","response":null,"trial_type":"html-keyboard-response","trial_index":62,"time_elapsed":989029,"internal_node_id":"0.0-58.0","params":{"nStudents":24,"maxFlips":30,"completionMinutes":45,"basePay":8,"maxBonus":9,"perTrialBonus":0.5,"perTrialBonusThreshold":0.05,"exampleCost":0.01},"classroomParams":{"A":{"a":1,"b":4},"B":{"a":4,"b":1},"C":{"a":2,"b":8},"D":{"a":8,"b":2}},"conditions":["nonSeqFull","nonSeqPartial","seqNoFeedback","seqFeedback"],"classroomPairings":[["A","B"],["C","D"]],"coinWeights":[0.2,0.5,0.8],"subjectId":"A2L5QFUJKKYE6G","assignmentId":"3I33IC7ZWGOEBEI7545PXMU2ULGA2S","hitId":"34KYK9TV2RUAD363EVFPUWVPB97SBP","url":"https://gershmanlab.com/experiments/alicia/teaching/experiment/?hitId=34KYK9TV2RUAD363EVFPUWVPB97SBP&workerId=A2L5QFUJKKYE6G&assignmentId=3I33IC7ZWGOEBEI7545PXMU2ULGA2S&a=ZI3I7&tp_a=ZI3I7&b=3I33IC7ZWGOEBEI7545PXMU2ULGA2S&tp_b=3I33IC7ZWGOEBEI7545PXMU2ULGA2S&c=365717&tp_c=365717"},{"rt":8521,"response":{"heads":"1","tails":"3"},"type":"response","condition":"seqNoFeedback","trueTheta":0.2,"classrooms":["A","B"],"studentTrueClassroom":"B","exampleSet":"second","trial_type":"survey-html-form","trial_index":63,"time_elapsed":997552,"internal_node_id":"0.0-59.0-0.0","params":{"nStudents":24,"maxFlips":30,"completionMinutes":45,"basePay":8,"maxBonus":9,"perTrialBonus":0.5,"perTrialBonusThreshold":0.05,"exampleCost":0.01},"classroomParams":{"A":{"a":1,"b":4},"B":{"a":4,"b":1},"C":{"a":2,"b":8},"D":{"a":8,"b":2}},"conditions":["nonSeqFull","nonSeqPartial","seqNoFeedback","seqFeedback"],"classroomPairings":[["A","B"],["C","D"]],"coinWeights":[0.2,0.5,0.8],"subjectId":"A2L5QFUJKKYE6G","assignmentId":"3I33IC7ZWGOEBEI7545PXMU2ULGA2S","hitId":"34KYK9TV2RUAD363EVFPUWVPB97SBP","url":"https://gershmanlab.com/experiments/alicia/teaching/experiment/?hitId=34KYK9TV2RUAD363EVFPUWVPB97SBP&workerId=A2L5QFUJKKYE6G&assignmentId=3I33IC7ZWGOEBEI7545PXMU2ULGA2S&a=ZI3I7&tp_a=ZI3I7&b=3I33IC7ZWGOEBEI7545PXMU2ULGA2S&tp_b=3I33IC7ZWGOEBEI7545PXMU2ULGA2S&c=365717&tp_c=365717","firstResponseHeads":1,"firstResponseTails":3,"secondResponseHeads":1,"secondResponseTails":3,"totalHeads":2,"totalTails":6,"studentIndex":6,"studentTrueHypers":{"a":4,"b":1},"studentGuess":0.46153846153846156,"delta":0.26153846153846155,"bonus":0,"bonusSoFar":0,"totalExamples":8},{"rt":null,"stimulus":"Sending examples to student... ","response":null,"trial_type":"html-keyboard-response","trial_index":64,"time_elapsed":998808,"internal_node_id":"0.0-60.0","params":{"nStudents":24,"maxFlips":30,"completionMinutes":45,"basePay":8,"maxBonus":9,"perTrialBonus":0.5,"perTrialBonusThreshold":0.05,"exampleCost":0.01},"classroomParams":{"A":{"a":1,"b":4},"B":{"a":4,"b":1},"C":{"a":2,"b":8},"D":{"a":8,"b":2}},"conditions":["nonSeqFull","nonSeqPartial","seqNoFeedback","seqFeedback"],"classroomPairings":[["A","B"],["C","D"]],"coinWeights":[0.2,0.5,0.8],"subjectId":"A2L5QFUJKKYE6G","assignmentId":"3I33IC7ZWGOEBEI7545PXMU2ULGA2S","hitId":"34KYK9TV2RUAD363EVFPUWVPB97SBP","url":"https://gershmanlab.com/experiments/alicia/teaching/experiment/?hitId=34KYK9TV2RUAD363EVFPUWVPB97SBP&workerId=A2L5QFUJKKYE6G&assignmentId=3I33IC7ZWGOEBEI7545PXMU2ULGA2S&a=ZI3I7&tp_a=ZI3I7&b=3I33IC7ZWGOEBEI7545PXMU2ULGA2S&tp_b=3I33IC7ZWGOEBEI7545PXMU2ULGA2S&c=365717&tp_c=365717"},{"rt":null,"stimulus":"Examples sent to student! Waiting for student...","response":null,"trial_type":"html-keyboard-response","trial_index":65,"time_elapsed":1002816,"internal_node_id":"0.0-61.0","params":{"nStudents":24,"maxFlips":30,"completionMinutes":45,"basePay":8,"maxBonus":9,"perTrialBonus":0.5,"perTrialBonusThreshold":0.05,"exampleCost":0.01},"classroomParams":{"A":{"a":1,"b":4},"B":{"a":4,"b":1},"C":{"a":2,"b":8},"D":{"a":8,"b":2}},"conditions":["nonSeqFull","nonSeqPartial","seqNoFeedback","seqFeedback"],"classroomPairings":[["A","B"],["C","D"]],"coinWeights":[0.2,0.5,0.8],"subjectId":"A2L5QFUJKKYE6G","assignmentId":"3I33IC7ZWGOEBEI7545PXMU2ULGA2S","hitId":"34KYK9TV2RUAD363EVFPUWVPB97SBP","url":"https://gershmanlab.com/experiments/alicia/teaching/experiment/?hitId=34KYK9TV2RUAD363EVFPUWVPB97SBP&workerId=A2L5QFUJKKYE6G&assignmentId=3I33IC7ZWGOEBEI7545PXMU2ULGA2S&a=ZI3I7&tp_a=ZI3I7&b=3I33IC7ZWGOEBEI7545PXMU2ULGA2S&tp_b=3I33IC7ZWGOEBEI7545PXMU2ULGA2S&c=365717&tp_c=365717"},{"rt":5061,"stimulus":"\n                <p>Student 7's first guess for coin weight: <b style=\"color:Tomato\";>0.56</b></p>\n                <p>Student 7's second guess for coin weight: <b style=\"color:Tomato\";>0.46</b></p>\n                <p>You received a bonus of <b>$0.00</b> based on the student's second guess.</p>\n                <p>Total bonus so far: <b>$0.00</b></p>\n                <p>Press any key to continue.</p>\n                ","response":" ","trial_type":"html-keyboard-response","trial_index":66,"time_elapsed":1007879,"internal_node_id":"0.0-62.0","params":{"nStudents":24,"maxFlips":30,"completionMinutes":45,"basePay":8,"maxBonus":9,"perTrialBonus":0.5,"perTrialBonusThreshold":0.05,"exampleCost":0.01},"classroomParams":{"A":{"a":1,"b":4},"B":{"a":4,"b":1},"C":{"a":2,"b":8},"D":{"a":8,"b":2}},"conditions":["nonSeqFull","nonSeqPartial","seqNoFeedback","seqFeedback"],"classroomPairings":[["A","B"],["C","D"]],"coinWeights":[0.2,0.5,0.8],"subjectId":"A2L5QFUJKKYE6G","assignmentId":"3I33IC7ZWGOEBEI7545PXMU2ULGA2S","hitId":"34KYK9TV2RUAD363EVFPUWVPB97SBP","url":"https://gershmanlab.com/experiments/alicia/teaching/experiment/?hitId=34KYK9TV2RUAD363EVFPUWVPB97SBP&workerId=A2L5QFUJKKYE6G&assignmentId=3I33IC7ZWGOEBEI7545PXMU2ULGA2S&a=ZI3I7&tp_a=ZI3I7&b=3I33IC7ZWGOEBEI7545PXMU2ULGA2S&tp_b=3I33IC7ZWGOEBEI7545PXMU2ULGA2S&c=365717&tp_c=365717"},{"rt":null,"stimulus":"<div style=\"font-size:60px;\">Next student</div>","response":null,"trial_type":"html-keyboard-response","trial_index":67,"time_elapsed":1010383,"internal_node_id":"0.0-63.0-0.0","params":{"nStudents":24,"maxFlips":30,"completionMinutes":45,"basePay":8,"maxBonus":9,"perTrialBonus":0.5,"perTrialBonusThreshold":0.05,"exampleCost":0.01},"classroomParams":{"A":{"a":1,"b":4},"B":{"a":4,"b":1},"C":{"a":2,"b":8},"D":{"a":8,"b":2}},"conditions":["nonSeqFull","nonSeqPartial","seqNoFeedback","seqFeedback"],"classroomPairings":[["A","B"],["C","D"]],"coinWeights":[0.2,0.5,0.8],"subjectId":"A2L5QFUJKKYE6G","assignmentId":"3I33IC7ZWGOEBEI7545PXMU2ULGA2S","hitId":"34KYK9TV2RUAD363EVFPUWVPB97SBP","url":"https://gershmanlab.com/experiments/alicia/teaching/experiment/?hitId=34KYK9TV2RUAD363EVFPUWVPB97SBP&workerId=A2L5QFUJKKYE6G&assignmentId=3I33IC7ZWGOEBEI7545PXMU2ULGA2S&a=ZI3I7&tp_a=ZI3I7&b=3I33IC7ZWGOEBEI7545PXMU2ULGA2S&tp_b=3I33IC7ZWGOEBEI7545PXMU2ULGA2S&c=365717&tp_c=365717"},{"rt":9027,"stimulus":"\n            <h4 style=\"color:Orange;\">Student 8</h4>\n            <h2>The weight of your coin is <b style=\"color:Tomato;\">0.2</b>.</h2>\n            <p>In this block, you will be giving <b>one</b> set of examples to Student 8.</p>\n                <p>You will receive feedback at the end of the block.</p>\n            <p></p>","response":0,"trial_type":"html-button-response","trial_index":68,"time_elapsed":1019412,"internal_node_id":"0.0-64.0","params":{"nStudents":24,"maxFlips":30,"completionMinutes":45,"basePay":8,"maxBonus":9,"perTrialBonus":0.5,"perTrialBonusThreshold":0.05,"exampleCost":0.01},"classroomParams":{"A":{"a":1,"b":4},"B":{"a":4,"b":1},"C":{"a":2,"b":8},"D":{"a":8,"b":2}},"conditions":["nonSeqFull","nonSeqPartial","seqNoFeedback","seqFeedback"],"classroomPairings":[["A","B"],["C","D"]],"coinWeights":[0.2,0.5,0.8],"subjectId":"A2L5QFUJKKYE6G","assignmentId":"3I33IC7ZWGOEBEI7545PXMU2ULGA2S","hitId":"34KYK9TV2RUAD363EVFPUWVPB97SBP","url":"https://gershmanlab.com/experiments/alicia/teaching/experiment/?hitId=34KYK9TV2RUAD363EVFPUWVPB97SBP&workerId=A2L5QFUJKKYE6G&assignmentId=3I33IC7ZWGOEBEI7545PXMU2ULGA2S&a=ZI3I7&tp_a=ZI3I7&b=3I33IC7ZWGOEBEI7545PXMU2ULGA2S&tp_b=3I33IC7ZWGOEBEI7545PXMU2ULGA2S&c=365717&tp_c=365717"},{"rt":7791,"response":{"heads":"2","tails":"4"},"type":"response","condition":"nonSeqFull","trueTheta":0.2,"classrooms":["A","B"],"studentTrueClassroom":"A","exampleSet":"first","trial_type":"survey-html-form","trial_index":69,"time_elapsed":1027205,"internal_node_id":"0.0-65.0-0.0","params":{"nStudents":24,"maxFlips":30,"completionMinutes":45,"basePay":8,"maxBonus":9,"perTrialBonus":0.5,"perTrialBonusThreshold":0.05,"exampleCost":0.01},"classroomParams":{"A":{"a":1,"b":4},"B":{"a":4,"b":1},"C":{"a":2,"b":8},"D":{"a":8,"b":2}},"conditions":["nonSeqFull","nonSeqPartial","seqNoFeedback","seqFeedback"],"classroomPairings":[["A","B"],["C","D"]],"coinWeights":[0.2,0.5,0.8],"subjectId":"A2L5QFUJKKYE6G","assignmentId":"3I33IC7ZWGOEBEI7545PXMU2ULGA2S","hitId":"34KYK9TV2RUAD363EVFPUWVPB97SBP","url":"https://gershmanlab.com/experiments/alicia/teaching/experiment/?hitId=34KYK9TV2RUAD363EVFPUWVPB97SBP&workerId=A2L5QFUJKKYE6G&assignmentId=3I33IC7ZWGOEBEI7545PXMU2ULGA2S&a=ZI3I7&tp_a=ZI3I7&b=3I33IC7ZWGOEBEI7545PXMU2ULGA2S&tp_b=3I33IC7ZWGOEBEI7545PXMU2ULGA2S&c=365717&tp_c=365717","heads":2,"tails":4,"studentIndex":7,"studentTrueHypers":{"a":1,"b":4},"studentGuess":0.2727272727272727,"delta":0.0727272727272727,"totalExamples":6,"bonus":0,"bonusSoFar":0},{"rt":null,"stimulus":"Sending examples to student... ","response":null,"trial_type":"html-keyboard-response","trial_index":70,"time_elapsed":1028965,"internal_node_id":"0.0-66.0","params":{"nStudents":24,"maxFlips":30,"completionMinutes":45,"basePay":8,"maxBonus":9,"perTrialBonus":0.5,"perTrialBonusThreshold":0.05,"exampleCost":0.01},"classroomParams":{"A":{"a":1,"b":4},"B":{"a":4,"b":1},"C":{"a":2,"b":8},"D":{"a":8,"b":2}},"conditions":["nonSeqFull","nonSeqPartial","seqNoFeedback","seqFeedback"],"classroomPairings":[["A","B"],["C","D"]],"coinWeights":[0.2,0.5,0.8],"subjectId":"A2L5QFUJKKYE6G","assignmentId":"3I33IC7ZWGOEBEI7545PXMU2ULGA2S","hitId":"34KYK9TV2RUAD363EVFPUWVPB97SBP","url":"https://gershmanlab.com/experiments/alicia/teaching/experiment/?hitId=34KYK9TV2RUAD363EVFPUWVPB97SBP&workerId=A2L5QFUJKKYE6G&assignmentId=3I33IC7ZWGOEBEI7545PXMU2ULGA2S&a=ZI3I7&tp_a=ZI3I7&b=3I33IC7ZWGOEBEI7545PXMU2ULGA2S&tp_b=3I33IC7ZWGOEBEI7545PXMU2ULGA2S&c=365717&tp_c=365717"},{"rt":null,"stimulus":"Examples sent to student! Waiting for student...","response":null,"trial_type":"html-keyboard-response","trial_index":71,"time_elapsed":1034483,"internal_node_id":"0.0-67.0","params":{"nStudents":24,"maxFlips":30,"completionMinutes":45,"basePay":8,"maxBonus":9,"perTrialBonus":0.5,"perTrialBonusThreshold":0.05,"exampleCost":0.01},"classroomParams":{"A":{"a":1,"b":4},"B":{"a":4,"b":1},"C":{"a":2,"b":8},"D":{"a":8,"b":2}},"conditions":["nonSeqFull","nonSeqPartial","seqNoFeedback","seqFeedback"],"classroomPairings":[["A","B"],["C","D"]],"coinWeights":[0.2,0.5,0.8],"subjectId":"A2L5QFUJKKYE6G","assignmentId":"3I33IC7ZWGOEBEI7545PXMU2ULGA2S","hitId":"34KYK9TV2RUAD363EVFPUWVPB97SBP","url":"https://gershmanlab.com/experiments/alicia/teaching/experiment/?hitId=34KYK9TV2RUAD363EVFPUWVPB97SBP&workerId=A2L5QFUJKKYE6G&assignmentId=3I33IC7ZWGOEBEI7545PXMU2ULGA2S&a=ZI3I7&tp_a=ZI3I7&b=3I33IC7ZWGOEBEI7545PXMU2ULGA2S&tp_b=3I33IC7ZWGOEBEI7545PXMU2ULGA2S&c=365717&tp_c=365717"},{"rt":3726,"stimulus":"\n                <p>Student's guess for coin weight: <b style=\"color:Tomato;\">0.27</b></p>\n                <p>You received a bonus of <b>$0</b>. Total bonus so far: <b>$0.00</b></b></p>\n                <p></p>\n                <p>Press any key to continue.</p>\n                ","response":" ","trial_type":"html-keyboard-response","trial_index":72,"time_elapsed":1038210,"internal_node_id":"0.0-68.0","params":{"nStudents":24,"maxFlips":30,"completionMinutes":45,"basePay":8,"maxBonus":9,"perTrialBonus":0.5,"perTrialBonusThreshold":0.05,"exampleCost":0.01},"classroomParams":{"A":{"a":1,"b":4},"B":{"a":4,"b":1},"C":{"a":2,"b":8},"D":{"a":8,"b":2}},"conditions":["nonSeqFull","nonSeqPartial","seqNoFeedback","seqFeedback"],"classroomPairings":[["A","B"],["C","D"]],"coinWeights":[0.2,0.5,0.8],"subjectId":"A2L5QFUJKKYE6G","assignmentId":"3I33IC7ZWGOEBEI7545PXMU2ULGA2S","hitId":"34KYK9TV2RUAD363EVFPUWVPB97SBP","url":"https://gershmanlab.com/experiments/alicia/teaching/experiment/?hitId=34KYK9TV2RUAD363EVFPUWVPB97SBP&workerId=A2L5QFUJKKYE6G&assignmentId=3I33IC7ZWGOEBEI7545PXMU2ULGA2S&a=ZI3I7&tp_a=ZI3I7&b=3I33IC7ZWGOEBEI7545PXMU2ULGA2S&tp_b=3I33IC7ZWGOEBEI7545PXMU2ULGA2S&c=365717&tp_c=365717"},{"rt":null,"stimulus":"<div style=\"font-size:60px;\">Next student</div>","response":null,"trial_type":"html-keyboard-response","trial_index":73,"time_elapsed":1040473,"internal_node_id":"0.0-69.0-0.0","params":{"nStudents":24,"maxFlips":30,"completionMinutes":45,"basePay":8,"maxBonus":9,"perTrialBonus":0.5,"perTrialBonusThreshold":0.05,"exampleCost":0.01},"classroomParams":{"A":{"a":1,"b":4},"B":{"a":4,"b":1},"C":{"a":2,"b":8},"D":{"a":8,"b":2}},"conditions":["nonSeqFull","nonSeqPartial","seqNoFeedback","seqFeedback"],"classroomPairings":[["A","B"],["C","D"]],"coinWeights":[0.2,0.5,0.8],"subjectId":"A2L5QFUJKKYE6G","assignmentId":"3I33IC7ZWGOEBEI7545PXMU2ULGA2S","hitId":"34KYK9TV2RUAD363EVFPUWVPB97SBP","url":"https://gershmanlab.com/experiments/alicia/teaching/experiment/?hitId=34KYK9TV2RUAD363EVFPUWVPB97SBP&workerId=A2L5QFUJKKYE6G&assignmentId=3I33IC7ZWGOEBEI7545PXMU2ULGA2S&a=ZI3I7&tp_a=ZI3I7&b=3I33IC7ZWGOEBEI7545PXMU2ULGA2S&tp_b=3I33IC7ZWGOEBEI7545PXMU2ULGA2S&c=365717&tp_c=365717"},{"rt":1861,"stimulus":"\n            <h4 style=\"color:Orange;\">Student 9</h4>\n            <h2>The weight of your coin is <b style=\"color:Tomato;\">0.8</b>.</h2>\n            <p>In this block, you will be giving <b>one</b> set of examples to Student 9.</p>\n                <p>You will receive feedback at the end of the block.</p>\n            <p></p>","response":0,"trial_type":"html-button-response","trial_index":74,"time_elapsed":1042336,"internal_node_id":"0.0-70.0","params":{"nStudents":24,"maxFlips":30,"completionMinutes":45,"basePay":8,"maxBonus":9,"perTrialBonus":0.5,"perTrialBonusThreshold":0.05,"exampleCost":0.01},"classroomParams":{"A":{"a":1,"b":4},"B":{"a":4,"b":1},"C":{"a":2,"b":8},"D":{"a":8,"b":2}},"conditions":["nonSeqFull","nonSeqPartial","seqNoFeedback","seqFeedback"],"classroomPairings":[["A","B"],["C","D"]],"coinWeights":[0.2,0.5,0.8],"subjectId":"A2L5QFUJKKYE6G","assignmentId":"3I33IC7ZWGOEBEI7545PXMU2ULGA2S","hitId":"34KYK9TV2RUAD363EVFPUWVPB97SBP","url":"https://gershmanlab.com/experiments/alicia/teaching/experiment/?hitId=34KYK9TV2RUAD363EVFPUWVPB97SBP&workerId=A2L5QFUJKKYE6G&assignmentId=3I33IC7ZWGOEBEI7545PXMU2ULGA2S&a=ZI3I7&tp_a=ZI3I7&b=3I33IC7ZWGOEBEI7545PXMU2ULGA2S&tp_b=3I33IC7ZWGOEBEI7545PXMU2ULGA2S&c=365717&tp_c=365717"},{"rt":20706,"response":{"heads":"8","tails":"2"},"type":"response","condition":"nonSeqFull","trueTheta":0.8,"classrooms":["C","D"],"studentTrueClassroom":"C","exampleSet":"first","trial_type":"survey-html-form","trial_index":75,"time_elapsed":1063044,"internal_node_id":"0.0-71.0-0.0","params":{"nStudents":24,"maxFlips":30,"completionMinutes":45,"basePay":8,"maxBonus":9,"perTrialBonus":0.5,"perTrialBonusThreshold":0.05,"exampleCost":0.01},"classroomParams":{"A":{"a":1,"b":4},"B":{"a":4,"b":1},"C":{"a":2,"b":8},"D":{"a":8,"b":2}},"conditions":["nonSeqFull","nonSeqPartial","seqNoFeedback","seqFeedback"],"classroomPairings":[["A","B"],["C","D"]],"coinWeights":[0.2,0.5,0.8],"subjectId":"A2L5QFUJKKYE6G","assignmentId":"3I33IC7ZWGOEBEI7545PXMU2ULGA2S","hitId":"34KYK9TV2RUAD363EVFPUWVPB97SBP","url":"https://gershmanlab.com/experiments/alicia/teaching/experiment/?hitId=34KYK9TV2RUAD363EVFPUWVPB97SBP&workerId=A2L5QFUJKKYE6G&assignmentId=3I33IC7ZWGOEBEI7545PXMU2ULGA2S&a=ZI3I7&tp_a=ZI3I7&b=3I33IC7ZWGOEBEI7545PXMU2ULGA2S&tp_b=3I33IC7ZWGOEBEI7545PXMU2ULGA2S&c=365717&tp_c=365717","heads":8,"tails":2,"studentIndex":8,"studentTrueHypers":{"a":2,"b":8},"studentGuess":0.5,"delta":0.30000000000000004,"totalExamples":10,"bonus":0,"bonusSoFar":0},{"rt":null,"stimulus":"Sending examples to student... ","response":null,"trial_type":"html-keyboard-response","trial_index":76,"time_elapsed":1064804,"internal_node_id":"0.0-72.0","params":{"nStudents":24,"maxFlips":30,"completionMinutes":45,"basePay":8,"maxBonus":9,"perTrialBonus":0.5,"perTrialBonusThreshold":0.05,"exampleCost":0.01},"classroomParams":{"A":{"a":1,"b":4},"B":{"a":4,"b":1},"C":{"a":2,"b":8},"D":{"a":8,"b":2}},"conditions":["nonSeqFull","nonSeqPartial","seqNoFeedback","seqFeedback"],"classroomPairings":[["A","B"],["C","D"]],"coinWeights":[0.2,0.5,0.8],"subjectId":"A2L5QFUJKKYE6G","assignmentId":"3I33IC7ZWGOEBEI7545PXMU2ULGA2S","hitId":"34KYK9TV2RUAD363EVFPUWVPB97SBP","url":"https://gershmanlab.com/experiments/alicia/teaching/experiment/?hitId=34KYK9TV2RUAD363EVFPUWVPB97SBP&workerId=A2L5QFUJKKYE6G&assignmentId=3I33IC7ZWGOEBEI7545PXMU2ULGA2S&a=ZI3I7&tp_a=ZI3I7&b=3I33IC7ZWGOEBEI7545PXMU2ULGA2S&tp_b=3I33IC7ZWGOEBEI7545PXMU2ULGA2S&c=365717&tp_c=365717"},{"rt":null,"stimulus":"Examples sent to student! Waiting for student...","response":null,"trial_type":"html-keyboard-response","trial_index":77,"time_elapsed":1070808,"internal_node_id":"0.0-73.0","params":{"nStudents":24,"maxFlips":30,"completionMinutes":45,"basePay":8,"maxBonus":9,"perTrialBonus":0.5,"perTrialBonusThreshold":0.05,"exampleCost":0.01},"classroomParams":{"A":{"a":1,"b":4},"B":{"a":4,"b":1},"C":{"a":2,"b":8},"D":{"a":8,"b":2}},"conditions":["nonSeqFull","nonSeqPartial","seqNoFeedback","seqFeedback"],"classroomPairings":[["A","B"],["C","D"]],"coinWeights":[0.2,0.5,0.8],"subjectId":"A2L5QFUJKKYE6G","assignmentId":"3I33IC7ZWGOEBEI7545PXMU2ULGA2S","hitId":"34KYK9TV2RUAD363EVFPUWVPB97SBP","url":"https://gershmanlab.com/experiments/alicia/teaching/experiment/?hitId=34KYK9TV2RUAD363EVFPUWVPB97SBP&workerId=A2L5QFUJKKYE6G&assignmentId=3I33IC7ZWGOEBEI7545PXMU2ULGA2S&a=ZI3I7&tp_a=ZI3I7&b=3I33IC7ZWGOEBEI7545PXMU2ULGA2S&tp_b=3I33IC7ZWGOEBEI7545PXMU2ULGA2S&c=365717&tp_c=365717"},{"rt":5306,"stimulus":"\n                <p>Student's guess for coin weight: <b style=\"color:Tomato;\">0.50</b></p>\n                <p>You received a bonus of <b>$0</b>. Total bonus so far: <b>$0.00</b></b></p>\n                <p></p>\n                <p>Press any key to continue.</p>\n                ","response":" ","trial_type":"html-keyboard-response","trial_index":78,"time_elapsed":1076115,"internal_node_id":"0.0-74.0","params":{"nStudents":24,"maxFlips":30,"completionMinutes":45,"basePay":8,"maxBonus":9,"perTrialBonus":0.5,"perTrialBonusThreshold":0.05,"exampleCost":0.01},"classroomParams":{"A":{"a":1,"b":4},"B":{"a":4,"b":1},"C":{"a":2,"b":8},"D":{"a":8,"b":2}},"conditions":["nonSeqFull","nonSeqPartial","seqNoFeedback","seqFeedback"],"classroomPairings":[["A","B"],["C","D"]],"coinWeights":[0.2,0.5,0.8],"subjectId":"A2L5QFUJKKYE6G","assignmentId":"3I33IC7ZWGOEBEI7545PXMU2ULGA2S","hitId":"34KYK9TV2RUAD363EVFPUWVPB97SBP","url":"https://gershmanlab.com/experiments/alicia/teaching/experiment/?hitId=34KYK9TV2RUAD363EVFPUWVPB97SBP&workerId=A2L5QFUJKKYE6G&assignmentId=3I33IC7ZWGOEBEI7545PXMU2ULGA2S&a=ZI3I7&tp_a=ZI3I7&b=3I33IC7ZWGOEBEI7545PXMU2ULGA2S&tp_b=3I33IC7ZWGOEBEI7545PXMU2ULGA2S&c=365717&tp_c=365717"},{"rt":null,"stimulus":"<div style=\"font-size:60px;\">Next student</div>","response":null,"trial_type":"html-keyboard-response","trial_index":79,"time_elapsed":1079122,"internal_node_id":"0.0-75.0-0.0","params":{"nStudents":24,"maxFlips":30,"completionMinutes":45,"basePay":8,"maxBonus":9,"perTrialBonus":0.5,"perTrialBonusThreshold":0.05,"exampleCost":0.01},"classroomParams":{"A":{"a":1,"b":4},"B":{"a":4,"b":1},"C":{"a":2,"b":8},"D":{"a":8,"b":2}},"conditions":["nonSeqFull","nonSeqPartial","seqNoFeedback","seqFeedback"],"classroomPairings":[["A","B"],["C","D"]],"coinWeights":[0.2,0.5,0.8],"subjectId":"A2L5QFUJKKYE6G","assignmentId":"3I33IC7ZWGOEBEI7545PXMU2ULGA2S","hitId":"34KYK9TV2RUAD363EVFPUWVPB97SBP","url":"https://gershmanlab.com/experiments/alicia/teaching/experiment/?hitId=34KYK9TV2RUAD363EVFPUWVPB97SBP&workerId=A2L5QFUJKKYE6G&assignmentId=3I33IC7ZWGOEBEI7545PXMU2ULGA2S&a=ZI3I7&tp_a=ZI3I7&b=3I33IC7ZWGOEBEI7545PXMU2ULGA2S&tp_b=3I33IC7ZWGOEBEI7545PXMU2ULGA2S&c=365717&tp_c=365717"},{"rt":3608,"stimulus":"\n            <h4 style=\"color:Orange;\">Student 10</h4>\n            <h2>The weight of your coin is <b style=\"color:Tomato;\">0.2</b>.</h2>\n            <p>In this block, you will be giving <b>one</b> set of examples to Student 10.</p>\n                <p>You will receive feedback at the end of the block.</p>\n            <p></p>","response":0,"trial_type":"html-button-response","trial_index":80,"time_elapsed":1082732,"internal_node_id":"0.0-76.0","params":{"nStudents":24,"maxFlips":30,"completionMinutes":45,"basePay":8,"maxBonus":9,"perTrialBonus":0.5,"perTrialBonusThreshold":0.05,"exampleCost":0.01},"classroomParams":{"A":{"a":1,"b":4},"B":{"a":4,"b":1},"C":{"a":2,"b":8},"D":{"a":8,"b":2}},"conditions":["nonSeqFull","nonSeqPartial","seqNoFeedback","seqFeedback"],"classroomPairings":[["A","B"],["C","D"]],"coinWeights":[0.2,0.5,0.8],"subjectId":"A2L5QFUJKKYE6G","assignmentId":"3I33IC7ZWGOEBEI7545PXMU2ULGA2S","hitId":"34KYK9TV2RUAD363EVFPUWVPB97SBP","url":"https://gershmanlab.com/experiments/alicia/teaching/experiment/?hitId=34KYK9TV2RUAD363EVFPUWVPB97SBP&workerId=A2L5QFUJKKYE6G&assignmentId=3I33IC7ZWGOEBEI7545PXMU2ULGA2S&a=ZI3I7&tp_a=ZI3I7&b=3I33IC7ZWGOEBEI7545PXMU2ULGA2S&tp_b=3I33IC7ZWGOEBEI7545PXMU2ULGA2S&c=365717&tp_c=365717"},{"rt":7061,"response":{"heads":"1","tails":"4"},"type":"response","condition":"nonSeqPartial","trueTheta":0.2,"classrooms":["A","B"],"studentTrueClassroom":"B","exampleSet":"first","trial_type":"survey-html-form","trial_index":81,"time_elapsed":1089794,"internal_node_id":"0.0-77.0-0.0","params":{"nStudents":24,"maxFlips":30,"completionMinutes":45,"basePay":8,"maxBonus":9,"perTrialBonus":0.5,"perTrialBonusThreshold":0.05,"exampleCost":0.01},"classroomParams":{"A":{"a":1,"b":4},"B":{"a":4,"b":1},"C":{"a":2,"b":8},"D":{"a":8,"b":2}},"conditions":["nonSeqFull","nonSeqPartial","seqNoFeedback","seqFeedback"],"classroomPairings":[["A","B"],["C","D"]],"coinWeights":[0.2,0.5,0.8],"subjectId":"A2L5QFUJKKYE6G","assignmentId":"3I33IC7ZWGOEBEI7545PXMU2ULGA2S","hitId":"34KYK9TV2RUAD363EVFPUWVPB97SBP","url":"https://gershmanlab.com/experiments/alicia/teaching/experiment/?hitId=34KYK9TV2RUAD363EVFPUWVPB97SBP&workerId=A2L5QFUJKKYE6G&assignmentId=3I33IC7ZWGOEBEI7545PXMU2ULGA2S&a=ZI3I7&tp_a=ZI3I7&b=3I33IC7ZWGOEBEI7545PXMU2ULGA2S&tp_b=3I33IC7ZWGOEBEI7545PXMU2ULGA2S&c=365717&tp_c=365717","heads":1,"tails":4,"studentIndex":9,"studentTrueHypers":{"a":4,"b":1},"studentGuess":0.5,"delta":0.3,"totalExamples":5,"bonus":0,"bonusSoFar":0},{"rt":null,"stimulus":"Sending examples to student... ","response":null,"trial_type":"html-keyboard-response","trial_index":82,"time_elapsed":1091055,"internal_node_id":"0.0-78.0","params":{"nStudents":24,"maxFlips":30,"completionMinutes":45,"basePay":8,"maxBonus":9,"perTrialBonus":0.5,"perTrialBonusThreshold":0.05,"exampleCost":0.01},"classroomParams":{"A":{"a":1,"b":4},"B":{"a":4,"b":1},"C":{"a":2,"b":8},"D":{"a":8,"b":2}},"conditions":["nonSeqFull","nonSeqPartial","seqNoFeedback","seqFeedback"],"classroomPairings":[["A","B"],["C","D"]],"coinWeights":[0.2,0.5,0.8],"subjectId":"A2L5QFUJKKYE6G","assignmentId":"3I33IC7ZWGOEBEI7545PXMU2ULGA2S","hitId":"34KYK9TV2RUAD363EVFPUWVPB97SBP","url":"https://gershmanlab.com/experiments/alicia/teaching/experiment/?hitId=34KYK9TV2RUAD363EVFPUWVPB97SBP&workerId=A2L5QFUJKKYE6G&assignmentId=3I33IC7ZWGOEBEI7545PXMU2ULGA2S&a=ZI3I7&tp_a=ZI3I7&b=3I33IC7ZWGOEBEI7545PXMU2ULGA2S&tp_b=3I33IC7ZWGOEBEI7545PXMU2ULGA2S&c=365717&tp_c=365717"},{"rt":null,"stimulus":"Examples sent to student! Waiting for student...","response":null,"trial_type":"html-keyboard-response","trial_index":83,"time_elapsed":1096073,"internal_node_id":"0.0-79.0","params":{"nStudents":24,"maxFlips":30,"completionMinutes":45,"basePay":8,"maxBonus":9,"perTrialBonus":0.5,"perTrialBonusThreshold":0.05,"exampleCost":0.01},"classroomParams":{"A":{"a":1,"b":4},"B":{"a":4,"b":1},"C":{"a":2,"b":8},"D":{"a":8,"b":2}},"conditions":["nonSeqFull","nonSeqPartial","seqNoFeedback","seqFeedback"],"classroomPairings":[["A","B"],["C","D"]],"coinWeights":[0.2,0.5,0.8],"subjectId":"A2L5QFUJKKYE6G","assignmentId":"3I33IC7ZWGOEBEI7545PXMU2ULGA2S","hitId":"34KYK9TV2RUAD363EVFPUWVPB97SBP","url":"https://gershmanlab.com/experiments/alicia/teaching/experiment/?hitId=34KYK9TV2RUAD363EVFPUWVPB97SBP&workerId=A2L5QFUJKKYE6G&assignmentId=3I33IC7ZWGOEBEI7545PXMU2ULGA2S&a=ZI3I7&tp_a=ZI3I7&b=3I33IC7ZWGOEBEI7545PXMU2ULGA2S&tp_b=3I33IC7ZWGOEBEI7545PXMU2ULGA2S&c=365717&tp_c=365717"},{"rt":1318,"stimulus":"\n                <p>Student's guess for coin weight: <b style=\"color:Tomato;\">0.50</b></p>\n                <p>You received a bonus of <b>$0</b>. Total bonus so far: <b>$0.00</b></b></p>\n                <p></p>\n                <p>Press any key to continue.</p>\n                ","response":" ","trial_type":"html-keyboard-response","trial_index":84,"time_elapsed":1097392,"internal_node_id":"0.0-80.0","params":{"nStudents":24,"maxFlips":30,"completionMinutes":45,"basePay":8,"maxBonus":9,"perTrialBonus":0.5,"perTrialBonusThreshold":0.05,"exampleCost":0.01},"classroomParams":{"A":{"a":1,"b":4},"B":{"a":4,"b":1},"C":{"a":2,"b":8},"D":{"a":8,"b":2}},"conditions":["nonSeqFull","nonSeqPartial","seqNoFeedback","seqFeedback"],"classroomPairings":[["A","B"],["C","D"]],"coinWeights":[0.2,0.5,0.8],"subjectId":"A2L5QFUJKKYE6G","assignmentId":"3I33IC7ZWGOEBEI7545PXMU2ULGA2S","hitId":"34KYK9TV2RUAD363EVFPUWVPB97SBP","url":"https://gershmanlab.com/experiments/alicia/teaching/experiment/?hitId=34KYK9TV2RUAD363EVFPUWVPB97SBP&workerId=A2L5QFUJKKYE6G&assignmentId=3I33IC7ZWGOEBEI7545PXMU2ULGA2S&a=ZI3I7&tp_a=ZI3I7&b=3I33IC7ZWGOEBEI7545PXMU2ULGA2S&tp_b=3I33IC7ZWGOEBEI7545PXMU2ULGA2S&c=365717&tp_c=365717"},{"rt":null,"stimulus":"<div style=\"font-size:60px;\">Next student</div>","response":null,"trial_type":"html-keyboard-response","trial_index":85,"time_elapsed":1100395,"internal_node_id":"0.0-81.0-0.0","params":{"nStudents":24,"maxFlips":30,"completionMinutes":45,"basePay":8,"maxBonus":9,"perTrialBonus":0.5,"perTrialBonusThreshold":0.05,"exampleCost":0.01},"classroomParams":{"A":{"a":1,"b":4},"B":{"a":4,"b":1},"C":{"a":2,"b":8},"D":{"a":8,"b":2}},"conditions":["nonSeqFull","nonSeqPartial","seqNoFeedback","seqFeedback"],"classroomPa