[{"rt":2282,"stimulus":"Welcome to the experiment. Press any key to begin.","response":" ","trial_type":"html-keyboard-response","trial_index":0,"time_elapsed":2294,"internal_node_id":"0.0-0.0","params":{"nStudents":24,"maxFlips":30,"completionMinutes":45,"basePay":8,"maxBonus":9,"perTrialBonus":0.5,"perTrialBonusThreshold":0.05,"exampleCost":0.01},"classroomParams":{"A":{"a":1,"b":4},"B":{"a":4,"b":1},"C":{"a":2,"b":8},"D":{"a":8,"b":2}},"conditions":["nonSeqFull","nonSeqPartial","seqNoFeedback","seqFeedback"],"classroomPairings":[["A","B"],["C","D"]],"coinWeights":[0.2,0.5,0.8],"subjectId":"A2LMQ4497NMK3S","assignmentId":"31UV0MXWNRYLGTKSZBZ0CRLXR4WI5R","hitId":"3Z3R5YC0P3915KVY8X6BNRIWSQNFTT","url":"https://gershmanlab.com/experiments/alicia/teaching/experiment/?hitId=3Z3R5YC0P3915KVY8X6BNRIWSQNFTT&workerId=A2LMQ4497NMK3S&assignmentId=31UV0MXWNRYLGTKSZBZ0CRLXR4WI5R&a=W0U19&tp_a=W0U19&b=31UV0MXWNRYLGTKSZBZ0CRLXR4WI5R&tp_b=31UV0MXWNRYLGTKSZBZ0CRLXR4WI5R&c=365799&tp_c=365799"},{"rt":3806,"stimulus":"\n        <h3>Please read this consent agreement carefully before deciding whether to participate in this experiment.</h3>\n        <p><b>Purpose of the research:</b> To examine how people teach effectively.</p>\n        <p><b>What you will do in this research:</b> You will teach students the weights of different coins.</p>\n        <p><b>Time required:</b> This experiment will take 45 minutes to complete.</p>\n        <p><b>Risks:</b> There are no anticipated risks associated with participating in this study.             The effects of participating should be comparable to those you would experience from viewing a computer monitor             and using a mouse and keyboard for the duration of the experiment.</p>\n        <p><b>Benefits:</b> The study provides important information about the nature of teaching.</p>\n        <p><b>Compensation:</b> You will receive <b>$8</b> for completing the experiment and a performance bonus of up to <b>$9</b>.</p>\n        <p><b>Confidentiality:</b> Your participation in this study will remain confidential.             No personally identifiable information will be associated with your data.             Your de-identified data may be shared with other researchers and used in future projects.</p>\n        <p><b>Participation and withdrawal:</b> Your participation in this study is completely voluntary and             you may refuse to participate or you may choose to withdraw at any time without penalty or loss of\n            benefits to which you are otherwise entitled.</p>\n        <p><b>How to contact the researcher:</b> If you have questions or concerns about your participation            or payment, or want to request a summary of research findings, please contact\n            Alicia Chen, aliciachen@college.harvard.edu.</p>\n        <p><b>Whom to contact about your rights in this research:</b> For questions, concerns, suggestions,             or complaints that have not been or cannot be addressed by the researcher, or to report             research-related harm, please contact the Committee on the Use of Human Subjects in Research at Harvard University,             1414 Massachusetts Avenue, Second Floor, Cambridge, MA 02138. Phone: 617-496-2847. Email: cuhs@fas.harvard.edu.</p>\n        ","response":0,"trial_type":"html-button-response","trial_index":1,"time_elapsed":6102,"internal_node_id":"0.0-1.0","params":{"nStudents":24,"maxFlips":30,"completionMinutes":45,"basePay":8,"maxBonus":9,"perTrialBonus":0.5,"perTrialBonusThreshold":0.05,"exampleCost":0.01},"classroomParams":{"A":{"a":1,"b":4},"B":{"a":4,"b":1},"C":{"a":2,"b":8},"D":{"a":8,"b":2}},"conditions":["nonSeqFull","nonSeqPartial","seqNoFeedback","seqFeedback"],"classroomPairings":[["A","B"],["C","D"]],"coinWeights":[0.2,0.5,0.8],"subjectId":"A2LMQ4497NMK3S","assignmentId":"31UV0MXWNRYLGTKSZBZ0CRLXR4WI5R","hitId":"3Z3R5YC0P3915KVY8X6BNRIWSQNFTT","url":"https://gershmanlab.com/experiments/alicia/teaching/experiment/?hitId=3Z3R5YC0P3915KVY8X6BNRIWSQNFTT&workerId=A2LMQ4497NMK3S&assignmentId=31UV0MXWNRYLGTKSZBZ0CRLXR4WI5R&a=W0U19&tp_a=W0U19&b=31UV0MXWNRYLGTKSZBZ0CRLXR4WI5R&tp_b=31UV0MXWNRYLGTKSZBZ0CRLXR4WI5R&c=365799&tp_c=365799"},{"view_history":[{"page_index":0,"viewing_time":4459},{"page_index":1,"viewing_time":3738},{"page_index":2,"viewing_time":22026},{"page_index":3,"viewing_time":17240},{"page_index":4,"viewing_time":15668},{"page_index":5,"viewing_time":18780},{"page_index":6,"viewing_time":35602}],"rt":117513,"trial_type":"instructions","trial_index":2,"time_elapsed":123617,"internal_node_id":"0.0-2.0-0.0","params":{"nStudents":24,"maxFlips":30,"completionMinutes":45,"basePay":8,"maxBonus":9,"perTrialBonus":0.5,"perTrialBonusThreshold":0.05,"exampleCost":0.01},"classroomParams":{"A":{"a":1,"b":4},"B":{"a":4,"b":1},"C":{"a":2,"b":8},"D":{"a":8,"b":2}},"conditions":["nonSeqFull","nonSeqPartial","seqNoFeedback","seqFeedback"],"classroomPairings":[["A","B"],["C","D"]],"coinWeights":[0.2,0.5,0.8],"subjectId":"A2LMQ4497NMK3S","assignmentId":"31UV0MXWNRYLGTKSZBZ0CRLXR4WI5R","hitId":"3Z3R5YC0P3915KVY8X6BNRIWSQNFTT","url":"https://gershmanlab.com/experiments/alicia/teaching/experiment/?hitId=3Z3R5YC0P3915KVY8X6BNRIWSQNFTT&workerId=A2LMQ4497NMK3S&assignmentId=31UV0MXWNRYLGTKSZBZ0CRLXR4WI5R&a=W0U19&tp_a=W0U19&b=31UV0MXWNRYLGTKSZBZ0CRLXR4WI5R&tp_b=31UV0MXWNRYLGTKSZBZ0CRLXR4WI5R&c=365799&tp_c=365799"},{"rt":52728,"response":{"Q0":"Students in different classrooms will have seen a different number of heads and tails before seeing the examples you select for them.","Q1":"By <b>considering the student's classroom information</b> so that I can teach efficiently and accurately/helpfully at the same time (because each example I give to the student costs money!).","Q2":"The coin lands heads 90% of the time.","Q3":"No, I will teach a <b>new</b> student each time.","Q4":"The students are also on the same alien planet as you, where coins can be unfair.","Q5":"Based on the student's second (and final) guess."},"question_order":[3,1,2,0,4,5],"trial_type":"survey-multi-choice","trial_index":3,"time_elapsed":176347,"internal_node_id":"0.0-2.0-1.0","params":{"nStudents":24,"maxFlips":30,"completionMinutes":45,"basePay":8,"maxBonus":9,"perTrialBonus":0.5,"perTrialBonusThreshold":0.05,"exampleCost":0.01},"classroomParams":{"A":{"a":1,"b":4},"B":{"a":4,"b":1},"C":{"a":2,"b":8},"D":{"a":8,"b":2}},"conditions":["nonSeqFull","nonSeqPartial","seqNoFeedback","seqFeedback"],"classroomPairings":[["A","B"],["C","D"]],"coinWeights":[0.2,0.5,0.8],"subjectId":"A2LMQ4497NMK3S","assignmentId":"31UV0MXWNRYLGTKSZBZ0CRLXR4WI5R","hitId":"3Z3R5YC0P3915KVY8X6BNRIWSQNFTT","url":"https://gershmanlab.com/experiments/alicia/teaching/experiment/?hitId=3Z3R5YC0P3915KVY8X6BNRIWSQNFTT&workerId=A2LMQ4497NMK3S&assignmentId=31UV0MXWNRYLGTKSZBZ0CRLXR4WI5R&a=W0U19&tp_a=W0U19&b=31UV0MXWNRYLGTKSZBZ0CRLXR4WI5R&tp_b=31UV0MXWNRYLGTKSZBZ0CRLXR4WI5R&c=365799&tp_c=365799","pass":true},{"rt":null,"stimulus":"<div style=\"font-size:30px;\">Congrats on passing the comprehension quiz! The experiment will begin in a few seconds.</div>","response":null,"trial_type":"html-keyboard-response","trial_index":4,"time_elapsed":179361,"internal_node_id":"0.0-3.0","params":{"nStudents":24,"maxFlips":30,"completionMinutes":45,"basePay":8,"maxBonus":9,"perTrialBonus":0.5,"perTrialBonusThreshold":0.05,"exampleCost":0.01},"classroomParams":{"A":{"a":1,"b":4},"B":{"a":4,"b":1},"C":{"a":2,"b":8},"D":{"a":8,"b":2}},"conditions":["nonSeqFull","nonSeqPartial","seqNoFeedback","seqFeedback"],"classroomPairings":[["A","B"],["C","D"]],"coinWeights":[0.2,0.5,0.8],"subjectId":"A2LMQ4497NMK3S","assignmentId":"31UV0MXWNRYLGTKSZBZ0CRLXR4WI5R","hitId":"3Z3R5YC0P3915KVY8X6BNRIWSQNFTT","url":"https://gershmanlab.com/experiments/alicia/teaching/experiment/?hitId=3Z3R5YC0P3915KVY8X6BNRIWSQNFTT&workerId=A2LMQ4497NMK3S&assignmentId=31UV0MXWNRYLGTKSZBZ0CRLXR4WI5R&a=W0U19&tp_a=W0U19&b=31UV0MXWNRYLGTKSZBZ0CRLXR4WI5R&tp_b=31UV0MXWNRYLGTKSZBZ0CRLXR4WI5R&c=365799&tp_c=365799"},{"rt":null,"stimulus":"<div style=\"font-size:50px;\">First student</div>","response":null,"trial_type":"html-keyboard-response","trial_index":5,"time_elapsed":182368,"internal_node_id":"0.0-4.0","params":{"nStudents":24,"maxFlips":30,"completionMinutes":45,"basePay":8,"maxBonus":9,"perTrialBonus":0.5,"perTrialBonusThreshold":0.05,"exampleCost":0.01},"classroomParams":{"A":{"a":1,"b":4},"B":{"a":4,"b":1},"C":{"a":2,"b":8},"D":{"a":8,"b":2}},"conditions":["nonSeqFull","nonSeqPartial","seqNoFeedback","seqFeedback"],"classroomPairings":[["A","B"],["C","D"]],"coinWeights":[0.2,0.5,0.8],"subjectId":"A2LMQ4497NMK3S","assignmentId":"31UV0MXWNRYLGTKSZBZ0CRLXR4WI5R","hitId":"3Z3R5YC0P3915KVY8X6BNRIWSQNFTT","url":"https://gershmanlab.com/experiments/alicia/teaching/experiment/?hitId=3Z3R5YC0P3915KVY8X6BNRIWSQNFTT&workerId=A2LMQ4497NMK3S&assignmentId=31UV0MXWNRYLGTKSZBZ0CRLXR4WI5R&a=W0U19&tp_a=W0U19&b=31UV0MXWNRYLGTKSZBZ0CRLXR4WI5R&tp_b=31UV0MXWNRYLGTKSZBZ0CRLXR4WI5R&c=365799&tp_c=365799"},{"rt":6893,"stimulus":"\n            <h4 style=\"color:Orange;\">Student 1</h4>\n            <h2>The weight of your coin is <b style=\"color:Tomato;\">0.5</b>.</h2>\n            <p>In this block, you will be giving <b>one</b> set of examples to Student 1.</p>\n                <p>You will receive feedback at the end of the block.</p>\n            <p></p>","response":0,"trial_type":"html-button-response","trial_index":6,"time_elapsed":189262,"internal_node_id":"0.0-5.0","params":{"nStudents":24,"maxFlips":30,"completionMinutes":45,"basePay":8,"maxBonus":9,"perTrialBonus":0.5,"perTrialBonusThreshold":0.05,"exampleCost":0.01},"classroomParams":{"A":{"a":1,"b":4},"B":{"a":4,"b":1},"C":{"a":2,"b":8},"D":{"a":8,"b":2}},"conditions":["nonSeqFull","nonSeqPartial","seqNoFeedback","seqFeedback"],"classroomPairings":[["A","B"],["C","D"]],"coinWeights":[0.2,0.5,0.8],"subjectId":"A2LMQ4497NMK3S","assignmentId":"31UV0MXWNRYLGTKSZBZ0CRLXR4WI5R","hitId":"3Z3R5YC0P3915KVY8X6BNRIWSQNFTT","url":"https://gershmanlab.com/experiments/alicia/teaching/experiment/?hitId=3Z3R5YC0P3915KVY8X6BNRIWSQNFTT&workerId=A2LMQ4497NMK3S&assignmentId=31UV0MXWNRYLGTKSZBZ0CRLXR4WI5R&a=W0U19&tp_a=W0U19&b=31UV0MXWNRYLGTKSZBZ0CRLXR4WI5R&tp_b=31UV0MXWNRYLGTKSZBZ0CRLXR4WI5R&c=365799&tp_c=365799"},{"rt":20635,"response":{"heads":"1","tails":"1"},"type":"response","condition":"nonSeqPartial","trueTheta":0.5,"classrooms":["A","B"],"studentTrueClassroom":"A","exampleSet":"first","trial_type":"survey-html-form","trial_index":7,"time_elapsed":209899,"internal_node_id":"0.0-6.0-0.0","params":{"nStudents":24,"maxFlips":30,"completionMinutes":45,"basePay":8,"maxBonus":9,"perTrialBonus":0.5,"perTrialBonusThreshold":0.05,"exampleCost":0.01},"classroomParams":{"A":{"a":1,"b":4},"B":{"a":4,"b":1},"C":{"a":2,"b":8},"D":{"a":8,"b":2}},"conditions":["nonSeqFull","nonSeqPartial","seqNoFeedback","seqFeedback"],"classroomPairings":[["A","B"],["C","D"]],"coinWeights":[0.2,0.5,0.8],"subjectId":"A2LMQ4497NMK3S","assignmentId":"31UV0MXWNRYLGTKSZBZ0CRLXR4WI5R","hitId":"3Z3R5YC0P3915KVY8X6BNRIWSQNFTT","url":"https://gershmanlab.com/experiments/alicia/teaching/experiment/?hitId=3Z3R5YC0P3915KVY8X6BNRIWSQNFTT&workerId=A2LMQ4497NMK3S&assignmentId=31UV0MXWNRYLGTKSZBZ0CRLXR4WI5R&a=W0U19&tp_a=W0U19&b=31UV0MXWNRYLGTKSZBZ0CRLXR4WI5R&tp_b=31UV0MXWNRYLGTKSZBZ0CRLXR4WI5R&c=365799&tp_c=365799","heads":1,"tails":1,"studentIndex":0,"studentTrueHypers":{"a":1,"b":4},"studentGuess":0.2857142857142857,"delta":0.2142857142857143,"totalExamples":2,"bonus":0,"bonusSoFar":0},{"rt":null,"stimulus":"Sending examples to student... ","response":null,"trial_type":"html-keyboard-response","trial_index":8,"time_elapsed":211659,"internal_node_id":"0.0-7.0","params":{"nStudents":24,"maxFlips":30,"completionMinutes":45,"basePay":8,"maxBonus":9,"perTrialBonus":0.5,"perTrialBonusThreshold":0.05,"exampleCost":0.01},"classroomParams":{"A":{"a":1,"b":4},"B":{"a":4,"b":1},"C":{"a":2,"b":8},"D":{"a":8,"b":2}},"conditions":["nonSeqFull","nonSeqPartial","seqNoFeedback","seqFeedback"],"classroomPairings":[["A","B"],["C","D"]],"coinWeights":[0.2,0.5,0.8],"subjectId":"A2LMQ4497NMK3S","assignmentId":"31UV0MXWNRYLGTKSZBZ0CRLXR4WI5R","hitId":"3Z3R5YC0P3915KVY8X6BNRIWSQNFTT","url":"https://gershmanlab.com/experiments/alicia/teaching/experiment/?hitId=3Z3R5YC0P3915KVY8X6BNRIWSQNFTT&workerId=A2LMQ4497NMK3S&assignmentId=31UV0MXWNRYLGTKSZBZ0CRLXR4WI5R&a=W0U19&tp_a=W0U19&b=31UV0MXWNRYLGTKSZBZ0CRLXR4WI5R&tp_b=31UV0MXWNRYLGTKSZBZ0CRLXR4WI5R&c=365799&tp_c=365799"},{"rt":null,"stimulus":"Examples sent to student! Waiting for student...","response":null,"trial_type":"html-keyboard-response","trial_index":9,"time_elapsed":217161,"internal_node_id":"0.0-8.0","params":{"nStudents":24,"maxFlips":30,"completionMinutes":45,"basePay":8,"maxBonus":9,"perTrialBonus":0.5,"perTrialBonusThreshold":0.05,"exampleCost":0.01},"classroomParams":{"A":{"a":1,"b":4},"B":{"a":4,"b":1},"C":{"a":2,"b":8},"D":{"a":8,"b":2}},"conditions":["nonSeqFull","nonSeqPartial","seqNoFeedback","seqFeedback"],"classroomPairings":[["A","B"],["C","D"]],"coinWeights":[0.2,0.5,0.8],"subjectId":"A2LMQ4497NMK3S","assignmentId":"31UV0MXWNRYLGTKSZBZ0CRLXR4WI5R","hitId":"3Z3R5YC0P3915KVY8X6BNRIWSQNFTT","url":"https://gershmanlab.com/experiments/alicia/teaching/experiment/?hitId=3Z3R5YC0P3915KVY8X6BNRIWSQNFTT&workerId=A2LMQ4497NMK3S&assignmentId=31UV0MXWNRYLGTKSZBZ0CRLXR4WI5R&a=W0U19&tp_a=W0U19&b=31UV0MXWNRYLGTKSZBZ0CRLXR4WI5R&tp_b=31UV0MXWNRYLGTKSZBZ0CRLXR4WI5R&c=365799&tp_c=365799"},{"rt":22452,"stimulus":"\n                <p>Student's guess for coin weight: <b style=\"color:Tomato;\">0.29</b></p>\n                <p>You received a bonus of <b>$0</b>. Total bonus so far: <b>$0.00</b></b></p>\n                <p></p>\n                <p>Press any key to continue.</p>\n                ","response":" ","trial_type":"html-keyboard-response","trial_index":10,"time_elapsed":239614,"internal_node_id":"0.0-9.0","params":{"nStudents":24,"maxFlips":30,"completionMinutes":45,"basePay":8,"maxBonus":9,"perTrialBonus":0.5,"perTrialBonusThreshold":0.05,"exampleCost":0.01},"classroomParams":{"A":{"a":1,"b":4},"B":{"a":4,"b":1},"C":{"a":2,"b":8},"D":{"a":8,"b":2}},"conditions":["nonSeqFull","nonSeqPartial","seqNoFeedback","seqFeedback"],"classroomPairings":[["A","B"],["C","D"]],"coinWeights":[0.2,0.5,0.8],"subjectId":"A2LMQ4497NMK3S","assignmentId":"31UV0MXWNRYLGTKSZBZ0CRLXR4WI5R","hitId":"3Z3R5YC0P3915KVY8X6BNRIWSQNFTT","url":"https://gershmanlab.com/experiments/alicia/teaching/experiment/?hitId=3Z3R5YC0P3915KVY8X6BNRIWSQNFTT&workerId=A2LMQ4497NMK3S&assignmentId=31UV0MXWNRYLGTKSZBZ0CRLXR4WI5R&a=W0U19&tp_a=W0U19&b=31UV0MXWNRYLGTKSZBZ0CRLXR4WI5R&tp_b=31UV0MXWNRYLGTKSZBZ0CRLXR4WI5R&c=365799&tp_c=365799"},{"rt":null,"stimulus":"<div style=\"font-size:60px;\">Next student</div>","response":null,"trial_type":"html-keyboard-response","trial_index":11,"time_elapsed":241871,"internal_node_id":"0.0-10.0-0.0","params":{"nStudents":24,"maxFlips":30,"completionMinutes":45,"basePay":8,"maxBonus":9,"perTrialBonus":0.5,"perTrialBonusThreshold":0.05,"exampleCost":0.01},"classroomParams":{"A":{"a":1,"b":4},"B":{"a":4,"b":1},"C":{"a":2,"b":8},"D":{"a":8,"b":2}},"conditions":["nonSeqFull","nonSeqPartial","seqNoFeedback","seqFeedback"],"classroomPairings":[["A","B"],["C","D"]],"coinWeights":[0.2,0.5,0.8],"subjectId":"A2LMQ4497NMK3S","assignmentId":"31UV0MXWNRYLGTKSZBZ0CRLXR4WI5R","hitId":"3Z3R5YC0P3915KVY8X6BNRIWSQNFTT","url":"https://gershmanlab.com/experiments/alicia/teaching/experiment/?hitId=3Z3R5YC0P3915KVY8X6BNRIWSQNFTT&workerId=A2LMQ4497NMK3S&assignmentId=31UV0MXWNRYLGTKSZBZ0CRLXR4WI5R&a=W0U19&tp_a=W0U19&b=31UV0MXWNRYLGTKSZBZ0CRLXR4WI5R&tp_b=31UV0MXWNRYLGTKSZBZ0CRLXR4WI5R&c=365799&tp_c=365799"},{"rt":7890,"stimulus":"\n            <h4 style=\"color:Orange;\">Student 2</h4>\n            <h2>The weight of your coin is <b style=\"color:Tomato;\">0.2</b>.</h2>\n            <p>In this block, you will be giving <b>two</b> sets of examples to Student 2.</p>\n                <p>You will see the student's guess after the first set of examples. You will also receive feedback at the end of the block.</p>\n            <p>To earn the highest bonus, you will have to <b>take into consideration the student's guess</b> when you choose your second set of examples.</p>","response":0,"trial_type":"html-button-response","trial_index":12,"time_elapsed":249762,"internal_node_id":"0.0-11.0","params":{"nStudents":24,"maxFlips":30,"completionMinutes":45,"basePay":8,"maxBonus":9,"perTrialBonus":0.5,"perTrialBonusThreshold":0.05,"exampleCost":0.01},"classroomParams":{"A":{"a":1,"b":4},"B":{"a":4,"b":1},"C":{"a":2,"b":8},"D":{"a":8,"b":2}},"conditions":["nonSeqFull","nonSeqPartial","seqNoFeedback","seqFeedback"],"classroomPairings":[["A","B"],["C","D"]],"coinWeights":[0.2,0.5,0.8],"subjectId":"A2LMQ4497NMK3S","assignmentId":"31UV0MXWNRYLGTKSZBZ0CRLXR4WI5R","hitId":"3Z3R5YC0P3915KVY8X6BNRIWSQNFTT","url":"https://gershmanlab.com/experiments/alicia/teaching/experiment/?hitId=3Z3R5YC0P3915KVY8X6BNRIWSQNFTT&workerId=A2LMQ4497NMK3S&assignmentId=31UV0MXWNRYLGTKSZBZ0CRLXR4WI5R&a=W0U19&tp_a=W0U19&b=31UV0MXWNRYLGTKSZBZ0CRLXR4WI5R&tp_b=31UV0MXWNRYLGTKSZBZ0CRLXR4WI5R&c=365799&tp_c=365799"},{"rt":19053,"response":{"heads":"0","tails":"0"},"type":"response","condition":"seqFeedback","trueTheta":0.2,"classrooms":["C","D"],"studentTrueClassroom":"C","exampleSet":"first","trial_type":"survey-html-form","trial_index":13,"time_elapsed":268817,"internal_node_id":"0.0-12.0-0.0","params":{"nStudents":24,"maxFlips":30,"completionMinutes":45,"basePay":8,"maxBonus":9,"perTrialBonus":0.5,"perTrialBonusThreshold":0.05,"exampleCost":0.01},"classroomParams":{"A":{"a":1,"b":4},"B":{"a":4,"b":1},"C":{"a":2,"b":8},"D":{"a":8,"b":2}},"conditions":["nonSeqFull","nonSeqPartial","seqNoFeedback","seqFeedback"],"classroomPairings":[["A","B"],["C","D"]],"coinWeights":[0.2,0.5,0.8],"subjectId":"A2LMQ4497NMK3S","assignmentId":"31UV0MXWNRYLGTKSZBZ0CRLXR4WI5R","hitId":"3Z3R5YC0P3915KVY8X6BNRIWSQNFTT","url":"https://gershmanlab.com/experiments/alicia/teaching/experiment/?hitId=3Z3R5YC0P3915KVY8X6BNRIWSQNFTT&workerId=A2LMQ4497NMK3S&assignmentId=31UV0MXWNRYLGTKSZBZ0CRLXR4WI5R&a=W0U19&tp_a=W0U19&b=31UV0MXWNRYLGTKSZBZ0CRLXR4WI5R&tp_b=31UV0MXWNRYLGTKSZBZ0CRLXR4WI5R&c=365799&tp_c=365799","heads":0,"tails":0,"studentIndex":1,"studentTrueHypers":{"a":2,"b":8},"studentGuess":0.2,"delta":0,"totalExamples":0,"bonusSoFar":0},{"rt":6464,"response":{"heads":"1","tails":"1"},"type":"response","condition":"seqFeedback","trueTheta":0.2,"classrooms":["C","D"],"studentTrueClassroom":"C","exampleSet":"first","trial_type":"survey-html-form","trial_index":14,"time_elapsed":275283,"internal_node_id":"0.0-12.1-0.1","params":{"nStudents":24,"maxFlips":30,"completionMinutes":45,"basePay":8,"maxBonus":9,"perTrialBonus":0.5,"perTrialBonusThreshold":0.05,"exampleCost":0.01},"classroomParams":{"A":{"a":1,"b":4},"B":{"a":4,"b":1},"C":{"a":2,"b":8},"D":{"a":8,"b":2}},"conditions":["nonSeqFull","nonSeqPartial","seqNoFeedback","seqFeedback"],"classroomPairings":[["A","B"],["C","D"]],"coinWeights":[0.2,0.5,0.8],"subjectId":"A2LMQ4497NMK3S","assignmentId":"31UV0MXWNRYLGTKSZBZ0CRLXR4WI5R","hitId":"3Z3R5YC0P3915KVY8X6BNRIWSQNFTT","url":"https://gershmanlab.com/experiments/alicia/teaching/experiment/?hitId=3Z3R5YC0P3915KVY8X6BNRIWSQNFTT&workerId=A2LMQ4497NMK3S&assignmentId=31UV0MXWNRYLGTKSZBZ0CRLXR4WI5R&a=W0U19&tp_a=W0U19&b=31UV0MXWNRYLGTKSZBZ0CRLXR4WI5R&tp_b=31UV0MXWNRYLGTKSZBZ0CRLXR4WI5R&c=365799&tp_c=365799","heads":1,"tails":1,"studentIndex":1,"studentTrueHypers":{"a":2,"b":8},"studentGuess":0.25,"delta":0.04999999999999999,"totalExamples":2,"bonusSoFar":0},{"rt":null,"stimulus":"Sending examples to student... ","response":null,"trial_type":"html-keyboard-response","trial_index":15,"time_elapsed":276792,"internal_node_id":"0.0-13.0","params":{"nStudents":24,"maxFlips":30,"completionMinutes":45,"basePay":8,"maxBonus":9,"perTrialBonus":0.5,"perTrialBonusThreshold":0.05,"exampleCost":0.01},"classroomParams":{"A":{"a":1,"b":4},"B":{"a":4,"b":1},"C":{"a":2,"b":8},"D":{"a":8,"b":2}},"conditions":["nonSeqFull","nonSeqPartial","seqNoFeedback","seqFeedback"],"classroomPairings":[["A","B"],["C","D"]],"coinWeights":[0.2,0.5,0.8],"subjectId":"A2LMQ4497NMK3S","assignmentId":"31UV0MXWNRYLGTKSZBZ0CRLXR4WI5R","hitId":"3Z3R5YC0P3915KVY8X6BNRIWSQNFTT","url":"https://gershmanlab.com/experiments/alicia/teaching/experiment/?hitId=3Z3R5YC0P3915KVY8X6BNRIWSQNFTT&workerId=A2LMQ4497NMK3S&assignmentId=31UV0MXWNRYLGTKSZBZ0CRLXR4WI5R&a=W0U19&tp_a=W0U19&b=31UV0MXWNRYLGTKSZBZ0CRLXR4WI5R&tp_b=31UV0MXWNRYLGTKSZBZ0CRLXR4WI5R&c=365799&tp_c=365799"},{"rt":null,"stimulus":"Examples sent to student! Waiting for student...","response":null,"trial_type":"html-keyboard-response","trial_index":16,"time_elapsed":281298,"internal_node_id":"0.0-14.0","params":{"nStudents":24,"maxFlips":30,"completionMinutes":45,"basePay":8,"maxBonus":9,"perTrialBonus":0.5,"perTrialBonusThreshold":0.05,"exampleCost":0.01},"classroomParams":{"A":{"a":1,"b":4},"B":{"a":4,"b":1},"C":{"a":2,"b":8},"D":{"a":8,"b":2}},"conditions":["nonSeqFull","nonSeqPartial","seqNoFeedback","seqFeedback"],"classroomPairings":[["A","B"],["C","D"]],"coinWeights":[0.2,0.5,0.8],"subjectId":"A2LMQ4497NMK3S","assignmentId":"31UV0MXWNRYLGTKSZBZ0CRLXR4WI5R","hitId":"3Z3R5YC0P3915KVY8X6BNRIWSQNFTT","url":"https://gershmanlab.com/experiments/alicia/teaching/experiment/?hitId=3Z3R5YC0P3915KVY8X6BNRIWSQNFTT&workerId=A2LMQ4497NMK3S&assignmentId=31UV0MXWNRYLGTKSZBZ0CRLXR4WI5R&a=W0U19&tp_a=W0U19&b=31UV0MXWNRYLGTKSZBZ0CRLXR4WI5R&tp_b=31UV0MXWNRYLGTKSZBZ0CRLXR4WI5R&c=365799&tp_c=365799"},{"rt":5827,"stimulus":"\n                <p>Student's guess for coin weight: <b style=\"color:Tomato;\">0.20</b></p>\n                <p></b></p>\n                <p>You will now send another set of examples to your student. <b>Remember to take your student's guess into consideration so that you can earn the highest bonus possible!</b> </p>\n                <p>Press any key to continue.</p>\n                ","response":" ","trial_type":"html-keyboard-response","trial_index":17,"time_elapsed":287126,"internal_node_id":"0.0-15.0","params":{"nStudents":24,"maxFlips":30,"completionMinutes":45,"basePay":8,"maxBonus":9,"perTrialBonus":0.5,"perTrialBonusThreshold":0.05,"exampleCost":0.01},"classroomParams":{"A":{"a":1,"b":4},"B":{"a":4,"b":1},"C":{"a":2,"b":8},"D":{"a":8,"b":2}},"conditions":["nonSeqFull","nonSeqPartial","seqNoFeedback","seqFeedback"],"classroomPairings":[["A","B"],["C","D"]],"coinWeights":[0.2,0.5,0.8],"subjectId":"A2LMQ4497NMK3S","assignmentId":"31UV0MXWNRYLGTKSZBZ0CRLXR4WI5R","hitId":"3Z3R5YC0P3915KVY8X6BNRIWSQNFTT","url":"https://gershmanlab.com/experiments/alicia/teaching/experiment/?hitId=3Z3R5YC0P3915KVY8X6BNRIWSQNFTT&workerId=A2LMQ4497NMK3S&assignmentId=31UV0MXWNRYLGTKSZBZ0CRLXR4WI5R&a=W0U19&tp_a=W0U19&b=31UV0MXWNRYLGTKSZBZ0CRLXR4WI5R&tp_b=31UV0MXWNRYLGTKSZBZ0CRLXR4WI5R&c=365799&tp_c=365799"},{"rt":9077,"response":{"heads":"0","tails":"0"},"type":"response","condition":"seqFeedback","trueTheta":0.2,"classrooms":["C","D"],"studentTrueClassroom":"C","exampleSet":"second","trial_type":"survey-html-form","trial_index":18,"time_elapsed":296205,"internal_node_id":"0.0-16.0-0.0","params":{"nStudents":24,"maxFlips":30,"completionMinutes":45,"basePay":8,"maxBonus":9,"perTrialBonus":0.5,"perTrialBonusThreshold":0.05,"exampleCost":0.01},"classroomParams":{"A":{"a":1,"b":4},"B":{"a":4,"b":1},"C":{"a":2,"b":8},"D":{"a":8,"b":2}},"conditions":["nonSeqFull","nonSeqPartial","seqNoFeedback","seqFeedback"],"classroomPairings":[["A","B"],["C","D"]],"coinWeights":[0.2,0.5,0.8],"subjectId":"A2LMQ4497NMK3S","assignmentId":"31UV0MXWNRYLGTKSZBZ0CRLXR4WI5R","hitId":"3Z3R5YC0P3915KVY8X6BNRIWSQNFTT","url":"https://gershmanlab.com/experiments/alicia/teaching/experiment/?hitId=3Z3R5YC0P3915KVY8X6BNRIWSQNFTT&workerId=A2LMQ4497NMK3S&assignmentId=31UV0MXWNRYLGTKSZBZ0CRLXR4WI5R&a=W0U19&tp_a=W0U19&b=31UV0MXWNRYLGTKSZBZ0CRLXR4WI5R&tp_b=31UV0MXWNRYLGTKSZBZ0CRLXR4WI5R&c=365799&tp_c=365799","firstResponseHeads":0,"firstResponseTails":0,"secondResponseHeads":0,"secondResponseTails":0,"totalHeads":0,"totalTails":0,"studentIndex":1,"studentTrueHypers":{"a":2,"b":8},"studentGuess":0.2,"delta":0,"bonus":0.5,"bonusSoFar":0.5,"totalExamples":0},{"rt":4152,"response":{"heads":"1","tails":"1"},"type":"response","condition":"seqFeedback","trueTheta":0.2,"classrooms":["C","D"],"studentTrueClassroom":"C","exampleSet":"second","trial_type":"survey-html-form","trial_index":19,"time_elapsed":300359,"internal_node_id":"0.0-16.1-0.1","params":{"nStudents":24,"maxFlips":30,"completionMinutes":45,"basePay":8,"maxBonus":9,"perTrialBonus":0.5,"perTrialBonusThreshold":0.05,"exampleCost":0.01},"classroomParams":{"A":{"a":1,"b":4},"B":{"a":4,"b":1},"C":{"a":2,"b":8},"D":{"a":8,"b":2}},"conditions":["nonSeqFull","nonSeqPartial","seqNoFeedback","seqFeedback"],"classroomPairings":[["A","B"],["C","D"]],"coinWeights":[0.2,0.5,0.8],"subjectId":"A2LMQ4497NMK3S","assignmentId":"31UV0MXWNRYLGTKSZBZ0CRLXR4WI5R","hitId":"3Z3R5YC0P3915KVY8X6BNRIWSQNFTT","url":"https://gershmanlab.com/experiments/alicia/teaching/experiment/?hitId=3Z3R5YC0P3915KVY8X6BNRIWSQNFTT&workerId=A2LMQ4497NMK3S&assignmentId=31UV0MXWNRYLGTKSZBZ0CRLXR4WI5R&a=W0U19&tp_a=W0U19&b=31UV0MXWNRYLGTKSZBZ0CRLXR4WI5R&tp_b=31UV0MXWNRYLGTKSZBZ0CRLXR4WI5R&c=365799&tp_c=365799","firstResponseHeads":0,"firstResponseTails":0,"secondResponseHeads":1,"secondResponseTails":1,"totalHeads":1,"totalTails":1,"studentIndex":1,"studentTrueHypers":{"a":2,"b":8},"studentGuess":0.25,"delta":0.04999999999999999,"bonus":0.48,"bonusSoFar":0.98,"totalExamples":2},{"rt":null,"stimulus":"Sending examples to student... ","response":null,"trial_type":"html-keyboard-response","trial_index":20,"time_elapsed":302119,"internal_node_id":"0.0-17.0","params":{"nStudents":24,"maxFlips":30,"completionMinutes":45,"basePay":8,"maxBonus":9,"perTrialBonus":0.5,"perTrialBonusThreshold":0.05,"exampleCost":0.01},"classroomParams":{"A":{"a":1,"b":4},"B":{"a":4,"b":1},"C":{"a":2,"b":8},"D":{"a":8,"b":2}},"conditions":["nonSeqFull","nonSeqPartial","seqNoFeedback","seqFeedback"],"classroomPairings":[["A","B"],["C","D"]],"coinWeights":[0.2,0.5,0.8],"subjectId":"A2LMQ4497NMK3S","assignmentId":"31UV0MXWNRYLGTKSZBZ0CRLXR4WI5R","hitId":"3Z3R5YC0P3915KVY8X6BNRIWSQNFTT","url":"https://gershmanlab.com/experiments/alicia/teaching/experiment/?hitId=3Z3R5YC0P3915KVY8X6BNRIWSQNFTT&workerId=A2LMQ4497NMK3S&assignmentId=31UV0MXWNRYLGTKSZBZ0CRLXR4WI5R&a=W0U19&tp_a=W0U19&b=31UV0MXWNRYLGTKSZBZ0CRLXR4WI5R&tp_b=31UV0MXWNRYLGTKSZBZ0CRLXR4WI5R&c=365799&tp_c=365799"},{"rt":null,"stimulus":"Examples sent to student! Waiting for student...","response":null,"trial_type":"html-keyboard-response","trial_index":21,"time_elapsed":306622,"internal_node_id":"0.0-18.0","params":{"nStudents":24,"maxFlips":30,"completionMinutes":45,"basePay":8,"maxBonus":9,"perTrialBonus":0.5,"perTrialBonusThreshold":0.05,"exampleCost":0.01},"classroomParams":{"A":{"a":1,"b":4},"B":{"a":4,"b":1},"C":{"a":2,"b":8},"D":{"a":8,"b":2}},"conditions":["nonSeqFull","nonSeqPartial","seqNoFeedback","seqFeedback"],"classroomPairings":[["A","B"],["C","D"]],"coinWeights":[0.2,0.5,0.8],"subjectId":"A2LMQ4497NMK3S","assignmentId":"31UV0MXWNRYLGTKSZBZ0CRLXR4WI5R","hitId":"3Z3R5YC0P3915KVY8X6BNRIWSQNFTT","url":"https://gershmanlab.com/experiments/alicia/teaching/experiment/?hitId=3Z3R5YC0P3915KVY8X6BNRIWSQNFTT&workerId=A2LMQ4497NMK3S&assignmentId=31UV0MXWNRYLGTKSZBZ0CRLXR4WI5R&a=W0U19&tp_a=W0U19&b=31UV0MXWNRYLGTKSZBZ0CRLXR4WI5R&tp_b=31UV0MXWNRYLGTKSZBZ0CRLXR4WI5R&c=365799&tp_c=365799"},{"rt":4303,"stimulus":"\n                <p>Student 2's first guess for coin weight: <b style=\"color:Tomato\";>0.20</b></p>\n                <p>Student 2's second guess for coin weight: <b style=\"color:Tomato\";>0.20</b></p>\n                <p>You received a bonus of <b>$0.50</b> based on the student's second guess.</p>\n                <p>Total bonus so far: <b>$0.98</b></p>\n                <p>Press any key to continue.</p>\n                ","response":" ","trial_type":"html-keyboard-response","trial_index":22,"time_elapsed":310926,"internal_node_id":"0.0-19.0","params":{"nStudents":24,"maxFlips":30,"completionMinutes":45,"basePay":8,"maxBonus":9,"perTrialBonus":0.5,"perTrialBonusThreshold":0.05,"exampleCost":0.01},"classroomParams":{"A":{"a":1,"b":4},"B":{"a":4,"b":1},"C":{"a":2,"b":8},"D":{"a":8,"b":2}},"conditions":["nonSeqFull","nonSeqPartial","seqNoFeedback","seqFeedback"],"classroomPairings":[["A","B"],["C","D"]],"coinWeights":[0.2,0.5,0.8],"subjectId":"A2LMQ4497NMK3S","assignmentId":"31UV0MXWNRYLGTKSZBZ0CRLXR4WI5R","hitId":"3Z3R5YC0P3915KVY8X6BNRIWSQNFTT","url":"https://gershmanlab.com/experiments/alicia/teaching/experiment/?hitId=3Z3R5YC0P3915KVY8X6BNRIWSQNFTT&workerId=A2LMQ4497NMK3S&assignmentId=31UV0MXWNRYLGTKSZBZ0CRLXR4WI5R&a=W0U19&tp_a=W0U19&b=31UV0MXWNRYLGTKSZBZ0CRLXR4WI5R&tp_b=31UV0MXWNRYLGTKSZBZ0CRLXR4WI5R&c=365799&tp_c=365799"},{"rt":null,"stimulus":"<div style=\"font-size:60px;\">Next student</div>","response":null,"trial_type":"html-keyboard-response","trial_index":23,"time_elapsed":313930,"internal_node_id":"0.0-20.0-0.0","params":{"nStudents":24,"maxFlips":30,"completionMinutes":45,"basePay":8,"maxBonus":9,"perTrialBonus":0.5,"perTrialBonusThreshold":0.05,"exampleCost":0.01},"classroomParams":{"A":{"a":1,"b":4},"B":{"a":4,"b":1},"C":{"a":2,"b":8},"D":{"a":8,"b":2}},"conditions":["nonSeqFull","nonSeqPartial","seqNoFeedback","seqFeedback"],"classroomPairings":[["A","B"],["C","D"]],"coinWeights":[0.2,0.5,0.8],"subjectId":"A2LMQ4497NMK3S","assignmentId":"31UV0MXWNRYLGTKSZBZ0CRLXR4WI5R","hitId":"3Z3R5YC0P3915KVY8X6BNRIWSQNFTT","url":"https://gershmanlab.com/experiments/alicia/teaching/experiment/?hitId=3Z3R5YC0P3915KVY8X6BNRIWSQNFTT&workerId=A2LMQ4497NMK3S&assignmentId=31UV0MXWNRYLGTKSZBZ0CRLXR4WI5R&a=W0U19&tp_a=W0U19&b=31UV0MXWNRYLGTKSZBZ0CRLXR4WI5R&tp_b=31UV0MXWNRYLGTKSZBZ0CRLXR4WI5R&c=365799&tp_c=365799"},{"rt":8217,"stimulus":"\n            <h4 style=\"color:Orange;\">Student 3</h4>\n            <h2>The weight of your coin is <b style=\"color:Tomato;\">0.8</b>.</h2>\n            <p>In this block, you will be giving <b>one</b> set of examples to Student 3.</p>\n                <p>You will receive feedback at the end of the block.</p>\n            <p></p>","response":0,"trial_type":"html-button-response","trial_index":24,"time_elapsed":322148,"internal_node_id":"0.0-21.0","params":{"nStudents":24,"maxFlips":30,"completionMinutes":45,"basePay":8,"maxBonus":9,"perTrialBonus":0.5,"perTrialBonusThreshold":0.05,"exampleCost":0.01},"classroomParams":{"A":{"a":1,"b":4},"B":{"a":4,"b":1},"C":{"a":2,"b":8},"D":{"a":8,"b":2}},"conditions":["nonSeqFull","nonSeqPartial","seqNoFeedback","seqFeedback"],"classroomPairings":[["A","B"],["C","D"]],"coinWeights":[0.2,0.5,0.8],"subjectId":"A2LMQ4497NMK3S","assignmentId":"31UV0MXWNRYLGTKSZBZ0CRLXR4WI5R","hitId":"3Z3R5YC0P3915KVY8X6BNRIWSQNFTT","url":"https://gershmanlab.com/experiments/alicia/teaching/experiment/?hitId=3Z3R5YC0P3915KVY8X6BNRIWSQNFTT&workerId=A2LMQ4497NMK3S&assignmentId=31UV0MXWNRYLGTKSZBZ0CRLXR4WI5R&a=W0U19&tp_a=W0U19&b=31UV0MXWNRYLGTKSZBZ0CRLXR4WI5R&tp_b=31UV0MXWNRYLGTKSZBZ0CRLXR4WI5R&c=365799&tp_c=365799"},{"rt":39807,"response":{"heads":"1","tails":"0"},"type":"response","condition":"nonSeqPartial","trueTheta":0.8,"classrooms":["C","D"],"studentTrueClassroom":"D","exampleSet":"first","trial_type":"survey-html-form","trial_index":25,"time_elapsed":361957,"internal_node_id":"0.0-22.0-0.0","params":{"nStudents":24,"maxFlips":30,"completionMinutes":45,"basePay":8,"maxBonus":9,"perTrialBonus":0.5,"perTrialBonusThreshold":0.05,"exampleCost":0.01},"classroomParams":{"A":{"a":1,"b":4},"B":{"a":4,"b":1},"C":{"a":2,"b":8},"D":{"a":8,"b":2}},"conditions":["nonSeqFull","nonSeqPartial","seqNoFeedback","seqFeedback"],"classroomPairings":[["A","B"],["C","D"]],"coinWeights":[0.2,0.5,0.8],"subjectId":"A2LMQ4497NMK3S","assignmentId":"31UV0MXWNRYLGTKSZBZ0CRLXR4WI5R","hitId":"3Z3R5YC0P3915KVY8X6BNRIWSQNFTT","url":"https://gershmanlab.com/experiments/alicia/teaching/experiment/?hitId=3Z3R5YC0P3915KVY8X6BNRIWSQNFTT&workerId=A2LMQ4497NMK3S&assignmentId=31UV0MXWNRYLGTKSZBZ0CRLXR4WI5R&a=W0U19&tp_a=W0U19&b=31UV0MXWNRYLGTKSZBZ0CRLXR4WI5R&tp_b=31UV0MXWNRYLGTKSZBZ0CRLXR4WI5R&c=365799&tp_c=365799","heads":1,"tails":0,"studentIndex":2,"studentTrueHypers":{"a":8,"b":2},"studentGuess":0.8181818181818182,"delta":0.018181818181818188,"totalExamples":1,"bonus":0.49,"bonusSoFar":1.47},{"rt":null,"stimulus":"Sending examples to student... ","response":null,"trial_type":"html-keyboard-response","trial_index":26,"time_elapsed":363716,"internal_node_id":"0.0-23.0","params":{"nStudents":24,"maxFlips":30,"completionMinutes":45,"basePay":8,"maxBonus":9,"perTrialBonus":0.5,"perTrialBonusThreshold":0.05,"exampleCost":0.01},"classroomParams":{"A":{"a":1,"b":4},"B":{"a":4,"b":1},"C":{"a":2,"b":8},"D":{"a":8,"b":2}},"conditions":["nonSeqFull","nonSeqPartial","seqNoFeedback","seqFeedback"],"classroomPairings":[["A","B"],["C","D"]],"coinWeights":[0.2,0.5,0.8],"subjectId":"A2LMQ4497NMK3S","assignmentId":"31UV0MXWNRYLGTKSZBZ0CRLXR4WI5R","hitId":"3Z3R5YC0P3915KVY8X6BNRIWSQNFTT","url":"https://gershmanlab.com/experiments/alicia/teaching/experiment/?hitId=3Z3R5YC0P3915KVY8X6BNRIWSQNFTT&workerId=A2LMQ4497NMK3S&assignmentId=31UV0MXWNRYLGTKSZBZ0CRLXR4WI5R&a=W0U19&tp_a=W0U19&b=31UV0MXWNRYLGTKSZBZ0CRLXR4WI5R&tp_b=31UV0MXWNRYLGTKSZBZ0CRLXR4WI5R&c=365799&tp_c=365799"},{"rt":null,"stimulus":"Examples sent to student! Waiting for student...","response":null,"trial_type":"html-keyboard-response","trial_index":27,"time_elapsed":369237,"internal_node_id":"0.0-24.0","params":{"nStudents":24,"maxFlips":30,"completionMinutes":45,"basePay":8,"maxBonus":9,"perTrialBonus":0.5,"perTrialBonusThreshold":0.05,"exampleCost":0.01},"classroomParams":{"A":{"a":1,"b":4},"B":{"a":4,"b":1},"C":{"a":2,"b":8},"D":{"a":8,"b":2}},"conditions":["nonSeqFull","nonSeqPartial","seqNoFeedback","seqFeedback"],"classroomPairings":[["A","B"],["C","D"]],"coinWeights":[0.2,0.5,0.8],"subjectId":"A2LMQ4497NMK3S","assignmentId":"31UV0MXWNRYLGTKSZBZ0CRLXR4WI5R","hitId":"3Z3R5YC0P3915KVY8X6BNRIWSQNFTT","url":"https://gershmanlab.com/experiments/alicia/teaching/experiment/?hitId=3Z3R5YC0P3915KVY8X6BNRIWSQNFTT&workerId=A2LMQ4497NMK3S&assignmentId=31UV0MXWNRYLGTKSZBZ0CRLXR4WI5R&a=W0U19&tp_a=W0U19&b=31UV0MXWNRYLGTKSZBZ0CRLXR4WI5R&tp_b=31UV0MXWNRYLGTKSZBZ0CRLXR4WI5R&c=365799&tp_c=365799"},{"rt":8472,"stimulus":"\n                <p>Student's guess for coin weight: <b style=\"color:Tomato;\">0.82</b></p>\n                <p>You received a bonus of <b>$0.49</b>. Total bonus so far: <b>$1.47</b></b></p>\n                <p></p>\n                <p>Press any key to continue.</p>\n                ","response":" ","trial_type":"html-keyboard-response","trial_index":28,"time_elapsed":377710,"internal_node_id":"0.0-25.0","params":{"nStudents":24,"maxFlips":30,"completionMinutes":45,"basePay":8,"maxBonus":9,"perTrialBonus":0.5,"perTrialBonusThreshold":0.05,"exampleCost":0.01},"classroomParams":{"A":{"a":1,"b":4},"B":{"a":4,"b":1},"C":{"a":2,"b":8},"D":{"a":8,"b":2}},"conditions":["nonSeqFull","nonSeqPartial","seqNoFeedback","seqFeedback"],"classroomPairings":[["A","B"],["C","D"]],"coinWeights":[0.2,0.5,0.8],"subjectId":"A2LMQ4497NMK3S","assignmentId":"31UV0MXWNRYLGTKSZBZ0CRLXR4WI5R","hitId":"3Z3R5YC0P3915KVY8X6BNRIWSQNFTT","url":"https://gershmanlab.com/experiments/alicia/teaching/experiment/?hitId=3Z3R5YC0P3915KVY8X6BNRIWSQNFTT&workerId=A2LMQ4497NMK3S&assignmentId=31UV0MXWNRYLGTKSZBZ0CRLXR4WI5R&a=W0U19&tp_a=W0U19&b=31UV0MXWNRYLGTKSZBZ0CRLXR4WI5R&tp_b=31UV0MXWNRYLGTKSZBZ0CRLXR4WI5R&c=365799&tp_c=365799"},{"rt":null,"stimulus":"<div style=\"font-size:60px;\">Next student</div>","response":null,"trial_type":"html-keyboard-response","trial_index":29,"time_elapsed":380715,"internal_node_id":"0.0-26.0-0.0","params":{"nStudents":24,"maxFlips":30,"completionMinutes":45,"basePay":8,"maxBonus":9,"perTrialBonus":0.5,"perTrialBonusThreshold":0.05,"exampleCost":0.01},"classroomParams":{"A":{"a":1,"b":4},"B":{"a":4,"b":1},"C":{"a":2,"b":8},"D":{"a":8,"b":2}},"conditions":["nonSeqFull","nonSeqPartial","seqNoFeedback","seqFeedback"],"classroomPairings":[["A","B"],["C","D"]],"coinWeights":[0.2,0.5,0.8],"subjectId":"A2LMQ4497NMK3S","assignmentId":"31UV0MXWNRYLGTKSZBZ0CRLXR4WI5R","hitId":"3Z3R5YC0P3915KVY8X6BNRIWSQNFTT","url":"https://gershmanlab.com/experiments/alicia/teaching/experiment/?hitId=3Z3R5YC0P3915KVY8X6BNRIWSQNFTT&workerId=A2LMQ4497NMK3S&assignmentId=31UV0MXWNRYLGTKSZBZ0CRLXR4WI5R&a=W0U19&tp_a=W0U19&b=31UV0MXWNRYLGTKSZBZ0CRLXR4WI5R&tp_b=31UV0MXWNRYLGTKSZBZ0CRLXR4WI5R&c=365799&tp_c=365799"},{"rt":4030,"stimulus":"\n            <h4 style=\"color:Orange;\">Student 4</h4>\n            <h2>The weight of your coin is <b style=\"color:Tomato;\">0.5</b>.</h2>\n            <p>In this block, you will be giving <b>one</b> set of examples to Student 4.</p>\n                <p>You will receive feedback at the end of the block.</p>\n            <p></p>","response":0,"trial_type":"html-button-response","trial_index":30,"time_elapsed":384747,"internal_node_id":"0.0-27.0","params":{"nStudents":24,"maxFlips":30,"completionMinutes":45,"basePay":8,"maxBonus":9,"perTrialBonus":0.5,"perTrialBonusThreshold":0.05,"exampleCost":0.01},"classroomParams":{"A":{"a":1,"b":4},"B":{"a":4,"b":1},"C":{"a":2,"b":8},"D":{"a":8,"b":2}},"conditions":["nonSeqFull","nonSeqPartial","seqNoFeedback","seqFeedback"],"classroomPairings":[["A","B"],["C","D"]],"coinWeights":[0.2,0.5,0.8],"subjectId":"A2LMQ4497NMK3S","assignmentId":"31UV0MXWNRYLGTKSZBZ0CRLXR4WI5R","hitId":"3Z3R5YC0P3915KVY8X6BNRIWSQNFTT","url":"https://gershmanlab.com/experiments/alicia/teaching/experiment/?hitId=3Z3R5YC0P3915KVY8X6BNRIWSQNFTT&workerId=A2LMQ4497NMK3S&assignmentId=31UV0MXWNRYLGTKSZBZ0CRLXR4WI5R&a=W0U19&tp_a=W0U19&b=31UV0MXWNRYLGTKSZBZ0CRLXR4WI5R&tp_b=31UV0MXWNRYLGTKSZBZ0CRLXR4WI5R&c=365799&tp_c=365799"},{"rt":9599,"response":{"heads":"6","tails":"0"},"type":"response","condition":"nonSeqFull","trueTheta":0.5,"classrooms":["C","D"],"studentTrueClassroom":"C","exampleSet":"first","trial_type":"survey-html-form","trial_index":31,"time_elapsed":394347,"internal_node_id":"0.0-28.0-0.0","params":{"nStudents":24,"maxFlips":30,"completionMinutes":45,"basePay":8,"maxBonus":9,"perTrialBonus":0.5,"perTrialBonusThreshold":0.05,"exampleCost":0.01},"classroomParams":{"A":{"a":1,"b":4},"B":{"a":4,"b":1},"C":{"a":2,"b":8},"D":{"a":8,"b":2}},"conditions":["nonSeqFull","nonSeqPartial","seqNoFeedback","seqFeedback"],"classroomPairings":[["A","B"],["C","D"]],"coinWeights":[0.2,0.5,0.8],"subjectId":"A2LMQ4497NMK3S","assignmentId":"31UV0MXWNRYLGTKSZBZ0CRLXR4WI5R","hitId":"3Z3R5YC0P3915KVY8X6BNRIWSQNFTT","url":"https://gershmanlab.com/experiments/alicia/teaching/experiment/?hitId=3Z3R5YC0P3915KVY8X6BNRIWSQNFTT&workerId=A2LMQ4497NMK3S&assignmentId=31UV0MXWNRYLGTKSZBZ0CRLXR4WI5R&a=W0U19&tp_a=W0U19&b=31UV0MXWNRYLGTKSZBZ0CRLXR4WI5R&tp_b=31UV0MXWNRYLGTKSZBZ0CRLXR4WI5R&c=365799&tp_c=365799","heads":6,"tails":0,"studentIndex":3,"studentTrueHypers":{"a":2,"b":8},"studentGuess":0.5,"delta":0,"totalExamples":6,"bonus":0.44,"bonusSoFar":1.91},{"rt":null,"stimulus":"Sending examples to student... ","response":null,"trial_type":"html-keyboard-response","trial_index":32,"time_elapsed":395854,"internal_node_id":"0.0-29.0","params":{"nStudents":24,"maxFlips":30,"completionMinutes":45,"basePay":8,"maxBonus":9,"perTrialBonus":0.5,"perTrialBonusThreshold":0.05,"exampleCost":0.01},"classroomParams":{"A":{"a":1,"b":4},"B":{"a":4,"b":1},"C":{"a":2,"b":8},"D":{"a":8,"b":2}},"conditions":["nonSeqFull","nonSeqPartial","seqNoFeedback","seqFeedback"],"classroomPairings":[["A","B"],["C","D"]],"coinWeights":[0.2,0.5,0.8],"subjectId":"A2LMQ4497NMK3S","assignmentId":"31UV0MXWNRYLGTKSZBZ0CRLXR4WI5R","hitId":"3Z3R5YC0P3915KVY8X6BNRIWSQNFTT","url":"https://gershmanlab.com/experiments/alicia/teaching/experiment/?hitId=3Z3R5YC0P3915KVY8X6BNRIWSQNFTT&workerId=A2LMQ4497NMK3S&assignmentId=31UV0MXWNRYLGTKSZBZ0CRLXR4WI5R&a=W0U19&tp_a=W0U19&b=31UV0MXWNRYLGTKSZBZ0CRLXR4WI5R&tp_b=31UV0MXWNRYLGTKSZBZ0CRLXR4WI5R&c=365799&tp_c=365799"},{"rt":null,"stimulus":"Examples sent to student! Waiting for student...","response":null,"trial_type":"html-keyboard-response","trial_index":33,"time_elapsed":400367,"internal_node_id":"0.0-30.0","params":{"nStudents":24,"maxFlips":30,"completionMinutes":45,"basePay":8,"maxBonus":9,"perTrialBonus":0.5,"perTrialBonusThreshold":0.05,"exampleCost":0.01},"classroomParams":{"A":{"a":1,"b":4},"B":{"a":4,"b":1},"C":{"a":2,"b":8},"D":{"a":8,"b":2}},"conditions":["nonSeqFull","nonSeqPartial","seqNoFeedback","seqFeedback"],"classroomPairings":[["A","B"],["C","D"]],"coinWeights":[0.2,0.5,0.8],"subjectId":"A2LMQ4497NMK3S","assignmentId":"31UV0MXWNRYLGTKSZBZ0CRLXR4WI5R","hitId":"3Z3R5YC0P3915KVY8X6BNRIWSQNFTT","url":"https://gershmanlab.com/experiments/alicia/teaching/experiment/?hitId=3Z3R5YC0P3915KVY8X6BNRIWSQNFTT&workerId=A2LMQ4497NMK3S&assignmentId=31UV0MXWNRYLGTKSZBZ0CRLXR4WI5R&a=W0U19&tp_a=W0U19&b=31UV0MXWNRYLGTKSZBZ0CRLXR4WI5R&tp_b=31UV0MXWNRYLGTKSZBZ0CRLXR4WI5R&c=365799&tp_c=365799"},{"rt":2277,"stimulus":"\n                <p>Student's guess for coin weight: <b style=\"color:Tomato;\">0.50</b></p>\n                <p>You received a bonus of <b>$0.44</b>. Total bonus so far: <b>$1.91</b></b></p>\n                <p></p>\n                <p>Press any key to continue.</p>\n                ","response":" ","trial_type":"html-keyboard-response","trial_index":34,"time_elapsed":402646,"internal_node_id":"0.0-31.0","params":{"nStudents":24,"maxFlips":30,"completionMinutes":45,"basePay":8,"maxBonus":9,"perTrialBonus":0.5,"perTrialBonusThreshold":0.05,"exampleCost":0.01},"classroomParams":{"A":{"a":1,"b":4},"B":{"a":4,"b":1},"C":{"a":2,"b":8},"D":{"a":8,"b":2}},"conditions":["nonSeqFull","nonSeqPartial","seqNoFeedback","seqFeedback"],"classroomPairings":[["A","B"],["C","D"]],"coinWeights":[0.2,0.5,0.8],"subjectId":"A2LMQ4497NMK3S","assignmentId":"31UV0MXWNRYLGTKSZBZ0CRLXR4WI5R","hitId":"3Z3R5YC0P3915KVY8X6BNRIWSQNFTT","url":"https://gershmanlab.com/experiments/alicia/teaching/experiment/?hitId=3Z3R5YC0P3915KVY8X6BNRIWSQNFTT&workerId=A2LMQ4497NMK3S&assignmentId=31UV0MXWNRYLGTKSZBZ0CRLXR4WI5R&a=W0U19&tp_a=W0U19&b=31UV0MXWNRYLGTKSZBZ0CRLXR4WI5R&tp_b=31UV0MXWNRYLGTKSZBZ0CRLXR4WI5R&c=365799&tp_c=365799"},{"rt":null,"stimulus":"<div style=\"font-size:60px;\">Next student</div>","response":null,"trial_type":"html-keyboard-response","trial_index":35,"time_elapsed":404897,"internal_node_id":"0.0-32.0-0.0","params":{"nStudents":24,"maxFlips":30,"completionMinutes":45,"basePay":8,"maxBonus":9,"perTrialBonus":0.5,"perTrialBonusThreshold":0.05,"exampleCost":0.01},"classroomParams":{"A":{"a":1,"b":4},"B":{"a":4,"b":1},"C":{"a":2,"b":8},"D":{"a":8,"b":2}},"conditions":["nonSeqFull","nonSeqPartial","seqNoFeedback","seqFeedback"],"classroomPairings":[["A","B"],["C","D"]],"coinWeights":[0.2,0.5,0.8],"subjectId":"A2LMQ4497NMK3S","assignmentId":"31UV0MXWNRYLGTKSZBZ0CRLXR4WI5R","hitId":"3Z3R5YC0P3915KVY8X6BNRIWSQNFTT","url":"https://gershmanlab.com/experiments/alicia/teaching/experiment/?hitId=3Z3R5YC0P3915KVY8X6BNRIWSQNFTT&workerId=A2LMQ4497NMK3S&assignmentId=31UV0MXWNRYLGTKSZBZ0CRLXR4WI5R&a=W0U19&tp_a=W0U19&b=31UV0MXWNRYLGTKSZBZ0CRLXR4WI5R&tp_b=31UV0MXWNRYLGTKSZBZ0CRLXR4WI5R&c=365799&tp_c=365799"},{"rt":4090,"stimulus":"\n            <h4 style=\"color:Orange;\">Student 5</h4>\n            <h2>The weight of your coin is <b style=\"color:Tomato;\">0.8</b>.</h2>\n            <p>In this block, you will be giving <b>two</b> sets of examples to Student 5.</p>\n                <p>You will receive feedback at the end of the block.</p>\n            <p></p>","response":0,"trial_type":"html-button-response","trial_index":36,"time_elapsed":408988,"internal_node_id":"0.0-33.0","params":{"nStudents":24,"maxFlips":30,"completionMinutes":45,"basePay":8,"maxBonus":9,"perTrialBonus":0.5,"perTrialBonusThreshold":0.05,"exampleCost":0.01},"classroomParams":{"A":{"a":1,"b":4},"B":{"a":4,"b":1},"C":{"a":2,"b":8},"D":{"a":8,"b":2}},"conditions":["nonSeqFull","nonSeqPartial","seqNoFeedback","seqFeedback"],"classroomPairings":[["A","B"],["C","D"]],"coinWeights":[0.2,0.5,0.8],"subjectId":"A2LMQ4497NMK3S","assignmentId":"31UV0MXWNRYLGTKSZBZ0CRLXR4WI5R","hitId":"3Z3R5YC0P3915KVY8X6BNRIWSQNFTT","url":"https://gershmanlab.com/experiments/alicia/teaching/experiment/?hitId=3Z3R5YC0P3915KVY8X6BNRIWSQNFTT&workerId=A2LMQ4497NMK3S&assignmentId=31UV0MXWNRYLGTKSZBZ0CRLXR4WI5R&a=W0U19&tp_a=W0U19&b=31UV0MXWNRYLGTKSZBZ0CRLXR4WI5R&tp_b=31UV0MXWNRYLGTKSZBZ0CRLXR4WI5R&c=365799&tp_c=365799"},{"rt":14725,"response":{"heads":"1","tails":"0"},"type":"response","condition":"seqNoFeedback","trueTheta":0.8,"classrooms":["A","B"],"studentTrueClassroom":"A","exampleSet":"first","trial_type":"survey-html-form","trial_index":37,"time_elapsed":423715,"internal_node_id":"0.0-34.0-0.0","params":{"nStudents":24,"maxFlips":30,"completionMinutes":45,"basePay":8,"maxBonus":9,"perTrialBonus":0.5,"perTrialBonusThreshold":0.05,"exampleCost":0.01},"classroomParams":{"A":{"a":1,"b":4},"B":{"a":4,"b":1},"C":{"a":2,"b":8},"D":{"a":8,"b":2}},"conditions":["nonSeqFull","nonSeqPartial","seqNoFeedback","seqFeedback"],"classroomPairings":[["A","B"],["C","D"]],"coinWeights":[0.2,0.5,0.8],"subjectId":"A2LMQ4497NMK3S","assignmentId":"31UV0MXWNRYLGTKSZBZ0CRLXR4WI5R","hitId":"3Z3R5YC0P3915KVY8X6BNRIWSQNFTT","url":"https://gershmanlab.com/experiments/alicia/teaching/experiment/?hitId=3Z3R5YC0P3915KVY8X6BNRIWSQNFTT&workerId=A2LMQ4497NMK3S&assignmentId=31UV0MXWNRYLGTKSZBZ0CRLXR4WI5R&a=W0U19&tp_a=W0U19&b=31UV0MXWNRYLGTKSZBZ0CRLXR4WI5R&tp_b=31UV0MXWNRYLGTKSZBZ0CRLXR4WI5R&c=365799&tp_c=365799","heads":1,"tails":0,"studentIndex":4,"studentTrueHypers":{"a":1,"b":4},"studentGuess":0.3333333333333333,"delta":0.46666666666666673,"totalExamples":1,"bonusSoFar":1.91},{"rt":null,"stimulus":"Sending examples to student... ","response":null,"trial_type":"html-keyboard-response","trial_index":38,"time_elapsed":424972,"internal_node_id":"0.0-35.0","params":{"nStudents":24,"maxFlips":30,"completionMinutes":45,"basePay":8,"maxBonus":9,"perTrialBonus":0.5,"perTrialBonusThreshold":0.05,"exampleCost":0.01},"classroomParams":{"A":{"a":1,"b":4},"B":{"a":4,"b":1},"C":{"a":2,"b":8},"D":{"a":8,"b":2}},"conditions":["nonSeqFull","nonSeqPartial","seqNoFeedback","seqFeedback"],"classroomPairings":[["A","B"],["C","D"]],"coinWeights":[0.2,0.5,0.8],"subjectId":"A2LMQ4497NMK3S","assignmentId":"31UV0MXWNRYLGTKSZBZ0CRLXR4WI5R","hitId":"3Z3R5YC0P3915KVY8X6BNRIWSQNFTT","url":"https://gershmanlab.com/experiments/alicia/teaching/experiment/?hitId=3Z3R5YC0P3915KVY8X6BNRIWSQNFTT&workerId=A2LMQ4497NMK3S&assignmentId=31UV0MXWNRYLGTKSZBZ0CRLXR4WI5R&a=W0U19&tp_a=W0U19&b=31UV0MXWNRYLGTKSZBZ0CRLXR4WI5R&tp_b=31UV0MXWNRYLGTKSZBZ0CRLXR4WI5R&c=365799&tp_c=365799"},{"rt":null,"stimulus":"Examples sent to student! Waiting for student...","response":null,"trial_type":"html-keyboard-response","trial_index":39,"time_elapsed":429974,"internal_node_id":"0.0-36.0","params":{"nStudents":24,"maxFlips":30,"completionMinutes":45,"basePay":8,"maxBonus":9,"perTrialBonus":0.5,"perTrialBonusThreshold":0.05,"exampleCost":0.01},"classroomParams":{"A":{"a":1,"b":4},"B":{"a":4,"b":1},"C":{"a":2,"b":8},"D":{"a":8,"b":2}},"conditions":["nonSeqFull","nonSeqPartial","seqNoFeedback","seqFeedback"],"classroomPairings":[["A","B"],["C","D"]],"coinWeights":[0.2,0.5,0.8],"subjectId":"A2LMQ4497NMK3S","assignmentId":"31UV0MXWNRYLGTKSZBZ0CRLXR4WI5R","hitId":"3Z3R5YC0P3915KVY8X6BNRIWSQNFTT","url":"https://gershmanlab.com/experiments/alicia/teaching/experiment/?hitId=3Z3R5YC0P3915KVY8X6BNRIWSQNFTT&workerId=A2LMQ4497NMK3S&assignmentId=31UV0MXWNRYLGTKSZBZ0CRLXR4WI5R&a=W0U19&tp_a=W0U19&b=31UV0MXWNRYLGTKSZBZ0CRLXR4WI5R&tp_b=31UV0MXWNRYLGTKSZBZ0CRLXR4WI5R&c=365799&tp_c=365799"},{"rt":12447,"response":{"heads":"1","tails":"0"},"type":"response","condition":"seqNoFeedback","trueTheta":0.8,"classrooms":["A","B"],"studentTrueClassroom":"A","exampleSet":"second","trial_type":"survey-html-form","trial_index":40,"time_elapsed":442423,"internal_node_id":"0.0-37.0-0.0","params":{"nStudents":24,"maxFlips":30,"completionMinutes":45,"basePay":8,"maxBonus":9,"perTrialBonus":0.5,"perTrialBonusThreshold":0.05,"exampleCost":0.01},"classroomParams":{"A":{"a":1,"b":4},"B":{"a":4,"b":1},"C":{"a":2,"b":8},"D":{"a":8,"b":2}},"conditions":["nonSeqFull","nonSeqPartial","seqNoFeedback","seqFeedback"],"classroomPairings":[["A","B"],["C","D"]],"coinWeights":[0.2,0.5,0.8],"subjectId":"A2LMQ4497NMK3S","assignmentId":"31UV0MXWNRYLGTKSZBZ0CRLXR4WI5R","hitId":"3Z3R5YC0P3915KVY8X6BNRIWSQNFTT","url":"https://gershmanlab.com/experiments/alicia/teaching/experiment/?hitId=3Z3R5YC0P3915KVY8X6BNRIWSQNFTT&workerId=A2LMQ4497NMK3S&assignmentId=31UV0MXWNRYLGTKSZBZ0CRLXR4WI5R&a=W0U19&tp_a=W0U19&b=31UV0MXWNRYLGTKSZBZ0CRLXR4WI5R&tp_b=31UV0MXWNRYLGTKSZBZ0CRLXR4WI5R&c=365799&tp_c=365799","firstResponseHeads":1,"firstResponseTails":0,"secondResponseHeads":1,"secondResponseTails":0,"totalHeads":2,"totalTails":0,"studentIndex":4,"studentTrueHypers":{"a":1,"b":4},"studentGuess":0.42857142857142855,"delta":0.3714285714285715,"bonus":0,"bonusSoFar":1.91,"totalExamples":2},{"rt":null,"stimulus":"Sending examples to student... ","response":null,"trial_type":"html-keyboard-response","trial_index":41,"time_elapsed":443928,"internal_node_id":"0.0-38.0","params":{"nStudents":24,"maxFlips":30,"completionMinutes":45,"basePay":8,"maxBonus":9,"perTrialBonus":0.5,"perTrialBonusThreshold":0.05,"exampleCost":0.01},"classroomParams":{"A":{"a":1,"b":4},"B":{"a":4,"b":1},"C":{"a":2,"b":8},"D":{"a":8,"b":2}},"conditions":["nonSeqFull","nonSeqPartial","seqNoFeedback","seqFeedback"],"classroomPairings":[["A","B"],["C","D"]],"coinWeights":[0.2,0.5,0.8],"subjectId":"A2LMQ4497NMK3S","assignmentId":"31UV0MXWNRYLGTKSZBZ0CRLXR4WI5R","hitId":"3Z3R5YC0P3915KVY8X6BNRIWSQNFTT","url":"https://gershmanlab.com/experiments/alicia/teaching/experiment/?hitId=3Z3R5YC0P3915KVY8X6BNRIWSQNFTT&workerId=A2LMQ4497NMK3S&assignmentId=31UV0MXWNRYLGTKSZBZ0CRLXR4WI5R&a=W0U19&tp_a=W0U19&b=31UV0MXWNRYLGTKSZBZ0CRLXR4WI5R&tp_b=31UV0MXWNRYLGTKSZBZ0CRLXR4WI5R&c=365799&tp_c=365799"},{"rt":null,"stimulus":"Examples sent to student! Waiting for student...","response":null,"trial_type":"html-keyboard-response","trial_index":42,"time_elapsed":449437,"internal_node_id":"0.0-39.0","params":{"nStudents":24,"maxFlips":30,"completionMinutes":45,"basePay":8,"maxBonus":9,"perTrialBonus":0.5,"perTrialBonusThreshold":0.05,"exampleCost":0.01},"classroomParams":{"A":{"a":1,"b":4},"B":{"a":4,"b":1},"C":{"a":2,"b":8},"D":{"a":8,"b":2}},"conditions":["nonSeqFull","nonSeqPartial","seqNoFeedback","seqFeedback"],"classroomPairings":[["A","B"],["C","D"]],"coinWeights":[0.2,0.5,0.8],"subjectId":"A2LMQ4497NMK3S","assignmentId":"31UV0MXWNRYLGTKSZBZ0CRLXR4WI5R","hitId":"3Z3R5YC0P3915KVY8X6BNRIWSQNFTT","url":"https://gershmanlab.com/experiments/alicia/teaching/experiment/?hitId=3Z3R5YC0P3915KVY8X6BNRIWSQNFTT&workerId=A2LMQ4497NMK3S&assignmentId=31UV0MXWNRYLGTKSZBZ0CRLXR4WI5R&a=W0U19&tp_a=W0U19&b=31UV0MXWNRYLGTKSZBZ0CRLXR4WI5R&tp_b=31UV0MXWNRYLGTKSZBZ0CRLXR4WI5R&c=365799&tp_c=365799"},{"rt":7152,"stimulus":"\n                <p>Student 5's first guess for coin weight: <b style=\"color:Tomato\";>0.33</b></p>\n                <p>Student 5's second guess for coin weight: <b style=\"color:Tomato\";>0.43</b></p>\n                <p>You received a bonus of <b>$0.00</b> based on the student's second guess.</p>\n                <p>Total bonus so far: <b>$1.91</b></p>\n                <p>Press any key to continue.</p>\n                ","response":" ","trial_type":"html-keyboard-response","trial_index":43,"time_elapsed":456590,"internal_node_id":"0.0-40.0","params":{"nStudents":24,"maxFlips":30,"completionMinutes":45,"basePay":8,"maxBonus":9,"perTrialBonus":0.5,"perTrialBonusThreshold":0.05,"exampleCost":0.01},"classroomParams":{"A":{"a":1,"b":4},"B":{"a":4,"b":1},"C":{"a":2,"b":8},"D":{"a":8,"b":2}},"conditions":["nonSeqFull","nonSeqPartial","seqNoFeedback","seqFeedback"],"classroomPairings":[["A","B"],["C","D"]],"coinWeights":[0.2,0.5,0.8],"subjectId":"A2LMQ4497NMK3S","assignmentId":"31UV0MXWNRYLGTKSZBZ0CRLXR4WI5R","hitId":"3Z3R5YC0P3915KVY8X6BNRIWSQNFTT","url":"https://gershmanlab.com/experiments/alicia/teaching/experiment/?hitId=3Z3R5YC0P3915KVY8X6BNRIWSQNFTT&workerId=A2LMQ4497NMK3S&assignmentId=31UV0MXWNRYLGTKSZBZ0CRLXR4WI5R&a=W0U19&tp_a=W0U19&b=31UV0MXWNRYLGTKSZBZ0CRLXR4WI5R&tp_b=31UV0MXWNRYLGTKSZBZ0CRLXR4WI5R&c=365799&tp_c=365799"},{"rt":null,"stimulus":"<div style=\"font-size:60px;\">Next student</div>","response":null,"trial_type":"html-keyboard-response","trial_index":44,"time_elapsed":458847,"internal_node_id":"0.0-41.0-0.0","params":{"nStudents":24,"maxFlips":30,"completionMinutes":45,"basePay":8,"maxBonus":9,"perTrialBonus":0.5,"perTrialBonusThreshold":0.05,"exampleCost":0.01},"classroomParams":{"A":{"a":1,"b":4},"B":{"a":4,"b":1},"C":{"a":2,"b":8},"D":{"a":8,"b":2}},"conditions":["nonSeqFull","nonSeqPartial","seqNoFeedback","seqFeedback"],"classroomPairings":[["A","B"],["C","D"]],"coinWeights":[0.2,0.5,0.8],"subjectId":"A2LMQ4497NMK3S","assignmentId":"31UV0MXWNRYLGTKSZBZ0CRLXR4WI5R","hitId":"3Z3R5YC0P3915KVY8X6BNRIWSQNFTT","url":"https://gershmanlab.com/experiments/alicia/teaching/experiment/?hitId=3Z3R5YC0P3915KVY8X6BNRIWSQNFTT&workerId=A2LMQ4497NMK3S&assignmentId=31UV0MXWNRYLGTKSZBZ0CRLXR4WI5R&a=W0U19&tp_a=W0U19&b=31UV0MXWNRYLGTKSZBZ0CRLXR4WI5R&tp_b=31UV0MXWNRYLGTKSZBZ0CRLXR4WI5R&c=365799&tp_c=365799"},{"rt":2606,"stimulus":"\n            <h4 style=\"color:Orange;\">Student 6</h4>\n            <h2>The weight of your coin is <b style=\"color:Tomato;\">0.2</b>.</h2>\n            <p>In this block, you will be giving <b>one</b> set of examples to Student 6.</p>\n                <p>You will receive feedback at the end of the block.</p>\n            <p></p>","response":0,"trial_type":"html-button-response","trial_index":45,"time_elapsed":461454,"internal_node_id":"0.0-42.0","params":{"nStudents":24,"maxFlips":30,"completionMinutes":45,"basePay":8,"maxBonus":9,"perTrialBonus":0.5,"perTrialBonusThreshold":0.05,"exampleCost":0.01},"classroomParams":{"A":{"a":1,"b":4},"B":{"a":4,"b":1},"C":{"a":2,"b":8},"D":{"a":8,"b":2}},"conditions":["nonSeqFull","nonSeqPartial","seqNoFeedback","seqFeedback"],"classroomPairings":[["A","B"],["C","D"]],"coinWeights":[0.2,0.5,0.8],"subjectId":"A2LMQ4497NMK3S","assignmentId":"31UV0MXWNRYLGTKSZBZ0CRLXR4WI5R","hitId":"3Z3R5YC0P3915KVY8X6BNRIWSQNFTT","url":"https://gershmanlab.com/experiments/alicia/teaching/experiment/?hitId=3Z3R5YC0P3915KVY8X6BNRIWSQNFTT&workerId=A2LMQ4497NMK3S&assignmentId=31UV0MXWNRYLGTKSZBZ0CRLXR4WI5R&a=W0U19&tp_a=W0U19&b=31UV0MXWNRYLGTKSZBZ0CRLXR4WI5R&tp_b=31UV0MXWNRYLGTKSZBZ0CRLXR4WI5R&c=365799&tp_c=365799"},{"rt":7867,"response":{"heads":"1","tails":"1"},"type":"response","condition":"nonSeqPartial","trueTheta":0.2,"classrooms":["C","D"],"studentTrueClassroom":"C","exampleSet":"first","trial_type":"survey-html-form","trial_index":46,"time_elapsed":469323,"internal_node_id":"0.0-43.0-0.0","params":{"nStudents":24,"maxFlips":30,"completionMinutes":45,"basePay":8,"maxBonus":9,"perTrialBonus":0.5,"perTrialBonusThreshold":0.05,"exampleCost":0.01},"classroomParams":{"A":{"a":1,"b":4},"B":{"a":4,"b":1},"C":{"a":2,"b":8},"D":{"a":8,"b":2}},"conditions":["nonSeqFull","nonSeqPartial","seqNoFeedback","seqFeedback"],"classroomPairings":[["A","B"],["C","D"]],"coinWeights":[0.2,0.5,0.8],"subjectId":"A2LMQ4497NMK3S","assignmentId":"31UV0MXWNRYLGTKSZBZ0CRLXR4WI5R","hitId":"3Z3R5YC0P3915KVY8X6BNRIWSQNFTT","url":"https://gershmanlab.com/experiments/alicia/teaching/experiment/?hitId=3Z3R5YC0P3915KVY8X6BNRIWSQNFTT&workerId=A2LMQ4497NMK3S&assignmentId=31UV0MXWNRYLGTKSZBZ0CRLXR4WI5R&a=W0U19&tp_a=W0U19&b=31UV0MXWNRYLGTKSZBZ0CRLXR4WI5R&tp_b=31UV0MXWNRYLGTKSZBZ0CRLXR4WI5R&c=365799&tp_c=365799","heads":1,"tails":1,"studentIndex":5,"studentTrueHypers":{"a":2,"b":8},"studentGuess":0.25,"delta":0.04999999999999999,"totalExamples":2,"bonus":0.48,"bonusSoFar":2.39},{"rt":null,"stimulus":"Sending examples to student... ","response":null,"trial_type":"html-keyboard-response","trial_index":47,"time_elapsed":471088,"internal_node_id":"0.0-44.0","params":{"nStudents":24,"maxFlips":30,"completionMinutes":45,"basePay":8,"maxBonus":9,"perTrialBonus":0.5,"perTrialBonusThreshold":0.05,"exampleCost":0.01},"classroomParams":{"A":{"a":1,"b":4},"B":{"a":4,"b":1},"C":{"a":2,"b":8},"D":{"a":8,"b":2}},"conditions":["nonSeqFull","nonSeqPartial","seqNoFeedback","seqFeedback"],"classroomPairings":[["A","B"],["C","D"]],"coinWeights":[0.2,0.5,0.8],"subjectId":"A2LMQ4497NMK3S","assignmentId":"31UV0MXWNRYLGTKSZBZ0CRLXR4WI5R","hitId":"3Z3R5YC0P3915KVY8X6BNRIWSQNFTT","url":"https://gershmanlab.com/experiments/alicia/teaching/experiment/?hitId=3Z3R5YC0P3915KVY8X6BNRIWSQNFTT&workerId=A2LMQ4497NMK3S&assignmentId=31UV0MXWNRYLGTKSZBZ0CRLXR4WI5R&a=W0U19&tp_a=W0U19&b=31UV0MXWNRYLGTKSZBZ0CRLXR4WI5R&tp_b=31UV0MXWNRYLGTKSZBZ0CRLXR4WI5R&c=365799&tp_c=365799"},{"rt":null,"stimulus":"Examples sent to student! Waiting for student...","response":null,"trial_type":"html-keyboard-response","trial_index":48,"time_elapsed":477107,"internal_node_id":"0.0-45.0","params":{"nStudents":24,"maxFlips":30,"completionMinutes":45,"basePay":8,"maxBonus":9,"perTrialBonus":0.5,"perTrialBonusThreshold":0.05,"exampleCost":0.01},"classroomParams":{"A":{"a":1,"b":4},"B":{"a":4,"b":1},"C":{"a":2,"b":8},"D":{"a":8,"b":2}},"conditions":["nonSeqFull","nonSeqPartial","seqNoFeedback","seqFeedback"],"classroomPairings":[["A","B"],["C","D"]],"coinWeights":[0.2,0.5,0.8],"subjectId":"A2LMQ4497NMK3S","assignmentId":"31UV0MXWNRYLGTKSZBZ0CRLXR4WI5R","hitId":"3Z3R5YC0P3915KVY8X6BNRIWSQNFTT","url":"https://gershmanlab.com/experiments/alicia/teaching/experiment/?hitId=3Z3R5YC0P3915KVY8X6BNRIWSQNFTT&workerId=A2LMQ4497NMK3S&assignmentId=31UV0MXWNRYLGTKSZBZ0CRLXR4WI5R&a=W0U19&tp_a=W0U19&b=31UV0MXWNRYLGTKSZBZ0CRLXR4WI5R&tp_b=31UV0MXWNRYLGTKSZBZ0CRLXR4WI5R&c=365799&tp_c=365799"},{"rt":4770,"stimulus":"\n                <p>Student's guess for coin weight: <b style=\"color:Tomato;\">0.25</b></p>\n                <p>You received a bonus of <b>$0.48</b>. Total bonus so far: <b>$2.39</b></b></p>\n                <p></p>\n                <p>Press any key to continue.</p>\n                ","response":" ","trial_type":"html-keyboard-response","trial_index":49,"time_elapsed":481878,"internal_node_id":"0.0-46.0","params":{"nStudents":24,"maxFlips":30,"completionMinutes":45,"basePay":8,"maxBonus":9,"perTrialBonus":0.5,"perTrialBonusThreshold":0.05,"exampleCost":0.01},"classroomParams":{"A":{"a":1,"b":4},"B":{"a":4,"b":1},"C":{"a":2,"b":8},"D":{"a":8,"b":2}},"conditions":["nonSeqFull","nonSeqPartial","seqNoFeedback","seqFeedback"],"classroomPairings":[["A","B"],["C","D"]],"coinWeights":[0.2,0.5,0.8],"subjectId":"A2LMQ4497NMK3S","assignmentId":"31UV0MXWNRYLGTKSZBZ0CRLXR4WI5R","hitId":"3Z3R5YC0P3915KVY8X6BNRIWSQNFTT","url":"https://gershmanlab.com/experiments/alicia/teaching/experiment/?hitId=3Z3R5YC0P3915KVY8X6BNRIWSQNFTT&workerId=A2LMQ4497NMK3S&assignmentId=31UV0MXWNRYLGTKSZBZ0CRLXR4WI5R&a=W0U19&tp_a=W0U19&b=31UV0MXWNRYLGTKSZBZ0CRLXR4WI5R&tp_b=31UV0MXWNRYLGTKSZBZ0CRLXR4WI5R&c=365799&tp_c=365799"},{"rt":null,"stimulus":"<div style=\"font-size:60px;\">Next student</div>","response":null,"trial_type":"html-keyboard-response","trial_index":50,"time_elapsed":484142,"internal_node_id":"0.0-47.0-0.0","params":{"nStudents":24,"maxFlips":30,"completionMinutes":45,"basePay":8,"maxBonus":9,"perTrialBonus":0.5,"perTrialBonusThreshold":0.05,"exampleCost":0.01},"classroomParams":{"A":{"a":1,"b":4},"B":{"a":4,"b":1},"C":{"a":2,"b":8},"D":{"a":8,"b":2}},"conditions":["nonSeqFull","nonSeqPartial","seqNoFeedback","seqFeedback"],"classroomPairings":[["A","B"],["C","D"]],"coinWeights":[0.2,0.5,0.8],"subjectId":"A2LMQ4497NMK3S","assignmentId":"31UV0MXWNRYLGTKSZBZ0CRLXR4WI5R","hitId":"3Z3R5YC0P3915KVY8X6BNRIWSQNFTT","url":"https://gershmanlab.com/experiments/alicia/teaching/experiment/?hitId=3Z3R5YC0P3915KVY8X6BNRIWSQNFTT&workerId=A2LMQ4497NMK3S&assignmentId=31UV0MXWNRYLGTKSZBZ0CRLXR4WI5R&a=W0U19&tp_a=W0U19&b=31UV0MXWNRYLGTKSZBZ0CRLXR4WI5R&tp_b=31UV0MXWNRYLGTKSZBZ0CRLXR4WI5R&c=365799&tp_c=365799"},{"rt":2493,"stimulus":"\n            <h4 style=\"color:Orange;\">Student 7</h4>\n            <h2>The weight of your coin is <b style=\"color:Tomato;\">0.8</b>.</h2>\n            <p>In this block, you will be giving <b>one</b> set of examples to Student 7.</p>\n                <p>You will receive feedback at the end of the block.</p>\n            <p></p>","response":0,"trial_type":"html-button-response","trial_index":51,"time_elapsed":486636,"internal_node_id":"0.0-48.0","params":{"nStudents":24,"maxFlips":30,"completionMinutes":45,"basePay":8,"maxBonus":9,"perTrialBonus":0.5,"perTrialBonusThreshold":0.05,"exampleCost":0.01},"classroomParams":{"A":{"a":1,"b":4},"B":{"a":4,"b":1},"C":{"a":2,"b":8},"D":{"a":8,"b":2}},"conditions":["nonSeqFull","nonSeqPartial","seqNoFeedback","seqFeedback"],"classroomPairings":[["A","B"],["C","D"]],"coinWeights":[0.2,0.5,0.8],"subjectId":"A2LMQ4497NMK3S","assignmentId":"31UV0MXWNRYLGTKSZBZ0CRLXR4WI5R","hitId":"3Z3R5YC0P3915KVY8X6BNRIWSQNFTT","url":"https://gershmanlab.com/experiments/alicia/teaching/experiment/?hitId=3Z3R5YC0P3915KVY8X6BNRIWSQNFTT&workerId=A2LMQ4497NMK3S&assignmentId=31UV0MXWNRYLGTKSZBZ0CRLXR4WI5R&a=W0U19&tp_a=W0U19&b=31UV0MXWNRYLGTKSZBZ0CRLXR4WI5R&tp_b=31UV0MXWNRYLGTKSZBZ0CRLXR4WI5R&c=365799&tp_c=365799"},{"rt":34157,"response":{"heads":"20","tails":"0"},"type":"response","condition":"nonSeqFull","trueTheta":0.8,"classrooms":["A","B"],"studentTrueClassroom":"A","exampleSet":"first","trial_type":"survey-html-form","trial_index":52,"time_elapsed":520795,"internal_node_id":"0.0-49.0-0.0","params":{"nStudents":24,"maxFlips":30,"completionMinutes":45,"basePay":8,"maxBonus":9,"perTrialBonus":0.5,"perTrialBonusThreshold":0.05,"exampleCost":0.01},"classroomParams":{"A":{"a":1,"b":4},"B":{"a":4,"b":1},"C":{"a":2,"b":8},"D":{"a":8,"b":2}},"conditions":["nonSeqFull","nonSeqPartial","seqNoFeedback","seqFeedback"],"classroomPairings":[["A","B"],["C","D"]],"coinWeights":[0.2,0.5,0.8],"subjectId":"A2LMQ4497NMK3S","assignmentId":"31UV0MXWNRYLGTKSZBZ0CRLXR4WI5R","hitId":"3Z3R5YC0P3915KVY8X6BNRIWSQNFTT","url":"https://gershmanlab.com/experiments/alicia/teaching/experiment/?hitId=3Z3R5YC0P3915KVY8X6BNRIWSQNFTT&workerId=A2LMQ4497NMK3S&assignmentId=31UV0MXWNRYLGTKSZBZ0CRLXR4WI5R&a=W0U19&tp_a=W0U19&b=31UV0MXWNRYLGTKSZBZ0CRLXR4WI5R&tp_b=31UV0MXWNRYLGTKSZBZ0CRLXR4WI5R&c=365799&tp_c=365799","heads":20,"tails":0,"studentIndex":6,"studentTrueHypers":{"a":1,"b":4},"studentGuess":0.84,"delta":0.039999999999999925,"totalExamples":20,"bonus":0.3,"bonusSoFar":2.69},{"rt":null,"stimulus":"Sending examples to student... ","response":null,"trial_type":"html-keyboard-response","trial_index":53,"time_elapsed":522306,"internal_node_id":"0.0-50.0","params":{"nStudents":24,"maxFlips":30,"completionMinutes":45,"basePay":8,"maxBonus":9,"perTrialBonus":0.5,"perTrialBonusThreshold":0.05,"exampleCost":0.01},"classroomParams":{"A":{"a":1,"b":4},"B":{"a":4,"b":1},"C":{"a":2,"b":8},"D":{"a":8,"b":2}},"conditions":["nonSeqFull","nonSeqPartial","seqNoFeedback","seqFeedback"],"classroomPairings":[["A","B"],["C","D"]],"coinWeights":[0.2,0.5,0.8],"subjectId":"A2LMQ4497NMK3S","assignmentId":"31UV0MXWNRYLGTKSZBZ0CRLXR4WI5R","hitId":"3Z3R5YC0P3915KVY8X6BNRIWSQNFTT","url":"https://gershmanlab.com/experiments/alicia/teaching/experiment/?hitId=3Z3R5YC0P3915KVY8X6BNRIWSQNFTT&workerId=A2LMQ4497NMK3S&assignmentId=31UV0MXWNRYLGTKSZBZ0CRLXR4WI5R&a=W0U19&tp_a=W0U19&b=31UV0MXWNRYLGTKSZBZ0CRLXR4WI5R&tp_b=31UV0MXWNRYLGTKSZBZ0CRLXR4WI5R&c=365799&tp_c=365799"},{"rt":null,"stimulus":"Examples sent to student! Waiting for student...","response":null,"trial_type":"html-keyboard-response","trial_index":54,"time_elapsed":527320,"internal_node_id":"0.0-51.0","params":{"nStudents":24,"maxFlips":30,"completionMinutes":45,"basePay":8,"maxBonus":9,"perTrialBonus":0.5,"perTrialBonusThreshold":0.05,"exampleCost":0.01},"classroomParams":{"A":{"a":1,"b":4},"B":{"a":4,"b":1},"C":{"a":2,"b":8},"D":{"a":8,"b":2}},"conditions":["nonSeqFull","nonSeqPartial","seqNoFeedback","seqFeedback"],"classroomPairings":[["A","B"],["C","D"]],"coinWeights":[0.2,0.5,0.8],"subjectId":"A2LMQ4497NMK3S","assignmentId":"31UV0MXWNRYLGTKSZBZ0CRLXR4WI5R","hitId":"3Z3R5YC0P3915KVY8X6BNRIWSQNFTT","url":"https://gershmanlab.com/experiments/alicia/teaching/experiment/?hitId=3Z3R5YC0P3915KVY8X6BNRIWSQNFTT&workerId=A2LMQ4497NMK3S&assignmentId=31UV0MXWNRYLGTKSZBZ0CRLXR4WI5R&a=W0U19&tp_a=W0U19&b=31UV0MXWNRYLGTKSZBZ0CRLXR4WI5R&tp_b=31UV0MXWNRYLGTKSZBZ0CRLXR4WI5R&c=365799&tp_c=365799"},{"rt":2268,"stimulus":"\n                <p>Student's guess for coin weight: <b style=\"color:Tomato;\">0.84</b></p>\n                <p>You received a bonus of <b>$0.3</b>. Total bonus so far: <b>$2.69</b></b></p>\n                <p></p>\n                <p>Press any key to continue.</p>\n                ","response":" ","trial_type":"html-keyboard-response","trial_index":55,"time_elapsed":529590,"internal_node_id":"0.0-52.0","params":{"nStudents":24,"maxFlips":30,"completionMinutes":45,"basePay":8,"maxBonus":9,"perTrialBonus":0.5,"perTrialBonusThreshold":0.05,"exampleCost":0.01},"classroomParams":{"A":{"a":1,"b":4},"B":{"a":4,"b":1},"C":{"a":2,"b":8},"D":{"a":8,"b":2}},"conditions":["nonSeqFull","nonSeqPartial","seqNoFeedback","seqFeedback"],"classroomPairings":[["A","B"],["C","D"]],"coinWeights":[0.2,0.5,0.8],"subjectId":"A2LMQ4497NMK3S","assignmentId":"31UV0MXWNRYLGTKSZBZ0CRLXR4WI5R","hitId":"3Z3R5YC0P3915KVY8X6BNRIWSQNFTT","url":"https://gershmanlab.com/experiments/alicia/teaching/experiment/?hitId=3Z3R5YC0P3915KVY8X6BNRIWSQNFTT&workerId=A2LMQ4497NMK3S&assignmentId=31UV0MXWNRYLGTKSZBZ0CRLXR4WI5R&a=W0U19&tp_a=W0U19&b=31UV0MXWNRYLGTKSZBZ0CRLXR4WI5R&tp_b=31UV0MXWNRYLGTKSZBZ0CRLXR4WI5R&c=365799&tp_c=365799"},{"rt":null,"stimulus":"<div style=\"font-size:60px;\">Next student</div>","response":null,"trial_type":"html-keyboard-response","trial_index":56,"time_elapsed":531842,"internal_node_id":"0.0-53.0-0.0","params":{"nStudents":24,"maxFlips":30,"completionMinutes":45,"basePay":8,"maxBonus":9,"perTrialBonus":0.5,"perTrialBonusThreshold":0.05,"exampleCost":0.01},"classroomParams":{"A":{"a":1,"b":4},"B":{"a":4,"b":1},"C":{"a":2,"b":8},"D":{"a":8,"b":2}},"conditions":["nonSeqFull","nonSeqPartial","seqNoFeedback","seqFeedback"],"classroomPairings":[["A","B"],["C","D"]],"coinWeights":[0.2,0.5,0.8],"subjectId":"A2LMQ4497NMK3S","assignmentId":"31UV0MXWNRYLGTKSZBZ0CRLXR4WI5R","hitId":"3Z3R5YC0P3915KVY8X6BNRIWSQNFTT","url":"https://gershmanlab.com/experiments/alicia/teaching/experiment/?hitId=3Z3R5YC0P3915KVY8X6BNRIWSQNFTT&workerId=A2LMQ4497NMK3S&assignmentId=31UV0MXWNRYLGTKSZBZ0CRLXR4WI5R&a=W0U19&tp_a=W0U19&b=31UV0MXWNRYLGTKSZBZ0CRLXR4WI5R&tp_b=31UV0MXWNRYLGTKSZBZ0CRLXR4WI5R&c=365799&tp_c=365799"},{"rt":3119,"stimulus":"\n            <h4 style=\"color:Orange;\">Student 8</h4>\n            <h2>The weight of your coin is <b style=\"color:Tomato;\">0.8</b>.</h2>\n            <p>In this block, you will be giving <b>one</b> set of examples to Student 8.</p>\n                <p>You will receive feedback at the end of the block.</p>\n            <p></p>","response":0,"trial_type":"html-button-response","trial_index":57,"time_elapsed":534962,"internal_node_id":"0.0-54.0","params":{"nStudents":24,"maxFlips":30,"completionMinutes":45,"basePay":8,"maxBonus":9,"perTrialBonus":0.5,"perTrialBonusThreshold":0.05,"exampleCost":0.01},"classroomParams":{"A":{"a":1,"b":4},"B":{"a":4,"b":1},"C":{"a":2,"b":8},"D":{"a":8,"b":2}},"conditions":["nonSeqFull","nonSeqPartial","seqNoFeedback","seqFeedback"],"classroomPairings":[["A","B"],["C","D"]],"coinWeights":[0.2,0.5,0.8],"subjectId":"A2LMQ4497NMK3S","assignmentId":"31UV0MXWNRYLGTKSZBZ0CRLXR4WI5R","hitId":"3Z3R5YC0P3915KVY8X6BNRIWSQNFTT","url":"https://gershmanlab.com/experiments/alicia/teaching/experiment/?hitId=3Z3R5YC0P3915KVY8X6BNRIWSQNFTT&workerId=A2LMQ4497NMK3S&assignmentId=31UV0MXWNRYLGTKSZBZ0CRLXR4WI5R&a=W0U19&tp_a=W0U19&b=31UV0MXWNRYLGTKSZBZ0CRLXR4WI5R&tp_b=31UV0MXWNRYLGTKSZBZ0CRLXR4WI5R&c=365799&tp_c=365799"},{"rt":23215,"response":{"heads":"30","tails":"0"},"type":"response","condition":"nonSeqFull","trueTheta":0.8,"classrooms":["C","D"],"studentTrueClassroom":"C","exampleSet":"first","trial_type":"survey-html-form","trial_index":58,"time_elapsed":558178,"internal_node_id":"0.0-55.0-0.0","params":{"nStudents":24,"maxFlips":30,"completionMinutes":45,"basePay":8,"maxBonus":9,"perTrialBonus":0.5,"perTrialBonusThreshold":0.05,"exampleCost":0.01},"classroomParams":{"A":{"a":1,"b":4},"B":{"a":4,"b":1},"C":{"a":2,"b":8},"D":{"a":8,"b":2}},"conditions":["nonSeqFull","nonSeqPartial","seqNoFeedback","seqFeedback"],"classroomPairings":[["A","B"],["C","D"]],"coinWeights":[0.2,0.5,0.8],"subjectId":"A2LMQ4497NMK3S","assignmentId":"31UV0MXWNRYLGTKSZBZ0CRLXR4WI5R","hitId":"3Z3R5YC0P3915KVY8X6BNRIWSQNFTT","url":"https://gershmanlab.com/experiments/alicia/teaching/experiment/?hitId=3Z3R5YC0P3915KVY8X6BNRIWSQNFTT&workerId=A2LMQ4497NMK3S&assignmentId=31UV0MXWNRYLGTKSZBZ0CRLXR4WI5R&a=W0U19&tp_a=W0U19&b=31UV0MXWNRYLGTKSZBZ0CRLXR4WI5R&tp_b=31UV0MXWNRYLGTKSZBZ0CRLXR4WI5R&c=365799&tp_c=365799","heads":30,"tails":0,"studentIndex":7,"studentTrueHypers":{"a":2,"b":8},"studentGuess":0.8,"delta":0,"totalExamples":30,"bonus":0.2,"bonusSoFar":2.89},{"rt":null,"stimulus":"Sending examples to student... ","response":null,"trial_type":"html-keyboard-response","trial_index":59,"time_elapsed":559685,"internal_node_id":"0.0-56.0","params":{"nStudents":24,"maxFlips":30,"completionMinutes":45,"basePay":8,"maxBonus":9,"perTrialBonus":0.5,"perTrialBonusThreshold":0.05,"exampleCost":0.01},"classroomParams":{"A":{"a":1,"b":4},"B":{"a":4,"b":1},"C":{"a":2,"b":8},"D":{"a":8,"b":2}},"conditions":["nonSeqFull","nonSeqPartial","seqNoFeedback","seqFeedback"],"classroomPairings":[["A","B"],["C","D"]],"coinWeights":[0.2,0.5,0.8],"subjectId":"A2LMQ4497NMK3S","assignmentId":"31UV0MXWNRYLGTKSZBZ0CRLXR4WI5R","hitId":"3Z3R5YC0P3915KVY8X6BNRIWSQNFTT","url":"https://gershmanlab.com/experiments/alicia/teaching/experiment/?hitId=3Z3R5YC0P3915KVY8X6BNRIWSQNFTT&workerId=A2LMQ4497NMK3S&assignmentId=31UV0MXWNRYLGTKSZBZ0CRLXR4WI5R&a=W0U19&tp_a=W0U19&b=31UV0MXWNRYLGTKSZBZ0CRLXR4WI5R&tp_b=31UV0MXWNRYLGTKSZBZ0CRLXR4WI5R&c=365799&tp_c=365799"},{"rt":null,"stimulus":"Examples sent to student! Waiting for student...","response":null,"trial_type":"html-keyboard-response","trial_index":60,"time_elapsed":564197,"internal_node_id":"0.0-57.0","params":{"nStudents":24,"maxFlips":30,"completionMinutes":45,"basePay":8,"maxBonus":9,"perTrialBonus":0.5,"perTrialBonusThreshold":0.05,"exampleCost":0.01},"classroomParams":{"A":{"a":1,"b":4},"B":{"a":4,"b":1},"C":{"a":2,"b":8},"D":{"a":8,"b":2}},"conditions":["nonSeqFull","nonSeqPartial","seqNoFeedback","seqFeedback"],"classroomPairings":[["A","B"],["C","D"]],"coinWeights":[0.2,0.5,0.8],"subjectId":"A2LMQ4497NMK3S","assignmentId":"31UV0MXWNRYLGTKSZBZ0CRLXR4WI5R","hitId":"3Z3R5YC0P3915KVY8X6BNRIWSQNFTT","url":"https://gershmanlab.com/experiments/alicia/teaching/experiment/?hitId=3Z3R5YC0P3915KVY8X6BNRIWSQNFTT&workerId=A2LMQ4497NMK3S&assignmentId=31UV0MXWNRYLGTKSZBZ0CRLXR4WI5R&a=W0U19&tp_a=W0U19&b=31UV0MXWNRYLGTKSZBZ0CRLXR4WI5R&tp_b=31UV0MXWNRYLGTKSZBZ0CRLXR4WI5R&c=365799&tp_c=365799"},{"rt":2423,"stimulus":"\n                <p>Student's guess for coin weight: <b style=\"color:Tomato;\">0.80</b></p>\n                <p>You received a bonus of <b>$0.2</b>. Total bonus so far: <b>$2.89</b></b></p>\n                <p></p>\n                <p>Press any key to continue.</p>\n                ","response":" ","trial_type":"html-keyboard-response","trial_index":61,"time_elapsed":566622,"internal_node_id":"0.0-58.0","params":{"nStudents":24,"maxFlips":30,"completionMinutes":45,"basePay":8,"maxBonus":9,"perTrialBonus":0.5,"perTrialBonusThreshold":0.05,"exampleCost":0.01},"classroomParams":{"A":{"a":1,"b":4},"B":{"a":4,"b":1},"C":{"a":2,"b":8},"D":{"a":8,"b":2}},"conditions":["nonSeqFull","nonSeqPartial","seqNoFeedback","seqFeedback"],"classroomPairings":[["A","B"],["C","D"]],"coinWeights":[0.2,0.5,0.8],"subjectId":"A2LMQ4497NMK3S","assignmentId":"31UV0MXWNRYLGTKSZBZ0CRLXR4WI5R","hitId":"3Z3R5YC0P3915KVY8X6BNRIWSQNFTT","url":"https://gershmanlab.com/experiments/alicia/teaching/experiment/?hitId=3Z3R5YC0P3915KVY8X6BNRIWSQNFTT&workerId=A2LMQ4497NMK3S&assignmentId=31UV0MXWNRYLGTKSZBZ0CRLXR4WI5R&a=W0U19&tp_a=W0U19&b=31UV0MXWNRYLGTKSZBZ0CRLXR4WI5R&tp_b=31UV0MXWNRYLGTKSZBZ0CRLXR4WI5R&c=365799&tp_c=365799"},{"rt":null,"stimulus":"<div style=\"font-size:60px;\">Next student</div>","response":null,"trial_type":"html-keyboard-response","trial_index":62,"time_elapsed":569629,"internal_node_id":"0.0-59.0-0.0","params":{"nStudents":24,"maxFlips":30,"completionMinutes":45,"basePay":8,"maxBonus":9,"perTrialBonus":0.5,"perTrialBonusThreshold":0.05,"exampleCost":0.01},"classroomParams":{"A":{"a":1,"b":4},"B":{"a":4,"b":1},"C":{"a":2,"b":8},"D":{"a":8,"b":2}},"conditions":["nonSeqFull","nonSeqPartial","seqNoFeedback","seqFeedback"],"classroomPairings":[["A","B"],["C","D"]],"coinWeights":[0.2,0.5,0.8],"subjectId":"A2LMQ4497NMK3S","assignmentId":"31UV0MXWNRYLGTKSZBZ0CRLXR4WI5R","hitId":"3Z3R5YC0P3915KVY8X6BNRIWSQNFTT","url":"https://gershmanlab.com/experiments/alicia/teaching/experiment/?hitId=3Z3R5YC0P3915KVY8X6BNRIWSQNFTT&workerId=A2LMQ4497NMK3S&assignmentId=31UV0MXWNRYLGTKSZBZ0CRLXR4WI5R&a=W0U19&tp_a=W0U19&b=31UV0MXWNRYLGTKSZBZ0CRLXR4WI5R&tp_b=31UV0MXWNRYLGTKSZBZ0CRLXR4WI5R&c=365799&tp_c=365799"},{"rt":2242,"stimulus":"\n            <h4 style=\"color:Orange;\">Student 9</h4>\n            <h2>The weight of your coin is <b style=\"color:Tomato;\">0.8</b>.</h2>\n            <p>In this block, you will be giving <b>one</b> set of examples to Student 9.</p>\n                <p>You will receive feedback at the end of the block.</p>\n            <p></p>","response":0,"trial_type":"html-button-response","trial_index":63,"time_elapsed":571872,"internal_node_id":"0.0-60.0","params":{"nStudents":24,"maxFlips":30,"completionMinutes":45,"basePay":8,"maxBonus":9,"perTrialBonus":0.5,"perTrialBonusThreshold":0.05,"exampleCost":0.01},"classroomParams":{"A":{"a":1,"b":4},"B":{"a":4,"b":1},"C":{"a":2,"b":8},"D":{"a":8,"b":2}},"conditions":["nonSeqFull","nonSeqPartial","seqNoFeedback","seqFeedback"],"classroomPairings":[["A","B"],["C","D"]],"coinWeights":[0.2,0.5,0.8],"subjectId":"A2LMQ4497NMK3S","assignmentId":"31UV0MXWNRYLGTKSZBZ0CRLXR4WI5R","hitId":"3Z3R5YC0P3915KVY8X6BNRIWSQNFTT","url":"https://gershmanlab.com/experiments/alicia/teaching/experiment/?hitId=3Z3R5YC0P3915KVY8X6BNRIWSQNFTT&workerId=A2LMQ4497NMK3S&assignmentId=31UV0MXWNRYLGTKSZBZ0CRLXR4WI5R&a=W0U19&tp_a=W0U19&b=31UV0MXWNRYLGTKSZBZ0CRLXR4WI5R&tp_b=31UV0MXWNRYLGTKSZBZ0CRLXR4WI5R&c=365799&tp_c=365799"},{"rt":12921,"response":{"heads":"1","tails":"0"},"type":"response","condition":"nonSeqPartial","trueTheta":0.8,"classrooms":["A","B"],"studentTrueClassroom":"A","exampleSet":"first","trial_type":"survey-html-form","trial_index":64,"time_elapsed":584794,"internal_node_id":"0.0-61.0-0.0","params":{"nStudents":24,"maxFlips":30,"completionMinutes":45,"basePay":8,"maxBonus":9,"perTrialBonus":0.5,"perTrialBonusThreshold":0.05,"exampleCost":0.01},"classroomParams":{"A":{"a":1,"b":4},"B":{"a":4,"b":1},"C":{"a":2,"b":8},"D":{"a":8,"b":2}},"conditions":["nonSeqFull","nonSeqPartial","seqNoFeedback","seqFeedback"],"classroomPairings":[["A","B"],["C","D"]],"coinWeights":[0.2,0.5,0.8],"subjectId":"A2LMQ4497NMK3S","assignmentId":"31UV0MXWNRYLGTKSZBZ0CRLXR4WI5R","hitId":"3Z3R5YC0P3915KVY8X6BNRIWSQNFTT","url":"https://gershmanlab.com/experiments/alicia/teaching/experiment/?hitId=3Z3R5YC0P3915KVY8X6BNRIWSQNFTT&workerId=A2LMQ4497NMK3S&assignmentId=31UV0MXWNRYLGTKSZBZ0CRLXR4WI5R&a=W0U19&tp_a=W0U19&b=31UV0MXWNRYLGTKSZBZ0CRLXR4WI5R&tp_b=31UV0MXWNRYLGTKSZBZ0CRLXR4WI5R&c=365799&tp_c=365799","heads":1,"tails":0,"studentIndex":8,"studentTrueHypers":{"a":1,"b":4},"studentGuess":0.3333333333333333,"delta":0.46666666666666673,"totalExamples":1,"bonus":0,"bonusSoFar":2.89},{"rt":null,"stimulus":"Sending examples to student... ","response":null,"trial_type":"html-keyboard-response","trial_index":65,"time_elapsed":586300,"internal_node_id":"0.0-62.0","params":{"nStudents":24,"maxFlips":30,"completionMinutes":45,"basePay":8,"maxBonus":9,"perTrialBonus":0.5,"perTrialBonusThreshold":0.05,"exampleCost":0.01},"classroomParams":{"A":{"a":1,"b":4},"B":{"a":4,"b":1},"C":{"a":2,"b":8},"D":{"a":8,"b":2}},"conditions":["nonSeqFull","nonSeqPartial","seqNoFeedback","seqFeedback"],"classroomPairings":[["A","B"],["C","D"]],"coinWeights":[0.2,0.5,0.8],"subjectId":"A2LMQ4497NMK3S","assignmentId":"31UV0MXWNRYLGTKSZBZ0CRLXR4WI5R","hitId":"3Z3R5YC0P3915KVY8X6BNRIWSQNFTT","url":"https://gershmanlab.com/experiments/alicia/teaching/experiment/?hitId=3Z3R5YC0P3915KVY8X6BNRIWSQNFTT&workerId=A2LMQ4497NMK3S&assignmentId=31UV0MXWNRYLGTKSZBZ0CRLXR4WI5R&a=W0U19&tp_a=W0U19&b=31UV0MXWNRYLGTKSZBZ0CRLXR4WI5R&tp_b=31UV0MXWNRYLGTKSZBZ0CRLXR4WI5R&c=365799&tp_c=365799"},{"rt":null,"stimulus":"Examples sent to student! Waiting for student...","response":null,"trial_type":"html-keyboard-response","trial_index":66,"time_elapsed":591315,"internal_node_id":"0.0-63.0","params":{"nStudents":24,"maxFlips":30,"completionMinutes":45,"basePay":8,"maxBonus":9,"perTrialBonus":0.5,"perTrialBonusThreshold":0.05,"exampleCost":0.01},"classroomParams":{"A":{"a":1,"b":4},"B":{"a":4,"b":1},"C":{"a":2,"b":8},"D":{"a":8,"b":2}},"conditions":["nonSeqFull","nonSeqPartial","seqNoFeedback","seqFeedback"],"classroomPairings":[["A","B"],["C","D"]],"coinWeights":[0.2,0.5,0.8],"subjectId":"A2LMQ4497NMK3S","assignmentId":"31UV0MXWNRYLGTKSZBZ0CRLXR4WI5R","hitId":"3Z3R5YC0P3915KVY8X6BNRIWSQNFTT","url":"https://gershmanlab.com/experiments/alicia/teaching/experiment/?hitId=3Z3R5YC0P3915KVY8X6BNRIWSQNFTT&workerId=A2LMQ4497NMK3S&assignmentId=31UV0MXWNRYLGTKSZBZ0CRLXR4WI5R&a=W0U19&tp_a=W0U19&b=31UV0MXWNRYLGTKSZBZ0CRLXR4WI5R&tp_b=31UV0MXWNRYLGTKSZBZ0CRLXR4WI5R&c=365799&tp_c=365799"},{"rt":1514,"stimulus":"\n                <p>Student's guess for coin weight: <b style=\"color:Tomato;\">0.33</b></p>\n                <p>You received a bonus of <b>$0</b>. Total bonus so far: <b>$2.89</b></b></p>\n                <p></p>\n                <p>Press any key to continue.</p>\n                ","response":" ","trial_type":"html-keyboard-response","trial_index":67,"time_elapsed":592830,"internal_node_id":"0.0-64.0","params":{"nStudents":24,"maxFlips":30,"completionMinutes":45,"basePay":8,"maxBonus":9,"perTrialBonus":0.5,"perTrialBonusThreshold":0.05,"exampleCost":0.01},"classroomParams":{"A":{"a":1,"b":4},"B":{"a":4,"b":1},"C":{"a":2,"b":8},"D":{"a":8,"b":2}},"conditions":["nonSeqFull","nonSeqPartial","seqNoFeedback","seqFeedback"],"classroomPairings":[["A","B"],["C","D"]],"coinWeights":[0.2,0.5,0.8],"subjectId":"A2LMQ4497NMK3S","assignmentId":"31UV0MXWNRYLGTKSZBZ0CRLXR4WI5R","hitId":"3Z3R5YC0P3915KVY8X6BNRIWSQNFTT","url":"https://gershmanlab.com/experiments/alicia/teaching/experiment/?hitId=3Z3R5YC0P3915KVY8X6BNRIWSQNFTT&workerId=A2LMQ4497NMK3S&assignmentId=31UV0MXWNRYLGTKSZBZ0CRLXR4WI5R&a=W0U19&tp_a=W0U19&b=31UV0MXWNRYLGTKSZBZ0CRLXR4WI5R&tp_b=31UV0MXWNRYLGTKSZBZ0CRLXR4WI5R&c=365799&tp_c=365799"},{"rt":null,"stimulus":"<div style=\"font-size:60px;\">Next student</div>","response":null,"trial_type":"html-keyboard-response","trial_index":68,"time_elapsed":595340,"internal_node_id":"0.0-65.0-0.0","params":{"nStudents":24,"maxFlips":30,"completionMinutes":45,"basePay":8,"maxBonus":9,"perTrialBonus":0.5,"perTrialBonusThreshold":0.05,"exampleCost":0.01},"classroomParams":{"A":{"a":1,"b":4},"B":{"a":4,"b":1},"C":{"a":2,"b":8},"D":{"a":8,"b":2}},"conditions":["nonSeqFull","nonSeqPartial","seqNoFeedback","seqFeedback"],"classroomPairings":[["A","B"],["C","D"]],"coinWeights":[0.2,0.5,0.8],"subjectId":"A2LMQ4497NMK3S","assignmentId":"31UV0MXWNRYLGTKSZBZ0CRLXR4WI5R","hitId":"3Z3R5YC0P3915KVY8X6BNRIWSQNFTT","url":"https://gershmanlab.com/experiments/alicia/teaching/experiment/?hitId=3Z3R5YC0P3915KVY8X6BNRIWSQNFTT&workerId=A2LMQ4497NMK3S&assignmentId=31UV0MXWNRYLGTKSZBZ0CRLXR4WI5R&a=W0U19&tp_a=W0U19&b=31UV0MXWNRYLGTKSZBZ0CRLXR4WI5R&tp_b=31UV0MXWNRYLGTKSZBZ0CRLXR4WI5R&c=365799&tp_c=365799"},{"rt":4496,"stimulus":"\n            <h4 style=\"color:Orange;\">Student 10</h4>\n            <h2>The weight of your coin is <b style=\"color:Tomato;\">0.2</b>.</h2>\n            <p>In this block, you will be giving <b>one</b> set of examples to Student 10.</p>\n                <p>You will receive feedback at the end of the block.</p>\n            <p></p>","response":0,"trial_type":"html-button-response","trial_index":69,"time_elapsed":599837,"internal_node_id":"0.0-66.0","params":{"nStudents":24,"maxFlips":30,"completionMinutes":45,"basePay":8,"maxBonus":9,"perTrialBonus":0.5,"perTrialBonusThreshold":0.05,"exampleCost":0.01},"classroomParams":{"A":{"a":1,"b":4},"B":{"a":4,"b":1},"C":{"a":2,"b":8},"D":{"a":8,"b":2}},"conditions":["nonSeqFull","nonSeqPartial","seqNoFeedback","seqFeedback"],"classroomPairings":[["A","B"],["C","D"]],"coinWeights":[0.2,0.5,0.8],"subjectId":"A2LMQ4497NMK3S","assignmentId":"31UV0MXWNRYLGTKSZBZ0CRLXR4WI5R","hitId":"3Z3R5YC0P3915KVY8X6BNRIWSQNFTT","url":"https://gershmanlab.com/experiments/alicia/teaching/experiment/?hitId=3Z3R5YC0P3915KVY8X6BNRIWSQNFTT&workerId=A2LMQ4497NMK3S&assignmentId=31UV0MXWNRYLGTKSZBZ0CRLXR4WI5R&a=W0U19&tp_a=W0U19&b=31UV0MXWNRYLGTKSZBZ0CRLXR4WI5R&tp_b=31UV0MXWNRYLGTKSZBZ0CRLXR4WI5R&c=365799&tp_c=365799"},{"rt":12985,"response":{"heads":"0","tails":"20"},"type":"response","condition":"nonSeqFull","trueTheta":0.2,"classrooms":["A","B"],"studentTrueClassroom":"B","exampleSet":"first","trial_type":"survey-html-form","trial_index":70,"time_elapsed":612823,"internal_node_id":"0.0-67.0-0.0","params":{"nStudents":24,"maxFlips":30,"completionMinutes":45,"basePay":8,"maxBonus":9,"perTrialBonus":0.5,"perTrialBonusThreshold":0.05,"exampleCost":0.01},"classroomParams":{"A":{"a":1,"b":4},"B":{"a":4,"b":1},"C":{"a":2,"b":8},"D":{"a":8,"b":2}},"conditions":["nonSeqFull","nonSeqPartial","seqNoFeedback","seqFeedback"],"classroomPairings":[["A","B"],["C","D"]],"coinWeights":[0.2,0.5,0.8],"subjectId":"A2LMQ4497NMK3S","assignmentId":"31UV0MXWNRYLGTKSZBZ0CRLXR4WI5R","hitId":"3Z3R5YC0P3915KVY8X6BNRIWSQNFTT","url":"https://gershmanlab.com/experiments/alicia/teaching/experiment/?hitId=3Z3R5YC0P3915KVY8X6BNRIWSQNFTT&workerId=A2LMQ4497NMK3S&assignmentId=31UV0MXWNRYLGTKSZBZ0CRLXR4WI5R&a=W0U19&tp_a=W0U19&b=31UV0MXWNRYLGTKSZBZ0CRLXR4WI5R&tp_b=31UV0MXWNRYLGTKSZBZ0CRLXR4WI5R&c=365799&tp_c=365799","heads":0,"tails":20,"studentIndex":9,"studentTrueHypers":{"a":4,"b":1},"studentGuess":0.16,"delta":0.04000000000000001,"totalExamples":20,"bonus":0.3,"bonusSoFar":3.19},{"rt":null,"stimulus":"Sending examples to student... ","response":null,"trial_type":"html-keyboard-response","trial_index":71,"time_elapsed":614839,"internal_node_id":"0.0-68.0","params":{"nStudents":24,"maxFlips":30,"completionMinutes":45,"basePay":8,"maxBonus":9,"perTrialBonus":0.5,"perTrialBonusThreshold":0.05,"exampleCost":0.01},"classroomParams":{"A":{"a":1,"b":4},"B":{"a":4,"b":1},"C":{"a":2,"b":8},"D":{"a":8,"b":2}},"conditions":["nonSeqFull","nonSeqPartial","seqNoFeedback","seqFeedback"],"classroomPairings":[["A","B"],["C","D"]],"coinWeights":[0.2,0.5,0.8],"subjectId":"A2LMQ4497NMK3S","assignmentId":"31UV0MXWNRYLGTKSZBZ0CRLXR4WI5R","hitId":"3Z3R5YC0P3915KVY8X6BNRIWSQNFTT","url":"https://gershmanlab.com/experiments/alicia/teaching/experiment/?hitId=3Z3R5YC0P3915KVY8X6BNRIWSQNFTT&workerId=A2LMQ4497NMK3S&assignmentId=31UV0MXWNRYLGTKSZBZ0CRLXR4WI5R&a=W0U19&tp_a=W0U19&b=31UV0MXWNRYLGTKSZBZ0CRLXR4WI5R&tp_b=31UV0MXWNRYLGTKSZBZ0CRLXR4WI5R&c=365799&tp_c=365799"},{"rt":null,"stimulus":"Examples sent to student! Waiting for student...","response":null,"trial_type":"html-keyboard-response","trial_index":72,"time_elapsed":619859,"internal_node_id":"0.0-69.0","params":{"nStudents":24,"maxFlips":30,"completionMinutes":45,"basePay":8,"maxBonus":9,"perTrialBonus":0.5,"perTrialBonusThreshold":0.05,"exampleCost":0.01},"classroomParams":{"A":{"a":1,"b":4},"B":{"a":4,"b":1},"C":{"a":2,"b":8},"D":{"a":8,"b":2}},"conditions":["nonSeqFull","nonSeqPartial","seqNoFeedback","seqFeedback"],"classroomPairings":[["A","B"],["C","D"]],"coinWeights":[0.2,0.5,0.8],"subjectId":"A2LMQ4497NMK3S","assignmentId":"31UV0MXWNRYLGTKSZBZ0CRLXR4WI5R","hitId":"3Z3R5YC0P3915KVY8X6BNRIWSQNFTT","url":"https://gershmanlab.com/experiments/alicia/teaching/experiment/?hitId=3Z3R5YC0P3915KVY8X6BNRIWSQNFTT&workerId=A2LMQ4497NMK3S&assignmentId=31UV0MXWNRYLGTKSZBZ0CRLXR4WI5R&a=W0U19&tp_a=W0U19&b=31UV0MXWNRYLGTKSZBZ0CRLXR4WI5R&tp_b=31UV0MXWNRYLGTKSZBZ0CRLXR4WI5R&c=365799&tp_c=365799"},{"rt":1306,"stimulus":"\n                <p>Student's guess for coin weight: <b style=\"color:Tomato;\">0.16</b></p>\n                <p>You received a bonus of <b>$0.3</b>. Total bonus so far: <b>$3.19</b></b></p>\n                <p></p>\n                <p>Press any key to continue.</p>\n                ","response":" ","trial_type":"html-keyboard-response","trial_index":73,"time_elapsed":621166,"internal_node_id":"0.0-70.0","params":{"nStudents":24,"maxFlips":30,"completionMinutes":45,"basePay":8,"maxBonus":9,"perTrialBonus":0.5,"perTrialBonusThreshold":0.05,"exampleCost":0.01},"classroomParams":{"A":{"a":1,"b":4},"B":{"a":4,"b":1},"C":{"a":2,"b":8},"D":{"a":8,"b":2}},"conditions":["nonSeqFull","nonSeqPartial","seqNoFeedback","seqFeedback"],"classroomPairings":[["A","B"],["C","D"]],"coinWeights":[0.2,0.5,0.8],"subjectId":"A2LMQ4497NMK3S","assignmentId":"31UV0MXWNRYLGTKSZBZ0CRLXR4WI5R","hitId":"3Z3R5YC0P3915KVY8X6BNRIWSQNFTT","url":"https://gershmanlab.com/experiments/alicia/teaching/experiment/?hitId=3Z3R5YC0P3915KVY8X6BNRIWSQNFTT&workerId=A2LMQ4497NMK3S&assignmentId=31UV0MXWNRYLGTKSZBZ0CRLXR4WI5R&a=W0U19&tp_a=W0U19&b=31UV0MXWNRYLGTKSZBZ0CRLXR4WI5R&tp_b=31UV0MXWNRYLGTKSZBZ0CRLXR4WI5R&c=365799&tp_c=365799"},{"rt":null,"stimulus":"<div style=\"font-size:60px;\">Next student</div>","response":null,"trial_type":"html-keyboard-response","trial_index":74,"time_elapsed":624170,"internal_node_id":"0.0-71.0-0.0","params":{"nStudents":24,"maxFlips":30,"completionMinutes":45,"basePay":8,"maxBonus":9,"perTrialBonus":0.5,"perTrialBonusThreshold":0.05,"exampleCost":0.01},"classroomParams":{"A":{"a":1,"b":4},"B":{"a":4,"b":1},"C":{"a":2,"b":8},"D":{"a":8,"b":2}},"conditions":["nonSeqFull","nonSeqPartial","seqNoFeedback","seqFeedback"],"classroomPairings":[["A","B"],["C","D"]],"coinWeights":[0.2,0.5,0.8],"subjectId":"A2LMQ4497NMK3S","assignmentId":"31UV0MXWNRYLGTKSZBZ0CRLXR4WI5R","hitId":"3Z3R5YC0P3915KVY8X6BNRIWSQNFTT","url":"https://gershmanlab.com/experiments/alicia/teaching/experiment/?hitId=3Z3R5YC0P3915KVY8X6BNRIWSQNFTT&workerId=A2LMQ4497NMK3S&assignmentId=31UV0MXWNRYLGTKSZBZ0CRLXR4WI5R&a=W0U19&tp_a=W0U19&b=31UV0MXWNRYLGTKSZBZ0CRLXR4WI5R&tp_b=31UV0MXWNRYLGTKSZBZ0CRLXR4WI5R&c=365799&tp_c=365799"},{"rt":2673,"stimulus":"\n            <h4 style=\"color:Orange;\">Student 11</h4>\n            <h2>The weight of your coin is <b style=\"color:Tomato;\">0.5</b>.</h2>\n            <p>In this block, you will be giving <b>one</b> set of examples to Student 11.</p>\n                <p>You will receive feedback at the end of the block.</p>\n            <p></p>","response":0,"trial_type":"html-button-response","trial_index":75,"time_elapsed":626845,"internal_node_id":"0.0-72.0","params":{"nStudents":24,"maxFlips":30,"completionMinutes":45,"basePay":8,"maxBonus":9,"perTrialBonus":0.5,"perTrialBonusThreshold":0.05,"exampleCost":0.01},"classroomParams":{"A":{"a":1,"b":4},"B":{"a":4,"b":1},"C":{"a":2,"b":8},"D":{"a":8,"b":2}},"conditions":["nonSeqFull","nonSeqPartial","seqNoFeedback","seqFeedback"],"classroomPairings":[["A","B"],["C","D"]],"coinWeights":[0.2,0.5,0.8],"subjectId":"A2LMQ4497NMK3S","assignmentId":"31UV0MXWNRYLGTKSZBZ0CRLXR4WI5R","hitId":"3Z3R5YC0P3915KVY8X6BNRIWSQNFTT","url":"https://gershmanlab.com/experiments/alicia/teaching/experiment/?hitId=3Z3R5YC0P3915KVY8X6BNRIWSQNFTT&workerId=A2LMQ4497NMK3S&assignmentId=31UV0MXWNRYLGTKSZBZ0CRLXR4WI5R&a=W0U19&tp_a=W0U19&b=31UV0MXWNRYLGTKSZBZ0CRLXR4WI5R&tp_b=31UV0MXWNRYLGTKSZBZ0CRLXR4WI5R&c=365799&tp_c=365799"},{"rt":6503,"response":{"heads":"0","tails":"3"},"type":"response","condition":"nonSeqFull","trueTheta":0.5,"classrooms":["A","B"],"studentTrueClassroom":"B","exampleSet":"first","trial_type":"survey-html-form","trial_index":76,"time_elapsed":633349,"internal_node_id":"0.0-73.0-0.0","params":{"nStudents":24,"maxFlips":30,"completionMinutes":45,"basePay":8,"maxBonus":9,"perTrialBonus":0.5,"perTrialBonusThreshold":0.05,"exampleCost":0.01},"classroomParams":{"A":{"a":1,"b":4},"B":{"a":4,"b":1},"C":{"a":2,"b":8},"D":{"a":8,"b":2}},"conditions":["nonSeqFull","nonSeqPartial","seqNoFeedback","seqFeedback"],"classroomPairings":[["A","B"],["C","D"]],"coinWeights":[0.2,0.5,0.8],"subjectId":"A2LMQ4497NMK3S","assignmentId":"31UV0MXWNRYLGTKSZBZ0CRLXR4WI5R","hitId":"3Z3R5YC0P3915KVY8X6BNRIWSQNFTT","url":"https://gershmanlab.com/experiments/alicia/teaching/experiment/?hitId=3Z3R5YC0P3915KVY8X6BNRIWSQNFTT&workerId=A2LMQ4497NMK3S&assignmentId=31UV0MXWNRYLGTKSZBZ0CRLXR4WI5R&a=W0U19&tp_a=W0U19&b=31UV0MXWNRYLGTKSZBZ0CRLXR4WI5R&tp_b=31UV0MXWNRYLGTKSZBZ0CRLXR4WI5R&c=365799&tp_c=365799","heads":0,"tails":3,"studentIndex":10,"studentTrueHypers":{"a":4,"b":1},"studentGuess":0.5,"delta":0,"totalExamples":3,"bonus":0.47,"bonusSoFar":3.66},{"rt":null,"stimulus":"Sending examples to student... ","response":null,"trial_type":"html-keyboard-response","trial_index":77,"time_elapsed":635365,"internal_node_id":"0.0-74.0","params":{"nStudents":24,"maxFlips":30,"completionMinutes":45,"basePay":8,"maxBonus":9,"perTrialBonus":0.5,"perTrialBonusThreshold":0.05,"exampleCost":0.01},"classroomParams":{"A":{"a":1,"b":4},"B":{"a":4,"b":1},"C":{"a":2,"b":8},"D":{"a":8,"b":2}},"conditions":["nonSeqFull","nonSeqPartial","seqNoFeedback","seqFeedback"],"classroomPairings":[["A","B"],["C","D"]],"coinWeights":[0.2,0.5,0.8],"subjectId":"A2LMQ4497NMK3S","assignmentId":"31UV0MXWNRYLGTKSZBZ0CRLXR4WI5R","hitId":"3Z3R5YC0P3915KVY8X6BNRIWSQNFTT","url":"https://gershmanlab.com/experiments/alicia/teaching/experiment/?hitId=3Z3R5YC0P3915KVY8X6BNRIWSQNFTT&workerId=A2LMQ4497NMK3S&assignmentId=31UV0MXWNRYLGTKSZBZ0CRLXR4WI5R&a=W0U19&tp_a=W0U19&b=31UV0MXWNRYLGTKSZBZ0CRLXR4WI5R&tp_b=31UV0MXWNRYLGTKSZBZ0CRLXR4WI5R&c=365799&tp_c=365799"},{"rt":null,"stimulus":"Examples sent to student! Waiting for student...","response":null,"trial_type":"html-keyboard-response","trial_index":78,"time_elapsed":641366,"internal_node_id":"0.0-75.0","params":{"nStudents":24,"maxFlips":30,"completionMinutes":45,"basePay":8,"maxBonus":9,"perTrialBonus":0.5,"perTrialBonusThreshold":0.05,"exampleCost":0.01},"classroomParams":{"A":{"a":1,"b":4},"B":{"a":4,"b":1},"C":{"a":2,"b":8},"D":{"a":8,"b":2}},"conditions":["nonSeqFull","nonSeqPartial","seqNoFeedback","seqFeedback"],"classroomPairings":[["A","B"],["C","D"]],"coinWeights":[0.2,0.5,0.8],"subjectId":"A2LMQ4497NMK3S","assignmentId":"31UV0MXWNRYLGTKSZBZ0CRLXR4WI5R","hitId":"3Z3R5YC0P3915KVY8X6BNRIWSQNFTT","url":"https://gershmanlab.com/experiments/alicia/teaching/experiment/?hitId=3Z3R5YC0P3915KVY8X6BNRIWSQNFTT&workerId=A2LMQ4497NMK3S&assignmentId=31UV0MXWNRYLGTKSZBZ0CRLXR4WI5R&a=W0U19&tp_a=W0U19&b=31UV0MXWNRYLGTKSZBZ0CRLXR4WI5R&tp_b=31UV0MXWNRYLGTKSZBZ0CRLXR4WI5R&c=365799&tp_c=365799"},{"rt":2007,"stimulus":"\n                <p>Student's guess for coin weight: <b style=\"color:Tomato;\">0.50</b></p>\n                <p>You received a bonus of <b>$0.47</b>. Total bonus so far: <b>$3.66</b></b></p>\n                <p></p>\n                <p>Press any key to continue.</p>\n                ","response":" ","trial_type":"html-keyboard-response","trial_index":79,"time_elapsed":643374,"internal_node_id":"0.0-76.0","params":{"nStudents":24,"maxFlips":30,"completionMinutes":45,"basePay":8,"maxBonus":9,"perTrialBonus":0.5,"perTrialBonusThreshold":0.05,"exampleCost":0.01},"classroomParams":{"A":{"a":1,"b":4},"B":{"a":4,"b":1},"C":{"a":2,"b":8},"D":{"a":8,"b":2}},"conditions":["nonSeqFull","nonSeqPartial","seqNoFeedback","seqFeedback"],"classroomPairings":[["A","B"],["C","D"]],"coinWeights":[0.2,0.5,0.8],"subjectId":"A2LMQ4497NMK3S","assignmentId":"31UV0MXWNRYLGTKSZBZ0CRLXR4WI5R","hitId":"3Z3R5YC0P3915KVY8X6BNRIWSQNFTT","url":"https://gershmanlab.com/experiments/alicia/teaching/experiment/?hitId=3Z3R5YC0P3915KVY8X6BNRIWSQNFTT&workerId=A2LMQ4497NMK3S&assignmentId=31UV0MXWNRYLGTKSZBZ0CRLXR4WI5R&a=W0U19&tp_a=W0U19&b=31UV0MXWNRYLGTKSZBZ0CRLXR4WI5R&tp_b=31UV0MXWNRYLGTKSZBZ0CRLXR4WI5R&c=365799&tp_c=365799"},{"rt":null,"stimulus":"<div style=\"font-size:60px;\">Next student</div>","response":null,"trial_type":"html-keyboard-response","trial_index":80,"time_elapsed":646376,"internal_node_id":"0.0-77.0-0.0","params":{"nStudents":24,"maxFlips":30,"completionMinutes":45,"basePay":8,"maxBonus":9,"perTrialBonus":0.5,"perTrialBonusThreshold":0.05,"exampleCost":0.01},"classroomParams":{"A":{"a":1,"b":4},"B":{"a":4,"b":1},"C":{"a":2,"b":8},"D":{"a":8,"b":2}},"conditions":["nonSeqFull","nonSeqPartial","seqNoFeedback","seqFeedback"],"classroomPairings":[["A","B"],["C","D"]],"coinWeights":[0.2,0.5,0.8],"subjectId":"A2LMQ4497NMK3S","assignmentId":"31UV0MXWNRYLGTKSZBZ0CRLXR4WI5R","hitId":"3Z3R5YC0P3915KVY8X6BNRIWSQNFTT","url":"https://gershmanlab.com/experiments/alicia/teaching/experiment/?hitId=3Z3R5YC0P3915KVY8X6BNRIWSQNFTT&workerId=A2LMQ4497NMK3S&assignmentId=31UV0MXWNRYLGTKSZBZ0CRLXR4WI5R&a=W0U19&tp_a=W0U19&b=31UV0MXWNRYLGTKSZBZ0CRLXR4WI5R&tp_b=31UV0MXWNRYLGTKSZBZ0CRLXR4WI5R&c=365799&tp_c=365799"},{"rt":5228,"stimulus":"\n            <h4 style=\"color:Orange;\">Student 12</h4>\n            <h2>The weight of your coin is <b style=\"color:Tomato;\">0.8</b>.</h2>\n            <p>In this block, you will be giving <b>two</b> sets of examples to Student 12.</p>\n                <p>You will see the student's guess after the first set of examples. You will also receive feedback at the end of the block.</p>\n            <p>To earn the highest bonus, you will have to <b>take into consideration the student's guess</b> when you choose your second set of examples.</p>","response":0,"trial_type":"html-button-response","trial_index":81,"time_elapsed":651604,"internal_node_id":"0.0-78.0","params":{"nStudents":24,"maxFlips":30,"completionMinutes":45,"basePay":8,"maxBonus":9,"perTrialBonus":0.5,"perTrialBonusThreshold":0.05,"exampleCost":0.01},"classroomParams":{"A":{"a":1,"b":4},"B":{"a":4,"b":1},"C":{"a":2,"b":8},"D":{"a":8,"b":2}},"conditions":["nonSeqFull","nonSeqPartial","seqNoFeedback","seqFeedback"],"classroomPairings":[["A","B"],["C","D"]],"coinWeights":[0.2,0.5,0.8],"subjectId":"A2LMQ4497NMK3S","assignmentId":"31UV0MXWNRYLGTKSZBZ0CRLXR4WI5R","hitId":"3Z3R5YC0P3915KVY8X6BNRIWSQNFTT","url":"https://gershmanlab.com/experiments/alicia/teaching/experiment/?hitId=3Z3R5YC0P3915KVY8X6BNRIWSQNFTT&workerId=A2LMQ4497NMK3S&assignmentId=31UV0MXWNRYLGTKSZBZ0CRLXR4WI5R&a=W0U19&tp_a=W0U19&b=31UV0MXWNRYLGTKSZBZ0CRLXR4WI5R&tp_b=31UV0MXWNRYLGTKSZBZ0CRLXR4WI5R&c=365799&tp_c=365799"},{"rt":6573,"response":{"heads":"1","tails":"0"},"type":"response","condition":"seqFeedback","trueTheta":0.8,"classrooms":["A","B"],"studentTrueClassroom":"B","exampleSet":"first","trial_type":"survey-html-form","trial_index":82,"time_elapsed":658179,"internal_node_id":"0.0-79.0-0.0","params":{"nStudents":24,"maxFlips":30,"completionMinutes":45,"basePay":8,"maxBonus":9,"perTrialBonus":0.5,"perTrialBonusThreshold":0.05,"exampleCost":0.01},"classroomParams":{"A":{"a":1,"b":4},"B":{"a":4,"b":1},"C":{"a":2,"b":8},"D":{"a":8,"b":2}},"conditions":["nonSeqFull","nonSeqPartial","seqNoFeedback","seqFeedback"],"classroomPairings":[["A","B"],["C","D"]],"coinWeights":[0.2,0.5,0.8],"subjectId":"A2LMQ4497NMK3S","assignmentId":"31UV0MXWNRYLGTKSZBZ0CRLXR4WI5R","hitId":"3Z3R5YC0P3915KVY8X6BNRIWSQNFTT","url":"https://gershmanlab.com/experiments/alicia/teaching/experiment/?hitId=3Z3R5YC0P3915KVY8X6BNRIWSQNFTT&workerId=A2LMQ4497NMK3S&assignmentId=31UV0MXWNRYLGTKSZBZ0CRLXR4WI5R&a=W0U19&tp_a=W0U19&b=31UV0MXWNRYLGTKSZBZ0CRLXR4WI5R&tp_b=31UV0MXWNRYLGTKSZBZ0CRLXR4WI5R&c=365799&tp_c=365799","heads":1,"tails":0,"studentIndex":11,"studentTrueHypers":{"a":4,"b":1},"studentGuess":0.8333333333333334,"delta":0.033333333333333326,"totalExamples":1,"bonusSoFar":3.66},{"rt":null,"stimulus":"Sending examples to student... ","response":null,"trial_type":"html-keyboard-response","trial_index":83,"time_elapsed":659442,"internal_node_id":"0.0-80.0","params":{"nStudents":24,"maxFlips":30,"completionMinutes":45,"basePay":8,"maxBonus":9,"perTrialBonus":0.5,"perTrialBonusThreshold":0.05,"exampleCost":0.01},"classroomParams":{"A":{"a":1,"b":4},"B":{"a":4,"b":1},"C":{"a":2,"b":8},"D":{"a":8,"b":2}},"conditions":["nonSeqFull","nonSeqPartial","seqNoFeedback","seqFeedback"],"classroomPairings":[["A","B"],["C","D"]],"coinWeights":[0.2,0.5,0.8],"subjectId":"A2LMQ4497NMK3S","assignmentId":"31UV0MXWNRYLGTKSZBZ0CRLXR4WI5R","hitId":"3Z3R5YC0P3915KVY8X6BNRIWSQNFTT","url":"https://gershmanlab.com/experiments/alicia/teaching/experiment/?hitId=3Z3R5YC0P3915KVY8X6BNRIWSQNFTT&workerId=A2LMQ4497NMK3S&assignmentId=31UV0MXWNRYLGTKSZBZ0CRLXR4WI5R&a=W0U19&tp_a=W0U19&b=31UV0MXWNRYLGTKSZBZ0CRLXR4WI5R&tp_b=31UV0MXWNRYLGTKSZBZ0CRLXR4WI5R&c=365799&tp_c=365799"},{"rt":null,"stimulus":"Examples sent to student! Waiting for student...","response":null,"trial_type":"html-keyboard-response","trial_index":84,"time_elapsed":663943,"internal_node_id":"0.0-81.0","params":{"nStudents":24,"maxFlips":30,"completionMinutes":45,"basePay":8,"maxBonus":9,"perTrialBonus":0.5,"perTrialBonusThreshold":0.05,"exampleCost":0.01},"classroomParams":{"A":{"a":1,"b":4},"B":{"a":4,"b":1},"C":{"a":2,"b":8},"D":{"a":8,"b":2}},"conditions":["nonSeqFull","nonSeqPartial","seqNoFeedback","seqFeedback"],"classroomPairings":[["A","B"],["C","D"]],"coinWeights":[0.2,0.5,0.8],"subjectId":"A2LMQ4497NMK3S","assignmentId":"31UV0MXWNRYLGTKSZBZ0CRLXR4WI5R","hitId":"3Z3R5YC0P3915KVY8X6BNRIWSQNFTT","url":"https://gershmanlab.com/experiments/alicia/teaching/experiment/?hitId=3Z3R5YC0P3915KVY8X6BNRIWSQNFTT&workerId=A2LMQ4497NMK3S&assignmentId=31UV0MXWNRYLGTKSZBZ0CRLXR4WI5R&a=W0U19&tp_a=W0U19&b=31UV0MXWNRYLGTKSZBZ0CRLXR4WI5R&tp_b=31UV0MXWNRYLGTKSZBZ0CRLXR4WI5R&c=365799&tp_c=365799"},{"rt":5166,"stimulus":"\n                <p>Student's guess for coin weight: <b style=\"color:Tomato;\">0.83</b></p>\n                <p></b></p>\n                <p>You will now send another set of examples to your student. <b>Remember to take your student's guess into consideration so that you can earn the highest bonus possible!</b> </p>\n                <p>Press any key to continue.</p>\n                ","response":" ","trial_type":"html-keyboard-response","trial_index":85,"time_elapsed":669110,"internal_node_id":"0.0-82.0","params":{"nStudents":24,"maxFlips":30,"completionMinutes":45,"basePay":8,"maxBonus":9,"perTrialBonus":0.5,"perTrialBonusThreshold":0.05,"exampleCost":0.01},"classroomParams":{"A":{"a":1,"b":4},"B":{"a":4,"b":1},"C":{"a":2,"b":8},"D":{"a":8,"b":2}},"conditions":["nonSeqFull","nonSeqPartial","seqNoFeedback","seqFeedback"],"classroomPairings":[["A","B"],["C","D"]],"coinWeights":[0.2,0.5,0.8],"subjectId":"A2LMQ4497NMK3S","assignmentId":"31UV0MXWNRYLGTKSZBZ0CRLXR4WI5R","hitId":"3Z3R5YC0P3915KVY8X6BNRIWSQNFTT","url":"https://gershmanlab.com/experiments/alicia/teaching/experiment/?hitId=3Z3R5YC0P3915KVY8X6BNRIWSQNFTT&workerId=A2LMQ4497NMK3S&assignmentId=31UV0MXWNRYLGTKSZBZ0CRLXR4WI5R&a=W0U19&tp_a=W0U19&b=31UV0MXWNRYLGTKSZBZ0CRLXR4WI5R&tp_b=31UV0MXWNRYLGTKSZBZ0CRLXR4W