[{"rt":1371,"stimulus":"Welcome to the experiment. Press any key to begin.","response":" ","trial_type":"html-keyboard-response","trial_index":0,"time_elapsed":1407,"internal_node_id":"0.0-0.0","params":{"nStudents":24,"maxFlips":30,"completionMinutes":45,"basePay":8,"maxBonus":9,"perTrialBonus":0.5,"perTrialBonusThreshold":0.05,"exampleCost":0.01},"classroomParams":{"A":{"a":1,"b":4},"B":{"a":4,"b":1},"C":{"a":2,"b":8},"D":{"a":8,"b":2}},"conditions":["nonSeqFull","nonSeqPartial","seqNoFeedback","seqFeedback"],"classroomPairings":[["A","B"],["C","D"]],"coinWeights":[0.2,0.5,0.8],"subjectId":"A2MS1GQLGAX9FZ","assignmentId":"32EYX73OY1VFU7DQQZ1HYVE4DH8URP","hitId":"3Z3R5YC0P3915KVY8X6BNRIWSQNFTT","url":"https://gershmanlab.com/experiments/alicia/teaching/experiment/?hitId=3Z3R5YC0P3915KVY8X6BNRIWSQNFTT&workerId=A2MS1GQLGAX9FZ&assignmentId=32EYX73OY1VFU7DQQZ1HYVE4DH8URP&a=OXE29&tp_a=OXE29&b=32EYX73OY1VFU7DQQZ1HYVE4DH8URP&tp_b=32EYX73OY1VFU7DQQZ1HYVE4DH8URP&c=365799&tp_c=365799"},{"rt":2406,"stimulus":"\n        <h3>Please read this consent agreement carefully before deciding whether to participate in this experiment.</h3>\n        <p><b>Purpose of the research:</b> To examine how people teach effectively.</p>\n        <p><b>What you will do in this research:</b> You will teach students the weights of different coins.</p>\n        <p><b>Time required:</b> This experiment will take 45 minutes to complete.</p>\n        <p><b>Risks:</b> There are no anticipated risks associated with participating in this study.             The effects of participating should be comparable to those you would experience from viewing a computer monitor             and using a mouse and keyboard for the duration of the experiment.</p>\n        <p><b>Benefits:</b> The study provides important information about the nature of teaching.</p>\n        <p><b>Compensation:</b> You will receive <b>$8</b> for completing the experiment and a performance bonus of up to <b>$9</b>.</p>\n        <p><b>Confidentiality:</b> Your participation in this study will remain confidential.             No personally identifiable information will be associated with your data.             Your de-identified data may be shared with other researchers and used in future projects.</p>\n        <p><b>Participation and withdrawal:</b> Your participation in this study is completely voluntary and             you may refuse to participate or you may choose to withdraw at any time without penalty or loss of\n            benefits to which you are otherwise entitled.</p>\n        <p><b>How to contact the researcher:</b> If you have questions or concerns about your participation            or payment, or want to request a summary of research findings, please contact\n            Alicia Chen, aliciachen@college.harvard.edu.</p>\n        <p><b>Whom to contact about your rights in this research:</b> For questions, concerns, suggestions,             or complaints that have not been or cannot be addressed by the researcher, or to report             research-related harm, please contact the Committee on the Use of Human Subjects in Research at Harvard University,             1414 Massachusetts Avenue, Second Floor, Cambridge, MA 02138. Phone: 617-496-2847. Email: cuhs@fas.harvard.edu.</p>\n        ","response":0,"trial_type":"html-button-response","trial_index":1,"time_elapsed":3817,"internal_node_id":"0.0-1.0","params":{"nStudents":24,"maxFlips":30,"completionMinutes":45,"basePay":8,"maxBonus":9,"perTrialBonus":0.5,"perTrialBonusThreshold":0.05,"exampleCost":0.01},"classroomParams":{"A":{"a":1,"b":4},"B":{"a":4,"b":1},"C":{"a":2,"b":8},"D":{"a":8,"b":2}},"conditions":["nonSeqFull","nonSeqPartial","seqNoFeedback","seqFeedback"],"classroomPairings":[["A","B"],["C","D"]],"coinWeights":[0.2,0.5,0.8],"subjectId":"A2MS1GQLGAX9FZ","assignmentId":"32EYX73OY1VFU7DQQZ1HYVE4DH8URP","hitId":"3Z3R5YC0P3915KVY8X6BNRIWSQNFTT","url":"https://gershmanlab.com/experiments/alicia/teaching/experiment/?hitId=3Z3R5YC0P3915KVY8X6BNRIWSQNFTT&workerId=A2MS1GQLGAX9FZ&assignmentId=32EYX73OY1VFU7DQQZ1HYVE4DH8URP&a=OXE29&tp_a=OXE29&b=32EYX73OY1VFU7DQQZ1HYVE4DH8URP&tp_b=32EYX73OY1VFU7DQQZ1HYVE4DH8URP&c=365799&tp_c=365799"},{"view_history":[{"page_index":0,"viewing_time":1455},{"page_index":1,"viewing_time":688},{"page_index":2,"viewing_time":1272},{"page_index":3,"viewing_time":949},{"page_index":4,"viewing_time":1040},{"page_index":5,"viewing_time":1054},{"page_index":6,"viewing_time":1085}],"rt":7541,"trial_type":"instructions","trial_index":2,"time_elapsed":11360,"internal_node_id":"0.0-2.0-0.0","params":{"nStudents":24,"maxFlips":30,"completionMinutes":45,"basePay":8,"maxBonus":9,"perTrialBonus":0.5,"perTrialBonusThreshold":0.05,"exampleCost":0.01},"classroomParams":{"A":{"a":1,"b":4},"B":{"a":4,"b":1},"C":{"a":2,"b":8},"D":{"a":8,"b":2}},"conditions":["nonSeqFull","nonSeqPartial","seqNoFeedback","seqFeedback"],"classroomPairings":[["A","B"],["C","D"]],"coinWeights":[0.2,0.5,0.8],"subjectId":"A2MS1GQLGAX9FZ","assignmentId":"32EYX73OY1VFU7DQQZ1HYVE4DH8URP","hitId":"3Z3R5YC0P3915KVY8X6BNRIWSQNFTT","url":"https://gershmanlab.com/experiments/alicia/teaching/experiment/?hitId=3Z3R5YC0P3915KVY8X6BNRIWSQNFTT&workerId=A2MS1GQLGAX9FZ&assignmentId=32EYX73OY1VFU7DQQZ1HYVE4DH8URP&a=OXE29&tp_a=OXE29&b=32EYX73OY1VFU7DQQZ1HYVE4DH8URP&tp_b=32EYX73OY1VFU7DQQZ1HYVE4DH8URP&c=365799&tp_c=365799"},{"rt":21701,"response":{"Q0":"Students in different classrooms will have seen a different number of heads and tails before seeing the examples you select for them.","Q1":"By <b>considering the student's classroom information</b> so that I can teach efficiently and accurately/helpfully at the same time (because each example I give to the student costs money!).","Q2":"The coin lands heads 90% of the time.","Q3":"No, I will teach a <b>new</b> student each time.","Q4":"The students are also on the same alien planet as you, where coins can be unfair.","Q5":"Based on the student's second (and final) guess."},"question_order":[0,3,1,2,4,5],"trial_type":"survey-multi-choice","trial_index":3,"time_elapsed":33064,"internal_node_id":"0.0-2.0-1.0","params":{"nStudents":24,"maxFlips":30,"completionMinutes":45,"basePay":8,"maxBonus":9,"perTrialBonus":0.5,"perTrialBonusThreshold":0.05,"exampleCost":0.01},"classroomParams":{"A":{"a":1,"b":4},"B":{"a":4,"b":1},"C":{"a":2,"b":8},"D":{"a":8,"b":2}},"conditions":["nonSeqFull","nonSeqPartial","seqNoFeedback","seqFeedback"],"classroomPairings":[["A","B"],["C","D"]],"coinWeights":[0.2,0.5,0.8],"subjectId":"A2MS1GQLGAX9FZ","assignmentId":"32EYX73OY1VFU7DQQZ1HYVE4DH8URP","hitId":"3Z3R5YC0P3915KVY8X6BNRIWSQNFTT","url":"https://gershmanlab.com/experiments/alicia/teaching/experiment/?hitId=3Z3R5YC0P3915KVY8X6BNRIWSQNFTT&workerId=A2MS1GQLGAX9FZ&assignmentId=32EYX73OY1VFU7DQQZ1HYVE4DH8URP&a=OXE29&tp_a=OXE29&b=32EYX73OY1VFU7DQQZ1HYVE4DH8URP&tp_b=32EYX73OY1VFU7DQQZ1HYVE4DH8URP&c=365799&tp_c=365799","pass":true},{"rt":null,"stimulus":"<div style=\"font-size:30px;\">Congrats on passing the comprehension quiz! The experiment will begin in a few seconds.</div>","response":null,"trial_type":"html-keyboard-response","trial_index":4,"time_elapsed":36083,"internal_node_id":"0.0-3.0","params":{"nStudents":24,"maxFlips":30,"completionMinutes":45,"basePay":8,"maxBonus":9,"perTrialBonus":0.5,"perTrialBonusThreshold":0.05,"exampleCost":0.01},"classroomParams":{"A":{"a":1,"b":4},"B":{"a":4,"b":1},"C":{"a":2,"b":8},"D":{"a":8,"b":2}},"conditions":["nonSeqFull","nonSeqPartial","seqNoFeedback","seqFeedback"],"classroomPairings":[["A","B"],["C","D"]],"coinWeights":[0.2,0.5,0.8],"subjectId":"A2MS1GQLGAX9FZ","assignmentId":"32EYX73OY1VFU7DQQZ1HYVE4DH8URP","hitId":"3Z3R5YC0P3915KVY8X6BNRIWSQNFTT","url":"https://gershmanlab.com/experiments/alicia/teaching/experiment/?hitId=3Z3R5YC0P3915KVY8X6BNRIWSQNFTT&workerId=A2MS1GQLGAX9FZ&assignmentId=32EYX73OY1VFU7DQQZ1HYVE4DH8URP&a=OXE29&tp_a=OXE29&b=32EYX73OY1VFU7DQQZ1HYVE4DH8URP&tp_b=32EYX73OY1VFU7DQQZ1HYVE4DH8URP&c=365799&tp_c=365799"},{"rt":null,"stimulus":"<div style=\"font-size:50px;\">First student</div>","response":null,"trial_type":"html-keyboard-response","trial_index":5,"time_elapsed":39089,"internal_node_id":"0.0-4.0","params":{"nStudents":24,"maxFlips":30,"completionMinutes":45,"basePay":8,"maxBonus":9,"perTrialBonus":0.5,"perTrialBonusThreshold":0.05,"exampleCost":0.01},"classroomParams":{"A":{"a":1,"b":4},"B":{"a":4,"b":1},"C":{"a":2,"b":8},"D":{"a":8,"b":2}},"conditions":["nonSeqFull","nonSeqPartial","seqNoFeedback","seqFeedback"],"classroomPairings":[["A","B"],["C","D"]],"coinWeights":[0.2,0.5,0.8],"subjectId":"A2MS1GQLGAX9FZ","assignmentId":"32EYX73OY1VFU7DQQZ1HYVE4DH8URP","hitId":"3Z3R5YC0P3915KVY8X6BNRIWSQNFTT","url":"https://gershmanlab.com/experiments/alicia/teaching/experiment/?hitId=3Z3R5YC0P3915KVY8X6BNRIWSQNFTT&workerId=A2MS1GQLGAX9FZ&assignmentId=32EYX73OY1VFU7DQQZ1HYVE4DH8URP&a=OXE29&tp_a=OXE29&b=32EYX73OY1VFU7DQQZ1HYVE4DH8URP&tp_b=32EYX73OY1VFU7DQQZ1HYVE4DH8URP&c=365799&tp_c=365799"},{"rt":1598,"stimulus":"\n            <h4 style=\"color:Orange;\">Student 1</h4>\n            <h2>The weight of your coin is <b style=\"color:Tomato;\">0.5</b>.</h2>\n            <p>In this block, you will be giving <b>one</b> set of examples to Student 1.</p>\n                <p>You will receive feedback at the end of the block.</p>\n            <p></p>","response":0,"trial_type":"html-button-response","trial_index":6,"time_elapsed":40688,"internal_node_id":"0.0-5.0","params":{"nStudents":24,"maxFlips":30,"completionMinutes":45,"basePay":8,"maxBonus":9,"perTrialBonus":0.5,"perTrialBonusThreshold":0.05,"exampleCost":0.01},"classroomParams":{"A":{"a":1,"b":4},"B":{"a":4,"b":1},"C":{"a":2,"b":8},"D":{"a":8,"b":2}},"conditions":["nonSeqFull","nonSeqPartial","seqNoFeedback","seqFeedback"],"classroomPairings":[["A","B"],["C","D"]],"coinWeights":[0.2,0.5,0.8],"subjectId":"A2MS1GQLGAX9FZ","assignmentId":"32EYX73OY1VFU7DQQZ1HYVE4DH8URP","hitId":"3Z3R5YC0P3915KVY8X6BNRIWSQNFTT","url":"https://gershmanlab.com/experiments/alicia/teaching/experiment/?hitId=3Z3R5YC0P3915KVY8X6BNRIWSQNFTT&workerId=A2MS1GQLGAX9FZ&assignmentId=32EYX73OY1VFU7DQQZ1HYVE4DH8URP&a=OXE29&tp_a=OXE29&b=32EYX73OY1VFU7DQQZ1HYVE4DH8URP&tp_b=32EYX73OY1VFU7DQQZ1HYVE4DH8URP&c=365799&tp_c=365799"},{"rt":5325,"response":{"heads":"5","tails":"5"},"type":"response","condition":"nonSeqPartial","trueTheta":0.5,"classrooms":["C","D"],"studentTrueClassroom":"C","exampleSet":"first","trial_type":"survey-html-form","trial_index":7,"time_elapsed":46015,"internal_node_id":"0.0-6.0-0.0","params":{"nStudents":24,"maxFlips":30,"completionMinutes":45,"basePay":8,"maxBonus":9,"perTrialBonus":0.5,"perTrialBonusThreshold":0.05,"exampleCost":0.01},"classroomParams":{"A":{"a":1,"b":4},"B":{"a":4,"b":1},"C":{"a":2,"b":8},"D":{"a":8,"b":2}},"conditions":["nonSeqFull","nonSeqPartial","seqNoFeedback","seqFeedback"],"classroomPairings":[["A","B"],["C","D"]],"coinWeights":[0.2,0.5,0.8],"subjectId":"A2MS1GQLGAX9FZ","assignmentId":"32EYX73OY1VFU7DQQZ1HYVE4DH8URP","hitId":"3Z3R5YC0P3915KVY8X6BNRIWSQNFTT","url":"https://gershmanlab.com/experiments/alicia/teaching/experiment/?hitId=3Z3R5YC0P3915KVY8X6BNRIWSQNFTT&workerId=A2MS1GQLGAX9FZ&assignmentId=32EYX73OY1VFU7DQQZ1HYVE4DH8URP&a=OXE29&tp_a=OXE29&b=32EYX73OY1VFU7DQQZ1HYVE4DH8URP&tp_b=32EYX73OY1VFU7DQQZ1HYVE4DH8URP&c=365799&tp_c=365799","heads":5,"tails":5,"studentIndex":0,"studentTrueHypers":{"a":2,"b":8},"studentGuess":0.35,"delta":0.15000000000000002,"totalExamples":10,"bonus":0,"bonusSoFar":0},{"rt":null,"stimulus":"Sending examples to student... ","response":null,"trial_type":"html-keyboard-response","trial_index":8,"time_elapsed":47273,"internal_node_id":"0.0-7.0","params":{"nStudents":24,"maxFlips":30,"completionMinutes":45,"basePay":8,"maxBonus":9,"perTrialBonus":0.5,"perTrialBonusThreshold":0.05,"exampleCost":0.01},"classroomParams":{"A":{"a":1,"b":4},"B":{"a":4,"b":1},"C":{"a":2,"b":8},"D":{"a":8,"b":2}},"conditions":["nonSeqFull","nonSeqPartial","seqNoFeedback","seqFeedback"],"classroomPairings":[["A","B"],["C","D"]],"coinWeights":[0.2,0.5,0.8],"subjectId":"A2MS1GQLGAX9FZ","assignmentId":"32EYX73OY1VFU7DQQZ1HYVE4DH8URP","hitId":"3Z3R5YC0P3915KVY8X6BNRIWSQNFTT","url":"https://gershmanlab.com/experiments/alicia/teaching/experiment/?hitId=3Z3R5YC0P3915KVY8X6BNRIWSQNFTT&workerId=A2MS1GQLGAX9FZ&assignmentId=32EYX73OY1VFU7DQQZ1HYVE4DH8URP&a=OXE29&tp_a=OXE29&b=32EYX73OY1VFU7DQQZ1HYVE4DH8URP&tp_b=32EYX73OY1VFU7DQQZ1HYVE4DH8URP&c=365799&tp_c=365799"},{"rt":null,"stimulus":"Examples sent to student! Waiting for student...","response":null,"trial_type":"html-keyboard-response","trial_index":9,"time_elapsed":51779,"internal_node_id":"0.0-8.0","params":{"nStudents":24,"maxFlips":30,"completionMinutes":45,"basePay":8,"maxBonus":9,"perTrialBonus":0.5,"perTrialBonusThreshold":0.05,"exampleCost":0.01},"classroomParams":{"A":{"a":1,"b":4},"B":{"a":4,"b":1},"C":{"a":2,"b":8},"D":{"a":8,"b":2}},"conditions":["nonSeqFull","nonSeqPartial","seqNoFeedback","seqFeedback"],"classroomPairings":[["A","B"],["C","D"]],"coinWeights":[0.2,0.5,0.8],"subjectId":"A2MS1GQLGAX9FZ","assignmentId":"32EYX73OY1VFU7DQQZ1HYVE4DH8URP","hitId":"3Z3R5YC0P3915KVY8X6BNRIWSQNFTT","url":"https://gershmanlab.com/experiments/alicia/teaching/experiment/?hitId=3Z3R5YC0P3915KVY8X6BNRIWSQNFTT&workerId=A2MS1GQLGAX9FZ&assignmentId=32EYX73OY1VFU7DQQZ1HYVE4DH8URP&a=OXE29&tp_a=OXE29&b=32EYX73OY1VFU7DQQZ1HYVE4DH8URP&tp_b=32EYX73OY1VFU7DQQZ1HYVE4DH8URP&c=365799&tp_c=365799"},{"rt":5481,"stimulus":"\n                <p>Student's guess for coin weight: <b style=\"color:Tomato;\">0.35</b></p>\n                <p>You received a bonus of <b>$0</b>. Total bonus so far: <b>$0.00</b></b></p>\n                <p></p>\n                <p>Press any key to continue.</p>\n                ","response":" ","trial_type":"html-keyboard-response","trial_index":10,"time_elapsed":57262,"internal_node_id":"0.0-9.0","params":{"nStudents":24,"maxFlips":30,"completionMinutes":45,"basePay":8,"maxBonus":9,"perTrialBonus":0.5,"perTrialBonusThreshold":0.05,"exampleCost":0.01},"classroomParams":{"A":{"a":1,"b":4},"B":{"a":4,"b":1},"C":{"a":2,"b":8},"D":{"a":8,"b":2}},"conditions":["nonSeqFull","nonSeqPartial","seqNoFeedback","seqFeedback"],"classroomPairings":[["A","B"],["C","D"]],"coinWeights":[0.2,0.5,0.8],"subjectId":"A2MS1GQLGAX9FZ","assignmentId":"32EYX73OY1VFU7DQQZ1HYVE4DH8URP","hitId":"3Z3R5YC0P3915KVY8X6BNRIWSQNFTT","url":"https://gershmanlab.com/experiments/alicia/teaching/experiment/?hitId=3Z3R5YC0P3915KVY8X6BNRIWSQNFTT&workerId=A2MS1GQLGAX9FZ&assignmentId=32EYX73OY1VFU7DQQZ1HYVE4DH8URP&a=OXE29&tp_a=OXE29&b=32EYX73OY1VFU7DQQZ1HYVE4DH8URP&tp_b=32EYX73OY1VFU7DQQZ1HYVE4DH8URP&c=365799&tp_c=365799"},{"rt":null,"stimulus":"<div style=\"font-size:60px;\">Next student</div>","response":null,"trial_type":"html-keyboard-response","trial_index":11,"time_elapsed":59514,"internal_node_id":"0.0-10.0-0.0","params":{"nStudents":24,"maxFlips":30,"completionMinutes":45,"basePay":8,"maxBonus":9,"perTrialBonus":0.5,"perTrialBonusThreshold":0.05,"exampleCost":0.01},"classroomParams":{"A":{"a":1,"b":4},"B":{"a":4,"b":1},"C":{"a":2,"b":8},"D":{"a":8,"b":2}},"conditions":["nonSeqFull","nonSeqPartial","seqNoFeedback","seqFeedback"],"classroomPairings":[["A","B"],["C","D"]],"coinWeights":[0.2,0.5,0.8],"subjectId":"A2MS1GQLGAX9FZ","assignmentId":"32EYX73OY1VFU7DQQZ1HYVE4DH8URP","hitId":"3Z3R5YC0P3915KVY8X6BNRIWSQNFTT","url":"https://gershmanlab.com/experiments/alicia/teaching/experiment/?hitId=3Z3R5YC0P3915KVY8X6BNRIWSQNFTT&workerId=A2MS1GQLGAX9FZ&assignmentId=32EYX73OY1VFU7DQQZ1HYVE4DH8URP&a=OXE29&tp_a=OXE29&b=32EYX73OY1VFU7DQQZ1HYVE4DH8URP&tp_b=32EYX73OY1VFU7DQQZ1HYVE4DH8URP&c=365799&tp_c=365799"},{"rt":1727,"stimulus":"\n            <h4 style=\"color:Orange;\">Student 2</h4>\n            <h2>The weight of your coin is <b style=\"color:Tomato;\">0.5</b>.</h2>\n            <p>In this block, you will be giving <b>two</b> sets of examples to Student 2.</p>\n                <p>You will see the student's guess after the first set of examples. You will also receive feedback at the end of the block.</p>\n            <p>To earn the highest bonus, you will have to <b>take into consideration the student's guess</b> when you choose your second set of examples.</p>","response":0,"trial_type":"html-button-response","trial_index":12,"time_elapsed":61242,"internal_node_id":"0.0-11.0","params":{"nStudents":24,"maxFlips":30,"completionMinutes":45,"basePay":8,"maxBonus":9,"perTrialBonus":0.5,"perTrialBonusThreshold":0.05,"exampleCost":0.01},"classroomParams":{"A":{"a":1,"b":4},"B":{"a":4,"b":1},"C":{"a":2,"b":8},"D":{"a":8,"b":2}},"conditions":["nonSeqFull","nonSeqPartial","seqNoFeedback","seqFeedback"],"classroomPairings":[["A","B"],["C","D"]],"coinWeights":[0.2,0.5,0.8],"subjectId":"A2MS1GQLGAX9FZ","assignmentId":"32EYX73OY1VFU7DQQZ1HYVE4DH8URP","hitId":"3Z3R5YC0P3915KVY8X6BNRIWSQNFTT","url":"https://gershmanlab.com/experiments/alicia/teaching/experiment/?hitId=3Z3R5YC0P3915KVY8X6BNRIWSQNFTT&workerId=A2MS1GQLGAX9FZ&assignmentId=32EYX73OY1VFU7DQQZ1HYVE4DH8URP&a=OXE29&tp_a=OXE29&b=32EYX73OY1VFU7DQQZ1HYVE4DH8URP&tp_b=32EYX73OY1VFU7DQQZ1HYVE4DH8URP&c=365799&tp_c=365799"},{"rt":14628,"response":{"heads":"4","tails":"4"},"type":"response","condition":"seqFeedback","trueTheta":0.5,"classrooms":["C","D"],"studentTrueClassroom":"D","exampleSet":"first","trial_type":"survey-html-form","trial_index":13,"time_elapsed":75872,"internal_node_id":"0.0-12.0-0.0","params":{"nStudents":24,"maxFlips":30,"completionMinutes":45,"basePay":8,"maxBonus":9,"perTrialBonus":0.5,"perTrialBonusThreshold":0.05,"exampleCost":0.01},"classroomParams":{"A":{"a":1,"b":4},"B":{"a":4,"b":1},"C":{"a":2,"b":8},"D":{"a":8,"b":2}},"conditions":["nonSeqFull","nonSeqPartial","seqNoFeedback","seqFeedback"],"classroomPairings":[["A","B"],["C","D"]],"coinWeights":[0.2,0.5,0.8],"subjectId":"A2MS1GQLGAX9FZ","assignmentId":"32EYX73OY1VFU7DQQZ1HYVE4DH8URP","hitId":"3Z3R5YC0P3915KVY8X6BNRIWSQNFTT","url":"https://gershmanlab.com/experiments/alicia/teaching/experiment/?hitId=3Z3R5YC0P3915KVY8X6BNRIWSQNFTT&workerId=A2MS1GQLGAX9FZ&assignmentId=32EYX73OY1VFU7DQQZ1HYVE4DH8URP&a=OXE29&tp_a=OXE29&b=32EYX73OY1VFU7DQQZ1HYVE4DH8URP&tp_b=32EYX73OY1VFU7DQQZ1HYVE4DH8URP&c=365799&tp_c=365799","heads":4,"tails":4,"studentIndex":1,"studentTrueHypers":{"a":8,"b":2},"studentGuess":0.6666666666666666,"delta":0.16666666666666663,"totalExamples":8,"bonusSoFar":0},{"rt":null,"stimulus":"Sending examples to student... ","response":null,"trial_type":"html-keyboard-response","trial_index":14,"time_elapsed":77625,"internal_node_id":"0.0-13.0","params":{"nStudents":24,"maxFlips":30,"completionMinutes":45,"basePay":8,"maxBonus":9,"perTrialBonus":0.5,"perTrialBonusThreshold":0.05,"exampleCost":0.01},"classroomParams":{"A":{"a":1,"b":4},"B":{"a":4,"b":1},"C":{"a":2,"b":8},"D":{"a":8,"b":2}},"conditions":["nonSeqFull","nonSeqPartial","seqNoFeedback","seqFeedback"],"classroomPairings":[["A","B"],["C","D"]],"coinWeights":[0.2,0.5,0.8],"subjectId":"A2MS1GQLGAX9FZ","assignmentId":"32EYX73OY1VFU7DQQZ1HYVE4DH8URP","hitId":"3Z3R5YC0P3915KVY8X6BNRIWSQNFTT","url":"https://gershmanlab.com/experiments/alicia/teaching/experiment/?hitId=3Z3R5YC0P3915KVY8X6BNRIWSQNFTT&workerId=A2MS1GQLGAX9FZ&assignmentId=32EYX73OY1VFU7DQQZ1HYVE4DH8URP&a=OXE29&tp_a=OXE29&b=32EYX73OY1VFU7DQQZ1HYVE4DH8URP&tp_b=32EYX73OY1VFU7DQQZ1HYVE4DH8URP&c=365799&tp_c=365799"},{"rt":null,"stimulus":"Examples sent to student! Waiting for student...","response":null,"trial_type":"html-keyboard-response","trial_index":15,"time_elapsed":83129,"internal_node_id":"0.0-14.0","params":{"nStudents":24,"maxFlips":30,"completionMinutes":45,"basePay":8,"maxBonus":9,"perTrialBonus":0.5,"perTrialBonusThreshold":0.05,"exampleCost":0.01},"classroomParams":{"A":{"a":1,"b":4},"B":{"a":4,"b":1},"C":{"a":2,"b":8},"D":{"a":8,"b":2}},"conditions":["nonSeqFull","nonSeqPartial","seqNoFeedback","seqFeedback"],"classroomPairings":[["A","B"],["C","D"]],"coinWeights":[0.2,0.5,0.8],"subjectId":"A2MS1GQLGAX9FZ","assignmentId":"32EYX73OY1VFU7DQQZ1HYVE4DH8URP","hitId":"3Z3R5YC0P3915KVY8X6BNRIWSQNFTT","url":"https://gershmanlab.com/experiments/alicia/teaching/experiment/?hitId=3Z3R5YC0P3915KVY8X6BNRIWSQNFTT&workerId=A2MS1GQLGAX9FZ&assignmentId=32EYX73OY1VFU7DQQZ1HYVE4DH8URP&a=OXE29&tp_a=OXE29&b=32EYX73OY1VFU7DQQZ1HYVE4DH8URP&tp_b=32EYX73OY1VFU7DQQZ1HYVE4DH8URP&c=365799&tp_c=365799"},{"rt":2360,"stimulus":"\n                <p>Student's guess for coin weight: <b style=\"color:Tomato;\">0.67</b></p>\n                <p></b></p>\n                <p>You will now send another set of examples to your student. <b>Remember to take your student's guess into consideration so that you can earn the highest bonus possible!</b> </p>\n                <p>Press any key to continue.</p>\n                ","response":" ","trial_type":"html-keyboard-response","trial_index":16,"time_elapsed":85490,"internal_node_id":"0.0-15.0","params":{"nStudents":24,"maxFlips":30,"completionMinutes":45,"basePay":8,"maxBonus":9,"perTrialBonus":0.5,"perTrialBonusThreshold":0.05,"exampleCost":0.01},"classroomParams":{"A":{"a":1,"b":4},"B":{"a":4,"b":1},"C":{"a":2,"b":8},"D":{"a":8,"b":2}},"conditions":["nonSeqFull","nonSeqPartial","seqNoFeedback","seqFeedback"],"classroomPairings":[["A","B"],["C","D"]],"coinWeights":[0.2,0.5,0.8],"subjectId":"A2MS1GQLGAX9FZ","assignmentId":"32EYX73OY1VFU7DQQZ1HYVE4DH8URP","hitId":"3Z3R5YC0P3915KVY8X6BNRIWSQNFTT","url":"https://gershmanlab.com/experiments/alicia/teaching/experiment/?hitId=3Z3R5YC0P3915KVY8X6BNRIWSQNFTT&workerId=A2MS1GQLGAX9FZ&assignmentId=32EYX73OY1VFU7DQQZ1HYVE4DH8URP&a=OXE29&tp_a=OXE29&b=32EYX73OY1VFU7DQQZ1HYVE4DH8URP&tp_b=32EYX73OY1VFU7DQQZ1HYVE4DH8URP&c=365799&tp_c=365799"},{"rt":5136,"response":{"heads":"4","tails":"4"},"type":"response","condition":"seqFeedback","trueTheta":0.5,"classrooms":["C","D"],"studentTrueClassroom":"D","exampleSet":"second","trial_type":"survey-html-form","trial_index":17,"time_elapsed":90628,"internal_node_id":"0.0-16.0-0.0","params":{"nStudents":24,"maxFlips":30,"completionMinutes":45,"basePay":8,"maxBonus":9,"perTrialBonus":0.5,"perTrialBonusThreshold":0.05,"exampleCost":0.01},"classroomParams":{"A":{"a":1,"b":4},"B":{"a":4,"b":1},"C":{"a":2,"b":8},"D":{"a":8,"b":2}},"conditions":["nonSeqFull","nonSeqPartial","seqNoFeedback","seqFeedback"],"classroomPairings":[["A","B"],["C","D"]],"coinWeights":[0.2,0.5,0.8],"subjectId":"A2MS1GQLGAX9FZ","assignmentId":"32EYX73OY1VFU7DQQZ1HYVE4DH8URP","hitId":"3Z3R5YC0P3915KVY8X6BNRIWSQNFTT","url":"https://gershmanlab.com/experiments/alicia/teaching/experiment/?hitId=3Z3R5YC0P3915KVY8X6BNRIWSQNFTT&workerId=A2MS1GQLGAX9FZ&assignmentId=32EYX73OY1VFU7DQQZ1HYVE4DH8URP&a=OXE29&tp_a=OXE29&b=32EYX73OY1VFU7DQQZ1HYVE4DH8URP&tp_b=32EYX73OY1VFU7DQQZ1HYVE4DH8URP&c=365799&tp_c=365799","firstResponseHeads":4,"firstResponseTails":4,"secondResponseHeads":4,"secondResponseTails":4,"totalHeads":8,"totalTails":8,"studentIndex":1,"studentTrueHypers":{"a":8,"b":2},"studentGuess":0.6153846153846154,"delta":0.11538461538461542,"bonus":0,"bonusSoFar":0,"totalExamples":16},{"rt":null,"stimulus":"Sending examples to student... ","response":null,"trial_type":"html-keyboard-response","trial_index":18,"time_elapsed":92640,"internal_node_id":"0.0-17.0","params":{"nStudents":24,"maxFlips":30,"completionMinutes":45,"basePay":8,"maxBonus":9,"perTrialBonus":0.5,"perTrialBonusThreshold":0.05,"exampleCost":0.01},"classroomParams":{"A":{"a":1,"b":4},"B":{"a":4,"b":1},"C":{"a":2,"b":8},"D":{"a":8,"b":2}},"conditions":["nonSeqFull","nonSeqPartial","seqNoFeedback","seqFeedback"],"classroomPairings":[["A","B"],["C","D"]],"coinWeights":[0.2,0.5,0.8],"subjectId":"A2MS1GQLGAX9FZ","assignmentId":"32EYX73OY1VFU7DQQZ1HYVE4DH8URP","hitId":"3Z3R5YC0P3915KVY8X6BNRIWSQNFTT","url":"https://gershmanlab.com/experiments/alicia/teaching/experiment/?hitId=3Z3R5YC0P3915KVY8X6BNRIWSQNFTT&workerId=A2MS1GQLGAX9FZ&assignmentId=32EYX73OY1VFU7DQQZ1HYVE4DH8URP&a=OXE29&tp_a=OXE29&b=32EYX73OY1VFU7DQQZ1HYVE4DH8URP&tp_b=32EYX73OY1VFU7DQQZ1HYVE4DH8URP&c=365799&tp_c=365799"},{"rt":null,"stimulus":"Examples sent to student! Waiting for student...","response":null,"trial_type":"html-keyboard-response","trial_index":19,"time_elapsed":97652,"internal_node_id":"0.0-18.0","params":{"nStudents":24,"maxFlips":30,"completionMinutes":45,"basePay":8,"maxBonus":9,"perTrialBonus":0.5,"perTrialBonusThreshold":0.05,"exampleCost":0.01},"classroomParams":{"A":{"a":1,"b":4},"B":{"a":4,"b":1},"C":{"a":2,"b":8},"D":{"a":8,"b":2}},"conditions":["nonSeqFull","nonSeqPartial","seqNoFeedback","seqFeedback"],"classroomPairings":[["A","B"],["C","D"]],"coinWeights":[0.2,0.5,0.8],"subjectId":"A2MS1GQLGAX9FZ","assignmentId":"32EYX73OY1VFU7DQQZ1HYVE4DH8URP","hitId":"3Z3R5YC0P3915KVY8X6BNRIWSQNFTT","url":"https://gershmanlab.com/experiments/alicia/teaching/experiment/?hitId=3Z3R5YC0P3915KVY8X6BNRIWSQNFTT&workerId=A2MS1GQLGAX9FZ&assignmentId=32EYX73OY1VFU7DQQZ1HYVE4DH8URP&a=OXE29&tp_a=OXE29&b=32EYX73OY1VFU7DQQZ1HYVE4DH8URP&tp_b=32EYX73OY1VFU7DQQZ1HYVE4DH8URP&c=365799&tp_c=365799"},{"rt":1303,"stimulus":"\n                <p>Student 2's first guess for coin weight: <b style=\"color:Tomato\";>0.67</b></p>\n                <p>Student 2's second guess for coin weight: <b style=\"color:Tomato\";>0.62</b></p>\n                <p>You received a bonus of <b>$0.00</b> based on the student's second guess.</p>\n                <p>Total bonus so far: <b>$0.00</b></p>\n                <p>Press any key to continue.</p>\n                ","response":" ","trial_type":"html-keyboard-response","trial_index":20,"time_elapsed":98958,"internal_node_id":"0.0-19.0","params":{"nStudents":24,"maxFlips":30,"completionMinutes":45,"basePay":8,"maxBonus":9,"perTrialBonus":0.5,"perTrialBonusThreshold":0.05,"exampleCost":0.01},"classroomParams":{"A":{"a":1,"b":4},"B":{"a":4,"b":1},"C":{"a":2,"b":8},"D":{"a":8,"b":2}},"conditions":["nonSeqFull","nonSeqPartial","seqNoFeedback","seqFeedback"],"classroomPairings":[["A","B"],["C","D"]],"coinWeights":[0.2,0.5,0.8],"subjectId":"A2MS1GQLGAX9FZ","assignmentId":"32EYX73OY1VFU7DQQZ1HYVE4DH8URP","hitId":"3Z3R5YC0P3915KVY8X6BNRIWSQNFTT","url":"https://gershmanlab.com/experiments/alicia/teaching/experiment/?hitId=3Z3R5YC0P3915KVY8X6BNRIWSQNFTT&workerId=A2MS1GQLGAX9FZ&assignmentId=32EYX73OY1VFU7DQQZ1HYVE4DH8URP&a=OXE29&tp_a=OXE29&b=32EYX73OY1VFU7DQQZ1HYVE4DH8URP&tp_b=32EYX73OY1VFU7DQQZ1HYVE4DH8URP&c=365799&tp_c=365799"},{"rt":null,"stimulus":"<div style=\"font-size:60px;\">Next student</div>","response":null,"trial_type":"html-keyboard-response","trial_index":21,"time_elapsed":101470,"internal_node_id":"0.0-20.0-0.0","params":{"nStudents":24,"maxFlips":30,"completionMinutes":45,"basePay":8,"maxBonus":9,"perTrialBonus":0.5,"perTrialBonusThreshold":0.05,"exampleCost":0.01},"classroomParams":{"A":{"a":1,"b":4},"B":{"a":4,"b":1},"C":{"a":2,"b":8},"D":{"a":8,"b":2}},"conditions":["nonSeqFull","nonSeqPartial","seqNoFeedback","seqFeedback"],"classroomPairings":[["A","B"],["C","D"]],"coinWeights":[0.2,0.5,0.8],"subjectId":"A2MS1GQLGAX9FZ","assignmentId":"32EYX73OY1VFU7DQQZ1HYVE4DH8URP","hitId":"3Z3R5YC0P3915KVY8X6BNRIWSQNFTT","url":"https://gershmanlab.com/experiments/alicia/teaching/experiment/?hitId=3Z3R5YC0P3915KVY8X6BNRIWSQNFTT&workerId=A2MS1GQLGAX9FZ&assignmentId=32EYX73OY1VFU7DQQZ1HYVE4DH8URP&a=OXE29&tp_a=OXE29&b=32EYX73OY1VFU7DQQZ1HYVE4DH8URP&tp_b=32EYX73OY1VFU7DQQZ1HYVE4DH8URP&c=365799&tp_c=365799"},{"rt":1444,"stimulus":"\n            <h4 style=\"color:Orange;\">Student 3</h4>\n            <h2>The weight of your coin is <b style=\"color:Tomato;\">0.2</b>.</h2>\n            <p>In this block, you will be giving <b>one</b> set of examples to Student 3.</p>\n                <p>You will receive feedback at the end of the block.</p>\n            <p></p>","response":0,"trial_type":"html-button-response","trial_index":22,"time_elapsed":102916,"internal_node_id":"0.0-21.0","params":{"nStudents":24,"maxFlips":30,"completionMinutes":45,"basePay":8,"maxBonus":9,"perTrialBonus":0.5,"perTrialBonusThreshold":0.05,"exampleCost":0.01},"classroomParams":{"A":{"a":1,"b":4},"B":{"a":4,"b":1},"C":{"a":2,"b":8},"D":{"a":8,"b":2}},"conditions":["nonSeqFull","nonSeqPartial","seqNoFeedback","seqFeedback"],"classroomPairings":[["A","B"],["C","D"]],"coinWeights":[0.2,0.5,0.8],"subjectId":"A2MS1GQLGAX9FZ","assignmentId":"32EYX73OY1VFU7DQQZ1HYVE4DH8URP","hitId":"3Z3R5YC0P3915KVY8X6BNRIWSQNFTT","url":"https://gershmanlab.com/experiments/alicia/teaching/experiment/?hitId=3Z3R5YC0P3915KVY8X6BNRIWSQNFTT&workerId=A2MS1GQLGAX9FZ&assignmentId=32EYX73OY1VFU7DQQZ1HYVE4DH8URP&a=OXE29&tp_a=OXE29&b=32EYX73OY1VFU7DQQZ1HYVE4DH8URP&tp_b=32EYX73OY1VFU7DQQZ1HYVE4DH8URP&c=365799&tp_c=365799"},{"rt":16129,"response":{"heads":"2","tails":"8"},"type":"response","condition":"nonSeqFull","trueTheta":0.2,"classrooms":["A","B"],"studentTrueClassroom":"A","exampleSet":"first","trial_type":"survey-html-form","trial_index":23,"time_elapsed":119047,"internal_node_id":"0.0-22.0-0.0","params":{"nStudents":24,"maxFlips":30,"completionMinutes":45,"basePay":8,"maxBonus":9,"perTrialBonus":0.5,"perTrialBonusThreshold":0.05,"exampleCost":0.01},"classroomParams":{"A":{"a":1,"b":4},"B":{"a":4,"b":1},"C":{"a":2,"b":8},"D":{"a":8,"b":2}},"conditions":["nonSeqFull","nonSeqPartial","seqNoFeedback","seqFeedback"],"classroomPairings":[["A","B"],["C","D"]],"coinWeights":[0.2,0.5,0.8],"subjectId":"A2MS1GQLGAX9FZ","assignmentId":"32EYX73OY1VFU7DQQZ1HYVE4DH8URP","hitId":"3Z3R5YC0P3915KVY8X6BNRIWSQNFTT","url":"https://gershmanlab.com/experiments/alicia/teaching/experiment/?hitId=3Z3R5YC0P3915KVY8X6BNRIWSQNFTT&workerId=A2MS1GQLGAX9FZ&assignmentId=32EYX73OY1VFU7DQQZ1HYVE4DH8URP&a=OXE29&tp_a=OXE29&b=32EYX73OY1VFU7DQQZ1HYVE4DH8URP&tp_b=32EYX73OY1VFU7DQQZ1HYVE4DH8URP&c=365799&tp_c=365799","heads":2,"tails":8,"studentIndex":2,"studentTrueHypers":{"a":1,"b":4},"studentGuess":0.2,"delta":0,"totalExamples":10,"bonus":0.4,"bonusSoFar":0.4},{"rt":null,"stimulus":"Sending examples to student... ","response":null,"trial_type":"html-keyboard-response","trial_index":24,"time_elapsed":121127,"internal_node_id":"0.0-23.0","params":{"nStudents":24,"maxFlips":30,"completionMinutes":45,"basePay":8,"maxBonus":9,"perTrialBonus":0.5,"perTrialBonusThreshold":0.05,"exampleCost":0.01},"classroomParams":{"A":{"a":1,"b":4},"B":{"a":4,"b":1},"C":{"a":2,"b":8},"D":{"a":8,"b":2}},"conditions":["nonSeqFull","nonSeqPartial","seqNoFeedback","seqFeedback"],"classroomPairings":[["A","B"],["C","D"]],"coinWeights":[0.2,0.5,0.8],"subjectId":"A2MS1GQLGAX9FZ","assignmentId":"32EYX73OY1VFU7DQQZ1HYVE4DH8URP","hitId":"3Z3R5YC0P3915KVY8X6BNRIWSQNFTT","url":"https://gershmanlab.com/experiments/alicia/teaching/experiment/?hitId=3Z3R5YC0P3915KVY8X6BNRIWSQNFTT&workerId=A2MS1GQLGAX9FZ&assignmentId=32EYX73OY1VFU7DQQZ1HYVE4DH8URP&a=OXE29&tp_a=OXE29&b=32EYX73OY1VFU7DQQZ1HYVE4DH8URP&tp_b=32EYX73OY1VFU7DQQZ1HYVE4DH8URP&c=365799&tp_c=365799"},{"rt":null,"stimulus":"Examples sent to student! Waiting for student...","response":null,"trial_type":"html-keyboard-response","trial_index":25,"time_elapsed":126126,"internal_node_id":"0.0-24.0","params":{"nStudents":24,"maxFlips":30,"completionMinutes":45,"basePay":8,"maxBonus":9,"perTrialBonus":0.5,"perTrialBonusThreshold":0.05,"exampleCost":0.01},"classroomParams":{"A":{"a":1,"b":4},"B":{"a":4,"b":1},"C":{"a":2,"b":8},"D":{"a":8,"b":2}},"conditions":["nonSeqFull","nonSeqPartial","seqNoFeedback","seqFeedback"],"classroomPairings":[["A","B"],["C","D"]],"coinWeights":[0.2,0.5,0.8],"subjectId":"A2MS1GQLGAX9FZ","assignmentId":"32EYX73OY1VFU7DQQZ1HYVE4DH8URP","hitId":"3Z3R5YC0P3915KVY8X6BNRIWSQNFTT","url":"https://gershmanlab.com/experiments/alicia/teaching/experiment/?hitId=3Z3R5YC0P3915KVY8X6BNRIWSQNFTT&workerId=A2MS1GQLGAX9FZ&assignmentId=32EYX73OY1VFU7DQQZ1HYVE4DH8URP&a=OXE29&tp_a=OXE29&b=32EYX73OY1VFU7DQQZ1HYVE4DH8URP&tp_b=32EYX73OY1VFU7DQQZ1HYVE4DH8URP&c=365799&tp_c=365799"},{"rt":6432,"stimulus":"\n                <p>Student's guess for coin weight: <b style=\"color:Tomato;\">0.20</b></p>\n                <p>You received a bonus of <b>$0.4</b>. Total bonus so far: <b>$0.40</b></b></p>\n                <p></p>\n                <p>Press any key to continue.</p>\n                ","response":" ","trial_type":"html-keyboard-response","trial_index":26,"time_elapsed":132559,"internal_node_id":"0.0-25.0","params":{"nStudents":24,"maxFlips":30,"completionMinutes":45,"basePay":8,"maxBonus":9,"perTrialBonus":0.5,"perTrialBonusThreshold":0.05,"exampleCost":0.01},"classroomParams":{"A":{"a":1,"b":4},"B":{"a":4,"b":1},"C":{"a":2,"b":8},"D":{"a":8,"b":2}},"conditions":["nonSeqFull","nonSeqPartial","seqNoFeedback","seqFeedback"],"classroomPairings":[["A","B"],["C","D"]],"coinWeights":[0.2,0.5,0.8],"subjectId":"A2MS1GQLGAX9FZ","assignmentId":"32EYX73OY1VFU7DQQZ1HYVE4DH8URP","hitId":"3Z3R5YC0P3915KVY8X6BNRIWSQNFTT","url":"https://gershmanlab.com/experiments/alicia/teaching/experiment/?hitId=3Z3R5YC0P3915KVY8X6BNRIWSQNFTT&workerId=A2MS1GQLGAX9FZ&assignmentId=32EYX73OY1VFU7DQQZ1HYVE4DH8URP&a=OXE29&tp_a=OXE29&b=32EYX73OY1VFU7DQQZ1HYVE4DH8URP&tp_b=32EYX73OY1VFU7DQQZ1HYVE4DH8URP&c=365799&tp_c=365799"},{"rt":null,"stimulus":"<div style=\"font-size:60px;\">Next student</div>","response":null,"trial_type":"html-keyboard-response","trial_index":27,"time_elapsed":135064,"internal_node_id":"0.0-26.0-0.0","params":{"nStudents":24,"maxFlips":30,"completionMinutes":45,"basePay":8,"maxBonus":9,"perTrialBonus":0.5,"perTrialBonusThreshold":0.05,"exampleCost":0.01},"classroomParams":{"A":{"a":1,"b":4},"B":{"a":4,"b":1},"C":{"a":2,"b":8},"D":{"a":8,"b":2}},"conditions":["nonSeqFull","nonSeqPartial","seqNoFeedback","seqFeedback"],"classroomPairings":[["A","B"],["C","D"]],"coinWeights":[0.2,0.5,0.8],"subjectId":"A2MS1GQLGAX9FZ","assignmentId":"32EYX73OY1VFU7DQQZ1HYVE4DH8URP","hitId":"3Z3R5YC0P3915KVY8X6BNRIWSQNFTT","url":"https://gershmanlab.com/experiments/alicia/teaching/experiment/?hitId=3Z3R5YC0P3915KVY8X6BNRIWSQNFTT&workerId=A2MS1GQLGAX9FZ&assignmentId=32EYX73OY1VFU7DQQZ1HYVE4DH8URP&a=OXE29&tp_a=OXE29&b=32EYX73OY1VFU7DQQZ1HYVE4DH8URP&tp_b=32EYX73OY1VFU7DQQZ1HYVE4DH8URP&c=365799&tp_c=365799"},{"rt":1564,"stimulus":"\n            <h4 style=\"color:Orange;\">Student 4</h4>\n            <h2>The weight of your coin is <b style=\"color:Tomato;\">0.8</b>.</h2>\n            <p>In this block, you will be giving <b>two</b> sets of examples to Student 4.</p>\n                <p>You will see the student's guess after the first set of examples. You will also receive feedback at the end of the block.</p>\n            <p>To earn the highest bonus, you will have to <b>take into consideration the student's guess</b> when you choose your second set of examples.</p>","response":0,"trial_type":"html-button-response","trial_index":28,"time_elapsed":136630,"internal_node_id":"0.0-27.0","params":{"nStudents":24,"maxFlips":30,"completionMinutes":45,"basePay":8,"maxBonus":9,"perTrialBonus":0.5,"perTrialBonusThreshold":0.05,"exampleCost":0.01},"classroomParams":{"A":{"a":1,"b":4},"B":{"a":4,"b":1},"C":{"a":2,"b":8},"D":{"a":8,"b":2}},"conditions":["nonSeqFull","nonSeqPartial","seqNoFeedback","seqFeedback"],"classroomPairings":[["A","B"],["C","D"]],"coinWeights":[0.2,0.5,0.8],"subjectId":"A2MS1GQLGAX9FZ","assignmentId":"32EYX73OY1VFU7DQQZ1HYVE4DH8URP","hitId":"3Z3R5YC0P3915KVY8X6BNRIWSQNFTT","url":"https://gershmanlab.com/experiments/alicia/teaching/experiment/?hitId=3Z3R5YC0P3915KVY8X6BNRIWSQNFTT&workerId=A2MS1GQLGAX9FZ&assignmentId=32EYX73OY1VFU7DQQZ1HYVE4DH8URP&a=OXE29&tp_a=OXE29&b=32EYX73OY1VFU7DQQZ1HYVE4DH8URP&tp_b=32EYX73OY1VFU7DQQZ1HYVE4DH8URP&c=365799&tp_c=365799"},{"rt":3886,"response":{"heads":"8","tails":"2"},"type":"response","condition":"seqFeedback","trueTheta":0.8,"classrooms":["C","D"],"studentTrueClassroom":"C","exampleSet":"first","trial_type":"survey-html-form","trial_index":29,"time_elapsed":140518,"internal_node_id":"0.0-28.0-0.0","params":{"nStudents":24,"maxFlips":30,"completionMinutes":45,"basePay":8,"maxBonus":9,"perTrialBonus":0.5,"perTrialBonusThreshold":0.05,"exampleCost":0.01},"classroomParams":{"A":{"a":1,"b":4},"B":{"a":4,"b":1},"C":{"a":2,"b":8},"D":{"a":8,"b":2}},"conditions":["nonSeqFull","nonSeqPartial","seqNoFeedback","seqFeedback"],"classroomPairings":[["A","B"],["C","D"]],"coinWeights":[0.2,0.5,0.8],"subjectId":"A2MS1GQLGAX9FZ","assignmentId":"32EYX73OY1VFU7DQQZ1HYVE4DH8URP","hitId":"3Z3R5YC0P3915KVY8X6BNRIWSQNFTT","url":"https://gershmanlab.com/experiments/alicia/teaching/experiment/?hitId=3Z3R5YC0P3915KVY8X6BNRIWSQNFTT&workerId=A2MS1GQLGAX9FZ&assignmentId=32EYX73OY1VFU7DQQZ1HYVE4DH8URP&a=OXE29&tp_a=OXE29&b=32EYX73OY1VFU7DQQZ1HYVE4DH8URP&tp_b=32EYX73OY1VFU7DQQZ1HYVE4DH8URP&c=365799&tp_c=365799","heads":8,"tails":2,"studentIndex":3,"studentTrueHypers":{"a":2,"b":8},"studentGuess":0.5,"delta":0.30000000000000004,"totalExamples":10,"bonusSoFar":0.4},{"rt":null,"stimulus":"Sending examples to student... ","response":null,"trial_type":"html-keyboard-response","trial_index":30,"time_elapsed":142535,"internal_node_id":"0.0-29.0","params":{"nStudents":24,"maxFlips":30,"completionMinutes":45,"basePay":8,"maxBonus":9,"perTrialBonus":0.5,"perTrialBonusThreshold":0.05,"exampleCost":0.01},"classroomParams":{"A":{"a":1,"b":4},"B":{"a":4,"b":1},"C":{"a":2,"b":8},"D":{"a":8,"b":2}},"conditions":["nonSeqFull","nonSeqPartial","seqNoFeedback","seqFeedback"],"classroomPairings":[["A","B"],["C","D"]],"coinWeights":[0.2,0.5,0.8],"subjectId":"A2MS1GQLGAX9FZ","assignmentId":"32EYX73OY1VFU7DQQZ1HYVE4DH8URP","hitId":"3Z3R5YC0P3915KVY8X6BNRIWSQNFTT","url":"https://gershmanlab.com/experiments/alicia/teaching/experiment/?hitId=3Z3R5YC0P3915KVY8X6BNRIWSQNFTT&workerId=A2MS1GQLGAX9FZ&assignmentId=32EYX73OY1VFU7DQQZ1HYVE4DH8URP&a=OXE29&tp_a=OXE29&b=32EYX73OY1VFU7DQQZ1HYVE4DH8URP&tp_b=32EYX73OY1VFU7DQQZ1HYVE4DH8URP&c=365799&tp_c=365799"},{"rt":null,"stimulus":"Examples sent to student! Waiting for student...","response":null,"trial_type":"html-keyboard-response","trial_index":31,"time_elapsed":147044,"internal_node_id":"0.0-30.0","params":{"nStudents":24,"maxFlips":30,"completionMinutes":45,"basePay":8,"maxBonus":9,"perTrialBonus":0.5,"perTrialBonusThreshold":0.05,"exampleCost":0.01},"classroomParams":{"A":{"a":1,"b":4},"B":{"a":4,"b":1},"C":{"a":2,"b":8},"D":{"a":8,"b":2}},"conditions":["nonSeqFull","nonSeqPartial","seqNoFeedback","seqFeedback"],"classroomPairings":[["A","B"],["C","D"]],"coinWeights":[0.2,0.5,0.8],"subjectId":"A2MS1GQLGAX9FZ","assignmentId":"32EYX73OY1VFU7DQQZ1HYVE4DH8URP","hitId":"3Z3R5YC0P3915KVY8X6BNRIWSQNFTT","url":"https://gershmanlab.com/experiments/alicia/teaching/experiment/?hitId=3Z3R5YC0P3915KVY8X6BNRIWSQNFTT&workerId=A2MS1GQLGAX9FZ&assignmentId=32EYX73OY1VFU7DQQZ1HYVE4DH8URP&a=OXE29&tp_a=OXE29&b=32EYX73OY1VFU7DQQZ1HYVE4DH8URP&tp_b=32EYX73OY1VFU7DQQZ1HYVE4DH8URP&c=365799&tp_c=365799"},{"rt":1346,"stimulus":"\n                <p>Student's guess for coin weight: <b style=\"color:Tomato;\">0.50</b></p>\n                <p></b></p>\n                <p>You will now send another set of examples to your student. <b>Remember to take your student's guess into consideration so that you can earn the highest bonus possible!</b> </p>\n                <p>Press any key to continue.</p>\n                ","response":" ","trial_type":"html-keyboard-response","trial_index":32,"time_elapsed":148391,"internal_node_id":"0.0-31.0","params":{"nStudents":24,"maxFlips":30,"completionMinutes":45,"basePay":8,"maxBonus":9,"perTrialBonus":0.5,"perTrialBonusThreshold":0.05,"exampleCost":0.01},"classroomParams":{"A":{"a":1,"b":4},"B":{"a":4,"b":1},"C":{"a":2,"b":8},"D":{"a":8,"b":2}},"conditions":["nonSeqFull","nonSeqPartial","seqNoFeedback","seqFeedback"],"classroomPairings":[["A","B"],["C","D"]],"coinWeights":[0.2,0.5,0.8],"subjectId":"A2MS1GQLGAX9FZ","assignmentId":"32EYX73OY1VFU7DQQZ1HYVE4DH8URP","hitId":"3Z3R5YC0P3915KVY8X6BNRIWSQNFTT","url":"https://gershmanlab.com/experiments/alicia/teaching/experiment/?hitId=3Z3R5YC0P3915KVY8X6BNRIWSQNFTT&workerId=A2MS1GQLGAX9FZ&assignmentId=32EYX73OY1VFU7DQQZ1HYVE4DH8URP&a=OXE29&tp_a=OXE29&b=32EYX73OY1VFU7DQQZ1HYVE4DH8URP&tp_b=32EYX73OY1VFU7DQQZ1HYVE4DH8URP&c=365799&tp_c=365799"},{"rt":5915,"response":{"heads":"8","tails":"2"},"type":"response","condition":"seqFeedback","trueTheta":0.8,"classrooms":["C","D"],"studentTrueClassroom":"C","exampleSet":"second","trial_type":"survey-html-form","trial_index":33,"time_elapsed":154308,"internal_node_id":"0.0-32.0-0.0","params":{"nStudents":24,"maxFlips":30,"completionMinutes":45,"basePay":8,"maxBonus":9,"perTrialBonus":0.5,"perTrialBonusThreshold":0.05,"exampleCost":0.01},"classroomParams":{"A":{"a":1,"b":4},"B":{"a":4,"b":1},"C":{"a":2,"b":8},"D":{"a":8,"b":2}},"conditions":["nonSeqFull","nonSeqPartial","seqNoFeedback","seqFeedback"],"classroomPairings":[["A","B"],["C","D"]],"coinWeights":[0.2,0.5,0.8],"subjectId":"A2MS1GQLGAX9FZ","assignmentId":"32EYX73OY1VFU7DQQZ1HYVE4DH8URP","hitId":"3Z3R5YC0P3915KVY8X6BNRIWSQNFTT","url":"https://gershmanlab.com/experiments/alicia/teaching/experiment/?hitId=3Z3R5YC0P3915KVY8X6BNRIWSQNFTT&workerId=A2MS1GQLGAX9FZ&assignmentId=32EYX73OY1VFU7DQQZ1HYVE4DH8URP&a=OXE29&tp_a=OXE29&b=32EYX73OY1VFU7DQQZ1HYVE4DH8URP&tp_b=32EYX73OY1VFU7DQQZ1HYVE4DH8URP&c=365799&tp_c=365799","firstResponseHeads":8,"firstResponseTails":2,"secondResponseHeads":8,"secondResponseTails":2,"totalHeads":16,"totalTails":4,"studentIndex":3,"studentTrueHypers":{"a":2,"b":8},"studentGuess":0.6,"delta":0.20000000000000007,"bonus":0,"bonusSoFar":0.4,"totalExamples":20},{"rt":null,"stimulus":"Sending examples to student... ","response":null,"trial_type":"html-keyboard-response","trial_index":34,"time_elapsed":156063,"internal_node_id":"0.0-33.0","params":{"nStudents":24,"maxFlips":30,"completionMinutes":45,"basePay":8,"maxBonus":9,"perTrialBonus":0.5,"perTrialBonusThreshold":0.05,"exampleCost":0.01},"classroomParams":{"A":{"a":1,"b":4},"B":{"a":4,"b":1},"C":{"a":2,"b":8},"D":{"a":8,"b":2}},"conditions":["nonSeqFull","nonSeqPartial","seqNoFeedback","seqFeedback"],"classroomPairings":[["A","B"],["C","D"]],"coinWeights":[0.2,0.5,0.8],"subjectId":"A2MS1GQLGAX9FZ","assignmentId":"32EYX73OY1VFU7DQQZ1HYVE4DH8URP","hitId":"3Z3R5YC0P3915KVY8X6BNRIWSQNFTT","url":"https://gershmanlab.com/experiments/alicia/teaching/experiment/?hitId=3Z3R5YC0P3915KVY8X6BNRIWSQNFTT&workerId=A2MS1GQLGAX9FZ&assignmentId=32EYX73OY1VFU7DQQZ1HYVE4DH8URP&a=OXE29&tp_a=OXE29&b=32EYX73OY1VFU7DQQZ1HYVE4DH8URP&tp_b=32EYX73OY1VFU7DQQZ1HYVE4DH8URP&c=365799&tp_c=365799"},{"rt":null,"stimulus":"Examples sent to student! Waiting for student...","response":null,"trial_type":"html-keyboard-response","trial_index":35,"time_elapsed":161071,"internal_node_id":"0.0-34.0","params":{"nStudents":24,"maxFlips":30,"completionMinutes":45,"basePay":8,"maxBonus":9,"perTrialBonus":0.5,"perTrialBonusThreshold":0.05,"exampleCost":0.01},"classroomParams":{"A":{"a":1,"b":4},"B":{"a":4,"b":1},"C":{"a":2,"b":8},"D":{"a":8,"b":2}},"conditions":["nonSeqFull","nonSeqPartial","seqNoFeedback","seqFeedback"],"classroomPairings":[["A","B"],["C","D"]],"coinWeights":[0.2,0.5,0.8],"subjectId":"A2MS1GQLGAX9FZ","assignmentId":"32EYX73OY1VFU7DQQZ1HYVE4DH8URP","hitId":"3Z3R5YC0P3915KVY8X6BNRIWSQNFTT","url":"https://gershmanlab.com/experiments/alicia/teaching/experiment/?hitId=3Z3R5YC0P3915KVY8X6BNRIWSQNFTT&workerId=A2MS1GQLGAX9FZ&assignmentId=32EYX73OY1VFU7DQQZ1HYVE4DH8URP&a=OXE29&tp_a=OXE29&b=32EYX73OY1VFU7DQQZ1HYVE4DH8URP&tp_b=32EYX73OY1VFU7DQQZ1HYVE4DH8URP&c=365799&tp_c=365799"},{"rt":999,"stimulus":"\n                <p>Student 4's first guess for coin weight: <b style=\"color:Tomato\";>0.50</b></p>\n                <p>Student 4's second guess for coin weight: <b style=\"color:Tomato\";>0.60</b></p>\n                <p>You received a bonus of <b>$0.00</b> based on the student's second guess.</p>\n                <p>Total bonus so far: <b>$0.40</b></p>\n                <p>Press any key to continue.</p>\n                ","response":" ","trial_type":"html-keyboard-response","trial_index":36,"time_elapsed":162072,"internal_node_id":"0.0-35.0","params":{"nStudents":24,"maxFlips":30,"completionMinutes":45,"basePay":8,"maxBonus":9,"perTrialBonus":0.5,"perTrialBonusThreshold":0.05,"exampleCost":0.01},"classroomParams":{"A":{"a":1,"b":4},"B":{"a":4,"b":1},"C":{"a":2,"b":8},"D":{"a":8,"b":2}},"conditions":["nonSeqFull","nonSeqPartial","seqNoFeedback","seqFeedback"],"classroomPairings":[["A","B"],["C","D"]],"coinWeights":[0.2,0.5,0.8],"subjectId":"A2MS1GQLGAX9FZ","assignmentId":"32EYX73OY1VFU7DQQZ1HYVE4DH8URP","hitId":"3Z3R5YC0P3915KVY8X6BNRIWSQNFTT","url":"https://gershmanlab.com/experiments/alicia/teaching/experiment/?hitId=3Z3R5YC0P3915KVY8X6BNRIWSQNFTT&workerId=A2MS1GQLGAX9FZ&assignmentId=32EYX73OY1VFU7DQQZ1HYVE4DH8URP&a=OXE29&tp_a=OXE29&b=32EYX73OY1VFU7DQQZ1HYVE4DH8URP&tp_b=32EYX73OY1VFU7DQQZ1HYVE4DH8URP&c=365799&tp_c=365799"},{"rt":null,"stimulus":"<div style=\"font-size:60px;\">Next student</div>","response":null,"trial_type":"html-keyboard-response","trial_index":37,"time_elapsed":164578,"internal_node_id":"0.0-36.0-0.0","params":{"nStudents":24,"maxFlips":30,"completionMinutes":45,"basePay":8,"maxBonus":9,"perTrialBonus":0.5,"perTrialBonusThreshold":0.05,"exampleCost":0.01},"classroomParams":{"A":{"a":1,"b":4},"B":{"a":4,"b":1},"C":{"a":2,"b":8},"D":{"a":8,"b":2}},"conditions":["nonSeqFull","nonSeqPartial","seqNoFeedback","seqFeedback"],"classroomPairings":[["A","B"],["C","D"]],"coinWeights":[0.2,0.5,0.8],"subjectId":"A2MS1GQLGAX9FZ","assignmentId":"32EYX73OY1VFU7DQQZ1HYVE4DH8URP","hitId":"3Z3R5YC0P3915KVY8X6BNRIWSQNFTT","url":"https://gershmanlab.com/experiments/alicia/teaching/experiment/?hitId=3Z3R5YC0P3915KVY8X6BNRIWSQNFTT&workerId=A2MS1GQLGAX9FZ&assignmentId=32EYX73OY1VFU7DQQZ1HYVE4DH8URP&a=OXE29&tp_a=OXE29&b=32EYX73OY1VFU7DQQZ1HYVE4DH8URP&tp_b=32EYX73OY1VFU7DQQZ1HYVE4DH8URP&c=365799&tp_c=365799"},{"rt":1333,"stimulus":"\n            <h4 style=\"color:Orange;\">Student 5</h4>\n            <h2>The weight of your coin is <b style=\"color:Tomato;\">0.8</b>.</h2>\n            <p>In this block, you will be giving <b>two</b> sets of examples to Student 5.</p>\n                <p>You will see the student's guess after the first set of examples. You will also receive feedback at the end of the block.</p>\n            <p>To earn the highest bonus, you will have to <b>take into consideration the student's guess</b> when you choose your second set of examples.</p>","response":0,"trial_type":"html-button-response","trial_index":38,"time_elapsed":165913,"internal_node_id":"0.0-37.0","params":{"nStudents":24,"maxFlips":30,"completionMinutes":45,"basePay":8,"maxBonus":9,"perTrialBonus":0.5,"perTrialBonusThreshold":0.05,"exampleCost":0.01},"classroomParams":{"A":{"a":1,"b":4},"B":{"a":4,"b":1},"C":{"a":2,"b":8},"D":{"a":8,"b":2}},"conditions":["nonSeqFull","nonSeqPartial","seqNoFeedback","seqFeedback"],"classroomPairings":[["A","B"],["C","D"]],"coinWeights":[0.2,0.5,0.8],"subjectId":"A2MS1GQLGAX9FZ","assignmentId":"32EYX73OY1VFU7DQQZ1HYVE4DH8URP","hitId":"3Z3R5YC0P3915KVY8X6BNRIWSQNFTT","url":"https://gershmanlab.com/experiments/alicia/teaching/experiment/?hitId=3Z3R5YC0P3915KVY8X6BNRIWSQNFTT&workerId=A2MS1GQLGAX9FZ&assignmentId=32EYX73OY1VFU7DQQZ1HYVE4DH8URP&a=OXE29&tp_a=OXE29&b=32EYX73OY1VFU7DQQZ1HYVE4DH8URP&tp_b=32EYX73OY1VFU7DQQZ1HYVE4DH8URP&c=365799&tp_c=365799"},{"rt":3375,"response":{"heads":"8","tails":"2"},"type":"response","condition":"seqFeedback","trueTheta":0.8,"classrooms":["A","B"],"studentTrueClassroom":"A","exampleSet":"first","trial_type":"survey-html-form","trial_index":39,"time_elapsed":169290,"internal_node_id":"0.0-38.0-0.0","params":{"nStudents":24,"maxFlips":30,"completionMinutes":45,"basePay":8,"maxBonus":9,"perTrialBonus":0.5,"perTrialBonusThreshold":0.05,"exampleCost":0.01},"classroomParams":{"A":{"a":1,"b":4},"B":{"a":4,"b":1},"C":{"a":2,"b":8},"D":{"a":8,"b":2}},"conditions":["nonSeqFull","nonSeqPartial","seqNoFeedback","seqFeedback"],"classroomPairings":[["A","B"],["C","D"]],"coinWeights":[0.2,0.5,0.8],"subjectId":"A2MS1GQLGAX9FZ","assignmentId":"32EYX73OY1VFU7DQQZ1HYVE4DH8URP","hitId":"3Z3R5YC0P3915KVY8X6BNRIWSQNFTT","url":"https://gershmanlab.com/experiments/alicia/teaching/experiment/?hitId=3Z3R5YC0P3915KVY8X6BNRIWSQNFTT&workerId=A2MS1GQLGAX9FZ&assignmentId=32EYX73OY1VFU7DQQZ1HYVE4DH8URP&a=OXE29&tp_a=OXE29&b=32EYX73OY1VFU7DQQZ1HYVE4DH8URP&tp_b=32EYX73OY1VFU7DQQZ1HYVE4DH8URP&c=365799&tp_c=365799","heads":8,"tails":2,"studentIndex":4,"studentTrueHypers":{"a":1,"b":4},"studentGuess":0.6,"delta":0.20000000000000007,"totalExamples":10,"bonusSoFar":0.4},{"rt":null,"stimulus":"Sending examples to student... ","response":null,"trial_type":"html-keyboard-response","trial_index":40,"time_elapsed":171056,"internal_node_id":"0.0-39.0","params":{"nStudents":24,"maxFlips":30,"completionMinutes":45,"basePay":8,"maxBonus":9,"perTrialBonus":0.5,"perTrialBonusThreshold":0.05,"exampleCost":0.01},"classroomParams":{"A":{"a":1,"b":4},"B":{"a":4,"b":1},"C":{"a":2,"b":8},"D":{"a":8,"b":2}},"conditions":["nonSeqFull","nonSeqPartial","seqNoFeedback","seqFeedback"],"classroomPairings":[["A","B"],["C","D"]],"coinWeights":[0.2,0.5,0.8],"subjectId":"A2MS1GQLGAX9FZ","assignmentId":"32EYX73OY1VFU7DQQZ1HYVE4DH8URP","hitId":"3Z3R5YC0P3915KVY8X6BNRIWSQNFTT","url":"https://gershmanlab.com/experiments/alicia/teaching/experiment/?hitId=3Z3R5YC0P3915KVY8X6BNRIWSQNFTT&workerId=A2MS1GQLGAX9FZ&assignmentId=32EYX73OY1VFU7DQQZ1HYVE4DH8URP&a=OXE29&tp_a=OXE29&b=32EYX73OY1VFU7DQQZ1HYVE4DH8URP&tp_b=32EYX73OY1VFU7DQQZ1HYVE4DH8URP&c=365799&tp_c=365799"},{"rt":null,"stimulus":"Examples sent to student! Waiting for student...","response":null,"trial_type":"html-keyboard-response","trial_index":41,"time_elapsed":176572,"internal_node_id":"0.0-40.0","params":{"nStudents":24,"maxFlips":30,"completionMinutes":45,"basePay":8,"maxBonus":9,"perTrialBonus":0.5,"perTrialBonusThreshold":0.05,"exampleCost":0.01},"classroomParams":{"A":{"a":1,"b":4},"B":{"a":4,"b":1},"C":{"a":2,"b":8},"D":{"a":8,"b":2}},"conditions":["nonSeqFull","nonSeqPartial","seqNoFeedback","seqFeedback"],"classroomPairings":[["A","B"],["C","D"]],"coinWeights":[0.2,0.5,0.8],"subjectId":"A2MS1GQLGAX9FZ","assignmentId":"32EYX73OY1VFU7DQQZ1HYVE4DH8URP","hitId":"3Z3R5YC0P3915KVY8X6BNRIWSQNFTT","url":"https://gershmanlab.com/experiments/alicia/teaching/experiment/?hitId=3Z3R5YC0P3915KVY8X6BNRIWSQNFTT&workerId=A2MS1GQLGAX9FZ&assignmentId=32EYX73OY1VFU7DQQZ1HYVE4DH8URP&a=OXE29&tp_a=OXE29&b=32EYX73OY1VFU7DQQZ1HYVE4DH8URP&tp_b=32EYX73OY1VFU7DQQZ1HYVE4DH8URP&c=365799&tp_c=365799"},{"rt":1566,"stimulus":"\n                <p>Student's guess for coin weight: <b style=\"color:Tomato;\">0.60</b></p>\n                <p></b></p>\n                <p>You will now send another set of examples to your student. <b>Remember to take your student's guess into consideration so that you can earn the highest bonus possible!</b> </p>\n                <p>Press any key to continue.</p>\n                ","response":" ","trial_type":"html-keyboard-response","trial_index":42,"time_elapsed":178140,"internal_node_id":"0.0-41.0","params":{"nStudents":24,"maxFlips":30,"completionMinutes":45,"basePay":8,"maxBonus":9,"perTrialBonus":0.5,"perTrialBonusThreshold":0.05,"exampleCost":0.01},"classroomParams":{"A":{"a":1,"b":4},"B":{"a":4,"b":1},"C":{"a":2,"b":8},"D":{"a":8,"b":2}},"conditions":["nonSeqFull","nonSeqPartial","seqNoFeedback","seqFeedback"],"classroomPairings":[["A","B"],["C","D"]],"coinWeights":[0.2,0.5,0.8],"subjectId":"A2MS1GQLGAX9FZ","assignmentId":"32EYX73OY1VFU7DQQZ1HYVE4DH8URP","hitId":"3Z3R5YC0P3915KVY8X6BNRIWSQNFTT","url":"https://gershmanlab.com/experiments/alicia/teaching/experiment/?hitId=3Z3R5YC0P3915KVY8X6BNRIWSQNFTT&workerId=A2MS1GQLGAX9FZ&assignmentId=32EYX73OY1VFU7DQQZ1HYVE4DH8URP&a=OXE29&tp_a=OXE29&b=32EYX73OY1VFU7DQQZ1HYVE4DH8URP&tp_b=32EYX73OY1VFU7DQQZ1HYVE4DH8URP&c=365799&tp_c=365799"},{"rt":10109,"response":{"heads":"8","tails":"2"},"type":"response","condition":"seqFeedback","trueTheta":0.8,"classrooms":["A","B"],"studentTrueClassroom":"A","exampleSet":"second","trial_type":"survey-html-form","trial_index":43,"time_elapsed":188251,"internal_node_id":"0.0-42.0-0.0","params":{"nStudents":24,"maxFlips":30,"completionMinutes":45,"basePay":8,"maxBonus":9,"perTrialBonus":0.5,"perTrialBonusThreshold":0.05,"exampleCost":0.01},"classroomParams":{"A":{"a":1,"b":4},"B":{"a":4,"b":1},"C":{"a":2,"b":8},"D":{"a":8,"b":2}},"conditions":["nonSeqFull","nonSeqPartial","seqNoFeedback","seqFeedback"],"classroomPairings":[["A","B"],["C","D"]],"coinWeights":[0.2,0.5,0.8],"subjectId":"A2MS1GQLGAX9FZ","assignmentId":"32EYX73OY1VFU7DQQZ1HYVE4DH8URP","hitId":"3Z3R5YC0P3915KVY8X6BNRIWSQNFTT","url":"https://gershmanlab.com/experiments/alicia/teaching/experiment/?hitId=3Z3R5YC0P3915KVY8X6BNRIWSQNFTT&workerId=A2MS1GQLGAX9FZ&assignmentId=32EYX73OY1VFU7DQQZ1HYVE4DH8URP&a=OXE29&tp_a=OXE29&b=32EYX73OY1VFU7DQQZ1HYVE4DH8URP&tp_b=32EYX73OY1VFU7DQQZ1HYVE4DH8URP&c=365799&tp_c=365799","firstResponseHeads":8,"firstResponseTails":2,"secondResponseHeads":8,"secondResponseTails":2,"totalHeads":16,"totalTails":4,"studentIndex":4,"studentTrueHypers":{"a":1,"b":4},"studentGuess":0.68,"delta":0.12,"bonus":0,"bonusSoFar":0.4,"totalExamples":20},{"rt":null,"stimulus":"Sending examples to student... ","response":null,"trial_type":"html-keyboard-response","trial_index":44,"time_elapsed":189765,"internal_node_id":"0.0-43.0","params":{"nStudents":24,"maxFlips":30,"completionMinutes":45,"basePay":8,"maxBonus":9,"perTrialBonus":0.5,"perTrialBonusThreshold":0.05,"exampleCost":0.01},"classroomParams":{"A":{"a":1,"b":4},"B":{"a":4,"b":1},"C":{"a":2,"b":8},"D":{"a":8,"b":2}},"conditions":["nonSeqFull","nonSeqPartial","seqNoFeedback","seqFeedback"],"classroomPairings":[["A","B"],["C","D"]],"coinWeights":[0.2,0.5,0.8],"subjectId":"A2MS1GQLGAX9FZ","assignmentId":"32EYX73OY1VFU7DQQZ1HYVE4DH8URP","hitId":"3Z3R5YC0P3915KVY8X6BNRIWSQNFTT","url":"https://gershmanlab.com/experiments/alicia/teaching/experiment/?hitId=3Z3R5YC0P3915KVY8X6BNRIWSQNFTT&workerId=A2MS1GQLGAX9FZ&assignmentId=32EYX73OY1VFU7DQQZ1HYVE4DH8URP&a=OXE29&tp_a=OXE29&b=32EYX73OY1VFU7DQQZ1HYVE4DH8URP&tp_b=32EYX73OY1VFU7DQQZ1HYVE4DH8URP&c=365799&tp_c=365799"},{"rt":null,"stimulus":"Examples sent to student! Waiting for student...","response":null,"trial_type":"html-keyboard-response","trial_index":45,"time_elapsed":195271,"internal_node_id":"0.0-44.0","params":{"nStudents":24,"maxFlips":30,"completionMinutes":45,"basePay":8,"maxBonus":9,"perTrialBonus":0.5,"perTrialBonusThreshold":0.05,"exampleCost":0.01},"classroomParams":{"A":{"a":1,"b":4},"B":{"a":4,"b":1},"C":{"a":2,"b":8},"D":{"a":8,"b":2}},"conditions":["nonSeqFull","nonSeqPartial","seqNoFeedback","seqFeedback"],"classroomPairings":[["A","B"],["C","D"]],"coinWeights":[0.2,0.5,0.8],"subjectId":"A2MS1GQLGAX9FZ","assignmentId":"32EYX73OY1VFU7DQQZ1HYVE4DH8URP","hitId":"3Z3R5YC0P3915KVY8X6BNRIWSQNFTT","url":"https://gershmanlab.com/experiments/alicia/teaching/experiment/?hitId=3Z3R5YC0P3915KVY8X6BNRIWSQNFTT&workerId=A2MS1GQLGAX9FZ&assignmentId=32EYX73OY1VFU7DQQZ1HYVE4DH8URP&a=OXE29&tp_a=OXE29&b=32EYX73OY1VFU7DQQZ1HYVE4DH8URP&tp_b=32EYX73OY1VFU7DQQZ1HYVE4DH8URP&c=365799&tp_c=365799"},{"rt":1227,"stimulus":"\n                <p>Student 5's first guess for coin weight: <b style=\"color:Tomato\";>0.60</b></p>\n                <p>Student 5's second guess for coin weight: <b style=\"color:Tomato\";>0.68</b></p>\n                <p>You received a bonus of <b>$0.00</b> based on the student's second guess.</p>\n                <p>Total bonus so far: <b>$0.40</b></p>\n                <p>Press any key to continue.</p>\n                ","response":" ","trial_type":"html-keyboard-response","trial_index":46,"time_elapsed":196500,"internal_node_id":"0.0-45.0","params":{"nStudents":24,"maxFlips":30,"completionMinutes":45,"basePay":8,"maxBonus":9,"perTrialBonus":0.5,"perTrialBonusThreshold":0.05,"exampleCost":0.01},"classroomParams":{"A":{"a":1,"b":4},"B":{"a":4,"b":1},"C":{"a":2,"b":8},"D":{"a":8,"b":2}},"conditions":["nonSeqFull","nonSeqPartial","seqNoFeedback","seqFeedback"],"classroomPairings":[["A","B"],["C","D"]],"coinWeights":[0.2,0.5,0.8],"subjectId":"A2MS1GQLGAX9FZ","assignmentId":"32EYX73OY1VFU7DQQZ1HYVE4DH8URP","hitId":"3Z3R5YC0P3915KVY8X6BNRIWSQNFTT","url":"https://gershmanlab.com/experiments/alicia/teaching/experiment/?hitId=3Z3R5YC0P3915KVY8X6BNRIWSQNFTT&workerId=A2MS1GQLGAX9FZ&assignmentId=32EYX73OY1VFU7DQQZ1HYVE4DH8URP&a=OXE29&tp_a=OXE29&b=32EYX73OY1VFU7DQQZ1HYVE4DH8URP&tp_b=32EYX73OY1VFU7DQQZ1HYVE4DH8URP&c=365799&tp_c=365799"},{"rt":null,"stimulus":"<div style=\"font-size:60px;\">Next student</div>","response":null,"trial_type":"html-keyboard-response","trial_index":47,"time_elapsed":199016,"internal_node_id":"0.0-46.0-0.0","params":{"nStudents":24,"maxFlips":30,"completionMinutes":45,"basePay":8,"maxBonus":9,"perTrialBonus":0.5,"perTrialBonusThreshold":0.05,"exampleCost":0.01},"classroomParams":{"A":{"a":1,"b":4},"B":{"a":4,"b":1},"C":{"a":2,"b":8},"D":{"a":8,"b":2}},"conditions":["nonSeqFull","nonSeqPartial","seqNoFeedback","seqFeedback"],"classroomPairings":[["A","B"],["C","D"]],"coinWeights":[0.2,0.5,0.8],"subjectId":"A2MS1GQLGAX9FZ","assignmentId":"32EYX73OY1VFU7DQQZ1HYVE4DH8URP","hitId":"3Z3R5YC0P3915KVY8X6BNRIWSQNFTT","url":"https://gershmanlab.com/experiments/alicia/teaching/experiment/?hitId=3Z3R5YC0P3915KVY8X6BNRIWSQNFTT&workerId=A2MS1GQLGAX9FZ&assignmentId=32EYX73OY1VFU7DQQZ1HYVE4DH8URP&a=OXE29&tp_a=OXE29&b=32EYX73OY1VFU7DQQZ1HYVE4DH8URP&tp_b=32EYX73OY1VFU7DQQZ1HYVE4DH8URP&c=365799&tp_c=365799"},{"rt":1366,"stimulus":"\n            <h4 style=\"color:Orange;\">Student 6</h4>\n            <h2>The weight of your coin is <b style=\"color:Tomato;\">0.8</b>.</h2>\n            <p>In this block, you will be giving <b>one</b> set of examples to Student 6.</p>\n                <p>You will receive feedback at the end of the block.</p>\n            <p></p>","response":0,"trial_type":"html-button-response","trial_index":48,"time_elapsed":200383,"internal_node_id":"0.0-47.0","params":{"nStudents":24,"maxFlips":30,"completionMinutes":45,"basePay":8,"maxBonus":9,"perTrialBonus":0.5,"perTrialBonusThreshold":0.05,"exampleCost":0.01},"classroomParams":{"A":{"a":1,"b":4},"B":{"a":4,"b":1},"C":{"a":2,"b":8},"D":{"a":8,"b":2}},"conditions":["nonSeqFull","nonSeqPartial","seqNoFeedback","seqFeedback"],"classroomPairings":[["A","B"],["C","D"]],"coinWeights":[0.2,0.5,0.8],"subjectId":"A2MS1GQLGAX9FZ","assignmentId":"32EYX73OY1VFU7DQQZ1HYVE4DH8URP","hitId":"3Z3R5YC0P3915KVY8X6BNRIWSQNFTT","url":"https://gershmanlab.com/experiments/alicia/teaching/experiment/?hitId=3Z3R5YC0P3915KVY8X6BNRIWSQNFTT&workerId=A2MS1GQLGAX9FZ&assignmentId=32EYX73OY1VFU7DQQZ1HYVE4DH8URP&a=OXE29&tp_a=OXE29&b=32EYX73OY1VFU7DQQZ1HYVE4DH8URP&tp_b=32EYX73OY1VFU7DQQZ1HYVE4DH8URP&c=365799&tp_c=365799"},{"rt":3879,"response":{"heads":"8","tails":"2"},"type":"response","condition":"nonSeqPartial","trueTheta":0.8,"classrooms":["A","B"],"studentTrueClassroom":"A","exampleSet":"first","trial_type":"survey-html-form","trial_index":49,"time_elapsed":204264,"internal_node_id":"0.0-48.0-0.0","params":{"nStudents":24,"maxFlips":30,"completionMinutes":45,"basePay":8,"maxBonus":9,"perTrialBonus":0.5,"perTrialBonusThreshold":0.05,"exampleCost":0.01},"classroomParams":{"A":{"a":1,"b":4},"B":{"a":4,"b":1},"C":{"a":2,"b":8},"D":{"a":8,"b":2}},"conditions":["nonSeqFull","nonSeqPartial","seqNoFeedback","seqFeedback"],"classroomPairings":[["A","B"],["C","D"]],"coinWeights":[0.2,0.5,0.8],"subjectId":"A2MS1GQLGAX9FZ","assignmentId":"32EYX73OY1VFU7DQQZ1HYVE4DH8URP","hitId":"3Z3R5YC0P3915KVY8X6BNRIWSQNFTT","url":"https://gershmanlab.com/experiments/alicia/teaching/experiment/?hitId=3Z3R5YC0P3915KVY8X6BNRIWSQNFTT&workerId=A2MS1GQLGAX9FZ&assignmentId=32EYX73OY1VFU7DQQZ1HYVE4DH8URP&a=OXE29&tp_a=OXE29&b=32EYX73OY1VFU7DQQZ1HYVE4DH8URP&tp_b=32EYX73OY1VFU7DQQZ1HYVE4DH8URP&c=365799&tp_c=365799","heads":8,"tails":2,"studentIndex":5,"studentTrueHypers":{"a":1,"b":4},"studentGuess":0.6,"delta":0.20000000000000007,"totalExamples":10,"bonus":0,"bonusSoFar":0.4},{"rt":null,"stimulus":"Sending examples to student... ","response":null,"trial_type":"html-keyboard-response","trial_index":50,"time_elapsed":206019,"internal_node_id":"0.0-49.0","params":{"nStudents":24,"maxFlips":30,"completionMinutes":45,"basePay":8,"maxBonus":9,"perTrialBonus":0.5,"perTrialBonusThreshold":0.05,"exampleCost":0.01},"classroomParams":{"A":{"a":1,"b":4},"B":{"a":4,"b":1},"C":{"a":2,"b":8},"D":{"a":8,"b":2}},"conditions":["nonSeqFull","nonSeqPartial","seqNoFeedback","seqFeedback"],"classroomPairings":[["A","B"],["C","D"]],"coinWeights":[0.2,0.5,0.8],"subjectId":"A2MS1GQLGAX9FZ","assignmentId":"32EYX73OY1VFU7DQQZ1HYVE4DH8URP","hitId":"3Z3R5YC0P3915KVY8X6BNRIWSQNFTT","url":"https://gershmanlab.com/experiments/alicia/teaching/experiment/?hitId=3Z3R5YC0P3915KVY8X6BNRIWSQNFTT&workerId=A2MS1GQLGAX9FZ&assignmentId=32EYX73OY1VFU7DQQZ1HYVE4DH8URP&a=OXE29&tp_a=OXE29&b=32EYX73OY1VFU7DQQZ1HYVE4DH8URP&tp_b=32EYX73OY1VFU7DQQZ1HYVE4DH8URP&c=365799&tp_c=365799"},{"rt":null,"stimulus":"Examples sent to student! Waiting for student...","response":null,"trial_type":"html-keyboard-response","trial_index":51,"time_elapsed":211028,"internal_node_id":"0.0-50.0","params":{"nStudents":24,"maxFlips":30,"completionMinutes":45,"basePay":8,"maxBonus":9,"perTrialBonus":0.5,"perTrialBonusThreshold":0.05,"exampleCost":0.01},"classroomParams":{"A":{"a":1,"b":4},"B":{"a":4,"b":1},"C":{"a":2,"b":8},"D":{"a":8,"b":2}},"conditions":["nonSeqFull","nonSeqPartial","seqNoFeedback","seqFeedback"],"classroomPairings":[["A","B"],["C","D"]],"coinWeights":[0.2,0.5,0.8],"subjectId":"A2MS1GQLGAX9FZ","assignmentId":"32EYX73OY1VFU7DQQZ1HYVE4DH8URP","hitId":"3Z3R5YC0P3915KVY8X6BNRIWSQNFTT","url":"https://gershmanlab.com/experiments/alicia/teaching/experiment/?hitId=3Z3R5YC0P3915KVY8X6BNRIWSQNFTT&workerId=A2MS1GQLGAX9FZ&assignmentId=32EYX73OY1VFU7DQQZ1HYVE4DH8URP&a=OXE29&tp_a=OXE29&b=32EYX73OY1VFU7DQQZ1HYVE4DH8URP&tp_b=32EYX73OY1VFU7DQQZ1HYVE4DH8URP&c=365799&tp_c=365799"},{"rt":1980,"stimulus":"\n                <p>Student's guess for coin weight: <b style=\"color:Tomato;\">0.60</b></p>\n                <p>You received a bonus of <b>$0</b>. Total bonus so far: <b>$0.40</b></b></p>\n                <p></p>\n                <p>Press any key to continue.</p>\n                ","response":"enter","trial_type":"html-keyboard-response","trial_index":52,"time_elapsed":213009,"internal_node_id":"0.0-51.0","params":{"nStudents":24,"maxFlips":30,"completionMinutes":45,"basePay":8,"maxBonus":9,"perTrialBonus":0.5,"perTrialBonusThreshold":0.05,"exampleCost":0.01},"classroomParams":{"A":{"a":1,"b":4},"B":{"a":4,"b":1},"C":{"a":2,"b":8},"D":{"a":8,"b":2}},"conditions":["nonSeqFull","nonSeqPartial","seqNoFeedback","seqFeedback"],"classroomPairings":[["A","B"],["C","D"]],"coinWeights":[0.2,0.5,0.8],"subjectId":"A2MS1GQLGAX9FZ","assignmentId":"32EYX73OY1VFU7DQQZ1HYVE4DH8URP","hitId":"3Z3R5YC0P3915KVY8X6BNRIWSQNFTT","url":"https://gershmanlab.com/experiments/alicia/teaching/experiment/?hitId=3Z3R5YC0P3915KVY8X6BNRIWSQNFTT&workerId=A2MS1GQLGAX9FZ&assignmentId=32EYX73OY1VFU7DQQZ1HYVE4DH8URP&a=OXE29&tp_a=OXE29&b=32EYX73OY1VFU7DQQZ1HYVE4DH8URP&tp_b=32EYX73OY1VFU7DQQZ1HYVE4DH8URP&c=365799&tp_c=365799"},{"rt":null,"stimulus":"<div style=\"font-size:60px;\">Next student</div>","response":null,"trial_type":"html-keyboard-response","trial_index":53,"time_elapsed":216016,"internal_node_id":"0.0-52.0-0.0","params":{"nStudents":24,"maxFlips":30,"completionMinutes":45,"basePay":8,"maxBonus":9,"perTrialBonus":0.5,"perTrialBonusThreshold":0.05,"exampleCost":0.01},"classroomParams":{"A":{"a":1,"b":4},"B":{"a":4,"b":1},"C":{"a":2,"b":8},"D":{"a":8,"b":2}},"conditions":["nonSeqFull","nonSeqPartial","seqNoFeedback","seqFeedback"],"classroomPairings":[["A","B"],["C","D"]],"coinWeights":[0.2,0.5,0.8],"subjectId":"A2MS1GQLGAX9FZ","assignmentId":"32EYX73OY1VFU7DQQZ1HYVE4DH8URP","hitId":"3Z3R5YC0P3915KVY8X6BNRIWSQNFTT","url":"https://gershmanlab.com/experiments/alicia/teaching/experiment/?hitId=3Z3R5YC0P3915KVY8X6BNRIWSQNFTT&workerId=A2MS1GQLGAX9FZ&assignmentId=32EYX73OY1VFU7DQQZ1HYVE4DH8URP&a=OXE29&tp_a=OXE29&b=32EYX73OY1VFU7DQQZ1HYVE4DH8URP&tp_b=32EYX73OY1VFU7DQQZ1HYVE4DH8URP&c=365799&tp_c=365799"},{"rt":1401,"stimulus":"\n            <h4 style=\"color:Orange;\">Student 7</h4>\n            <h2>The weight of your coin is <b style=\"color:Tomato;\">0.5</b>.</h2>\n            <p>In this block, you will be giving <b>one</b> set of examples to Student 7.</p>\n                <p>You will receive feedback at the end of the block.</p>\n            <p></p>","response":0,"trial_type":"html-button-response","trial_index":54,"time_elapsed":217418,"internal_node_id":"0.0-53.0","params":{"nStudents":24,"maxFlips":30,"completionMinutes":45,"basePay":8,"maxBonus":9,"perTrialBonus":0.5,"perTrialBonusThreshold":0.05,"exampleCost":0.01},"classroomParams":{"A":{"a":1,"b":4},"B":{"a":4,"b":1},"C":{"a":2,"b":8},"D":{"a":8,"b":2}},"conditions":["nonSeqFull","nonSeqPartial","seqNoFeedback","seqFeedback"],"classroomPairings":[["A","B"],["C","D"]],"coinWeights":[0.2,0.5,0.8],"subjectId":"A2MS1GQLGAX9FZ","assignmentId":"32EYX73OY1VFU7DQQZ1HYVE4DH8URP","hitId":"3Z3R5YC0P3915KVY8X6BNRIWSQNFTT","url":"https://gershmanlab.com/experiments/alicia/teaching/experiment/?hitId=3Z3R5YC0P3915KVY8X6BNRIWSQNFTT&workerId=A2MS1GQLGAX9FZ&assignmentId=32EYX73OY1VFU7DQQZ1HYVE4DH8URP&a=OXE29&tp_a=OXE29&b=32EYX73OY1VFU7DQQZ1HYVE4DH8URP&tp_b=32EYX73OY1VFU7DQQZ1HYVE4DH8URP&c=365799&tp_c=365799"},{"rt":3834,"response":{"heads":"5","tails":"5"},"type":"response","condition":"nonSeqPartial","trueTheta":0.5,"classrooms":["A","B"],"studentTrueClassroom":"B","exampleSet":"first","trial_type":"survey-html-form","trial_index":55,"time_elapsed":221254,"internal_node_id":"0.0-54.0-0.0","params":{"nStudents":24,"maxFlips":30,"completionMinutes":45,"basePay":8,"maxBonus":9,"perTrialBonus":0.5,"perTrialBonusThreshold":0.05,"exampleCost":0.01},"classroomParams":{"A":{"a":1,"b":4},"B":{"a":4,"b":1},"C":{"a":2,"b":8},"D":{"a":8,"b":2}},"conditions":["nonSeqFull","nonSeqPartial","seqNoFeedback","seqFeedback"],"classroomPairings":[["A","B"],["C","D"]],"coinWeights":[0.2,0.5,0.8],"subjectId":"A2MS1GQLGAX9FZ","assignmentId":"32EYX73OY1VFU7DQQZ1HYVE4DH8URP","hitId":"3Z3R5YC0P3915KVY8X6BNRIWSQNFTT","url":"https://gershmanlab.com/experiments/alicia/teaching/experiment/?hitId=3Z3R5YC0P3915KVY8X6BNRIWSQNFTT&workerId=A2MS1GQLGAX9FZ&assignmentId=32EYX73OY1VFU7DQQZ1HYVE4DH8URP&a=OXE29&tp_a=OXE29&b=32EYX73OY1VFU7DQQZ1HYVE4DH8URP&tp_b=32EYX73OY1VFU7DQQZ1HYVE4DH8URP&c=365799&tp_c=365799","heads":5,"tails":5,"studentIndex":6,"studentTrueHypers":{"a":4,"b":1},"studentGuess":0.6,"delta":0.09999999999999998,"totalExamples":10,"bonus":0,"bonusSoFar":0.4},{"rt":null,"stimulus":"Sending examples to student... ","response":null,"trial_type":"html-keyboard-response","trial_index":56,"time_elapsed":223268,"internal_node_id":"0.0-55.0","params":{"nStudents":24,"maxFlips":30,"completionMinutes":45,"basePay":8,"maxBonus":9,"perTrialBonus":0.5,"perTrialBonusThreshold":0.05,"exampleCost":0.01},"classroomParams":{"A":{"a":1,"b":4},"B":{"a":4,"b":1},"C":{"a":2,"b":8},"D":{"a":8,"b":2}},"conditions":["nonSeqFull","nonSeqPartial","seqNoFeedback","seqFeedback"],"classroomPairings":[["A","B"],["C","D"]],"coinWeights":[0.2,0.5,0.8],"subjectId":"A2MS1GQLGAX9FZ","assignmentId":"32EYX73OY1VFU7DQQZ1HYVE4DH8URP","hitId":"3Z3R5YC0P3915KVY8X6BNRIWSQNFTT","url":"https://gershmanlab.com/experiments/alicia/teaching/experiment/?hitId=3Z3R5YC0P3915KVY8X6BNRIWSQNFTT&workerId=A2MS1GQLGAX9FZ&assignmentId=32EYX73OY1VFU7DQQZ1HYVE4DH8URP&a=OXE29&tp_a=OXE29&b=32EYX73OY1VFU7DQQZ1HYVE4DH8URP&tp_b=32EYX73OY1VFU7DQQZ1HYVE4DH8URP&c=365799&tp_c=365799"},{"rt":null,"stimulus":"Examples sent to student! Waiting for student...","response":null,"trial_type":"html-keyboard-response","trial_index":57,"time_elapsed":227283,"internal_node_id":"0.0-56.0","params":{"nStudents":24,"maxFlips":30,"completionMinutes":45,"basePay":8,"maxBonus":9,"perTrialBonus":0.5,"perTrialBonusThreshold":0.05,"exampleCost":0.01},"classroomParams":{"A":{"a":1,"b":4},"B":{"a":4,"b":1},"C":{"a":2,"b":8},"D":{"a":8,"b":2}},"conditions":["nonSeqFull","nonSeqPartial","seqNoFeedback","seqFeedback"],"classroomPairings":[["A","B"],["C","D"]],"coinWeights":[0.2,0.5,0.8],"subjectId":"A2MS1GQLGAX9FZ","assignmentId":"32EYX73OY1VFU7DQQZ1HYVE4DH8URP","hitId":"3Z3R5YC0P3915KVY8X6BNRIWSQNFTT","url":"https://gershmanlab.com/experiments/alicia/teaching/experiment/?hitId=3Z3R5YC0P3915KVY8X6BNRIWSQNFTT&workerId=A2MS1GQLGAX9FZ&assignmentId=32EYX73OY1VFU7DQQZ1HYVE4DH8URP&a=OXE29&tp_a=OXE29&b=32EYX73OY1VFU7DQQZ1HYVE4DH8URP&tp_b=32EYX73OY1VFU7DQQZ1HYVE4DH8URP&c=365799&tp_c=365799"},{"rt":2191,"stimulus":"\n                <p>Student's guess for coin weight: <b style=\"color:Tomato;\">0.60</b></p>\n                <p>You received a bonus of <b>$0</b>. Total bonus so far: <b>$0.40</b></b></p>\n                <p></p>\n                <p>Press any key to continue.</p>\n                ","response":"enter","trial_type":"html-keyboard-response","trial_index":58,"time_elapsed":229476,"internal_node_id":"0.0-57.0","params":{"nStudents":24,"maxFlips":30,"completionMinutes":45,"basePay":8,"maxBonus":9,"perTrialBonus":0.5,"perTrialBonusThreshold":0.05,"exampleCost":0.01},"classroomParams":{"A":{"a":1,"b":4},"B":{"a":4,"b":1},"C":{"a":2,"b":8},"D":{"a":8,"b":2}},"conditions":["nonSeqFull","nonSeqPartial","seqNoFeedback","seqFeedback"],"classroomPairings":[["A","B"],["C","D"]],"coinWeights":[0.2,0.5,0.8],"subjectId":"A2MS1GQLGAX9FZ","assignmentId":"32EYX73OY1VFU7DQQZ1HYVE4DH8URP","hitId":"3Z3R5YC0P3915KVY8X6BNRIWSQNFTT","url":"https://gershmanlab.com/experiments/alicia/teaching/experiment/?hitId=3Z3R5YC0P3915KVY8X6BNRIWSQNFTT&workerId=A2MS1GQLGAX9FZ&assignmentId=32EYX73OY1VFU7DQQZ1HYVE4DH8URP&a=OXE29&tp_a=OXE29&b=32EYX73OY1VFU7DQQZ1HYVE4DH8URP&tp_b=32EYX73OY1VFU7DQQZ1HYVE4DH8URP&c=365799&tp_c=365799"},{"rt":null,"stimulus":"<div style=\"font-size:60px;\">Next student</div>","response":null,"trial_type":"html-keyboard-response","trial_index":59,"time_elapsed":232480,"internal_node_id":"0.0-58.0-0.0","params":{"nStudents":24,"maxFlips":30,"completionMinutes":45,"basePay":8,"maxBonus":9,"perTrialBonus":0.5,"perTrialBonusThreshold":0.05,"exampleCost":0.01},"classroomParams":{"A":{"a":1,"b":4},"B":{"a":4,"b":1},"C":{"a":2,"b":8},"D":{"a":8,"b":2}},"conditions":["nonSeqFull","nonSeqPartial","seqNoFeedback","seqFeedback"],"classroomPairings":[["A","B"],["C","D"]],"coinWeights":[0.2,0.5,0.8],"subjectId":"A2MS1GQLGAX9FZ","assignmentId":"32EYX73OY1VFU7DQQZ1HYVE4DH8URP","hitId":"3Z3R5YC0P3915KVY8X6BNRIWSQNFTT","url":"https://gershmanlab.com/experiments/alicia/teaching/experiment/?hitId=3Z3R5YC0P3915KVY8X6BNRIWSQNFTT&workerId=A2MS1GQLGAX9FZ&assignmentId=32EYX73OY1VFU7DQQZ1HYVE4DH8URP&a=OXE29&tp_a=OXE29&b=32EYX73OY1VFU7DQQZ1HYVE4DH8URP&tp_b=32EYX73OY1VFU7DQQZ1HYVE4DH8URP&c=365799&tp_c=365799"},{"rt":1569,"stimulus":"\n            <h4 style=\"color:Orange;\">Student 8</h4>\n            <h2>The weight of your coin is <b style=\"color:Tomato;\">0.2</b>.</h2>\n            <p>In this block, you will be giving <b>one</b> set of examples to Student 8.</p>\n                <p>You will receive feedback at the end of the block.</p>\n            <p></p>","response":0,"trial_type":"html-button-response","trial_index":60,"time_elapsed":234050,"internal_node_id":"0.0-59.0","params":{"nStudents":24,"maxFlips":30,"completionMinutes":45,"basePay":8,"maxBonus":9,"perTrialBonus":0.5,"perTrialBonusThreshold":0.05,"exampleCost":0.01},"classroomParams":{"A":{"a":1,"b":4},"B":{"a":4,"b":1},"C":{"a":2,"b":8},"D":{"a":8,"b":2}},"conditions":["nonSeqFull","nonSeqPartial","seqNoFeedback","seqFeedback"],"classroomPairings":[["A","B"],["C","D"]],"coinWeights":[0.2,0.5,0.8],"subjectId":"A2MS1GQLGAX9FZ","assignmentId":"32EYX73OY1VFU7DQQZ1HYVE4DH8URP","hitId":"3Z3R5YC0P3915KVY8X6BNRIWSQNFTT","url":"https://gershmanlab.com/experiments/alicia/teaching/experiment/?hitId=3Z3R5YC0P3915KVY8X6BNRIWSQNFTT&workerId=A2MS1GQLGAX9FZ&assignmentId=32EYX73OY1VFU7DQQZ1HYVE4DH8URP&a=OXE29&tp_a=OXE29&b=32EYX73OY1VFU7DQQZ1HYVE4DH8URP&tp_b=32EYX73OY1VFU7DQQZ1HYVE4DH8URP&c=365799&tp_c=365799"},{"rt":12653,"response":{"heads":"2","tails":"8"},"type":"response","condition":"nonSeqPartial","trueTheta":0.2,"classrooms":["C","D"],"studentTrueClassroom":"C","exampleSet":"first","trial_type":"survey-html-form","trial_index":61,"time_elapsed":246706,"internal_node_id":"0.0-60.0-0.0","params":{"nStudents":24,"maxFlips":30,"completionMinutes":45,"basePay":8,"maxBonus":9,"perTrialBonus":0.5,"perTrialBonusThreshold":0.05,"exampleCost":0.01},"classroomParams":{"A":{"a":1,"b":4},"B":{"a":4,"b":1},"C":{"a":2,"b":8},"D":{"a":8,"b":2}},"conditions":["nonSeqFull","nonSeqPartial","seqNoFeedback","seqFeedback"],"classroomPairings":[["A","B"],["C","D"]],"coinWeights":[0.2,0.5,0.8],"subjectId":"A2MS1GQLGAX9FZ","assignmentId":"32EYX73OY1VFU7DQQZ1HYVE4DH8URP","hitId":"3Z3R5YC0P3915KVY8X6BNRIWSQNFTT","url":"https://gershmanlab.com/experiments/alicia/teaching/experiment/?hitId=3Z3R5YC0P3915KVY8X6BNRIWSQNFTT&workerId=A2MS1GQLGAX9FZ&assignmentId=32EYX73OY1VFU7DQQZ1HYVE4DH8URP&a=OXE29&tp_a=OXE29&b=32EYX73OY1VFU7DQQZ1HYVE4DH8URP&tp_b=32EYX73OY1VFU7DQQZ1HYVE4DH8URP&c=365799&tp_c=365799","heads":2,"tails":8,"studentIndex":7,"studentTrueHypers":{"a":2,"b":8},"studentGuess":0.2,"delta":0,"totalExamples":10,"bonus":0.4,"bonusSoFar":0.8},{"rt":null,"stimulus":"Sending examples to student... ","response":null,"trial_type":"html-keyboard-response","trial_index":62,"time_elapsed":248218,"internal_node_id":"0.0-61.0","params":{"nStudents":24,"maxFlips":30,"completionMinutes":45,"basePay":8,"maxBonus":9,"perTrialBonus":0.5,"perTrialBonusThreshold":0.05,"exampleCost":0.01},"classroomParams":{"A":{"a":1,"b":4},"B":{"a":4,"b":1},"C":{"a":2,"b":8},"D":{"a":8,"b":2}},"conditions":["nonSeqFull","nonSeqPartial","seqNoFeedback","seqFeedback"],"classroomPairings":[["A","B"],["C","D"]],"coinWeights":[0.2,0.5,0.8],"subjectId":"A2MS1GQLGAX9FZ","assignmentId":"32EYX73OY1VFU7DQQZ1HYVE4DH8URP","hitId":"3Z3R5YC0P3915KVY8X6BNRIWSQNFTT","url":"https://gershmanlab.com/experiments/alicia/teaching/experiment/?hitId=3Z3R5YC0P3915KVY8X6BNRIWSQNFTT&workerId=A2MS1GQLGAX9FZ&assignmentId=32EYX73OY1VFU7DQQZ1HYVE4DH8URP&a=OXE29&tp_a=OXE29&b=32EYX73OY1VFU7DQQZ1HYVE4DH8URP&tp_b=32EYX73OY1VFU7DQQZ1HYVE4DH8URP&c=365799&tp_c=365799"},{"rt":null,"stimulus":"Examples sent to student! Waiting for student...","response":null,"trial_type":"html-keyboard-response","trial_index":63,"time_elapsed":252232,"internal_node_id":"0.0-62.0","params":{"nStudents":24,"maxFlips":30,"completionMinutes":45,"basePay":8,"maxBonus":9,"perTrialBonus":0.5,"perTrialBonusThreshold":0.05,"exampleCost":0.01},"classroomParams":{"A":{"a":1,"b":4},"B":{"a":4,"b":1},"C":{"a":2,"b":8},"D":{"a":8,"b":2}},"conditions":["nonSeqFull","nonSeqPartial","seqNoFeedback","seqFeedback"],"classroomPairings":[["A","B"],["C","D"]],"coinWeights":[0.2,0.5,0.8],"subjectId":"A2MS1GQLGAX9FZ","assignmentId":"32EYX73OY1VFU7DQQZ1HYVE4DH8URP","hitId":"3Z3R5YC0P3915KVY8X6BNRIWSQNFTT","url":"https://gershmanlab.com/experiments/alicia/teaching/experiment/?hitId=3Z3R5YC0P3915KVY8X6BNRIWSQNFTT&workerId=A2MS1GQLGAX9FZ&assignmentId=32EYX73OY1VFU7DQQZ1HYVE4DH8URP&a=OXE29&tp_a=OXE29&b=32EYX73OY1VFU7DQQZ1HYVE4DH8URP&tp_b=32EYX73OY1VFU7DQQZ1HYVE4DH8URP&c=365799&tp_c=365799"},{"rt":3215,"stimulus":"\n                <p>Student's guess for coin weight: <b style=\"color:Tomato;\">0.20</b></p>\n                <p>You received a bonus of <b>$0.4</b>. Total bonus so far: <b>$0.80</b></b></p>\n                <p></p>\n                <p>Press any key to continue.</p>\n                ","response":"enter","trial_type":"html-keyboard-response","trial_index":64,"time_elapsed":255448,"internal_node_id":"0.0-63.0","params":{"nStudents":24,"maxFlips":30,"completionMinutes":45,"basePay":8,"maxBonus":9,"perTrialBonus":0.5,"perTrialBonusThreshold":0.05,"exampleCost":0.01},"classroomParams":{"A":{"a":1,"b":4},"B":{"a":4,"b":1},"C":{"a":2,"b":8},"D":{"a":8,"b":2}},"conditions":["nonSeqFull","nonSeqPartial","seqNoFeedback","seqFeedback"],"classroomPairings":[["A","B"],["C","D"]],"coinWeights":[0.2,0.5,0.8],"subjectId":"A2MS1GQLGAX9FZ","assignmentId":"32EYX73OY1VFU7DQQZ1HYVE4DH8URP","hitId":"3Z3R5YC0P3915KVY8X6BNRIWSQNFTT","url":"https://gershmanlab.com/experiments/alicia/teaching/experiment/?hitId=3Z3R5YC0P3915KVY8X6BNRIWSQNFTT&workerId=A2MS1GQLGAX9FZ&assignmentId=32EYX73OY1VFU7DQQZ1HYVE4DH8URP&a=OXE29&tp_a=OXE29&b=32EYX73OY1VFU7DQQZ1HYVE4DH8URP&tp_b=32EYX73OY1VFU7DQQZ1HYVE4DH8URP&c=365799&tp_c=365799"},{"rt":null,"stimulus":"<div style=\"font-size:60px;\">Next student</div>","response":null,"trial_type":"html-keyboard-response","trial_index":65,"time_elapsed":258453,"internal_node_id":"0.0-64.0-0.0","params":{"nStudents":24,"maxFlips":30,"completionMinutes":45,"basePay":8,"maxBonus":9,"perTrialBonus":0.5,"perTrialBonusThreshold":0.05,"exampleCost":0.01},"classroomParams":{"A":{"a":1,"b":4},"B":{"a":4,"b":1},"C":{"a":2,"b":8},"D":{"a":8,"b":2}},"conditions":["nonSeqFull","nonSeqPartial","seqNoFeedback","seqFeedback"],"classroomPairings":[["A","B"],["C","D"]],"coinWeights":[0.2,0.5,0.8],"subjectId":"A2MS1GQLGAX9FZ","assignmentId":"32EYX73OY1VFU7DQQZ1HYVE4DH8URP","hitId":"3Z3R5YC0P3915KVY8X6BNRIWSQNFTT","url":"https://gershmanlab.com/experiments/alicia/teaching/experiment/?hitId=3Z3R5YC0P3915KVY8X6BNRIWSQNFTT&workerId=A2MS1GQLGAX9FZ&assignmentId=32EYX73OY1VFU7DQQZ1HYVE4DH8URP&a=OXE29&tp_a=OXE29&b=32EYX73OY1VFU7DQQZ1HYVE4DH8URP&tp_b=32EYX73OY1VFU7DQQZ1HYVE4DH8URP&c=365799&tp_c=365799"},{"rt":2293,"stimulus":"\n            <h4 style=\"color:Orange;\">Student 9</h4>\n            <h2>The weight of your coin is <b style=\"color:Tomato;\">0.8</b>.</h2>\n            <p>In this block, you will be giving <b>one</b> set of examples to Student 9.</p>\n                <p>You will receive feedback at the end of the block.</p>\n            <p></p>","response":0,"trial_type":"html-button-response","trial_index":66,"time_elapsed":260748,"internal_node_id":"0.0-65.0","params":{"nStudents":24,"maxFlips":30,"completionMinutes":45,"basePay":8,"maxBonus":9,"perTrialBonus":0.5,"perTrialBonusThreshold":0.05,"exampleCost":0.01},"classroomParams":{"A":{"a":1,"b":4},"B":{"a":4,"b":1},"C":{"a":2,"b":8},"D":{"a":8,"b":2}},"conditions":["nonSeqFull","nonSeqPartial","seqNoFeedback","seqFeedback"],"classroomPairings":[["A","B"],["C","D"]],"coinWeights":[0.2,0.5,0.8],"subjectId":"A2MS1GQLGAX9FZ","assignmentId":"32EYX73OY1VFU7DQQZ1HYVE4DH8URP","hitId":"3Z3R5YC0P3915KVY8X6BNRIWSQNFTT","url":"https://gershmanlab.com/experiments/alicia/teaching/experiment/?hitId=3Z3R5YC0P3915KVY8X6BNRIWSQNFTT&workerId=A2MS1GQLGAX9FZ&assignmentId=32EYX73OY1VFU7DQQZ1HYVE4DH8URP&a=OXE29&tp_a=OXE29&b=32EYX73OY1VFU7DQQZ1HYVE4DH8URP&tp_b=32EYX73OY1VFU7DQQZ1HYVE4DH8URP&c=365799&tp_c=365799"},{"rt":16765,"response":{"heads":"4","tails":"1"},"type":"response","condition":"nonSeqFull","trueTheta":0.8,"classrooms":["A","B"],"studentTrueClassroom":"B","exampleSet":"first","trial_type":"survey-html-form","trial_index":67,"time_elapsed":277515,"internal_node_id":"0.0-66.0-0.0","params":{"nStudents":24,"maxFlips":30,"completionMinutes":45,"basePay":8,"maxBonus":9,"perTrialBonus":0.5,"perTrialBonusThreshold":0.05,"exampleCost":0.01},"classroomParams":{"A":{"a":1,"b":4},"B":{"a":4,"b":1},"C":{"a":2,"b":8},"D":{"a":8,"b":2}},"conditions":["nonSeqFull","nonSeqPartial","seqNoFeedback","seqFeedback"],"classroomPairings":[["A","B"],["C","D"]],"coinWeights":[0.2,0.5,0.8],"subjectId":"A2MS1GQLGAX9FZ","assignmentId":"32EYX73OY1VFU7DQQZ1HYVE4DH8URP","hitId":"3Z3R5YC0P3915KVY8X6BNRIWSQNFTT","url":"https://gershmanlab.com/experiments/alicia/teaching/experiment/?hitId=3Z3R5YC0P3915KVY8X6BNRIWSQNFTT&workerId=A2MS1GQLGAX9FZ&assignmentId=32EYX73OY1VFU7DQQZ1HYVE4DH8URP&a=OXE29&tp_a=OXE29&b=32EYX73OY1VFU7DQQZ1HYVE4DH8URP&tp_b=32EYX73OY1VFU7DQQZ1HYVE4DH8URP&c=365799&tp_c=365799","heads":4,"tails":1,"studentIndex":8,"studentTrueHypers":{"a":4,"b":1},"studentGuess":0.8,"delta":0,"totalExamples":5,"bonus":0.45,"bonusSoFar":1.25},{"rt":null,"stimulus":"Sending examples to student... ","response":null,"trial_type":"html-keyboard-response","trial_index":68,"time_elapsed":279018,"internal_node_id":"0.0-67.0","params":{"nStudents":24,"maxFlips":30,"completionMinutes":45,"basePay":8,"maxBonus":9,"perTrialBonus":0.5,"perTrialBonusThreshold":0.05,"exampleCost":0.01},"classroomParams":{"A":{"a":1,"b":4},"B":{"a":4,"b":1},"C":{"a":2,"b":8},"D":{"a":8,"b":2}},"conditions":["nonSeqFull","nonSeqPartial","seqNoFeedback","seqFeedback"],"classroomPairings":[["A","B"],["C","D"]],"coinWeights":[0.2,0.5,0.8],"subjectId":"A2MS1GQLGAX9FZ","assignmentId":"32EYX73OY1VFU7DQQZ1HYVE4DH8URP","hitId":"3Z3R5YC0P3915KVY8X6BNRIWSQNFTT","url":"https://gershmanlab.com/experiments/alicia/teaching/experiment/?hitId=3Z3R5YC0P3915KVY8X6BNRIWSQNFTT&workerId=A2MS1GQLGAX9FZ&assignmentId=32EYX73OY1VFU7DQQZ1HYVE4DH8URP&a=OXE29&tp_a=OXE29&b=32EYX73OY1VFU7DQQZ1HYVE4DH8URP&tp_b=32EYX73OY1VFU7DQQZ1HYVE4DH8URP&c=365799&tp_c=365799"},{"rt":null,"stimulus":"Examples sent to student! Waiting for student...","response":null,"trial_type":"html-keyboard-response","trial_index":69,"time_elapsed":283029,"internal_node_id":"0.0-68.0","params":{"nStudents":24,"maxFlips":30,"completionMinutes":45,"basePay":8,"maxBonus":9,"perTrialBonus":0.5,"perTrialBonusThreshold":0.05,"exampleCost":0.01},"classroomParams":{"A":{"a":1,"b":4},"B":{"a":4,"b":1},"C":{"a":2,"b":8},"D":{"a":8,"b":2}},"conditions":["nonSeqFull","nonSeqPartial","seqNoFeedback","seqFeedback"],"classroomPairings":[["A","B"],["C","D"]],"coinWeights":[0.2,0.5,0.8],"subjectId":"A2MS1GQLGAX9FZ","assignmentId":"32EYX73OY1VFU7DQQZ1HYVE4DH8URP","hitId":"3Z3R5YC0P3915KVY8X6BNRIWSQNFTT","url":"https://gershmanlab.com/experiments/alicia/teaching/experiment/?hitId=3Z3R5YC0P3915KVY8X6BNRIWSQNFTT&workerId=A2MS1GQLGAX9FZ&assignmentId=32EYX73OY1VFU7DQQZ1HYVE4DH8URP&a=OXE29&tp_a=OXE29&b=32EYX73OY1VFU7DQQZ1HYVE4DH8URP&tp_b=32EYX73OY1VFU7DQQZ1HYVE4DH8URP&c=365799&tp_c=365799"},{"rt":2012,"stimulus":"\n                <p>Student's guess for coin weight: <b style=\"color:Tomato;\">0.80</b></p>\n                <p>You received a bonus of <b>$0.45</b>. Total bonus so far: <b>$1.25</b></b></p>\n                <p></p>\n                <p>Press any key to continue.</p>\n                ","response":"enter","trial_type":"html-keyboard-response","trial_index":70,"time_elapsed":285042,"internal_node_id":"0.0-69.0","params":{"nStudents":24,"maxFlips":30,"completionMinutes":45,"basePay":8,"maxBonus":9,"perTrialBonus":0.5,"perTrialBonusThreshold":0.05,"exampleCost":0.01},"classroomParams":{"A":{"a":1,"b":4},"B":{"a":4,"b":1},"C":{"a":2,"b":8},"D":{"a":8,"b":2}},"conditions":["nonSeqFull","nonSeqPartial","seqNoFeedback","seqFeedback"],"classroomPairings":[["A","B"],["C","D"]],"coinWeights":[0.2,0.5,0.8],"subjectId":"A2MS1GQLGAX9FZ","assignmentId":"32EYX73OY1VFU7DQQZ1HYVE4DH8URP","hitId":"3Z3R5YC0P3915KVY8X6BNRIWSQNFTT","url":"https://gershmanlab.com/experiments/alicia/teaching/experiment/?hitId=3Z3R5YC0P3915KVY8X6BNRIWSQNFTT&workerId=A2MS1GQLGAX9FZ&assignmentId=32EYX73OY1VFU7DQQZ1HYVE4DH8URP&a=OXE29&tp_a=OXE29&b=32EYX73OY1VFU7DQQZ1HYVE4DH8URP&tp_b=32EYX73OY1VFU7DQQZ1HYVE4DH8URP&c=365799&tp_c=365799"},{"rt":null,"stimulus":"<div style=\"font-size:60px;\">Next student</div>","response":null,"trial_type":"html-keyboard-response","trial_index":71,"time_elapsed":288055,"internal_node_id":"0.0-70.0-0.0","params":{"nStudents":24,"maxFlips":30,"completionMinutes":45,"basePay":8,"maxBonus":9,"perTrialBonus":0.5,"perTrialBonusThreshold":0.05,"exampleCost":0.01},"classroomParams":{"A":{"a":1,"b":4},"B":{"a":4,"b":1},"C":{"a":2,"b":8},"D":{"a":8,"b":2}},"conditions":["nonSeqFull","nonSeqPartial","seqNoFeedback","seqFeedback"],"classroomPairings":[["A","B"],["C","D"]],"coinWeights":[0.2,0.5,0.8],"subjectId":"A2MS1GQLGAX9FZ","assignmentId":"32EYX73OY1VFU7DQQZ1HYVE4DH8URP","hitId":"3Z3R5YC0P3915KVY8X6BNRIWSQNFTT","url":"https://gershmanlab.com/experiments/alicia/teaching/experiment/?hitId=3Z3R5YC0P3915KVY8X6BNRIWSQNFTT&workerId=A2MS1GQLGAX9FZ&assignmentId=32EYX73OY1VFU7DQQZ1HYVE4DH8URP&a=OXE29&tp_a=OXE29&b=32EYX73OY1VFU7DQQZ1HYVE4DH8URP&tp_b=32EYX73OY1VFU7DQQZ1HYVE4DH8URP&c=365799&tp_c=365799"},{"rt":1617,"stimulus":"\n            <h4 style=\"color:Orange;\">Student 10</h4>\n            <h2>The weight of your coin is <b style=\"color:Tomato;\">0.5</b>.</h2>\n            <p>In this block, you will be giving <b>two</b> sets of examples to Student 10.</p>\n                <p>You will receive feedback at the end of the block.</p>\n            <p></p>","response":0,"trial_type":"html-button-response","trial_index":72,"time_elapsed":289673,"internal_node_id":"0.0-71.0","params":{"nStudents":24,"maxFlips":30,"completionMinutes":45,"basePay":8,"maxBonus":9,"perTrialBonus":0.5,"perTrialBonusThreshold":0.05,"exampleCost":0.01},"classroomParams":{"A":{"a":1,"b":4},"B":{"a":4,"b":1},"C":{"a":2,"b":8},"D":{"a":8,"b":2}},"conditions":["nonSeqFull","nonSeqPartial","seqNoFeedback","seqFeedback"],"classroomPairings":[["A","B"],["C","D"]],"coinWeights":[0.2,0.5,0.8],"subjectId":"A2MS1GQLGAX9FZ","assignmentId":"32EYX73OY1VFU7DQQZ1HYVE4DH8URP","hitId":"3Z3R5YC0P3915KVY8X6BNRIWSQNFTT","url":"https://gershmanlab.com/experiments/alicia/teaching/experiment/?hitId=3Z3R5YC0P3915KVY8X6BNRIWSQNFTT&workerId=A2MS1GQLGAX9FZ&assignmentId=32EYX73OY1VFU7DQQZ1HYVE4DH8URP&a=OXE29&tp_a=OXE29&b=32EYX73OY1VFU7DQQZ1HYVE4DH8URP&tp_b=32EYX73OY1VFU7DQQZ1HYVE4DH8URP&c=365799&tp_c=365799"},{"rt":23814,"response":{"heads":"2","tails":"8"},"type":"response","condition":"seqNoFeedback","trueTheta":0.5,"classrooms":["C","D"],"studentTrueClassroom":"D","exampleSet":"first","trial_type":"survey-html-form","trial_index":73,"time_elapsed":313489,"internal_node_id":"0.0-72.0-0.0","params":{"nStudents":24,"maxFlips":30,"completionMinutes":45,"basePay":8,"maxBonus":9,"perTrialBonus":0.5,"perTrialBonusThreshold":0.05,"exampleCost":0.01},"classroomParams":{"A":{"a":1,"b":4},"B":{"a":4,"b":1},"C":{"a":2,"b":8},"D":{"a":8,"b":2}},"conditions":["nonSeqFull","nonSeqPartial","seqNoFeedback","seqFeedback"],"classroomPairings":[["A","B"],["C","D"]],"coinWeights":[0.2,0.5,0.8],"subjectId":"A2MS1GQLGAX9FZ","assignmentId":"32EYX73OY1VFU7DQQZ1HYVE4DH8URP","hitId":"3Z3R5YC0P3915KVY8X6BNRIWSQNFTT","url":"https://gershmanlab.com/experiments/alicia/teaching/experiment/?hitId=3Z3R5YC0P3915KVY8X6BNRIWSQNFTT&workerId=A2MS1GQLGAX9FZ&assignmentId=32EYX73OY1VFU7DQQZ1HYVE4DH8URP&a=OXE29&tp_a=OXE29&b=32EYX73OY1VFU7DQQZ1HYVE4DH8URP&tp_b=32EYX73OY1VFU7DQQZ1HYVE4DH8URP&c=365799&tp_c=365799","heads":2,"tails":8,"studentIndex":9,"studentTrueHypers":{"a":8,"b":2},"studentGuess":0.5,"delta":0,"totalExamples":10,"bonusSoFar":1.25},{"rt":null,"stimulus":"Sending examples to student... ","response":null,"trial_type":"html-keyboard-response","trial_index":74,"time_elapsed":315493,"internal_node_id":"0.0-73.0","params":{"nStudents":24,"maxFlips":30,"completionMinutes":45,"basePay":8,"maxBonus":9,"perTrialBonus":0.5,"perTrialBonusThreshold":0.05,"exampleCost":0.01},"classroomParams":{"A":{"a":1,"b":4},"B":{"a":4,"b":1},"C":{"a":2,"b":8},"D":{"a":8,"b":2}},"conditions":["nonSeqFull","nonSeqPartial","seqNoFeedback","seqFeedback"],"classroomPairings":[["A","B"],["C","D"]],"coinWeights":[0.2,0.5,0.8],"subjectId":"A2MS1GQLGAX9FZ","assignmentId":"32EYX73OY1VFU7DQQZ1HYVE4DH8URP","hitId":"3Z3R5YC0P3915KVY8X6BNRIWSQNFTT","url":"https://gershmanlab.com/experiments/alicia/teaching/experiment/?hitId=3Z3R5YC0P3915KVY8X6BNRIWSQNFTT&workerId=A2MS1GQLGAX9FZ&assignmentId=32EYX73OY1VFU7DQQZ1HYVE4DH8URP&a=OXE29&tp_a=OXE29&b=32EYX73OY1VFU7DQQZ1HYVE4DH8URP&tp_b=32EYX73OY1VFU7DQQZ1HYVE4DH8URP&c=365799&tp_c=365799"},{"rt":null,"stimulus":"Examples sent to student! Waiting for student...","response":null,"trial_type":"html-keyboard-response","trial_index":75,"time_elapsed":320003,"internal_node_id":"0.0-74.0","params":{"nStudents":24,"maxFlips":30,"completionMinutes":45,"basePay":8,"maxBonus":9,"perTrialBonus":0.5,"perTrialBonusThreshold":0.05,"exampleCost":0.01},"classroomParams":{"A":{"a":1,"b":4},"B":{"a":4,"b":1},"C":{"a":2,"b":8},"D":{"a":8,"b":2}},"conditions":["nonSeqFull","nonSeqPartial","seqNoFeedback","seqFeedback"],"classroomPairings":[["A","B"],["C","D"]],"coinWeights":[0.2,0.5,0.8],"subjectId":"A2MS1GQLGAX9FZ","assignmentId":"32EYX73OY1VFU7DQQZ1HYVE4DH8URP","hitId":"3Z3R5YC0P3915KVY8X6BNRIWSQNFTT","url":"https://gershmanlab.com/experiments/alicia/teaching/experiment/?hitId=3Z3R5YC0P3915KVY8X6BNRIWSQNFTT&workerId=A2MS1GQLGAX9FZ&assignmentId=32EYX73OY1VFU7DQQZ1HYVE4DH8URP&a=OXE29&tp_a=OXE29&b=32EYX73OY1VFU7DQQZ1HYVE4DH8URP&tp_b=32EYX73OY1VFU7DQQZ1HYVE4DH8URP&c=365799&tp_c=365799"},{"rt":4863,"response":{"heads":"8","tails":"2"},"type":"response","condition":"seqNoFeedback","trueTheta":0.5,"classrooms":["C","D"],"studentTrueClassroom":"D","exampleSet":"second","trial_type":"survey-html-form","trial_index":76,"time_elapsed":324867,"internal_node_id":"0.0-75.0-0.0","params":{"nStudents":24,"maxFlips":30,"completionMinutes":45,"basePay":8,"maxBonus":9,"perTrialBonus":0.5,"perTrialBonusThreshold":0.05,"exampleCost":0.01},"classroomParams":{"A":{"a":1,"b":4},"B":{"a":4,"b":1},"C":{"a":2,"b":8},"D":{"a":8,"b":2}},"conditions":["nonSeqFull","nonSeqPartial","seqNoFeedback","seqFeedback"],"classroomPairings":[["A","B"],["C","D"]],"coinWeights":[0.2,0.5,0.8],"subjectId":"A2MS1GQLGAX9FZ","assignmentId":"32EYX73OY1VFU7DQQZ1HYVE4DH8URP","hitId":"3Z3R5YC0P3915KVY8X6BNRIWSQNFTT","url":"https://gershmanlab.com/experiments/alicia/teaching/experiment/?hitId=3Z3R5YC0P3915KVY8X6BNRIWSQNFTT&workerId=A2MS1GQLGAX9FZ&assignmentId=32EYX73OY1VFU7DQQZ1HYVE4DH8URP&a=OXE29&tp_a=OXE29&b=32EYX73OY1VFU7DQQZ1HYVE4DH8URP&tp_b=32EYX73OY1VFU7DQQZ1HYVE4DH8URP&c=365799&tp_c=365799","firstResponseHeads":2,"firstResponseTails":8,"secondResponseHeads":8,"secondResponseTails":2,"totalHeads":10,"totalTails":10,"studentIndex":9,"studentTrueHypers":{"a":8,"b":2},"studentGuess":0.6,"delta":0.09999999999999998,"bonus":0,"bonusSoFar":1.25,"totalExamples":20},{"rt":null,"stimulus":"Sending examples to student... ","response":null,"trial_type":"html-keyboard-response","trial_index":77,"time_elapsed":326623,"internal_node_id":"0.0-76.0","params":{"nStudents":24,"maxFlips":30,"completionMinutes":45,"basePay":8,"maxBonus":9,"perTrialBonus":0.5,"perTrialBonusThreshold":0.05,"exampleCost":0.01},"classroomParams":{"A":{"a":1,"b":4},"B":{"a":4,"b":1},"C":{"a":2,"b":8},"D":{"a":8,"b":2}},"conditions":["nonSeqFull","nonSeqPartial","seqNoFeedback","seqFeedback"],"classroomPairings":[["A","B"],["C","D"]],"coinWeights":[0.2,0.5,0.8],"subjectId":"A2MS1GQLGAX9FZ","assignmentId":"32EYX73OY1VFU7DQQZ1HYVE4DH8URP","hitId":"3Z3R5YC0P3915KVY8X6BNRIWSQNFTT","url":"https://gershmanlab.com/experiments/alicia/teaching/experiment/?hitId=3Z3R5YC0P3915KVY8X6BNRIWSQNFTT&workerId=A2MS1GQLGAX9FZ&assignmentId=32EYX73OY1VFU7DQQZ1HYVE4DH8URP&a=OXE29&tp_a=OXE29&b=32EYX73OY1VFU7DQQZ1HYVE4DH8URP&tp_b=32EYX73OY1VFU7DQQZ1HYVE4DH8URP&c=365799&tp_c=365799"},{"rt":null,"stimulus":"Examples sent to student! Waiting for student...","response":null,"trial_type":"html-keyboard-response","trial_index":78,"time_elapsed":331127,"internal_node_id":"0.0-77.0","params":{"nStudents":24,"maxFlips":30,"completionMinutes":45,"basePay":8,"maxBonus":9,"perTrialBonus":0.5,"perTrialBonusThreshold":0.05,"exampleCost":0.01},"classroomParams":{"A":{"a":1,"b":4},"B":{"a":4,"b":1},"C":{"a":2,"b":8},"D":{"a":8,"b":2}},"conditions":["nonSeqFull","nonSeqPartial","seqNoFeedback","seqFeedback"],"classroomPairings":[["A","B"],["C","D"]],"coinWeights":[0.2,0.5,0.8],"subjectId":"A2MS1GQLGAX9FZ","assignmentId":"32EYX73OY1VFU7DQQZ1HYVE4DH8URP","hitId":"3Z3R5YC0P3915KVY8X6BNRIWSQNFTT","url":"https://gershmanlab.com/experiments/alicia/teaching/experiment/?hitId=3Z3R5YC0P3915KVY8X6BNRIWSQNFTT&workerId=A2MS1GQLGAX9FZ&assignmentId=32EYX73OY1VFU7DQQZ1HYVE4DH8URP&a=OXE29&tp_a=OXE29&b=32EYX73OY1VFU7DQQZ1HYVE4DH8URP&tp_b=32EYX73OY1VFU7DQQZ1HYVE4DH8URP&c=365799&tp_c=365799"},{"rt":4558,"stimulus":"\n                <p>Student 10's first guess for coin weight: <b style=\"color:Tomato\";>0.50</b></p>\n                <p>Student 10's second guess for coin weight: <b style=\"color:Tomato\";>0.60</b></p>\n                <p>You received a bonus of <b>$0.00</b> based on the student's second guess.</p>\n                <p>Total bonus so far: <b>$1.25</b></p>\n                <p>Press any key to continue.</p>\n                ","response":"enter","trial_type":"html-keyboard-response","trial_index":79,"time_elapsed":335687,"internal_node_id":"0.0-78.0","params":{"nStudents":24,"maxFlips":30,"completionMinutes":45,"basePay":8,"maxBonus":9,"perTrialBonus":0.5,"perTrialBonusThreshold":0.05,"exampleCost":0.01},"classroomParams":{"A":{"a":1,"b":4},"B":{"a":4,"b":1},"C":{"a":2,"b":8},"D":{"a":8,"b":2}},"conditions":["nonSeqFull","nonSeqPartial","seqNoFeedback","seqFeedback"],"classroomPairings":[["A","B"],["C","D"]],"coinWeights":[0.2,0.5,0.8],"subjectId":"A2MS1GQLGAX9FZ","assignmentId":"32EYX73OY1VFU7DQQZ1HYVE4DH8URP","hitId":"3Z3R5YC0P3915KVY8X6BNRIWSQNFTT","url":"https://gershmanlab.com/experiments/alicia/teaching/experiment/?hitId=3Z3R5YC0P3915KVY8X6BNRIWSQNFTT&workerId=A2MS1GQLGAX9FZ&assignmentId=32EYX73OY1VFU7DQQZ1HYVE4DH8URP&a=OXE29&tp_a=OXE29&b=32EYX73OY1VFU7DQQZ1HYVE4DH8URP&tp_b=32EYX73OY1VFU7DQQZ1HYVE4DH8URP&c=365799&tp_c=365799"},{"rt":null,"stimulus":"<div style=\"font-size:60px;\">Next student</div>","response":null,"trial_type":"html-keyboard-response","trial_index":80,"time_elapsed":337703,"internal_node_id":"0.0-79.0-0.0","params":{"nStudents":24,"maxFlips":30,"completionMinutes":45,"basePay":8,"maxBonus":9,"perTrialBonus":0.5,"perTrialBonusThreshold":0.05,"exampleCost":0.01},"classroomParams":{"A":{"a":1,"b":4},"B":{"a":4,"b":1},"C":{"a":2,"b":8},"D":{"a":8,"b":2}},"conditions":["nonSeqFull","nonSeqPartial","seqNoFeedback","seqFeedback"],"classroomPairings":[["A","B"],["C","D"]],"coinWeights":[0.2,0.5,0.8],"subjectId":"A2MS1GQLGAX9FZ","assignmentId":"32EYX73OY1VFU7DQQZ1HYVE4DH8URP","hitId":"3Z3R5YC0P3915KVY8X6BNRIWSQNFTT","url":"https://gershmanlab.com/experiments/alicia/teaching/experiment/?hitId=3Z3R5YC0P3915KVY8X6BNRIWSQNFTT&workerId=A2MS1GQLGAX9FZ&assignmentId=32EYX73OY1VFU7DQQZ1HYVE4DH8URP&a=OXE29&tp_a=OXE29&b=32EYX73OY1VFU7DQQZ1HYVE4DH8URP&tp_b=32EYX73OY1VFU7DQQZ1HYVE4DH8URP&c=365799&tp_c=365799"},{"rt":1658,"stimulus":"\n            <h4 style=\"color:Orange;\">Student 11</h4>\n            <h2>The weight of your coin is <b style=\"color:Tomato;\">0.5</b>.</h2>\n            <p>In this block, you will be giving <b>two</b> sets of examples to Student 11.</p>\n                <p>You will receive feedback at the end of the block.</p>\n            <p></p>","response":0,"trial_type":"html-button-response","trial_index":81,"time_elapsed":339363,"internal_node_id":"0.0-80.0","params":{"nStudents":24,"maxFlips":30,"completionMinutes":45,"basePay":8,"maxBonus":9,"perTrialBonus":0.5,"perTrialBonusThreshold":0.05,"exampleCost":0.01},"classroomParams":{"A":{"a":1,"b":4},"B":{"a":4,"b":1},"C":{"a":2,"b":8},"D":{"a":8,"b":2}},"conditions":["nonSeqFull","nonSeqPartial","seqNoFeedback","seqFeedback"],"classroomPairings":[["A","B"],["C","D"]],"coinWeights":[0.2,0.5,0.8],"subjectId":"A2MS1GQLGAX9FZ","assignmentId":"32EYX73OY1VFU7DQQZ1HYVE4DH8URP","hitId":"3Z3R5YC0P3915KVY8X6BNRIWSQNFTT","url":"https://gershmanlab.com/experiments/alicia/teaching/experiment/?hitId=3Z3R5YC0P3915KVY8X6BNRIWSQNFTT&workerId=A2MS1GQLGAX9FZ&assignmentId=32EYX73OY1VFU7DQQZ1HYVE4DH8URP&a=OXE29&tp_a=OXE29&b=32EYX73OY1VFU7DQQZ1HYVE4DH8URP&tp_b=32EYX73OY1VFU7DQQZ1HYVE4DH8URP&c=365799&tp_c=365799"},{"rt":19392,"response":{"heads":"4","tails":"1"},"type":"response","condition":"seqNoFeedback","trueTheta":0.5,"classrooms":["A","B"],"studentTrueClassroom":"A","exampleSet":"first","trial_type":"survey-html-form","trial_index":82,"time_elapsed":358757,"internal_node_id":"0.0-81.0-0.0","params":{"nStudents":24,"maxFlips":30,"completionMinutes":45,"basePay":8,"maxBonus":9,"perTrialBonus":0.5,"perTrialBonusThreshold":0.05,"exampleCost":0.01},"classroomParams":{"A":{"a":1,"b":4},"B":{"a":4,"b":1},"C":{"a":2,"b":8},"D":{"a":8,"b":2}},"conditions":["nonSeqFull","nonSeqPartial","seqNoFeedback","seqFeedback"],"classroomPairings":[["A","B"],["C","D"]],"coinWeights":[0.2,0.5,0.8],"subjectId":"A2MS1GQLGAX9FZ","assignmentId":"32EYX73OY1VFU7DQQZ1HYVE4DH8URP","hitId":"3Z3R5YC0P3915KVY8X6BNRIWSQNFTT","url":"https://gershmanlab.com/experiments/alicia/teaching/experiment/?hitId=3Z3R5YC0P3915KVY8X6BNRIWSQNFTT&workerId=A2MS1GQLGAX9FZ&assignmentId=32EYX73OY1VFU7DQQZ1HYVE4DH8URP&a=OXE29&tp_a=OXE29&b=32EYX73OY1VFU7DQQZ1HYVE4DH8URP&tp_b=32EYX73OY1VFU7DQQZ1HYVE4DH8URP&c=365799&tp_c=365799","heads":4,"tails":1,"studentIndex":10,"studentTrueHypers":{"a":1,"b":4},"studentGuess":0.5,"delta":0,"totalExamples":5,"bonusSoFar":1.25},{"rt":null,"stimulus":"Sending examples to student... ","response":null,"trial_type":"html-keyboard-response","trial_index":83,"time_elapsed":360264,"internal_node_id":"0.0-82.0","params":{"nStudents":24,"maxFlips":30,"completionMinutes":45,"basePay":8,"maxBonus":9,"perTrialBonus":0.5,"perTrialBonusThreshold":0.05,"exampleCost":0.01},"classroomParams":{"A":{"a":1,"b":4},"B":{"a":4,"b":1},"C":{"a":2,"b":8},"D":{"a":8,"b":2}},"conditions":["nonSeqFull","nonSeqPartial","seqNoFeedback","seqFeedback"],"classroomPairings":[["A","B"],["C","D"]],"coinWeights":[0.2,0.5,0.8],"subjectId":"A2MS1GQLGAX9FZ","assignmentId":"32EYX73OY1VFU7DQQZ1HYVE4DH8URP","hitId":"3Z3R5YC0P3915KVY8X6BNRIWSQNFTT","url":"https://gershmanlab.com/experiments/alicia/teaching/experiment/?hitId=3Z3R5YC0P3915KVY8X6BNRIWSQNFTT&workerId=A2MS1GQLGAX9FZ&assignmentId=32EYX73OY1VFU7DQQZ1HYVE4DH8URP&a=OXE29&tp_a=OXE29&b=32EYX73OY1VFU7DQQZ1HYVE4DH8URP&tp_b=32EYX73OY1VFU7DQQZ1HYVE4DH8URP&c=365799&tp_c=365799"},{"rt":null,"stimulus":"Examples sent to student! Waiting for student...","response":null,"trial_type":"html-keyboard-response","trial_index":84,"time_elapsed":365278,"internal_node_id":"0.0-83.0","params":{"nStudents":24,"maxFlips":30,"completionMinutes":45,"basePay":8,"maxBonus":9,"perTrialBonus":0.5,"perTrialBonusThreshold":0.05,"exampleCost":0.01},"classroomParams":{"A":{"a":1,"b":4},"B":{"a":4,"b":1},"C":{"a":2,"b":8},"D":{"a":8,"b":2}},"conditions":["nonSeqFull","nonSeqPartial","seqNoFeedback","seqFeedback"],"classroomPairings":[["A","B"],["C","D"]],"coinWeights":[0.2,0.5,0.8],"subjectId":"A2MS1GQLGAX9FZ","assignmentId":"32EYX73OY1VFU7DQQZ1HYVE4DH8URP","hitId":"3Z3R5YC0P3915KVY8X6BNRIWSQNFTT","url":"https://gershmanlab.com/experiments/alicia/teaching/experiment/?hitId=3Z3R5YC0P3915KVY8X6BNRIWSQNFTT&workerId=A2MS1GQLGAX9FZ&assignmentId=32EYX73OY1VFU7DQQZ1HYVE4DH8URP&a=OXE29&tp_a=OXE29&b=32EYX73OY1VFU7DQQZ1HYVE4DH8URP&tp_b=32EYX73OY1VFU7DQQZ1HYVE4DH8URP&c=365799&tp_c=365799"},{"rt":5163,"response":{"heads":"1","tails":"4"},"type":"response","condition":"seqNoFeedback","trueTheta":0.5,"classrooms":["A","B"],"studentTrueClassroom":"A","exampleSet":"second","trial_type":"survey-html-form","trial_index":85,"time_elapsed":370443,"internal_node_id":"0.0-84.0-0.0","params":{"nStudents":24,"maxFlips":30,"completionMinutes":45,"basePay":8,"maxBonus":9,"perTrialBonus":0.5,"perTrialBonusThreshold":0.05,"exampleCost":0.01},"classroomParams":{"A":{"a":1,"b":4},"B":{"a":4,"b":1},"C":{"a":2,"b":8},"D":{"a":8,"b":2}},"conditions":["nonSeqFull","nonSeqPartial","seqNoFeedback","seqFeedback"],"classroomPairings":[["A","B"],["C","D"]],"coinWeights":[0.2,0.5,0.8],"subjectId":"A2MS1GQLGAX9FZ","assignmentId":"32EYX73OY1VFU7DQQZ1HYVE4DH8URP","hitId":"3Z3R5YC0P3915KVY8X6BNRIWSQNFTT","url":"https://gershmanlab.com/experiments/alicia/teaching/experiment/?hitId=3Z3R5YC0P3915KVY8X6BNRIWSQNFTT&workerId=A2MS1GQLGAX9FZ&assig