[{"rt":9526,"stimulus":"Welcome to the experiment. Press any key to begin.","response":"enter","trial_type":"html-keyboard-response","trial_index":0,"time_elapsed":9536,"internal_node_id":"0.0-0.0","params":{"nStudents":24,"maxFlips":30,"completionMinutes":45,"basePay":8,"maxBonus":9,"perTrialBonus":0.5,"perTrialBonusThreshold":0.05,"exampleCost":0.01},"classroomParams":{"A":{"a":1,"b":4},"B":{"a":4,"b":1},"C":{"a":2,"b":8},"D":{"a":8,"b":2}},"conditions":["nonSeqFull","nonSeqPartial","seqNoFeedback","seqFeedback"],"classroomPairings":[["A","B"],["C","D"]],"coinWeights":[0.2,0.5,0.8],"subjectId":"A2MUCL20GTQJA0","assignmentId":"3LYA37P8IR9EB4RP0OBPST02T47KB5","hitId":"3Z3R5YC0P3915KVY8X6BNRIWSQNFTT","url":"https://gershmanlab.com/experiments/alicia/teaching/experiment/?hitId=3Z3R5YC0P3915KVY8X6BNRIWSQNFTT&workerId=A2MUCL20GTQJA0&assignmentId=3LYA37P8IR9EB4RP0OBPST02T47KB5&a=83YL9&tp_a=83YL9&b=3LYA37P8IR9EB4RP0OBPST02T47KB5&tp_b=3LYA37P8IR9EB4RP0OBPST02T47KB5&c=365799&tp_c=365799"},{"rt":2896,"stimulus":"\n        <h3>Please read this consent agreement carefully before deciding whether to participate in this experiment.</h3>\n        <p><b>Purpose of the research:</b> To examine how people teach effectively.</p>\n        <p><b>What you will do in this research:</b> You will teach students the weights of different coins.</p>\n        <p><b>Time required:</b> This experiment will take 45 minutes to complete.</p>\n        <p><b>Risks:</b> There are no anticipated risks associated with participating in this study.             The effects of participating should be comparable to those you would experience from viewing a computer monitor             and using a mouse and keyboard for the duration of the experiment.</p>\n        <p><b>Benefits:</b> The study provides important information about the nature of teaching.</p>\n        <p><b>Compensation:</b> You will receive <b>$8</b> for completing the experiment and a performance bonus of up to <b>$9</b>.</p>\n        <p><b>Confidentiality:</b> Your participation in this study will remain confidential.             No personally identifiable information will be associated with your data.             Your de-identified data may be shared with other researchers and used in future projects.</p>\n        <p><b>Participation and withdrawal:</b> Your participation in this study is completely voluntary and             you may refuse to participate or you may choose to withdraw at any time without penalty or loss of\n            benefits to which you are otherwise entitled.</p>\n        <p><b>How to contact the researcher:</b> If you have questions or concerns about your participation            or payment, or want to request a summary of research findings, please contact\n            Alicia Chen, aliciachen@college.harvard.edu.</p>\n        <p><b>Whom to contact about your rights in this research:</b> For questions, concerns, suggestions,             or complaints that have not been or cannot be addressed by the researcher, or to report             research-related harm, please contact the Committee on the Use of Human Subjects in Research at Harvard University,             1414 Massachusetts Avenue, Second Floor, Cambridge, MA 02138. Phone: 617-496-2847. Email: cuhs@fas.harvard.edu.</p>\n        ","response":0,"trial_type":"html-button-response","trial_index":1,"time_elapsed":12433,"internal_node_id":"0.0-1.0","params":{"nStudents":24,"maxFlips":30,"completionMinutes":45,"basePay":8,"maxBonus":9,"perTrialBonus":0.5,"perTrialBonusThreshold":0.05,"exampleCost":0.01},"classroomParams":{"A":{"a":1,"b":4},"B":{"a":4,"b":1},"C":{"a":2,"b":8},"D":{"a":8,"b":2}},"conditions":["nonSeqFull","nonSeqPartial","seqNoFeedback","seqFeedback"],"classroomPairings":[["A","B"],["C","D"]],"coinWeights":[0.2,0.5,0.8],"subjectId":"A2MUCL20GTQJA0","assignmentId":"3LYA37P8IR9EB4RP0OBPST02T47KB5","hitId":"3Z3R5YC0P3915KVY8X6BNRIWSQNFTT","url":"https://gershmanlab.com/experiments/alicia/teaching/experiment/?hitId=3Z3R5YC0P3915KVY8X6BNRIWSQNFTT&workerId=A2MUCL20GTQJA0&assignmentId=3LYA37P8IR9EB4RP0OBPST02T47KB5&a=83YL9&tp_a=83YL9&b=3LYA37P8IR9EB4RP0OBPST02T47KB5&tp_b=3LYA37P8IR9EB4RP0OBPST02T47KB5&c=365799&tp_c=365799"},{"view_history":[{"page_index":0,"viewing_time":6034},{"page_index":1,"viewing_time":4024},{"page_index":2,"viewing_time":48655},{"page_index":3,"viewing_time":25377},{"page_index":4,"viewing_time":22431},{"page_index":5,"viewing_time":35280},{"page_index":6,"viewing_time":38254}],"rt":180055,"trial_type":"instructions","trial_index":2,"time_elapsed":192489,"internal_node_id":"0.0-2.0-0.0","params":{"nStudents":24,"maxFlips":30,"completionMinutes":45,"basePay":8,"maxBonus":9,"perTrialBonus":0.5,"perTrialBonusThreshold":0.05,"exampleCost":0.01},"classroomParams":{"A":{"a":1,"b":4},"B":{"a":4,"b":1},"C":{"a":2,"b":8},"D":{"a":8,"b":2}},"conditions":["nonSeqFull","nonSeqPartial","seqNoFeedback","seqFeedback"],"classroomPairings":[["A","B"],["C","D"]],"coinWeights":[0.2,0.5,0.8],"subjectId":"A2MUCL20GTQJA0","assignmentId":"3LYA37P8IR9EB4RP0OBPST02T47KB5","hitId":"3Z3R5YC0P3915KVY8X6BNRIWSQNFTT","url":"https://gershmanlab.com/experiments/alicia/teaching/experiment/?hitId=3Z3R5YC0P3915KVY8X6BNRIWSQNFTT&workerId=A2MUCL20GTQJA0&assignmentId=3LYA37P8IR9EB4RP0OBPST02T47KB5&a=83YL9&tp_a=83YL9&b=3LYA37P8IR9EB4RP0OBPST02T47KB5&tp_b=3LYA37P8IR9EB4RP0OBPST02T47KB5&c=365799&tp_c=365799"},{"rt":95145,"response":{"Q0":"Students in different classrooms have seen a different proportion of fair and unfair coins before seeing the examples you select for them.","Q1":"By <b>considering the student's classroom information</b> so that I can teach efficiently and accurately/helpfully at the same time (because each example I give to the student costs money!).","Q2":"The coin lands heads 90% of the time.","Q3":"Yes, I might encounter the same student twice.","Q4":"The students are also on the same alien planet as you, where coins can be unfair.","Q5":"Based on the student's second (and final) guess."},"question_order":[0,5,1,4,3,2],"trial_type":"survey-multi-choice","trial_index":3,"time_elapsed":287637,"internal_node_id":"0.0-2.0-1.0","params":{"nStudents":24,"maxFlips":30,"completionMinutes":45,"basePay":8,"maxBonus":9,"perTrialBonus":0.5,"perTrialBonusThreshold":0.05,"exampleCost":0.01},"classroomParams":{"A":{"a":1,"b":4},"B":{"a":4,"b":1},"C":{"a":2,"b":8},"D":{"a":8,"b":2}},"conditions":["nonSeqFull","nonSeqPartial","seqNoFeedback","seqFeedback"],"classroomPairings":[["A","B"],["C","D"]],"coinWeights":[0.2,0.5,0.8],"subjectId":"A2MUCL20GTQJA0","assignmentId":"3LYA37P8IR9EB4RP0OBPST02T47KB5","hitId":"3Z3R5YC0P3915KVY8X6BNRIWSQNFTT","url":"https://gershmanlab.com/experiments/alicia/teaching/experiment/?hitId=3Z3R5YC0P3915KVY8X6BNRIWSQNFTT&workerId=A2MUCL20GTQJA0&assignmentId=3LYA37P8IR9EB4RP0OBPST02T47KB5&a=83YL9&tp_a=83YL9&b=3LYA37P8IR9EB4RP0OBPST02T47KB5&tp_b=3LYA37P8IR9EB4RP0OBPST02T47KB5&c=365799&tp_c=365799","pass":false},{"rt":2298,"stimulus":"Oops, you have missed question(s) on the comprehension check! We'll show you the instructions again.","response":0,"trial_type":"html-button-response","trial_index":4,"time_elapsed":289938,"internal_node_id":"0.0-2.0-2.0-0.0","params":{"nStudents":24,"maxFlips":30,"completionMinutes":45,"basePay":8,"maxBonus":9,"perTrialBonus":0.5,"perTrialBonusThreshold":0.05,"exampleCost":0.01},"classroomParams":{"A":{"a":1,"b":4},"B":{"a":4,"b":1},"C":{"a":2,"b":8},"D":{"a":8,"b":2}},"conditions":["nonSeqFull","nonSeqPartial","seqNoFeedback","seqFeedback"],"classroomPairings":[["A","B"],["C","D"]],"coinWeights":[0.2,0.5,0.8],"subjectId":"A2MUCL20GTQJA0","assignmentId":"3LYA37P8IR9EB4RP0OBPST02T47KB5","hitId":"3Z3R5YC0P3915KVY8X6BNRIWSQNFTT","url":"https://gershmanlab.com/experiments/alicia/teaching/experiment/?hitId=3Z3R5YC0P3915KVY8X6BNRIWSQNFTT&workerId=A2MUCL20GTQJA0&assignmentId=3LYA37P8IR9EB4RP0OBPST02T47KB5&a=83YL9&tp_a=83YL9&b=3LYA37P8IR9EB4RP0OBPST02T47KB5&tp_b=3LYA37P8IR9EB4RP0OBPST02T47KB5&c=365799&tp_c=365799"},{"view_history":[{"page_index":0,"viewing_time":663},{"page_index":1,"viewing_time":153},{"page_index":2,"viewing_time":779},{"page_index":3,"viewing_time":386},{"page_index":4,"viewing_time":577},{"page_index":5,"viewing_time":542},{"page_index":6,"viewing_time":632}],"rt":3732,"trial_type":"instructions","trial_index":5,"time_elapsed":293670,"internal_node_id":"0.0-2.1-0.1","params":{"nStudents":24,"maxFlips":30,"completionMinutes":45,"basePay":8,"maxBonus":9,"perTrialBonus":0.5,"perTrialBonusThreshold":0.05,"exampleCost":0.01},"classroomParams":{"A":{"a":1,"b":4},"B":{"a":4,"b":1},"C":{"a":2,"b":8},"D":{"a":8,"b":2}},"conditions":["nonSeqFull","nonSeqPartial","seqNoFeedback","seqFeedback"],"classroomPairings":[["A","B"],["C","D"]],"coinWeights":[0.2,0.5,0.8],"subjectId":"A2MUCL20GTQJA0","assignmentId":"3LYA37P8IR9EB4RP0OBPST02T47KB5","hitId":"3Z3R5YC0P3915KVY8X6BNRIWSQNFTT","url":"https://gershmanlab.com/experiments/alicia/teaching/experiment/?hitId=3Z3R5YC0P3915KVY8X6BNRIWSQNFTT&workerId=A2MUCL20GTQJA0&assignmentId=3LYA37P8IR9EB4RP0OBPST02T47KB5&a=83YL9&tp_a=83YL9&b=3LYA37P8IR9EB4RP0OBPST02T47KB5&tp_b=3LYA37P8IR9EB4RP0OBPST02T47KB5&c=365799&tp_c=365799"},{"rt":22859,"response":{"Q0":"Students in different classrooms will have seen a different number of heads and tails before seeing the examples you select for them.","Q1":"By <b>considering the student's classroom information</b> so that I can teach efficiently and accurately/helpfully at the same time (because each example I give to the student costs money!).","Q2":"The coin lands heads 90% of the time.","Q3":"Yes, I might encounter the same student twice.","Q4":"The students are also on the same alien planet as you, where coins can be unfair.","Q5":"Based on the student's second (and final) guess."},"question_order":[5,4,0,2,3,1],"trial_type":"survey-multi-choice","trial_index":6,"time_elapsed":316531,"internal_node_id":"0.0-2.1-1.1","params":{"nStudents":24,"maxFlips":30,"completionMinutes":45,"basePay":8,"maxBonus":9,"perTrialBonus":0.5,"perTrialBonusThreshold":0.05,"exampleCost":0.01},"classroomParams":{"A":{"a":1,"b":4},"B":{"a":4,"b":1},"C":{"a":2,"b":8},"D":{"a":8,"b":2}},"conditions":["nonSeqFull","nonSeqPartial","seqNoFeedback","seqFeedback"],"classroomPairings":[["A","B"],["C","D"]],"coinWeights":[0.2,0.5,0.8],"subjectId":"A2MUCL20GTQJA0","assignmentId":"3LYA37P8IR9EB4RP0OBPST02T47KB5","hitId":"3Z3R5YC0P3915KVY8X6BNRIWSQNFTT","url":"https://gershmanlab.com/experiments/alicia/teaching/experiment/?hitId=3Z3R5YC0P3915KVY8X6BNRIWSQNFTT&workerId=A2MUCL20GTQJA0&assignmentId=3LYA37P8IR9EB4RP0OBPST02T47KB5&a=83YL9&tp_a=83YL9&b=3LYA37P8IR9EB4RP0OBPST02T47KB5&tp_b=3LYA37P8IR9EB4RP0OBPST02T47KB5&c=365799&tp_c=365799","pass":false},{"rt":1670,"stimulus":"Oops, you have missed question(s) on the comprehension check! We'll show you the instructions again.","response":0,"trial_type":"html-button-response","trial_index":7,"time_elapsed":318202,"internal_node_id":"0.0-2.1-2.1-0.1","params":{"nStudents":24,"maxFlips":30,"completionMinutes":45,"basePay":8,"maxBonus":9,"perTrialBonus":0.5,"perTrialBonusThreshold":0.05,"exampleCost":0.01},"classroomParams":{"A":{"a":1,"b":4},"B":{"a":4,"b":1},"C":{"a":2,"b":8},"D":{"a":8,"b":2}},"conditions":["nonSeqFull","nonSeqPartial","seqNoFeedback","seqFeedback"],"classroomPairings":[["A","B"],["C","D"]],"coinWeights":[0.2,0.5,0.8],"subjectId":"A2MUCL20GTQJA0","assignmentId":"3LYA37P8IR9EB4RP0OBPST02T47KB5","hitId":"3Z3R5YC0P3915KVY8X6BNRIWSQNFTT","url":"https://gershmanlab.com/experiments/alicia/teaching/experiment/?hitId=3Z3R5YC0P3915KVY8X6BNRIWSQNFTT&workerId=A2MUCL20GTQJA0&assignmentId=3LYA37P8IR9EB4RP0OBPST02T47KB5&a=83YL9&tp_a=83YL9&b=3LYA37P8IR9EB4RP0OBPST02T47KB5&tp_b=3LYA37P8IR9EB4RP0OBPST02T47KB5&c=365799&tp_c=365799"},{"view_history":[{"page_index":0,"viewing_time":975},{"page_index":1,"viewing_time":176},{"page_index":2,"viewing_time":810},{"page_index":3,"viewing_time":669},{"page_index":4,"viewing_time":635},{"page_index":5,"viewing_time":595},{"page_index":6,"viewing_time":1021}],"rt":4881,"trial_type":"instructions","trial_index":8,"time_elapsed":323083,"internal_node_id":"0.0-2.2-0.2","params":{"nStudents":24,"maxFlips":30,"completionMinutes":45,"basePay":8,"maxBonus":9,"perTrialBonus":0.5,"perTrialBonusThreshold":0.05,"exampleCost":0.01},"classroomParams":{"A":{"a":1,"b":4},"B":{"a":4,"b":1},"C":{"a":2,"b":8},"D":{"a":8,"b":2}},"conditions":["nonSeqFull","nonSeqPartial","seqNoFeedback","seqFeedback"],"classroomPairings":[["A","B"],["C","D"]],"coinWeights":[0.2,0.5,0.8],"subjectId":"A2MUCL20GTQJA0","assignmentId":"3LYA37P8IR9EB4RP0OBPST02T47KB5","hitId":"3Z3R5YC0P3915KVY8X6BNRIWSQNFTT","url":"https://gershmanlab.com/experiments/alicia/teaching/experiment/?hitId=3Z3R5YC0P3915KVY8X6BNRIWSQNFTT&workerId=A2MUCL20GTQJA0&assignmentId=3LYA37P8IR9EB4RP0OBPST02T47KB5&a=83YL9&tp_a=83YL9&b=3LYA37P8IR9EB4RP0OBPST02T47KB5&tp_b=3LYA37P8IR9EB4RP0OBPST02T47KB5&c=365799&tp_c=365799"},{"rt":113692,"response":{"Q0":"Students in different classrooms will have seen a different number of heads and tails before seeing the examples you select for them.","Q1":"By <b>considering the student's classroom information</b> so that I can teach efficiently and accurately/helpfully at the same time (because each example I give to the student costs money!).","Q2":"The coin lands heads 90% of the time.","Q3":"Yes, I might encounter the same student twice.","Q4":"The students are also on the same alien planet as you, where coins can be unfair.","Q5":"Based on both guesses."},"question_order":[5,3,1,0,2,4],"trial_type":"survey-multi-choice","trial_index":9,"time_elapsed":436776,"internal_node_id":"0.0-2.2-1.2","params":{"nStudents":24,"maxFlips":30,"completionMinutes":45,"basePay":8,"maxBonus":9,"perTrialBonus":0.5,"perTrialBonusThreshold":0.05,"exampleCost":0.01},"classroomParams":{"A":{"a":1,"b":4},"B":{"a":4,"b":1},"C":{"a":2,"b":8},"D":{"a":8,"b":2}},"conditions":["nonSeqFull","nonSeqPartial","seqNoFeedback","seqFeedback"],"classroomPairings":[["A","B"],["C","D"]],"coinWeights":[0.2,0.5,0.8],"subjectId":"A2MUCL20GTQJA0","assignmentId":"3LYA37P8IR9EB4RP0OBPST02T47KB5","hitId":"3Z3R5YC0P3915KVY8X6BNRIWSQNFTT","url":"https://gershmanlab.com/experiments/alicia/teaching/experiment/?hitId=3Z3R5YC0P3915KVY8X6BNRIWSQNFTT&workerId=A2MUCL20GTQJA0&assignmentId=3LYA37P8IR9EB4RP0OBPST02T47KB5&a=83YL9&tp_a=83YL9&b=3LYA37P8IR9EB4RP0OBPST02T47KB5&tp_b=3LYA37P8IR9EB4RP0OBPST02T47KB5&c=365799&tp_c=365799","pass":false},{"rt":1208,"stimulus":"Oops, you have missed question(s) on the comprehension check! We'll show you the instructions again.","response":0,"trial_type":"html-button-response","trial_index":10,"time_elapsed":437986,"internal_node_id":"0.0-2.2-2.2-0.2","params":{"nStudents":24,"maxFlips":30,"completionMinutes":45,"basePay":8,"maxBonus":9,"perTrialBonus":0.5,"perTrialBonusThreshold":0.05,"exampleCost":0.01},"classroomParams":{"A":{"a":1,"b":4},"B":{"a":4,"b":1},"C":{"a":2,"b":8},"D":{"a":8,"b":2}},"conditions":["nonSeqFull","nonSeqPartial","seqNoFeedback","seqFeedback"],"classroomPairings":[["A","B"],["C","D"]],"coinWeights":[0.2,0.5,0.8],"subjectId":"A2MUCL20GTQJA0","assignmentId":"3LYA37P8IR9EB4RP0OBPST02T47KB5","hitId":"3Z3R5YC0P3915KVY8X6BNRIWSQNFTT","url":"https://gershmanlab.com/experiments/alicia/teaching/experiment/?hitId=3Z3R5YC0P3915KVY8X6BNRIWSQNFTT&workerId=A2MUCL20GTQJA0&assignmentId=3LYA37P8IR9EB4RP0OBPST02T47KB5&a=83YL9&tp_a=83YL9&b=3LYA37P8IR9EB4RP0OBPST02T47KB5&tp_b=3LYA37P8IR9EB4RP0OBPST02T47KB5&c=365799&tp_c=365799"},{"view_history":[{"page_index":0,"viewing_time":1676},{"page_index":1,"viewing_time":131},{"page_index":2,"viewing_time":773},{"page_index":3,"viewing_time":357},{"page_index":4,"viewing_time":591},{"page_index":5,"viewing_time":583},{"page_index":6,"viewing_time":850}],"rt":4961,"trial_type":"instructions","trial_index":11,"time_elapsed":442948,"internal_node_id":"0.0-2.3-0.3","params":{"nStudents":24,"maxFlips":30,"completionMinutes":45,"basePay":8,"maxBonus":9,"perTrialBonus":0.5,"perTrialBonusThreshold":0.05,"exampleCost":0.01},"classroomParams":{"A":{"a":1,"b":4},"B":{"a":4,"b":1},"C":{"a":2,"b":8},"D":{"a":8,"b":2}},"conditions":["nonSeqFull","nonSeqPartial","seqNoFeedback","seqFeedback"],"classroomPairings":[["A","B"],["C","D"]],"coinWeights":[0.2,0.5,0.8],"subjectId":"A2MUCL20GTQJA0","assignmentId":"3LYA37P8IR9EB4RP0OBPST02T47KB5","hitId":"3Z3R5YC0P3915KVY8X6BNRIWSQNFTT","url":"https://gershmanlab.com/experiments/alicia/teaching/experiment/?hitId=3Z3R5YC0P3915KVY8X6BNRIWSQNFTT&workerId=A2MUCL20GTQJA0&assignmentId=3LYA37P8IR9EB4RP0OBPST02T47KB5&a=83YL9&tp_a=83YL9&b=3LYA37P8IR9EB4RP0OBPST02T47KB5&tp_b=3LYA37P8IR9EB4RP0OBPST02T47KB5&c=365799&tp_c=365799"},{"rt":26206,"response":{"Q0":"Students in different classrooms have seen a different proportion of fair and unfair coins before seeing the examples you select for them.","Q1":"By <b>considering the student's classroom information</b> so that I can teach efficiently and accurately/helpfully at the same time (because each example I give to the student costs money!).","Q2":"The coin lands heads 90% of the time.","Q3":"Yes, I might encounter the same student twice.","Q4":"The students are also on the same alien planet as you, where coins can be unfair.","Q5":"Based on both guesses."},"question_order":[2,4,5,0,1,3],"trial_type":"survey-multi-choice","trial_index":12,"time_elapsed":469155,"internal_node_id":"0.0-2.3-1.3","params":{"nStudents":24,"maxFlips":30,"completionMinutes":45,"basePay":8,"maxBonus":9,"perTrialBonus":0.5,"perTrialBonusThreshold":0.05,"exampleCost":0.01},"classroomParams":{"A":{"a":1,"b":4},"B":{"a":4,"b":1},"C":{"a":2,"b":8},"D":{"a":8,"b":2}},"conditions":["nonSeqFull","nonSeqPartial","seqNoFeedback","seqFeedback"],"classroomPairings":[["A","B"],["C","D"]],"coinWeights":[0.2,0.5,0.8],"subjectId":"A2MUCL20GTQJA0","assignmentId":"3LYA37P8IR9EB4RP0OBPST02T47KB5","hitId":"3Z3R5YC0P3915KVY8X6BNRIWSQNFTT","url":"https://gershmanlab.com/experiments/alicia/teaching/experiment/?hitId=3Z3R5YC0P3915KVY8X6BNRIWSQNFTT&workerId=A2MUCL20GTQJA0&assignmentId=3LYA37P8IR9EB4RP0OBPST02T47KB5&a=83YL9&tp_a=83YL9&b=3LYA37P8IR9EB4RP0OBPST02T47KB5&tp_b=3LYA37P8IR9EB4RP0OBPST02T47KB5&c=365799&tp_c=365799","pass":false},{"rt":2948,"stimulus":"Oops, you have missed question(s) on the comprehension check! We'll show you the instructions again.","response":0,"trial_type":"html-button-response","trial_index":13,"time_elapsed":472105,"internal_node_id":"0.0-2.3-2.3-0.3","params":{"nStudents":24,"maxFlips":30,"completionMinutes":45,"basePay":8,"maxBonus":9,"perTrialBonus":0.5,"perTrialBonusThreshold":0.05,"exampleCost":0.01},"classroomParams":{"A":{"a":1,"b":4},"B":{"a":4,"b":1},"C":{"a":2,"b":8},"D":{"a":8,"b":2}},"conditions":["nonSeqFull","nonSeqPartial","seqNoFeedback","seqFeedback"],"classroomPairings":[["A","B"],["C","D"]],"coinWeights":[0.2,0.5,0.8],"subjectId":"A2MUCL20GTQJA0","assignmentId":"3LYA37P8IR9EB4RP0OBPST02T47KB5","hitId":"3Z3R5YC0P3915KVY8X6BNRIWSQNFTT","url":"https://gershmanlab.com/experiments/alicia/teaching/experiment/?hitId=3Z3R5YC0P3915KVY8X6BNRIWSQNFTT&workerId=A2MUCL20GTQJA0&assignmentId=3LYA37P8IR9EB4RP0OBPST02T47KB5&a=83YL9&tp_a=83YL9&b=3LYA37P8IR9EB4RP0OBPST02T47KB5&tp_b=3LYA37P8IR9EB4RP0OBPST02T47KB5&c=365799&tp_c=365799"},{"view_history":[{"page_index":0,"viewing_time":1894},{"page_index":1,"viewing_time":8705},{"page_index":2,"viewing_time":15418},{"page_index":3,"viewing_time":14108},{"page_index":4,"viewing_time":13649},{"page_index":5,"viewing_time":23106},{"page_index":6,"viewing_time":21909}],"rt":98790,"trial_type":"instructions","trial_index":14,"time_elapsed":570896,"internal_node_id":"0.0-2.4-0.4","params":{"nStudents":24,"maxFlips":30,"completionMinutes":45,"basePay":8,"maxBonus":9,"perTrialBonus":0.5,"perTrialBonusThreshold":0.05,"exampleCost":0.01},"classroomParams":{"A":{"a":1,"b":4},"B":{"a":4,"b":1},"C":{"a":2,"b":8},"D":{"a":8,"b":2}},"conditions":["nonSeqFull","nonSeqPartial","seqNoFeedback","seqFeedback"],"classroomPairings":[["A","B"],["C","D"]],"coinWeights":[0.2,0.5,0.8],"subjectId":"A2MUCL20GTQJA0","assignmentId":"3LYA37P8IR9EB4RP0OBPST02T47KB5","hitId":"3Z3R5YC0P3915KVY8X6BNRIWSQNFTT","url":"https://gershmanlab.com/experiments/alicia/teaching/experiment/?hitId=3Z3R5YC0P3915KVY8X6BNRIWSQNFTT&workerId=A2MUCL20GTQJA0&assignmentId=3LYA37P8IR9EB4RP0OBPST02T47KB5&a=83YL9&tp_a=83YL9&b=3LYA37P8IR9EB4RP0OBPST02T47KB5&tp_b=3LYA37P8IR9EB4RP0OBPST02T47KB5&c=365799&tp_c=365799"},{"rt":27561,"response":{"Q0":"Students in different classrooms will have seen a different number of heads and tails before seeing the examples you select for them.","Q1":"By <b>considering the student's classroom information</b> so that I can teach efficiently and accurately/helpfully at the same time (because each example I give to the student costs money!).","Q2":"The coin lands heads 90% of the time.","Q3":"Yes, I might encounter the same student twice.","Q4":"The students are also on the same alien planet as you, where coins can be unfair.","Q5":"Based on the student's second (and final) guess."},"question_order":[5,2,3,4,1,0],"trial_type":"survey-multi-choice","trial_index":15,"time_elapsed":598458,"internal_node_id":"0.0-2.4-1.4","params":{"nStudents":24,"maxFlips":30,"completionMinutes":45,"basePay":8,"maxBonus":9,"perTrialBonus":0.5,"perTrialBonusThreshold":0.05,"exampleCost":0.01},"classroomParams":{"A":{"a":1,"b":4},"B":{"a":4,"b":1},"C":{"a":2,"b":8},"D":{"a":8,"b":2}},"conditions":["nonSeqFull","nonSeqPartial","seqNoFeedback","seqFeedback"],"classroomPairings":[["A","B"],["C","D"]],"coinWeights":[0.2,0.5,0.8],"subjectId":"A2MUCL20GTQJA0","assignmentId":"3LYA37P8IR9EB4RP0OBPST02T47KB5","hitId":"3Z3R5YC0P3915KVY8X6BNRIWSQNFTT","url":"https://gershmanlab.com/experiments/alicia/teaching/experiment/?hitId=3Z3R5YC0P3915KVY8X6BNRIWSQNFTT&workerId=A2MUCL20GTQJA0&assignmentId=3LYA37P8IR9EB4RP0OBPST02T47KB5&a=83YL9&tp_a=83YL9&b=3LYA37P8IR9EB4RP0OBPST02T47KB5&tp_b=3LYA37P8IR9EB4RP0OBPST02T47KB5&c=365799&tp_c=365799","pass":false},{"rt":1206,"stimulus":"Oops, you have missed question(s) on the comprehension check! We'll show you the instructions again.","response":0,"trial_type":"html-button-response","trial_index":16,"time_elapsed":599666,"internal_node_id":"0.0-2.4-2.4-0.4","params":{"nStudents":24,"maxFlips":30,"completionMinutes":45,"basePay":8,"maxBonus":9,"perTrialBonus":0.5,"perTrialBonusThreshold":0.05,"exampleCost":0.01},"classroomParams":{"A":{"a":1,"b":4},"B":{"a":4,"b":1},"C":{"a":2,"b":8},"D":{"a":8,"b":2}},"conditions":["nonSeqFull","nonSeqPartial","seqNoFeedback","seqFeedback"],"classroomPairings":[["A","B"],["C","D"]],"coinWeights":[0.2,0.5,0.8],"subjectId":"A2MUCL20GTQJA0","assignmentId":"3LYA37P8IR9EB4RP0OBPST02T47KB5","hitId":"3Z3R5YC0P3915KVY8X6BNRIWSQNFTT","url":"https://gershmanlab.com/experiments/alicia/teaching/experiment/?hitId=3Z3R5YC0P3915KVY8X6BNRIWSQNFTT&workerId=A2MUCL20GTQJA0&assignmentId=3LYA37P8IR9EB4RP0OBPST02T47KB5&a=83YL9&tp_a=83YL9&b=3LYA37P8IR9EB4RP0OBPST02T47KB5&tp_b=3LYA37P8IR9EB4RP0OBPST02T47KB5&c=365799&tp_c=365799"},{"view_history":[{"page_index":0,"viewing_time":1000},{"page_index":1,"viewing_time":140},{"page_index":2,"viewing_time":999},{"page_index":3,"viewing_time":152},{"page_index":4,"viewing_time":739},{"page_index":5,"viewing_time":626},{"page_index":6,"viewing_time":669}],"rt":4325,"trial_type":"instructions","trial_index":17,"time_elapsed":603991,"internal_node_id":"0.0-2.5-0.5","params":{"nStudents":24,"maxFlips":30,"completionMinutes":45,"basePay":8,"maxBonus":9,"perTrialBonus":0.5,"perTrialBonusThreshold":0.05,"exampleCost":0.01},"classroomParams":{"A":{"a":1,"b":4},"B":{"a":4,"b":1},"C":{"a":2,"b":8},"D":{"a":8,"b":2}},"conditions":["nonSeqFull","nonSeqPartial","seqNoFeedback","seqFeedback"],"classroomPairings":[["A","B"],["C","D"]],"coinWeights":[0.2,0.5,0.8],"subjectId":"A2MUCL20GTQJA0","assignmentId":"3LYA37P8IR9EB4RP0OBPST02T47KB5","hitId":"3Z3R5YC0P3915KVY8X6BNRIWSQNFTT","url":"https://gershmanlab.com/experiments/alicia/teaching/experiment/?hitId=3Z3R5YC0P3915KVY8X6BNRIWSQNFTT&workerId=A2MUCL20GTQJA0&assignmentId=3LYA37P8IR9EB4RP0OBPST02T47KB5&a=83YL9&tp_a=83YL9&b=3LYA37P8IR9EB4RP0OBPST02T47KB5&tp_b=3LYA37P8IR9EB4RP0OBPST02T47KB5&c=365799&tp_c=365799"},{"rt":20273,"response":{"Q0":"Students in different classrooms have seen a different proportion of fair and unfair coins before seeing the examples you select for them.","Q1":"By <b>considering the student's classroom information</b> so that I can teach efficiently and accurately/helpfully at the same time (because each example I give to the student costs money!).","Q2":"The coin lands heads 90% of the time.","Q3":"Yes, I might encounter the same student twice.","Q4":"The students are also on the same alien planet as you, where coins can be unfair.","Q5":"Based on the student's second (and final) guess."},"question_order":[3,1,0,4,2,5],"trial_type":"survey-multi-choice","trial_index":18,"time_elapsed":624265,"internal_node_id":"0.0-2.5-1.5","params":{"nStudents":24,"maxFlips":30,"completionMinutes":45,"basePay":8,"maxBonus":9,"perTrialBonus":0.5,"perTrialBonusThreshold":0.05,"exampleCost":0.01},"classroomParams":{"A":{"a":1,"b":4},"B":{"a":4,"b":1},"C":{"a":2,"b":8},"D":{"a":8,"b":2}},"conditions":["nonSeqFull","nonSeqPartial","seqNoFeedback","seqFeedback"],"classroomPairings":[["A","B"],["C","D"]],"coinWeights":[0.2,0.5,0.8],"subjectId":"A2MUCL20GTQJA0","assignmentId":"3LYA37P8IR9EB4RP0OBPST02T47KB5","hitId":"3Z3R5YC0P3915KVY8X6BNRIWSQNFTT","url":"https://gershmanlab.com/experiments/alicia/teaching/experiment/?hitId=3Z3R5YC0P3915KVY8X6BNRIWSQNFTT&workerId=A2MUCL20GTQJA0&assignmentId=3LYA37P8IR9EB4RP0OBPST02T47KB5&a=83YL9&tp_a=83YL9&b=3LYA37P8IR9EB4RP0OBPST02T47KB5&tp_b=3LYA37P8IR9EB4RP0OBPST02T47KB5&c=365799&tp_c=365799","pass":false},{"rt":2008,"stimulus":"Oops, you have missed question(s) on the comprehension check! We'll show you the instructions again.","response":0,"trial_type":"html-button-response","trial_index":19,"time_elapsed":626275,"internal_node_id":"0.0-2.5-2.5-0.5","params":{"nStudents":24,"maxFlips":30,"completionMinutes":45,"basePay":8,"maxBonus":9,"perTrialBonus":0.5,"perTrialBonusThreshold":0.05,"exampleCost":0.01},"classroomParams":{"A":{"a":1,"b":4},"B":{"a":4,"b":1},"C":{"a":2,"b":8},"D":{"a":8,"b":2}},"conditions":["nonSeqFull","nonSeqPartial","seqNoFeedback","seqFeedback"],"classroomPairings":[["A","B"],["C","D"]],"coinWeights":[0.2,0.5,0.8],"subjectId":"A2MUCL20GTQJA0","assignmentId":"3LYA37P8IR9EB4RP0OBPST02T47KB5","hitId":"3Z3R5YC0P3915KVY8X6BNRIWSQNFTT","url":"https://gershmanlab.com/experiments/alicia/teaching/experiment/?hitId=3Z3R5YC0P3915KVY8X6BNRIWSQNFTT&workerId=A2MUCL20GTQJA0&assignmentId=3LYA37P8IR9EB4RP0OBPST02T47KB5&a=83YL9&tp_a=83YL9&b=3LYA37P8IR9EB4RP0OBPST02T47KB5&tp_b=3LYA37P8IR9EB4RP0OBPST02T47KB5&c=365799&tp_c=365799"},{"view_history":[{"page_index":0,"viewing_time":846},{"page_index":1,"viewing_time":176},{"page_index":2,"viewing_time":748},{"page_index":3,"viewing_time":165},{"page_index":4,"viewing_time":716},{"page_index":5,"viewing_time":525},{"page_index":6,"viewing_time":729}],"rt":3906,"trial_type":"instructions","trial_index":20,"time_elapsed":630181,"internal_node_id":"0.0-2.6-0.6","params":{"nStudents":24,"maxFlips":30,"completionMinutes":45,"basePay":8,"maxBonus":9,"perTrialBonus":0.5,"perTrialBonusThreshold":0.05,"exampleCost":0.01},"classroomParams":{"A":{"a":1,"b":4},"B":{"a":4,"b":1},"C":{"a":2,"b":8},"D":{"a":8,"b":2}},"conditions":["nonSeqFull","nonSeqPartial","seqNoFeedback","seqFeedback"],"classroomPairings":[["A","B"],["C","D"]],"coinWeights":[0.2,0.5,0.8],"subjectId":"A2MUCL20GTQJA0","assignmentId":"3LYA37P8IR9EB4RP0OBPST02T47KB5","hitId":"3Z3R5YC0P3915KVY8X6BNRIWSQNFTT","url":"https://gershmanlab.com/experiments/alicia/teaching/experiment/?hitId=3Z3R5YC0P3915KVY8X6BNRIWSQNFTT&workerId=A2MUCL20GTQJA0&assignmentId=3LYA37P8IR9EB4RP0OBPST02T47KB5&a=83YL9&tp_a=83YL9&b=3LYA37P8IR9EB4RP0OBPST02T47KB5&tp_b=3LYA37P8IR9EB4RP0OBPST02T47KB5&c=365799&tp_c=365799"},{"rt":70706,"response":{"Q0":"Students in different classrooms will have seen a different number of heads and tails before seeing the examples you select for them.","Q1":"By <b>considering the student's classroom information</b> so that I can teach efficiently and accurately/helpfully at the same time (because each example I give to the student costs money!).","Q2":"The coin lands heads 90% of the time.","Q3":"No, I will teach a <b>new</b> student each time.","Q4":"The students are also on the same alien planet as you, where coins can be unfair.","Q5":"Based on the student's second (and final) guess."},"question_order":[2,1,0,3,5,4],"trial_type":"survey-multi-choice","trial_index":21,"time_elapsed":700888,"internal_node_id":"0.0-2.6-1.6","params":{"nStudents":24,"maxFlips":30,"completionMinutes":45,"basePay":8,"maxBonus":9,"perTrialBonus":0.5,"perTrialBonusThreshold":0.05,"exampleCost":0.01},"classroomParams":{"A":{"a":1,"b":4},"B":{"a":4,"b":1},"C":{"a":2,"b":8},"D":{"a":8,"b":2}},"conditions":["nonSeqFull","nonSeqPartial","seqNoFeedback","seqFeedback"],"classroomPairings":[["A","B"],["C","D"]],"coinWeights":[0.2,0.5,0.8],"subjectId":"A2MUCL20GTQJA0","assignmentId":"3LYA37P8IR9EB4RP0OBPST02T47KB5","hitId":"3Z3R5YC0P3915KVY8X6BNRIWSQNFTT","url":"https://gershmanlab.com/experiments/alicia/teaching/experiment/?hitId=3Z3R5YC0P3915KVY8X6BNRIWSQNFTT&workerId=A2MUCL20GTQJA0&assignmentId=3LYA37P8IR9EB4RP0OBPST02T47KB5&a=83YL9&tp_a=83YL9&b=3LYA37P8IR9EB4RP0OBPST02T47KB5&tp_b=3LYA37P8IR9EB4RP0OBPST02T47KB5&c=365799&tp_c=365799","pass":true},{"rt":null,"stimulus":"<div style=\"font-size:30px;\">Congrats on passing the comprehension quiz! The experiment will begin in a few seconds.</div>","response":null,"trial_type":"html-keyboard-response","trial_index":22,"time_elapsed":704235,"internal_node_id":"0.0-3.0","params":{"nStudents":24,"maxFlips":30,"completionMinutes":45,"basePay":8,"maxBonus":9,"perTrialBonus":0.5,"perTrialBonusThreshold":0.05,"exampleCost":0.01},"classroomParams":{"A":{"a":1,"b":4},"B":{"a":4,"b":1},"C":{"a":2,"b":8},"D":{"a":8,"b":2}},"conditions":["nonSeqFull","nonSeqPartial","seqNoFeedback","seqFeedback"],"classroomPairings":[["A","B"],["C","D"]],"coinWeights":[0.2,0.5,0.8],"subjectId":"A2MUCL20GTQJA0","assignmentId":"3LYA37P8IR9EB4RP0OBPST02T47KB5","hitId":"3Z3R5YC0P3915KVY8X6BNRIWSQNFTT","url":"https://gershmanlab.com/experiments/alicia/teaching/experiment/?hitId=3Z3R5YC0P3915KVY8X6BNRIWSQNFTT&workerId=A2MUCL20GTQJA0&assignmentId=3LYA37P8IR9EB4RP0OBPST02T47KB5&a=83YL9&tp_a=83YL9&b=3LYA37P8IR9EB4RP0OBPST02T47KB5&tp_b=3LYA37P8IR9EB4RP0OBPST02T47KB5&c=365799&tp_c=365799"},{"rt":null,"stimulus":"<div style=\"font-size:50px;\">First student</div>","response":null,"trial_type":"html-keyboard-response","trial_index":23,"time_elapsed":707935,"internal_node_id":"0.0-4.0","params":{"nStudents":24,"maxFlips":30,"completionMinutes":45,"basePay":8,"maxBonus":9,"perTrialBonus":0.5,"perTrialBonusThreshold":0.05,"exampleCost":0.01},"classroomParams":{"A":{"a":1,"b":4},"B":{"a":4,"b":1},"C":{"a":2,"b":8},"D":{"a":8,"b":2}},"conditions":["nonSeqFull","nonSeqPartial","seqNoFeedback","seqFeedback"],"classroomPairings":[["A","B"],["C","D"]],"coinWeights":[0.2,0.5,0.8],"subjectId":"A2MUCL20GTQJA0","assignmentId":"3LYA37P8IR9EB4RP0OBPST02T47KB5","hitId":"3Z3R5YC0P3915KVY8X6BNRIWSQNFTT","url":"https://gershmanlab.com/experiments/alicia/teaching/experiment/?hitId=3Z3R5YC0P3915KVY8X6BNRIWSQNFTT&workerId=A2MUCL20GTQJA0&assignmentId=3LYA37P8IR9EB4RP0OBPST02T47KB5&a=83YL9&tp_a=83YL9&b=3LYA37P8IR9EB4RP0OBPST02T47KB5&tp_b=3LYA37P8IR9EB4RP0OBPST02T47KB5&c=365799&tp_c=365799"},{"rt":4084,"stimulus":"\n            <h4 style=\"color:Orange;\">Student 1</h4>\n            <h2>The weight of your coin is <b style=\"color:Tomato;\">0.5</b>.</h2>\n            <p>In this block, you will be giving <b>two</b> sets of examples to Student 1.</p>\n                <p>You will receive feedback at the end of the block.</p>\n            <p></p>","response":0,"trial_type":"html-button-response","trial_index":24,"time_elapsed":712021,"internal_node_id":"0.0-5.0","params":{"nStudents":24,"maxFlips":30,"completionMinutes":45,"basePay":8,"maxBonus":9,"perTrialBonus":0.5,"perTrialBonusThreshold":0.05,"exampleCost":0.01},"classroomParams":{"A":{"a":1,"b":4},"B":{"a":4,"b":1},"C":{"a":2,"b":8},"D":{"a":8,"b":2}},"conditions":["nonSeqFull","nonSeqPartial","seqNoFeedback","seqFeedback"],"classroomPairings":[["A","B"],["C","D"]],"coinWeights":[0.2,0.5,0.8],"subjectId":"A2MUCL20GTQJA0","assignmentId":"3LYA37P8IR9EB4RP0OBPST02T47KB5","hitId":"3Z3R5YC0P3915KVY8X6BNRIWSQNFTT","url":"https://gershmanlab.com/experiments/alicia/teaching/experiment/?hitId=3Z3R5YC0P3915KVY8X6BNRIWSQNFTT&workerId=A2MUCL20GTQJA0&assignmentId=3LYA37P8IR9EB4RP0OBPST02T47KB5&a=83YL9&tp_a=83YL9&b=3LYA37P8IR9EB4RP0OBPST02T47KB5&tp_b=3LYA37P8IR9EB4RP0OBPST02T47KB5&c=365799&tp_c=365799"},{"rt":18182,"response":{"heads":"5","tails":"3"},"type":"response","condition":"seqNoFeedback","trueTheta":0.5,"classrooms":["A","B"],"studentTrueClassroom":"B","exampleSet":"first","trial_type":"survey-html-form","trial_index":25,"time_elapsed":730203,"internal_node_id":"0.0-6.0-0.0","params":{"nStudents":24,"maxFlips":30,"completionMinutes":45,"basePay":8,"maxBonus":9,"perTrialBonus":0.5,"perTrialBonusThreshold":0.05,"exampleCost":0.01},"classroomParams":{"A":{"a":1,"b":4},"B":{"a":4,"b":1},"C":{"a":2,"b":8},"D":{"a":8,"b":2}},"conditions":["nonSeqFull","nonSeqPartial","seqNoFeedback","seqFeedback"],"classroomPairings":[["A","B"],["C","D"]],"coinWeights":[0.2,0.5,0.8],"subjectId":"A2MUCL20GTQJA0","assignmentId":"3LYA37P8IR9EB4RP0OBPST02T47KB5","hitId":"3Z3R5YC0P3915KVY8X6BNRIWSQNFTT","url":"https://gershmanlab.com/experiments/alicia/teaching/experiment/?hitId=3Z3R5YC0P3915KVY8X6BNRIWSQNFTT&workerId=A2MUCL20GTQJA0&assignmentId=3LYA37P8IR9EB4RP0OBPST02T47KB5&a=83YL9&tp_a=83YL9&b=3LYA37P8IR9EB4RP0OBPST02T47KB5&tp_b=3LYA37P8IR9EB4RP0OBPST02T47KB5&c=365799&tp_c=365799","heads":5,"tails":3,"studentIndex":0,"studentTrueHypers":{"a":4,"b":1},"studentGuess":0.6923076923076923,"delta":0.1923076923076923,"totalExamples":8,"bonusSoFar":0},{"rt":null,"stimulus":"Sending examples to student... ","response":null,"trial_type":"html-keyboard-response","trial_index":26,"time_elapsed":731957,"internal_node_id":"0.0-7.0","params":{"nStudents":24,"maxFlips":30,"completionMinutes":45,"basePay":8,"maxBonus":9,"perTrialBonus":0.5,"perTrialBonusThreshold":0.05,"exampleCost":0.01},"classroomParams":{"A":{"a":1,"b":4},"B":{"a":4,"b":1},"C":{"a":2,"b":8},"D":{"a":8,"b":2}},"conditions":["nonSeqFull","nonSeqPartial","seqNoFeedback","seqFeedback"],"classroomPairings":[["A","B"],["C","D"]],"coinWeights":[0.2,0.5,0.8],"subjectId":"A2MUCL20GTQJA0","assignmentId":"3LYA37P8IR9EB4RP0OBPST02T47KB5","hitId":"3Z3R5YC0P3915KVY8X6BNRIWSQNFTT","url":"https://gershmanlab.com/experiments/alicia/teaching/experiment/?hitId=3Z3R5YC0P3915KVY8X6BNRIWSQNFTT&workerId=A2MUCL20GTQJA0&assignmentId=3LYA37P8IR9EB4RP0OBPST02T47KB5&a=83YL9&tp_a=83YL9&b=3LYA37P8IR9EB4RP0OBPST02T47KB5&tp_b=3LYA37P8IR9EB4RP0OBPST02T47KB5&c=365799&tp_c=365799"},{"rt":null,"stimulus":"Examples sent to student! Waiting for student...","response":null,"trial_type":"html-keyboard-response","trial_index":27,"time_elapsed":736972,"internal_node_id":"0.0-8.0","params":{"nStudents":24,"maxFlips":30,"completionMinutes":45,"basePay":8,"maxBonus":9,"perTrialBonus":0.5,"perTrialBonusThreshold":0.05,"exampleCost":0.01},"classroomParams":{"A":{"a":1,"b":4},"B":{"a":4,"b":1},"C":{"a":2,"b":8},"D":{"a":8,"b":2}},"conditions":["nonSeqFull","nonSeqPartial","seqNoFeedback","seqFeedback"],"classroomPairings":[["A","B"],["C","D"]],"coinWeights":[0.2,0.5,0.8],"subjectId":"A2MUCL20GTQJA0","assignmentId":"3LYA37P8IR9EB4RP0OBPST02T47KB5","hitId":"3Z3R5YC0P3915KVY8X6BNRIWSQNFTT","url":"https://gershmanlab.com/experiments/alicia/teaching/experiment/?hitId=3Z3R5YC0P3915KVY8X6BNRIWSQNFTT&workerId=A2MUCL20GTQJA0&assignmentId=3LYA37P8IR9EB4RP0OBPST02T47KB5&a=83YL9&tp_a=83YL9&b=3LYA37P8IR9EB4RP0OBPST02T47KB5&tp_b=3LYA37P8IR9EB4RP0OBPST02T47KB5&c=365799&tp_c=365799"},{"rt":17134,"response":{"heads":"10","tails":"8"},"type":"response","condition":"seqNoFeedback","trueTheta":0.5,"classrooms":["A","B"],"studentTrueClassroom":"B","exampleSet":"second","trial_type":"survey-html-form","trial_index":28,"time_elapsed":754107,"internal_node_id":"0.0-9.0-0.0","params":{"nStudents":24,"maxFlips":30,"completionMinutes":45,"basePay":8,"maxBonus":9,"perTrialBonus":0.5,"perTrialBonusThreshold":0.05,"exampleCost":0.01},"classroomParams":{"A":{"a":1,"b":4},"B":{"a":4,"b":1},"C":{"a":2,"b":8},"D":{"a":8,"b":2}},"conditions":["nonSeqFull","nonSeqPartial","seqNoFeedback","seqFeedback"],"classroomPairings":[["A","B"],["C","D"]],"coinWeights":[0.2,0.5,0.8],"subjectId":"A2MUCL20GTQJA0","assignmentId":"3LYA37P8IR9EB4RP0OBPST02T47KB5","hitId":"3Z3R5YC0P3915KVY8X6BNRIWSQNFTT","url":"https://gershmanlab.com/experiments/alicia/teaching/experiment/?hitId=3Z3R5YC0P3915KVY8X6BNRIWSQNFTT&workerId=A2MUCL20GTQJA0&assignmentId=3LYA37P8IR9EB4RP0OBPST02T47KB5&a=83YL9&tp_a=83YL9&b=3LYA37P8IR9EB4RP0OBPST02T47KB5&tp_b=3LYA37P8IR9EB4RP0OBPST02T47KB5&c=365799&tp_c=365799","firstResponseHeads":5,"firstResponseTails":3,"secondResponseHeads":10,"secondResponseTails":8,"totalHeads":15,"totalTails":11,"studentIndex":0,"studentTrueHypers":{"a":4,"b":1},"studentGuess":0.6129032258064516,"delta":0.11290322580645162,"bonus":0,"bonusSoFar":0,"totalExamples":26},{"rt":null,"stimulus":"Sending examples to student... ","response":null,"trial_type":"html-keyboard-response","trial_index":29,"time_elapsed":755614,"internal_node_id":"0.0-10.0","params":{"nStudents":24,"maxFlips":30,"completionMinutes":45,"basePay":8,"maxBonus":9,"perTrialBonus":0.5,"perTrialBonusThreshold":0.05,"exampleCost":0.01},"classroomParams":{"A":{"a":1,"b":4},"B":{"a":4,"b":1},"C":{"a":2,"b":8},"D":{"a":8,"b":2}},"conditions":["nonSeqFull","nonSeqPartial","seqNoFeedback","seqFeedback"],"classroomPairings":[["A","B"],["C","D"]],"coinWeights":[0.2,0.5,0.8],"subjectId":"A2MUCL20GTQJA0","assignmentId":"3LYA37P8IR9EB4RP0OBPST02T47KB5","hitId":"3Z3R5YC0P3915KVY8X6BNRIWSQNFTT","url":"https://gershmanlab.com/experiments/alicia/teaching/experiment/?hitId=3Z3R5YC0P3915KVY8X6BNRIWSQNFTT&workerId=A2MUCL20GTQJA0&assignmentId=3LYA37P8IR9EB4RP0OBPST02T47KB5&a=83YL9&tp_a=83YL9&b=3LYA37P8IR9EB4RP0OBPST02T47KB5&tp_b=3LYA37P8IR9EB4RP0OBPST02T47KB5&c=365799&tp_c=365799"},{"rt":null,"stimulus":"Examples sent to student! Waiting for student...","response":null,"trial_type":"html-keyboard-response","trial_index":30,"time_elapsed":759616,"internal_node_id":"0.0-11.0","params":{"nStudents":24,"maxFlips":30,"completionMinutes":45,"basePay":8,"maxBonus":9,"perTrialBonus":0.5,"perTrialBonusThreshold":0.05,"exampleCost":0.01},"classroomParams":{"A":{"a":1,"b":4},"B":{"a":4,"b":1},"C":{"a":2,"b":8},"D":{"a":8,"b":2}},"conditions":["nonSeqFull","nonSeqPartial","seqNoFeedback","seqFeedback"],"classroomPairings":[["A","B"],["C","D"]],"coinWeights":[0.2,0.5,0.8],"subjectId":"A2MUCL20GTQJA0","assignmentId":"3LYA37P8IR9EB4RP0OBPST02T47KB5","hitId":"3Z3R5YC0P3915KVY8X6BNRIWSQNFTT","url":"https://gershmanlab.com/experiments/alicia/teaching/experiment/?hitId=3Z3R5YC0P3915KVY8X6BNRIWSQNFTT&workerId=A2MUCL20GTQJA0&assignmentId=3LYA37P8IR9EB4RP0OBPST02T47KB5&a=83YL9&tp_a=83YL9&b=3LYA37P8IR9EB4RP0OBPST02T47KB5&tp_b=3LYA37P8IR9EB4RP0OBPST02T47KB5&c=365799&tp_c=365799"},{"rt":7465,"stimulus":"\n                <p>Student 1's first guess for coin weight: <b style=\"color:Tomato\";>0.69</b></p>\n                <p>Student 1's second guess for coin weight: <b style=\"color:Tomato\";>0.61</b></p>\n                <p>You received a bonus of <b>$0.00</b> based on the student's second guess.</p>\n                <p>Total bonus so far: <b>$0.00</b></p>\n                <p>Press any key to continue.</p>\n                ","response":"enter","trial_type":"html-keyboard-response","trial_index":31,"time_elapsed":767082,"internal_node_id":"0.0-12.0","params":{"nStudents":24,"maxFlips":30,"completionMinutes":45,"basePay":8,"maxBonus":9,"perTrialBonus":0.5,"perTrialBonusThreshold":0.05,"exampleCost":0.01},"classroomParams":{"A":{"a":1,"b":4},"B":{"a":4,"b":1},"C":{"a":2,"b":8},"D":{"a":8,"b":2}},"conditions":["nonSeqFull","nonSeqPartial","seqNoFeedback","seqFeedback"],"classroomPairings":[["A","B"],["C","D"]],"coinWeights":[0.2,0.5,0.8],"subjectId":"A2MUCL20GTQJA0","assignmentId":"3LYA37P8IR9EB4RP0OBPST02T47KB5","hitId":"3Z3R5YC0P3915KVY8X6BNRIWSQNFTT","url":"https://gershmanlab.com/experiments/alicia/teaching/experiment/?hitId=3Z3R5YC0P3915KVY8X6BNRIWSQNFTT&workerId=A2MUCL20GTQJA0&assignmentId=3LYA37P8IR9EB4RP0OBPST02T47KB5&a=83YL9&tp_a=83YL9&b=3LYA37P8IR9EB4RP0OBPST02T47KB5&tp_b=3LYA37P8IR9EB4RP0OBPST02T47KB5&c=365799&tp_c=365799"},{"rt":null,"stimulus":"<div style=\"font-size:60px;\">Next student</div>","response":null,"trial_type":"html-keyboard-response","trial_index":32,"time_elapsed":769585,"internal_node_id":"0.0-13.0-0.0","params":{"nStudents":24,"maxFlips":30,"completionMinutes":45,"basePay":8,"maxBonus":9,"perTrialBonus":0.5,"perTrialBonusThreshold":0.05,"exampleCost":0.01},"classroomParams":{"A":{"a":1,"b":4},"B":{"a":4,"b":1},"C":{"a":2,"b":8},"D":{"a":8,"b":2}},"conditions":["nonSeqFull","nonSeqPartial","seqNoFeedback","seqFeedback"],"classroomPairings":[["A","B"],["C","D"]],"coinWeights":[0.2,0.5,0.8],"subjectId":"A2MUCL20GTQJA0","assignmentId":"3LYA37P8IR9EB4RP0OBPST02T47KB5","hitId":"3Z3R5YC0P3915KVY8X6BNRIWSQNFTT","url":"https://gershmanlab.com/experiments/alicia/teaching/experiment/?hitId=3Z3R5YC0P3915KVY8X6BNRIWSQNFTT&workerId=A2MUCL20GTQJA0&assignmentId=3LYA37P8IR9EB4RP0OBPST02T47KB5&a=83YL9&tp_a=83YL9&b=3LYA37P8IR9EB4RP0OBPST02T47KB5&tp_b=3LYA37P8IR9EB4RP0OBPST02T47KB5&c=365799&tp_c=365799"},{"rt":1679,"stimulus":"\n            <h4 style=\"color:Orange;\">Student 2</h4>\n            <h2>The weight of your coin is <b style=\"color:Tomato;\">0.5</b>.</h2>\n            <p>In this block, you will be giving <b>one</b> set of examples to Student 2.</p>\n                <p>You will receive feedback at the end of the block.</p>\n            <p></p>","response":0,"trial_type":"html-button-response","trial_index":33,"time_elapsed":771264,"internal_node_id":"0.0-14.0","params":{"nStudents":24,"maxFlips":30,"completionMinutes":45,"basePay":8,"maxBonus":9,"perTrialBonus":0.5,"perTrialBonusThreshold":0.05,"exampleCost":0.01},"classroomParams":{"A":{"a":1,"b":4},"B":{"a":4,"b":1},"C":{"a":2,"b":8},"D":{"a":8,"b":2}},"conditions":["nonSeqFull","nonSeqPartial","seqNoFeedback","seqFeedback"],"classroomPairings":[["A","B"],["C","D"]],"coinWeights":[0.2,0.5,0.8],"subjectId":"A2MUCL20GTQJA0","assignmentId":"3LYA37P8IR9EB4RP0OBPST02T47KB5","hitId":"3Z3R5YC0P3915KVY8X6BNRIWSQNFTT","url":"https://gershmanlab.com/experiments/alicia/teaching/experiment/?hitId=3Z3R5YC0P3915KVY8X6BNRIWSQNFTT&workerId=A2MUCL20GTQJA0&assignmentId=3LYA37P8IR9EB4RP0OBPST02T47KB5&a=83YL9&tp_a=83YL9&b=3LYA37P8IR9EB4RP0OBPST02T47KB5&tp_b=3LYA37P8IR9EB4RP0OBPST02T47KB5&c=365799&tp_c=365799"},{"rt":14153,"response":{"heads":"5","tails":"5"},"type":"response","condition":"nonSeqPartial","trueTheta":0.5,"classrooms":["A","B"],"studentTrueClassroom":"B","exampleSet":"first","trial_type":"survey-html-form","trial_index":34,"time_elapsed":785417,"internal_node_id":"0.0-15.0-0.0","params":{"nStudents":24,"maxFlips":30,"completionMinutes":45,"basePay":8,"maxBonus":9,"perTrialBonus":0.5,"perTrialBonusThreshold":0.05,"exampleCost":0.01},"classroomParams":{"A":{"a":1,"b":4},"B":{"a":4,"b":1},"C":{"a":2,"b":8},"D":{"a":8,"b":2}},"conditions":["nonSeqFull","nonSeqPartial","seqNoFeedback","seqFeedback"],"classroomPairings":[["A","B"],["C","D"]],"coinWeights":[0.2,0.5,0.8],"subjectId":"A2MUCL20GTQJA0","assignmentId":"3LYA37P8IR9EB4RP0OBPST02T47KB5","hitId":"3Z3R5YC0P3915KVY8X6BNRIWSQNFTT","url":"https://gershmanlab.com/experiments/alicia/teaching/experiment/?hitId=3Z3R5YC0P3915KVY8X6BNRIWSQNFTT&workerId=A2MUCL20GTQJA0&assignmentId=3LYA37P8IR9EB4RP0OBPST02T47KB5&a=83YL9&tp_a=83YL9&b=3LYA37P8IR9EB4RP0OBPST02T47KB5&tp_b=3LYA37P8IR9EB4RP0OBPST02T47KB5&c=365799&tp_c=365799","heads":5,"tails":5,"studentIndex":1,"studentTrueHypers":{"a":4,"b":1},"studentGuess":0.6,"delta":0.09999999999999998,"totalExamples":10,"bonus":0,"bonusSoFar":0},{"rt":null,"stimulus":"Sending examples to student... ","response":null,"trial_type":"html-keyboard-response","trial_index":35,"time_elapsed":786669,"internal_node_id":"0.0-16.0","params":{"nStudents":24,"maxFlips":30,"completionMinutes":45,"basePay":8,"maxBonus":9,"perTrialBonus":0.5,"perTrialBonusThreshold":0.05,"exampleCost":0.01},"classroomParams":{"A":{"a":1,"b":4},"B":{"a":4,"b":1},"C":{"a":2,"b":8},"D":{"a":8,"b":2}},"conditions":["nonSeqFull","nonSeqPartial","seqNoFeedback","seqFeedback"],"classroomPairings":[["A","B"],["C","D"]],"coinWeights":[0.2,0.5,0.8],"subjectId":"A2MUCL20GTQJA0","assignmentId":"3LYA37P8IR9EB4RP0OBPST02T47KB5","hitId":"3Z3R5YC0P3915KVY8X6BNRIWSQNFTT","url":"https://gershmanlab.com/experiments/alicia/teaching/experiment/?hitId=3Z3R5YC0P3915KVY8X6BNRIWSQNFTT&workerId=A2MUCL20GTQJA0&assignmentId=3LYA37P8IR9EB4RP0OBPST02T47KB5&a=83YL9&tp_a=83YL9&b=3LYA37P8IR9EB4RP0OBPST02T47KB5&tp_b=3LYA37P8IR9EB4RP0OBPST02T47KB5&c=365799&tp_c=365799"},{"rt":null,"stimulus":"Examples sent to student! Waiting for student...","response":null,"trial_type":"html-keyboard-response","trial_index":36,"time_elapsed":792182,"internal_node_id":"0.0-17.0","params":{"nStudents":24,"maxFlips":30,"completionMinutes":45,"basePay":8,"maxBonus":9,"perTrialBonus":0.5,"perTrialBonusThreshold":0.05,"exampleCost":0.01},"classroomParams":{"A":{"a":1,"b":4},"B":{"a":4,"b":1},"C":{"a":2,"b":8},"D":{"a":8,"b":2}},"conditions":["nonSeqFull","nonSeqPartial","seqNoFeedback","seqFeedback"],"classroomPairings":[["A","B"],["C","D"]],"coinWeights":[0.2,0.5,0.8],"subjectId":"A2MUCL20GTQJA0","assignmentId":"3LYA37P8IR9EB4RP0OBPST02T47KB5","hitId":"3Z3R5YC0P3915KVY8X6BNRIWSQNFTT","url":"https://gershmanlab.com/experiments/alicia/teaching/experiment/?hitId=3Z3R5YC0P3915KVY8X6BNRIWSQNFTT&workerId=A2MUCL20GTQJA0&assignmentId=3LYA37P8IR9EB4RP0OBPST02T47KB5&a=83YL9&tp_a=83YL9&b=3LYA37P8IR9EB4RP0OBPST02T47KB5&tp_b=3LYA37P8IR9EB4RP0OBPST02T47KB5&c=365799&tp_c=365799"},{"rt":4111,"stimulus":"\n                <p>Student's guess for coin weight: <b style=\"color:Tomato;\">0.60</b></p>\n                <p>You received a bonus of <b>$0</b>. Total bonus so far: <b>$0.00</b></b></p>\n                <p></p>\n                <p>Press any key to continue.</p>\n                ","response":"enter","trial_type":"html-keyboard-response","trial_index":37,"time_elapsed":796295,"internal_node_id":"0.0-18.0","params":{"nStudents":24,"maxFlips":30,"completionMinutes":45,"basePay":8,"maxBonus":9,"perTrialBonus":0.5,"perTrialBonusThreshold":0.05,"exampleCost":0.01},"classroomParams":{"A":{"a":1,"b":4},"B":{"a":4,"b":1},"C":{"a":2,"b":8},"D":{"a":8,"b":2}},"conditions":["nonSeqFull","nonSeqPartial","seqNoFeedback","seqFeedback"],"classroomPairings":[["A","B"],["C","D"]],"coinWeights":[0.2,0.5,0.8],"subjectId":"A2MUCL20GTQJA0","assignmentId":"3LYA37P8IR9EB4RP0OBPST02T47KB5","hitId":"3Z3R5YC0P3915KVY8X6BNRIWSQNFTT","url":"https://gershmanlab.com/experiments/alicia/teaching/experiment/?hitId=3Z3R5YC0P3915KVY8X6BNRIWSQNFTT&workerId=A2MUCL20GTQJA0&assignmentId=3LYA37P8IR9EB4RP0OBPST02T47KB5&a=83YL9&tp_a=83YL9&b=3LYA37P8IR9EB4RP0OBPST02T47KB5&tp_b=3LYA37P8IR9EB4RP0OBPST02T47KB5&c=365799&tp_c=365799"},{"rt":null,"stimulus":"<div style=\"font-size:60px;\">Next student</div>","response":null,"trial_type":"html-keyboard-response","trial_index":38,"time_elapsed":798557,"internal_node_id":"0.0-19.0-0.0","params":{"nStudents":24,"maxFlips":30,"completionMinutes":45,"basePay":8,"maxBonus":9,"perTrialBonus":0.5,"perTrialBonusThreshold":0.05,"exampleCost":0.01},"classroomParams":{"A":{"a":1,"b":4},"B":{"a":4,"b":1},"C":{"a":2,"b":8},"D":{"a":8,"b":2}},"conditions":["nonSeqFull","nonSeqPartial","seqNoFeedback","seqFeedback"],"classroomPairings":[["A","B"],["C","D"]],"coinWeights":[0.2,0.5,0.8],"subjectId":"A2MUCL20GTQJA0","assignmentId":"3LYA37P8IR9EB4RP0OBPST02T47KB5","hitId":"3Z3R5YC0P3915KVY8X6BNRIWSQNFTT","url":"https://gershmanlab.com/experiments/alicia/teaching/experiment/?hitId=3Z3R5YC0P3915KVY8X6BNRIWSQNFTT&workerId=A2MUCL20GTQJA0&assignmentId=3LYA37P8IR9EB4RP0OBPST02T47KB5&a=83YL9&tp_a=83YL9&b=3LYA37P8IR9EB4RP0OBPST02T47KB5&tp_b=3LYA37P8IR9EB4RP0OBPST02T47KB5&c=365799&tp_c=365799"},{"rt":1708,"stimulus":"\n            <h4 style=\"color:Orange;\">Student 3</h4>\n            <h2>The weight of your coin is <b style=\"color:Tomato;\">0.2</b>.</h2>\n            <p>In this block, you will be giving <b>one</b> set of examples to Student 3.</p>\n                <p>You will receive feedback at the end of the block.</p>\n            <p></p>","response":0,"trial_type":"html-button-response","trial_index":39,"time_elapsed":800267,"internal_node_id":"0.0-20.0","params":{"nStudents":24,"maxFlips":30,"completionMinutes":45,"basePay":8,"maxBonus":9,"perTrialBonus":0.5,"perTrialBonusThreshold":0.05,"exampleCost":0.01},"classroomParams":{"A":{"a":1,"b":4},"B":{"a":4,"b":1},"C":{"a":2,"b":8},"D":{"a":8,"b":2}},"conditions":["nonSeqFull","nonSeqPartial","seqNoFeedback","seqFeedback"],"classroomPairings":[["A","B"],["C","D"]],"coinWeights":[0.2,0.5,0.8],"subjectId":"A2MUCL20GTQJA0","assignmentId":"3LYA37P8IR9EB4RP0OBPST02T47KB5","hitId":"3Z3R5YC0P3915KVY8X6BNRIWSQNFTT","url":"https://gershmanlab.com/experiments/alicia/teaching/experiment/?hitId=3Z3R5YC0P3915KVY8X6BNRIWSQNFTT&workerId=A2MUCL20GTQJA0&assignmentId=3LYA37P8IR9EB4RP0OBPST02T47KB5&a=83YL9&tp_a=83YL9&b=3LYA37P8IR9EB4RP0OBPST02T47KB5&tp_b=3LYA37P8IR9EB4RP0OBPST02T47KB5&c=365799&tp_c=365799"},{"rt":12063,"response":{"heads":"8","tails":"2"},"type":"response","condition":"nonSeqFull","trueTheta":0.2,"classrooms":["C","D"],"studentTrueClassroom":"D","exampleSet":"first","trial_type":"survey-html-form","trial_index":40,"time_elapsed":812330,"internal_node_id":"0.0-21.0-0.0","params":{"nStudents":24,"maxFlips":30,"completionMinutes":45,"basePay":8,"maxBonus":9,"perTrialBonus":0.5,"perTrialBonusThreshold":0.05,"exampleCost":0.01},"classroomParams":{"A":{"a":1,"b":4},"B":{"a":4,"b":1},"C":{"a":2,"b":8},"D":{"a":8,"b":2}},"conditions":["nonSeqFull","nonSeqPartial","seqNoFeedback","seqFeedback"],"classroomPairings":[["A","B"],["C","D"]],"coinWeights":[0.2,0.5,0.8],"subjectId":"A2MUCL20GTQJA0","assignmentId":"3LYA37P8IR9EB4RP0OBPST02T47KB5","hitId":"3Z3R5YC0P3915KVY8X6BNRIWSQNFTT","url":"https://gershmanlab.com/experiments/alicia/teaching/experiment/?hitId=3Z3R5YC0P3915KVY8X6BNRIWSQNFTT&workerId=A2MUCL20GTQJA0&assignmentId=3LYA37P8IR9EB4RP0OBPST02T47KB5&a=83YL9&tp_a=83YL9&b=3LYA37P8IR9EB4RP0OBPST02T47KB5&tp_b=3LYA37P8IR9EB4RP0OBPST02T47KB5&c=365799&tp_c=365799","heads":8,"tails":2,"studentIndex":2,"studentTrueHypers":{"a":8,"b":2},"studentGuess":0.8,"delta":0.6000000000000001,"totalExamples":10,"bonus":0,"bonusSoFar":0},{"rt":null,"stimulus":"Sending examples to student... ","response":null,"trial_type":"html-keyboard-response","trial_index":41,"time_elapsed":813581,"internal_node_id":"0.0-22.0","params":{"nStudents":24,"maxFlips":30,"completionMinutes":45,"basePay":8,"maxBonus":9,"perTrialBonus":0.5,"perTrialBonusThreshold":0.05,"exampleCost":0.01},"classroomParams":{"A":{"a":1,"b":4},"B":{"a":4,"b":1},"C":{"a":2,"b":8},"D":{"a":8,"b":2}},"conditions":["nonSeqFull","nonSeqPartial","seqNoFeedback","seqFeedback"],"classroomPairings":[["A","B"],["C","D"]],"coinWeights":[0.2,0.5,0.8],"subjectId":"A2MUCL20GTQJA0","assignmentId":"3LYA37P8IR9EB4RP0OBPST02T47KB5","hitId":"3Z3R5YC0P3915KVY8X6BNRIWSQNFTT","url":"https://gershmanlab.com/experiments/alicia/teaching/experiment/?hitId=3Z3R5YC0P3915KVY8X6BNRIWSQNFTT&workerId=A2MUCL20GTQJA0&assignmentId=3LYA37P8IR9EB4RP0OBPST02T47KB5&a=83YL9&tp_a=83YL9&b=3LYA37P8IR9EB4RP0OBPST02T47KB5&tp_b=3LYA37P8IR9EB4RP0OBPST02T47KB5&c=365799&tp_c=365799"},{"rt":null,"stimulus":"Examples sent to student! Waiting for student...","response":null,"trial_type":"html-keyboard-response","trial_index":42,"time_elapsed":817597,"internal_node_id":"0.0-23.0","params":{"nStudents":24,"maxFlips":30,"completionMinutes":45,"basePay":8,"maxBonus":9,"perTrialBonus":0.5,"perTrialBonusThreshold":0.05,"exampleCost":0.01},"classroomParams":{"A":{"a":1,"b":4},"B":{"a":4,"b":1},"C":{"a":2,"b":8},"D":{"a":8,"b":2}},"conditions":["nonSeqFull","nonSeqPartial","seqNoFeedback","seqFeedback"],"classroomPairings":[["A","B"],["C","D"]],"coinWeights":[0.2,0.5,0.8],"subjectId":"A2MUCL20GTQJA0","assignmentId":"3LYA37P8IR9EB4RP0OBPST02T47KB5","hitId":"3Z3R5YC0P3915KVY8X6BNRIWSQNFTT","url":"https://gershmanlab.com/experiments/alicia/teaching/experiment/?hitId=3Z3R5YC0P3915KVY8X6BNRIWSQNFTT&workerId=A2MUCL20GTQJA0&assignmentId=3LYA37P8IR9EB4RP0OBPST02T47KB5&a=83YL9&tp_a=83YL9&b=3LYA37P8IR9EB4RP0OBPST02T47KB5&tp_b=3LYA37P8IR9EB4RP0OBPST02T47KB5&c=365799&tp_c=365799"},{"rt":2215,"stimulus":"\n                <p>Student's guess for coin weight: <b style=\"color:Tomato;\">0.80</b></p>\n                <p>You received a bonus of <b>$0</b>. Total bonus so far: <b>$0.00</b></b></p>\n                <p></p>\n                <p>Press any key to continue.</p>\n                ","response":"enter","trial_type":"html-keyboard-response","trial_index":43,"time_elapsed":819813,"internal_node_id":"0.0-24.0","params":{"nStudents":24,"maxFlips":30,"completionMinutes":45,"basePay":8,"maxBonus":9,"perTrialBonus":0.5,"perTrialBonusThreshold":0.05,"exampleCost":0.01},"classroomParams":{"A":{"a":1,"b":4},"B":{"a":4,"b":1},"C":{"a":2,"b":8},"D":{"a":8,"b":2}},"conditions":["nonSeqFull","nonSeqPartial","seqNoFeedback","seqFeedback"],"classroomPairings":[["A","B"],["C","D"]],"coinWeights":[0.2,0.5,0.8],"subjectId":"A2MUCL20GTQJA0","assignmentId":"3LYA37P8IR9EB4RP0OBPST02T47KB5","hitId":"3Z3R5YC0P3915KVY8X6BNRIWSQNFTT","url":"https://gershmanlab.com/experiments/alicia/teaching/experiment/?hitId=3Z3R5YC0P3915KVY8X6BNRIWSQNFTT&workerId=A2MUCL20GTQJA0&assignmentId=3LYA37P8IR9EB4RP0OBPST02T47KB5&a=83YL9&tp_a=83YL9&b=3LYA37P8IR9EB4RP0OBPST02T47KB5&tp_b=3LYA37P8IR9EB4RP0OBPST02T47KB5&c=365799&tp_c=365799"},{"rt":null,"stimulus":"<div style=\"font-size:60px;\">Next student</div>","response":null,"trial_type":"html-keyboard-response","trial_index":44,"time_elapsed":821815,"internal_node_id":"0.0-25.0-0.0","params":{"nStudents":24,"maxFlips":30,"completionMinutes":45,"basePay":8,"maxBonus":9,"perTrialBonus":0.5,"perTrialBonusThreshold":0.05,"exampleCost":0.01},"classroomParams":{"A":{"a":1,"b":4},"B":{"a":4,"b":1},"C":{"a":2,"b":8},"D":{"a":8,"b":2}},"conditions":["nonSeqFull","nonSeqPartial","seqNoFeedback","seqFeedback"],"classroomPairings":[["A","B"],["C","D"]],"coinWeights":[0.2,0.5,0.8],"subjectId":"A2MUCL20GTQJA0","assignmentId":"3LYA37P8IR9EB4RP0OBPST02T47KB5","hitId":"3Z3R5YC0P3915KVY8X6BNRIWSQNFTT","url":"https://gershmanlab.com/experiments/alicia/teaching/experiment/?hitId=3Z3R5YC0P3915KVY8X6BNRIWSQNFTT&workerId=A2MUCL20GTQJA0&assignmentId=3LYA37P8IR9EB4RP0OBPST02T47KB5&a=83YL9&tp_a=83YL9&b=3LYA37P8IR9EB4RP0OBPST02T47KB5&tp_b=3LYA37P8IR9EB4RP0OBPST02T47KB5&c=365799&tp_c=365799"},{"rt":3556,"stimulus":"\n            <h4 style=\"color:Orange;\">Student 4</h4>\n            <h2>The weight of your coin is <b style=\"color:Tomato;\">0.2</b>.</h2>\n            <p>In this block, you will be giving <b>one</b> set of examples to Student 4.</p>\n                <p>You will receive feedback at the end of the block.</p>\n            <p></p>","response":0,"trial_type":"html-button-response","trial_index":45,"time_elapsed":825372,"internal_node_id":"0.0-26.0","params":{"nStudents":24,"maxFlips":30,"completionMinutes":45,"basePay":8,"maxBonus":9,"perTrialBonus":0.5,"perTrialBonusThreshold":0.05,"exampleCost":0.01},"classroomParams":{"A":{"a":1,"b":4},"B":{"a":4,"b":1},"C":{"a":2,"b":8},"D":{"a":8,"b":2}},"conditions":["nonSeqFull","nonSeqPartial","seqNoFeedback","seqFeedback"],"classroomPairings":[["A","B"],["C","D"]],"coinWeights":[0.2,0.5,0.8],"subjectId":"A2MUCL20GTQJA0","assignmentId":"3LYA37P8IR9EB4RP0OBPST02T47KB5","hitId":"3Z3R5YC0P3915KVY8X6BNRIWSQNFTT","url":"https://gershmanlab.com/experiments/alicia/teaching/experiment/?hitId=3Z3R5YC0P3915KVY8X6BNRIWSQNFTT&workerId=A2MUCL20GTQJA0&assignmentId=3LYA37P8IR9EB4RP0OBPST02T47KB5&a=83YL9&tp_a=83YL9&b=3LYA37P8IR9EB4RP0OBPST02T47KB5&tp_b=3LYA37P8IR9EB4RP0OBPST02T47KB5&c=365799&tp_c=365799"},{"rt":13240,"response":{"heads":"2","tails":"8"},"type":"response","condition":"nonSeqPartial","trueTheta":0.2,"classrooms":["A","B"],"studentTrueClassroom":"A","exampleSet":"first","trial_type":"survey-html-form","trial_index":46,"time_elapsed":838612,"internal_node_id":"0.0-27.0-0.0","params":{"nStudents":24,"maxFlips":30,"completionMinutes":45,"basePay":8,"maxBonus":9,"perTrialBonus":0.5,"perTrialBonusThreshold":0.05,"exampleCost":0.01},"classroomParams":{"A":{"a":1,"b":4},"B":{"a":4,"b":1},"C":{"a":2,"b":8},"D":{"a":8,"b":2}},"conditions":["nonSeqFull","nonSeqPartial","seqNoFeedback","seqFeedback"],"classroomPairings":[["A","B"],["C","D"]],"coinWeights":[0.2,0.5,0.8],"subjectId":"A2MUCL20GTQJA0","assignmentId":"3LYA37P8IR9EB4RP0OBPST02T47KB5","hitId":"3Z3R5YC0P3915KVY8X6BNRIWSQNFTT","url":"https://gershmanlab.com/experiments/alicia/teaching/experiment/?hitId=3Z3R5YC0P3915KVY8X6BNRIWSQNFTT&workerId=A2MUCL20GTQJA0&assignmentId=3LYA37P8IR9EB4RP0OBPST02T47KB5&a=83YL9&tp_a=83YL9&b=3LYA37P8IR9EB4RP0OBPST02T47KB5&tp_b=3LYA37P8IR9EB4RP0OBPST02T47KB5&c=365799&tp_c=365799","heads":2,"tails":8,"studentIndex":3,"studentTrueHypers":{"a":1,"b":4},"studentGuess":0.2,"delta":0,"totalExamples":10,"bonus":0.4,"bonusSoFar":0.4},{"rt":null,"stimulus":"Sending examples to student... ","response":null,"trial_type":"html-keyboard-response","trial_index":47,"time_elapsed":840616,"internal_node_id":"0.0-28.0","params":{"nStudents":24,"maxFlips":30,"completionMinutes":45,"basePay":8,"maxBonus":9,"perTrialBonus":0.5,"perTrialBonusThreshold":0.05,"exampleCost":0.01},"classroomParams":{"A":{"a":1,"b":4},"B":{"a":4,"b":1},"C":{"a":2,"b":8},"D":{"a":8,"b":2}},"conditions":["nonSeqFull","nonSeqPartial","seqNoFeedback","seqFeedback"],"classroomPairings":[["A","B"],["C","D"]],"coinWeights":[0.2,0.5,0.8],"subjectId":"A2MUCL20GTQJA0","assignmentId":"3LYA37P8IR9EB4RP0OBPST02T47KB5","hitId":"3Z3R5YC0P3915KVY8X6BNRIWSQNFTT","url":"https://gershmanlab.com/experiments/alicia/teaching/experiment/?hitId=3Z3R5YC0P3915KVY8X6BNRIWSQNFTT&workerId=A2MUCL20GTQJA0&assignmentId=3LYA37P8IR9EB4RP0OBPST02T47KB5&a=83YL9&tp_a=83YL9&b=3LYA37P8IR9EB4RP0OBPST02T47KB5&tp_b=3LYA37P8IR9EB4RP0OBPST02T47KB5&c=365799&tp_c=365799"},{"rt":null,"stimulus":"Examples sent to student! Waiting for student...","response":null,"trial_type":"html-keyboard-response","trial_index":48,"time_elapsed":846118,"internal_node_id":"0.0-29.0","params":{"nStudents":24,"maxFlips":30,"completionMinutes":45,"basePay":8,"maxBonus":9,"perTrialBonus":0.5,"perTrialBonusThreshold":0.05,"exampleCost":0.01},"classroomParams":{"A":{"a":1,"b":4},"B":{"a":4,"b":1},"C":{"a":2,"b":8},"D":{"a":8,"b":2}},"conditions":["nonSeqFull","nonSeqPartial","seqNoFeedback","seqFeedback"],"classroomPairings":[["A","B"],["C","D"]],"coinWeights":[0.2,0.5,0.8],"subjectId":"A2MUCL20GTQJA0","assignmentId":"3LYA37P8IR9EB4RP0OBPST02T47KB5","hitId":"3Z3R5YC0P3915KVY8X6BNRIWSQNFTT","url":"https://gershmanlab.com/experiments/alicia/teaching/experiment/?hitId=3Z3R5YC0P3915KVY8X6BNRIWSQNFTT&workerId=A2MUCL20GTQJA0&assignmentId=3LYA37P8IR9EB4RP0OBPST02T47KB5&a=83YL9&tp_a=83YL9&b=3LYA37P8IR9EB4RP0OBPST02T47KB5&tp_b=3LYA37P8IR9EB4RP0OBPST02T47KB5&c=365799&tp_c=365799"},{"rt":2564,"stimulus":"\n                <p>Student's guess for coin weight: <b style=\"color:Tomato;\">0.20</b></p>\n                <p>You received a bonus of <b>$0.4</b>. Total bonus so far: <b>$0.40</b></b></p>\n                <p></p>\n                <p>Press any key to continue.</p>\n                ","response":"enter","trial_type":"html-keyboard-response","trial_index":49,"time_elapsed":848683,"internal_node_id":"0.0-30.0","params":{"nStudents":24,"maxFlips":30,"completionMinutes":45,"basePay":8,"maxBonus":9,"perTrialBonus":0.5,"perTrialBonusThreshold":0.05,"exampleCost":0.01},"classroomParams":{"A":{"a":1,"b":4},"B":{"a":4,"b":1},"C":{"a":2,"b":8},"D":{"a":8,"b":2}},"conditions":["nonSeqFull","nonSeqPartial","seqNoFeedback","seqFeedback"],"classroomPairings":[["A","B"],["C","D"]],"coinWeights":[0.2,0.5,0.8],"subjectId":"A2MUCL20GTQJA0","assignmentId":"3LYA37P8IR9EB4RP0OBPST02T47KB5","hitId":"3Z3R5YC0P3915KVY8X6BNRIWSQNFTT","url":"https://gershmanlab.com/experiments/alicia/teaching/experiment/?hitId=3Z3R5YC0P3915KVY8X6BNRIWSQNFTT&workerId=A2MUCL20GTQJA0&assignmentId=3LYA37P8IR9EB4RP0OBPST02T47KB5&a=83YL9&tp_a=83YL9&b=3LYA37P8IR9EB4RP0OBPST02T47KB5&tp_b=3LYA37P8IR9EB4RP0OBPST02T47KB5&c=365799&tp_c=365799"},{"rt":null,"stimulus":"<div style=\"font-size:60px;\">Next student</div>","response":null,"trial_type":"html-keyboard-response","trial_index":50,"time_elapsed":850685,"internal_node_id":"0.0-31.0-0.0","params":{"nStudents":24,"maxFlips":30,"completionMinutes":45,"basePay":8,"maxBonus":9,"perTrialBonus":0.5,"perTrialBonusThreshold":0.05,"exampleCost":0.01},"classroomParams":{"A":{"a":1,"b":4},"B":{"a":4,"b":1},"C":{"a":2,"b":8},"D":{"a":8,"b":2}},"conditions":["nonSeqFull","nonSeqPartial","seqNoFeedback","seqFeedback"],"classroomPairings":[["A","B"],["C","D"]],"coinWeights":[0.2,0.5,0.8],"subjectId":"A2MUCL20GTQJA0","assignmentId":"3LYA37P8IR9EB4RP0OBPST02T47KB5","hitId":"3Z3R5YC0P3915KVY8X6BNRIWSQNFTT","url":"https://gershmanlab.com/experiments/alicia/teaching/experiment/?hitId=3Z3R5YC0P3915KVY8X6BNRIWSQNFTT&workerId=A2MUCL20GTQJA0&assignmentId=3LYA37P8IR9EB4RP0OBPST02T47KB5&a=83YL9&tp_a=83YL9&b=3LYA37P8IR9EB4RP0OBPST02T47KB5&tp_b=3LYA37P8IR9EB4RP0OBPST02T47KB5&c=365799&tp_c=365799"},{"rt":1655,"stimulus":"\n            <h4 style=\"color:Orange;\">Student 5</h4>\n            <h2>The weight of your coin is <b style=\"color:Tomato;\">0.5</b>.</h2>\n            <p>In this block, you will be giving <b>one</b> set of examples to Student 5.</p>\n                <p>You will receive feedback at the end of the block.</p>\n            <p></p>","response":0,"trial_type":"html-button-response","trial_index":51,"time_elapsed":852341,"internal_node_id":"0.0-32.0","params":{"nStudents":24,"maxFlips":30,"completionMinutes":45,"basePay":8,"maxBonus":9,"perTrialBonus":0.5,"perTrialBonusThreshold":0.05,"exampleCost":0.01},"classroomParams":{"A":{"a":1,"b":4},"B":{"a":4,"b":1},"C":{"a":2,"b":8},"D":{"a":8,"b":2}},"conditions":["nonSeqFull","nonSeqPartial","seqNoFeedback","seqFeedback"],"classroomPairings":[["A","B"],["C","D"]],"coinWeights":[0.2,0.5,0.8],"subjectId":"A2MUCL20GTQJA0","assignmentId":"3LYA37P8IR9EB4RP0OBPST02T47KB5","hitId":"3Z3R5YC0P3915KVY8X6BNRIWSQNFTT","url":"https://gershmanlab.com/experiments/alicia/teaching/experiment/?hitId=3Z3R5YC0P3915KVY8X6BNRIWSQNFTT&workerId=A2MUCL20GTQJA0&assignmentId=3LYA37P8IR9EB4RP0OBPST02T47KB5&a=83YL9&tp_a=83YL9&b=3LYA37P8IR9EB4RP0OBPST02T47KB5&tp_b=3LYA37P8IR9EB4RP0OBPST02T47KB5&c=365799&tp_c=365799"},{"rt":11465,"response":{"heads":"4","tails":"2"},"type":"response","condition":"nonSeqFull","trueTheta":0.5,"classrooms":["A","B"],"studentTrueClassroom":"A","exampleSet":"first","trial_type":"survey-html-form","trial_index":52,"time_elapsed":863806,"internal_node_id":"0.0-33.0-0.0","params":{"nStudents":24,"maxFlips":30,"completionMinutes":45,"basePay":8,"maxBonus":9,"perTrialBonus":0.5,"perTrialBonusThreshold":0.05,"exampleCost":0.01},"classroomParams":{"A":{"a":1,"b":4},"B":{"a":4,"b":1},"C":{"a":2,"b":8},"D":{"a":8,"b":2}},"conditions":["nonSeqFull","nonSeqPartial","seqNoFeedback","seqFeedback"],"classroomPairings":[["A","B"],["C","D"]],"coinWeights":[0.2,0.5,0.8],"subjectId":"A2MUCL20GTQJA0","assignmentId":"3LYA37P8IR9EB4RP0OBPST02T47KB5","hitId":"3Z3R5YC0P3915KVY8X6BNRIWSQNFTT","url":"https://gershmanlab.com/experiments/alicia/teaching/experiment/?hitId=3Z3R5YC0P3915KVY8X6BNRIWSQNFTT&workerId=A2MUCL20GTQJA0&assignmentId=3LYA37P8IR9EB4RP0OBPST02T47KB5&a=83YL9&tp_a=83YL9&b=3LYA37P8IR9EB4RP0OBPST02T47KB5&tp_b=3LYA37P8IR9EB4RP0OBPST02T47KB5&c=365799&tp_c=365799","heads":4,"tails":2,"studentIndex":4,"studentTrueHypers":{"a":1,"b":4},"studentGuess":0.45454545454545453,"delta":0.04545454545454547,"totalExamples":6,"bonus":0.44,"bonusSoFar":0.84},{"rt":null,"stimulus":"Sending examples to student... ","response":null,"trial_type":"html-keyboard-response","trial_index":53,"time_elapsed":865821,"internal_node_id":"0.0-34.0","params":{"nStudents":24,"maxFlips":30,"completionMinutes":45,"basePay":8,"maxBonus":9,"perTrialBonus":0.5,"perTrialBonusThreshold":0.05,"exampleCost":0.01},"classroomParams":{"A":{"a":1,"b":4},"B":{"a":4,"b":1},"C":{"a":2,"b":8},"D":{"a":8,"b":2}},"conditions":["nonSeqFull","nonSeqPartial","seqNoFeedback","seqFeedback"],"classroomPairings":[["A","B"],["C","D"]],"coinWeights":[0.2,0.5,0.8],"subjectId":"A2MUCL20GTQJA0","assignmentId":"3LYA37P8IR9EB4RP0OBPST02T47KB5","hitId":"3Z3R5YC0P3915KVY8X6BNRIWSQNFTT","url":"https://gershmanlab.com/experiments/alicia/teaching/experiment/?hitId=3Z3R5YC0P3915KVY8X6BNRIWSQNFTT&workerId=A2MUCL20GTQJA0&assignmentId=3LYA37P8IR9EB4RP0OBPST02T47KB5&a=83YL9&tp_a=83YL9&b=3LYA37P8IR9EB4RP0OBPST02T47KB5&tp_b=3LYA37P8IR9EB4RP0OBPST02T47KB5&c=365799&tp_c=365799"},{"rt":null,"stimulus":"Examples sent to student! Waiting for student...","response":null,"trial_type":"html-keyboard-response","trial_index":54,"time_elapsed":871825,"internal_node_id":"0.0-35.0","params":{"nStudents":24,"maxFlips":30,"completionMinutes":45,"basePay":8,"maxBonus":9,"perTrialBonus":0.5,"perTrialBonusThreshold":0.05,"exampleCost":0.01},"classroomParams":{"A":{"a":1,"b":4},"B":{"a":4,"b":1},"C":{"a":2,"b":8},"D":{"a":8,"b":2}},"conditions":["nonSeqFull","nonSeqPartial","seqNoFeedback","seqFeedback"],"classroomPairings":[["A","B"],["C","D"]],"coinWeights":[0.2,0.5,0.8],"subjectId":"A2MUCL20GTQJA0","assignmentId":"3LYA37P8IR9EB4RP0OBPST02T47KB5","hitId":"3Z3R5YC0P3915KVY8X6BNRIWSQNFTT","url":"https://gershmanlab.com/experiments/alicia/teaching/experiment/?hitId=3Z3R5YC0P3915KVY8X6BNRIWSQNFTT&workerId=A2MUCL20GTQJA0&assignmentId=3LYA37P8IR9EB4RP0OBPST02T47KB5&a=83YL9&tp_a=83YL9&b=3LYA37P8IR9EB4RP0OBPST02T47KB5&tp_b=3LYA37P8IR9EB4RP0OBPST02T47KB5&c=365799&tp_c=365799"},{"rt":1680,"stimulus":"\n                <p>Student's guess for coin weight: <b style=\"color:Tomato;\">0.45</b></p>\n                <p>You received a bonus of <b>$0.44</b>. Total bonus so far: <b>$0.84</b></b></p>\n                <p></p>\n                <p>Press any key to continue.</p>\n                ","response":"enter","trial_type":"html-keyboard-response","trial_index":55,"time_elapsed":873507,"internal_node_id":"0.0-36.0","params":{"nStudents":24,"maxFlips":30,"completionMinutes":45,"basePay":8,"maxBonus":9,"perTrialBonus":0.5,"perTrialBonusThreshold":0.05,"exampleCost":0.01},"classroomParams":{"A":{"a":1,"b":4},"B":{"a":4,"b":1},"C":{"a":2,"b":8},"D":{"a":8,"b":2}},"conditions":["nonSeqFull","nonSeqPartial","seqNoFeedback","seqFeedback"],"classroomPairings":[["A","B"],["C","D"]],"coinWeights":[0.2,0.5,0.8],"subjectId":"A2MUCL20GTQJA0","assignmentId":"3LYA37P8IR9EB4RP0OBPST02T47KB5","hitId":"3Z3R5YC0P3915KVY8X6BNRIWSQNFTT","url":"https://gershmanlab.com/experiments/alicia/teaching/experiment/?hitId=3Z3R5YC0P3915KVY8X6BNRIWSQNFTT&workerId=A2MUCL20GTQJA0&assignmentId=3LYA37P8IR9EB4RP0OBPST02T47KB5&a=83YL9&tp_a=83YL9&b=3LYA37P8IR9EB4RP0OBPST02T47KB5&tp_b=3LYA37P8IR9EB4RP0OBPST02T47KB5&c=365799&tp_c=365799"},{"rt":null,"stimulus":"<div style=\"font-size:60px;\">Next student</div>","response":null,"trial_type":"html-keyboard-response","trial_index":56,"time_elapsed":875512,"internal_node_id":"0.0-37.0-0.0","params":{"nStudents":24,"maxFlips":30,"completionMinutes":45,"basePay":8,"maxBonus":9,"perTrialBonus":0.5,"perTrialBonusThreshold":0.05,"exampleCost":0.01},"classroomParams":{"A":{"a":1,"b":4},"B":{"a":4,"b":1},"C":{"a":2,"b":8},"D":{"a":8,"b":2}},"conditions":["nonSeqFull","nonSeqPartial","seqNoFeedback","seqFeedback"],"classroomPairings":[["A","B"],["C","D"]],"coinWeights":[0.2,0.5,0.8],"subjectId":"A2MUCL20GTQJA0","assignmentId":"3LYA37P8IR9EB4RP0OBPST02T47KB5","hitId":"3Z3R5YC0P3915KVY8X6BNRIWSQNFTT","url":"https://gershmanlab.com/experiments/alicia/teaching/experiment/?hitId=3Z3R5YC0P3915KVY8X6BNRIWSQNFTT&workerId=A2MUCL20GTQJA0&assignmentId=3LYA37P8IR9EB4RP0OBPST02T47KB5&a=83YL9&tp_a=83YL9&b=3LYA37P8IR9EB4RP0OBPST02T47KB5&tp_b=3LYA37P8IR9EB4RP0OBPST02T47KB5&c=365799&tp_c=365799"},{"rt":12736,"stimulus":"\n            <h4 style=\"color:Orange;\">Student 6</h4>\n            <h2>The weight of your coin is <b style=\"color:Tomato;\">0.5</b>.</h2>\n            <p>In this block, you will be giving <b>two</b> sets of examples to Student 6.</p>\n                <p>You will see the student's guess after the first set of examples. You will also receive feedback at the end of the block.</p>\n            <p>To earn the highest bonus, you will have to <b>take into consideration the student's guess</b> when you choose your second set of examples.</p>","response":0,"trial_type":"html-button-response","trial_index":57,"time_elapsed":888249,"internal_node_id":"0.0-38.0","params":{"nStudents":24,"maxFlips":30,"completionMinutes":45,"basePay":8,"maxBonus":9,"perTrialBonus":0.5,"perTrialBonusThreshold":0.05,"exampleCost":0.01},"classroomParams":{"A":{"a":1,"b":4},"B":{"a":4,"b":1},"C":{"a":2,"b":8},"D":{"a":8,"b":2}},"conditions":["nonSeqFull","nonSeqPartial","seqNoFeedback","seqFeedback"],"classroomPairings":[["A","B"],["C","D"]],"coinWeights":[0.2,0.5,0.8],"subjectId":"A2MUCL20GTQJA0","assignmentId":"3LYA37P8IR9EB4RP0OBPST02T47KB5","hitId":"3Z3R5YC0P3915KVY8X6BNRIWSQNFTT","url":"https://gershmanlab.com/experiments/alicia/teaching/experiment/?hitId=3Z3R5YC0P3915KVY8X6BNRIWSQNFTT&workerId=A2MUCL20GTQJA0&assignmentId=3LYA37P8IR9EB4RP0OBPST02T47KB5&a=83YL9&tp_a=83YL9&b=3LYA37P8IR9EB4RP0OBPST02T47KB5&tp_b=3LYA37P8IR9EB4RP0OBPST02T47KB5&c=365799&tp_c=365799"},{"rt":11434,"response":{"heads":"6","tails":"2"},"type":"response","condition":"seqFeedback","trueTheta":0.5,"classrooms":["A","B"],"studentTrueClassroom":"A","exampleSet":"first","trial_type":"survey-html-form","trial_index":58,"time_elapsed":899683,"internal_node_id":"0.0-39.0-0.0","params":{"nStudents":24,"maxFlips":30,"completionMinutes":45,"basePay":8,"maxBonus":9,"perTrialBonus":0.5,"perTrialBonusThreshold":0.05,"exampleCost":0.01},"classroomParams":{"A":{"a":1,"b":4},"B":{"a":4,"b":1},"C":{"a":2,"b":8},"D":{"a":8,"b":2}},"conditions":["nonSeqFull","nonSeqPartial","seqNoFeedback","seqFeedback"],"classroomPairings":[["A","B"],["C","D"]],"coinWeights":[0.2,0.5,0.8],"subjectId":"A2MUCL20GTQJA0","assignmentId":"3LYA37P8IR9EB4RP0OBPST02T47KB5","hitId":"3Z3R5YC0P3915KVY8X6BNRIWSQNFTT","url":"https://gershmanlab.com/experiments/alicia/teaching/experiment/?hitId=3Z3R5YC0P3915KVY8X6BNRIWSQNFTT&workerId=A2MUCL20GTQJA0&assignmentId=3LYA37P8IR9EB4RP0OBPST02T47KB5&a=83YL9&tp_a=83YL9&b=3LYA37P8IR9EB4RP0OBPST02T47KB5&tp_b=3LYA37P8IR9EB4RP0OBPST02T47KB5&c=365799&tp_c=365799","heads":6,"tails":2,"studentIndex":5,"studentTrueHypers":{"a":1,"b":4},"studentGuess":0.5384615384615384,"delta":0.038461538461538436,"totalExamples":8,"bonusSoFar":0.84},{"rt":null,"stimulus":"Sending examples to student... ","response":null,"trial_type":"html-keyboard-response","trial_index":59,"time_elapsed":901191,"internal_node_id":"0.0-40.0","params":{"nStudents":24,"maxFlips":30,"completionMinutes":45,"basePay":8,"maxBonus":9,"perTrialBonus":0.5,"perTrialBonusThreshold":0.05,"exampleCost":0.01},"classroomParams":{"A":{"a":1,"b":4},"B":{"a":4,"b":1},"C":{"a":2,"b":8},"D":{"a":8,"b":2}},"conditions":["nonSeqFull","nonSeqPartial","seqNoFeedback","seqFeedback"],"classroomPairings":[["A","B"],["C","D"]],"coinWeights":[0.2,0.5,0.8],"subjectId":"A2MUCL20GTQJA0","assignmentId":"3LYA37P8IR9EB4RP0OBPST02T47KB5","hitId":"3Z3R5YC0P3915KVY8X6BNRIWSQNFTT","url":"https://gershmanlab.com/experiments/alicia/teaching/experiment/?hitId=3Z3R5YC0P3915KVY8X6BNRIWSQNFTT&workerId=A2MUCL20GTQJA0&assignmentId=3LYA37P8IR9EB4RP0OBPST02T47KB5&a=83YL9&tp_a=83YL9&b=3LYA37P8IR9EB4RP0OBPST02T47KB5&tp_b=3LYA37P8IR9EB4RP0OBPST02T47KB5&c=365799&tp_c=365799"},{"rt":null,"stimulus":"Examples sent to student! Waiting for student...","response":null,"trial_type":"html-keyboard-response","trial_index":60,"time_elapsed":906192,"internal_node_id":"0.0-41.0","params":{"nStudents":24,"maxFlips":30,"completionMinutes":45,"basePay":8,"maxBonus":9,"perTrialBonus":0.5,"perTrialBonusThreshold":0.05,"exampleCost":0.01},"classroomParams":{"A":{"a":1,"b":4},"B":{"a":4,"b":1},"C":{"a":2,"b":8},"D":{"a":8,"b":2}},"conditions":["nonSeqFull","nonSeqPartial","seqNoFeedback","seqFeedback"],"classroomPairings":[["A","B"],["C","D"]],"coinWeights":[0.2,0.5,0.8],"subjectId":"A2MUCL20GTQJA0","assignmentId":"3LYA37P8IR9EB4RP0OBPST02T47KB5","hitId":"3Z3R5YC0P3915KVY8X6BNRIWSQNFTT","url":"https://gershmanlab.com/experiments/alicia/teaching/experiment/?hitId=3Z3R5YC0P3915KVY8X6BNRIWSQNFTT&workerId=A2MUCL20GTQJA0&assignmentId=3LYA37P8IR9EB4RP0OBPST02T47KB5&a=83YL9&tp_a=83YL9&b=3LYA37P8IR9EB4RP0OBPST02T47KB5&tp_b=3LYA37P8IR9EB4RP0OBPST02T47KB5&c=365799&tp_c=365799"},{"rt":5846,"stimulus":"\n                <p>Student's guess for coin weight: <b style=\"color:Tomato;\">0.54</b></p>\n                <p></b></p>\n                <p>You will now send another set of examples to your student. <b>Remember to take your student's guess into consideration so that you can earn the highest bonus possible!</b> </p>\n                <p>Press any key to continue.</p>\n                ","response":"enter","trial_type":"html-keyboard-response","trial_index":61,"time_elapsed":912039,"internal_node_id":"0.0-42.0","params":{"nStudents":24,"maxFlips":30,"completionMinutes":45,"basePay":8,"maxBonus":9,"perTrialBonus":0.5,"perTrialBonusThreshold":0.05,"exampleCost":0.01},"classroomParams":{"A":{"a":1,"b":4},"B":{"a":4,"b":1},"C":{"a":2,"b":8},"D":{"a":8,"b":2}},"conditions":["nonSeqFull","nonSeqPartial","seqNoFeedback","seqFeedback"],"classroomPairings":[["A","B"],["C","D"]],"coinWeights":[0.2,0.5,0.8],"subjectId":"A2MUCL20GTQJA0","assignmentId":"3LYA37P8IR9EB4RP0OBPST02T47KB5","hitId":"3Z3R5YC0P3915KVY8X6BNRIWSQNFTT","url":"https://gershmanlab.com/experiments/alicia/teaching/experiment/?hitId=3Z3R5YC0P3915KVY8X6BNRIWSQNFTT&workerId=A2MUCL20GTQJA0&assignmentId=3LYA37P8IR9EB4RP0OBPST02T47KB5&a=83YL9&tp_a=83YL9&b=3LYA37P8IR9EB4RP0OBPST02T47KB5&tp_b=3LYA37P8IR9EB4RP0OBPST02T47KB5&c=365799&tp_c=365799"},{"rt":8324,"response":{"heads":"6","tails":"2"},"type":"response","condition":"seqFeedback","trueTheta":0.5,"classrooms":["A","B"],"studentTrueClassroom":"A","exampleSet":"second","trial_type":"survey-html-form","trial_index":62,"time_elapsed":920364,"internal_node_id":"0.0-43.0-0.0","params":{"nStudents":24,"maxFlips":30,"completionMinutes":45,"basePay":8,"maxBonus":9,"perTrialBonus":0.5,"perTrialBonusThreshold":0.05,"exampleCost":0.01},"classroomParams":{"A":{"a":1,"b":4},"B":{"a":4,"b":1},"C":{"a":2,"b":8},"D":{"a":8,"b":2}},"conditions":["nonSeqFull","nonSeqPartial","seqNoFeedback","seqFeedback"],"classroomPairings":[["A","B"],["C","D"]],"coinWeights":[0.2,0.5,0.8],"subjectId":"A2MUCL20GTQJA0","assignmentId":"3LYA37P8IR9EB4RP0OBPST02T47KB5","hitId":"3Z3R5YC0P3915KVY8X6BNRIWSQNFTT","url":"https://gershmanlab.com/experiments/alicia/teaching/experiment/?hitId=3Z3R5YC0P3915KVY8X6BNRIWSQNFTT&workerId=A2MUCL20GTQJA0&assignmentId=3LYA37P8IR9EB4RP0OBPST02T47KB5&a=83YL9&tp_a=83YL9&b=3LYA37P8IR9EB4RP0OBPST02T47KB5&tp_b=3LYA37P8IR9EB4RP0OBPST02T47KB5&c=365799&tp_c=365799","firstResponseHeads":6,"firstResponseTails":2,"secondResponseHeads":6,"secondResponseTails":2,"totalHeads":12,"totalTails":4,"studentIndex":5,"studentTrueHypers":{"a":1,"b":4},"studentGuess":0.6190476190476191,"delta":0.11904761904761907,"bonus":0,"bonusSoFar":0.84,"totalExamples":16},{"rt":null,"stimulus":"Sending examples to student... ","response":null,"trial_type":"html-keyboard-response","trial_index":63,"time_elapsed":922130,"internal_node_id":"0.0-44.0","params":{"nStudents":24,"maxFlips":30,"completionMinutes":45,"basePay":8,"maxBonus":9,"perTrialBonus":0.5,"perTrialBonusThreshold":0.05,"exampleCost":0.01},"classroomParams":{"A":{"a":1,"b":4},"B":{"a":4,"b":1},"C":{"a":2,"b":8},"D":{"a":8,"b":2}},"conditions":["nonSeqFull","nonSeqPartial","seqNoFeedback","seqFeedback"],"classroomPairings":[["A","B"],["C","D"]],"coinWeights":[0.2,0.5,0.8],"subjectId":"A2MUCL20GTQJA0","assignmentId":"3LYA37P8IR9EB4RP0OBPST02T47KB5","hitId":"3Z3R5YC0P3915KVY8X6BNRIWSQNFTT","url":"https://gershmanlab.com/experiments/alicia/teaching/experiment/?hitId=3Z3R5YC0P3915KVY8X6BNRIWSQNFTT&workerId=A2MUCL20GTQJA0&assignmentId=3LYA37P8IR9EB4RP0OBPST02T47KB5&a=83YL9&tp_a=83YL9&b=3LYA37P8IR9EB4RP0OBPST02T47KB5&tp_b=3LYA37P8IR9EB4RP0OBPST02T47KB5&c=365799&tp_c=365799"},{"rt":null,"stimulus":"Examples sent to student! Waiting for student...","response":null,"trial_type":"html-keyboard-response","trial_index":64,"time_elapsed":927145,"internal_node_id":"0.0-45.0","params":{"nStudents":24,"maxFlips":30,"completionMinutes":45,"basePay":8,"maxBonus":9,"perTrialBonus":0.5,"perTrialBonusThreshold":0.05,"exampleCost":0.01},"classroomParams":{"A":{"a":1,"b":4},"B":{"a":4,"b":1},"C":{"a":2,"b":8},"D":{"a":8,"b":2}},"conditions":["nonSeqFull","nonSeqPartial","seqNoFeedback","seqFeedback"],"classroomPairings":[["A","B"],["C","D"]],"coinWeights":[0.2,0.5,0.8],"subjectId":"A2MUCL20GTQJA0","assignmentId":"3LYA37P8IR9EB4RP0OBPST02T47KB5","hitId":"3Z3R5YC0P3915KVY8X6BNRIWSQNFTT","url":"https://gershmanlab.com/experiments/alicia/teaching/experiment/?hitId=3Z3R5YC0P3915KVY8X6BNRIWSQNFTT&workerId=A2MUCL20GTQJA0&assignmentId=3LYA37P8IR9EB4RP0OBPST02T47KB5&a=83YL9&tp_a=83YL9&b=3LYA37P8IR9EB4RP0OBPST02T47KB5&tp_b=3LYA37P8IR9EB4RP0OBPST02T47KB5&c=365799&tp_c=365799"},{"rt":4451,"stimulus":"\n                <p>Student 6's first guess for coin weight: <b style=\"color:Tomato\";>0.54</b></p>\n                <p>Student 6's second guess for coin weight: <b style=\"color:Tomato\";>0.62</b></p>\n                <p>You received a bonus of <b>$0.00</b> based on the student's second guess.</p>\n                <p>Total bonus so far: <b>$0.84</b></p>\n                <p>Press any key to continue.</p>\n                ","response":"enter","trial_type":"html-keyboard-response","trial_index":65,"time_elapsed":931596,"internal_node_id":"0.0-46.0","params":{"nStudents":24,"maxFlips":30,"completionMinutes":45,"basePay":8,"maxBonus":9,"perTrialBonus":0.5,"perTrialBonusThreshold":0.05,"exampleCost":0.01},"classroomParams":{"A":{"a":1,"b":4},"B":{"a":4,"b":1},"C":{"a":2,"b":8},"D":{"a":8,"b":2}},"conditions":["nonSeqFull","nonSeqPartial","seqNoFeedback","seqFeedback"],"classroomPairings":[["A","B"],["C","D"]],"coinWeights":[0.2,0.5,0.8],"subjectId":"A2MUCL20GTQJA0","assignmentId":"3LYA37P8IR9EB4RP0OBPST02T47KB5","hitId":"3Z3R5YC0P3915KVY8X6BNRIWSQNFTT","url":"https://gershmanlab.com/experiments/alicia/teaching/experiment/?hitId=3Z3R5YC0P3915KVY8X6BNRIWSQNFTT&workerId=A2MUCL20GTQJA0&assignmentId=3LYA37P8IR9EB4RP0OBPST02T47KB5&a=83YL9&tp_a=83YL9&b=3LYA37P8IR9EB4RP0OBPST02T47KB5&tp_b=3LYA37P8IR9EB4RP0OBPST02T47KB5&c=365799&tp_c=365799"},{"rt":null,"stimulus":"<div style=\"font-size:60px;\">Next student</div>","response":null,"trial_type":"html-keyboard-response","trial_index":66,"time_elapsed":934098,"internal_node_id":"0.0-47.0-0.0","params":{"nStudents":24,"maxFlips":30,"completionMinutes":45,"basePay":8,"maxBonus":9,"perTrialBonus":0.5,"perTrialBonusThreshold":0.05,"exampleCost":0.01},"classroomParams":{"A":{"a":1,"b":4},"B":{"a":4,"b":1},"C":{"a":2,"b":8},"D":{"a":8,"b":2}},"conditions":["nonSeqFull","nonSeqPartial","seqNoFeedback","seqFeedback"],"classroomPairings":[["A","B"],["C","D"]],"coinWeights":[0.2,0.5,0.8],"subjectId":"A2MUCL20GTQJA0","assignmentId":"3LYA37P8IR9EB4RP0OBPST02T47KB5","hitId":"3Z3R5YC0P3915KVY8X6BNRIWSQNFTT","url":"https://gershmanlab.com/experiments/alicia/teaching/experiment/?hitId=3Z3R5YC0P3915KVY8X6BNRIWSQNFTT&workerId=A2MUCL20GTQJA0&assignmentId=3LYA37P8IR9EB4RP0OBPST02T47KB5&a=83YL9&tp_a=83YL9&b=3LYA37P8IR9EB4RP0OBPST02T47KB5&tp_b=3LYA37P8IR9EB4RP0OBPST02T47KB5&c=365799&tp_c=365799"},{"rt":1331,"stimulus":"\n            <h4 style=\"color:Orange;\">Student 7</h4>\n            <h2>The weight of your coin is <b style=\"color:Tomato;\">0.5</b>.</h2>\n            <p>In this block, you will be giving <b>two</b> sets of examples to Student 7.</p>\n                <p>You will receive feedback at the end of the block.</p>\n            <p></p>","response":0,"trial_type":"html-button-response","trial_index":67,"time_elapsed":935429,"internal_node_id":"0.0-48.0","params":{"nStudents":24,"maxFlips":30,"completionMinutes":45,"basePay":8,"maxBonus":9,"perTrialBonus":0.5,"perTrialBonusThreshold":0.05,"exampleCost":0.01},"classroomParams":{"A":{"a":1,"b":4},"B":{"a":4,"b":1},"C":{"a":2,"b":8},"D":{"a":8,"b":2}},"conditions":["nonSeqFull","nonSeqPartial","seqNoFeedback","seqFeedback"],"classroomPairings":[["A","B"],["C","D"]],"coinWeights":[0.2,0.5,0.8],"subjectId":"A2MUCL20GTQJA0","assignmentId":"3LYA37P8IR9EB4RP0OBPST02T47KB5","hitId":"3Z3R5YC0P3915KVY8X6BNRIWSQNFTT","url":"https://gershmanlab.com/experiments/alicia/teaching/experiment/?hitId=3Z3R5YC0P3915KVY8X6BNRIWSQNFTT&workerId=A2MUCL20GTQJA0&assignmentId=3LYA37P8IR9EB4RP0OBPST02T47KB5&a=83YL9&tp_a=83YL9&b=3LYA37P8IR9EB4RP0OBPST02T47KB5&tp_b=3LYA37P8IR9EB4RP0OBPST02T47KB5&c=365799&tp_c=365799"},{"rt":8328,"response":{"heads":"7","tails":"3"},"type":"response","condition":"seqNoFeedback","trueTheta":0.5,"classrooms":["C","D"],"studentTrueClassroom":"D","exampleSet":"first","trial_type":"survey-html-form","trial_index":68,"time_elapsed":943757,"internal_node_id":"0.0-49.0-0.0","params":{"nStudents":24,"maxFlips":30,"completionMinutes":45,"basePay":8,"maxBonus":9,"perTrialBonus":0.5,"perTrialBonusThreshold":0.05,"exampleCost":0.01},"classroomParams":{"A":{"a":1,"b":4},"B":{"a":4,"b":1},"C":{"a":2,"b":8},"D":{"a":8,"b":2}},"conditions":["nonSeqFull","nonSeqPartial","seqNoFeedback","seqFeedback"],"classroomPairings":[["A","B"],["C","D"]],"coinWeights":[0.2,0.5,0.8],"subjectId":"A2MUCL20GTQJA0","assignmentId":"3LYA37P8IR9EB4RP0OBPST02T47KB5","hitId":"3Z3R5YC0P3915KVY8X6BNRIWSQNFTT","url":"https://gershmanlab.com/experiments/alicia/teaching/experiment/?hitId=3Z3R5YC0P3915KVY8X6BNRIWSQNFTT&workerId=A2MUCL20GTQJA0&assignmentId=3LYA37P8IR9EB4RP0OBPST02T47KB5&a=83YL9&tp_a=83YL9&b=3LYA37P8IR9EB4RP0OBPST02T47KB5&tp_b=3LYA37P8IR9EB4RP0OBPST02T47KB5&c=365799&tp_c=365799","heads":7,"tails":3,"studentIndex":6,"studentTrueHypers":{"a":8,"b":2},"studentGuess":0.75,"delta":0.25,"totalExamples":10,"bonusSoFar":0.84},{"rt":null,"stimulus":"Sending examples to student... ","response":null,"trial_type":"html-keyboard-response","trial_index":69,"time_elapsed":945264,"internal_node_id":"0.0-50.0","params":{"nStudents":24,"maxFlips":30,"completionMinutes":45,"basePay":8,"maxBonus":9,"perTrialBonus":0.5,"perTrialBonusThreshold":0.05,"exampleCost":0.01},"classroomParams":{"A":{"a":1,"b":4},"B":{"a":4,"b":1},"C":{"a":2,"b":8},"D":{"a":8,"b":2}},"conditions":["nonSeqFull","nonSeqPartial","seqNoFeedback","seqFeedback"],"classroomPairings":[["A","B"],["C","D"]],"coinWeights":[0.2,0.5,0.8],"subjectId":"A2MUCL20GTQJA0","assignmentId":"3LYA37P8IR9EB4RP0OBPST02T47KB5","hitId":"3Z3R5YC0P3915KVY8X6BNRIWSQNFTT","url":"https://gershmanlab.com/experiments/alicia/teaching/experiment/?hitId=3Z3R5YC0P3915KVY8X6BNRIWSQNFTT&workerId=A2MUCL20GTQJA0&assignmentId=3LYA37P8IR9EB4RP0OBPST02T47KB5&a=83YL9&tp_a=83YL9&b=3LYA37P8IR9EB4RP0OBPST02T47KB5&tp_b=3LYA37P8IR9EB4RP0OBPST02T47KB5&c=365799&tp_c=365799"},{"rt":null,"stimulus":"Examples sent to student! Waiting for student...","response":null,"trial_type":"html-keyboard-response","trial_index":70,"time_elapsed":949770,"internal_node_id":"0.0-51.0","params":{"nStudents":24,"maxFlips":30,"completionMinutes":45,"basePay":8,"maxBonus":9,"perTrialBonus":0.5,"perTrialBonusThreshold":0.05,"exampleCost":0.01},"classroomParams":{"A":{"a":1,"b":4},"B":{"a":4,"b":1},"C":{"a":2,"b":8},"D":{"a":8,"b":2}},"conditions":["nonSeqFull","nonSeqPartial","seqNoFeedback","seqFeedback"],"classroomPairings":[["A","B"],["C","D"]],"coinWeights":[0.2,0.5,0.8],"subjectId":"A2MUCL20GTQJA0","assignmentId":"3LYA37P8IR9EB4RP0OBPST02T47KB5","hitId":"3Z3R5YC0P3915KVY8X6BNRIWSQNFTT","url":"https://gershmanlab.com/experiments/alicia/teaching/experiment/?hitId=3Z3R5YC0P3915KVY8X6BNRIWSQNFTT&workerId=A2MUCL20GTQJA0&assignmentId=3LYA37P8IR9EB4RP0OBPST02T47KB5&a=83YL9&tp_a=83YL9&b=3LYA37P8IR9EB4RP0OBPST02T47KB5&tp_b=3LYA37P8IR9EB4RP0OBPST02T47KB5&c=365799&tp_c=365799"},{"rt":10833,"response":{"heads":"6","tails":"1"},"type":"response","condition":"seqNoFeedback","trueTheta":0.5,"classrooms":["C","D"],"studentTrueClassroom":"D","exampleSet":"second","trial_type":"survey-html-form","trial_index":71,"time_elapsed":960605,"internal_node_id":"0.0-52.0-0.0","params":{"nStudents":24,"maxFlips":30,"completionMinutes":45,"basePay":8,"maxBonus":9,"perTrialBonus":0.5,"perTrialBonusThreshold":0.05,"exampleCost":0.01},"classroomParams":{"A":{"a":1,"b":4},"B":{"a":4,"b":1},"C":{"a":2,"b":8},"D":{"a":8,"b":2}},"conditions":["nonSeqFull","nonSeqPartial","seqNoFeedback","seqFeedback"],"classroomPairings":[["A","B"],["C","D"]],"coinWeights":[0.2,0.5,0.8],"subjectId":"A2MUCL20GTQJA0","assignmentId":"3LYA37P8IR9EB4RP0OBPST02T47KB5","hitId":"3Z3R5YC0P3915KVY8X6BNRIWSQNFTT","url":"https://gershmanlab.com/experiments/alicia/teaching/experiment/?hitId=3Z3R5YC0P3915KVY8X6BNRIWSQNFTT&workerId=A2MUCL20GTQJA0&assignmentId=3LYA37P8IR9EB4RP0OBPST02T47KB5&a=83YL9&tp_a=83YL9&b=3LYA37P8IR9EB4RP0OBPST02T47KB5&tp_b=3LYA37P8IR9EB4RP0OBPST02T47KB5&c=365799&tp_c=365799","firstResponseHeads":7,"firstResponseTails":3,"secondResponseHeads":6,"secondResponseTails":1,"totalHeads":13,"totalTails":4,"studentIndex":6,"studentTrueHypers":{"a":8,"b":2},"studentGuess":0.7777777777777778,"delta":0.2777777777777778,"bonus":0,"bonusSoFar":0.84,"totalExamples":17},{"rt":null,"stimulus":"Sending examples to student... ","response":null,"trial_type":"html-keyboard-response","trial_index":72,"time_elapsed":961865,"internal_node_id":"0.0-53.0","params":{"nStudents":24,"maxFlips":30,"completionMinutes":45,"basePay":8,"maxBonus":9,"perTrialBonus":0.5,"perTrialBonusThreshold":0.05,"exampleCost":0.01},"classroomParams":{"A":{"a":1,"b":4},"B":{"a":4,"b":1},"C":{"a":2,"b":8},"D":{"a":8,"b":2}},"conditions":["nonSeqFull","nonSeqPartial","seqNoFeedback","seqFeedback"],"classroomPairings":[["A","B"],["C","D"]],"coinWeights":[0.2,0.5,0.8],"subjectId":"A2MUCL20GTQJA0","assignmentId":"3LYA37P8IR9EB4RP0OBPST02T47KB5","hitId":"3Z3R5YC0P3915KVY8X6BNRIWSQNFTT","url":"https://gershmanlab.com/experiments/alicia/teaching/experiment/?hitId=3Z3R5YC0P3915KVY8X6BNRIWSQNFTT&workerId=A2MUCL20GTQJA0&assignmentId=3LYA37P8IR9EB4RP0OBPST02T47KB5&a=83YL9&tp_a=83YL9&b=3LYA37P8IR9EB4RP0OBPST02T47KB5&tp_b=3LYA37P8IR9EB4RP0OBPST02T47KB5&c=365799&tp_c=365799"},{"rt":null,"stimulus":"Examples sent to student! Waiting for student...","response":null,"trial_type":"html-keyboard-response","trial_index":73,"time_elapsed":967367,"internal_node_id":"0.0-54.0","params":{"nStudents":24,"maxFlips":30,"completionMinutes":45,"basePay":8,"maxBonus":9,"perTrialBonus":0.5,"perTrialBonusThreshold":0.05,"exampleCost":0.01},"classroomParams":{"A":{"a":1,"b":4},"B":{"a":4,"b":1},"C":{"a":2,"b":8},"D":{"a":8,"b":2}},"conditions":["nonSeqFull","nonSeqPartial","seqNoFeedback","seqFeedback"],"classroomPairings":[["A","B"],["C","D"]],"coinWeights":[0.2,0.5,0.8],"subjectId":"A2MUCL20GTQJA0","assignmentId":"3LYA37P8IR9EB4RP0OBPST02T47KB5","hitId":"3Z3R5YC0P3915KVY8X6BNRIWSQNFTT","url":"https://gershmanlab.com/experiments/alicia/teaching/experiment/?hitId=3Z3R5YC0P3915KVY8X6BNRIWSQNFTT&workerId=A2MUCL20GTQJA0&assignmentId=3LYA37P8IR9EB4RP0OBPST02T47KB5&a=83YL9&tp_a=83YL9&b=3LYA37P8IR9EB4RP0OBPST02T47KB5&tp_b=3LYA37P8IR9EB4RP0OBPST02T47KB5&c=365799&tp_c=365799"},{"rt":4515,"stimulus":"\n                <p>Student 7's first guess for coin weight: <b style=\"color:Tomato\";>0.75</b></p>\n                <p>Student 7's second guess for coin weight: <b style=\"color:Tomato\";>0.78</b></p>\n                <p>You received a bonus of <b>$0.00</b> based on the student's second guess.</p>\n                <p>Total bonus so far: <b>$0.84</b></p>\n                <p>Press any key to continue.</p>\n                ","response":"enter","trial_type":"html-keyboard-response","trial_index":74,"time_elapsed":971883,"internal_node_id":"0.0-55.0","params":{"nStudents":24,"maxFlips":30,"completionMinutes":45,"basePay":8,"maxBonus":9,"perTrialBonus":0.5,"perTrialBonusThreshold":0.05,"exampleCost":0.01},"classroomParams":{"A":{"a":1,"b":4},"B":{"a":4,"b":1},"C":{"a":2,"b":8},"D":{"a":8,"b":2}},"conditions":["nonSeqFull","nonSeqPartial","seqNoFeedback","seqFeedback"],"classroomPairings":[["A","B"],["C","D"]],"coinWeights":[0.2,0.5,0.8],"subjectId":"A2MUCL20GTQJA0","assignmentId":"3LYA37P8IR9EB4RP0OBPST02T47KB5","hitId":"3Z3R5YC0P3915KVY8X6BNRIWSQNFTT","url":"https://gershmanlab.com/experiments/alicia/teaching/experiment/?hitId=3Z3R5YC0P3915KVY8X6BNRIWSQNFTT&workerId=A2MUCL20GTQJA0&assignmentId=3LYA37P8IR9EB4RP0OBPST02T47KB5&a=83YL9&tp_a=83YL9&b=3LYA37P8IR9EB4RP0OBPST02T47KB5&tp_b=3LYA37P8IR9EB4RP0OBPST02T47KB5&c=365799&tp_c=365799"},{"rt":null,"stimulus":"<div style=\"font-size:60px;\">Next student</div>","response":null,"trial_type":"html-keyboard-response","trial_index":75,"time_elapsed":973895,"internal_node_id":"0.0-56.0-0.0","params":{"nStudents":24,"maxFlips":30,"completionMinutes":45,"basePay":8,"maxBonus":9,"perTrialBonus":0.5,"perTrialBonusThreshold":0.05,"exampleCost":0.01},"classroomParams":{"A":{"a":1,"b":4},"B":{"a":4,"b":1},"C":{"a":2,"b":8},"D":{"a":8,"b":2}},"conditions":["nonSeqFull","nonSeqPartial","seqNoFeedback","seqFeedback"],"classroomPairings":[["A","B"],["C","D"]],"coinWeights":[0.2,0.5,0.8],"subjectId":"A2MUCL20GTQJA0","assignmentId":"3LYA37P8IR9EB4RP0OBPST02T47KB5","hitId":"3Z3R5YC0P3915KVY8X6BNRIWSQNFTT","url":"https://gershmanlab.com/experiments/alicia/teaching/experiment/?hitId=3Z3R5YC0P3915KVY8X6BNRIWSQNFTT&workerId=A2MUCL20GTQJA0&assignmentId=3LYA37P8IR9EB4RP0OBPST02T47KB5&a=83YL9&tp_a=83YL9&b=3LYA37P8IR9EB4RP0OBPST02T47KB5&tp_b=3LYA37P8IR9EB4RP0OBPST02T47KB5&c=365799&tp_c=365799"},{"rt":1514,"stimulus":"\n            <h4 style=\"color:Orange;\">Student 8</h4>\n            <h2>The weight of your coin is <b style=\"color:Tomato;\">0.2</b>.</h2>\n            <p>In this block, you will be giving <b>one</b> set of examples to Student 8.</p>\n                <p>You will receive feedback at the end of the block.</p>\n            <p></p>","response":0,"trial_type":"html-button-response","trial_index":76,"time_elapsed":975410,"internal_node_id":"0.0-57.0","params":{"nStudents":24,"maxFlips":30,"completionMinutes":45,"basePay":8,"maxBonus":9,"perTrialBonus":0.5,"perTrialBonusThreshold":0.05,"exampleCost":0.01},"classroomParams":{"A":{"a":1,"b":4},"B":{"a":4,"b":1},"C":{"a":2,"b":8},"D":{"a":8,"b":2}},"conditions":["nonSeqFull","nonSeqPartial","seqNoFeedback","seqFeedback"],"classroomPairings":[["A","B"],["C","D"]],"coinWeights":[0.2,0.5,0.8],"subjectId":"A2MUCL20GTQJA0","assignmentId":"3LYA37P8IR9EB4RP0OBPST02T47KB5","hitId":"3Z3R5YC0P3915KVY8X6BNRIWSQNFTT","url":"https://gershmanlab.com/experiments/alicia/teaching/experiment/?hitId=3Z3R5YC0P3915KVY8X6BNRIWSQNFTT&workerId=A2MUCL20GTQJA0&assignmentId=3LYA37P8IR9EB4RP0OBPST02T47KB5&a=83YL9&tp_a=83YL9&b=3LYA37P8IR9EB4RP0OBPST02T47KB5&tp_b=3LYA37P8IR9EB4RP0OBPST02T47KB5&c=365799&tp_c=365799"},{"rt":11353,"response":{"heads":"5","tails":"10"},"type":"response","condition":"nonSeqFull","trueTheta":0.2,"classrooms":["A","B"],"studentTrueClassroom":"A","exampleSet":"first","trial_type":"survey-html-form","trial_index":77,"time_elapsed":986764,"internal_node_id":"0.0-58.0-0.0","params":{"nStudents":24,"maxFlips":30,"completionMinutes":45,"basePay":8,"maxBonus":9,"perTrialBonus":0.5,"perTrialBonusThreshold":0.05,"exampleCost":0.01},"classroomParams":{"A":{"a":1,"b":4},"B":{"a":4,"b":1},"C":{"a":2,"b":8},"D":{"a":8,"b":2}},"conditions":["nonSeqFull","nonSeqPartial","seqNoFeedback","seqFeedback"],"classroomPairings":[["A","B"],["C","D"]],"coinWeights":[0.2,0.5,0.8],"subjectId":"A2MUCL20GTQJA0","assignmentId":"3LYA37P8IR9EB4RP0OBPST02T47KB5","hitId":"3Z3R5YC0P3915KVY8X6BNRIWSQNFTT","url":"https://gershmanlab.com/experiments/alicia/teaching/experiment/?hitId=3Z3R5YC0P3915KVY8X6BNRIWSQNFTT&workerId=A2MUCL20GTQJA0&assignmentId=3LYA37P8IR9EB4RP0OBPST02T47KB5&a=83YL9&tp_a=83YL9&b=3LYA37P8IR9EB4RP0OBPST02T47KB5&tp_b=3LYA37P8IR9EB4RP0OBPST02T47KB5&c=365799&tp_c=365799","heads":5,"tails":10,"studentIndex":7,"studentTrueHypers":{"a":1,"b":4},"studentGuess":0.3,"delta":0.09999999999999998,"totalExamples":15,"bonus":0,"bonusSoFar":0.84},{"rt":null,"stimulus":"Sending examples to student... ","response":null,"trial_type":"html-keyboard-response","trial_index":78,"time_elapsed":988269,"internal_node_id":"0.0-59.0","params":{"nStudents":24,"maxFlips":30,"completionMinutes":45,"basePay":8,"maxBonus":9,"perTrialBonus":0.5,"perTrialBonusThreshold":0.05,"exampleCost":0.01},"classroomParams":{"A":{"a":1,"b":4},"B":{"a":4,"b":1},"C":{"a":2,"b":8},"D":{"a":8,"b":2}},"conditions":["nonSeqFull","nonSeqPartial","seqNoFeedback","seqFeedback"],"classroomPairings":[["A","B"],["C","D"]],"coinWeights":[0.2,0.5,0.8],"subjectId":"A2MUCL20GTQJA0","assignmentId":"3LYA37P8IR9EB4RP0OBPST02T47KB5","hitId":"3Z3R5YC0P3915KVY8X6BNRIWSQNFTT","url":"https://gershmanlab.com/experiments/alicia/teaching/experiment/?hitId=3Z3R5YC0P3915KVY8X6BNRIWSQNFTT&workerId=A2MUCL20GTQJA0&assignmentId=3LYA37P8IR9EB4RP0OBPST02T47KB5&a=83YL9&tp_a=83YL9&b=3LYA37P8IR9EB4RP0OBPST02T47KB5&tp_b=3LYA37P8IR9EB4RP0OBPST02T47KB5&c=365799&tp_c=365799"},{"rt":null,"stimulus":"Examples sent to student! Waiting for student...","response":null,"trial_type":"html-keyboard-response","trial_index":79,"time_elapsed":993285,"internal_node_id":"0.0-60.0","params":{"nStudents":24,"maxFlips":30,"completionMinutes":45,"basePay":8,"maxBonus":9,"perTrialBonus":0.5,"perTrialBonusThreshold":0.05,"exampleCost":0.01},"classroomParams":{"A":{"a":1,"b":4},"B":{"a":4,"b":1},"C":{"a":2,"b":8},"D":{"a":8,"b":2}},"conditions":["nonSeqFull","nonSeqPartial","seqNoFeedback","seqFeedback"],"classroomPairings":[["A","B"],["C","D"]],"coinWeights":[0.2,0.5,0.8],"subjectId":"A2MUCL20GTQJA0","assignmentId":"3LYA37P8IR9EB4RP0OBPST02T47KB5","hitId":"3Z3R5YC0P3915KVY8X6BNRIWSQNFTT","url":"https://gershmanlab.com/experiments/alicia/teaching/experiment/?hitId=3Z3R5YC0P3915KVY8X6BNRIWSQNFTT&workerId=A2MUCL20GTQJA0&assignmentId=3LYA37P8IR9EB4RP0OBPST02T47KB5&a=83YL9&tp_a=83YL9&b=3LYA37P8IR9EB4RP0OBPST02T47KB5&tp_b=3LYA37P8IR9EB4RP0OBPST02T47KB5&c=365799&tp_c=365799"},{"rt":2130,"stimulus":"\n                <p>Student's guess for coin weight: <b style=\"color:Tomato;\">0.30</b></p>\n                <p>You received a bonus of <b>$0</b>. Total bonus so far: <b>$0.84</b></b></p>\n                <p></p>\n                <p>Press any key to continue.</p>\n                ","response":"enter","trial_type":"html-keyboard-response","trial_index":80,"time_elapsed":995417,"internal_node_id":"0.0-61.0","params":{"nStudents":24,"maxFlips":30,"completionMinutes":45,"basePay":8,"maxBonus":9,"perTrialBonus":0.5,"perTrialBonusThreshold":0.05,"exampleCost":0.01},"classroomParams":{"A":{"a":1,"b":4},"B":{"a":4,"b":1},"C":{"a":2,"b":8},"D":{"a":8,"b":2}},"conditions":["nonSeqFull","nonSeqPartial","seqNoFeedback","seqFeedback"],"classroomPairings":[["A","B"],["C","D"]],"coinWeights":[0.2,0.5,0.8],"subjectId":"A2MUCL20GTQJA0","assignmentId":"3LYA37P8IR9EB4RP0OBPST02T47KB5","hitId":"3Z3R5YC0P3915KVY8X6BNRIWSQNFTT","url":"https://gershmanlab.com/experiments/alicia/teaching/experiment/?hitId=3Z3R5YC0P3915KVY8X6BNRIWSQNFTT&workerId=A2MUCL20GTQJA0&assignmentId=3LYA37P8IR9EB4RP0OBPST02T47KB5&a=83YL9&tp_a=83YL9&b=3LYA37P8IR9EB4RP0OBPST02T47KB5&tp_b=3LYA37P8IR9EB4RP0OBPST02T47KB5&c=365799&tp_c=365799"},{"rt":null,"stimulus":"<div style=\"font-size:60px;\">Next student</div>","response":null,"trial_type":"html-keyboard-response","trial_index":81,"time_elapsed":997924,"internal_node_id":"0.0-62.0-0.0","params":{"nStudents":24,"maxFlips":30,"completionMinutes":45,"basePay":8,"maxBonus":9,"perTrialBonus":0.5,"perTrialBonusThreshold":0.05,"exampleCost":0.01},"classroomParams":{"A":{"a":1,"b":4},"B":{"a":4,"b":1},"C":{"a":2,"b":8},"D":{"a":8,"b":2}},"conditions":["nonSeqFull","nonSeqPartial","seqNoFeedback","seqFeedback"],"classroomPairings":[["A","B"],["C","D"]],"coinWeights":[0.2,0.5,0.8],"subjectId":"A2MUCL20GTQJA0","assignmentId":"3LYA37P8IR9EB4RP0OBPST02T47KB5","hitId":"3Z3R5YC0P3915KVY8X6BNRIWSQNFTT","url":"https://gershmanlab.com/experiments/alicia/teaching/experiment/?hitId=3Z3R5YC0P3915KVY8X6BNRIWSQNFTT&workerId=A2MUCL20GTQJA0&assignmentId=3LYA37P8IR9EB4RP0OBPST02T47KB5&a=83YL9&tp_a=83YL9&b=3LYA37P8IR9EB4RP0OBPST02T47KB5&tp_b=3LYA37P8IR9EB4RP0OBPST02T47KB5&c=365799&tp_c=365799"},{"rt":2060,"stimulus":"\n            <h4 style=\"color:Orange;\">Student 9</h4>\n            <h2>The weight of your coin is <b style=\"color:Tomato;\">0.8</b>.</h2>\n            <p>In this block, you will be giving <b>two</b> sets of examples to Student 9.</p>\n                <p>You will receive feedback at the end of the block.</p>\n            <p></p>","response":0,"trial_type":"html-button-response","trial_index":82,"time_elapsed":999986,"internal_node_id":"0.0-63.0","params":{"nStudents":24,"maxFlips":30,"completionMinutes":45,"basePay":8,"maxBonus":9,"perTrialBonus":0.5,"perTrialBonusThreshold":0.05,"exampleCost":0.01},"classroomParams":{"A":{"a":1,"b":4},"B":{"a":4,"b":1},"C":{"a":2,"b":8},"D":{"a":8,"b":2}},"conditions":["nonSeqFull","nonSeqPartial","seqNoFeedback","seqFeedback"],"classroomPairings":[["A","B"],["C","D"]],"coinWeights":[0.2,0.5,0.8],"subjectId":"A2MUCL20GTQJA0","assignmentId":"3LYA37P8IR9EB4RP0OBPST02T47KB5","hitId":"3Z3R5YC0P3915KVY8X6BNRIWSQNFTT","url":"https://gershmanlab.com/experiments/alicia/teaching/experiment/?hitId=3Z3R5YC0P3915KVY8X6BNRIWSQNFTT&workerId=A2MUCL20GTQJA0&assignmentId=3LYA37P8IR9EB4RP0OBPST02T47KB5&a=83YL9&tp_a=83YL9&b=3LYA37P8IR9EB4RP0OBPST02T47KB5&tp_b=3LYA37P8IR9EB4RP0OBPST02T47KB5&c=365799&tp_c=365799"},{"rt":5386,"response":{"heads":"10","tails":"0"},"type":"response","condition":"seqNoFeedback","trueTheta":0.8,"classrooms":["C","D"],"studentTrueClassroom":"C","exampleSet":"first","trial_type":"survey-html-form","trial_index":83,"time_elapsed":1005373,"internal_node_id":"0.0-64.0-0.0","params":{"nStudents":24,"maxFlips":30,"completionMinutes":45,"basePay":8,"maxBonus":9,"perTrialBonus":0.5,"perTrialBonusThreshold":0.05,"exampleCost":0.01},"classroomParams":{"A":{"a":1,"b":4},"B":{"a":4,"b":1},"C":{"a":2,"b":8},"D":{"a":8,"b":2}},"conditions":["nonSeqFull","nonSeqPartial","seqNoFeedback","seqFeedback"],"classroomPairings":[["A","B"],["C","D"]],"coinWeights":[0.2,0.5,0.8],"subjectId":"A2MUCL20GTQJA0","assignmentId":"3LYA37P8IR9EB4RP0OBPST02T47KB5","hitId":"3Z3R5YC0P3915KVY8X6BNRIWSQNFTT","url":"https://gershmanlab.com/experiments/alicia/teaching/experiment/?hitId=3Z3R5YC0P3915KVY8X6BNRIWSQNFTT&workerId=A2MUCL20GTQJA0&assignmentId=3LYA37P8IR9EB4RP0OBPST02T47KB5&a=83YL9&tp_a=83YL9&b=3LYA37P8IR9EB4RP0OBPST02T47KB5&tp_b=3LYA37P8IR9EB4RP0OBPST02T47KB5&c=365799&tp_c=365799","heads":10,"tails":0,"studentIndex":8,"studentTrueHypers":{"a":2,"b":8},"studentGuess":0.6,"delta":0.20000000000000007,"totalExamples":10,"bonusSoFar":0.84},{"rt":null,"stimulus":"Sen