[{"rt":8780,"stimulus":"Welcome to the experiment. Press any key to begin.","response":"h","trial_type":"html-keyboard-response","trial_index":0,"time_elapsed":8795,"internal_node_id":"0.0-0.0","params":{"nStudents":24,"maxFlips":30,"completionMinutes":45,"basePay":8,"maxBonus":9,"perTrialBonus":0.5,"perTrialBonusThreshold":0.05,"exampleCost":0.01},"classroomParams":{"A":{"a":1,"b":4},"B":{"a":4,"b":1},"C":{"a":2,"b":8},"D":{"a":8,"b":2}},"conditions":["nonSeqFull","nonSeqPartial","seqNoFeedback","seqFeedback"],"classroomPairings":[["A","B"],["C","D"]],"coinWeights":[0.2,0.5,0.8],"subjectId":"A2NEFRREWF33YP","assignmentId":"34FNN24DCNV76TZX3TL3YFFLHM9Y5Q","hitId":"34XASH8KLQ89J2U8D314D7180O4PMV","url":"https://gershmanlab.com/experiments/alicia/teaching/experiment/?hitId=34XASH8KLQ89J2U8D314D7180O4PMV&workerId=A2NEFRREWF33YP&assignmentId=34FNN24DCNV76TZX3TL3YFFLHM9Y5Q&a=DNF47&tp_a=DNF47&b=34FNN24DCNV76TZX3TL3YFFLHM9Y5Q&tp_b=34FNN24DCNV76TZX3TL3YFFLHM9Y5Q&c=365717&tp_c=365717"},{"rt":12587,"stimulus":"\n        <h3>Please read this consent agreement carefully before deciding whether to participate in this experiment.</h3>\n        <p><b>Purpose of the research:</b> To examine how people teach effectively.</p>\n        <p><b>What you will do in this research:</b> You will teach students the weights of different coins.</p>\n        <p><b>Time required:</b> This experiment will take 45 minutes to complete.</p>\n        <p><b>Risks:</b> There are no anticipated risks associated with participating in this study.             The effects of participating should be comparable to those you would experience from viewing a computer monitor             and using a mouse and keyboard for the duration of the experiment.</p>\n        <p><b>Benefits:</b> The study provides important information about the nature of teaching.</p>\n        <p><b>Compensation:</b> You will receive <b>$8</b> for completing the experiment and a performance bonus of up to <b>$9</b>.</p>\n        <p><b>Confidentiality:</b> Your participation in this study will remain confidential.             No personally identifiable information will be associated with your data.             Your de-identified data may be shared with other researchers and used in future projects.</p>\n        <p><b>Participation and withdrawal:</b> Your participation in this study is completely voluntary and             you may refuse to participate or you may choose to withdraw at any time without penalty or loss of\n            benefits to which you are otherwise entitled.</p>\n        <p><b>How to contact the researcher:</b> If you have questions or concerns about your participation            or payment, or want to request a summary of research findings, please contact\n            Alicia Chen, aliciachen@college.harvard.edu.</p>\n        <p><b>Whom to contact about your rights in this research:</b> For questions, concerns, suggestions,             or complaints that have not been or cannot be addressed by the researcher, or to report             research-related harm, please contact the Committee on the Use of Human Subjects in Research at Harvard University,             1414 Massachusetts Avenue, Second Floor, Cambridge, MA 02138. Phone: 617-496-2847. Email: cuhs@fas.harvard.edu.</p>\n        ","response":0,"trial_type":"html-button-response","trial_index":1,"time_elapsed":21384,"internal_node_id":"0.0-1.0","params":{"nStudents":24,"maxFlips":30,"completionMinutes":45,"basePay":8,"maxBonus":9,"perTrialBonus":0.5,"perTrialBonusThreshold":0.05,"exampleCost":0.01},"classroomParams":{"A":{"a":1,"b":4},"B":{"a":4,"b":1},"C":{"a":2,"b":8},"D":{"a":8,"b":2}},"conditions":["nonSeqFull","nonSeqPartial","seqNoFeedback","seqFeedback"],"classroomPairings":[["A","B"],["C","D"]],"coinWeights":[0.2,0.5,0.8],"subjectId":"A2NEFRREWF33YP","assignmentId":"34FNN24DCNV76TZX3TL3YFFLHM9Y5Q","hitId":"34XASH8KLQ89J2U8D314D7180O4PMV","url":"https://gershmanlab.com/experiments/alicia/teaching/experiment/?hitId=34XASH8KLQ89J2U8D314D7180O4PMV&workerId=A2NEFRREWF33YP&assignmentId=34FNN24DCNV76TZX3TL3YFFLHM9Y5Q&a=DNF47&tp_a=DNF47&b=34FNN24DCNV76TZX3TL3YFFLHM9Y5Q&tp_b=34FNN24DCNV76TZX3TL3YFFLHM9Y5Q&c=365717&tp_c=365717"},{"view_history":[{"page_index":0,"viewing_time":5473},{"page_index":1,"viewing_time":4954},{"page_index":2,"viewing_time":42595},{"page_index":3,"viewing_time":40602},{"page_index":4,"viewing_time":18615},{"page_index":5,"viewing_time":32311},{"page_index":6,"viewing_time":50146}],"rt":194697,"trial_type":"instructions","trial_index":2,"time_elapsed":216082,"internal_node_id":"0.0-2.0-0.0","params":{"nStudents":24,"maxFlips":30,"completionMinutes":45,"basePay":8,"maxBonus":9,"perTrialBonus":0.5,"perTrialBonusThreshold":0.05,"exampleCost":0.01},"classroomParams":{"A":{"a":1,"b":4},"B":{"a":4,"b":1},"C":{"a":2,"b":8},"D":{"a":8,"b":2}},"conditions":["nonSeqFull","nonSeqPartial","seqNoFeedback","seqFeedback"],"classroomPairings":[["A","B"],["C","D"]],"coinWeights":[0.2,0.5,0.8],"subjectId":"A2NEFRREWF33YP","assignmentId":"34FNN24DCNV76TZX3TL3YFFLHM9Y5Q","hitId":"34XASH8KLQ89J2U8D314D7180O4PMV","url":"https://gershmanlab.com/experiments/alicia/teaching/experiment/?hitId=34XASH8KLQ89J2U8D314D7180O4PMV&workerId=A2NEFRREWF33YP&assignmentId=34FNN24DCNV76TZX3TL3YFFLHM9Y5Q&a=DNF47&tp_a=DNF47&b=34FNN24DCNV76TZX3TL3YFFLHM9Y5Q&tp_b=34FNN24DCNV76TZX3TL3YFFLHM9Y5Q&c=365717&tp_c=365717"},{"rt":134287,"response":{"Q0":"Students in different classrooms have seen a different proportion of fair and unfair coins before seeing the examples you select for them.","Q1":"By <b>considering the student's classroom information</b> so that I can teach efficiently and accurately/helpfully at the same time (because each example I give to the student costs money!).","Q2":"The coin lands heads 90% of the time.","Q3":"No, I will teach a <b>new</b> student each time.","Q4":"The students are also on the same alien planet as you, where coins can be unfair.","Q5":"Based on the student's second (and final) guess."},"question_order":[0,3,2,4,5,1],"trial_type":"survey-multi-choice","trial_index":3,"time_elapsed":350372,"internal_node_id":"0.0-2.0-1.0","params":{"nStudents":24,"maxFlips":30,"completionMinutes":45,"basePay":8,"maxBonus":9,"perTrialBonus":0.5,"perTrialBonusThreshold":0.05,"exampleCost":0.01},"classroomParams":{"A":{"a":1,"b":4},"B":{"a":4,"b":1},"C":{"a":2,"b":8},"D":{"a":8,"b":2}},"conditions":["nonSeqFull","nonSeqPartial","seqNoFeedback","seqFeedback"],"classroomPairings":[["A","B"],["C","D"]],"coinWeights":[0.2,0.5,0.8],"subjectId":"A2NEFRREWF33YP","assignmentId":"34FNN24DCNV76TZX3TL3YFFLHM9Y5Q","hitId":"34XASH8KLQ89J2U8D314D7180O4PMV","url":"https://gershmanlab.com/experiments/alicia/teaching/experiment/?hitId=34XASH8KLQ89J2U8D314D7180O4PMV&workerId=A2NEFRREWF33YP&assignmentId=34FNN24DCNV76TZX3TL3YFFLHM9Y5Q&a=DNF47&tp_a=DNF47&b=34FNN24DCNV76TZX3TL3YFFLHM9Y5Q&tp_b=34FNN24DCNV76TZX3TL3YFFLHM9Y5Q&c=365717&tp_c=365717","pass":false},{"rt":2259,"stimulus":"Oops, you have missed question(s) on the comprehension check! We'll show you the instructions again.","response":0,"trial_type":"html-button-response","trial_index":4,"time_elapsed":352634,"internal_node_id":"0.0-2.0-2.0-0.0","params":{"nStudents":24,"maxFlips":30,"completionMinutes":45,"basePay":8,"maxBonus":9,"perTrialBonus":0.5,"perTrialBonusThreshold":0.05,"exampleCost":0.01},"classroomParams":{"A":{"a":1,"b":4},"B":{"a":4,"b":1},"C":{"a":2,"b":8},"D":{"a":8,"b":2}},"conditions":["nonSeqFull","nonSeqPartial","seqNoFeedback","seqFeedback"],"classroomPairings":[["A","B"],["C","D"]],"coinWeights":[0.2,0.5,0.8],"subjectId":"A2NEFRREWF33YP","assignmentId":"34FNN24DCNV76TZX3TL3YFFLHM9Y5Q","hitId":"34XASH8KLQ89J2U8D314D7180O4PMV","url":"https://gershmanlab.com/experiments/alicia/teaching/experiment/?hitId=34XASH8KLQ89J2U8D314D7180O4PMV&workerId=A2NEFRREWF33YP&assignmentId=34FNN24DCNV76TZX3TL3YFFLHM9Y5Q&a=DNF47&tp_a=DNF47&b=34FNN24DCNV76TZX3TL3YFFLHM9Y5Q&tp_b=34FNN24DCNV76TZX3TL3YFFLHM9Y5Q&c=365717&tp_c=365717"},{"view_history":[{"page_index":0,"viewing_time":2968},{"page_index":1,"viewing_time":2309},{"page_index":2,"viewing_time":18609},{"page_index":3,"viewing_time":13408},{"page_index":4,"viewing_time":3486},{"page_index":5,"viewing_time":17037},{"page_index":6,"viewing_time":8035}],"rt":65853,"trial_type":"instructions","trial_index":5,"time_elapsed":418489,"internal_node_id":"0.0-2.1-0.1","params":{"nStudents":24,"maxFlips":30,"completionMinutes":45,"basePay":8,"maxBonus":9,"perTrialBonus":0.5,"perTrialBonusThreshold":0.05,"exampleCost":0.01},"classroomParams":{"A":{"a":1,"b":4},"B":{"a":4,"b":1},"C":{"a":2,"b":8},"D":{"a":8,"b":2}},"conditions":["nonSeqFull","nonSeqPartial","seqNoFeedback","seqFeedback"],"classroomPairings":[["A","B"],["C","D"]],"coinWeights":[0.2,0.5,0.8],"subjectId":"A2NEFRREWF33YP","assignmentId":"34FNN24DCNV76TZX3TL3YFFLHM9Y5Q","hitId":"34XASH8KLQ89J2U8D314D7180O4PMV","url":"https://gershmanlab.com/experiments/alicia/teaching/experiment/?hitId=34XASH8KLQ89J2U8D314D7180O4PMV&workerId=A2NEFRREWF33YP&assignmentId=34FNN24DCNV76TZX3TL3YFFLHM9Y5Q&a=DNF47&tp_a=DNF47&b=34FNN24DCNV76TZX3TL3YFFLHM9Y5Q&tp_b=34FNN24DCNV76TZX3TL3YFFLHM9Y5Q&c=365717&tp_c=365717"},{"rt":129524,"response":{"Q0":"Students in different classrooms will have seen a different number of heads and tails before seeing the examples you select for them.","Q1":"By <b>considering the student's classroom information</b> so that I can teach efficiently and accurately/helpfully at the same time (because each example I give to the student costs money!).","Q2":"The coin lands heads 90% of the time.","Q3":"No, I will teach a <b>new</b> student each time.","Q4":"The students are also on the same alien planet as you, where coins can be unfair.","Q5":"Based on the student's second (and final) guess."},"question_order":[0,1,3,5,2,4],"trial_type":"survey-multi-choice","trial_index":6,"time_elapsed":548014,"internal_node_id":"0.0-2.1-1.1","params":{"nStudents":24,"maxFlips":30,"completionMinutes":45,"basePay":8,"maxBonus":9,"perTrialBonus":0.5,"perTrialBonusThreshold":0.05,"exampleCost":0.01},"classroomParams":{"A":{"a":1,"b":4},"B":{"a":4,"b":1},"C":{"a":2,"b":8},"D":{"a":8,"b":2}},"conditions":["nonSeqFull","nonSeqPartial","seqNoFeedback","seqFeedback"],"classroomPairings":[["A","B"],["C","D"]],"coinWeights":[0.2,0.5,0.8],"subjectId":"A2NEFRREWF33YP","assignmentId":"34FNN24DCNV76TZX3TL3YFFLHM9Y5Q","hitId":"34XASH8KLQ89J2U8D314D7180O4PMV","url":"https://gershmanlab.com/experiments/alicia/teaching/experiment/?hitId=34XASH8KLQ89J2U8D314D7180O4PMV&workerId=A2NEFRREWF33YP&assignmentId=34FNN24DCNV76TZX3TL3YFFLHM9Y5Q&a=DNF47&tp_a=DNF47&b=34FNN24DCNV76TZX3TL3YFFLHM9Y5Q&tp_b=34FNN24DCNV76TZX3TL3YFFLHM9Y5Q&c=365717&tp_c=365717","pass":true},{"rt":null,"stimulus":"<div style=\"font-size:30px;\">Congrats on passing the comprehension quiz! The experiment will begin in a few seconds.</div>","response":null,"trial_type":"html-keyboard-response","trial_index":7,"time_elapsed":551018,"internal_node_id":"0.0-3.0","params":{"nStudents":24,"maxFlips":30,"completionMinutes":45,"basePay":8,"maxBonus":9,"perTrialBonus":0.5,"perTrialBonusThreshold":0.05,"exampleCost":0.01},"classroomParams":{"A":{"a":1,"b":4},"B":{"a":4,"b":1},"C":{"a":2,"b":8},"D":{"a":8,"b":2}},"conditions":["nonSeqFull","nonSeqPartial","seqNoFeedback","seqFeedback"],"classroomPairings":[["A","B"],["C","D"]],"coinWeights":[0.2,0.5,0.8],"subjectId":"A2NEFRREWF33YP","assignmentId":"34FNN24DCNV76TZX3TL3YFFLHM9Y5Q","hitId":"34XASH8KLQ89J2U8D314D7180O4PMV","url":"https://gershmanlab.com/experiments/alicia/teaching/experiment/?hitId=34XASH8KLQ89J2U8D314D7180O4PMV&workerId=A2NEFRREWF33YP&assignmentId=34FNN24DCNV76TZX3TL3YFFLHM9Y5Q&a=DNF47&tp_a=DNF47&b=34FNN24DCNV76TZX3TL3YFFLHM9Y5Q&tp_b=34FNN24DCNV76TZX3TL3YFFLHM9Y5Q&c=365717&tp_c=365717"},{"rt":null,"stimulus":"<div style=\"font-size:50px;\">First student</div>","response":null,"trial_type":"html-keyboard-response","trial_index":8,"time_elapsed":554032,"internal_node_id":"0.0-4.0","params":{"nStudents":24,"maxFlips":30,"completionMinutes":45,"basePay":8,"maxBonus":9,"perTrialBonus":0.5,"perTrialBonusThreshold":0.05,"exampleCost":0.01},"classroomParams":{"A":{"a":1,"b":4},"B":{"a":4,"b":1},"C":{"a":2,"b":8},"D":{"a":8,"b":2}},"conditions":["nonSeqFull","nonSeqPartial","seqNoFeedback","seqFeedback"],"classroomPairings":[["A","B"],["C","D"]],"coinWeights":[0.2,0.5,0.8],"subjectId":"A2NEFRREWF33YP","assignmentId":"34FNN24DCNV76TZX3TL3YFFLHM9Y5Q","hitId":"34XASH8KLQ89J2U8D314D7180O4PMV","url":"https://gershmanlab.com/experiments/alicia/teaching/experiment/?hitId=34XASH8KLQ89J2U8D314D7180O4PMV&workerId=A2NEFRREWF33YP&assignmentId=34FNN24DCNV76TZX3TL3YFFLHM9Y5Q&a=DNF47&tp_a=DNF47&b=34FNN24DCNV76TZX3TL3YFFLHM9Y5Q&tp_b=34FNN24DCNV76TZX3TL3YFFLHM9Y5Q&c=365717&tp_c=365717"},{"rt":6468,"stimulus":"\n            <h4 style=\"color:Orange;\">Student 1</h4>\n            <h2>The weight of your coin is <b style=\"color:Tomato;\">0.2</b>.</h2>\n            <p>In this block, you will be giving <b>one</b> set of examples to Student 1.</p>\n                <p>You will receive feedback at the end of the block.</p>\n            <p></p>","response":0,"trial_type":"html-button-response","trial_index":9,"time_elapsed":560501,"internal_node_id":"0.0-5.0","params":{"nStudents":24,"maxFlips":30,"completionMinutes":45,"basePay":8,"maxBonus":9,"perTrialBonus":0.5,"perTrialBonusThreshold":0.05,"exampleCost":0.01},"classroomParams":{"A":{"a":1,"b":4},"B":{"a":4,"b":1},"C":{"a":2,"b":8},"D":{"a":8,"b":2}},"conditions":["nonSeqFull","nonSeqPartial","seqNoFeedback","seqFeedback"],"classroomPairings":[["A","B"],["C","D"]],"coinWeights":[0.2,0.5,0.8],"subjectId":"A2NEFRREWF33YP","assignmentId":"34FNN24DCNV76TZX3TL3YFFLHM9Y5Q","hitId":"34XASH8KLQ89J2U8D314D7180O4PMV","url":"https://gershmanlab.com/experiments/alicia/teaching/experiment/?hitId=34XASH8KLQ89J2U8D314D7180O4PMV&workerId=A2NEFRREWF33YP&assignmentId=34FNN24DCNV76TZX3TL3YFFLHM9Y5Q&a=DNF47&tp_a=DNF47&b=34FNN24DCNV76TZX3TL3YFFLHM9Y5Q&tp_b=34FNN24DCNV76TZX3TL3YFFLHM9Y5Q&c=365717&tp_c=365717"},{"rt":32080,"response":{"heads":"2","tails":"8"},"type":"response","condition":"nonSeqPartial","trueTheta":0.2,"classrooms":["C","D"],"studentTrueClassroom":"D","exampleSet":"first","trial_type":"survey-html-form","trial_index":10,"time_elapsed":592583,"internal_node_id":"0.0-6.0-0.0","params":{"nStudents":24,"maxFlips":30,"completionMinutes":45,"basePay":8,"maxBonus":9,"perTrialBonus":0.5,"perTrialBonusThreshold":0.05,"exampleCost":0.01},"classroomParams":{"A":{"a":1,"b":4},"B":{"a":4,"b":1},"C":{"a":2,"b":8},"D":{"a":8,"b":2}},"conditions":["nonSeqFull","nonSeqPartial","seqNoFeedback","seqFeedback"],"classroomPairings":[["A","B"],["C","D"]],"coinWeights":[0.2,0.5,0.8],"subjectId":"A2NEFRREWF33YP","assignmentId":"34FNN24DCNV76TZX3TL3YFFLHM9Y5Q","hitId":"34XASH8KLQ89J2U8D314D7180O4PMV","url":"https://gershmanlab.com/experiments/alicia/teaching/experiment/?hitId=34XASH8KLQ89J2U8D314D7180O4PMV&workerId=A2NEFRREWF33YP&assignmentId=34FNN24DCNV76TZX3TL3YFFLHM9Y5Q&a=DNF47&tp_a=DNF47&b=34FNN24DCNV76TZX3TL3YFFLHM9Y5Q&tp_b=34FNN24DCNV76TZX3TL3YFFLHM9Y5Q&c=365717&tp_c=365717","heads":2,"tails":8,"studentIndex":0,"studentTrueHypers":{"a":8,"b":2},"studentGuess":0.5,"delta":0.3,"totalExamples":10,"bonus":0,"bonusSoFar":0},{"rt":null,"stimulus":"Sending examples to student... ","response":null,"trial_type":"html-keyboard-response","trial_index":11,"time_elapsed":594088,"internal_node_id":"0.0-7.0","params":{"nStudents":24,"maxFlips":30,"completionMinutes":45,"basePay":8,"maxBonus":9,"perTrialBonus":0.5,"perTrialBonusThreshold":0.05,"exampleCost":0.01},"classroomParams":{"A":{"a":1,"b":4},"B":{"a":4,"b":1},"C":{"a":2,"b":8},"D":{"a":8,"b":2}},"conditions":["nonSeqFull","nonSeqPartial","seqNoFeedback","seqFeedback"],"classroomPairings":[["A","B"],["C","D"]],"coinWeights":[0.2,0.5,0.8],"subjectId":"A2NEFRREWF33YP","assignmentId":"34FNN24DCNV76TZX3TL3YFFLHM9Y5Q","hitId":"34XASH8KLQ89J2U8D314D7180O4PMV","url":"https://gershmanlab.com/experiments/alicia/teaching/experiment/?hitId=34XASH8KLQ89J2U8D314D7180O4PMV&workerId=A2NEFRREWF33YP&assignmentId=34FNN24DCNV76TZX3TL3YFFLHM9Y5Q&a=DNF47&tp_a=DNF47&b=34FNN24DCNV76TZX3TL3YFFLHM9Y5Q&tp_b=34FNN24DCNV76TZX3TL3YFFLHM9Y5Q&c=365717&tp_c=365717"},{"rt":null,"stimulus":"Examples sent to student! Waiting for student...","response":null,"trial_type":"html-keyboard-response","trial_index":12,"time_elapsed":599590,"internal_node_id":"0.0-8.0","params":{"nStudents":24,"maxFlips":30,"completionMinutes":45,"basePay":8,"maxBonus":9,"perTrialBonus":0.5,"perTrialBonusThreshold":0.05,"exampleCost":0.01},"classroomParams":{"A":{"a":1,"b":4},"B":{"a":4,"b":1},"C":{"a":2,"b":8},"D":{"a":8,"b":2}},"conditions":["nonSeqFull","nonSeqPartial","seqNoFeedback","seqFeedback"],"classroomPairings":[["A","B"],["C","D"]],"coinWeights":[0.2,0.5,0.8],"subjectId":"A2NEFRREWF33YP","assignmentId":"34FNN24DCNV76TZX3TL3YFFLHM9Y5Q","hitId":"34XASH8KLQ89J2U8D314D7180O4PMV","url":"https://gershmanlab.com/experiments/alicia/teaching/experiment/?hitId=34XASH8KLQ89J2U8D314D7180O4PMV&workerId=A2NEFRREWF33YP&assignmentId=34FNN24DCNV76TZX3TL3YFFLHM9Y5Q&a=DNF47&tp_a=DNF47&b=34FNN24DCNV76TZX3TL3YFFLHM9Y5Q&tp_b=34FNN24DCNV76TZX3TL3YFFLHM9Y5Q&c=365717&tp_c=365717"},{"rt":3865,"stimulus":"\n                <p>Student's guess for coin weight: <b style=\"color:Tomato;\">0.50</b></p>\n                <p>You received a bonus of <b>$0</b>. Total bonus so far: <b>$0.00</b></b></p>\n                <p></p>\n                <p>Press any key to continue.</p>\n                ","response":"n","trial_type":"html-keyboard-response","trial_index":13,"time_elapsed":603456,"internal_node_id":"0.0-9.0","params":{"nStudents":24,"maxFlips":30,"completionMinutes":45,"basePay":8,"maxBonus":9,"perTrialBonus":0.5,"perTrialBonusThreshold":0.05,"exampleCost":0.01},"classroomParams":{"A":{"a":1,"b":4},"B":{"a":4,"b":1},"C":{"a":2,"b":8},"D":{"a":8,"b":2}},"conditions":["nonSeqFull","nonSeqPartial","seqNoFeedback","seqFeedback"],"classroomPairings":[["A","B"],["C","D"]],"coinWeights":[0.2,0.5,0.8],"subjectId":"A2NEFRREWF33YP","assignmentId":"34FNN24DCNV76TZX3TL3YFFLHM9Y5Q","hitId":"34XASH8KLQ89J2U8D314D7180O4PMV","url":"https://gershmanlab.com/experiments/alicia/teaching/experiment/?hitId=34XASH8KLQ89J2U8D314D7180O4PMV&workerId=A2NEFRREWF33YP&assignmentId=34FNN24DCNV76TZX3TL3YFFLHM9Y5Q&a=DNF47&tp_a=DNF47&b=34FNN24DCNV76TZX3TL3YFFLHM9Y5Q&tp_b=34FNN24DCNV76TZX3TL3YFFLHM9Y5Q&c=365717&tp_c=365717"},{"rt":null,"stimulus":"<div style=\"font-size:60px;\">Next student</div>","response":null,"trial_type":"html-keyboard-response","trial_index":14,"time_elapsed":606457,"internal_node_id":"0.0-10.0-0.0","params":{"nStudents":24,"maxFlips":30,"completionMinutes":45,"basePay":8,"maxBonus":9,"perTrialBonus":0.5,"perTrialBonusThreshold":0.05,"exampleCost":0.01},"classroomParams":{"A":{"a":1,"b":4},"B":{"a":4,"b":1},"C":{"a":2,"b":8},"D":{"a":8,"b":2}},"conditions":["nonSeqFull","nonSeqPartial","seqNoFeedback","seqFeedback"],"classroomPairings":[["A","B"],["C","D"]],"coinWeights":[0.2,0.5,0.8],"subjectId":"A2NEFRREWF33YP","assignmentId":"34FNN24DCNV76TZX3TL3YFFLHM9Y5Q","hitId":"34XASH8KLQ89J2U8D314D7180O4PMV","url":"https://gershmanlab.com/experiments/alicia/teaching/experiment/?hitId=34XASH8KLQ89J2U8D314D7180O4PMV&workerId=A2NEFRREWF33YP&assignmentId=34FNN24DCNV76TZX3TL3YFFLHM9Y5Q&a=DNF47&tp_a=DNF47&b=34FNN24DCNV76TZX3TL3YFFLHM9Y5Q&tp_b=34FNN24DCNV76TZX3TL3YFFLHM9Y5Q&c=365717&tp_c=365717"},{"rt":8119,"stimulus":"\n            <h4 style=\"color:Orange;\">Student 2</h4>\n            <h2>The weight of your coin is <b style=\"color:Tomato;\">0.5</b>.</h2>\n            <p>In this block, you will be giving <b>two</b> sets of examples to Student 2.</p>\n                <p>You will see the student's guess after the first set of examples. You will also receive feedback at the end of the block.</p>\n            <p>To earn the highest bonus, you will have to <b>take into consideration the student's guess</b> when you choose your second set of examples.</p>","response":0,"trial_type":"html-button-response","trial_index":15,"time_elapsed":614577,"internal_node_id":"0.0-11.0","params":{"nStudents":24,"maxFlips":30,"completionMinutes":45,"basePay":8,"maxBonus":9,"perTrialBonus":0.5,"perTrialBonusThreshold":0.05,"exampleCost":0.01},"classroomParams":{"A":{"a":1,"b":4},"B":{"a":4,"b":1},"C":{"a":2,"b":8},"D":{"a":8,"b":2}},"conditions":["nonSeqFull","nonSeqPartial","seqNoFeedback","seqFeedback"],"classroomPairings":[["A","B"],["C","D"]],"coinWeights":[0.2,0.5,0.8],"subjectId":"A2NEFRREWF33YP","assignmentId":"34FNN24DCNV76TZX3TL3YFFLHM9Y5Q","hitId":"34XASH8KLQ89J2U8D314D7180O4PMV","url":"https://gershmanlab.com/experiments/alicia/teaching/experiment/?hitId=34XASH8KLQ89J2U8D314D7180O4PMV&workerId=A2NEFRREWF33YP&assignmentId=34FNN24DCNV76TZX3TL3YFFLHM9Y5Q&a=DNF47&tp_a=DNF47&b=34FNN24DCNV76TZX3TL3YFFLHM9Y5Q&tp_b=34FNN24DCNV76TZX3TL3YFFLHM9Y5Q&c=365717&tp_c=365717"},{"rt":6866,"response":{"heads":"5","tails":"5"},"type":"response","condition":"seqFeedback","trueTheta":0.5,"classrooms":["C","D"],"studentTrueClassroom":"C","exampleSet":"first","trial_type":"survey-html-form","trial_index":16,"time_elapsed":621444,"internal_node_id":"0.0-12.0-0.0","params":{"nStudents":24,"maxFlips":30,"completionMinutes":45,"basePay":8,"maxBonus":9,"perTrialBonus":0.5,"perTrialBonusThreshold":0.05,"exampleCost":0.01},"classroomParams":{"A":{"a":1,"b":4},"B":{"a":4,"b":1},"C":{"a":2,"b":8},"D":{"a":8,"b":2}},"conditions":["nonSeqFull","nonSeqPartial","seqNoFeedback","seqFeedback"],"classroomPairings":[["A","B"],["C","D"]],"coinWeights":[0.2,0.5,0.8],"subjectId":"A2NEFRREWF33YP","assignmentId":"34FNN24DCNV76TZX3TL3YFFLHM9Y5Q","hitId":"34XASH8KLQ89J2U8D314D7180O4PMV","url":"https://gershmanlab.com/experiments/alicia/teaching/experiment/?hitId=34XASH8KLQ89J2U8D314D7180O4PMV&workerId=A2NEFRREWF33YP&assignmentId=34FNN24DCNV76TZX3TL3YFFLHM9Y5Q&a=DNF47&tp_a=DNF47&b=34FNN24DCNV76TZX3TL3YFFLHM9Y5Q&tp_b=34FNN24DCNV76TZX3TL3YFFLHM9Y5Q&c=365717&tp_c=365717","heads":5,"tails":5,"studentIndex":1,"studentTrueHypers":{"a":2,"b":8},"studentGuess":0.35,"delta":0.15000000000000002,"totalExamples":10,"bonusSoFar":0},{"rt":null,"stimulus":"Sending examples to student... ","response":null,"trial_type":"html-keyboard-response","trial_index":17,"time_elapsed":622946,"internal_node_id":"0.0-13.0","params":{"nStudents":24,"maxFlips":30,"completionMinutes":45,"basePay":8,"maxBonus":9,"perTrialBonus":0.5,"perTrialBonusThreshold":0.05,"exampleCost":0.01},"classroomParams":{"A":{"a":1,"b":4},"B":{"a":4,"b":1},"C":{"a":2,"b":8},"D":{"a":8,"b":2}},"conditions":["nonSeqFull","nonSeqPartial","seqNoFeedback","seqFeedback"],"classroomPairings":[["A","B"],["C","D"]],"coinWeights":[0.2,0.5,0.8],"subjectId":"A2NEFRREWF33YP","assignmentId":"34FNN24DCNV76TZX3TL3YFFLHM9Y5Q","hitId":"34XASH8KLQ89J2U8D314D7180O4PMV","url":"https://gershmanlab.com/experiments/alicia/teaching/experiment/?hitId=34XASH8KLQ89J2U8D314D7180O4PMV&workerId=A2NEFRREWF33YP&assignmentId=34FNN24DCNV76TZX3TL3YFFLHM9Y5Q&a=DNF47&tp_a=DNF47&b=34FNN24DCNV76TZX3TL3YFFLHM9Y5Q&tp_b=34FNN24DCNV76TZX3TL3YFFLHM9Y5Q&c=365717&tp_c=365717"},{"rt":null,"stimulus":"Examples sent to student! Waiting for student...","response":null,"trial_type":"html-keyboard-response","trial_index":18,"time_elapsed":628460,"internal_node_id":"0.0-14.0","params":{"nStudents":24,"maxFlips":30,"completionMinutes":45,"basePay":8,"maxBonus":9,"perTrialBonus":0.5,"perTrialBonusThreshold":0.05,"exampleCost":0.01},"classroomParams":{"A":{"a":1,"b":4},"B":{"a":4,"b":1},"C":{"a":2,"b":8},"D":{"a":8,"b":2}},"conditions":["nonSeqFull","nonSeqPartial","seqNoFeedback","seqFeedback"],"classroomPairings":[["A","B"],["C","D"]],"coinWeights":[0.2,0.5,0.8],"subjectId":"A2NEFRREWF33YP","assignmentId":"34FNN24DCNV76TZX3TL3YFFLHM9Y5Q","hitId":"34XASH8KLQ89J2U8D314D7180O4PMV","url":"https://gershmanlab.com/experiments/alicia/teaching/experiment/?hitId=34XASH8KLQ89J2U8D314D7180O4PMV&workerId=A2NEFRREWF33YP&assignmentId=34FNN24DCNV76TZX3TL3YFFLHM9Y5Q&a=DNF47&tp_a=DNF47&b=34FNN24DCNV76TZX3TL3YFFLHM9Y5Q&tp_b=34FNN24DCNV76TZX3TL3YFFLHM9Y5Q&c=365717&tp_c=365717"},{"rt":5437,"stimulus":"\n                <p>Student's guess for coin weight: <b style=\"color:Tomato;\">0.35</b></p>\n                <p></b></p>\n                <p>You will now send another set of examples to your student. <b>Remember to take your student's guess into consideration so that you can earn the highest bonus possible!</b> </p>\n                <p>Press any key to continue.</p>\n                ","response":"n","trial_type":"html-keyboard-response","trial_index":19,"time_elapsed":633898,"internal_node_id":"0.0-15.0","params":{"nStudents":24,"maxFlips":30,"completionMinutes":45,"basePay":8,"maxBonus":9,"perTrialBonus":0.5,"perTrialBonusThreshold":0.05,"exampleCost":0.01},"classroomParams":{"A":{"a":1,"b":4},"B":{"a":4,"b":1},"C":{"a":2,"b":8},"D":{"a":8,"b":2}},"conditions":["nonSeqFull","nonSeqPartial","seqNoFeedback","seqFeedback"],"classroomPairings":[["A","B"],["C","D"]],"coinWeights":[0.2,0.5,0.8],"subjectId":"A2NEFRREWF33YP","assignmentId":"34FNN24DCNV76TZX3TL3YFFLHM9Y5Q","hitId":"34XASH8KLQ89J2U8D314D7180O4PMV","url":"https://gershmanlab.com/experiments/alicia/teaching/experiment/?hitId=34XASH8KLQ89J2U8D314D7180O4PMV&workerId=A2NEFRREWF33YP&assignmentId=34FNN24DCNV76TZX3TL3YFFLHM9Y5Q&a=DNF47&tp_a=DNF47&b=34FNN24DCNV76TZX3TL3YFFLHM9Y5Q&tp_b=34FNN24DCNV76TZX3TL3YFFLHM9Y5Q&c=365717&tp_c=365717"},{"rt":15191,"response":{"heads":"5","tails":"5"},"type":"response","condition":"seqFeedback","trueTheta":0.5,"classrooms":["C","D"],"studentTrueClassroom":"C","exampleSet":"second","trial_type":"survey-html-form","trial_index":20,"time_elapsed":649089,"internal_node_id":"0.0-16.0-0.0","params":{"nStudents":24,"maxFlips":30,"completionMinutes":45,"basePay":8,"maxBonus":9,"perTrialBonus":0.5,"perTrialBonusThreshold":0.05,"exampleCost":0.01},"classroomParams":{"A":{"a":1,"b":4},"B":{"a":4,"b":1},"C":{"a":2,"b":8},"D":{"a":8,"b":2}},"conditions":["nonSeqFull","nonSeqPartial","seqNoFeedback","seqFeedback"],"classroomPairings":[["A","B"],["C","D"]],"coinWeights":[0.2,0.5,0.8],"subjectId":"A2NEFRREWF33YP","assignmentId":"34FNN24DCNV76TZX3TL3YFFLHM9Y5Q","hitId":"34XASH8KLQ89J2U8D314D7180O4PMV","url":"https://gershmanlab.com/experiments/alicia/teaching/experiment/?hitId=34XASH8KLQ89J2U8D314D7180O4PMV&workerId=A2NEFRREWF33YP&assignmentId=34FNN24DCNV76TZX3TL3YFFLHM9Y5Q&a=DNF47&tp_a=DNF47&b=34FNN24DCNV76TZX3TL3YFFLHM9Y5Q&tp_b=34FNN24DCNV76TZX3TL3YFFLHM9Y5Q&c=365717&tp_c=365717","firstResponseHeads":5,"firstResponseTails":5,"secondResponseHeads":5,"secondResponseTails":5,"totalHeads":10,"totalTails":10,"studentIndex":1,"studentTrueHypers":{"a":2,"b":8},"studentGuess":0.4,"delta":0.09999999999999998,"bonus":0,"bonusSoFar":0,"totalExamples":20},{"rt":null,"stimulus":"Sending examples to student... ","response":null,"trial_type":"html-keyboard-response","trial_index":21,"time_elapsed":651093,"internal_node_id":"0.0-17.0","params":{"nStudents":24,"maxFlips":30,"completionMinutes":45,"basePay":8,"maxBonus":9,"perTrialBonus":0.5,"perTrialBonusThreshold":0.05,"exampleCost":0.01},"classroomParams":{"A":{"a":1,"b":4},"B":{"a":4,"b":1},"C":{"a":2,"b":8},"D":{"a":8,"b":2}},"conditions":["nonSeqFull","nonSeqPartial","seqNoFeedback","seqFeedback"],"classroomPairings":[["A","B"],["C","D"]],"coinWeights":[0.2,0.5,0.8],"subjectId":"A2NEFRREWF33YP","assignmentId":"34FNN24DCNV76TZX3TL3YFFLHM9Y5Q","hitId":"34XASH8KLQ89J2U8D314D7180O4PMV","url":"https://gershmanlab.com/experiments/alicia/teaching/experiment/?hitId=34XASH8KLQ89J2U8D314D7180O4PMV&workerId=A2NEFRREWF33YP&assignmentId=34FNN24DCNV76TZX3TL3YFFLHM9Y5Q&a=DNF47&tp_a=DNF47&b=34FNN24DCNV76TZX3TL3YFFLHM9Y5Q&tp_b=34FNN24DCNV76TZX3TL3YFFLHM9Y5Q&c=365717&tp_c=365717"},{"rt":null,"stimulus":"Examples sent to student! Waiting for student...","response":null,"trial_type":"html-keyboard-response","trial_index":22,"time_elapsed":655593,"internal_node_id":"0.0-18.0","params":{"nStudents":24,"maxFlips":30,"completionMinutes":45,"basePay":8,"maxBonus":9,"perTrialBonus":0.5,"perTrialBonusThreshold":0.05,"exampleCost":0.01},"classroomParams":{"A":{"a":1,"b":4},"B":{"a":4,"b":1},"C":{"a":2,"b":8},"D":{"a":8,"b":2}},"conditions":["nonSeqFull","nonSeqPartial","seqNoFeedback","seqFeedback"],"classroomPairings":[["A","B"],["C","D"]],"coinWeights":[0.2,0.5,0.8],"subjectId":"A2NEFRREWF33YP","assignmentId":"34FNN24DCNV76TZX3TL3YFFLHM9Y5Q","hitId":"34XASH8KLQ89J2U8D314D7180O4PMV","url":"https://gershmanlab.com/experiments/alicia/teaching/experiment/?hitId=34XASH8KLQ89J2U8D314D7180O4PMV&workerId=A2NEFRREWF33YP&assignmentId=34FNN24DCNV76TZX3TL3YFFLHM9Y5Q&a=DNF47&tp_a=DNF47&b=34FNN24DCNV76TZX3TL3YFFLHM9Y5Q&tp_b=34FNN24DCNV76TZX3TL3YFFLHM9Y5Q&c=365717&tp_c=365717"},{"rt":6410,"stimulus":"\n                <p>Student 2's first guess for coin weight: <b style=\"color:Tomato\";>0.35</b></p>\n                <p>Student 2's second guess for coin weight: <b style=\"color:Tomato\";>0.40</b></p>\n                <p>You received a bonus of <b>$0.00</b> based on the student's second guess.</p>\n                <p>Total bonus so far: <b>$0.00</b></p>\n                <p>Press any key to continue.</p>\n                ","response":"j","trial_type":"html-keyboard-response","trial_index":23,"time_elapsed":662004,"internal_node_id":"0.0-19.0","params":{"nStudents":24,"maxFlips":30,"completionMinutes":45,"basePay":8,"maxBonus":9,"perTrialBonus":0.5,"perTrialBonusThreshold":0.05,"exampleCost":0.01},"classroomParams":{"A":{"a":1,"b":4},"B":{"a":4,"b":1},"C":{"a":2,"b":8},"D":{"a":8,"b":2}},"conditions":["nonSeqFull","nonSeqPartial","seqNoFeedback","seqFeedback"],"classroomPairings":[["A","B"],["C","D"]],"coinWeights":[0.2,0.5,0.8],"subjectId":"A2NEFRREWF33YP","assignmentId":"34FNN24DCNV76TZX3TL3YFFLHM9Y5Q","hitId":"34XASH8KLQ89J2U8D314D7180O4PMV","url":"https://gershmanlab.com/experiments/alicia/teaching/experiment/?hitId=34XASH8KLQ89J2U8D314D7180O4PMV&workerId=A2NEFRREWF33YP&assignmentId=34FNN24DCNV76TZX3TL3YFFLHM9Y5Q&a=DNF47&tp_a=DNF47&b=34FNN24DCNV76TZX3TL3YFFLHM9Y5Q&tp_b=34FNN24DCNV76TZX3TL3YFFLHM9Y5Q&c=365717&tp_c=365717"},{"rt":null,"stimulus":"<div style=\"font-size:60px;\">Next student</div>","response":null,"trial_type":"html-keyboard-response","trial_index":24,"time_elapsed":664514,"internal_node_id":"0.0-20.0-0.0","params":{"nStudents":24,"maxFlips":30,"completionMinutes":45,"basePay":8,"maxBonus":9,"perTrialBonus":0.5,"perTrialBonusThreshold":0.05,"exampleCost":0.01},"classroomParams":{"A":{"a":1,"b":4},"B":{"a":4,"b":1},"C":{"a":2,"b":8},"D":{"a":8,"b":2}},"conditions":["nonSeqFull","nonSeqPartial","seqNoFeedback","seqFeedback"],"classroomPairings":[["A","B"],["C","D"]],"coinWeights":[0.2,0.5,0.8],"subjectId":"A2NEFRREWF33YP","assignmentId":"34FNN24DCNV76TZX3TL3YFFLHM9Y5Q","hitId":"34XASH8KLQ89J2U8D314D7180O4PMV","url":"https://gershmanlab.com/experiments/alicia/teaching/experiment/?hitId=34XASH8KLQ89J2U8D314D7180O4PMV&workerId=A2NEFRREWF33YP&assignmentId=34FNN24DCNV76TZX3TL3YFFLHM9Y5Q&a=DNF47&tp_a=DNF47&b=34FNN24DCNV76TZX3TL3YFFLHM9Y5Q&tp_b=34FNN24DCNV76TZX3TL3YFFLHM9Y5Q&c=365717&tp_c=365717"},{"rt":1560,"stimulus":"\n            <h4 style=\"color:Orange;\">Student 3</h4>\n            <h2>The weight of your coin is <b style=\"color:Tomato;\">0.2</b>.</h2>\n            <p>In this block, you will be giving <b>one</b> set of examples to Student 3.</p>\n                <p>You will receive feedback at the end of the block.</p>\n            <p></p>","response":0,"trial_type":"html-button-response","trial_index":25,"time_elapsed":666075,"internal_node_id":"0.0-21.0","params":{"nStudents":24,"maxFlips":30,"completionMinutes":45,"basePay":8,"maxBonus":9,"perTrialBonus":0.5,"perTrialBonusThreshold":0.05,"exampleCost":0.01},"classroomParams":{"A":{"a":1,"b":4},"B":{"a":4,"b":1},"C":{"a":2,"b":8},"D":{"a":8,"b":2}},"conditions":["nonSeqFull","nonSeqPartial","seqNoFeedback","seqFeedback"],"classroomPairings":[["A","B"],["C","D"]],"coinWeights":[0.2,0.5,0.8],"subjectId":"A2NEFRREWF33YP","assignmentId":"34FNN24DCNV76TZX3TL3YFFLHM9Y5Q","hitId":"34XASH8KLQ89J2U8D314D7180O4PMV","url":"https://gershmanlab.com/experiments/alicia/teaching/experiment/?hitId=34XASH8KLQ89J2U8D314D7180O4PMV&workerId=A2NEFRREWF33YP&assignmentId=34FNN24DCNV76TZX3TL3YFFLHM9Y5Q&a=DNF47&tp_a=DNF47&b=34FNN24DCNV76TZX3TL3YFFLHM9Y5Q&tp_b=34FNN24DCNV76TZX3TL3YFFLHM9Y5Q&c=365717&tp_c=365717"},{"rt":9015,"response":{"heads":"3","tails":"7"},"type":"response","condition":"nonSeqFull","trueTheta":0.2,"classrooms":["A","B"],"studentTrueClassroom":"A","exampleSet":"first","trial_type":"survey-html-form","trial_index":26,"time_elapsed":675091,"internal_node_id":"0.0-22.0-0.0","params":{"nStudents":24,"maxFlips":30,"completionMinutes":45,"basePay":8,"maxBonus":9,"perTrialBonus":0.5,"perTrialBonusThreshold":0.05,"exampleCost":0.01},"classroomParams":{"A":{"a":1,"b":4},"B":{"a":4,"b":1},"C":{"a":2,"b":8},"D":{"a":8,"b":2}},"conditions":["nonSeqFull","nonSeqPartial","seqNoFeedback","seqFeedback"],"classroomPairings":[["A","B"],["C","D"]],"coinWeights":[0.2,0.5,0.8],"subjectId":"A2NEFRREWF33YP","assignmentId":"34FNN24DCNV76TZX3TL3YFFLHM9Y5Q","hitId":"34XASH8KLQ89J2U8D314D7180O4PMV","url":"https://gershmanlab.com/experiments/alicia/teaching/experiment/?hitId=34XASH8KLQ89J2U8D314D7180O4PMV&workerId=A2NEFRREWF33YP&assignmentId=34FNN24DCNV76TZX3TL3YFFLHM9Y5Q&a=DNF47&tp_a=DNF47&b=34FNN24DCNV76TZX3TL3YFFLHM9Y5Q&tp_b=34FNN24DCNV76TZX3TL3YFFLHM9Y5Q&c=365717&tp_c=365717","heads":3,"tails":7,"studentIndex":2,"studentTrueHypers":{"a":1,"b":4},"studentGuess":0.26666666666666666,"delta":0.06666666666666665,"totalExamples":10,"bonus":0,"bonusSoFar":0},{"rt":null,"stimulus":"Sending examples to student... ","response":null,"trial_type":"html-keyboard-response","trial_index":27,"time_elapsed":676603,"internal_node_id":"0.0-23.0","params":{"nStudents":24,"maxFlips":30,"completionMinutes":45,"basePay":8,"maxBonus":9,"perTrialBonus":0.5,"perTrialBonusThreshold":0.05,"exampleCost":0.01},"classroomParams":{"A":{"a":1,"b":4},"B":{"a":4,"b":1},"C":{"a":2,"b":8},"D":{"a":8,"b":2}},"conditions":["nonSeqFull","nonSeqPartial","seqNoFeedback","seqFeedback"],"classroomPairings":[["A","B"],["C","D"]],"coinWeights":[0.2,0.5,0.8],"subjectId":"A2NEFRREWF33YP","assignmentId":"34FNN24DCNV76TZX3TL3YFFLHM9Y5Q","hitId":"34XASH8KLQ89J2U8D314D7180O4PMV","url":"https://gershmanlab.com/experiments/alicia/teaching/experiment/?hitId=34XASH8KLQ89J2U8D314D7180O4PMV&workerId=A2NEFRREWF33YP&assignmentId=34FNN24DCNV76TZX3TL3YFFLHM9Y5Q&a=DNF47&tp_a=DNF47&b=34FNN24DCNV76TZX3TL3YFFLHM9Y5Q&tp_b=34FNN24DCNV76TZX3TL3YFFLHM9Y5Q&c=365717&tp_c=365717"},{"rt":null,"stimulus":"Examples sent to student! Waiting for student...","response":null,"trial_type":"html-keyboard-response","trial_index":28,"time_elapsed":680606,"internal_node_id":"0.0-24.0","params":{"nStudents":24,"maxFlips":30,"completionMinutes":45,"basePay":8,"maxBonus":9,"perTrialBonus":0.5,"perTrialBonusThreshold":0.05,"exampleCost":0.01},"classroomParams":{"A":{"a":1,"b":4},"B":{"a":4,"b":1},"C":{"a":2,"b":8},"D":{"a":8,"b":2}},"conditions":["nonSeqFull","nonSeqPartial","seqNoFeedback","seqFeedback"],"classroomPairings":[["A","B"],["C","D"]],"coinWeights":[0.2,0.5,0.8],"subjectId":"A2NEFRREWF33YP","assignmentId":"34FNN24DCNV76TZX3TL3YFFLHM9Y5Q","hitId":"34XASH8KLQ89J2U8D314D7180O4PMV","url":"https://gershmanlab.com/experiments/alicia/teaching/experiment/?hitId=34XASH8KLQ89J2U8D314D7180O4PMV&workerId=A2NEFRREWF33YP&assignmentId=34FNN24DCNV76TZX3TL3YFFLHM9Y5Q&a=DNF47&tp_a=DNF47&b=34FNN24DCNV76TZX3TL3YFFLHM9Y5Q&tp_b=34FNN24DCNV76TZX3TL3YFFLHM9Y5Q&c=365717&tp_c=365717"},{"rt":5122,"stimulus":"\n                <p>Student's guess for coin weight: <b style=\"color:Tomato;\">0.27</b></p>\n                <p>You received a bonus of <b>$0</b>. Total bonus so far: <b>$0.00</b></b></p>\n                <p></p>\n                <p>Press any key to continue.</p>\n                ","response":"j","trial_type":"html-keyboard-response","trial_index":29,"time_elapsed":685729,"internal_node_id":"0.0-25.0","params":{"nStudents":24,"maxFlips":30,"completionMinutes":45,"basePay":8,"maxBonus":9,"perTrialBonus":0.5,"perTrialBonusThreshold":0.05,"exampleCost":0.01},"classroomParams":{"A":{"a":1,"b":4},"B":{"a":4,"b":1},"C":{"a":2,"b":8},"D":{"a":8,"b":2}},"conditions":["nonSeqFull","nonSeqPartial","seqNoFeedback","seqFeedback"],"classroomPairings":[["A","B"],["C","D"]],"coinWeights":[0.2,0.5,0.8],"subjectId":"A2NEFRREWF33YP","assignmentId":"34FNN24DCNV76TZX3TL3YFFLHM9Y5Q","hitId":"34XASH8KLQ89J2U8D314D7180O4PMV","url":"https://gershmanlab.com/experiments/alicia/teaching/experiment/?hitId=34XASH8KLQ89J2U8D314D7180O4PMV&workerId=A2NEFRREWF33YP&assignmentId=34FNN24DCNV76TZX3TL3YFFLHM9Y5Q&a=DNF47&tp_a=DNF47&b=34FNN24DCNV76TZX3TL3YFFLHM9Y5Q&tp_b=34FNN24DCNV76TZX3TL3YFFLHM9Y5Q&c=365717&tp_c=365717"},{"rt":null,"stimulus":"<div style=\"font-size:60px;\">Next student</div>","response":null,"trial_type":"html-keyboard-response","trial_index":30,"time_elapsed":687730,"internal_node_id":"0.0-26.0-0.0","params":{"nStudents":24,"maxFlips":30,"completionMinutes":45,"basePay":8,"maxBonus":9,"perTrialBonus":0.5,"perTrialBonusThreshold":0.05,"exampleCost":0.01},"classroomParams":{"A":{"a":1,"b":4},"B":{"a":4,"b":1},"C":{"a":2,"b":8},"D":{"a":8,"b":2}},"conditions":["nonSeqFull","nonSeqPartial","seqNoFeedback","seqFeedback"],"classroomPairings":[["A","B"],["C","D"]],"coinWeights":[0.2,0.5,0.8],"subjectId":"A2NEFRREWF33YP","assignmentId":"34FNN24DCNV76TZX3TL3YFFLHM9Y5Q","hitId":"34XASH8KLQ89J2U8D314D7180O4PMV","url":"https://gershmanlab.com/experiments/alicia/teaching/experiment/?hitId=34XASH8KLQ89J2U8D314D7180O4PMV&workerId=A2NEFRREWF33YP&assignmentId=34FNN24DCNV76TZX3TL3YFFLHM9Y5Q&a=DNF47&tp_a=DNF47&b=34FNN24DCNV76TZX3TL3YFFLHM9Y5Q&tp_b=34FNN24DCNV76TZX3TL3YFFLHM9Y5Q&c=365717&tp_c=365717"},{"rt":4649,"stimulus":"\n            <h4 style=\"color:Orange;\">Student 4</h4>\n            <h2>The weight of your coin is <b style=\"color:Tomato;\">0.2</b>.</h2>\n            <p>In this block, you will be giving <b>one</b> set of examples to Student 4.</p>\n                <p>You will receive feedback at the end of the block.</p>\n            <p></p>","response":0,"trial_type":"html-button-response","trial_index":31,"time_elapsed":692380,"internal_node_id":"0.0-27.0","params":{"nStudents":24,"maxFlips":30,"completionMinutes":45,"basePay":8,"maxBonus":9,"perTrialBonus":0.5,"perTrialBonusThreshold":0.05,"exampleCost":0.01},"classroomParams":{"A":{"a":1,"b":4},"B":{"a":4,"b":1},"C":{"a":2,"b":8},"D":{"a":8,"b":2}},"conditions":["nonSeqFull","nonSeqPartial","seqNoFeedback","seqFeedback"],"classroomPairings":[["A","B"],["C","D"]],"coinWeights":[0.2,0.5,0.8],"subjectId":"A2NEFRREWF33YP","assignmentId":"34FNN24DCNV76TZX3TL3YFFLHM9Y5Q","hitId":"34XASH8KLQ89J2U8D314D7180O4PMV","url":"https://gershmanlab.com/experiments/alicia/teaching/experiment/?hitId=34XASH8KLQ89J2U8D314D7180O4PMV&workerId=A2NEFRREWF33YP&assignmentId=34FNN24DCNV76TZX3TL3YFFLHM9Y5Q&a=DNF47&tp_a=DNF47&b=34FNN24DCNV76TZX3TL3YFFLHM9Y5Q&tp_b=34FNN24DCNV76TZX3TL3YFFLHM9Y5Q&c=365717&tp_c=365717"},{"rt":16344,"response":{"heads":"0","tails":"8"},"type":"response","condition":"nonSeqFull","trueTheta":0.2,"classrooms":["C","D"],"studentTrueClassroom":"C","exampleSet":"first","trial_type":"survey-html-form","trial_index":32,"time_elapsed":708724,"internal_node_id":"0.0-28.0-0.0","params":{"nStudents":24,"maxFlips":30,"completionMinutes":45,"basePay":8,"maxBonus":9,"perTrialBonus":0.5,"perTrialBonusThreshold":0.05,"exampleCost":0.01},"classroomParams":{"A":{"a":1,"b":4},"B":{"a":4,"b":1},"C":{"a":2,"b":8},"D":{"a":8,"b":2}},"conditions":["nonSeqFull","nonSeqPartial","seqNoFeedback","seqFeedback"],"classroomPairings":[["A","B"],["C","D"]],"coinWeights":[0.2,0.5,0.8],"subjectId":"A2NEFRREWF33YP","assignmentId":"34FNN24DCNV76TZX3TL3YFFLHM9Y5Q","hitId":"34XASH8KLQ89J2U8D314D7180O4PMV","url":"https://gershmanlab.com/experiments/alicia/teaching/experiment/?hitId=34XASH8KLQ89J2U8D314D7180O4PMV&workerId=A2NEFRREWF33YP&assignmentId=34FNN24DCNV76TZX3TL3YFFLHM9Y5Q&a=DNF47&tp_a=DNF47&b=34FNN24DCNV76TZX3TL3YFFLHM9Y5Q&tp_b=34FNN24DCNV76TZX3TL3YFFLHM9Y5Q&c=365717&tp_c=365717","heads":0,"tails":8,"studentIndex":3,"studentTrueHypers":{"a":2,"b":8},"studentGuess":0.1111111111111111,"delta":0.0888888888888889,"totalExamples":8,"bonus":0,"bonusSoFar":0},{"rt":null,"stimulus":"Sending examples to student... ","response":null,"trial_type":"html-keyboard-response","trial_index":33,"time_elapsed":710476,"internal_node_id":"0.0-29.0","params":{"nStudents":24,"maxFlips":30,"completionMinutes":45,"basePay":8,"maxBonus":9,"perTrialBonus":0.5,"perTrialBonusThreshold":0.05,"exampleCost":0.01},"classroomParams":{"A":{"a":1,"b":4},"B":{"a":4,"b":1},"C":{"a":2,"b":8},"D":{"a":8,"b":2}},"conditions":["nonSeqFull","nonSeqPartial","seqNoFeedback","seqFeedback"],"classroomPairings":[["A","B"],["C","D"]],"coinWeights":[0.2,0.5,0.8],"subjectId":"A2NEFRREWF33YP","assignmentId":"34FNN24DCNV76TZX3TL3YFFLHM9Y5Q","hitId":"34XASH8KLQ89J2U8D314D7180O4PMV","url":"https://gershmanlab.com/experiments/alicia/teaching/experiment/?hitId=34XASH8KLQ89J2U8D314D7180O4PMV&workerId=A2NEFRREWF33YP&assignmentId=34FNN24DCNV76TZX3TL3YFFLHM9Y5Q&a=DNF47&tp_a=DNF47&b=34FNN24DCNV76TZX3TL3YFFLHM9Y5Q&tp_b=34FNN24DCNV76TZX3TL3YFFLHM9Y5Q&c=365717&tp_c=365717"},{"rt":null,"stimulus":"Examples sent to student! Waiting for student...","response":null,"trial_type":"html-keyboard-response","trial_index":34,"time_elapsed":714987,"internal_node_id":"0.0-30.0","params":{"nStudents":24,"maxFlips":30,"completionMinutes":45,"basePay":8,"maxBonus":9,"perTrialBonus":0.5,"perTrialBonusThreshold":0.05,"exampleCost":0.01},"classroomParams":{"A":{"a":1,"b":4},"B":{"a":4,"b":1},"C":{"a":2,"b":8},"D":{"a":8,"b":2}},"conditions":["nonSeqFull","nonSeqPartial","seqNoFeedback","seqFeedback"],"classroomPairings":[["A","B"],["C","D"]],"coinWeights":[0.2,0.5,0.8],"subjectId":"A2NEFRREWF33YP","assignmentId":"34FNN24DCNV76TZX3TL3YFFLHM9Y5Q","hitId":"34XASH8KLQ89J2U8D314D7180O4PMV","url":"https://gershmanlab.com/experiments/alicia/teaching/experiment/?hitId=34XASH8KLQ89J2U8D314D7180O4PMV&workerId=A2NEFRREWF33YP&assignmentId=34FNN24DCNV76TZX3TL3YFFLHM9Y5Q&a=DNF47&tp_a=DNF47&b=34FNN24DCNV76TZX3TL3YFFLHM9Y5Q&tp_b=34FNN24DCNV76TZX3TL3YFFLHM9Y5Q&c=365717&tp_c=365717"},{"rt":3263,"stimulus":"\n                <p>Student's guess for coin weight: <b style=\"color:Tomato;\">0.11</b></p>\n                <p>You received a bonus of <b>$0</b>. Total bonus so far: <b>$0.00</b></b></p>\n                <p></p>\n                <p>Press any key to continue.</p>\n                ","response":"8","trial_type":"html-keyboard-response","trial_index":35,"time_elapsed":718250,"internal_node_id":"0.0-31.0","params":{"nStudents":24,"maxFlips":30,"completionMinutes":45,"basePay":8,"maxBonus":9,"perTrialBonus":0.5,"perTrialBonusThreshold":0.05,"exampleCost":0.01},"classroomParams":{"A":{"a":1,"b":4},"B":{"a":4,"b":1},"C":{"a":2,"b":8},"D":{"a":8,"b":2}},"conditions":["nonSeqFull","nonSeqPartial","seqNoFeedback","seqFeedback"],"classroomPairings":[["A","B"],["C","D"]],"coinWeights":[0.2,0.5,0.8],"subjectId":"A2NEFRREWF33YP","assignmentId":"34FNN24DCNV76TZX3TL3YFFLHM9Y5Q","hitId":"34XASH8KLQ89J2U8D314D7180O4PMV","url":"https://gershmanlab.com/experiments/alicia/teaching/experiment/?hitId=34XASH8KLQ89J2U8D314D7180O4PMV&workerId=A2NEFRREWF33YP&assignmentId=34FNN24DCNV76TZX3TL3YFFLHM9Y5Q&a=DNF47&tp_a=DNF47&b=34FNN24DCNV76TZX3TL3YFFLHM9Y5Q&tp_b=34FNN24DCNV76TZX3TL3YFFLHM9Y5Q&c=365717&tp_c=365717"},{"rt":null,"stimulus":"<div style=\"font-size:60px;\">Next student</div>","response":null,"trial_type":"html-keyboard-response","trial_index":36,"time_elapsed":720501,"internal_node_id":"0.0-32.0-0.0","params":{"nStudents":24,"maxFlips":30,"completionMinutes":45,"basePay":8,"maxBonus":9,"perTrialBonus":0.5,"perTrialBonusThreshold":0.05,"exampleCost":0.01},"classroomParams":{"A":{"a":1,"b":4},"B":{"a":4,"b":1},"C":{"a":2,"b":8},"D":{"a":8,"b":2}},"conditions":["nonSeqFull","nonSeqPartial","seqNoFeedback","seqFeedback"],"classroomPairings":[["A","B"],["C","D"]],"coinWeights":[0.2,0.5,0.8],"subjectId":"A2NEFRREWF33YP","assignmentId":"34FNN24DCNV76TZX3TL3YFFLHM9Y5Q","hitId":"34XASH8KLQ89J2U8D314D7180O4PMV","url":"https://gershmanlab.com/experiments/alicia/teaching/experiment/?hitId=34XASH8KLQ89J2U8D314D7180O4PMV&workerId=A2NEFRREWF33YP&assignmentId=34FNN24DCNV76TZX3TL3YFFLHM9Y5Q&a=DNF47&tp_a=DNF47&b=34FNN24DCNV76TZX3TL3YFFLHM9Y5Q&tp_b=34FNN24DCNV76TZX3TL3YFFLHM9Y5Q&c=365717&tp_c=365717"},{"rt":2937,"stimulus":"\n            <h4 style=\"color:Orange;\">Student 5</h4>\n            <h2>The weight of your coin is <b style=\"color:Tomato;\">0.5</b>.</h2>\n            <p>In this block, you will be giving <b>two</b> sets of examples to Student 5.</p>\n                <p>You will see the student's guess after the first set of examples. You will also receive feedback at the end of the block.</p>\n            <p>To earn the highest bonus, you will have to <b>take into consideration the student's guess</b> when you choose your second set of examples.</p>","response":0,"trial_type":"html-button-response","trial_index":37,"time_elapsed":723440,"internal_node_id":"0.0-33.0","params":{"nStudents":24,"maxFlips":30,"completionMinutes":45,"basePay":8,"maxBonus":9,"perTrialBonus":0.5,"perTrialBonusThreshold":0.05,"exampleCost":0.01},"classroomParams":{"A":{"a":1,"b":4},"B":{"a":4,"b":1},"C":{"a":2,"b":8},"D":{"a":8,"b":2}},"conditions":["nonSeqFull","nonSeqPartial","seqNoFeedback","seqFeedback"],"classroomPairings":[["A","B"],["C","D"]],"coinWeights":[0.2,0.5,0.8],"subjectId":"A2NEFRREWF33YP","assignmentId":"34FNN24DCNV76TZX3TL3YFFLHM9Y5Q","hitId":"34XASH8KLQ89J2U8D314D7180O4PMV","url":"https://gershmanlab.com/experiments/alicia/teaching/experiment/?hitId=34XASH8KLQ89J2U8D314D7180O4PMV&workerId=A2NEFRREWF33YP&assignmentId=34FNN24DCNV76TZX3TL3YFFLHM9Y5Q&a=DNF47&tp_a=DNF47&b=34FNN24DCNV76TZX3TL3YFFLHM9Y5Q&tp_b=34FNN24DCNV76TZX3TL3YFFLHM9Y5Q&c=365717&tp_c=365717"},{"rt":14064,"response":{"heads":"5","tails":"0"},"type":"response","condition":"seqFeedback","trueTheta":0.5,"classrooms":["A","B"],"studentTrueClassroom":"A","exampleSet":"first","trial_type":"survey-html-form","trial_index":38,"time_elapsed":737505,"internal_node_id":"0.0-34.0-0.0","params":{"nStudents":24,"maxFlips":30,"completionMinutes":45,"basePay":8,"maxBonus":9,"perTrialBonus":0.5,"perTrialBonusThreshold":0.05,"exampleCost":0.01},"classroomParams":{"A":{"a":1,"b":4},"B":{"a":4,"b":1},"C":{"a":2,"b":8},"D":{"a":8,"b":2}},"conditions":["nonSeqFull","nonSeqPartial","seqNoFeedback","seqFeedback"],"classroomPairings":[["A","B"],["C","D"]],"coinWeights":[0.2,0.5,0.8],"subjectId":"A2NEFRREWF33YP","assignmentId":"34FNN24DCNV76TZX3TL3YFFLHM9Y5Q","hitId":"34XASH8KLQ89J2U8D314D7180O4PMV","url":"https://gershmanlab.com/experiments/alicia/teaching/experiment/?hitId=34XASH8KLQ89J2U8D314D7180O4PMV&workerId=A2NEFRREWF33YP&assignmentId=34FNN24DCNV76TZX3TL3YFFLHM9Y5Q&a=DNF47&tp_a=DNF47&b=34FNN24DCNV76TZX3TL3YFFLHM9Y5Q&tp_b=34FNN24DCNV76TZX3TL3YFFLHM9Y5Q&c=365717&tp_c=365717","heads":5,"tails":0,"studentIndex":4,"studentTrueHypers":{"a":1,"b":4},"studentGuess":0.6,"delta":0.09999999999999998,"totalExamples":5,"bonusSoFar":0},{"rt":null,"stimulus":"Sending examples to student... ","response":null,"trial_type":"html-keyboard-response","trial_index":39,"time_elapsed":738758,"internal_node_id":"0.0-35.0","params":{"nStudents":24,"maxFlips":30,"completionMinutes":45,"basePay":8,"maxBonus":9,"perTrialBonus":0.5,"perTrialBonusThreshold":0.05,"exampleCost":0.01},"classroomParams":{"A":{"a":1,"b":4},"B":{"a":4,"b":1},"C":{"a":2,"b":8},"D":{"a":8,"b":2}},"conditions":["nonSeqFull","nonSeqPartial","seqNoFeedback","seqFeedback"],"classroomPairings":[["A","B"],["C","D"]],"coinWeights":[0.2,0.5,0.8],"subjectId":"A2NEFRREWF33YP","assignmentId":"34FNN24DCNV76TZX3TL3YFFLHM9Y5Q","hitId":"34XASH8KLQ89J2U8D314D7180O4PMV","url":"https://gershmanlab.com/experiments/alicia/teaching/experiment/?hitId=34XASH8KLQ89J2U8D314D7180O4PMV&workerId=A2NEFRREWF33YP&assignmentId=34FNN24DCNV76TZX3TL3YFFLHM9Y5Q&a=DNF47&tp_a=DNF47&b=34FNN24DCNV76TZX3TL3YFFLHM9Y5Q&tp_b=34FNN24DCNV76TZX3TL3YFFLHM9Y5Q&c=365717&tp_c=365717"},{"rt":null,"stimulus":"Examples sent to student! Waiting for student...","response":null,"trial_type":"html-keyboard-response","trial_index":40,"time_elapsed":742767,"internal_node_id":"0.0-36.0","params":{"nStudents":24,"maxFlips":30,"completionMinutes":45,"basePay":8,"maxBonus":9,"perTrialBonus":0.5,"perTrialBonusThreshold":0.05,"exampleCost":0.01},"classroomParams":{"A":{"a":1,"b":4},"B":{"a":4,"b":1},"C":{"a":2,"b":8},"D":{"a":8,"b":2}},"conditions":["nonSeqFull","nonSeqPartial","seqNoFeedback","seqFeedback"],"classroomPairings":[["A","B"],["C","D"]],"coinWeights":[0.2,0.5,0.8],"subjectId":"A2NEFRREWF33YP","assignmentId":"34FNN24DCNV76TZX3TL3YFFLHM9Y5Q","hitId":"34XASH8KLQ89J2U8D314D7180O4PMV","url":"https://gershmanlab.com/experiments/alicia/teaching/experiment/?hitId=34XASH8KLQ89J2U8D314D7180O4PMV&workerId=A2NEFRREWF33YP&assignmentId=34FNN24DCNV76TZX3TL3YFFLHM9Y5Q&a=DNF47&tp_a=DNF47&b=34FNN24DCNV76TZX3TL3YFFLHM9Y5Q&tp_b=34FNN24DCNV76TZX3TL3YFFLHM9Y5Q&c=365717&tp_c=365717"},{"rt":6414,"stimulus":"\n                <p>Student's guess for coin weight: <b style=\"color:Tomato;\">0.60</b></p>\n                <p></b></p>\n                <p>You will now send another set of examples to your student. <b>Remember to take your student's guess into consideration so that you can earn the highest bonus possible!</b> </p>\n                <p>Press any key to continue.</p>\n                ","response":"j","trial_type":"html-keyboard-response","trial_index":41,"time_elapsed":749182,"internal_node_id":"0.0-37.0","params":{"nStudents":24,"maxFlips":30,"completionMinutes":45,"basePay":8,"maxBonus":9,"perTrialBonus":0.5,"perTrialBonusThreshold":0.05,"exampleCost":0.01},"classroomParams":{"A":{"a":1,"b":4},"B":{"a":4,"b":1},"C":{"a":2,"b":8},"D":{"a":8,"b":2}},"conditions":["nonSeqFull","nonSeqPartial","seqNoFeedback","seqFeedback"],"classroomPairings":[["A","B"],["C","D"]],"coinWeights":[0.2,0.5,0.8],"subjectId":"A2NEFRREWF33YP","assignmentId":"34FNN24DCNV76TZX3TL3YFFLHM9Y5Q","hitId":"34XASH8KLQ89J2U8D314D7180O4PMV","url":"https://gershmanlab.com/experiments/alicia/teaching/experiment/?hitId=34XASH8KLQ89J2U8D314D7180O4PMV&workerId=A2NEFRREWF33YP&assignmentId=34FNN24DCNV76TZX3TL3YFFLHM9Y5Q&a=DNF47&tp_a=DNF47&b=34FNN24DCNV76TZX3TL3YFFLHM9Y5Q&tp_b=34FNN24DCNV76TZX3TL3YFFLHM9Y5Q&c=365717&tp_c=365717"},{"rt":4368,"response":{"heads":"5","tails":"5"},"type":"response","condition":"seqFeedback","trueTheta":0.5,"classrooms":["A","B"],"studentTrueClassroom":"A","exampleSet":"second","trial_type":"survey-html-form","trial_index":42,"time_elapsed":753551,"internal_node_id":"0.0-38.0-0.0","params":{"nStudents":24,"maxFlips":30,"completionMinutes":45,"basePay":8,"maxBonus":9,"perTrialBonus":0.5,"perTrialBonusThreshold":0.05,"exampleCost":0.01},"classroomParams":{"A":{"a":1,"b":4},"B":{"a":4,"b":1},"C":{"a":2,"b":8},"D":{"a":8,"b":2}},"conditions":["nonSeqFull","nonSeqPartial","seqNoFeedback","seqFeedback"],"classroomPairings":[["A","B"],["C","D"]],"coinWeights":[0.2,0.5,0.8],"subjectId":"A2NEFRREWF33YP","assignmentId":"34FNN24DCNV76TZX3TL3YFFLHM9Y5Q","hitId":"34XASH8KLQ89J2U8D314D7180O4PMV","url":"https://gershmanlab.com/experiments/alicia/teaching/experiment/?hitId=34XASH8KLQ89J2U8D314D7180O4PMV&workerId=A2NEFRREWF33YP&assignmentId=34FNN24DCNV76TZX3TL3YFFLHM9Y5Q&a=DNF47&tp_a=DNF47&b=34FNN24DCNV76TZX3TL3YFFLHM9Y5Q&tp_b=34FNN24DCNV76TZX3TL3YFFLHM9Y5Q&c=365717&tp_c=365717","firstResponseHeads":5,"firstResponseTails":0,"secondResponseHeads":5,"secondResponseTails":5,"totalHeads":10,"totalTails":5,"studentIndex":4,"studentTrueHypers":{"a":1,"b":4},"studentGuess":0.55,"delta":0.050000000000000044,"bonus":0,"bonusSoFar":0,"totalExamples":15},{"rt":null,"stimulus":"Sending examples to student... ","response":null,"trial_type":"html-keyboard-response","trial_index":43,"time_elapsed":755304,"internal_node_id":"0.0-39.0","params":{"nStudents":24,"maxFlips":30,"completionMinutes":45,"basePay":8,"maxBonus":9,"perTrialBonus":0.5,"perTrialBonusThreshold":0.05,"exampleCost":0.01},"classroomParams":{"A":{"a":1,"b":4},"B":{"a":4,"b":1},"C":{"a":2,"b":8},"D":{"a":8,"b":2}},"conditions":["nonSeqFull","nonSeqPartial","seqNoFeedback","seqFeedback"],"classroomPairings":[["A","B"],["C","D"]],"coinWeights":[0.2,0.5,0.8],"subjectId":"A2NEFRREWF33YP","assignmentId":"34FNN24DCNV76TZX3TL3YFFLHM9Y5Q","hitId":"34XASH8KLQ89J2U8D314D7180O4PMV","url":"https://gershmanlab.com/experiments/alicia/teaching/experiment/?hitId=34XASH8KLQ89J2U8D314D7180O4PMV&workerId=A2NEFRREWF33YP&assignmentId=34FNN24DCNV76TZX3TL3YFFLHM9Y5Q&a=DNF47&tp_a=DNF47&b=34FNN24DCNV76TZX3TL3YFFLHM9Y5Q&tp_b=34FNN24DCNV76TZX3TL3YFFLHM9Y5Q&c=365717&tp_c=365717"},{"rt":null,"stimulus":"Examples sent to student! Waiting for student...","response":null,"trial_type":"html-keyboard-response","trial_index":44,"time_elapsed":759808,"internal_node_id":"0.0-40.0","params":{"nStudents":24,"maxFlips":30,"completionMinutes":45,"basePay":8,"maxBonus":9,"perTrialBonus":0.5,"perTrialBonusThreshold":0.05,"exampleCost":0.01},"classroomParams":{"A":{"a":1,"b":4},"B":{"a":4,"b":1},"C":{"a":2,"b":8},"D":{"a":8,"b":2}},"conditions":["nonSeqFull","nonSeqPartial","seqNoFeedback","seqFeedback"],"classroomPairings":[["A","B"],["C","D"]],"coinWeights":[0.2,0.5,0.8],"subjectId":"A2NEFRREWF33YP","assignmentId":"34FNN24DCNV76TZX3TL3YFFLHM9Y5Q","hitId":"34XASH8KLQ89J2U8D314D7180O4PMV","url":"https://gershmanlab.com/experiments/alicia/teaching/experiment/?hitId=34XASH8KLQ89J2U8D314D7180O4PMV&workerId=A2NEFRREWF33YP&assignmentId=34FNN24DCNV76TZX3TL3YFFLHM9Y5Q&a=DNF47&tp_a=DNF47&b=34FNN24DCNV76TZX3TL3YFFLHM9Y5Q&tp_b=34FNN24DCNV76TZX3TL3YFFLHM9Y5Q&c=365717&tp_c=365717"},{"rt":4018,"stimulus":"\n                <p>Student 5's first guess for coin weight: <b style=\"color:Tomato\";>0.60</b></p>\n                <p>Student 5's second guess for coin weight: <b style=\"color:Tomato\";>0.55</b></p>\n                <p>You received a bonus of <b>$0.00</b> based on the student's second guess.</p>\n                <p>Total bonus so far: <b>$0.00</b></p>\n                <p>Press any key to continue.</p>\n                ","response":"k","trial_type":"html-keyboard-response","trial_index":45,"time_elapsed":763827,"internal_node_id":"0.0-41.0","params":{"nStudents":24,"maxFlips":30,"completionMinutes":45,"basePay":8,"maxBonus":9,"perTrialBonus":0.5,"perTrialBonusThreshold":0.05,"exampleCost":0.01},"classroomParams":{"A":{"a":1,"b":4},"B":{"a":4,"b":1},"C":{"a":2,"b":8},"D":{"a":8,"b":2}},"conditions":["nonSeqFull","nonSeqPartial","seqNoFeedback","seqFeedback"],"classroomPairings":[["A","B"],["C","D"]],"coinWeights":[0.2,0.5,0.8],"subjectId":"A2NEFRREWF33YP","assignmentId":"34FNN24DCNV76TZX3TL3YFFLHM9Y5Q","hitId":"34XASH8KLQ89J2U8D314D7180O4PMV","url":"https://gershmanlab.com/experiments/alicia/teaching/experiment/?hitId=34XASH8KLQ89J2U8D314D7180O4PMV&workerId=A2NEFRREWF33YP&assignmentId=34FNN24DCNV76TZX3TL3YFFLHM9Y5Q&a=DNF47&tp_a=DNF47&b=34FNN24DCNV76TZX3TL3YFFLHM9Y5Q&tp_b=34FNN24DCNV76TZX3TL3YFFLHM9Y5Q&c=365717&tp_c=365717"},{"rt":null,"stimulus":"<div style=\"font-size:60px;\">Next student</div>","response":null,"trial_type":"html-keyboard-response","trial_index":46,"time_elapsed":766828,"internal_node_id":"0.0-42.0-0.0","params":{"nStudents":24,"maxFlips":30,"completionMinutes":45,"basePay":8,"maxBonus":9,"perTrialBonus":0.5,"perTrialBonusThreshold":0.05,"exampleCost":0.01},"classroomParams":{"A":{"a":1,"b":4},"B":{"a":4,"b":1},"C":{"a":2,"b":8},"D":{"a":8,"b":2}},"conditions":["nonSeqFull","nonSeqPartial","seqNoFeedback","seqFeedback"],"classroomPairings":[["A","B"],["C","D"]],"coinWeights":[0.2,0.5,0.8],"subjectId":"A2NEFRREWF33YP","assignmentId":"34FNN24DCNV76TZX3TL3YFFLHM9Y5Q","hitId":"34XASH8KLQ89J2U8D314D7180O4PMV","url":"https://gershmanlab.com/experiments/alicia/teaching/experiment/?hitId=34XASH8KLQ89J2U8D314D7180O4PMV&workerId=A2NEFRREWF33YP&assignmentId=34FNN24DCNV76TZX3TL3YFFLHM9Y5Q&a=DNF47&tp_a=DNF47&b=34FNN24DCNV76TZX3TL3YFFLHM9Y5Q&tp_b=34FNN24DCNV76TZX3TL3YFFLHM9Y5Q&c=365717&tp_c=365717"},{"rt":3323,"stimulus":"\n            <h4 style=\"color:Orange;\">Student 6</h4>\n            <h2>The weight of your coin is <b style=\"color:Tomato;\">0.5</b>.</h2>\n            <p>In this block, you will be giving <b>one</b> set of examples to Student 6.</p>\n                <p>You will receive feedback at the end of the block.</p>\n            <p></p>","response":0,"trial_type":"html-button-response","trial_index":47,"time_elapsed":770152,"internal_node_id":"0.0-43.0","params":{"nStudents":24,"maxFlips":30,"completionMinutes":45,"basePay":8,"maxBonus":9,"perTrialBonus":0.5,"perTrialBonusThreshold":0.05,"exampleCost":0.01},"classroomParams":{"A":{"a":1,"b":4},"B":{"a":4,"b":1},"C":{"a":2,"b":8},"D":{"a":8,"b":2}},"conditions":["nonSeqFull","nonSeqPartial","seqNoFeedback","seqFeedback"],"classroomPairings":[["A","B"],["C","D"]],"coinWeights":[0.2,0.5,0.8],"subjectId":"A2NEFRREWF33YP","assignmentId":"34FNN24DCNV76TZX3TL3YFFLHM9Y5Q","hitId":"34XASH8KLQ89J2U8D314D7180O4PMV","url":"https://gershmanlab.com/experiments/alicia/teaching/experiment/?hitId=34XASH8KLQ89J2U8D314D7180O4PMV&workerId=A2NEFRREWF33YP&assignmentId=34FNN24DCNV76TZX3TL3YFFLHM9Y5Q&a=DNF47&tp_a=DNF47&b=34FNN24DCNV76TZX3TL3YFFLHM9Y5Q&tp_b=34FNN24DCNV76TZX3TL3YFFLHM9Y5Q&c=365717&tp_c=365717"},{"rt":25934,"response":{"heads":"5","tails":"0"},"type":"response","condition":"nonSeqPartial","trueTheta":0.5,"classrooms":["A","B"],"studentTrueClassroom":"A","exampleSet":"first","trial_type":"survey-html-form","trial_index":48,"time_elapsed":796086,"internal_node_id":"0.0-44.0-0.0","params":{"nStudents":24,"maxFlips":30,"completionMinutes":45,"basePay":8,"maxBonus":9,"perTrialBonus":0.5,"perTrialBonusThreshold":0.05,"exampleCost":0.01},"classroomParams":{"A":{"a":1,"b":4},"B":{"a":4,"b":1},"C":{"a":2,"b":8},"D":{"a":8,"b":2}},"conditions":["nonSeqFull","nonSeqPartial","seqNoFeedback","seqFeedback"],"classroomPairings":[["A","B"],["C","D"]],"coinWeights":[0.2,0.5,0.8],"subjectId":"A2NEFRREWF33YP","assignmentId":"34FNN24DCNV76TZX3TL3YFFLHM9Y5Q","hitId":"34XASH8KLQ89J2U8D314D7180O4PMV","url":"https://gershmanlab.com/experiments/alicia/teaching/experiment/?hitId=34XASH8KLQ89J2U8D314D7180O4PMV&workerId=A2NEFRREWF33YP&assignmentId=34FNN24DCNV76TZX3TL3YFFLHM9Y5Q&a=DNF47&tp_a=DNF47&b=34FNN24DCNV76TZX3TL3YFFLHM9Y5Q&tp_b=34FNN24DCNV76TZX3TL3YFFLHM9Y5Q&c=365717&tp_c=365717","heads":5,"tails":0,"studentIndex":5,"studentTrueHypers":{"a":1,"b":4},"studentGuess":0.6,"delta":0.09999999999999998,"totalExamples":5,"bonus":0,"bonusSoFar":0},{"rt":null,"stimulus":"Sending examples to student... ","response":null,"trial_type":"html-keyboard-response","trial_index":49,"time_elapsed":797850,"internal_node_id":"0.0-45.0","params":{"nStudents":24,"maxFlips":30,"completionMinutes":45,"basePay":8,"maxBonus":9,"perTrialBonus":0.5,"perTrialBonusThreshold":0.05,"exampleCost":0.01},"classroomParams":{"A":{"a":1,"b":4},"B":{"a":4,"b":1},"C":{"a":2,"b":8},"D":{"a":8,"b":2}},"conditions":["nonSeqFull","nonSeqPartial","seqNoFeedback","seqFeedback"],"classroomPairings":[["A","B"],["C","D"]],"coinWeights":[0.2,0.5,0.8],"subjectId":"A2NEFRREWF33YP","assignmentId":"34FNN24DCNV76TZX3TL3YFFLHM9Y5Q","hitId":"34XASH8KLQ89J2U8D314D7180O4PMV","url":"https://gershmanlab.com/experiments/alicia/teaching/experiment/?hitId=34XASH8KLQ89J2U8D314D7180O4PMV&workerId=A2NEFRREWF33YP&assignmentId=34FNN24DCNV76TZX3TL3YFFLHM9Y5Q&a=DNF47&tp_a=DNF47&b=34FNN24DCNV76TZX3TL3YFFLHM9Y5Q&tp_b=34FNN24DCNV76TZX3TL3YFFLHM9Y5Q&c=365717&tp_c=365717"},{"rt":null,"stimulus":"Examples sent to student! Waiting for student...","response":null,"trial_type":"html-keyboard-response","trial_index":50,"time_elapsed":801851,"internal_node_id":"0.0-46.0","params":{"nStudents":24,"maxFlips":30,"completionMinutes":45,"basePay":8,"maxBonus":9,"perTrialBonus":0.5,"perTrialBonusThreshold":0.05,"exampleCost":0.01},"classroomParams":{"A":{"a":1,"b":4},"B":{"a":4,"b":1},"C":{"a":2,"b":8},"D":{"a":8,"b":2}},"conditions":["nonSeqFull","nonSeqPartial","seqNoFeedback","seqFeedback"],"classroomPairings":[["A","B"],["C","D"]],"coinWeights":[0.2,0.5,0.8],"subjectId":"A2NEFRREWF33YP","assignmentId":"34FNN24DCNV76TZX3TL3YFFLHM9Y5Q","hitId":"34XASH8KLQ89J2U8D314D7180O4PMV","url":"https://gershmanlab.com/experiments/alicia/teaching/experiment/?hitId=34XASH8KLQ89J2U8D314D7180O4PMV&workerId=A2NEFRREWF33YP&assignmentId=34FNN24DCNV76TZX3TL3YFFLHM9Y5Q&a=DNF47&tp_a=DNF47&b=34FNN24DCNV76TZX3TL3YFFLHM9Y5Q&tp_b=34FNN24DCNV76TZX3TL3YFFLHM9Y5Q&c=365717&tp_c=365717"},{"rt":3267,"stimulus":"\n                <p>Student's guess for coin weight: <b style=\"color:Tomato;\">0.60</b></p>\n                <p>You received a bonus of <b>$0</b>. Total bonus so far: <b>$0.00</b></b></p>\n                <p></p>\n                <p>Press any key to continue.</p>\n                ","response":"j","trial_type":"html-keyboard-response","trial_index":51,"time_elapsed":805120,"internal_node_id":"0.0-47.0","params":{"nStudents":24,"maxFlips":30,"completionMinutes":45,"basePay":8,"maxBonus":9,"perTrialBonus":0.5,"perTrialBonusThreshold":0.05,"exampleCost":0.01},"classroomParams":{"A":{"a":1,"b":4},"B":{"a":4,"b":1},"C":{"a":2,"b":8},"D":{"a":8,"b":2}},"conditions":["nonSeqFull","nonSeqPartial","seqNoFeedback","seqFeedback"],"classroomPairings":[["A","B"],["C","D"]],"coinWeights":[0.2,0.5,0.8],"subjectId":"A2NEFRREWF33YP","assignmentId":"34FNN24DCNV76TZX3TL3YFFLHM9Y5Q","hitId":"34XASH8KLQ89J2U8D314D7180O4PMV","url":"https://gershmanlab.com/experiments/alicia/teaching/experiment/?hitId=34XASH8KLQ89J2U8D314D7180O4PMV&workerId=A2NEFRREWF33YP&assignmentId=34FNN24DCNV76TZX3TL3YFFLHM9Y5Q&a=DNF47&tp_a=DNF47&b=34FNN24DCNV76TZX3TL3YFFLHM9Y5Q&tp_b=34FNN24DCNV76TZX3TL3YFFLHM9Y5Q&c=365717&tp_c=365717"},{"rt":null,"stimulus":"<div style=\"font-size:60px;\">Next student</div>","response":null,"trial_type":"html-keyboard-response","trial_index":52,"time_elapsed":808129,"internal_node_id":"0.0-48.0-0.0","params":{"nStudents":24,"maxFlips":30,"completionMinutes":45,"basePay":8,"maxBonus":9,"perTrialBonus":0.5,"perTrialBonusThreshold":0.05,"exampleCost":0.01},"classroomParams":{"A":{"a":1,"b":4},"B":{"a":4,"b":1},"C":{"a":2,"b":8},"D":{"a":8,"b":2}},"conditions":["nonSeqFull","nonSeqPartial","seqNoFeedback","seqFeedback"],"classroomPairings":[["A","B"],["C","D"]],"coinWeights":[0.2,0.5,0.8],"subjectId":"A2NEFRREWF33YP","assignmentId":"34FNN24DCNV76TZX3TL3YFFLHM9Y5Q","hitId":"34XASH8KLQ89J2U8D314D7180O4PMV","url":"https://gershmanlab.com/experiments/alicia/teaching/experiment/?hitId=34XASH8KLQ89J2U8D314D7180O4PMV&workerId=A2NEFRREWF33YP&assignmentId=34FNN24DCNV76TZX3TL3YFFLHM9Y5Q&a=DNF47&tp_a=DNF47&b=34FNN24DCNV76TZX3TL3YFFLHM9Y5Q&tp_b=34FNN24DCNV76TZX3TL3YFFLHM9Y5Q&c=365717&tp_c=365717"},{"rt":3577,"stimulus":"\n            <h4 style=\"color:Orange;\">Student 7</h4>\n            <h2>The weight of your coin is <b style=\"color:Tomato;\">0.8</b>.</h2>\n            <p>In this block, you will be giving <b>one</b> set of examples to Student 7.</p>\n                <p>You will receive feedback at the end of the block.</p>\n            <p></p>","response":0,"trial_type":"html-button-response","trial_index":53,"time_elapsed":811706,"internal_node_id":"0.0-49.0","params":{"nStudents":24,"maxFlips":30,"completionMinutes":45,"basePay":8,"maxBonus":9,"perTrialBonus":0.5,"perTrialBonusThreshold":0.05,"exampleCost":0.01},"classroomParams":{"A":{"a":1,"b":4},"B":{"a":4,"b":1},"C":{"a":2,"b":8},"D":{"a":8,"b":2}},"conditions":["nonSeqFull","nonSeqPartial","seqNoFeedback","seqFeedback"],"classroomPairings":[["A","B"],["C","D"]],"coinWeights":[0.2,0.5,0.8],"subjectId":"A2NEFRREWF33YP","assignmentId":"34FNN24DCNV76TZX3TL3YFFLHM9Y5Q","hitId":"34XASH8KLQ89J2U8D314D7180O4PMV","url":"https://gershmanlab.com/experiments/alicia/teaching/experiment/?hitId=34XASH8KLQ89J2U8D314D7180O4PMV&workerId=A2NEFRREWF33YP&assignmentId=34FNN24DCNV76TZX3TL3YFFLHM9Y5Q&a=DNF47&tp_a=DNF47&b=34FNN24DCNV76TZX3TL3YFFLHM9Y5Q&tp_b=34FNN24DCNV76TZX3TL3YFFLHM9Y5Q&c=365717&tp_c=365717"},{"rt":36584,"response":{"heads":"24","tails":"0"},"type":"response","condition":"nonSeqFull","trueTheta":0.8,"classrooms":["C","D"],"studentTrueClassroom":"C","exampleSet":"first","trial_type":"survey-html-form","trial_index":54,"time_elapsed":848292,"internal_node_id":"0.0-50.0-0.0","params":{"nStudents":24,"maxFlips":30,"completionMinutes":45,"basePay":8,"maxBonus":9,"perTrialBonus":0.5,"perTrialBonusThreshold":0.05,"exampleCost":0.01},"classroomParams":{"A":{"a":1,"b":4},"B":{"a":4,"b":1},"C":{"a":2,"b":8},"D":{"a":8,"b":2}},"conditions":["nonSeqFull","nonSeqPartial","seqNoFeedback","seqFeedback"],"classroomPairings":[["A","B"],["C","D"]],"coinWeights":[0.2,0.5,0.8],"subjectId":"A2NEFRREWF33YP","assignmentId":"34FNN24DCNV76TZX3TL3YFFLHM9Y5Q","hitId":"34XASH8KLQ89J2U8D314D7180O4PMV","url":"https://gershmanlab.com/experiments/alicia/teaching/experiment/?hitId=34XASH8KLQ89J2U8D314D7180O4PMV&workerId=A2NEFRREWF33YP&assignmentId=34FNN24DCNV76TZX3TL3YFFLHM9Y5Q&a=DNF47&tp_a=DNF47&b=34FNN24DCNV76TZX3TL3YFFLHM9Y5Q&tp_b=34FNN24DCNV76TZX3TL3YFFLHM9Y5Q&c=365717&tp_c=365717","heads":24,"tails":0,"studentIndex":6,"studentTrueHypers":{"a":2,"b":8},"studentGuess":0.7647058823529411,"delta":0.03529411764705892,"totalExamples":24,"bonus":0.26,"bonusSoFar":0.26},{"rt":null,"stimulus":"Sending examples to student... ","response":null,"trial_type":"html-keyboard-response","trial_index":55,"time_elapsed":849793,"internal_node_id":"0.0-51.0","params":{"nStudents":24,"maxFlips":30,"completionMinutes":45,"basePay":8,"maxBonus":9,"perTrialBonus":0.5,"perTrialBonusThreshold":0.05,"exampleCost":0.01},"classroomParams":{"A":{"a":1,"b":4},"B":{"a":4,"b":1},"C":{"a":2,"b":8},"D":{"a":8,"b":2}},"conditions":["nonSeqFull","nonSeqPartial","seqNoFeedback","seqFeedback"],"classroomPairings":[["A","B"],["C","D"]],"coinWeights":[0.2,0.5,0.8],"subjectId":"A2NEFRREWF33YP","assignmentId":"34FNN24DCNV76TZX3TL3YFFLHM9Y5Q","hitId":"34XASH8KLQ89J2U8D314D7180O4PMV","url":"https://gershmanlab.com/experiments/alicia/teaching/experiment/?hitId=34XASH8KLQ89J2U8D314D7180O4PMV&workerId=A2NEFRREWF33YP&assignmentId=34FNN24DCNV76TZX3TL3YFFLHM9Y5Q&a=DNF47&tp_a=DNF47&b=34FNN24DCNV76TZX3TL3YFFLHM9Y5Q&tp_b=34FNN24DCNV76TZX3TL3YFFLHM9Y5Q&c=365717&tp_c=365717"},{"rt":null,"stimulus":"Examples sent to student! Waiting for student...","response":null,"trial_type":"html-keyboard-response","trial_index":56,"time_elapsed":853794,"internal_node_id":"0.0-52.0","params":{"nStudents":24,"maxFlips":30,"completionMinutes":45,"basePay":8,"maxBonus":9,"perTrialBonus":0.5,"perTrialBonusThreshold":0.05,"exampleCost":0.01},"classroomParams":{"A":{"a":1,"b":4},"B":{"a":4,"b":1},"C":{"a":2,"b":8},"D":{"a":8,"b":2}},"conditions":["nonSeqFull","nonSeqPartial","seqNoFeedback","seqFeedback"],"classroomPairings":[["A","B"],["C","D"]],"coinWeights":[0.2,0.5,0.8],"subjectId":"A2NEFRREWF33YP","assignmentId":"34FNN24DCNV76TZX3TL3YFFLHM9Y5Q","hitId":"34XASH8KLQ89J2U8D314D7180O4PMV","url":"https://gershmanlab.com/experiments/alicia/teaching/experiment/?hitId=34XASH8KLQ89J2U8D314D7180O4PMV&workerId=A2NEFRREWF33YP&assignmentId=34FNN24DCNV76TZX3TL3YFFLHM9Y5Q&a=DNF47&tp_a=DNF47&b=34FNN24DCNV76TZX3TL3YFFLHM9Y5Q&tp_b=34FNN24DCNV76TZX3TL3YFFLHM9Y5Q&c=365717&tp_c=365717"},{"rt":6220,"stimulus":"\n                <p>Student's guess for coin weight: <b style=\"color:Tomato;\">0.76</b></p>\n                <p>You received a bonus of <b>$0.26</b>. Total bonus so far: <b>$0.26</b></b></p>\n                <p></p>\n                <p>Press any key to continue.</p>\n                ","response":"k","trial_type":"html-keyboard-response","trial_index":57,"time_elapsed":860015,"internal_node_id":"0.0-53.0","params":{"nStudents":24,"maxFlips":30,"completionMinutes":45,"basePay":8,"maxBonus":9,"perTrialBonus":0.5,"perTrialBonusThreshold":0.05,"exampleCost":0.01},"classroomParams":{"A":{"a":1,"b":4},"B":{"a":4,"b":1},"C":{"a":2,"b":8},"D":{"a":8,"b":2}},"conditions":["nonSeqFull","nonSeqPartial","seqNoFeedback","seqFeedback"],"classroomPairings":[["A","B"],["C","D"]],"coinWeights":[0.2,0.5,0.8],"subjectId":"A2NEFRREWF33YP","assignmentId":"34FNN24DCNV76TZX3TL3YFFLHM9Y5Q","hitId":"34XASH8KLQ89J2U8D314D7180O4PMV","url":"https://gershmanlab.com/experiments/alicia/teaching/experiment/?hitId=34XASH8KLQ89J2U8D314D7180O4PMV&workerId=A2NEFRREWF33YP&assignmentId=34FNN24DCNV76TZX3TL3YFFLHM9Y5Q&a=DNF47&tp_a=DNF47&b=34FNN24DCNV76TZX3TL3YFFLHM9Y5Q&tp_b=34FNN24DCNV76TZX3TL3YFFLHM9Y5Q&c=365717&tp_c=365717"},{"rt":null,"stimulus":"<div style=\"font-size:60px;\">Next student</div>","response":null,"trial_type":"html-keyboard-response","trial_index":58,"time_elapsed":863016,"internal_node_id":"0.0-54.0-0.0","params":{"nStudents":24,"maxFlips":30,"completionMinutes":45,"basePay":8,"maxBonus":9,"perTrialBonus":0.5,"perTrialBonusThreshold":0.05,"exampleCost":0.01},"classroomParams":{"A":{"a":1,"b":4},"B":{"a":4,"b":1},"C":{"a":2,"b":8},"D":{"a":8,"b":2}},"conditions":["nonSeqFull","nonSeqPartial","seqNoFeedback","seqFeedback"],"classroomPairings":[["A","B"],["C","D"]],"coinWeights":[0.2,0.5,0.8],"subjectId":"A2NEFRREWF33YP","assignmentId":"34FNN24DCNV76TZX3TL3YFFLHM9Y5Q","hitId":"34XASH8KLQ89J2U8D314D7180O4PMV","url":"https://gershmanlab.com/experiments/alicia/teaching/experiment/?hitId=34XASH8KLQ89J2U8D314D7180O4PMV&workerId=A2NEFRREWF33YP&assignmentId=34FNN24DCNV76TZX3TL3YFFLHM9Y5Q&a=DNF47&tp_a=DNF47&b=34FNN24DCNV76TZX3TL3YFFLHM9Y5Q&tp_b=34FNN24DCNV76TZX3TL3YFFLHM9Y5Q&c=365717&tp_c=365717"},{"rt":7562,"stimulus":"\n            <h4 style=\"color:Orange;\">Student 8</h4>\n            <h2>The weight of your coin is <b style=\"color:Tomato;\">0.8</b>.</h2>\n            <p>In this block, you will be giving <b>one</b> set of examples to Student 8.</p>\n                <p>You will receive feedback at the end of the block.</p>\n            <p></p>","response":0,"trial_type":"html-button-response","trial_index":59,"time_elapsed":870580,"internal_node_id":"0.0-55.0","params":{"nStudents":24,"maxFlips":30,"completionMinutes":45,"basePay":8,"maxBonus":9,"perTrialBonus":0.5,"perTrialBonusThreshold":0.05,"exampleCost":0.01},"classroomParams":{"A":{"a":1,"b":4},"B":{"a":4,"b":1},"C":{"a":2,"b":8},"D":{"a":8,"b":2}},"conditions":["nonSeqFull","nonSeqPartial","seqNoFeedback","seqFeedback"],"classroomPairings":[["A","B"],["C","D"]],"coinWeights":[0.2,0.5,0.8],"subjectId":"A2NEFRREWF33YP","assignmentId":"34FNN24DCNV76TZX3TL3YFFLHM9Y5Q","hitId":"34XASH8KLQ89J2U8D314D7180O4PMV","url":"https://gershmanlab.com/experiments/alicia/teaching/experiment/?hitId=34XASH8KLQ89J2U8D314D7180O4PMV&workerId=A2NEFRREWF33YP&assignmentId=34FNN24DCNV76TZX3TL3YFFLHM9Y5Q&a=DNF47&tp_a=DNF47&b=34FNN24DCNV76TZX3TL3YFFLHM9Y5Q&tp_b=34FNN24DCNV76TZX3TL3YFFLHM9Y5Q&c=365717&tp_c=365717"},{"rt":33602,"response":{"heads":"24","tails":"0"},"type":"response","condition":"nonSeqFull","trueTheta":0.8,"classrooms":["A","B"],"studentTrueClassroom":"B","exampleSet":"first","trial_type":"survey-html-form","trial_index":60,"time_elapsed":904183,"internal_node_id":"0.0-56.0-0.0","params":{"nStudents":24,"maxFlips":30,"completionMinutes":45,"basePay":8,"maxBonus":9,"perTrialBonus":0.5,"perTrialBonusThreshold":0.05,"exampleCost":0.01},"classroomParams":{"A":{"a":1,"b":4},"B":{"a":4,"b":1},"C":{"a":2,"b":8},"D":{"a":8,"b":2}},"conditions":["nonSeqFull","nonSeqPartial","seqNoFeedback","seqFeedback"],"classroomPairings":[["A","B"],["C","D"]],"coinWeights":[0.2,0.5,0.8],"subjectId":"A2NEFRREWF33YP","assignmentId":"34FNN24DCNV76TZX3TL3YFFLHM9Y5Q","hitId":"34XASH8KLQ89J2U8D314D7180O4PMV","url":"https://gershmanlab.com/experiments/alicia/teaching/experiment/?hitId=34XASH8KLQ89J2U8D314D7180O4PMV&workerId=A2NEFRREWF33YP&assignmentId=34FNN24DCNV76TZX3TL3YFFLHM9Y5Q&a=DNF47&tp_a=DNF47&b=34FNN24DCNV76TZX3TL3YFFLHM9Y5Q&tp_b=34FNN24DCNV76TZX3TL3YFFLHM9Y5Q&c=365717&tp_c=365717","heads":24,"tails":0,"studentIndex":7,"studentTrueHypers":{"a":4,"b":1},"studentGuess":0.9655172413793104,"delta":0.16551724137931034,"totalExamples":24,"bonus":0,"bonusSoFar":0.26},{"rt":null,"stimulus":"Sending examples to student... ","response":null,"trial_type":"html-keyboard-response","trial_index":61,"time_elapsed":905684,"internal_node_id":"0.0-57.0","params":{"nStudents":24,"maxFlips":30,"completionMinutes":45,"basePay":8,"maxBonus":9,"perTrialBonus":0.5,"perTrialBonusThreshold":0.05,"exampleCost":0.01},"classroomParams":{"A":{"a":1,"b":4},"B":{"a":4,"b":1},"C":{"a":2,"b":8},"D":{"a":8,"b":2}},"conditions":["nonSeqFull","nonSeqPartial","seqNoFeedback","seqFeedback"],"classroomPairings":[["A","B"],["C","D"]],"coinWeights":[0.2,0.5,0.8],"subjectId":"A2NEFRREWF33YP","assignmentId":"34FNN24DCNV76TZX3TL3YFFLHM9Y5Q","hitId":"34XASH8KLQ89J2U8D314D7180O4PMV","url":"https://gershmanlab.com/experiments/alicia/teaching/experiment/?hitId=34XASH8KLQ89J2U8D314D7180O4PMV&workerId=A2NEFRREWF33YP&assignmentId=34FNN24DCNV76TZX3TL3YFFLHM9Y5Q&a=DNF47&tp_a=DNF47&b=34FNN24DCNV76TZX3TL3YFFLHM9Y5Q&tp_b=34FNN24DCNV76TZX3TL3YFFLHM9Y5Q&c=365717&tp_c=365717"},{"rt":null,"stimulus":"Examples sent to student! Waiting for student...","response":null,"trial_type":"html-keyboard-response","trial_index":62,"time_elapsed":911686,"internal_node_id":"0.0-58.0","params":{"nStudents":24,"maxFlips":30,"completionMinutes":45,"basePay":8,"maxBonus":9,"perTrialBonus":0.5,"perTrialBonusThreshold":0.05,"exampleCost":0.01},"classroomParams":{"A":{"a":1,"b":4},"B":{"a":4,"b":1},"C":{"a":2,"b":8},"D":{"a":8,"b":2}},"conditions":["nonSeqFull","nonSeqPartial","seqNoFeedback","seqFeedback"],"classroomPairings":[["A","B"],["C","D"]],"coinWeights":[0.2,0.5,0.8],"subjectId":"A2NEFRREWF33YP","assignmentId":"34FNN24DCNV76TZX3TL3YFFLHM9Y5Q","hitId":"34XASH8KLQ89J2U8D314D7180O4PMV","url":"https://gershmanlab.com/experiments/alicia/teaching/experiment/?hitId=34XASH8KLQ89J2U8D314D7180O4PMV&workerId=A2NEFRREWF33YP&assignmentId=34FNN24DCNV76TZX3TL3YFFLHM9Y5Q&a=DNF47&tp_a=DNF47&b=34FNN24DCNV76TZX3TL3YFFLHM9Y5Q&tp_b=34FNN24DCNV76TZX3TL3YFFLHM9Y5Q&c=365717&tp_c=365717"},{"rt":7863,"stimulus":"\n                <p>Student's guess for coin weight: <b style=\"color:Tomato;\">0.97</b></p>\n                <p>You received a bonus of <b>$0</b>. Total bonus so far: <b>$0.26</b></b></p>\n                <p></p>\n                <p>Press any key to continue.</p>\n                ","response":"k","trial_type":"html-keyboard-response","trial_index":63,"time_elapsed":919549,"internal_node_id":"0.0-59.0","params":{"nStudents":24,"maxFlips":30,"completionMinutes":45,"basePay":8,"maxBonus":9,"perTrialBonus":0.5,"perTrialBonusThreshold":0.05,"exampleCost":0.01},"classroomParams":{"A":{"a":1,"b":4},"B":{"a":4,"b":1},"C":{"a":2,"b":8},"D":{"a":8,"b":2}},"conditions":["nonSeqFull","nonSeqPartial","seqNoFeedback","seqFeedback"],"classroomPairings":[["A","B"],["C","D"]],"coinWeights":[0.2,0.5,0.8],"subjectId":"A2NEFRREWF33YP","assignmentId":"34FNN24DCNV76TZX3TL3YFFLHM9Y5Q","hitId":"34XASH8KLQ89J2U8D314D7180O4PMV","url":"https://gershmanlab.com/experiments/alicia/teaching/experiment/?hitId=34XASH8KLQ89J2U8D314D7180O4PMV&workerId=A2NEFRREWF33YP&assignmentId=34FNN24DCNV76TZX3TL3YFFLHM9Y5Q&a=DNF47&tp_a=DNF47&b=34FNN24DCNV76TZX3TL3YFFLHM9Y5Q&tp_b=34FNN24DCNV76TZX3TL3YFFLHM9Y5Q&c=365717&tp_c=365717"},{"rt":null,"stimulus":"<div style=\"font-size:60px;\">Next student</div>","response":null,"trial_type":"html-keyboard-response","trial_index":64,"time_elapsed":921815,"internal_node_id":"0.0-60.0-0.0","params":{"nStudents":24,"maxFlips":30,"completionMinutes":45,"basePay":8,"maxBonus":9,"perTrialBonus":0.5,"perTrialBonusThreshold":0.05,"exampleCost":0.01},"classroomParams":{"A":{"a":1,"b":4},"B":{"a":4,"b":1},"C":{"a":2,"b":8},"D":{"a":8,"b":2}},"conditions":["nonSeqFull","nonSeqPartial","seqNoFeedback","seqFeedback"],"classroomPairings":[["A","B"],["C","D"]],"coinWeights":[0.2,0.5,0.8],"subjectId":"A2NEFRREWF33YP","assignmentId":"34FNN24DCNV76TZX3TL3YFFLHM9Y5Q","hitId":"34XASH8KLQ89J2U8D314D7180O4PMV","url":"https://gershmanlab.com/experiments/alicia/teaching/experiment/?hitId=34XASH8KLQ89J2U8D314D7180O4PMV&workerId=A2NEFRREWF33YP&assignmentId=34FNN24DCNV76TZX3TL3YFFLHM9Y5Q&a=DNF47&tp_a=DNF47&b=34FNN24DCNV76TZX3TL3YFFLHM9Y5Q&tp_b=34FNN24DCNV76TZX3TL3YFFLHM9Y5Q&c=365717&tp_c=365717"},{"rt":3943,"stimulus":"\n            <h4 style=\"color:Orange;\">Student 9</h4>\n            <h2>The weight of your coin is <b style=\"color:Tomato;\">0.5</b>.</h2>\n            <p>In this block, you will be giving <b>one</b> set of examples to Student 9.</p>\n                <p>You will receive feedback at the end of the block.</p>\n            <p></p>","response":0,"trial_type":"html-button-response","trial_index":65,"time_elapsed":925759,"internal_node_id":"0.0-61.0","params":{"nStudents":24,"maxFlips":30,"completionMinutes":45,"basePay":8,"maxBonus":9,"perTrialBonus":0.5,"perTrialBonusThreshold":0.05,"exampleCost":0.01},"classroomParams":{"A":{"a":1,"b":4},"B":{"a":4,"b":1},"C":{"a":2,"b":8},"D":{"a":8,"b":2}},"conditions":["nonSeqFull","nonSeqPartial","seqNoFeedback","seqFeedback"],"classroomPairings":[["A","B"],["C","D"]],"coinWeights":[0.2,0.5,0.8],"subjectId":"A2NEFRREWF33YP","assignmentId":"34FNN24DCNV76TZX3TL3YFFLHM9Y5Q","hitId":"34XASH8KLQ89J2U8D314D7180O4PMV","url":"https://gershmanlab.com/experiments/alicia/teaching/experiment/?hitId=34XASH8KLQ89J2U8D314D7180O4PMV&workerId=A2NEFRREWF33YP&assignmentId=34FNN24DCNV76TZX3TL3YFFLHM9Y5Q&a=DNF47&tp_a=DNF47&b=34FNN24DCNV76TZX3TL3YFFLHM9Y5Q&tp_b=34FNN24DCNV76TZX3TL3YFFLHM9Y5Q&c=365717&tp_c=365717"},{"rt":34846,"response":{"heads":"15","tails":"15"},"type":"response","condition":"nonSeqPartial","trueTheta":0.5,"classrooms":["C","D"],"studentTrueClassroom":"D","exampleSet":"first","trial_type":"survey-html-form","trial_index":66,"time_elapsed":960606,"internal_node_id":"0.0-62.0-0.0","params":{"nStudents":24,"maxFlips":30,"completionMinutes":45,"basePay":8,"maxBonus":9,"perTrialBonus":0.5,"perTrialBonusThreshold":0.05,"exampleCost":0.01},"classroomParams":{"A":{"a":1,"b":4},"B":{"a":4,"b":1},"C":{"a":2,"b":8},"D":{"a":8,"b":2}},"conditions":["nonSeqFull","nonSeqPartial","seqNoFeedback","seqFeedback"],"classroomPairings":[["A","B"],["C","D"]],"coinWeights":[0.2,0.5,0.8],"subjectId":"A2NEFRREWF33YP","assignmentId":"34FNN24DCNV76TZX3TL3YFFLHM9Y5Q","hitId":"34XASH8KLQ89J2U8D314D7180O4PMV","url":"https://gershmanlab.com/experiments/alicia/teaching/experiment/?hitId=34XASH8KLQ89J2U8D314D7180O4PMV&workerId=A2NEFRREWF33YP&assignmentId=34FNN24DCNV76TZX3TL3YFFLHM9Y5Q&a=DNF47&tp_a=DNF47&b=34FNN24DCNV76TZX3TL3YFFLHM9Y5Q&tp_b=34FNN24DCNV76TZX3TL3YFFLHM9Y5Q&c=365717&tp_c=365717","heads":15,"tails":15,"studentIndex":8,"studentTrueHypers":{"a":8,"b":2},"studentGuess":0.575,"delta":0.07499999999999996,"totalExamples":30,"bonus":0,"bonusSoFar":0.26},{"rt":null,"stimulus":"Sending examples to student... ","response":null,"trial_type":"html-keyboard-response","trial_index":67,"time_elapsed":962107,"internal_node_id":"0.0-63.0","params":{"nStudents":24,"maxFlips":30,"completionMinutes":45,"basePay":8,"maxBonus":9,"perTrialBonus":0.5,"perTrialBonusThreshold":0.05,"exampleCost":0.01},"classroomParams":{"A":{"a":1,"b":4},"B":{"a":4,"b":1},"C":{"a":2,"b":8},"D":{"a":8,"b":2}},"conditions":["nonSeqFull","nonSeqPartial","seqNoFeedback","seqFeedback"],"classroomPairings":[["A","B"],["C","D"]],"coinWeights":[0.2,0.5,0.8],"subjectId":"A2NEFRREWF33YP","assignmentId":"34FNN24DCNV76TZX3TL3YFFLHM9Y5Q","hitId":"34XASH8KLQ89J2U8D314D7180O4PMV","url":"https://gershmanlab.com/experiments/alicia/teaching/experiment/?hitId=34XASH8KLQ89J2U8D314D7180O4PMV&workerId=A2NEFRREWF33YP&assignmentId=34FNN24DCNV76TZX3TL3YFFLHM9Y5Q&a=DNF47&tp_a=DNF47&b=34FNN24DCNV76TZX3TL3YFFLHM9Y5Q&tp_b=34FNN24DCNV76TZX3TL3YFFLHM9Y5Q&c=365717&tp_c=365717"},{"rt":null,"stimulus":"Examples sent to student! Waiting for student...","response":null,"trial_type":"html-keyboard-response","trial_index":68,"time_elapsed":967607,"internal_node_id":"0.0-64.0","params":{"nStudents":24,"maxFlips":30,"completionMinutes":45,"basePay":8,"maxBonus":9,"perTrialBonus":0.5,"perTrialBonusThreshold":0.05,"exampleCost":0.01},"classroomParams":{"A":{"a":1,"b":4},"B":{"a":4,"b":1},"C":{"a":2,"b":8},"D":{"a":8,"b":2}},"conditions":["nonSeqFull","nonSeqPartial","seqNoFeedback","seqFeedback"],"classroomPairings":[["A","B"],["C","D"]],"coinWeights":[0.2,0.5,0.8],"subjectId":"A2NEFRREWF33YP","assignmentId":"34FNN24DCNV76TZX3TL3YFFLHM9Y5Q","hitId":"34XASH8KLQ89J2U8D314D7180O4PMV","url":"https://gershmanlab.com/experiments/alicia/teaching/experiment/?hitId=34XASH8KLQ89J2U8D314D7180O4PMV&workerId=A2NEFRREWF33YP&assignmentId=34FNN24DCNV76TZX3TL3YFFLHM9Y5Q&a=DNF47&tp_a=DNF47&b=34FNN24DCNV76TZX3TL3YFFLHM9Y5Q&tp_b=34FNN24DCNV76TZX3TL3YFFLHM9Y5Q&c=365717&tp_c=365717"},{"rt":2833,"stimulus":"\n                <p>Student's guess for coin weight: <b style=\"color:Tomato;\">0.57</b></p>\n                <p>You received a bonus of <b>$0</b>. Total bonus so far: <b>$0.26</b></b></p>\n                <p></p>\n                <p>Press any key to continue.</p>\n                ","response":"y","trial_type":"html-keyboard-response","trial_index":69,"time_elapsed":970441,"internal_node_id":"0.0-65.0","params":{"nStudents":24,"maxFlips":30,"completionMinutes":45,"basePay":8,"maxBonus":9,"perTrialBonus":0.5,"perTrialBonusThreshold":0.05,"exampleCost":0.01},"classroomParams":{"A":{"a":1,"b":4},"B":{"a":4,"b":1},"C":{"a":2,"b":8},"D":{"a":8,"b":2}},"conditions":["nonSeqFull","nonSeqPartial","seqNoFeedback","seqFeedback"],"classroomPairings":[["A","B"],["C","D"]],"coinWeights":[0.2,0.5,0.8],"subjectId":"A2NEFRREWF33YP","assignmentId":"34FNN24DCNV76TZX3TL3YFFLHM9Y5Q","hitId":"34XASH8KLQ89J2U8D314D7180O4PMV","url":"https://gershmanlab.com/experiments/alicia/teaching/experiment/?hitId=34XASH8KLQ89J2U8D314D7180O4PMV&workerId=A2NEFRREWF33YP&assignmentId=34FNN24DCNV76TZX3TL3YFFLHM9Y5Q&a=DNF47&tp_a=DNF47&b=34FNN24DCNV76TZX3TL3YFFLHM9Y5Q&tp_b=34FNN24DCNV76TZX3TL3YFFLHM9Y5Q&c=365717&tp_c=365717"},{"rt":null,"stimulus":"<div style=\"font-size:60px;\">Next student</div>","response":null,"trial_type":"html-keyboard-response","trial_index":70,"time_elapsed":972943,"internal_node_id":"0.0-66.0-0.0","params":{"nStudents":24,"maxFlips":30,"completionMinutes":45,"basePay":8,"maxBonus":9,"perTrialBonus":0.5,"perTrialBonusThreshold":0.05,"exampleCost":0.01},"classroomParams":{"A":{"a":1,"b":4},"B":{"a":4,"b":1},"C":{"a":2,"b":8},"D":{"a":8,"b":2}},"conditions":["nonSeqFull","nonSeqPartial","seqNoFeedback","seqFeedback"],"classroomPairings":[["A","B"],["C","D"]],"coinWeights":[0.2,0.5,0.8],"subjectId":"A2NEFRREWF33YP","assignmentId":"34FNN24DCNV76TZX3TL3YFFLHM9Y5Q","hitId":"34XASH8KLQ89J2U8D314D7180O4PMV","url":"https://gershmanlab.com/experiments/alicia/teaching/experiment/?hitId=34XASH8KLQ89J2U8D314D7180O4PMV&workerId=A2NEFRREWF33YP&assignmentId=34FNN24DCNV76TZX3TL3YFFLHM9Y5Q&a=DNF47&tp_a=DNF47&b=34FNN24DCNV76TZX3TL3YFFLHM9Y5Q&tp_b=34FNN24DCNV76TZX3TL3YFFLHM9Y5Q&c=365717&tp_c=365717"},{"rt":5493,"stimulus":"\n            <h4 style=\"color:Orange;\">Student 10</h4>\n            <h2>The weight of your coin is <b style=\"color:Tomato;\">0.8</b>.</h2>\n            <p>In this block, you will be giving <b>two</b> sets of examples to Student 10.</p>\n                <p>You will receive feedback at the end of the block.</p>\n            <p></p>","response":0,"trial_type":"html-button-response","trial_index":71,"time_elapsed":978438,"internal_node_id":"0.0-67.0","params":{"nStudents":24,"maxFlips":30,"completionMinutes":45,"basePay":8,"maxBonus":9,"perTrialBonus":0.5,"perTrialBonusThreshold":0.05,"exampleCost":0.01},"classroomParams":{"A":{"a":1,"b":4},"B":{"a":4,"b":1},"C":{"a":2,"b":8},"D":{"a":8,"b":2}},"conditions":["nonSeqFull","nonSeqPartial","seqNoFeedback","seqFeedback"],"classroomPairings":[["A","B"],["C","D"]],"coinWeights":[0.2,0.5,0.8],"subjectId":"A2NEFRREWF33YP","assignmentId":"34FNN24DCNV76TZX3TL3YFFLHM9Y5Q","hitId":"34XASH8KLQ89J2U8D314D7180O4PMV","url":"https://gershmanlab.com/experiments/alicia/teaching/experiment/?hitId=34XASH8KLQ89J2U8D314D7180O4PMV&workerId=A2NEFRREWF33YP&assignmentId=34FNN24DCNV76TZX3TL3YFFLHM9Y5Q&a=DNF47&tp_a=DNF47&b=34FNN24DCNV76TZX3TL3YFFLHM9Y5Q&tp_b=34FNN24DCNV76TZX3TL3YFFLHM9Y5Q&c=365717&tp_c=365717"},{"rt":21397,"response":{"heads":"6","tails":"0"},"type":"response","condition":"seqNoFeedback","trueTheta":0.8,"classrooms":["C","D"],"studentTrueClassroom":"D","exampleSet":"first","trial_type":"survey-html-form","trial_index":72,"time_elapsed":999836,"internal_node_id":"0.0-68.0-0.0","params":{"nStudents":24,"maxFlips":30,"completionMinutes":45,"basePay":8,"maxBonus":9,"perTrialBonus":0.5,"perTrialBonusThreshold":0.05,"exampleCost":0.01},"classroomParams":{"A":{"a":1,"b":4},"B":{"a":4,"b":1},"C":{"a":2,"b":8},"D":{"a":8,"b":2}},"conditions":["nonSeqFull","nonSeqPartial","seqNoFeedback","seqFeedback"],"classroomPairings":[["A","B"],["C","D"]],"coinWeights":[0.2,0.5,0.8],"subjectId":"A2NEFRREWF33YP","assignmentId":"34FNN24DCNV76TZX3TL3YFFLHM9Y5Q","hitId":"34XASH8KLQ89J2U8D314D7180O4PMV","url":"https://gershmanlab.com/experiments/alicia/teaching/experiment/?hitId=34XASH8KLQ89J2U8D314D7180O4PMV&workerId=A2NEFRREWF33YP&assignmentId=34FNN24DCNV76TZX3TL3YFFLHM9Y5Q&a=DNF47&tp_a=DNF47&b=34FNN24DCNV76TZX3TL3YFFLHM9Y5Q&tp_b=34FNN24DCNV76TZX3TL3YFFLHM9Y5Q&c=365717&tp_c=365717","heads":6,"tails":0,"studentIndex":9,"studentTrueHypers":{"a":8,"b":2},"studentGuess":0.875,"delta":0.07499999999999996,"totalExamples":6,"bonusSoFar":0.26},{"rt":null,"stimulus":"Sending examples to student... ","response":null,"trial_type":"html-keyboard-response","trial_index":73,"time_elapsed":1001338,"internal_node_id":"0.0-69.0","params":{"nStudents":24,"maxFlips":30,"completionMinutes":45,"basePay":8,"maxBonus":9,"perTrialBonus":0.5,"perTrialBonusThreshold":0.05,"exampleCost":0.01},"classroomParams":{"A":{"a":1,"b":4},"B":{"a":4,"b":1},"C":{"a":2,"b":8},"D":{"a":8,"b":2}},"conditions":["nonSeqFull","nonSeqPartial","seqNoFeedback","seqFeedback"],"classroomPairings":[["A","B"],["C","D"]],"coinWeights":[0.2,0.5,0.8],"subjectId":"A2NEFRREWF33YP","assignmentId":"34FNN24DCNV76TZX3TL3YFFLHM9Y5Q","hitId":"34XASH8KLQ89J2U8D314D7180O4PMV","url":"https://gershmanlab.com/experiments/alicia/teaching/experiment/?hitId=34XASH8KLQ89J2U8D314D7180O4PMV&workerId=A2NEFRREWF33YP&assignmentId=34FNN24DCNV76TZX3TL3YFFLHM9Y5Q&a=DNF47&tp_a=DNF47&b=34FNN24DCNV76TZX3TL3YFFLHM9Y5Q&tp_b=34FNN24DCNV76TZX3TL3YFFLHM9Y5Q&c=365717&tp_c=365717"},{"rt":null,"stimulus":"Examples sent to student! Waiting for student...","response":null,"trial_type":"html-keyboard-response","trial_index":74,"time_elapsed":1006846,"internal_node_id":"0.0-70.0","params":{"nStudents":24,"maxFlips":30,"completionMinutes":45,"basePay":8,"maxBonus":9,"perTrialBonus":0.5,"perTrialBonusThreshold":0.05,"exampleCost":0.01},"classroomParams":{"A":{"a":1,"b":4},"B":{"a":4,"b":1},"C":{"a":2,"b":8},"D":{"a":8,"b":2}},"conditions":["nonSeqFull","nonSeqPartial","seqNoFeedback","seqFeedback"],"classroomPairings":[["A","B"],["C","D"]],"coinWeights":[0.2,0.5,0.8],"subjectId":"A2NEFRREWF33YP","assignmentId":"34FNN24DCNV76TZX3TL3YFFLHM9Y5Q","hitId":"34XASH8KLQ89J2U8D314D7180O4PMV","url":"https://gershmanlab.com/experiments/alicia/teaching/experiment/?hitId=34XASH8KLQ89J2U8D314D7180O4PMV&workerId=A2NEFRREWF33YP&assignmentId=34FNN24DCNV76TZX3TL3YFFLHM9Y5Q&a=DNF47&tp_a=DNF47&b=34FNN24DCNV76TZX3TL3YFFLHM9Y5Q&tp_b=34FNN24DCNV76TZX3TL3YFFLHM9Y5Q&c=365717&tp_c=365717"},{"rt":11558,"response":{"heads":"6","tails":"0"},"type":"response","condition":"seqNoFeedback","trueTheta":0.8,"classrooms":["C","D"],"studentTrueClassroom":"D","exampleSet":"second","trial_type":"survey-html-form","trial_index":75,"time_elapsed":1018405,"internal_node_id":"0.0-71.0-0.0","params":{"nStudents":24,"maxFlips":30,"completionMinutes":45,"basePay":8,"maxBonus":9,"perTrialBonus":0.5,"perTrialBonusThreshold":0.05,"exampleCost":0.01},"classroomParams":{"A":{"a":1,"b":4},"B":{"a":4,"b":1},"C":{"a":2,"b":8},"D":{"a":8,"b":2}},"conditions":["nonSeqFull","nonSeqPartial","seqNoFeedback","seqFeedback"],"classroomPairings":[["A","B"],["C","D"]],"coinWeights":[0.2,0.5,0.8],"subjectId":"A2NEFRREWF33YP","assignmentId":"34FNN24DCNV76TZX3TL3YFFLHM9Y5Q","hitId":"34XASH8KLQ89J2U8D314D7180O4PMV","url":"https://gershmanlab.com/experiments/alicia/teaching/experiment/?hitId=34XASH8KLQ89J2U8D314D7180O4PMV&workerId=A2NEFRREWF33YP&assignmentId=34FNN24DCNV76TZX3TL3YFFLHM9Y5Q&a=DNF47&tp_a=DNF47&b=34FNN24DCNV76TZX3TL3YFFLHM9Y5Q&tp_b=34FNN24DCNV76TZX3TL3YFFLHM9Y5Q&c=365717&tp_c=365717","firstResponseHeads":6,"firstResponseTails":0,"secondResponseHeads":6,"secondResponseTails":0,"totalHeads":12,"totalTails":0,"studentIndex":9,"studentTrueHypers":{"a":8,"b":2},"studentGuess":0.9090909090909091,"delta":0.10909090909090902,"bonus":0,"bonusSoFar":0.26,"totalExamples":12},{"rt":null,"stimulus":"Sending examples to student... ","response":null,"trial_type":"html-keyboard-response","trial_index":76,"time_elapsed":1020407,"internal_node_id":"0.0-72.0","params":{"nStudents":24,"maxFlips":30,"completionMinutes":45,"basePay":8,"maxBonus":9,"perTrialBonus":0.5,"perTrialBonusThreshold":0.05,"exampleCost":0.01},"classroomParams":{"A":{"a":1,"b":4},"B":{"a":4,"b":1},"C":{"a":2,"b":8},"D":{"a":8,"b":2}},"conditions":["nonSeqFull","nonSeqPartial","seqNoFeedback","seqFeedback"],"classroomPairings":[["A","B"],["C","D"]],"coinWeights":[0.2,0.5,0.8],"subjectId":"A2NEFRREWF33YP","assignmentId":"34FNN24DCNV76TZX3TL3YFFLHM9Y5Q","hitId":"34XASH8KLQ89J2U8D314D7180O4PMV","url":"https://gershmanlab.com/experiments/alicia/teaching/experiment/?hitId=34XASH8KLQ89J2U8D314D7180O4PMV&workerId=A2NEFRREWF33YP&assignmentId=34FNN24DCNV76TZX3TL3YFFLHM9Y5Q&a=DNF47&tp_a=DNF47&b=34FNN24DCNV76TZX3TL3YFFLHM9Y5Q&tp_b=34FNN24DCNV76TZX3TL3YFFLHM9Y5Q&c=365717&tp_c=365717"},{"rt":null,"stimulus":"Examples sent to student! Waiting for student...","response":null,"trial_type":"html-keyboard-response","trial_index":77,"time_elapsed":1025911,"internal_node_id":"0.0-73.0","params":{"nStudents":24,"maxFlips":30,"completionMinutes":45,"basePay":8,"maxBonus":9,"perTrialBonus":0.5,"perTrialBonusThreshold":0.05,"exampleCost":0.01},"classroomParams":{"A":{"a":1,"b":4},"B":{"a":4,"b":1},"C":{"a":2,"b":8},"D":{"a":8,"b":2}},"conditions":["nonSeqFull","nonSeqPartial","seqNoFeedback","seqFeedback"],"classroomPairings":[["A","B"],["C","D"]],"coinWeights":[0.2,0.5,0.8],"subjectId":"A2NEFRREWF33YP","assignmentId":"34FNN24DCNV76TZX3TL3YFFLHM9Y5Q","hitId":"34XASH8KLQ89J2U8D314D7180O4PMV","url":"https://gershmanlab.com/experiments/alicia/teaching/experiment/?hitId=34XASH8KLQ89J2U8D314D7180O4PMV&workerId=A2NEFRREWF33YP&assignmentId=34FNN24DCNV76TZX3TL3YFFLHM9Y5Q&a=DNF47&tp_a=DNF47&b=34FNN24DCNV76TZX3TL3YFFLHM9Y5Q&tp_b=34FNN24DCNV76TZX3TL3YFFLHM9Y5Q&c=365717&tp_c=365717"},{"rt":6726,"stimulus":"\n                <p>Student 10's first guess for coin weight: <b style=\"color:Tomato\";>0.88</b></p>\n                <p>Student 10's second guess for coin weight: <b style=\"color:Tomato\";>0.91</b></p>\n                <p>You received a bonus of <b>$0.00</b> based on the student's second guess.</p>\n                <p>Total bonus so far: <b>$0.26</b></p>\n                <p>Press any key to continue.</p>\n                ","response":"6","trial_type":"html-keyboard-response","trial_index":78,"time_elapsed":1032638,"internal_node_id":"0.0-74.0","params":{"nStudents":24,"maxFlips":30,"completionMinutes":45,"basePay":8,"maxBonus":9,"perTrialBonus":0.5,"perTrialBonusThreshold":0.05,"exampleCost":0.01},"classroomParams":{"A":{"a":1,"b":4},"B":{"a":4,"b":1},"C":{"a":2,"b":8},"D":{"a":8,"b":2}},"conditions":["nonSeqFull","nonSeqPartial","seqNoFeedback","seqFeedback"],"classroomPairings":[["A","B"],["C","D"]],"coinWeights":[0.2,0.5,0.8],"subjectId":"A2NEFRREWF33YP","assignmentId":"34FNN24DCNV76TZX3TL3YFFLHM9Y5Q","hitId":"34XASH8KLQ89J2U8D314D7180O4PMV","url":"https://gershmanlab.com/experiments/alicia/teaching/experiment/?hitId=34XASH8KLQ89J2U8D314D7180O4PMV&workerId=A2NEFRREWF33YP&assignmentId=34FNN24DCNV76TZX3TL3YFFLHM9Y5Q&a=DNF47&tp_a=DNF47&b=34FNN24DCNV76TZX3TL3YFFLHM9Y5Q&tp_b=34FNN24DCNV76TZX3TL3YFFLHM9Y5Q&c=365717&tp_c=365717"},{"rt":null,"stimulus":"<div style=\"font-size:60px;\">Next student</div>","response":null,"trial_type":"html-keyboard-response","trial_index":79,"time_elapsed":1035140,"internal_node_id":"0.0-75.0-0.0","params":{"nStudents":24,"maxFlips":30,"completionMinutes":45,"basePay":8,"maxBonus":9,"perTrialBonus":0.5,"perTrialBonusThreshold":0.05,"exampleCost":0.01},"classroomParams":{"A":{"a":1,"b":4},"B":{"a":4,"b":1},"C":{"a":2,"b":8},"D":{"a":8,"b":2}},"conditions":["nonSeqFull","nonSeqPartial","seqNoFeedback","seqFeedback"],"classroomPairings":[["A","B"],["C","D"]],"coinWeights":[0.2,0.5,0.8],"subjectId":"A2NEFRREWF33YP","assignmentId":"34FNN24DCNV76TZX3TL3YFFLHM9Y5Q","hitId":"34XASH8KLQ89J2U8D314D7180O4PMV","url":"https://gershmanlab.com/experiments/alicia/teaching/experiment/?hitId=34XASH8KLQ89J2U8D314D7180O4PMV&workerId=A2NEFRREWF33YP&assignmentId=34FNN24DCNV76TZX3TL3YFFLHM9Y5Q&a=DNF47&tp_a=DNF47&b=34FNN24DCNV76TZX3TL3YFFLHM9Y5Q&tp_b=34FNN24DCNV76TZX3TL3YFFLHM9Y5Q&c=365717&tp_c=365717"},{"rt":3488,"stimulus":"\n            <h4 style=\"color:Orange;\">Student 11</h4>\n            <h2>The weight of your coin is <b style=\"color:Tomato;\">0.8</b>.</h2>\n            <p>In this block, you will be giving <b>one</b> set of examples to Student 11.</p>\n                <p>You will receive feedback at the end of the block.</p>\n            <p></p>","response":0,"trial_type":"html-button-response","trial_index":80,"time_elapsed":1038629,"internal_node_id":"0.0-76.0","params":{"nStudents":24,"maxFlips":30,"completionMinutes":45,"basePay":8,"maxBonus":9,"perTrialBonus":0.5,"perTrialBonusThreshold":0.05,"exampleCost":0.01},"classroomParams":{"A":{"a":1,"b":4},"B":{"a":4,"b":1},"C":{"a":2,"b":8},"D":{"a":8,"b":2}},"conditions":["nonSeqFull","nonSeqPartial","seqNoFeedback","seqFeedback"],"classroomPairings":[["A","B"],["C","D"]],"coinWeights":[0.2,0.5,0.8],"subjectId":"A2NEFRREWF33YP","assignmentId":"34FNN24DCNV76TZX3TL3YFFLHM9Y5Q","hitId":"34XASH8KLQ89J2U8D314D7180O4PMV","url":"https://gershmanlab.com/experiments/alicia/teaching/experiment/?hitId=34XASH8KLQ89J2U8D314D7180O4PMV&workerId=A2NEFRREWF33YP&assignmentId=34FNN24DCNV76TZX3TL3YFFLHM9Y5Q&a=DNF47&tp_a=DNF47&b=34FNN24DCNV76TZX3TL3YFFLHM9Y5Q&tp_b=34FNN24DCNV76TZX3TL3YFFLHM9Y5Q&c=365717&tp_c=365717"},{"rt":86989,"response":{"heads":"8","tails":"2"},"type":"response","condition":"nonSeqPartial","trueTheta":0.8,"classrooms":["A","B"],"studentTrueClassroom":"B","exampleSet":"first","trial_type":"survey-html-form","trial_index":81,"time_elapsed":1125620,"internal_node_id":"0.0-77.0-0.0","params":{"nStudents":24,"maxFlips":30,"completionMinutes":45,"basePay":8,"maxBonus":9,"perTrialBonus":0.5,"perTrialBonusThreshold":0.05,"exampleCost":0.01},"classroomParams":{"A":{"a":1,"b":4},"B":{"a":4,"b":1},"C":{"a":2,"b":8},"D":{"a":8,"b":2}},"conditions":["nonSeqFull","nonSeqPartial","seqNoFeedback","seqFeedback"],"classroomPairings":[["A","B"],["C","D"]],"coinWeights":[0.2,0.5,0.8],"subjectId":"A2NEFRREWF33YP","assignmentId":"34FNN24DCNV76TZX3TL3YFFLHM9Y5Q","hitId":"34XASH8KLQ89J2U8D314D7180O4PMV","url":"https://gershmanlab.com/experiments/alicia/teaching/experiment/?hitId=34XASH8KLQ89J2U8D314D7180O4PMV&workerId=A2NEFRREWF33YP&assignmentId=34FNN24DCNV76TZX3TL3YFFLHM9Y5Q&a=DNF47&tp_a=DNF47&b=34FNN24DCNV76TZX3TL3YFFLHM9Y5Q&tp_b=34FNN24DCNV76TZX3TL3YFFLHM9Y5Q&c=365717&tp_c=365717","heads":8,"tails":2,"studentIndex":10,"studentTrueHypers":{"a":4,"b":1},"studentGuess":0.8,"delta":0,"totalExamples":10,"bonus":0.4,"bonusSoFar":0.66},{"rt":null,"stimulus":"Sending examples to student... ","response":null,"trial_type":"html-keyboard-response","trial_index":82,"time_elapsed":1127372,"internal_node_id":"0.0-78.0","params":{"nStudents":24,"maxFlips":30,"completionMinutes":45,"basePay":8,"maxBonus":9,"perTrialBonus":0.5,"perTrialBonusThreshold":0.05,"exampleCost":0.01},"classroomParams":{"A":{"a":1,"b":4},"B":{"a":4,"b":1},"C":{"a":2,"b":8},"D":{"a":8,"b":2}},"conditions":["nonSeqFull","nonSeqPartial","seqNoFeedback","seqFeedback"],"classroomPairings":[["A","B"],["C","D"]],"coinWeights":[0.2,0.5,0.8],"subjectId":"A2NEFRREWF33YP","assignmentId":"34FNN24DCNV76TZX3TL3YFFLHM9Y5Q","hitId":"34XASH8KLQ89J2U8D314D7180O4PMV","url":"https://gershmanlab.com/experiments/alicia/teaching/experiment/?hitId=34XASH8KLQ89J2U8D314D7180O4PMV&workerId=A2NEFRREWF33YP&assignmentId=34FNN24DCNV76TZX3TL3YFFLHM9Y5Q&a=DNF47&tp_a=DNF47&b=34FNN24DCNV76TZX3TL3YFFLHM9Y5Q&tp_b=34FNN24DCNV76TZX3TL3YFFLHM9Y5Q&c=365717&tp_c=365717"},{"rt":null,"stimulus":"Examples sent to student! Waiting for student...","response":null,"trial_type":"html-keyboard-response","trial_index":83,"time_elapsed":1133377,"internal_node_id":"0.0-79.0","params":{"nStudents":24,"maxFlips":30,"completionMinutes":45,"basePay":8,"maxBonus":9,"perTrialBonus":0.5,"perTrialBonusThreshold":0.05,"exampleCost":0.01},"classroomParams":{"A":{"a":1,"b":4},"B":{"a":4,"b":1},"C":{"a":2,"b":8},"D":{"a":8,"b":2}},"conditions":["nonSeqFull","nonSeqPartial","seqNoFeedback","seqFeedback"],"classroomPairings":[["A","B"],["C","D"]],"coinWeights":[0.2,0.5,0.8],"subjectId":"A2NEFRREWF33YP","assignmentId":"34FNN24DCNV76TZX3TL3YFFLHM9Y5Q","hitId":"34XASH8KLQ89J2U8D314D7180O4PMV","url":"https://gershmanlab.com/experiments/alicia/teaching/experiment/?hitId=34XASH8KLQ89J2U8D314D7180O4PMV&workerId=A2NEFRREWF33YP&assignmentId=34FNN24DCNV76TZX3TL3YFFLHM9Y5Q&a=DNF47&tp_a=DNF47&b=34FNN24DCNV76TZX3TL3YFFLHM9Y5Q&tp_b=34FNN24DCNV76TZX3TL3YFFLHM9Y5Q&c=365717&tp_c=365717"},{"rt":3297,"stimulus":"\n                <p>Student's guess for coin weight: <b style=\"color:Tomato;\">0.80</b></p>\n                <p>You received a bonus of <b>$0.4</b>. Total bonus so far: <b>$0.66</b></b></p>\n                <p></p>\n                <p>Press any key to continue.</p>\n                ","response":"t","trial_type":"html-keyboard-response","trial_index":84,"time_elapsed":1136675,"internal_node_id":"0.0-80.0","params":{"nStudents":24,"maxFlips":30,"completionMinutes":45,"basePay":8,"maxBonus":9,"perTrialBonus":0.5,"perTrialBonusThreshold":0.05,"exampleCost":0.01},"classroomParams":{"A":{"a":1,"b":4},"B":{"a":4,"b":1},"C":{"a":2,"b":8},"D":{"a":8,"b":2}},"conditions":["nonSeqFull","nonSeqPartial","seqNoFeedback","seqFeedback"],"classroomPairings":[["A","B"],["C","D"]],"coinWeights":[0.2,0.5,0.8],"subjectId":"A2NEFRREWF33YP","assignmentId":"34FNN24DCNV76TZX3TL3YFFLHM9Y5Q","hitId":"34XASH8KLQ89J2U8D314D7180O4PMV","url":"https://gershmanlab.com/experiments/alicia/teaching/experiment/?hitId=34XASH8KLQ89J2U8D314D7180O4PMV&workerId=A2NEFRREWF33YP&assignmentId=34FNN24DCNV76TZX3TL3YFFLHM9Y5Q&a=DNF47&tp_a=DNF47&b=34FNN24DCNV76TZX3TL3YFFLHM9Y5Q&tp_b=34FNN24DCNV76TZX3TL3YFFLHM9Y5Q&c=365717&tp_c=365717"},{"rt":null,"stimulus":"<div style=\"font-size:60px;\">Next student</div>","response":null,"trial_type":"html-keyboard-response","trial_index":85,"time_elapsed":1138934,"internal_node_id":"0.0-81.0-0.0","params":{"nStudents":24,"maxFlips":30,"completionMinutes":45,"basePay":8,"maxBonus":9,"perTrialBonus":0.5,"perTrialBonusThreshold":0.05,"exampleCost":0.01},"classroomParams":{"A":{"a":1,"b":4},"B":{"a":4,"b":1},"C":{"a":2,"b":8},"D":{"a":8,"b":2}},"conditions":["nonSeqFull","nonSeqPartial","seqNoFeedback","seqFeedback"],"classroomPairings":[["A","B"],["C","D"]],"coinWeights":[0.2,0.5,0.8],"subjectId":"A2NEFRREWF33YP","assignmentId":"34FNN24DCNV76TZX3TL3YFFLHM9Y5Q","hitId":"34XASH8KLQ89J2U8D314D7180O4PMV","url":"https://gershmanlab.com/experiments/