[{"rt":null,"stimulus":"Welcome to the experiment. Press any key to begin.","response":null,"trial_type":"html-keyboard-response","trial_index":0,"time_elapsed":30054,"internal_node_id":"0.0-0.0","params":{"nStudents":24,"maxFlips":30,"completionMinutes":45,"basePay":8,"maxBonus":9,"perTrialBonus":0.5,"perTrialBonusThreshold":0.05,"exampleCost":0.01},"classroomParams":{"A":{"a":1,"b":4},"B":{"a":4,"b":1},"C":{"a":2,"b":8},"D":{"a":8,"b":2}},"conditions":["nonSeqFull","nonSeqPartial","seqNoFeedback","seqFeedback"],"classroomPairings":[["A","B"],["C","D"]],"coinWeights":[0.2,0.5,0.8],"subjectId":"A2NJ7N8INZOB00","assignmentId":"3IOEN3P9S856ZRO8WNOZCYIB6WC61H","hitId":"3ZG552ORAMQWHINBPXRJ4QCSG7OV2V","url":"https://gershmanlab.com/experiments/alicia/teaching/experiment/?hitId=3ZG552ORAMQWHINBPXRJ4QCSG7OV2V&workerId=A2NJ7N8INZOB00&assignmentId=3IOEN3P9S856ZRO8WNOZCYIB6WC61H&a=9NOI7&tp_a=9NOI7&b=3IOEN3P9S856ZRO8WNOZCYIB6WC61H&tp_b=3IOEN3P9S856ZRO8WNOZCYIB6WC61H&c=365717&tp_c=365717"},{"rt":4757,"stimulus":"\n        <h3>Please read this consent agreement carefully before deciding whether to participate in this experiment.</h3>\n        <p><b>Purpose of the research:</b> To examine how people teach effectively.</p>\n        <p><b>What you will do in this research:</b> You will teach students the weights of different coins.</p>\n        <p><b>Time required:</b> This experiment will take 45 minutes to complete.</p>\n        <p><b>Risks:</b> There are no anticipated risks associated with participating in this study.             The effects of participating should be comparable to those you would experience from viewing a computer monitor             and using a mouse and keyboard for the duration of the experiment.</p>\n        <p><b>Benefits:</b> The study provides important information about the nature of teaching.</p>\n        <p><b>Compensation:</b> You will receive <b>$8</b> for completing the experiment and a performance bonus of up to <b>$9</b>.</p>\n        <p><b>Confidentiality:</b> Your participation in this study will remain confidential.             No personally identifiable information will be associated with your data.             Your de-identified data may be shared with other researchers and used in future projects.</p>\n        <p><b>Participation and withdrawal:</b> Your participation in this study is completely voluntary and             you may refuse to participate or you may choose to withdraw at any time without penalty or loss of\n            benefits to which you are otherwise entitled.</p>\n        <p><b>How to contact the researcher:</b> If you have questions or concerns about your participation            or payment, or want to request a summary of research findings, please contact\n            Alicia Chen, aliciachen@college.harvard.edu.</p>\n        <p><b>Whom to contact about your rights in this research:</b> For questions, concerns, suggestions,             or complaints that have not been or cannot be addressed by the researcher, or to report             research-related harm, please contact the Committee on the Use of Human Subjects in Research at Harvard University,             1414 Massachusetts Avenue, Second Floor, Cambridge, MA 02138. Phone: 617-496-2847. Email: cuhs@fas.harvard.edu.</p>\n        ","response":0,"trial_type":"html-button-response","trial_index":1,"time_elapsed":34828,"internal_node_id":"0.0-1.0","params":{"nStudents":24,"maxFlips":30,"completionMinutes":45,"basePay":8,"maxBonus":9,"perTrialBonus":0.5,"perTrialBonusThreshold":0.05,"exampleCost":0.01},"classroomParams":{"A":{"a":1,"b":4},"B":{"a":4,"b":1},"C":{"a":2,"b":8},"D":{"a":8,"b":2}},"conditions":["nonSeqFull","nonSeqPartial","seqNoFeedback","seqFeedback"],"classroomPairings":[["A","B"],["C","D"]],"coinWeights":[0.2,0.5,0.8],"subjectId":"A2NJ7N8INZOB00","assignmentId":"3IOEN3P9S856ZRO8WNOZCYIB6WC61H","hitId":"3ZG552ORAMQWHINBPXRJ4QCSG7OV2V","url":"https://gershmanlab.com/experiments/alicia/teaching/experiment/?hitId=3ZG552ORAMQWHINBPXRJ4QCSG7OV2V&workerId=A2NJ7N8INZOB00&assignmentId=3IOEN3P9S856ZRO8WNOZCYIB6WC61H&a=9NOI7&tp_a=9NOI7&b=3IOEN3P9S856ZRO8WNOZCYIB6WC61H&tp_b=3IOEN3P9S856ZRO8WNOZCYIB6WC61H&c=365717&tp_c=365717"},{"view_history":[{"page_index":0,"viewing_time":22495},{"page_index":1,"viewing_time":7113},{"page_index":2,"viewing_time":39917},{"page_index":3,"viewing_time":46384},{"page_index":4,"viewing_time":12060},{"page_index":5,"viewing_time":25475},{"page_index":6,"viewing_time":34929}],"rt":188379,"trial_type":"instructions","trial_index":2,"time_elapsed":223213,"internal_node_id":"0.0-2.0-0.0","params":{"nStudents":24,"maxFlips":30,"completionMinutes":45,"basePay":8,"maxBonus":9,"perTrialBonus":0.5,"perTrialBonusThreshold":0.05,"exampleCost":0.01},"classroomParams":{"A":{"a":1,"b":4},"B":{"a":4,"b":1},"C":{"a":2,"b":8},"D":{"a":8,"b":2}},"conditions":["nonSeqFull","nonSeqPartial","seqNoFeedback","seqFeedback"],"classroomPairings":[["A","B"],["C","D"]],"coinWeights":[0.2,0.5,0.8],"subjectId":"A2NJ7N8INZOB00","assignmentId":"3IOEN3P9S856ZRO8WNOZCYIB6WC61H","hitId":"3ZG552ORAMQWHINBPXRJ4QCSG7OV2V","url":"https://gershmanlab.com/experiments/alicia/teaching/experiment/?hitId=3ZG552ORAMQWHINBPXRJ4QCSG7OV2V&workerId=A2NJ7N8INZOB00&assignmentId=3IOEN3P9S856ZRO8WNOZCYIB6WC61H&a=9NOI7&tp_a=9NOI7&b=3IOEN3P9S856ZRO8WNOZCYIB6WC61H&tp_b=3IOEN3P9S856ZRO8WNOZCYIB6WC61H&c=365717&tp_c=365717"},{"rt":85781,"response":{"Q0":"Students in different classrooms will have seen a different number of heads and tails before seeing the examples you select for them.","Q1":"By <b>considering the student's classroom information</b> so that I can teach efficiently and accurately/helpfully at the same time (because each example I give to the student costs money!).","Q2":"The coin lands heads 90% of the time.","Q3":"No, I will teach a <b>new</b> student each time.","Q4":"The students are also on the same alien planet as you, where coins can be unfair.","Q5":"Based on the student's second (and final) guess."},"question_order":[5,1,0,3,4,2],"trial_type":"survey-multi-choice","trial_index":3,"time_elapsed":309025,"internal_node_id":"0.0-2.0-1.0","params":{"nStudents":24,"maxFlips":30,"completionMinutes":45,"basePay":8,"maxBonus":9,"perTrialBonus":0.5,"perTrialBonusThreshold":0.05,"exampleCost":0.01},"classroomParams":{"A":{"a":1,"b":4},"B":{"a":4,"b":1},"C":{"a":2,"b":8},"D":{"a":8,"b":2}},"conditions":["nonSeqFull","nonSeqPartial","seqNoFeedback","seqFeedback"],"classroomPairings":[["A","B"],["C","D"]],"coinWeights":[0.2,0.5,0.8],"subjectId":"A2NJ7N8INZOB00","assignmentId":"3IOEN3P9S856ZRO8WNOZCYIB6WC61H","hitId":"3ZG552ORAMQWHINBPXRJ4QCSG7OV2V","url":"https://gershmanlab.com/experiments/alicia/teaching/experiment/?hitId=3ZG552ORAMQWHINBPXRJ4QCSG7OV2V&workerId=A2NJ7N8INZOB00&assignmentId=3IOEN3P9S856ZRO8WNOZCYIB6WC61H&a=9NOI7&tp_a=9NOI7&b=3IOEN3P9S856ZRO8WNOZCYIB6WC61H&tp_b=3IOEN3P9S856ZRO8WNOZCYIB6WC61H&c=365717&tp_c=365717","pass":true},{"rt":null,"stimulus":"<div style=\"font-size:30px;\">Congrats on passing the comprehension quiz! The experiment will begin in a few seconds.</div>","response":null,"trial_type":"html-keyboard-response","trial_index":4,"time_elapsed":312048,"internal_node_id":"0.0-3.0","params":{"nStudents":24,"maxFlips":30,"completionMinutes":45,"basePay":8,"maxBonus":9,"perTrialBonus":0.5,"perTrialBonusThreshold":0.05,"exampleCost":0.01},"classroomParams":{"A":{"a":1,"b":4},"B":{"a":4,"b":1},"C":{"a":2,"b":8},"D":{"a":8,"b":2}},"conditions":["nonSeqFull","nonSeqPartial","seqNoFeedback","seqFeedback"],"classroomPairings":[["A","B"],["C","D"]],"coinWeights":[0.2,0.5,0.8],"subjectId":"A2NJ7N8INZOB00","assignmentId":"3IOEN3P9S856ZRO8WNOZCYIB6WC61H","hitId":"3ZG552ORAMQWHINBPXRJ4QCSG7OV2V","url":"https://gershmanlab.com/experiments/alicia/teaching/experiment/?hitId=3ZG552ORAMQWHINBPXRJ4QCSG7OV2V&workerId=A2NJ7N8INZOB00&assignmentId=3IOEN3P9S856ZRO8WNOZCYIB6WC61H&a=9NOI7&tp_a=9NOI7&b=3IOEN3P9S856ZRO8WNOZCYIB6WC61H&tp_b=3IOEN3P9S856ZRO8WNOZCYIB6WC61H&c=365717&tp_c=365717"},{"rt":null,"stimulus":"<div style=\"font-size:50px;\">First student</div>","response":null,"trial_type":"html-keyboard-response","trial_index":5,"time_elapsed":315055,"internal_node_id":"0.0-4.0","params":{"nStudents":24,"maxFlips":30,"completionMinutes":45,"basePay":8,"maxBonus":9,"perTrialBonus":0.5,"perTrialBonusThreshold":0.05,"exampleCost":0.01},"classroomParams":{"A":{"a":1,"b":4},"B":{"a":4,"b":1},"C":{"a":2,"b":8},"D":{"a":8,"b":2}},"conditions":["nonSeqFull","nonSeqPartial","seqNoFeedback","seqFeedback"],"classroomPairings":[["A","B"],["C","D"]],"coinWeights":[0.2,0.5,0.8],"subjectId":"A2NJ7N8INZOB00","assignmentId":"3IOEN3P9S856ZRO8WNOZCYIB6WC61H","hitId":"3ZG552ORAMQWHINBPXRJ4QCSG7OV2V","url":"https://gershmanlab.com/experiments/alicia/teaching/experiment/?hitId=3ZG552ORAMQWHINBPXRJ4QCSG7OV2V&workerId=A2NJ7N8INZOB00&assignmentId=3IOEN3P9S856ZRO8WNOZCYIB6WC61H&a=9NOI7&tp_a=9NOI7&b=3IOEN3P9S856ZRO8WNOZCYIB6WC61H&tp_b=3IOEN3P9S856ZRO8WNOZCYIB6WC61H&c=365717&tp_c=365717"},{"rt":81259,"stimulus":"\n            <h4 style=\"color:Orange;\">Student 1</h4>\n            <h2>The weight of your coin is <b style=\"color:Tomato;\">0.5</b>.</h2>\n            <p>In this block, you will be giving <b>one</b> set of examples to Student 1.</p>\n                <p>You will receive feedback at the end of the block.</p>\n            <p></p>","response":0,"trial_type":"html-button-response","trial_index":6,"time_elapsed":396322,"internal_node_id":"0.0-5.0","params":{"nStudents":24,"maxFlips":30,"completionMinutes":45,"basePay":8,"maxBonus":9,"perTrialBonus":0.5,"perTrialBonusThreshold":0.05,"exampleCost":0.01},"classroomParams":{"A":{"a":1,"b":4},"B":{"a":4,"b":1},"C":{"a":2,"b":8},"D":{"a":8,"b":2}},"conditions":["nonSeqFull","nonSeqPartial","seqNoFeedback","seqFeedback"],"classroomPairings":[["A","B"],["C","D"]],"coinWeights":[0.2,0.5,0.8],"subjectId":"A2NJ7N8INZOB00","assignmentId":"3IOEN3P9S856ZRO8WNOZCYIB6WC61H","hitId":"3ZG552ORAMQWHINBPXRJ4QCSG7OV2V","url":"https://gershmanlab.com/experiments/alicia/teaching/experiment/?hitId=3ZG552ORAMQWHINBPXRJ4QCSG7OV2V&workerId=A2NJ7N8INZOB00&assignmentId=3IOEN3P9S856ZRO8WNOZCYIB6WC61H&a=9NOI7&tp_a=9NOI7&b=3IOEN3P9S856ZRO8WNOZCYIB6WC61H&tp_b=3IOEN3P9S856ZRO8WNOZCYIB6WC61H&c=365717&tp_c=365717"},{"rt":33194,"response":{"heads":"1","tails":"1"},"type":"response","condition":"nonSeqFull","trueTheta":0.5,"classrooms":["A","B"],"studentTrueClassroom":"B","exampleSet":"first","trial_type":"survey-html-form","trial_index":7,"time_elapsed":429523,"internal_node_id":"0.0-6.0-0.0","params":{"nStudents":24,"maxFlips":30,"completionMinutes":45,"basePay":8,"maxBonus":9,"perTrialBonus":0.5,"perTrialBonusThreshold":0.05,"exampleCost":0.01},"classroomParams":{"A":{"a":1,"b":4},"B":{"a":4,"b":1},"C":{"a":2,"b":8},"D":{"a":8,"b":2}},"conditions":["nonSeqFull","nonSeqPartial","seqNoFeedback","seqFeedback"],"classroomPairings":[["A","B"],["C","D"]],"coinWeights":[0.2,0.5,0.8],"subjectId":"A2NJ7N8INZOB00","assignmentId":"3IOEN3P9S856ZRO8WNOZCYIB6WC61H","hitId":"3ZG552ORAMQWHINBPXRJ4QCSG7OV2V","url":"https://gershmanlab.com/experiments/alicia/teaching/experiment/?hitId=3ZG552ORAMQWHINBPXRJ4QCSG7OV2V&workerId=A2NJ7N8INZOB00&assignmentId=3IOEN3P9S856ZRO8WNOZCYIB6WC61H&a=9NOI7&tp_a=9NOI7&b=3IOEN3P9S856ZRO8WNOZCYIB6WC61H&tp_b=3IOEN3P9S856ZRO8WNOZCYIB6WC61H&c=365717&tp_c=365717","heads":1,"tails":1,"studentIndex":0,"studentTrueHypers":{"a":4,"b":1},"studentGuess":0.7142857142857143,"delta":0.2142857142857143,"totalExamples":2,"bonus":0,"bonusSoFar":0},{"rt":null,"stimulus":"Sending examples to student... ","response":null,"trial_type":"html-keyboard-response","trial_index":8,"time_elapsed":430787,"internal_node_id":"0.0-7.0","params":{"nStudents":24,"maxFlips":30,"completionMinutes":45,"basePay":8,"maxBonus":9,"perTrialBonus":0.5,"perTrialBonusThreshold":0.05,"exampleCost":0.01},"classroomParams":{"A":{"a":1,"b":4},"B":{"a":4,"b":1},"C":{"a":2,"b":8},"D":{"a":8,"b":2}},"conditions":["nonSeqFull","nonSeqPartial","seqNoFeedback","seqFeedback"],"classroomPairings":[["A","B"],["C","D"]],"coinWeights":[0.2,0.5,0.8],"subjectId":"A2NJ7N8INZOB00","assignmentId":"3IOEN3P9S856ZRO8WNOZCYIB6WC61H","hitId":"3ZG552ORAMQWHINBPXRJ4QCSG7OV2V","url":"https://gershmanlab.com/experiments/alicia/teaching/experiment/?hitId=3ZG552ORAMQWHINBPXRJ4QCSG7OV2V&workerId=A2NJ7N8INZOB00&assignmentId=3IOEN3P9S856ZRO8WNOZCYIB6WC61H&a=9NOI7&tp_a=9NOI7&b=3IOEN3P9S856ZRO8WNOZCYIB6WC61H&tp_b=3IOEN3P9S856ZRO8WNOZCYIB6WC61H&c=365717&tp_c=365717"},{"rt":null,"stimulus":"Examples sent to student! Waiting for student...","response":null,"trial_type":"html-keyboard-response","trial_index":9,"time_elapsed":436792,"internal_node_id":"0.0-8.0","params":{"nStudents":24,"maxFlips":30,"completionMinutes":45,"basePay":8,"maxBonus":9,"perTrialBonus":0.5,"perTrialBonusThreshold":0.05,"exampleCost":0.01},"classroomParams":{"A":{"a":1,"b":4},"B":{"a":4,"b":1},"C":{"a":2,"b":8},"D":{"a":8,"b":2}},"conditions":["nonSeqFull","nonSeqPartial","seqNoFeedback","seqFeedback"],"classroomPairings":[["A","B"],["C","D"]],"coinWeights":[0.2,0.5,0.8],"subjectId":"A2NJ7N8INZOB00","assignmentId":"3IOEN3P9S856ZRO8WNOZCYIB6WC61H","hitId":"3ZG552ORAMQWHINBPXRJ4QCSG7OV2V","url":"https://gershmanlab.com/experiments/alicia/teaching/experiment/?hitId=3ZG552ORAMQWHINBPXRJ4QCSG7OV2V&workerId=A2NJ7N8INZOB00&assignmentId=3IOEN3P9S856ZRO8WNOZCYIB6WC61H&a=9NOI7&tp_a=9NOI7&b=3IOEN3P9S856ZRO8WNOZCYIB6WC61H&tp_b=3IOEN3P9S856ZRO8WNOZCYIB6WC61H&c=365717&tp_c=365717"},{"rt":13111,"stimulus":"\n                <p>Student's guess for coin weight: <b style=\"color:Tomato;\">0.71</b></p>\n                <p>You received a bonus of <b>$0</b>. Total bonus so far: <b>$0.00</b></b></p>\n                <p></p>\n                <p>Press any key to continue.</p>\n                ","response":"control","trial_type":"html-keyboard-response","trial_index":10,"time_elapsed":449912,"internal_node_id":"0.0-9.0","params":{"nStudents":24,"maxFlips":30,"completionMinutes":45,"basePay":8,"maxBonus":9,"perTrialBonus":0.5,"perTrialBonusThreshold":0.05,"exampleCost":0.01},"classroomParams":{"A":{"a":1,"b":4},"B":{"a":4,"b":1},"C":{"a":2,"b":8},"D":{"a":8,"b":2}},"conditions":["nonSeqFull","nonSeqPartial","seqNoFeedback","seqFeedback"],"classroomPairings":[["A","B"],["C","D"]],"coinWeights":[0.2,0.5,0.8],"subjectId":"A2NJ7N8INZOB00","assignmentId":"3IOEN3P9S856ZRO8WNOZCYIB6WC61H","hitId":"3ZG552ORAMQWHINBPXRJ4QCSG7OV2V","url":"https://gershmanlab.com/experiments/alicia/teaching/experiment/?hitId=3ZG552ORAMQWHINBPXRJ4QCSG7OV2V&workerId=A2NJ7N8INZOB00&assignmentId=3IOEN3P9S856ZRO8WNOZCYIB6WC61H&a=9NOI7&tp_a=9NOI7&b=3IOEN3P9S856ZRO8WNOZCYIB6WC61H&tp_b=3IOEN3P9S856ZRO8WNOZCYIB6WC61H&c=365717&tp_c=365717"},{"rt":null,"stimulus":"<div style=\"font-size:60px;\">Next student</div>","response":null,"trial_type":"html-keyboard-response","trial_index":11,"time_elapsed":452918,"internal_node_id":"0.0-10.0-0.0","params":{"nStudents":24,"maxFlips":30,"completionMinutes":45,"basePay":8,"maxBonus":9,"perTrialBonus":0.5,"perTrialBonusThreshold":0.05,"exampleCost":0.01},"classroomParams":{"A":{"a":1,"b":4},"B":{"a":4,"b":1},"C":{"a":2,"b":8},"D":{"a":8,"b":2}},"conditions":["nonSeqFull","nonSeqPartial","seqNoFeedback","seqFeedback"],"classroomPairings":[["A","B"],["C","D"]],"coinWeights":[0.2,0.5,0.8],"subjectId":"A2NJ7N8INZOB00","assignmentId":"3IOEN3P9S856ZRO8WNOZCYIB6WC61H","hitId":"3ZG552ORAMQWHINBPXRJ4QCSG7OV2V","url":"https://gershmanlab.com/experiments/alicia/teaching/experiment/?hitId=3ZG552ORAMQWHINBPXRJ4QCSG7OV2V&workerId=A2NJ7N8INZOB00&assignmentId=3IOEN3P9S856ZRO8WNOZCYIB6WC61H&a=9NOI7&tp_a=9NOI7&b=3IOEN3P9S856ZRO8WNOZCYIB6WC61H&tp_b=3IOEN3P9S856ZRO8WNOZCYIB6WC61H&c=365717&tp_c=365717"},{"rt":23453,"stimulus":"\n            <h4 style=\"color:Orange;\">Student 2</h4>\n            <h2>The weight of your coin is <b style=\"color:Tomato;\">0.8</b>.</h2>\n            <p>In this block, you will be giving <b>two</b> sets of examples to Student 2.</p>\n                <p>You will see the student's guess after the first set of examples. You will also receive feedback at the end of the block.</p>\n            <p>To earn the highest bonus, you will have to <b>take into consideration the student's guess</b> when you choose your second set of examples.</p>","response":0,"trial_type":"html-button-response","trial_index":12,"time_elapsed":476383,"internal_node_id":"0.0-11.0","params":{"nStudents":24,"maxFlips":30,"completionMinutes":45,"basePay":8,"maxBonus":9,"perTrialBonus":0.5,"perTrialBonusThreshold":0.05,"exampleCost":0.01},"classroomParams":{"A":{"a":1,"b":4},"B":{"a":4,"b":1},"C":{"a":2,"b":8},"D":{"a":8,"b":2}},"conditions":["nonSeqFull","nonSeqPartial","seqNoFeedback","seqFeedback"],"classroomPairings":[["A","B"],["C","D"]],"coinWeights":[0.2,0.5,0.8],"subjectId":"A2NJ7N8INZOB00","assignmentId":"3IOEN3P9S856ZRO8WNOZCYIB6WC61H","hitId":"3ZG552ORAMQWHINBPXRJ4QCSG7OV2V","url":"https://gershmanlab.com/experiments/alicia/teaching/experiment/?hitId=3ZG552ORAMQWHINBPXRJ4QCSG7OV2V&workerId=A2NJ7N8INZOB00&assignmentId=3IOEN3P9S856ZRO8WNOZCYIB6WC61H&a=9NOI7&tp_a=9NOI7&b=3IOEN3P9S856ZRO8WNOZCYIB6WC61H&tp_b=3IOEN3P9S856ZRO8WNOZCYIB6WC61H&c=365717&tp_c=365717"},{"rt":31996,"response":{"heads":"8","tails":"02"},"type":"response","condition":"seqFeedback","trueTheta":0.8,"classrooms":["C","D"],"studentTrueClassroom":"C","exampleSet":"first","trial_type":"survey-html-form","trial_index":13,"time_elapsed":508389,"internal_node_id":"0.0-12.0-0.0","params":{"nStudents":24,"maxFlips":30,"completionMinutes":45,"basePay":8,"maxBonus":9,"perTrialBonus":0.5,"perTrialBonusThreshold":0.05,"exampleCost":0.01},"classroomParams":{"A":{"a":1,"b":4},"B":{"a":4,"b":1},"C":{"a":2,"b":8},"D":{"a":8,"b":2}},"conditions":["nonSeqFull","nonSeqPartial","seqNoFeedback","seqFeedback"],"classroomPairings":[["A","B"],["C","D"]],"coinWeights":[0.2,0.5,0.8],"subjectId":"A2NJ7N8INZOB00","assignmentId":"3IOEN3P9S856ZRO8WNOZCYIB6WC61H","hitId":"3ZG552ORAMQWHINBPXRJ4QCSG7OV2V","url":"https://gershmanlab.com/experiments/alicia/teaching/experiment/?hitId=3ZG552ORAMQWHINBPXRJ4QCSG7OV2V&workerId=A2NJ7N8INZOB00&assignmentId=3IOEN3P9S856ZRO8WNOZCYIB6WC61H&a=9NOI7&tp_a=9NOI7&b=3IOEN3P9S856ZRO8WNOZCYIB6WC61H&tp_b=3IOEN3P9S856ZRO8WNOZCYIB6WC61H&c=365717&tp_c=365717","heads":8,"tails":2,"studentIndex":1,"studentTrueHypers":{"a":2,"b":8},"studentGuess":0.5,"delta":0.30000000000000004,"totalExamples":10,"bonusSoFar":0},{"rt":null,"stimulus":"Sending examples to student... ","response":null,"trial_type":"html-keyboard-response","trial_index":14,"time_elapsed":509897,"internal_node_id":"0.0-13.0","params":{"nStudents":24,"maxFlips":30,"completionMinutes":45,"basePay":8,"maxBonus":9,"perTrialBonus":0.5,"perTrialBonusThreshold":0.05,"exampleCost":0.01},"classroomParams":{"A":{"a":1,"b":4},"B":{"a":4,"b":1},"C":{"a":2,"b":8},"D":{"a":8,"b":2}},"conditions":["nonSeqFull","nonSeqPartial","seqNoFeedback","seqFeedback"],"classroomPairings":[["A","B"],["C","D"]],"coinWeights":[0.2,0.5,0.8],"subjectId":"A2NJ7N8INZOB00","assignmentId":"3IOEN3P9S856ZRO8WNOZCYIB6WC61H","hitId":"3ZG552ORAMQWHINBPXRJ4QCSG7OV2V","url":"https://gershmanlab.com/experiments/alicia/teaching/experiment/?hitId=3ZG552ORAMQWHINBPXRJ4QCSG7OV2V&workerId=A2NJ7N8INZOB00&assignmentId=3IOEN3P9S856ZRO8WNOZCYIB6WC61H&a=9NOI7&tp_a=9NOI7&b=3IOEN3P9S856ZRO8WNOZCYIB6WC61H&tp_b=3IOEN3P9S856ZRO8WNOZCYIB6WC61H&c=365717&tp_c=365717"},{"rt":null,"stimulus":"Examples sent to student! Waiting for student...","response":null,"trial_type":"html-keyboard-response","trial_index":15,"time_elapsed":514900,"internal_node_id":"0.0-14.0","params":{"nStudents":24,"maxFlips":30,"completionMinutes":45,"basePay":8,"maxBonus":9,"perTrialBonus":0.5,"perTrialBonusThreshold":0.05,"exampleCost":0.01},"classroomParams":{"A":{"a":1,"b":4},"B":{"a":4,"b":1},"C":{"a":2,"b":8},"D":{"a":8,"b":2}},"conditions":["nonSeqFull","nonSeqPartial","seqNoFeedback","seqFeedback"],"classroomPairings":[["A","B"],["C","D"]],"coinWeights":[0.2,0.5,0.8],"subjectId":"A2NJ7N8INZOB00","assignmentId":"3IOEN3P9S856ZRO8WNOZCYIB6WC61H","hitId":"3ZG552ORAMQWHINBPXRJ4QCSG7OV2V","url":"https://gershmanlab.com/experiments/alicia/teaching/experiment/?hitId=3ZG552ORAMQWHINBPXRJ4QCSG7OV2V&workerId=A2NJ7N8INZOB00&assignmentId=3IOEN3P9S856ZRO8WNOZCYIB6WC61H&a=9NOI7&tp_a=9NOI7&b=3IOEN3P9S856ZRO8WNOZCYIB6WC61H&tp_b=3IOEN3P9S856ZRO8WNOZCYIB6WC61H&c=365717&tp_c=365717"},{"rt":null,"stimulus":"\n                <p>Student's guess for coin weight: <b style=\"color:Tomato;\">0.50</b></p>\n                <p></b></p>\n                <p>You will now send another set of examples to your student. <b>Remember to take your student's guess into consideration so that you can earn the highest bonus possible!</b> </p>\n                <p>Press any key to continue.</p>\n                ","response":null,"trial_type":"html-keyboard-response","trial_index":16,"time_elapsed":544905,"internal_node_id":"0.0-15.0","params":{"nStudents":24,"maxFlips":30,"completionMinutes":45,"basePay":8,"maxBonus":9,"perTrialBonus":0.5,"perTrialBonusThreshold":0.05,"exampleCost":0.01},"classroomParams":{"A":{"a":1,"b":4},"B":{"a":4,"b":1},"C":{"a":2,"b":8},"D":{"a":8,"b":2}},"conditions":["nonSeqFull","nonSeqPartial","seqNoFeedback","seqFeedback"],"classroomPairings":[["A","B"],["C","D"]],"coinWeights":[0.2,0.5,0.8],"subjectId":"A2NJ7N8INZOB00","assignmentId":"3IOEN3P9S856ZRO8WNOZCYIB6WC61H","hitId":"3ZG552ORAMQWHINBPXRJ4QCSG7OV2V","url":"https://gershmanlab.com/experiments/alicia/teaching/experiment/?hitId=3ZG552ORAMQWHINBPXRJ4QCSG7OV2V&workerId=A2NJ7N8INZOB00&assignmentId=3IOEN3P9S856ZRO8WNOZCYIB6WC61H&a=9NOI7&tp_a=9NOI7&b=3IOEN3P9S856ZRO8WNOZCYIB6WC61H&tp_b=3IOEN3P9S856ZRO8WNOZCYIB6WC61H&c=365717&tp_c=365717"},{"rt":15430,"response":{"heads":"8","tails":"2"},"type":"response","condition":"seqFeedback","trueTheta":0.8,"classrooms":["C","D"],"studentTrueClassroom":"C","exampleSet":"second","trial_type":"survey-html-form","trial_index":17,"time_elapsed":560352,"internal_node_id":"0.0-16.0-0.0","params":{"nStudents":24,"maxFlips":30,"completionMinutes":45,"basePay":8,"maxBonus":9,"perTrialBonus":0.5,"perTrialBonusThreshold":0.05,"exampleCost":0.01},"classroomParams":{"A":{"a":1,"b":4},"B":{"a":4,"b":1},"C":{"a":2,"b":8},"D":{"a":8,"b":2}},"conditions":["nonSeqFull","nonSeqPartial","seqNoFeedback","seqFeedback"],"classroomPairings":[["A","B"],["C","D"]],"coinWeights":[0.2,0.5,0.8],"subjectId":"A2NJ7N8INZOB00","assignmentId":"3IOEN3P9S856ZRO8WNOZCYIB6WC61H","hitId":"3ZG552ORAMQWHINBPXRJ4QCSG7OV2V","url":"https://gershmanlab.com/experiments/alicia/teaching/experiment/?hitId=3ZG552ORAMQWHINBPXRJ4QCSG7OV2V&workerId=A2NJ7N8INZOB00&assignmentId=3IOEN3P9S856ZRO8WNOZCYIB6WC61H&a=9NOI7&tp_a=9NOI7&b=3IOEN3P9S856ZRO8WNOZCYIB6WC61H&tp_b=3IOEN3P9S856ZRO8WNOZCYIB6WC61H&c=365717&tp_c=365717","firstResponseHeads":8,"firstResponseTails":2,"secondResponseHeads":8,"secondResponseTails":2,"totalHeads":16,"totalTails":4,"studentIndex":1,"studentTrueHypers":{"a":2,"b":8},"studentGuess":0.6,"delta":0.20000000000000007,"bonus":0,"bonusSoFar":0,"totalExamples":20},{"rt":null,"stimulus":"Sending examples to student... ","response":null,"trial_type":"html-keyboard-response","trial_index":18,"time_elapsed":562359,"internal_node_id":"0.0-17.0","params":{"nStudents":24,"maxFlips":30,"completionMinutes":45,"basePay":8,"maxBonus":9,"perTrialBonus":0.5,"perTrialBonusThreshold":0.05,"exampleCost":0.01},"classroomParams":{"A":{"a":1,"b":4},"B":{"a":4,"b":1},"C":{"a":2,"b":8},"D":{"a":8,"b":2}},"conditions":["nonSeqFull","nonSeqPartial","seqNoFeedback","seqFeedback"],"classroomPairings":[["A","B"],["C","D"]],"coinWeights":[0.2,0.5,0.8],"subjectId":"A2NJ7N8INZOB00","assignmentId":"3IOEN3P9S856ZRO8WNOZCYIB6WC61H","hitId":"3ZG552ORAMQWHINBPXRJ4QCSG7OV2V","url":"https://gershmanlab.com/experiments/alicia/teaching/experiment/?hitId=3ZG552ORAMQWHINBPXRJ4QCSG7OV2V&workerId=A2NJ7N8INZOB00&assignmentId=3IOEN3P9S856ZRO8WNOZCYIB6WC61H&a=9NOI7&tp_a=9NOI7&b=3IOEN3P9S856ZRO8WNOZCYIB6WC61H&tp_b=3IOEN3P9S856ZRO8WNOZCYIB6WC61H&c=365717&tp_c=365717"},{"rt":null,"stimulus":"Examples sent to student! Waiting for student...","response":null,"trial_type":"html-keyboard-response","trial_index":19,"time_elapsed":566864,"internal_node_id":"0.0-18.0","params":{"nStudents":24,"maxFlips":30,"completionMinutes":45,"basePay":8,"maxBonus":9,"perTrialBonus":0.5,"perTrialBonusThreshold":0.05,"exampleCost":0.01},"classroomParams":{"A":{"a":1,"b":4},"B":{"a":4,"b":1},"C":{"a":2,"b":8},"D":{"a":8,"b":2}},"conditions":["nonSeqFull","nonSeqPartial","seqNoFeedback","seqFeedback"],"classroomPairings":[["A","B"],["C","D"]],"coinWeights":[0.2,0.5,0.8],"subjectId":"A2NJ7N8INZOB00","assignmentId":"3IOEN3P9S856ZRO8WNOZCYIB6WC61H","hitId":"3ZG552ORAMQWHINBPXRJ4QCSG7OV2V","url":"https://gershmanlab.com/experiments/alicia/teaching/experiment/?hitId=3ZG552ORAMQWHINBPXRJ4QCSG7OV2V&workerId=A2NJ7N8INZOB00&assignmentId=3IOEN3P9S856ZRO8WNOZCYIB6WC61H&a=9NOI7&tp_a=9NOI7&b=3IOEN3P9S856ZRO8WNOZCYIB6WC61H&tp_b=3IOEN3P9S856ZRO8WNOZCYIB6WC61H&c=365717&tp_c=365717"},{"rt":null,"stimulus":"\n                <p>Student 2's first guess for coin weight: <b style=\"color:Tomato\";>0.50</b></p>\n                <p>Student 2's second guess for coin weight: <b style=\"color:Tomato\";>0.60</b></p>\n                <p>You received a bonus of <b>$0.00</b> based on the student's second guess.</p>\n                <p>Total bonus so far: <b>$0.00</b></p>\n                <p>Press any key to continue.</p>\n                ","response":null,"trial_type":"html-keyboard-response","trial_index":20,"time_elapsed":596869,"internal_node_id":"0.0-19.0","params":{"nStudents":24,"maxFlips":30,"completionMinutes":45,"basePay":8,"maxBonus":9,"perTrialBonus":0.5,"perTrialBonusThreshold":0.05,"exampleCost":0.01},"classroomParams":{"A":{"a":1,"b":4},"B":{"a":4,"b":1},"C":{"a":2,"b":8},"D":{"a":8,"b":2}},"conditions":["nonSeqFull","nonSeqPartial","seqNoFeedback","seqFeedback"],"classroomPairings":[["A","B"],["C","D"]],"coinWeights":[0.2,0.5,0.8],"subjectId":"A2NJ7N8INZOB00","assignmentId":"3IOEN3P9S856ZRO8WNOZCYIB6WC61H","hitId":"3ZG552ORAMQWHINBPXRJ4QCSG7OV2V","url":"https://gershmanlab.com/experiments/alicia/teaching/experiment/?hitId=3ZG552ORAMQWHINBPXRJ4QCSG7OV2V&workerId=A2NJ7N8INZOB00&assignmentId=3IOEN3P9S856ZRO8WNOZCYIB6WC61H&a=9NOI7&tp_a=9NOI7&b=3IOEN3P9S856ZRO8WNOZCYIB6WC61H&tp_b=3IOEN3P9S856ZRO8WNOZCYIB6WC61H&c=365717&tp_c=365717"},{"rt":null,"stimulus":"<div style=\"font-size:60px;\">Next student</div>","response":null,"trial_type":"html-keyboard-response","trial_index":21,"time_elapsed":599371,"internal_node_id":"0.0-20.0-0.0","params":{"nStudents":24,"maxFlips":30,"completionMinutes":45,"basePay":8,"maxBonus":9,"perTrialBonus":0.5,"perTrialBonusThreshold":0.05,"exampleCost":0.01},"classroomParams":{"A":{"a":1,"b":4},"B":{"a":4,"b":1},"C":{"a":2,"b":8},"D":{"a":8,"b":2}},"conditions":["nonSeqFull","nonSeqPartial","seqNoFeedback","seqFeedback"],"classroomPairings":[["A","B"],["C","D"]],"coinWeights":[0.2,0.5,0.8],"subjectId":"A2NJ7N8INZOB00","assignmentId":"3IOEN3P9S856ZRO8WNOZCYIB6WC61H","hitId":"3ZG552ORAMQWHINBPXRJ4QCSG7OV2V","url":"https://gershmanlab.com/experiments/alicia/teaching/experiment/?hitId=3ZG552ORAMQWHINBPXRJ4QCSG7OV2V&workerId=A2NJ7N8INZOB00&assignmentId=3IOEN3P9S856ZRO8WNOZCYIB6WC61H&a=9NOI7&tp_a=9NOI7&b=3IOEN3P9S856ZRO8WNOZCYIB6WC61H&tp_b=3IOEN3P9S856ZRO8WNOZCYIB6WC61H&c=365717&tp_c=365717"},{"rt":3428,"stimulus":"\n            <h4 style=\"color:Orange;\">Student 3</h4>\n            <h2>The weight of your coin is <b style=\"color:Tomato;\">0.5</b>.</h2>\n            <p>In this block, you will be giving <b>two</b> sets of examples to Student 3.</p>\n                <p>You will receive feedback at the end of the block.</p>\n            <p></p>","response":0,"trial_type":"html-button-response","trial_index":22,"time_elapsed":602803,"internal_node_id":"0.0-21.0","params":{"nStudents":24,"maxFlips":30,"completionMinutes":45,"basePay":8,"maxBonus":9,"perTrialBonus":0.5,"perTrialBonusThreshold":0.05,"exampleCost":0.01},"classroomParams":{"A":{"a":1,"b":4},"B":{"a":4,"b":1},"C":{"a":2,"b":8},"D":{"a":8,"b":2}},"conditions":["nonSeqFull","nonSeqPartial","seqNoFeedback","seqFeedback"],"classroomPairings":[["A","B"],["C","D"]],"coinWeights":[0.2,0.5,0.8],"subjectId":"A2NJ7N8INZOB00","assignmentId":"3IOEN3P9S856ZRO8WNOZCYIB6WC61H","hitId":"3ZG552ORAMQWHINBPXRJ4QCSG7OV2V","url":"https://gershmanlab.com/experiments/alicia/teaching/experiment/?hitId=3ZG552ORAMQWHINBPXRJ4QCSG7OV2V&workerId=A2NJ7N8INZOB00&assignmentId=3IOEN3P9S856ZRO8WNOZCYIB6WC61H&a=9NOI7&tp_a=9NOI7&b=3IOEN3P9S856ZRO8WNOZCYIB6WC61H&tp_b=3IOEN3P9S856ZRO8WNOZCYIB6WC61H&c=365717&tp_c=365717"},{"rt":11429,"response":{"heads":"5","tails":"5"},"type":"response","condition":"seqNoFeedback","trueTheta":0.5,"classrooms":["C","D"],"studentTrueClassroom":"D","exampleSet":"first","trial_type":"survey-html-form","trial_index":23,"time_elapsed":614238,"internal_node_id":"0.0-22.0-0.0","params":{"nStudents":24,"maxFlips":30,"completionMinutes":45,"basePay":8,"maxBonus":9,"perTrialBonus":0.5,"perTrialBonusThreshold":0.05,"exampleCost":0.01},"classroomParams":{"A":{"a":1,"b":4},"B":{"a":4,"b":1},"C":{"a":2,"b":8},"D":{"a":8,"b":2}},"conditions":["nonSeqFull","nonSeqPartial","seqNoFeedback","seqFeedback"],"classroomPairings":[["A","B"],["C","D"]],"coinWeights":[0.2,0.5,0.8],"subjectId":"A2NJ7N8INZOB00","assignmentId":"3IOEN3P9S856ZRO8WNOZCYIB6WC61H","hitId":"3ZG552ORAMQWHINBPXRJ4QCSG7OV2V","url":"https://gershmanlab.com/experiments/alicia/teaching/experiment/?hitId=3ZG552ORAMQWHINBPXRJ4QCSG7OV2V&workerId=A2NJ7N8INZOB00&assignmentId=3IOEN3P9S856ZRO8WNOZCYIB6WC61H&a=9NOI7&tp_a=9NOI7&b=3IOEN3P9S856ZRO8WNOZCYIB6WC61H&tp_b=3IOEN3P9S856ZRO8WNOZCYIB6WC61H&c=365717&tp_c=365717","heads":5,"tails":5,"studentIndex":2,"studentTrueHypers":{"a":8,"b":2},"studentGuess":0.65,"delta":0.15000000000000002,"totalExamples":10,"bonusSoFar":0},{"rt":null,"stimulus":"Sending examples to student... ","response":null,"trial_type":"html-keyboard-response","trial_index":24,"time_elapsed":615493,"internal_node_id":"0.0-23.0","params":{"nStudents":24,"maxFlips":30,"completionMinutes":45,"basePay":8,"maxBonus":9,"perTrialBonus":0.5,"perTrialBonusThreshold":0.05,"exampleCost":0.01},"classroomParams":{"A":{"a":1,"b":4},"B":{"a":4,"b":1},"C":{"a":2,"b":8},"D":{"a":8,"b":2}},"conditions":["nonSeqFull","nonSeqPartial","seqNoFeedback","seqFeedback"],"classroomPairings":[["A","B"],["C","D"]],"coinWeights":[0.2,0.5,0.8],"subjectId":"A2NJ7N8INZOB00","assignmentId":"3IOEN3P9S856ZRO8WNOZCYIB6WC61H","hitId":"3ZG552ORAMQWHINBPXRJ4QCSG7OV2V","url":"https://gershmanlab.com/experiments/alicia/teaching/experiment/?hitId=3ZG552ORAMQWHINBPXRJ4QCSG7OV2V&workerId=A2NJ7N8INZOB00&assignmentId=3IOEN3P9S856ZRO8WNOZCYIB6WC61H&a=9NOI7&tp_a=9NOI7&b=3IOEN3P9S856ZRO8WNOZCYIB6WC61H&tp_b=3IOEN3P9S856ZRO8WNOZCYIB6WC61H&c=365717&tp_c=365717"},{"rt":null,"stimulus":"Examples sent to student! Waiting for student...","response":null,"trial_type":"html-keyboard-response","trial_index":25,"time_elapsed":619496,"internal_node_id":"0.0-24.0","params":{"nStudents":24,"maxFlips":30,"completionMinutes":45,"basePay":8,"maxBonus":9,"perTrialBonus":0.5,"perTrialBonusThreshold":0.05,"exampleCost":0.01},"classroomParams":{"A":{"a":1,"b":4},"B":{"a":4,"b":1},"C":{"a":2,"b":8},"D":{"a":8,"b":2}},"conditions":["nonSeqFull","nonSeqPartial","seqNoFeedback","seqFeedback"],"classroomPairings":[["A","B"],["C","D"]],"coinWeights":[0.2,0.5,0.8],"subjectId":"A2NJ7N8INZOB00","assignmentId":"3IOEN3P9S856ZRO8WNOZCYIB6WC61H","hitId":"3ZG552ORAMQWHINBPXRJ4QCSG7OV2V","url":"https://gershmanlab.com/experiments/alicia/teaching/experiment/?hitId=3ZG552ORAMQWHINBPXRJ4QCSG7OV2V&workerId=A2NJ7N8INZOB00&assignmentId=3IOEN3P9S856ZRO8WNOZCYIB6WC61H&a=9NOI7&tp_a=9NOI7&b=3IOEN3P9S856ZRO8WNOZCYIB6WC61H&tp_b=3IOEN3P9S856ZRO8WNOZCYIB6WC61H&c=365717&tp_c=365717"},{"rt":22660,"response":{"heads":"1","tails":"1"},"type":"response","condition":"seqNoFeedback","trueTheta":0.5,"classrooms":["C","D"],"studentTrueClassroom":"D","exampleSet":"second","trial_type":"survey-html-form","trial_index":26,"time_elapsed":642162,"internal_node_id":"0.0-25.0-0.0","params":{"nStudents":24,"maxFlips":30,"completionMinutes":45,"basePay":8,"maxBonus":9,"perTrialBonus":0.5,"perTrialBonusThreshold":0.05,"exampleCost":0.01},"classroomParams":{"A":{"a":1,"b":4},"B":{"a":4,"b":1},"C":{"a":2,"b":8},"D":{"a":8,"b":2}},"conditions":["nonSeqFull","nonSeqPartial","seqNoFeedback","seqFeedback"],"classroomPairings":[["A","B"],["C","D"]],"coinWeights":[0.2,0.5,0.8],"subjectId":"A2NJ7N8INZOB00","assignmentId":"3IOEN3P9S856ZRO8WNOZCYIB6WC61H","hitId":"3ZG552ORAMQWHINBPXRJ4QCSG7OV2V","url":"https://gershmanlab.com/experiments/alicia/teaching/experiment/?hitId=3ZG552ORAMQWHINBPXRJ4QCSG7OV2V&workerId=A2NJ7N8INZOB00&assignmentId=3IOEN3P9S856ZRO8WNOZCYIB6WC61H&a=9NOI7&tp_a=9NOI7&b=3IOEN3P9S856ZRO8WNOZCYIB6WC61H&tp_b=3IOEN3P9S856ZRO8WNOZCYIB6WC61H&c=365717&tp_c=365717","firstResponseHeads":5,"firstResponseTails":5,"secondResponseHeads":1,"secondResponseTails":1,"totalHeads":6,"totalTails":6,"studentIndex":2,"studentTrueHypers":{"a":8,"b":2},"studentGuess":0.6363636363636364,"delta":0.13636363636363635,"bonus":0,"bonusSoFar":0,"totalExamples":12},{"rt":null,"stimulus":"Sending examples to student... ","response":null,"trial_type":"html-keyboard-response","trial_index":27,"time_elapsed":643666,"internal_node_id":"0.0-26.0","params":{"nStudents":24,"maxFlips":30,"completionMinutes":45,"basePay":8,"maxBonus":9,"perTrialBonus":0.5,"perTrialBonusThreshold":0.05,"exampleCost":0.01},"classroomParams":{"A":{"a":1,"b":4},"B":{"a":4,"b":1},"C":{"a":2,"b":8},"D":{"a":8,"b":2}},"conditions":["nonSeqFull","nonSeqPartial","seqNoFeedback","seqFeedback"],"classroomPairings":[["A","B"],["C","D"]],"coinWeights":[0.2,0.5,0.8],"subjectId":"A2NJ7N8INZOB00","assignmentId":"3IOEN3P9S856ZRO8WNOZCYIB6WC61H","hitId":"3ZG552ORAMQWHINBPXRJ4QCSG7OV2V","url":"https://gershmanlab.com/experiments/alicia/teaching/experiment/?hitId=3ZG552ORAMQWHINBPXRJ4QCSG7OV2V&workerId=A2NJ7N8INZOB00&assignmentId=3IOEN3P9S856ZRO8WNOZCYIB6WC61H&a=9NOI7&tp_a=9NOI7&b=3IOEN3P9S856ZRO8WNOZCYIB6WC61H&tp_b=3IOEN3P9S856ZRO8WNOZCYIB6WC61H&c=365717&tp_c=365717"},{"rt":null,"stimulus":"Examples sent to student! Waiting for student...","response":null,"trial_type":"html-keyboard-response","trial_index":28,"time_elapsed":649669,"internal_node_id":"0.0-27.0","params":{"nStudents":24,"maxFlips":30,"completionMinutes":45,"basePay":8,"maxBonus":9,"perTrialBonus":0.5,"perTrialBonusThreshold":0.05,"exampleCost":0.01},"classroomParams":{"A":{"a":1,"b":4},"B":{"a":4,"b":1},"C":{"a":2,"b":8},"D":{"a":8,"b":2}},"conditions":["nonSeqFull","nonSeqPartial","seqNoFeedback","seqFeedback"],"classroomPairings":[["A","B"],["C","D"]],"coinWeights":[0.2,0.5,0.8],"subjectId":"A2NJ7N8INZOB00","assignmentId":"3IOEN3P9S856ZRO8WNOZCYIB6WC61H","hitId":"3ZG552ORAMQWHINBPXRJ4QCSG7OV2V","url":"https://gershmanlab.com/experiments/alicia/teaching/experiment/?hitId=3ZG552ORAMQWHINBPXRJ4QCSG7OV2V&workerId=A2NJ7N8INZOB00&assignmentId=3IOEN3P9S856ZRO8WNOZCYIB6WC61H&a=9NOI7&tp_a=9NOI7&b=3IOEN3P9S856ZRO8WNOZCYIB6WC61H&tp_b=3IOEN3P9S856ZRO8WNOZCYIB6WC61H&c=365717&tp_c=365717"},{"rt":13728,"stimulus":"\n                <p>Student 3's first guess for coin weight: <b style=\"color:Tomato\";>0.65</b></p>\n                <p>Student 3's second guess for coin weight: <b style=\"color:Tomato\";>0.64</b></p>\n                <p>You received a bonus of <b>$0.00</b> based on the student's second guess.</p>\n                <p>Total bonus so far: <b>$0.00</b></p>\n                <p>Press any key to continue.</p>\n                ","response":" ","trial_type":"html-keyboard-response","trial_index":29,"time_elapsed":663400,"internal_node_id":"0.0-28.0","params":{"nStudents":24,"maxFlips":30,"completionMinutes":45,"basePay":8,"maxBonus":9,"perTrialBonus":0.5,"perTrialBonusThreshold":0.05,"exampleCost":0.01},"classroomParams":{"A":{"a":1,"b":4},"B":{"a":4,"b":1},"C":{"a":2,"b":8},"D":{"a":8,"b":2}},"conditions":["nonSeqFull","nonSeqPartial","seqNoFeedback","seqFeedback"],"classroomPairings":[["A","B"],["C","D"]],"coinWeights":[0.2,0.5,0.8],"subjectId":"A2NJ7N8INZOB00","assignmentId":"3IOEN3P9S856ZRO8WNOZCYIB6WC61H","hitId":"3ZG552ORAMQWHINBPXRJ4QCSG7OV2V","url":"https://gershmanlab.com/experiments/alicia/teaching/experiment/?hitId=3ZG552ORAMQWHINBPXRJ4QCSG7OV2V&workerId=A2NJ7N8INZOB00&assignmentId=3IOEN3P9S856ZRO8WNOZCYIB6WC61H&a=9NOI7&tp_a=9NOI7&b=3IOEN3P9S856ZRO8WNOZCYIB6WC61H&tp_b=3IOEN3P9S856ZRO8WNOZCYIB6WC61H&c=365717&tp_c=365717"},{"rt":null,"stimulus":"<div style=\"font-size:60px;\">Next student</div>","response":null,"trial_type":"html-keyboard-response","trial_index":30,"time_elapsed":665902,"internal_node_id":"0.0-29.0-0.0","params":{"nStudents":24,"maxFlips":30,"completionMinutes":45,"basePay":8,"maxBonus":9,"perTrialBonus":0.5,"perTrialBonusThreshold":0.05,"exampleCost":0.01},"classroomParams":{"A":{"a":1,"b":4},"B":{"a":4,"b":1},"C":{"a":2,"b":8},"D":{"a":8,"b":2}},"conditions":["nonSeqFull","nonSeqPartial","seqNoFeedback","seqFeedback"],"classroomPairings":[["A","B"],["C","D"]],"coinWeights":[0.2,0.5,0.8],"subjectId":"A2NJ7N8INZOB00","assignmentId":"3IOEN3P9S856ZRO8WNOZCYIB6WC61H","hitId":"3ZG552ORAMQWHINBPXRJ4QCSG7OV2V","url":"https://gershmanlab.com/experiments/alicia/teaching/experiment/?hitId=3ZG552ORAMQWHINBPXRJ4QCSG7OV2V&workerId=A2NJ7N8INZOB00&assignmentId=3IOEN3P9S856ZRO8WNOZCYIB6WC61H&a=9NOI7&tp_a=9NOI7&b=3IOEN3P9S856ZRO8WNOZCYIB6WC61H&tp_b=3IOEN3P9S856ZRO8WNOZCYIB6WC61H&c=365717&tp_c=365717"},{"rt":2942,"stimulus":"\n            <h4 style=\"color:Orange;\">Student 4</h4>\n            <h2>The weight of your coin is <b style=\"color:Tomato;\">0.8</b>.</h2>\n            <p>In this block, you will be giving <b>two</b> sets of examples to Student 4.</p>\n                <p>You will receive feedback at the end of the block.</p>\n            <p></p>","response":0,"trial_type":"html-button-response","trial_index":31,"time_elapsed":668848,"internal_node_id":"0.0-30.0","params":{"nStudents":24,"maxFlips":30,"completionMinutes":45,"basePay":8,"maxBonus":9,"perTrialBonus":0.5,"perTrialBonusThreshold":0.05,"exampleCost":0.01},"classroomParams":{"A":{"a":1,"b":4},"B":{"a":4,"b":1},"C":{"a":2,"b":8},"D":{"a":8,"b":2}},"conditions":["nonSeqFull","nonSeqPartial","seqNoFeedback","seqFeedback"],"classroomPairings":[["A","B"],["C","D"]],"coinWeights":[0.2,0.5,0.8],"subjectId":"A2NJ7N8INZOB00","assignmentId":"3IOEN3P9S856ZRO8WNOZCYIB6WC61H","hitId":"3ZG552ORAMQWHINBPXRJ4QCSG7OV2V","url":"https://gershmanlab.com/experiments/alicia/teaching/experiment/?hitId=3ZG552ORAMQWHINBPXRJ4QCSG7OV2V&workerId=A2NJ7N8INZOB00&assignmentId=3IOEN3P9S856ZRO8WNOZCYIB6WC61H&a=9NOI7&tp_a=9NOI7&b=3IOEN3P9S856ZRO8WNOZCYIB6WC61H&tp_b=3IOEN3P9S856ZRO8WNOZCYIB6WC61H&c=365717&tp_c=365717"},{"rt":5324,"response":{"heads":"8","tails":"0"},"type":"response","condition":"seqNoFeedback","trueTheta":0.8,"classrooms":["C","D"],"studentTrueClassroom":"C","exampleSet":"first","trial_type":"survey-html-form","trial_index":32,"time_elapsed":674181,"internal_node_id":"0.0-31.0-0.0","params":{"nStudents":24,"maxFlips":30,"completionMinutes":45,"basePay":8,"maxBonus":9,"perTrialBonus":0.5,"perTrialBonusThreshold":0.05,"exampleCost":0.01},"classroomParams":{"A":{"a":1,"b":4},"B":{"a":4,"b":1},"C":{"a":2,"b":8},"D":{"a":8,"b":2}},"conditions":["nonSeqFull","nonSeqPartial","seqNoFeedback","seqFeedback"],"classroomPairings":[["A","B"],["C","D"]],"coinWeights":[0.2,0.5,0.8],"subjectId":"A2NJ7N8INZOB00","assignmentId":"3IOEN3P9S856ZRO8WNOZCYIB6WC61H","hitId":"3ZG552ORAMQWHINBPXRJ4QCSG7OV2V","url":"https://gershmanlab.com/experiments/alicia/teaching/experiment/?hitId=3ZG552ORAMQWHINBPXRJ4QCSG7OV2V&workerId=A2NJ7N8INZOB00&assignmentId=3IOEN3P9S856ZRO8WNOZCYIB6WC61H&a=9NOI7&tp_a=9NOI7&b=3IOEN3P9S856ZRO8WNOZCYIB6WC61H&tp_b=3IOEN3P9S856ZRO8WNOZCYIB6WC61H&c=365717&tp_c=365717","heads":8,"tails":0,"studentIndex":3,"studentTrueHypers":{"a":2,"b":8},"studentGuess":0.5555555555555556,"delta":0.24444444444444446,"totalExamples":8,"bonusSoFar":0},{"rt":null,"stimulus":"Sending examples to student... ","response":null,"trial_type":"html-keyboard-response","trial_index":33,"time_elapsed":676187,"internal_node_id":"0.0-32.0","params":{"nStudents":24,"maxFlips":30,"completionMinutes":45,"basePay":8,"maxBonus":9,"perTrialBonus":0.5,"perTrialBonusThreshold":0.05,"exampleCost":0.01},"classroomParams":{"A":{"a":1,"b":4},"B":{"a":4,"b":1},"C":{"a":2,"b":8},"D":{"a":8,"b":2}},"conditions":["nonSeqFull","nonSeqPartial","seqNoFeedback","seqFeedback"],"classroomPairings":[["A","B"],["C","D"]],"coinWeights":[0.2,0.5,0.8],"subjectId":"A2NJ7N8INZOB00","assignmentId":"3IOEN3P9S856ZRO8WNOZCYIB6WC61H","hitId":"3ZG552ORAMQWHINBPXRJ4QCSG7OV2V","url":"https://gershmanlab.com/experiments/alicia/teaching/experiment/?hitId=3ZG552ORAMQWHINBPXRJ4QCSG7OV2V&workerId=A2NJ7N8INZOB00&assignmentId=3IOEN3P9S856ZRO8WNOZCYIB6WC61H&a=9NOI7&tp_a=9NOI7&b=3IOEN3P9S856ZRO8WNOZCYIB6WC61H&tp_b=3IOEN3P9S856ZRO8WNOZCYIB6WC61H&c=365717&tp_c=365717"},{"rt":null,"stimulus":"Examples sent to student! Waiting for student...","response":null,"trial_type":"html-keyboard-response","trial_index":34,"time_elapsed":680690,"internal_node_id":"0.0-33.0","params":{"nStudents":24,"maxFlips":30,"completionMinutes":45,"basePay":8,"maxBonus":9,"perTrialBonus":0.5,"perTrialBonusThreshold":0.05,"exampleCost":0.01},"classroomParams":{"A":{"a":1,"b":4},"B":{"a":4,"b":1},"C":{"a":2,"b":8},"D":{"a":8,"b":2}},"conditions":["nonSeqFull","nonSeqPartial","seqNoFeedback","seqFeedback"],"classroomPairings":[["A","B"],["C","D"]],"coinWeights":[0.2,0.5,0.8],"subjectId":"A2NJ7N8INZOB00","assignmentId":"3IOEN3P9S856ZRO8WNOZCYIB6WC61H","hitId":"3ZG552ORAMQWHINBPXRJ4QCSG7OV2V","url":"https://gershmanlab.com/experiments/alicia/teaching/experiment/?hitId=3ZG552ORAMQWHINBPXRJ4QCSG7OV2V&workerId=A2NJ7N8INZOB00&assignmentId=3IOEN3P9S856ZRO8WNOZCYIB6WC61H&a=9NOI7&tp_a=9NOI7&b=3IOEN3P9S856ZRO8WNOZCYIB6WC61H&tp_b=3IOEN3P9S856ZRO8WNOZCYIB6WC61H&c=365717&tp_c=365717"},{"rt":10501,"response":{"heads":"8","tails":"0"},"type":"response","condition":"seqNoFeedback","trueTheta":0.8,"classrooms":["C","D"],"studentTrueClassroom":"C","exampleSet":"second","trial_type":"survey-html-form","trial_index":35,"time_elapsed":691195,"internal_node_id":"0.0-34.0-0.0","params":{"nStudents":24,"maxFlips":30,"completionMinutes":45,"basePay":8,"maxBonus":9,"perTrialBonus":0.5,"perTrialBonusThreshold":0.05,"exampleCost":0.01},"classroomParams":{"A":{"a":1,"b":4},"B":{"a":4,"b":1},"C":{"a":2,"b":8},"D":{"a":8,"b":2}},"conditions":["nonSeqFull","nonSeqPartial","seqNoFeedback","seqFeedback"],"classroomPairings":[["A","B"],["C","D"]],"coinWeights":[0.2,0.5,0.8],"subjectId":"A2NJ7N8INZOB00","assignmentId":"3IOEN3P9S856ZRO8WNOZCYIB6WC61H","hitId":"3ZG552ORAMQWHINBPXRJ4QCSG7OV2V","url":"https://gershmanlab.com/experiments/alicia/teaching/experiment/?hitId=3ZG552ORAMQWHINBPXRJ4QCSG7OV2V&workerId=A2NJ7N8INZOB00&assignmentId=3IOEN3P9S856ZRO8WNOZCYIB6WC61H&a=9NOI7&tp_a=9NOI7&b=3IOEN3P9S856ZRO8WNOZCYIB6WC61H&tp_b=3IOEN3P9S856ZRO8WNOZCYIB6WC61H&c=365717&tp_c=365717","firstResponseHeads":8,"firstResponseTails":0,"secondResponseHeads":8,"secondResponseTails":0,"totalHeads":16,"totalTails":0,"studentIndex":3,"studentTrueHypers":{"a":2,"b":8},"studentGuess":0.6923076923076923,"delta":0.10769230769230775,"bonus":0,"bonusSoFar":0,"totalExamples":16},{"rt":null,"stimulus":"Sending examples to student... ","response":null,"trial_type":"html-keyboard-response","trial_index":36,"time_elapsed":692950,"internal_node_id":"0.0-35.0","params":{"nStudents":24,"maxFlips":30,"completionMinutes":45,"basePay":8,"maxBonus":9,"perTrialBonus":0.5,"perTrialBonusThreshold":0.05,"exampleCost":0.01},"classroomParams":{"A":{"a":1,"b":4},"B":{"a":4,"b":1},"C":{"a":2,"b":8},"D":{"a":8,"b":2}},"conditions":["nonSeqFull","nonSeqPartial","seqNoFeedback","seqFeedback"],"classroomPairings":[["A","B"],["C","D"]],"coinWeights":[0.2,0.5,0.8],"subjectId":"A2NJ7N8INZOB00","assignmentId":"3IOEN3P9S856ZRO8WNOZCYIB6WC61H","hitId":"3ZG552ORAMQWHINBPXRJ4QCSG7OV2V","url":"https://gershmanlab.com/experiments/alicia/teaching/experiment/?hitId=3ZG552ORAMQWHINBPXRJ4QCSG7OV2V&workerId=A2NJ7N8INZOB00&assignmentId=3IOEN3P9S856ZRO8WNOZCYIB6WC61H&a=9NOI7&tp_a=9NOI7&b=3IOEN3P9S856ZRO8WNOZCYIB6WC61H&tp_b=3IOEN3P9S856ZRO8WNOZCYIB6WC61H&c=365717&tp_c=365717"},{"rt":null,"stimulus":"Examples sent to student! Waiting for student...","response":null,"trial_type":"html-keyboard-response","trial_index":37,"time_elapsed":696956,"internal_node_id":"0.0-36.0","params":{"nStudents":24,"maxFlips":30,"completionMinutes":45,"basePay":8,"maxBonus":9,"perTrialBonus":0.5,"perTrialBonusThreshold":0.05,"exampleCost":0.01},"classroomParams":{"A":{"a":1,"b":4},"B":{"a":4,"b":1},"C":{"a":2,"b":8},"D":{"a":8,"b":2}},"conditions":["nonSeqFull","nonSeqPartial","seqNoFeedback","seqFeedback"],"classroomPairings":[["A","B"],["C","D"]],"coinWeights":[0.2,0.5,0.8],"subjectId":"A2NJ7N8INZOB00","assignmentId":"3IOEN3P9S856ZRO8WNOZCYIB6WC61H","hitId":"3ZG552ORAMQWHINBPXRJ4QCSG7OV2V","url":"https://gershmanlab.com/experiments/alicia/teaching/experiment/?hitId=3ZG552ORAMQWHINBPXRJ4QCSG7OV2V&workerId=A2NJ7N8INZOB00&assignmentId=3IOEN3P9S856ZRO8WNOZCYIB6WC61H&a=9NOI7&tp_a=9NOI7&b=3IOEN3P9S856ZRO8WNOZCYIB6WC61H&tp_b=3IOEN3P9S856ZRO8WNOZCYIB6WC61H&c=365717&tp_c=365717"},{"rt":6761,"stimulus":"\n                <p>Student 4's first guess for coin weight: <b style=\"color:Tomato\";>0.56</b></p>\n                <p>Student 4's second guess for coin weight: <b style=\"color:Tomato\";>0.69</b></p>\n                <p>You received a bonus of <b>$0.00</b> based on the student's second guess.</p>\n                <p>Total bonus so far: <b>$0.00</b></p>\n                <p>Press any key to continue.</p>\n                ","response":" ","trial_type":"html-keyboard-response","trial_index":38,"time_elapsed":703721,"internal_node_id":"0.0-37.0","params":{"nStudents":24,"maxFlips":30,"completionMinutes":45,"basePay":8,"maxBonus":9,"perTrialBonus":0.5,"perTrialBonusThreshold":0.05,"exampleCost":0.01},"classroomParams":{"A":{"a":1,"b":4},"B":{"a":4,"b":1},"C":{"a":2,"b":8},"D":{"a":8,"b":2}},"conditions":["nonSeqFull","nonSeqPartial","seqNoFeedback","seqFeedback"],"classroomPairings":[["A","B"],["C","D"]],"coinWeights":[0.2,0.5,0.8],"subjectId":"A2NJ7N8INZOB00","assignmentId":"3IOEN3P9S856ZRO8WNOZCYIB6WC61H","hitId":"3ZG552ORAMQWHINBPXRJ4QCSG7OV2V","url":"https://gershmanlab.com/experiments/alicia/teaching/experiment/?hitId=3ZG552ORAMQWHINBPXRJ4QCSG7OV2V&workerId=A2NJ7N8INZOB00&assignmentId=3IOEN3P9S856ZRO8WNOZCYIB6WC61H&a=9NOI7&tp_a=9NOI7&b=3IOEN3P9S856ZRO8WNOZCYIB6WC61H&tp_b=3IOEN3P9S856ZRO8WNOZCYIB6WC61H&c=365717&tp_c=365717"},{"rt":null,"stimulus":"<div style=\"font-size:60px;\">Next student</div>","response":null,"trial_type":"html-keyboard-response","trial_index":39,"time_elapsed":706724,"internal_node_id":"0.0-38.0-0.0","params":{"nStudents":24,"maxFlips":30,"completionMinutes":45,"basePay":8,"maxBonus":9,"perTrialBonus":0.5,"perTrialBonusThreshold":0.05,"exampleCost":0.01},"classroomParams":{"A":{"a":1,"b":4},"B":{"a":4,"b":1},"C":{"a":2,"b":8},"D":{"a":8,"b":2}},"conditions":["nonSeqFull","nonSeqPartial","seqNoFeedback","seqFeedback"],"classroomPairings":[["A","B"],["C","D"]],"coinWeights":[0.2,0.5,0.8],"subjectId":"A2NJ7N8INZOB00","assignmentId":"3IOEN3P9S856ZRO8WNOZCYIB6WC61H","hitId":"3ZG552ORAMQWHINBPXRJ4QCSG7OV2V","url":"https://gershmanlab.com/experiments/alicia/teaching/experiment/?hitId=3ZG552ORAMQWHINBPXRJ4QCSG7OV2V&workerId=A2NJ7N8INZOB00&assignmentId=3IOEN3P9S856ZRO8WNOZCYIB6WC61H&a=9NOI7&tp_a=9NOI7&b=3IOEN3P9S856ZRO8WNOZCYIB6WC61H&tp_b=3IOEN3P9S856ZRO8WNOZCYIB6WC61H&c=365717&tp_c=365717"},{"rt":3723,"stimulus":"\n            <h4 style=\"color:Orange;\">Student 5</h4>\n            <h2>The weight of your coin is <b style=\"color:Tomato;\">0.5</b>.</h2>\n            <p>In this block, you will be giving <b>two</b> sets of examples to Student 5.</p>\n                <p>You will receive feedback at the end of the block.</p>\n            <p></p>","response":0,"trial_type":"html-button-response","trial_index":40,"time_elapsed":710454,"internal_node_id":"0.0-39.0","params":{"nStudents":24,"maxFlips":30,"completionMinutes":45,"basePay":8,"maxBonus":9,"perTrialBonus":0.5,"perTrialBonusThreshold":0.05,"exampleCost":0.01},"classroomParams":{"A":{"a":1,"b":4},"B":{"a":4,"b":1},"C":{"a":2,"b":8},"D":{"a":8,"b":2}},"conditions":["nonSeqFull","nonSeqPartial","seqNoFeedback","seqFeedback"],"classroomPairings":[["A","B"],["C","D"]],"coinWeights":[0.2,0.5,0.8],"subjectId":"A2NJ7N8INZOB00","assignmentId":"3IOEN3P9S856ZRO8WNOZCYIB6WC61H","hitId":"3ZG552ORAMQWHINBPXRJ4QCSG7OV2V","url":"https://gershmanlab.com/experiments/alicia/teaching/experiment/?hitId=3ZG552ORAMQWHINBPXRJ4QCSG7OV2V&workerId=A2NJ7N8INZOB00&assignmentId=3IOEN3P9S856ZRO8WNOZCYIB6WC61H&a=9NOI7&tp_a=9NOI7&b=3IOEN3P9S856ZRO8WNOZCYIB6WC61H&tp_b=3IOEN3P9S856ZRO8WNOZCYIB6WC61H&c=365717&tp_c=365717"},{"rt":6224,"response":{"heads":"1","tails":"1"},"type":"response","condition":"seqNoFeedback","trueTheta":0.5,"classrooms":["A","B"],"studentTrueClassroom":"B","exampleSet":"first","trial_type":"survey-html-form","trial_index":41,"time_elapsed":716694,"internal_node_id":"0.0-40.0-0.0","params":{"nStudents":24,"maxFlips":30,"completionMinutes":45,"basePay":8,"maxBonus":9,"perTrialBonus":0.5,"perTrialBonusThreshold":0.05,"exampleCost":0.01},"classroomParams":{"A":{"a":1,"b":4},"B":{"a":4,"b":1},"C":{"a":2,"b":8},"D":{"a":8,"b":2}},"conditions":["nonSeqFull","nonSeqPartial","seqNoFeedback","seqFeedback"],"classroomPairings":[["A","B"],["C","D"]],"coinWeights":[0.2,0.5,0.8],"subjectId":"A2NJ7N8INZOB00","assignmentId":"3IOEN3P9S856ZRO8WNOZCYIB6WC61H","hitId":"3ZG552ORAMQWHINBPXRJ4QCSG7OV2V","url":"https://gershmanlab.com/experiments/alicia/teaching/experiment/?hitId=3ZG552ORAMQWHINBPXRJ4QCSG7OV2V&workerId=A2NJ7N8INZOB00&assignmentId=3IOEN3P9S856ZRO8WNOZCYIB6WC61H&a=9NOI7&tp_a=9NOI7&b=3IOEN3P9S856ZRO8WNOZCYIB6WC61H&tp_b=3IOEN3P9S856ZRO8WNOZCYIB6WC61H&c=365717&tp_c=365717","heads":1,"tails":1,"studentIndex":4,"studentTrueHypers":{"a":4,"b":1},"studentGuess":0.7142857142857143,"delta":0.2142857142857143,"totalExamples":2,"bonusSoFar":0},{"rt":null,"stimulus":"Sending examples to student... ","response":null,"trial_type":"html-keyboard-response","trial_index":42,"time_elapsed":718207,"internal_node_id":"0.0-41.0","params":{"nStudents":24,"maxFlips":30,"completionMinutes":45,"basePay":8,"maxBonus":9,"perTrialBonus":0.5,"perTrialBonusThreshold":0.05,"exampleCost":0.01},"classroomParams":{"A":{"a":1,"b":4},"B":{"a":4,"b":1},"C":{"a":2,"b":8},"D":{"a":8,"b":2}},"conditions":["nonSeqFull","nonSeqPartial","seqNoFeedback","seqFeedback"],"classroomPairings":[["A","B"],["C","D"]],"coinWeights":[0.2,0.5,0.8],"subjectId":"A2NJ7N8INZOB00","assignmentId":"3IOEN3P9S856ZRO8WNOZCYIB6WC61H","hitId":"3ZG552ORAMQWHINBPXRJ4QCSG7OV2V","url":"https://gershmanlab.com/experiments/alicia/teaching/experiment/?hitId=3ZG552ORAMQWHINBPXRJ4QCSG7OV2V&workerId=A2NJ7N8INZOB00&assignmentId=3IOEN3P9S856ZRO8WNOZCYIB6WC61H&a=9NOI7&tp_a=9NOI7&b=3IOEN3P9S856ZRO8WNOZCYIB6WC61H&tp_b=3IOEN3P9S856ZRO8WNOZCYIB6WC61H&c=365717&tp_c=365717"},{"rt":null,"stimulus":"Examples sent to student! Waiting for student...","response":null,"trial_type":"html-keyboard-response","trial_index":43,"time_elapsed":724211,"internal_node_id":"0.0-42.0","params":{"nStudents":24,"maxFlips":30,"completionMinutes":45,"basePay":8,"maxBonus":9,"perTrialBonus":0.5,"perTrialBonusThreshold":0.05,"exampleCost":0.01},"classroomParams":{"A":{"a":1,"b":4},"B":{"a":4,"b":1},"C":{"a":2,"b":8},"D":{"a":8,"b":2}},"conditions":["nonSeqFull","nonSeqPartial","seqNoFeedback","seqFeedback"],"classroomPairings":[["A","B"],["C","D"]],"coinWeights":[0.2,0.5,0.8],"subjectId":"A2NJ7N8INZOB00","assignmentId":"3IOEN3P9S856ZRO8WNOZCYIB6WC61H","hitId":"3ZG552ORAMQWHINBPXRJ4QCSG7OV2V","url":"https://gershmanlab.com/experiments/alicia/teaching/experiment/?hitId=3ZG552ORAMQWHINBPXRJ4QCSG7OV2V&workerId=A2NJ7N8INZOB00&assignmentId=3IOEN3P9S856ZRO8WNOZCYIB6WC61H&a=9NOI7&tp_a=9NOI7&b=3IOEN3P9S856ZRO8WNOZCYIB6WC61H&tp_b=3IOEN3P9S856ZRO8WNOZCYIB6WC61H&c=365717&tp_c=365717"},{"rt":11465,"response":{"heads":"1","tails":"1"},"type":"response","condition":"seqNoFeedback","trueTheta":0.5,"classrooms":["A","B"],"studentTrueClassroom":"B","exampleSet":"second","trial_type":"survey-html-form","trial_index":44,"time_elapsed":735688,"internal_node_id":"0.0-43.0-0.0","params":{"nStudents":24,"maxFlips":30,"completionMinutes":45,"basePay":8,"maxBonus":9,"perTrialBonus":0.5,"perTrialBonusThreshold":0.05,"exampleCost":0.01},"classroomParams":{"A":{"a":1,"b":4},"B":{"a":4,"b":1},"C":{"a":2,"b":8},"D":{"a":8,"b":2}},"conditions":["nonSeqFull","nonSeqPartial","seqNoFeedback","seqFeedback"],"classroomPairings":[["A","B"],["C","D"]],"coinWeights":[0.2,0.5,0.8],"subjectId":"A2NJ7N8INZOB00","assignmentId":"3IOEN3P9S856ZRO8WNOZCYIB6WC61H","hitId":"3ZG552ORAMQWHINBPXRJ4QCSG7OV2V","url":"https://gershmanlab.com/experiments/alicia/teaching/experiment/?hitId=3ZG552ORAMQWHINBPXRJ4QCSG7OV2V&workerId=A2NJ7N8INZOB00&assignmentId=3IOEN3P9S856ZRO8WNOZCYIB6WC61H&a=9NOI7&tp_a=9NOI7&b=3IOEN3P9S856ZRO8WNOZCYIB6WC61H&tp_b=3IOEN3P9S856ZRO8WNOZCYIB6WC61H&c=365717&tp_c=365717","firstResponseHeads":1,"firstResponseTails":1,"secondResponseHeads":1,"secondResponseTails":1,"totalHeads":2,"totalTails":2,"studentIndex":4,"studentTrueHypers":{"a":4,"b":1},"studentGuess":0.6666666666666666,"delta":0.16666666666666663,"bonus":0,"bonusSoFar":0,"totalExamples":4},{"rt":null,"stimulus":"Sending examples to student... ","response":null,"trial_type":"html-keyboard-response","trial_index":45,"time_elapsed":737196,"internal_node_id":"0.0-44.0","params":{"nStudents":24,"maxFlips":30,"completionMinutes":45,"basePay":8,"maxBonus":9,"perTrialBonus":0.5,"perTrialBonusThreshold":0.05,"exampleCost":0.01},"classroomParams":{"A":{"a":1,"b":4},"B":{"a":4,"b":1},"C":{"a":2,"b":8},"D":{"a":8,"b":2}},"conditions":["nonSeqFull","nonSeqPartial","seqNoFeedback","seqFeedback"],"classroomPairings":[["A","B"],["C","D"]],"coinWeights":[0.2,0.5,0.8],"subjectId":"A2NJ7N8INZOB00","assignmentId":"3IOEN3P9S856ZRO8WNOZCYIB6WC61H","hitId":"3ZG552ORAMQWHINBPXRJ4QCSG7OV2V","url":"https://gershmanlab.com/experiments/alicia/teaching/experiment/?hitId=3ZG552ORAMQWHINBPXRJ4QCSG7OV2V&workerId=A2NJ7N8INZOB00&assignmentId=3IOEN3P9S856ZRO8WNOZCYIB6WC61H&a=9NOI7&tp_a=9NOI7&b=3IOEN3P9S856ZRO8WNOZCYIB6WC61H&tp_b=3IOEN3P9S856ZRO8WNOZCYIB6WC61H&c=365717&tp_c=365717"},{"rt":null,"stimulus":"Examples sent to student! Waiting for student...","response":null,"trial_type":"html-keyboard-response","trial_index":46,"time_elapsed":743211,"internal_node_id":"0.0-45.0","params":{"nStudents":24,"maxFlips":30,"completionMinutes":45,"basePay":8,"maxBonus":9,"perTrialBonus":0.5,"perTrialBonusThreshold":0.05,"exampleCost":0.01},"classroomParams":{"A":{"a":1,"b":4},"B":{"a":4,"b":1},"C":{"a":2,"b":8},"D":{"a":8,"b":2}},"conditions":["nonSeqFull","nonSeqPartial","seqNoFeedback","seqFeedback"],"classroomPairings":[["A","B"],["C","D"]],"coinWeights":[0.2,0.5,0.8],"subjectId":"A2NJ7N8INZOB00","assignmentId":"3IOEN3P9S856ZRO8WNOZCYIB6WC61H","hitId":"3ZG552ORAMQWHINBPXRJ4QCSG7OV2V","url":"https://gershmanlab.com/experiments/alicia/teaching/experiment/?hitId=3ZG552ORAMQWHINBPXRJ4QCSG7OV2V&workerId=A2NJ7N8INZOB00&assignmentId=3IOEN3P9S856ZRO8WNOZCYIB6WC61H&a=9NOI7&tp_a=9NOI7&b=3IOEN3P9S856ZRO8WNOZCYIB6WC61H&tp_b=3IOEN3P9S856ZRO8WNOZCYIB6WC61H&c=365717&tp_c=365717"},{"rt":4983,"stimulus":"\n                <p>Student 5's first guess for coin weight: <b style=\"color:Tomato\";>0.71</b></p>\n                <p>Student 5's second guess for coin weight: <b style=\"color:Tomato\";>0.67</b></p>\n                <p>You received a bonus of <b>$0.00</b> based on the student's second guess.</p>\n                <p>Total bonus so far: <b>$0.00</b></p>\n                <p>Press any key to continue.</p>\n                ","response":"1","trial_type":"html-keyboard-response","trial_index":47,"time_elapsed":748199,"internal_node_id":"0.0-46.0","params":{"nStudents":24,"maxFlips":30,"completionMinutes":45,"basePay":8,"maxBonus":9,"perTrialBonus":0.5,"perTrialBonusThreshold":0.05,"exampleCost":0.01},"classroomParams":{"A":{"a":1,"b":4},"B":{"a":4,"b":1},"C":{"a":2,"b":8},"D":{"a":8,"b":2}},"conditions":["nonSeqFull","nonSeqPartial","seqNoFeedback","seqFeedback"],"classroomPairings":[["A","B"],["C","D"]],"coinWeights":[0.2,0.5,0.8],"subjectId":"A2NJ7N8INZOB00","assignmentId":"3IOEN3P9S856ZRO8WNOZCYIB6WC61H","hitId":"3ZG552ORAMQWHINBPXRJ4QCSG7OV2V","url":"https://gershmanlab.com/experiments/alicia/teaching/experiment/?hitId=3ZG552ORAMQWHINBPXRJ4QCSG7OV2V&workerId=A2NJ7N8INZOB00&assignmentId=3IOEN3P9S856ZRO8WNOZCYIB6WC61H&a=9NOI7&tp_a=9NOI7&b=3IOEN3P9S856ZRO8WNOZCYIB6WC61H&tp_b=3IOEN3P9S856ZRO8WNOZCYIB6WC61H&c=365717&tp_c=365717"},{"rt":null,"stimulus":"<div style=\"font-size:60px;\">Next student</div>","response":null,"trial_type":"html-keyboard-response","trial_index":48,"time_elapsed":750455,"internal_node_id":"0.0-47.0-0.0","params":{"nStudents":24,"maxFlips":30,"completionMinutes":45,"basePay":8,"maxBonus":9,"perTrialBonus":0.5,"perTrialBonusThreshold":0.05,"exampleCost":0.01},"classroomParams":{"A":{"a":1,"b":4},"B":{"a":4,"b":1},"C":{"a":2,"b":8},"D":{"a":8,"b":2}},"conditions":["nonSeqFull","nonSeqPartial","seqNoFeedback","seqFeedback"],"classroomPairings":[["A","B"],["C","D"]],"coinWeights":[0.2,0.5,0.8],"subjectId":"A2NJ7N8INZOB00","assignmentId":"3IOEN3P9S856ZRO8WNOZCYIB6WC61H","hitId":"3ZG552ORAMQWHINBPXRJ4QCSG7OV2V","url":"https://gershmanlab.com/experiments/alicia/teaching/experiment/?hitId=3ZG552ORAMQWHINBPXRJ4QCSG7OV2V&workerId=A2NJ7N8INZOB00&assignmentId=3IOEN3P9S856ZRO8WNOZCYIB6WC61H&a=9NOI7&tp_a=9NOI7&b=3IOEN3P9S856ZRO8WNOZCYIB6WC61H&tp_b=3IOEN3P9S856ZRO8WNOZCYIB6WC61H&c=365717&tp_c=365717"},{"rt":4609,"stimulus":"\n            <h4 style=\"color:Orange;\">Student 6</h4>\n            <h2>The weight of your coin is <b style=\"color:Tomato;\">0.2</b>.</h2>\n            <p>In this block, you will be giving <b>two</b> sets of examples to Student 6.</p>\n                <p>You will see the student's guess after the first set of examples. You will also receive feedback at the end of the block.</p>\n            <p>To earn the highest bonus, you will have to <b>take into consideration the student's guess</b> when you choose your second set of examples.</p>","response":0,"trial_type":"html-button-response","trial_index":49,"time_elapsed":755075,"internal_node_id":"0.0-48.0","params":{"nStudents":24,"maxFlips":30,"completionMinutes":45,"basePay":8,"maxBonus":9,"perTrialBonus":0.5,"perTrialBonusThreshold":0.05,"exampleCost":0.01},"classroomParams":{"A":{"a":1,"b":4},"B":{"a":4,"b":1},"C":{"a":2,"b":8},"D":{"a":8,"b":2}},"conditions":["nonSeqFull","nonSeqPartial","seqNoFeedback","seqFeedback"],"classroomPairings":[["A","B"],["C","D"]],"coinWeights":[0.2,0.5,0.8],"subjectId":"A2NJ7N8INZOB00","assignmentId":"3IOEN3P9S856ZRO8WNOZCYIB6WC61H","hitId":"3ZG552ORAMQWHINBPXRJ4QCSG7OV2V","url":"https://gershmanlab.com/experiments/alicia/teaching/experiment/?hitId=3ZG552ORAMQWHINBPXRJ4QCSG7OV2V&workerId=A2NJ7N8INZOB00&assignmentId=3IOEN3P9S856ZRO8WNOZCYIB6WC61H&a=9NOI7&tp_a=9NOI7&b=3IOEN3P9S856ZRO8WNOZCYIB6WC61H&tp_b=3IOEN3P9S856ZRO8WNOZCYIB6WC61H&c=365717&tp_c=365717"},{"rt":10637,"response":{"heads":"2","tails":"8"},"type":"response","condition":"seqFeedback","trueTheta":0.2,"classrooms":["C","D"],"studentTrueClassroom":"C","exampleSet":"first","trial_type":"survey-html-form","trial_index":50,"time_elapsed":765726,"internal_node_id":"0.0-49.0-0.0","params":{"nStudents":24,"maxFlips":30,"completionMinutes":45,"basePay":8,"maxBonus":9,"perTrialBonus":0.5,"perTrialBonusThreshold":0.05,"exampleCost":0.01},"classroomParams":{"A":{"a":1,"b":4},"B":{"a":4,"b":1},"C":{"a":2,"b":8},"D":{"a":8,"b":2}},"conditions":["nonSeqFull","nonSeqPartial","seqNoFeedback","seqFeedback"],"classroomPairings":[["A","B"],["C","D"]],"coinWeights":[0.2,0.5,0.8],"subjectId":"A2NJ7N8INZOB00","assignmentId":"3IOEN3P9S856ZRO8WNOZCYIB6WC61H","hitId":"3ZG552ORAMQWHINBPXRJ4QCSG7OV2V","url":"https://gershmanlab.com/experiments/alicia/teaching/experiment/?hitId=3ZG552ORAMQWHINBPXRJ4QCSG7OV2V&workerId=A2NJ7N8INZOB00&assignmentId=3IOEN3P9S856ZRO8WNOZCYIB6WC61H&a=9NOI7&tp_a=9NOI7&b=3IOEN3P9S856ZRO8WNOZCYIB6WC61H&tp_b=3IOEN3P9S856ZRO8WNOZCYIB6WC61H&c=365717&tp_c=365717","heads":2,"tails":8,"studentIndex":5,"studentTrueHypers":{"a":2,"b":8},"studentGuess":0.2,"delta":0,"totalExamples":10,"bonusSoFar":0},{"rt":null,"stimulus":"Sending examples to student... ","response":null,"trial_type":"html-keyboard-response","trial_index":51,"time_elapsed":766982,"internal_node_id":"0.0-50.0","params":{"nStudents":24,"maxFlips":30,"completionMinutes":45,"basePay":8,"maxBonus":9,"perTrialBonus":0.5,"perTrialBonusThreshold":0.05,"exampleCost":0.01},"classroomParams":{"A":{"a":1,"b":4},"B":{"a":4,"b":1},"C":{"a":2,"b":8},"D":{"a":8,"b":2}},"conditions":["nonSeqFull","nonSeqPartial","seqNoFeedback","seqFeedback"],"classroomPairings":[["A","B"],["C","D"]],"coinWeights":[0.2,0.5,0.8],"subjectId":"A2NJ7N8INZOB00","assignmentId":"3IOEN3P9S856ZRO8WNOZCYIB6WC61H","hitId":"3ZG552ORAMQWHINBPXRJ4QCSG7OV2V","url":"https://gershmanlab.com/experiments/alicia/teaching/experiment/?hitId=3ZG552ORAMQWHINBPXRJ4QCSG7OV2V&workerId=A2NJ7N8INZOB00&assignmentId=3IOEN3P9S856ZRO8WNOZCYIB6WC61H&a=9NOI7&tp_a=9NOI7&b=3IOEN3P9S856ZRO8WNOZCYIB6WC61H&tp_b=3IOEN3P9S856ZRO8WNOZCYIB6WC61H&c=365717&tp_c=365717"},{"rt":null,"stimulus":"Examples sent to student! Waiting for student...","response":null,"trial_type":"html-keyboard-response","trial_index":52,"time_elapsed":771489,"internal_node_id":"0.0-51.0","params":{"nStudents":24,"maxFlips":30,"completionMinutes":45,"basePay":8,"maxBonus":9,"perTrialBonus":0.5,"perTrialBonusThreshold":0.05,"exampleCost":0.01},"classroomParams":{"A":{"a":1,"b":4},"B":{"a":4,"b":1},"C":{"a":2,"b":8},"D":{"a":8,"b":2}},"conditions":["nonSeqFull","nonSeqPartial","seqNoFeedback","seqFeedback"],"classroomPairings":[["A","B"],["C","D"]],"coinWeights":[0.2,0.5,0.8],"subjectId":"A2NJ7N8INZOB00","assignmentId":"3IOEN3P9S856ZRO8WNOZCYIB6WC61H","hitId":"3ZG552ORAMQWHINBPXRJ4QCSG7OV2V","url":"https://gershmanlab.com/experiments/alicia/teaching/experiment/?hitId=3ZG552ORAMQWHINBPXRJ4QCSG7OV2V&workerId=A2NJ7N8INZOB00&assignmentId=3IOEN3P9S856ZRO8WNOZCYIB6WC61H&a=9NOI7&tp_a=9NOI7&b=3IOEN3P9S856ZRO8WNOZCYIB6WC61H&tp_b=3IOEN3P9S856ZRO8WNOZCYIB6WC61H&c=365717&tp_c=365717"},{"rt":9751,"stimulus":"\n                <p>Student's guess for coin weight: <b style=\"color:Tomato;\">0.20</b></p>\n                <p></b></p>\n                <p>You will now send another set of examples to your student. <b>Remember to take your student's guess into consideration so that you can earn the highest bonus possible!</b> </p>\n                <p>Press any key to continue.</p>\n                ","response":"q","trial_type":"html-keyboard-response","trial_index":53,"time_elapsed":781248,"internal_node_id":"0.0-52.0","params":{"nStudents":24,"maxFlips":30,"completionMinutes":45,"basePay":8,"maxBonus":9,"perTrialBonus":0.5,"perTrialBonusThreshold":0.05,"exampleCost":0.01},"classroomParams":{"A":{"a":1,"b":4},"B":{"a":4,"b":1},"C":{"a":2,"b":8},"D":{"a":8,"b":2}},"conditions":["nonSeqFull","nonSeqPartial","seqNoFeedback","seqFeedback"],"classroomPairings":[["A","B"],["C","D"]],"coinWeights":[0.2,0.5,0.8],"subjectId":"A2NJ7N8INZOB00","assignmentId":"3IOEN3P9S856ZRO8WNOZCYIB6WC61H","hitId":"3ZG552ORAMQWHINBPXRJ4QCSG7OV2V","url":"https://gershmanlab.com/experiments/alicia/teaching/experiment/?hitId=3ZG552ORAMQWHINBPXRJ4QCSG7OV2V&workerId=A2NJ7N8INZOB00&assignmentId=3IOEN3P9S856ZRO8WNOZCYIB6WC61H&a=9NOI7&tp_a=9NOI7&b=3IOEN3P9S856ZRO8WNOZCYIB6WC61H&tp_b=3IOEN3P9S856ZRO8WNOZCYIB6WC61H&c=365717&tp_c=365717"},{"rt":13998,"response":{"heads":"8","tails":"0"},"type":"response","condition":"seqFeedback","trueTheta":0.2,"classrooms":["C","D"],"studentTrueClassroom":"C","exampleSet":"second","trial_type":"survey-html-form","trial_index":54,"time_elapsed":795257,"internal_node_id":"0.0-53.0-0.0","params":{"nStudents":24,"maxFlips":30,"completionMinutes":45,"basePay":8,"maxBonus":9,"perTrialBonus":0.5,"perTrialBonusThreshold":0.05,"exampleCost":0.01},"classroomParams":{"A":{"a":1,"b":4},"B":{"a":4,"b":1},"C":{"a":2,"b":8},"D":{"a":8,"b":2}},"conditions":["nonSeqFull","nonSeqPartial","seqNoFeedback","seqFeedback"],"classroomPairings":[["A","B"],["C","D"]],"coinWeights":[0.2,0.5,0.8],"subjectId":"A2NJ7N8INZOB00","assignmentId":"3IOEN3P9S856ZRO8WNOZCYIB6WC61H","hitId":"3ZG552ORAMQWHINBPXRJ4QCSG7OV2V","url":"https://gershmanlab.com/experiments/alicia/teaching/experiment/?hitId=3ZG552ORAMQWHINBPXRJ4QCSG7OV2V&workerId=A2NJ7N8INZOB00&assignmentId=3IOEN3P9S856ZRO8WNOZCYIB6WC61H&a=9NOI7&tp_a=9NOI7&b=3IOEN3P9S856ZRO8WNOZCYIB6WC61H&tp_b=3IOEN3P9S856ZRO8WNOZCYIB6WC61H&c=365717&tp_c=365717","firstResponseHeads":2,"firstResponseTails":8,"secondResponseHeads":8,"secondResponseTails":0,"totalHeads":10,"totalTails":8,"studentIndex":5,"studentTrueHypers":{"a":2,"b":8},"studentGuess":0.42857142857142855,"delta":0.22857142857142854,"bonus":0,"bonusSoFar":0,"totalExamples":18},{"rt":null,"stimulus":"Sending examples to student... ","response":null,"trial_type":"html-keyboard-response","trial_index":55,"time_elapsed":797013,"internal_node_id":"0.0-54.0","params":{"nStudents":24,"maxFlips":30,"completionMinutes":45,"basePay":8,"maxBonus":9,"perTrialBonus":0.5,"perTrialBonusThreshold":0.05,"exampleCost":0.01},"classroomParams":{"A":{"a":1,"b":4},"B":{"a":4,"b":1},"C":{"a":2,"b":8},"D":{"a":8,"b":2}},"conditions":["nonSeqFull","nonSeqPartial","seqNoFeedback","seqFeedback"],"classroomPairings":[["A","B"],["C","D"]],"coinWeights":[0.2,0.5,0.8],"subjectId":"A2NJ7N8INZOB00","assignmentId":"3IOEN3P9S856ZRO8WNOZCYIB6WC61H","hitId":"3ZG552ORAMQWHINBPXRJ4QCSG7OV2V","url":"https://gershmanlab.com/experiments/alicia/teaching/experiment/?hitId=3ZG552ORAMQWHINBPXRJ4QCSG7OV2V&workerId=A2NJ7N8INZOB00&assignmentId=3IOEN3P9S856ZRO8WNOZCYIB6WC61H&a=9NOI7&tp_a=9NOI7&b=3IOEN3P9S856ZRO8WNOZCYIB6WC61H&tp_b=3IOEN3P9S856ZRO8WNOZCYIB6WC61H&c=365717&tp_c=365717"},{"rt":null,"stimulus":"Examples sent to student! Waiting for student...","response":null,"trial_type":"html-keyboard-response","trial_index":56,"time_elapsed":801017,"internal_node_id":"0.0-55.0","params":{"nStudents":24,"maxFlips":30,"completionMinutes":45,"basePay":8,"maxBonus":9,"perTrialBonus":0.5,"perTrialBonusThreshold":0.05,"exampleCost":0.01},"classroomParams":{"A":{"a":1,"b":4},"B":{"a":4,"b":1},"C":{"a":2,"b":8},"D":{"a":8,"b":2}},"conditions":["nonSeqFull","nonSeqPartial","seqNoFeedback","seqFeedback"],"classroomPairings":[["A","B"],["C","D"]],"coinWeights":[0.2,0.5,0.8],"subjectId":"A2NJ7N8INZOB00","assignmentId":"3IOEN3P9S856ZRO8WNOZCYIB6WC61H","hitId":"3ZG552ORAMQWHINBPXRJ4QCSG7OV2V","url":"https://gershmanlab.com/experiments/alicia/teaching/experiment/?hitId=3ZG552ORAMQWHINBPXRJ4QCSG7OV2V&workerId=A2NJ7N8INZOB00&assignmentId=3IOEN3P9S856ZRO8WNOZCYIB6WC61H&a=9NOI7&tp_a=9NOI7&b=3IOEN3P9S856ZRO8WNOZCYIB6WC61H&tp_b=3IOEN3P9S856ZRO8WNOZCYIB6WC61H&c=365717&tp_c=365717"},{"rt":6423,"stimulus":"\n                <p>Student 6's first guess for coin weight: <b style=\"color:Tomato\";>0.20</b></p>\n                <p>Student 6's second guess for coin weight: <b style=\"color:Tomato\";>0.43</b></p>\n                <p>You received a bonus of <b>$0.00</b> based on the student's second guess.</p>\n                <p>Total bonus so far: <b>$0.00</b></p>\n                <p>Press any key to continue.</p>\n                ","response":"2","trial_type":"html-keyboard-response","trial_index":57,"time_elapsed":807444,"internal_node_id":"0.0-56.0","params":{"nStudents":24,"maxFlips":30,"completionMinutes":45,"basePay":8,"maxBonus":9,"perTrialBonus":0.5,"perTrialBonusThreshold":0.05,"exampleCost":0.01},"classroomParams":{"A":{"a":1,"b":4},"B":{"a":4,"b":1},"C":{"a":2,"b":8},"D":{"a":8,"b":2}},"conditions":["nonSeqFull","nonSeqPartial","seqNoFeedback","seqFeedback"],"classroomPairings":[["A","B"],["C","D"]],"coinWeights":[0.2,0.5,0.8],"subjectId":"A2NJ7N8INZOB00","assignmentId":"3IOEN3P9S856ZRO8WNOZCYIB6WC61H","hitId":"3ZG552ORAMQWHINBPXRJ4QCSG7OV2V","url":"https://gershmanlab.com/experiments/alicia/teaching/experiment/?hitId=3ZG552ORAMQWHINBPXRJ4QCSG7OV2V&workerId=A2NJ7N8INZOB00&assignmentId=3IOEN3P9S856ZRO8WNOZCYIB6WC61H&a=9NOI7&tp_a=9NOI7&b=3IOEN3P9S856ZRO8WNOZCYIB6WC61H&tp_b=3IOEN3P9S856ZRO8WNOZCYIB6WC61H&c=365717&tp_c=365717"},{"rt":null,"stimulus":"<div style=\"font-size:60px;\">Next student</div>","response":null,"trial_type":"html-keyboard-response","trial_index":58,"time_elapsed":809448,"internal_node_id":"0.0-57.0-0.0","params":{"nStudents":24,"maxFlips":30,"completionMinutes":45,"basePay":8,"maxBonus":9,"perTrialBonus":0.5,"perTrialBonusThreshold":0.05,"exampleCost":0.01},"classroomParams":{"A":{"a":1,"b":4},"B":{"a":4,"b":1},"C":{"a":2,"b":8},"D":{"a":8,"b":2}},"conditions":["nonSeqFull","nonSeqPartial","seqNoFeedback","seqFeedback"],"classroomPairings":[["A","B"],["C","D"]],"coinWeights":[0.2,0.5,0.8],"subjectId":"A2NJ7N8INZOB00","assignmentId":"3IOEN3P9S856ZRO8WNOZCYIB6WC61H","hitId":"3ZG552ORAMQWHINBPXRJ4QCSG7OV2V","url":"https://gershmanlab.com/experiments/alicia/teaching/experiment/?hitId=3ZG552ORAMQWHINBPXRJ4QCSG7OV2V&workerId=A2NJ7N8INZOB00&assignmentId=3IOEN3P9S856ZRO8WNOZCYIB6WC61H&a=9NOI7&tp_a=9NOI7&b=3IOEN3P9S856ZRO8WNOZCYIB6WC61H&tp_b=3IOEN3P9S856ZRO8WNOZCYIB6WC61H&c=365717&tp_c=365717"},{"rt":5023,"stimulus":"\n            <h4 style=\"color:Orange;\">Student 7</h4>\n            <h2>The weight of your coin is <b style=\"color:Tomato;\">0.8</b>.</h2>\n            <p>In this block, you will be giving <b>two</b> sets of examples to Student 7.</p>\n                <p>You will receive feedback at the end of the block.</p>\n            <p></p>","response":0,"trial_type":"html-button-response","trial_index":59,"time_elapsed":814475,"internal_node_id":"0.0-58.0","params":{"nStudents":24,"maxFlips":30,"completionMinutes":45,"basePay":8,"maxBonus":9,"perTrialBonus":0.5,"perTrialBonusThreshold":0.05,"exampleCost":0.01},"classroomParams":{"A":{"a":1,"b":4},"B":{"a":4,"b":1},"C":{"a":2,"b":8},"D":{"a":8,"b":2}},"conditions":["nonSeqFull","nonSeqPartial","seqNoFeedback","seqFeedback"],"classroomPairings":[["A","B"],["C","D"]],"coinWeights":[0.2,0.5,0.8],"subjectId":"A2NJ7N8INZOB00","assignmentId":"3IOEN3P9S856ZRO8WNOZCYIB6WC61H","hitId":"3ZG552ORAMQWHINBPXRJ4QCSG7OV2V","url":"https://gershmanlab.com/experiments/alicia/teaching/experiment/?hitId=3ZG552ORAMQWHINBPXRJ4QCSG7OV2V&workerId=A2NJ7N8INZOB00&assignmentId=3IOEN3P9S856ZRO8WNOZCYIB6WC61H&a=9NOI7&tp_a=9NOI7&b=3IOEN3P9S856ZRO8WNOZCYIB6WC61H&tp_b=3IOEN3P9S856ZRO8WNOZCYIB6WC61H&c=365717&tp_c=365717"},{"rt":7223,"response":{"heads":"0","tails":"8"},"type":"response","condition":"seqNoFeedback","trueTheta":0.8,"classrooms":["A","B"],"studentTrueClassroom":"A","exampleSet":"first","trial_type":"survey-html-form","trial_index":60,"time_elapsed":821703,"internal_node_id":"0.0-59.0-0.0","params":{"nStudents":24,"maxFlips":30,"completionMinutes":45,"basePay":8,"maxBonus":9,"perTrialBonus":0.5,"perTrialBonusThreshold":0.05,"exampleCost":0.01},"classroomParams":{"A":{"a":1,"b":4},"B":{"a":4,"b":1},"C":{"a":2,"b":8},"D":{"a":8,"b":2}},"conditions":["nonSeqFull","nonSeqPartial","seqNoFeedback","seqFeedback"],"classroomPairings":[["A","B"],["C","D"]],"coinWeights":[0.2,0.5,0.8],"subjectId":"A2NJ7N8INZOB00","assignmentId":"3IOEN3P9S856ZRO8WNOZCYIB6WC61H","hitId":"3ZG552ORAMQWHINBPXRJ4QCSG7OV2V","url":"https://gershmanlab.com/experiments/alicia/teaching/experiment/?hitId=3ZG552ORAMQWHINBPXRJ4QCSG7OV2V&workerId=A2NJ7N8INZOB00&assignmentId=3IOEN3P9S856ZRO8WNOZCYIB6WC61H&a=9NOI7&tp_a=9NOI7&b=3IOEN3P9S856ZRO8WNOZCYIB6WC61H&tp_b=3IOEN3P9S856ZRO8WNOZCYIB6WC61H&c=365717&tp_c=365717","heads":0,"tails":8,"studentIndex":6,"studentTrueHypers":{"a":1,"b":4},"studentGuess":0.07692307692307693,"delta":0.7230769230769232,"totalExamples":8,"bonusSoFar":0},{"rt":null,"stimulus":"Sending examples to student... ","response":null,"trial_type":"html-keyboard-response","trial_index":61,"time_elapsed":823458,"internal_node_id":"0.0-60.0","params":{"nStudents":24,"maxFlips":30,"completionMinutes":45,"basePay":8,"maxBonus":9,"perTrialBonus":0.5,"perTrialBonusThreshold":0.05,"exampleCost":0.01},"classroomParams":{"A":{"a":1,"b":4},"B":{"a":4,"b":1},"C":{"a":2,"b":8},"D":{"a":8,"b":2}},"conditions":["nonSeqFull","nonSeqPartial","seqNoFeedback","seqFeedback"],"classroomPairings":[["A","B"],["C","D"]],"coinWeights":[0.2,0.5,0.8],"subjectId":"A2NJ7N8INZOB00","assignmentId":"3IOEN3P9S856ZRO8WNOZCYIB6WC61H","hitId":"3ZG552ORAMQWHINBPXRJ4QCSG7OV2V","url":"https://gershmanlab.com/experiments/alicia/teaching/experiment/?hitId=3ZG552ORAMQWHINBPXRJ4QCSG7OV2V&workerId=A2NJ7N8INZOB00&assignmentId=3IOEN3P9S856ZRO8WNOZCYIB6WC61H&a=9NOI7&tp_a=9NOI7&b=3IOEN3P9S856ZRO8WNOZCYIB6WC61H&tp_b=3IOEN3P9S856ZRO8WNOZCYIB6WC61H&c=365717&tp_c=365717"},{"rt":null,"stimulus":"Examples sent to student! Waiting for student...","response":null,"trial_type":"html-keyboard-response","trial_index":62,"time_elapsed":828460,"internal_node_id":"0.0-61.0","params":{"nStudents":24,"maxFlips":30,"completionMinutes":45,"basePay":8,"maxBonus":9,"perTrialBonus":0.5,"perTrialBonusThreshold":0.05,"exampleCost":0.01},"classroomParams":{"A":{"a":1,"b":4},"B":{"a":4,"b":1},"C":{"a":2,"b":8},"D":{"a":8,"b":2}},"conditions":["nonSeqFull","nonSeqPartial","seqNoFeedback","seqFeedback"],"classroomPairings":[["A","B"],["C","D"]],"coinWeights":[0.2,0.5,0.8],"subjectId":"A2NJ7N8INZOB00","assignmentId":"3IOEN3P9S856ZRO8WNOZCYIB6WC61H","hitId":"3ZG552ORAMQWHINBPXRJ4QCSG7OV2V","url":"https://gershmanlab.com/experiments/alicia/teaching/experiment/?hitId=3ZG552ORAMQWHINBPXRJ4QCSG7OV2V&workerId=A2NJ7N8INZOB00&assignmentId=3IOEN3P9S856ZRO8WNOZCYIB6WC61H&a=9NOI7&tp_a=9NOI7&b=3IOEN3P9S856ZRO8WNOZCYIB6WC61H&tp_b=3IOEN3P9S856ZRO8WNOZCYIB6WC61H&c=365717&tp_c=365717"},{"rt":11540,"response":{"heads":"0","tails":"8"},"type":"response","condition":"seqNoFeedback","trueTheta":0.8,"classrooms":["A","B"],"studentTrueClassroom":"A","exampleSet":"second","trial_type":"survey-html-form","trial_index":63,"time_elapsed":840004,"internal_node_id":"0.0-62.0-0.0","params":{"nStudents":24,"maxFlips":30,"completionMinutes":45,"basePay":8,"maxBonus":9,"perTrialBonus":0.5,"perTrialBonusThreshold":0.05,"exampleCost":0.01},"classroomParams":{"A":{"a":1,"b":4},"B":{"a":4,"b":1},"C":{"a":2,"b":8},"D":{"a":8,"b":2}},"conditions":["nonSeqFull","nonSeqPartial","seqNoFeedback","seqFeedback"],"classroomPairings":[["A","B"],["C","D"]],"coinWeights":[0.2,0.5,0.8],"subjectId":"A2NJ7N8INZOB00","assignmentId":"3IOEN3P9S856ZRO8WNOZCYIB6WC61H","hitId":"3ZG552ORAMQWHINBPXRJ4QCSG7OV2V","url":"https://gershmanlab.com/experiments/alicia/teaching/experiment/?hitId=3ZG552ORAMQWHINBPXRJ4QCSG7OV2V&workerId=A2NJ7N8INZOB00&assignmentId=3IOEN3P9S856ZRO8WNOZCYIB6WC61H&a=9NOI7&tp_a=9NOI7&b=3IOEN3P9S856ZRO8WNOZCYIB6WC61H&tp_b=3IOEN3P9S856ZRO8WNOZCYIB6WC61H&c=365717&tp_c=365717","firstResponseHeads":0,"firstResponseTails":8,"secondResponseHeads":0,"secondResponseTails":8,"totalHeads":0,"totalTails":16,"studentIndex":6,"studentTrueHypers":{"a":1,"b":4},"studentGuess":0.047619047619047616,"delta":0.7523809523809524,"bonus":0,"bonusSoFar":0,"totalExamples":16},{"rt":null,"stimulus":"Sending examples to student... ","response":null,"trial_type":"html-keyboard-response","trial_index":64,"time_elapsed":842009,"internal_node_id":"0.0-63.0","params":{"nStudents":24,"maxFlips":30,"completionMinutes":45,"basePay":8,"maxBonus":9,"perTrialBonus":0.5,"perTrialBonusThreshold":0.05,"exampleCost":0.01},"classroomParams":{"A":{"a":1,"b":4},"B":{"a":4,"b":1},"C":{"a":2,"b":8},"D":{"a":8,"b":2}},"conditions":["nonSeqFull","nonSeqPartial","seqNoFeedback","seqFeedback"],"classroomPairings":[["A","B"],["C","D"]],"coinWeights":[0.2,0.5,0.8],"subjectId":"A2NJ7N8INZOB00","assignmentId":"3IOEN3P9S856ZRO8WNOZCYIB6WC61H","hitId":"3ZG552ORAMQWHINBPXRJ4QCSG7OV2V","url":"https://gershmanlab.com/experiments/alicia/teaching/experiment/?hitId=3ZG552ORAMQWHINBPXRJ4QCSG7OV2V&workerId=A2NJ7N8INZOB00&assignmentId=3IOEN3P9S856ZRO8WNOZCYIB6WC61H&a=9NOI7&tp_a=9NOI7&b=3IOEN3P9S856ZRO8WNOZCYIB6WC61H&tp_b=3IOEN3P9S856ZRO8WNOZCYIB6WC61H&c=365717&tp_c=365717"},{"rt":null,"stimulus":"Examples sent to student! Waiting for student...","response":null,"trial_type":"html-keyboard-response","trial_index":65,"time_elapsed":846012,"internal_node_id":"0.0-64.0","params":{"nStudents":24,"maxFlips":30,"completionMinutes":45,"basePay":8,"maxBonus":9,"perTrialBonus":0.5,"perTrialBonusThreshold":0.05,"exampleCost":0.01},"classroomParams":{"A":{"a":1,"b":4},"B":{"a":4,"b":1},"C":{"a":2,"b":8},"D":{"a":8,"b":2}},"conditions":["nonSeqFull","nonSeqPartial","seqNoFeedback","seqFeedback"],"classroomPairings":[["A","B"],["C","D"]],"coinWeights":[0.2,0.5,0.8],"subjectId":"A2NJ7N8INZOB00","assignmentId":"3IOEN3P9S856ZRO8WNOZCYIB6WC61H","hitId":"3ZG552ORAMQWHINBPXRJ4QCSG7OV2V","url":"https://gershmanlab.com/experiments/alicia/teaching/experiment/?hitId=3ZG552ORAMQWHINBPXRJ4QCSG7OV2V&workerId=A2NJ7N8INZOB00&assignmentId=3IOEN3P9S856ZRO8WNOZCYIB6WC61H&a=9NOI7&tp_a=9NOI7&b=3IOEN3P9S856ZRO8WNOZCYIB6WC61H&tp_b=3IOEN3P9S856ZRO8WNOZCYIB6WC61H&c=365717&tp_c=365717"},{"rt":3299,"stimulus":"\n                <p>Student 7's first guess for coin weight: <b style=\"color:Tomato\";>0.08</b></p>\n                <p>Student 7's second guess for coin weight: <b style=\"color:Tomato\";>0.05</b></p>\n                <p>You received a bonus of <b>$0.00</b> based on the student's second guess.</p>\n                <p>Total bonus so far: <b>$0.00</b></p>\n                <p>Press any key to continue.</p>\n                ","response":" ","trial_type":"html-keyboard-response","trial_index":66,"time_elapsed":849315,"internal_node_id":"0.0-65.0","params":{"nStudents":24,"maxFlips":30,"completionMinutes":45,"basePay":8,"maxBonus":9,"perTrialBonus":0.5,"perTrialBonusThreshold":0.05,"exampleCost":0.01},"classroomParams":{"A":{"a":1,"b":4},"B":{"a":4,"b":1},"C":{"a":2,"b":8},"D":{"a":8,"b":2}},"conditions":["nonSeqFull","nonSeqPartial","seqNoFeedback","seqFeedback"],"classroomPairings":[["A","B"],["C","D"]],"coinWeights":[0.2,0.5,0.8],"subjectId":"A2NJ7N8INZOB00","assignmentId":"3IOEN3P9S856ZRO8WNOZCYIB6WC61H","hitId":"3ZG552ORAMQWHINBPXRJ4QCSG7OV2V","url":"https://gershmanlab.com/experiments/alicia/teaching/experiment/?hitId=3ZG552ORAMQWHINBPXRJ4QCSG7OV2V&workerId=A2NJ7N8INZOB00&assignmentId=3IOEN3P9S856ZRO8WNOZCYIB6WC61H&a=9NOI7&tp_a=9NOI7&b=3IOEN3P9S856ZRO8WNOZCYIB6WC61H&tp_b=3IOEN3P9S856ZRO8WNOZCYIB6WC61H&c=365717&tp_c=365717"},{"rt":null,"stimulus":"<div style=\"font-size:60px;\">Next student</div>","response":null,"trial_type":"html-keyboard-response","trial_index":67,"time_elapsed":852316,"internal_node_id":"0.0-66.0-0.0","params":{"nStudents":24,"maxFlips":30,"completionMinutes":45,"basePay":8,"maxBonus":9,"perTrialBonus":0.5,"perTrialBonusThreshold":0.05,"exampleCost":0.01},"classroomParams":{"A":{"a":1,"b":4},"B":{"a":4,"b":1},"C":{"a":2,"b":8},"D":{"a":8,"b":2}},"conditions":["nonSeqFull","nonSeqPartial","seqNoFeedback","seqFeedback"],"classroomPairings":[["A","B"],["C","D"]],"coinWeights":[0.2,0.5,0.8],"subjectId":"A2NJ7N8INZOB00","assignmentId":"3IOEN3P9S856ZRO8WNOZCYIB6WC61H","hitId":"3ZG552ORAMQWHINBPXRJ4QCSG7OV2V","url":"https://gershmanlab.com/experiments/alicia/teaching/experiment/?hitId=3ZG552ORAMQWHINBPXRJ4QCSG7OV2V&workerId=A2NJ7N8INZOB00&assignmentId=3IOEN3P9S856ZRO8WNOZCYIB6WC61H&a=9NOI7&tp_a=9NOI7&b=3IOEN3P9S856ZRO8WNOZCYIB6WC61H&tp_b=3IOEN3P9S856ZRO8WNOZCYIB6WC61H&c=365717&tp_c=365717"},{"rt":3582,"stimulus":"\n            <h4 style=\"color:Orange;\">Student 8</h4>\n            <h2>The weight of your coin is <b style=\"color:Tomato;\">0.5</b>.</h2>\n            <p>In this block, you will be giving <b>one</b> set of examples to Student 8.</p>\n                <p>You will receive feedback at the end of the block.</p>\n            <p></p>","response":0,"trial_type":"html-button-response","trial_index":68,"time_elapsed":855903,"internal_node_id":"0.0-67.0","params":{"nStudents":24,"maxFlips":30,"completionMinutes":45,"basePay":8,"maxBonus":9,"perTrialBonus":0.5,"perTrialBonusThreshold":0.05,"exampleCost":0.01},"classroomParams":{"A":{"a":1,"b":4},"B":{"a":4,"b":1},"C":{"a":2,"b":8},"D":{"a":8,"b":2}},"conditions":["nonSeqFull","nonSeqPartial","seqNoFeedback","seqFeedback"],"classroomPairings":[["A","B"],["C","D"]],"coinWeights":[0.2,0.5,0.8],"subjectId":"A2NJ7N8INZOB00","assignmentId":"3IOEN3P9S856ZRO8WNOZCYIB6WC61H","hitId":"3ZG552ORAMQWHINBPXRJ4QCSG7OV2V","url":"https://gershmanlab.com/experiments/alicia/teaching/experiment/?hitId=3ZG552ORAMQWHINBPXRJ4QCSG7OV2V&workerId=A2NJ7N8INZOB00&assignmentId=3IOEN3P9S856ZRO8WNOZCYIB6WC61H&a=9NOI7&tp_a=9NOI7&b=3IOEN3P9S856ZRO8WNOZCYIB6WC61H&tp_b=3IOEN3P9S856ZRO8WNOZCYIB6WC61H&c=365717&tp_c=365717"},{"rt":5153,"response":{"heads":"0","tails":"5"},"type":"response","condition":"nonSeqPartial","trueTheta":0.5,"classrooms":["A","B"],"studentTrueClassroom":"A","exampleSet":"first","trial_type":"survey-html-form","trial_index":69,"time_elapsed":861062,"internal_node_id":"0.0-68.0-0.0","params":{"nStudents":24,"maxFlips":30,"completionMinutes":45,"basePay":8,"maxBonus":9,"perTrialBonus":0.5,"perTrialBonusThreshold":0.05,"exampleCost":0.01},"classroomParams":{"A":{"a":1,"b":4},"B":{"a":4,"b":1},"C":{"a":2,"b":8},"D":{"a":8,"b":2}},"conditions":["nonSeqFull","nonSeqPartial","seqNoFeedback","seqFeedback"],"classroomPairings":[["A","B"],["C","D"]],"coinWeights":[0.2,0.5,0.8],"subjectId":"A2NJ7N8INZOB00","assignmentId":"3IOEN3P9S856ZRO8WNOZCYIB6WC61H","hitId":"3ZG552ORAMQWHINBPXRJ4QCSG7OV2V","url":"https://gershmanlab.com/experiments/alicia/teaching/experiment/?hitId=3ZG552ORAMQWHINBPXRJ4QCSG7OV2V&workerId=A2NJ7N8INZOB00&assignmentId=3IOEN3P9S856ZRO8WNOZCYIB6WC61H&a=9NOI7&tp_a=9NOI7&b=3IOEN3P9S856ZRO8WNOZCYIB6WC61H&tp_b=3IOEN3P9S856ZRO8WNOZCYIB6WC61H&c=365717&tp_c=365717","heads":0,"tails":5,"studentIndex":7,"studentTrueHypers":{"a":1,"b":4},"studentGuess":0.1,"delta":0.4,"totalExamples":5,"bonus":0,"bonusSoFar":0},{"rt":null,"stimulus":"Sending examples to student... ","response":null,"trial_type":"html-keyboard-response","trial_index":70,"time_elapsed":862814,"internal_node_id":"0.0-69.0","params":{"nStudents":24,"maxFlips":30,"completionMinutes":45,"basePay":8,"maxBonus":9,"perTrialBonus":0.5,"perTrialBonusThreshold":0.05,"exampleCost":0.01},"classroomParams":{"A":{"a":1,"b":4},"B":{"a":4,"b":1},"C":{"a":2,"b":8},"D":{"a":8,"b":2}},"conditions":["nonSeqFull","nonSeqPartial","seqNoFeedback","seqFeedback"],"classroomPairings":[["A","B"],["C","D"]],"coinWeights":[0.2,0.5,0.8],"subjectId":"A2NJ7N8INZOB00","assignmentId":"3IOEN3P9S856ZRO8WNOZCYIB6WC61H","hitId":"3ZG552ORAMQWHINBPXRJ4QCSG7OV2V","url":"https://gershmanlab.com/experiments/alicia/teaching/experiment/?hitId=3ZG552ORAMQWHINBPXRJ4QCSG7OV2V&workerId=A2NJ7N8INZOB00&assignmentId=3IOEN3P9S856ZRO8WNOZCYIB6WC61H&a=9NOI7&tp_a=9NOI7&b=3IOEN3P9S856ZRO8WNOZCYIB6WC61H&tp_b=3IOEN3P9S856ZRO8WNOZCYIB6WC61H&c=365717&tp_c=365717"},{"rt":null,"stimulus":"Examples sent to student! Waiting for student...","response":null,"trial_type":"html-keyboard-response","trial_index":71,"time_elapsed":866816,"internal_node_id":"0.0-70.0","params":{"nStudents":24,"maxFlips":30,"completionMinutes":45,"basePay":8,"maxBonus":9,"perTrialBonus":0.5,"perTrialBonusThreshold":0.05,"exampleCost":0.01},"classroomParams":{"A":{"a":1,"b":4},"B":{"a":4,"b":1},"C":{"a":2,"b":8},"D":{"a":8,"b":2}},"conditions":["nonSeqFull","nonSeqPartial","seqNoFeedback","seqFeedback"],"classroomPairings":[["A","B"],["C","D"]],"coinWeights":[0.2,0.5,0.8],"subjectId":"A2NJ7N8INZOB00","assignmentId":"3IOEN3P9S856ZRO8WNOZCYIB6WC61H","hitId":"3ZG552ORAMQWHINBPXRJ4QCSG7OV2V","url":"https://gershmanlab.com/experiments/alicia/teaching/experiment/?hitId=3ZG552ORAMQWHINBPXRJ4QCSG7OV2V&workerId=A2NJ7N8INZOB00&assignmentId=3IOEN3P9S856ZRO8WNOZCYIB6WC61H&a=9NOI7&tp_a=9NOI7&b=3IOEN3P9S856ZRO8WNOZCYIB6WC61H&tp_b=3IOEN3P9S856ZRO8WNOZCYIB6WC61H&c=365717&tp_c=365717"},{"rt":5993,"stimulus":"\n                <p>Student's guess for coin weight: <b style=\"color:Tomato;\">0.10</b></p>\n                <p>You received a bonus of <b>$0</b>. Total bonus so far: <b>$0.00</b></b></p>\n                <p></p>\n                <p>Press any key to continue.</p>\n                ","response":" ","trial_type":"html-keyboard-response","trial_index":72,"time_elapsed":872815,"internal_node_id":"0.0-71.0","params":{"nStudents":24,"maxFlips":30,"completionMinutes":45,"basePay":8,"maxBonus":9,"perTrialBonus":0.5,"perTrialBonusThreshold":0.05,"exampleCost":0.01},"classroomParams":{"A":{"a":1,"b":4},"B":{"a":4,"b":1},"C":{"a":2,"b":8},"D":{"a":8,"b":2}},"conditions":["nonSeqFull","nonSeqPartial","seqNoFeedback","seqFeedback"],"classroomPairings":[["A","B"],["C","D"]],"coinWeights":[0.2,0.5,0.8],"subjectId":"A2NJ7N8INZOB00","assignmentId":"3IOEN3P9S856ZRO8WNOZCYIB6WC61H","hitId":"3ZG552ORAMQWHINBPXRJ4QCSG7OV2V","url":"https://gershmanlab.com/experiments/alicia/teaching/experiment/?hitId=3ZG552ORAMQWHINBPXRJ4QCSG7OV2V&workerId=A2NJ7N8INZOB00&assignmentId=3IOEN3P9S856ZRO8WNOZCYIB6WC61H&a=9NOI7&tp_a=9NOI7&b=3IOEN3P9S856ZRO8WNOZCYIB6WC61H&tp_b=3IOEN3P9S856ZRO8WNOZCYIB6WC61H&c=365717&tp_c=365717"},{"rt":null,"stimulus":"<div style=\"font-size:60px;\">Next student</div>","response":null,"trial_type":"html-keyboard-response","trial_index":73,"time_elapsed":875821,"internal_node_id":"0.0-72.0-0.0","params":{"nStudents":24,"maxFlips":30,"completionMinutes":45,"basePay":8,"maxBonus":9,"perTrialBonus":0.5,"perTrialBonusThreshold":0.05,"exampleCost":0.01},"classroomParams":{"A":{"a":1,"b":4},"B":{"a":4,"b":1},"C":{"a":2,"b":8},"D":{"a":8,"b":2}},"conditions":["nonSeqFull","nonSeqPartial","seqNoFeedback","seqFeedback"],"classroomPairings":[["A","B"],["C","D"]],"coinWeights":[0.2,0.5,0.8],"subjectId":"A2NJ7N8INZOB00","assignmentId":"3IOEN3P9S856ZRO8WNOZCYIB6WC61H","hitId":"3ZG552ORAMQWHINBPXRJ4QCSG7OV2V","url":"https://gershmanlab.com/experiments/alicia/teaching/experiment/?hitId=3ZG552ORAMQWHINBPXRJ4QCSG7OV2V&workerId=A2NJ7N8INZOB00&assignmentId=3IOEN3P9S856ZRO8WNOZCYIB6WC61H&a=9NOI7&tp_a=9NOI7&b=3IOEN3P9S856ZRO8WNOZCYIB6WC61H&tp_b=3IOEN3P9S856ZRO8WNOZCYIB6WC61H&c=365717&tp_c=365717"},{"rt":2511,"stimulus":"\n            <h4 style=\"color:Orange;\">Student 9</h4>\n            <h2>The weight of your coin is <b style=\"color:Tomato;\">0.2</b>.</h2>\n            <p>In this block, you will be giving <b>two</b> sets of examples to Student 9.</p>\n                <p>You will receive feedback at the end of the block.</p>\n            <p></p>","response":0,"trial_type":"html-button-response","trial_index":74,"time_elapsed":878340,"internal_node_id":"0.0-73.0","params":{"nStudents":24,"maxFlips":30,"completionMinutes":45,"basePay":8,"maxBonus":9,"perTrialBonus":0.5,"perTrialBonusThreshold":0.05,"exampleCost":0.01},"classroomParams":{"A":{"a":1,"b":4},"B":{"a":4,"b":1},"C":{"a":2,"b":8},"D":{"a":8,"b":2}},"conditions":["nonSeqFull","nonSeqPartial","seqNoFeedback","seqFeedback"],"classroomPairings":[["A","B"],["C","D"]],"coinWeights":[0.2,0.5,0.8],"subjectId":"A2NJ7N8INZOB00","assignmentId":"3IOEN3P9S856ZRO8WNOZCYIB6WC61H","hitId":"3ZG552ORAMQWHINBPXRJ4QCSG7OV2V","url":"https://gershmanlab.com/experiments/alicia/teaching/experiment/?hitId=3ZG552ORAMQWHINBPXRJ4QCSG7OV2V&workerId=A2NJ7N8INZOB00&assignmentId=3IOEN3P9S856ZRO8WNOZCYIB6WC61H&a=9NOI7&tp_a=9NOI7&b=3IOEN3P9S856ZRO8WNOZCYIB6WC61H&tp_b=3IOEN3P9S856ZRO8WNOZCYIB6WC61H&c=365717&tp_c=365717"},{"rt":6633,"response":{"heads":"2","tails":"8"},"type":"response","condition":"seqNoFeedback","trueTheta":0.2,"classrooms":["A","B"],"studentTrueClassroom":"B","exampleSet":"first","trial_type":"survey-html-form","trial_index":75,"time_elapsed":884982,"internal_node_id":"0.0-74.0-0.0","params":{"nStudents":24,"maxFlips":30,"completionMinutes":45,"basePay":8,"maxBonus":9,"perTrialBonus":0.5,"perTrialBonusThreshold":0.05,"exampleCost":0.01},"classroomParams":{"A":{"a":1,"b":4},"B":{"a":4,"b":1},"C":{"a":2,"b":8},"D":{"a":8,"b":2}},"conditions":["nonSeqFull","nonSeqPartial","seqNoFeedback","seqFeedback"],"classroomPairings":[["A","B"],["C","D"]],"coinWeights":[0.2,0.5,0.8],"subjectId":"A2NJ7N8INZOB00","assignmentId":"3IOEN3P9S856ZRO8WNOZCYIB6WC61H","hitId":"3ZG552ORAMQWHINBPXRJ4QCSG7OV2V","url":"https://gershmanlab.com/experiments/alicia/teaching/experiment/?hitId=3ZG552ORAMQWHINBPXRJ4QCSG7OV2V&workerId=A2NJ7N8INZOB00&assignmentId=3IOEN3P9S856ZRO8WNOZCYIB6WC61H&a=9NOI7&tp_a=9NOI7&b=3IOEN3P9S856ZRO8WNOZCYIB6WC61H&tp_b=3IOEN3P9S856ZRO8WNOZCYIB6WC61H&c=365717&tp_c=365717","heads":2,"tails":8,"studentIndex":8,"studentTrueHypers":{"a":4,"b":1},"studentGuess":0.4,"delta":0.2,"totalExamples":10,"bonusSoFar":0},{"rt":null,"stimulus":"Sending examples to student... ","response":null,"trial_type":"html-keyboard-response","trial_index":76,"time_elapsed":886486,"internal_node_id":"0.0-75.0","params":{"nStudents":24,"maxFlips":30,"completionMinutes":45,"basePay":8,"maxBonus":9,"perTrialBonus":0.5,"perTrialBonusThreshold":0.05,"exampleCost":0.01},"classroomParams":{"A":{"a":1,"b":4},"B":{"a":4,"b":1},"C":{"a":2,"b":8},"D":{"a":8,"b":2}},"conditions":["nonSeqFull","nonSeqPartial","seqNoFeedback","seqFeedback"],"classroomPairings":[["A","B"],["C","D"]],"coinWeights":[0.2,0.5,0.8],"subjectId":"A2NJ7N8INZOB00","assignmentId":"3IOEN3P9S856ZRO8WNOZCYIB6WC61H","hitId":"3ZG552ORAMQWHINBPXRJ4QCSG7OV2V","url":"https://gershmanlab.com/experiments/alicia/teaching/experiment/?hitId=3ZG552ORAMQWHINBPXRJ4QCSG7OV2V&workerId=A2NJ7N8INZOB00&assignmentId=3IOEN3P9S856ZRO8WNOZCYIB6WC61H&a=9NOI7&tp_a=9NOI7&b=3IOEN3P9S856ZRO8WNOZCYIB6WC61H&tp_b=3IOEN3P9S856ZRO8WNOZCYIB6WC61H&c=365717&tp_c=365717"},{"rt":null,"stimulus":"Examples sent to student! Waiting for student...","response":null,"trial_type":"html-keyboard-response","trial_index":77,"time_elapsed":890488,"internal_node_id":"0.0-76.0","params":{"nStudents":24,"maxFlips":30,"completionMinutes":45,"basePay":8,"maxBonus":9,"perTrialBonus":0.5,"perTrialBonusThreshold":0.05,"exampleCost":0.01},"classroomParams":{"A":{"a":1,"b":4},"B":{"a":4,"b":1},"C":{"a":2,"b":8},"D":{"a":8,"b":2}},"conditions":["nonSeqFull","nonSeqPartial","seqNoFeedback","seqFeedback"],"classroomPairings":[["A","B"],["C","D"]],"coinWeights":[0.2,0.5,0.8],"subjectId":"A2NJ7N8INZOB00","assignmentId":"3IOEN3P9S856ZRO8WNOZCYIB6WC61H","hitId":"3ZG552ORAMQWHINBPXRJ4QCSG7OV2V","url":"https://gershmanlab.com/experiments/alicia/teaching/experiment/?hitId=3ZG552ORAMQWHINBPXRJ4QCSG7OV2V&workerId=A2NJ7N8INZOB00&assignmentId=3IOEN3P9S856ZRO8WNOZCYIB6WC61H&a=9NOI7&tp_a=9NOI7&b=3IOEN3P9S856ZRO8WNOZCYIB6WC61H&tp_b=3IOEN3P9S856ZRO8WNOZCYIB6WC61H&c=365717&tp_c=365717"},{"rt":10500,"response":{"heads":"2","tails":"8"},"type":"response","condition":"seqNoFeedback","trueTheta":0.2,"classrooms":["A","B"],"studentTrueClassroom":"B","exampleSet":"second","trial_type":"survey-html-form","trial_index":78,"time_elapsed":900996,"internal_node_id":"0.0-77.0-0.0","params":{"nStudents":24,"maxFlips":30,"completionMinutes":45,"basePay":8,"maxBonus":9,"perTrialBonus":0.5,"perTrialBonusThreshold":0.05,"exampleCost":0.01},"classroomParams":{"A":{"a":1,"b":4},"B":{"a":4,"b":1},"C":{"a":2,"b":8},"D":{"a":8,"b":2}},"conditions":["nonSeqFull","nonSeqPartial","seqNoFeedback","seqFeedback"],"classroomPairings":[["A","B"],["C","D"]],"coinWeights":[0.2,0.5,0.8],"subjectId":"A2NJ7N8INZOB00","assignmentId":"3IOEN3P9S856ZRO8WNOZCYIB6WC61H","hitId":"3ZG552ORAMQWHINBPXRJ4QCSG7OV2V","url":"https://gershmanlab.com/experiments/alicia/teaching/experiment/?hitId=3ZG552ORAMQWHINBPXRJ4QCSG7OV2V&workerId=A2NJ7N8INZOB00&assignmentId=3IOEN3P9S856ZRO8WNOZCYIB6WC61H&a=9NOI7&tp_a=9NOI7&b=3IOEN3P9S856ZRO8WNOZCYIB6WC61H&tp_b=3IOEN3P9S856ZRO8WNOZCYIB6WC61H&c=365717&tp_c=365717","firstResponseHeads":2,"firstResponseTails":8,"secondResponseHeads":2,"secondResponseTails":8,"totalHeads":4,"totalTails":16,"studentIndex":8,"studentTrueHypers":{"a":4,"b":1},"studentGuess":0.32,"delta":0.12,"bonus":0,"bonusSoFar":0,"totalExamples":20},{"rt":null,"stimulus":"Sending examples to student... ","response":null,"trial_type":"html-keyboard-response","trial_index":79,"time_elapsed":902251,"internal_node_id":"0.0-78.0","params":{"nStudents":24,"maxFlips":30,"completionMinutes":45,"basePay":8,"maxBonus":9,"perTrialBonus":0.5,"perTrialBonusThreshold":0.05,"exampleCost":0.01},"classroomParams":{"A":{"a":1,"b":4},"B":{"a":4,"b":1},"C":{"a":2,"b":8},"D":{"a":8,"b":2}},"conditions":["nonSeqFull","nonSeqPartial","seqNoFeedback","seqFeedback"],"classroomPairings":[["A","B"],["C","D"]],"coinWeights":[0.2,0.5,0.8],"subjectId":"A2NJ7N8INZOB00","assignmentId":"3IOEN3P9S856ZRO8WNOZCYIB6WC61H","hitId":"3ZG552ORAMQWHINBPXRJ4QCSG7OV2V","url":"https://gershmanlab.com/experiments/alicia/teaching/experiment/?hitId=3ZG552ORAMQWHINBPXRJ4QCSG7OV2V&workerId=A2NJ7N8INZOB00&assignmentId=3IOEN3P9S856ZRO8WNOZCYIB6WC61H&a=9NOI7&tp_a=9NOI7&b=3IOEN3P9S856ZRO8WNOZCYIB6WC61H&tp_b=3IOEN3P9S856ZRO8WNOZCYIB6WC61H&c=365717&tp_c=365717"},{"rt":null,"stimulus":"Examples sent to student! Waiting for student...","response":null,"trial_type":"html-keyboard-response","trial_index":80,"time_elapsed":907754,"internal_node_id":"0.0-79.0","params":{"nStudents":24,"maxFlips":30,"completionMinutes":45,"basePay":8,"maxBonus":9,"perTrialBonus":0.5,"perTrialBonusThreshold":0.05,"exampleCost":0.01},"classroomParams":{"A":{"a":1,"b":4},"B":{"a":4,"b":1},"C":{"a":2,"b":8},"D":{"a":8,"b":2}},"conditions":["nonSeqFull","nonSeqPartial","seqNoFeedback","seqFeedback"],"classroomPairings":[["A","B"],["C","D"]],"coinWeights":[0.2,0.5,0.8],"subjectId":"A2NJ7N8INZOB00","assignmentId":"3IOEN3P9S856ZRO8WNOZCYIB6WC61H","hitId":"3ZG552ORAMQWHINBPXRJ4QCSG7OV2V","url":"https://gershmanlab.com/experiments/alicia/teaching/experiment/?hitId=3ZG552ORAMQWHINBPXRJ4QCSG7OV2V&workerId=A2NJ7N8INZOB00&assignmentId=3IOEN3P9S856ZRO8WNOZCYIB6WC61H&a=9NOI7&tp_a=9NOI7&b=3IOEN3P9S856ZRO8WNOZCYIB6WC61H&tp_b=3IOEN3P9S856ZRO8WNOZCYIB6WC61H&c=365717&tp_c=365717"},{"rt":2293,"stimulus":"\n                <p>Student 9's first guess for coin weight: <b style=\"color:Tomato\";>0.40</b></p>\n                <p>Student 9's second guess for coin weight: <b style=\"color:Tomato\";>0.32</b></p>\n                <p>You received a bonus of <b>$0.00</b> based on the student's second guess.</p>\n                <p>Total bonus so far: <b>$0.00</b></p>\n                <p>Press any key to continue.</p>\n                ","response":" ","trial_type":"html-keyboard-response","trial_index":81,"time_elapsed":910049,"internal_node_id":"0.0-80.0","params":{"nStudents":24,"maxFlips":30,"completionMinutes":45,"basePay":8,"maxBonus":9,"perTrialBonus":0.5,"perTrialBonusThreshold":0.05,"exampleCost":0.01},"classroomParams":{"A":{"a":1,"b":4},"B":{"a":4,"b":1},"C":{"a":2,"b":8},"D":{"a":8,"b":2}},"conditions":["nonSeqFull","nonSeqPartial","seqNoFeedback","seqFeedback"],"classroomPairings":[["A","B"],["C","D"]],"coinWeights":[0.2,0.5,0.8],"subjectId":"A2NJ7N8INZOB00","assignmentId":"3IOEN3P9S856ZRO8WNOZCYIB6WC61H","hitId":"3ZG552ORAMQWHINBPXRJ4QCSG7OV2V","url":"https://gershmanlab.com/experiments/alicia/teaching/experiment/?hitId=3ZG552ORAMQWHINBPXRJ4QCSG7OV2V&workerId=A2NJ7N8INZOB00&assignmentId=3IOEN3P9S856ZRO8WNOZCYIB6WC61H&a=9NOI7&tp_a=9NOI7&b=3IOEN3P9S856ZRO8WNOZCYIB6WC61H&tp_b=3IOEN3P9S856ZRO8WNOZCYIB6WC61H&c=365717&tp_c=365717"},{"rt":null,"stimulus":"<div style=\"font-size:60px;\">Next student</div>","response":null,"trial_type":"html-keyboard-response","trial_index":82,"time_elapsed":913052,"internal_node_id":"0.0-81.0-0.0","params":{"nStudents":24,"maxFlips":30,"completionMinutes":45,"basePay":8,"maxBonus":9,"perTrialBonus":0.5,"perTrialBonusThreshold":0.05,"exampleCost":0.01},"classroomParams":{"A":{"a":1,"b":4},"B":{"a":4,"b":1},"C":{"a":2,"b":8},"D":{"a":8,"b":2}},"conditions":["nonSeqFull","nonSeqPartial","seqNoFeedback","seqFeedback"],"classroomPairings":[["A","B"],["C","D"]],"coinWeights":[0.2,0.5,0.8],"subjectId":"A2NJ7N8INZOB00","assignmentId":"3IOEN3P9S856ZRO8WNOZCYIB6WC61H","hitId":"3ZG552ORAMQWHINBPXRJ4QCSG7OV2V","url":"https://gershmanlab.com/experiments/alicia/teaching/experiment/?hitId=3ZG552ORAMQWHINBPXRJ4QCSG7OV2V&workerId=A2NJ7N8INZOB00&assignmentId=3IOEN3P9S856ZRO8WNOZCYIB6WC61H&a=9NOI7&tp_a=9NOI7&b=3IOEN3P9S856ZRO8WNOZCYIB6WC61H&tp_b=3IOEN3P9S856ZRO8WNOZCYIB6WC61H&c=365717&tp_c=365717"},{"rt":31499,"stimulus":"\n            <h4 style=\"color:Orange;\">Student 10</h4>\n            <h2>The weight of your coin is <b style=\"color:Tomato;\">0.2</b>.</h2>\n            <p>In this block, you will be giving <b>two</b> sets of examples to Student 10.</p>\n                <p>You will see the student's guess after the first set of examples. You will also receive feedback at the end of the block.</p>\n            <p>To earn the highest bonus, you will have to <b>take into consideration the student's guess</b> when you choose your second set of examples.</p>","response":0,"trial_type":"html-button-response","trial_index":83,"time_elapsed":944556,"internal_node_id":"0.0-82.0","params":{"nStudents":24,"maxFlips":30,"completionMinutes":45,"basePay":8,"maxBonus":9,"perTrialBonus":0.5,"perTrialBonusThreshold":0.05,"exampleCost":0.01},"classroomParams":{"A":{"a":1,"b":4},"B":{"a":4,"b":1},"C":{"a":2,"b":8},"D":{"a":8,"b":2}},"conditions":["nonSeqFull","nonSeqPartial","seqNoFeedback","seqFeedback"],"classroomPairings":[["A","B"],["C","D"]],"coinWeights":[0.2,0.5,0.8],"subjectId":"A2NJ7N8INZOB00","assignmentId":"3IOEN3P9S856ZRO8WNOZCYIB6WC61H","hitId":"3ZG552ORAMQWHINBPXRJ4QCSG7OV2V","url":"https://gershmanlab.com/experiments/alicia/teaching/experiment/?hitId=3ZG552ORAMQWHINBPXRJ4QCSG7OV2V&workerId=A2NJ7N8INZOB00&assignmentId=3IOEN3P9S856ZRO8WNOZCYIB6WC61H&a=9NOI7&tp_a=9NOI7&b=3IOEN3P9S856ZRO8WNOZCYIB6WC61H&tp_b=3IOEN3P9S856ZRO8WNOZCYIB6WC61H&c=365717&tp_c=365717"},{"rt":5014,"response":{"heads":"2","tails":"0"},"type":"response","condition":"seqFeedback","trueTheta":0.2,"classrooms":["A","B"],"studentTrueClassroom":"A","exampleSet":"first","trial_type":"survey-html-form","trial_index":84,"time_elapsed":949577,"internal_node_id":"0.0-83.0-0.0","params":{"nStudents":24,"maxFlips":30,"completionMinutes":45,"basePay":8,"maxBonus":9,"perTrialBonus":0.5,"perTrialBonusThreshold":0.05,"exampleCost":0.01},"classroomParams":{"A":{"a":1,"b":4},"B":{"a":4,"b":1},"C":{"a":2,"b":8},"D":{"a":8,"b":2}},"conditions":["nonSeqFull","nonSeqPartial","seqNoFeedback","seqFeedback"],"classroomPairings":[["A","B"],["C","D"]],"coinWeights":[0.2,0.5,0.8],"subjectId":"A2NJ7N8INZOB00","assignmentId":"3IOEN3P9S856ZRO8WNOZCYIB6WC61H","hitId":"3ZG552ORAMQWHINBPXRJ4QCSG7OV2V","url":"https://gershmanlab.com/experiments/alicia/teaching/experiment/?hitId=3ZG552ORAMQWHINBPXRJ4QCSG7OV2V&workerId=A2NJ7N8INZOB00&assignmentId=3IOEN3P9S856ZRO8WNOZCYIB6WC61H&a=9NOI7&tp_a=9NOI7&b=3IOEN3P9S856ZRO8WNOZCYIB6WC61H&tp_b=3IOEN3P9S856ZRO8WNOZCYIB6WC61H&c=365717&tp_c=365717","heads":2,"tails":0,"studentIndex":9,"studentTrueHypers":{"a":1,"b":4},"studentGuess":0.42857142857142855,"delta":0.22857142857142854,"totalExamples":2,"bonusSoFar":0},{"rt":null,"stimulus":"Sending examples to student... ","response":null,"trial_type":"html-keyboard-response","trial_index":85,"time_elapsed":951333,"internal_node_id":"0.0-84.0","params":{"nStudents":24,"maxFlips":30,"completionMinutes":45,"basePay":8,"maxBonus":9,"perTrialBonus":0.5,"perTrialBonusThreshold":0.05,"exampleCost":0.01},"classroomParams":{"A":{"a":1,"b":4},"B":{"a":4,"b":1},"C":{"a":2,"b":8},"D":{"a":8,"b":2}},"condition