[{"rt":1979,"stimulus":"Welcome to the experiment. Press any key to begin.","response":"arrowdown","trial_type":"html-keyboard-response","trial_index":0,"time_elapsed":1982,"internal_node_id":"0.0-0.0","params":{"nStudents":24,"maxFlips":30,"completionMinutes":45,"basePay":8,"maxBonus":9,"perTrialBonus":0.5,"perTrialBonusThreshold":0.05,"exampleCost":0.01},"classroomParams":{"A":{"a":1,"b":4},"B":{"a":4,"b":1},"C":{"a":2,"b":8},"D":{"a":8,"b":2}},"conditions":["nonSeqFull","nonSeqPartial","seqNoFeedback","seqFeedback"],"classroomPairings":[["A","B"],["C","D"]],"coinWeights":[0.2,0.5,0.8],"subjectId":"A2ONILC0LZKG6Y","assignmentId":"3EA3QWIZ4JHN1VVI07HYF7RB77IITI","hitId":"363A7XIFV48LMLIF2CKYA8VQSVQAVR","url":"https://gershmanlab.com/experiments/alicia/teaching/experiment/?hitId=363A7XIFV48LMLIF2CKYA8VQSVQAVR&workerId=A2ONILC0LZKG6Y&assignmentId=3EA3QWIZ4JHN1VVI07HYF7RB77IITI&a=ZQAE9&tp_a=ZQAE9&b=3EA3QWIZ4JHN1VVI07HYF7RB77IITI&tp_b=3EA3QWIZ4JHN1VVI07HYF7RB77IITI&c=365799&tp_c=365799"},{"rt":11078,"stimulus":"\n        <h3>Please read this consent agreement carefully before deciding whether to participate in this experiment.</h3>\n        <p><b>Purpose of the research:</b> To examine how people teach effectively.</p>\n        <p><b>What you will do in this research:</b> You will teach students the weights of different coins.</p>\n        <p><b>Time required:</b> This experiment will take 45 minutes to complete.</p>\n        <p><b>Risks:</b> There are no anticipated risks associated with participating in this study.             The effects of participating should be comparable to those you would experience from viewing a computer monitor             and using a mouse and keyboard for the duration of the experiment.</p>\n        <p><b>Benefits:</b> The study provides important information about the nature of teaching.</p>\n        <p><b>Compensation:</b> You will receive <b>$8</b> for completing the experiment and a performance bonus of up to <b>$9</b>.</p>\n        <p><b>Confidentiality:</b> Your participation in this study will remain confidential.             No personally identifiable information will be associated with your data.             Your de-identified data may be shared with other researchers and used in future projects.</p>\n        <p><b>Participation and withdrawal:</b> Your participation in this study is completely voluntary and             you may refuse to participate or you may choose to withdraw at any time without penalty or loss of\n            benefits to which you are otherwise entitled.</p>\n        <p><b>How to contact the researcher:</b> If you have questions or concerns about your participation            or payment, or want to request a summary of research findings, please contact\n            Alicia Chen, aliciachen@college.harvard.edu.</p>\n        <p><b>Whom to contact about your rights in this research:</b> For questions, concerns, suggestions,             or complaints that have not been or cannot be addressed by the researcher, or to report             research-related harm, please contact the Committee on the Use of Human Subjects in Research at Harvard University,             1414 Massachusetts Avenue, Second Floor, Cambridge, MA 02138. Phone: 617-496-2847. Email: cuhs@fas.harvard.edu.</p>\n        ","response":0,"trial_type":"html-button-response","trial_index":1,"time_elapsed":13066,"internal_node_id":"0.0-1.0","params":{"nStudents":24,"maxFlips":30,"completionMinutes":45,"basePay":8,"maxBonus":9,"perTrialBonus":0.5,"perTrialBonusThreshold":0.05,"exampleCost":0.01},"classroomParams":{"A":{"a":1,"b":4},"B":{"a":4,"b":1},"C":{"a":2,"b":8},"D":{"a":8,"b":2}},"conditions":["nonSeqFull","nonSeqPartial","seqNoFeedback","seqFeedback"],"classroomPairings":[["A","B"],["C","D"]],"coinWeights":[0.2,0.5,0.8],"subjectId":"A2ONILC0LZKG6Y","assignmentId":"3EA3QWIZ4JHN1VVI07HYF7RB77IITI","hitId":"363A7XIFV48LMLIF2CKYA8VQSVQAVR","url":"https://gershmanlab.com/experiments/alicia/teaching/experiment/?hitId=363A7XIFV48LMLIF2CKYA8VQSVQAVR&workerId=A2ONILC0LZKG6Y&assignmentId=3EA3QWIZ4JHN1VVI07HYF7RB77IITI&a=ZQAE9&tp_a=ZQAE9&b=3EA3QWIZ4JHN1VVI07HYF7RB77IITI&tp_b=3EA3QWIZ4JHN1VVI07HYF7RB77IITI&c=365799&tp_c=365799"},{"view_history":[{"page_index":0,"viewing_time":3942},{"page_index":1,"viewing_time":4895},{"page_index":2,"viewing_time":35564},{"page_index":3,"viewing_time":14321},{"page_index":4,"viewing_time":25626},{"page_index":5,"viewing_time":27307},{"page_index":6,"viewing_time":45134}],"rt":156789,"trial_type":"instructions","trial_index":2,"time_elapsed":169858,"internal_node_id":"0.0-2.0-0.0","params":{"nStudents":24,"maxFlips":30,"completionMinutes":45,"basePay":8,"maxBonus":9,"perTrialBonus":0.5,"perTrialBonusThreshold":0.05,"exampleCost":0.01},"classroomParams":{"A":{"a":1,"b":4},"B":{"a":4,"b":1},"C":{"a":2,"b":8},"D":{"a":8,"b":2}},"conditions":["nonSeqFull","nonSeqPartial","seqNoFeedback","seqFeedback"],"classroomPairings":[["A","B"],["C","D"]],"coinWeights":[0.2,0.5,0.8],"subjectId":"A2ONILC0LZKG6Y","assignmentId":"3EA3QWIZ4JHN1VVI07HYF7RB77IITI","hitId":"363A7XIFV48LMLIF2CKYA8VQSVQAVR","url":"https://gershmanlab.com/experiments/alicia/teaching/experiment/?hitId=363A7XIFV48LMLIF2CKYA8VQSVQAVR&workerId=A2ONILC0LZKG6Y&assignmentId=3EA3QWIZ4JHN1VVI07HYF7RB77IITI&a=ZQAE9&tp_a=ZQAE9&b=3EA3QWIZ4JHN1VVI07HYF7RB77IITI&tp_b=3EA3QWIZ4JHN1VVI07HYF7RB77IITI&c=365799&tp_c=365799"},{"rt":31949,"response":{"Q0":"Students in different classrooms will have seen a different number of heads and tails before seeing the examples you select for them.","Q1":"By <b>considering the student's classroom information</b> so that I can teach efficiently and accurately/helpfully at the same time (because each example I give to the student costs money!).","Q2":"The coin lands heads 90% of the time.","Q3":"No, I will teach a <b>new</b> student each time.","Q4":"The students are also on the same alien planet as you, where coins can be unfair.","Q5":"Based on the student's second (and final) guess."},"question_order":[4,0,5,1,2,3],"trial_type":"survey-multi-choice","trial_index":3,"time_elapsed":201810,"internal_node_id":"0.0-2.0-1.0","params":{"nStudents":24,"maxFlips":30,"completionMinutes":45,"basePay":8,"maxBonus":9,"perTrialBonus":0.5,"perTrialBonusThreshold":0.05,"exampleCost":0.01},"classroomParams":{"A":{"a":1,"b":4},"B":{"a":4,"b":1},"C":{"a":2,"b":8},"D":{"a":8,"b":2}},"conditions":["nonSeqFull","nonSeqPartial","seqNoFeedback","seqFeedback"],"classroomPairings":[["A","B"],["C","D"]],"coinWeights":[0.2,0.5,0.8],"subjectId":"A2ONILC0LZKG6Y","assignmentId":"3EA3QWIZ4JHN1VVI07HYF7RB77IITI","hitId":"363A7XIFV48LMLIF2CKYA8VQSVQAVR","url":"https://gershmanlab.com/experiments/alicia/teaching/experiment/?hitId=363A7XIFV48LMLIF2CKYA8VQSVQAVR&workerId=A2ONILC0LZKG6Y&assignmentId=3EA3QWIZ4JHN1VVI07HYF7RB77IITI&a=ZQAE9&tp_a=ZQAE9&b=3EA3QWIZ4JHN1VVI07HYF7RB77IITI&tp_b=3EA3QWIZ4JHN1VVI07HYF7RB77IITI&c=365799&tp_c=365799","pass":true},{"rt":null,"stimulus":"<div style=\"font-size:30px;\">Congrats on passing the comprehension quiz! The experiment will begin in a few seconds.</div>","response":null,"trial_type":"html-keyboard-response","trial_index":4,"time_elapsed":204820,"internal_node_id":"0.0-3.0","params":{"nStudents":24,"maxFlips":30,"completionMinutes":45,"basePay":8,"maxBonus":9,"perTrialBonus":0.5,"perTrialBonusThreshold":0.05,"exampleCost":0.01},"classroomParams":{"A":{"a":1,"b":4},"B":{"a":4,"b":1},"C":{"a":2,"b":8},"D":{"a":8,"b":2}},"conditions":["nonSeqFull","nonSeqPartial","seqNoFeedback","seqFeedback"],"classroomPairings":[["A","B"],["C","D"]],"coinWeights":[0.2,0.5,0.8],"subjectId":"A2ONILC0LZKG6Y","assignmentId":"3EA3QWIZ4JHN1VVI07HYF7RB77IITI","hitId":"363A7XIFV48LMLIF2CKYA8VQSVQAVR","url":"https://gershmanlab.com/experiments/alicia/teaching/experiment/?hitId=363A7XIFV48LMLIF2CKYA8VQSVQAVR&workerId=A2ONILC0LZKG6Y&assignmentId=3EA3QWIZ4JHN1VVI07HYF7RB77IITI&a=ZQAE9&tp_a=ZQAE9&b=3EA3QWIZ4JHN1VVI07HYF7RB77IITI&tp_b=3EA3QWIZ4JHN1VVI07HYF7RB77IITI&c=365799&tp_c=365799"},{"rt":null,"stimulus":"<div style=\"font-size:50px;\">First student</div>","response":null,"trial_type":"html-keyboard-response","trial_index":5,"time_elapsed":207837,"internal_node_id":"0.0-4.0","params":{"nStudents":24,"maxFlips":30,"completionMinutes":45,"basePay":8,"maxBonus":9,"perTrialBonus":0.5,"perTrialBonusThreshold":0.05,"exampleCost":0.01},"classroomParams":{"A":{"a":1,"b":4},"B":{"a":4,"b":1},"C":{"a":2,"b":8},"D":{"a":8,"b":2}},"conditions":["nonSeqFull","nonSeqPartial","seqNoFeedback","seqFeedback"],"classroomPairings":[["A","B"],["C","D"]],"coinWeights":[0.2,0.5,0.8],"subjectId":"A2ONILC0LZKG6Y","assignmentId":"3EA3QWIZ4JHN1VVI07HYF7RB77IITI","hitId":"363A7XIFV48LMLIF2CKYA8VQSVQAVR","url":"https://gershmanlab.com/experiments/alicia/teaching/experiment/?hitId=363A7XIFV48LMLIF2CKYA8VQSVQAVR&workerId=A2ONILC0LZKG6Y&assignmentId=3EA3QWIZ4JHN1VVI07HYF7RB77IITI&a=ZQAE9&tp_a=ZQAE9&b=3EA3QWIZ4JHN1VVI07HYF7RB77IITI&tp_b=3EA3QWIZ4JHN1VVI07HYF7RB77IITI&c=365799&tp_c=365799"},{"rt":8865,"stimulus":"\n            <h4 style=\"color:Orange;\">Student 1</h4>\n            <h2>The weight of your coin is <b style=\"color:Tomato;\">0.8</b>.</h2>\n            <p>In this block, you will be giving <b>one</b> set of examples to Student 1.</p>\n                <p>You will receive feedback at the end of the block.</p>\n            <p></p>","response":0,"trial_type":"html-button-response","trial_index":6,"time_elapsed":216705,"internal_node_id":"0.0-5.0","params":{"nStudents":24,"maxFlips":30,"completionMinutes":45,"basePay":8,"maxBonus":9,"perTrialBonus":0.5,"perTrialBonusThreshold":0.05,"exampleCost":0.01},"classroomParams":{"A":{"a":1,"b":4},"B":{"a":4,"b":1},"C":{"a":2,"b":8},"D":{"a":8,"b":2}},"conditions":["nonSeqFull","nonSeqPartial","seqNoFeedback","seqFeedback"],"classroomPairings":[["A","B"],["C","D"]],"coinWeights":[0.2,0.5,0.8],"subjectId":"A2ONILC0LZKG6Y","assignmentId":"3EA3QWIZ4JHN1VVI07HYF7RB77IITI","hitId":"363A7XIFV48LMLIF2CKYA8VQSVQAVR","url":"https://gershmanlab.com/experiments/alicia/teaching/experiment/?hitId=363A7XIFV48LMLIF2CKYA8VQSVQAVR&workerId=A2ONILC0LZKG6Y&assignmentId=3EA3QWIZ4JHN1VVI07HYF7RB77IITI&a=ZQAE9&tp_a=ZQAE9&b=3EA3QWIZ4JHN1VVI07HYF7RB77IITI&tp_b=3EA3QWIZ4JHN1VVI07HYF7RB77IITI&c=365799&tp_c=365799"},{"rt":62811,"response":{"heads":"11","tails":"0"},"type":"response","condition":"nonSeqPartial","trueTheta":0.8,"classrooms":["A","B"],"studentTrueClassroom":"B","exampleSet":"first","trial_type":"survey-html-form","trial_index":7,"time_elapsed":279522,"internal_node_id":"0.0-6.0-0.0","params":{"nStudents":24,"maxFlips":30,"completionMinutes":45,"basePay":8,"maxBonus":9,"perTrialBonus":0.5,"perTrialBonusThreshold":0.05,"exampleCost":0.01},"classroomParams":{"A":{"a":1,"b":4},"B":{"a":4,"b":1},"C":{"a":2,"b":8},"D":{"a":8,"b":2}},"conditions":["nonSeqFull","nonSeqPartial","seqNoFeedback","seqFeedback"],"classroomPairings":[["A","B"],["C","D"]],"coinWeights":[0.2,0.5,0.8],"subjectId":"A2ONILC0LZKG6Y","assignmentId":"3EA3QWIZ4JHN1VVI07HYF7RB77IITI","hitId":"363A7XIFV48LMLIF2CKYA8VQSVQAVR","url":"https://gershmanlab.com/experiments/alicia/teaching/experiment/?hitId=363A7XIFV48LMLIF2CKYA8VQSVQAVR&workerId=A2ONILC0LZKG6Y&assignmentId=3EA3QWIZ4JHN1VVI07HYF7RB77IITI&a=ZQAE9&tp_a=ZQAE9&b=3EA3QWIZ4JHN1VVI07HYF7RB77IITI&tp_b=3EA3QWIZ4JHN1VVI07HYF7RB77IITI&c=365799&tp_c=365799","heads":11,"tails":0,"studentIndex":0,"studentTrueHypers":{"a":4,"b":1},"studentGuess":0.9375,"delta":0.13749999999999996,"totalExamples":11,"bonus":0,"bonusSoFar":0},{"rt":null,"stimulus":"Sending examples to student... ","response":null,"trial_type":"html-keyboard-response","trial_index":8,"time_elapsed":281037,"internal_node_id":"0.0-7.0","params":{"nStudents":24,"maxFlips":30,"completionMinutes":45,"basePay":8,"maxBonus":9,"perTrialBonus":0.5,"perTrialBonusThreshold":0.05,"exampleCost":0.01},"classroomParams":{"A":{"a":1,"b":4},"B":{"a":4,"b":1},"C":{"a":2,"b":8},"D":{"a":8,"b":2}},"conditions":["nonSeqFull","nonSeqPartial","seqNoFeedback","seqFeedback"],"classroomPairings":[["A","B"],["C","D"]],"coinWeights":[0.2,0.5,0.8],"subjectId":"A2ONILC0LZKG6Y","assignmentId":"3EA3QWIZ4JHN1VVI07HYF7RB77IITI","hitId":"363A7XIFV48LMLIF2CKYA8VQSVQAVR","url":"https://gershmanlab.com/experiments/alicia/teaching/experiment/?hitId=363A7XIFV48LMLIF2CKYA8VQSVQAVR&workerId=A2ONILC0LZKG6Y&assignmentId=3EA3QWIZ4JHN1VVI07HYF7RB77IITI&a=ZQAE9&tp_a=ZQAE9&b=3EA3QWIZ4JHN1VVI07HYF7RB77IITI&tp_b=3EA3QWIZ4JHN1VVI07HYF7RB77IITI&c=365799&tp_c=365799"},{"rt":null,"stimulus":"Examples sent to student! Waiting for student...","response":null,"trial_type":"html-keyboard-response","trial_index":9,"time_elapsed":286548,"internal_node_id":"0.0-8.0","params":{"nStudents":24,"maxFlips":30,"completionMinutes":45,"basePay":8,"maxBonus":9,"perTrialBonus":0.5,"perTrialBonusThreshold":0.05,"exampleCost":0.01},"classroomParams":{"A":{"a":1,"b":4},"B":{"a":4,"b":1},"C":{"a":2,"b":8},"D":{"a":8,"b":2}},"conditions":["nonSeqFull","nonSeqPartial","seqNoFeedback","seqFeedback"],"classroomPairings":[["A","B"],["C","D"]],"coinWeights":[0.2,0.5,0.8],"subjectId":"A2ONILC0LZKG6Y","assignmentId":"3EA3QWIZ4JHN1VVI07HYF7RB77IITI","hitId":"363A7XIFV48LMLIF2CKYA8VQSVQAVR","url":"https://gershmanlab.com/experiments/alicia/teaching/experiment/?hitId=363A7XIFV48LMLIF2CKYA8VQSVQAVR&workerId=A2ONILC0LZKG6Y&assignmentId=3EA3QWIZ4JHN1VVI07HYF7RB77IITI&a=ZQAE9&tp_a=ZQAE9&b=3EA3QWIZ4JHN1VVI07HYF7RB77IITI&tp_b=3EA3QWIZ4JHN1VVI07HYF7RB77IITI&c=365799&tp_c=365799"},{"rt":4871,"stimulus":"\n                <p>Student's guess for coin weight: <b style=\"color:Tomato;\">0.94</b></p>\n                <p>You received a bonus of <b>$0</b>. Total bonus so far: <b>$0.00</b></b></p>\n                <p></p>\n                <p>Press any key to continue.</p>\n                ","response":"arrowdown","trial_type":"html-keyboard-response","trial_index":10,"time_elapsed":291422,"internal_node_id":"0.0-9.0","params":{"nStudents":24,"maxFlips":30,"completionMinutes":45,"basePay":8,"maxBonus":9,"perTrialBonus":0.5,"perTrialBonusThreshold":0.05,"exampleCost":0.01},"classroomParams":{"A":{"a":1,"b":4},"B":{"a":4,"b":1},"C":{"a":2,"b":8},"D":{"a":8,"b":2}},"conditions":["nonSeqFull","nonSeqPartial","seqNoFeedback","seqFeedback"],"classroomPairings":[["A","B"],["C","D"]],"coinWeights":[0.2,0.5,0.8],"subjectId":"A2ONILC0LZKG6Y","assignmentId":"3EA3QWIZ4JHN1VVI07HYF7RB77IITI","hitId":"363A7XIFV48LMLIF2CKYA8VQSVQAVR","url":"https://gershmanlab.com/experiments/alicia/teaching/experiment/?hitId=363A7XIFV48LMLIF2CKYA8VQSVQAVR&workerId=A2ONILC0LZKG6Y&assignmentId=3EA3QWIZ4JHN1VVI07HYF7RB77IITI&a=ZQAE9&tp_a=ZQAE9&b=3EA3QWIZ4JHN1VVI07HYF7RB77IITI&tp_b=3EA3QWIZ4JHN1VVI07HYF7RB77IITI&c=365799&tp_c=365799"},{"rt":null,"stimulus":"<div style=\"font-size:60px;\">Next student</div>","response":null,"trial_type":"html-keyboard-response","trial_index":11,"time_elapsed":294437,"internal_node_id":"0.0-10.0-0.0","params":{"nStudents":24,"maxFlips":30,"completionMinutes":45,"basePay":8,"maxBonus":9,"perTrialBonus":0.5,"perTrialBonusThreshold":0.05,"exampleCost":0.01},"classroomParams":{"A":{"a":1,"b":4},"B":{"a":4,"b":1},"C":{"a":2,"b":8},"D":{"a":8,"b":2}},"conditions":["nonSeqFull","nonSeqPartial","seqNoFeedback","seqFeedback"],"classroomPairings":[["A","B"],["C","D"]],"coinWeights":[0.2,0.5,0.8],"subjectId":"A2ONILC0LZKG6Y","assignmentId":"3EA3QWIZ4JHN1VVI07HYF7RB77IITI","hitId":"363A7XIFV48LMLIF2CKYA8VQSVQAVR","url":"https://gershmanlab.com/experiments/alicia/teaching/experiment/?hitId=363A7XIFV48LMLIF2CKYA8VQSVQAVR&workerId=A2ONILC0LZKG6Y&assignmentId=3EA3QWIZ4JHN1VVI07HYF7RB77IITI&a=ZQAE9&tp_a=ZQAE9&b=3EA3QWIZ4JHN1VVI07HYF7RB77IITI&tp_b=3EA3QWIZ4JHN1VVI07HYF7RB77IITI&c=365799&tp_c=365799"},{"rt":3234,"stimulus":"\n            <h4 style=\"color:Orange;\">Student 2</h4>\n            <h2>The weight of your coin is <b style=\"color:Tomato;\">0.5</b>.</h2>\n            <p>In this block, you will be giving <b>two</b> sets of examples to Student 2.</p>\n                <p>You will receive feedback at the end of the block.</p>\n            <p></p>","response":0,"trial_type":"html-button-response","trial_index":12,"time_elapsed":297671,"internal_node_id":"0.0-11.0","params":{"nStudents":24,"maxFlips":30,"completionMinutes":45,"basePay":8,"maxBonus":9,"perTrialBonus":0.5,"perTrialBonusThreshold":0.05,"exampleCost":0.01},"classroomParams":{"A":{"a":1,"b":4},"B":{"a":4,"b":1},"C":{"a":2,"b":8},"D":{"a":8,"b":2}},"conditions":["nonSeqFull","nonSeqPartial","seqNoFeedback","seqFeedback"],"classroomPairings":[["A","B"],["C","D"]],"coinWeights":[0.2,0.5,0.8],"subjectId":"A2ONILC0LZKG6Y","assignmentId":"3EA3QWIZ4JHN1VVI07HYF7RB77IITI","hitId":"363A7XIFV48LMLIF2CKYA8VQSVQAVR","url":"https://gershmanlab.com/experiments/alicia/teaching/experiment/?hitId=363A7XIFV48LMLIF2CKYA8VQSVQAVR&workerId=A2ONILC0LZKG6Y&assignmentId=3EA3QWIZ4JHN1VVI07HYF7RB77IITI&a=ZQAE9&tp_a=ZQAE9&b=3EA3QWIZ4JHN1VVI07HYF7RB77IITI&tp_b=3EA3QWIZ4JHN1VVI07HYF7RB77IITI&c=365799&tp_c=365799"},{"rt":15709,"response":{"heads":"6","tails":"6"},"type":"response","condition":"seqNoFeedback","trueTheta":0.5,"classrooms":["C","D"],"studentTrueClassroom":"D","exampleSet":"first","trial_type":"survey-html-form","trial_index":13,"time_elapsed":313383,"internal_node_id":"0.0-12.0-0.0","params":{"nStudents":24,"maxFlips":30,"completionMinutes":45,"basePay":8,"maxBonus":9,"perTrialBonus":0.5,"perTrialBonusThreshold":0.05,"exampleCost":0.01},"classroomParams":{"A":{"a":1,"b":4},"B":{"a":4,"b":1},"C":{"a":2,"b":8},"D":{"a":8,"b":2}},"conditions":["nonSeqFull","nonSeqPartial","seqNoFeedback","seqFeedback"],"classroomPairings":[["A","B"],["C","D"]],"coinWeights":[0.2,0.5,0.8],"subjectId":"A2ONILC0LZKG6Y","assignmentId":"3EA3QWIZ4JHN1VVI07HYF7RB77IITI","hitId":"363A7XIFV48LMLIF2CKYA8VQSVQAVR","url":"https://gershmanlab.com/experiments/alicia/teaching/experiment/?hitId=363A7XIFV48LMLIF2CKYA8VQSVQAVR&workerId=A2ONILC0LZKG6Y&assignmentId=3EA3QWIZ4JHN1VVI07HYF7RB77IITI&a=ZQAE9&tp_a=ZQAE9&b=3EA3QWIZ4JHN1VVI07HYF7RB77IITI&tp_b=3EA3QWIZ4JHN1VVI07HYF7RB77IITI&c=365799&tp_c=365799","heads":6,"tails":6,"studentIndex":1,"studentTrueHypers":{"a":8,"b":2},"studentGuess":0.6363636363636364,"delta":0.13636363636363635,"totalExamples":12,"bonusSoFar":0},{"rt":null,"stimulus":"Sending examples to student... ","response":null,"trial_type":"html-keyboard-response","trial_index":14,"time_elapsed":314643,"internal_node_id":"0.0-13.0","params":{"nStudents":24,"maxFlips":30,"completionMinutes":45,"basePay":8,"maxBonus":9,"perTrialBonus":0.5,"perTrialBonusThreshold":0.05,"exampleCost":0.01},"classroomParams":{"A":{"a":1,"b":4},"B":{"a":4,"b":1},"C":{"a":2,"b":8},"D":{"a":8,"b":2}},"conditions":["nonSeqFull","nonSeqPartial","seqNoFeedback","seqFeedback"],"classroomPairings":[["A","B"],["C","D"]],"coinWeights":[0.2,0.5,0.8],"subjectId":"A2ONILC0LZKG6Y","assignmentId":"3EA3QWIZ4JHN1VVI07HYF7RB77IITI","hitId":"363A7XIFV48LMLIF2CKYA8VQSVQAVR","url":"https://gershmanlab.com/experiments/alicia/teaching/experiment/?hitId=363A7XIFV48LMLIF2CKYA8VQSVQAVR&workerId=A2ONILC0LZKG6Y&assignmentId=3EA3QWIZ4JHN1VVI07HYF7RB77IITI&a=ZQAE9&tp_a=ZQAE9&b=3EA3QWIZ4JHN1VVI07HYF7RB77IITI&tp_b=3EA3QWIZ4JHN1VVI07HYF7RB77IITI&c=365799&tp_c=365799"},{"rt":null,"stimulus":"Examples sent to student! Waiting for student...","response":null,"trial_type":"html-keyboard-response","trial_index":15,"time_elapsed":318656,"internal_node_id":"0.0-14.0","params":{"nStudents":24,"maxFlips":30,"completionMinutes":45,"basePay":8,"maxBonus":9,"perTrialBonus":0.5,"perTrialBonusThreshold":0.05,"exampleCost":0.01},"classroomParams":{"A":{"a":1,"b":4},"B":{"a":4,"b":1},"C":{"a":2,"b":8},"D":{"a":8,"b":2}},"conditions":["nonSeqFull","nonSeqPartial","seqNoFeedback","seqFeedback"],"classroomPairings":[["A","B"],["C","D"]],"coinWeights":[0.2,0.5,0.8],"subjectId":"A2ONILC0LZKG6Y","assignmentId":"3EA3QWIZ4JHN1VVI07HYF7RB77IITI","hitId":"363A7XIFV48LMLIF2CKYA8VQSVQAVR","url":"https://gershmanlab.com/experiments/alicia/teaching/experiment/?hitId=363A7XIFV48LMLIF2CKYA8VQSVQAVR&workerId=A2ONILC0LZKG6Y&assignmentId=3EA3QWIZ4JHN1VVI07HYF7RB77IITI&a=ZQAE9&tp_a=ZQAE9&b=3EA3QWIZ4JHN1VVI07HYF7RB77IITI&tp_b=3EA3QWIZ4JHN1VVI07HYF7RB77IITI&c=365799&tp_c=365799"},{"rt":7600,"response":{"heads":"6","tails":"6"},"type":"response","condition":"seqNoFeedback","trueTheta":0.5,"classrooms":["C","D"],"studentTrueClassroom":"D","exampleSet":"second","trial_type":"survey-html-form","trial_index":16,"time_elapsed":326265,"internal_node_id":"0.0-15.0-0.0","params":{"nStudents":24,"maxFlips":30,"completionMinutes":45,"basePay":8,"maxBonus":9,"perTrialBonus":0.5,"perTrialBonusThreshold":0.05,"exampleCost":0.01},"classroomParams":{"A":{"a":1,"b":4},"B":{"a":4,"b":1},"C":{"a":2,"b":8},"D":{"a":8,"b":2}},"conditions":["nonSeqFull","nonSeqPartial","seqNoFeedback","seqFeedback"],"classroomPairings":[["A","B"],["C","D"]],"coinWeights":[0.2,0.5,0.8],"subjectId":"A2ONILC0LZKG6Y","assignmentId":"3EA3QWIZ4JHN1VVI07HYF7RB77IITI","hitId":"363A7XIFV48LMLIF2CKYA8VQSVQAVR","url":"https://gershmanlab.com/experiments/alicia/teaching/experiment/?hitId=363A7XIFV48LMLIF2CKYA8VQSVQAVR&workerId=A2ONILC0LZKG6Y&assignmentId=3EA3QWIZ4JHN1VVI07HYF7RB77IITI&a=ZQAE9&tp_a=ZQAE9&b=3EA3QWIZ4JHN1VVI07HYF7RB77IITI&tp_b=3EA3QWIZ4JHN1VVI07HYF7RB77IITI&c=365799&tp_c=365799","firstResponseHeads":6,"firstResponseTails":6,"secondResponseHeads":6,"secondResponseTails":6,"totalHeads":12,"totalTails":12,"studentIndex":1,"studentTrueHypers":{"a":8,"b":2},"studentGuess":0.5882352941176471,"delta":0.08823529411764708,"bonus":0,"bonusSoFar":0,"totalExamples":24},{"rt":null,"stimulus":"Sending examples to student... ","response":null,"trial_type":"html-keyboard-response","trial_index":17,"time_elapsed":327518,"internal_node_id":"0.0-16.0","params":{"nStudents":24,"maxFlips":30,"completionMinutes":45,"basePay":8,"maxBonus":9,"perTrialBonus":0.5,"perTrialBonusThreshold":0.05,"exampleCost":0.01},"classroomParams":{"A":{"a":1,"b":4},"B":{"a":4,"b":1},"C":{"a":2,"b":8},"D":{"a":8,"b":2}},"conditions":["nonSeqFull","nonSeqPartial","seqNoFeedback","seqFeedback"],"classroomPairings":[["A","B"],["C","D"]],"coinWeights":[0.2,0.5,0.8],"subjectId":"A2ONILC0LZKG6Y","assignmentId":"3EA3QWIZ4JHN1VVI07HYF7RB77IITI","hitId":"363A7XIFV48LMLIF2CKYA8VQSVQAVR","url":"https://gershmanlab.com/experiments/alicia/teaching/experiment/?hitId=363A7XIFV48LMLIF2CKYA8VQSVQAVR&workerId=A2ONILC0LZKG6Y&assignmentId=3EA3QWIZ4JHN1VVI07HYF7RB77IITI&a=ZQAE9&tp_a=ZQAE9&b=3EA3QWIZ4JHN1VVI07HYF7RB77IITI&tp_b=3EA3QWIZ4JHN1VVI07HYF7RB77IITI&c=365799&tp_c=365799"},{"rt":null,"stimulus":"Examples sent to student! Waiting for student...","response":null,"trial_type":"html-keyboard-response","trial_index":18,"time_elapsed":333024,"internal_node_id":"0.0-17.0","params":{"nStudents":24,"maxFlips":30,"completionMinutes":45,"basePay":8,"maxBonus":9,"perTrialBonus":0.5,"perTrialBonusThreshold":0.05,"exampleCost":0.01},"classroomParams":{"A":{"a":1,"b":4},"B":{"a":4,"b":1},"C":{"a":2,"b":8},"D":{"a":8,"b":2}},"conditions":["nonSeqFull","nonSeqPartial","seqNoFeedback","seqFeedback"],"classroomPairings":[["A","B"],["C","D"]],"coinWeights":[0.2,0.5,0.8],"subjectId":"A2ONILC0LZKG6Y","assignmentId":"3EA3QWIZ4JHN1VVI07HYF7RB77IITI","hitId":"363A7XIFV48LMLIF2CKYA8VQSVQAVR","url":"https://gershmanlab.com/experiments/alicia/teaching/experiment/?hitId=363A7XIFV48LMLIF2CKYA8VQSVQAVR&workerId=A2ONILC0LZKG6Y&assignmentId=3EA3QWIZ4JHN1VVI07HYF7RB77IITI&a=ZQAE9&tp_a=ZQAE9&b=3EA3QWIZ4JHN1VVI07HYF7RB77IITI&tp_b=3EA3QWIZ4JHN1VVI07HYF7RB77IITI&c=365799&tp_c=365799"},{"rt":2781,"stimulus":"\n                <p>Student 2's first guess for coin weight: <b style=\"color:Tomato\";>0.64</b></p>\n                <p>Student 2's second guess for coin weight: <b style=\"color:Tomato\";>0.59</b></p>\n                <p>You received a bonus of <b>$0.00</b> based on the student's second guess.</p>\n                <p>Total bonus so far: <b>$0.00</b></p>\n                <p>Press any key to continue.</p>\n                ","response":"arrowdown","trial_type":"html-keyboard-response","trial_index":19,"time_elapsed":335806,"internal_node_id":"0.0-18.0","params":{"nStudents":24,"maxFlips":30,"completionMinutes":45,"basePay":8,"maxBonus":9,"perTrialBonus":0.5,"perTrialBonusThreshold":0.05,"exampleCost":0.01},"classroomParams":{"A":{"a":1,"b":4},"B":{"a":4,"b":1},"C":{"a":2,"b":8},"D":{"a":8,"b":2}},"conditions":["nonSeqFull","nonSeqPartial","seqNoFeedback","seqFeedback"],"classroomPairings":[["A","B"],["C","D"]],"coinWeights":[0.2,0.5,0.8],"subjectId":"A2ONILC0LZKG6Y","assignmentId":"3EA3QWIZ4JHN1VVI07HYF7RB77IITI","hitId":"363A7XIFV48LMLIF2CKYA8VQSVQAVR","url":"https://gershmanlab.com/experiments/alicia/teaching/experiment/?hitId=363A7XIFV48LMLIF2CKYA8VQSVQAVR&workerId=A2ONILC0LZKG6Y&assignmentId=3EA3QWIZ4JHN1VVI07HYF7RB77IITI&a=ZQAE9&tp_a=ZQAE9&b=3EA3QWIZ4JHN1VVI07HYF7RB77IITI&tp_b=3EA3QWIZ4JHN1VVI07HYF7RB77IITI&c=365799&tp_c=365799"},{"rt":null,"stimulus":"<div style=\"font-size:60px;\">Next student</div>","response":null,"trial_type":"html-keyboard-response","trial_index":20,"time_elapsed":338813,"internal_node_id":"0.0-19.0-0.0","params":{"nStudents":24,"maxFlips":30,"completionMinutes":45,"basePay":8,"maxBonus":9,"perTrialBonus":0.5,"perTrialBonusThreshold":0.05,"exampleCost":0.01},"classroomParams":{"A":{"a":1,"b":4},"B":{"a":4,"b":1},"C":{"a":2,"b":8},"D":{"a":8,"b":2}},"conditions":["nonSeqFull","nonSeqPartial","seqNoFeedback","seqFeedback"],"classroomPairings":[["A","B"],["C","D"]],"coinWeights":[0.2,0.5,0.8],"subjectId":"A2ONILC0LZKG6Y","assignmentId":"3EA3QWIZ4JHN1VVI07HYF7RB77IITI","hitId":"363A7XIFV48LMLIF2CKYA8VQSVQAVR","url":"https://gershmanlab.com/experiments/alicia/teaching/experiment/?hitId=363A7XIFV48LMLIF2CKYA8VQSVQAVR&workerId=A2ONILC0LZKG6Y&assignmentId=3EA3QWIZ4JHN1VVI07HYF7RB77IITI&a=ZQAE9&tp_a=ZQAE9&b=3EA3QWIZ4JHN1VVI07HYF7RB77IITI&tp_b=3EA3QWIZ4JHN1VVI07HYF7RB77IITI&c=365799&tp_c=365799"},{"rt":2539,"stimulus":"\n            <h4 style=\"color:Orange;\">Student 3</h4>\n            <h2>The weight of your coin is <b style=\"color:Tomato;\">0.5</b>.</h2>\n            <p>In this block, you will be giving <b>one</b> set of examples to Student 3.</p>\n                <p>You will receive feedback at the end of the block.</p>\n            <p></p>","response":0,"trial_type":"html-button-response","trial_index":21,"time_elapsed":341354,"internal_node_id":"0.0-20.0","params":{"nStudents":24,"maxFlips":30,"completionMinutes":45,"basePay":8,"maxBonus":9,"perTrialBonus":0.5,"perTrialBonusThreshold":0.05,"exampleCost":0.01},"classroomParams":{"A":{"a":1,"b":4},"B":{"a":4,"b":1},"C":{"a":2,"b":8},"D":{"a":8,"b":2}},"conditions":["nonSeqFull","nonSeqPartial","seqNoFeedback","seqFeedback"],"classroomPairings":[["A","B"],["C","D"]],"coinWeights":[0.2,0.5,0.8],"subjectId":"A2ONILC0LZKG6Y","assignmentId":"3EA3QWIZ4JHN1VVI07HYF7RB77IITI","hitId":"363A7XIFV48LMLIF2CKYA8VQSVQAVR","url":"https://gershmanlab.com/experiments/alicia/teaching/experiment/?hitId=363A7XIFV48LMLIF2CKYA8VQSVQAVR&workerId=A2ONILC0LZKG6Y&assignmentId=3EA3QWIZ4JHN1VVI07HYF7RB77IITI&a=ZQAE9&tp_a=ZQAE9&b=3EA3QWIZ4JHN1VVI07HYF7RB77IITI&tp_b=3EA3QWIZ4JHN1VVI07HYF7RB77IITI&c=365799&tp_c=365799"},{"rt":12912,"response":{"heads":"10","tails":"10"},"type":"response","condition":"nonSeqFull","trueTheta":0.5,"classrooms":["C","D"],"studentTrueClassroom":"D","exampleSet":"first","trial_type":"survey-html-form","trial_index":22,"time_elapsed":354268,"internal_node_id":"0.0-21.0-0.0","params":{"nStudents":24,"maxFlips":30,"completionMinutes":45,"basePay":8,"maxBonus":9,"perTrialBonus":0.5,"perTrialBonusThreshold":0.05,"exampleCost":0.01},"classroomParams":{"A":{"a":1,"b":4},"B":{"a":4,"b":1},"C":{"a":2,"b":8},"D":{"a":8,"b":2}},"conditions":["nonSeqFull","nonSeqPartial","seqNoFeedback","seqFeedback"],"classroomPairings":[["A","B"],["C","D"]],"coinWeights":[0.2,0.5,0.8],"subjectId":"A2ONILC0LZKG6Y","assignmentId":"3EA3QWIZ4JHN1VVI07HYF7RB77IITI","hitId":"363A7XIFV48LMLIF2CKYA8VQSVQAVR","url":"https://gershmanlab.com/experiments/alicia/teaching/experiment/?hitId=363A7XIFV48LMLIF2CKYA8VQSVQAVR&workerId=A2ONILC0LZKG6Y&assignmentId=3EA3QWIZ4JHN1VVI07HYF7RB77IITI&a=ZQAE9&tp_a=ZQAE9&b=3EA3QWIZ4JHN1VVI07HYF7RB77IITI&tp_b=3EA3QWIZ4JHN1VVI07HYF7RB77IITI&c=365799&tp_c=365799","heads":10,"tails":10,"studentIndex":2,"studentTrueHypers":{"a":8,"b":2},"studentGuess":0.6,"delta":0.09999999999999998,"totalExamples":20,"bonus":0,"bonusSoFar":0},{"rt":null,"stimulus":"Sending examples to student... ","response":null,"trial_type":"html-keyboard-response","trial_index":23,"time_elapsed":356023,"internal_node_id":"0.0-22.0","params":{"nStudents":24,"maxFlips":30,"completionMinutes":45,"basePay":8,"maxBonus":9,"perTrialBonus":0.5,"perTrialBonusThreshold":0.05,"exampleCost":0.01},"classroomParams":{"A":{"a":1,"b":4},"B":{"a":4,"b":1},"C":{"a":2,"b":8},"D":{"a":8,"b":2}},"conditions":["nonSeqFull","nonSeqPartial","seqNoFeedback","seqFeedback"],"classroomPairings":[["A","B"],["C","D"]],"coinWeights":[0.2,0.5,0.8],"subjectId":"A2ONILC0LZKG6Y","assignmentId":"3EA3QWIZ4JHN1VVI07HYF7RB77IITI","hitId":"363A7XIFV48LMLIF2CKYA8VQSVQAVR","url":"https://gershmanlab.com/experiments/alicia/teaching/experiment/?hitId=363A7XIFV48LMLIF2CKYA8VQSVQAVR&workerId=A2ONILC0LZKG6Y&assignmentId=3EA3QWIZ4JHN1VVI07HYF7RB77IITI&a=ZQAE9&tp_a=ZQAE9&b=3EA3QWIZ4JHN1VVI07HYF7RB77IITI&tp_b=3EA3QWIZ4JHN1VVI07HYF7RB77IITI&c=365799&tp_c=365799"},{"rt":null,"stimulus":"Examples sent to student! Waiting for student...","response":null,"trial_type":"html-keyboard-response","trial_index":24,"time_elapsed":360028,"internal_node_id":"0.0-23.0","params":{"nStudents":24,"maxFlips":30,"completionMinutes":45,"basePay":8,"maxBonus":9,"perTrialBonus":0.5,"perTrialBonusThreshold":0.05,"exampleCost":0.01},"classroomParams":{"A":{"a":1,"b":4},"B":{"a":4,"b":1},"C":{"a":2,"b":8},"D":{"a":8,"b":2}},"conditions":["nonSeqFull","nonSeqPartial","seqNoFeedback","seqFeedback"],"classroomPairings":[["A","B"],["C","D"]],"coinWeights":[0.2,0.5,0.8],"subjectId":"A2ONILC0LZKG6Y","assignmentId":"3EA3QWIZ4JHN1VVI07HYF7RB77IITI","hitId":"363A7XIFV48LMLIF2CKYA8VQSVQAVR","url":"https://gershmanlab.com/experiments/alicia/teaching/experiment/?hitId=363A7XIFV48LMLIF2CKYA8VQSVQAVR&workerId=A2ONILC0LZKG6Y&assignmentId=3EA3QWIZ4JHN1VVI07HYF7RB77IITI&a=ZQAE9&tp_a=ZQAE9&b=3EA3QWIZ4JHN1VVI07HYF7RB77IITI&tp_b=3EA3QWIZ4JHN1VVI07HYF7RB77IITI&c=365799&tp_c=365799"},{"rt":3114,"stimulus":"\n                <p>Student's guess for coin weight: <b style=\"color:Tomato;\">0.60</b></p>\n                <p>You received a bonus of <b>$0</b>. Total bonus so far: <b>$0.00</b></b></p>\n                <p></p>\n                <p>Press any key to continue.</p>\n                ","response":"arrowdown","trial_type":"html-keyboard-response","trial_index":25,"time_elapsed":363144,"internal_node_id":"0.0-24.0","params":{"nStudents":24,"maxFlips":30,"completionMinutes":45,"basePay":8,"maxBonus":9,"perTrialBonus":0.5,"perTrialBonusThreshold":0.05,"exampleCost":0.01},"classroomParams":{"A":{"a":1,"b":4},"B":{"a":4,"b":1},"C":{"a":2,"b":8},"D":{"a":8,"b":2}},"conditions":["nonSeqFull","nonSeqPartial","seqNoFeedback","seqFeedback"],"classroomPairings":[["A","B"],["C","D"]],"coinWeights":[0.2,0.5,0.8],"subjectId":"A2ONILC0LZKG6Y","assignmentId":"3EA3QWIZ4JHN1VVI07HYF7RB77IITI","hitId":"363A7XIFV48LMLIF2CKYA8VQSVQAVR","url":"https://gershmanlab.com/experiments/alicia/teaching/experiment/?hitId=363A7XIFV48LMLIF2CKYA8VQSVQAVR&workerId=A2ONILC0LZKG6Y&assignmentId=3EA3QWIZ4JHN1VVI07HYF7RB77IITI&a=ZQAE9&tp_a=ZQAE9&b=3EA3QWIZ4JHN1VVI07HYF7RB77IITI&tp_b=3EA3QWIZ4JHN1VVI07HYF7RB77IITI&c=365799&tp_c=365799"},{"rt":null,"stimulus":"<div style=\"font-size:60px;\">Next student</div>","response":null,"trial_type":"html-keyboard-response","trial_index":26,"time_elapsed":365398,"internal_node_id":"0.0-25.0-0.0","params":{"nStudents":24,"maxFlips":30,"completionMinutes":45,"basePay":8,"maxBonus":9,"perTrialBonus":0.5,"perTrialBonusThreshold":0.05,"exampleCost":0.01},"classroomParams":{"A":{"a":1,"b":4},"B":{"a":4,"b":1},"C":{"a":2,"b":8},"D":{"a":8,"b":2}},"conditions":["nonSeqFull","nonSeqPartial","seqNoFeedback","seqFeedback"],"classroomPairings":[["A","B"],["C","D"]],"coinWeights":[0.2,0.5,0.8],"subjectId":"A2ONILC0LZKG6Y","assignmentId":"3EA3QWIZ4JHN1VVI07HYF7RB77IITI","hitId":"363A7XIFV48LMLIF2CKYA8VQSVQAVR","url":"https://gershmanlab.com/experiments/alicia/teaching/experiment/?hitId=363A7XIFV48LMLIF2CKYA8VQSVQAVR&workerId=A2ONILC0LZKG6Y&assignmentId=3EA3QWIZ4JHN1VVI07HYF7RB77IITI&a=ZQAE9&tp_a=ZQAE9&b=3EA3QWIZ4JHN1VVI07HYF7RB77IITI&tp_b=3EA3QWIZ4JHN1VVI07HYF7RB77IITI&c=365799&tp_c=365799"},{"rt":8125,"stimulus":"\n            <h4 style=\"color:Orange;\">Student 4</h4>\n            <h2>The weight of your coin is <b style=\"color:Tomato;\">0.2</b>.</h2>\n            <p>In this block, you will be giving <b>two</b> sets of examples to Student 4.</p>\n                <p>You will see the student's guess after the first set of examples. You will also receive feedback at the end of the block.</p>\n            <p>To earn the highest bonus, you will have to <b>take into consideration the student's guess</b> when you choose your second set of examples.</p>","response":0,"trial_type":"html-button-response","trial_index":27,"time_elapsed":373525,"internal_node_id":"0.0-26.0","params":{"nStudents":24,"maxFlips":30,"completionMinutes":45,"basePay":8,"maxBonus":9,"perTrialBonus":0.5,"perTrialBonusThreshold":0.05,"exampleCost":0.01},"classroomParams":{"A":{"a":1,"b":4},"B":{"a":4,"b":1},"C":{"a":2,"b":8},"D":{"a":8,"b":2}},"conditions":["nonSeqFull","nonSeqPartial","seqNoFeedback","seqFeedback"],"classroomPairings":[["A","B"],["C","D"]],"coinWeights":[0.2,0.5,0.8],"subjectId":"A2ONILC0LZKG6Y","assignmentId":"3EA3QWIZ4JHN1VVI07HYF7RB77IITI","hitId":"363A7XIFV48LMLIF2CKYA8VQSVQAVR","url":"https://gershmanlab.com/experiments/alicia/teaching/experiment/?hitId=363A7XIFV48LMLIF2CKYA8VQSVQAVR&workerId=A2ONILC0LZKG6Y&assignmentId=3EA3QWIZ4JHN1VVI07HYF7RB77IITI&a=ZQAE9&tp_a=ZQAE9&b=3EA3QWIZ4JHN1VVI07HYF7RB77IITI&tp_b=3EA3QWIZ4JHN1VVI07HYF7RB77IITI&c=365799&tp_c=365799"},{"rt":19089,"response":{"heads":"2","tails":"7"},"type":"response","condition":"seqFeedback","trueTheta":0.2,"classrooms":["A","B"],"studentTrueClassroom":"A","exampleSet":"first","trial_type":"survey-html-form","trial_index":28,"time_elapsed":392617,"internal_node_id":"0.0-27.0-0.0","params":{"nStudents":24,"maxFlips":30,"completionMinutes":45,"basePay":8,"maxBonus":9,"perTrialBonus":0.5,"perTrialBonusThreshold":0.05,"exampleCost":0.01},"classroomParams":{"A":{"a":1,"b":4},"B":{"a":4,"b":1},"C":{"a":2,"b":8},"D":{"a":8,"b":2}},"conditions":["nonSeqFull","nonSeqPartial","seqNoFeedback","seqFeedback"],"classroomPairings":[["A","B"],["C","D"]],"coinWeights":[0.2,0.5,0.8],"subjectId":"A2ONILC0LZKG6Y","assignmentId":"3EA3QWIZ4JHN1VVI07HYF7RB77IITI","hitId":"363A7XIFV48LMLIF2CKYA8VQSVQAVR","url":"https://gershmanlab.com/experiments/alicia/teaching/experiment/?hitId=363A7XIFV48LMLIF2CKYA8VQSVQAVR&workerId=A2ONILC0LZKG6Y&assignmentId=3EA3QWIZ4JHN1VVI07HYF7RB77IITI&a=ZQAE9&tp_a=ZQAE9&b=3EA3QWIZ4JHN1VVI07HYF7RB77IITI&tp_b=3EA3QWIZ4JHN1VVI07HYF7RB77IITI&c=365799&tp_c=365799","heads":2,"tails":7,"studentIndex":3,"studentTrueHypers":{"a":1,"b":4},"studentGuess":0.21428571428571427,"delta":0.014285714285714263,"totalExamples":9,"bonusSoFar":0},{"rt":null,"stimulus":"Sending examples to student... ","response":null,"trial_type":"html-keyboard-response","trial_index":29,"time_elapsed":394376,"internal_node_id":"0.0-28.0","params":{"nStudents":24,"maxFlips":30,"completionMinutes":45,"basePay":8,"maxBonus":9,"perTrialBonus":0.5,"perTrialBonusThreshold":0.05,"exampleCost":0.01},"classroomParams":{"A":{"a":1,"b":4},"B":{"a":4,"b":1},"C":{"a":2,"b":8},"D":{"a":8,"b":2}},"conditions":["nonSeqFull","nonSeqPartial","seqNoFeedback","seqFeedback"],"classroomPairings":[["A","B"],["C","D"]],"coinWeights":[0.2,0.5,0.8],"subjectId":"A2ONILC0LZKG6Y","assignmentId":"3EA3QWIZ4JHN1VVI07HYF7RB77IITI","hitId":"363A7XIFV48LMLIF2CKYA8VQSVQAVR","url":"https://gershmanlab.com/experiments/alicia/teaching/experiment/?hitId=363A7XIFV48LMLIF2CKYA8VQSVQAVR&workerId=A2ONILC0LZKG6Y&assignmentId=3EA3QWIZ4JHN1VVI07HYF7RB77IITI&a=ZQAE9&tp_a=ZQAE9&b=3EA3QWIZ4JHN1VVI07HYF7RB77IITI&tp_b=3EA3QWIZ4JHN1VVI07HYF7RB77IITI&c=365799&tp_c=365799"},{"rt":null,"stimulus":"Examples sent to student! Waiting for student...","response":null,"trial_type":"html-keyboard-response","trial_index":30,"time_elapsed":399385,"internal_node_id":"0.0-29.0","params":{"nStudents":24,"maxFlips":30,"completionMinutes":45,"basePay":8,"maxBonus":9,"perTrialBonus":0.5,"perTrialBonusThreshold":0.05,"exampleCost":0.01},"classroomParams":{"A":{"a":1,"b":4},"B":{"a":4,"b":1},"C":{"a":2,"b":8},"D":{"a":8,"b":2}},"conditions":["nonSeqFull","nonSeqPartial","seqNoFeedback","seqFeedback"],"classroomPairings":[["A","B"],["C","D"]],"coinWeights":[0.2,0.5,0.8],"subjectId":"A2ONILC0LZKG6Y","assignmentId":"3EA3QWIZ4JHN1VVI07HYF7RB77IITI","hitId":"363A7XIFV48LMLIF2CKYA8VQSVQAVR","url":"https://gershmanlab.com/experiments/alicia/teaching/experiment/?hitId=363A7XIFV48LMLIF2CKYA8VQSVQAVR&workerId=A2ONILC0LZKG6Y&assignmentId=3EA3QWIZ4JHN1VVI07HYF7RB77IITI&a=ZQAE9&tp_a=ZQAE9&b=3EA3QWIZ4JHN1VVI07HYF7RB77IITI&tp_b=3EA3QWIZ4JHN1VVI07HYF7RB77IITI&c=365799&tp_c=365799"},{"rt":5516,"stimulus":"\n                <p>Student's guess for coin weight: <b style=\"color:Tomato;\">0.21</b></p>\n                <p></b></p>\n                <p>You will now send another set of examples to your student. <b>Remember to take your student's guess into consideration so that you can earn the highest bonus possible!</b> </p>\n                <p>Press any key to continue.</p>\n                ","response":"arrowdown","trial_type":"html-keyboard-response","trial_index":31,"time_elapsed":404901,"internal_node_id":"0.0-30.0","params":{"nStudents":24,"maxFlips":30,"completionMinutes":45,"basePay":8,"maxBonus":9,"perTrialBonus":0.5,"perTrialBonusThreshold":0.05,"exampleCost":0.01},"classroomParams":{"A":{"a":1,"b":4},"B":{"a":4,"b":1},"C":{"a":2,"b":8},"D":{"a":8,"b":2}},"conditions":["nonSeqFull","nonSeqPartial","seqNoFeedback","seqFeedback"],"classroomPairings":[["A","B"],["C","D"]],"coinWeights":[0.2,0.5,0.8],"subjectId":"A2ONILC0LZKG6Y","assignmentId":"3EA3QWIZ4JHN1VVI07HYF7RB77IITI","hitId":"363A7XIFV48LMLIF2CKYA8VQSVQAVR","url":"https://gershmanlab.com/experiments/alicia/teaching/experiment/?hitId=363A7XIFV48LMLIF2CKYA8VQSVQAVR&workerId=A2ONILC0LZKG6Y&assignmentId=3EA3QWIZ4JHN1VVI07HYF7RB77IITI&a=ZQAE9&tp_a=ZQAE9&b=3EA3QWIZ4JHN1VVI07HYF7RB77IITI&tp_b=3EA3QWIZ4JHN1VVI07HYF7RB77IITI&c=365799&tp_c=365799"},{"rt":7131,"response":{"heads":"2","tails":"7"},"type":"response","condition":"seqFeedback","trueTheta":0.2,"classrooms":["A","B"],"studentTrueClassroom":"A","exampleSet":"second","trial_type":"survey-html-form","trial_index":32,"time_elapsed":412041,"internal_node_id":"0.0-31.0-0.0","params":{"nStudents":24,"maxFlips":30,"completionMinutes":45,"basePay":8,"maxBonus":9,"perTrialBonus":0.5,"perTrialBonusThreshold":0.05,"exampleCost":0.01},"classroomParams":{"A":{"a":1,"b":4},"B":{"a":4,"b":1},"C":{"a":2,"b":8},"D":{"a":8,"b":2}},"conditions":["nonSeqFull","nonSeqPartial","seqNoFeedback","seqFeedback"],"classroomPairings":[["A","B"],["C","D"]],"coinWeights":[0.2,0.5,0.8],"subjectId":"A2ONILC0LZKG6Y","assignmentId":"3EA3QWIZ4JHN1VVI07HYF7RB77IITI","hitId":"363A7XIFV48LMLIF2CKYA8VQSVQAVR","url":"https://gershmanlab.com/experiments/alicia/teaching/experiment/?hitId=363A7XIFV48LMLIF2CKYA8VQSVQAVR&workerId=A2ONILC0LZKG6Y&assignmentId=3EA3QWIZ4JHN1VVI07HYF7RB77IITI&a=ZQAE9&tp_a=ZQAE9&b=3EA3QWIZ4JHN1VVI07HYF7RB77IITI&tp_b=3EA3QWIZ4JHN1VVI07HYF7RB77IITI&c=365799&tp_c=365799","firstResponseHeads":2,"firstResponseTails":7,"secondResponseHeads":2,"secondResponseTails":7,"totalHeads":4,"totalTails":14,"studentIndex":3,"studentTrueHypers":{"a":1,"b":4},"studentGuess":0.21739130434782608,"delta":0.01739130434782607,"bonus":0.32,"bonusSoFar":0.32,"totalExamples":18},{"rt":null,"stimulus":"Sending examples to student... ","response":null,"trial_type":"html-keyboard-response","trial_index":33,"time_elapsed":413547,"internal_node_id":"0.0-32.0","params":{"nStudents":24,"maxFlips":30,"completionMinutes":45,"basePay":8,"maxBonus":9,"perTrialBonus":0.5,"perTrialBonusThreshold":0.05,"exampleCost":0.01},"classroomParams":{"A":{"a":1,"b":4},"B":{"a":4,"b":1},"C":{"a":2,"b":8},"D":{"a":8,"b":2}},"conditions":["nonSeqFull","nonSeqPartial","seqNoFeedback","seqFeedback"],"classroomPairings":[["A","B"],["C","D"]],"coinWeights":[0.2,0.5,0.8],"subjectId":"A2ONILC0LZKG6Y","assignmentId":"3EA3QWIZ4JHN1VVI07HYF7RB77IITI","hitId":"363A7XIFV48LMLIF2CKYA8VQSVQAVR","url":"https://gershmanlab.com/experiments/alicia/teaching/experiment/?hitId=363A7XIFV48LMLIF2CKYA8VQSVQAVR&workerId=A2ONILC0LZKG6Y&assignmentId=3EA3QWIZ4JHN1VVI07HYF7RB77IITI&a=ZQAE9&tp_a=ZQAE9&b=3EA3QWIZ4JHN1VVI07HYF7RB77IITI&tp_b=3EA3QWIZ4JHN1VVI07HYF7RB77IITI&c=365799&tp_c=365799"},{"rt":null,"stimulus":"Examples sent to student! Waiting for student...","response":null,"trial_type":"html-keyboard-response","trial_index":34,"time_elapsed":418552,"internal_node_id":"0.0-33.0","params":{"nStudents":24,"maxFlips":30,"completionMinutes":45,"basePay":8,"maxBonus":9,"perTrialBonus":0.5,"perTrialBonusThreshold":0.05,"exampleCost":0.01},"classroomParams":{"A":{"a":1,"b":4},"B":{"a":4,"b":1},"C":{"a":2,"b":8},"D":{"a":8,"b":2}},"conditions":["nonSeqFull","nonSeqPartial","seqNoFeedback","seqFeedback"],"classroomPairings":[["A","B"],["C","D"]],"coinWeights":[0.2,0.5,0.8],"subjectId":"A2ONILC0LZKG6Y","assignmentId":"3EA3QWIZ4JHN1VVI07HYF7RB77IITI","hitId":"363A7XIFV48LMLIF2CKYA8VQSVQAVR","url":"https://gershmanlab.com/experiments/alicia/teaching/experiment/?hitId=363A7XIFV48LMLIF2CKYA8VQSVQAVR&workerId=A2ONILC0LZKG6Y&assignmentId=3EA3QWIZ4JHN1VVI07HYF7RB77IITI&a=ZQAE9&tp_a=ZQAE9&b=3EA3QWIZ4JHN1VVI07HYF7RB77IITI&tp_b=3EA3QWIZ4JHN1VVI07HYF7RB77IITI&c=365799&tp_c=365799"},{"rt":2573,"stimulus":"\n                <p>Student 4's first guess for coin weight: <b style=\"color:Tomato\";>0.21</b></p>\n                <p>Student 4's second guess for coin weight: <b style=\"color:Tomato\";>0.22</b></p>\n                <p>You received a bonus of <b>$0.32</b> based on the student's second guess.</p>\n                <p>Total bonus so far: <b>$0.32</b></p>\n                <p>Press any key to continue.</p>\n                ","response":"arrowdown","trial_type":"html-keyboard-response","trial_index":35,"time_elapsed":421126,"internal_node_id":"0.0-34.0","params":{"nStudents":24,"maxFlips":30,"completionMinutes":45,"basePay":8,"maxBonus":9,"perTrialBonus":0.5,"perTrialBonusThreshold":0.05,"exampleCost":0.01},"classroomParams":{"A":{"a":1,"b":4},"B":{"a":4,"b":1},"C":{"a":2,"b":8},"D":{"a":8,"b":2}},"conditions":["nonSeqFull","nonSeqPartial","seqNoFeedback","seqFeedback"],"classroomPairings":[["A","B"],["C","D"]],"coinWeights":[0.2,0.5,0.8],"subjectId":"A2ONILC0LZKG6Y","assignmentId":"3EA3QWIZ4JHN1VVI07HYF7RB77IITI","hitId":"363A7XIFV48LMLIF2CKYA8VQSVQAVR","url":"https://gershmanlab.com/experiments/alicia/teaching/experiment/?hitId=363A7XIFV48LMLIF2CKYA8VQSVQAVR&workerId=A2ONILC0LZKG6Y&assignmentId=3EA3QWIZ4JHN1VVI07HYF7RB77IITI&a=ZQAE9&tp_a=ZQAE9&b=3EA3QWIZ4JHN1VVI07HYF7RB77IITI&tp_b=3EA3QWIZ4JHN1VVI07HYF7RB77IITI&c=365799&tp_c=365799"},{"rt":null,"stimulus":"<div style=\"font-size:60px;\">Next student</div>","response":null,"trial_type":"html-keyboard-response","trial_index":36,"time_elapsed":423627,"internal_node_id":"0.0-35.0-0.0","params":{"nStudents":24,"maxFlips":30,"completionMinutes":45,"basePay":8,"maxBonus":9,"perTrialBonus":0.5,"perTrialBonusThreshold":0.05,"exampleCost":0.01},"classroomParams":{"A":{"a":1,"b":4},"B":{"a":4,"b":1},"C":{"a":2,"b":8},"D":{"a":8,"b":2}},"conditions":["nonSeqFull","nonSeqPartial","seqNoFeedback","seqFeedback"],"classroomPairings":[["A","B"],["C","D"]],"coinWeights":[0.2,0.5,0.8],"subjectId":"A2ONILC0LZKG6Y","assignmentId":"3EA3QWIZ4JHN1VVI07HYF7RB77IITI","hitId":"363A7XIFV48LMLIF2CKYA8VQSVQAVR","url":"https://gershmanlab.com/experiments/alicia/teaching/experiment/?hitId=363A7XIFV48LMLIF2CKYA8VQSVQAVR&workerId=A2ONILC0LZKG6Y&assignmentId=3EA3QWIZ4JHN1VVI07HYF7RB77IITI&a=ZQAE9&tp_a=ZQAE9&b=3EA3QWIZ4JHN1VVI07HYF7RB77IITI&tp_b=3EA3QWIZ4JHN1VVI07HYF7RB77IITI&c=365799&tp_c=365799"},{"rt":2434,"stimulus":"\n            <h4 style=\"color:Orange;\">Student 5</h4>\n            <h2>The weight of your coin is <b style=\"color:Tomato;\">0.2</b>.</h2>\n            <p>In this block, you will be giving <b>two</b> sets of examples to Student 5.</p>\n                <p>You will see the student's guess after the first set of examples. You will also receive feedback at the end of the block.</p>\n            <p>To earn the highest bonus, you will have to <b>take into consideration the student's guess</b> when you choose your second set of examples.</p>","response":0,"trial_type":"html-button-response","trial_index":37,"time_elapsed":426062,"internal_node_id":"0.0-36.0","params":{"nStudents":24,"maxFlips":30,"completionMinutes":45,"basePay":8,"maxBonus":9,"perTrialBonus":0.5,"perTrialBonusThreshold":0.05,"exampleCost":0.01},"classroomParams":{"A":{"a":1,"b":4},"B":{"a":4,"b":1},"C":{"a":2,"b":8},"D":{"a":8,"b":2}},"conditions":["nonSeqFull","nonSeqPartial","seqNoFeedback","seqFeedback"],"classroomPairings":[["A","B"],["C","D"]],"coinWeights":[0.2,0.5,0.8],"subjectId":"A2ONILC0LZKG6Y","assignmentId":"3EA3QWIZ4JHN1VVI07HYF7RB77IITI","hitId":"363A7XIFV48LMLIF2CKYA8VQSVQAVR","url":"https://gershmanlab.com/experiments/alicia/teaching/experiment/?hitId=363A7XIFV48LMLIF2CKYA8VQSVQAVR&workerId=A2ONILC0LZKG6Y&assignmentId=3EA3QWIZ4JHN1VVI07HYF7RB77IITI&a=ZQAE9&tp_a=ZQAE9&b=3EA3QWIZ4JHN1VVI07HYF7RB77IITI&tp_b=3EA3QWIZ4JHN1VVI07HYF7RB77IITI&c=365799&tp_c=365799"},{"rt":9506,"response":{"heads":"2","tails":"7"},"type":"response","condition":"seqFeedback","trueTheta":0.2,"classrooms":["C","D"],"studentTrueClassroom":"D","exampleSet":"first","trial_type":"survey-html-form","trial_index":38,"time_elapsed":435571,"internal_node_id":"0.0-37.0-0.0","params":{"nStudents":24,"maxFlips":30,"completionMinutes":45,"basePay":8,"maxBonus":9,"perTrialBonus":0.5,"perTrialBonusThreshold":0.05,"exampleCost":0.01},"classroomParams":{"A":{"a":1,"b":4},"B":{"a":4,"b":1},"C":{"a":2,"b":8},"D":{"a":8,"b":2}},"conditions":["nonSeqFull","nonSeqPartial","seqNoFeedback","seqFeedback"],"classroomPairings":[["A","B"],["C","D"]],"coinWeights":[0.2,0.5,0.8],"subjectId":"A2ONILC0LZKG6Y","assignmentId":"3EA3QWIZ4JHN1VVI07HYF7RB77IITI","hitId":"363A7XIFV48LMLIF2CKYA8VQSVQAVR","url":"https://gershmanlab.com/experiments/alicia/teaching/experiment/?hitId=363A7XIFV48LMLIF2CKYA8VQSVQAVR&workerId=A2ONILC0LZKG6Y&assignmentId=3EA3QWIZ4JHN1VVI07HYF7RB77IITI&a=ZQAE9&tp_a=ZQAE9&b=3EA3QWIZ4JHN1VVI07HYF7RB77IITI&tp_b=3EA3QWIZ4JHN1VVI07HYF7RB77IITI&c=365799&tp_c=365799","heads":2,"tails":7,"studentIndex":4,"studentTrueHypers":{"a":8,"b":2},"studentGuess":0.5263157894736842,"delta":0.32631578947368417,"totalExamples":9,"bonusSoFar":0.32},{"rt":null,"stimulus":"Sending examples to student... ","response":null,"trial_type":"html-keyboard-response","trial_index":39,"time_elapsed":437332,"internal_node_id":"0.0-38.0","params":{"nStudents":24,"maxFlips":30,"completionMinutes":45,"basePay":8,"maxBonus":9,"perTrialBonus":0.5,"perTrialBonusThreshold":0.05,"exampleCost":0.01},"classroomParams":{"A":{"a":1,"b":4},"B":{"a":4,"b":1},"C":{"a":2,"b":8},"D":{"a":8,"b":2}},"conditions":["nonSeqFull","nonSeqPartial","seqNoFeedback","seqFeedback"],"classroomPairings":[["A","B"],["C","D"]],"coinWeights":[0.2,0.5,0.8],"subjectId":"A2ONILC0LZKG6Y","assignmentId":"3EA3QWIZ4JHN1VVI07HYF7RB77IITI","hitId":"363A7XIFV48LMLIF2CKYA8VQSVQAVR","url":"https://gershmanlab.com/experiments/alicia/teaching/experiment/?hitId=363A7XIFV48LMLIF2CKYA8VQSVQAVR&workerId=A2ONILC0LZKG6Y&assignmentId=3EA3QWIZ4JHN1VVI07HYF7RB77IITI&a=ZQAE9&tp_a=ZQAE9&b=3EA3QWIZ4JHN1VVI07HYF7RB77IITI&tp_b=3EA3QWIZ4JHN1VVI07HYF7RB77IITI&c=365799&tp_c=365799"},{"rt":null,"stimulus":"Examples sent to student! Waiting for student...","response":null,"trial_type":"html-keyboard-response","trial_index":40,"time_elapsed":441832,"internal_node_id":"0.0-39.0","params":{"nStudents":24,"maxFlips":30,"completionMinutes":45,"basePay":8,"maxBonus":9,"perTrialBonus":0.5,"perTrialBonusThreshold":0.05,"exampleCost":0.01},"classroomParams":{"A":{"a":1,"b":4},"B":{"a":4,"b":1},"C":{"a":2,"b":8},"D":{"a":8,"b":2}},"conditions":["nonSeqFull","nonSeqPartial","seqNoFeedback","seqFeedback"],"classroomPairings":[["A","B"],["C","D"]],"coinWeights":[0.2,0.5,0.8],"subjectId":"A2ONILC0LZKG6Y","assignmentId":"3EA3QWIZ4JHN1VVI07HYF7RB77IITI","hitId":"363A7XIFV48LMLIF2CKYA8VQSVQAVR","url":"https://gershmanlab.com/experiments/alicia/teaching/experiment/?hitId=363A7XIFV48LMLIF2CKYA8VQSVQAVR&workerId=A2ONILC0LZKG6Y&assignmentId=3EA3QWIZ4JHN1VVI07HYF7RB77IITI&a=ZQAE9&tp_a=ZQAE9&b=3EA3QWIZ4JHN1VVI07HYF7RB77IITI&tp_b=3EA3QWIZ4JHN1VVI07HYF7RB77IITI&c=365799&tp_c=365799"},{"rt":2361,"stimulus":"\n                <p>Student's guess for coin weight: <b style=\"color:Tomato;\">0.53</b></p>\n                <p></b></p>\n                <p>You will now send another set of examples to your student. <b>Remember to take your student's guess into consideration so that you can earn the highest bonus possible!</b> </p>\n                <p>Press any key to continue.</p>\n                ","response":"arrowdown","trial_type":"html-keyboard-response","trial_index":41,"time_elapsed":444195,"internal_node_id":"0.0-40.0","params":{"nStudents":24,"maxFlips":30,"completionMinutes":45,"basePay":8,"maxBonus":9,"perTrialBonus":0.5,"perTrialBonusThreshold":0.05,"exampleCost":0.01},"classroomParams":{"A":{"a":1,"b":4},"B":{"a":4,"b":1},"C":{"a":2,"b":8},"D":{"a":8,"b":2}},"conditions":["nonSeqFull","nonSeqPartial","seqNoFeedback","seqFeedback"],"classroomPairings":[["A","B"],["C","D"]],"coinWeights":[0.2,0.5,0.8],"subjectId":"A2ONILC0LZKG6Y","assignmentId":"3EA3QWIZ4JHN1VVI07HYF7RB77IITI","hitId":"363A7XIFV48LMLIF2CKYA8VQSVQAVR","url":"https://gershmanlab.com/experiments/alicia/teaching/experiment/?hitId=363A7XIFV48LMLIF2CKYA8VQSVQAVR&workerId=A2ONILC0LZKG6Y&assignmentId=3EA3QWIZ4JHN1VVI07HYF7RB77IITI&a=ZQAE9&tp_a=ZQAE9&b=3EA3QWIZ4JHN1VVI07HYF7RB77IITI&tp_b=3EA3QWIZ4JHN1VVI07HYF7RB77IITI&c=365799&tp_c=365799"},{"rt":12151,"response":{"heads":"2","tails":"11"},"type":"response","condition":"seqFeedback","trueTheta":0.2,"classrooms":["C","D"],"studentTrueClassroom":"D","exampleSet":"second","trial_type":"survey-html-form","trial_index":42,"time_elapsed":456355,"internal_node_id":"0.0-41.0-0.0","params":{"nStudents":24,"maxFlips":30,"completionMinutes":45,"basePay":8,"maxBonus":9,"perTrialBonus":0.5,"perTrialBonusThreshold":0.05,"exampleCost":0.01},"classroomParams":{"A":{"a":1,"b":4},"B":{"a":4,"b":1},"C":{"a":2,"b":8},"D":{"a":8,"b":2}},"conditions":["nonSeqFull","nonSeqPartial","seqNoFeedback","seqFeedback"],"classroomPairings":[["A","B"],["C","D"]],"coinWeights":[0.2,0.5,0.8],"subjectId":"A2ONILC0LZKG6Y","assignmentId":"3EA3QWIZ4JHN1VVI07HYF7RB77IITI","hitId":"363A7XIFV48LMLIF2CKYA8VQSVQAVR","url":"https://gershmanlab.com/experiments/alicia/teaching/experiment/?hitId=363A7XIFV48LMLIF2CKYA8VQSVQAVR&workerId=A2ONILC0LZKG6Y&assignmentId=3EA3QWIZ4JHN1VVI07HYF7RB77IITI&a=ZQAE9&tp_a=ZQAE9&b=3EA3QWIZ4JHN1VVI07HYF7RB77IITI&tp_b=3EA3QWIZ4JHN1VVI07HYF7RB77IITI&c=365799&tp_c=365799","firstResponseHeads":2,"firstResponseTails":7,"secondResponseHeads":2,"secondResponseTails":11,"totalHeads":4,"totalTails":18,"studentIndex":4,"studentTrueHypers":{"a":8,"b":2},"studentGuess":0.375,"delta":0.175,"bonus":0,"bonusSoFar":0.32,"totalExamples":22},{"rt":null,"stimulus":"Sending examples to student... ","response":null,"trial_type":"html-keyboard-response","trial_index":43,"time_elapsed":458357,"internal_node_id":"0.0-42.0","params":{"nStudents":24,"maxFlips":30,"completionMinutes":45,"basePay":8,"maxBonus":9,"perTrialBonus":0.5,"perTrialBonusThreshold":0.05,"exampleCost":0.01},"classroomParams":{"A":{"a":1,"b":4},"B":{"a":4,"b":1},"C":{"a":2,"b":8},"D":{"a":8,"b":2}},"conditions":["nonSeqFull","nonSeqPartial","seqNoFeedback","seqFeedback"],"classroomPairings":[["A","B"],["C","D"]],"coinWeights":[0.2,0.5,0.8],"subjectId":"A2ONILC0LZKG6Y","assignmentId":"3EA3QWIZ4JHN1VVI07HYF7RB77IITI","hitId":"363A7XIFV48LMLIF2CKYA8VQSVQAVR","url":"https://gershmanlab.com/experiments/alicia/teaching/experiment/?hitId=363A7XIFV48LMLIF2CKYA8VQSVQAVR&workerId=A2ONILC0LZKG6Y&assignmentId=3EA3QWIZ4JHN1VVI07HYF7RB77IITI&a=ZQAE9&tp_a=ZQAE9&b=3EA3QWIZ4JHN1VVI07HYF7RB77IITI&tp_b=3EA3QWIZ4JHN1VVI07HYF7RB77IITI&c=365799&tp_c=365799"},{"rt":null,"stimulus":"Examples sent to student! Waiting for student...","response":null,"trial_type":"html-keyboard-response","trial_index":44,"time_elapsed":462370,"internal_node_id":"0.0-43.0","params":{"nStudents":24,"maxFlips":30,"completionMinutes":45,"basePay":8,"maxBonus":9,"perTrialBonus":0.5,"perTrialBonusThreshold":0.05,"exampleCost":0.01},"classroomParams":{"A":{"a":1,"b":4},"B":{"a":4,"b":1},"C":{"a":2,"b":8},"D":{"a":8,"b":2}},"conditions":["nonSeqFull","nonSeqPartial","seqNoFeedback","seqFeedback"],"classroomPairings":[["A","B"],["C","D"]],"coinWeights":[0.2,0.5,0.8],"subjectId":"A2ONILC0LZKG6Y","assignmentId":"3EA3QWIZ4JHN1VVI07HYF7RB77IITI","hitId":"363A7XIFV48LMLIF2CKYA8VQSVQAVR","url":"https://gershmanlab.com/experiments/alicia/teaching/experiment/?hitId=363A7XIFV48LMLIF2CKYA8VQSVQAVR&workerId=A2ONILC0LZKG6Y&assignmentId=3EA3QWIZ4JHN1VVI07HYF7RB77IITI&a=ZQAE9&tp_a=ZQAE9&b=3EA3QWIZ4JHN1VVI07HYF7RB77IITI&tp_b=3EA3QWIZ4JHN1VVI07HYF7RB77IITI&c=365799&tp_c=365799"},{"rt":4672,"stimulus":"\n                <p>Student 5's first guess for coin weight: <b style=\"color:Tomato\";>0.53</b></p>\n                <p>Student 5's second guess for coin weight: <b style=\"color:Tomato\";>0.38</b></p>\n                <p>You received a bonus of <b>$0.00</b> based on the student's second guess.</p>\n                <p>Total bonus so far: <b>$0.32</b></p>\n                <p>Press any key to continue.</p>\n                ","response":"arrowdown","trial_type":"html-keyboard-response","trial_index":45,"time_elapsed":467044,"internal_node_id":"0.0-44.0","params":{"nStudents":24,"maxFlips":30,"completionMinutes":45,"basePay":8,"maxBonus":9,"perTrialBonus":0.5,"perTrialBonusThreshold":0.05,"exampleCost":0.01},"classroomParams":{"A":{"a":1,"b":4},"B":{"a":4,"b":1},"C":{"a":2,"b":8},"D":{"a":8,"b":2}},"conditions":["nonSeqFull","nonSeqPartial","seqNoFeedback","seqFeedback"],"classroomPairings":[["A","B"],["C","D"]],"coinWeights":[0.2,0.5,0.8],"subjectId":"A2ONILC0LZKG6Y","assignmentId":"3EA3QWIZ4JHN1VVI07HYF7RB77IITI","hitId":"363A7XIFV48LMLIF2CKYA8VQSVQAVR","url":"https://gershmanlab.com/experiments/alicia/teaching/experiment/?hitId=363A7XIFV48LMLIF2CKYA8VQSVQAVR&workerId=A2ONILC0LZKG6Y&assignmentId=3EA3QWIZ4JHN1VVI07HYF7RB77IITI&a=ZQAE9&tp_a=ZQAE9&b=3EA3QWIZ4JHN1VVI07HYF7RB77IITI&tp_b=3EA3QWIZ4JHN1VVI07HYF7RB77IITI&c=365799&tp_c=365799"},{"rt":null,"stimulus":"<div style=\"font-size:60px;\">Next student</div>","response":null,"trial_type":"html-keyboard-response","trial_index":46,"time_elapsed":469052,"internal_node_id":"0.0-45.0-0.0","params":{"nStudents":24,"maxFlips":30,"completionMinutes":45,"basePay":8,"maxBonus":9,"perTrialBonus":0.5,"perTrialBonusThreshold":0.05,"exampleCost":0.01},"classroomParams":{"A":{"a":1,"b":4},"B":{"a":4,"b":1},"C":{"a":2,"b":8},"D":{"a":8,"b":2}},"conditions":["nonSeqFull","nonSeqPartial","seqNoFeedback","seqFeedback"],"classroomPairings":[["A","B"],["C","D"]],"coinWeights":[0.2,0.5,0.8],"subjectId":"A2ONILC0LZKG6Y","assignmentId":"3EA3QWIZ4JHN1VVI07HYF7RB77IITI","hitId":"363A7XIFV48LMLIF2CKYA8VQSVQAVR","url":"https://gershmanlab.com/experiments/alicia/teaching/experiment/?hitId=363A7XIFV48LMLIF2CKYA8VQSVQAVR&workerId=A2ONILC0LZKG6Y&assignmentId=3EA3QWIZ4JHN1VVI07HYF7RB77IITI&a=ZQAE9&tp_a=ZQAE9&b=3EA3QWIZ4JHN1VVI07HYF7RB77IITI&tp_b=3EA3QWIZ4JHN1VVI07HYF7RB77IITI&c=365799&tp_c=365799"},{"rt":3768,"stimulus":"\n            <h4 style=\"color:Orange;\">Student 6</h4>\n            <h2>The weight of your coin is <b style=\"color:Tomato;\">0.8</b>.</h2>\n            <p>In this block, you will be giving <b>one</b> set of examples to Student 6.</p>\n                <p>You will receive feedback at the end of the block.</p>\n            <p></p>","response":0,"trial_type":"html-button-response","trial_index":47,"time_elapsed":472822,"internal_node_id":"0.0-46.0","params":{"nStudents":24,"maxFlips":30,"completionMinutes":45,"basePay":8,"maxBonus":9,"perTrialBonus":0.5,"perTrialBonusThreshold":0.05,"exampleCost":0.01},"classroomParams":{"A":{"a":1,"b":4},"B":{"a":4,"b":1},"C":{"a":2,"b":8},"D":{"a":8,"b":2}},"conditions":["nonSeqFull","nonSeqPartial","seqNoFeedback","seqFeedback"],"classroomPairings":[["A","B"],["C","D"]],"coinWeights":[0.2,0.5,0.8],"subjectId":"A2ONILC0LZKG6Y","assignmentId":"3EA3QWIZ4JHN1VVI07HYF7RB77IITI","hitId":"363A7XIFV48LMLIF2CKYA8VQSVQAVR","url":"https://gershmanlab.com/experiments/alicia/teaching/experiment/?hitId=363A7XIFV48LMLIF2CKYA8VQSVQAVR&workerId=A2ONILC0LZKG6Y&assignmentId=3EA3QWIZ4JHN1VVI07HYF7RB77IITI&a=ZQAE9&tp_a=ZQAE9&b=3EA3QWIZ4JHN1VVI07HYF7RB77IITI&tp_b=3EA3QWIZ4JHN1VVI07HYF7RB77IITI&c=365799&tp_c=365799"},{"rt":10916,"response":{"heads":"8","tails":"2"},"type":"response","condition":"nonSeqPartial","trueTheta":0.8,"classrooms":["C","D"],"studentTrueClassroom":"D","exampleSet":"first","trial_type":"survey-html-form","trial_index":48,"time_elapsed":483739,"internal_node_id":"0.0-47.0-0.0","params":{"nStudents":24,"maxFlips":30,"completionMinutes":45,"basePay":8,"maxBonus":9,"perTrialBonus":0.5,"perTrialBonusThreshold":0.05,"exampleCost":0.01},"classroomParams":{"A":{"a":1,"b":4},"B":{"a":4,"b":1},"C":{"a":2,"b":8},"D":{"a":8,"b":2}},"conditions":["nonSeqFull","nonSeqPartial","seqNoFeedback","seqFeedback"],"classroomPairings":[["A","B"],["C","D"]],"coinWeights":[0.2,0.5,0.8],"subjectId":"A2ONILC0LZKG6Y","assignmentId":"3EA3QWIZ4JHN1VVI07HYF7RB77IITI","hitId":"363A7XIFV48LMLIF2CKYA8VQSVQAVR","url":"https://gershmanlab.com/experiments/alicia/teaching/experiment/?hitId=363A7XIFV48LMLIF2CKYA8VQSVQAVR&workerId=A2ONILC0LZKG6Y&assignmentId=3EA3QWIZ4JHN1VVI07HYF7RB77IITI&a=ZQAE9&tp_a=ZQAE9&b=3EA3QWIZ4JHN1VVI07HYF7RB77IITI&tp_b=3EA3QWIZ4JHN1VVI07HYF7RB77IITI&c=365799&tp_c=365799","heads":8,"tails":2,"studentIndex":5,"studentTrueHypers":{"a":8,"b":2},"studentGuess":0.8,"delta":0,"totalExamples":10,"bonus":0.4,"bonusSoFar":0.72},{"rt":null,"stimulus":"Sending examples to student... ","response":null,"trial_type":"html-keyboard-response","trial_index":49,"time_elapsed":485754,"internal_node_id":"0.0-48.0","params":{"nStudents":24,"maxFlips":30,"completionMinutes":45,"basePay":8,"maxBonus":9,"perTrialBonus":0.5,"perTrialBonusThreshold":0.05,"exampleCost":0.01},"classroomParams":{"A":{"a":1,"b":4},"B":{"a":4,"b":1},"C":{"a":2,"b":8},"D":{"a":8,"b":2}},"conditions":["nonSeqFull","nonSeqPartial","seqNoFeedback","seqFeedback"],"classroomPairings":[["A","B"],["C","D"]],"coinWeights":[0.2,0.5,0.8],"subjectId":"A2ONILC0LZKG6Y","assignmentId":"3EA3QWIZ4JHN1VVI07HYF7RB77IITI","hitId":"363A7XIFV48LMLIF2CKYA8VQSVQAVR","url":"https://gershmanlab.com/experiments/alicia/teaching/experiment/?hitId=363A7XIFV48LMLIF2CKYA8VQSVQAVR&workerId=A2ONILC0LZKG6Y&assignmentId=3EA3QWIZ4JHN1VVI07HYF7RB77IITI&a=ZQAE9&tp_a=ZQAE9&b=3EA3QWIZ4JHN1VVI07HYF7RB77IITI&tp_b=3EA3QWIZ4JHN1VVI07HYF7RB77IITI&c=365799&tp_c=365799"},{"rt":null,"stimulus":"Examples sent to student! Waiting for student...","response":null,"trial_type":"html-keyboard-response","trial_index":50,"time_elapsed":489765,"internal_node_id":"0.0-49.0","params":{"nStudents":24,"maxFlips":30,"completionMinutes":45,"basePay":8,"maxBonus":9,"perTrialBonus":0.5,"perTrialBonusThreshold":0.05,"exampleCost":0.01},"classroomParams":{"A":{"a":1,"b":4},"B":{"a":4,"b":1},"C":{"a":2,"b":8},"D":{"a":8,"b":2}},"conditions":["nonSeqFull","nonSeqPartial","seqNoFeedback","seqFeedback"],"classroomPairings":[["A","B"],["C","D"]],"coinWeights":[0.2,0.5,0.8],"subjectId":"A2ONILC0LZKG6Y","assignmentId":"3EA3QWIZ4JHN1VVI07HYF7RB77IITI","hitId":"363A7XIFV48LMLIF2CKYA8VQSVQAVR","url":"https://gershmanlab.com/experiments/alicia/teaching/experiment/?hitId=363A7XIFV48LMLIF2CKYA8VQSVQAVR&workerId=A2ONILC0LZKG6Y&assignmentId=3EA3QWIZ4JHN1VVI07HYF7RB77IITI&a=ZQAE9&tp_a=ZQAE9&b=3EA3QWIZ4JHN1VVI07HYF7RB77IITI&tp_b=3EA3QWIZ4JHN1VVI07HYF7RB77IITI&c=365799&tp_c=365799"},{"rt":2778,"stimulus":"\n                <p>Student's guess for coin weight: <b style=\"color:Tomato;\">0.80</b></p>\n                <p>You received a bonus of <b>$0.4</b>. Total bonus so far: <b>$0.72</b></b></p>\n                <p></p>\n                <p>Press any key to continue.</p>\n                ","response":"arrowdown","trial_type":"html-keyboard-response","trial_index":51,"time_elapsed":492544,"internal_node_id":"0.0-50.0","params":{"nStudents":24,"maxFlips":30,"completionMinutes":45,"basePay":8,"maxBonus":9,"perTrialBonus":0.5,"perTrialBonusThreshold":0.05,"exampleCost":0.01},"classroomParams":{"A":{"a":1,"b":4},"B":{"a":4,"b":1},"C":{"a":2,"b":8},"D":{"a":8,"b":2}},"conditions":["nonSeqFull","nonSeqPartial","seqNoFeedback","seqFeedback"],"classroomPairings":[["A","B"],["C","D"]],"coinWeights":[0.2,0.5,0.8],"subjectId":"A2ONILC0LZKG6Y","assignmentId":"3EA3QWIZ4JHN1VVI07HYF7RB77IITI","hitId":"363A7XIFV48LMLIF2CKYA8VQSVQAVR","url":"https://gershmanlab.com/experiments/alicia/teaching/experiment/?hitId=363A7XIFV48LMLIF2CKYA8VQSVQAVR&workerId=A2ONILC0LZKG6Y&assignmentId=3EA3QWIZ4JHN1VVI07HYF7RB77IITI&a=ZQAE9&tp_a=ZQAE9&b=3EA3QWIZ4JHN1VVI07HYF7RB77IITI&tp_b=3EA3QWIZ4JHN1VVI07HYF7RB77IITI&c=365799&tp_c=365799"},{"rt":null,"stimulus":"<div style=\"font-size:60px;\">Next student</div>","response":null,"trial_type":"html-keyboard-response","trial_index":52,"time_elapsed":495049,"internal_node_id":"0.0-51.0-0.0","params":{"nStudents":24,"maxFlips":30,"completionMinutes":45,"basePay":8,"maxBonus":9,"perTrialBonus":0.5,"perTrialBonusThreshold":0.05,"exampleCost":0.01},"classroomParams":{"A":{"a":1,"b":4},"B":{"a":4,"b":1},"C":{"a":2,"b":8},"D":{"a":8,"b":2}},"conditions":["nonSeqFull","nonSeqPartial","seqNoFeedback","seqFeedback"],"classroomPairings":[["A","B"],["C","D"]],"coinWeights":[0.2,0.5,0.8],"subjectId":"A2ONILC0LZKG6Y","assignmentId":"3EA3QWIZ4JHN1VVI07HYF7RB77IITI","hitId":"363A7XIFV48LMLIF2CKYA8VQSVQAVR","url":"https://gershmanlab.com/experiments/alicia/teaching/experiment/?hitId=363A7XIFV48LMLIF2CKYA8VQSVQAVR&workerId=A2ONILC0LZKG6Y&assignmentId=3EA3QWIZ4JHN1VVI07HYF7RB77IITI&a=ZQAE9&tp_a=ZQAE9&b=3EA3QWIZ4JHN1VVI07HYF7RB77IITI&tp_b=3EA3QWIZ4JHN1VVI07HYF7RB77IITI&c=365799&tp_c=365799"},{"rt":1665,"stimulus":"\n            <h4 style=\"color:Orange;\">Student 7</h4>\n            <h2>The weight of your coin is <b style=\"color:Tomato;\">0.5</b>.</h2>\n            <p>In this block, you will be giving <b>two</b> sets of examples to Student 7.</p>\n                <p>You will receive feedback at the end of the block.</p>\n            <p></p>","response":0,"trial_type":"html-button-response","trial_index":53,"time_elapsed":496717,"internal_node_id":"0.0-52.0","params":{"nStudents":24,"maxFlips":30,"completionMinutes":45,"basePay":8,"maxBonus":9,"perTrialBonus":0.5,"perTrialBonusThreshold":0.05,"exampleCost":0.01},"classroomParams":{"A":{"a":1,"b":4},"B":{"a":4,"b":1},"C":{"a":2,"b":8},"D":{"a":8,"b":2}},"conditions":["nonSeqFull","nonSeqPartial","seqNoFeedback","seqFeedback"],"classroomPairings":[["A","B"],["C","D"]],"coinWeights":[0.2,0.5,0.8],"subjectId":"A2ONILC0LZKG6Y","assignmentId":"3EA3QWIZ4JHN1VVI07HYF7RB77IITI","hitId":"363A7XIFV48LMLIF2CKYA8VQSVQAVR","url":"https://gershmanlab.com/experiments/alicia/teaching/experiment/?hitId=363A7XIFV48LMLIF2CKYA8VQSVQAVR&workerId=A2ONILC0LZKG6Y&assignmentId=3EA3QWIZ4JHN1VVI07HYF7RB77IITI&a=ZQAE9&tp_a=ZQAE9&b=3EA3QWIZ4JHN1VVI07HYF7RB77IITI&tp_b=3EA3QWIZ4JHN1VVI07HYF7RB77IITI&c=365799&tp_c=365799"},{"rt":8746,"response":{"heads":"5","tails":"5"},"type":"response","condition":"seqNoFeedback","trueTheta":0.5,"classrooms":["A","B"],"studentTrueClassroom":"A","exampleSet":"first","trial_type":"survey-html-form","trial_index":54,"time_elapsed":505467,"internal_node_id":"0.0-53.0-0.0","params":{"nStudents":24,"maxFlips":30,"completionMinutes":45,"basePay":8,"maxBonus":9,"perTrialBonus":0.5,"perTrialBonusThreshold":0.05,"exampleCost":0.01},"classroomParams":{"A":{"a":1,"b":4},"B":{"a":4,"b":1},"C":{"a":2,"b":8},"D":{"a":8,"b":2}},"conditions":["nonSeqFull","nonSeqPartial","seqNoFeedback","seqFeedback"],"classroomPairings":[["A","B"],["C","D"]],"coinWeights":[0.2,0.5,0.8],"subjectId":"A2ONILC0LZKG6Y","assignmentId":"3EA3QWIZ4JHN1VVI07HYF7RB77IITI","hitId":"363A7XIFV48LMLIF2CKYA8VQSVQAVR","url":"https://gershmanlab.com/experiments/alicia/teaching/experiment/?hitId=363A7XIFV48LMLIF2CKYA8VQSVQAVR&workerId=A2ONILC0LZKG6Y&assignmentId=3EA3QWIZ4JHN1VVI07HYF7RB77IITI&a=ZQAE9&tp_a=ZQAE9&b=3EA3QWIZ4JHN1VVI07HYF7RB77IITI&tp_b=3EA3QWIZ4JHN1VVI07HYF7RB77IITI&c=365799&tp_c=365799","heads":5,"tails":5,"studentIndex":6,"studentTrueHypers":{"a":1,"b":4},"studentGuess":0.4,"delta":0.09999999999999998,"totalExamples":10,"bonusSoFar":0.72},{"rt":null,"stimulus":"Sending examples to student... ","response":null,"trial_type":"html-keyboard-response","trial_index":55,"time_elapsed":507218,"internal_node_id":"0.0-54.0","params":{"nStudents":24,"maxFlips":30,"completionMinutes":45,"basePay":8,"maxBonus":9,"perTrialBonus":0.5,"perTrialBonusThreshold":0.05,"exampleCost":0.01},"classroomParams":{"A":{"a":1,"b":4},"B":{"a":4,"b":1},"C":{"a":2,"b":8},"D":{"a":8,"b":2}},"conditions":["nonSeqFull","nonSeqPartial","seqNoFeedback","seqFeedback"],"classroomPairings":[["A","B"],["C","D"]],"coinWeights":[0.2,0.5,0.8],"subjectId":"A2ONILC0LZKG6Y","assignmentId":"3EA3QWIZ4JHN1VVI07HYF7RB77IITI","hitId":"363A7XIFV48LMLIF2CKYA8VQSVQAVR","url":"https://gershmanlab.com/experiments/alicia/teaching/experiment/?hitId=363A7XIFV48LMLIF2CKYA8VQSVQAVR&workerId=A2ONILC0LZKG6Y&assignmentId=3EA3QWIZ4JHN1VVI07HYF7RB77IITI&a=ZQAE9&tp_a=ZQAE9&b=3EA3QWIZ4JHN1VVI07HYF7RB77IITI&tp_b=3EA3QWIZ4JHN1VVI07HYF7RB77IITI&c=365799&tp_c=365799"},{"rt":null,"stimulus":"Examples sent to student! Waiting for student...","response":null,"trial_type":"html-keyboard-response","trial_index":56,"time_elapsed":513222,"internal_node_id":"0.0-55.0","params":{"nStudents":24,"maxFlips":30,"completionMinutes":45,"basePay":8,"maxBonus":9,"perTrialBonus":0.5,"perTrialBonusThreshold":0.05,"exampleCost":0.01},"classroomParams":{"A":{"a":1,"b":4},"B":{"a":4,"b":1},"C":{"a":2,"b":8},"D":{"a":8,"b":2}},"conditions":["nonSeqFull","nonSeqPartial","seqNoFeedback","seqFeedback"],"classroomPairings":[["A","B"],["C","D"]],"coinWeights":[0.2,0.5,0.8],"subjectId":"A2ONILC0LZKG6Y","assignmentId":"3EA3QWIZ4JHN1VVI07HYF7RB77IITI","hitId":"363A7XIFV48LMLIF2CKYA8VQSVQAVR","url":"https://gershmanlab.com/experiments/alicia/teaching/experiment/?hitId=363A7XIFV48LMLIF2CKYA8VQSVQAVR&workerId=A2ONILC0LZKG6Y&assignmentId=3EA3QWIZ4JHN1VVI07HYF7RB77IITI&a=ZQAE9&tp_a=ZQAE9&b=3EA3QWIZ4JHN1VVI07HYF7RB77IITI&tp_b=3EA3QWIZ4JHN1VVI07HYF7RB77IITI&c=365799&tp_c=365799"},{"rt":6821,"response":{"heads":"7","tails":"7"},"type":"response","condition":"seqNoFeedback","trueTheta":0.5,"classrooms":["A","B"],"studentTrueClassroom":"A","exampleSet":"second","trial_type":"survey-html-form","trial_index":57,"time_elapsed":520051,"internal_node_id":"0.0-56.0-0.0","params":{"nStudents":24,"maxFlips":30,"completionMinutes":45,"basePay":8,"maxBonus":9,"perTrialBonus":0.5,"perTrialBonusThreshold":0.05,"exampleCost":0.01},"classroomParams":{"A":{"a":1,"b":4},"B":{"a":4,"b":1},"C":{"a":2,"b":8},"D":{"a":8,"b":2}},"conditions":["nonSeqFull","nonSeqPartial","seqNoFeedback","seqFeedback"],"classroomPairings":[["A","B"],["C","D"]],"coinWeights":[0.2,0.5,0.8],"subjectId":"A2ONILC0LZKG6Y","assignmentId":"3EA3QWIZ4JHN1VVI07HYF7RB77IITI","hitId":"363A7XIFV48LMLIF2CKYA8VQSVQAVR","url":"https://gershmanlab.com/experiments/alicia/teaching/experiment/?hitId=363A7XIFV48LMLIF2CKYA8VQSVQAVR&workerId=A2ONILC0LZKG6Y&assignmentId=3EA3QWIZ4JHN1VVI07HYF7RB77IITI&a=ZQAE9&tp_a=ZQAE9&b=3EA3QWIZ4JHN1VVI07HYF7RB77IITI&tp_b=3EA3QWIZ4JHN1VVI07HYF7RB77IITI&c=365799&tp_c=365799","firstResponseHeads":5,"firstResponseTails":5,"secondResponseHeads":7,"secondResponseTails":7,"totalHeads":12,"totalTails":12,"studentIndex":6,"studentTrueHypers":{"a":1,"b":4},"studentGuess":0.4482758620689655,"delta":0.051724137931034475,"bonus":0,"bonusSoFar":0.72,"totalExamples":24},{"rt":null,"stimulus":"Sending examples to student... ","response":null,"trial_type":"html-keyboard-response","trial_index":58,"time_elapsed":521302,"internal_node_id":"0.0-57.0","params":{"nStudents":24,"maxFlips":30,"completionMinutes":45,"basePay":8,"maxBonus":9,"perTrialBonus":0.5,"perTrialBonusThreshold":0.05,"exampleCost":0.01},"classroomParams":{"A":{"a":1,"b":4},"B":{"a":4,"b":1},"C":{"a":2,"b":8},"D":{"a":8,"b":2}},"conditions":["nonSeqFull","nonSeqPartial","seqNoFeedback","seqFeedback"],"classroomPairings":[["A","B"],["C","D"]],"coinWeights":[0.2,0.5,0.8],"subjectId":"A2ONILC0LZKG6Y","assignmentId":"3EA3QWIZ4JHN1VVI07HYF7RB77IITI","hitId":"363A7XIFV48LMLIF2CKYA8VQSVQAVR","url":"https://gershmanlab.com/experiments/alicia/teaching/experiment/?hitId=363A7XIFV48LMLIF2CKYA8VQSVQAVR&workerId=A2ONILC0LZKG6Y&assignmentId=3EA3QWIZ4JHN1VVI07HYF7RB77IITI&a=ZQAE9&tp_a=ZQAE9&b=3EA3QWIZ4JHN1VVI07HYF7RB77IITI&tp_b=3EA3QWIZ4JHN1VVI07HYF7RB77IITI&c=365799&tp_c=365799"},{"rt":null,"stimulus":"Examples sent to student! Waiting for student...","response":null,"trial_type":"html-keyboard-response","trial_index":59,"time_elapsed":526808,"internal_node_id":"0.0-58.0","params":{"nStudents":24,"maxFlips":30,"completionMinutes":45,"basePay":8,"maxBonus":9,"perTrialBonus":0.5,"perTrialBonusThreshold":0.05,"exampleCost":0.01},"classroomParams":{"A":{"a":1,"b":4},"B":{"a":4,"b":1},"C":{"a":2,"b":8},"D":{"a":8,"b":2}},"conditions":["nonSeqFull","nonSeqPartial","seqNoFeedback","seqFeedback"],"classroomPairings":[["A","B"],["C","D"]],"coinWeights":[0.2,0.5,0.8],"subjectId":"A2ONILC0LZKG6Y","assignmentId":"3EA3QWIZ4JHN1VVI07HYF7RB77IITI","hitId":"363A7XIFV48LMLIF2CKYA8VQSVQAVR","url":"https://gershmanlab.com/experiments/alicia/teaching/experiment/?hitId=363A7XIFV48LMLIF2CKYA8VQSVQAVR&workerId=A2ONILC0LZKG6Y&assignmentId=3EA3QWIZ4JHN1VVI07HYF7RB77IITI&a=ZQAE9&tp_a=ZQAE9&b=3EA3QWIZ4JHN1VVI07HYF7RB77IITI&tp_b=3EA3QWIZ4JHN1VVI07HYF7RB77IITI&c=365799&tp_c=365799"},{"rt":3696,"stimulus":"\n                <p>Student 7's first guess for coin weight: <b style=\"color:Tomato\";>0.40</b></p>\n                <p>Student 7's second guess for coin weight: <b style=\"color:Tomato\";>0.45</b></p>\n                <p>You received a bonus of <b>$0.00</b> based on the student's second guess.</p>\n                <p>Total bonus so far: <b>$0.72</b></p>\n                <p>Press any key to continue.</p>\n                ","response":"arrowdown","trial_type":"html-keyboard-response","trial_index":60,"time_elapsed":530506,"internal_node_id":"0.0-59.0","params":{"nStudents":24,"maxFlips":30,"completionMinutes":45,"basePay":8,"maxBonus":9,"perTrialBonus":0.5,"perTrialBonusThreshold":0.05,"exampleCost":0.01},"classroomParams":{"A":{"a":1,"b":4},"B":{"a":4,"b":1},"C":{"a":2,"b":8},"D":{"a":8,"b":2}},"conditions":["nonSeqFull","nonSeqPartial","seqNoFeedback","seqFeedback"],"classroomPairings":[["A","B"],["C","D"]],"coinWeights":[0.2,0.5,0.8],"subjectId":"A2ONILC0LZKG6Y","assignmentId":"3EA3QWIZ4JHN1VVI07HYF7RB77IITI","hitId":"363A7XIFV48LMLIF2CKYA8VQSVQAVR","url":"https://gershmanlab.com/experiments/alicia/teaching/experiment/?hitId=363A7XIFV48LMLIF2CKYA8VQSVQAVR&workerId=A2ONILC0LZKG6Y&assignmentId=3EA3QWIZ4JHN1VVI07HYF7RB77IITI&a=ZQAE9&tp_a=ZQAE9&b=3EA3QWIZ4JHN1VVI07HYF7RB77IITI&tp_b=3EA3QWIZ4JHN1VVI07HYF7RB77IITI&c=365799&tp_c=365799"},{"rt":null,"stimulus":"<div style=\"font-size:60px;\">Next student</div>","response":null,"trial_type":"html-keyboard-response","trial_index":61,"time_elapsed":533518,"internal_node_id":"0.0-60.0-0.0","params":{"nStudents":24,"maxFlips":30,"completionMinutes":45,"basePay":8,"maxBonus":9,"perTrialBonus":0.5,"perTrialBonusThreshold":0.05,"exampleCost":0.01},"classroomParams":{"A":{"a":1,"b":4},"B":{"a":4,"b":1},"C":{"a":2,"b":8},"D":{"a":8,"b":2}},"conditions":["nonSeqFull","nonSeqPartial","seqNoFeedback","seqFeedback"],"classroomPairings":[["A","B"],["C","D"]],"coinWeights":[0.2,0.5,0.8],"subjectId":"A2ONILC0LZKG6Y","assignmentId":"3EA3QWIZ4JHN1VVI07HYF7RB77IITI","hitId":"363A7XIFV48LMLIF2CKYA8VQSVQAVR","url":"https://gershmanlab.com/experiments/alicia/teaching/experiment/?hitId=363A7XIFV48LMLIF2CKYA8VQSVQAVR&workerId=A2ONILC0LZKG6Y&assignmentId=3EA3QWIZ4JHN1VVI07HYF7RB77IITI&a=ZQAE9&tp_a=ZQAE9&b=3EA3QWIZ4JHN1VVI07HYF7RB77IITI&tp_b=3EA3QWIZ4JHN1VVI07HYF7RB77IITI&c=365799&tp_c=365799"},{"rt":1444,"stimulus":"\n            <h4 style=\"color:Orange;\">Student 8</h4>\n            <h2>The weight of your coin is <b style=\"color:Tomato;\">0.8</b>.</h2>\n            <p>In this block, you will be giving <b>two</b> sets of examples to Student 8.</p>\n                <p>You will receive feedback at the end of the block.</p>\n            <p></p>","response":0,"trial_type":"html-button-response","trial_index":62,"time_elapsed":534963,"internal_node_id":"0.0-61.0","params":{"nStudents":24,"maxFlips":30,"completionMinutes":45,"basePay":8,"maxBonus":9,"perTrialBonus":0.5,"perTrialBonusThreshold":0.05,"exampleCost":0.01},"classroomParams":{"A":{"a":1,"b":4},"B":{"a":4,"b":1},"C":{"a":2,"b":8},"D":{"a":8,"b":2}},"conditions":["nonSeqFull","nonSeqPartial","seqNoFeedback","seqFeedback"],"classroomPairings":[["A","B"],["C","D"]],"coinWeights":[0.2,0.5,0.8],"subjectId":"A2ONILC0LZKG6Y","assignmentId":"3EA3QWIZ4JHN1VVI07HYF7RB77IITI","hitId":"363A7XIFV48LMLIF2CKYA8VQSVQAVR","url":"https://gershmanlab.com/experiments/alicia/teaching/experiment/?hitId=363A7XIFV48LMLIF2CKYA8VQSVQAVR&workerId=A2ONILC0LZKG6Y&assignmentId=3EA3QWIZ4JHN1VVI07HYF7RB77IITI&a=ZQAE9&tp_a=ZQAE9&b=3EA3QWIZ4JHN1VVI07HYF7RB77IITI&tp_b=3EA3QWIZ4JHN1VVI07HYF7RB77IITI&c=365799&tp_c=365799"},{"rt":39187,"response":{"heads":"13","tails":"3"},"type":"response","condition":"seqNoFeedback","trueTheta":0.8,"classrooms":["A","B"],"studentTrueClassroom":"B","exampleSet":"first","trial_type":"survey-html-form","trial_index":63,"time_elapsed":574152,"internal_node_id":"0.0-62.0-0.0","params":{"nStudents":24,"maxFlips":30,"completionMinutes":45,"basePay":8,"maxBonus":9,"perTrialBonus":0.5,"perTrialBonusThreshold":0.05,"exampleCost":0.01},"classroomParams":{"A":{"a":1,"b":4},"B":{"a":4,"b":1},"C":{"a":2,"b":8},"D":{"a":8,"b":2}},"conditions":["nonSeqFull","nonSeqPartial","seqNoFeedback","seqFeedback"],"classroomPairings":[["A","B"],["C","D"]],"coinWeights":[0.2,0.5,0.8],"subjectId":"A2ONILC0LZKG6Y","assignmentId":"3EA3QWIZ4JHN1VVI07HYF7RB77IITI","hitId":"363A7XIFV48LMLIF2CKYA8VQSVQAVR","url":"https://gershmanlab.com/experiments/alicia/teaching/experiment/?hitId=363A7XIFV48LMLIF2CKYA8VQSVQAVR&workerId=A2ONILC0LZKG6Y&assignmentId=3EA3QWIZ4JHN1VVI07HYF7RB77IITI&a=ZQAE9&tp_a=ZQAE9&b=3EA3QWIZ4JHN1VVI07HYF7RB77IITI&tp_b=3EA3QWIZ4JHN1VVI07HYF7RB77IITI&c=365799&tp_c=365799","heads":13,"tails":3,"studentIndex":7,"studentTrueHypers":{"a":4,"b":1},"studentGuess":0.8095238095238095,"delta":0.00952380952380949,"totalExamples":16,"bonusSoFar":0.72},{"rt":null,"stimulus":"Sending examples to student... ","response":null,"trial_type":"html-keyboard-response","trial_index":64,"time_elapsed":575903,"internal_node_id":"0.0-63.0","params":{"nStudents":24,"maxFlips":30,"completionMinutes":45,"basePay":8,"maxBonus":9,"perTrialBonus":0.5,"perTrialBonusThreshold":0.05,"exampleCost":0.01},"classroomParams":{"A":{"a":1,"b":4},"B":{"a":4,"b":1},"C":{"a":2,"b":8},"D":{"a":8,"b":2}},"conditions":["nonSeqFull","nonSeqPartial","seqNoFeedback","seqFeedback"],"classroomPairings":[["A","B"],["C","D"]],"coinWeights":[0.2,0.5,0.8],"subjectId":"A2ONILC0LZKG6Y","assignmentId":"3EA3QWIZ4JHN1VVI07HYF7RB77IITI","hitId":"363A7XIFV48LMLIF2CKYA8VQSVQAVR","url":"https://gershmanlab.com/experiments/alicia/teaching/experiment/?hitId=363A7XIFV48LMLIF2CKYA8VQSVQAVR&workerId=A2ONILC0LZKG6Y&assignmentId=3EA3QWIZ4JHN1VVI07HYF7RB77IITI&a=ZQAE9&tp_a=ZQAE9&b=3EA3QWIZ4JHN1VVI07HYF7RB77IITI&tp_b=3EA3QWIZ4JHN1VVI07HYF7RB77IITI&c=365799&tp_c=365799"},{"rt":null,"stimulus":"Examples sent to student! Waiting for student...","response":null,"trial_type":"html-keyboard-response","trial_index":65,"time_elapsed":580406,"internal_node_id":"0.0-64.0","params":{"nStudents":24,"maxFlips":30,"completionMinutes":45,"basePay":8,"maxBonus":9,"perTrialBonus":0.5,"perTrialBonusThreshold":0.05,"exampleCost":0.01},"classroomParams":{"A":{"a":1,"b":4},"B":{"a":4,"b":1},"C":{"a":2,"b":8},"D":{"a":8,"b":2}},"conditions":["nonSeqFull","nonSeqPartial","seqNoFeedback","seqFeedback"],"classroomPairings":[["A","B"],["C","D"]],"coinWeights":[0.2,0.5,0.8],"subjectId":"A2ONILC0LZKG6Y","assignmentId":"3EA3QWIZ4JHN1VVI07HYF7RB77IITI","hitId":"363A7XIFV48LMLIF2CKYA8VQSVQAVR","url":"https://gershmanlab.com/experiments/alicia/teaching/experiment/?hitId=363A7XIFV48LMLIF2CKYA8VQSVQAVR&workerId=A2ONILC0LZKG6Y&assignmentId=3EA3QWIZ4JHN1VVI07HYF7RB77IITI&a=ZQAE9&tp_a=ZQAE9&b=3EA3QWIZ4JHN1VVI07HYF7RB77IITI&tp_b=3EA3QWIZ4JHN1VVI07HYF7RB77IITI&c=365799&tp_c=365799"},{"rt":10921,"response":{"heads":"8","tails":"2"},"type":"response","condition":"seqNoFeedback","trueTheta":0.8,"classrooms":["A","B"],"studentTrueClassroom":"B","exampleSet":"second","trial_type":"survey-html-form","trial_index":66,"time_elapsed":591337,"internal_node_id":"0.0-65.0-0.0","params":{"nStudents":24,"maxFlips":30,"completionMinutes":45,"basePay":8,"maxBonus":9,"perTrialBonus":0.5,"perTrialBonusThreshold":0.05,"exampleCost":0.01},"classroomParams":{"A":{"a":1,"b":4},"B":{"a":4,"b":1},"C":{"a":2,"b":8},"D":{"a":8,"b":2}},"conditions":["nonSeqFull","nonSeqPartial","seqNoFeedback","seqFeedback"],"classroomPairings":[["A","B"],["C","D"]],"coinWeights":[0.2,0.5,0.8],"subjectId":"A2ONILC0LZKG6Y","assignmentId":"3EA3QWIZ4JHN1VVI07HYF7RB77IITI","hitId":"363A7XIFV48LMLIF2CKYA8VQSVQAVR","url":"https://gershmanlab.com/experiments/alicia/teaching/experiment/?hitId=363A7XIFV48LMLIF2CKYA8VQSVQAVR&workerId=A2ONILC0LZKG6Y&assignmentId=3EA3QWIZ4JHN1VVI07HYF7RB77IITI&a=ZQAE9&tp_a=ZQAE9&b=3EA3QWIZ4JHN1VVI07HYF7RB77IITI&tp_b=3EA3QWIZ4JHN1VVI07HYF7RB77IITI&c=365799&tp_c=365799","firstResponseHeads":13,"firstResponseTails":3,"secondResponseHeads":8,"secondResponseTails":2,"totalHeads":21,"totalTails":5,"studentIndex":7,"studentTrueHypers":{"a":4,"b":1},"studentGuess":0.8064516129032258,"delta":0.006451612903225712,"bonus":0.24,"bonusSoFar":0.96,"totalExamples":26},{"rt":null,"stimulus":"Sending examples to student... ","response":null,"trial_type":"html-keyboard-response","trial_index":67,"time_elapsed":592846,"internal_node_id":"0.0-66.0","params":{"nStudents":24,"maxFlips":30,"completionMinutes":45,"basePay":8,"maxBonus":9,"perTrialBonus":0.5,"perTrialBonusThreshold":0.05,"exampleCost":0.01},"classroomParams":{"A":{"a":1,"b":4},"B":{"a":4,"b":1},"C":{"a":2,"b":8},"D":{"a":8,"b":2}},"conditions":["nonSeqFull","nonSeqPartial","seqNoFeedback","seqFeedback"],"classroomPairings":[["A","B"],["C","D"]],"coinWeights":[0.2,0.5,0.8],"subjectId":"A2ONILC0LZKG6Y","assignmentId":"3EA3QWIZ4JHN1VVI07HYF7RB77IITI","hitId":"363A7XIFV48LMLIF2CKYA8VQSVQAVR","url":"https://gershmanlab.com/experiments/alicia/teaching/experiment/?hitId=363A7XIFV48LMLIF2CKYA8VQSVQAVR&workerId=A2ONILC0LZKG6Y&assignmentId=3EA3QWIZ4JHN1VVI07HYF7RB77IITI&a=ZQAE9&tp_a=ZQAE9&b=3EA3QWIZ4JHN1VVI07HYF7RB77IITI&tp_b=3EA3QWIZ4JHN1VVI07HYF7RB77IITI&c=365799&tp_c=365799"},{"rt":null,"stimulus":"Examples sent to student! Waiting for student...","response":null,"trial_type":"html-keyboard-response","trial_index":68,"time_elapsed":597359,"internal_node_id":"0.0-67.0","params":{"nStudents":24,"maxFlips":30,"completionMinutes":45,"basePay":8,"maxBonus":9,"perTrialBonus":0.5,"perTrialBonusThreshold":0.05,"exampleCost":0.01},"classroomParams":{"A":{"a":1,"b":4},"B":{"a":4,"b":1},"C":{"a":2,"b":8},"D":{"a":8,"b":2}},"conditions":["nonSeqFull","nonSeqPartial","seqNoFeedback","seqFeedback"],"classroomPairings":[["A","B"],["C","D"]],"coinWeights":[0.2,0.5,0.8],"subjectId":"A2ONILC0LZKG6Y","assignmentId":"3EA3QWIZ4JHN1VVI07HYF7RB77IITI","hitId":"363A7XIFV48LMLIF2CKYA8VQSVQAVR","url":"https://gershmanlab.com/experiments/alicia/teaching/experiment/?hitId=363A7XIFV48LMLIF2CKYA8VQSVQAVR&workerId=A2ONILC0LZKG6Y&assignmentId=3EA3QWIZ4JHN1VVI07HYF7RB77IITI&a=ZQAE9&tp_a=ZQAE9&b=3EA3QWIZ4JHN1VVI07HYF7RB77IITI&tp_b=3EA3QWIZ4JHN1VVI07HYF7RB77IITI&c=365799&tp_c=365799"},{"rt":4201,"stimulus":"\n                <p>Student 8's first guess for coin weight: <b style=\"color:Tomato\";>0.81</b></p>\n                <p>Student 8's second guess for coin weight: <b style=\"color:Tomato\";>0.81</b></p>\n                <p>You received a bonus of <b>$0.24</b> based on the student's second guess.</p>\n                <p>Total bonus so far: <b>$0.96</b></p>\n                <p>Press any key to continue.</p>\n                ","response":"arrowdown","trial_type":"html-keyboard-response","trial_index":69,"time_elapsed":601562,"internal_node_id":"0.0-68.0","params":{"nStudents":24,"maxFlips":30,"completionMinutes":45,"basePay":8,"maxBonus":9,"perTrialBonus":0.5,"perTrialBonusThreshold":0.05,"exampleCost":0.01},"classroomParams":{"A":{"a":1,"b":4},"B":{"a":4,"b":1},"C":{"a":2,"b":8},"D":{"a":8,"b":2}},"conditions":["nonSeqFull","nonSeqPartial","seqNoFeedback","seqFeedback"],"classroomPairings":[["A","B"],["C","D"]],"coinWeights":[0.2,0.5,0.8],"subjectId":"A2ONILC0LZKG6Y","assignmentId":"3EA3QWIZ4JHN1VVI07HYF7RB77IITI","hitId":"363A7XIFV48LMLIF2CKYA8VQSVQAVR","url":"https://gershmanlab.com/experiments/alicia/teaching/experiment/?hitId=363A7XIFV48LMLIF2CKYA8VQSVQAVR&workerId=A2ONILC0LZKG6Y&assignmentId=3EA3QWIZ4JHN1VVI07HYF7RB77IITI&a=ZQAE9&tp_a=ZQAE9&b=3EA3QWIZ4JHN1VVI07HYF7RB77IITI&tp_b=3EA3QWIZ4JHN1VVI07HYF7RB77IITI&c=365799&tp_c=365799"},{"rt":null,"stimulus":"<div style=\"font-size:60px;\">Next student</div>","response":null,"trial_type":"html-keyboard-response","trial_index":70,"time_elapsed":603566,"internal_node_id":"0.0-69.0-0.0","params":{"nStudents":24,"maxFlips":30,"completionMinutes":45,"basePay":8,"maxBonus":9,"perTrialBonus":0.5,"perTrialBonusThreshold":0.05,"exampleCost":0.01},"classroomParams":{"A":{"a":1,"b":4},"B":{"a":4,"b":1},"C":{"a":2,"b":8},"D":{"a":8,"b":2}},"conditions":["nonSeqFull","nonSeqPartial","seqNoFeedback","seqFeedback"],"classroomPairings":[["A","B"],["C","D"]],"coinWeights":[0.2,0.5,0.8],"subjectId":"A2ONILC0LZKG6Y","assignmentId":"3EA3QWIZ4JHN1VVI07HYF7RB77IITI","hitId":"363A7XIFV48LMLIF2CKYA8VQSVQAVR","url":"https://gershmanlab.com/experiments/alicia/teaching/experiment/?hitId=363A7XIFV48LMLIF2CKYA8VQSVQAVR&workerId=A2ONILC0LZKG6Y&assignmentId=3EA3QWIZ4JHN1VVI07HYF7RB77IITI&a=ZQAE9&tp_a=ZQAE9&b=3EA3QWIZ4JHN1VVI07HYF7RB77IITI&tp_b=3EA3QWIZ4JHN1VVI07HYF7RB77IITI&c=365799&tp_c=365799"},{"rt":2043,"stimulus":"\n            <h4 style=\"color:Orange;\">Student 9</h4>\n            <h2>The weight of your coin is <b style=\"color:Tomato;\">0.8</b>.</h2>\n            <p>In this block, you will be giving <b>one</b> set of examples to Student 9.</p>\n                <p>You will receive feedback at the end of the block.</p>\n            <p></p>","response":0,"trial_type":"html-button-response","trial_index":71,"time_elapsed":605609,"internal_node_id":"0.0-70.0","params":{"nStudents":24,"maxFlips":30,"completionMinutes":45,"basePay":8,"maxBonus":9,"perTrialBonus":0.5,"perTrialBonusThreshold":0.05,"exampleCost":0.01},"classroomParams":{"A":{"a":1,"b":4},"B":{"a":4,"b":1},"C":{"a":2,"b":8},"D":{"a":8,"b":2}},"conditions":["nonSeqFull","nonSeqPartial","seqNoFeedback","seqFeedback"],"classroomPairings":[["A","B"],["C","D"]],"coinWeights":[0.2,0.5,0.8],"subjectId":"A2ONILC0LZKG6Y","assignmentId":"3EA3QWIZ4JHN1VVI07HYF7RB77IITI","hitId":"363A7XIFV48LMLIF2CKYA8VQSVQAVR","url":"https://gershmanlab.com/experiments/alicia/teaching/experiment/?hitId=363A7XIFV48LMLIF2CKYA8VQSVQAVR&workerId=A2ONILC0LZKG6Y&assignmentId=3EA3QWIZ4JHN1VVI07HYF7RB77IITI&a=ZQAE9&tp_a=ZQAE9&b=3EA3QWIZ4JHN1VVI07HYF7RB77IITI&tp_b=3EA3QWIZ4JHN1VVI07HYF7RB77IITI&c=365799&tp_c=365799"},{"rt":10506,"response":{"heads":"8","tails":"2"},"type":"response","condition":"nonSeqFull","trueTheta":0.8,"classrooms":["A","B"],"studentTrueClassroom":"B","exampleSet":"first","trial_type":"survey-html-form","trial_index":72,"time_elapsed":616118,"internal_node_id":"0.0-71.0-0.0","params":{"nStudents":24,"maxFlips":30,"completionMinutes":45,"basePay":8,"maxBonus":9,"perTrialBonus":0.5,"perTrialBonusThreshold":0.05,"exampleCost":0.01},"classroomParams":{"A":{"a":1,"b":4},"B":{"a":4,"b":1},"C":{"a":2,"b":8},"D":{"a":8,"b":2}},"conditions":["nonSeqFull","nonSeqPartial","seqNoFeedback","seqFeedback"],"classroomPairings":[["A","B"],["C","D"]],"coinWeights":[0.2,0.5,0.8],"subjectId":"A2ONILC0LZKG6Y","assignmentId":"3EA3QWIZ4JHN1VVI07HYF7RB77IITI","hitId":"363A7XIFV48LMLIF2CKYA8VQSVQAVR","url":"https://gershmanlab.com/experiments/alicia/teaching/experiment/?hitId=363A7XIFV48LMLIF2CKYA8VQSVQAVR&workerId=A2ONILC0LZKG6Y&assignmentId=3EA3QWIZ4JHN1VVI07HYF7RB77IITI&a=ZQAE9&tp_a=ZQAE9&b=3EA3QWIZ4JHN1VVI07HYF7RB77IITI&tp_b=3EA3QWIZ4JHN1VVI07HYF7RB77IITI&c=365799&tp_c=365799","heads":8,"tails":2,"studentIndex":8,"studentTrueHypers":{"a":4,"b":1},"studentGuess":0.8,"delta":0,"totalExamples":10,"bonus":0.4,"bonusSoFar":1.36},{"rt":null,"stimulus":"Sending examples to student... ","response":null,"trial_type":"html-keyboard-response","trial_index":73,"time_elapsed":617876,"internal_node_id":"0.0-72.0","params":{"nStudents":24,"maxFlips":30,"completionMinutes":45,"basePay":8,"maxBonus":9,"perTrialBonus":0.5,"perTrialBonusThreshold":0.05,"exampleCost":0.01},"classroomParams":{"A":{"a":1,"b":4},"B":{"a":4,"b":1},"C":{"a":2,"b":8},"D":{"a":8,"b":2}},"conditions":["nonSeqFull","nonSeqPartial","seqNoFeedback","seqFeedback"],"classroomPairings":[["A","B"],["C","D"]],"coinWeights":[0.2,0.5,0.8],"subjectId":"A2ONILC0LZKG6Y","assignmentId":"3EA3QWIZ4JHN1VVI07HYF7RB77IITI","hitId":"363A7XIFV48LMLIF2CKYA8VQSVQAVR","url":"https://gershmanlab.com/experiments/alicia/teaching/experiment/?hitId=363A7XIFV48LMLIF2CKYA8VQSVQAVR&workerId=A2ONILC0LZKG6Y&assignmentId=3EA3QWIZ4JHN1VVI07HYF7RB77IITI&a=ZQAE9&tp_a=ZQAE9&b=3EA3QWIZ4JHN1VVI07HYF7RB77IITI&tp_b=3EA3QWIZ4JHN1VVI07HYF7RB77IITI&c=365799&tp_c=365799"},{"rt":null,"stimulus":"Examples sent to student! Waiting for student...","response":null,"trial_type":"html-keyboard-response","trial_index":74,"time_elapsed":623387,"internal_node_id":"0.0-73.0","params":{"nStudents":24,"maxFlips":30,"completionMinutes":45,"basePay":8,"maxBonus":9,"perTrialBonus":0.5,"perTrialBonusThreshold":0.05,"exampleCost":0.01},"classroomParams":{"A":{"a":1,"b":4},"B":{"a":4,"b":1},"C":{"a":2,"b":8},"D":{"a":8,"b":2}},"conditions":["nonSeqFull","nonSeqPartial","seqNoFeedback","seqFeedback"],"classroomPairings":[["A","B"],["C","D"]],"coinWeights":[0.2,0.5,0.8],"subjectId":"A2ONILC0LZKG6Y","assignmentId":"3EA3QWIZ4JHN1VVI07HYF7RB77IITI","hitId":"363A7XIFV48LMLIF2CKYA8VQSVQAVR","url":"https://gershmanlab.com/experiments/alicia/teaching/experiment/?hitId=363A7XIFV48LMLIF2CKYA8VQSVQAVR&workerId=A2ONILC0LZKG6Y&assignmentId=3EA3QWIZ4JHN1VVI07HYF7RB77IITI&a=ZQAE9&tp_a=ZQAE9&b=3EA3QWIZ4JHN1VVI07HYF7RB77IITI&tp_b=3EA3QWIZ4JHN1VVI07HYF7RB77IITI&c=365799&tp_c=365799"},{"rt":1815,"stimulus":"\n                <p>Student's guess for coin weight: <b style=\"color:Tomato;\">0.80</b></p>\n                <p>You received a bonus of <b>$0.4</b>. Total bonus so far: <b>$1.36</b></b></p>\n                <p></p>\n                <p>Press any key to continue.</p>\n                ","response":"arrowdown","trial_type":"html-keyboard-response","trial_index":75,"time_elapsed":625204,"internal_node_id":"0.0-74.0","params":{"nStudents":24,"maxFlips":30,"completionMinutes":45,"basePay":8,"maxBonus":9,"perTrialBonus":0.5,"perTrialBonusThreshold":0.05,"exampleCost":0.01},"classroomParams":{"A":{"a":1,"b":4},"B":{"a":4,"b":1},"C":{"a":2,"b":8},"D":{"a":8,"b":2}},"conditions":["nonSeqFull","nonSeqPartial","seqNoFeedback","seqFeedback"],"classroomPairings":[["A","B"],["C","D"]],"coinWeights":[0.2,0.5,0.8],"subjectId":"A2ONILC0LZKG6Y","assignmentId":"3EA3QWIZ4JHN1VVI07HYF7RB77IITI","hitId":"363A7XIFV48LMLIF2CKYA8VQSVQAVR","url":"https://gershmanlab.com/experiments/alicia/teaching/experiment/?hitId=363A7XIFV48LMLIF2CKYA8VQSVQAVR&workerId=A2ONILC0LZKG6Y&assignmentId=3EA3QWIZ4JHN1VVI07HYF7RB77IITI&a=ZQAE9&tp_a=ZQAE9&b=3EA3QWIZ4JHN1VVI07HYF7RB77IITI&tp_b=3EA3QWIZ4JHN1VVI07HYF7RB77IITI&c=365799&tp_c=365799"},{"rt":null,"stimulus":"<div style=\"font-size:60px;\">Next student</div>","response":null,"trial_type":"html-keyboard-response","trial_index":76,"time_elapsed":627457,"internal_node_id":"0.0-75.0-0.0","params":{"nStudents":24,"maxFlips":30,"completionMinutes":45,"basePay":8,"maxBonus":9,"perTrialBonus":0.5,"perTrialBonusThreshold":0.05,"exampleCost":0.01},"classroomParams":{"A":{"a":1,"b":4},"B":{"a":4,"b":1},"C":{"a":2,"b":8},"D":{"a":8,"b":2}},"conditions":["nonSeqFull","nonSeqPartial","seqNoFeedback","seqFeedback"],"classroomPairings":[["A","B"],["C","D"]],"coinWeights":[0.2,0.5,0.8],"subjectId":"A2ONILC0LZKG6Y","assignmentId":"3EA3QWIZ4JHN1VVI07HYF7RB77IITI","hitId":"363A7XIFV48LMLIF2CKYA8VQSVQAVR","url":"https://gershmanlab.com/experiments/alicia/teaching/experiment/?hitId=363A7XIFV48LMLIF2CKYA8VQSVQAVR&workerId=A2ONILC0LZKG6Y&assignmentId=3EA3QWIZ4JHN1VVI07HYF7RB77IITI&a=ZQAE9&tp_a=ZQAE9&b=3EA3QWIZ4JHN1VVI07HYF7RB77IITI&tp_b=3EA3QWIZ4JHN1VVI07HYF7RB77IITI&c=365799&tp_c=365799"},{"rt":1750,"stimulus":"\n            <h4 style=\"color:Orange;\">Student 10</h4>\n            <h2>The weight of your coin is <b style=\"color:Tomato;\">0.2</b>.</h2>\n            <p>In this block, you will be giving <b>one</b> set of examples to Student 10.</p>\n                <p>You will receive feedback at the end of the block.</p>\n            <p></p>","response":0,"trial_type":"html-button-response","trial_index":77,"time_elapsed":629208,"internal_node_id":"0.0-76.0","params":{"nStudents":24,"maxFlips":30,"completionMinutes":45,"basePay":8,"maxBonus":9,"perTrialBonus":0.5,"perTrialBonusThreshold":0.05,"exampleCost":0.01},"classroomParams":{"A":{"a":1,"b":4},"B":{"a":4,"b":1},"C":{"a":2,"b":8},"D":{"a":8,"b":2}},"conditions":["nonSeqFull","nonSeqPartial","seqNoFeedback","seqFeedback"],"classroomPairings":[["A","B"],["C","D"]],"coinWeights":[0.2,0.5,0.8],"subjectId":"A2ONILC0LZKG6Y","assignmentId":"3EA3QWIZ4JHN1VVI07HYF7RB77IITI","hitId":"363A7XIFV48LMLIF2CKYA8VQSVQAVR","url":"https://gershmanlab.com/experiments/alicia/teaching/experiment/?hitId=363A7XIFV48LMLIF2CKYA8VQSVQAVR&workerId=A2ONILC0LZKG6Y&assignmentId=3EA3QWIZ4JHN1VVI07HYF7RB77IITI&a=ZQAE9&tp_a=ZQAE9&b=3EA3QWIZ4JHN1VVI07HYF7RB77IITI&tp_b=3EA3QWIZ4JHN1VVI07HYF7RB77IITI&c=365799&tp_c=365799"},{"rt":26317,"response":{"heads":"2","tails":"10"},"type":"response","condition":"nonSeqPartial","trueTheta":0.2,"classrooms":["A","B"],"studentTrueClassroom":"A","exampleSet":"first","trial_type":"survey-html-form","trial_index":78,"time_elapsed":655527,"internal_node_id":"0.0-77.0-0.0","params":{"nStudents":24,"maxFlips":30,"completionMinutes":45,"basePay":8,"maxBonus":9,"perTrialBonus":0.5,"perTrialBonusThreshold":0.05,"exampleCost":0.01},"classroomParams":{"A":{"a":1,"b":4},"B":{"a":4,"b":1},"C":{"a":2,"b":8},"D":{"a":8,"b":2}},"conditions":["nonSeqFull","nonSeqPartial","seqNoFeedback","seqFeedback"],"classroomPairings":[["A","B"],["C","D"]],"coinWeights":[0.2,0.5,0.8],"subjectId":"A2ONILC0LZKG6Y","assignmentId":"3EA3QWIZ4JHN1VVI07HYF7RB77IITI","hitId":"363A7XIFV48LMLIF2CKYA8VQSVQAVR","url":"https://gershmanlab.com/experiments/alicia/teaching/experiment/?hitId=363A7XIFV48LMLIF2CKYA8VQSVQAVR&workerId=A2ONILC0LZKG6Y&assignmentId=3EA3QWIZ4JHN1VVI07HYF7RB77IITI&a=ZQAE9&tp_a=ZQAE9&b=3EA3QWIZ4JHN1VVI07HYF7RB77IITI&tp_b=3EA3QWIZ4JHN1VVI07HYF7RB77IITI&c=365799&tp_c=365799","heads":2,"tails":10,"studentIndex":9,"studentTrueHypers":{"a":1,"b":4},"studentGuess":0.17647058823529413,"delta":0.023529411764705882,"totalExamples":12,"bonus":0.38,"bonusSoFar":1.74},{"rt":null,"stimulus":"Sending examples to student... ","response":null,"trial_type":"html-keyboard-response","trial_index":79,"time_elapsed":657286,"internal_node_id":"0.0-78.0","params":{"nStudents":24,"maxFlips":30,"completionMinutes":45,"basePay":8,"maxBonus":9,"perTrialBonus":0.5,"perTrialBonusThreshold":0.05,"exampleCost":0.01},"classroomParams":{"A":{"a":1,"b":4},"B":{"a":4,"b":1},"C":{"a":2,"b":8},"D":{"a":8,"b":2}},"conditions":["nonSeqFull","nonSeqPartial","seqNoFeedback","seqFeedback"],"classroomPairings":[["A","B"],["C","D"]],"coinWeights":[0.2,0.5,0.8],"subjectId":"A2ONILC0LZKG6Y","assignmentId":"3EA3QWIZ4JHN1VVI07HYF7RB77IITI","hitId":"363A7XIFV48LMLIF2CKYA8VQSVQAVR","url":"https://gershmanlab.com/experiments/alicia/teaching/experiment/?hitId=363A7XIFV48LMLIF2CKYA8VQSVQAVR&workerId=A2ONILC0LZKG6Y&assignmentId=3EA3QWIZ4JHN1VVI07HYF7RB77IITI&a=ZQAE9&tp_a=ZQAE9&b=3EA3QWIZ4JHN1VVI07HYF7RB77IITI&tp_b=3EA3QWIZ4JHN1VVI07HYF7RB77IITI&c=365799&tp_c=365799"},{"rt":null,"stimulus":"Examples sent to student! Waiting for student...","response":null,"trial_type":"html-keyboard-response","trial_index":80,"time_elapsed":662292,"internal_node_id":"0.0-79.0","params":{"nStudents":24,"maxFlips":30,"completionMinutes":45,"basePay":8,"maxBonus":9,"perTrialBonus":0.5,"perTrialBonusThreshold":0.05,"exampleCost":0.01},"classroomParams":{"A":{"a":1,"b":4},"B":{"a":4,"b":1},"C":{"a":2,"b":8},"D":{"a":8,"b":2}},"conditions":["nonSeqFull","nonSeqPartial","seqNoFeedback","seqFeedback"],"classroomPairings":[["A","B"],["C","D"]],"coinWeights":[0.2,0.5,0.8],"subjectId":"A2ONILC0LZKG6Y","assignmentId":"3EA3QWIZ4JHN1VVI07HYF7RB77IITI","hitId":"363A7XIFV48LMLIF2CKYA8VQSVQAVR","url":"https://gershmanlab.com/experiments/alicia/teaching/experiment/?hitId=363A7XIFV48LMLIF2CKYA8VQSVQAVR&workerId=A2ONILC0LZKG6Y&assignmentId=3EA3QWIZ4JHN1VVI07HYF7RB77IITI&a=ZQAE9&tp_a=ZQAE9&b=3EA3QWIZ4JHN1VVI07HYF7RB77IITI&tp_b=3EA3QWIZ4JHN1VVI07HYF7RB77IITI&c=365799&tp_c=365799"},{"rt":2853,"stimulus":"\n                <p>Student's guess for coin weight: <b style=\"color:Tomato;\">0.18</b></p>\n                <p>You received a bonus of <b>$0.38</b>. Total bonus so far: <b>$1.74</b></b></p>\n                <p></p>\n                <p>Press any key to continue.</p>\n                ","response":"arrowright","trial_type":"html-keyboard-response","trial_index":81,"time_elapsed":665146,"internal_node_id":"0.0-80.0","params":{"nStudents":24,"maxFlips":30,"completionMinutes":45,"basePay":8,"maxBonus":9,"perTrialBonus":0.5,"perTrialBonusThreshold":0.05,"exampleCost":0.01},"classroomParams":{"A":{"a":1,"b":4},"B":{"a":4,"b":1},"C":{"a":2,"b":8},"D":{"a":8,"b":2}},"conditions":["nonSeqFull","nonSeqPartial","seqNoFeedback","seqFeedback"],"classroomPairings":[["A","B"],["C","D"]],"coinWeights":[0.2,0.5,0.8],"subjectId":"A2ONILC0LZKG6Y","assignmentId":"3EA3QWIZ4JHN1VVI07HYF7RB77IITI","hitId":"363A7XIFV48LMLIF2CKYA8VQSVQAVR","url":"https://gershmanlab.com/experiments/alicia/teaching/experiment/?hitId=363A7XIFV48LMLIF2CKYA8VQSVQAVR&workerId=A2ONILC0LZKG6Y&assignmentId=3EA3QWIZ4JHN1VVI07HYF7RB77IITI&a=ZQAE9&tp_a=ZQAE9&b=3EA3QWIZ4JHN1VVI07HYF7RB77IITI&tp_b=3EA3QWIZ4JHN1VVI07HYF7RB77IITI&c=365799&tp_c=365799"},{"rt":null,"stimulus":"<div style=\"font-size:60px;\">Next student</div>","response":null,"trial_type":"html-keyboard-response","trial_index":82,"time_elapsed":667660,"internal_node_id":"0.0-81.0-0.0","params":{"nStudents":24,"maxFlips":30,"completionMinutes":45,"basePay":8,"maxBonus":9,"perTrialBonus":0.5,"perTrialBonusThreshold":0.05,"exampleCost":0.01},"classroomParams":{"A":{"a":1,"b":4},"B":{"a":4,"b":1},"C":{"a":2,"b":8},"D":{"a":8,"b":2}},"conditions":["nonSeqFull","nonSeqPartial","seqNoFeedback","seqFeedback"],"classroomPairings":[["A","B"],["C","D"]],"coinWeights":[0.2,0.5,0.8],"subjectId":"A2ONILC0LZKG6Y","assignmentId":"3EA3QWIZ4JHN1VVI07HYF7RB77IITI","hitId":"363A7XIFV48LMLIF2CKYA8VQSVQAVR","url":"https://gershmanlab.com/experiments/alicia/teaching/experiment/?hitId=363A7XIFV48LMLIF2CKYA8VQSVQAVR&workerId=A2ONILC0LZKG6Y&assignmentId=3EA3QWIZ4JHN1VVI07HYF7RB77IITI&a=ZQAE9&tp_a=ZQAE9&b=3EA3QWIZ4JHN1VVI07HYF7RB77IITI&tp_b=3EA3QWIZ4JHN1VVI07HYF7RB77IITI&c=365799&tp_c=365799"},{"rt":3814,"stimulus":"\n            <h4 style=\"color:Orange;\">Student 11</h4>\n            <h2>The weight of your coin is <b style=\"color:Tomato;\">0.5</b>.</h2>\n            <p>In this block, you will be giving <b>two</b> sets of examples to Student 11.</p>\n                <p>You will see the student's guess after the first set of examples. You will also receive feedback at the end of the block.</p>\n            <p>To earn the highest bonus, you will have to <b>take into consideration the student's guess</b> when you choose your second set of examples.</p>","response":0,"trial_type":"html-button-response","trial_index":83,"time_elapsed":671477,"internal_node_id":"0.0-82.0","params":{"nStudents":24,"maxFlips":30,"completionMinutes":45,"basePay":8,"maxBonus":9,"perTrialBonus":0.5,"perTrialBonusThreshold":0.05,"exampleCost":0.01},"classroomParams":{"A":{"a":1,"b":4},"B":{"a":4,"b":1},"C":{"a":2,"b":8},"D":{"a":8,"b":2}},"conditions":["nonSeqFull","nonSeqPartial","seqNoFeedback","seqFeedback"],"classroomPairings":[["A","B"],["C","D"]],"coinWeights":[0.2,0.5,0.8],"subjectId":"A2ONILC0LZKG6Y","assignmentId":"3EA3QWIZ4JHN1VVI07HYF7RB77IITI","hitId":"363A7XIFV48LMLIF2CKYA8VQSVQAVR","url":"https://gershmanlab.com/experiments/alicia/teaching/experiment/?hitId=363A7XIFV48LMLIF2CKYA8VQSVQAVR&workerId=A2ONILC0LZKG6Y&assignmentId=3EA3QWIZ4JHN1VVI07HYF7RB77IITI&a=ZQAE9&tp_a=ZQAE9&b=3EA3QWIZ4JHN1VVI07HYF7RB77IITI&tp_b=3EA3QWIZ4JHN1VVI07HYF7RB77IITI&c=365799&tp_c=365799"},{"rt":9082,"response":{"heads":"5","tails":"5"},"type":"response","condition":"seqFeedback","trueTheta":0.5,"classrooms":["C","D"],"studentTrueClassroom":"C","exampleSet":"first","trial_type":"survey-html-form","trial_index":84,"time_elapsed":680562,"internal_node_id":"0.0-83.0-0.0","params":{"nStudents":24,"maxFlips":30,"completionMinutes":45,"basePay":8,"maxBonus":9,"perTrialBonus":0.5,"perTrialBonusThreshold":0.05,"exampleCost":0.01},"classroomParams":{"A":{"a":1,"b":4},"B":{"a":4,"b":1},"C":{"a":2,"b":8},"D":{"a":8,"b":2}},"conditions":["nonSeqFull","nonSeqPartial","seqNoFeedback","seqFeedback"],"classroomPairings":[["A","B"],["C","D"]],"coinWeights":[0.2,0.5,0.8],"subjectId":"A2ONILC0LZKG6Y","assignmentId":"3EA3QWIZ4JHN1VVI07HYF7RB77IITI","hitId":"363A7XIFV48LMLIF2CKYA8VQSVQAVR","url":"https://gershmanlab.com/experiments/alicia/teaching/experiment/?hitId=363A7XIFV48LMLIF2CKYA8VQSVQAVR&workerId=A2ONILC0LZKG6Y&assignmentId=3EA3QWIZ4JHN1VVI07HYF7RB77IITI&a=ZQAE9&tp_a=ZQAE9&b=3EA3QWIZ4JHN1VVI07HYF7RB77IITI&tp_b=3EA3QWIZ4JHN1VVI07HYF7RB77IITI&c=365799&tp_c=365799","heads":5,"tails":5,"studentIndex":10,"studentTrueHypers":{"a":2,"b":8},"studentGuess":0.35,"delta":0.15000000000000002,"totalExamples":10,"bonusSoFar":1.74},{"rt":null,"stimulus":"Sending examples to student... ","response":null,"trial_type":"html-keyboard-response","trial_index":85,"time_elapsed":682072,"internal_node_id":"0.0-84.0","params":{"nStudents":24,"maxFlips":30,"completionMinutes":45,"basePay":8,"maxBonus":9,"perTrialBonus":0.5,"perTrialBonusThreshold":0.05,"exampleCost":0.01},"classroomParams":{"A":{"a":1,"b":4},"B":{"a":4,"b":1},"C":{"a":2,"b":8},"D":{"a":8,"b":2}},"conditions":["nonSeqFull","nonSeqPa