[{"rt":2604,"stimulus":"Welcome to the experiment. Press any key to begin.","response":"s","trial_type":"html-keyboard-response","trial_index":0,"time_elapsed":2622,"internal_node_id":"0.0-0.0","params":{"nStudents":24,"maxFlips":30,"completionMinutes":45,"basePay":8,"maxBonus":9,"perTrialBonus":0.5,"perTrialBonusThreshold":0.05,"exampleCost":0.01},"classroomParams":{"A":{"a":1,"b":4},"B":{"a":4,"b":1},"C":{"a":2,"b":8},"D":{"a":8,"b":2}},"conditions":["nonSeqFull","nonSeqPartial","seqNoFeedback","seqFeedback"],"classroomPairings":[["A","B"],["C","D"]],"coinWeights":[0.2,0.5,0.8],"subjectId":"A2PPTQXFVA9H38","assignmentId":"3ERMJ6L4DZEMZGO28JCP246AZIR7MP","hitId":"34XASH8KLQ89J2U8D314D7180O4PMV","url":"https://gershmanlab.com/experiments/alicia/teaching/experiment/?hitId=34XASH8KLQ89J2U8D314D7180O4PMV&workerId=A2PPTQXFVA9H38&assignmentId=3ERMJ6L4DZEMZGO28JCP246AZIR7MP&a=4JRE7&tp_a=4JRE7&b=3ERMJ6L4DZEMZGO28JCP246AZIR7MP&tp_b=3ERMJ6L4DZEMZGO28JCP246AZIR7MP&c=365717&tp_c=365717"},{"rt":4683,"stimulus":"\n        <h3>Please read this consent agreement carefully before deciding whether to participate in this experiment.</h3>\n        <p><b>Purpose of the research:</b> To examine how people teach effectively.</p>\n        <p><b>What you will do in this research:</b> You will teach students the weights of different coins.</p>\n        <p><b>Time required:</b> This experiment will take 45 minutes to complete.</p>\n        <p><b>Risks:</b> There are no anticipated risks associated with participating in this study.             The effects of participating should be comparable to those you would experience from viewing a computer monitor             and using a mouse and keyboard for the duration of the experiment.</p>\n        <p><b>Benefits:</b> The study provides important information about the nature of teaching.</p>\n        <p><b>Compensation:</b> You will receive <b>$8</b> for completing the experiment and a performance bonus of up to <b>$9</b>.</p>\n        <p><b>Confidentiality:</b> Your participation in this study will remain confidential.             No personally identifiable information will be associated with your data.             Your de-identified data may be shared with other researchers and used in future projects.</p>\n        <p><b>Participation and withdrawal:</b> Your participation in this study is completely voluntary and             you may refuse to participate or you may choose to withdraw at any time without penalty or loss of\n            benefits to which you are otherwise entitled.</p>\n        <p><b>How to contact the researcher:</b> If you have questions or concerns about your participation            or payment, or want to request a summary of research findings, please contact\n            Alicia Chen, aliciachen@college.harvard.edu.</p>\n        <p><b>Whom to contact about your rights in this research:</b> For questions, concerns, suggestions,             or complaints that have not been or cannot be addressed by the researcher, or to report             research-related harm, please contact the Committee on the Use of Human Subjects in Research at Harvard University,             1414 Massachusetts Avenue, Second Floor, Cambridge, MA 02138. Phone: 617-496-2847. Email: cuhs@fas.harvard.edu.</p>\n        ","response":0,"trial_type":"html-button-response","trial_index":1,"time_elapsed":7307,"internal_node_id":"0.0-1.0","params":{"nStudents":24,"maxFlips":30,"completionMinutes":45,"basePay":8,"maxBonus":9,"perTrialBonus":0.5,"perTrialBonusThreshold":0.05,"exampleCost":0.01},"classroomParams":{"A":{"a":1,"b":4},"B":{"a":4,"b":1},"C":{"a":2,"b":8},"D":{"a":8,"b":2}},"conditions":["nonSeqFull","nonSeqPartial","seqNoFeedback","seqFeedback"],"classroomPairings":[["A","B"],["C","D"]],"coinWeights":[0.2,0.5,0.8],"subjectId":"A2PPTQXFVA9H38","assignmentId":"3ERMJ6L4DZEMZGO28JCP246AZIR7MP","hitId":"34XASH8KLQ89J2U8D314D7180O4PMV","url":"https://gershmanlab.com/experiments/alicia/teaching/experiment/?hitId=34XASH8KLQ89J2U8D314D7180O4PMV&workerId=A2PPTQXFVA9H38&assignmentId=3ERMJ6L4DZEMZGO28JCP246AZIR7MP&a=4JRE7&tp_a=4JRE7&b=3ERMJ6L4DZEMZGO28JCP246AZIR7MP&tp_b=3ERMJ6L4DZEMZGO28JCP246AZIR7MP&c=365717&tp_c=365717"},{"view_history":[{"page_index":0,"viewing_time":3677},{"page_index":1,"viewing_time":11300},{"page_index":2,"viewing_time":12472},{"page_index":3,"viewing_time":10977},{"page_index":4,"viewing_time":8017},{"page_index":5,"viewing_time":48844},{"page_index":6,"viewing_time":18084}],"rt":113370,"trial_type":"instructions","trial_index":2,"time_elapsed":120678,"internal_node_id":"0.0-2.0-0.0","params":{"nStudents":24,"maxFlips":30,"completionMinutes":45,"basePay":8,"maxBonus":9,"perTrialBonus":0.5,"perTrialBonusThreshold":0.05,"exampleCost":0.01},"classroomParams":{"A":{"a":1,"b":4},"B":{"a":4,"b":1},"C":{"a":2,"b":8},"D":{"a":8,"b":2}},"conditions":["nonSeqFull","nonSeqPartial","seqNoFeedback","seqFeedback"],"classroomPairings":[["A","B"],["C","D"]],"coinWeights":[0.2,0.5,0.8],"subjectId":"A2PPTQXFVA9H38","assignmentId":"3ERMJ6L4DZEMZGO28JCP246AZIR7MP","hitId":"34XASH8KLQ89J2U8D314D7180O4PMV","url":"https://gershmanlab.com/experiments/alicia/teaching/experiment/?hitId=34XASH8KLQ89J2U8D314D7180O4PMV&workerId=A2PPTQXFVA9H38&assignmentId=3ERMJ6L4DZEMZGO28JCP246AZIR7MP&a=4JRE7&tp_a=4JRE7&b=3ERMJ6L4DZEMZGO28JCP246AZIR7MP&tp_b=3ERMJ6L4DZEMZGO28JCP246AZIR7MP&c=365717&tp_c=365717"},{"rt":224698,"response":{"Q0":"Students in different classrooms have seen a different proportion of fair and unfair coins before seeing the examples you select for them.","Q1":"By <b>considering the student's classroom information</b> so that I can teach efficiently and accurately/helpfully at the same time (because each example I give to the student costs money!).","Q2":"The coin lands heads 90% of the time.","Q3":"No, I will teach a <b>new</b> student each time.","Q4":"The students are also on the same alien planet as you, where coins can be unfair.","Q5":"Based on the student's second (and final) guess."},"question_order":[1,3,2,0,4,5],"trial_type":"survey-multi-choice","trial_index":3,"time_elapsed":345377,"internal_node_id":"0.0-2.0-1.0","params":{"nStudents":24,"maxFlips":30,"completionMinutes":45,"basePay":8,"maxBonus":9,"perTrialBonus":0.5,"perTrialBonusThreshold":0.05,"exampleCost":0.01},"classroomParams":{"A":{"a":1,"b":4},"B":{"a":4,"b":1},"C":{"a":2,"b":8},"D":{"a":8,"b":2}},"conditions":["nonSeqFull","nonSeqPartial","seqNoFeedback","seqFeedback"],"classroomPairings":[["A","B"],["C","D"]],"coinWeights":[0.2,0.5,0.8],"subjectId":"A2PPTQXFVA9H38","assignmentId":"3ERMJ6L4DZEMZGO28JCP246AZIR7MP","hitId":"34XASH8KLQ89J2U8D314D7180O4PMV","url":"https://gershmanlab.com/experiments/alicia/teaching/experiment/?hitId=34XASH8KLQ89J2U8D314D7180O4PMV&workerId=A2PPTQXFVA9H38&assignmentId=3ERMJ6L4DZEMZGO28JCP246AZIR7MP&a=4JRE7&tp_a=4JRE7&b=3ERMJ6L4DZEMZGO28JCP246AZIR7MP&tp_b=3ERMJ6L4DZEMZGO28JCP246AZIR7MP&c=365717&tp_c=365717","pass":false},{"rt":1844,"stimulus":"Oops, you have missed question(s) on the comprehension check! We'll show you the instructions again.","response":0,"trial_type":"html-button-response","trial_index":4,"time_elapsed":347227,"internal_node_id":"0.0-2.0-2.0-0.0","params":{"nStudents":24,"maxFlips":30,"completionMinutes":45,"basePay":8,"maxBonus":9,"perTrialBonus":0.5,"perTrialBonusThreshold":0.05,"exampleCost":0.01},"classroomParams":{"A":{"a":1,"b":4},"B":{"a":4,"b":1},"C":{"a":2,"b":8},"D":{"a":8,"b":2}},"conditions":["nonSeqFull","nonSeqPartial","seqNoFeedback","seqFeedback"],"classroomPairings":[["A","B"],["C","D"]],"coinWeights":[0.2,0.5,0.8],"subjectId":"A2PPTQXFVA9H38","assignmentId":"3ERMJ6L4DZEMZGO28JCP246AZIR7MP","hitId":"34XASH8KLQ89J2U8D314D7180O4PMV","url":"https://gershmanlab.com/experiments/alicia/teaching/experiment/?hitId=34XASH8KLQ89J2U8D314D7180O4PMV&workerId=A2PPTQXFVA9H38&assignmentId=3ERMJ6L4DZEMZGO28JCP246AZIR7MP&a=4JRE7&tp_a=4JRE7&b=3ERMJ6L4DZEMZGO28JCP246AZIR7MP&tp_b=3ERMJ6L4DZEMZGO28JCP246AZIR7MP&c=365717&tp_c=365717"},{"view_history":[{"page_index":0,"viewing_time":1052},{"page_index":1,"viewing_time":436},{"page_index":2,"viewing_time":793},{"page_index":3,"viewing_time":575},{"page_index":4,"viewing_time":979},{"page_index":5,"viewing_time":736},{"page_index":6,"viewing_time":842}],"rt":5412,"trial_type":"instructions","trial_index":5,"time_elapsed":352640,"internal_node_id":"0.0-2.1-0.1","params":{"nStudents":24,"maxFlips":30,"completionMinutes":45,"basePay":8,"maxBonus":9,"perTrialBonus":0.5,"perTrialBonusThreshold":0.05,"exampleCost":0.01},"classroomParams":{"A":{"a":1,"b":4},"B":{"a":4,"b":1},"C":{"a":2,"b":8},"D":{"a":8,"b":2}},"conditions":["nonSeqFull","nonSeqPartial","seqNoFeedback","seqFeedback"],"classroomPairings":[["A","B"],["C","D"]],"coinWeights":[0.2,0.5,0.8],"subjectId":"A2PPTQXFVA9H38","assignmentId":"3ERMJ6L4DZEMZGO28JCP246AZIR7MP","hitId":"34XASH8KLQ89J2U8D314D7180O4PMV","url":"https://gershmanlab.com/experiments/alicia/teaching/experiment/?hitId=34XASH8KLQ89J2U8D314D7180O4PMV&workerId=A2PPTQXFVA9H38&assignmentId=3ERMJ6L4DZEMZGO28JCP246AZIR7MP&a=4JRE7&tp_a=4JRE7&b=3ERMJ6L4DZEMZGO28JCP246AZIR7MP&tp_b=3ERMJ6L4DZEMZGO28JCP246AZIR7MP&c=365717&tp_c=365717"},{"rt":63525,"response":{"Q0":"Students in different classrooms will have seen a different number of heads and tails before seeing the examples you select for them.","Q1":"By <b>considering the student's classroom information</b> so that I can teach efficiently and accurately/helpfully at the same time (because each example I give to the student costs money!).","Q2":"The coin lands heads 90% of the time.","Q3":"No, I will teach a <b>new</b> student each time.","Q4":"The students are also on the same alien planet as you, where coins can be unfair.","Q5":"Based on the student's second (and final) guess."},"question_order":[0,5,4,3,1,2],"trial_type":"survey-multi-choice","trial_index":6,"time_elapsed":416167,"internal_node_id":"0.0-2.1-1.1","params":{"nStudents":24,"maxFlips":30,"completionMinutes":45,"basePay":8,"maxBonus":9,"perTrialBonus":0.5,"perTrialBonusThreshold":0.05,"exampleCost":0.01},"classroomParams":{"A":{"a":1,"b":4},"B":{"a":4,"b":1},"C":{"a":2,"b":8},"D":{"a":8,"b":2}},"conditions":["nonSeqFull","nonSeqPartial","seqNoFeedback","seqFeedback"],"classroomPairings":[["A","B"],["C","D"]],"coinWeights":[0.2,0.5,0.8],"subjectId":"A2PPTQXFVA9H38","assignmentId":"3ERMJ6L4DZEMZGO28JCP246AZIR7MP","hitId":"34XASH8KLQ89J2U8D314D7180O4PMV","url":"https://gershmanlab.com/experiments/alicia/teaching/experiment/?hitId=34XASH8KLQ89J2U8D314D7180O4PMV&workerId=A2PPTQXFVA9H38&assignmentId=3ERMJ6L4DZEMZGO28JCP246AZIR7MP&a=4JRE7&tp_a=4JRE7&b=3ERMJ6L4DZEMZGO28JCP246AZIR7MP&tp_b=3ERMJ6L4DZEMZGO28JCP246AZIR7MP&c=365717&tp_c=365717","pass":true},{"rt":null,"stimulus":"<div style=\"font-size:30px;\">Congrats on passing the comprehension quiz! The experiment will begin in a few seconds.</div>","response":null,"trial_type":"html-keyboard-response","trial_index":7,"time_elapsed":419173,"internal_node_id":"0.0-3.0","params":{"nStudents":24,"maxFlips":30,"completionMinutes":45,"basePay":8,"maxBonus":9,"perTrialBonus":0.5,"perTrialBonusThreshold":0.05,"exampleCost":0.01},"classroomParams":{"A":{"a":1,"b":4},"B":{"a":4,"b":1},"C":{"a":2,"b":8},"D":{"a":8,"b":2}},"conditions":["nonSeqFull","nonSeqPartial","seqNoFeedback","seqFeedback"],"classroomPairings":[["A","B"],["C","D"]],"coinWeights":[0.2,0.5,0.8],"subjectId":"A2PPTQXFVA9H38","assignmentId":"3ERMJ6L4DZEMZGO28JCP246AZIR7MP","hitId":"34XASH8KLQ89J2U8D314D7180O4PMV","url":"https://gershmanlab.com/experiments/alicia/teaching/experiment/?hitId=34XASH8KLQ89J2U8D314D7180O4PMV&workerId=A2PPTQXFVA9H38&assignmentId=3ERMJ6L4DZEMZGO28JCP246AZIR7MP&a=4JRE7&tp_a=4JRE7&b=3ERMJ6L4DZEMZGO28JCP246AZIR7MP&tp_b=3ERMJ6L4DZEMZGO28JCP246AZIR7MP&c=365717&tp_c=365717"},{"rt":null,"stimulus":"<div style=\"font-size:50px;\">First student</div>","response":null,"trial_type":"html-keyboard-response","trial_index":8,"time_elapsed":422190,"internal_node_id":"0.0-4.0","params":{"nStudents":24,"maxFlips":30,"completionMinutes":45,"basePay":8,"maxBonus":9,"perTrialBonus":0.5,"perTrialBonusThreshold":0.05,"exampleCost":0.01},"classroomParams":{"A":{"a":1,"b":4},"B":{"a":4,"b":1},"C":{"a":2,"b":8},"D":{"a":8,"b":2}},"conditions":["nonSeqFull","nonSeqPartial","seqNoFeedback","seqFeedback"],"classroomPairings":[["A","B"],["C","D"]],"coinWeights":[0.2,0.5,0.8],"subjectId":"A2PPTQXFVA9H38","assignmentId":"3ERMJ6L4DZEMZGO28JCP246AZIR7MP","hitId":"34XASH8KLQ89J2U8D314D7180O4PMV","url":"https://gershmanlab.com/experiments/alicia/teaching/experiment/?hitId=34XASH8KLQ89J2U8D314D7180O4PMV&workerId=A2PPTQXFVA9H38&assignmentId=3ERMJ6L4DZEMZGO28JCP246AZIR7MP&a=4JRE7&tp_a=4JRE7&b=3ERMJ6L4DZEMZGO28JCP246AZIR7MP&tp_b=3ERMJ6L4DZEMZGO28JCP246AZIR7MP&c=365717&tp_c=365717"},{"rt":9890,"stimulus":"\n            <h4 style=\"color:Orange;\">Student 1</h4>\n            <h2>The weight of your coin is <b style=\"color:Tomato;\">0.5</b>.</h2>\n            <p>In this block, you will be giving <b>two</b> sets of examples to Student 1.</p>\n                <p>You will see the student's guess after the first set of examples. You will also receive feedback at the end of the block.</p>\n            <p>To earn the highest bonus, you will have to <b>take into consideration the student's guess</b> when you choose your second set of examples.</p>","response":0,"trial_type":"html-button-response","trial_index":9,"time_elapsed":432082,"internal_node_id":"0.0-5.0","params":{"nStudents":24,"maxFlips":30,"completionMinutes":45,"basePay":8,"maxBonus":9,"perTrialBonus":0.5,"perTrialBonusThreshold":0.05,"exampleCost":0.01},"classroomParams":{"A":{"a":1,"b":4},"B":{"a":4,"b":1},"C":{"a":2,"b":8},"D":{"a":8,"b":2}},"conditions":["nonSeqFull","nonSeqPartial","seqNoFeedback","seqFeedback"],"classroomPairings":[["A","B"],["C","D"]],"coinWeights":[0.2,0.5,0.8],"subjectId":"A2PPTQXFVA9H38","assignmentId":"3ERMJ6L4DZEMZGO28JCP246AZIR7MP","hitId":"34XASH8KLQ89J2U8D314D7180O4PMV","url":"https://gershmanlab.com/experiments/alicia/teaching/experiment/?hitId=34XASH8KLQ89J2U8D314D7180O4PMV&workerId=A2PPTQXFVA9H38&assignmentId=3ERMJ6L4DZEMZGO28JCP246AZIR7MP&a=4JRE7&tp_a=4JRE7&b=3ERMJ6L4DZEMZGO28JCP246AZIR7MP&tp_b=3ERMJ6L4DZEMZGO28JCP246AZIR7MP&c=365717&tp_c=365717"},{"rt":94676,"response":{"heads":"15","tails":"15"},"type":"response","condition":"seqFeedback","trueTheta":0.5,"classrooms":["C","D"],"studentTrueClassroom":"D","exampleSet":"first","trial_type":"survey-html-form","trial_index":10,"time_elapsed":526759,"internal_node_id":"0.0-6.0-0.0","params":{"nStudents":24,"maxFlips":30,"completionMinutes":45,"basePay":8,"maxBonus":9,"perTrialBonus":0.5,"perTrialBonusThreshold":0.05,"exampleCost":0.01},"classroomParams":{"A":{"a":1,"b":4},"B":{"a":4,"b":1},"C":{"a":2,"b":8},"D":{"a":8,"b":2}},"conditions":["nonSeqFull","nonSeqPartial","seqNoFeedback","seqFeedback"],"classroomPairings":[["A","B"],["C","D"]],"coinWeights":[0.2,0.5,0.8],"subjectId":"A2PPTQXFVA9H38","assignmentId":"3ERMJ6L4DZEMZGO28JCP246AZIR7MP","hitId":"34XASH8KLQ89J2U8D314D7180O4PMV","url":"https://gershmanlab.com/experiments/alicia/teaching/experiment/?hitId=34XASH8KLQ89J2U8D314D7180O4PMV&workerId=A2PPTQXFVA9H38&assignmentId=3ERMJ6L4DZEMZGO28JCP246AZIR7MP&a=4JRE7&tp_a=4JRE7&b=3ERMJ6L4DZEMZGO28JCP246AZIR7MP&tp_b=3ERMJ6L4DZEMZGO28JCP246AZIR7MP&c=365717&tp_c=365717","heads":15,"tails":15,"studentIndex":0,"studentTrueHypers":{"a":8,"b":2},"studentGuess":0.575,"delta":0.07499999999999996,"totalExamples":30,"bonusSoFar":0},{"rt":null,"stimulus":"Sending examples to student... ","response":null,"trial_type":"html-keyboard-response","trial_index":11,"time_elapsed":528770,"internal_node_id":"0.0-7.0","params":{"nStudents":24,"maxFlips":30,"completionMinutes":45,"basePay":8,"maxBonus":9,"perTrialBonus":0.5,"perTrialBonusThreshold":0.05,"exampleCost":0.01},"classroomParams":{"A":{"a":1,"b":4},"B":{"a":4,"b":1},"C":{"a":2,"b":8},"D":{"a":8,"b":2}},"conditions":["nonSeqFull","nonSeqPartial","seqNoFeedback","seqFeedback"],"classroomPairings":[["A","B"],["C","D"]],"coinWeights":[0.2,0.5,0.8],"subjectId":"A2PPTQXFVA9H38","assignmentId":"3ERMJ6L4DZEMZGO28JCP246AZIR7MP","hitId":"34XASH8KLQ89J2U8D314D7180O4PMV","url":"https://gershmanlab.com/experiments/alicia/teaching/experiment/?hitId=34XASH8KLQ89J2U8D314D7180O4PMV&workerId=A2PPTQXFVA9H38&assignmentId=3ERMJ6L4DZEMZGO28JCP246AZIR7MP&a=4JRE7&tp_a=4JRE7&b=3ERMJ6L4DZEMZGO28JCP246AZIR7MP&tp_b=3ERMJ6L4DZEMZGO28JCP246AZIR7MP&c=365717&tp_c=365717"},{"rt":null,"stimulus":"Examples sent to student! Waiting for student...","response":null,"trial_type":"html-keyboard-response","trial_index":12,"time_elapsed":534770,"internal_node_id":"0.0-8.0","params":{"nStudents":24,"maxFlips":30,"completionMinutes":45,"basePay":8,"maxBonus":9,"perTrialBonus":0.5,"perTrialBonusThreshold":0.05,"exampleCost":0.01},"classroomParams":{"A":{"a":1,"b":4},"B":{"a":4,"b":1},"C":{"a":2,"b":8},"D":{"a":8,"b":2}},"conditions":["nonSeqFull","nonSeqPartial","seqNoFeedback","seqFeedback"],"classroomPairings":[["A","B"],["C","D"]],"coinWeights":[0.2,0.5,0.8],"subjectId":"A2PPTQXFVA9H38","assignmentId":"3ERMJ6L4DZEMZGO28JCP246AZIR7MP","hitId":"34XASH8KLQ89J2U8D314D7180O4PMV","url":"https://gershmanlab.com/experiments/alicia/teaching/experiment/?hitId=34XASH8KLQ89J2U8D314D7180O4PMV&workerId=A2PPTQXFVA9H38&assignmentId=3ERMJ6L4DZEMZGO28JCP246AZIR7MP&a=4JRE7&tp_a=4JRE7&b=3ERMJ6L4DZEMZGO28JCP246AZIR7MP&tp_b=3ERMJ6L4DZEMZGO28JCP246AZIR7MP&c=365717&tp_c=365717"},{"rt":11548,"stimulus":"\n                <p>Student's guess for coin weight: <b style=\"color:Tomato;\">0.57</b></p>\n                <p></b></p>\n                <p>You will now send another set of examples to your student. <b>Remember to take your student's guess into consideration so that you can earn the highest bonus possible!</b> </p>\n                <p>Press any key to continue.</p>\n                ","response":"s","trial_type":"html-keyboard-response","trial_index":13,"time_elapsed":546320,"internal_node_id":"0.0-9.0","params":{"nStudents":24,"maxFlips":30,"completionMinutes":45,"basePay":8,"maxBonus":9,"perTrialBonus":0.5,"perTrialBonusThreshold":0.05,"exampleCost":0.01},"classroomParams":{"A":{"a":1,"b":4},"B":{"a":4,"b":1},"C":{"a":2,"b":8},"D":{"a":8,"b":2}},"conditions":["nonSeqFull","nonSeqPartial","seqNoFeedback","seqFeedback"],"classroomPairings":[["A","B"],["C","D"]],"coinWeights":[0.2,0.5,0.8],"subjectId":"A2PPTQXFVA9H38","assignmentId":"3ERMJ6L4DZEMZGO28JCP246AZIR7MP","hitId":"34XASH8KLQ89J2U8D314D7180O4PMV","url":"https://gershmanlab.com/experiments/alicia/teaching/experiment/?hitId=34XASH8KLQ89J2U8D314D7180O4PMV&workerId=A2PPTQXFVA9H38&assignmentId=3ERMJ6L4DZEMZGO28JCP246AZIR7MP&a=4JRE7&tp_a=4JRE7&b=3ERMJ6L4DZEMZGO28JCP246AZIR7MP&tp_b=3ERMJ6L4DZEMZGO28JCP246AZIR7MP&c=365717&tp_c=365717"},{"rt":54033,"response":{"heads":"15","tails":"15"},"type":"response","condition":"seqFeedback","trueTheta":0.5,"classrooms":["C","D"],"studentTrueClassroom":"D","exampleSet":"second","trial_type":"survey-html-form","trial_index":14,"time_elapsed":600355,"internal_node_id":"0.0-10.0-0.0","params":{"nStudents":24,"maxFlips":30,"completionMinutes":45,"basePay":8,"maxBonus":9,"perTrialBonus":0.5,"perTrialBonusThreshold":0.05,"exampleCost":0.01},"classroomParams":{"A":{"a":1,"b":4},"B":{"a":4,"b":1},"C":{"a":2,"b":8},"D":{"a":8,"b":2}},"conditions":["nonSeqFull","nonSeqPartial","seqNoFeedback","seqFeedback"],"classroomPairings":[["A","B"],["C","D"]],"coinWeights":[0.2,0.5,0.8],"subjectId":"A2PPTQXFVA9H38","assignmentId":"3ERMJ6L4DZEMZGO28JCP246AZIR7MP","hitId":"34XASH8KLQ89J2U8D314D7180O4PMV","url":"https://gershmanlab.com/experiments/alicia/teaching/experiment/?hitId=34XASH8KLQ89J2U8D314D7180O4PMV&workerId=A2PPTQXFVA9H38&assignmentId=3ERMJ6L4DZEMZGO28JCP246AZIR7MP&a=4JRE7&tp_a=4JRE7&b=3ERMJ6L4DZEMZGO28JCP246AZIR7MP&tp_b=3ERMJ6L4DZEMZGO28JCP246AZIR7MP&c=365717&tp_c=365717","firstResponseHeads":15,"firstResponseTails":15,"secondResponseHeads":15,"secondResponseTails":15,"totalHeads":30,"totalTails":30,"studentIndex":0,"studentTrueHypers":{"a":8,"b":2},"studentGuess":0.5428571428571428,"delta":0.042857142857142816,"bonus":0,"bonusSoFar":0,"totalExamples":60},{"rt":null,"stimulus":"Sending examples to student... ","response":null,"trial_type":"html-keyboard-response","trial_index":15,"time_elapsed":601618,"internal_node_id":"0.0-11.0","params":{"nStudents":24,"maxFlips":30,"completionMinutes":45,"basePay":8,"maxBonus":9,"perTrialBonus":0.5,"perTrialBonusThreshold":0.05,"exampleCost":0.01},"classroomParams":{"A":{"a":1,"b":4},"B":{"a":4,"b":1},"C":{"a":2,"b":8},"D":{"a":8,"b":2}},"conditions":["nonSeqFull","nonSeqPartial","seqNoFeedback","seqFeedback"],"classroomPairings":[["A","B"],["C","D"]],"coinWeights":[0.2,0.5,0.8],"subjectId":"A2PPTQXFVA9H38","assignmentId":"3ERMJ6L4DZEMZGO28JCP246AZIR7MP","hitId":"34XASH8KLQ89J2U8D314D7180O4PMV","url":"https://gershmanlab.com/experiments/alicia/teaching/experiment/?hitId=34XASH8KLQ89J2U8D314D7180O4PMV&workerId=A2PPTQXFVA9H38&assignmentId=3ERMJ6L4DZEMZGO28JCP246AZIR7MP&a=4JRE7&tp_a=4JRE7&b=3ERMJ6L4DZEMZGO28JCP246AZIR7MP&tp_b=3ERMJ6L4DZEMZGO28JCP246AZIR7MP&c=365717&tp_c=365717"},{"rt":null,"stimulus":"Examples sent to student! Waiting for student...","response":null,"trial_type":"html-keyboard-response","trial_index":16,"time_elapsed":606130,"internal_node_id":"0.0-12.0","params":{"nStudents":24,"maxFlips":30,"completionMinutes":45,"basePay":8,"maxBonus":9,"perTrialBonus":0.5,"perTrialBonusThreshold":0.05,"exampleCost":0.01},"classroomParams":{"A":{"a":1,"b":4},"B":{"a":4,"b":1},"C":{"a":2,"b":8},"D":{"a":8,"b":2}},"conditions":["nonSeqFull","nonSeqPartial","seqNoFeedback","seqFeedback"],"classroomPairings":[["A","B"],["C","D"]],"coinWeights":[0.2,0.5,0.8],"subjectId":"A2PPTQXFVA9H38","assignmentId":"3ERMJ6L4DZEMZGO28JCP246AZIR7MP","hitId":"34XASH8KLQ89J2U8D314D7180O4PMV","url":"https://gershmanlab.com/experiments/alicia/teaching/experiment/?hitId=34XASH8KLQ89J2U8D314D7180O4PMV&workerId=A2PPTQXFVA9H38&assignmentId=3ERMJ6L4DZEMZGO28JCP246AZIR7MP&a=4JRE7&tp_a=4JRE7&b=3ERMJ6L4DZEMZGO28JCP246AZIR7MP&tp_b=3ERMJ6L4DZEMZGO28JCP246AZIR7MP&c=365717&tp_c=365717"},{"rt":null,"stimulus":"\n                <p>Student 1's first guess for coin weight: <b style=\"color:Tomato\";>0.57</b></p>\n                <p>Student 1's second guess for coin weight: <b style=\"color:Tomato\";>0.54</b></p>\n                <p>You received a bonus of <b>$0.00</b> based on the student's second guess.</p>\n                <p>Total bonus so far: <b>$0.00</b></p>\n                <p>Press any key to continue.</p>\n                ","response":null,"trial_type":"html-keyboard-response","trial_index":17,"time_elapsed":636147,"internal_node_id":"0.0-13.0","params":{"nStudents":24,"maxFlips":30,"completionMinutes":45,"basePay":8,"maxBonus":9,"perTrialBonus":0.5,"perTrialBonusThreshold":0.05,"exampleCost":0.01},"classroomParams":{"A":{"a":1,"b":4},"B":{"a":4,"b":1},"C":{"a":2,"b":8},"D":{"a":8,"b":2}},"conditions":["nonSeqFull","nonSeqPartial","seqNoFeedback","seqFeedback"],"classroomPairings":[["A","B"],["C","D"]],"coinWeights":[0.2,0.5,0.8],"subjectId":"A2PPTQXFVA9H38","assignmentId":"3ERMJ6L4DZEMZGO28JCP246AZIR7MP","hitId":"34XASH8KLQ89J2U8D314D7180O4PMV","url":"https://gershmanlab.com/experiments/alicia/teaching/experiment/?hitId=34XASH8KLQ89J2U8D314D7180O4PMV&workerId=A2PPTQXFVA9H38&assignmentId=3ERMJ6L4DZEMZGO28JCP246AZIR7MP&a=4JRE7&tp_a=4JRE7&b=3ERMJ6L4DZEMZGO28JCP246AZIR7MP&tp_b=3ERMJ6L4DZEMZGO28JCP246AZIR7MP&c=365717&tp_c=365717"},{"rt":null,"stimulus":"<div style=\"font-size:60px;\">Next student</div>","response":null,"trial_type":"html-keyboard-response","trial_index":18,"time_elapsed":639159,"internal_node_id":"0.0-14.0-0.0","params":{"nStudents":24,"maxFlips":30,"completionMinutes":45,"basePay":8,"maxBonus":9,"perTrialBonus":0.5,"perTrialBonusThreshold":0.05,"exampleCost":0.01},"classroomParams":{"A":{"a":1,"b":4},"B":{"a":4,"b":1},"C":{"a":2,"b":8},"D":{"a":8,"b":2}},"conditions":["nonSeqFull","nonSeqPartial","seqNoFeedback","seqFeedback"],"classroomPairings":[["A","B"],["C","D"]],"coinWeights":[0.2,0.5,0.8],"subjectId":"A2PPTQXFVA9H38","assignmentId":"3ERMJ6L4DZEMZGO28JCP246AZIR7MP","hitId":"34XASH8KLQ89J2U8D314D7180O4PMV","url":"https://gershmanlab.com/experiments/alicia/teaching/experiment/?hitId=34XASH8KLQ89J2U8D314D7180O4PMV&workerId=A2PPTQXFVA9H38&assignmentId=3ERMJ6L4DZEMZGO28JCP246AZIR7MP&a=4JRE7&tp_a=4JRE7&b=3ERMJ6L4DZEMZGO28JCP246AZIR7MP&tp_b=3ERMJ6L4DZEMZGO28JCP246AZIR7MP&c=365717&tp_c=365717"},{"rt":55153,"stimulus":"\n            <h4 style=\"color:Orange;\">Student 2</h4>\n            <h2>The weight of your coin is <b style=\"color:Tomato;\">0.5</b>.</h2>\n            <p>In this block, you will be giving <b>one</b> set of examples to Student 2.</p>\n                <p>You will receive feedback at the end of the block.</p>\n            <p></p>","response":0,"trial_type":"html-button-response","trial_index":19,"time_elapsed":694313,"internal_node_id":"0.0-15.0","params":{"nStudents":24,"maxFlips":30,"completionMinutes":45,"basePay":8,"maxBonus":9,"perTrialBonus":0.5,"perTrialBonusThreshold":0.05,"exampleCost":0.01},"classroomParams":{"A":{"a":1,"b":4},"B":{"a":4,"b":1},"C":{"a":2,"b":8},"D":{"a":8,"b":2}},"conditions":["nonSeqFull","nonSeqPartial","seqNoFeedback","seqFeedback"],"classroomPairings":[["A","B"],["C","D"]],"coinWeights":[0.2,0.5,0.8],"subjectId":"A2PPTQXFVA9H38","assignmentId":"3ERMJ6L4DZEMZGO28JCP246AZIR7MP","hitId":"34XASH8KLQ89J2U8D314D7180O4PMV","url":"https://gershmanlab.com/experiments/alicia/teaching/experiment/?hitId=34XASH8KLQ89J2U8D314D7180O4PMV&workerId=A2PPTQXFVA9H38&assignmentId=3ERMJ6L4DZEMZGO28JCP246AZIR7MP&a=4JRE7&tp_a=4JRE7&b=3ERMJ6L4DZEMZGO28JCP246AZIR7MP&tp_b=3ERMJ6L4DZEMZGO28JCP246AZIR7MP&c=365717&tp_c=365717"},{"rt":169384,"response":{"heads":"30","tails":"30"},"type":"response","condition":"nonSeqFull","trueTheta":0.5,"classrooms":["A","B"],"studentTrueClassroom":"B","exampleSet":"first","trial_type":"survey-html-form","trial_index":20,"time_elapsed":863697,"internal_node_id":"0.0-16.0-0.0","params":{"nStudents":24,"maxFlips":30,"completionMinutes":45,"basePay":8,"maxBonus":9,"perTrialBonus":0.5,"perTrialBonusThreshold":0.05,"exampleCost":0.01},"classroomParams":{"A":{"a":1,"b":4},"B":{"a":4,"b":1},"C":{"a":2,"b":8},"D":{"a":8,"b":2}},"conditions":["nonSeqFull","nonSeqPartial","seqNoFeedback","seqFeedback"],"classroomPairings":[["A","B"],["C","D"]],"coinWeights":[0.2,0.5,0.8],"subjectId":"A2PPTQXFVA9H38","assignmentId":"3ERMJ6L4DZEMZGO28JCP246AZIR7MP","hitId":"34XASH8KLQ89J2U8D314D7180O4PMV","url":"https://gershmanlab.com/experiments/alicia/teaching/experiment/?hitId=34XASH8KLQ89J2U8D314D7180O4PMV&workerId=A2PPTQXFVA9H38&assignmentId=3ERMJ6L4DZEMZGO28JCP246AZIR7MP&a=4JRE7&tp_a=4JRE7&b=3ERMJ6L4DZEMZGO28JCP246AZIR7MP&tp_b=3ERMJ6L4DZEMZGO28JCP246AZIR7MP&c=365717&tp_c=365717","heads":30,"tails":30,"studentIndex":1,"studentTrueHypers":{"a":4,"b":1},"studentGuess":0.5230769230769231,"delta":0.023076923076923106,"totalExamples":60,"bonus":0,"bonusSoFar":0},{"rt":4496,"response":{"heads":"30","tails":"30"},"type":"response","condition":"nonSeqFull","trueTheta":0.5,"classrooms":["A","B"],"studentTrueClassroom":"B","exampleSet":"first","trial_type":"survey-html-form","trial_index":21,"time_elapsed":868194,"internal_node_id":"0.0-16.1-0.1","params":{"nStudents":24,"maxFlips":30,"completionMinutes":45,"basePay":8,"maxBonus":9,"perTrialBonus":0.5,"perTrialBonusThreshold":0.05,"exampleCost":0.01},"classroomParams":{"A":{"a":1,"b":4},"B":{"a":4,"b":1},"C":{"a":2,"b":8},"D":{"a":8,"b":2}},"conditions":["nonSeqFull","nonSeqPartial","seqNoFeedback","seqFeedback"],"classroomPairings":[["A","B"],["C","D"]],"coinWeights":[0.2,0.5,0.8],"subjectId":"A2PPTQXFVA9H38","assignmentId":"3ERMJ6L4DZEMZGO28JCP246AZIR7MP","hitId":"34XASH8KLQ89J2U8D314D7180O4PMV","url":"https://gershmanlab.com/experiments/alicia/teaching/experiment/?hitId=34XASH8KLQ89J2U8D314D7180O4PMV&workerId=A2PPTQXFVA9H38&assignmentId=3ERMJ6L4DZEMZGO28JCP246AZIR7MP&a=4JRE7&tp_a=4JRE7&b=3ERMJ6L4DZEMZGO28JCP246AZIR7MP&tp_b=3ERMJ6L4DZEMZGO28JCP246AZIR7MP&c=365717&tp_c=365717","heads":30,"tails":30,"studentIndex":1,"studentTrueHypers":{"a":4,"b":1},"studentGuess":0.5230769230769231,"delta":0.023076923076923106,"totalExamples":60,"bonus":0,"bonusSoFar":0},{"rt":2730,"response":{"heads":"30","tails":"30"},"type":"response","condition":"nonSeqFull","trueTheta":0.5,"classrooms":["A","B"],"studentTrueClassroom":"B","exampleSet":"first","trial_type":"survey-html-form","trial_index":22,"time_elapsed":870925,"internal_node_id":"0.0-16.2-0.2","params":{"nStudents":24,"maxFlips":30,"completionMinutes":45,"basePay":8,"maxBonus":9,"perTrialBonus":0.5,"perTrialBonusThreshold":0.05,"exampleCost":0.01},"classroomParams":{"A":{"a":1,"b":4},"B":{"a":4,"b":1},"C":{"a":2,"b":8},"D":{"a":8,"b":2}},"conditions":["nonSeqFull","nonSeqPartial","seqNoFeedback","seqFeedback"],"classroomPairings":[["A","B"],["C","D"]],"coinWeights":[0.2,0.5,0.8],"subjectId":"A2PPTQXFVA9H38","assignmentId":"3ERMJ6L4DZEMZGO28JCP246AZIR7MP","hitId":"34XASH8KLQ89J2U8D314D7180O4PMV","url":"https://gershmanlab.com/experiments/alicia/teaching/experiment/?hitId=34XASH8KLQ89J2U8D314D7180O4PMV&workerId=A2PPTQXFVA9H38&assignmentId=3ERMJ6L4DZEMZGO28JCP246AZIR7MP&a=4JRE7&tp_a=4JRE7&b=3ERMJ6L4DZEMZGO28JCP246AZIR7MP&tp_b=3ERMJ6L4DZEMZGO28JCP246AZIR7MP&c=365717&tp_c=365717","heads":30,"tails":30,"studentIndex":1,"studentTrueHypers":{"a":4,"b":1},"studentGuess":0.5230769230769231,"delta":0.023076923076923106,"totalExamples":60,"bonus":0,"bonusSoFar":0},{"rt":21760,"response":{"heads":"2","tails":"2"},"type":"response","condition":"nonSeqFull","trueTheta":0.5,"classrooms":["A","B"],"studentTrueClassroom":"B","exampleSet":"first","trial_type":"survey-html-form","trial_index":23,"time_elapsed":892686,"internal_node_id":"0.0-16.3-0.3","params":{"nStudents":24,"maxFlips":30,"completionMinutes":45,"basePay":8,"maxBonus":9,"perTrialBonus":0.5,"perTrialBonusThreshold":0.05,"exampleCost":0.01},"classroomParams":{"A":{"a":1,"b":4},"B":{"a":4,"b":1},"C":{"a":2,"b":8},"D":{"a":8,"b":2}},"conditions":["nonSeqFull","nonSeqPartial","seqNoFeedback","seqFeedback"],"classroomPairings":[["A","B"],["C","D"]],"coinWeights":[0.2,0.5,0.8],"subjectId":"A2PPTQXFVA9H38","assignmentId":"3ERMJ6L4DZEMZGO28JCP246AZIR7MP","hitId":"34XASH8KLQ89J2U8D314D7180O4PMV","url":"https://gershmanlab.com/experiments/alicia/teaching/experiment/?hitId=34XASH8KLQ89J2U8D314D7180O4PMV&workerId=A2PPTQXFVA9H38&assignmentId=3ERMJ6L4DZEMZGO28JCP246AZIR7MP&a=4JRE7&tp_a=4JRE7&b=3ERMJ6L4DZEMZGO28JCP246AZIR7MP&tp_b=3ERMJ6L4DZEMZGO28JCP246AZIR7MP&c=365717&tp_c=365717","heads":2,"tails":2,"studentIndex":1,"studentTrueHypers":{"a":4,"b":1},"studentGuess":0.6666666666666666,"delta":0.16666666666666663,"totalExamples":4,"bonus":0,"bonusSoFar":0},{"rt":null,"stimulus":"Sending examples to student... ","response":null,"trial_type":"html-keyboard-response","trial_index":24,"time_elapsed":894191,"internal_node_id":"0.0-17.0","params":{"nStudents":24,"maxFlips":30,"completionMinutes":45,"basePay":8,"maxBonus":9,"perTrialBonus":0.5,"perTrialBonusThreshold":0.05,"exampleCost":0.01},"classroomParams":{"A":{"a":1,"b":4},"B":{"a":4,"b":1},"C":{"a":2,"b":8},"D":{"a":8,"b":2}},"conditions":["nonSeqFull","nonSeqPartial","seqNoFeedback","seqFeedback"],"classroomPairings":[["A","B"],["C","D"]],"coinWeights":[0.2,0.5,0.8],"subjectId":"A2PPTQXFVA9H38","assignmentId":"3ERMJ6L4DZEMZGO28JCP246AZIR7MP","hitId":"34XASH8KLQ89J2U8D314D7180O4PMV","url":"https://gershmanlab.com/experiments/alicia/teaching/experiment/?hitId=34XASH8KLQ89J2U8D314D7180O4PMV&workerId=A2PPTQXFVA9H38&assignmentId=3ERMJ6L4DZEMZGO28JCP246AZIR7MP&a=4JRE7&tp_a=4JRE7&b=3ERMJ6L4DZEMZGO28JCP246AZIR7MP&tp_b=3ERMJ6L4DZEMZGO28JCP246AZIR7MP&c=365717&tp_c=365717"},{"rt":null,"stimulus":"Examples sent to student! Waiting for student...","response":null,"trial_type":"html-keyboard-response","trial_index":25,"time_elapsed":899194,"internal_node_id":"0.0-18.0","params":{"nStudents":24,"maxFlips":30,"completionMinutes":45,"basePay":8,"maxBonus":9,"perTrialBonus":0.5,"perTrialBonusThreshold":0.05,"exampleCost":0.01},"classroomParams":{"A":{"a":1,"b":4},"B":{"a":4,"b":1},"C":{"a":2,"b":8},"D":{"a":8,"b":2}},"conditions":["nonSeqFull","nonSeqPartial","seqNoFeedback","seqFeedback"],"classroomPairings":[["A","B"],["C","D"]],"coinWeights":[0.2,0.5,0.8],"subjectId":"A2PPTQXFVA9H38","assignmentId":"3ERMJ6L4DZEMZGO28JCP246AZIR7MP","hitId":"34XASH8KLQ89J2U8D314D7180O4PMV","url":"https://gershmanlab.com/experiments/alicia/teaching/experiment/?hitId=34XASH8KLQ89J2U8D314D7180O4PMV&workerId=A2PPTQXFVA9H38&assignmentId=3ERMJ6L4DZEMZGO28JCP246AZIR7MP&a=4JRE7&tp_a=4JRE7&b=3ERMJ6L4DZEMZGO28JCP246AZIR7MP&tp_b=3ERMJ6L4DZEMZGO28JCP246AZIR7MP&c=365717&tp_c=365717"},{"rt":6889,"stimulus":"\n                <p>Student's guess for coin weight: <b style=\"color:Tomato;\">0.52</b></p>\n                <p>You received a bonus of <b>$0</b>. Total bonus so far: <b>$0.00</b></b></p>\n                <p></p>\n                <p>Press any key to continue.</p>\n                ","response":" ","trial_type":"html-keyboard-response","trial_index":26,"time_elapsed":906085,"internal_node_id":"0.0-19.0","params":{"nStudents":24,"maxFlips":30,"completionMinutes":45,"basePay":8,"maxBonus":9,"perTrialBonus":0.5,"perTrialBonusThreshold":0.05,"exampleCost":0.01},"classroomParams":{"A":{"a":1,"b":4},"B":{"a":4,"b":1},"C":{"a":2,"b":8},"D":{"a":8,"b":2}},"conditions":["nonSeqFull","nonSeqPartial","seqNoFeedback","seqFeedback"],"classroomPairings":[["A","B"],["C","D"]],"coinWeights":[0.2,0.5,0.8],"subjectId":"A2PPTQXFVA9H38","assignmentId":"3ERMJ6L4DZEMZGO28JCP246AZIR7MP","hitId":"34XASH8KLQ89J2U8D314D7180O4PMV","url":"https://gershmanlab.com/experiments/alicia/teaching/experiment/?hitId=34XASH8KLQ89J2U8D314D7180O4PMV&workerId=A2PPTQXFVA9H38&assignmentId=3ERMJ6L4DZEMZGO28JCP246AZIR7MP&a=4JRE7&tp_a=4JRE7&b=3ERMJ6L4DZEMZGO28JCP246AZIR7MP&tp_b=3ERMJ6L4DZEMZGO28JCP246AZIR7MP&c=365717&tp_c=365717"},{"rt":null,"stimulus":"<div style=\"font-size:60px;\">Next student</div>","response":null,"trial_type":"html-keyboard-response","trial_index":27,"time_elapsed":908598,"internal_node_id":"0.0-20.0-0.0","params":{"nStudents":24,"maxFlips":30,"completionMinutes":45,"basePay":8,"maxBonus":9,"perTrialBonus":0.5,"perTrialBonusThreshold":0.05,"exampleCost":0.01},"classroomParams":{"A":{"a":1,"b":4},"B":{"a":4,"b":1},"C":{"a":2,"b":8},"D":{"a":8,"b":2}},"conditions":["nonSeqFull","nonSeqPartial","seqNoFeedback","seqFeedback"],"classroomPairings":[["A","B"],["C","D"]],"coinWeights":[0.2,0.5,0.8],"subjectId":"A2PPTQXFVA9H38","assignmentId":"3ERMJ6L4DZEMZGO28JCP246AZIR7MP","hitId":"34XASH8KLQ89J2U8D314D7180O4PMV","url":"https://gershmanlab.com/experiments/alicia/teaching/experiment/?hitId=34XASH8KLQ89J2U8D314D7180O4PMV&workerId=A2PPTQXFVA9H38&assignmentId=3ERMJ6L4DZEMZGO28JCP246AZIR7MP&a=4JRE7&tp_a=4JRE7&b=3ERMJ6L4DZEMZGO28JCP246AZIR7MP&tp_b=3ERMJ6L4DZEMZGO28JCP246AZIR7MP&c=365717&tp_c=365717"},{"rt":1984,"stimulus":"\n            <h4 style=\"color:Orange;\">Student 3</h4>\n            <h2>The weight of your coin is <b style=\"color:Tomato;\">0.2</b>.</h2>\n            <p>In this block, you will be giving <b>one</b> set of examples to Student 3.</p>\n                <p>You will receive feedback at the end of the block.</p>\n            <p></p>","response":0,"trial_type":"html-button-response","trial_index":28,"time_elapsed":910584,"internal_node_id":"0.0-21.0","params":{"nStudents":24,"maxFlips":30,"completionMinutes":45,"basePay":8,"maxBonus":9,"perTrialBonus":0.5,"perTrialBonusThreshold":0.05,"exampleCost":0.01},"classroomParams":{"A":{"a":1,"b":4},"B":{"a":4,"b":1},"C":{"a":2,"b":8},"D":{"a":8,"b":2}},"conditions":["nonSeqFull","nonSeqPartial","seqNoFeedback","seqFeedback"],"classroomPairings":[["A","B"],["C","D"]],"coinWeights":[0.2,0.5,0.8],"subjectId":"A2PPTQXFVA9H38","assignmentId":"3ERMJ6L4DZEMZGO28JCP246AZIR7MP","hitId":"34XASH8KLQ89J2U8D314D7180O4PMV","url":"https://gershmanlab.com/experiments/alicia/teaching/experiment/?hitId=34XASH8KLQ89J2U8D314D7180O4PMV&workerId=A2PPTQXFVA9H38&assignmentId=3ERMJ6L4DZEMZGO28JCP246AZIR7MP&a=4JRE7&tp_a=4JRE7&b=3ERMJ6L4DZEMZGO28JCP246AZIR7MP&tp_b=3ERMJ6L4DZEMZGO28JCP246AZIR7MP&c=365717&tp_c=365717"},{"rt":82197,"response":{"heads":"1","tails":"5"},"type":"response","condition":"nonSeqPartial","trueTheta":0.2,"classrooms":["A","B"],"studentTrueClassroom":"A","exampleSet":"first","trial_type":"survey-html-form","trial_index":29,"time_elapsed":992782,"internal_node_id":"0.0-22.0-0.0","params":{"nStudents":24,"maxFlips":30,"completionMinutes":45,"basePay":8,"maxBonus":9,"perTrialBonus":0.5,"perTrialBonusThreshold":0.05,"exampleCost":0.01},"classroomParams":{"A":{"a":1,"b":4},"B":{"a":4,"b":1},"C":{"a":2,"b":8},"D":{"a":8,"b":2}},"conditions":["nonSeqFull","nonSeqPartial","seqNoFeedback","seqFeedback"],"classroomPairings":[["A","B"],["C","D"]],"coinWeights":[0.2,0.5,0.8],"subjectId":"A2PPTQXFVA9H38","assignmentId":"3ERMJ6L4DZEMZGO28JCP246AZIR7MP","hitId":"34XASH8KLQ89J2U8D314D7180O4PMV","url":"https://gershmanlab.com/experiments/alicia/teaching/experiment/?hitId=34XASH8KLQ89J2U8D314D7180O4PMV&workerId=A2PPTQXFVA9H38&assignmentId=3ERMJ6L4DZEMZGO28JCP246AZIR7MP&a=4JRE7&tp_a=4JRE7&b=3ERMJ6L4DZEMZGO28JCP246AZIR7MP&tp_b=3ERMJ6L4DZEMZGO28JCP246AZIR7MP&c=365717&tp_c=365717","heads":1,"tails":5,"studentIndex":2,"studentTrueHypers":{"a":1,"b":4},"studentGuess":0.18181818181818182,"delta":0.018181818181818188,"totalExamples":6,"bonus":0.44,"bonusSoFar":0.44},{"rt":null,"stimulus":"Sending examples to student... ","response":null,"trial_type":"html-keyboard-response","trial_index":30,"time_elapsed":994034,"internal_node_id":"0.0-23.0","params":{"nStudents":24,"maxFlips":30,"completionMinutes":45,"basePay":8,"maxBonus":9,"perTrialBonus":0.5,"perTrialBonusThreshold":0.05,"exampleCost":0.01},"classroomParams":{"A":{"a":1,"b":4},"B":{"a":4,"b":1},"C":{"a":2,"b":8},"D":{"a":8,"b":2}},"conditions":["nonSeqFull","nonSeqPartial","seqNoFeedback","seqFeedback"],"classroomPairings":[["A","B"],["C","D"]],"coinWeights":[0.2,0.5,0.8],"subjectId":"A2PPTQXFVA9H38","assignmentId":"3ERMJ6L4DZEMZGO28JCP246AZIR7MP","hitId":"34XASH8KLQ89J2U8D314D7180O4PMV","url":"https://gershmanlab.com/experiments/alicia/teaching/experiment/?hitId=34XASH8KLQ89J2U8D314D7180O4PMV&workerId=A2PPTQXFVA9H38&assignmentId=3ERMJ6L4DZEMZGO28JCP246AZIR7MP&a=4JRE7&tp_a=4JRE7&b=3ERMJ6L4DZEMZGO28JCP246AZIR7MP&tp_b=3ERMJ6L4DZEMZGO28JCP246AZIR7MP&c=365717&tp_c=365717"},{"rt":null,"stimulus":"Examples sent to student! Waiting for student...","response":null,"trial_type":"html-keyboard-response","trial_index":31,"time_elapsed":998549,"internal_node_id":"0.0-24.0","params":{"nStudents":24,"maxFlips":30,"completionMinutes":45,"basePay":8,"maxBonus":9,"perTrialBonus":0.5,"perTrialBonusThreshold":0.05,"exampleCost":0.01},"classroomParams":{"A":{"a":1,"b":4},"B":{"a":4,"b":1},"C":{"a":2,"b":8},"D":{"a":8,"b":2}},"conditions":["nonSeqFull","nonSeqPartial","seqNoFeedback","seqFeedback"],"classroomPairings":[["A","B"],["C","D"]],"coinWeights":[0.2,0.5,0.8],"subjectId":"A2PPTQXFVA9H38","assignmentId":"3ERMJ6L4DZEMZGO28JCP246AZIR7MP","hitId":"34XASH8KLQ89J2U8D314D7180O4PMV","url":"https://gershmanlab.com/experiments/alicia/teaching/experiment/?hitId=34XASH8KLQ89J2U8D314D7180O4PMV&workerId=A2PPTQXFVA9H38&assignmentId=3ERMJ6L4DZEMZGO28JCP246AZIR7MP&a=4JRE7&tp_a=4JRE7&b=3ERMJ6L4DZEMZGO28JCP246AZIR7MP&tp_b=3ERMJ6L4DZEMZGO28JCP246AZIR7MP&c=365717&tp_c=365717"},{"rt":3194,"stimulus":"\n                <p>Student's guess for coin weight: <b style=\"color:Tomato;\">0.18</b></p>\n                <p>You received a bonus of <b>$0.44</b>. Total bonus so far: <b>$0.44</b></b></p>\n                <p></p>\n                <p>Press any key to continue.</p>\n                ","response":" ","trial_type":"html-keyboard-response","trial_index":32,"time_elapsed":1001744,"internal_node_id":"0.0-25.0","params":{"nStudents":24,"maxFlips":30,"completionMinutes":45,"basePay":8,"maxBonus":9,"perTrialBonus":0.5,"perTrialBonusThreshold":0.05,"exampleCost":0.01},"classroomParams":{"A":{"a":1,"b":4},"B":{"a":4,"b":1},"C":{"a":2,"b":8},"D":{"a":8,"b":2}},"conditions":["nonSeqFull","nonSeqPartial","seqNoFeedback","seqFeedback"],"classroomPairings":[["A","B"],["C","D"]],"coinWeights":[0.2,0.5,0.8],"subjectId":"A2PPTQXFVA9H38","assignmentId":"3ERMJ6L4DZEMZGO28JCP246AZIR7MP","hitId":"34XASH8KLQ89J2U8D314D7180O4PMV","url":"https://gershmanlab.com/experiments/alicia/teaching/experiment/?hitId=34XASH8KLQ89J2U8D314D7180O4PMV&workerId=A2PPTQXFVA9H38&assignmentId=3ERMJ6L4DZEMZGO28JCP246AZIR7MP&a=4JRE7&tp_a=4JRE7&b=3ERMJ6L4DZEMZGO28JCP246AZIR7MP&tp_b=3ERMJ6L4DZEMZGO28JCP246AZIR7MP&c=365717&tp_c=365717"},{"rt":null,"stimulus":"<div style=\"font-size:60px;\">Next student</div>","response":null,"trial_type":"html-keyboard-response","trial_index":33,"time_elapsed":1003753,"internal_node_id":"0.0-26.0-0.0","params":{"nStudents":24,"maxFlips":30,"completionMinutes":45,"basePay":8,"maxBonus":9,"perTrialBonus":0.5,"perTrialBonusThreshold":0.05,"exampleCost":0.01},"classroomParams":{"A":{"a":1,"b":4},"B":{"a":4,"b":1},"C":{"a":2,"b":8},"D":{"a":8,"b":2}},"conditions":["nonSeqFull","nonSeqPartial","seqNoFeedback","seqFeedback"],"classroomPairings":[["A","B"],["C","D"]],"coinWeights":[0.2,0.5,0.8],"subjectId":"A2PPTQXFVA9H38","assignmentId":"3ERMJ6L4DZEMZGO28JCP246AZIR7MP","hitId":"34XASH8KLQ89J2U8D314D7180O4PMV","url":"https://gershmanlab.com/experiments/alicia/teaching/experiment/?hitId=34XASH8KLQ89J2U8D314D7180O4PMV&workerId=A2PPTQXFVA9H38&assignmentId=3ERMJ6L4DZEMZGO28JCP246AZIR7MP&a=4JRE7&tp_a=4JRE7&b=3ERMJ6L4DZEMZGO28JCP246AZIR7MP&tp_b=3ERMJ6L4DZEMZGO28JCP246AZIR7MP&c=365717&tp_c=365717"},{"rt":991,"stimulus":"\n            <h4 style=\"color:Orange;\">Student 4</h4>\n            <h2>The weight of your coin is <b style=\"color:Tomato;\">0.2</b>.</h2>\n            <p>In this block, you will be giving <b>two</b> sets of examples to Student 4.</p>\n                <p>You will receive feedback at the end of the block.</p>\n            <p></p>","response":0,"trial_type":"html-button-response","trial_index":34,"time_elapsed":1004745,"internal_node_id":"0.0-27.0","params":{"nStudents":24,"maxFlips":30,"completionMinutes":45,"basePay":8,"maxBonus":9,"perTrialBonus":0.5,"perTrialBonusThreshold":0.05,"exampleCost":0.01},"classroomParams":{"A":{"a":1,"b":4},"B":{"a":4,"b":1},"C":{"a":2,"b":8},"D":{"a":8,"b":2}},"conditions":["nonSeqFull","nonSeqPartial","seqNoFeedback","seqFeedback"],"classroomPairings":[["A","B"],["C","D"]],"coinWeights":[0.2,0.5,0.8],"subjectId":"A2PPTQXFVA9H38","assignmentId":"3ERMJ6L4DZEMZGO28JCP246AZIR7MP","hitId":"34XASH8KLQ89J2U8D314D7180O4PMV","url":"https://gershmanlab.com/experiments/alicia/teaching/experiment/?hitId=34XASH8KLQ89J2U8D314D7180O4PMV&workerId=A2PPTQXFVA9H38&assignmentId=3ERMJ6L4DZEMZGO28JCP246AZIR7MP&a=4JRE7&tp_a=4JRE7&b=3ERMJ6L4DZEMZGO28JCP246AZIR7MP&tp_b=3ERMJ6L4DZEMZGO28JCP246AZIR7MP&c=365717&tp_c=365717"},{"rt":4198,"response":{"heads":"1","tails":"5"},"type":"response","condition":"seqNoFeedback","trueTheta":0.2,"classrooms":["A","B"],"studentTrueClassroom":"B","exampleSet":"first","trial_type":"survey-html-form","trial_index":35,"time_elapsed":1008944,"internal_node_id":"0.0-28.0-0.0","params":{"nStudents":24,"maxFlips":30,"completionMinutes":45,"basePay":8,"maxBonus":9,"perTrialBonus":0.5,"perTrialBonusThreshold":0.05,"exampleCost":0.01},"classroomParams":{"A":{"a":1,"b":4},"B":{"a":4,"b":1},"C":{"a":2,"b":8},"D":{"a":8,"b":2}},"conditions":["nonSeqFull","nonSeqPartial","seqNoFeedback","seqFeedback"],"classroomPairings":[["A","B"],["C","D"]],"coinWeights":[0.2,0.5,0.8],"subjectId":"A2PPTQXFVA9H38","assignmentId":"3ERMJ6L4DZEMZGO28JCP246AZIR7MP","hitId":"34XASH8KLQ89J2U8D314D7180O4PMV","url":"https://gershmanlab.com/experiments/alicia/teaching/experiment/?hitId=34XASH8KLQ89J2U8D314D7180O4PMV&workerId=A2PPTQXFVA9H38&assignmentId=3ERMJ6L4DZEMZGO28JCP246AZIR7MP&a=4JRE7&tp_a=4JRE7&b=3ERMJ6L4DZEMZGO28JCP246AZIR7MP&tp_b=3ERMJ6L4DZEMZGO28JCP246AZIR7MP&c=365717&tp_c=365717","heads":1,"tails":5,"studentIndex":3,"studentTrueHypers":{"a":4,"b":1},"studentGuess":0.45454545454545453,"delta":0.2545454545454545,"totalExamples":6,"bonusSoFar":0.44},{"rt":null,"stimulus":"Sending examples to student... ","response":null,"trial_type":"html-keyboard-response","trial_index":36,"time_elapsed":1010704,"internal_node_id":"0.0-29.0","params":{"nStudents":24,"maxFlips":30,"completionMinutes":45,"basePay":8,"maxBonus":9,"perTrialBonus":0.5,"perTrialBonusThreshold":0.05,"exampleCost":0.01},"classroomParams":{"A":{"a":1,"b":4},"B":{"a":4,"b":1},"C":{"a":2,"b":8},"D":{"a":8,"b":2}},"conditions":["nonSeqFull","nonSeqPartial","seqNoFeedback","seqFeedback"],"classroomPairings":[["A","B"],["C","D"]],"coinWeights":[0.2,0.5,0.8],"subjectId":"A2PPTQXFVA9H38","assignmentId":"3ERMJ6L4DZEMZGO28JCP246AZIR7MP","hitId":"34XASH8KLQ89J2U8D314D7180O4PMV","url":"https://gershmanlab.com/experiments/alicia/teaching/experiment/?hitId=34XASH8KLQ89J2U8D314D7180O4PMV&workerId=A2PPTQXFVA9H38&assignmentId=3ERMJ6L4DZEMZGO28JCP246AZIR7MP&a=4JRE7&tp_a=4JRE7&b=3ERMJ6L4DZEMZGO28JCP246AZIR7MP&tp_b=3ERMJ6L4DZEMZGO28JCP246AZIR7MP&c=365717&tp_c=365717"},{"rt":null,"stimulus":"Examples sent to student! Waiting for student...","response":null,"trial_type":"html-keyboard-response","trial_index":37,"time_elapsed":1016217,"internal_node_id":"0.0-30.0","params":{"nStudents":24,"maxFlips":30,"completionMinutes":45,"basePay":8,"maxBonus":9,"perTrialBonus":0.5,"perTrialBonusThreshold":0.05,"exampleCost":0.01},"classroomParams":{"A":{"a":1,"b":4},"B":{"a":4,"b":1},"C":{"a":2,"b":8},"D":{"a":8,"b":2}},"conditions":["nonSeqFull","nonSeqPartial","seqNoFeedback","seqFeedback"],"classroomPairings":[["A","B"],["C","D"]],"coinWeights":[0.2,0.5,0.8],"subjectId":"A2PPTQXFVA9H38","assignmentId":"3ERMJ6L4DZEMZGO28JCP246AZIR7MP","hitId":"34XASH8KLQ89J2U8D314D7180O4PMV","url":"https://gershmanlab.com/experiments/alicia/teaching/experiment/?hitId=34XASH8KLQ89J2U8D314D7180O4PMV&workerId=A2PPTQXFVA9H38&assignmentId=3ERMJ6L4DZEMZGO28JCP246AZIR7MP&a=4JRE7&tp_a=4JRE7&b=3ERMJ6L4DZEMZGO28JCP246AZIR7MP&tp_b=3ERMJ6L4DZEMZGO28JCP246AZIR7MP&c=365717&tp_c=365717"},{"rt":15242,"response":{"heads":"1","tails":"5"},"type":"response","condition":"seqNoFeedback","trueTheta":0.2,"classrooms":["A","B"],"studentTrueClassroom":"B","exampleSet":"second","trial_type":"survey-html-form","trial_index":38,"time_elapsed":1031460,"internal_node_id":"0.0-31.0-0.0","params":{"nStudents":24,"maxFlips":30,"completionMinutes":45,"basePay":8,"maxBonus":9,"perTrialBonus":0.5,"perTrialBonusThreshold":0.05,"exampleCost":0.01},"classroomParams":{"A":{"a":1,"b":4},"B":{"a":4,"b":1},"C":{"a":2,"b":8},"D":{"a":8,"b":2}},"conditions":["nonSeqFull","nonSeqPartial","seqNoFeedback","seqFeedback"],"classroomPairings":[["A","B"],["C","D"]],"coinWeights":[0.2,0.5,0.8],"subjectId":"A2PPTQXFVA9H38","assignmentId":"3ERMJ6L4DZEMZGO28JCP246AZIR7MP","hitId":"34XASH8KLQ89J2U8D314D7180O4PMV","url":"https://gershmanlab.com/experiments/alicia/teaching/experiment/?hitId=34XASH8KLQ89J2U8D314D7180O4PMV&workerId=A2PPTQXFVA9H38&assignmentId=3ERMJ6L4DZEMZGO28JCP246AZIR7MP&a=4JRE7&tp_a=4JRE7&b=3ERMJ6L4DZEMZGO28JCP246AZIR7MP&tp_b=3ERMJ6L4DZEMZGO28JCP246AZIR7MP&c=365717&tp_c=365717","firstResponseHeads":1,"firstResponseTails":5,"secondResponseHeads":1,"secondResponseTails":5,"totalHeads":2,"totalTails":10,"studentIndex":3,"studentTrueHypers":{"a":4,"b":1},"studentGuess":0.35294117647058826,"delta":0.15294117647058825,"bonus":0,"bonusSoFar":0.44,"totalExamples":12},{"rt":null,"stimulus":"Sending examples to student... ","response":null,"trial_type":"html-keyboard-response","trial_index":39,"time_elapsed":1032966,"internal_node_id":"0.0-32.0","params":{"nStudents":24,"maxFlips":30,"completionMinutes":45,"basePay":8,"maxBonus":9,"perTrialBonus":0.5,"perTrialBonusThreshold":0.05,"exampleCost":0.01},"classroomParams":{"A":{"a":1,"b":4},"B":{"a":4,"b":1},"C":{"a":2,"b":8},"D":{"a":8,"b":2}},"conditions":["nonSeqFull","nonSeqPartial","seqNoFeedback","seqFeedback"],"classroomPairings":[["A","B"],["C","D"]],"coinWeights":[0.2,0.5,0.8],"subjectId":"A2PPTQXFVA9H38","assignmentId":"3ERMJ6L4DZEMZGO28JCP246AZIR7MP","hitId":"34XASH8KLQ89J2U8D314D7180O4PMV","url":"https://gershmanlab.com/experiments/alicia/teaching/experiment/?hitId=34XASH8KLQ89J2U8D314D7180O4PMV&workerId=A2PPTQXFVA9H38&assignmentId=3ERMJ6L4DZEMZGO28JCP246AZIR7MP&a=4JRE7&tp_a=4JRE7&b=3ERMJ6L4DZEMZGO28JCP246AZIR7MP&tp_b=3ERMJ6L4DZEMZGO28JCP246AZIR7MP&c=365717&tp_c=365717"},{"rt":null,"stimulus":"Examples sent to student! Waiting for student...","response":null,"trial_type":"html-keyboard-response","trial_index":40,"time_elapsed":1036970,"internal_node_id":"0.0-33.0","params":{"nStudents":24,"maxFlips":30,"completionMinutes":45,"basePay":8,"maxBonus":9,"perTrialBonus":0.5,"perTrialBonusThreshold":0.05,"exampleCost":0.01},"classroomParams":{"A":{"a":1,"b":4},"B":{"a":4,"b":1},"C":{"a":2,"b":8},"D":{"a":8,"b":2}},"conditions":["nonSeqFull","nonSeqPartial","seqNoFeedback","seqFeedback"],"classroomPairings":[["A","B"],["C","D"]],"coinWeights":[0.2,0.5,0.8],"subjectId":"A2PPTQXFVA9H38","assignmentId":"3ERMJ6L4DZEMZGO28JCP246AZIR7MP","hitId":"34XASH8KLQ89J2U8D314D7180O4PMV","url":"https://gershmanlab.com/experiments/alicia/teaching/experiment/?hitId=34XASH8KLQ89J2U8D314D7180O4PMV&workerId=A2PPTQXFVA9H38&assignmentId=3ERMJ6L4DZEMZGO28JCP246AZIR7MP&a=4JRE7&tp_a=4JRE7&b=3ERMJ6L4DZEMZGO28JCP246AZIR7MP&tp_b=3ERMJ6L4DZEMZGO28JCP246AZIR7MP&c=365717&tp_c=365717"},{"rt":6201,"stimulus":"\n                <p>Student 4's first guess for coin weight: <b style=\"color:Tomato\";>0.45</b></p>\n                <p>Student 4's second guess for coin weight: <b style=\"color:Tomato\";>0.35</b></p>\n                <p>You received a bonus of <b>$0.00</b> based on the student's second guess.</p>\n                <p>Total bonus so far: <b>$0.44</b></p>\n                <p>Press any key to continue.</p>\n                ","response":" ","trial_type":"html-keyboard-response","trial_index":41,"time_elapsed":1043173,"internal_node_id":"0.0-34.0","params":{"nStudents":24,"maxFlips":30,"completionMinutes":45,"basePay":8,"maxBonus":9,"perTrialBonus":0.5,"perTrialBonusThreshold":0.05,"exampleCost":0.01},"classroomParams":{"A":{"a":1,"b":4},"B":{"a":4,"b":1},"C":{"a":2,"b":8},"D":{"a":8,"b":2}},"conditions":["nonSeqFull","nonSeqPartial","seqNoFeedback","seqFeedback"],"classroomPairings":[["A","B"],["C","D"]],"coinWeights":[0.2,0.5,0.8],"subjectId":"A2PPTQXFVA9H38","assignmentId":"3ERMJ6L4DZEMZGO28JCP246AZIR7MP","hitId":"34XASH8KLQ89J2U8D314D7180O4PMV","url":"https://gershmanlab.com/experiments/alicia/teaching/experiment/?hitId=34XASH8KLQ89J2U8D314D7180O4PMV&workerId=A2PPTQXFVA9H38&assignmentId=3ERMJ6L4DZEMZGO28JCP246AZIR7MP&a=4JRE7&tp_a=4JRE7&b=3ERMJ6L4DZEMZGO28JCP246AZIR7MP&tp_b=3ERMJ6L4DZEMZGO28JCP246AZIR7MP&c=365717&tp_c=365717"},{"rt":null,"stimulus":"<div style=\"font-size:60px;\">Next student</div>","response":null,"trial_type":"html-keyboard-response","trial_index":42,"time_elapsed":1045180,"internal_node_id":"0.0-35.0-0.0","params":{"nStudents":24,"maxFlips":30,"completionMinutes":45,"basePay":8,"maxBonus":9,"perTrialBonus":0.5,"perTrialBonusThreshold":0.05,"exampleCost":0.01},"classroomParams":{"A":{"a":1,"b":4},"B":{"a":4,"b":1},"C":{"a":2,"b":8},"D":{"a":8,"b":2}},"conditions":["nonSeqFull","nonSeqPartial","seqNoFeedback","seqFeedback"],"classroomPairings":[["A","B"],["C","D"]],"coinWeights":[0.2,0.5,0.8],"subjectId":"A2PPTQXFVA9H38","assignmentId":"3ERMJ6L4DZEMZGO28JCP246AZIR7MP","hitId":"34XASH8KLQ89J2U8D314D7180O4PMV","url":"https://gershmanlab.com/experiments/alicia/teaching/experiment/?hitId=34XASH8KLQ89J2U8D314D7180O4PMV&workerId=A2PPTQXFVA9H38&assignmentId=3ERMJ6L4DZEMZGO28JCP246AZIR7MP&a=4JRE7&tp_a=4JRE7&b=3ERMJ6L4DZEMZGO28JCP246AZIR7MP&tp_b=3ERMJ6L4DZEMZGO28JCP246AZIR7MP&c=365717&tp_c=365717"},{"rt":1430,"stimulus":"\n            <h4 style=\"color:Orange;\">Student 5</h4>\n            <h2>The weight of your coin is <b style=\"color:Tomato;\">0.8</b>.</h2>\n            <p>In this block, you will be giving <b>two</b> sets of examples to Student 5.</p>\n                <p>You will see the student's guess after the first set of examples. You will also receive feedback at the end of the block.</p>\n            <p>To earn the highest bonus, you will have to <b>take into consideration the student's guess</b> when you choose your second set of examples.</p>","response":0,"trial_type":"html-button-response","trial_index":43,"time_elapsed":1046612,"internal_node_id":"0.0-36.0","params":{"nStudents":24,"maxFlips":30,"completionMinutes":45,"basePay":8,"maxBonus":9,"perTrialBonus":0.5,"perTrialBonusThreshold":0.05,"exampleCost":0.01},"classroomParams":{"A":{"a":1,"b":4},"B":{"a":4,"b":1},"C":{"a":2,"b":8},"D":{"a":8,"b":2}},"conditions":["nonSeqFull","nonSeqPartial","seqNoFeedback","seqFeedback"],"classroomPairings":[["A","B"],["C","D"]],"coinWeights":[0.2,0.5,0.8],"subjectId":"A2PPTQXFVA9H38","assignmentId":"3ERMJ6L4DZEMZGO28JCP246AZIR7MP","hitId":"34XASH8KLQ89J2U8D314D7180O4PMV","url":"https://gershmanlab.com/experiments/alicia/teaching/experiment/?hitId=34XASH8KLQ89J2U8D314D7180O4PMV&workerId=A2PPTQXFVA9H38&assignmentId=3ERMJ6L4DZEMZGO28JCP246AZIR7MP&a=4JRE7&tp_a=4JRE7&b=3ERMJ6L4DZEMZGO28JCP246AZIR7MP&tp_b=3ERMJ6L4DZEMZGO28JCP246AZIR7MP&c=365717&tp_c=365717"},{"rt":25821,"response":{"heads":"8","tails":"2"},"type":"response","condition":"seqFeedback","trueTheta":0.8,"classrooms":["A","B"],"studentTrueClassroom":"B","exampleSet":"first","trial_type":"survey-html-form","trial_index":44,"time_elapsed":1072434,"internal_node_id":"0.0-37.0-0.0","params":{"nStudents":24,"maxFlips":30,"completionMinutes":45,"basePay":8,"maxBonus":9,"perTrialBonus":0.5,"perTrialBonusThreshold":0.05,"exampleCost":0.01},"classroomParams":{"A":{"a":1,"b":4},"B":{"a":4,"b":1},"C":{"a":2,"b":8},"D":{"a":8,"b":2}},"conditions":["nonSeqFull","nonSeqPartial","seqNoFeedback","seqFeedback"],"classroomPairings":[["A","B"],["C","D"]],"coinWeights":[0.2,0.5,0.8],"subjectId":"A2PPTQXFVA9H38","assignmentId":"3ERMJ6L4DZEMZGO28JCP246AZIR7MP","hitId":"34XASH8KLQ89J2U8D314D7180O4PMV","url":"https://gershmanlab.com/experiments/alicia/teaching/experiment/?hitId=34XASH8KLQ89J2U8D314D7180O4PMV&workerId=A2PPTQXFVA9H38&assignmentId=3ERMJ6L4DZEMZGO28JCP246AZIR7MP&a=4JRE7&tp_a=4JRE7&b=3ERMJ6L4DZEMZGO28JCP246AZIR7MP&tp_b=3ERMJ6L4DZEMZGO28JCP246AZIR7MP&c=365717&tp_c=365717","heads":8,"tails":2,"studentIndex":4,"studentTrueHypers":{"a":4,"b":1},"studentGuess":0.8,"delta":0,"totalExamples":10,"bonusSoFar":0.44},{"rt":null,"stimulus":"Sending examples to student... ","response":null,"trial_type":"html-keyboard-response","trial_index":45,"time_elapsed":1073686,"internal_node_id":"0.0-38.0","params":{"nStudents":24,"maxFlips":30,"completionMinutes":45,"basePay":8,"maxBonus":9,"perTrialBonus":0.5,"perTrialBonusThreshold":0.05,"exampleCost":0.01},"classroomParams":{"A":{"a":1,"b":4},"B":{"a":4,"b":1},"C":{"a":2,"b":8},"D":{"a":8,"b":2}},"conditions":["nonSeqFull","nonSeqPartial","seqNoFeedback","seqFeedback"],"classroomPairings":[["A","B"],["C","D"]],"coinWeights":[0.2,0.5,0.8],"subjectId":"A2PPTQXFVA9H38","assignmentId":"3ERMJ6L4DZEMZGO28JCP246AZIR7MP","hitId":"34XASH8KLQ89J2U8D314D7180O4PMV","url":"https://gershmanlab.com/experiments/alicia/teaching/experiment/?hitId=34XASH8KLQ89J2U8D314D7180O4PMV&workerId=A2PPTQXFVA9H38&assignmentId=3ERMJ6L4DZEMZGO28JCP246AZIR7MP&a=4JRE7&tp_a=4JRE7&b=3ERMJ6L4DZEMZGO28JCP246AZIR7MP&tp_b=3ERMJ6L4DZEMZGO28JCP246AZIR7MP&c=365717&tp_c=365717"},{"rt":null,"stimulus":"Examples sent to student! Waiting for student...","response":null,"trial_type":"html-keyboard-response","trial_index":46,"time_elapsed":1079195,"internal_node_id":"0.0-39.0","params":{"nStudents":24,"maxFlips":30,"completionMinutes":45,"basePay":8,"maxBonus":9,"perTrialBonus":0.5,"perTrialBonusThreshold":0.05,"exampleCost":0.01},"classroomParams":{"A":{"a":1,"b":4},"B":{"a":4,"b":1},"C":{"a":2,"b":8},"D":{"a":8,"b":2}},"conditions":["nonSeqFull","nonSeqPartial","seqNoFeedback","seqFeedback"],"classroomPairings":[["A","B"],["C","D"]],"coinWeights":[0.2,0.5,0.8],"subjectId":"A2PPTQXFVA9H38","assignmentId":"3ERMJ6L4DZEMZGO28JCP246AZIR7MP","hitId":"34XASH8KLQ89J2U8D314D7180O4PMV","url":"https://gershmanlab.com/experiments/alicia/teaching/experiment/?hitId=34XASH8KLQ89J2U8D314D7180O4PMV&workerId=A2PPTQXFVA9H38&assignmentId=3ERMJ6L4DZEMZGO28JCP246AZIR7MP&a=4JRE7&tp_a=4JRE7&b=3ERMJ6L4DZEMZGO28JCP246AZIR7MP&tp_b=3ERMJ6L4DZEMZGO28JCP246AZIR7MP&c=365717&tp_c=365717"},{"rt":1733,"stimulus":"\n                <p>Student's guess for coin weight: <b style=\"color:Tomato;\">0.80</b></p>\n                <p></b></p>\n                <p>You will now send another set of examples to your student. <b>Remember to take your student's guess into consideration so that you can earn the highest bonus possible!</b> </p>\n                <p>Press any key to continue.</p>\n                ","response":"g","trial_type":"html-keyboard-response","trial_index":47,"time_elapsed":1080929,"internal_node_id":"0.0-40.0","params":{"nStudents":24,"maxFlips":30,"completionMinutes":45,"basePay":8,"maxBonus":9,"perTrialBonus":0.5,"perTrialBonusThreshold":0.05,"exampleCost":0.01},"classroomParams":{"A":{"a":1,"b":4},"B":{"a":4,"b":1},"C":{"a":2,"b":8},"D":{"a":8,"b":2}},"conditions":["nonSeqFull","nonSeqPartial","seqNoFeedback","seqFeedback"],"classroomPairings":[["A","B"],["C","D"]],"coinWeights":[0.2,0.5,0.8],"subjectId":"A2PPTQXFVA9H38","assignmentId":"3ERMJ6L4DZEMZGO28JCP246AZIR7MP","hitId":"34XASH8KLQ89J2U8D314D7180O4PMV","url":"https://gershmanlab.com/experiments/alicia/teaching/experiment/?hitId=34XASH8KLQ89J2U8D314D7180O4PMV&workerId=A2PPTQXFVA9H38&assignmentId=3ERMJ6L4DZEMZGO28JCP246AZIR7MP&a=4JRE7&tp_a=4JRE7&b=3ERMJ6L4DZEMZGO28JCP246AZIR7MP&tp_b=3ERMJ6L4DZEMZGO28JCP246AZIR7MP&c=365717&tp_c=365717"},{"rt":5026,"response":{"heads":"8","tails":"2"},"type":"response","condition":"seqFeedback","trueTheta":0.8,"classrooms":["A","B"],"studentTrueClassroom":"B","exampleSet":"second","trial_type":"survey-html-form","trial_index":48,"time_elapsed":1085956,"internal_node_id":"0.0-41.0-0.0","params":{"nStudents":24,"maxFlips":30,"completionMinutes":45,"basePay":8,"maxBonus":9,"perTrialBonus":0.5,"perTrialBonusThreshold":0.05,"exampleCost":0.01},"classroomParams":{"A":{"a":1,"b":4},"B":{"a":4,"b":1},"C":{"a":2,"b":8},"D":{"a":8,"b":2}},"conditions":["nonSeqFull","nonSeqPartial","seqNoFeedback","seqFeedback"],"classroomPairings":[["A","B"],["C","D"]],"coinWeights":[0.2,0.5,0.8],"subjectId":"A2PPTQXFVA9H38","assignmentId":"3ERMJ6L4DZEMZGO28JCP246AZIR7MP","hitId":"34XASH8KLQ89J2U8D314D7180O4PMV","url":"https://gershmanlab.com/experiments/alicia/teaching/experiment/?hitId=34XASH8KLQ89J2U8D314D7180O4PMV&workerId=A2PPTQXFVA9H38&assignmentId=3ERMJ6L4DZEMZGO28JCP246AZIR7MP&a=4JRE7&tp_a=4JRE7&b=3ERMJ6L4DZEMZGO28JCP246AZIR7MP&tp_b=3ERMJ6L4DZEMZGO28JCP246AZIR7MP&c=365717&tp_c=365717","firstResponseHeads":8,"firstResponseTails":2,"secondResponseHeads":8,"secondResponseTails":2,"totalHeads":16,"totalTails":4,"studentIndex":4,"studentTrueHypers":{"a":4,"b":1},"studentGuess":0.8,"delta":0,"bonus":0.3,"bonusSoFar":0.74,"totalExamples":20},{"rt":null,"stimulus":"Sending examples to student... ","response":null,"trial_type":"html-keyboard-response","trial_index":49,"time_elapsed":1087207,"internal_node_id":"0.0-42.0","params":{"nStudents":24,"maxFlips":30,"completionMinutes":45,"basePay":8,"maxBonus":9,"perTrialBonus":0.5,"perTrialBonusThreshold":0.05,"exampleCost":0.01},"classroomParams":{"A":{"a":1,"b":4},"B":{"a":4,"b":1},"C":{"a":2,"b":8},"D":{"a":8,"b":2}},"conditions":["nonSeqFull","nonSeqPartial","seqNoFeedback","seqFeedback"],"classroomPairings":[["A","B"],["C","D"]],"coinWeights":[0.2,0.5,0.8],"subjectId":"A2PPTQXFVA9H38","assignmentId":"3ERMJ6L4DZEMZGO28JCP246AZIR7MP","hitId":"34XASH8KLQ89J2U8D314D7180O4PMV","url":"https://gershmanlab.com/experiments/alicia/teaching/experiment/?hitId=34XASH8KLQ89J2U8D314D7180O4PMV&workerId=A2PPTQXFVA9H38&assignmentId=3ERMJ6L4DZEMZGO28JCP246AZIR7MP&a=4JRE7&tp_a=4JRE7&b=3ERMJ6L4DZEMZGO28JCP246AZIR7MP&tp_b=3ERMJ6L4DZEMZGO28JCP246AZIR7MP&c=365717&tp_c=365717"},{"rt":null,"stimulus":"Examples sent to student! Waiting for student...","response":null,"trial_type":"html-keyboard-response","trial_index":50,"time_elapsed":1093210,"internal_node_id":"0.0-43.0","params":{"nStudents":24,"maxFlips":30,"completionMinutes":45,"basePay":8,"maxBonus":9,"perTrialBonus":0.5,"perTrialBonusThreshold":0.05,"exampleCost":0.01},"classroomParams":{"A":{"a":1,"b":4},"B":{"a":4,"b":1},"C":{"a":2,"b":8},"D":{"a":8,"b":2}},"conditions":["nonSeqFull","nonSeqPartial","seqNoFeedback","seqFeedback"],"classroomPairings":[["A","B"],["C","D"]],"coinWeights":[0.2,0.5,0.8],"subjectId":"A2PPTQXFVA9H38","assignmentId":"3ERMJ6L4DZEMZGO28JCP246AZIR7MP","hitId":"34XASH8KLQ89J2U8D314D7180O4PMV","url":"https://gershmanlab.com/experiments/alicia/teaching/experiment/?hitId=34XASH8KLQ89J2U8D314D7180O4PMV&workerId=A2PPTQXFVA9H38&assignmentId=3ERMJ6L4DZEMZGO28JCP246AZIR7MP&a=4JRE7&tp_a=4JRE7&b=3ERMJ6L4DZEMZGO28JCP246AZIR7MP&tp_b=3ERMJ6L4DZEMZGO28JCP246AZIR7MP&c=365717&tp_c=365717"},{"rt":2268,"stimulus":"\n                <p>Student 5's first guess for coin weight: <b style=\"color:Tomato\";>0.80</b></p>\n                <p>Student 5's second guess for coin weight: <b style=\"color:Tomato\";>0.80</b></p>\n                <p>You received a bonus of <b>$0.30</b> based on the student's second guess.</p>\n                <p>Total bonus so far: <b>$0.74</b></p>\n                <p>Press any key to continue.</p>\n                ","response":"s","trial_type":"html-keyboard-response","trial_index":51,"time_elapsed":1095479,"internal_node_id":"0.0-44.0","params":{"nStudents":24,"maxFlips":30,"completionMinutes":45,"basePay":8,"maxBonus":9,"perTrialBonus":0.5,"perTrialBonusThreshold":0.05,"exampleCost":0.01},"classroomParams":{"A":{"a":1,"b":4},"B":{"a":4,"b":1},"C":{"a":2,"b":8},"D":{"a":8,"b":2}},"conditions":["nonSeqFull","nonSeqPartial","seqNoFeedback","seqFeedback"],"classroomPairings":[["A","B"],["C","D"]],"coinWeights":[0.2,0.5,0.8],"subjectId":"A2PPTQXFVA9H38","assignmentId":"3ERMJ6L4DZEMZGO28JCP246AZIR7MP","hitId":"34XASH8KLQ89J2U8D314D7180O4PMV","url":"https://gershmanlab.com/experiments/alicia/teaching/experiment/?hitId=34XASH8KLQ89J2U8D314D7180O4PMV&workerId=A2PPTQXFVA9H38&assignmentId=3ERMJ6L4DZEMZGO28JCP246AZIR7MP&a=4JRE7&tp_a=4JRE7&b=3ERMJ6L4DZEMZGO28JCP246AZIR7MP&tp_b=3ERMJ6L4DZEMZGO28JCP246AZIR7MP&c=365717&tp_c=365717"},{"rt":null,"stimulus":"<div style=\"font-size:60px;\">Next student</div>","response":null,"trial_type":"html-keyboard-response","trial_index":52,"time_elapsed":1098492,"internal_node_id":"0.0-45.0-0.0","params":{"nStudents":24,"maxFlips":30,"completionMinutes":45,"basePay":8,"maxBonus":9,"perTrialBonus":0.5,"perTrialBonusThreshold":0.05,"exampleCost":0.01},"classroomParams":{"A":{"a":1,"b":4},"B":{"a":4,"b":1},"C":{"a":2,"b":8},"D":{"a":8,"b":2}},"conditions":["nonSeqFull","nonSeqPartial","seqNoFeedback","seqFeedback"],"classroomPairings":[["A","B"],["C","D"]],"coinWeights":[0.2,0.5,0.8],"subjectId":"A2PPTQXFVA9H38","assignmentId":"3ERMJ6L4DZEMZGO28JCP246AZIR7MP","hitId":"34XASH8KLQ89J2U8D314D7180O4PMV","url":"https://gershmanlab.com/experiments/alicia/teaching/experiment/?hitId=34XASH8KLQ89J2U8D314D7180O4PMV&workerId=A2PPTQXFVA9H38&assignmentId=3ERMJ6L4DZEMZGO28JCP246AZIR7MP&a=4JRE7&tp_a=4JRE7&b=3ERMJ6L4DZEMZGO28JCP246AZIR7MP&tp_b=3ERMJ6L4DZEMZGO28JCP246AZIR7MP&c=365717&tp_c=365717"},{"rt":964213,"stimulus":"\n            <h4 style=\"color:Orange;\">Student 6</h4>\n            <h2>The weight of your coin is <b style=\"color:Tomato;\">0.8</b>.</h2>\n            <p>In this block, you will be giving <b>two</b> sets of examples to Student 6.</p>\n                <p>You will receive feedback at the end of the block.</p>\n            <p></p>","response":0,"trial_type":"html-button-response","trial_index":53,"time_elapsed":2062705,"internal_node_id":"0.0-46.0","params":{"nStudents":24,"maxFlips":30,"completionMinutes":45,"basePay":8,"maxBonus":9,"perTrialBonus":0.5,"perTrialBonusThreshold":0.05,"exampleCost":0.01},"classroomParams":{"A":{"a":1,"b":4},"B":{"a":4,"b":1},"C":{"a":2,"b":8},"D":{"a":8,"b":2}},"conditions":["nonSeqFull","nonSeqPartial","seqNoFeedback","seqFeedback"],"classroomPairings":[["A","B"],["C","D"]],"coinWeights":[0.2,0.5,0.8],"subjectId":"A2PPTQXFVA9H38","assignmentId":"3ERMJ6L4DZEMZGO28JCP246AZIR7MP","hitId":"34XASH8KLQ89J2U8D314D7180O4PMV","url":"https://gershmanlab.com/experiments/alicia/teaching/experiment/?hitId=34XASH8KLQ89J2U8D314D7180O4PMV&workerId=A2PPTQXFVA9H38&assignmentId=3ERMJ6L4DZEMZGO28JCP246AZIR7MP&a=4JRE7&tp_a=4JRE7&b=3ERMJ6L4DZEMZGO28JCP246AZIR7MP&tp_b=3ERMJ6L4DZEMZGO28JCP246AZIR7MP&c=365717&tp_c=365717"},{"rt":24630,"response":{"heads":"4","tails":"1"},"type":"response","condition":"seqNoFeedback","trueTheta":0.8,"classrooms":["A","B"],"studentTrueClassroom":"B","exampleSet":"first","trial_type":"survey-html-form","trial_index":54,"time_elapsed":2087336,"internal_node_id":"0.0-47.0-0.0","params":{"nStudents":24,"maxFlips":30,"completionMinutes":45,"basePay":8,"maxBonus":9,"perTrialBonus":0.5,"perTrialBonusThreshold":0.05,"exampleCost":0.01},"classroomParams":{"A":{"a":1,"b":4},"B":{"a":4,"b":1},"C":{"a":2,"b":8},"D":{"a":8,"b":2}},"conditions":["nonSeqFull","nonSeqPartial","seqNoFeedback","seqFeedback"],"classroomPairings":[["A","B"],["C","D"]],"coinWeights":[0.2,0.5,0.8],"subjectId":"A2PPTQXFVA9H38","assignmentId":"3ERMJ6L4DZEMZGO28JCP246AZIR7MP","hitId":"34XASH8KLQ89J2U8D314D7180O4PMV","url":"https://gershmanlab.com/experiments/alicia/teaching/experiment/?hitId=34XASH8KLQ89J2U8D314D7180O4PMV&workerId=A2PPTQXFVA9H38&assignmentId=3ERMJ6L4DZEMZGO28JCP246AZIR7MP&a=4JRE7&tp_a=4JRE7&b=3ERMJ6L4DZEMZGO28JCP246AZIR7MP&tp_b=3ERMJ6L4DZEMZGO28JCP246AZIR7MP&c=365717&tp_c=365717","heads":4,"tails":1,"studentIndex":5,"studentTrueHypers":{"a":4,"b":1},"studentGuess":0.8,"delta":0,"totalExamples":5,"bonusSoFar":0.74},{"rt":null,"stimulus":"Sending examples to student... ","response":null,"trial_type":"html-keyboard-response","trial_index":55,"time_elapsed":2089351,"internal_node_id":"0.0-48.0","params":{"nStudents":24,"maxFlips":30,"completionMinutes":45,"basePay":8,"maxBonus":9,"perTrialBonus":0.5,"perTrialBonusThreshold":0.05,"exampleCost":0.01},"classroomParams":{"A":{"a":1,"b":4},"B":{"a":4,"b":1},"C":{"a":2,"b":8},"D":{"a":8,"b":2}},"conditions":["nonSeqFull","nonSeqPartial","seqNoFeedback","seqFeedback"],"classroomPairings":[["A","B"],["C","D"]],"coinWeights":[0.2,0.5,0.8],"subjectId":"A2PPTQXFVA9H38","assignmentId":"3ERMJ6L4DZEMZGO28JCP246AZIR7MP","hitId":"34XASH8KLQ89J2U8D314D7180O4PMV","url":"https://gershmanlab.com/experiments/alicia/teaching/experiment/?hitId=34XASH8KLQ89J2U8D314D7180O4PMV&workerId=A2PPTQXFVA9H38&assignmentId=3ERMJ6L4DZEMZGO28JCP246AZIR7MP&a=4JRE7&tp_a=4JRE7&b=3ERMJ6L4DZEMZGO28JCP246AZIR7MP&tp_b=3ERMJ6L4DZEMZGO28JCP246AZIR7MP&c=365717&tp_c=365717"},{"rt":null,"stimulus":"Examples sent to student! Waiting for student...","response":null,"trial_type":"html-keyboard-response","trial_index":56,"time_elapsed":2095358,"internal_node_id":"0.0-49.0","params":{"nStudents":24,"maxFlips":30,"completionMinutes":45,"basePay":8,"maxBonus":9,"perTrialBonus":0.5,"perTrialBonusThreshold":0.05,"exampleCost":0.01},"classroomParams":{"A":{"a":1,"b":4},"B":{"a":4,"b":1},"C":{"a":2,"b":8},"D":{"a":8,"b":2}},"conditions":["nonSeqFull","nonSeqPartial","seqNoFeedback","seqFeedback"],"classroomPairings":[["A","B"],["C","D"]],"coinWeights":[0.2,0.5,0.8],"subjectId":"A2PPTQXFVA9H38","assignmentId":"3ERMJ6L4DZEMZGO28JCP246AZIR7MP","hitId":"34XASH8KLQ89J2U8D314D7180O4PMV","url":"https://gershmanlab.com/experiments/alicia/teaching/experiment/?hitId=34XASH8KLQ89J2U8D314D7180O4PMV&workerId=A2PPTQXFVA9H38&assignmentId=3ERMJ6L4DZEMZGO28JCP246AZIR7MP&a=4JRE7&tp_a=4JRE7&b=3ERMJ6L4DZEMZGO28JCP246AZIR7MP&tp_b=3ERMJ6L4DZEMZGO28JCP246AZIR7MP&c=365717&tp_c=365717"},{"rt":6834,"response":{"heads":"1","tails":"4"},"type":"response","condition":"seqNoFeedback","trueTheta":0.8,"classrooms":["A","B"],"studentTrueClassroom":"B","exampleSet":"second","trial_type":"survey-html-form","trial_index":57,"time_elapsed":2102194,"internal_node_id":"0.0-50.0-0.0","params":{"nStudents":24,"maxFlips":30,"completionMinutes":45,"basePay":8,"maxBonus":9,"perTrialBonus":0.5,"perTrialBonusThreshold":0.05,"exampleCost":0.01},"classroomParams":{"A":{"a":1,"b":4},"B":{"a":4,"b":1},"C":{"a":2,"b":8},"D":{"a":8,"b":2}},"conditions":["nonSeqFull","nonSeqPartial","seqNoFeedback","seqFeedback"],"classroomPairings":[["A","B"],["C","D"]],"coinWeights":[0.2,0.5,0.8],"subjectId":"A2PPTQXFVA9H38","assignmentId":"3ERMJ6L4DZEMZGO28JCP246AZIR7MP","hitId":"34XASH8KLQ89J2U8D314D7180O4PMV","url":"https://gershmanlab.com/experiments/alicia/teaching/experiment/?hitId=34XASH8KLQ89J2U8D314D7180O4PMV&workerId=A2PPTQXFVA9H38&assignmentId=3ERMJ6L4DZEMZGO28JCP246AZIR7MP&a=4JRE7&tp_a=4JRE7&b=3ERMJ6L4DZEMZGO28JCP246AZIR7MP&tp_b=3ERMJ6L4DZEMZGO28JCP246AZIR7MP&c=365717&tp_c=365717","firstResponseHeads":4,"firstResponseTails":1,"secondResponseHeads":1,"secondResponseTails":4,"totalHeads":5,"totalTails":5,"studentIndex":5,"studentTrueHypers":{"a":4,"b":1},"studentGuess":0.6,"delta":0.20000000000000007,"bonus":0,"bonusSoFar":0.74,"totalExamples":10},{"rt":null,"stimulus":"Sending examples to student... ","response":null,"trial_type":"html-keyboard-response","trial_index":58,"time_elapsed":2103698,"internal_node_id":"0.0-51.0","params":{"nStudents":24,"maxFlips":30,"completionMinutes":45,"basePay":8,"maxBonus":9,"perTrialBonus":0.5,"perTrialBonusThreshold":0.05,"exampleCost":0.01},"classroomParams":{"A":{"a":1,"b":4},"B":{"a":4,"b":1},"C":{"a":2,"b":8},"D":{"a":8,"b":2}},"conditions":["nonSeqFull","nonSeqPartial","seqNoFeedback","seqFeedback"],"classroomPairings":[["A","B"],["C","D"]],"coinWeights":[0.2,0.5,0.8],"subjectId":"A2PPTQXFVA9H38","assignmentId":"3ERMJ6L4DZEMZGO28JCP246AZIR7MP","hitId":"34XASH8KLQ89J2U8D314D7180O4PMV","url":"https://gershmanlab.com/experiments/alicia/teaching/experiment/?hitId=34XASH8KLQ89J2U8D314D7180O4PMV&workerId=A2PPTQXFVA9H38&assignmentId=3ERMJ6L4DZEMZGO28JCP246AZIR7MP&a=4JRE7&tp_a=4JRE7&b=3ERMJ6L4DZEMZGO28JCP246AZIR7MP&tp_b=3ERMJ6L4DZEMZGO28JCP246AZIR7MP&c=365717&tp_c=365717"},{"rt":null,"stimulus":"Examples sent to student! Waiting for student...","response":null,"trial_type":"html-keyboard-response","trial_index":59,"time_elapsed":2109708,"internal_node_id":"0.0-52.0","params":{"nStudents":24,"maxFlips":30,"completionMinutes":45,"basePay":8,"maxBonus":9,"perTrialBonus":0.5,"perTrialBonusThreshold":0.05,"exampleCost":0.01},"classroomParams":{"A":{"a":1,"b":4},"B":{"a":4,"b":1},"C":{"a":2,"b":8},"D":{"a":8,"b":2}},"conditions":["nonSeqFull","nonSeqPartial","seqNoFeedback","seqFeedback"],"classroomPairings":[["A","B"],["C","D"]],"coinWeights":[0.2,0.5,0.8],"subjectId":"A2PPTQXFVA9H38","assignmentId":"3ERMJ6L4DZEMZGO28JCP246AZIR7MP","hitId":"34XASH8KLQ89J2U8D314D7180O4PMV","url":"https://gershmanlab.com/experiments/alicia/teaching/experiment/?hitId=34XASH8KLQ89J2U8D314D7180O4PMV&workerId=A2PPTQXFVA9H38&assignmentId=3ERMJ6L4DZEMZGO28JCP246AZIR7MP&a=4JRE7&tp_a=4JRE7&b=3ERMJ6L4DZEMZGO28JCP246AZIR7MP&tp_b=3ERMJ6L4DZEMZGO28JCP246AZIR7MP&c=365717&tp_c=365717"},{"rt":5982,"stimulus":"\n                <p>Student 6's first guess for coin weight: <b style=\"color:Tomato\";>0.80</b></p>\n                <p>Student 6's second guess for coin weight: <b style=\"color:Tomato\";>0.60</b></p>\n                <p>You received a bonus of <b>$0.00</b> based on the student's second guess.</p>\n                <p>Total bonus so far: <b>$0.74</b></p>\n                <p>Press any key to continue.</p>\n                ","response":"enter","trial_type":"html-keyboard-response","trial_index":60,"time_elapsed":2115691,"internal_node_id":"0.0-53.0","params":{"nStudents":24,"maxFlips":30,"completionMinutes":45,"basePay":8,"maxBonus":9,"perTrialBonus":0.5,"perTrialBonusThreshold":0.05,"exampleCost":0.01},"classroomParams":{"A":{"a":1,"b":4},"B":{"a":4,"b":1},"C":{"a":2,"b":8},"D":{"a":8,"b":2}},"conditions":["nonSeqFull","nonSeqPartial","seqNoFeedback","seqFeedback"],"classroomPairings":[["A","B"],["C","D"]],"coinWeights":[0.2,0.5,0.8],"subjectId":"A2PPTQXFVA9H38","assignmentId":"3ERMJ6L4DZEMZGO28JCP246AZIR7MP","hitId":"34XASH8KLQ89J2U8D314D7180O4PMV","url":"https://gershmanlab.com/experiments/alicia/teaching/experiment/?hitId=34XASH8KLQ89J2U8D314D7180O4PMV&workerId=A2PPTQXFVA9H38&assignmentId=3ERMJ6L4DZEMZGO28JCP246AZIR7MP&a=4JRE7&tp_a=4JRE7&b=3ERMJ6L4DZEMZGO28JCP246AZIR7MP&tp_b=3ERMJ6L4DZEMZGO28JCP246AZIR7MP&c=365717&tp_c=365717"},{"rt":null,"stimulus":"<div style=\"font-size:60px;\">Next student</div>","response":null,"trial_type":"html-keyboard-response","trial_index":61,"time_elapsed":2118708,"internal_node_id":"0.0-54.0-0.0","params":{"nStudents":24,"maxFlips":30,"completionMinutes":45,"basePay":8,"maxBonus":9,"perTrialBonus":0.5,"perTrialBonusThreshold":0.05,"exampleCost":0.01},"classroomParams":{"A":{"a":1,"b":4},"B":{"a":4,"b":1},"C":{"a":2,"b":8},"D":{"a":8,"b":2}},"conditions":["nonSeqFull","nonSeqPartial","seqNoFeedback","seqFeedback"],"classroomPairings":[["A","B"],["C","D"]],"coinWeights":[0.2,0.5,0.8],"subjectId":"A2PPTQXFVA9H38","assignmentId":"3ERMJ6L4DZEMZGO28JCP246AZIR7MP","hitId":"34XASH8KLQ89J2U8D314D7180O4PMV","url":"https://gershmanlab.com/experiments/alicia/teaching/experiment/?hitId=34XASH8KLQ89J2U8D314D7180O4PMV&workerId=A2PPTQXFVA9H38&assignmentId=3ERMJ6L4DZEMZGO28JCP246AZIR7MP&a=4JRE7&tp_a=4JRE7&b=3ERMJ6L4DZEMZGO28JCP246AZIR7MP&tp_b=3ERMJ6L4DZEMZGO28JCP246AZIR7MP&c=365717&tp_c=365717"},{"rt":2184,"stimulus":"\n            <h4 style=\"color:Orange;\">Student 7</h4>\n            <h2>The weight of your coin is <b style=\"color:Tomato;\">0.8</b>.</h2>\n            <p>In this block, you will be giving <b>one</b> set of examples to Student 7.</p>\n                <p>You will receive feedback at the end of the block.</p>\n            <p></p>","response":0,"trial_type":"html-button-response","trial_index":62,"time_elapsed":2120892,"internal_node_id":"0.0-55.0","params":{"nStudents":24,"maxFlips":30,"completionMinutes":45,"basePay":8,"maxBonus":9,"perTrialBonus":0.5,"perTrialBonusThreshold":0.05,"exampleCost":0.01},"classroomParams":{"A":{"a":1,"b":4},"B":{"a":4,"b":1},"C":{"a":2,"b":8},"D":{"a":8,"b":2}},"conditions":["nonSeqFull","nonSeqPartial","seqNoFeedback","seqFeedback"],"classroomPairings":[["A","B"],["C","D"]],"coinWeights":[0.2,0.5,0.8],"subjectId":"A2PPTQXFVA9H38","assignmentId":"3ERMJ6L4DZEMZGO28JCP246AZIR7MP","hitId":"34XASH8KLQ89J2U8D314D7180O4PMV","url":"https://gershmanlab.com/experiments/alicia/teaching/experiment/?hitId=34XASH8KLQ89J2U8D314D7180O4PMV&workerId=A2PPTQXFVA9H38&assignmentId=3ERMJ6L4DZEMZGO28JCP246AZIR7MP&a=4JRE7&tp_a=4JRE7&b=3ERMJ6L4DZEMZGO28JCP246AZIR7MP&tp_b=3ERMJ6L4DZEMZGO28JCP246AZIR7MP&c=365717&tp_c=365717"},{"rt":6239,"response":{"heads":"4","tails":"1"},"type":"response","condition":"nonSeqFull","trueTheta":0.8,"classrooms":["C","D"],"studentTrueClassroom":"D","exampleSet":"first","trial_type":"survey-html-form","trial_index":63,"time_elapsed":2127132,"internal_node_id":"0.0-56.0-0.0","params":{"nStudents":24,"maxFlips":30,"completionMinutes":45,"basePay":8,"maxBonus":9,"perTrialBonus":0.5,"perTrialBonusThreshold":0.05,"exampleCost":0.01},"classroomParams":{"A":{"a":1,"b":4},"B":{"a":4,"b":1},"C":{"a":2,"b":8},"D":{"a":8,"b":2}},"conditions":["nonSeqFull","nonSeqPartial","seqNoFeedback","seqFeedback"],"classroomPairings":[["A","B"],["C","D"]],"coinWeights":[0.2,0.5,0.8],"subjectId":"A2PPTQXFVA9H38","assignmentId":"3ERMJ6L4DZEMZGO28JCP246AZIR7MP","hitId":"34XASH8KLQ89J2U8D314D7180O4PMV","url":"https://gershmanlab.com/experiments/alicia/teaching/experiment/?hitId=34XASH8KLQ89J2U8D314D7180O4PMV&workerId=A2PPTQXFVA9H38&assignmentId=3ERMJ6L4DZEMZGO28JCP246AZIR7MP&a=4JRE7&tp_a=4JRE7&b=3ERMJ6L4DZEMZGO28JCP246AZIR7MP&tp_b=3ERMJ6L4DZEMZGO28JCP246AZIR7MP&c=365717&tp_c=365717","heads":4,"tails":1,"studentIndex":6,"studentTrueHypers":{"a":8,"b":2},"studentGuess":0.8,"delta":0,"totalExamples":5,"bonus":0.45,"bonusSoFar":1.19},{"rt":null,"stimulus":"Sending examples to student... ","response":null,"trial_type":"html-keyboard-response","trial_index":64,"time_elapsed":2128882,"internal_node_id":"0.0-57.0","params":{"nStudents":24,"maxFlips":30,"completionMinutes":45,"basePay":8,"maxBonus":9,"perTrialBonus":0.5,"perTrialBonusThreshold":0.05,"exampleCost":0.01},"classroomParams":{"A":{"a":1,"b":4},"B":{"a":4,"b":1},"C":{"a":2,"b":8},"D":{"a":8,"b":2}},"conditions":["nonSeqFull","nonSeqPartial","seqNoFeedback","seqFeedback"],"classroomPairings":[["A","B"],["C","D"]],"coinWeights":[0.2,0.5,0.8],"subjectId":"A2PPTQXFVA9H38","assignmentId":"3ERMJ6L4DZEMZGO28JCP246AZIR7MP","hitId":"34XASH8KLQ89J2U8D314D7180O4PMV","url":"https://gershmanlab.com/experiments/alicia/teaching/experiment/?hitId=34XASH8KLQ89J2U8D314D7180O4PMV&workerId=A2PPTQXFVA9H38&assignmentId=3ERMJ6L4DZEMZGO28JCP246AZIR7MP&a=4JRE7&tp_a=4JRE7&b=3ERMJ6L4DZEMZGO28JCP246AZIR7MP&tp_b=3ERMJ6L4DZEMZGO28JCP246AZIR7MP&c=365717&tp_c=365717"},{"rt":null,"stimulus":"Examples sent to student! Waiting for student...","response":null,"trial_type":"html-keyboard-response","trial_index":65,"time_elapsed":2133384,"internal_node_id":"0.0-58.0","params":{"nStudents":24,"maxFlips":30,"completionMinutes":45,"basePay":8,"maxBonus":9,"perTrialBonus":0.5,"perTrialBonusThreshold":0.05,"exampleCost":0.01},"classroomParams":{"A":{"a":1,"b":4},"B":{"a":4,"b":1},"C":{"a":2,"b":8},"D":{"a":8,"b":2}},"conditions":["nonSeqFull","nonSeqPartial","seqNoFeedback","seqFeedback"],"classroomPairings":[["A","B"],["C","D"]],"coinWeights":[0.2,0.5,0.8],"subjectId":"A2PPTQXFVA9H38","assignmentId":"3ERMJ6L4DZEMZGO28JCP246AZIR7MP","hitId":"34XASH8KLQ89J2U8D314D7180O4PMV","url":"https://gershmanlab.com/experiments/alicia/teaching/experiment/?hitId=34XASH8KLQ89J2U8D314D7180O4PMV&workerId=A2PPTQXFVA9H38&assignmentId=3ERMJ6L4DZEMZGO28JCP246AZIR7MP&a=4JRE7&tp_a=4JRE7&b=3ERMJ6L4DZEMZGO28JCP246AZIR7MP&tp_b=3ERMJ6L4DZEMZGO28JCP246AZIR7MP&c=365717&tp_c=365717"},{"rt":2427,"stimulus":"\n                <p>Student's guess for coin weight: <b style=\"color:Tomato;\">0.80</b></p>\n                <p>You received a bonus of <b>$0.45</b>. Total bonus so far: <b>$1.19</b></b></p>\n                <p></p>\n                <p>Press any key to continue.</p>\n                ","response":"s","trial_type":"html-keyboard-response","trial_index":66,"time_elapsed":2135812,"internal_node_id":"0.0-59.0","params":{"nStudents":24,"maxFlips":30,"completionMinutes":45,"basePay":8,"maxBonus":9,"perTrialBonus":0.5,"perTrialBonusThreshold":0.05,"exampleCost":0.01},"classroomParams":{"A":{"a":1,"b":4},"B":{"a":4,"b":1},"C":{"a":2,"b":8},"D":{"a":8,"b":2}},"conditions":["nonSeqFull","nonSeqPartial","seqNoFeedback","seqFeedback"],"classroomPairings":[["A","B"],["C","D"]],"coinWeights":[0.2,0.5,0.8],"subjectId":"A2PPTQXFVA9H38","assignmentId":"3ERMJ6L4DZEMZGO28JCP246AZIR7MP","hitId":"34XASH8KLQ89J2U8D314D7180O4PMV","url":"https://gershmanlab.com/experiments/alicia/teaching/experiment/?hitId=34XASH8KLQ89J2U8D314D7180O4PMV&workerId=A2PPTQXFVA9H38&assignmentId=3ERMJ6L4DZEMZGO28JCP246AZIR7MP&a=4JRE7&tp_a=4JRE7&b=3ERMJ6L4DZEMZGO28JCP246AZIR7MP&tp_b=3ERMJ6L4DZEMZGO28JCP246AZIR7MP&c=365717&tp_c=365717"},{"rt":null,"stimulus":"<div style=\"font-size:60px;\">Next student</div>","response":null,"trial_type":"html-keyboard-response","trial_index":67,"time_elapsed":2138315,"internal_node_id":"0.0-60.0-0.0","params":{"nStudents":24,"maxFlips":30,"completionMinutes":45,"basePay":8,"maxBonus":9,"perTrialBonus":0.5,"perTrialBonusThreshold":0.05,"exampleCost":0.01},"classroomParams":{"A":{"a":1,"b":4},"B":{"a":4,"b":1},"C":{"a":2,"b":8},"D":{"a":8,"b":2}},"conditions":["nonSeqFull","nonSeqPartial","seqNoFeedback","seqFeedback"],"classroomPairings":[["A","B"],["C","D"]],"coinWeights":[0.2,0.5,0.8],"subjectId":"A2PPTQXFVA9H38","assignmentId":"3ERMJ6L4DZEMZGO28JCP246AZIR7MP","hitId":"34XASH8KLQ89J2U8D314D7180O4PMV","url":"https://gershmanlab.com/experiments/alicia/teaching/experiment/?hitId=34XASH8KLQ89J2U8D314D7180O4PMV&workerId=A2PPTQXFVA9H38&assignmentId=3ERMJ6L4DZEMZGO28JCP246AZIR7MP&a=4JRE7&tp_a=4JRE7&b=3ERMJ6L4DZEMZGO28JCP246AZIR7MP&tp_b=3ERMJ6L4DZEMZGO28JCP246AZIR7MP&c=365717&tp_c=365717"},{"rt":1512,"stimulus":"\n            <h4 style=\"color:Orange;\">Student 8</h4>\n            <h2>The weight of your coin is <b style=\"color:Tomato;\">0.5</b>.</h2>\n            <p>In this block, you will be giving <b>one</b> set of examples to Student 8.</p>\n                <p>You will receive feedback at the end of the block.</p>\n            <p></p>","response":0,"trial_type":"html-button-response","trial_index":68,"time_elapsed":2139828,"internal_node_id":"0.0-61.0","params":{"nStudents":24,"maxFlips":30,"completionMinutes":45,"basePay":8,"maxBonus":9,"perTrialBonus":0.5,"perTrialBonusThreshold":0.05,"exampleCost":0.01},"classroomParams":{"A":{"a":1,"b":4},"B":{"a":4,"b":1},"C":{"a":2,"b":8},"D":{"a":8,"b":2}},"conditions":["nonSeqFull","nonSeqPartial","seqNoFeedback","seqFeedback"],"classroomPairings":[["A","B"],["C","D"]],"coinWeights":[0.2,0.5,0.8],"subjectId":"A2PPTQXFVA9H38","assignmentId":"3ERMJ6L4DZEMZGO28JCP246AZIR7MP","hitId":"34XASH8KLQ89J2U8D314D7180O4PMV","url":"https://gershmanlab.com/experiments/alicia/teaching/experiment/?hitId=34XASH8KLQ89J2U8D314D7180O4PMV&workerId=A2PPTQXFVA9H38&assignmentId=3ERMJ6L4DZEMZGO28JCP246AZIR7MP&a=4JRE7&tp_a=4JRE7&b=3ERMJ6L4DZEMZGO28JCP246AZIR7MP&tp_b=3ERMJ6L4DZEMZGO28JCP246AZIR7MP&c=365717&tp_c=365717"},{"rt":11025,"response":{"heads":"5","tails":"5"},"type":"response","condition":"nonSeqPartial","trueTheta":0.5,"classrooms":["C","D"],"studentTrueClassroom":"C","exampleSet":"first","trial_type":"survey-html-form","trial_index":69,"time_elapsed":2150854,"internal_node_id":"0.0-62.0-0.0","params":{"nStudents":24,"maxFlips":30,"completionMinutes":45,"basePay":8,"maxBonus":9,"perTrialBonus":0.5,"perTrialBonusThreshold":0.05,"exampleCost":0.01},"classroomParams":{"A":{"a":1,"b":4},"B":{"a":4,"b":1},"C":{"a":2,"b":8},"D":{"a":8,"b":2}},"conditions":["nonSeqFull","nonSeqPartial","seqNoFeedback","seqFeedback"],"classroomPairings":[["A","B"],["C","D"]],"coinWeights":[0.2,0.5,0.8],"subjectId":"A2PPTQXFVA9H38","assignmentId":"3ERMJ6L4DZEMZGO28JCP246AZIR7MP","hitId":"34XASH8KLQ89J2U8D314D7180O4PMV","url":"https://gershmanlab.com/experiments/alicia/teaching/experiment/?hitId=34XASH8KLQ89J2U8D314D7180O4PMV&workerId=A2PPTQXFVA9H38&assignmentId=3ERMJ6L4DZEMZGO28JCP246AZIR7MP&a=4JRE7&tp_a=4JRE7&b=3ERMJ6L4DZEMZGO28JCP246AZIR7MP&tp_b=3ERMJ6L4DZEMZGO28JCP246AZIR7MP&c=365717&tp_c=365717","heads":5,"tails":5,"studentIndex":7,"studentTrueHypers":{"a":2,"b":8},"studentGuess":0.35,"delta":0.15000000000000002,"totalExamples":10,"bonus":0,"bonusSoFar":1.19},{"rt":null,"stimulus":"Sending examples to student... ","response":null,"trial_type":"html-keyboard-response","trial_index":70,"time_elapsed":2152363,"internal_node_id":"0.0-63.0","params":{"nStudents":24,"maxFlips":30,"completionMinutes":45,"basePay":8,"maxBonus":9,"perTrialBonus":0.5,"perTrialBonusThreshold":0.05,"exampleCost":0.01},"classroomParams":{"A":{"a":1,"b":4},"B":{"a":4,"b":1},"C":{"a":2,"b":8},"D":{"a":8,"b":2}},"conditions":["nonSeqFull","nonSeqPartial","seqNoFeedback","seqFeedback"],"classroomPairings":[["A","B"],["C","D"]],"coinWeights":[0.2,0.5,0.8],"subjectId":"A2PPTQXFVA9H38","assignmentId":"3ERMJ6L4DZEMZGO28JCP246AZIR7MP","hitId":"34XASH8KLQ89J2U8D314D7180O4PMV","url":"https://gershmanlab.com/experiments/alicia/teaching/experiment/?hitId=34XASH8KLQ89J2U8D314D7180O4PMV&workerId=A2PPTQXFVA9H38&assignmentId=3ERMJ6L4DZEMZGO28JCP246AZIR7MP&a=4JRE7&tp_a=4JRE7&b=3ERMJ6L4DZEMZGO28JCP246AZIR7MP&tp_b=3ERMJ6L4DZEMZGO28JCP246AZIR7MP&c=365717&tp_c=365717"},{"rt":null,"stimulus":"Examples sent to student! Waiting for student...","response":null,"trial_type":"html-keyboard-response","trial_index":71,"time_elapsed":2156365,"internal_node_id":"0.0-64.0","params":{"nStudents":24,"maxFlips":30,"completionMinutes":45,"basePay":8,"maxBonus":9,"perTrialBonus":0.5,"perTrialBonusThreshold":0.05,"exampleCost":0.01},"classroomParams":{"A":{"a":1,"b":4},"B":{"a":4,"b":1},"C":{"a":2,"b":8},"D":{"a":8,"b":2}},"conditions":["nonSeqFull","nonSeqPartial","seqNoFeedback","seqFeedback"],"classroomPairings":[["A","B"],["C","D"]],"coinWeights":[0.2,0.5,0.8],"subjectId":"A2PPTQXFVA9H38","assignmentId":"3ERMJ6L4DZEMZGO28JCP246AZIR7MP","hitId":"34XASH8KLQ89J2U8D314D7180O4PMV","url":"https://gershmanlab.com/experiments/alicia/teaching/experiment/?hitId=34XASH8KLQ89J2U8D314D7180O4PMV&workerId=A2PPTQXFVA9H38&assignmentId=3ERMJ6L4DZEMZGO28JCP246AZIR7MP&a=4JRE7&tp_a=4JRE7&b=3ERMJ6L4DZEMZGO28JCP246AZIR7MP&tp_b=3ERMJ6L4DZEMZGO28JCP246AZIR7MP&c=365717&tp_c=365717"},{"rt":2222,"stimulus":"\n                <p>Student's guess for coin weight: <b style=\"color:Tomato;\">0.35</b></p>\n                <p>You received a bonus of <b>$0</b>. Total bonus so far: <b>$1.19</b></b></p>\n                <p></p>\n                <p>Press any key to continue.</p>\n                ","response":"enter","trial_type":"html-keyboard-response","trial_index":72,"time_elapsed":2158588,"internal_node_id":"0.0-65.0","params":{"nStudents":24,"maxFlips":30,"completionMinutes":45,"basePay":8,"maxBonus":9,"perTrialBonus":0.5,"perTrialBonusThreshold":0.05,"exampleCost":0.01},"classroomParams":{"A":{"a":1,"b":4},"B":{"a":4,"b":1},"C":{"a":2,"b":8},"D":{"a":8,"b":2}},"conditions":["nonSeqFull","nonSeqPartial","seqNoFeedback","seqFeedback"],"classroomPairings":[["A","B"],["C","D"]],"coinWeights":[0.2,0.5,0.8],"subjectId":"A2PPTQXFVA9H38","assignmentId":"3ERMJ6L4DZEMZGO28JCP246AZIR7MP","hitId":"34XASH8KLQ89J2U8D314D7180O4PMV","url":"https://gershmanlab.com/experiments/alicia/teaching/experiment/?hitId=34XASH8KLQ89J2U8D314D7180O4PMV&workerId=A2PPTQXFVA9H38&assignmentId=3ERMJ6L4DZEMZGO28JCP246AZIR7MP&a=4JRE7&tp_a=4JRE7&b=3ERMJ6L4DZEMZGO28JCP246AZIR7MP&tp_b=3ERMJ6L4DZEMZGO28JCP246AZIR7MP&c=365717&tp_c=365717"},{"rt":null,"stimulus":"<div style=\"font-size:60px;\">Next student</div>","response":null,"trial_type":"html-keyboard-response","trial_index":73,"time_elapsed":2160597,"internal_node_id":"0.0-66.0-0.0","params":{"nStudents":24,"maxFlips":30,"completionMinutes":45,"basePay":8,"maxBonus":9,"perTrialBonus":0.5,"perTrialBonusThreshold":0.05,"exampleCost":0.01},"classroomParams":{"A":{"a":1,"b":4},"B":{"a":4,"b":1},"C":{"a":2,"b":8},"D":{"a":8,"b":2}},"conditions":["nonSeqFull","nonSeqPartial","seqNoFeedback","seqFeedback"],"classroomPairings":[["A","B"],["C","D"]],"coinWeights":[0.2,0.5,0.8],"subjectId":"A2PPTQXFVA9H38","assignmentId":"3ERMJ6L4DZEMZGO28JCP246AZIR7MP","hitId":"34XASH8KLQ89J2U8D314D7180O4PMV","url":"https://gershmanlab.com/experiments/alicia/teaching/experiment/?hitId=34XASH8KLQ89J2U8D314D7180O4PMV&workerId=A2PPTQXFVA9H38&assignmentId=3ERMJ6L4DZEMZGO28JCP246AZIR7MP&a=4JRE7&tp_a=4JRE7&b=3ERMJ6L4DZEMZGO28JCP246AZIR7MP&tp_b=3ERMJ6L4DZEMZGO28JCP246AZIR7MP&c=365717&tp_c=365717"},{"rt":1429,"stimulus":"\n            <h4 style=\"color:Orange;\">Student 9</h4>\n            <h2>The weight of your coin is <b style=\"color:Tomato;\">0.5</b>.</h2>\n            <p>In this block, you will be giving <b>one</b> set of examples to Student 9.</p>\n                <p>You will receive feedback at the end of the block.</p>\n            <p></p>","response":0,"trial_type":"html-button-response","trial_index":74,"time_elapsed":2162027,"internal_node_id":"0.0-67.0","params":{"nStudents":24,"maxFlips":30,"completionMinutes":45,"basePay":8,"maxBonus":9,"perTrialBonus":0.5,"perTrialBonusThreshold":0.05,"exampleCost":0.01},"classroomParams":{"A":{"a":1,"b":4},"B":{"a":4,"b":1},"C":{"a":2,"b":8},"D":{"a":8,"b":2}},"conditions":["nonSeqFull","nonSeqPartial","seqNoFeedback","seqFeedback"],"classroomPairings":[["A","B"],["C","D"]],"coinWeights":[0.2,0.5,0.8],"subjectId":"A2PPTQXFVA9H38","assignmentId":"3ERMJ6L4DZEMZGO28JCP246AZIR7MP","hitId":"34XASH8KLQ89J2U8D314D7180O4PMV","url":"https://gershmanlab.com/experiments/alicia/teaching/experiment/?hitId=34XASH8KLQ89J2U8D314D7180O4PMV&workerId=A2PPTQXFVA9H38&assignmentId=3ERMJ6L4DZEMZGO28JCP246AZIR7MP&a=4JRE7&tp_a=4JRE7&b=3ERMJ6L4DZEMZGO28JCP246AZIR7MP&tp_b=3ERMJ6L4DZEMZGO28JCP246AZIR7MP&c=365717&tp_c=365717"},{"rt":17340,"response":{"heads":"4","tails":"4"},"type":"response","condition":"nonSeqPartial","trueTheta":0.5,"classrooms":["A","B"],"studentTrueClassroom":"B","exampleSet":"first","trial_type":"survey-html-form","trial_index":75,"time_elapsed":2179367,"internal_node_id":"0.0-68.0-0.0","params":{"nStudents":24,"maxFlips":30,"completionMinutes":45,"basePay":8,"maxBonus":9,"perTrialBonus":0.5,"perTrialBonusThreshold":0.05,"exampleCost":0.01},"classroomParams":{"A":{"a":1,"b":4},"B":{"a":4,"b":1},"C":{"a":2,"b":8},"D":{"a":8,"b":2}},"conditions":["nonSeqFull","nonSeqPartial","seqNoFeedback","seqFeedback"],"classroomPairings":[["A","B"],["C","D"]],"coinWeights":[0.2,0.5,0.8],"subjectId":"A2PPTQXFVA9H38","assignmentId":"3ERMJ6L4DZEMZGO28JCP246AZIR7MP","hitId":"34XASH8KLQ89J2U8D314D7180O4PMV","url":"https://gershmanlab.com/experiments/alicia/teaching/experiment/?hitId=34XASH8KLQ89J2U8D314D7180O4PMV&workerId=A2PPTQXFVA9H38&assignmentId=3ERMJ6L4DZEMZGO28JCP246AZIR7MP&a=4JRE7&tp_a=4JRE7&b=3ERMJ6L4DZEMZGO28JCP246AZIR7MP&tp_b=3ERMJ6L4DZEMZGO28JCP246AZIR7MP&c=365717&tp_c=365717","heads":4,"tails":4,"studentIndex":8,"studentTrueHypers":{"a":4,"b":1},"studentGuess":0.6153846153846154,"delta":0.11538461538461542,"totalExamples":8,"bonus":0,"bonusSoFar":1.19},{"rt":null,"stimulus":"Sending examples to student... ","response":null,"trial_type":"html-keyboard-response","trial_index":76,"time_elapsed":2181371,"internal_node_id":"0.0-69.0","params":{"nStudents":24,"maxFlips":30,"completionMinutes":45,"basePay":8,"maxBonus":9,"perTrialBonus":0.5,"perTrialBonusThreshold":0.05,"exampleCost":0.01},"classroomParams":{"A":{"a":1,"b":4},"B":{"a":4,"b":1},"C":{"a":2,"b":8},"D":{"a":8,"b":2}},"conditions":["nonSeqFull","nonSeqPartial","seqNoFeedback","seqFeedback"],"classroomPairings":[["A","B"],["C","D"]],"coinWeights":[0.2,0.5,0.8],"subjectId":"A2PPTQXFVA9H38","assignmentId":"3ERMJ6L4DZEMZGO28JCP246AZIR7MP","hitId":"34XASH8KLQ89J2U8D314D7180O4PMV","url":"https://gershmanlab.com/experiments/alicia/teaching/experiment/?hitId=34XASH8KLQ89J2U8D314D7180O4PMV&workerId=A2PPTQXFVA9H38&assignmentId=3ERMJ6L4DZEMZGO28JCP246AZIR7MP&a=4JRE7&tp_a=4JRE7&b=3ERMJ6L4DZEMZGO28JCP246AZIR7MP&tp_b=3ERMJ6L4DZEMZGO28JCP246AZIR7MP&c=365717&tp_c=365717"},{"rt":null,"stimulus":"Examples sent to student! Waiting for student...","response":null,"trial_type":"html-keyboard-response","trial_index":77,"time_elapsed":2186881,"internal_node_id":"0.0-70.0","params":{"nStudents":24,"maxFlips":30,"completionMinutes":45,"basePay":8,"maxBonus":9,"perTrialBonus":0.5,"perTrialBonusThreshold":0.05,"exampleCost":0.01},"classroomParams":{"A":{"a":1,"b":4},"B":{"a":4,"b":1},"C":{"a":2,"b":8},"D":{"a":8,"b":2}},"conditions":["nonSeqFull","nonSeqPartial","seqNoFeedback","seqFeedback"],"classroomPairings":[["A","B"],["C","D"]],"coinWeights":[0.2,0.5,0.8],"subjectId":"A2PPTQXFVA9H38","assignmentId":"3ERMJ6L4DZEMZGO28JCP246AZIR7MP","hitId":"34XASH8KLQ89J2U8D314D7180O4PMV","url":"https://gershmanlab.com/experiments/alicia/teaching/experiment/?hitId=34XASH8KLQ89J2U8D314D7180O4PMV&workerId=A2PPTQXFVA9H38&assignmentId=3ERMJ6L4DZEMZGO28JCP246AZIR7MP&a=4JRE7&tp_a=4JRE7&b=3ERMJ6L4DZEMZGO28JCP246AZIR7MP&tp_b=3ERMJ6L4DZEMZGO28JCP246AZIR7MP&c=365717&tp_c=365717"},{"rt":1929,"stimulus":"\n                <p>Student's guess for coin weight: <b style=\"color:Tomato;\">0.62</b></p>\n                <p>You received a bonus of <b>$0</b>. Total bonus so far: <b>$1.19</b></b></p>\n                <p></p>\n                <p>Press any key to continue.</p>\n                ","response":"enter","trial_type":"html-keyboard-response","trial_index":78,"time_elapsed":2188811,"internal_node_id":"0.0-71.0","params":{"nStudents":24,"maxFlips":30,"completionMinutes":45,"basePay":8,"maxBonus":9,"perTrialBonus":0.5,"perTrialBonusThreshold":0.05,"exampleCost":0.01},"classroomParams":{"A":{"a":1,"b":4},"B":{"a":4,"b":1},"C":{"a":2,"b":8},"D":{"a":8,"b":2}},"conditions":["nonSeqFull","nonSeqPartial","seqNoFeedback","seqFeedback"],"classroomPairings":[["A","B"],["C","D"]],"coinWeights":[0.2,0.5,0.8],"subjectId":"A2PPTQXFVA9H38","assignmentId":"3ERMJ6L4DZEMZGO28JCP246AZIR7MP","hitId":"34XASH8KLQ89J2U8D314D7180O4PMV","url":"https://gershmanlab.com/experiments/alicia/teaching/experiment/?hitId=34XASH8KLQ89J2U8D314D7180O4PMV&workerId=A2PPTQXFVA9H38&assignmentId=3ERMJ6L4DZEMZGO28JCP246AZIR7MP&a=4JRE7&tp_a=4JRE7&b=3ERMJ6L4DZEMZGO28JCP246AZIR7MP&tp_b=3ERMJ6L4DZEMZGO28JCP246AZIR7MP&c=365717&tp_c=365717"},{"rt":null,"stimulus":"<div style=\"font-size:60px;\">Next student</div>","response":null,"trial_type":"html-keyboard-response","trial_index":79,"time_elapsed":2191313,"internal_node_id":"0.0-72.0-0.0","params":{"nStudents":24,"maxFlips":30,"completionMinutes":45,"basePay":8,"maxBonus":9,"perTrialBonus":0.5,"perTrialBonusThreshold":0.05,"exampleCost":0.01},"classroomParams":{"A":{"a":1,"b":4},"B":{"a":4,"b":1},"C":{"a":2,"b":8},"D":{"a":8,"b":2}},"conditions":["nonSeqFull","nonSeqPartial","seqNoFeedback","seqFeedback"],"classroomPairings":[["A","B"],["C","D"]],"coinWeights":[0.2,0.5,0.8],"subjectId":"A2PPTQXFVA9H38","assignmentId":"3ERMJ6L4DZEMZGO28JCP246AZIR7MP","hitId":"34XASH8KLQ89J2U8D314D7180O4PMV","url":"https://gershmanlab.com/experiments/alicia/teaching/experiment/?hitId=34XASH8KLQ89J2U8D314D7180O4PMV&workerId=A2PPTQXFVA9H38&assignmentId=3ERMJ6L4DZEMZGO28JCP246AZIR7MP&a=4JRE7&tp_a=4JRE7&b=3ERMJ6L4DZEMZGO28JCP246AZIR7MP&tp_b=3ERMJ6L4DZEMZGO28JCP246AZIR7MP&c=365717&tp_c=365717"},{"rt":4663,"stimulus":"\n            <h4 style=\"color:Orange;\">Student 10</h4>\n            <h2>The weight of your coin is <b style=\"color:Tomato;\">0.5</b>.</h2>\n            <p>In this block, you will be giving <b>two</b> sets of examples to Student 10.</p>\n                <p>You will see the student's guess after the first set of examples. You will also receive feedback at the end of the block.</p>\n            <p>To earn the highest bonus, you will have to <b>take into consideration the student's guess</b> when you choose your second set of examples.</p>","response":0,"trial_type":"html-button-response","trial_index":80,"time_elapsed":2195976,"internal_node_id":"0.0-73.0","params":{"nStudents":24,"maxFlips":30,"completionMinutes":45,"basePay":8,"maxBonus":9,"perTrialBonus":0.5,"perTrialBonusThreshold":0.05,"exampleCost":0.01},"classroomParams":{"A":{"a":1,"b":4},"B":{"a":4,"b":1},"C":{"a":2,"b":8},"D":{"a":8,"b":2}},"conditions":["nonSeqFull","nonSeqPartial","seqNoFeedback","seqFeedback"],"classroomPairings":[["A","B"],["C","D"]],"coinWeights":[0.2,0.5,0.8],"subjectId":"A2PPTQXFVA9H38","assignmentId":"3ERMJ6L4DZEMZGO28JCP246AZIR7MP","hitId":"34XASH8KLQ89J2U8D314D7180O4PMV","url":"https://gershmanlab.com/experiments/alicia/teaching/experiment/?hitId=34XASH8KLQ89J2U8D314D7180O4PMV&workerId=A2PPTQXFVA9H38&assignmentId=3ERMJ6L4DZEMZGO28JCP246AZIR7MP&a=4JRE7&tp_a=4JRE7&b=3ERMJ6L4DZEMZGO28JCP246AZIR7MP&tp_b=3ERMJ6L4DZEMZGO28JCP246AZIR7MP&c=365717&tp_c=365717"},{"rt":15661,"response":{"heads":"8","tails":"2"},"type":"response","condition":"seqFeedback","trueTheta":0.5,"classrooms":["A","B"],"studentTrueClassroom":"A","exampleSet":"first","trial_type":"survey-html-form","trial_index":81,"time_elapsed":2211638,"internal_node_id":"0.0-74.0-0.0","params":{"nStudents":24,"maxFlips":30,"completionMinutes":45,"basePay":8,"maxBonus":9,"perTrialBonus":0.5,"perTrialBonusThreshold":0.05,"exampleCost":0.01},"classroomParams":{"A":{"a":1,"b":4},"B":{"a":4,"b":1},"C":{"a":2,"b":8},"D":{"a":8,"b":2}},"conditions":["nonSeqFull","nonSeqPartial","seqNoFeedback","seqFeedback"],"classroomPairings":[["A","B"],["C","D"]],"coinWeights":[0.2,0.5,0.8],"subjectId":"A2PPTQXFVA9H38","assignmentId":"3ERMJ6L4DZEMZGO28JCP246AZIR7MP","hitId":"34XASH8KLQ89J2U8D314D7180O4PMV","url":"https://gershmanlab.com/experiments/alicia/teaching/experiment/?hitId=34XASH8KLQ89J2U8D314D7180O4PMV&workerId=A2PPTQXFVA9H38&assignmentId=3ERMJ6L4DZEMZGO28JCP246AZIR7MP&a=4JRE7&tp_a=4JRE7&b=3ERMJ6L4DZEMZGO28JCP246AZIR7MP&tp_b=3ERMJ6L4DZEMZGO28JCP246AZIR7MP&c=365717&tp_c=365717","heads":8,"tails":2,"studentIndex":9,"studentTrueHypers":{"a":1,"b":4},"studentGuess":0.6,"delta":0.09999999999999998,"totalExamples":10,"bonusSoFar":1.19},{"rt":null,"stimulus":"Sending examples to student... ","response":null,"trial_type":"html-keyboard-response","trial_index":82,"time_elapsed":2213400,"internal_node_id":"0.0-75.0","params":{"nStudents":24,"maxFlips":30,"completionMinutes":45,"basePay":8,"maxBonus":9,"perTrialBonus":0.5,"perTrialBonusThreshold":0.05,"exampleCost":0.01},"classroomParams":{"A":{"a":1,"b":4},"B":{"a":4,"b":1},"C":{"a":2,"b":8},"D":{"a":8,"b":2}},"conditions":["nonSeqFull","nonSeqPartial","seqNoFeedback","seqFeedback"],"classroomPairings":[["A","B"],["C","D"]],"coinWeights":[0.2,0.5,0.8],"subjectId":"A2PPTQXFVA9H38","assignmentId":"3ERMJ6L4DZEMZGO28JCP246AZIR7MP","hitId":"34XASH8KLQ89J2U8D314D7180O4PMV","url":"https://gershmanlab.com/experiments/alicia/teaching/experiment/?hitId=34XASH8KLQ89J2U8D314D7180O4PMV&workerId=A2PPTQXFVA9H38&assignmentId=3ERMJ6L4DZEMZGO28JCP246AZIR7MP&a=4JRE7&tp_a=4JRE7&b=3ERMJ6L4DZEMZGO28JCP246AZIR7MP&tp_b=3ERMJ6L4DZEMZGO28JCP246AZIR7MP&c=365717&tp_c=365717"},{"rt":null,"stimulus":"Examples sent to student! Waiting for student...","response":null,"trial_type":"html-keyboard-response","trial_index":83,"time_elapsed":2217902,"internal_node_id":"0.0-76.0","params":{"nStudents":24,"maxFlips":30,"completionMinutes":45,"basePay":8,"maxBonus":9,"perTrialBonus":0.5,"perTrialBonusThreshold":0.05,"exampleCost":0.01},"classroomParams":{"A":{"a":1,"b":4},"B":{"a":4,"b":1},"C":{"a":2,"b":8},"D":{"a":8,"b":2}},"conditions":["nonSeqFull","nonSeqPartial","seqNoFeedback","seqFeedback"],"classroomPairings":[["A","B"],["C","D"]],"coinWeights":[0.2,0.5,0.8],"subjectId":"A2PPTQXFVA9H38","assignmentId":"3ERMJ6L4DZEMZGO28JCP246AZIR7MP","hitId":"34XASH8KLQ89J2U8D314D7180O4PMV","url":"https://gershmanlab.com/experiments/alicia/teaching/experiment/?hitId=34XASH8KLQ89J2U8D314D7180O4PMV&workerId=A2PPTQXFVA9H38&assignmentId=3ERMJ6L4DZEMZGO28JCP246AZIR7MP&a=4JRE7&tp_a=4JRE7&b=3ERMJ6L4DZEMZGO28JCP246AZIR7MP&tp_b=3ERMJ6L4DZEMZGO28JCP246AZIR7MP&c=365717&tp_c=365717"},{"rt":3444,"stimulus":"\n                <p>Student's guess for coin weight: <b style=\"color:Tomato;\">0.60</b></p>\n                <p></b></p>\n                <p>You will now send another set of examples to your student. <b>Remember to take your student's guess into consideration so that you can earn the highest bonus possible!</b> </p>\n                <p>Press any key to continue.</p>\n                ","response":"s","trial_type":"html-keyboard-response","trial_index":84,"time_elapsed":2221346,"internal_node_id":"0.0-77.0","params":{"nStudents":24,"maxFlips":30,"completionMinutes":45,"basePay":8,"maxBonus":9,"perTrialBonus":0.5,"perTrialBonusThreshold":0.05,"exampleCost":0.01},"classroomParams":{"A":{"a":1,"b":4},"B":{"a":4,"b":1},"C":{"a":2,"b":8},"D":{"a":8,"b":2}},"conditions":["nonSeqFull","nonSeqPartial","seqNoFeedback","seqFeedback"],"classroomPairings":[["A","B"],["C","D"]],"coinWeights":[0.2,0.5,0.8],"subjectId":"A2PPTQXFVA9H38","assignmentId":"3ERMJ6L4DZEMZGO28JCP246AZIR7MP","hitId":"34XASH8KLQ89J2U8D314D7180O4PMV","url":"https://gershmanlab.com/experiments/alicia/teaching/experiment/?hitId=34XASH8KLQ89J2U8D314D7180O4PMV&workerId=A2PPTQXFVA9H38&assignmentId=3ERMJ6L4DZEMZGO28JCP246