[{"rt":16714,"stimulus":"Welcome to the experiment. Press any key to begin.","response":" ","trial_type":"html-keyboard-response","trial_index":0,"time_elapsed":16733,"internal_node_id":"0.0-0.0","params":{"nStudents":24,"maxFlips":30,"completionMinutes":45,"basePay":8,"maxBonus":9,"perTrialBonus":0.5,"perTrialBonusThreshold":0.05,"exampleCost":0.01},"classroomParams":{"A":{"a":1,"b":4},"B":{"a":4,"b":1},"C":{"a":2,"b":8},"D":{"a":8,"b":2}},"conditions":["nonSeqFull","nonSeqPartial","seqNoFeedback","seqFeedback"],"classroomPairings":[["A","B"],["C","D"]],"coinWeights":[0.2,0.5,0.8],"subjectId":"A2TLN8489YGY81","assignmentId":"3LJ7UR74RIZVYBRJIMTIC7B0D7W4NP","hitId":"3SD15I2WD2G0NA4TSPXGB81L5S7630","url":"https://gershmanlab.com/experiments/alicia/teaching/experiment/?hitId=3SD15I2WD2G0NA4TSPXGB81L5S7630&workerId=A2TLN8489YGY81&assignmentId=3LJ7UR74RIZVYBRJIMTIC7B0D7W4NP&a=4UJL9&tp_a=4UJL9&b=3LJ7UR74RIZVYBRJIMTIC7B0D7W4NP&tp_b=3LJ7UR74RIZVYBRJIMTIC7B0D7W4NP&c=365799&tp_c=365799"},{"rt":11533,"stimulus":"\n        <h3>Please read this consent agreement carefully before deciding whether to participate in this experiment.</h3>\n        <p><b>Purpose of the research:</b> To examine how people teach effectively.</p>\n        <p><b>What you will do in this research:</b> You will teach students the weights of different coins.</p>\n        <p><b>Time required:</b> This experiment will take 45 minutes to complete.</p>\n        <p><b>Risks:</b> There are no anticipated risks associated with participating in this study.             The effects of participating should be comparable to those you would experience from viewing a computer monitor             and using a mouse and keyboard for the duration of the experiment.</p>\n        <p><b>Benefits:</b> The study provides important information about the nature of teaching.</p>\n        <p><b>Compensation:</b> You will receive <b>$8</b> for completing the experiment and a performance bonus of up to <b>$9</b>.</p>\n        <p><b>Confidentiality:</b> Your participation in this study will remain confidential.             No personally identifiable information will be associated with your data.             Your de-identified data may be shared with other researchers and used in future projects.</p>\n        <p><b>Participation and withdrawal:</b> Your participation in this study is completely voluntary and             you may refuse to participate or you may choose to withdraw at any time without penalty or loss of\n            benefits to which you are otherwise entitled.</p>\n        <p><b>How to contact the researcher:</b> If you have questions or concerns about your participation            or payment, or want to request a summary of research findings, please contact\n            Alicia Chen, aliciachen@college.harvard.edu.</p>\n        <p><b>Whom to contact about your rights in this research:</b> For questions, concerns, suggestions,             or complaints that have not been or cannot be addressed by the researcher, or to report             research-related harm, please contact the Committee on the Use of Human Subjects in Research at Harvard University,             1414 Massachusetts Avenue, Second Floor, Cambridge, MA 02138. Phone: 617-496-2847. Email: cuhs@fas.harvard.edu.</p>\n        ","response":0,"trial_type":"html-button-response","trial_index":1,"time_elapsed":28269,"internal_node_id":"0.0-1.0","params":{"nStudents":24,"maxFlips":30,"completionMinutes":45,"basePay":8,"maxBonus":9,"perTrialBonus":0.5,"perTrialBonusThreshold":0.05,"exampleCost":0.01},"classroomParams":{"A":{"a":1,"b":4},"B":{"a":4,"b":1},"C":{"a":2,"b":8},"D":{"a":8,"b":2}},"conditions":["nonSeqFull","nonSeqPartial","seqNoFeedback","seqFeedback"],"classroomPairings":[["A","B"],["C","D"]],"coinWeights":[0.2,0.5,0.8],"subjectId":"A2TLN8489YGY81","assignmentId":"3LJ7UR74RIZVYBRJIMTIC7B0D7W4NP","hitId":"3SD15I2WD2G0NA4TSPXGB81L5S7630","url":"https://gershmanlab.com/experiments/alicia/teaching/experiment/?hitId=3SD15I2WD2G0NA4TSPXGB81L5S7630&workerId=A2TLN8489YGY81&assignmentId=3LJ7UR74RIZVYBRJIMTIC7B0D7W4NP&a=4UJL9&tp_a=4UJL9&b=3LJ7UR74RIZVYBRJIMTIC7B0D7W4NP&tp_b=3LJ7UR74RIZVYBRJIMTIC7B0D7W4NP&c=365799&tp_c=365799"},{"view_history":[{"page_index":0,"viewing_time":1448},{"page_index":1,"viewing_time":961},{"page_index":2,"viewing_time":1353},{"page_index":3,"viewing_time":8664},{"page_index":4,"viewing_time":1212},{"page_index":5,"viewing_time":1596},{"page_index":6,"viewing_time":5433}],"rt":20666,"trial_type":"instructions","trial_index":2,"time_elapsed":48935,"internal_node_id":"0.0-2.0-0.0","params":{"nStudents":24,"maxFlips":30,"completionMinutes":45,"basePay":8,"maxBonus":9,"perTrialBonus":0.5,"perTrialBonusThreshold":0.05,"exampleCost":0.01},"classroomParams":{"A":{"a":1,"b":4},"B":{"a":4,"b":1},"C":{"a":2,"b":8},"D":{"a":8,"b":2}},"conditions":["nonSeqFull","nonSeqPartial","seqNoFeedback","seqFeedback"],"classroomPairings":[["A","B"],["C","D"]],"coinWeights":[0.2,0.5,0.8],"subjectId":"A2TLN8489YGY81","assignmentId":"3LJ7UR74RIZVYBRJIMTIC7B0D7W4NP","hitId":"3SD15I2WD2G0NA4TSPXGB81L5S7630","url":"https://gershmanlab.com/experiments/alicia/teaching/experiment/?hitId=3SD15I2WD2G0NA4TSPXGB81L5S7630&workerId=A2TLN8489YGY81&assignmentId=3LJ7UR74RIZVYBRJIMTIC7B0D7W4NP&a=4UJL9&tp_a=4UJL9&b=3LJ7UR74RIZVYBRJIMTIC7B0D7W4NP&tp_b=3LJ7UR74RIZVYBRJIMTIC7B0D7W4NP&c=365799&tp_c=365799"},{"rt":30604,"response":{"Q0":"Students in different classrooms will have seen a different number of heads and tails before seeing the examples you select for them.","Q1":"By <b>considering the student's classroom information</b> so that I can teach efficiently and accurately/helpfully at the same time (because each example I give to the student costs money!).","Q2":"The coin lands heads 90% of the time.","Q3":"No, I will teach a <b>new</b> student each time.","Q4":"The students are also on the same alien planet as you, where coins can be unfair.","Q5":"Based on the student's second (and final) guess."},"question_order":[3,1,5,2,0,4],"trial_type":"survey-multi-choice","trial_index":3,"time_elapsed":79541,"internal_node_id":"0.0-2.0-1.0","params":{"nStudents":24,"maxFlips":30,"completionMinutes":45,"basePay":8,"maxBonus":9,"perTrialBonus":0.5,"perTrialBonusThreshold":0.05,"exampleCost":0.01},"classroomParams":{"A":{"a":1,"b":4},"B":{"a":4,"b":1},"C":{"a":2,"b":8},"D":{"a":8,"b":2}},"conditions":["nonSeqFull","nonSeqPartial","seqNoFeedback","seqFeedback"],"classroomPairings":[["A","B"],["C","D"]],"coinWeights":[0.2,0.5,0.8],"subjectId":"A2TLN8489YGY81","assignmentId":"3LJ7UR74RIZVYBRJIMTIC7B0D7W4NP","hitId":"3SD15I2WD2G0NA4TSPXGB81L5S7630","url":"https://gershmanlab.com/experiments/alicia/teaching/experiment/?hitId=3SD15I2WD2G0NA4TSPXGB81L5S7630&workerId=A2TLN8489YGY81&assignmentId=3LJ7UR74RIZVYBRJIMTIC7B0D7W4NP&a=4UJL9&tp_a=4UJL9&b=3LJ7UR74RIZVYBRJIMTIC7B0D7W4NP&tp_b=3LJ7UR74RIZVYBRJIMTIC7B0D7W4NP&c=365799&tp_c=365799","pass":true},{"rt":null,"stimulus":"<div style=\"font-size:30px;\">Congrats on passing the comprehension quiz! The experiment will begin in a few seconds.</div>","response":null,"trial_type":"html-keyboard-response","trial_index":4,"time_elapsed":82546,"internal_node_id":"0.0-3.0","params":{"nStudents":24,"maxFlips":30,"completionMinutes":45,"basePay":8,"maxBonus":9,"perTrialBonus":0.5,"perTrialBonusThreshold":0.05,"exampleCost":0.01},"classroomParams":{"A":{"a":1,"b":4},"B":{"a":4,"b":1},"C":{"a":2,"b":8},"D":{"a":8,"b":2}},"conditions":["nonSeqFull","nonSeqPartial","seqNoFeedback","seqFeedback"],"classroomPairings":[["A","B"],["C","D"]],"coinWeights":[0.2,0.5,0.8],"subjectId":"A2TLN8489YGY81","assignmentId":"3LJ7UR74RIZVYBRJIMTIC7B0D7W4NP","hitId":"3SD15I2WD2G0NA4TSPXGB81L5S7630","url":"https://gershmanlab.com/experiments/alicia/teaching/experiment/?hitId=3SD15I2WD2G0NA4TSPXGB81L5S7630&workerId=A2TLN8489YGY81&assignmentId=3LJ7UR74RIZVYBRJIMTIC7B0D7W4NP&a=4UJL9&tp_a=4UJL9&b=3LJ7UR74RIZVYBRJIMTIC7B0D7W4NP&tp_b=3LJ7UR74RIZVYBRJIMTIC7B0D7W4NP&c=365799&tp_c=365799"},{"rt":null,"stimulus":"<div style=\"font-size:50px;\">First student</div>","response":null,"trial_type":"html-keyboard-response","trial_index":5,"time_elapsed":85548,"internal_node_id":"0.0-4.0","params":{"nStudents":24,"maxFlips":30,"completionMinutes":45,"basePay":8,"maxBonus":9,"perTrialBonus":0.5,"perTrialBonusThreshold":0.05,"exampleCost":0.01},"classroomParams":{"A":{"a":1,"b":4},"B":{"a":4,"b":1},"C":{"a":2,"b":8},"D":{"a":8,"b":2}},"conditions":["nonSeqFull","nonSeqPartial","seqNoFeedback","seqFeedback"],"classroomPairings":[["A","B"],["C","D"]],"coinWeights":[0.2,0.5,0.8],"subjectId":"A2TLN8489YGY81","assignmentId":"3LJ7UR74RIZVYBRJIMTIC7B0D7W4NP","hitId":"3SD15I2WD2G0NA4TSPXGB81L5S7630","url":"https://gershmanlab.com/experiments/alicia/teaching/experiment/?hitId=3SD15I2WD2G0NA4TSPXGB81L5S7630&workerId=A2TLN8489YGY81&assignmentId=3LJ7UR74RIZVYBRJIMTIC7B0D7W4NP&a=4UJL9&tp_a=4UJL9&b=3LJ7UR74RIZVYBRJIMTIC7B0D7W4NP&tp_b=3LJ7UR74RIZVYBRJIMTIC7B0D7W4NP&c=365799&tp_c=365799"},{"rt":6626,"stimulus":"\n            <h4 style=\"color:Orange;\">Student 1</h4>\n            <h2>The weight of your coin is <b style=\"color:Tomato;\">0.2</b>.</h2>\n            <p>In this block, you will be giving <b>two</b> sets of examples to Student 1.</p>\n                <p>You will see the student's guess after the first set of examples. You will also receive feedback at the end of the block.</p>\n            <p>To earn the highest bonus, you will have to <b>take into consideration the student's guess</b> when you choose your second set of examples.</p>","response":0,"trial_type":"html-button-response","trial_index":6,"time_elapsed":92176,"internal_node_id":"0.0-5.0","params":{"nStudents":24,"maxFlips":30,"completionMinutes":45,"basePay":8,"maxBonus":9,"perTrialBonus":0.5,"perTrialBonusThreshold":0.05,"exampleCost":0.01},"classroomParams":{"A":{"a":1,"b":4},"B":{"a":4,"b":1},"C":{"a":2,"b":8},"D":{"a":8,"b":2}},"conditions":["nonSeqFull","nonSeqPartial","seqNoFeedback","seqFeedback"],"classroomPairings":[["A","B"],["C","D"]],"coinWeights":[0.2,0.5,0.8],"subjectId":"A2TLN8489YGY81","assignmentId":"3LJ7UR74RIZVYBRJIMTIC7B0D7W4NP","hitId":"3SD15I2WD2G0NA4TSPXGB81L5S7630","url":"https://gershmanlab.com/experiments/alicia/teaching/experiment/?hitId=3SD15I2WD2G0NA4TSPXGB81L5S7630&workerId=A2TLN8489YGY81&assignmentId=3LJ7UR74RIZVYBRJIMTIC7B0D7W4NP&a=4UJL9&tp_a=4UJL9&b=3LJ7UR74RIZVYBRJIMTIC7B0D7W4NP&tp_b=3LJ7UR74RIZVYBRJIMTIC7B0D7W4NP&c=365799&tp_c=365799"},{"rt":18683,"response":{"heads":"1","tails":"0"},"type":"response","condition":"seqFeedback","trueTheta":0.2,"classrooms":["A","B"],"studentTrueClassroom":"B","exampleSet":"first","trial_type":"survey-html-form","trial_index":7,"time_elapsed":110861,"internal_node_id":"0.0-6.0-0.0","params":{"nStudents":24,"maxFlips":30,"completionMinutes":45,"basePay":8,"maxBonus":9,"perTrialBonus":0.5,"perTrialBonusThreshold":0.05,"exampleCost":0.01},"classroomParams":{"A":{"a":1,"b":4},"B":{"a":4,"b":1},"C":{"a":2,"b":8},"D":{"a":8,"b":2}},"conditions":["nonSeqFull","nonSeqPartial","seqNoFeedback","seqFeedback"],"classroomPairings":[["A","B"],["C","D"]],"coinWeights":[0.2,0.5,0.8],"subjectId":"A2TLN8489YGY81","assignmentId":"3LJ7UR74RIZVYBRJIMTIC7B0D7W4NP","hitId":"3SD15I2WD2G0NA4TSPXGB81L5S7630","url":"https://gershmanlab.com/experiments/alicia/teaching/experiment/?hitId=3SD15I2WD2G0NA4TSPXGB81L5S7630&workerId=A2TLN8489YGY81&assignmentId=3LJ7UR74RIZVYBRJIMTIC7B0D7W4NP&a=4UJL9&tp_a=4UJL9&b=3LJ7UR74RIZVYBRJIMTIC7B0D7W4NP&tp_b=3LJ7UR74RIZVYBRJIMTIC7B0D7W4NP&c=365799&tp_c=365799","heads":1,"tails":0,"studentIndex":0,"studentTrueHypers":{"a":4,"b":1},"studentGuess":0.8333333333333334,"delta":0.6333333333333333,"totalExamples":1,"bonusSoFar":0},{"rt":null,"stimulus":"Sending examples to student... ","response":null,"trial_type":"html-keyboard-response","trial_index":8,"time_elapsed":112623,"internal_node_id":"0.0-7.0","params":{"nStudents":24,"maxFlips":30,"completionMinutes":45,"basePay":8,"maxBonus":9,"perTrialBonus":0.5,"perTrialBonusThreshold":0.05,"exampleCost":0.01},"classroomParams":{"A":{"a":1,"b":4},"B":{"a":4,"b":1},"C":{"a":2,"b":8},"D":{"a":8,"b":2}},"conditions":["nonSeqFull","nonSeqPartial","seqNoFeedback","seqFeedback"],"classroomPairings":[["A","B"],["C","D"]],"coinWeights":[0.2,0.5,0.8],"subjectId":"A2TLN8489YGY81","assignmentId":"3LJ7UR74RIZVYBRJIMTIC7B0D7W4NP","hitId":"3SD15I2WD2G0NA4TSPXGB81L5S7630","url":"https://gershmanlab.com/experiments/alicia/teaching/experiment/?hitId=3SD15I2WD2G0NA4TSPXGB81L5S7630&workerId=A2TLN8489YGY81&assignmentId=3LJ7UR74RIZVYBRJIMTIC7B0D7W4NP&a=4UJL9&tp_a=4UJL9&b=3LJ7UR74RIZVYBRJIMTIC7B0D7W4NP&tp_b=3LJ7UR74RIZVYBRJIMTIC7B0D7W4NP&c=365799&tp_c=365799"},{"rt":null,"stimulus":"Examples sent to student! Waiting for student...","response":null,"trial_type":"html-keyboard-response","trial_index":9,"time_elapsed":117626,"internal_node_id":"0.0-8.0","params":{"nStudents":24,"maxFlips":30,"completionMinutes":45,"basePay":8,"maxBonus":9,"perTrialBonus":0.5,"perTrialBonusThreshold":0.05,"exampleCost":0.01},"classroomParams":{"A":{"a":1,"b":4},"B":{"a":4,"b":1},"C":{"a":2,"b":8},"D":{"a":8,"b":2}},"conditions":["nonSeqFull","nonSeqPartial","seqNoFeedback","seqFeedback"],"classroomPairings":[["A","B"],["C","D"]],"coinWeights":[0.2,0.5,0.8],"subjectId":"A2TLN8489YGY81","assignmentId":"3LJ7UR74RIZVYBRJIMTIC7B0D7W4NP","hitId":"3SD15I2WD2G0NA4TSPXGB81L5S7630","url":"https://gershmanlab.com/experiments/alicia/teaching/experiment/?hitId=3SD15I2WD2G0NA4TSPXGB81L5S7630&workerId=A2TLN8489YGY81&assignmentId=3LJ7UR74RIZVYBRJIMTIC7B0D7W4NP&a=4UJL9&tp_a=4UJL9&b=3LJ7UR74RIZVYBRJIMTIC7B0D7W4NP&tp_b=3LJ7UR74RIZVYBRJIMTIC7B0D7W4NP&c=365799&tp_c=365799"},{"rt":8516,"stimulus":"\n                <p>Student's guess for coin weight: <b style=\"color:Tomato;\">0.83</b></p>\n                <p></b></p>\n                <p>You will now send another set of examples to your student. <b>Remember to take your student's guess into consideration so that you can earn the highest bonus possible!</b> </p>\n                <p>Press any key to continue.</p>\n                ","response":" ","trial_type":"html-keyboard-response","trial_index":10,"time_elapsed":126143,"internal_node_id":"0.0-9.0","params":{"nStudents":24,"maxFlips":30,"completionMinutes":45,"basePay":8,"maxBonus":9,"perTrialBonus":0.5,"perTrialBonusThreshold":0.05,"exampleCost":0.01},"classroomParams":{"A":{"a":1,"b":4},"B":{"a":4,"b":1},"C":{"a":2,"b":8},"D":{"a":8,"b":2}},"conditions":["nonSeqFull","nonSeqPartial","seqNoFeedback","seqFeedback"],"classroomPairings":[["A","B"],["C","D"]],"coinWeights":[0.2,0.5,0.8],"subjectId":"A2TLN8489YGY81","assignmentId":"3LJ7UR74RIZVYBRJIMTIC7B0D7W4NP","hitId":"3SD15I2WD2G0NA4TSPXGB81L5S7630","url":"https://gershmanlab.com/experiments/alicia/teaching/experiment/?hitId=3SD15I2WD2G0NA4TSPXGB81L5S7630&workerId=A2TLN8489YGY81&assignmentId=3LJ7UR74RIZVYBRJIMTIC7B0D7W4NP&a=4UJL9&tp_a=4UJL9&b=3LJ7UR74RIZVYBRJIMTIC7B0D7W4NP&tp_b=3LJ7UR74RIZVYBRJIMTIC7B0D7W4NP&c=365799&tp_c=365799"},{"rt":49094,"response":{"heads":"0","tails":"14"},"type":"response","condition":"seqFeedback","trueTheta":0.2,"classrooms":["A","B"],"studentTrueClassroom":"B","exampleSet":"second","trial_type":"survey-html-form","trial_index":11,"time_elapsed":175239,"internal_node_id":"0.0-10.0-0.0","params":{"nStudents":24,"maxFlips":30,"completionMinutes":45,"basePay":8,"maxBonus":9,"perTrialBonus":0.5,"perTrialBonusThreshold":0.05,"exampleCost":0.01},"classroomParams":{"A":{"a":1,"b":4},"B":{"a":4,"b":1},"C":{"a":2,"b":8},"D":{"a":8,"b":2}},"conditions":["nonSeqFull","nonSeqPartial","seqNoFeedback","seqFeedback"],"classroomPairings":[["A","B"],["C","D"]],"coinWeights":[0.2,0.5,0.8],"subjectId":"A2TLN8489YGY81","assignmentId":"3LJ7UR74RIZVYBRJIMTIC7B0D7W4NP","hitId":"3SD15I2WD2G0NA4TSPXGB81L5S7630","url":"https://gershmanlab.com/experiments/alicia/teaching/experiment/?hitId=3SD15I2WD2G0NA4TSPXGB81L5S7630&workerId=A2TLN8489YGY81&assignmentId=3LJ7UR74RIZVYBRJIMTIC7B0D7W4NP&a=4UJL9&tp_a=4UJL9&b=3LJ7UR74RIZVYBRJIMTIC7B0D7W4NP&tp_b=3LJ7UR74RIZVYBRJIMTIC7B0D7W4NP&c=365799&tp_c=365799","firstResponseHeads":1,"firstResponseTails":0,"secondResponseHeads":0,"secondResponseTails":14,"totalHeads":1,"totalTails":14,"studentIndex":0,"studentTrueHypers":{"a":4,"b":1},"studentGuess":0.25,"delta":0.04999999999999999,"bonus":0.35,"bonusSoFar":0.35,"totalExamples":15},{"rt":null,"stimulus":"Sending examples to student... ","response":null,"trial_type":"html-keyboard-response","trial_index":12,"time_elapsed":176991,"internal_node_id":"0.0-11.0","params":{"nStudents":24,"maxFlips":30,"completionMinutes":45,"basePay":8,"maxBonus":9,"perTrialBonus":0.5,"perTrialBonusThreshold":0.05,"exampleCost":0.01},"classroomParams":{"A":{"a":1,"b":4},"B":{"a":4,"b":1},"C":{"a":2,"b":8},"D":{"a":8,"b":2}},"conditions":["nonSeqFull","nonSeqPartial","seqNoFeedback","seqFeedback"],"classroomPairings":[["A","B"],["C","D"]],"coinWeights":[0.2,0.5,0.8],"subjectId":"A2TLN8489YGY81","assignmentId":"3LJ7UR74RIZVYBRJIMTIC7B0D7W4NP","hitId":"3SD15I2WD2G0NA4TSPXGB81L5S7630","url":"https://gershmanlab.com/experiments/alicia/teaching/experiment/?hitId=3SD15I2WD2G0NA4TSPXGB81L5S7630&workerId=A2TLN8489YGY81&assignmentId=3LJ7UR74RIZVYBRJIMTIC7B0D7W4NP&a=4UJL9&tp_a=4UJL9&b=3LJ7UR74RIZVYBRJIMTIC7B0D7W4NP&tp_b=3LJ7UR74RIZVYBRJIMTIC7B0D7W4NP&c=365799&tp_c=365799"},{"rt":null,"stimulus":"Examples sent to student! Waiting for student...","response":null,"trial_type":"html-keyboard-response","trial_index":13,"time_elapsed":181992,"internal_node_id":"0.0-12.0","params":{"nStudents":24,"maxFlips":30,"completionMinutes":45,"basePay":8,"maxBonus":9,"perTrialBonus":0.5,"perTrialBonusThreshold":0.05,"exampleCost":0.01},"classroomParams":{"A":{"a":1,"b":4},"B":{"a":4,"b":1},"C":{"a":2,"b":8},"D":{"a":8,"b":2}},"conditions":["nonSeqFull","nonSeqPartial","seqNoFeedback","seqFeedback"],"classroomPairings":[["A","B"],["C","D"]],"coinWeights":[0.2,0.5,0.8],"subjectId":"A2TLN8489YGY81","assignmentId":"3LJ7UR74RIZVYBRJIMTIC7B0D7W4NP","hitId":"3SD15I2WD2G0NA4TSPXGB81L5S7630","url":"https://gershmanlab.com/experiments/alicia/teaching/experiment/?hitId=3SD15I2WD2G0NA4TSPXGB81L5S7630&workerId=A2TLN8489YGY81&assignmentId=3LJ7UR74RIZVYBRJIMTIC7B0D7W4NP&a=4UJL9&tp_a=4UJL9&b=3LJ7UR74RIZVYBRJIMTIC7B0D7W4NP&tp_b=3LJ7UR74RIZVYBRJIMTIC7B0D7W4NP&c=365799&tp_c=365799"},{"rt":3762,"stimulus":"\n                <p>Student 1's first guess for coin weight: <b style=\"color:Tomato\";>0.83</b></p>\n                <p>Student 1's second guess for coin weight: <b style=\"color:Tomato\";>0.25</b></p>\n                <p>You received a bonus of <b>$0.35</b> based on the student's second guess.</p>\n                <p>Total bonus so far: <b>$0.35</b></p>\n                <p>Press any key to continue.</p>\n                ","response":" ","trial_type":"html-keyboard-response","trial_index":14,"time_elapsed":185756,"internal_node_id":"0.0-13.0","params":{"nStudents":24,"maxFlips":30,"completionMinutes":45,"basePay":8,"maxBonus":9,"perTrialBonus":0.5,"perTrialBonusThreshold":0.05,"exampleCost":0.01},"classroomParams":{"A":{"a":1,"b":4},"B":{"a":4,"b":1},"C":{"a":2,"b":8},"D":{"a":8,"b":2}},"conditions":["nonSeqFull","nonSeqPartial","seqNoFeedback","seqFeedback"],"classroomPairings":[["A","B"],["C","D"]],"coinWeights":[0.2,0.5,0.8],"subjectId":"A2TLN8489YGY81","assignmentId":"3LJ7UR74RIZVYBRJIMTIC7B0D7W4NP","hitId":"3SD15I2WD2G0NA4TSPXGB81L5S7630","url":"https://gershmanlab.com/experiments/alicia/teaching/experiment/?hitId=3SD15I2WD2G0NA4TSPXGB81L5S7630&workerId=A2TLN8489YGY81&assignmentId=3LJ7UR74RIZVYBRJIMTIC7B0D7W4NP&a=4UJL9&tp_a=4UJL9&b=3LJ7UR74RIZVYBRJIMTIC7B0D7W4NP&tp_b=3LJ7UR74RIZVYBRJIMTIC7B0D7W4NP&c=365799&tp_c=365799"},{"rt":null,"stimulus":"<div style=\"font-size:60px;\">Next student</div>","response":null,"trial_type":"html-keyboard-response","trial_index":15,"time_elapsed":188011,"internal_node_id":"0.0-14.0-0.0","params":{"nStudents":24,"maxFlips":30,"completionMinutes":45,"basePay":8,"maxBonus":9,"perTrialBonus":0.5,"perTrialBonusThreshold":0.05,"exampleCost":0.01},"classroomParams":{"A":{"a":1,"b":4},"B":{"a":4,"b":1},"C":{"a":2,"b":8},"D":{"a":8,"b":2}},"conditions":["nonSeqFull","nonSeqPartial","seqNoFeedback","seqFeedback"],"classroomPairings":[["A","B"],["C","D"]],"coinWeights":[0.2,0.5,0.8],"subjectId":"A2TLN8489YGY81","assignmentId":"3LJ7UR74RIZVYBRJIMTIC7B0D7W4NP","hitId":"3SD15I2WD2G0NA4TSPXGB81L5S7630","url":"https://gershmanlab.com/experiments/alicia/teaching/experiment/?hitId=3SD15I2WD2G0NA4TSPXGB81L5S7630&workerId=A2TLN8489YGY81&assignmentId=3LJ7UR74RIZVYBRJIMTIC7B0D7W4NP&a=4UJL9&tp_a=4UJL9&b=3LJ7UR74RIZVYBRJIMTIC7B0D7W4NP&tp_b=3LJ7UR74RIZVYBRJIMTIC7B0D7W4NP&c=365799&tp_c=365799"},{"rt":3989,"stimulus":"\n            <h4 style=\"color:Orange;\">Student 2</h4>\n            <h2>The weight of your coin is <b style=\"color:Tomato;\">0.2</b>.</h2>\n            <p>In this block, you will be giving <b>one</b> set of examples to Student 2.</p>\n                <p>You will receive feedback at the end of the block.</p>\n            <p></p>","response":0,"trial_type":"html-button-response","trial_index":16,"time_elapsed":192001,"internal_node_id":"0.0-15.0","params":{"nStudents":24,"maxFlips":30,"completionMinutes":45,"basePay":8,"maxBonus":9,"perTrialBonus":0.5,"perTrialBonusThreshold":0.05,"exampleCost":0.01},"classroomParams":{"A":{"a":1,"b":4},"B":{"a":4,"b":1},"C":{"a":2,"b":8},"D":{"a":8,"b":2}},"conditions":["nonSeqFull","nonSeqPartial","seqNoFeedback","seqFeedback"],"classroomPairings":[["A","B"],["C","D"]],"coinWeights":[0.2,0.5,0.8],"subjectId":"A2TLN8489YGY81","assignmentId":"3LJ7UR74RIZVYBRJIMTIC7B0D7W4NP","hitId":"3SD15I2WD2G0NA4TSPXGB81L5S7630","url":"https://gershmanlab.com/experiments/alicia/teaching/experiment/?hitId=3SD15I2WD2G0NA4TSPXGB81L5S7630&workerId=A2TLN8489YGY81&assignmentId=3LJ7UR74RIZVYBRJIMTIC7B0D7W4NP&a=4UJL9&tp_a=4UJL9&b=3LJ7UR74RIZVYBRJIMTIC7B0D7W4NP&tp_b=3LJ7UR74RIZVYBRJIMTIC7B0D7W4NP&c=365799&tp_c=365799"},{"rt":46868,"response":{"heads":"0","tails":"22"},"type":"response","condition":"nonSeqFull","trueTheta":0.2,"classrooms":["C","D"],"studentTrueClassroom":"D","exampleSet":"first","trial_type":"survey-html-form","trial_index":17,"time_elapsed":238870,"internal_node_id":"0.0-16.0-0.0","params":{"nStudents":24,"maxFlips":30,"completionMinutes":45,"basePay":8,"maxBonus":9,"perTrialBonus":0.5,"perTrialBonusThreshold":0.05,"exampleCost":0.01},"classroomParams":{"A":{"a":1,"b":4},"B":{"a":4,"b":1},"C":{"a":2,"b":8},"D":{"a":8,"b":2}},"conditions":["nonSeqFull","nonSeqPartial","seqNoFeedback","seqFeedback"],"classroomPairings":[["A","B"],["C","D"]],"coinWeights":[0.2,0.5,0.8],"subjectId":"A2TLN8489YGY81","assignmentId":"3LJ7UR74RIZVYBRJIMTIC7B0D7W4NP","hitId":"3SD15I2WD2G0NA4TSPXGB81L5S7630","url":"https://gershmanlab.com/experiments/alicia/teaching/experiment/?hitId=3SD15I2WD2G0NA4TSPXGB81L5S7630&workerId=A2TLN8489YGY81&assignmentId=3LJ7UR74RIZVYBRJIMTIC7B0D7W4NP&a=4UJL9&tp_a=4UJL9&b=3LJ7UR74RIZVYBRJIMTIC7B0D7W4NP&tp_b=3LJ7UR74RIZVYBRJIMTIC7B0D7W4NP&c=365799&tp_c=365799","heads":0,"tails":22,"studentIndex":1,"studentTrueHypers":{"a":8,"b":2},"studentGuess":0.25,"delta":0.04999999999999999,"totalExamples":22,"bonus":0.28,"bonusSoFar":0.63},{"rt":null,"stimulus":"Sending examples to student... ","response":null,"trial_type":"html-keyboard-response","trial_index":18,"time_elapsed":240633,"internal_node_id":"0.0-17.0","params":{"nStudents":24,"maxFlips":30,"completionMinutes":45,"basePay":8,"maxBonus":9,"perTrialBonus":0.5,"perTrialBonusThreshold":0.05,"exampleCost":0.01},"classroomParams":{"A":{"a":1,"b":4},"B":{"a":4,"b":1},"C":{"a":2,"b":8},"D":{"a":8,"b":2}},"conditions":["nonSeqFull","nonSeqPartial","seqNoFeedback","seqFeedback"],"classroomPairings":[["A","B"],["C","D"]],"coinWeights":[0.2,0.5,0.8],"subjectId":"A2TLN8489YGY81","assignmentId":"3LJ7UR74RIZVYBRJIMTIC7B0D7W4NP","hitId":"3SD15I2WD2G0NA4TSPXGB81L5S7630","url":"https://gershmanlab.com/experiments/alicia/teaching/experiment/?hitId=3SD15I2WD2G0NA4TSPXGB81L5S7630&workerId=A2TLN8489YGY81&assignmentId=3LJ7UR74RIZVYBRJIMTIC7B0D7W4NP&a=4UJL9&tp_a=4UJL9&b=3LJ7UR74RIZVYBRJIMTIC7B0D7W4NP&tp_b=3LJ7UR74RIZVYBRJIMTIC7B0D7W4NP&c=365799&tp_c=365799"},{"rt":null,"stimulus":"Examples sent to student! Waiting for student...","response":null,"trial_type":"html-keyboard-response","trial_index":19,"time_elapsed":245637,"internal_node_id":"0.0-18.0","params":{"nStudents":24,"maxFlips":30,"completionMinutes":45,"basePay":8,"maxBonus":9,"perTrialBonus":0.5,"perTrialBonusThreshold":0.05,"exampleCost":0.01},"classroomParams":{"A":{"a":1,"b":4},"B":{"a":4,"b":1},"C":{"a":2,"b":8},"D":{"a":8,"b":2}},"conditions":["nonSeqFull","nonSeqPartial","seqNoFeedback","seqFeedback"],"classroomPairings":[["A","B"],["C","D"]],"coinWeights":[0.2,0.5,0.8],"subjectId":"A2TLN8489YGY81","assignmentId":"3LJ7UR74RIZVYBRJIMTIC7B0D7W4NP","hitId":"3SD15I2WD2G0NA4TSPXGB81L5S7630","url":"https://gershmanlab.com/experiments/alicia/teaching/experiment/?hitId=3SD15I2WD2G0NA4TSPXGB81L5S7630&workerId=A2TLN8489YGY81&assignmentId=3LJ7UR74RIZVYBRJIMTIC7B0D7W4NP&a=4UJL9&tp_a=4UJL9&b=3LJ7UR74RIZVYBRJIMTIC7B0D7W4NP&tp_b=3LJ7UR74RIZVYBRJIMTIC7B0D7W4NP&c=365799&tp_c=365799"},{"rt":4295,"stimulus":"\n                <p>Student's guess for coin weight: <b style=\"color:Tomato;\">0.25</b></p>\n                <p>You received a bonus of <b>$0.28</b>. Total bonus so far: <b>$0.63</b></b></p>\n                <p></p>\n                <p>Press any key to continue.</p>\n                ","response":" ","trial_type":"html-keyboard-response","trial_index":20,"time_elapsed":249933,"internal_node_id":"0.0-19.0","params":{"nStudents":24,"maxFlips":30,"completionMinutes":45,"basePay":8,"maxBonus":9,"perTrialBonus":0.5,"perTrialBonusThreshold":0.05,"exampleCost":0.01},"classroomParams":{"A":{"a":1,"b":4},"B":{"a":4,"b":1},"C":{"a":2,"b":8},"D":{"a":8,"b":2}},"conditions":["nonSeqFull","nonSeqPartial","seqNoFeedback","seqFeedback"],"classroomPairings":[["A","B"],["C","D"]],"coinWeights":[0.2,0.5,0.8],"subjectId":"A2TLN8489YGY81","assignmentId":"3LJ7UR74RIZVYBRJIMTIC7B0D7W4NP","hitId":"3SD15I2WD2G0NA4TSPXGB81L5S7630","url":"https://gershmanlab.com/experiments/alicia/teaching/experiment/?hitId=3SD15I2WD2G0NA4TSPXGB81L5S7630&workerId=A2TLN8489YGY81&assignmentId=3LJ7UR74RIZVYBRJIMTIC7B0D7W4NP&a=4UJL9&tp_a=4UJL9&b=3LJ7UR74RIZVYBRJIMTIC7B0D7W4NP&tp_b=3LJ7UR74RIZVYBRJIMTIC7B0D7W4NP&c=365799&tp_c=365799"},{"rt":null,"stimulus":"<div style=\"font-size:60px;\">Next student</div>","response":null,"trial_type":"html-keyboard-response","trial_index":21,"time_elapsed":251945,"internal_node_id":"0.0-20.0-0.0","params":{"nStudents":24,"maxFlips":30,"completionMinutes":45,"basePay":8,"maxBonus":9,"perTrialBonus":0.5,"perTrialBonusThreshold":0.05,"exampleCost":0.01},"classroomParams":{"A":{"a":1,"b":4},"B":{"a":4,"b":1},"C":{"a":2,"b":8},"D":{"a":8,"b":2}},"conditions":["nonSeqFull","nonSeqPartial","seqNoFeedback","seqFeedback"],"classroomPairings":[["A","B"],["C","D"]],"coinWeights":[0.2,0.5,0.8],"subjectId":"A2TLN8489YGY81","assignmentId":"3LJ7UR74RIZVYBRJIMTIC7B0D7W4NP","hitId":"3SD15I2WD2G0NA4TSPXGB81L5S7630","url":"https://gershmanlab.com/experiments/alicia/teaching/experiment/?hitId=3SD15I2WD2G0NA4TSPXGB81L5S7630&workerId=A2TLN8489YGY81&assignmentId=3LJ7UR74RIZVYBRJIMTIC7B0D7W4NP&a=4UJL9&tp_a=4UJL9&b=3LJ7UR74RIZVYBRJIMTIC7B0D7W4NP&tp_b=3LJ7UR74RIZVYBRJIMTIC7B0D7W4NP&c=365799&tp_c=365799"},{"rt":4937,"stimulus":"\n            <h4 style=\"color:Orange;\">Student 3</h4>\n            <h2>The weight of your coin is <b style=\"color:Tomato;\">0.5</b>.</h2>\n            <p>In this block, you will be giving <b>one</b> set of examples to Student 3.</p>\n                <p>You will receive feedback at the end of the block.</p>\n            <p></p>","response":0,"trial_type":"html-button-response","trial_index":22,"time_elapsed":256884,"internal_node_id":"0.0-21.0","params":{"nStudents":24,"maxFlips":30,"completionMinutes":45,"basePay":8,"maxBonus":9,"perTrialBonus":0.5,"perTrialBonusThreshold":0.05,"exampleCost":0.01},"classroomParams":{"A":{"a":1,"b":4},"B":{"a":4,"b":1},"C":{"a":2,"b":8},"D":{"a":8,"b":2}},"conditions":["nonSeqFull","nonSeqPartial","seqNoFeedback","seqFeedback"],"classroomPairings":[["A","B"],["C","D"]],"coinWeights":[0.2,0.5,0.8],"subjectId":"A2TLN8489YGY81","assignmentId":"3LJ7UR74RIZVYBRJIMTIC7B0D7W4NP","hitId":"3SD15I2WD2G0NA4TSPXGB81L5S7630","url":"https://gershmanlab.com/experiments/alicia/teaching/experiment/?hitId=3SD15I2WD2G0NA4TSPXGB81L5S7630&workerId=A2TLN8489YGY81&assignmentId=3LJ7UR74RIZVYBRJIMTIC7B0D7W4NP&a=4UJL9&tp_a=4UJL9&b=3LJ7UR74RIZVYBRJIMTIC7B0D7W4NP&tp_b=3LJ7UR74RIZVYBRJIMTIC7B0D7W4NP&c=365799&tp_c=365799"},{"rt":6872,"response":{"heads":"0","tails":"0"},"type":"response","condition":"nonSeqPartial","trueTheta":0.5,"classrooms":["C","D"],"studentTrueClassroom":"D","exampleSet":"first","trial_type":"survey-html-form","trial_index":23,"time_elapsed":263757,"internal_node_id":"0.0-22.0-0.0","params":{"nStudents":24,"maxFlips":30,"completionMinutes":45,"basePay":8,"maxBonus":9,"perTrialBonus":0.5,"perTrialBonusThreshold":0.05,"exampleCost":0.01},"classroomParams":{"A":{"a":1,"b":4},"B":{"a":4,"b":1},"C":{"a":2,"b":8},"D":{"a":8,"b":2}},"conditions":["nonSeqFull","nonSeqPartial","seqNoFeedback","seqFeedback"],"classroomPairings":[["A","B"],["C","D"]],"coinWeights":[0.2,0.5,0.8],"subjectId":"A2TLN8489YGY81","assignmentId":"3LJ7UR74RIZVYBRJIMTIC7B0D7W4NP","hitId":"3SD15I2WD2G0NA4TSPXGB81L5S7630","url":"https://gershmanlab.com/experiments/alicia/teaching/experiment/?hitId=3SD15I2WD2G0NA4TSPXGB81L5S7630&workerId=A2TLN8489YGY81&assignmentId=3LJ7UR74RIZVYBRJIMTIC7B0D7W4NP&a=4UJL9&tp_a=4UJL9&b=3LJ7UR74RIZVYBRJIMTIC7B0D7W4NP&tp_b=3LJ7UR74RIZVYBRJIMTIC7B0D7W4NP&c=365799&tp_c=365799","heads":0,"tails":0,"studentIndex":2,"studentTrueHypers":{"a":8,"b":2},"studentGuess":0.8,"delta":0.30000000000000004,"totalExamples":0,"bonus":0,"bonusSoFar":0.63},{"rt":3388,"response":{"heads":"1","tails":"0"},"type":"response","condition":"nonSeqPartial","trueTheta":0.5,"classrooms":["C","D"],"studentTrueClassroom":"D","exampleSet":"first","trial_type":"survey-html-form","trial_index":24,"time_elapsed":267147,"internal_node_id":"0.0-22.1-0.1","params":{"nStudents":24,"maxFlips":30,"completionMinutes":45,"basePay":8,"maxBonus":9,"perTrialBonus":0.5,"perTrialBonusThreshold":0.05,"exampleCost":0.01},"classroomParams":{"A":{"a":1,"b":4},"B":{"a":4,"b":1},"C":{"a":2,"b":8},"D":{"a":8,"b":2}},"conditions":["nonSeqFull","nonSeqPartial","seqNoFeedback","seqFeedback"],"classroomPairings":[["A","B"],["C","D"]],"coinWeights":[0.2,0.5,0.8],"subjectId":"A2TLN8489YGY81","assignmentId":"3LJ7UR74RIZVYBRJIMTIC7B0D7W4NP","hitId":"3SD15I2WD2G0NA4TSPXGB81L5S7630","url":"https://gershmanlab.com/experiments/alicia/teaching/experiment/?hitId=3SD15I2WD2G0NA4TSPXGB81L5S7630&workerId=A2TLN8489YGY81&assignmentId=3LJ7UR74RIZVYBRJIMTIC7B0D7W4NP&a=4UJL9&tp_a=4UJL9&b=3LJ7UR74RIZVYBRJIMTIC7B0D7W4NP&tp_b=3LJ7UR74RIZVYBRJIMTIC7B0D7W4NP&c=365799&tp_c=365799","heads":1,"tails":0,"studentIndex":2,"studentTrueHypers":{"a":8,"b":2},"studentGuess":0.8181818181818182,"delta":0.31818181818181823,"totalExamples":1,"bonus":0,"bonusSoFar":0.63},{"rt":null,"stimulus":"Sending examples to student... ","response":null,"trial_type":"html-keyboard-response","trial_index":25,"time_elapsed":268412,"internal_node_id":"0.0-23.0","params":{"nStudents":24,"maxFlips":30,"completionMinutes":45,"basePay":8,"maxBonus":9,"perTrialBonus":0.5,"perTrialBonusThreshold":0.05,"exampleCost":0.01},"classroomParams":{"A":{"a":1,"b":4},"B":{"a":4,"b":1},"C":{"a":2,"b":8},"D":{"a":8,"b":2}},"conditions":["nonSeqFull","nonSeqPartial","seqNoFeedback","seqFeedback"],"classroomPairings":[["A","B"],["C","D"]],"coinWeights":[0.2,0.5,0.8],"subjectId":"A2TLN8489YGY81","assignmentId":"3LJ7UR74RIZVYBRJIMTIC7B0D7W4NP","hitId":"3SD15I2WD2G0NA4TSPXGB81L5S7630","url":"https://gershmanlab.com/experiments/alicia/teaching/experiment/?hitId=3SD15I2WD2G0NA4TSPXGB81L5S7630&workerId=A2TLN8489YGY81&assignmentId=3LJ7UR74RIZVYBRJIMTIC7B0D7W4NP&a=4UJL9&tp_a=4UJL9&b=3LJ7UR74RIZVYBRJIMTIC7B0D7W4NP&tp_b=3LJ7UR74RIZVYBRJIMTIC7B0D7W4NP&c=365799&tp_c=365799"},{"rt":null,"stimulus":"Examples sent to student! Waiting for student...","response":null,"trial_type":"html-keyboard-response","trial_index":26,"time_elapsed":272416,"internal_node_id":"0.0-24.0","params":{"nStudents":24,"maxFlips":30,"completionMinutes":45,"basePay":8,"maxBonus":9,"perTrialBonus":0.5,"perTrialBonusThreshold":0.05,"exampleCost":0.01},"classroomParams":{"A":{"a":1,"b":4},"B":{"a":4,"b":1},"C":{"a":2,"b":8},"D":{"a":8,"b":2}},"conditions":["nonSeqFull","nonSeqPartial","seqNoFeedback","seqFeedback"],"classroomPairings":[["A","B"],["C","D"]],"coinWeights":[0.2,0.5,0.8],"subjectId":"A2TLN8489YGY81","assignmentId":"3LJ7UR74RIZVYBRJIMTIC7B0D7W4NP","hitId":"3SD15I2WD2G0NA4TSPXGB81L5S7630","url":"https://gershmanlab.com/experiments/alicia/teaching/experiment/?hitId=3SD15I2WD2G0NA4TSPXGB81L5S7630&workerId=A2TLN8489YGY81&assignmentId=3LJ7UR74RIZVYBRJIMTIC7B0D7W4NP&a=4UJL9&tp_a=4UJL9&b=3LJ7UR74RIZVYBRJIMTIC7B0D7W4NP&tp_b=3LJ7UR74RIZVYBRJIMTIC7B0D7W4NP&c=365799&tp_c=365799"},{"rt":8149,"stimulus":"\n                <p>Student's guess for coin weight: <b style=\"color:Tomato;\">0.80</b></p>\n                <p>You received a bonus of <b>$0</b>. Total bonus so far: <b>$0.63</b></b></p>\n                <p></p>\n                <p>Press any key to continue.</p>\n                ","response":" ","trial_type":"html-keyboard-response","trial_index":27,"time_elapsed":280566,"internal_node_id":"0.0-25.0","params":{"nStudents":24,"maxFlips":30,"completionMinutes":45,"basePay":8,"maxBonus":9,"perTrialBonus":0.5,"perTrialBonusThreshold":0.05,"exampleCost":0.01},"classroomParams":{"A":{"a":1,"b":4},"B":{"a":4,"b":1},"C":{"a":2,"b":8},"D":{"a":8,"b":2}},"conditions":["nonSeqFull","nonSeqPartial","seqNoFeedback","seqFeedback"],"classroomPairings":[["A","B"],["C","D"]],"coinWeights":[0.2,0.5,0.8],"subjectId":"A2TLN8489YGY81","assignmentId":"3LJ7UR74RIZVYBRJIMTIC7B0D7W4NP","hitId":"3SD15I2WD2G0NA4TSPXGB81L5S7630","url":"https://gershmanlab.com/experiments/alicia/teaching/experiment/?hitId=3SD15I2WD2G0NA4TSPXGB81L5S7630&workerId=A2TLN8489YGY81&assignmentId=3LJ7UR74RIZVYBRJIMTIC7B0D7W4NP&a=4UJL9&tp_a=4UJL9&b=3LJ7UR74RIZVYBRJIMTIC7B0D7W4NP&tp_b=3LJ7UR74RIZVYBRJIMTIC7B0D7W4NP&c=365799&tp_c=365799"},{"rt":null,"stimulus":"<div style=\"font-size:60px;\">Next student</div>","response":null,"trial_type":"html-keyboard-response","trial_index":28,"time_elapsed":282826,"internal_node_id":"0.0-26.0-0.0","params":{"nStudents":24,"maxFlips":30,"completionMinutes":45,"basePay":8,"maxBonus":9,"perTrialBonus":0.5,"perTrialBonusThreshold":0.05,"exampleCost":0.01},"classroomParams":{"A":{"a":1,"b":4},"B":{"a":4,"b":1},"C":{"a":2,"b":8},"D":{"a":8,"b":2}},"conditions":["nonSeqFull","nonSeqPartial","seqNoFeedback","seqFeedback"],"classroomPairings":[["A","B"],["C","D"]],"coinWeights":[0.2,0.5,0.8],"subjectId":"A2TLN8489YGY81","assignmentId":"3LJ7UR74RIZVYBRJIMTIC7B0D7W4NP","hitId":"3SD15I2WD2G0NA4TSPXGB81L5S7630","url":"https://gershmanlab.com/experiments/alicia/teaching/experiment/?hitId=3SD15I2WD2G0NA4TSPXGB81L5S7630&workerId=A2TLN8489YGY81&assignmentId=3LJ7UR74RIZVYBRJIMTIC7B0D7W4NP&a=4UJL9&tp_a=4UJL9&b=3LJ7UR74RIZVYBRJIMTIC7B0D7W4NP&tp_b=3LJ7UR74RIZVYBRJIMTIC7B0D7W4NP&c=365799&tp_c=365799"},{"rt":4468,"stimulus":"\n            <h4 style=\"color:Orange;\">Student 4</h4>\n            <h2>The weight of your coin is <b style=\"color:Tomato;\">0.5</b>.</h2>\n            <p>In this block, you will be giving <b>two</b> sets of examples to Student 4.</p>\n                <p>You will see the student's guess after the first set of examples. You will also receive feedback at the end of the block.</p>\n            <p>To earn the highest bonus, you will have to <b>take into consideration the student's guess</b> when you choose your second set of examples.</p>","response":0,"trial_type":"html-button-response","trial_index":29,"time_elapsed":287295,"internal_node_id":"0.0-27.0","params":{"nStudents":24,"maxFlips":30,"completionMinutes":45,"basePay":8,"maxBonus":9,"perTrialBonus":0.5,"perTrialBonusThreshold":0.05,"exampleCost":0.01},"classroomParams":{"A":{"a":1,"b":4},"B":{"a":4,"b":1},"C":{"a":2,"b":8},"D":{"a":8,"b":2}},"conditions":["nonSeqFull","nonSeqPartial","seqNoFeedback","seqFeedback"],"classroomPairings":[["A","B"],["C","D"]],"coinWeights":[0.2,0.5,0.8],"subjectId":"A2TLN8489YGY81","assignmentId":"3LJ7UR74RIZVYBRJIMTIC7B0D7W4NP","hitId":"3SD15I2WD2G0NA4TSPXGB81L5S7630","url":"https://gershmanlab.com/experiments/alicia/teaching/experiment/?hitId=3SD15I2WD2G0NA4TSPXGB81L5S7630&workerId=A2TLN8489YGY81&assignmentId=3LJ7UR74RIZVYBRJIMTIC7B0D7W4NP&a=4UJL9&tp_a=4UJL9&b=3LJ7UR74RIZVYBRJIMTIC7B0D7W4NP&tp_b=3LJ7UR74RIZVYBRJIMTIC7B0D7W4NP&c=365799&tp_c=365799"},{"rt":17307,"response":{"heads":"3","tails":"0"},"type":"response","condition":"seqFeedback","trueTheta":0.5,"classrooms":["A","B"],"studentTrueClassroom":"A","exampleSet":"first","trial_type":"survey-html-form","trial_index":30,"time_elapsed":304602,"internal_node_id":"0.0-28.0-0.0","params":{"nStudents":24,"maxFlips":30,"completionMinutes":45,"basePay":8,"maxBonus":9,"perTrialBonus":0.5,"perTrialBonusThreshold":0.05,"exampleCost":0.01},"classroomParams":{"A":{"a":1,"b":4},"B":{"a":4,"b":1},"C":{"a":2,"b":8},"D":{"a":8,"b":2}},"conditions":["nonSeqFull","nonSeqPartial","seqNoFeedback","seqFeedback"],"classroomPairings":[["A","B"],["C","D"]],"coinWeights":[0.2,0.5,0.8],"subjectId":"A2TLN8489YGY81","assignmentId":"3LJ7UR74RIZVYBRJIMTIC7B0D7W4NP","hitId":"3SD15I2WD2G0NA4TSPXGB81L5S7630","url":"https://gershmanlab.com/experiments/alicia/teaching/experiment/?hitId=3SD15I2WD2G0NA4TSPXGB81L5S7630&workerId=A2TLN8489YGY81&assignmentId=3LJ7UR74RIZVYBRJIMTIC7B0D7W4NP&a=4UJL9&tp_a=4UJL9&b=3LJ7UR74RIZVYBRJIMTIC7B0D7W4NP&tp_b=3LJ7UR74RIZVYBRJIMTIC7B0D7W4NP&c=365799&tp_c=365799","heads":3,"tails":0,"studentIndex":3,"studentTrueHypers":{"a":1,"b":4},"studentGuess":0.5,"delta":0,"totalExamples":3,"bonusSoFar":0.63},{"rt":null,"stimulus":"Sending examples to student... ","response":null,"trial_type":"html-keyboard-response","trial_index":31,"time_elapsed":306619,"internal_node_id":"0.0-29.0","params":{"nStudents":24,"maxFlips":30,"completionMinutes":45,"basePay":8,"maxBonus":9,"perTrialBonus":0.5,"perTrialBonusThreshold":0.05,"exampleCost":0.01},"classroomParams":{"A":{"a":1,"b":4},"B":{"a":4,"b":1},"C":{"a":2,"b":8},"D":{"a":8,"b":2}},"conditions":["nonSeqFull","nonSeqPartial","seqNoFeedback","seqFeedback"],"classroomPairings":[["A","B"],["C","D"]],"coinWeights":[0.2,0.5,0.8],"subjectId":"A2TLN8489YGY81","assignmentId":"3LJ7UR74RIZVYBRJIMTIC7B0D7W4NP","hitId":"3SD15I2WD2G0NA4TSPXGB81L5S7630","url":"https://gershmanlab.com/experiments/alicia/teaching/experiment/?hitId=3SD15I2WD2G0NA4TSPXGB81L5S7630&workerId=A2TLN8489YGY81&assignmentId=3LJ7UR74RIZVYBRJIMTIC7B0D7W4NP&a=4UJL9&tp_a=4UJL9&b=3LJ7UR74RIZVYBRJIMTIC7B0D7W4NP&tp_b=3LJ7UR74RIZVYBRJIMTIC7B0D7W4NP&c=365799&tp_c=365799"},{"rt":null,"stimulus":"Examples sent to student! Waiting for student...","response":null,"trial_type":"html-keyboard-response","trial_index":32,"time_elapsed":310621,"internal_node_id":"0.0-30.0","params":{"nStudents":24,"maxFlips":30,"completionMinutes":45,"basePay":8,"maxBonus":9,"perTrialBonus":0.5,"perTrialBonusThreshold":0.05,"exampleCost":0.01},"classroomParams":{"A":{"a":1,"b":4},"B":{"a":4,"b":1},"C":{"a":2,"b":8},"D":{"a":8,"b":2}},"conditions":["nonSeqFull","nonSeqPartial","seqNoFeedback","seqFeedback"],"classroomPairings":[["A","B"],["C","D"]],"coinWeights":[0.2,0.5,0.8],"subjectId":"A2TLN8489YGY81","assignmentId":"3LJ7UR74RIZVYBRJIMTIC7B0D7W4NP","hitId":"3SD15I2WD2G0NA4TSPXGB81L5S7630","url":"https://gershmanlab.com/experiments/alicia/teaching/experiment/?hitId=3SD15I2WD2G0NA4TSPXGB81L5S7630&workerId=A2TLN8489YGY81&assignmentId=3LJ7UR74RIZVYBRJIMTIC7B0D7W4NP&a=4UJL9&tp_a=4UJL9&b=3LJ7UR74RIZVYBRJIMTIC7B0D7W4NP&tp_b=3LJ7UR74RIZVYBRJIMTIC7B0D7W4NP&c=365799&tp_c=365799"},{"rt":3859,"stimulus":"\n                <p>Student's guess for coin weight: <b style=\"color:Tomato;\">0.50</b></p>\n                <p></b></p>\n                <p>You will now send another set of examples to your student. <b>Remember to take your student's guess into consideration so that you can earn the highest bonus possible!</b> </p>\n                <p>Press any key to continue.</p>\n                ","response":" ","trial_type":"html-keyboard-response","trial_index":33,"time_elapsed":314480,"internal_node_id":"0.0-31.0","params":{"nStudents":24,"maxFlips":30,"completionMinutes":45,"basePay":8,"maxBonus":9,"perTrialBonus":0.5,"perTrialBonusThreshold":0.05,"exampleCost":0.01},"classroomParams":{"A":{"a":1,"b":4},"B":{"a":4,"b":1},"C":{"a":2,"b":8},"D":{"a":8,"b":2}},"conditions":["nonSeqFull","nonSeqPartial","seqNoFeedback","seqFeedback"],"classroomPairings":[["A","B"],["C","D"]],"coinWeights":[0.2,0.5,0.8],"subjectId":"A2TLN8489YGY81","assignmentId":"3LJ7UR74RIZVYBRJIMTIC7B0D7W4NP","hitId":"3SD15I2WD2G0NA4TSPXGB81L5S7630","url":"https://gershmanlab.com/experiments/alicia/teaching/experiment/?hitId=3SD15I2WD2G0NA4TSPXGB81L5S7630&workerId=A2TLN8489YGY81&assignmentId=3LJ7UR74RIZVYBRJIMTIC7B0D7W4NP&a=4UJL9&tp_a=4UJL9&b=3LJ7UR74RIZVYBRJIMTIC7B0D7W4NP&tp_b=3LJ7UR74RIZVYBRJIMTIC7B0D7W4NP&c=365799&tp_c=365799"},{"rt":9421,"response":{"heads":"1","tails":"1"},"type":"response","condition":"seqFeedback","trueTheta":0.5,"classrooms":["A","B"],"studentTrueClassroom":"A","exampleSet":"second","trial_type":"survey-html-form","trial_index":34,"time_elapsed":323902,"internal_node_id":"0.0-32.0-0.0","params":{"nStudents":24,"maxFlips":30,"completionMinutes":45,"basePay":8,"maxBonus":9,"perTrialBonus":0.5,"perTrialBonusThreshold":0.05,"exampleCost":0.01},"classroomParams":{"A":{"a":1,"b":4},"B":{"a":4,"b":1},"C":{"a":2,"b":8},"D":{"a":8,"b":2}},"conditions":["nonSeqFull","nonSeqPartial","seqNoFeedback","seqFeedback"],"classroomPairings":[["A","B"],["C","D"]],"coinWeights":[0.2,0.5,0.8],"subjectId":"A2TLN8489YGY81","assignmentId":"3LJ7UR74RIZVYBRJIMTIC7B0D7W4NP","hitId":"3SD15I2WD2G0NA4TSPXGB81L5S7630","url":"https://gershmanlab.com/experiments/alicia/teaching/experiment/?hitId=3SD15I2WD2G0NA4TSPXGB81L5S7630&workerId=A2TLN8489YGY81&assignmentId=3LJ7UR74RIZVYBRJIMTIC7B0D7W4NP&a=4UJL9&tp_a=4UJL9&b=3LJ7UR74RIZVYBRJIMTIC7B0D7W4NP&tp_b=3LJ7UR74RIZVYBRJIMTIC7B0D7W4NP&c=365799&tp_c=365799","firstResponseHeads":3,"firstResponseTails":0,"secondResponseHeads":1,"secondResponseTails":1,"totalHeads":4,"totalTails":1,"studentIndex":3,"studentTrueHypers":{"a":1,"b":4},"studentGuess":0.5,"delta":0,"bonus":0.45,"bonusSoFar":1.08,"totalExamples":5},{"rt":null,"stimulus":"Sending examples to student... ","response":null,"trial_type":"html-keyboard-response","trial_index":35,"time_elapsed":325156,"internal_node_id":"0.0-33.0","params":{"nStudents":24,"maxFlips":30,"completionMinutes":45,"basePay":8,"maxBonus":9,"perTrialBonus":0.5,"perTrialBonusThreshold":0.05,"exampleCost":0.01},"classroomParams":{"A":{"a":1,"b":4},"B":{"a":4,"b":1},"C":{"a":2,"b":8},"D":{"a":8,"b":2}},"conditions":["nonSeqFull","nonSeqPartial","seqNoFeedback","seqFeedback"],"classroomPairings":[["A","B"],["C","D"]],"coinWeights":[0.2,0.5,0.8],"subjectId":"A2TLN8489YGY81","assignmentId":"3LJ7UR74RIZVYBRJIMTIC7B0D7W4NP","hitId":"3SD15I2WD2G0NA4TSPXGB81L5S7630","url":"https://gershmanlab.com/experiments/alicia/teaching/experiment/?hitId=3SD15I2WD2G0NA4TSPXGB81L5S7630&workerId=A2TLN8489YGY81&assignmentId=3LJ7UR74RIZVYBRJIMTIC7B0D7W4NP&a=4UJL9&tp_a=4UJL9&b=3LJ7UR74RIZVYBRJIMTIC7B0D7W4NP&tp_b=3LJ7UR74RIZVYBRJIMTIC7B0D7W4NP&c=365799&tp_c=365799"},{"rt":null,"stimulus":"Examples sent to student! Waiting for student...","response":null,"trial_type":"html-keyboard-response","trial_index":36,"time_elapsed":330670,"internal_node_id":"0.0-34.0","params":{"nStudents":24,"maxFlips":30,"completionMinutes":45,"basePay":8,"maxBonus":9,"perTrialBonus":0.5,"perTrialBonusThreshold":0.05,"exampleCost":0.01},"classroomParams":{"A":{"a":1,"b":4},"B":{"a":4,"b":1},"C":{"a":2,"b":8},"D":{"a":8,"b":2}},"conditions":["nonSeqFull","nonSeqPartial","seqNoFeedback","seqFeedback"],"classroomPairings":[["A","B"],["C","D"]],"coinWeights":[0.2,0.5,0.8],"subjectId":"A2TLN8489YGY81","assignmentId":"3LJ7UR74RIZVYBRJIMTIC7B0D7W4NP","hitId":"3SD15I2WD2G0NA4TSPXGB81L5S7630","url":"https://gershmanlab.com/experiments/alicia/teaching/experiment/?hitId=3SD15I2WD2G0NA4TSPXGB81L5S7630&workerId=A2TLN8489YGY81&assignmentId=3LJ7UR74RIZVYBRJIMTIC7B0D7W4NP&a=4UJL9&tp_a=4UJL9&b=3LJ7UR74RIZVYBRJIMTIC7B0D7W4NP&tp_b=3LJ7UR74RIZVYBRJIMTIC7B0D7W4NP&c=365799&tp_c=365799"},{"rt":2883,"stimulus":"\n                <p>Student 4's first guess for coin weight: <b style=\"color:Tomato\";>0.50</b></p>\n                <p>Student 4's second guess for coin weight: <b style=\"color:Tomato\";>0.50</b></p>\n                <p>You received a bonus of <b>$0.45</b> based on the student's second guess.</p>\n                <p>Total bonus so far: <b>$1.08</b></p>\n                <p>Press any key to continue.</p>\n                ","response":" ","trial_type":"html-keyboard-response","trial_index":37,"time_elapsed":333554,"internal_node_id":"0.0-35.0","params":{"nStudents":24,"maxFlips":30,"completionMinutes":45,"basePay":8,"maxBonus":9,"perTrialBonus":0.5,"perTrialBonusThreshold":0.05,"exampleCost":0.01},"classroomParams":{"A":{"a":1,"b":4},"B":{"a":4,"b":1},"C":{"a":2,"b":8},"D":{"a":8,"b":2}},"conditions":["nonSeqFull","nonSeqPartial","seqNoFeedback","seqFeedback"],"classroomPairings":[["A","B"],["C","D"]],"coinWeights":[0.2,0.5,0.8],"subjectId":"A2TLN8489YGY81","assignmentId":"3LJ7UR74RIZVYBRJIMTIC7B0D7W4NP","hitId":"3SD15I2WD2G0NA4TSPXGB81L5S7630","url":"https://gershmanlab.com/experiments/alicia/teaching/experiment/?hitId=3SD15I2WD2G0NA4TSPXGB81L5S7630&workerId=A2TLN8489YGY81&assignmentId=3LJ7UR74RIZVYBRJIMTIC7B0D7W4NP&a=4UJL9&tp_a=4UJL9&b=3LJ7UR74RIZVYBRJIMTIC7B0D7W4NP&tp_b=3LJ7UR74RIZVYBRJIMTIC7B0D7W4NP&c=365799&tp_c=365799"},{"rt":null,"stimulus":"<div style=\"font-size:60px;\">Next student</div>","response":null,"trial_type":"html-keyboard-response","trial_index":38,"time_elapsed":337012,"internal_node_id":"0.0-36.0-0.0","params":{"nStudents":24,"maxFlips":30,"completionMinutes":45,"basePay":8,"maxBonus":9,"perTrialBonus":0.5,"perTrialBonusThreshold":0.05,"exampleCost":0.01},"classroomParams":{"A":{"a":1,"b":4},"B":{"a":4,"b":1},"C":{"a":2,"b":8},"D":{"a":8,"b":2}},"conditions":["nonSeqFull","nonSeqPartial","seqNoFeedback","seqFeedback"],"classroomPairings":[["A","B"],["C","D"]],"coinWeights":[0.2,0.5,0.8],"subjectId":"A2TLN8489YGY81","assignmentId":"3LJ7UR74RIZVYBRJIMTIC7B0D7W4NP","hitId":"3SD15I2WD2G0NA4TSPXGB81L5S7630","url":"https://gershmanlab.com/experiments/alicia/teaching/experiment/?hitId=3SD15I2WD2G0NA4TSPXGB81L5S7630&workerId=A2TLN8489YGY81&assignmentId=3LJ7UR74RIZVYBRJIMTIC7B0D7W4NP&a=4UJL9&tp_a=4UJL9&b=3LJ7UR74RIZVYBRJIMTIC7B0D7W4NP&tp_b=3LJ7UR74RIZVYBRJIMTIC7B0D7W4NP&c=365799&tp_c=365799"},{"rt":15405,"stimulus":"\n            <h4 style=\"color:Orange;\">Student 5</h4>\n            <h2>The weight of your coin is <b style=\"color:Tomato;\">0.2</b>.</h2>\n            <p>In this block, you will be giving <b>two</b> sets of examples to Student 5.</p>\n                <p>You will receive feedback at the end of the block.</p>\n            <p></p>","response":0,"trial_type":"html-button-response","trial_index":39,"time_elapsed":352419,"internal_node_id":"0.0-37.0","params":{"nStudents":24,"maxFlips":30,"completionMinutes":45,"basePay":8,"maxBonus":9,"perTrialBonus":0.5,"perTrialBonusThreshold":0.05,"exampleCost":0.01},"classroomParams":{"A":{"a":1,"b":4},"B":{"a":4,"b":1},"C":{"a":2,"b":8},"D":{"a":8,"b":2}},"conditions":["nonSeqFull","nonSeqPartial","seqNoFeedback","seqFeedback"],"classroomPairings":[["A","B"],["C","D"]],"coinWeights":[0.2,0.5,0.8],"subjectId":"A2TLN8489YGY81","assignmentId":"3LJ7UR74RIZVYBRJIMTIC7B0D7W4NP","hitId":"3SD15I2WD2G0NA4TSPXGB81L5S7630","url":"https://gershmanlab.com/experiments/alicia/teaching/experiment/?hitId=3SD15I2WD2G0NA4TSPXGB81L5S7630&workerId=A2TLN8489YGY81&assignmentId=3LJ7UR74RIZVYBRJIMTIC7B0D7W4NP&a=4UJL9&tp_a=4UJL9&b=3LJ7UR74RIZVYBRJIMTIC7B0D7W4NP&tp_b=3LJ7UR74RIZVYBRJIMTIC7B0D7W4NP&c=365799&tp_c=365799"},{"rt":6837,"response":{"heads":"1","tails":"0"},"type":"response","condition":"seqNoFeedback","trueTheta":0.2,"classrooms":["A","B"],"studentTrueClassroom":"B","exampleSet":"first","trial_type":"survey-html-form","trial_index":40,"time_elapsed":359256,"internal_node_id":"0.0-38.0-0.0","params":{"nStudents":24,"maxFlips":30,"completionMinutes":45,"basePay":8,"maxBonus":9,"perTrialBonus":0.5,"perTrialBonusThreshold":0.05,"exampleCost":0.01},"classroomParams":{"A":{"a":1,"b":4},"B":{"a":4,"b":1},"C":{"a":2,"b":8},"D":{"a":8,"b":2}},"conditions":["nonSeqFull","nonSeqPartial","seqNoFeedback","seqFeedback"],"classroomPairings":[["A","B"],["C","D"]],"coinWeights":[0.2,0.5,0.8],"subjectId":"A2TLN8489YGY81","assignmentId":"3LJ7UR74RIZVYBRJIMTIC7B0D7W4NP","hitId":"3SD15I2WD2G0NA4TSPXGB81L5S7630","url":"https://gershmanlab.com/experiments/alicia/teaching/experiment/?hitId=3SD15I2WD2G0NA4TSPXGB81L5S7630&workerId=A2TLN8489YGY81&assignmentId=3LJ7UR74RIZVYBRJIMTIC7B0D7W4NP&a=4UJL9&tp_a=4UJL9&b=3LJ7UR74RIZVYBRJIMTIC7B0D7W4NP&tp_b=3LJ7UR74RIZVYBRJIMTIC7B0D7W4NP&c=365799&tp_c=365799","heads":1,"tails":0,"studentIndex":4,"studentTrueHypers":{"a":4,"b":1},"studentGuess":0.8333333333333334,"delta":0.6333333333333333,"totalExamples":1,"bonusSoFar":1.08},{"rt":null,"stimulus":"Sending examples to student... ","response":null,"trial_type":"html-keyboard-response","trial_index":41,"time_elapsed":360510,"internal_node_id":"0.0-39.0","params":{"nStudents":24,"maxFlips":30,"completionMinutes":45,"basePay":8,"maxBonus":9,"perTrialBonus":0.5,"perTrialBonusThreshold":0.05,"exampleCost":0.01},"classroomParams":{"A":{"a":1,"b":4},"B":{"a":4,"b":1},"C":{"a":2,"b":8},"D":{"a":8,"b":2}},"conditions":["nonSeqFull","nonSeqPartial","seqNoFeedback","seqFeedback"],"classroomPairings":[["A","B"],["C","D"]],"coinWeights":[0.2,0.5,0.8],"subjectId":"A2TLN8489YGY81","assignmentId":"3LJ7UR74RIZVYBRJIMTIC7B0D7W4NP","hitId":"3SD15I2WD2G0NA4TSPXGB81L5S7630","url":"https://gershmanlab.com/experiments/alicia/teaching/experiment/?hitId=3SD15I2WD2G0NA4TSPXGB81L5S7630&workerId=A2TLN8489YGY81&assignmentId=3LJ7UR74RIZVYBRJIMTIC7B0D7W4NP&a=4UJL9&tp_a=4UJL9&b=3LJ7UR74RIZVYBRJIMTIC7B0D7W4NP&tp_b=3LJ7UR74RIZVYBRJIMTIC7B0D7W4NP&c=365799&tp_c=365799"},{"rt":null,"stimulus":"Examples sent to student! Waiting for student...","response":null,"trial_type":"html-keyboard-response","trial_index":42,"time_elapsed":365013,"internal_node_id":"0.0-40.0","params":{"nStudents":24,"maxFlips":30,"completionMinutes":45,"basePay":8,"maxBonus":9,"perTrialBonus":0.5,"perTrialBonusThreshold":0.05,"exampleCost":0.01},"classroomParams":{"A":{"a":1,"b":4},"B":{"a":4,"b":1},"C":{"a":2,"b":8},"D":{"a":8,"b":2}},"conditions":["nonSeqFull","nonSeqPartial","seqNoFeedback","seqFeedback"],"classroomPairings":[["A","B"],["C","D"]],"coinWeights":[0.2,0.5,0.8],"subjectId":"A2TLN8489YGY81","assignmentId":"3LJ7UR74RIZVYBRJIMTIC7B0D7W4NP","hitId":"3SD15I2WD2G0NA4TSPXGB81L5S7630","url":"https://gershmanlab.com/experiments/alicia/teaching/experiment/?hitId=3SD15I2WD2G0NA4TSPXGB81L5S7630&workerId=A2TLN8489YGY81&assignmentId=3LJ7UR74RIZVYBRJIMTIC7B0D7W4NP&a=4UJL9&tp_a=4UJL9&b=3LJ7UR74RIZVYBRJIMTIC7B0D7W4NP&tp_b=3LJ7UR74RIZVYBRJIMTIC7B0D7W4NP&c=365799&tp_c=365799"},{"rt":4466,"response":{"heads":"2","tails":"0"},"type":"response","condition":"seqNoFeedback","trueTheta":0.2,"classrooms":["A","B"],"studentTrueClassroom":"B","exampleSet":"second","trial_type":"survey-html-form","trial_index":43,"time_elapsed":369480,"internal_node_id":"0.0-41.0-0.0","params":{"nStudents":24,"maxFlips":30,"completionMinutes":45,"basePay":8,"maxBonus":9,"perTrialBonus":0.5,"perTrialBonusThreshold":0.05,"exampleCost":0.01},"classroomParams":{"A":{"a":1,"b":4},"B":{"a":4,"b":1},"C":{"a":2,"b":8},"D":{"a":8,"b":2}},"conditions":["nonSeqFull","nonSeqPartial","seqNoFeedback","seqFeedback"],"classroomPairings":[["A","B"],["C","D"]],"coinWeights":[0.2,0.5,0.8],"subjectId":"A2TLN8489YGY81","assignmentId":"3LJ7UR74RIZVYBRJIMTIC7B0D7W4NP","hitId":"3SD15I2WD2G0NA4TSPXGB81L5S7630","url":"https://gershmanlab.com/experiments/alicia/teaching/experiment/?hitId=3SD15I2WD2G0NA4TSPXGB81L5S7630&workerId=A2TLN8489YGY81&assignmentId=3LJ7UR74RIZVYBRJIMTIC7B0D7W4NP&a=4UJL9&tp_a=4UJL9&b=3LJ7UR74RIZVYBRJIMTIC7B0D7W4NP&tp_b=3LJ7UR74RIZVYBRJIMTIC7B0D7W4NP&c=365799&tp_c=365799","firstResponseHeads":1,"firstResponseTails":0,"secondResponseHeads":2,"secondResponseTails":0,"totalHeads":3,"totalTails":0,"studentIndex":4,"studentTrueHypers":{"a":4,"b":1},"studentGuess":0.875,"delta":0.675,"bonus":0,"bonusSoFar":1.08,"totalExamples":3},{"rt":null,"stimulus":"Sending examples to student... ","response":null,"trial_type":"html-keyboard-response","trial_index":44,"time_elapsed":370740,"internal_node_id":"0.0-42.0","params":{"nStudents":24,"maxFlips":30,"completionMinutes":45,"basePay":8,"maxBonus":9,"perTrialBonus":0.5,"perTrialBonusThreshold":0.05,"exampleCost":0.01},"classroomParams":{"A":{"a":1,"b":4},"B":{"a":4,"b":1},"C":{"a":2,"b":8},"D":{"a":8,"b":2}},"conditions":["nonSeqFull","nonSeqPartial","seqNoFeedback","seqFeedback"],"classroomPairings":[["A","B"],["C","D"]],"coinWeights":[0.2,0.5,0.8],"subjectId":"A2TLN8489YGY81","assignmentId":"3LJ7UR74RIZVYBRJIMTIC7B0D7W4NP","hitId":"3SD15I2WD2G0NA4TSPXGB81L5S7630","url":"https://gershmanlab.com/experiments/alicia/teaching/experiment/?hitId=3SD15I2WD2G0NA4TSPXGB81L5S7630&workerId=A2TLN8489YGY81&assignmentId=3LJ7UR74RIZVYBRJIMTIC7B0D7W4NP&a=4UJL9&tp_a=4UJL9&b=3LJ7UR74RIZVYBRJIMTIC7B0D7W4NP&tp_b=3LJ7UR74RIZVYBRJIMTIC7B0D7W4NP&c=365799&tp_c=365799"},{"rt":null,"stimulus":"Examples sent to student! Waiting for student...","response":null,"trial_type":"html-keyboard-response","trial_index":45,"time_elapsed":374749,"internal_node_id":"0.0-43.0","params":{"nStudents":24,"maxFlips":30,"completionMinutes":45,"basePay":8,"maxBonus":9,"perTrialBonus":0.5,"perTrialBonusThreshold":0.05,"exampleCost":0.01},"classroomParams":{"A":{"a":1,"b":4},"B":{"a":4,"b":1},"C":{"a":2,"b":8},"D":{"a":8,"b":2}},"conditions":["nonSeqFull","nonSeqPartial","seqNoFeedback","seqFeedback"],"classroomPairings":[["A","B"],["C","D"]],"coinWeights":[0.2,0.5,0.8],"subjectId":"A2TLN8489YGY81","assignmentId":"3LJ7UR74RIZVYBRJIMTIC7B0D7W4NP","hitId":"3SD15I2WD2G0NA4TSPXGB81L5S7630","url":"https://gershmanlab.com/experiments/alicia/teaching/experiment/?hitId=3SD15I2WD2G0NA4TSPXGB81L5S7630&workerId=A2TLN8489YGY81&assignmentId=3LJ7UR74RIZVYBRJIMTIC7B0D7W4NP&a=4UJL9&tp_a=4UJL9&b=3LJ7UR74RIZVYBRJIMTIC7B0D7W4NP&tp_b=3LJ7UR74RIZVYBRJIMTIC7B0D7W4NP&c=365799&tp_c=365799"},{"rt":2461,"stimulus":"\n                <p>Student 5's first guess for coin weight: <b style=\"color:Tomato\";>0.83</b></p>\n                <p>Student 5's second guess for coin weight: <b style=\"color:Tomato\";>0.88</b></p>\n                <p>You received a bonus of <b>$0.00</b> based on the student's second guess.</p>\n                <p>Total bonus so far: <b>$1.08</b></p>\n                <p>Press any key to continue.</p>\n                ","response":" ","trial_type":"html-keyboard-response","trial_index":46,"time_elapsed":377211,"internal_node_id":"0.0-44.0","params":{"nStudents":24,"maxFlips":30,"completionMinutes":45,"basePay":8,"maxBonus":9,"perTrialBonus":0.5,"perTrialBonusThreshold":0.05,"exampleCost":0.01},"classroomParams":{"A":{"a":1,"b":4},"B":{"a":4,"b":1},"C":{"a":2,"b":8},"D":{"a":8,"b":2}},"conditions":["nonSeqFull","nonSeqPartial","seqNoFeedback","seqFeedback"],"classroomPairings":[["A","B"],["C","D"]],"coinWeights":[0.2,0.5,0.8],"subjectId":"A2TLN8489YGY81","assignmentId":"3LJ7UR74RIZVYBRJIMTIC7B0D7W4NP","hitId":"3SD15I2WD2G0NA4TSPXGB81L5S7630","url":"https://gershmanlab.com/experiments/alicia/teaching/experiment/?hitId=3SD15I2WD2G0NA4TSPXGB81L5S7630&workerId=A2TLN8489YGY81&assignmentId=3LJ7UR74RIZVYBRJIMTIC7B0D7W4NP&a=4UJL9&tp_a=4UJL9&b=3LJ7UR74RIZVYBRJIMTIC7B0D7W4NP&tp_b=3LJ7UR74RIZVYBRJIMTIC7B0D7W4NP&c=365799&tp_c=365799"},{"rt":null,"stimulus":"<div style=\"font-size:60px;\">Next student</div>","response":null,"trial_type":"html-keyboard-response","trial_index":47,"time_elapsed":380215,"internal_node_id":"0.0-45.0-0.0","params":{"nStudents":24,"maxFlips":30,"completionMinutes":45,"basePay":8,"maxBonus":9,"perTrialBonus":0.5,"perTrialBonusThreshold":0.05,"exampleCost":0.01},"classroomParams":{"A":{"a":1,"b":4},"B":{"a":4,"b":1},"C":{"a":2,"b":8},"D":{"a":8,"b":2}},"conditions":["nonSeqFull","nonSeqPartial","seqNoFeedback","seqFeedback"],"classroomPairings":[["A","B"],["C","D"]],"coinWeights":[0.2,0.5,0.8],"subjectId":"A2TLN8489YGY81","assignmentId":"3LJ7UR74RIZVYBRJIMTIC7B0D7W4NP","hitId":"3SD15I2WD2G0NA4TSPXGB81L5S7630","url":"https://gershmanlab.com/experiments/alicia/teaching/experiment/?hitId=3SD15I2WD2G0NA4TSPXGB81L5S7630&workerId=A2TLN8489YGY81&assignmentId=3LJ7UR74RIZVYBRJIMTIC7B0D7W4NP&a=4UJL9&tp_a=4UJL9&b=3LJ7UR74RIZVYBRJIMTIC7B0D7W4NP&tp_b=3LJ7UR74RIZVYBRJIMTIC7B0D7W4NP&c=365799&tp_c=365799"},{"rt":3348,"stimulus":"\n            <h4 style=\"color:Orange;\">Student 6</h4>\n            <h2>The weight of your coin is <b style=\"color:Tomato;\">0.8</b>.</h2>\n            <p>In this block, you will be giving <b>two</b> sets of examples to Student 6.</p>\n                <p>You will see the student's guess after the first set of examples. You will also receive feedback at the end of the block.</p>\n            <p>To earn the highest bonus, you will have to <b>take into consideration the student's guess</b> when you choose your second set of examples.</p>","response":0,"trial_type":"html-button-response","trial_index":48,"time_elapsed":383563,"internal_node_id":"0.0-46.0","params":{"nStudents":24,"maxFlips":30,"completionMinutes":45,"basePay":8,"maxBonus":9,"perTrialBonus":0.5,"perTrialBonusThreshold":0.05,"exampleCost":0.01},"classroomParams":{"A":{"a":1,"b":4},"B":{"a":4,"b":1},"C":{"a":2,"b":8},"D":{"a":8,"b":2}},"conditions":["nonSeqFull","nonSeqPartial","seqNoFeedback","seqFeedback"],"classroomPairings":[["A","B"],["C","D"]],"coinWeights":[0.2,0.5,0.8],"subjectId":"A2TLN8489YGY81","assignmentId":"3LJ7UR74RIZVYBRJIMTIC7B0D7W4NP","hitId":"3SD15I2WD2G0NA4TSPXGB81L5S7630","url":"https://gershmanlab.com/experiments/alicia/teaching/experiment/?hitId=3SD15I2WD2G0NA4TSPXGB81L5S7630&workerId=A2TLN8489YGY81&assignmentId=3LJ7UR74RIZVYBRJIMTIC7B0D7W4NP&a=4UJL9&tp_a=4UJL9&b=3LJ7UR74RIZVYBRJIMTIC7B0D7W4NP&tp_b=3LJ7UR74RIZVYBRJIMTIC7B0D7W4NP&c=365799&tp_c=365799"},{"rt":14929,"response":{"heads":"0","tails":"0"},"type":"response","condition":"seqFeedback","trueTheta":0.8,"classrooms":["C","D"],"studentTrueClassroom":"D","exampleSet":"first","trial_type":"survey-html-form","trial_index":49,"time_elapsed":398493,"internal_node_id":"0.0-47.0-0.0","params":{"nStudents":24,"maxFlips":30,"completionMinutes":45,"basePay":8,"maxBonus":9,"perTrialBonus":0.5,"perTrialBonusThreshold":0.05,"exampleCost":0.01},"classroomParams":{"A":{"a":1,"b":4},"B":{"a":4,"b":1},"C":{"a":2,"b":8},"D":{"a":8,"b":2}},"conditions":["nonSeqFull","nonSeqPartial","seqNoFeedback","seqFeedback"],"classroomPairings":[["A","B"],["C","D"]],"coinWeights":[0.2,0.5,0.8],"subjectId":"A2TLN8489YGY81","assignmentId":"3LJ7UR74RIZVYBRJIMTIC7B0D7W4NP","hitId":"3SD15I2WD2G0NA4TSPXGB81L5S7630","url":"https://gershmanlab.com/experiments/alicia/teaching/experiment/?hitId=3SD15I2WD2G0NA4TSPXGB81L5S7630&workerId=A2TLN8489YGY81&assignmentId=3LJ7UR74RIZVYBRJIMTIC7B0D7W4NP&a=4UJL9&tp_a=4UJL9&b=3LJ7UR74RIZVYBRJIMTIC7B0D7W4NP&tp_b=3LJ7UR74RIZVYBRJIMTIC7B0D7W4NP&c=365799&tp_c=365799","heads":0,"tails":0,"studentIndex":5,"studentTrueHypers":{"a":8,"b":2},"studentGuess":0.8,"delta":0,"totalExamples":0,"bonusSoFar":1.08},{"rt":1003,"response":{"heads":"0","tails":"0"},"type":"response","condition":"seqFeedback","trueTheta":0.8,"classrooms":["C","D"],"studentTrueClassroom":"D","exampleSet":"first","trial_type":"survey-html-form","trial_index":50,"time_elapsed":399497,"internal_node_id":"0.0-47.1-0.1","params":{"nStudents":24,"maxFlips":30,"completionMinutes":45,"basePay":8,"maxBonus":9,"perTrialBonus":0.5,"perTrialBonusThreshold":0.05,"exampleCost":0.01},"classroomParams":{"A":{"a":1,"b":4},"B":{"a":4,"b":1},"C":{"a":2,"b":8},"D":{"a":8,"b":2}},"conditions":["nonSeqFull","nonSeqPartial","seqNoFeedback","seqFeedback"],"classroomPairings":[["A","B"],["C","D"]],"coinWeights":[0.2,0.5,0.8],"subjectId":"A2TLN8489YGY81","assignmentId":"3LJ7UR74RIZVYBRJIMTIC7B0D7W4NP","hitId":"3SD15I2WD2G0NA4TSPXGB81L5S7630","url":"https://gershmanlab.com/experiments/alicia/teaching/experiment/?hitId=3SD15I2WD2G0NA4TSPXGB81L5S7630&workerId=A2TLN8489YGY81&assignmentId=3LJ7UR74RIZVYBRJIMTIC7B0D7W4NP&a=4UJL9&tp_a=4UJL9&b=3LJ7UR74RIZVYBRJIMTIC7B0D7W4NP&tp_b=3LJ7UR74RIZVYBRJIMTIC7B0D7W4NP&c=365799&tp_c=365799","heads":0,"tails":0,"studentIndex":5,"studentTrueHypers":{"a":8,"b":2},"studentGuess":0.8,"delta":0,"totalExamples":0,"bonusSoFar":1.08},{"rt":1768,"response":{"heads":"1","tails":"0"},"type":"response","condition":"seqFeedback","trueTheta":0.8,"classrooms":["C","D"],"studentTrueClassroom":"D","exampleSet":"first","trial_type":"survey-html-form","trial_index":51,"time_elapsed":401266,"internal_node_id":"0.0-47.2-0.2","params":{"nStudents":24,"maxFlips":30,"completionMinutes":45,"basePay":8,"maxBonus":9,"perTrialBonus":0.5,"perTrialBonusThreshold":0.05,"exampleCost":0.01},"classroomParams":{"A":{"a":1,"b":4},"B":{"a":4,"b":1},"C":{"a":2,"b":8},"D":{"a":8,"b":2}},"conditions":["nonSeqFull","nonSeqPartial","seqNoFeedback","seqFeedback"],"classroomPairings":[["A","B"],["C","D"]],"coinWeights":[0.2,0.5,0.8],"subjectId":"A2TLN8489YGY81","assignmentId":"3LJ7UR74RIZVYBRJIMTIC7B0D7W4NP","hitId":"3SD15I2WD2G0NA4TSPXGB81L5S7630","url":"https://gershmanlab.com/experiments/alicia/teaching/experiment/?hitId=3SD15I2WD2G0NA4TSPXGB81L5S7630&workerId=A2TLN8489YGY81&assignmentId=3LJ7UR74RIZVYBRJIMTIC7B0D7W4NP&a=4UJL9&tp_a=4UJL9&b=3LJ7UR74RIZVYBRJIMTIC7B0D7W4NP&tp_b=3LJ7UR74RIZVYBRJIMTIC7B0D7W4NP&c=365799&tp_c=365799","heads":1,"tails":0,"studentIndex":5,"studentTrueHypers":{"a":8,"b":2},"studentGuess":0.8181818181818182,"delta":0.018181818181818188,"totalExamples":1,"bonusSoFar":1.08},{"rt":null,"stimulus":"Sending examples to student... ","response":null,"trial_type":"html-keyboard-response","trial_index":52,"time_elapsed":403019,"internal_node_id":"0.0-48.0","params":{"nStudents":24,"maxFlips":30,"completionMinutes":45,"basePay":8,"maxBonus":9,"perTrialBonus":0.5,"perTrialBonusThreshold":0.05,"exampleCost":0.01},"classroomParams":{"A":{"a":1,"b":4},"B":{"a":4,"b":1},"C":{"a":2,"b":8},"D":{"a":8,"b":2}},"conditions":["nonSeqFull","nonSeqPartial","seqNoFeedback","seqFeedback"],"classroomPairings":[["A","B"],["C","D"]],"coinWeights":[0.2,0.5,0.8],"subjectId":"A2TLN8489YGY81","assignmentId":"3LJ7UR74RIZVYBRJIMTIC7B0D7W4NP","hitId":"3SD15I2WD2G0NA4TSPXGB81L5S7630","url":"https://gershmanlab.com/experiments/alicia/teaching/experiment/?hitId=3SD15I2WD2G0NA4TSPXGB81L5S7630&workerId=A2TLN8489YGY81&assignmentId=3LJ7UR74RIZVYBRJIMTIC7B0D7W4NP&a=4UJL9&tp_a=4UJL9&b=3LJ7UR74RIZVYBRJIMTIC7B0D7W4NP&tp_b=3LJ7UR74RIZVYBRJIMTIC7B0D7W4NP&c=365799&tp_c=365799"},{"rt":null,"stimulus":"Examples sent to student! Waiting for student...","response":null,"trial_type":"html-keyboard-response","trial_index":53,"time_elapsed":407022,"internal_node_id":"0.0-49.0","params":{"nStudents":24,"maxFlips":30,"completionMinutes":45,"basePay":8,"maxBonus":9,"perTrialBonus":0.5,"perTrialBonusThreshold":0.05,"exampleCost":0.01},"classroomParams":{"A":{"a":1,"b":4},"B":{"a":4,"b":1},"C":{"a":2,"b":8},"D":{"a":8,"b":2}},"conditions":["nonSeqFull","nonSeqPartial","seqNoFeedback","seqFeedback"],"classroomPairings":[["A","B"],["C","D"]],"coinWeights":[0.2,0.5,0.8],"subjectId":"A2TLN8489YGY81","assignmentId":"3LJ7UR74RIZVYBRJIMTIC7B0D7W4NP","hitId":"3SD15I2WD2G0NA4TSPXGB81L5S7630","url":"https://gershmanlab.com/experiments/alicia/teaching/experiment/?hitId=3SD15I2WD2G0NA4TSPXGB81L5S7630&workerId=A2TLN8489YGY81&assignmentId=3LJ7UR74RIZVYBRJIMTIC7B0D7W4NP&a=4UJL9&tp_a=4UJL9&b=3LJ7UR74RIZVYBRJIMTIC7B0D7W4NP&tp_b=3LJ7UR74RIZVYBRJIMTIC7B0D7W4NP&c=365799&tp_c=365799"},{"rt":3091,"stimulus":"\n                <p>Student's guess for coin weight: <b style=\"color:Tomato;\">0.80</b></p>\n                <p></b></p>\n                <p>You will now send another set of examples to your student. <b>Remember to take your student's guess into consideration so that you can earn the highest bonus possible!</b> </p>\n                <p>Press any key to continue.</p>\n                ","response":" ","trial_type":"html-keyboard-response","trial_index":54,"time_elapsed":410113,"internal_node_id":"0.0-50.0","params":{"nStudents":24,"maxFlips":30,"completionMinutes":45,"basePay":8,"maxBonus":9,"perTrialBonus":0.5,"perTrialBonusThreshold":0.05,"exampleCost":0.01},"classroomParams":{"A":{"a":1,"b":4},"B":{"a":4,"b":1},"C":{"a":2,"b":8},"D":{"a":8,"b":2}},"conditions":["nonSeqFull","nonSeqPartial","seqNoFeedback","seqFeedback"],"classroomPairings":[["A","B"],["C","D"]],"coinWeights":[0.2,0.5,0.8],"subjectId":"A2TLN8489YGY81","assignmentId":"3LJ7UR74RIZVYBRJIMTIC7B0D7W4NP","hitId":"3SD15I2WD2G0NA4TSPXGB81L5S7630","url":"https://gershmanlab.com/experiments/alicia/teaching/experiment/?hitId=3SD15I2WD2G0NA4TSPXGB81L5S7630&workerId=A2TLN8489YGY81&assignmentId=3LJ7UR74RIZVYBRJIMTIC7B0D7W4NP&a=4UJL9&tp_a=4UJL9&b=3LJ7UR74RIZVYBRJIMTIC7B0D7W4NP&tp_b=3LJ7UR74RIZVYBRJIMTIC7B0D7W4NP&c=365799&tp_c=365799"},{"rt":4156,"response":{"heads":"1","tails":"0"},"type":"response","condition":"seqFeedback","trueTheta":0.8,"classrooms":["C","D"],"studentTrueClassroom":"D","exampleSet":"second","trial_type":"survey-html-form","trial_index":55,"time_elapsed":414270,"internal_node_id":"0.0-51.0-0.0","params":{"nStudents":24,"maxFlips":30,"completionMinutes":45,"basePay":8,"maxBonus":9,"perTrialBonus":0.5,"perTrialBonusThreshold":0.05,"exampleCost":0.01},"classroomParams":{"A":{"a":1,"b":4},"B":{"a":4,"b":1},"C":{"a":2,"b":8},"D":{"a":8,"b":2}},"conditions":["nonSeqFull","nonSeqPartial","seqNoFeedback","seqFeedback"],"classroomPairings":[["A","B"],["C","D"]],"coinWeights":[0.2,0.5,0.8],"subjectId":"A2TLN8489YGY81","assignmentId":"3LJ7UR74RIZVYBRJIMTIC7B0D7W4NP","hitId":"3SD15I2WD2G0NA4TSPXGB81L5S7630","url":"https://gershmanlab.com/experiments/alicia/teaching/experiment/?hitId=3SD15I2WD2G0NA4TSPXGB81L5S7630&workerId=A2TLN8489YGY81&assignmentId=3LJ7UR74RIZVYBRJIMTIC7B0D7W4NP&a=4UJL9&tp_a=4UJL9&b=3LJ7UR74RIZVYBRJIMTIC7B0D7W4NP&tp_b=3LJ7UR74RIZVYBRJIMTIC7B0D7W4NP&c=365799&tp_c=365799","firstResponseHeads":0,"firstResponseTails":0,"secondResponseHeads":1,"secondResponseTails":0,"totalHeads":1,"totalTails":0,"studentIndex":5,"studentTrueHypers":{"a":8,"b":2},"studentGuess":0.8181818181818182,"delta":0.018181818181818188,"bonus":0.49,"bonusSoFar":1.57,"totalExamples":1},{"rt":null,"stimulus":"Sending examples to student... ","response":null,"trial_type":"html-keyboard-response","trial_index":56,"time_elapsed":416286,"internal_node_id":"0.0-52.0","params":{"nStudents":24,"maxFlips":30,"completionMinutes":45,"basePay":8,"maxBonus":9,"perTrialBonus":0.5,"perTrialBonusThreshold":0.05,"exampleCost":0.01},"classroomParams":{"A":{"a":1,"b":4},"B":{"a":4,"b":1},"C":{"a":2,"b":8},"D":{"a":8,"b":2}},"conditions":["nonSeqFull","nonSeqPartial","seqNoFeedback","seqFeedback"],"classroomPairings":[["A","B"],["C","D"]],"coinWeights":[0.2,0.5,0.8],"subjectId":"A2TLN8489YGY81","assignmentId":"3LJ7UR74RIZVYBRJIMTIC7B0D7W4NP","hitId":"3SD15I2WD2G0NA4TSPXGB81L5S7630","url":"https://gershmanlab.com/experiments/alicia/teaching/experiment/?hitId=3SD15I2WD2G0NA4TSPXGB81L5S7630&workerId=A2TLN8489YGY81&assignmentId=3LJ7UR74RIZVYBRJIMTIC7B0D7W4NP&a=4UJL9&tp_a=4UJL9&b=3LJ7UR74RIZVYBRJIMTIC7B0D7W4NP&tp_b=3LJ7UR74RIZVYBRJIMTIC7B0D7W4NP&c=365799&tp_c=365799"},{"rt":null,"stimulus":"Examples sent to student! Waiting for student...","response":null,"trial_type":"html-keyboard-response","trial_index":57,"time_elapsed":420804,"internal_node_id":"0.0-53.0","params":{"nStudents":24,"maxFlips":30,"completionMinutes":45,"basePay":8,"maxBonus":9,"perTrialBonus":0.5,"perTrialBonusThreshold":0.05,"exampleCost":0.01},"classroomParams":{"A":{"a":1,"b":4},"B":{"a":4,"b":1},"C":{"a":2,"b":8},"D":{"a":8,"b":2}},"conditions":["nonSeqFull","nonSeqPartial","seqNoFeedback","seqFeedback"],"classroomPairings":[["A","B"],["C","D"]],"coinWeights":[0.2,0.5,0.8],"subjectId":"A2TLN8489YGY81","assignmentId":"3LJ7UR74RIZVYBRJIMTIC7B0D7W4NP","hitId":"3SD15I2WD2G0NA4TSPXGB81L5S7630","url":"https://gershmanlab.com/experiments/alicia/teaching/experiment/?hitId=3SD15I2WD2G0NA4TSPXGB81L5S7630&workerId=A2TLN8489YGY81&assignmentId=3LJ7UR74RIZVYBRJIMTIC7B0D7W4NP&a=4UJL9&tp_a=4UJL9&b=3LJ7UR74RIZVYBRJIMTIC7B0D7W4NP&tp_b=3LJ7UR74RIZVYBRJIMTIC7B0D7W4NP&c=365799&tp_c=365799"},{"rt":3097,"stimulus":"\n                <p>Student 6's first guess for coin weight: <b style=\"color:Tomato\";>0.80</b></p>\n                <p>Student 6's second guess for coin weight: <b style=\"color:Tomato\";>0.82</b></p>\n                <p>You received a bonus of <b>$0.49</b> based on the student's second guess.</p>\n                <p>Total bonus so far: <b>$1.57</b></p>\n                <p>Press any key to continue.</p>\n                ","response":" ","trial_type":"html-keyboard-response","trial_index":58,"time_elapsed":423902,"internal_node_id":"0.0-54.0","params":{"nStudents":24,"maxFlips":30,"completionMinutes":45,"basePay":8,"maxBonus":9,"perTrialBonus":0.5,"perTrialBonusThreshold":0.05,"exampleCost":0.01},"classroomParams":{"A":{"a":1,"b":4},"B":{"a":4,"b":1},"C":{"a":2,"b":8},"D":{"a":8,"b":2}},"conditions":["nonSeqFull","nonSeqPartial","seqNoFeedback","seqFeedback"],"classroomPairings":[["A","B"],["C","D"]],"coinWeights":[0.2,0.5,0.8],"subjectId":"A2TLN8489YGY81","assignmentId":"3LJ7UR74RIZVYBRJIMTIC7B0D7W4NP","hitId":"3SD15I2WD2G0NA4TSPXGB81L5S7630","url":"https://gershmanlab.com/experiments/alicia/teaching/experiment/?hitId=3SD15I2WD2G0NA4TSPXGB81L5S7630&workerId=A2TLN8489YGY81&assignmentId=3LJ7UR74RIZVYBRJIMTIC7B0D7W4NP&a=4UJL9&tp_a=4UJL9&b=3LJ7UR74RIZVYBRJIMTIC7B0D7W4NP&tp_b=3LJ7UR74RIZVYBRJIMTIC7B0D7W4NP&c=365799&tp_c=365799"},{"rt":null,"stimulus":"<div style=\"font-size:60px;\">Next student</div>","response":null,"trial_type":"html-keyboard-response","trial_index":59,"time_elapsed":425906,"internal_node_id":"0.0-55.0-0.0","params":{"nStudents":24,"maxFlips":30,"completionMinutes":45,"basePay":8,"maxBonus":9,"perTrialBonus":0.5,"perTrialBonusThreshold":0.05,"exampleCost":0.01},"classroomParams":{"A":{"a":1,"b":4},"B":{"a":4,"b":1},"C":{"a":2,"b":8},"D":{"a":8,"b":2}},"conditions":["nonSeqFull","nonSeqPartial","seqNoFeedback","seqFeedback"],"classroomPairings":[["A","B"],["C","D"]],"coinWeights":[0.2,0.5,0.8],"subjectId":"A2TLN8489YGY81","assignmentId":"3LJ7UR74RIZVYBRJIMTIC7B0D7W4NP","hitId":"3SD15I2WD2G0NA4TSPXGB81L5S7630","url":"https://gershmanlab.com/experiments/alicia/teaching/experiment/?hitId=3SD15I2WD2G0NA4TSPXGB81L5S7630&workerId=A2TLN8489YGY81&assignmentId=3LJ7UR74RIZVYBRJIMTIC7B0D7W4NP&a=4UJL9&tp_a=4UJL9&b=3LJ7UR74RIZVYBRJIMTIC7B0D7W4NP&tp_b=3LJ7UR74RIZVYBRJIMTIC7B0D7W4NP&c=365799&tp_c=365799"},{"rt":9454,"stimulus":"\n            <h4 style=\"color:Orange;\">Student 7</h4>\n            <h2>The weight of your coin is <b style=\"color:Tomato;\">0.5</b>.</h2>\n            <p>In this block, you will be giving <b>one</b> set of examples to Student 7.</p>\n                <p>You will receive feedback at the end of the block.</p>\n            <p></p>","response":0,"trial_type":"html-button-response","trial_index":60,"time_elapsed":435362,"internal_node_id":"0.0-56.0","params":{"nStudents":24,"maxFlips":30,"completionMinutes":45,"basePay":8,"maxBonus":9,"perTrialBonus":0.5,"perTrialBonusThreshold":0.05,"exampleCost":0.01},"classroomParams":{"A":{"a":1,"b":4},"B":{"a":4,"b":1},"C":{"a":2,"b":8},"D":{"a":8,"b":2}},"conditions":["nonSeqFull","nonSeqPartial","seqNoFeedback","seqFeedback"],"classroomPairings":[["A","B"],["C","D"]],"coinWeights":[0.2,0.5,0.8],"subjectId":"A2TLN8489YGY81","assignmentId":"3LJ7UR74RIZVYBRJIMTIC7B0D7W4NP","hitId":"3SD15I2WD2G0NA4TSPXGB81L5S7630","url":"https://gershmanlab.com/experiments/alicia/teaching/experiment/?hitId=3SD15I2WD2G0NA4TSPXGB81L5S7630&workerId=A2TLN8489YGY81&assignmentId=3LJ7UR74RIZVYBRJIMTIC7B0D7W4NP&a=4UJL9&tp_a=4UJL9&b=3LJ7UR74RIZVYBRJIMTIC7B0D7W4NP&tp_b=3LJ7UR74RIZVYBRJIMTIC7B0D7W4NP&c=365799&tp_c=365799"},{"rt":10194,"response":{"heads":"3","tails":"0"},"type":"response","condition":"nonSeqFull","trueTheta":0.5,"classrooms":["A","B"],"studentTrueClassroom":"A","exampleSet":"first","trial_type":"survey-html-form","trial_index":61,"time_elapsed":445556,"internal_node_id":"0.0-57.0-0.0","params":{"nStudents":24,"maxFlips":30,"completionMinutes":45,"basePay":8,"maxBonus":9,"perTrialBonus":0.5,"perTrialBonusThreshold":0.05,"exampleCost":0.01},"classroomParams":{"A":{"a":1,"b":4},"B":{"a":4,"b":1},"C":{"a":2,"b":8},"D":{"a":8,"b":2}},"conditions":["nonSeqFull","nonSeqPartial","seqNoFeedback","seqFeedback"],"classroomPairings":[["A","B"],["C","D"]],"coinWeights":[0.2,0.5,0.8],"subjectId":"A2TLN8489YGY81","assignmentId":"3LJ7UR74RIZVYBRJIMTIC7B0D7W4NP","hitId":"3SD15I2WD2G0NA4TSPXGB81L5S7630","url":"https://gershmanlab.com/experiments/alicia/teaching/experiment/?hitId=3SD15I2WD2G0NA4TSPXGB81L5S7630&workerId=A2TLN8489YGY81&assignmentId=3LJ7UR74RIZVYBRJIMTIC7B0D7W4NP&a=4UJL9&tp_a=4UJL9&b=3LJ7UR74RIZVYBRJIMTIC7B0D7W4NP&tp_b=3LJ7UR74RIZVYBRJIMTIC7B0D7W4NP&c=365799&tp_c=365799","heads":3,"tails":0,"studentIndex":6,"studentTrueHypers":{"a":1,"b":4},"studentGuess":0.5,"delta":0,"totalExamples":3,"bonus":0.47,"bonusSoFar":2.04},{"rt":null,"stimulus":"Sending examples to student... ","response":null,"trial_type":"html-keyboard-response","trial_index":62,"time_elapsed":447058,"internal_node_id":"0.0-58.0","params":{"nStudents":24,"maxFlips":30,"completionMinutes":45,"basePay":8,"maxBonus":9,"perTrialBonus":0.5,"perTrialBonusThreshold":0.05,"exampleCost":0.01},"classroomParams":{"A":{"a":1,"b":4},"B":{"a":4,"b":1},"C":{"a":2,"b":8},"D":{"a":8,"b":2}},"conditions":["nonSeqFull","nonSeqPartial","seqNoFeedback","seqFeedback"],"classroomPairings":[["A","B"],["C","D"]],"coinWeights":[0.2,0.5,0.8],"subjectId":"A2TLN8489YGY81","assignmentId":"3LJ7UR74RIZVYBRJIMTIC7B0D7W4NP","hitId":"3SD15I2WD2G0NA4TSPXGB81L5S7630","url":"https://gershmanlab.com/experiments/alicia/teaching/experiment/?hitId=3SD15I2WD2G0NA4TSPXGB81L5S7630&workerId=A2TLN8489YGY81&assignmentId=3LJ7UR74RIZVYBRJIMTIC7B0D7W4NP&a=4UJL9&tp_a=4UJL9&b=3LJ7UR74RIZVYBRJIMTIC7B0D7W4NP&tp_b=3LJ7UR74RIZVYBRJIMTIC7B0D7W4NP&c=365799&tp_c=365799"},{"rt":null,"stimulus":"Examples sent to student! Waiting for student...","response":null,"trial_type":"html-keyboard-response","trial_index":63,"time_elapsed":452563,"internal_node_id":"0.0-59.0","params":{"nStudents":24,"maxFlips":30,"completionMinutes":45,"basePay":8,"maxBonus":9,"perTrialBonus":0.5,"perTrialBonusThreshold":0.05,"exampleCost":0.01},"classroomParams":{"A":{"a":1,"b":4},"B":{"a":4,"b":1},"C":{"a":2,"b":8},"D":{"a":8,"b":2}},"conditions":["nonSeqFull","nonSeqPartial","seqNoFeedback","seqFeedback"],"classroomPairings":[["A","B"],["C","D"]],"coinWeights":[0.2,0.5,0.8],"subjectId":"A2TLN8489YGY81","assignmentId":"3LJ7UR74RIZVYBRJIMTIC7B0D7W4NP","hitId":"3SD15I2WD2G0NA4TSPXGB81L5S7630","url":"https://gershmanlab.com/experiments/alicia/teaching/experiment/?hitId=3SD15I2WD2G0NA4TSPXGB81L5S7630&workerId=A2TLN8489YGY81&assignmentId=3LJ7UR74RIZVYBRJIMTIC7B0D7W4NP&a=4UJL9&tp_a=4UJL9&b=3LJ7UR74RIZVYBRJIMTIC7B0D7W4NP&tp_b=3LJ7UR74RIZVYBRJIMTIC7B0D7W4NP&c=365799&tp_c=365799"},{"rt":4019,"stimulus":"\n                <p>Student's guess for coin weight: <b style=\"color:Tomato;\">0.50</b></p>\n                <p>You received a bonus of <b>$0.47</b>. Total bonus so far: <b>$2.04</b></b></p>\n                <p></p>\n                <p>Press any key to continue.</p>\n                ","response":" ","trial_type":"html-keyboard-response","trial_index":64,"time_elapsed":456583,"internal_node_id":"0.0-60.0","params":{"nStudents":24,"maxFlips":30,"completionMinutes":45,"basePay":8,"maxBonus":9,"perTrialBonus":0.5,"perTrialBonusThreshold":0.05,"exampleCost":0.01},"classroomParams":{"A":{"a":1,"b":4},"B":{"a":4,"b":1},"C":{"a":2,"b":8},"D":{"a":8,"b":2}},"conditions":["nonSeqFull","nonSeqPartial","seqNoFeedback","seqFeedback"],"classroomPairings":[["A","B"],["C","D"]],"coinWeights":[0.2,0.5,0.8],"subjectId":"A2TLN8489YGY81","assignmentId":"3LJ7UR74RIZVYBRJIMTIC7B0D7W4NP","hitId":"3SD15I2WD2G0NA4TSPXGB81L5S7630","url":"https://gershmanlab.com/experiments/alicia/teaching/experiment/?hitId=3SD15I2WD2G0NA4TSPXGB81L5S7630&workerId=A2TLN8489YGY81&assignmentId=3LJ7UR74RIZVYBRJIMTIC7B0D7W4NP&a=4UJL9&tp_a=4UJL9&b=3LJ7UR74RIZVYBRJIMTIC7B0D7W4NP&tp_b=3LJ7UR74RIZVYBRJIMTIC7B0D7W4NP&c=365799&tp_c=365799"},{"rt":null,"stimulus":"<div style=\"font-size:60px;\">Next student</div>","response":null,"trial_type":"html-keyboard-response","trial_index":65,"time_elapsed":459588,"internal_node_id":"0.0-61.0-0.0","params":{"nStudents":24,"maxFlips":30,"completionMinutes":45,"basePay":8,"maxBonus":9,"perTrialBonus":0.5,"perTrialBonusThreshold":0.05,"exampleCost":0.01},"classroomParams":{"A":{"a":1,"b":4},"B":{"a":4,"b":1},"C":{"a":2,"b":8},"D":{"a":8,"b":2}},"conditions":["nonSeqFull","nonSeqPartial","seqNoFeedback","seqFeedback"],"classroomPairings":[["A","B"],["C","D"]],"coinWeights":[0.2,0.5,0.8],"subjectId":"A2TLN8489YGY81","assignmentId":"3LJ7UR74RIZVYBRJIMTIC7B0D7W4NP","hitId":"3SD15I2WD2G0NA4TSPXGB81L5S7630","url":"https://gershmanlab.com/experiments/alicia/teaching/experiment/?hitId=3SD15I2WD2G0NA4TSPXGB81L5S7630&workerId=A2TLN8489YGY81&assignmentId=3LJ7UR74RIZVYBRJIMTIC7B0D7W4NP&a=4UJL9&tp_a=4UJL9&b=3LJ7UR74RIZVYBRJIMTIC7B0D7W4NP&tp_b=3LJ7UR74RIZVYBRJIMTIC7B0D7W4NP&c=365799&tp_c=365799"},{"rt":2907,"stimulus":"\n            <h4 style=\"color:Orange;\">Student 8</h4>\n            <h2>The weight of your coin is <b style=\"color:Tomato;\">0.5</b>.</h2>\n            <p>In this block, you will be giving <b>two</b> sets of examples to Student 8.</p>\n                <p>You will see the student's guess after the first set of examples. You will also receive feedback at the end of the block.</p>\n            <p>To earn the highest bonus, you will have to <b>take into consideration the student's guess</b> when you choose your second set of examples.</p>","response":0,"trial_type":"html-button-response","trial_index":66,"time_elapsed":462496,"internal_node_id":"0.0-62.0","params":{"nStudents":24,"maxFlips":30,"completionMinutes":45,"basePay":8,"maxBonus":9,"perTrialBonus":0.5,"perTrialBonusThreshold":0.05,"exampleCost":0.01},"classroomParams":{"A":{"a":1,"b":4},"B":{"a":4,"b":1},"C":{"a":2,"b":8},"D":{"a":8,"b":2}},"conditions":["nonSeqFull","nonSeqPartial","seqNoFeedback","seqFeedback"],"classroomPairings":[["A","B"],["C","D"]],"coinWeights":[0.2,0.5,0.8],"subjectId":"A2TLN8489YGY81","assignmentId":"3LJ7UR74RIZVYBRJIMTIC7B0D7W4NP","hitId":"3SD15I2WD2G0NA4TSPXGB81L5S7630","url":"https://gershmanlab.com/experiments/alicia/teaching/experiment/?hitId=3SD15I2WD2G0NA4TSPXGB81L5S7630&workerId=A2TLN8489YGY81&assignmentId=3LJ7UR74RIZVYBRJIMTIC7B0D7W4NP&a=4UJL9&tp_a=4UJL9&b=3LJ7UR74RIZVYBRJIMTIC7B0D7W4NP&tp_b=3LJ7UR74RIZVYBRJIMTIC7B0D7W4NP&c=365799&tp_c=365799"},{"rt":15771,"response":{"heads":"5","tails":"0"},"type":"response","condition":"seqFeedback","trueTheta":0.5,"classrooms":["C","D"],"studentTrueClassroom":"C","exampleSet":"first","trial_type":"survey-html-form","trial_index":67,"time_elapsed":478267,"internal_node_id":"0.0-63.0-0.0","params":{"nStudents":24,"maxFlips":30,"completionMinutes":45,"basePay":8,"maxBonus":9,"perTrialBonus":0.5,"perTrialBonusThreshold":0.05,"exampleCost":0.01},"classroomParams":{"A":{"a":1,"b":4},"B":{"a":4,"b":1},"C":{"a":2,"b":8},"D":{"a":8,"b":2}},"conditions":["nonSeqFull","nonSeqPartial","seqNoFeedback","seqFeedback"],"classroomPairings":[["A","B"],["C","D"]],"coinWeights":[0.2,0.5,0.8],"subjectId":"A2TLN8489YGY81","assignmentId":"3LJ7UR74RIZVYBRJIMTIC7B0D7W4NP","hitId":"3SD15I2WD2G0NA4TSPXGB81L5S7630","url":"https://gershmanlab.com/experiments/alicia/teaching/experiment/?hitId=3SD15I2WD2G0NA4TSPXGB81L5S7630&workerId=A2TLN8489YGY81&assignmentId=3LJ7UR74RIZVYBRJIMTIC7B0D7W4NP&a=4UJL9&tp_a=4UJL9&b=3LJ7UR74RIZVYBRJIMTIC7B0D7W4NP&tp_b=3LJ7UR74RIZVYBRJIMTIC7B0D7W4NP&c=365799&tp_c=365799","heads":5,"tails":0,"studentIndex":7,"studentTrueHypers":{"a":2,"b":8},"studentGuess":0.4666666666666667,"delta":0.033333333333333326,"totalExamples":5,"bonusSoFar":2.04},{"rt":null,"stimulus":"Sending examples to student... ","response":null,"trial_type":"html-keyboard-response","trial_index":68,"time_elapsed":479527,"internal_node_id":"0.0-64.0","params":{"nStudents":24,"maxFlips":30,"completionMinutes":45,"basePay":8,"maxBonus":9,"perTrialBonus":0.5,"perTrialBonusThreshold":0.05,"exampleCost":0.01},"classroomParams":{"A":{"a":1,"b":4},"B":{"a":4,"b":1},"C":{"a":2,"b":8},"D":{"a":8,"b":2}},"conditions":["nonSeqFull","nonSeqPartial","seqNoFeedback","seqFeedback"],"classroomPairings":[["A","B"],["C","D"]],"coinWeights":[0.2,0.5,0.8],"subjectId":"A2TLN8489YGY81","assignmentId":"3LJ7UR74RIZVYBRJIMTIC7B0D7W4NP","hitId":"3SD15I2WD2G0NA4TSPXGB81L5S7630","url":"https://gershmanlab.com/experiments/alicia/teaching/experiment/?hitId=3SD15I2WD2G0NA4TSPXGB81L5S7630&workerId=A2TLN8489YGY81&assignmentId=3LJ7UR74RIZVYBRJIMTIC7B0D7W4NP&a=4UJL9&tp_a=4UJL9&b=3LJ7UR74RIZVYBRJIMTIC7B0D7W4NP&tp_b=3LJ7UR74RIZVYBRJIMTIC7B0D7W4NP&c=365799&tp_c=365799"},{"rt":null,"stimulus":"Examples sent to student! Waiting for student...","response":null,"trial_type":"html-keyboard-response","trial_index":69,"time_elapsed":485539,"internal_node_id":"0.0-65.0","params":{"nStudents":24,"maxFlips":30,"completionMinutes":45,"basePay":8,"maxBonus":9,"perTrialBonus":0.5,"perTrialBonusThreshold":0.05,"exampleCost":0.01},"classroomParams":{"A":{"a":1,"b":4},"B":{"a":4,"b":1},"C":{"a":2,"b":8},"D":{"a":8,"b":2}},"conditions":["nonSeqFull","nonSeqPartial","seqNoFeedback","seqFeedback"],"classroomPairings":[["A","B"],["C","D"]],"coinWeights":[0.2,0.5,0.8],"subjectId":"A2TLN8489YGY81","assignmentId":"3LJ7UR74RIZVYBRJIMTIC7B0D7W4NP","hitId":"3SD15I2WD2G0NA4TSPXGB81L5S7630","url":"https://gershmanlab.com/experiments/alicia/teaching/experiment/?hitId=3SD15I2WD2G0NA4TSPXGB81L5S7630&workerId=A2TLN8489YGY81&assignmentId=3LJ7UR74RIZVYBRJIMTIC7B0D7W4NP&a=4UJL9&tp_a=4UJL9&b=3LJ7UR74RIZVYBRJIMTIC7B0D7W4NP&tp_b=3LJ7UR74RIZVYBRJIMTIC7B0D7W4NP&c=365799&tp_c=365799"},{"rt":2895,"stimulus":"\n                <p>Student's guess for coin weight: <b style=\"color:Tomato;\">0.47</b></p>\n                <p></b></p>\n                <p>You will now send another set of examples to your student. <b>Remember to take your student's guess into consideration so that you can earn the highest bonus possible!</b> </p>\n                <p>Press any key to continue.</p>\n                ","response":" ","trial_type":"html-keyboard-response","trial_index":70,"time_elapsed":488435,"internal_node_id":"0.0-66.0","params":{"nStudents":24,"maxFlips":30,"completionMinutes":45,"basePay":8,"maxBonus":9,"perTrialBonus":0.5,"perTrialBonusThreshold":0.05,"exampleCost":0.01},"classroomParams":{"A":{"a":1,"b":4},"B":{"a":4,"b":1},"C":{"a":2,"b":8},"D":{"a":8,"b":2}},"conditions":["nonSeqFull","nonSeqPartial","seqNoFeedback","seqFeedback"],"classroomPairings":[["A","B"],["C","D"]],"coinWeights":[0.2,0.5,0.8],"subjectId":"A2TLN8489YGY81","assignmentId":"3LJ7UR74RIZVYBRJIMTIC7B0D7W4NP","hitId":"3SD15I2WD2G0NA4TSPXGB81L5S7630","url":"https://gershmanlab.com/experiments/alicia/teaching/experiment/?hitId=3SD15I2WD2G0NA4TSPXGB81L5S7630&workerId=A2TLN8489YGY81&assignmentId=3LJ7UR74RIZVYBRJIMTIC7B0D7W4NP&a=4UJL9&tp_a=4UJL9&b=3LJ7UR74RIZVYBRJIMTIC7B0D7W4NP&tp_b=3LJ7UR74RIZVYBRJIMTIC7B0D7W4NP&c=365799&tp_c=365799"},{"rt":2946,"response":{"heads":"1","tails":"0"},"type":"response","condition":"seqFeedback","trueTheta":0.5,"classrooms":["C","D"],"studentTrueClassroom":"C","exampleSet":"second","trial_type":"survey-html-form","trial_index":71,"time_elapsed":491382,"internal_node_id":"0.0-67.0-0.0","params":{"nStudents":24,"maxFlips":30,"completionMinutes":45,"basePay":8,"maxBonus":9,"perTrialBonus":0.5,"perTrialBonusThreshold":0.05,"exampleCost":0.01},"classroomParams":{"A":{"a":1,"b":4},"B":{"a":4,"b":1},"C":{"a":2,"b":8},"D":{"a":8,"b":2}},"conditions":["nonSeqFull","nonSeqPartial","seqNoFeedback","seqFeedback"],"classroomPairings":[["A","B"],["C","D"]],"coinWeights":[0.2,0.5,0.8],"subjectId":"A2TLN8489YGY81","assignmentId":"3LJ7UR74RIZVYBRJIMTIC7B0D7W4NP","hitId":"3SD15I2WD2G0NA4TSPXGB81L5S7630","url":"https://gershmanlab.com/experiments/alicia/teaching/experiment/?hitId=3SD15I2WD2G0NA4TSPXGB81L5S7630&workerId=A2TLN8489YGY81&assignmentId=3LJ7UR74RIZVYBRJIMTIC7B0D7W4NP&a=4UJL9&tp_a=4UJL9&b=3LJ7UR74RIZVYBRJIMTIC7B0D7W4NP&tp_b=3LJ7UR74RIZVYBRJIMTIC7B0D7W4NP&c=365799&tp_c=365799","firstResponseHeads":5,"firstResponseTails":0,"secondResponseHeads":1,"secondResponseTails":0,"totalHeads":6,"totalTails":0,"studentIndex":7,"studentTrueHypers":{"a":2,"b":8},"studentGuess":0.5,"delta":0,"bonus":0.44,"bonusSoFar":2.48,"totalExamples":6},{"rt":null,"stimulus":"Sending examples to student... ","response":null,"trial_type":"html-keyboard-response","trial_index":72,"time_elapsed":493394,"internal_node_id":"0.0-68.0","params":{"nStudents":24,"maxFlips":30,"completionMinutes":45,"basePay":8,"maxBonus":9,"perTrialBonus":0.5,"perTrialBonusThreshold":0.05,"exampleCost":0.01},"classroomParams":{"A":{"a":1,"b":4},"B":{"a":4,"b":1},"C":{"a":2,"b":8},"D":{"a":8,"b":2}},"conditions":["nonSeqFull","nonSeqPartial","seqNoFeedback","seqFeedback"],"classroomPairings":[["A","B"],["C","D"]],"coinWeights":[0.2,0.5,0.8],"subjectId":"A2TLN8489YGY81","assignmentId":"3LJ7UR74RIZVYBRJIMTIC7B0D7W4NP","hitId":"3SD15I2WD2G0NA4TSPXGB81L5S7630","url":"https://gershmanlab.com/experiments/alicia/teaching/experiment/?hitId=3SD15I2WD2G0NA4TSPXGB81L5S7630&workerId=A2TLN8489YGY81&assignmentId=3LJ7UR74RIZVYBRJIMTIC7B0D7W4NP&a=4UJL9&tp_a=4UJL9&b=3LJ7UR74RIZVYBRJIMTIC7B0D7W4NP&tp_b=3LJ7UR74RIZVYBRJIMTIC7B0D7W4NP&c=365799&tp_c=365799"},{"rt":null,"stimulus":"Examples sent to student! Waiting for student...","response":null,"trial_type":"html-keyboard-response","trial_index":73,"time_elapsed":498903,"internal_node_id":"0.0-69.0","params":{"nStudents":24,"maxFlips":30,"completionMinutes":45,"basePay":8,"maxBonus":9,"perTrialBonus":0.5,"perTrialBonusThreshold":0.05,"exampleCost":0.01},"classroomParams":{"A":{"a":1,"b":4},"B":{"a":4,"b":1},"C":{"a":2,"b":8},"D":{"a":8,"b":2}},"conditions":["nonSeqFull","nonSeqPartial","seqNoFeedback","seqFeedback"],"classroomPairings":[["A","B"],["C","D"]],"coinWeights":[0.2,0.5,0.8],"subjectId":"A2TLN8489YGY81","assignmentId":"3LJ7UR74RIZVYBRJIMTIC7B0D7W4NP","hitId":"3SD15I2WD2G0NA4TSPXGB81L5S7630","url":"https://gershmanlab.com/experiments/alicia/teaching/experiment/?hitId=3SD15I2WD2G0NA4TSPXGB81L5S7630&workerId=A2TLN8489YGY81&assignmentId=3LJ7UR74RIZVYBRJIMTIC7B0D7W4NP&a=4UJL9&tp_a=4UJL9&b=3LJ7UR74RIZVYBRJIMTIC7B0D7W4NP&tp_b=3LJ7UR74RIZVYBRJIMTIC7B0D7W4NP&c=365799&tp_c=365799"},{"rt":3157,"stimulus":"\n                <p>Student 8's first guess for coin weight: <b style=\"color:Tomato\";>0.47</b></p>\n                <p>Student 8's second guess for coin weight: <b style=\"color:Tomato\";>0.50</b></p>\n                <p>You received a bonus of <b>$0.44</b> based on the student's second guess.</p>\n                <p>Total bonus so far: <b>$2.48</b></p>\n                <p>Press any key to continue.</p>\n                ","response":" ","trial_type":"html-keyboard-response","trial_index":74,"time_elapsed":502061,"internal_node_id":"0.0-70.0","params":{"nStudents":24,"maxFlips":30,"completionMinutes":45,"basePay":8,"maxBonus":9,"perTrialBonus":0.5,"perTrialBonusThreshold":0.05,"exampleCost":0.01},"classroomParams":{"A":{"a":1,"b":4},"B":{"a":4,"b":1},"C":{"a":2,"b":8},"D":{"a":8,"b":2}},"conditions":["nonSeqFull","nonSeqPartial","seqNoFeedback","seqFeedback"],"classroomPairings":[["A","B"],["C","D"]],"coinWeights":[0.2,0.5,0.8],"subjectId":"A2TLN8489YGY81","assignmentId":"3LJ7UR74RIZVYBRJIMTIC7B0D7W4NP","hitId":"3SD15I2WD2G0NA4TSPXGB81L5S7630","url":"https://gershmanlab.com/experiments/alicia/teaching/experiment/?hitId=3SD15I2WD2G0NA4TSPXGB81L5S7630&workerId=A2TLN8489YGY81&assignmentId=3LJ7UR74RIZVYBRJIMTIC7B0D7W4NP&a=4UJL9&tp_a=4UJL9&b=3LJ7UR74RIZVYBRJIMTIC7B0D7W4NP&tp_b=3LJ7UR74RIZVYBRJIMTIC7B0D7W4NP&c=365799&tp_c=365799"},{"rt":null,"stimulus":"<div style=\"font-size:60px;\">Next student</div>","response":null,"trial_type":"html-keyboard-response","trial_index":75,"time_elapsed":504313,"internal_node_id":"0.0-71.0-0.0","params":{"nStudents":24,"maxFlips":30,"completionMinutes":45,"basePay":8,"maxBonus":9,"perTrialBonus":0.5,"perTrialBonusThreshold":0.05,"exampleCost":0.01},"classroomParams":{"A":{"a":1,"b":4},"B":{"a":4,"b":1},"C":{"a":2,"b":8},"D":{"a":8,"b":2}},"conditions":["nonSeqFull","nonSeqPartial","seqNoFeedback","seqFeedback"],"classroomPairings":[["A","B"],["C","D"]],"coinWeights":[0.2,0.5,0.8],"subjectId":"A2TLN8489YGY81","assignmentId":"3LJ7UR74RIZVYBRJIMTIC7B0D7W4NP","hitId":"3SD15I2WD2G0NA4TSPXGB81L5S7630","url":"https://gershmanlab.com/experiments/alicia/teaching/experiment/?hitId=3SD15I2WD2G0NA4TSPXGB81L5S7630&workerId=A2TLN8489YGY81&assignmentId=3LJ7UR74RIZVYBRJIMTIC7B0D7W4NP&a=4UJL9&tp_a=4UJL9&b=3LJ7UR74RIZVYBRJIMTIC7B0D7W4NP&tp_b=3LJ7UR74RIZVYBRJIMTIC7B0D7W4NP&c=365799&tp_c=365799"},{"rt":8092,"stimulus":"\n            <h4 style=\"color:Orange;\">Student 9</h4>\n            <h2>The weight of your coin is <b style=\"color:Tomato;\">0.2</b>.</h2>\n            <p>In this block, you will be giving <b>one</b> set of examples to Student 9.</p>\n                <p>You will receive feedback at the end of the block.</p>\n            <p></p>","response":0,"trial_type":"html-button-response","trial_index":76,"time_elapsed":512406,"internal_node_id":"0.0-72.0","params":{"nStudents":24,"maxFlips":30,"completionMinutes":45,"basePay":8,"maxBonus":9,"perTrialBonus":0.5,"perTrialBonusThreshold":0.05,"exampleCost":0.01},"classroomParams":{"A":{"a":1,"b":4},"B":{"a":4,"b":1},"C":{"a":2,"b":8},"D":{"a":8,"b":2}},"conditions":["nonSeqFull","nonSeqPartial","seqNoFeedback","seqFeedback"],"classroomPairings":[["A","B"],["C","D"]],"coinWeights":[0.2,0.5,0.8],"subjectId":"A2TLN8489YGY81","assignmentId":"3LJ7UR74RIZVYBRJIMTIC7B0D7W4NP","hitId":"3SD15I2WD2G0NA4TSPXGB81L5S7630","url":"https://gershmanlab.com/experiments/alicia/teaching/experiment/?hitId=3SD15I2WD2G0NA4TSPXGB81L5S7630&workerId=A2TLN8489YGY81&assignmentId=3LJ7UR74RIZVYBRJIMTIC7B0D7W4NP&a=4UJL9&tp_a=4UJL9&b=3LJ7UR74RIZVYBRJIMTIC7B0D7W4NP&tp_b=3LJ7UR74RIZVYBRJIMTIC7B0D7W4NP&c=365799&tp_c=365799"},{"rt":38055,"response":{"heads":"0","tails":"1"},"type":"response","condition":"nonSeqPartial","trueTheta":0.2,"classrooms":["A","B"],"studentTrueClassroom":"A","exampleSet":"first","trial_type":"survey-html-form","trial_index":77,"time_elapsed":550462,"internal_node_id":"0.0-73.0-0.0","params":{"nStudents":24,"maxFlips":30,"completionMinutes":45,"basePay":8,"maxBonus":9,"perTrialBonus":0.5,"perTrialBonusThreshold":0.05,"exampleCost":0.01},"classroomParams":{"A":{"a":1,"b":4},"B":{"a":4,"b":1},"C":{"a":2,"b":8},"D":{"a":8,"b":2}},"conditions":["nonSeqFull","nonSeqPartial","seqNoFeedback","seqFeedback"],"classroomPairings":[["A","B"],["C","D"]],"coinWeights":[0.2,0.5,0.8],"subjectId":"A2TLN8489YGY81","assignmentId":"3LJ7UR74RIZVYBRJIMTIC7B0D7W4NP","hitId":"3SD15I2WD2G0NA4TSPXGB81L5S7630","url":"https://gershmanlab.com/experiments/alicia/teaching/experiment/?hitId=3SD15I2WD2G0NA4TSPXGB81L5S7630&workerId=A2TLN8489YGY81&assignmentId=3LJ7UR74RIZVYBRJIMTIC7B0D7W4NP&a=4UJL9&tp_a=4UJL9&b=3LJ7UR74RIZVYBRJIMTIC7B0D7W4NP&tp_b=3LJ7UR74RIZVYBRJIMTIC7B0D7W4NP&c=365799&tp_c=365799","heads":0,"tails":1,"studentIndex":8,"studentTrueHypers":{"a":1,"b":4},"studentGuess":0.16666666666666666,"delta":0.033333333333333354,"totalExamples":1,"bonus":0.49,"bonusSoFar":2.97},{"rt":null,"stimulus":"Sending examples to student... ","response":null,"trial_type":"html-keyboard-response","trial_index":78,"time_elapsed":552220,"internal_node_id":"0.0-74.0","params":{"nStudents":24,"maxFlips":30,"completionMinutes":45,"basePay":8,"maxBonus":9,"perTrialBonus":0.5,"perTrialBonusThreshold":0.05,"exampleCost":0.01},"classroomParams":{"A":{"a":1,"b":4},"B":{"a":4,"b":1},"C":{"a":2,"b":8},"D":{"a":8,"b":2}},"conditions":["nonSeqFull","nonSeqPartial","seqNoFeedback","seqFeedback"],"classroomPairings":[["A","B"],["C","D"]],"coinWeights":[0.2,0.5,0.8],"subjectId":"A2TLN8489YGY81","assignmentId":"3LJ7UR74RIZVYBRJIMTIC7B0D7W4NP","hitId":"3SD15I2WD2G0NA4TSPXGB81L5S7630","url":"https://gershmanlab.com/experiments/alicia/teaching/experiment/?hitId=3SD15I2WD2G0NA4TSPXGB81L5S7630&workerId=A2TLN8489YGY81&assignmentId=3LJ7UR74RIZVYBRJIMTIC7B0D7W4NP&a=4UJL9&tp_a=4UJL9&b=3LJ7UR74RIZVYBRJIMTIC7B0D7W4NP&tp_b=3LJ7UR74RIZVYBRJIMTIC7B0D7W4NP&c=365799&tp_c=365799"},{"rt":null,"stimulus":"Examples sent to student! Waiting for student...","response":null,"trial_type":"html-keyboard-response","trial_index":79,"time_elapsed":557721,"internal_node_id":"0.0-75.0","params":{"nStudents":24,"maxFlips":30,"completionMinutes":45,"basePay":8,"maxBonus":9,"perTrialBonus":0.5,"perTrialBonusThreshold":0.05,"exampleCost":0.01},"classroomParams":{"A":{"a":1,"b":4},"B":{"a":4,"b":1},"C":{"a":2,"b":8},"D":{"a":8,"b":2}},"conditions":["nonSeqFull","nonSeqPartial","seqNoFeedback","seqFeedback"],"classroomPairings":[["A","B"],["C","D"]],"coinWeights":[0.2,0.5,0.8],"subjectId":"A2TLN8489YGY81","assignmentId":"3LJ7UR74RIZVYBRJIMTIC7B0D7W4NP","hitId":"3SD15I2WD2G0NA4TSPXGB81L5S7630","url":"https://gershmanlab.com/experiments/alicia/teaching/experiment/?hitId=3SD15I2WD2G0NA4TSPXGB81L5S7630&workerId=A2TLN8489YGY81&assignmentId=3LJ7UR74RIZVYBRJIMTIC7B0D7W4NP&a=4UJL9&tp_a=4UJL9&b=3LJ7UR74RIZVYBRJIMTIC7B0D7W4NP&tp_b=3LJ7UR74RIZVYBRJIMTIC7B0D7W4NP&c=365799&tp_c=365799"},{"rt":2863,"stimulus":"\n                <p>Student's guess for coin weight: <b style=\"color:Tomato;\">0.17</b></p>\n                <p>You received a bonus of <b>$0.49</b>. Total bonus so far: <b>$2.97</b></b></p>\n                <p></p>\n                <p>Press any key to continue.</p>\n                ","response":" ","trial_type":"html-keyboard-response","trial_index":80,"time_elapsed":560585,"internal_node_id":"0.0-76.0","params":{"nStudents":24,"maxFlips":30,"completionMinutes":45,"basePay":8,"maxBonus":9,"perTrialBonus":0.5,"perTrialBonusThreshold":0.05,"exampleCost":0.01},"classroomParams":{"A":{"a":1,"b":4},"B":{"a":4,"b":1},"C":{"a":2,"b":8},"D":{"a":8,"b":2}},"conditions":["nonSeqFull","nonSeqPartial","seqNoFeedback","seqFeedback"],"classroomPairings":[["A","B"],["C","D"]],"coinWeights":[0.2,0.5,0.8],"subjectId":"A2TLN8489YGY81","assignmentId":"3LJ7UR74RIZVYBRJIMTIC7B0D7W4NP","hitId":"3SD15I2WD2G0NA4TSPXGB81L5S7630","url":"https://gershmanlab.com/experiments/alicia/teaching/experiment/?hitId=3SD15I2WD2G0NA4TSPXGB81L5S7630&workerId=A2TLN8489YGY81&assignmentId=3LJ7UR74RIZVYBRJIMTIC7B0D7W4NP&a=4UJL9&tp_a=4UJL9&b=3LJ7UR74RIZVYBRJIMTIC7B0D7W4NP&tp_b=3LJ7UR74RIZVYBRJIMTIC7B0D7W4NP&c=365799&tp_c=365799"},{"rt":null,"stimulus":"<div style=\"font-size:60px;\">Next student</div>","response":null,"trial_type":"html-keyboard-response","trial_index":81,"time_elapsed":563594,"internal_node_id":"0.0-77.0-0.0","params":{"nStudents":24,"maxFlips":30,"completionMinutes":45,"basePay":8,"maxBonus":9,"perTrialBonus":0.5,"perTrialBonusThreshold":0.05,"exampleCost":0.01},"classroomParams":{"A":{"a":1,"b":4},"B":{"a":4,"b":1},"C":{"a":2,"b":8},"D":{"a":8,"b":2}},"conditions":["nonSeqFull","nonSeqPartial","seqNoFeedback","seqFeedback"],"classroomPairings":[["A","B"],["C","D"]],"coinWeights":[0.2,0.5,0.8],"subjectId":"A2TLN8489YGY81","assignmentId":"3LJ7UR74RIZVYBRJIMTIC7B0D7W4NP","hitId":"3SD15I2WD2G0NA4TSPXGB81L5S7630","url":"https://gershmanlab.com/experiments/alicia/teaching/experiment/?hitId=3SD15I2WD2G0NA4TSPXGB81L5S7630&workerId=A2TLN8489YGY81&assignmentId=3LJ7UR74RIZVYBRJIMTIC7B0D7W4NP&a=4UJL9&tp_a=4UJL9&b=3LJ7UR74RIZVYBRJIMTIC7B0D7W4NP&tp_b=3LJ7UR74RIZVYBRJIMTIC7B0D7W4NP&c=365799&tp_c=365799"},{"rt":5370,"stimulus":"\n            <h4 style=\"color:Orange;\">Student 10</h4>\n            <h2>The weight of your coin is <b style=\"color:Tomato;\">0.8</b>.</h2>\n            <p>In this block, you will be giving <b>one</b> set of examples to Student 10.</p>\n                <p>You will receive feedback at the end of the block.</p>\n            <p></p>","response":0,"trial_type":"html-button-response","trial_index":82,"time_elapsed":568966,"internal_node_id":"0.0-78.0","params":{"nStudents":24,"maxFlips":30,"completionMinutes":45,"basePay":8,"maxBonus":9,"perTrialBonus":0.5,"perTrialBonusThreshold":0.05,"exampleCost":0.01},"classroomParams":{"A":{"a":1,"b":4},"B":{"a":4,"b":1},"C":{"a":2,"b":8},"D":{"a":8,"b":2}},"conditions":["nonSeqFull","nonSeqPartial","seqNoFeedback","seqFeedback"],"classroomPairings":[["A","B"],["C","D"]],"coinWeights":[0.2,0.5,0.8],"subjectId":"A2TLN8489YGY81","assignmentId":"3LJ7UR74RIZVYBRJIMTIC7B0D7W4NP","hitId":"3SD15I2WD2G0NA4TSPXGB81L5S7630","url":"https://gershmanlab.com/experiments/alicia/teaching/experiment/?hitId=3SD15I2WD2G0NA4TSPXGB81L5S7630&workerId=A2TLN8489YGY81&assignmentId=3LJ7UR74RIZVYBRJIMTIC7B0D7W4NP&a=4UJL9&tp_a=4UJL9&b=3LJ7UR74RIZVYBRJIMTIC7B0D7W4NP&tp_b=3LJ7UR74RIZVYBRJIMTIC7B0D7W4NP&c=365799&tp_c=365799"},{"rt":8129,"response":{"heads":"1","tails":"0"},"type":"response","condition":"nonSeqFull","trueTheta":0.8,"classrooms":["C","D"],"studentTrueClassroom":"D","exampleSet":"first","trial_type":"survey-html-form","trial_index":83,"time_elapsed":577096,"internal_node_id":"0.0-79.0-0.0","params":{"nStudents":24,"maxFlips":30,"completionMinutes":45,"basePay":8,"maxBonus":9,"perTrialBonus":0.5,"perTrialBonusThreshold":0.05,"exampleCost":0.01},"classroomParams":{"A":{"a":1,"b":4},"B":{"a":4,"b":1},"C":{"a":2,"b":8},"D":{"a":8,"b":2}},"conditions":["nonSeqFull","nonSeqPartial","seqNoFeedback","seqFeedback"],"classroomPairings":[["A","B"],["C","D"]],"coinWeights":[0.2,0.5,0.8],"subjectId":"A2TLN8489YGY81","assignmentId":"3LJ7UR74RIZVYBRJIMTIC7B0D7W4NP","hitId":"3SD15I2WD2G0NA4TSPXGB81L5S7630","url":"https://gershmanlab.com/experiments/alicia/teaching/experiment/?hitId=3SD15I2WD2G0NA4TSPXGB81L5S7630&workerId=A2TLN8489YGY81&assignmentId=3LJ7UR74RIZVYBRJIMTIC7B0D7W4NP&a=4UJL9&tp_a=4UJL9&b=3LJ7UR74RIZVYBRJIMTIC7B0D7W4NP&tp_b=3LJ7UR74RIZVYBRJIMTIC7B0D7W4NP&c=365799&tp_c=365799","heads":1,"tails":0,"studentIndex":9,"studentTrueHypers":{"a":8,"b":2},"studentGuess":0.8181818181818182,"delta":0.018181818181818188,"totalExamples":1,"bonus":0.49,"bonusSoFar":3.46},{"rt":null,"stimulus":"Sending examples to student... ","response":null,"trial_type":"html-keyboard-response","trial_index":84,"time_elapsed":579102,"internal_node_id":"0.0-80.0","params":{"nStudents":24,"maxFlips":30,"completionMinutes":45,"basePay":8,"maxBonus":9,"perTrialBonus":0.5,"perTrialBonusThreshold":0.05,"exampleCost":0.01},"classroomParams":{"A":{"a":1,"b":4},"B":{"a":4,"b":1},"C":{"a":2,"b":8},"D":{"a":8,"b":2}},"conditions":["nonSeqFull","nonSeqPartial","seqNoFeedback","seqFeedback"],"classroomPairings":[["A","B"],["C","D"]],"coinWeights":[0.2,0.5,0.8],"subjectId":"A2TLN8489YGY81","assignmentId":"3LJ7UR74RIZVYBRJIMTIC7B0D7W4NP","hitId":"3SD15I2WD2G0NA4TSPXGB81L5S7630","url":"https://gershmanlab.com/experiments/alicia/teaching/experiment/?hitId=3SD15I2WD2G0NA4TSPXGB81L5S7630&wo