[{"rt":11987,"stimulus":"Welcome to the experiment. Press any key to begin.","response":" ","trial_type":"html-keyboard-response","trial_index":0,"time_elapsed":12036,"internal_node_id":"0.0-0.0","params":{"nStudents":24,"maxFlips":30,"completionMinutes":45,"basePay":8,"maxBonus":9,"perTrialBonus":0.5,"perTrialBonusThreshold":0.05,"exampleCost":0.01},"classroomParams":{"A":{"a":1,"b":4},"B":{"a":4,"b":1},"C":{"a":2,"b":8},"D":{"a":8,"b":2}},"conditions":["nonSeqFull","nonSeqPartial","seqNoFeedback","seqFeedback"],"classroomPairings":[["A","B"],["C","D"]],"coinWeights":[0.2,0.5,0.8],"subjectId":"A2VNSNAN1LZBAM","assignmentId":"35L9RVQFCP425DZNUUPNKRCYQ8AHUF","hitId":"3E9VAUV7BW02QFDK7N7IH7ZKACRYAN","url":"https://gershmanlab.com/experiments/alicia/teaching/experiment/?hitId=3E9VAUV7BW02QFDK7N7IH7ZKACRYAN&workerId=A2VNSNAN1LZBAM&assignmentId=35L9RVQFCP425DZNUUPNKRCYQ8AHUF&a=FRL59&tp_a=FRL59&b=35L9RVQFCP425DZNUUPNKRCYQ8AHUF&tp_b=35L9RVQFCP425DZNUUPNKRCYQ8AHUF&c=365799&tp_c=365799"},{"rt":7864,"stimulus":"\n        <h3>Please read this consent agreement carefully before deciding whether to participate in this experiment.</h3>\n        <p><b>Purpose of the research:</b> To examine how people teach effectively.</p>\n        <p><b>What you will do in this research:</b> You will teach students the weights of different coins.</p>\n        <p><b>Time required:</b> This experiment will take 45 minutes to complete.</p>\n        <p><b>Risks:</b> There are no anticipated risks associated with participating in this study.             The effects of participating should be comparable to those you would experience from viewing a computer monitor             and using a mouse and keyboard for the duration of the experiment.</p>\n        <p><b>Benefits:</b> The study provides important information about the nature of teaching.</p>\n        <p><b>Compensation:</b> You will receive <b>$8</b> for completing the experiment and a performance bonus of up to <b>$9</b>.</p>\n        <p><b>Confidentiality:</b> Your participation in this study will remain confidential.             No personally identifiable information will be associated with your data.             Your de-identified data may be shared with other researchers and used in future projects.</p>\n        <p><b>Participation and withdrawal:</b> Your participation in this study is completely voluntary and             you may refuse to participate or you may choose to withdraw at any time without penalty or loss of\n            benefits to which you are otherwise entitled.</p>\n        <p><b>How to contact the researcher:</b> If you have questions or concerns about your participation            or payment, or want to request a summary of research findings, please contact\n            Alicia Chen, aliciachen@college.harvard.edu.</p>\n        <p><b>Whom to contact about your rights in this research:</b> For questions, concerns, suggestions,             or complaints that have not been or cannot be addressed by the researcher, or to report             research-related harm, please contact the Committee on the Use of Human Subjects in Research at Harvard University,             1414 Massachusetts Avenue, Second Floor, Cambridge, MA 02138. Phone: 617-496-2847. Email: cuhs@fas.harvard.edu.</p>\n        ","response":0,"trial_type":"html-button-response","trial_index":1,"time_elapsed":19904,"internal_node_id":"0.0-1.0","params":{"nStudents":24,"maxFlips":30,"completionMinutes":45,"basePay":8,"maxBonus":9,"perTrialBonus":0.5,"perTrialBonusThreshold":0.05,"exampleCost":0.01},"classroomParams":{"A":{"a":1,"b":4},"B":{"a":4,"b":1},"C":{"a":2,"b":8},"D":{"a":8,"b":2}},"conditions":["nonSeqFull","nonSeqPartial","seqNoFeedback","seqFeedback"],"classroomPairings":[["A","B"],["C","D"]],"coinWeights":[0.2,0.5,0.8],"subjectId":"A2VNSNAN1LZBAM","assignmentId":"35L9RVQFCP425DZNUUPNKRCYQ8AHUF","hitId":"3E9VAUV7BW02QFDK7N7IH7ZKACRYAN","url":"https://gershmanlab.com/experiments/alicia/teaching/experiment/?hitId=3E9VAUV7BW02QFDK7N7IH7ZKACRYAN&workerId=A2VNSNAN1LZBAM&assignmentId=35L9RVQFCP425DZNUUPNKRCYQ8AHUF&a=FRL59&tp_a=FRL59&b=35L9RVQFCP425DZNUUPNKRCYQ8AHUF&tp_b=35L9RVQFCP425DZNUUPNKRCYQ8AHUF&c=365799&tp_c=365799"},{"view_history":[{"page_index":0,"viewing_time":8410},{"page_index":1,"viewing_time":4629},{"page_index":2,"viewing_time":52552},{"page_index":3,"viewing_time":19631},{"page_index":4,"viewing_time":15321},{"page_index":5,"viewing_time":21982},{"page_index":6,"viewing_time":48738}],"rt":171264,"trial_type":"instructions","trial_index":2,"time_elapsed":191168,"internal_node_id":"0.0-2.0-0.0","params":{"nStudents":24,"maxFlips":30,"completionMinutes":45,"basePay":8,"maxBonus":9,"perTrialBonus":0.5,"perTrialBonusThreshold":0.05,"exampleCost":0.01},"classroomParams":{"A":{"a":1,"b":4},"B":{"a":4,"b":1},"C":{"a":2,"b":8},"D":{"a":8,"b":2}},"conditions":["nonSeqFull","nonSeqPartial","seqNoFeedback","seqFeedback"],"classroomPairings":[["A","B"],["C","D"]],"coinWeights":[0.2,0.5,0.8],"subjectId":"A2VNSNAN1LZBAM","assignmentId":"35L9RVQFCP425DZNUUPNKRCYQ8AHUF","hitId":"3E9VAUV7BW02QFDK7N7IH7ZKACRYAN","url":"https://gershmanlab.com/experiments/alicia/teaching/experiment/?hitId=3E9VAUV7BW02QFDK7N7IH7ZKACRYAN&workerId=A2VNSNAN1LZBAM&assignmentId=35L9RVQFCP425DZNUUPNKRCYQ8AHUF&a=FRL59&tp_a=FRL59&b=35L9RVQFCP425DZNUUPNKRCYQ8AHUF&tp_b=35L9RVQFCP425DZNUUPNKRCYQ8AHUF&c=365799&tp_c=365799"},{"rt":76306,"response":{"Q0":"Students in different classrooms have seen a different proportion of fair and unfair coins before seeing the examples you select for them.","Q1":"By <b>considering the student's classroom information</b> so that I can teach efficiently and accurately/helpfully at the same time (because each example I give to the student costs money!).","Q2":"The coin lands heads 90% of the time.","Q3":"No, I will teach a <b>new</b> student each time.","Q4":"The students are also on the same alien planet as you, where coins can be unfair.","Q5":"Based on the student's second (and final) guess."},"question_order":[1,0,5,2,3,4],"trial_type":"survey-multi-choice","trial_index":3,"time_elapsed":267478,"internal_node_id":"0.0-2.0-1.0","params":{"nStudents":24,"maxFlips":30,"completionMinutes":45,"basePay":8,"maxBonus":9,"perTrialBonus":0.5,"perTrialBonusThreshold":0.05,"exampleCost":0.01},"classroomParams":{"A":{"a":1,"b":4},"B":{"a":4,"b":1},"C":{"a":2,"b":8},"D":{"a":8,"b":2}},"conditions":["nonSeqFull","nonSeqPartial","seqNoFeedback","seqFeedback"],"classroomPairings":[["A","B"],["C","D"]],"coinWeights":[0.2,0.5,0.8],"subjectId":"A2VNSNAN1LZBAM","assignmentId":"35L9RVQFCP425DZNUUPNKRCYQ8AHUF","hitId":"3E9VAUV7BW02QFDK7N7IH7ZKACRYAN","url":"https://gershmanlab.com/experiments/alicia/teaching/experiment/?hitId=3E9VAUV7BW02QFDK7N7IH7ZKACRYAN&workerId=A2VNSNAN1LZBAM&assignmentId=35L9RVQFCP425DZNUUPNKRCYQ8AHUF&a=FRL59&tp_a=FRL59&b=35L9RVQFCP425DZNUUPNKRCYQ8AHUF&tp_b=35L9RVQFCP425DZNUUPNKRCYQ8AHUF&c=365799&tp_c=365799","pass":false},{"rt":3079,"stimulus":"Oops, you have missed question(s) on the comprehension check! We'll show you the instructions again.","response":0,"trial_type":"html-button-response","trial_index":4,"time_elapsed":270564,"internal_node_id":"0.0-2.0-2.0-0.0","params":{"nStudents":24,"maxFlips":30,"completionMinutes":45,"basePay":8,"maxBonus":9,"perTrialBonus":0.5,"perTrialBonusThreshold":0.05,"exampleCost":0.01},"classroomParams":{"A":{"a":1,"b":4},"B":{"a":4,"b":1},"C":{"a":2,"b":8},"D":{"a":8,"b":2}},"conditions":["nonSeqFull","nonSeqPartial","seqNoFeedback","seqFeedback"],"classroomPairings":[["A","B"],["C","D"]],"coinWeights":[0.2,0.5,0.8],"subjectId":"A2VNSNAN1LZBAM","assignmentId":"35L9RVQFCP425DZNUUPNKRCYQ8AHUF","hitId":"3E9VAUV7BW02QFDK7N7IH7ZKACRYAN","url":"https://gershmanlab.com/experiments/alicia/teaching/experiment/?hitId=3E9VAUV7BW02QFDK7N7IH7ZKACRYAN&workerId=A2VNSNAN1LZBAM&assignmentId=35L9RVQFCP425DZNUUPNKRCYQ8AHUF&a=FRL59&tp_a=FRL59&b=35L9RVQFCP425DZNUUPNKRCYQ8AHUF&tp_b=35L9RVQFCP425DZNUUPNKRCYQ8AHUF&c=365799&tp_c=365799"},{"view_history":[{"page_index":0,"viewing_time":1708},{"page_index":1,"viewing_time":1654},{"page_index":2,"viewing_time":11099},{"page_index":3,"viewing_time":10571},{"page_index":4,"viewing_time":8988},{"page_index":5,"viewing_time":19247},{"page_index":6,"viewing_time":21726}],"rt":74995,"trial_type":"instructions","trial_index":5,"time_elapsed":345560,"internal_node_id":"0.0-2.1-0.1","params":{"nStudents":24,"maxFlips":30,"completionMinutes":45,"basePay":8,"maxBonus":9,"perTrialBonus":0.5,"perTrialBonusThreshold":0.05,"exampleCost":0.01},"classroomParams":{"A":{"a":1,"b":4},"B":{"a":4,"b":1},"C":{"a":2,"b":8},"D":{"a":8,"b":2}},"conditions":["nonSeqFull","nonSeqPartial","seqNoFeedback","seqFeedback"],"classroomPairings":[["A","B"],["C","D"]],"coinWeights":[0.2,0.5,0.8],"subjectId":"A2VNSNAN1LZBAM","assignmentId":"35L9RVQFCP425DZNUUPNKRCYQ8AHUF","hitId":"3E9VAUV7BW02QFDK7N7IH7ZKACRYAN","url":"https://gershmanlab.com/experiments/alicia/teaching/experiment/?hitId=3E9VAUV7BW02QFDK7N7IH7ZKACRYAN&workerId=A2VNSNAN1LZBAM&assignmentId=35L9RVQFCP425DZNUUPNKRCYQ8AHUF&a=FRL59&tp_a=FRL59&b=35L9RVQFCP425DZNUUPNKRCYQ8AHUF&tp_b=35L9RVQFCP425DZNUUPNKRCYQ8AHUF&c=365799&tp_c=365799"},{"rt":37813,"response":{"Q0":"Students in different classrooms will have seen a different number of heads and tails before seeing the examples you select for them.","Q1":"By <b>considering the student's classroom information</b> so that I can teach efficiently and accurately/helpfully at the same time (because each example I give to the student costs money!).","Q2":"The coin lands heads 90% of the time.","Q3":"No, I will teach a <b>new</b> student each time.","Q4":"The students are also on the same alien planet as you, where coins can be unfair.","Q5":"Based on the student's second (and final) guess."},"question_order":[5,1,4,0,2,3],"trial_type":"survey-multi-choice","trial_index":6,"time_elapsed":383376,"internal_node_id":"0.0-2.1-1.1","params":{"nStudents":24,"maxFlips":30,"completionMinutes":45,"basePay":8,"maxBonus":9,"perTrialBonus":0.5,"perTrialBonusThreshold":0.05,"exampleCost":0.01},"classroomParams":{"A":{"a":1,"b":4},"B":{"a":4,"b":1},"C":{"a":2,"b":8},"D":{"a":8,"b":2}},"conditions":["nonSeqFull","nonSeqPartial","seqNoFeedback","seqFeedback"],"classroomPairings":[["A","B"],["C","D"]],"coinWeights":[0.2,0.5,0.8],"subjectId":"A2VNSNAN1LZBAM","assignmentId":"35L9RVQFCP425DZNUUPNKRCYQ8AHUF","hitId":"3E9VAUV7BW02QFDK7N7IH7ZKACRYAN","url":"https://gershmanlab.com/experiments/alicia/teaching/experiment/?hitId=3E9VAUV7BW02QFDK7N7IH7ZKACRYAN&workerId=A2VNSNAN1LZBAM&assignmentId=35L9RVQFCP425DZNUUPNKRCYQ8AHUF&a=FRL59&tp_a=FRL59&b=35L9RVQFCP425DZNUUPNKRCYQ8AHUF&tp_b=35L9RVQFCP425DZNUUPNKRCYQ8AHUF&c=365799&tp_c=365799","pass":true},{"rt":null,"stimulus":"<div style=\"font-size:30px;\">Congrats on passing the comprehension quiz! The experiment will begin in a few seconds.</div>","response":null,"trial_type":"html-keyboard-response","trial_index":7,"time_elapsed":386382,"internal_node_id":"0.0-3.0","params":{"nStudents":24,"maxFlips":30,"completionMinutes":45,"basePay":8,"maxBonus":9,"perTrialBonus":0.5,"perTrialBonusThreshold":0.05,"exampleCost":0.01},"classroomParams":{"A":{"a":1,"b":4},"B":{"a":4,"b":1},"C":{"a":2,"b":8},"D":{"a":8,"b":2}},"conditions":["nonSeqFull","nonSeqPartial","seqNoFeedback","seqFeedback"],"classroomPairings":[["A","B"],["C","D"]],"coinWeights":[0.2,0.5,0.8],"subjectId":"A2VNSNAN1LZBAM","assignmentId":"35L9RVQFCP425DZNUUPNKRCYQ8AHUF","hitId":"3E9VAUV7BW02QFDK7N7IH7ZKACRYAN","url":"https://gershmanlab.com/experiments/alicia/teaching/experiment/?hitId=3E9VAUV7BW02QFDK7N7IH7ZKACRYAN&workerId=A2VNSNAN1LZBAM&assignmentId=35L9RVQFCP425DZNUUPNKRCYQ8AHUF&a=FRL59&tp_a=FRL59&b=35L9RVQFCP425DZNUUPNKRCYQ8AHUF&tp_b=35L9RVQFCP425DZNUUPNKRCYQ8AHUF&c=365799&tp_c=365799"},{"rt":null,"stimulus":"<div style=\"font-size:50px;\">First student</div>","response":null,"trial_type":"html-keyboard-response","trial_index":8,"time_elapsed":389384,"internal_node_id":"0.0-4.0","params":{"nStudents":24,"maxFlips":30,"completionMinutes":45,"basePay":8,"maxBonus":9,"perTrialBonus":0.5,"perTrialBonusThreshold":0.05,"exampleCost":0.01},"classroomParams":{"A":{"a":1,"b":4},"B":{"a":4,"b":1},"C":{"a":2,"b":8},"D":{"a":8,"b":2}},"conditions":["nonSeqFull","nonSeqPartial","seqNoFeedback","seqFeedback"],"classroomPairings":[["A","B"],["C","D"]],"coinWeights":[0.2,0.5,0.8],"subjectId":"A2VNSNAN1LZBAM","assignmentId":"35L9RVQFCP425DZNUUPNKRCYQ8AHUF","hitId":"3E9VAUV7BW02QFDK7N7IH7ZKACRYAN","url":"https://gershmanlab.com/experiments/alicia/teaching/experiment/?hitId=3E9VAUV7BW02QFDK7N7IH7ZKACRYAN&workerId=A2VNSNAN1LZBAM&assignmentId=35L9RVQFCP425DZNUUPNKRCYQ8AHUF&a=FRL59&tp_a=FRL59&b=35L9RVQFCP425DZNUUPNKRCYQ8AHUF&tp_b=35L9RVQFCP425DZNUUPNKRCYQ8AHUF&c=365799&tp_c=365799"},{"rt":8719,"stimulus":"\n            <h4 style=\"color:Orange;\">Student 1</h4>\n            <h2>The weight of your coin is <b style=\"color:Tomato;\">0.8</b>.</h2>\n            <p>In this block, you will be giving <b>one</b> set of examples to Student 1.</p>\n                <p>You will receive feedback at the end of the block.</p>\n            <p></p>","response":0,"trial_type":"html-button-response","trial_index":9,"time_elapsed":398104,"internal_node_id":"0.0-5.0","params":{"nStudents":24,"maxFlips":30,"completionMinutes":45,"basePay":8,"maxBonus":9,"perTrialBonus":0.5,"perTrialBonusThreshold":0.05,"exampleCost":0.01},"classroomParams":{"A":{"a":1,"b":4},"B":{"a":4,"b":1},"C":{"a":2,"b":8},"D":{"a":8,"b":2}},"conditions":["nonSeqFull","nonSeqPartial","seqNoFeedback","seqFeedback"],"classroomPairings":[["A","B"],["C","D"]],"coinWeights":[0.2,0.5,0.8],"subjectId":"A2VNSNAN1LZBAM","assignmentId":"35L9RVQFCP425DZNUUPNKRCYQ8AHUF","hitId":"3E9VAUV7BW02QFDK7N7IH7ZKACRYAN","url":"https://gershmanlab.com/experiments/alicia/teaching/experiment/?hitId=3E9VAUV7BW02QFDK7N7IH7ZKACRYAN&workerId=A2VNSNAN1LZBAM&assignmentId=35L9RVQFCP425DZNUUPNKRCYQ8AHUF&a=FRL59&tp_a=FRL59&b=35L9RVQFCP425DZNUUPNKRCYQ8AHUF&tp_b=35L9RVQFCP425DZNUUPNKRCYQ8AHUF&c=365799&tp_c=365799"},{"rt":32176,"response":{"heads":"10","tails":"10"},"type":"response","condition":"nonSeqFull","trueTheta":0.8,"classrooms":["A","B"],"studentTrueClassroom":"B","exampleSet":"first","trial_type":"survey-html-form","trial_index":10,"time_elapsed":430282,"internal_node_id":"0.0-6.0-0.0","params":{"nStudents":24,"maxFlips":30,"completionMinutes":45,"basePay":8,"maxBonus":9,"perTrialBonus":0.5,"perTrialBonusThreshold":0.05,"exampleCost":0.01},"classroomParams":{"A":{"a":1,"b":4},"B":{"a":4,"b":1},"C":{"a":2,"b":8},"D":{"a":8,"b":2}},"conditions":["nonSeqFull","nonSeqPartial","seqNoFeedback","seqFeedback"],"classroomPairings":[["A","B"],["C","D"]],"coinWeights":[0.2,0.5,0.8],"subjectId":"A2VNSNAN1LZBAM","assignmentId":"35L9RVQFCP425DZNUUPNKRCYQ8AHUF","hitId":"3E9VAUV7BW02QFDK7N7IH7ZKACRYAN","url":"https://gershmanlab.com/experiments/alicia/teaching/experiment/?hitId=3E9VAUV7BW02QFDK7N7IH7ZKACRYAN&workerId=A2VNSNAN1LZBAM&assignmentId=35L9RVQFCP425DZNUUPNKRCYQ8AHUF&a=FRL59&tp_a=FRL59&b=35L9RVQFCP425DZNUUPNKRCYQ8AHUF&tp_b=35L9RVQFCP425DZNUUPNKRCYQ8AHUF&c=365799&tp_c=365799","heads":10,"tails":10,"studentIndex":0,"studentTrueHypers":{"a":4,"b":1},"studentGuess":0.56,"delta":0.24,"totalExamples":20,"bonus":0,"bonusSoFar":0},{"rt":null,"stimulus":"Sending examples to student... ","response":null,"trial_type":"html-keyboard-response","trial_index":11,"time_elapsed":432286,"internal_node_id":"0.0-7.0","params":{"nStudents":24,"maxFlips":30,"completionMinutes":45,"basePay":8,"maxBonus":9,"perTrialBonus":0.5,"perTrialBonusThreshold":0.05,"exampleCost":0.01},"classroomParams":{"A":{"a":1,"b":4},"B":{"a":4,"b":1},"C":{"a":2,"b":8},"D":{"a":8,"b":2}},"conditions":["nonSeqFull","nonSeqPartial","seqNoFeedback","seqFeedback"],"classroomPairings":[["A","B"],["C","D"]],"coinWeights":[0.2,0.5,0.8],"subjectId":"A2VNSNAN1LZBAM","assignmentId":"35L9RVQFCP425DZNUUPNKRCYQ8AHUF","hitId":"3E9VAUV7BW02QFDK7N7IH7ZKACRYAN","url":"https://gershmanlab.com/experiments/alicia/teaching/experiment/?hitId=3E9VAUV7BW02QFDK7N7IH7ZKACRYAN&workerId=A2VNSNAN1LZBAM&assignmentId=35L9RVQFCP425DZNUUPNKRCYQ8AHUF&a=FRL59&tp_a=FRL59&b=35L9RVQFCP425DZNUUPNKRCYQ8AHUF&tp_b=35L9RVQFCP425DZNUUPNKRCYQ8AHUF&c=365799&tp_c=365799"},{"rt":null,"stimulus":"Examples sent to student! Waiting for student...","response":null,"trial_type":"html-keyboard-response","trial_index":12,"time_elapsed":438292,"internal_node_id":"0.0-8.0","params":{"nStudents":24,"maxFlips":30,"completionMinutes":45,"basePay":8,"maxBonus":9,"perTrialBonus":0.5,"perTrialBonusThreshold":0.05,"exampleCost":0.01},"classroomParams":{"A":{"a":1,"b":4},"B":{"a":4,"b":1},"C":{"a":2,"b":8},"D":{"a":8,"b":2}},"conditions":["nonSeqFull","nonSeqPartial","seqNoFeedback","seqFeedback"],"classroomPairings":[["A","B"],["C","D"]],"coinWeights":[0.2,0.5,0.8],"subjectId":"A2VNSNAN1LZBAM","assignmentId":"35L9RVQFCP425DZNUUPNKRCYQ8AHUF","hitId":"3E9VAUV7BW02QFDK7N7IH7ZKACRYAN","url":"https://gershmanlab.com/experiments/alicia/teaching/experiment/?hitId=3E9VAUV7BW02QFDK7N7IH7ZKACRYAN&workerId=A2VNSNAN1LZBAM&assignmentId=35L9RVQFCP425DZNUUPNKRCYQ8AHUF&a=FRL59&tp_a=FRL59&b=35L9RVQFCP425DZNUUPNKRCYQ8AHUF&tp_b=35L9RVQFCP425DZNUUPNKRCYQ8AHUF&c=365799&tp_c=365799"},{"rt":6668,"stimulus":"\n                <p>Student's guess for coin weight: <b style=\"color:Tomato;\">0.56</b></p>\n                <p>You received a bonus of <b>$0</b>. Total bonus so far: <b>$0.00</b></b></p>\n                <p></p>\n                <p>Press any key to continue.</p>\n                ","response":" ","trial_type":"html-keyboard-response","trial_index":13,"time_elapsed":444961,"internal_node_id":"0.0-9.0","params":{"nStudents":24,"maxFlips":30,"completionMinutes":45,"basePay":8,"maxBonus":9,"perTrialBonus":0.5,"perTrialBonusThreshold":0.05,"exampleCost":0.01},"classroomParams":{"A":{"a":1,"b":4},"B":{"a":4,"b":1},"C":{"a":2,"b":8},"D":{"a":8,"b":2}},"conditions":["nonSeqFull","nonSeqPartial","seqNoFeedback","seqFeedback"],"classroomPairings":[["A","B"],["C","D"]],"coinWeights":[0.2,0.5,0.8],"subjectId":"A2VNSNAN1LZBAM","assignmentId":"35L9RVQFCP425DZNUUPNKRCYQ8AHUF","hitId":"3E9VAUV7BW02QFDK7N7IH7ZKACRYAN","url":"https://gershmanlab.com/experiments/alicia/teaching/experiment/?hitId=3E9VAUV7BW02QFDK7N7IH7ZKACRYAN&workerId=A2VNSNAN1LZBAM&assignmentId=35L9RVQFCP425DZNUUPNKRCYQ8AHUF&a=FRL59&tp_a=FRL59&b=35L9RVQFCP425DZNUUPNKRCYQ8AHUF&tp_b=35L9RVQFCP425DZNUUPNKRCYQ8AHUF&c=365799&tp_c=365799"},{"rt":null,"stimulus":"<div style=\"font-size:60px;\">Next student</div>","response":null,"trial_type":"html-keyboard-response","trial_index":14,"time_elapsed":446981,"internal_node_id":"0.0-10.0-0.0","params":{"nStudents":24,"maxFlips":30,"completionMinutes":45,"basePay":8,"maxBonus":9,"perTrialBonus":0.5,"perTrialBonusThreshold":0.05,"exampleCost":0.01},"classroomParams":{"A":{"a":1,"b":4},"B":{"a":4,"b":1},"C":{"a":2,"b":8},"D":{"a":8,"b":2}},"conditions":["nonSeqFull","nonSeqPartial","seqNoFeedback","seqFeedback"],"classroomPairings":[["A","B"],["C","D"]],"coinWeights":[0.2,0.5,0.8],"subjectId":"A2VNSNAN1LZBAM","assignmentId":"35L9RVQFCP425DZNUUPNKRCYQ8AHUF","hitId":"3E9VAUV7BW02QFDK7N7IH7ZKACRYAN","url":"https://gershmanlab.com/experiments/alicia/teaching/experiment/?hitId=3E9VAUV7BW02QFDK7N7IH7ZKACRYAN&workerId=A2VNSNAN1LZBAM&assignmentId=35L9RVQFCP425DZNUUPNKRCYQ8AHUF&a=FRL59&tp_a=FRL59&b=35L9RVQFCP425DZNUUPNKRCYQ8AHUF&tp_b=35L9RVQFCP425DZNUUPNKRCYQ8AHUF&c=365799&tp_c=365799"},{"rt":6281,"stimulus":"\n            <h4 style=\"color:Orange;\">Student 2</h4>\n            <h2>The weight of your coin is <b style=\"color:Tomato;\">0.8</b>.</h2>\n            <p>In this block, you will be giving <b>two</b> sets of examples to Student 2.</p>\n                <p>You will receive feedback at the end of the block.</p>\n            <p></p>","response":0,"trial_type":"html-button-response","trial_index":15,"time_elapsed":453263,"internal_node_id":"0.0-11.0","params":{"nStudents":24,"maxFlips":30,"completionMinutes":45,"basePay":8,"maxBonus":9,"perTrialBonus":0.5,"perTrialBonusThreshold":0.05,"exampleCost":0.01},"classroomParams":{"A":{"a":1,"b":4},"B":{"a":4,"b":1},"C":{"a":2,"b":8},"D":{"a":8,"b":2}},"conditions":["nonSeqFull","nonSeqPartial","seqNoFeedback","seqFeedback"],"classroomPairings":[["A","B"],["C","D"]],"coinWeights":[0.2,0.5,0.8],"subjectId":"A2VNSNAN1LZBAM","assignmentId":"35L9RVQFCP425DZNUUPNKRCYQ8AHUF","hitId":"3E9VAUV7BW02QFDK7N7IH7ZKACRYAN","url":"https://gershmanlab.com/experiments/alicia/teaching/experiment/?hitId=3E9VAUV7BW02QFDK7N7IH7ZKACRYAN&workerId=A2VNSNAN1LZBAM&assignmentId=35L9RVQFCP425DZNUUPNKRCYQ8AHUF&a=FRL59&tp_a=FRL59&b=35L9RVQFCP425DZNUUPNKRCYQ8AHUF&tp_b=35L9RVQFCP425DZNUUPNKRCYQ8AHUF&c=365799&tp_c=365799"},{"rt":16990,"response":{"heads":"15","tails":"15"},"type":"response","condition":"seqNoFeedback","trueTheta":0.8,"classrooms":["C","D"],"studentTrueClassroom":"C","exampleSet":"first","trial_type":"survey-html-form","trial_index":16,"time_elapsed":470256,"internal_node_id":"0.0-12.0-0.0","params":{"nStudents":24,"maxFlips":30,"completionMinutes":45,"basePay":8,"maxBonus":9,"perTrialBonus":0.5,"perTrialBonusThreshold":0.05,"exampleCost":0.01},"classroomParams":{"A":{"a":1,"b":4},"B":{"a":4,"b":1},"C":{"a":2,"b":8},"D":{"a":8,"b":2}},"conditions":["nonSeqFull","nonSeqPartial","seqNoFeedback","seqFeedback"],"classroomPairings":[["A","B"],["C","D"]],"coinWeights":[0.2,0.5,0.8],"subjectId":"A2VNSNAN1LZBAM","assignmentId":"35L9RVQFCP425DZNUUPNKRCYQ8AHUF","hitId":"3E9VAUV7BW02QFDK7N7IH7ZKACRYAN","url":"https://gershmanlab.com/experiments/alicia/teaching/experiment/?hitId=3E9VAUV7BW02QFDK7N7IH7ZKACRYAN&workerId=A2VNSNAN1LZBAM&assignmentId=35L9RVQFCP425DZNUUPNKRCYQ8AHUF&a=FRL59&tp_a=FRL59&b=35L9RVQFCP425DZNUUPNKRCYQ8AHUF&tp_b=35L9RVQFCP425DZNUUPNKRCYQ8AHUF&c=365799&tp_c=365799","heads":15,"tails":15,"studentIndex":1,"studentTrueHypers":{"a":2,"b":8},"studentGuess":0.425,"delta":0.37500000000000006,"totalExamples":30,"bonusSoFar":0},{"rt":null,"stimulus":"Sending examples to student... ","response":null,"trial_type":"html-keyboard-response","trial_index":17,"time_elapsed":471525,"internal_node_id":"0.0-13.0","params":{"nStudents":24,"maxFlips":30,"completionMinutes":45,"basePay":8,"maxBonus":9,"perTrialBonus":0.5,"perTrialBonusThreshold":0.05,"exampleCost":0.01},"classroomParams":{"A":{"a":1,"b":4},"B":{"a":4,"b":1},"C":{"a":2,"b":8},"D":{"a":8,"b":2}},"conditions":["nonSeqFull","nonSeqPartial","seqNoFeedback","seqFeedback"],"classroomPairings":[["A","B"],["C","D"]],"coinWeights":[0.2,0.5,0.8],"subjectId":"A2VNSNAN1LZBAM","assignmentId":"35L9RVQFCP425DZNUUPNKRCYQ8AHUF","hitId":"3E9VAUV7BW02QFDK7N7IH7ZKACRYAN","url":"https://gershmanlab.com/experiments/alicia/teaching/experiment/?hitId=3E9VAUV7BW02QFDK7N7IH7ZKACRYAN&workerId=A2VNSNAN1LZBAM&assignmentId=35L9RVQFCP425DZNUUPNKRCYQ8AHUF&a=FRL59&tp_a=FRL59&b=35L9RVQFCP425DZNUUPNKRCYQ8AHUF&tp_b=35L9RVQFCP425DZNUUPNKRCYQ8AHUF&c=365799&tp_c=365799"},{"rt":null,"stimulus":"Examples sent to student! Waiting for student...","response":null,"trial_type":"html-keyboard-response","trial_index":18,"time_elapsed":476032,"internal_node_id":"0.0-14.0","params":{"nStudents":24,"maxFlips":30,"completionMinutes":45,"basePay":8,"maxBonus":9,"perTrialBonus":0.5,"perTrialBonusThreshold":0.05,"exampleCost":0.01},"classroomParams":{"A":{"a":1,"b":4},"B":{"a":4,"b":1},"C":{"a":2,"b":8},"D":{"a":8,"b":2}},"conditions":["nonSeqFull","nonSeqPartial","seqNoFeedback","seqFeedback"],"classroomPairings":[["A","B"],["C","D"]],"coinWeights":[0.2,0.5,0.8],"subjectId":"A2VNSNAN1LZBAM","assignmentId":"35L9RVQFCP425DZNUUPNKRCYQ8AHUF","hitId":"3E9VAUV7BW02QFDK7N7IH7ZKACRYAN","url":"https://gershmanlab.com/experiments/alicia/teaching/experiment/?hitId=3E9VAUV7BW02QFDK7N7IH7ZKACRYAN&workerId=A2VNSNAN1LZBAM&assignmentId=35L9RVQFCP425DZNUUPNKRCYQ8AHUF&a=FRL59&tp_a=FRL59&b=35L9RVQFCP425DZNUUPNKRCYQ8AHUF&tp_b=35L9RVQFCP425DZNUUPNKRCYQ8AHUF&c=365799&tp_c=365799"},{"rt":51833,"response":{"heads":"12","tails":"5"},"type":"response","condition":"seqNoFeedback","trueTheta":0.8,"classrooms":["C","D"],"studentTrueClassroom":"C","exampleSet":"second","trial_type":"survey-html-form","trial_index":19,"time_elapsed":527870,"internal_node_id":"0.0-15.0-0.0","params":{"nStudents":24,"maxFlips":30,"completionMinutes":45,"basePay":8,"maxBonus":9,"perTrialBonus":0.5,"perTrialBonusThreshold":0.05,"exampleCost":0.01},"classroomParams":{"A":{"a":1,"b":4},"B":{"a":4,"b":1},"C":{"a":2,"b":8},"D":{"a":8,"b":2}},"conditions":["nonSeqFull","nonSeqPartial","seqNoFeedback","seqFeedback"],"classroomPairings":[["A","B"],["C","D"]],"coinWeights":[0.2,0.5,0.8],"subjectId":"A2VNSNAN1LZBAM","assignmentId":"35L9RVQFCP425DZNUUPNKRCYQ8AHUF","hitId":"3E9VAUV7BW02QFDK7N7IH7ZKACRYAN","url":"https://gershmanlab.com/experiments/alicia/teaching/experiment/?hitId=3E9VAUV7BW02QFDK7N7IH7ZKACRYAN&workerId=A2VNSNAN1LZBAM&assignmentId=35L9RVQFCP425DZNUUPNKRCYQ8AHUF&a=FRL59&tp_a=FRL59&b=35L9RVQFCP425DZNUUPNKRCYQ8AHUF&tp_b=35L9RVQFCP425DZNUUPNKRCYQ8AHUF&c=365799&tp_c=365799","firstResponseHeads":15,"firstResponseTails":15,"secondResponseHeads":12,"secondResponseTails":5,"totalHeads":27,"totalTails":20,"studentIndex":1,"studentTrueHypers":{"a":2,"b":8},"studentGuess":0.5087719298245614,"delta":0.2912280701754386,"bonus":0,"bonusSoFar":0,"totalExamples":47},{"rt":null,"stimulus":"Sending examples to student... ","response":null,"trial_type":"html-keyboard-response","trial_index":20,"time_elapsed":529888,"internal_node_id":"0.0-16.0","params":{"nStudents":24,"maxFlips":30,"completionMinutes":45,"basePay":8,"maxBonus":9,"perTrialBonus":0.5,"perTrialBonusThreshold":0.05,"exampleCost":0.01},"classroomParams":{"A":{"a":1,"b":4},"B":{"a":4,"b":1},"C":{"a":2,"b":8},"D":{"a":8,"b":2}},"conditions":["nonSeqFull","nonSeqPartial","seqNoFeedback","seqFeedback"],"classroomPairings":[["A","B"],["C","D"]],"coinWeights":[0.2,0.5,0.8],"subjectId":"A2VNSNAN1LZBAM","assignmentId":"35L9RVQFCP425DZNUUPNKRCYQ8AHUF","hitId":"3E9VAUV7BW02QFDK7N7IH7ZKACRYAN","url":"https://gershmanlab.com/experiments/alicia/teaching/experiment/?hitId=3E9VAUV7BW02QFDK7N7IH7ZKACRYAN&workerId=A2VNSNAN1LZBAM&assignmentId=35L9RVQFCP425DZNUUPNKRCYQ8AHUF&a=FRL59&tp_a=FRL59&b=35L9RVQFCP425DZNUUPNKRCYQ8AHUF&tp_b=35L9RVQFCP425DZNUUPNKRCYQ8AHUF&c=365799&tp_c=365799"},{"rt":null,"stimulus":"Examples sent to student! Waiting for student...","response":null,"trial_type":"html-keyboard-response","trial_index":21,"time_elapsed":535889,"internal_node_id":"0.0-17.0","params":{"nStudents":24,"maxFlips":30,"completionMinutes":45,"basePay":8,"maxBonus":9,"perTrialBonus":0.5,"perTrialBonusThreshold":0.05,"exampleCost":0.01},"classroomParams":{"A":{"a":1,"b":4},"B":{"a":4,"b":1},"C":{"a":2,"b":8},"D":{"a":8,"b":2}},"conditions":["nonSeqFull","nonSeqPartial","seqNoFeedback","seqFeedback"],"classroomPairings":[["A","B"],["C","D"]],"coinWeights":[0.2,0.5,0.8],"subjectId":"A2VNSNAN1LZBAM","assignmentId":"35L9RVQFCP425DZNUUPNKRCYQ8AHUF","hitId":"3E9VAUV7BW02QFDK7N7IH7ZKACRYAN","url":"https://gershmanlab.com/experiments/alicia/teaching/experiment/?hitId=3E9VAUV7BW02QFDK7N7IH7ZKACRYAN&workerId=A2VNSNAN1LZBAM&assignmentId=35L9RVQFCP425DZNUUPNKRCYQ8AHUF&a=FRL59&tp_a=FRL59&b=35L9RVQFCP425DZNUUPNKRCYQ8AHUF&tp_b=35L9RVQFCP425DZNUUPNKRCYQ8AHUF&c=365799&tp_c=365799"},{"rt":7723,"stimulus":"\n                <p>Student 2's first guess for coin weight: <b style=\"color:Tomato\";>0.42</b></p>\n                <p>Student 2's second guess for coin weight: <b style=\"color:Tomato\";>0.51</b></p>\n                <p>You received a bonus of <b>$0.00</b> based on the student's second guess.</p>\n                <p>Total bonus so far: <b>$0.00</b></p>\n                <p>Press any key to continue.</p>\n                ","response":" ","trial_type":"html-keyboard-response","trial_index":22,"time_elapsed":543614,"internal_node_id":"0.0-18.0","params":{"nStudents":24,"maxFlips":30,"completionMinutes":45,"basePay":8,"maxBonus":9,"perTrialBonus":0.5,"perTrialBonusThreshold":0.05,"exampleCost":0.01},"classroomParams":{"A":{"a":1,"b":4},"B":{"a":4,"b":1},"C":{"a":2,"b":8},"D":{"a":8,"b":2}},"conditions":["nonSeqFull","nonSeqPartial","seqNoFeedback","seqFeedback"],"classroomPairings":[["A","B"],["C","D"]],"coinWeights":[0.2,0.5,0.8],"subjectId":"A2VNSNAN1LZBAM","assignmentId":"35L9RVQFCP425DZNUUPNKRCYQ8AHUF","hitId":"3E9VAUV7BW02QFDK7N7IH7ZKACRYAN","url":"https://gershmanlab.com/experiments/alicia/teaching/experiment/?hitId=3E9VAUV7BW02QFDK7N7IH7ZKACRYAN&workerId=A2VNSNAN1LZBAM&assignmentId=35L9RVQFCP425DZNUUPNKRCYQ8AHUF&a=FRL59&tp_a=FRL59&b=35L9RVQFCP425DZNUUPNKRCYQ8AHUF&tp_b=35L9RVQFCP425DZNUUPNKRCYQ8AHUF&c=365799&tp_c=365799"},{"rt":null,"stimulus":"<div style=\"font-size:60px;\">Next student</div>","response":null,"trial_type":"html-keyboard-response","trial_index":23,"time_elapsed":545877,"internal_node_id":"0.0-19.0-0.0","params":{"nStudents":24,"maxFlips":30,"completionMinutes":45,"basePay":8,"maxBonus":9,"perTrialBonus":0.5,"perTrialBonusThreshold":0.05,"exampleCost":0.01},"classroomParams":{"A":{"a":1,"b":4},"B":{"a":4,"b":1},"C":{"a":2,"b":8},"D":{"a":8,"b":2}},"conditions":["nonSeqFull","nonSeqPartial","seqNoFeedback","seqFeedback"],"classroomPairings":[["A","B"],["C","D"]],"coinWeights":[0.2,0.5,0.8],"subjectId":"A2VNSNAN1LZBAM","assignmentId":"35L9RVQFCP425DZNUUPNKRCYQ8AHUF","hitId":"3E9VAUV7BW02QFDK7N7IH7ZKACRYAN","url":"https://gershmanlab.com/experiments/alicia/teaching/experiment/?hitId=3E9VAUV7BW02QFDK7N7IH7ZKACRYAN&workerId=A2VNSNAN1LZBAM&assignmentId=35L9RVQFCP425DZNUUPNKRCYQ8AHUF&a=FRL59&tp_a=FRL59&b=35L9RVQFCP425DZNUUPNKRCYQ8AHUF&tp_b=35L9RVQFCP425DZNUUPNKRCYQ8AHUF&c=365799&tp_c=365799"},{"rt":4948,"stimulus":"\n            <h4 style=\"color:Orange;\">Student 3</h4>\n            <h2>The weight of your coin is <b style=\"color:Tomato;\">0.8</b>.</h2>\n            <p>In this block, you will be giving <b>one</b> set of examples to Student 3.</p>\n                <p>You will receive feedback at the end of the block.</p>\n            <p></p>","response":0,"trial_type":"html-button-response","trial_index":24,"time_elapsed":550826,"internal_node_id":"0.0-20.0","params":{"nStudents":24,"maxFlips":30,"completionMinutes":45,"basePay":8,"maxBonus":9,"perTrialBonus":0.5,"perTrialBonusThreshold":0.05,"exampleCost":0.01},"classroomParams":{"A":{"a":1,"b":4},"B":{"a":4,"b":1},"C":{"a":2,"b":8},"D":{"a":8,"b":2}},"conditions":["nonSeqFull","nonSeqPartial","seqNoFeedback","seqFeedback"],"classroomPairings":[["A","B"],["C","D"]],"coinWeights":[0.2,0.5,0.8],"subjectId":"A2VNSNAN1LZBAM","assignmentId":"35L9RVQFCP425DZNUUPNKRCYQ8AHUF","hitId":"3E9VAUV7BW02QFDK7N7IH7ZKACRYAN","url":"https://gershmanlab.com/experiments/alicia/teaching/experiment/?hitId=3E9VAUV7BW02QFDK7N7IH7ZKACRYAN&workerId=A2VNSNAN1LZBAM&assignmentId=35L9RVQFCP425DZNUUPNKRCYQ8AHUF&a=FRL59&tp_a=FRL59&b=35L9RVQFCP425DZNUUPNKRCYQ8AHUF&tp_b=35L9RVQFCP425DZNUUPNKRCYQ8AHUF&c=365799&tp_c=365799"},{"rt":10384,"response":{"heads":"5","tails":"15"},"type":"response","condition":"nonSeqPartial","trueTheta":0.8,"classrooms":["C","D"],"studentTrueClassroom":"D","exampleSet":"first","trial_type":"survey-html-form","trial_index":25,"time_elapsed":561214,"internal_node_id":"0.0-21.0-0.0","params":{"nStudents":24,"maxFlips":30,"completionMinutes":45,"basePay":8,"maxBonus":9,"perTrialBonus":0.5,"perTrialBonusThreshold":0.05,"exampleCost":0.01},"classroomParams":{"A":{"a":1,"b":4},"B":{"a":4,"b":1},"C":{"a":2,"b":8},"D":{"a":8,"b":2}},"conditions":["nonSeqFull","nonSeqPartial","seqNoFeedback","seqFeedback"],"classroomPairings":[["A","B"],["C","D"]],"coinWeights":[0.2,0.5,0.8],"subjectId":"A2VNSNAN1LZBAM","assignmentId":"35L9RVQFCP425DZNUUPNKRCYQ8AHUF","hitId":"3E9VAUV7BW02QFDK7N7IH7ZKACRYAN","url":"https://gershmanlab.com/experiments/alicia/teaching/experiment/?hitId=3E9VAUV7BW02QFDK7N7IH7ZKACRYAN&workerId=A2VNSNAN1LZBAM&assignmentId=35L9RVQFCP425DZNUUPNKRCYQ8AHUF&a=FRL59&tp_a=FRL59&b=35L9RVQFCP425DZNUUPNKRCYQ8AHUF&tp_b=35L9RVQFCP425DZNUUPNKRCYQ8AHUF&c=365799&tp_c=365799","heads":5,"tails":15,"studentIndex":2,"studentTrueHypers":{"a":8,"b":2},"studentGuess":0.43333333333333335,"delta":0.3666666666666667,"totalExamples":20,"bonus":0,"bonusSoFar":0},{"rt":null,"stimulus":"Sending examples to student... ","response":null,"trial_type":"html-keyboard-response","trial_index":26,"time_elapsed":562721,"internal_node_id":"0.0-22.0","params":{"nStudents":24,"maxFlips":30,"completionMinutes":45,"basePay":8,"maxBonus":9,"perTrialBonus":0.5,"perTrialBonusThreshold":0.05,"exampleCost":0.01},"classroomParams":{"A":{"a":1,"b":4},"B":{"a":4,"b":1},"C":{"a":2,"b":8},"D":{"a":8,"b":2}},"conditions":["nonSeqFull","nonSeqPartial","seqNoFeedback","seqFeedback"],"classroomPairings":[["A","B"],["C","D"]],"coinWeights":[0.2,0.5,0.8],"subjectId":"A2VNSNAN1LZBAM","assignmentId":"35L9RVQFCP425DZNUUPNKRCYQ8AHUF","hitId":"3E9VAUV7BW02QFDK7N7IH7ZKACRYAN","url":"https://gershmanlab.com/experiments/alicia/teaching/experiment/?hitId=3E9VAUV7BW02QFDK7N7IH7ZKACRYAN&workerId=A2VNSNAN1LZBAM&assignmentId=35L9RVQFCP425DZNUUPNKRCYQ8AHUF&a=FRL59&tp_a=FRL59&b=35L9RVQFCP425DZNUUPNKRCYQ8AHUF&tp_b=35L9RVQFCP425DZNUUPNKRCYQ8AHUF&c=365799&tp_c=365799"},{"rt":null,"stimulus":"Examples sent to student! Waiting for student...","response":null,"trial_type":"html-keyboard-response","trial_index":27,"time_elapsed":566737,"internal_node_id":"0.0-23.0","params":{"nStudents":24,"maxFlips":30,"completionMinutes":45,"basePay":8,"maxBonus":9,"perTrialBonus":0.5,"perTrialBonusThreshold":0.05,"exampleCost":0.01},"classroomParams":{"A":{"a":1,"b":4},"B":{"a":4,"b":1},"C":{"a":2,"b":8},"D":{"a":8,"b":2}},"conditions":["nonSeqFull","nonSeqPartial","seqNoFeedback","seqFeedback"],"classroomPairings":[["A","B"],["C","D"]],"coinWeights":[0.2,0.5,0.8],"subjectId":"A2VNSNAN1LZBAM","assignmentId":"35L9RVQFCP425DZNUUPNKRCYQ8AHUF","hitId":"3E9VAUV7BW02QFDK7N7IH7ZKACRYAN","url":"https://gershmanlab.com/experiments/alicia/teaching/experiment/?hitId=3E9VAUV7BW02QFDK7N7IH7ZKACRYAN&workerId=A2VNSNAN1LZBAM&assignmentId=35L9RVQFCP425DZNUUPNKRCYQ8AHUF&a=FRL59&tp_a=FRL59&b=35L9RVQFCP425DZNUUPNKRCYQ8AHUF&tp_b=35L9RVQFCP425DZNUUPNKRCYQ8AHUF&c=365799&tp_c=365799"},{"rt":3571,"stimulus":"\n                <p>Student's guess for coin weight: <b style=\"color:Tomato;\">0.43</b></p>\n                <p>You received a bonus of <b>$0</b>. Total bonus so far: <b>$0.00</b></b></p>\n                <p></p>\n                <p>Press any key to continue.</p>\n                ","response":" ","trial_type":"html-keyboard-response","trial_index":28,"time_elapsed":570310,"internal_node_id":"0.0-24.0","params":{"nStudents":24,"maxFlips":30,"completionMinutes":45,"basePay":8,"maxBonus":9,"perTrialBonus":0.5,"perTrialBonusThreshold":0.05,"exampleCost":0.01},"classroomParams":{"A":{"a":1,"b":4},"B":{"a":4,"b":1},"C":{"a":2,"b":8},"D":{"a":8,"b":2}},"conditions":["nonSeqFull","nonSeqPartial","seqNoFeedback","seqFeedback"],"classroomPairings":[["A","B"],["C","D"]],"coinWeights":[0.2,0.5,0.8],"subjectId":"A2VNSNAN1LZBAM","assignmentId":"35L9RVQFCP425DZNUUPNKRCYQ8AHUF","hitId":"3E9VAUV7BW02QFDK7N7IH7ZKACRYAN","url":"https://gershmanlab.com/experiments/alicia/teaching/experiment/?hitId=3E9VAUV7BW02QFDK7N7IH7ZKACRYAN&workerId=A2VNSNAN1LZBAM&assignmentId=35L9RVQFCP425DZNUUPNKRCYQ8AHUF&a=FRL59&tp_a=FRL59&b=35L9RVQFCP425DZNUUPNKRCYQ8AHUF&tp_b=35L9RVQFCP425DZNUUPNKRCYQ8AHUF&c=365799&tp_c=365799"},{"rt":null,"stimulus":"<div style=\"font-size:60px;\">Next student</div>","response":null,"trial_type":"html-keyboard-response","trial_index":29,"time_elapsed":573316,"internal_node_id":"0.0-25.0-0.0","params":{"nStudents":24,"maxFlips":30,"completionMinutes":45,"basePay":8,"maxBonus":9,"perTrialBonus":0.5,"perTrialBonusThreshold":0.05,"exampleCost":0.01},"classroomParams":{"A":{"a":1,"b":4},"B":{"a":4,"b":1},"C":{"a":2,"b":8},"D":{"a":8,"b":2}},"conditions":["nonSeqFull","nonSeqPartial","seqNoFeedback","seqFeedback"],"classroomPairings":[["A","B"],["C","D"]],"coinWeights":[0.2,0.5,0.8],"subjectId":"A2VNSNAN1LZBAM","assignmentId":"35L9RVQFCP425DZNUUPNKRCYQ8AHUF","hitId":"3E9VAUV7BW02QFDK7N7IH7ZKACRYAN","url":"https://gershmanlab.com/experiments/alicia/teaching/experiment/?hitId=3E9VAUV7BW02QFDK7N7IH7ZKACRYAN&workerId=A2VNSNAN1LZBAM&assignmentId=35L9RVQFCP425DZNUUPNKRCYQ8AHUF&a=FRL59&tp_a=FRL59&b=35L9RVQFCP425DZNUUPNKRCYQ8AHUF&tp_b=35L9RVQFCP425DZNUUPNKRCYQ8AHUF&c=365799&tp_c=365799"},{"rt":3096,"stimulus":"\n            <h4 style=\"color:Orange;\">Student 4</h4>\n            <h2>The weight of your coin is <b style=\"color:Tomato;\">0.8</b>.</h2>\n            <p>In this block, you will be giving <b>one</b> set of examples to Student 4.</p>\n                <p>You will receive feedback at the end of the block.</p>\n            <p></p>","response":0,"trial_type":"html-button-response","trial_index":30,"time_elapsed":576414,"internal_node_id":"0.0-26.0","params":{"nStudents":24,"maxFlips":30,"completionMinutes":45,"basePay":8,"maxBonus":9,"perTrialBonus":0.5,"perTrialBonusThreshold":0.05,"exampleCost":0.01},"classroomParams":{"A":{"a":1,"b":4},"B":{"a":4,"b":1},"C":{"a":2,"b":8},"D":{"a":8,"b":2}},"conditions":["nonSeqFull","nonSeqPartial","seqNoFeedback","seqFeedback"],"classroomPairings":[["A","B"],["C","D"]],"coinWeights":[0.2,0.5,0.8],"subjectId":"A2VNSNAN1LZBAM","assignmentId":"35L9RVQFCP425DZNUUPNKRCYQ8AHUF","hitId":"3E9VAUV7BW02QFDK7N7IH7ZKACRYAN","url":"https://gershmanlab.com/experiments/alicia/teaching/experiment/?hitId=3E9VAUV7BW02QFDK7N7IH7ZKACRYAN&workerId=A2VNSNAN1LZBAM&assignmentId=35L9RVQFCP425DZNUUPNKRCYQ8AHUF&a=FRL59&tp_a=FRL59&b=35L9RVQFCP425DZNUUPNKRCYQ8AHUF&tp_b=35L9RVQFCP425DZNUUPNKRCYQ8AHUF&c=365799&tp_c=365799"},{"rt":10665,"response":{"heads":"10","tails":"5"},"type":"response","condition":"nonSeqFull","trueTheta":0.8,"classrooms":["C","D"],"studentTrueClassroom":"C","exampleSet":"first","trial_type":"survey-html-form","trial_index":31,"time_elapsed":587082,"internal_node_id":"0.0-27.0-0.0","params":{"nStudents":24,"maxFlips":30,"completionMinutes":45,"basePay":8,"maxBonus":9,"perTrialBonus":0.5,"perTrialBonusThreshold":0.05,"exampleCost":0.01},"classroomParams":{"A":{"a":1,"b":4},"B":{"a":4,"b":1},"C":{"a":2,"b":8},"D":{"a":8,"b":2}},"conditions":["nonSeqFull","nonSeqPartial","seqNoFeedback","seqFeedback"],"classroomPairings":[["A","B"],["C","D"]],"coinWeights":[0.2,0.5,0.8],"subjectId":"A2VNSNAN1LZBAM","assignmentId":"35L9RVQFCP425DZNUUPNKRCYQ8AHUF","hitId":"3E9VAUV7BW02QFDK7N7IH7ZKACRYAN","url":"https://gershmanlab.com/experiments/alicia/teaching/experiment/?hitId=3E9VAUV7BW02QFDK7N7IH7ZKACRYAN&workerId=A2VNSNAN1LZBAM&assignmentId=35L9RVQFCP425DZNUUPNKRCYQ8AHUF&a=FRL59&tp_a=FRL59&b=35L9RVQFCP425DZNUUPNKRCYQ8AHUF&tp_b=35L9RVQFCP425DZNUUPNKRCYQ8AHUF&c=365799&tp_c=365799","heads":10,"tails":5,"studentIndex":3,"studentTrueHypers":{"a":2,"b":8},"studentGuess":0.48,"delta":0.32000000000000006,"totalExamples":15,"bonus":0,"bonusSoFar":0},{"rt":null,"stimulus":"Sending examples to student... ","response":null,"trial_type":"html-keyboard-response","trial_index":32,"time_elapsed":589098,"internal_node_id":"0.0-28.0","params":{"nStudents":24,"maxFlips":30,"completionMinutes":45,"basePay":8,"maxBonus":9,"perTrialBonus":0.5,"perTrialBonusThreshold":0.05,"exampleCost":0.01},"classroomParams":{"A":{"a":1,"b":4},"B":{"a":4,"b":1},"C":{"a":2,"b":8},"D":{"a":8,"b":2}},"conditions":["nonSeqFull","nonSeqPartial","seqNoFeedback","seqFeedback"],"classroomPairings":[["A","B"],["C","D"]],"coinWeights":[0.2,0.5,0.8],"subjectId":"A2VNSNAN1LZBAM","assignmentId":"35L9RVQFCP425DZNUUPNKRCYQ8AHUF","hitId":"3E9VAUV7BW02QFDK7N7IH7ZKACRYAN","url":"https://gershmanlab.com/experiments/alicia/teaching/experiment/?hitId=3E9VAUV7BW02QFDK7N7IH7ZKACRYAN&workerId=A2VNSNAN1LZBAM&assignmentId=35L9RVQFCP425DZNUUPNKRCYQ8AHUF&a=FRL59&tp_a=FRL59&b=35L9RVQFCP425DZNUUPNKRCYQ8AHUF&tp_b=35L9RVQFCP425DZNUUPNKRCYQ8AHUF&c=365799&tp_c=365799"},{"rt":null,"stimulus":"Examples sent to student! Waiting for student...","response":null,"trial_type":"html-keyboard-response","trial_index":33,"time_elapsed":595114,"internal_node_id":"0.0-29.0","params":{"nStudents":24,"maxFlips":30,"completionMinutes":45,"basePay":8,"maxBonus":9,"perTrialBonus":0.5,"perTrialBonusThreshold":0.05,"exampleCost":0.01},"classroomParams":{"A":{"a":1,"b":4},"B":{"a":4,"b":1},"C":{"a":2,"b":8},"D":{"a":8,"b":2}},"conditions":["nonSeqFull","nonSeqPartial","seqNoFeedback","seqFeedback"],"classroomPairings":[["A","B"],["C","D"]],"coinWeights":[0.2,0.5,0.8],"subjectId":"A2VNSNAN1LZBAM","assignmentId":"35L9RVQFCP425DZNUUPNKRCYQ8AHUF","hitId":"3E9VAUV7BW02QFDK7N7IH7ZKACRYAN","url":"https://gershmanlab.com/experiments/alicia/teaching/experiment/?hitId=3E9VAUV7BW02QFDK7N7IH7ZKACRYAN&workerId=A2VNSNAN1LZBAM&assignmentId=35L9RVQFCP425DZNUUPNKRCYQ8AHUF&a=FRL59&tp_a=FRL59&b=35L9RVQFCP425DZNUUPNKRCYQ8AHUF&tp_b=35L9RVQFCP425DZNUUPNKRCYQ8AHUF&c=365799&tp_c=365799"},{"rt":3280,"stimulus":"\n                <p>Student's guess for coin weight: <b style=\"color:Tomato;\">0.48</b></p>\n                <p>You received a bonus of <b>$0</b>. Total bonus so far: <b>$0.00</b></b></p>\n                <p></p>\n                <p>Press any key to continue.</p>\n                ","response":" ","trial_type":"html-keyboard-response","trial_index":34,"time_elapsed":598400,"internal_node_id":"0.0-30.0","params":{"nStudents":24,"maxFlips":30,"completionMinutes":45,"basePay":8,"maxBonus":9,"perTrialBonus":0.5,"perTrialBonusThreshold":0.05,"exampleCost":0.01},"classroomParams":{"A":{"a":1,"b":4},"B":{"a":4,"b":1},"C":{"a":2,"b":8},"D":{"a":8,"b":2}},"conditions":["nonSeqFull","nonSeqPartial","seqNoFeedback","seqFeedback"],"classroomPairings":[["A","B"],["C","D"]],"coinWeights":[0.2,0.5,0.8],"subjectId":"A2VNSNAN1LZBAM","assignmentId":"35L9RVQFCP425DZNUUPNKRCYQ8AHUF","hitId":"3E9VAUV7BW02QFDK7N7IH7ZKACRYAN","url":"https://gershmanlab.com/experiments/alicia/teaching/experiment/?hitId=3E9VAUV7BW02QFDK7N7IH7ZKACRYAN&workerId=A2VNSNAN1LZBAM&assignmentId=35L9RVQFCP425DZNUUPNKRCYQ8AHUF&a=FRL59&tp_a=FRL59&b=35L9RVQFCP425DZNUUPNKRCYQ8AHUF&tp_b=35L9RVQFCP425DZNUUPNKRCYQ8AHUF&c=365799&tp_c=365799"},{"rt":null,"stimulus":"<div style=\"font-size:60px;\">Next student</div>","response":null,"trial_type":"html-keyboard-response","trial_index":35,"time_elapsed":600913,"internal_node_id":"0.0-31.0-0.0","params":{"nStudents":24,"maxFlips":30,"completionMinutes":45,"basePay":8,"maxBonus":9,"perTrialBonus":0.5,"perTrialBonusThreshold":0.05,"exampleCost":0.01},"classroomParams":{"A":{"a":1,"b":4},"B":{"a":4,"b":1},"C":{"a":2,"b":8},"D":{"a":8,"b":2}},"conditions":["nonSeqFull","nonSeqPartial","seqNoFeedback","seqFeedback"],"classroomPairings":[["A","B"],["C","D"]],"coinWeights":[0.2,0.5,0.8],"subjectId":"A2VNSNAN1LZBAM","assignmentId":"35L9RVQFCP425DZNUUPNKRCYQ8AHUF","hitId":"3E9VAUV7BW02QFDK7N7IH7ZKACRYAN","url":"https://gershmanlab.com/experiments/alicia/teaching/experiment/?hitId=3E9VAUV7BW02QFDK7N7IH7ZKACRYAN&workerId=A2VNSNAN1LZBAM&assignmentId=35L9RVQFCP425DZNUUPNKRCYQ8AHUF&a=FRL59&tp_a=FRL59&b=35L9RVQFCP425DZNUUPNKRCYQ8AHUF&tp_b=35L9RVQFCP425DZNUUPNKRCYQ8AHUF&c=365799&tp_c=365799"},{"rt":5438,"stimulus":"\n            <h4 style=\"color:Orange;\">Student 5</h4>\n            <h2>The weight of your coin is <b style=\"color:Tomato;\">0.2</b>.</h2>\n            <p>In this block, you will be giving <b>one</b> set of examples to Student 5.</p>\n                <p>You will receive feedback at the end of the block.</p>\n            <p></p>","response":0,"trial_type":"html-button-response","trial_index":36,"time_elapsed":606352,"internal_node_id":"0.0-32.0","params":{"nStudents":24,"maxFlips":30,"completionMinutes":45,"basePay":8,"maxBonus":9,"perTrialBonus":0.5,"perTrialBonusThreshold":0.05,"exampleCost":0.01},"classroomParams":{"A":{"a":1,"b":4},"B":{"a":4,"b":1},"C":{"a":2,"b":8},"D":{"a":8,"b":2}},"conditions":["nonSeqFull","nonSeqPartial","seqNoFeedback","seqFeedback"],"classroomPairings":[["A","B"],["C","D"]],"coinWeights":[0.2,0.5,0.8],"subjectId":"A2VNSNAN1LZBAM","assignmentId":"35L9RVQFCP425DZNUUPNKRCYQ8AHUF","hitId":"3E9VAUV7BW02QFDK7N7IH7ZKACRYAN","url":"https://gershmanlab.com/experiments/alicia/teaching/experiment/?hitId=3E9VAUV7BW02QFDK7N7IH7ZKACRYAN&workerId=A2VNSNAN1LZBAM&assignmentId=35L9RVQFCP425DZNUUPNKRCYQ8AHUF&a=FRL59&tp_a=FRL59&b=35L9RVQFCP425DZNUUPNKRCYQ8AHUF&tp_b=35L9RVQFCP425DZNUUPNKRCYQ8AHUF&c=365799&tp_c=365799"},{"rt":14144,"response":{"heads":"10","tails":"5"},"type":"response","condition":"nonSeqPartial","trueTheta":0.2,"classrooms":["A","B"],"studentTrueClassroom":"A","exampleSet":"first","trial_type":"survey-html-form","trial_index":37,"time_elapsed":620500,"internal_node_id":"0.0-33.0-0.0","params":{"nStudents":24,"maxFlips":30,"completionMinutes":45,"basePay":8,"maxBonus":9,"perTrialBonus":0.5,"perTrialBonusThreshold":0.05,"exampleCost":0.01},"classroomParams":{"A":{"a":1,"b":4},"B":{"a":4,"b":1},"C":{"a":2,"b":8},"D":{"a":8,"b":2}},"conditions":["nonSeqFull","nonSeqPartial","seqNoFeedback","seqFeedback"],"classroomPairings":[["A","B"],["C","D"]],"coinWeights":[0.2,0.5,0.8],"subjectId":"A2VNSNAN1LZBAM","assignmentId":"35L9RVQFCP425DZNUUPNKRCYQ8AHUF","hitId":"3E9VAUV7BW02QFDK7N7IH7ZKACRYAN","url":"https://gershmanlab.com/experiments/alicia/teaching/experiment/?hitId=3E9VAUV7BW02QFDK7N7IH7ZKACRYAN&workerId=A2VNSNAN1LZBAM&assignmentId=35L9RVQFCP425DZNUUPNKRCYQ8AHUF&a=FRL59&tp_a=FRL59&b=35L9RVQFCP425DZNUUPNKRCYQ8AHUF&tp_b=35L9RVQFCP425DZNUUPNKRCYQ8AHUF&c=365799&tp_c=365799","heads":10,"tails":5,"studentIndex":4,"studentTrueHypers":{"a":1,"b":4},"studentGuess":0.55,"delta":0.35000000000000003,"totalExamples":15,"bonus":0,"bonusSoFar":0},{"rt":null,"stimulus":"Sending examples to student... ","response":null,"trial_type":"html-keyboard-response","trial_index":38,"time_elapsed":622005,"internal_node_id":"0.0-34.0","params":{"nStudents":24,"maxFlips":30,"completionMinutes":45,"basePay":8,"maxBonus":9,"perTrialBonus":0.5,"perTrialBonusThreshold":0.05,"exampleCost":0.01},"classroomParams":{"A":{"a":1,"b":4},"B":{"a":4,"b":1},"C":{"a":2,"b":8},"D":{"a":8,"b":2}},"conditions":["nonSeqFull","nonSeqPartial","seqNoFeedback","seqFeedback"],"classroomPairings":[["A","B"],["C","D"]],"coinWeights":[0.2,0.5,0.8],"subjectId":"A2VNSNAN1LZBAM","assignmentId":"35L9RVQFCP425DZNUUPNKRCYQ8AHUF","hitId":"3E9VAUV7BW02QFDK7N7IH7ZKACRYAN","url":"https://gershmanlab.com/experiments/alicia/teaching/experiment/?hitId=3E9VAUV7BW02QFDK7N7IH7ZKACRYAN&workerId=A2VNSNAN1LZBAM&assignmentId=35L9RVQFCP425DZNUUPNKRCYQ8AHUF&a=FRL59&tp_a=FRL59&b=35L9RVQFCP425DZNUUPNKRCYQ8AHUF&tp_b=35L9RVQFCP425DZNUUPNKRCYQ8AHUF&c=365799&tp_c=365799"},{"rt":null,"stimulus":"Examples sent to student! Waiting for student...","response":null,"trial_type":"html-keyboard-response","trial_index":39,"time_elapsed":626521,"internal_node_id":"0.0-35.0","params":{"nStudents":24,"maxFlips":30,"completionMinutes":45,"basePay":8,"maxBonus":9,"perTrialBonus":0.5,"perTrialBonusThreshold":0.05,"exampleCost":0.01},"classroomParams":{"A":{"a":1,"b":4},"B":{"a":4,"b":1},"C":{"a":2,"b":8},"D":{"a":8,"b":2}},"conditions":["nonSeqFull","nonSeqPartial","seqNoFeedback","seqFeedback"],"classroomPairings":[["A","B"],["C","D"]],"coinWeights":[0.2,0.5,0.8],"subjectId":"A2VNSNAN1LZBAM","assignmentId":"35L9RVQFCP425DZNUUPNKRCYQ8AHUF","hitId":"3E9VAUV7BW02QFDK7N7IH7ZKACRYAN","url":"https://gershmanlab.com/experiments/alicia/teaching/experiment/?hitId=3E9VAUV7BW02QFDK7N7IH7ZKACRYAN&workerId=A2VNSNAN1LZBAM&assignmentId=35L9RVQFCP425DZNUUPNKRCYQ8AHUF&a=FRL59&tp_a=FRL59&b=35L9RVQFCP425DZNUUPNKRCYQ8AHUF&tp_b=35L9RVQFCP425DZNUUPNKRCYQ8AHUF&c=365799&tp_c=365799"},{"rt":3948,"stimulus":"\n                <p>Student's guess for coin weight: <b style=\"color:Tomato;\">0.55</b></p>\n                <p>You received a bonus of <b>$0</b>. Total bonus so far: <b>$0.00</b></b></p>\n                <p></p>\n                <p>Press any key to continue.</p>\n                ","response":" ","trial_type":"html-keyboard-response","trial_index":40,"time_elapsed":630470,"internal_node_id":"0.0-36.0","params":{"nStudents":24,"maxFlips":30,"completionMinutes":45,"basePay":8,"maxBonus":9,"perTrialBonus":0.5,"perTrialBonusThreshold":0.05,"exampleCost":0.01},"classroomParams":{"A":{"a":1,"b":4},"B":{"a":4,"b":1},"C":{"a":2,"b":8},"D":{"a":8,"b":2}},"conditions":["nonSeqFull","nonSeqPartial","seqNoFeedback","seqFeedback"],"classroomPairings":[["A","B"],["C","D"]],"coinWeights":[0.2,0.5,0.8],"subjectId":"A2VNSNAN1LZBAM","assignmentId":"35L9RVQFCP425DZNUUPNKRCYQ8AHUF","hitId":"3E9VAUV7BW02QFDK7N7IH7ZKACRYAN","url":"https://gershmanlab.com/experiments/alicia/teaching/experiment/?hitId=3E9VAUV7BW02QFDK7N7IH7ZKACRYAN&workerId=A2VNSNAN1LZBAM&assignmentId=35L9RVQFCP425DZNUUPNKRCYQ8AHUF&a=FRL59&tp_a=FRL59&b=35L9RVQFCP425DZNUUPNKRCYQ8AHUF&tp_b=35L9RVQFCP425DZNUUPNKRCYQ8AHUF&c=365799&tp_c=365799"},{"rt":null,"stimulus":"<div style=\"font-size:60px;\">Next student</div>","response":null,"trial_type":"html-keyboard-response","trial_index":41,"time_elapsed":633474,"internal_node_id":"0.0-37.0-0.0","params":{"nStudents":24,"maxFlips":30,"completionMinutes":45,"basePay":8,"maxBonus":9,"perTrialBonus":0.5,"perTrialBonusThreshold":0.05,"exampleCost":0.01},"classroomParams":{"A":{"a":1,"b":4},"B":{"a":4,"b":1},"C":{"a":2,"b":8},"D":{"a":8,"b":2}},"conditions":["nonSeqFull","nonSeqPartial","seqNoFeedback","seqFeedback"],"classroomPairings":[["A","B"],["C","D"]],"coinWeights":[0.2,0.5,0.8],"subjectId":"A2VNSNAN1LZBAM","assignmentId":"35L9RVQFCP425DZNUUPNKRCYQ8AHUF","hitId":"3E9VAUV7BW02QFDK7N7IH7ZKACRYAN","url":"https://gershmanlab.com/experiments/alicia/teaching/experiment/?hitId=3E9VAUV7BW02QFDK7N7IH7ZKACRYAN&workerId=A2VNSNAN1LZBAM&assignmentId=35L9RVQFCP425DZNUUPNKRCYQ8AHUF&a=FRL59&tp_a=FRL59&b=35L9RVQFCP425DZNUUPNKRCYQ8AHUF&tp_b=35L9RVQFCP425DZNUUPNKRCYQ8AHUF&c=365799&tp_c=365799"},{"rt":3126,"stimulus":"\n            <h4 style=\"color:Orange;\">Student 6</h4>\n            <h2>The weight of your coin is <b style=\"color:Tomato;\">0.5</b>.</h2>\n            <p>In this block, you will be giving <b>one</b> set of examples to Student 6.</p>\n                <p>You will receive feedback at the end of the block.</p>\n            <p></p>","response":0,"trial_type":"html-button-response","trial_index":42,"time_elapsed":636602,"internal_node_id":"0.0-38.0","params":{"nStudents":24,"maxFlips":30,"completionMinutes":45,"basePay":8,"maxBonus":9,"perTrialBonus":0.5,"perTrialBonusThreshold":0.05,"exampleCost":0.01},"classroomParams":{"A":{"a":1,"b":4},"B":{"a":4,"b":1},"C":{"a":2,"b":8},"D":{"a":8,"b":2}},"conditions":["nonSeqFull","nonSeqPartial","seqNoFeedback","seqFeedback"],"classroomPairings":[["A","B"],["C","D"]],"coinWeights":[0.2,0.5,0.8],"subjectId":"A2VNSNAN1LZBAM","assignmentId":"35L9RVQFCP425DZNUUPNKRCYQ8AHUF","hitId":"3E9VAUV7BW02QFDK7N7IH7ZKACRYAN","url":"https://gershmanlab.com/experiments/alicia/teaching/experiment/?hitId=3E9VAUV7BW02QFDK7N7IH7ZKACRYAN&workerId=A2VNSNAN1LZBAM&assignmentId=35L9RVQFCP425DZNUUPNKRCYQ8AHUF&a=FRL59&tp_a=FRL59&b=35L9RVQFCP425DZNUUPNKRCYQ8AHUF&tp_b=35L9RVQFCP425DZNUUPNKRCYQ8AHUF&c=365799&tp_c=365799"},{"rt":11738,"response":{"heads":"15","tails":"10"},"type":"response","condition":"nonSeqFull","trueTheta":0.5,"classrooms":["C","D"],"studentTrueClassroom":"C","exampleSet":"first","trial_type":"survey-html-form","trial_index":43,"time_elapsed":648344,"internal_node_id":"0.0-39.0-0.0","params":{"nStudents":24,"maxFlips":30,"completionMinutes":45,"basePay":8,"maxBonus":9,"perTrialBonus":0.5,"perTrialBonusThreshold":0.05,"exampleCost":0.01},"classroomParams":{"A":{"a":1,"b":4},"B":{"a":4,"b":1},"C":{"a":2,"b":8},"D":{"a":8,"b":2}},"conditions":["nonSeqFull","nonSeqPartial","seqNoFeedback","seqFeedback"],"classroomPairings":[["A","B"],["C","D"]],"coinWeights":[0.2,0.5,0.8],"subjectId":"A2VNSNAN1LZBAM","assignmentId":"35L9RVQFCP425DZNUUPNKRCYQ8AHUF","hitId":"3E9VAUV7BW02QFDK7N7IH7ZKACRYAN","url":"https://gershmanlab.com/experiments/alicia/teaching/experiment/?hitId=3E9VAUV7BW02QFDK7N7IH7ZKACRYAN&workerId=A2VNSNAN1LZBAM&assignmentId=35L9RVQFCP425DZNUUPNKRCYQ8AHUF&a=FRL59&tp_a=FRL59&b=35L9RVQFCP425DZNUUPNKRCYQ8AHUF&tp_b=35L9RVQFCP425DZNUUPNKRCYQ8AHUF&c=365799&tp_c=365799","heads":15,"tails":10,"studentIndex":5,"studentTrueHypers":{"a":2,"b":8},"studentGuess":0.4857142857142857,"delta":0.01428571428571429,"totalExamples":25,"bonus":0.25,"bonusSoFar":0.25},{"rt":null,"stimulus":"Sending examples to student... ","response":null,"trial_type":"html-keyboard-response","trial_index":44,"time_elapsed":649855,"internal_node_id":"0.0-40.0","params":{"nStudents":24,"maxFlips":30,"completionMinutes":45,"basePay":8,"maxBonus":9,"perTrialBonus":0.5,"perTrialBonusThreshold":0.05,"exampleCost":0.01},"classroomParams":{"A":{"a":1,"b":4},"B":{"a":4,"b":1},"C":{"a":2,"b":8},"D":{"a":8,"b":2}},"conditions":["nonSeqFull","nonSeqPartial","seqNoFeedback","seqFeedback"],"classroomPairings":[["A","B"],["C","D"]],"coinWeights":[0.2,0.5,0.8],"subjectId":"A2VNSNAN1LZBAM","assignmentId":"35L9RVQFCP425DZNUUPNKRCYQ8AHUF","hitId":"3E9VAUV7BW02QFDK7N7IH7ZKACRYAN","url":"https://gershmanlab.com/experiments/alicia/teaching/experiment/?hitId=3E9VAUV7BW02QFDK7N7IH7ZKACRYAN&workerId=A2VNSNAN1LZBAM&assignmentId=35L9RVQFCP425DZNUUPNKRCYQ8AHUF&a=FRL59&tp_a=FRL59&b=35L9RVQFCP425DZNUUPNKRCYQ8AHUF&tp_b=35L9RVQFCP425DZNUUPNKRCYQ8AHUF&c=365799&tp_c=365799"},{"rt":null,"stimulus":"Examples sent to student! Waiting for student...","response":null,"trial_type":"html-keyboard-response","trial_index":45,"time_elapsed":654367,"internal_node_id":"0.0-41.0","params":{"nStudents":24,"maxFlips":30,"completionMinutes":45,"basePay":8,"maxBonus":9,"perTrialBonus":0.5,"perTrialBonusThreshold":0.05,"exampleCost":0.01},"classroomParams":{"A":{"a":1,"b":4},"B":{"a":4,"b":1},"C":{"a":2,"b":8},"D":{"a":8,"b":2}},"conditions":["nonSeqFull","nonSeqPartial","seqNoFeedback","seqFeedback"],"classroomPairings":[["A","B"],["C","D"]],"coinWeights":[0.2,0.5,0.8],"subjectId":"A2VNSNAN1LZBAM","assignmentId":"35L9RVQFCP425DZNUUPNKRCYQ8AHUF","hitId":"3E9VAUV7BW02QFDK7N7IH7ZKACRYAN","url":"https://gershmanlab.com/experiments/alicia/teaching/experiment/?hitId=3E9VAUV7BW02QFDK7N7IH7ZKACRYAN&workerId=A2VNSNAN1LZBAM&assignmentId=35L9RVQFCP425DZNUUPNKRCYQ8AHUF&a=FRL59&tp_a=FRL59&b=35L9RVQFCP425DZNUUPNKRCYQ8AHUF&tp_b=35L9RVQFCP425DZNUUPNKRCYQ8AHUF&c=365799&tp_c=365799"},{"rt":5093,"stimulus":"\n                <p>Student's guess for coin weight: <b style=\"color:Tomato;\">0.49</b></p>\n                <p>You received a bonus of <b>$0.25</b>. Total bonus so far: <b>$0.25</b></b></p>\n                <p></p>\n                <p>Press any key to continue.</p>\n                ","response":" ","trial_type":"html-keyboard-response","trial_index":46,"time_elapsed":659461,"internal_node_id":"0.0-42.0","params":{"nStudents":24,"maxFlips":30,"completionMinutes":45,"basePay":8,"maxBonus":9,"perTrialBonus":0.5,"perTrialBonusThreshold":0.05,"exampleCost":0.01},"classroomParams":{"A":{"a":1,"b":4},"B":{"a":4,"b":1},"C":{"a":2,"b":8},"D":{"a":8,"b":2}},"conditions":["nonSeqFull","nonSeqPartial","seqNoFeedback","seqFeedback"],"classroomPairings":[["A","B"],["C","D"]],"coinWeights":[0.2,0.5,0.8],"subjectId":"A2VNSNAN1LZBAM","assignmentId":"35L9RVQFCP425DZNUUPNKRCYQ8AHUF","hitId":"3E9VAUV7BW02QFDK7N7IH7ZKACRYAN","url":"https://gershmanlab.com/experiments/alicia/teaching/experiment/?hitId=3E9VAUV7BW02QFDK7N7IH7ZKACRYAN&workerId=A2VNSNAN1LZBAM&assignmentId=35L9RVQFCP425DZNUUPNKRCYQ8AHUF&a=FRL59&tp_a=FRL59&b=35L9RVQFCP425DZNUUPNKRCYQ8AHUF&tp_b=35L9RVQFCP425DZNUUPNKRCYQ8AHUF&c=365799&tp_c=365799"},{"rt":null,"stimulus":"<div style=\"font-size:60px;\">Next student</div>","response":null,"trial_type":"html-keyboard-response","trial_index":47,"time_elapsed":661477,"internal_node_id":"0.0-43.0-0.0","params":{"nStudents":24,"maxFlips":30,"completionMinutes":45,"basePay":8,"maxBonus":9,"perTrialBonus":0.5,"perTrialBonusThreshold":0.05,"exampleCost":0.01},"classroomParams":{"A":{"a":1,"b":4},"B":{"a":4,"b":1},"C":{"a":2,"b":8},"D":{"a":8,"b":2}},"conditions":["nonSeqFull","nonSeqPartial","seqNoFeedback","seqFeedback"],"classroomPairings":[["A","B"],["C","D"]],"coinWeights":[0.2,0.5,0.8],"subjectId":"A2VNSNAN1LZBAM","assignmentId":"35L9RVQFCP425DZNUUPNKRCYQ8AHUF","hitId":"3E9VAUV7BW02QFDK7N7IH7ZKACRYAN","url":"https://gershmanlab.com/experiments/alicia/teaching/experiment/?hitId=3E9VAUV7BW02QFDK7N7IH7ZKACRYAN&workerId=A2VNSNAN1LZBAM&assignmentId=35L9RVQFCP425DZNUUPNKRCYQ8AHUF&a=FRL59&tp_a=FRL59&b=35L9RVQFCP425DZNUUPNKRCYQ8AHUF&tp_b=35L9RVQFCP425DZNUUPNKRCYQ8AHUF&c=365799&tp_c=365799"},{"rt":2718,"stimulus":"\n            <h4 style=\"color:Orange;\">Student 7</h4>\n            <h2>The weight of your coin is <b style=\"color:Tomato;\">0.2</b>.</h2>\n            <p>In this block, you will be giving <b>two</b> sets of examples to Student 7.</p>\n                <p>You will receive feedback at the end of the block.</p>\n            <p></p>","response":0,"trial_type":"html-button-response","trial_index":48,"time_elapsed":664199,"internal_node_id":"0.0-44.0","params":{"nStudents":24,"maxFlips":30,"completionMinutes":45,"basePay":8,"maxBonus":9,"perTrialBonus":0.5,"perTrialBonusThreshold":0.05,"exampleCost":0.01},"classroomParams":{"A":{"a":1,"b":4},"B":{"a":4,"b":1},"C":{"a":2,"b":8},"D":{"a":8,"b":2}},"conditions":["nonSeqFull","nonSeqPartial","seqNoFeedback","seqFeedback"],"classroomPairings":[["A","B"],["C","D"]],"coinWeights":[0.2,0.5,0.8],"subjectId":"A2VNSNAN1LZBAM","assignmentId":"35L9RVQFCP425DZNUUPNKRCYQ8AHUF","hitId":"3E9VAUV7BW02QFDK7N7IH7ZKACRYAN","url":"https://gershmanlab.com/experiments/alicia/teaching/experiment/?hitId=3E9VAUV7BW02QFDK7N7IH7ZKACRYAN&workerId=A2VNSNAN1LZBAM&assignmentId=35L9RVQFCP425DZNUUPNKRCYQ8AHUF&a=FRL59&tp_a=FRL59&b=35L9RVQFCP425DZNUUPNKRCYQ8AHUF&tp_b=35L9RVQFCP425DZNUUPNKRCYQ8AHUF&c=365799&tp_c=365799"},{"rt":8626,"response":{"heads":"20","tails":"5"},"type":"response","condition":"seqNoFeedback","trueTheta":0.2,"classrooms":["A","B"],"studentTrueClassroom":"A","exampleSet":"first","trial_type":"survey-html-form","trial_index":49,"time_elapsed":672829,"internal_node_id":"0.0-45.0-0.0","params":{"nStudents":24,"maxFlips":30,"completionMinutes":45,"basePay":8,"maxBonus":9,"perTrialBonus":0.5,"perTrialBonusThreshold":0.05,"exampleCost":0.01},"classroomParams":{"A":{"a":1,"b":4},"B":{"a":4,"b":1},"C":{"a":2,"b":8},"D":{"a":8,"b":2}},"conditions":["nonSeqFull","nonSeqPartial","seqNoFeedback","seqFeedback"],"classroomPairings":[["A","B"],["C","D"]],"coinWeights":[0.2,0.5,0.8],"subjectId":"A2VNSNAN1LZBAM","assignmentId":"35L9RVQFCP425DZNUUPNKRCYQ8AHUF","hitId":"3E9VAUV7BW02QFDK7N7IH7ZKACRYAN","url":"https://gershmanlab.com/experiments/alicia/teaching/experiment/?hitId=3E9VAUV7BW02QFDK7N7IH7ZKACRYAN&workerId=A2VNSNAN1LZBAM&assignmentId=35L9RVQFCP425DZNUUPNKRCYQ8AHUF&a=FRL59&tp_a=FRL59&b=35L9RVQFCP425DZNUUPNKRCYQ8AHUF&tp_b=35L9RVQFCP425DZNUUPNKRCYQ8AHUF&c=365799&tp_c=365799","heads":20,"tails":5,"studentIndex":6,"studentTrueHypers":{"a":1,"b":4},"studentGuess":0.7,"delta":0.49999999999999994,"totalExamples":25,"bonusSoFar":0.25},{"rt":null,"stimulus":"Sending examples to student... ","response":null,"trial_type":"html-keyboard-response","trial_index":50,"time_elapsed":674086,"internal_node_id":"0.0-46.0","params":{"nStudents":24,"maxFlips":30,"completionMinutes":45,"basePay":8,"maxBonus":9,"perTrialBonus":0.5,"perTrialBonusThreshold":0.05,"exampleCost":0.01},"classroomParams":{"A":{"a":1,"b":4},"B":{"a":4,"b":1},"C":{"a":2,"b":8},"D":{"a":8,"b":2}},"conditions":["nonSeqFull","nonSeqPartial","seqNoFeedback","seqFeedback"],"classroomPairings":[["A","B"],["C","D"]],"coinWeights":[0.2,0.5,0.8],"subjectId":"A2VNSNAN1LZBAM","assignmentId":"35L9RVQFCP425DZNUUPNKRCYQ8AHUF","hitId":"3E9VAUV7BW02QFDK7N7IH7ZKACRYAN","url":"https://gershmanlab.com/experiments/alicia/teaching/experiment/?hitId=3E9VAUV7BW02QFDK7N7IH7ZKACRYAN&workerId=A2VNSNAN1LZBAM&assignmentId=35L9RVQFCP425DZNUUPNKRCYQ8AHUF&a=FRL59&tp_a=FRL59&b=35L9RVQFCP425DZNUUPNKRCYQ8AHUF&tp_b=35L9RVQFCP425DZNUUPNKRCYQ8AHUF&c=365799&tp_c=365799"},{"rt":null,"stimulus":"Examples sent to student! Waiting for student...","response":null,"trial_type":"html-keyboard-response","trial_index":51,"time_elapsed":680091,"internal_node_id":"0.0-47.0","params":{"nStudents":24,"maxFlips":30,"completionMinutes":45,"basePay":8,"maxBonus":9,"perTrialBonus":0.5,"perTrialBonusThreshold":0.05,"exampleCost":0.01},"classroomParams":{"A":{"a":1,"b":4},"B":{"a":4,"b":1},"C":{"a":2,"b":8},"D":{"a":8,"b":2}},"conditions":["nonSeqFull","nonSeqPartial","seqNoFeedback","seqFeedback"],"classroomPairings":[["A","B"],["C","D"]],"coinWeights":[0.2,0.5,0.8],"subjectId":"A2VNSNAN1LZBAM","assignmentId":"35L9RVQFCP425DZNUUPNKRCYQ8AHUF","hitId":"3E9VAUV7BW02QFDK7N7IH7ZKACRYAN","url":"https://gershmanlab.com/experiments/alicia/teaching/experiment/?hitId=3E9VAUV7BW02QFDK7N7IH7ZKACRYAN&workerId=A2VNSNAN1LZBAM&assignmentId=35L9RVQFCP425DZNUUPNKRCYQ8AHUF&a=FRL59&tp_a=FRL59&b=35L9RVQFCP425DZNUUPNKRCYQ8AHUF&tp_b=35L9RVQFCP425DZNUUPNKRCYQ8AHUF&c=365799&tp_c=365799"},{"rt":12069,"response":{"heads":"20","tails":"5"},"type":"response","condition":"seqNoFeedback","trueTheta":0.2,"classrooms":["A","B"],"studentTrueClassroom":"A","exampleSet":"second","trial_type":"survey-html-form","trial_index":52,"time_elapsed":692163,"internal_node_id":"0.0-48.0-0.0","params":{"nStudents":24,"maxFlips":30,"completionMinutes":45,"basePay":8,"maxBonus":9,"perTrialBonus":0.5,"perTrialBonusThreshold":0.05,"exampleCost":0.01},"classroomParams":{"A":{"a":1,"b":4},"B":{"a":4,"b":1},"C":{"a":2,"b":8},"D":{"a":8,"b":2}},"conditions":["nonSeqFull","nonSeqPartial","seqNoFeedback","seqFeedback"],"classroomPairings":[["A","B"],["C","D"]],"coinWeights":[0.2,0.5,0.8],"subjectId":"A2VNSNAN1LZBAM","assignmentId":"35L9RVQFCP425DZNUUPNKRCYQ8AHUF","hitId":"3E9VAUV7BW02QFDK7N7IH7ZKACRYAN","url":"https://gershmanlab.com/experiments/alicia/teaching/experiment/?hitId=3E9VAUV7BW02QFDK7N7IH7ZKACRYAN&workerId=A2VNSNAN1LZBAM&assignmentId=35L9RVQFCP425DZNUUPNKRCYQ8AHUF&a=FRL59&tp_a=FRL59&b=35L9RVQFCP425DZNUUPNKRCYQ8AHUF&tp_b=35L9RVQFCP425DZNUUPNKRCYQ8AHUF&c=365799&tp_c=365799","firstResponseHeads":20,"firstResponseTails":5,"secondResponseHeads":20,"secondResponseTails":5,"totalHeads":40,"totalTails":10,"studentIndex":6,"studentTrueHypers":{"a":1,"b":4},"studentGuess":0.7454545454545455,"delta":0.5454545454545454,"bonus":0,"bonusSoFar":0.25,"totalExamples":50},{"rt":null,"stimulus":"Sending examples to student... ","response":null,"trial_type":"html-keyboard-response","trial_index":53,"time_elapsed":694167,"internal_node_id":"0.0-49.0","params":{"nStudents":24,"maxFlips":30,"completionMinutes":45,"basePay":8,"maxBonus":9,"perTrialBonus":0.5,"perTrialBonusThreshold":0.05,"exampleCost":0.01},"classroomParams":{"A":{"a":1,"b":4},"B":{"a":4,"b":1},"C":{"a":2,"b":8},"D":{"a":8,"b":2}},"conditions":["nonSeqFull","nonSeqPartial","seqNoFeedback","seqFeedback"],"classroomPairings":[["A","B"],["C","D"]],"coinWeights":[0.2,0.5,0.8],"subjectId":"A2VNSNAN1LZBAM","assignmentId":"35L9RVQFCP425DZNUUPNKRCYQ8AHUF","hitId":"3E9VAUV7BW02QFDK7N7IH7ZKACRYAN","url":"https://gershmanlab.com/experiments/alicia/teaching/experiment/?hitId=3E9VAUV7BW02QFDK7N7IH7ZKACRYAN&workerId=A2VNSNAN1LZBAM&assignmentId=35L9RVQFCP425DZNUUPNKRCYQ8AHUF&a=FRL59&tp_a=FRL59&b=35L9RVQFCP425DZNUUPNKRCYQ8AHUF&tp_b=35L9RVQFCP425DZNUUPNKRCYQ8AHUF&c=365799&tp_c=365799"},{"rt":null,"stimulus":"Examples sent to student! Waiting for student...","response":null,"trial_type":"html-keyboard-response","trial_index":54,"time_elapsed":699184,"internal_node_id":"0.0-50.0","params":{"nStudents":24,"maxFlips":30,"completionMinutes":45,"basePay":8,"maxBonus":9,"perTrialBonus":0.5,"perTrialBonusThreshold":0.05,"exampleCost":0.01},"classroomParams":{"A":{"a":1,"b":4},"B":{"a":4,"b":1},"C":{"a":2,"b":8},"D":{"a":8,"b":2}},"conditions":["nonSeqFull","nonSeqPartial","seqNoFeedback","seqFeedback"],"classroomPairings":[["A","B"],["C","D"]],"coinWeights":[0.2,0.5,0.8],"subjectId":"A2VNSNAN1LZBAM","assignmentId":"35L9RVQFCP425DZNUUPNKRCYQ8AHUF","hitId":"3E9VAUV7BW02QFDK7N7IH7ZKACRYAN","url":"https://gershmanlab.com/experiments/alicia/teaching/experiment/?hitId=3E9VAUV7BW02QFDK7N7IH7ZKACRYAN&workerId=A2VNSNAN1LZBAM&assignmentId=35L9RVQFCP425DZNUUPNKRCYQ8AHUF&a=FRL59&tp_a=FRL59&b=35L9RVQFCP425DZNUUPNKRCYQ8AHUF&tp_b=35L9RVQFCP425DZNUUPNKRCYQ8AHUF&c=365799&tp_c=365799"},{"rt":7119,"stimulus":"\n                <p>Student 7's first guess for coin weight: <b style=\"color:Tomato\";>0.70</b></p>\n                <p>Student 7's second guess for coin weight: <b style=\"color:Tomato\";>0.75</b></p>\n                <p>You received a bonus of <b>$0.00</b> based on the student's second guess.</p>\n                <p>Total bonus so far: <b>$0.25</b></p>\n                <p>Press any key to continue.</p>\n                ","response":" ","trial_type":"html-keyboard-response","trial_index":55,"time_elapsed":706305,"internal_node_id":"0.0-51.0","params":{"nStudents":24,"maxFlips":30,"completionMinutes":45,"basePay":8,"maxBonus":9,"perTrialBonus":0.5,"perTrialBonusThreshold":0.05,"exampleCost":0.01},"classroomParams":{"A":{"a":1,"b":4},"B":{"a":4,"b":1},"C":{"a":2,"b":8},"D":{"a":8,"b":2}},"conditions":["nonSeqFull","nonSeqPartial","seqNoFeedback","seqFeedback"],"classroomPairings":[["A","B"],["C","D"]],"coinWeights":[0.2,0.5,0.8],"subjectId":"A2VNSNAN1LZBAM","assignmentId":"35L9RVQFCP425DZNUUPNKRCYQ8AHUF","hitId":"3E9VAUV7BW02QFDK7N7IH7ZKACRYAN","url":"https://gershmanlab.com/experiments/alicia/teaching/experiment/?hitId=3E9VAUV7BW02QFDK7N7IH7ZKACRYAN&workerId=A2VNSNAN1LZBAM&assignmentId=35L9RVQFCP425DZNUUPNKRCYQ8AHUF&a=FRL59&tp_a=FRL59&b=35L9RVQFCP425DZNUUPNKRCYQ8AHUF&tp_b=35L9RVQFCP425DZNUUPNKRCYQ8AHUF&c=365799&tp_c=365799"},{"rt":null,"stimulus":"<div style=\"font-size:60px;\">Next student</div>","response":null,"trial_type":"html-keyboard-response","trial_index":56,"time_elapsed":708813,"internal_node_id":"0.0-52.0-0.0","params":{"nStudents":24,"maxFlips":30,"completionMinutes":45,"basePay":8,"maxBonus":9,"perTrialBonus":0.5,"perTrialBonusThreshold":0.05,"exampleCost":0.01},"classroomParams":{"A":{"a":1,"b":4},"B":{"a":4,"b":1},"C":{"a":2,"b":8},"D":{"a":8,"b":2}},"conditions":["nonSeqFull","nonSeqPartial","seqNoFeedback","seqFeedback"],"classroomPairings":[["A","B"],["C","D"]],"coinWeights":[0.2,0.5,0.8],"subjectId":"A2VNSNAN1LZBAM","assignmentId":"35L9RVQFCP425DZNUUPNKRCYQ8AHUF","hitId":"3E9VAUV7BW02QFDK7N7IH7ZKACRYAN","url":"https://gershmanlab.com/experiments/alicia/teaching/experiment/?hitId=3E9VAUV7BW02QFDK7N7IH7ZKACRYAN&workerId=A2VNSNAN1LZBAM&assignmentId=35L9RVQFCP425DZNUUPNKRCYQ8AHUF&a=FRL59&tp_a=FRL59&b=35L9RVQFCP425DZNUUPNKRCYQ8AHUF&tp_b=35L9RVQFCP425DZNUUPNKRCYQ8AHUF&c=365799&tp_c=365799"},{"rt":1586,"stimulus":"\n            <h4 style=\"color:Orange;\">Student 8</h4>\n            <h2>The weight of your coin is <b style=\"color:Tomato;\">0.5</b>.</h2>\n            <p>In this block, you will be giving <b>two</b> sets of examples to Student 8.</p>\n                <p>You will receive feedback at the end of the block.</p>\n            <p></p>","response":0,"trial_type":"html-button-response","trial_index":57,"time_elapsed":710401,"internal_node_id":"0.0-53.0","params":{"nStudents":24,"maxFlips":30,"completionMinutes":45,"basePay":8,"maxBonus":9,"perTrialBonus":0.5,"perTrialBonusThreshold":0.05,"exampleCost":0.01},"classroomParams":{"A":{"a":1,"b":4},"B":{"a":4,"b":1},"C":{"a":2,"b":8},"D":{"a":8,"b":2}},"conditions":["nonSeqFull","nonSeqPartial","seqNoFeedback","seqFeedback"],"classroomPairings":[["A","B"],["C","D"]],"coinWeights":[0.2,0.5,0.8],"subjectId":"A2VNSNAN1LZBAM","assignmentId":"35L9RVQFCP425DZNUUPNKRCYQ8AHUF","hitId":"3E9VAUV7BW02QFDK7N7IH7ZKACRYAN","url":"https://gershmanlab.com/experiments/alicia/teaching/experiment/?hitId=3E9VAUV7BW02QFDK7N7IH7ZKACRYAN&workerId=A2VNSNAN1LZBAM&assignmentId=35L9RVQFCP425DZNUUPNKRCYQ8AHUF&a=FRL59&tp_a=FRL59&b=35L9RVQFCP425DZNUUPNKRCYQ8AHUF&tp_b=35L9RVQFCP425DZNUUPNKRCYQ8AHUF&c=365799&tp_c=365799"},{"rt":8378,"response":{"heads":"12","tails":"8"},"type":"response","condition":"seqNoFeedback","trueTheta":0.5,"classrooms":["C","D"],"studentTrueClassroom":"C","exampleSet":"first","trial_type":"survey-html-form","trial_index":58,"time_elapsed":718782,"internal_node_id":"0.0-54.0-0.0","params":{"nStudents":24,"maxFlips":30,"completionMinutes":45,"basePay":8,"maxBonus":9,"perTrialBonus":0.5,"perTrialBonusThreshold":0.05,"exampleCost":0.01},"classroomParams":{"A":{"a":1,"b":4},"B":{"a":4,"b":1},"C":{"a":2,"b":8},"D":{"a":8,"b":2}},"conditions":["nonSeqFull","nonSeqPartial","seqNoFeedback","seqFeedback"],"classroomPairings":[["A","B"],["C","D"]],"coinWeights":[0.2,0.5,0.8],"subjectId":"A2VNSNAN1LZBAM","assignmentId":"35L9RVQFCP425DZNUUPNKRCYQ8AHUF","hitId":"3E9VAUV7BW02QFDK7N7IH7ZKACRYAN","url":"https://gershmanlab.com/experiments/alicia/teaching/experiment/?hitId=3E9VAUV7BW02QFDK7N7IH7ZKACRYAN&workerId=A2VNSNAN1LZBAM&assignmentId=35L9RVQFCP425DZNUUPNKRCYQ8AHUF&a=FRL59&tp_a=FRL59&b=35L9RVQFCP425DZNUUPNKRCYQ8AHUF&tp_b=35L9RVQFCP425DZNUUPNKRCYQ8AHUF&c=365799&tp_c=365799","heads":12,"tails":8,"studentIndex":7,"studentTrueHypers":{"a":2,"b":8},"studentGuess":0.4666666666666667,"delta":0.033333333333333326,"totalExamples":20,"bonusSoFar":0.25},{"rt":null,"stimulus":"Sending examples to student... ","response":null,"trial_type":"html-keyboard-response","trial_index":59,"time_elapsed":720797,"internal_node_id":"0.0-55.0","params":{"nStudents":24,"maxFlips":30,"completionMinutes":45,"basePay":8,"maxBonus":9,"perTrialBonus":0.5,"perTrialBonusThreshold":0.05,"exampleCost":0.01},"classroomParams":{"A":{"a":1,"b":4},"B":{"a":4,"b":1},"C":{"a":2,"b":8},"D":{"a":8,"b":2}},"conditions":["nonSeqFull","nonSeqPartial","seqNoFeedback","seqFeedback"],"classroomPairings":[["A","B"],["C","D"]],"coinWeights":[0.2,0.5,0.8],"subjectId":"A2VNSNAN1LZBAM","assignmentId":"35L9RVQFCP425DZNUUPNKRCYQ8AHUF","hitId":"3E9VAUV7BW02QFDK7N7IH7ZKACRYAN","url":"https://gershmanlab.com/experiments/alicia/teaching/experiment/?hitId=3E9VAUV7BW02QFDK7N7IH7ZKACRYAN&workerId=A2VNSNAN1LZBAM&assignmentId=35L9RVQFCP425DZNUUPNKRCYQ8AHUF&a=FRL59&tp_a=FRL59&b=35L9RVQFCP425DZNUUPNKRCYQ8AHUF&tp_b=35L9RVQFCP425DZNUUPNKRCYQ8AHUF&c=365799&tp_c=365799"},{"rt":null,"stimulus":"Examples sent to student! Waiting for student...","response":null,"trial_type":"html-keyboard-response","trial_index":60,"time_elapsed":724814,"internal_node_id":"0.0-56.0","params":{"nStudents":24,"maxFlips":30,"completionMinutes":45,"basePay":8,"maxBonus":9,"perTrialBonus":0.5,"perTrialBonusThreshold":0.05,"exampleCost":0.01},"classroomParams":{"A":{"a":1,"b":4},"B":{"a":4,"b":1},"C":{"a":2,"b":8},"D":{"a":8,"b":2}},"conditions":["nonSeqFull","nonSeqPartial","seqNoFeedback","seqFeedback"],"classroomPairings":[["A","B"],["C","D"]],"coinWeights":[0.2,0.5,0.8],"subjectId":"A2VNSNAN1LZBAM","assignmentId":"35L9RVQFCP425DZNUUPNKRCYQ8AHUF","hitId":"3E9VAUV7BW02QFDK7N7IH7ZKACRYAN","url":"https://gershmanlab.com/experiments/alicia/teaching/experiment/?hitId=3E9VAUV7BW02QFDK7N7IH7ZKACRYAN&workerId=A2VNSNAN1LZBAM&assignmentId=35L9RVQFCP425DZNUUPNKRCYQ8AHUF&a=FRL59&tp_a=FRL59&b=35L9RVQFCP425DZNUUPNKRCYQ8AHUF&tp_b=35L9RVQFCP425DZNUUPNKRCYQ8AHUF&c=365799&tp_c=365799"},{"rt":14147,"response":{"heads":"10","tails":"15"},"type":"response","condition":"seqNoFeedback","trueTheta":0.5,"classrooms":["C","D"],"studentTrueClassroom":"C","exampleSet":"second","trial_type":"survey-html-form","trial_index":61,"time_elapsed":738965,"internal_node_id":"0.0-57.0-0.0","params":{"nStudents":24,"maxFlips":30,"completionMinutes":45,"basePay":8,"maxBonus":9,"perTrialBonus":0.5,"perTrialBonusThreshold":0.05,"exampleCost":0.01},"classroomParams":{"A":{"a":1,"b":4},"B":{"a":4,"b":1},"C":{"a":2,"b":8},"D":{"a":8,"b":2}},"conditions":["nonSeqFull","nonSeqPartial","seqNoFeedback","seqFeedback"],"classroomPairings":[["A","B"],["C","D"]],"coinWeights":[0.2,0.5,0.8],"subjectId":"A2VNSNAN1LZBAM","assignmentId":"35L9RVQFCP425DZNUUPNKRCYQ8AHUF","hitId":"3E9VAUV7BW02QFDK7N7IH7ZKACRYAN","url":"https://gershmanlab.com/experiments/alicia/teaching/experiment/?hitId=3E9VAUV7BW02QFDK7N7IH7ZKACRYAN&workerId=A2VNSNAN1LZBAM&assignmentId=35L9RVQFCP425DZNUUPNKRCYQ8AHUF&a=FRL59&tp_a=FRL59&b=35L9RVQFCP425DZNUUPNKRCYQ8AHUF&tp_b=35L9RVQFCP425DZNUUPNKRCYQ8AHUF&c=365799&tp_c=365799","firstResponseHeads":12,"firstResponseTails":8,"secondResponseHeads":10,"secondResponseTails":15,"totalHeads":22,"totalTails":23,"studentIndex":7,"studentTrueHypers":{"a":2,"b":8},"studentGuess":0.43636363636363634,"delta":0.06363636363636366,"bonus":0,"bonusSoFar":0.25,"totalExamples":45},{"rt":null,"stimulus":"Sending examples to student... ","response":null,"trial_type":"html-keyboard-response","trial_index":62,"time_elapsed":740228,"internal_node_id":"0.0-58.0","params":{"nStudents":24,"maxFlips":30,"completionMinutes":45,"basePay":8,"maxBonus":9,"perTrialBonus":0.5,"perTrialBonusThreshold":0.05,"exampleCost":0.01},"classroomParams":{"A":{"a":1,"b":4},"B":{"a":4,"b":1},"C":{"a":2,"b":8},"D":{"a":8,"b":2}},"conditions":["nonSeqFull","nonSeqPartial","seqNoFeedback","seqFeedback"],"classroomPairings":[["A","B"],["C","D"]],"coinWeights":[0.2,0.5,0.8],"subjectId":"A2VNSNAN1LZBAM","assignmentId":"35L9RVQFCP425DZNUUPNKRCYQ8AHUF","hitId":"3E9VAUV7BW02QFDK7N7IH7ZKACRYAN","url":"https://gershmanlab.com/experiments/alicia/teaching/experiment/?hitId=3E9VAUV7BW02QFDK7N7IH7ZKACRYAN&workerId=A2VNSNAN1LZBAM&assignmentId=35L9RVQFCP425DZNUUPNKRCYQ8AHUF&a=FRL59&tp_a=FRL59&b=35L9RVQFCP425DZNUUPNKRCYQ8AHUF&tp_b=35L9RVQFCP425DZNUUPNKRCYQ8AHUF&c=365799&tp_c=365799"},{"rt":null,"stimulus":"Examples sent to student! Waiting for student...","response":null,"trial_type":"html-keyboard-response","trial_index":63,"time_elapsed":744232,"internal_node_id":"0.0-59.0","params":{"nStudents":24,"maxFlips":30,"completionMinutes":45,"basePay":8,"maxBonus":9,"perTrialBonus":0.5,"perTrialBonusThreshold":0.05,"exampleCost":0.01},"classroomParams":{"A":{"a":1,"b":4},"B":{"a":4,"b":1},"C":{"a":2,"b":8},"D":{"a":8,"b":2}},"conditions":["nonSeqFull","nonSeqPartial","seqNoFeedback","seqFeedback"],"classroomPairings":[["A","B"],["C","D"]],"coinWeights":[0.2,0.5,0.8],"subjectId":"A2VNSNAN1LZBAM","assignmentId":"35L9RVQFCP425DZNUUPNKRCYQ8AHUF","hitId":"3E9VAUV7BW02QFDK7N7IH7ZKACRYAN","url":"https://gershmanlab.com/experiments/alicia/teaching/experiment/?hitId=3E9VAUV7BW02QFDK7N7IH7ZKACRYAN&workerId=A2VNSNAN1LZBAM&assignmentId=35L9RVQFCP425DZNUUPNKRCYQ8AHUF&a=FRL59&tp_a=FRL59&b=35L9RVQFCP425DZNUUPNKRCYQ8AHUF&tp_b=35L9RVQFCP425DZNUUPNKRCYQ8AHUF&c=365799&tp_c=365799"},{"rt":3472,"stimulus":"\n                <p>Student 8's first guess for coin weight: <b style=\"color:Tomato\";>0.47</b></p>\n                <p>Student 8's second guess for coin weight: <b style=\"color:Tomato\";>0.44</b></p>\n                <p>You received a bonus of <b>$0.00</b> based on the student's second guess.</p>\n                <p>Total bonus so far: <b>$0.25</b></p>\n                <p>Press any key to continue.</p>\n                ","response":" ","trial_type":"html-keyboard-response","trial_index":64,"time_elapsed":747705,"internal_node_id":"0.0-60.0","params":{"nStudents":24,"maxFlips":30,"completionMinutes":45,"basePay":8,"maxBonus":9,"perTrialBonus":0.5,"perTrialBonusThreshold":0.05,"exampleCost":0.01},"classroomParams":{"A":{"a":1,"b":4},"B":{"a":4,"b":1},"C":{"a":2,"b":8},"D":{"a":8,"b":2}},"conditions":["nonSeqFull","nonSeqPartial","seqNoFeedback","seqFeedback"],"classroomPairings":[["A","B"],["C","D"]],"coinWeights":[0.2,0.5,0.8],"subjectId":"A2VNSNAN1LZBAM","assignmentId":"35L9RVQFCP425DZNUUPNKRCYQ8AHUF","hitId":"3E9VAUV7BW02QFDK7N7IH7ZKACRYAN","url":"https://gershmanlab.com/experiments/alicia/teaching/experiment/?hitId=3E9VAUV7BW02QFDK7N7IH7ZKACRYAN&workerId=A2VNSNAN1LZBAM&assignmentId=35L9RVQFCP425DZNUUPNKRCYQ8AHUF&a=FRL59&tp_a=FRL59&b=35L9RVQFCP425DZNUUPNKRCYQ8AHUF&tp_b=35L9RVQFCP425DZNUUPNKRCYQ8AHUF&c=365799&tp_c=365799"},{"rt":null,"stimulus":"<div style=\"font-size:60px;\">Next student</div>","response":null,"trial_type":"html-keyboard-response","trial_index":65,"time_elapsed":749708,"internal_node_id":"0.0-61.0-0.0","params":{"nStudents":24,"maxFlips":30,"completionMinutes":45,"basePay":8,"maxBonus":9,"perTrialBonus":0.5,"perTrialBonusThreshold":0.05,"exampleCost":0.01},"classroomParams":{"A":{"a":1,"b":4},"B":{"a":4,"b":1},"C":{"a":2,"b":8},"D":{"a":8,"b":2}},"conditions":["nonSeqFull","nonSeqPartial","seqNoFeedback","seqFeedback"],"classroomPairings":[["A","B"],["C","D"]],"coinWeights":[0.2,0.5,0.8],"subjectId":"A2VNSNAN1LZBAM","assignmentId":"35L9RVQFCP425DZNUUPNKRCYQ8AHUF","hitId":"3E9VAUV7BW02QFDK7N7IH7ZKACRYAN","url":"https://gershmanlab.com/experiments/alicia/teaching/experiment/?hitId=3E9VAUV7BW02QFDK7N7IH7ZKACRYAN&workerId=A2VNSNAN1LZBAM&assignmentId=35L9RVQFCP425DZNUUPNKRCYQ8AHUF&a=FRL59&tp_a=FRL59&b=35L9RVQFCP425DZNUUPNKRCYQ8AHUF&tp_b=35L9RVQFCP425DZNUUPNKRCYQ8AHUF&c=365799&tp_c=365799"},{"rt":2271,"stimulus":"\n            <h4 style=\"color:Orange;\">Student 9</h4>\n            <h2>The weight of your coin is <b style=\"color:Tomato;\">0.2</b>.</h2>\n            <p>In this block, you will be giving <b>one</b> set of examples to Student 9.</p>\n                <p>You will receive feedback at the end of the block.</p>\n            <p></p>","response":0,"trial_type":"html-button-response","trial_index":66,"time_elapsed":751981,"internal_node_id":"0.0-62.0","params":{"nStudents":24,"maxFlips":30,"completionMinutes":45,"basePay":8,"maxBonus":9,"perTrialBonus":0.5,"perTrialBonusThreshold":0.05,"exampleCost":0.01},"classroomParams":{"A":{"a":1,"b":4},"B":{"a":4,"b":1},"C":{"a":2,"b":8},"D":{"a":8,"b":2}},"conditions":["nonSeqFull","nonSeqPartial","seqNoFeedback","seqFeedback"],"classroomPairings":[["A","B"],["C","D"]],"coinWeights":[0.2,0.5,0.8],"subjectId":"A2VNSNAN1LZBAM","assignmentId":"35L9RVQFCP425DZNUUPNKRCYQ8AHUF","hitId":"3E9VAUV7BW02QFDK7N7IH7ZKACRYAN","url":"https://gershmanlab.com/experiments/alicia/teaching/experiment/?hitId=3E9VAUV7BW02QFDK7N7IH7ZKACRYAN&workerId=A2VNSNAN1LZBAM&assignmentId=35L9RVQFCP425DZNUUPNKRCYQ8AHUF&a=FRL59&tp_a=FRL59&b=35L9RVQFCP425DZNUUPNKRCYQ8AHUF&tp_b=35L9RVQFCP425DZNUUPNKRCYQ8AHUF&c=365799&tp_c=365799"},{"rt":10569,"response":{"heads":"5","tails":"15"},"type":"response","condition":"nonSeqFull","trueTheta":0.2,"classrooms":["A","B"],"studentTrueClassroom":"B","exampleSet":"first","trial_type":"survey-html-form","trial_index":67,"time_elapsed":762553,"internal_node_id":"0.0-63.0-0.0","params":{"nStudents":24,"maxFlips":30,"completionMinutes":45,"basePay":8,"maxBonus":9,"perTrialBonus":0.5,"perTrialBonusThreshold":0.05,"exampleCost":0.01},"classroomParams":{"A":{"a":1,"b":4},"B":{"a":4,"b":1},"C":{"a":2,"b":8},"D":{"a":8,"b":2}},"conditions":["nonSeqFull","nonSeqPartial","seqNoFeedback","seqFeedback"],"classroomPairings":[["A","B"],["C","D"]],"coinWeights":[0.2,0.5,0.8],"subjectId":"A2VNSNAN1LZBAM","assignmentId":"35L9RVQFCP425DZNUUPNKRCYQ8AHUF","hitId":"3E9VAUV7BW02QFDK7N7IH7ZKACRYAN","url":"https://gershmanlab.com/experiments/alicia/teaching/experiment/?hitId=3E9VAUV7BW02QFDK7N7IH7ZKACRYAN&workerId=A2VNSNAN1LZBAM&assignmentId=35L9RVQFCP425DZNUUPNKRCYQ8AHUF&a=FRL59&tp_a=FRL59&b=35L9RVQFCP425DZNUUPNKRCYQ8AHUF&tp_b=35L9RVQFCP425DZNUUPNKRCYQ8AHUF&c=365799&tp_c=365799","heads":5,"tails":15,"studentIndex":8,"studentTrueHypers":{"a":4,"b":1},"studentGuess":0.36,"delta":0.15999999999999998,"totalExamples":20,"bonus":0,"bonusSoFar":0.25},{"rt":null,"stimulus":"Sending examples to student... ","response":null,"trial_type":"html-keyboard-response","trial_index":68,"time_elapsed":764555,"internal_node_id":"0.0-64.0","params":{"nStudents":24,"maxFlips":30,"completionMinutes":45,"basePay":8,"maxBonus":9,"perTrialBonus":0.5,"perTrialBonusThreshold":0.05,"exampleCost":0.01},"classroomParams":{"A":{"a":1,"b":4},"B":{"a":4,"b":1},"C":{"a":2,"b":8},"D":{"a":8,"b":2}},"conditions":["nonSeqFull","nonSeqPartial","seqNoFeedback","seqFeedback"],"classroomPairings":[["A","B"],["C","D"]],"coinWeights":[0.2,0.5,0.8],"subjectId":"A2VNSNAN1LZBAM","assignmentId":"35L9RVQFCP425DZNUUPNKRCYQ8AHUF","hitId":"3E9VAUV7BW02QFDK7N7IH7ZKACRYAN","url":"https://gershmanlab.com/experiments/alicia/teaching/experiment/?hitId=3E9VAUV7BW02QFDK7N7IH7ZKACRYAN&workerId=A2VNSNAN1LZBAM&assignmentId=35L9RVQFCP425DZNUUPNKRCYQ8AHUF&a=FRL59&tp_a=FRL59&b=35L9RVQFCP425DZNUUPNKRCYQ8AHUF&tp_b=35L9RVQFCP425DZNUUPNKRCYQ8AHUF&c=365799&tp_c=365799"},{"rt":null,"stimulus":"Examples sent to student! Waiting for student...","response":null,"trial_type":"html-keyboard-response","trial_index":69,"time_elapsed":770068,"internal_node_id":"0.0-65.0","params":{"nStudents":24,"maxFlips":30,"completionMinutes":45,"basePay":8,"maxBonus":9,"perTrialBonus":0.5,"perTrialBonusThreshold":0.05,"exampleCost":0.01},"classroomParams":{"A":{"a":1,"b":4},"B":{"a":4,"b":1},"C":{"a":2,"b":8},"D":{"a":8,"b":2}},"conditions":["nonSeqFull","nonSeqPartial","seqNoFeedback","seqFeedback"],"classroomPairings":[["A","B"],["C","D"]],"coinWeights":[0.2,0.5,0.8],"subjectId":"A2VNSNAN1LZBAM","assignmentId":"35L9RVQFCP425DZNUUPNKRCYQ8AHUF","hitId":"3E9VAUV7BW02QFDK7N7IH7ZKACRYAN","url":"https://gershmanlab.com/experiments/alicia/teaching/experiment/?hitId=3E9VAUV7BW02QFDK7N7IH7ZKACRYAN&workerId=A2VNSNAN1LZBAM&assignmentId=35L9RVQFCP425DZNUUPNKRCYQ8AHUF&a=FRL59&tp_a=FRL59&b=35L9RVQFCP425DZNUUPNKRCYQ8AHUF&tp_b=35L9RVQFCP425DZNUUPNKRCYQ8AHUF&c=365799&tp_c=365799"},{"rt":3383,"stimulus":"\n                <p>Student's guess for coin weight: <b style=\"color:Tomato;\">0.36</b></p>\n                <p>You received a bonus of <b>$0</b>. Total bonus so far: <b>$0.25</b></b></p>\n                <p></p>\n                <p>Press any key to continue.</p>\n                ","response":" ","trial_type":"html-keyboard-response","trial_index":70,"time_elapsed":773453,"internal_node_id":"0.0-66.0","params":{"nStudents":24,"maxFlips":30,"completionMinutes":45,"basePay":8,"maxBonus":9,"perTrialBonus":0.5,"perTrialBonusThreshold":0.05,"exampleCost":0.01},"classroomParams":{"A":{"a":1,"b":4},"B":{"a":4,"b":1},"C":{"a":2,"b":8},"D":{"a":8,"b":2}},"conditions":["nonSeqFull","nonSeqPartial","seqNoFeedback","seqFeedback"],"classroomPairings":[["A","B"],["C","D"]],"coinWeights":[0.2,0.5,0.8],"subjectId":"A2VNSNAN1LZBAM","assignmentId":"35L9RVQFCP425DZNUUPNKRCYQ8AHUF","hitId":"3E9VAUV7BW02QFDK7N7IH7ZKACRYAN","url":"https://gershmanlab.com/experiments/alicia/teaching/experiment/?hitId=3E9VAUV7BW02QFDK7N7IH7ZKACRYAN&workerId=A2VNSNAN1LZBAM&assignmentId=35L9RVQFCP425DZNUUPNKRCYQ8AHUF&a=FRL59&tp_a=FRL59&b=35L9RVQFCP425DZNUUPNKRCYQ8AHUF&tp_b=35L9RVQFCP425DZNUUPNKRCYQ8AHUF&c=365799&tp_c=365799"},{"rt":null,"stimulus":"<div style=\"font-size:60px;\">Next student</div>","response":null,"trial_type":"html-keyboard-response","trial_index":71,"time_elapsed":775704,"internal_node_id":"0.0-67.0-0.0","params":{"nStudents":24,"maxFlips":30,"completionMinutes":45,"basePay":8,"maxBonus":9,"perTrialBonus":0.5,"perTrialBonusThreshold":0.05,"exampleCost":0.01},"classroomParams":{"A":{"a":1,"b":4},"B":{"a":4,"b":1},"C":{"a":2,"b":8},"D":{"a":8,"b":2}},"conditions":["nonSeqFull","nonSeqPartial","seqNoFeedback","seqFeedback"],"classroomPairings":[["A","B"],["C","D"]],"coinWeights":[0.2,0.5,0.8],"subjectId":"A2VNSNAN1LZBAM","assignmentId":"35L9RVQFCP425DZNUUPNKRCYQ8AHUF","hitId":"3E9VAUV7BW02QFDK7N7IH7ZKACRYAN","url":"https://gershmanlab.com/experiments/alicia/teaching/experiment/?hitId=3E9VAUV7BW02QFDK7N7IH7ZKACRYAN&workerId=A2VNSNAN1LZBAM&assignmentId=35L9RVQFCP425DZNUUPNKRCYQ8AHUF&a=FRL59&tp_a=FRL59&b=35L9RVQFCP425DZNUUPNKRCYQ8AHUF&tp_b=35L9RVQFCP425DZNUUPNKRCYQ8AHUF&c=365799&tp_c=365799"},{"rt":2095,"stimulus":"\n            <h4 style=\"color:Orange;\">Student 10</h4>\n            <h2>The weight of your coin is <b style=\"color:Tomato;\">0.5</b>.</h2>\n            <p>In this block, you will be giving <b>one</b> set of examples to Student 10.</p>\n                <p>You will receive feedback at the end of the block.</p>\n            <p></p>","response":0,"trial_type":"html-button-response","trial_index":72,"time_elapsed":777801,"internal_node_id":"0.0-68.0","params":{"nStudents":24,"maxFlips":30,"completionMinutes":45,"basePay":8,"maxBonus":9,"perTrialBonus":0.5,"perTrialBonusThreshold":0.05,"exampleCost":0.01},"classroomParams":{"A":{"a":1,"b":4},"B":{"a":4,"b":1},"C":{"a":2,"b":8},"D":{"a":8,"b":2}},"conditions":["nonSeqFull","nonSeqPartial","seqNoFeedback","seqFeedback"],"classroomPairings":[["A","B"],["C","D"]],"coinWeights":[0.2,0.5,0.8],"subjectId":"A2VNSNAN1LZBAM","assignmentId":"35L9RVQFCP425DZNUUPNKRCYQ8AHUF","hitId":"3E9VAUV7BW02QFDK7N7IH7ZKACRYAN","url":"https://gershmanlab.com/experiments/alicia/teaching/experiment/?hitId=3E9VAUV7BW02QFDK7N7IH7ZKACRYAN&workerId=A2VNSNAN1LZBAM&assignmentId=35L9RVQFCP425DZNUUPNKRCYQ8AHUF&a=FRL59&tp_a=FRL59&b=35L9RVQFCP425DZNUUPNKRCYQ8AHUF&tp_b=35L9RVQFCP425DZNUUPNKRCYQ8AHUF&c=365799&tp_c=365799"},{"rt":16103,"response":{"heads":"15","tails":"15"},"type":"response","condition":"nonSeqPartial","trueTheta":0.5,"classrooms":["A","B"],"studentTrueClassroom":"A","exampleSet":"first","trial_type":"survey-html-form","trial_index":73,"time_elapsed":793907,"internal_node_id":"0.0-69.0-0.0","params":{"nStudents":24,"maxFlips":30,"completionMinutes":45,"basePay":8,"maxBonus":9,"perTrialBonus":0.5,"perTrialBonusThreshold":0.05,"exampleCost":0.01},"classroomParams":{"A":{"a":1,"b":4},"B":{"a":4,"b":1},"C":{"a":2,"b":8},"D":{"a":8,"b":2}},"conditions":["nonSeqFull","nonSeqPartial","seqNoFeedback","seqFeedback"],"classroomPairings":[["A","B"],["C","D"]],"coinWeights":[0.2,0.5,0.8],"subjectId":"A2VNSNAN1LZBAM","assignmentId":"35L9RVQFCP425DZNUUPNKRCYQ8AHUF","hitId":"3E9VAUV7BW02QFDK7N7IH7ZKACRYAN","url":"https://gershmanlab.com/experiments/alicia/teaching/experiment/?hitId=3E9VAUV7BW02QFDK7N7IH7ZKACRYAN&workerId=A2VNSNAN1LZBAM&assignmentId=35L9RVQFCP425DZNUUPNKRCYQ8AHUF&a=FRL59&tp_a=FRL59&b=35L9RVQFCP425DZNUUPNKRCYQ8AHUF&tp_b=35L9RVQFCP425DZNUUPNKRCYQ8AHUF&c=365799&tp_c=365799","heads":15,"tails":15,"studentIndex":9,"studentTrueHypers":{"a":1,"b":4},"studentGuess":0.45714285714285713,"delta":0.04285714285714287,"totalExamples":30,"bonus":0.2,"bonusSoFar":0.45},{"rt":null,"stimulus":"Sending examples to student... ","response":null,"trial_type":"html-keyboard-response","trial_index":74,"time_elapsed":795914,"internal_node_id":"0.0-70.0","params":{"nStudents":24,"maxFlips":30,"completionMinutes":45,"basePay":8,"maxBonus":9,"perTrialBonus":0.5,"perTrialBonusThreshold":0.05,"exampleCost":0.01},"classroomParams":{"A":{"a":1,"b":4},"B":{"a":4,"b":1},"C":{"a":2,"b":8},"D":{"a":8,"b":2}},"conditions":["nonSeqFull","nonSeqPartial","seqNoFeedback","seqFeedback"],"classroomPairings":[["A","B"],["C","D"]],"coinWeights":[0.2,0.5,0.8],"subjectId":"A2VNSNAN1LZBAM","assignmentId":"35L9RVQFCP425DZNUUPNKRCYQ8AHUF","hitId":"3E9VAUV7BW02QFDK7N7IH7ZKACRYAN","url":"https://gershmanlab.com/experiments/alicia/teaching/experiment/?hitId=3E9VAUV7BW02QFDK7N7IH7ZKACRYAN&workerId=A2VNSNAN1LZBAM&assignmentId=35L9RVQFCP425DZNUUPNKRCYQ8AHUF&a=FRL59&tp_a=FRL59&b=35L9RVQFCP425DZNUUPNKRCYQ8AHUF&tp_b=35L9RVQFCP425DZNUUPNKRCYQ8AHUF&c=365799&tp_c=365799"},{"rt":null,"stimulus":"Examples sent to student! Waiting for student...","response":null,"trial_type":"html-keyboard-response","trial_index":75,"time_elapsed":801428,"internal_node_id":"0.0-71.0","params":{"nStudents":24,"maxFlips":30,"completionMinutes":45,"basePay":8,"maxBonus":9,"perTrialBonus":0.5,"perTrialBonusThreshold":0.05,"exampleCost":0.01},"classroomParams":{"A":{"a":1,"b":4},"B":{"a":4,"b":1},"C":{"a":2,"b":8},"D":{"a":8,"b":2}},"conditions":["nonSeqFull","nonSeqPartial","seqNoFeedback","seqFeedback"],"classroomPairings":[["A","B"],["C","D"]],"coinWeights":[0.2,0.5,0.8],"subjectId":"A2VNSNAN1LZBAM","assignmentId":"35L9RVQFCP425DZNUUPNKRCYQ8AHUF","hitId":"3E9VAUV7BW02QFDK7N7IH7ZKACRYAN","url":"https://gershmanlab.com/experiments/alicia/teaching/experiment/?hitId=3E9VAUV7BW02QFDK7N7IH7ZKACRYAN&workerId=A2VNSNAN1LZBAM&assignmentId=35L9RVQFCP425DZNUUPNKRCYQ8AHUF&a=FRL59&tp_a=FRL59&b=35L9RVQFCP425DZNUUPNKRCYQ8AHUF&tp_b=35L9RVQFCP425DZNUUPNKRCYQ8AHUF&c=365799&tp_c=365799"},{"rt":3547,"stimulus":"\n                <p>Student's guess for coin weight: <b style=\"color:Tomato;\">0.46</b></p>\n                <p>You received a bonus of <b>$0.2</b>. Total bonus so far: <b>$0.45</b></b></p>\n                <p></p>\n                <p>Press any key to continue.</p>\n                ","response":" ","trial_type":"html-keyboard-response","trial_index":76,"time_elapsed":804976,"internal_node_id":"0.0-72.0","params":{"nStudents":24,"maxFlips":30,"completionMinutes":45,"basePay":8,"maxBonus":9,"perTrialBonus":0.5,"perTrialBonusThreshold":0.05,"exampleCost":0.01},"classroomParams":{"A":{"a":1,"b":4},"B":{"a":4,"b":1},"C":{"a":2,"b":8},"D":{"a":8,"b":2}},"conditions":["nonSeqFull","nonSeqPartial","seqNoFeedback","seqFeedback"],"classroomPairings":[["A","B"],["C","D"]],"coinWeights":[0.2,0.5,0.8],"subjectId":"A2VNSNAN1LZBAM","assignmentId":"35L9RVQFCP425DZNUUPNKRCYQ8AHUF","hitId":"3E9VAUV7BW02QFDK7N7IH7ZKACRYAN","url":"https://gershmanlab.com/experiments/alicia/teaching/experiment/?hitId=3E9VAUV7BW02QFDK7N7IH7ZKACRYAN&workerId=A2VNSNAN1LZBAM&assignmentId=35L9RVQFCP425DZNUUPNKRCYQ8AHUF&a=FRL59&tp_a=FRL59&b=35L9RVQFCP425DZNUUPNKRCYQ8AHUF&tp_b=35L9RVQFCP425DZNUUPNKRCYQ8AHUF&c=365799&tp_c=365799"},{"rt":null,"stimulus":"<div style=\"font-size:60px;\">Next student</div>","response":null,"trial_type":"html-keyboard-response","trial_index":77,"time_elapsed":807493,"internal_node_id":"0.0-73.0-0.0","params":{"nStudents":24,"maxFlips":30,"completionMinutes":45,"basePay":8,"maxBonus":9,"perTrialBonus":0.5,"perTrialBonusThreshold":0.05,"exampleCost":0.01},"classroomParams":{"A":{"a":1,"b":4},"B":{"a":4,"b":1},"C":{"a":2,"b":8},"D":{"a":8,"b":2}},"conditions":["nonSeqFull","nonSeqPartial","seqNoFeedback","seqFeedback"],"classroomPairings":[["A","B"],["C","D"]],"coinWeights":[0.2,0.5,0.8],"subjectId":"A2VNSNAN1LZBAM","assignmentId":"35L9RVQFCP425DZNUUPNKRCYQ8AHUF","hitId":"3E9VAUV7BW02QFDK7N7IH7ZKACRYAN","url":"https://gershmanlab.com/experiments/alicia/teaching/experiment/?hitId=3E9VAUV7BW02QFDK7N7IH7ZKACRYAN&workerId=A2VNSNAN1LZBAM&assignmentId=35L9RVQFCP425DZNUUPNKRCYQ8AHUF&a=FRL59&tp_a=FRL59&b=35L9RVQFCP425DZNUUPNKRCYQ8AHUF&tp_b=35L9RVQFCP425DZNUUPNKRCYQ8AHUF&c=365799&tp_c=365799"},{"rt":1956,"stimulus":"\n            <h4 style=\"color:Orange;\">Student 11</h4>\n            <h2>The weight of your coin is <b style=\"color:Tomato;\">0.5</b>.</h2>\n            <p>In this block, you will be giving <b>one</b> set of examples to Student 11.</p>\n                <p>You will receive feedback at the end of the block.</p>\n            <p></p>","response":0,"trial_type":"html-button-response","trial_index":78,"time_elapsed":809451,"internal_node_id":"0.0-74.0","params":{"nStudents":24,"maxFlips":30,"completionMinutes":45,"basePay":8,"maxBonus":9,"perTrialBonus":0.5,"perTrialBonusThreshold":0.05,"exampleCost":0.01},"classroomParams":{"A":{"a":1,"b":4},"B":{"a":4,"b":1},"C":{"a":2,"b":8},"D":{"a":8,"b":2}},"conditions":["nonSeqFull","nonSeqPartial","seqNoFeedback","seqFeedback"],"classroomPairings":[["A","B"],["C","D"]],"coinWeights":[0.2,0.5,0.8],"subjectId":"A2VNSNAN1LZBAM","assignmentId":"35L9RVQFCP425DZNUUPNKRCYQ8AHUF","hitId":"3E9VAUV7BW02QFDK7N7IH7ZKACRYAN","url":"https://gershmanlab.com/experiments/alicia/teaching/experiment/?hitId=3E9VAUV7BW02QFDK7N7IH7ZKACRYAN&workerId=A2VNSNAN1LZBAM&assignmentId=35L9RVQFCP425DZNUUPNKRCYQ8AHUF&a=FRL59&tp_a=FRL59&b=35L9RVQFCP425DZNUUPNKRCYQ8AHUF&tp_b=35L9RVQFCP425DZNUUPNKRCYQ8AHUF&c=365799&tp_c=365799"},{"rt":12064,"response":{"heads":"8","tails":"10"},"type":"response","condition":"nonSeqPartial","trueTheta":0.5,"classrooms":["C","D"],"studentTrueClassroom":"D","exampleSet":"first","trial_type":"survey-html-form","trial_index":79,"time_elapsed":821518,"internal_node_id":"0.0-75.0-0.0","params":{"nStudents":24,"maxFlips":30,"completionMinutes":45,"basePay":8,"maxBonus":9,"perTrialBonus":0.5,"perTrialBonusThreshold":0.05,"exampleCost":0.01},"classroomParams":{"A":{"a":1,"b":4},"B":{"a":4,"b":1},"C":{"a":2,"b":8},"D":{"a":8,"b":2}},"conditions":["nonSeqFull","nonSeqPartial","seqNoFeedback","seqFeedback"],"classroomPairings":[["A","B"],["C","D"]],"coinWeights":[0.2,0.5,0.8],"subjectId":"A2VNSNAN1LZBAM","assignmentId":"35L9RVQFCP425DZNUUPNKRCYQ8AHUF","hitId":"3E9VAUV7BW02QFDK7N7IH7ZKACRYAN","url":"https://gershmanlab.com/experiments/alicia/teaching/experiment/?hitId=3E9VAUV7BW02QFDK7N7IH7ZKACRYAN&workerId=A2VNSNAN1LZBAM&assignmentId=35L9RVQFCP425DZNUUPNKRCYQ8AHUF&a=FRL59&tp_a=FRL59&b=35L9RVQFCP425DZNUUPNKRCYQ8AHUF&tp_b=35L9RVQFCP425DZNUUPNKRCYQ8AHUF&c=365799&tp_c=365799","heads":8,"tails":10,"studentIndex":10,"studentTrueHypers":{"a":8,"b":2},"studentGuess":0.5714285714285714,"delta":0.0714285714285714,"totalExamples":18,"bonus":0,"bonusSoFar":0.45},{"rt":null,"stimulus":"Sending examples to student... ","response":null,"trial_type":"html-keyboard-response","trial_index":80,"time_elapsed":823033,"internal_node_id":"0.0-76.0","params":{"nStudents":24,"maxFlips":30,"completionMinutes":45,"basePay":8,"maxBonus":9,"perTrialBonus":0.5,"perTrialBonusThreshold":0.05,"exampleCost":0.01},"classroomParams":{"A":{"a":1,"b":4},"B":{"a":4,"b":1},"C":{"a":2,"b":8},"D":{"a":8,"b":2}},"conditions":["nonSeqFull","nonSeqPartial","seqNoFeedback","seqFeedback"],"classroomPairings":[["A","B"],["C","D"]],"coinWeights":[0.2,0.5,0.8],"subjectId":"A2VNSNAN1LZBAM","assignmentId":"35L9RVQFCP425DZNUUPNKRCYQ8AHUF","hitId":"3E9VAUV7BW02QFDK7N7IH7ZKACRYAN","url":"https://gershmanlab.com/experiments/alicia/teaching/experiment/?hitId=3E9VAUV7BW02QFDK7N7IH7ZKACRYAN&workerId=A2VNSNAN1LZBAM&assignmentId=35L9RVQFCP425DZNUUPNKRCYQ8AHUF&a=FRL59&tp_a=FRL59&b=35L9RVQFCP425DZNUUPNKRCYQ8AHUF&tp_b=35L9RVQFCP425DZNUUPNKRCYQ8AHUF&c=365799&tp_c=365799"},{"rt":null,"stimulus":"Examples sent to student! Waiting for student...","response":null,"trial_type":"html-keyboard-response","trial_index":81,"time_elapsed":828550,"internal_node_id":"0.0-77.0","params":{"nStudents":24,"maxFlips":30,"completionMinutes":45,"basePay":8,"maxBonus":9,"perTrialBonus":0.5,"perTrialBonusThreshold":0.05,"exampleCost":0.01},"classroomParams":{"A":{"a":1,"b":4},"B":{"a":4,"b":1},"C":{"a":2,"b":8},"D":{"a":8,"b":2}},"conditions":["nonSeqFull","nonSeqPartial","seqNoFeedback","seqFeedback"],"classroomPairings":[["A","B"],["C","D"]],"coinWeights":[0.2,0.5,0.8],"subjectId":"A2VNSNAN1LZBAM","assignmentId":"35L9RVQFCP425DZNUUPNKRCYQ8AHUF","hitId":"3E9VAUV7BW02QFDK7N7IH7ZKACRYAN","url":"https://gershmanlab.com/experiments/alicia/teaching/experiment/?hitId=3E9VAUV7BW02QFDK7N7IH7ZKACRYAN&workerId=A2VNSNAN1LZBAM&assignmentId=35L9RVQFCP425DZNUUPNKRCYQ8AHUF&a=FRL59&tp_a=FRL59&b=35L9RVQFCP425DZNUUPNKRCYQ8AHUF&tp_b=35L9RVQFCP425DZNUUPNKRCYQ8AHUF&c=365799&tp_c=365799"},{"rt":2414,"stimulus":"\n                <p>Student's guess for coin weight: <b style=\"color:Tomato;\">0.57</b></p>\n                <p>You received a bonus of <b>$0</b>. Total bonus so far: <b>$0.45</b></b></p>\n                <p></p>\n                <p>Press any key to continue.</p>\n                ","response":" ","trial_type":"html-keyboard-response","trial_index":82,"time_elapsed":830965,"internal_node_id":"0.0-78.0","params":{"nStudents":24,"maxFlips":30,"completionMinutes":45,"basePay":8,"maxBonus":9,"perTrialBonus":0.5,"perTrialBonusThreshold":0.05,"exampleCost":0.01},"classroomParams":{"A":{"a":1,"b":4},"B":{"a":4,"b":1},"C":{"a":2,"b":8},"D":{"a":8,"b":2}},"conditions":["nonSeqFull","nonSeqPartial","seqNoFeedback","seqFeedback"],"classroomPairings":[["A","B"],["C","D"]],"coinWeights":[0.2,0.5,0.8],"subjectId":"A2VNSNAN1LZBAM","assignmentId":"35L9RVQFCP425DZNUUPNKRCYQ8AHUF","hitId":"3E9VAUV7BW02QFDK7N7IH7ZKACRYAN","url":"https://gershmanlab.com/experiments/alicia/teaching/experiment/?hitId=3E9VAUV7BW02QFDK7N7IH7ZKACRYAN&workerId=A2VNSNAN1LZBAM&assignmentId=35L9RVQFCP425DZNUUPNKRCYQ8AHUF&a=FRL59&tp_a=FRL59&b=35L9RVQFCP425DZNUUPNKRCYQ8AHUF&tp_b=35L9RVQFCP425DZNUUPNKRCYQ8AHUF&c=365799&tp_c=365799"},{"rt":null,"stimulus":"<div style=\"font-size:60px;\">Next student</div>","response":null,"trial_type":"html-keyboard-response","trial_index":83,"time_elapsed":833467,"internal_node_id":"0.0-79.0-0.0","params":{"nStudents":24,"maxFlips":30,"completionMinutes":45,"basePay":8,"maxBonus":9,"perTrialBonus":0.5,"perTrialBonusThreshold":0.05,"exampleCost":0.01},"classroomParams":{"A":{"a":1,"b":4},"B":{"a":4,"b":1},"C":{"a":2,"b":8},"D":{"a":8,"b":2}},"conditions":["nonSeqFull","nonSeqPartial","seqNoFeedback","seqFeedback"],"classroomPairings":[["A","B"],["C","D"]],"coinWeights":[0.2,0.5,0.8],"subjectId":"A2VNSNAN1LZBAM","assignmentId":"35L9RVQFCP425DZNUUPNKRCYQ8AHUF","hitId":"3E9VAUV7BW02QFDK7N7IH7ZKACRYAN","url":"https://gershmanlab.com/experiments/alicia/teaching/experiment/?hitId=3E9VAUV7BW02QFDK7N7IH7ZKACRYAN&workerId=A2VNSNAN1LZBAM&assignmentId=35L9RVQFCP425DZNUUPNKRCYQ8AHUF&a=FRL59&tp_a=FRL59&b=35L9RVQFCP425DZNUUPNKRCYQ8AHUF&tp_b=35L9RVQFCP425DZNUUPNKRCYQ8AHUF&c=365799&tp_c=365799"},{"rt":2306,"stimulus":"\n            <h4 style=\"color:Orange;\">Student 12</h4>\n            <h2>The weight of your coin is <b style=\"color:Tomato;\">0.5</b>.</h2>\n            <p>In this block, you will be giving <b>two</b> sets of examples to Student 12.</p>\n                <p>You will receive feedback at the end of the block.</p>\n            <p></p>","response":0,"trial_type":"html-button-response","trial_index":84,"time_elapsed":835775,"internal_node_id":"0.0-80.0","params":{"nStudents":24,"maxFlips":30,"completionMinutes":45,"basePay":8,"maxBonus":9,"perTrialBonus":0.5,"perTrialBonusThreshold":0.05,"exampleCost":0.01},"classroomParams":{"A":{"a":1,"b":4},"B":{"a":4,"b":1},"C":{"a":2,"b":8},"D":{"a":8,"b":2}},"conditions":["nonSeqFull","nonSeqPartial","seqNoFeedback","seqFeedback"],"classroomPairings":[["A","B"],["C","D"]],"coinWeights":[0.2,0.5,0.8],"subjectId":"A2VNSNAN1LZBAM","assignmentId":"35L9RVQFCP425DZNUUPNKRCYQ8AHUF","hitId":"3E9VAUV7BW02QFDK7N7IH7ZKACRYAN","url":"https://gershmanlab.com/experiments/alicia/teaching/experiment/?hitId=3E9VAUV7BW02QFDK7N7IH7ZKACRYAN&workerId=A2VNSNAN1LZBAM&assignmentId=35L9RVQFCP425DZNUUPNKRCYQ8AHUF&a=FRL59&tp_a=FRL59&b=35L9RVQFCP425DZNUUPNKRCYQ8AHUF&tp_b=35L9RVQFCP425DZNUUPNKRCYQ8AHUF&c=365799&tp_c=365799"},{"rt":5484,"response":{"heads":"5","tails":"5"},"type":"response","condition":"seqNoFeedback","trueTheta":0.5,"classrooms":["A","B"],"studentTrueClassroom":"B","exampleSet":"first","trial_type":"survey-html-form","trial_index":85,"time_elapsed":841261,"internal_node_id":"0.0-81.0-0.0","params":{"nStudents":24,"maxFlips":30,"completionMinutes":45,"basePay":8,"maxBonus":9,"perTrialBonus":0.5,"perTrialBonusThreshold":0.05,"exampleCost":0.01},"classroomParams":{"A":{"a":1,"b":4},"B":{"a":4,"b":1},"C":{"a":2,"b":8},"D":{"a":8,"b":2}},"conditions":["nonSeqFull","nonSeqPartial","seqNoFeedback","seqFeedback"],"classroomPairings":[["A","B"],["C","D"]],"coinWeights":[0.2,0.5,0.8],"subjectId":"A2VNSNAN1LZBAM","assignmentId":"35L9RVQFCP425DZNUUPNKRCYQ8AHUF","hitId":"3E9VAUV7BW02QFDK7N7IH7ZKACRYAN","url":"https://gershmanlab.com/experiments/alicia/teaching/experiment/?hitId=3E9VAUV7BW02QFDK7N7IH7ZKACRYAN&workerId=A2VNSNAN1LZBAM&assignmentId=35L9RVQFCP425DZNUUPNKRCYQ8AHUF&a=FRL59&tp_a=FRL59&b=35L9RVQFCP425DZNUUPNKRCYQ8AHUF&tp_b=35L9RVQFCP425DZNUUPNKRCYQ8AHUF&c=365799&tp_c=365799","heads":5,"tails":5,"studentIndex":11,"studentTrueHypers":{"a":4,"b":1},"studentGuess":0.6,"delta":0.09999999999999998,"totalExamples":10,"bonusSoFar":0.45},{"rt":null,"stimulus":"Sending examples to student... ","response":null,"trial_type":"html-keyboard-response","trial_index":86,"time_elapsed":843018,"internal_node_id":"0.0-82.0","params":{"nStudents":24,"maxFlips":30,"comp