[{"rt":4120,"stimulus":"Welcome to the experiment. Press any key to begin.","response":" ","trial_type":"html-keyboard-response","trial_index":0,"time_elapsed":4139,"internal_node_id":"0.0-0.0","params":{"nStudents":24,"maxFlips":30,"completionMinutes":45,"basePay":8,"maxBonus":9,"perTrialBonus":0.5,"perTrialBonusThreshold":0.05,"exampleCost":0.01},"classroomParams":{"A":{"a":1,"b":4},"B":{"a":4,"b":1},"C":{"a":2,"b":8},"D":{"a":8,"b":2}},"conditions":["nonSeqFull","nonSeqPartial","seqNoFeedback","seqFeedback"],"classroomPairings":[["A","B"],["C","D"]],"coinWeights":[0.2,0.5,0.8],"subjectId":"A32JEH06T23HDF","assignmentId":"3YHH42UU5C1OBN6XN8Q1NCHYR0FL0N","hitId":"3J94SKDEKIB2MY6CGVTNWB9X0ALD5P","url":"https://gershmanlab.com/experiments/alicia/teaching/experiment/?hitId=3J94SKDEKIB2MY6CGVTNWB9X0ALD5P&workerId=A32JEH06T23HDF&assignmentId=3YHH42UU5C1OBN6XN8Q1NCHYR0FL0N&a=U4HY9&tp_a=U4HY9&b=3YHH42UU5C1OBN6XN8Q1NCHYR0FL0N&tp_b=3YHH42UU5C1OBN6XN8Q1NCHYR0FL0N&c=365799&tp_c=365799"},{"rt":3418,"stimulus":"\n        <h3>Please read this consent agreement carefully before deciding whether to participate in this experiment.</h3>\n        <p><b>Purpose of the research:</b> To examine how people teach effectively.</p>\n        <p><b>What you will do in this research:</b> You will teach students the weights of different coins.</p>\n        <p><b>Time required:</b> This experiment will take 45 minutes to complete.</p>\n        <p><b>Risks:</b> There are no anticipated risks associated with participating in this study.             The effects of participating should be comparable to those you would experience from viewing a computer monitor             and using a mouse and keyboard for the duration of the experiment.</p>\n        <p><b>Benefits:</b> The study provides important information about the nature of teaching.</p>\n        <p><b>Compensation:</b> You will receive <b>$8</b> for completing the experiment and a performance bonus of up to <b>$9</b>.</p>\n        <p><b>Confidentiality:</b> Your participation in this study will remain confidential.             No personally identifiable information will be associated with your data.             Your de-identified data may be shared with other researchers and used in future projects.</p>\n        <p><b>Participation and withdrawal:</b> Your participation in this study is completely voluntary and             you may refuse to participate or you may choose to withdraw at any time without penalty or loss of\n            benefits to which you are otherwise entitled.</p>\n        <p><b>How to contact the researcher:</b> If you have questions or concerns about your participation            or payment, or want to request a summary of research findings, please contact\n            Alicia Chen, aliciachen@college.harvard.edu.</p>\n        <p><b>Whom to contact about your rights in this research:</b> For questions, concerns, suggestions,             or complaints that have not been or cannot be addressed by the researcher, or to report             research-related harm, please contact the Committee on the Use of Human Subjects in Research at Harvard University,             1414 Massachusetts Avenue, Second Floor, Cambridge, MA 02138. Phone: 617-496-2847. Email: cuhs@fas.harvard.edu.</p>\n        ","response":0,"trial_type":"html-button-response","trial_index":1,"time_elapsed":7561,"internal_node_id":"0.0-1.0","params":{"nStudents":24,"maxFlips":30,"completionMinutes":45,"basePay":8,"maxBonus":9,"perTrialBonus":0.5,"perTrialBonusThreshold":0.05,"exampleCost":0.01},"classroomParams":{"A":{"a":1,"b":4},"B":{"a":4,"b":1},"C":{"a":2,"b":8},"D":{"a":8,"b":2}},"conditions":["nonSeqFull","nonSeqPartial","seqNoFeedback","seqFeedback"],"classroomPairings":[["A","B"],["C","D"]],"coinWeights":[0.2,0.5,0.8],"subjectId":"A32JEH06T23HDF","assignmentId":"3YHH42UU5C1OBN6XN8Q1NCHYR0FL0N","hitId":"3J94SKDEKIB2MY6CGVTNWB9X0ALD5P","url":"https://gershmanlab.com/experiments/alicia/teaching/experiment/?hitId=3J94SKDEKIB2MY6CGVTNWB9X0ALD5P&workerId=A32JEH06T23HDF&assignmentId=3YHH42UU5C1OBN6XN8Q1NCHYR0FL0N&a=U4HY9&tp_a=U4HY9&b=3YHH42UU5C1OBN6XN8Q1NCHYR0FL0N&tp_b=3YHH42UU5C1OBN6XN8Q1NCHYR0FL0N&c=365799&tp_c=365799"},{"view_history":[{"page_index":0,"viewing_time":4323},{"page_index":1,"viewing_time":3539},{"page_index":2,"viewing_time":21027},{"page_index":3,"viewing_time":789},{"page_index":4,"viewing_time":867},{"page_index":3,"viewing_time":4429},{"page_index":4,"viewing_time":6416},{"page_index":5,"viewing_time":27558},{"page_index":6,"viewing_time":17763}],"rt":86714,"trial_type":"instructions","trial_index":2,"time_elapsed":94277,"internal_node_id":"0.0-2.0-0.0","params":{"nStudents":24,"maxFlips":30,"completionMinutes":45,"basePay":8,"maxBonus":9,"perTrialBonus":0.5,"perTrialBonusThreshold":0.05,"exampleCost":0.01},"classroomParams":{"A":{"a":1,"b":4},"B":{"a":4,"b":1},"C":{"a":2,"b":8},"D":{"a":8,"b":2}},"conditions":["nonSeqFull","nonSeqPartial","seqNoFeedback","seqFeedback"],"classroomPairings":[["A","B"],["C","D"]],"coinWeights":[0.2,0.5,0.8],"subjectId":"A32JEH06T23HDF","assignmentId":"3YHH42UU5C1OBN6XN8Q1NCHYR0FL0N","hitId":"3J94SKDEKIB2MY6CGVTNWB9X0ALD5P","url":"https://gershmanlab.com/experiments/alicia/teaching/experiment/?hitId=3J94SKDEKIB2MY6CGVTNWB9X0ALD5P&workerId=A32JEH06T23HDF&assignmentId=3YHH42UU5C1OBN6XN8Q1NCHYR0FL0N&a=U4HY9&tp_a=U4HY9&b=3YHH42UU5C1OBN6XN8Q1NCHYR0FL0N&tp_b=3YHH42UU5C1OBN6XN8Q1NCHYR0FL0N&c=365799&tp_c=365799"},{"rt":50930,"response":{"Q0":"Students in different classrooms have seen a different proportion of fair and unfair coins before seeing the examples you select for them.","Q1":"By <b>considering the student's classroom information</b> so that I can teach efficiently and accurately/helpfully at the same time (because each example I give to the student costs money!).","Q2":"The coin lands heads 90% of the time.","Q3":"No, I will teach a <b>new</b> student each time.","Q4":"The students are also on the same alien planet as you, where coins can be unfair.","Q5":"Based on the student's second (and final) guess."},"question_order":[0,1,4,5,2,3],"trial_type":"survey-multi-choice","trial_index":3,"time_elapsed":145211,"internal_node_id":"0.0-2.0-1.0","params":{"nStudents":24,"maxFlips":30,"completionMinutes":45,"basePay":8,"maxBonus":9,"perTrialBonus":0.5,"perTrialBonusThreshold":0.05,"exampleCost":0.01},"classroomParams":{"A":{"a":1,"b":4},"B":{"a":4,"b":1},"C":{"a":2,"b":8},"D":{"a":8,"b":2}},"conditions":["nonSeqFull","nonSeqPartial","seqNoFeedback","seqFeedback"],"classroomPairings":[["A","B"],["C","D"]],"coinWeights":[0.2,0.5,0.8],"subjectId":"A32JEH06T23HDF","assignmentId":"3YHH42UU5C1OBN6XN8Q1NCHYR0FL0N","hitId":"3J94SKDEKIB2MY6CGVTNWB9X0ALD5P","url":"https://gershmanlab.com/experiments/alicia/teaching/experiment/?hitId=3J94SKDEKIB2MY6CGVTNWB9X0ALD5P&workerId=A32JEH06T23HDF&assignmentId=3YHH42UU5C1OBN6XN8Q1NCHYR0FL0N&a=U4HY9&tp_a=U4HY9&b=3YHH42UU5C1OBN6XN8Q1NCHYR0FL0N&tp_b=3YHH42UU5C1OBN6XN8Q1NCHYR0FL0N&c=365799&tp_c=365799","pass":false},{"rt":3414,"stimulus":"Oops, you have missed question(s) on the comprehension check! We'll show you the instructions again.","response":0,"trial_type":"html-button-response","trial_index":4,"time_elapsed":148633,"internal_node_id":"0.0-2.0-2.0-0.0","params":{"nStudents":24,"maxFlips":30,"completionMinutes":45,"basePay":8,"maxBonus":9,"perTrialBonus":0.5,"perTrialBonusThreshold":0.05,"exampleCost":0.01},"classroomParams":{"A":{"a":1,"b":4},"B":{"a":4,"b":1},"C":{"a":2,"b":8},"D":{"a":8,"b":2}},"conditions":["nonSeqFull","nonSeqPartial","seqNoFeedback","seqFeedback"],"classroomPairings":[["A","B"],["C","D"]],"coinWeights":[0.2,0.5,0.8],"subjectId":"A32JEH06T23HDF","assignmentId":"3YHH42UU5C1OBN6XN8Q1NCHYR0FL0N","hitId":"3J94SKDEKIB2MY6CGVTNWB9X0ALD5P","url":"https://gershmanlab.com/experiments/alicia/teaching/experiment/?hitId=3J94SKDEKIB2MY6CGVTNWB9X0ALD5P&workerId=A32JEH06T23HDF&assignmentId=3YHH42UU5C1OBN6XN8Q1NCHYR0FL0N&a=U4HY9&tp_a=U4HY9&b=3YHH42UU5C1OBN6XN8Q1NCHYR0FL0N&tp_b=3YHH42UU5C1OBN6XN8Q1NCHYR0FL0N&c=365799&tp_c=365799"},{"view_history":[{"page_index":0,"viewing_time":2612},{"page_index":1,"viewing_time":1552},{"page_index":2,"viewing_time":5159},{"page_index":3,"viewing_time":1029},{"page_index":2,"viewing_time":3495},{"page_index":3,"viewing_time":11437},{"page_index":2,"viewing_time":686},{"page_index":1,"viewing_time":9075},{"page_index":2,"viewing_time":9167},{"page_index":3,"viewing_time":8094},{"page_index":4,"viewing_time":8767},{"page_index":5,"viewing_time":18357},{"page_index":6,"viewing_time":12649}],"rt":92079,"trial_type":"instructions","trial_index":5,"time_elapsed":240714,"internal_node_id":"0.0-2.1-0.1","params":{"nStudents":24,"maxFlips":30,"completionMinutes":45,"basePay":8,"maxBonus":9,"perTrialBonus":0.5,"perTrialBonusThreshold":0.05,"exampleCost":0.01},"classroomParams":{"A":{"a":1,"b":4},"B":{"a":4,"b":1},"C":{"a":2,"b":8},"D":{"a":8,"b":2}},"conditions":["nonSeqFull","nonSeqPartial","seqNoFeedback","seqFeedback"],"classroomPairings":[["A","B"],["C","D"]],"coinWeights":[0.2,0.5,0.8],"subjectId":"A32JEH06T23HDF","assignmentId":"3YHH42UU5C1OBN6XN8Q1NCHYR0FL0N","hitId":"3J94SKDEKIB2MY6CGVTNWB9X0ALD5P","url":"https://gershmanlab.com/experiments/alicia/teaching/experiment/?hitId=3J94SKDEKIB2MY6CGVTNWB9X0ALD5P&workerId=A32JEH06T23HDF&assignmentId=3YHH42UU5C1OBN6XN8Q1NCHYR0FL0N&a=U4HY9&tp_a=U4HY9&b=3YHH42UU5C1OBN6XN8Q1NCHYR0FL0N&tp_b=3YHH42UU5C1OBN6XN8Q1NCHYR0FL0N&c=365799&tp_c=365799"},{"rt":205236,"response":{"Q0":"Students in different classrooms will have seen a different number of heads and tails before seeing the examples you select for them.","Q1":"By <b>considering the student's classroom information</b> so that I can teach efficiently and accurately/helpfully at the same time (because each example I give to the student costs money!).","Q2":"The coin lands heads 90% of the time.","Q3":"No, I will teach a <b>new</b> student each time.","Q4":"The students are also on the same alien planet as you, where coins can be unfair.","Q5":"Based on the student's second (and final) guess."},"question_order":[3,4,0,2,5,1],"trial_type":"survey-multi-choice","trial_index":6,"time_elapsed":445953,"internal_node_id":"0.0-2.1-1.1","params":{"nStudents":24,"maxFlips":30,"completionMinutes":45,"basePay":8,"maxBonus":9,"perTrialBonus":0.5,"perTrialBonusThreshold":0.05,"exampleCost":0.01},"classroomParams":{"A":{"a":1,"b":4},"B":{"a":4,"b":1},"C":{"a":2,"b":8},"D":{"a":8,"b":2}},"conditions":["nonSeqFull","nonSeqPartial","seqNoFeedback","seqFeedback"],"classroomPairings":[["A","B"],["C","D"]],"coinWeights":[0.2,0.5,0.8],"subjectId":"A32JEH06T23HDF","assignmentId":"3YHH42UU5C1OBN6XN8Q1NCHYR0FL0N","hitId":"3J94SKDEKIB2MY6CGVTNWB9X0ALD5P","url":"https://gershmanlab.com/experiments/alicia/teaching/experiment/?hitId=3J94SKDEKIB2MY6CGVTNWB9X0ALD5P&workerId=A32JEH06T23HDF&assignmentId=3YHH42UU5C1OBN6XN8Q1NCHYR0FL0N&a=U4HY9&tp_a=U4HY9&b=3YHH42UU5C1OBN6XN8Q1NCHYR0FL0N&tp_b=3YHH42UU5C1OBN6XN8Q1NCHYR0FL0N&c=365799&tp_c=365799","pass":true},{"rt":null,"stimulus":"<div style=\"font-size:30px;\">Congrats on passing the comprehension quiz! The experiment will begin in a few seconds.</div>","response":null,"trial_type":"html-keyboard-response","trial_index":7,"time_elapsed":448974,"internal_node_id":"0.0-3.0","params":{"nStudents":24,"maxFlips":30,"completionMinutes":45,"basePay":8,"maxBonus":9,"perTrialBonus":0.5,"perTrialBonusThreshold":0.05,"exampleCost":0.01},"classroomParams":{"A":{"a":1,"b":4},"B":{"a":4,"b":1},"C":{"a":2,"b":8},"D":{"a":8,"b":2}},"conditions":["nonSeqFull","nonSeqPartial","seqNoFeedback","seqFeedback"],"classroomPairings":[["A","B"],["C","D"]],"coinWeights":[0.2,0.5,0.8],"subjectId":"A32JEH06T23HDF","assignmentId":"3YHH42UU5C1OBN6XN8Q1NCHYR0FL0N","hitId":"3J94SKDEKIB2MY6CGVTNWB9X0ALD5P","url":"https://gershmanlab.com/experiments/alicia/teaching/experiment/?hitId=3J94SKDEKIB2MY6CGVTNWB9X0ALD5P&workerId=A32JEH06T23HDF&assignmentId=3YHH42UU5C1OBN6XN8Q1NCHYR0FL0N&a=U4HY9&tp_a=U4HY9&b=3YHH42UU5C1OBN6XN8Q1NCHYR0FL0N&tp_b=3YHH42UU5C1OBN6XN8Q1NCHYR0FL0N&c=365799&tp_c=365799"},{"rt":null,"stimulus":"<div style=\"font-size:50px;\">First student</div>","response":null,"trial_type":"html-keyboard-response","trial_index":8,"time_elapsed":451986,"internal_node_id":"0.0-4.0","params":{"nStudents":24,"maxFlips":30,"completionMinutes":45,"basePay":8,"maxBonus":9,"perTrialBonus":0.5,"perTrialBonusThreshold":0.05,"exampleCost":0.01},"classroomParams":{"A":{"a":1,"b":4},"B":{"a":4,"b":1},"C":{"a":2,"b":8},"D":{"a":8,"b":2}},"conditions":["nonSeqFull","nonSeqPartial","seqNoFeedback","seqFeedback"],"classroomPairings":[["A","B"],["C","D"]],"coinWeights":[0.2,0.5,0.8],"subjectId":"A32JEH06T23HDF","assignmentId":"3YHH42UU5C1OBN6XN8Q1NCHYR0FL0N","hitId":"3J94SKDEKIB2MY6CGVTNWB9X0ALD5P","url":"https://gershmanlab.com/experiments/alicia/teaching/experiment/?hitId=3J94SKDEKIB2MY6CGVTNWB9X0ALD5P&workerId=A32JEH06T23HDF&assignmentId=3YHH42UU5C1OBN6XN8Q1NCHYR0FL0N&a=U4HY9&tp_a=U4HY9&b=3YHH42UU5C1OBN6XN8Q1NCHYR0FL0N&tp_b=3YHH42UU5C1OBN6XN8Q1NCHYR0FL0N&c=365799&tp_c=365799"},{"rt":5644,"stimulus":"\n            <h4 style=\"color:Orange;\">Student 1</h4>\n            <h2>The weight of your coin is <b style=\"color:Tomato;\">0.5</b>.</h2>\n            <p>In this block, you will be giving <b>one</b> set of examples to Student 1.</p>\n                <p>You will receive feedback at the end of the block.</p>\n            <p></p>","response":0,"trial_type":"html-button-response","trial_index":9,"time_elapsed":457632,"internal_node_id":"0.0-5.0","params":{"nStudents":24,"maxFlips":30,"completionMinutes":45,"basePay":8,"maxBonus":9,"perTrialBonus":0.5,"perTrialBonusThreshold":0.05,"exampleCost":0.01},"classroomParams":{"A":{"a":1,"b":4},"B":{"a":4,"b":1},"C":{"a":2,"b":8},"D":{"a":8,"b":2}},"conditions":["nonSeqFull","nonSeqPartial","seqNoFeedback","seqFeedback"],"classroomPairings":[["A","B"],["C","D"]],"coinWeights":[0.2,0.5,0.8],"subjectId":"A32JEH06T23HDF","assignmentId":"3YHH42UU5C1OBN6XN8Q1NCHYR0FL0N","hitId":"3J94SKDEKIB2MY6CGVTNWB9X0ALD5P","url":"https://gershmanlab.com/experiments/alicia/teaching/experiment/?hitId=3J94SKDEKIB2MY6CGVTNWB9X0ALD5P&workerId=A32JEH06T23HDF&assignmentId=3YHH42UU5C1OBN6XN8Q1NCHYR0FL0N&a=U4HY9&tp_a=U4HY9&b=3YHH42UU5C1OBN6XN8Q1NCHYR0FL0N&tp_b=3YHH42UU5C1OBN6XN8Q1NCHYR0FL0N&c=365799&tp_c=365799"},{"rt":25959,"response":{"heads":"9","tails":"8"},"type":"response","condition":"nonSeqPartial","trueTheta":0.5,"classrooms":["A","B"],"studentTrueClassroom":"B","exampleSet":"first","trial_type":"survey-html-form","trial_index":10,"time_elapsed":483595,"internal_node_id":"0.0-6.0-0.0","params":{"nStudents":24,"maxFlips":30,"completionMinutes":45,"basePay":8,"maxBonus":9,"perTrialBonus":0.5,"perTrialBonusThreshold":0.05,"exampleCost":0.01},"classroomParams":{"A":{"a":1,"b":4},"B":{"a":4,"b":1},"C":{"a":2,"b":8},"D":{"a":8,"b":2}},"conditions":["nonSeqFull","nonSeqPartial","seqNoFeedback","seqFeedback"],"classroomPairings":[["A","B"],["C","D"]],"coinWeights":[0.2,0.5,0.8],"subjectId":"A32JEH06T23HDF","assignmentId":"3YHH42UU5C1OBN6XN8Q1NCHYR0FL0N","hitId":"3J94SKDEKIB2MY6CGVTNWB9X0ALD5P","url":"https://gershmanlab.com/experiments/alicia/teaching/experiment/?hitId=3J94SKDEKIB2MY6CGVTNWB9X0ALD5P&workerId=A32JEH06T23HDF&assignmentId=3YHH42UU5C1OBN6XN8Q1NCHYR0FL0N&a=U4HY9&tp_a=U4HY9&b=3YHH42UU5C1OBN6XN8Q1NCHYR0FL0N&tp_b=3YHH42UU5C1OBN6XN8Q1NCHYR0FL0N&c=365799&tp_c=365799","heads":9,"tails":8,"studentIndex":0,"studentTrueHypers":{"a":4,"b":1},"studentGuess":0.5909090909090909,"delta":0.09090909090909094,"totalExamples":17,"bonus":0,"bonusSoFar":0},{"rt":null,"stimulus":"Sending examples to student... ","response":null,"trial_type":"html-keyboard-response","trial_index":11,"time_elapsed":485354,"internal_node_id":"0.0-7.0","params":{"nStudents":24,"maxFlips":30,"completionMinutes":45,"basePay":8,"maxBonus":9,"perTrialBonus":0.5,"perTrialBonusThreshold":0.05,"exampleCost":0.01},"classroomParams":{"A":{"a":1,"b":4},"B":{"a":4,"b":1},"C":{"a":2,"b":8},"D":{"a":8,"b":2}},"conditions":["nonSeqFull","nonSeqPartial","seqNoFeedback","seqFeedback"],"classroomPairings":[["A","B"],["C","D"]],"coinWeights":[0.2,0.5,0.8],"subjectId":"A32JEH06T23HDF","assignmentId":"3YHH42UU5C1OBN6XN8Q1NCHYR0FL0N","hitId":"3J94SKDEKIB2MY6CGVTNWB9X0ALD5P","url":"https://gershmanlab.com/experiments/alicia/teaching/experiment/?hitId=3J94SKDEKIB2MY6CGVTNWB9X0ALD5P&workerId=A32JEH06T23HDF&assignmentId=3YHH42UU5C1OBN6XN8Q1NCHYR0FL0N&a=U4HY9&tp_a=U4HY9&b=3YHH42UU5C1OBN6XN8Q1NCHYR0FL0N&tp_b=3YHH42UU5C1OBN6XN8Q1NCHYR0FL0N&c=365799&tp_c=365799"},{"rt":null,"stimulus":"Examples sent to student! Waiting for student...","response":null,"trial_type":"html-keyboard-response","trial_index":12,"time_elapsed":489857,"internal_node_id":"0.0-8.0","params":{"nStudents":24,"maxFlips":30,"completionMinutes":45,"basePay":8,"maxBonus":9,"perTrialBonus":0.5,"perTrialBonusThreshold":0.05,"exampleCost":0.01},"classroomParams":{"A":{"a":1,"b":4},"B":{"a":4,"b":1},"C":{"a":2,"b":8},"D":{"a":8,"b":2}},"conditions":["nonSeqFull","nonSeqPartial","seqNoFeedback","seqFeedback"],"classroomPairings":[["A","B"],["C","D"]],"coinWeights":[0.2,0.5,0.8],"subjectId":"A32JEH06T23HDF","assignmentId":"3YHH42UU5C1OBN6XN8Q1NCHYR0FL0N","hitId":"3J94SKDEKIB2MY6CGVTNWB9X0ALD5P","url":"https://gershmanlab.com/experiments/alicia/teaching/experiment/?hitId=3J94SKDEKIB2MY6CGVTNWB9X0ALD5P&workerId=A32JEH06T23HDF&assignmentId=3YHH42UU5C1OBN6XN8Q1NCHYR0FL0N&a=U4HY9&tp_a=U4HY9&b=3YHH42UU5C1OBN6XN8Q1NCHYR0FL0N&tp_b=3YHH42UU5C1OBN6XN8Q1NCHYR0FL0N&c=365799&tp_c=365799"},{"rt":9895,"stimulus":"\n                <p>Student's guess for coin weight: <b style=\"color:Tomato;\">0.59</b></p>\n                <p>You received a bonus of <b>$0</b>. Total bonus so far: <b>$0.00</b></b></p>\n                <p></p>\n                <p>Press any key to continue.</p>\n                ","response":"]","trial_type":"html-keyboard-response","trial_index":13,"time_elapsed":499755,"internal_node_id":"0.0-9.0","params":{"nStudents":24,"maxFlips":30,"completionMinutes":45,"basePay":8,"maxBonus":9,"perTrialBonus":0.5,"perTrialBonusThreshold":0.05,"exampleCost":0.01},"classroomParams":{"A":{"a":1,"b":4},"B":{"a":4,"b":1},"C":{"a":2,"b":8},"D":{"a":8,"b":2}},"conditions":["nonSeqFull","nonSeqPartial","seqNoFeedback","seqFeedback"],"classroomPairings":[["A","B"],["C","D"]],"coinWeights":[0.2,0.5,0.8],"subjectId":"A32JEH06T23HDF","assignmentId":"3YHH42UU5C1OBN6XN8Q1NCHYR0FL0N","hitId":"3J94SKDEKIB2MY6CGVTNWB9X0ALD5P","url":"https://gershmanlab.com/experiments/alicia/teaching/experiment/?hitId=3J94SKDEKIB2MY6CGVTNWB9X0ALD5P&workerId=A32JEH06T23HDF&assignmentId=3YHH42UU5C1OBN6XN8Q1NCHYR0FL0N&a=U4HY9&tp_a=U4HY9&b=3YHH42UU5C1OBN6XN8Q1NCHYR0FL0N&tp_b=3YHH42UU5C1OBN6XN8Q1NCHYR0FL0N&c=365799&tp_c=365799"},{"rt":null,"stimulus":"<div style=\"font-size:60px;\">Next student</div>","response":null,"trial_type":"html-keyboard-response","trial_index":14,"time_elapsed":502263,"internal_node_id":"0.0-10.0-0.0","params":{"nStudents":24,"maxFlips":30,"completionMinutes":45,"basePay":8,"maxBonus":9,"perTrialBonus":0.5,"perTrialBonusThreshold":0.05,"exampleCost":0.01},"classroomParams":{"A":{"a":1,"b":4},"B":{"a":4,"b":1},"C":{"a":2,"b":8},"D":{"a":8,"b":2}},"conditions":["nonSeqFull","nonSeqPartial","seqNoFeedback","seqFeedback"],"classroomPairings":[["A","B"],["C","D"]],"coinWeights":[0.2,0.5,0.8],"subjectId":"A32JEH06T23HDF","assignmentId":"3YHH42UU5C1OBN6XN8Q1NCHYR0FL0N","hitId":"3J94SKDEKIB2MY6CGVTNWB9X0ALD5P","url":"https://gershmanlab.com/experiments/alicia/teaching/experiment/?hitId=3J94SKDEKIB2MY6CGVTNWB9X0ALD5P&workerId=A32JEH06T23HDF&assignmentId=3YHH42UU5C1OBN6XN8Q1NCHYR0FL0N&a=U4HY9&tp_a=U4HY9&b=3YHH42UU5C1OBN6XN8Q1NCHYR0FL0N&tp_b=3YHH42UU5C1OBN6XN8Q1NCHYR0FL0N&c=365799&tp_c=365799"},{"rt":3372,"stimulus":"\n            <h4 style=\"color:Orange;\">Student 2</h4>\n            <h2>The weight of your coin is <b style=\"color:Tomato;\">0.5</b>.</h2>\n            <p>In this block, you will be giving <b>two</b> sets of examples to Student 2.</p>\n                <p>You will see the student's guess after the first set of examples. You will also receive feedback at the end of the block.</p>\n            <p>To earn the highest bonus, you will have to <b>take into consideration the student's guess</b> when you choose your second set of examples.</p>","response":0,"trial_type":"html-button-response","trial_index":15,"time_elapsed":505637,"internal_node_id":"0.0-11.0","params":{"nStudents":24,"maxFlips":30,"completionMinutes":45,"basePay":8,"maxBonus":9,"perTrialBonus":0.5,"perTrialBonusThreshold":0.05,"exampleCost":0.01},"classroomParams":{"A":{"a":1,"b":4},"B":{"a":4,"b":1},"C":{"a":2,"b":8},"D":{"a":8,"b":2}},"conditions":["nonSeqFull","nonSeqPartial","seqNoFeedback","seqFeedback"],"classroomPairings":[["A","B"],["C","D"]],"coinWeights":[0.2,0.5,0.8],"subjectId":"A32JEH06T23HDF","assignmentId":"3YHH42UU5C1OBN6XN8Q1NCHYR0FL0N","hitId":"3J94SKDEKIB2MY6CGVTNWB9X0ALD5P","url":"https://gershmanlab.com/experiments/alicia/teaching/experiment/?hitId=3J94SKDEKIB2MY6CGVTNWB9X0ALD5P&workerId=A32JEH06T23HDF&assignmentId=3YHH42UU5C1OBN6XN8Q1NCHYR0FL0N&a=U4HY9&tp_a=U4HY9&b=3YHH42UU5C1OBN6XN8Q1NCHYR0FL0N&tp_b=3YHH42UU5C1OBN6XN8Q1NCHYR0FL0N&c=365799&tp_c=365799"},{"rt":13975,"response":{"heads":"10","tails":"10"},"type":"response","condition":"seqFeedback","trueTheta":0.5,"classrooms":["A","B"],"studentTrueClassroom":"B","exampleSet":"first","trial_type":"survey-html-form","trial_index":16,"time_elapsed":519614,"internal_node_id":"0.0-12.0-0.0","params":{"nStudents":24,"maxFlips":30,"completionMinutes":45,"basePay":8,"maxBonus":9,"perTrialBonus":0.5,"perTrialBonusThreshold":0.05,"exampleCost":0.01},"classroomParams":{"A":{"a":1,"b":4},"B":{"a":4,"b":1},"C":{"a":2,"b":8},"D":{"a":8,"b":2}},"conditions":["nonSeqFull","nonSeqPartial","seqNoFeedback","seqFeedback"],"classroomPairings":[["A","B"],["C","D"]],"coinWeights":[0.2,0.5,0.8],"subjectId":"A32JEH06T23HDF","assignmentId":"3YHH42UU5C1OBN6XN8Q1NCHYR0FL0N","hitId":"3J94SKDEKIB2MY6CGVTNWB9X0ALD5P","url":"https://gershmanlab.com/experiments/alicia/teaching/experiment/?hitId=3J94SKDEKIB2MY6CGVTNWB9X0ALD5P&workerId=A32JEH06T23HDF&assignmentId=3YHH42UU5C1OBN6XN8Q1NCHYR0FL0N&a=U4HY9&tp_a=U4HY9&b=3YHH42UU5C1OBN6XN8Q1NCHYR0FL0N&tp_b=3YHH42UU5C1OBN6XN8Q1NCHYR0FL0N&c=365799&tp_c=365799","heads":10,"tails":10,"studentIndex":1,"studentTrueHypers":{"a":4,"b":1},"studentGuess":0.56,"delta":0.06000000000000005,"totalExamples":20,"bonusSoFar":0},{"rt":null,"stimulus":"Sending examples to student... ","response":null,"trial_type":"html-keyboard-response","trial_index":17,"time_elapsed":521130,"internal_node_id":"0.0-13.0","params":{"nStudents":24,"maxFlips":30,"completionMinutes":45,"basePay":8,"maxBonus":9,"perTrialBonus":0.5,"perTrialBonusThreshold":0.05,"exampleCost":0.01},"classroomParams":{"A":{"a":1,"b":4},"B":{"a":4,"b":1},"C":{"a":2,"b":8},"D":{"a":8,"b":2}},"conditions":["nonSeqFull","nonSeqPartial","seqNoFeedback","seqFeedback"],"classroomPairings":[["A","B"],["C","D"]],"coinWeights":[0.2,0.5,0.8],"subjectId":"A32JEH06T23HDF","assignmentId":"3YHH42UU5C1OBN6XN8Q1NCHYR0FL0N","hitId":"3J94SKDEKIB2MY6CGVTNWB9X0ALD5P","url":"https://gershmanlab.com/experiments/alicia/teaching/experiment/?hitId=3J94SKDEKIB2MY6CGVTNWB9X0ALD5P&workerId=A32JEH06T23HDF&assignmentId=3YHH42UU5C1OBN6XN8Q1NCHYR0FL0N&a=U4HY9&tp_a=U4HY9&b=3YHH42UU5C1OBN6XN8Q1NCHYR0FL0N&tp_b=3YHH42UU5C1OBN6XN8Q1NCHYR0FL0N&c=365799&tp_c=365799"},{"rt":null,"stimulus":"Examples sent to student! Waiting for student...","response":null,"trial_type":"html-keyboard-response","trial_index":18,"time_elapsed":525139,"internal_node_id":"0.0-14.0","params":{"nStudents":24,"maxFlips":30,"completionMinutes":45,"basePay":8,"maxBonus":9,"perTrialBonus":0.5,"perTrialBonusThreshold":0.05,"exampleCost":0.01},"classroomParams":{"A":{"a":1,"b":4},"B":{"a":4,"b":1},"C":{"a":2,"b":8},"D":{"a":8,"b":2}},"conditions":["nonSeqFull","nonSeqPartial","seqNoFeedback","seqFeedback"],"classroomPairings":[["A","B"],["C","D"]],"coinWeights":[0.2,0.5,0.8],"subjectId":"A32JEH06T23HDF","assignmentId":"3YHH42UU5C1OBN6XN8Q1NCHYR0FL0N","hitId":"3J94SKDEKIB2MY6CGVTNWB9X0ALD5P","url":"https://gershmanlab.com/experiments/alicia/teaching/experiment/?hitId=3J94SKDEKIB2MY6CGVTNWB9X0ALD5P&workerId=A32JEH06T23HDF&assignmentId=3YHH42UU5C1OBN6XN8Q1NCHYR0FL0N&a=U4HY9&tp_a=U4HY9&b=3YHH42UU5C1OBN6XN8Q1NCHYR0FL0N&tp_b=3YHH42UU5C1OBN6XN8Q1NCHYR0FL0N&c=365799&tp_c=365799"},{"rt":4430,"stimulus":"\n                <p>Student's guess for coin weight: <b style=\"color:Tomato;\">0.56</b></p>\n                <p></b></p>\n                <p>You will now send another set of examples to your student. <b>Remember to take your student's guess into consideration so that you can earn the highest bonus possible!</b> </p>\n                <p>Press any key to continue.</p>\n                ","response":"enter","trial_type":"html-keyboard-response","trial_index":19,"time_elapsed":529571,"internal_node_id":"0.0-15.0","params":{"nStudents":24,"maxFlips":30,"completionMinutes":45,"basePay":8,"maxBonus":9,"perTrialBonus":0.5,"perTrialBonusThreshold":0.05,"exampleCost":0.01},"classroomParams":{"A":{"a":1,"b":4},"B":{"a":4,"b":1},"C":{"a":2,"b":8},"D":{"a":8,"b":2}},"conditions":["nonSeqFull","nonSeqPartial","seqNoFeedback","seqFeedback"],"classroomPairings":[["A","B"],["C","D"]],"coinWeights":[0.2,0.5,0.8],"subjectId":"A32JEH06T23HDF","assignmentId":"3YHH42UU5C1OBN6XN8Q1NCHYR0FL0N","hitId":"3J94SKDEKIB2MY6CGVTNWB9X0ALD5P","url":"https://gershmanlab.com/experiments/alicia/teaching/experiment/?hitId=3J94SKDEKIB2MY6CGVTNWB9X0ALD5P&workerId=A32JEH06T23HDF&assignmentId=3YHH42UU5C1OBN6XN8Q1NCHYR0FL0N&a=U4HY9&tp_a=U4HY9&b=3YHH42UU5C1OBN6XN8Q1NCHYR0FL0N&tp_b=3YHH42UU5C1OBN6XN8Q1NCHYR0FL0N&c=365799&tp_c=365799"},{"rt":15851,"response":{"heads":"20","tails":"20"},"type":"response","condition":"seqFeedback","trueTheta":0.5,"classrooms":["A","B"],"studentTrueClassroom":"B","exampleSet":"second","trial_type":"survey-html-form","trial_index":20,"time_elapsed":545423,"internal_node_id":"0.0-16.0-0.0","params":{"nStudents":24,"maxFlips":30,"completionMinutes":45,"basePay":8,"maxBonus":9,"perTrialBonus":0.5,"perTrialBonusThreshold":0.05,"exampleCost":0.01},"classroomParams":{"A":{"a":1,"b":4},"B":{"a":4,"b":1},"C":{"a":2,"b":8},"D":{"a":8,"b":2}},"conditions":["nonSeqFull","nonSeqPartial","seqNoFeedback","seqFeedback"],"classroomPairings":[["A","B"],["C","D"]],"coinWeights":[0.2,0.5,0.8],"subjectId":"A32JEH06T23HDF","assignmentId":"3YHH42UU5C1OBN6XN8Q1NCHYR0FL0N","hitId":"3J94SKDEKIB2MY6CGVTNWB9X0ALD5P","url":"https://gershmanlab.com/experiments/alicia/teaching/experiment/?hitId=3J94SKDEKIB2MY6CGVTNWB9X0ALD5P&workerId=A32JEH06T23HDF&assignmentId=3YHH42UU5C1OBN6XN8Q1NCHYR0FL0N&a=U4HY9&tp_a=U4HY9&b=3YHH42UU5C1OBN6XN8Q1NCHYR0FL0N&tp_b=3YHH42UU5C1OBN6XN8Q1NCHYR0FL0N&c=365799&tp_c=365799","firstResponseHeads":10,"firstResponseTails":10,"secondResponseHeads":20,"secondResponseTails":20,"totalHeads":30,"totalTails":30,"studentIndex":1,"studentTrueHypers":{"a":4,"b":1},"studentGuess":0.5230769230769231,"delta":0.023076923076923106,"bonus":0,"bonusSoFar":0,"totalExamples":60},{"rt":8924,"response":{"heads":"15","tails":"15"},"type":"response","condition":"seqFeedback","trueTheta":0.5,"classrooms":["A","B"],"studentTrueClassroom":"B","exampleSet":"second","trial_type":"survey-html-form","trial_index":21,"time_elapsed":554350,"internal_node_id":"0.0-16.1-0.1","params":{"nStudents":24,"maxFlips":30,"completionMinutes":45,"basePay":8,"maxBonus":9,"perTrialBonus":0.5,"perTrialBonusThreshold":0.05,"exampleCost":0.01},"classroomParams":{"A":{"a":1,"b":4},"B":{"a":4,"b":1},"C":{"a":2,"b":8},"D":{"a":8,"b":2}},"conditions":["nonSeqFull","nonSeqPartial","seqNoFeedback","seqFeedback"],"classroomPairings":[["A","B"],["C","D"]],"coinWeights":[0.2,0.5,0.8],"subjectId":"A32JEH06T23HDF","assignmentId":"3YHH42UU5C1OBN6XN8Q1NCHYR0FL0N","hitId":"3J94SKDEKIB2MY6CGVTNWB9X0ALD5P","url":"https://gershmanlab.com/experiments/alicia/teaching/experiment/?hitId=3J94SKDEKIB2MY6CGVTNWB9X0ALD5P&workerId=A32JEH06T23HDF&assignmentId=3YHH42UU5C1OBN6XN8Q1NCHYR0FL0N&a=U4HY9&tp_a=U4HY9&b=3YHH42UU5C1OBN6XN8Q1NCHYR0FL0N&tp_b=3YHH42UU5C1OBN6XN8Q1NCHYR0FL0N&c=365799&tp_c=365799","firstResponseHeads":10,"firstResponseTails":10,"secondResponseHeads":15,"secondResponseTails":15,"totalHeads":25,"totalTails":25,"studentIndex":1,"studentTrueHypers":{"a":4,"b":1},"studentGuess":0.5272727272727272,"delta":0.027272727272727226,"bonus":0,"bonusSoFar":0,"totalExamples":50},{"rt":null,"stimulus":"Sending examples to student... ","response":null,"trial_type":"html-keyboard-response","trial_index":22,"time_elapsed":556113,"internal_node_id":"0.0-17.0","params":{"nStudents":24,"maxFlips":30,"completionMinutes":45,"basePay":8,"maxBonus":9,"perTrialBonus":0.5,"perTrialBonusThreshold":0.05,"exampleCost":0.01},"classroomParams":{"A":{"a":1,"b":4},"B":{"a":4,"b":1},"C":{"a":2,"b":8},"D":{"a":8,"b":2}},"conditions":["nonSeqFull","nonSeqPartial","seqNoFeedback","seqFeedback"],"classroomPairings":[["A","B"],["C","D"]],"coinWeights":[0.2,0.5,0.8],"subjectId":"A32JEH06T23HDF","assignmentId":"3YHH42UU5C1OBN6XN8Q1NCHYR0FL0N","hitId":"3J94SKDEKIB2MY6CGVTNWB9X0ALD5P","url":"https://gershmanlab.com/experiments/alicia/teaching/experiment/?hitId=3J94SKDEKIB2MY6CGVTNWB9X0ALD5P&workerId=A32JEH06T23HDF&assignmentId=3YHH42UU5C1OBN6XN8Q1NCHYR0FL0N&a=U4HY9&tp_a=U4HY9&b=3YHH42UU5C1OBN6XN8Q1NCHYR0FL0N&tp_b=3YHH42UU5C1OBN6XN8Q1NCHYR0FL0N&c=365799&tp_c=365799"},{"rt":null,"stimulus":"Examples sent to student! Waiting for student...","response":null,"trial_type":"html-keyboard-response","trial_index":23,"time_elapsed":561123,"internal_node_id":"0.0-18.0","params":{"nStudents":24,"maxFlips":30,"completionMinutes":45,"basePay":8,"maxBonus":9,"perTrialBonus":0.5,"perTrialBonusThreshold":0.05,"exampleCost":0.01},"classroomParams":{"A":{"a":1,"b":4},"B":{"a":4,"b":1},"C":{"a":2,"b":8},"D":{"a":8,"b":2}},"conditions":["nonSeqFull","nonSeqPartial","seqNoFeedback","seqFeedback"],"classroomPairings":[["A","B"],["C","D"]],"coinWeights":[0.2,0.5,0.8],"subjectId":"A32JEH06T23HDF","assignmentId":"3YHH42UU5C1OBN6XN8Q1NCHYR0FL0N","hitId":"3J94SKDEKIB2MY6CGVTNWB9X0ALD5P","url":"https://gershmanlab.com/experiments/alicia/teaching/experiment/?hitId=3J94SKDEKIB2MY6CGVTNWB9X0ALD5P&workerId=A32JEH06T23HDF&assignmentId=3YHH42UU5C1OBN6XN8Q1NCHYR0FL0N&a=U4HY9&tp_a=U4HY9&b=3YHH42UU5C1OBN6XN8Q1NCHYR0FL0N&tp_b=3YHH42UU5C1OBN6XN8Q1NCHYR0FL0N&c=365799&tp_c=365799"},{"rt":3798,"stimulus":"\n                <p>Student 2's first guess for coin weight: <b style=\"color:Tomato\";>0.56</b></p>\n                <p>Student 2's second guess for coin weight: <b style=\"color:Tomato\";>0.52</b></p>\n                <p>You received a bonus of <b>$0.00</b> based on the student's second guess.</p>\n                <p>Total bonus so far: <b>$0.00</b></p>\n                <p>Press any key to continue.</p>\n                ","response":" ","trial_type":"html-keyboard-response","trial_index":24,"time_elapsed":564923,"internal_node_id":"0.0-19.0","params":{"nStudents":24,"maxFlips":30,"completionMinutes":45,"basePay":8,"maxBonus":9,"perTrialBonus":0.5,"perTrialBonusThreshold":0.05,"exampleCost":0.01},"classroomParams":{"A":{"a":1,"b":4},"B":{"a":4,"b":1},"C":{"a":2,"b":8},"D":{"a":8,"b":2}},"conditions":["nonSeqFull","nonSeqPartial","seqNoFeedback","seqFeedback"],"classroomPairings":[["A","B"],["C","D"]],"coinWeights":[0.2,0.5,0.8],"subjectId":"A32JEH06T23HDF","assignmentId":"3YHH42UU5C1OBN6XN8Q1NCHYR0FL0N","hitId":"3J94SKDEKIB2MY6CGVTNWB9X0ALD5P","url":"https://gershmanlab.com/experiments/alicia/teaching/experiment/?hitId=3J94SKDEKIB2MY6CGVTNWB9X0ALD5P&workerId=A32JEH06T23HDF&assignmentId=3YHH42UU5C1OBN6XN8Q1NCHYR0FL0N&a=U4HY9&tp_a=U4HY9&b=3YHH42UU5C1OBN6XN8Q1NCHYR0FL0N&tp_b=3YHH42UU5C1OBN6XN8Q1NCHYR0FL0N&c=365799&tp_c=365799"},{"rt":null,"stimulus":"<div style=\"font-size:60px;\">Next student</div>","response":null,"trial_type":"html-keyboard-response","trial_index":25,"time_elapsed":566939,"internal_node_id":"0.0-20.0-0.0","params":{"nStudents":24,"maxFlips":30,"completionMinutes":45,"basePay":8,"maxBonus":9,"perTrialBonus":0.5,"perTrialBonusThreshold":0.05,"exampleCost":0.01},"classroomParams":{"A":{"a":1,"b":4},"B":{"a":4,"b":1},"C":{"a":2,"b":8},"D":{"a":8,"b":2}},"conditions":["nonSeqFull","nonSeqPartial","seqNoFeedback","seqFeedback"],"classroomPairings":[["A","B"],["C","D"]],"coinWeights":[0.2,0.5,0.8],"subjectId":"A32JEH06T23HDF","assignmentId":"3YHH42UU5C1OBN6XN8Q1NCHYR0FL0N","hitId":"3J94SKDEKIB2MY6CGVTNWB9X0ALD5P","url":"https://gershmanlab.com/experiments/alicia/teaching/experiment/?hitId=3J94SKDEKIB2MY6CGVTNWB9X0ALD5P&workerId=A32JEH06T23HDF&assignmentId=3YHH42UU5C1OBN6XN8Q1NCHYR0FL0N&a=U4HY9&tp_a=U4HY9&b=3YHH42UU5C1OBN6XN8Q1NCHYR0FL0N&tp_b=3YHH42UU5C1OBN6XN8Q1NCHYR0FL0N&c=365799&tp_c=365799"},{"rt":3768,"stimulus":"\n            <h4 style=\"color:Orange;\">Student 3</h4>\n            <h2>The weight of your coin is <b style=\"color:Tomato;\">0.5</b>.</h2>\n            <p>In this block, you will be giving <b>two</b> sets of examples to Student 3.</p>\n                <p>You will receive feedback at the end of the block.</p>\n            <p></p>","response":0,"trial_type":"html-button-response","trial_index":26,"time_elapsed":570708,"internal_node_id":"0.0-21.0","params":{"nStudents":24,"maxFlips":30,"completionMinutes":45,"basePay":8,"maxBonus":9,"perTrialBonus":0.5,"perTrialBonusThreshold":0.05,"exampleCost":0.01},"classroomParams":{"A":{"a":1,"b":4},"B":{"a":4,"b":1},"C":{"a":2,"b":8},"D":{"a":8,"b":2}},"conditions":["nonSeqFull","nonSeqPartial","seqNoFeedback","seqFeedback"],"classroomPairings":[["A","B"],["C","D"]],"coinWeights":[0.2,0.5,0.8],"subjectId":"A32JEH06T23HDF","assignmentId":"3YHH42UU5C1OBN6XN8Q1NCHYR0FL0N","hitId":"3J94SKDEKIB2MY6CGVTNWB9X0ALD5P","url":"https://gershmanlab.com/experiments/alicia/teaching/experiment/?hitId=3J94SKDEKIB2MY6CGVTNWB9X0ALD5P&workerId=A32JEH06T23HDF&assignmentId=3YHH42UU5C1OBN6XN8Q1NCHYR0FL0N&a=U4HY9&tp_a=U4HY9&b=3YHH42UU5C1OBN6XN8Q1NCHYR0FL0N&tp_b=3YHH42UU5C1OBN6XN8Q1NCHYR0FL0N&c=365799&tp_c=365799"},{"rt":9120,"response":{"heads":"15","tails":"14"},"type":"response","condition":"seqNoFeedback","trueTheta":0.5,"classrooms":["A","B"],"studentTrueClassroom":"B","exampleSet":"first","trial_type":"survey-html-form","trial_index":27,"time_elapsed":579830,"internal_node_id":"0.0-22.0-0.0","params":{"nStudents":24,"maxFlips":30,"completionMinutes":45,"basePay":8,"maxBonus":9,"perTrialBonus":0.5,"perTrialBonusThreshold":0.05,"exampleCost":0.01},"classroomParams":{"A":{"a":1,"b":4},"B":{"a":4,"b":1},"C":{"a":2,"b":8},"D":{"a":8,"b":2}},"conditions":["nonSeqFull","nonSeqPartial","seqNoFeedback","seqFeedback"],"classroomPairings":[["A","B"],["C","D"]],"coinWeights":[0.2,0.5,0.8],"subjectId":"A32JEH06T23HDF","assignmentId":"3YHH42UU5C1OBN6XN8Q1NCHYR0FL0N","hitId":"3J94SKDEKIB2MY6CGVTNWB9X0ALD5P","url":"https://gershmanlab.com/experiments/alicia/teaching/experiment/?hitId=3J94SKDEKIB2MY6CGVTNWB9X0ALD5P&workerId=A32JEH06T23HDF&assignmentId=3YHH42UU5C1OBN6XN8Q1NCHYR0FL0N&a=U4HY9&tp_a=U4HY9&b=3YHH42UU5C1OBN6XN8Q1NCHYR0FL0N&tp_b=3YHH42UU5C1OBN6XN8Q1NCHYR0FL0N&c=365799&tp_c=365799","heads":15,"tails":14,"studentIndex":2,"studentTrueHypers":{"a":4,"b":1},"studentGuess":0.5588235294117647,"delta":0.05882352941176472,"totalExamples":29,"bonusSoFar":0},{"rt":null,"stimulus":"Sending examples to student... ","response":null,"trial_type":"html-keyboard-response","trial_index":28,"time_elapsed":581082,"internal_node_id":"0.0-23.0","params":{"nStudents":24,"maxFlips":30,"completionMinutes":45,"basePay":8,"maxBonus":9,"perTrialBonus":0.5,"perTrialBonusThreshold":0.05,"exampleCost":0.01},"classroomParams":{"A":{"a":1,"b":4},"B":{"a":4,"b":1},"C":{"a":2,"b":8},"D":{"a":8,"b":2}},"conditions":["nonSeqFull","nonSeqPartial","seqNoFeedback","seqFeedback"],"classroomPairings":[["A","B"],["C","D"]],"coinWeights":[0.2,0.5,0.8],"subjectId":"A32JEH06T23HDF","assignmentId":"3YHH42UU5C1OBN6XN8Q1NCHYR0FL0N","hitId":"3J94SKDEKIB2MY6CGVTNWB9X0ALD5P","url":"https://gershmanlab.com/experiments/alicia/teaching/experiment/?hitId=3J94SKDEKIB2MY6CGVTNWB9X0ALD5P&workerId=A32JEH06T23HDF&assignmentId=3YHH42UU5C1OBN6XN8Q1NCHYR0FL0N&a=U4HY9&tp_a=U4HY9&b=3YHH42UU5C1OBN6XN8Q1NCHYR0FL0N&tp_b=3YHH42UU5C1OBN6XN8Q1NCHYR0FL0N&c=365799&tp_c=365799"},{"rt":null,"stimulus":"Examples sent to student! Waiting for student...","response":null,"trial_type":"html-keyboard-response","trial_index":29,"time_elapsed":585096,"internal_node_id":"0.0-24.0","params":{"nStudents":24,"maxFlips":30,"completionMinutes":45,"basePay":8,"maxBonus":9,"perTrialBonus":0.5,"perTrialBonusThreshold":0.05,"exampleCost":0.01},"classroomParams":{"A":{"a":1,"b":4},"B":{"a":4,"b":1},"C":{"a":2,"b":8},"D":{"a":8,"b":2}},"conditions":["nonSeqFull","nonSeqPartial","seqNoFeedback","seqFeedback"],"classroomPairings":[["A","B"],["C","D"]],"coinWeights":[0.2,0.5,0.8],"subjectId":"A32JEH06T23HDF","assignmentId":"3YHH42UU5C1OBN6XN8Q1NCHYR0FL0N","hitId":"3J94SKDEKIB2MY6CGVTNWB9X0ALD5P","url":"https://gershmanlab.com/experiments/alicia/teaching/experiment/?hitId=3J94SKDEKIB2MY6CGVTNWB9X0ALD5P&workerId=A32JEH06T23HDF&assignmentId=3YHH42UU5C1OBN6XN8Q1NCHYR0FL0N&a=U4HY9&tp_a=U4HY9&b=3YHH42UU5C1OBN6XN8Q1NCHYR0FL0N&tp_b=3YHH42UU5C1OBN6XN8Q1NCHYR0FL0N&c=365799&tp_c=365799"},{"rt":9621,"response":{"heads":"16","tails":"14"},"type":"response","condition":"seqNoFeedback","trueTheta":0.5,"classrooms":["A","B"],"studentTrueClassroom":"B","exampleSet":"second","trial_type":"survey-html-form","trial_index":30,"time_elapsed":594719,"internal_node_id":"0.0-25.0-0.0","params":{"nStudents":24,"maxFlips":30,"completionMinutes":45,"basePay":8,"maxBonus":9,"perTrialBonus":0.5,"perTrialBonusThreshold":0.05,"exampleCost":0.01},"classroomParams":{"A":{"a":1,"b":4},"B":{"a":4,"b":1},"C":{"a":2,"b":8},"D":{"a":8,"b":2}},"conditions":["nonSeqFull","nonSeqPartial","seqNoFeedback","seqFeedback"],"classroomPairings":[["A","B"],["C","D"]],"coinWeights":[0.2,0.5,0.8],"subjectId":"A32JEH06T23HDF","assignmentId":"3YHH42UU5C1OBN6XN8Q1NCHYR0FL0N","hitId":"3J94SKDEKIB2MY6CGVTNWB9X0ALD5P","url":"https://gershmanlab.com/experiments/alicia/teaching/experiment/?hitId=3J94SKDEKIB2MY6CGVTNWB9X0ALD5P&workerId=A32JEH06T23HDF&assignmentId=3YHH42UU5C1OBN6XN8Q1NCHYR0FL0N&a=U4HY9&tp_a=U4HY9&b=3YHH42UU5C1OBN6XN8Q1NCHYR0FL0N&tp_b=3YHH42UU5C1OBN6XN8Q1NCHYR0FL0N&c=365799&tp_c=365799","firstResponseHeads":15,"firstResponseTails":14,"secondResponseHeads":16,"secondResponseTails":14,"totalHeads":31,"totalTails":28,"studentIndex":2,"studentTrueHypers":{"a":4,"b":1},"studentGuess":0.546875,"delta":0.046875,"bonus":0,"bonusSoFar":0,"totalExamples":59},{"rt":null,"stimulus":"Sending examples to student... ","response":null,"trial_type":"html-keyboard-response","trial_index":31,"time_elapsed":596725,"internal_node_id":"0.0-26.0","params":{"nStudents":24,"maxFlips":30,"completionMinutes":45,"basePay":8,"maxBonus":9,"perTrialBonus":0.5,"perTrialBonusThreshold":0.05,"exampleCost":0.01},"classroomParams":{"A":{"a":1,"b":4},"B":{"a":4,"b":1},"C":{"a":2,"b":8},"D":{"a":8,"b":2}},"conditions":["nonSeqFull","nonSeqPartial","seqNoFeedback","seqFeedback"],"classroomPairings":[["A","B"],["C","D"]],"coinWeights":[0.2,0.5,0.8],"subjectId":"A32JEH06T23HDF","assignmentId":"3YHH42UU5C1OBN6XN8Q1NCHYR0FL0N","hitId":"3J94SKDEKIB2MY6CGVTNWB9X0ALD5P","url":"https://gershmanlab.com/experiments/alicia/teaching/experiment/?hitId=3J94SKDEKIB2MY6CGVTNWB9X0ALD5P&workerId=A32JEH06T23HDF&assignmentId=3YHH42UU5C1OBN6XN8Q1NCHYR0FL0N&a=U4HY9&tp_a=U4HY9&b=3YHH42UU5C1OBN6XN8Q1NCHYR0FL0N&tp_b=3YHH42UU5C1OBN6XN8Q1NCHYR0FL0N&c=365799&tp_c=365799"},{"rt":null,"stimulus":"Examples sent to student! Waiting for student...","response":null,"trial_type":"html-keyboard-response","trial_index":32,"time_elapsed":602235,"internal_node_id":"0.0-27.0","params":{"nStudents":24,"maxFlips":30,"completionMinutes":45,"basePay":8,"maxBonus":9,"perTrialBonus":0.5,"perTrialBonusThreshold":0.05,"exampleCost":0.01},"classroomParams":{"A":{"a":1,"b":4},"B":{"a":4,"b":1},"C":{"a":2,"b":8},"D":{"a":8,"b":2}},"conditions":["nonSeqFull","nonSeqPartial","seqNoFeedback","seqFeedback"],"classroomPairings":[["A","B"],["C","D"]],"coinWeights":[0.2,0.5,0.8],"subjectId":"A32JEH06T23HDF","assignmentId":"3YHH42UU5C1OBN6XN8Q1NCHYR0FL0N","hitId":"3J94SKDEKIB2MY6CGVTNWB9X0ALD5P","url":"https://gershmanlab.com/experiments/alicia/teaching/experiment/?hitId=3J94SKDEKIB2MY6CGVTNWB9X0ALD5P&workerId=A32JEH06T23HDF&assignmentId=3YHH42UU5C1OBN6XN8Q1NCHYR0FL0N&a=U4HY9&tp_a=U4HY9&b=3YHH42UU5C1OBN6XN8Q1NCHYR0FL0N&tp_b=3YHH42UU5C1OBN6XN8Q1NCHYR0FL0N&c=365799&tp_c=365799"},{"rt":2325,"stimulus":"\n                <p>Student 3's first guess for coin weight: <b style=\"color:Tomato\";>0.56</b></p>\n                <p>Student 3's second guess for coin weight: <b style=\"color:Tomato\";>0.55</b></p>\n                <p>You received a bonus of <b>$0.00</b> based on the student's second guess.</p>\n                <p>Total bonus so far: <b>$0.00</b></p>\n                <p>Press any key to continue.</p>\n                ","response":" ","trial_type":"html-keyboard-response","trial_index":33,"time_elapsed":604563,"internal_node_id":"0.0-28.0","params":{"nStudents":24,"maxFlips":30,"completionMinutes":45,"basePay":8,"maxBonus":9,"perTrialBonus":0.5,"perTrialBonusThreshold":0.05,"exampleCost":0.01},"classroomParams":{"A":{"a":1,"b":4},"B":{"a":4,"b":1},"C":{"a":2,"b":8},"D":{"a":8,"b":2}},"conditions":["nonSeqFull","nonSeqPartial","seqNoFeedback","seqFeedback"],"classroomPairings":[["A","B"],["C","D"]],"coinWeights":[0.2,0.5,0.8],"subjectId":"A32JEH06T23HDF","assignmentId":"3YHH42UU5C1OBN6XN8Q1NCHYR0FL0N","hitId":"3J94SKDEKIB2MY6CGVTNWB9X0ALD5P","url":"https://gershmanlab.com/experiments/alicia/teaching/experiment/?hitId=3J94SKDEKIB2MY6CGVTNWB9X0ALD5P&workerId=A32JEH06T23HDF&assignmentId=3YHH42UU5C1OBN6XN8Q1NCHYR0FL0N&a=U4HY9&tp_a=U4HY9&b=3YHH42UU5C1OBN6XN8Q1NCHYR0FL0N&tp_b=3YHH42UU5C1OBN6XN8Q1NCHYR0FL0N&c=365799&tp_c=365799"},{"rt":null,"stimulus":"<div style=\"font-size:60px;\">Next student</div>","response":null,"trial_type":"html-keyboard-response","trial_index":34,"time_elapsed":607568,"internal_node_id":"0.0-29.0-0.0","params":{"nStudents":24,"maxFlips":30,"completionMinutes":45,"basePay":8,"maxBonus":9,"perTrialBonus":0.5,"perTrialBonusThreshold":0.05,"exampleCost":0.01},"classroomParams":{"A":{"a":1,"b":4},"B":{"a":4,"b":1},"C":{"a":2,"b":8},"D":{"a":8,"b":2}},"conditions":["nonSeqFull","nonSeqPartial","seqNoFeedback","seqFeedback"],"classroomPairings":[["A","B"],["C","D"]],"coinWeights":[0.2,0.5,0.8],"subjectId":"A32JEH06T23HDF","assignmentId":"3YHH42UU5C1OBN6XN8Q1NCHYR0FL0N","hitId":"3J94SKDEKIB2MY6CGVTNWB9X0ALD5P","url":"https://gershmanlab.com/experiments/alicia/teaching/experiment/?hitId=3J94SKDEKIB2MY6CGVTNWB9X0ALD5P&workerId=A32JEH06T23HDF&assignmentId=3YHH42UU5C1OBN6XN8Q1NCHYR0FL0N&a=U4HY9&tp_a=U4HY9&b=3YHH42UU5C1OBN6XN8Q1NCHYR0FL0N&tp_b=3YHH42UU5C1OBN6XN8Q1NCHYR0FL0N&c=365799&tp_c=365799"},{"rt":9293,"stimulus":"\n            <h4 style=\"color:Orange;\">Student 4</h4>\n            <h2>The weight of your coin is <b style=\"color:Tomato;\">0.5</b>.</h2>\n            <p>In this block, you will be giving <b>two</b> sets of examples to Student 4.</p>\n                <p>You will see the student's guess after the first set of examples. You will also receive feedback at the end of the block.</p>\n            <p>To earn the highest bonus, you will have to <b>take into consideration the student's guess</b> when you choose your second set of examples.</p>","response":0,"trial_type":"html-button-response","trial_index":35,"time_elapsed":616863,"internal_node_id":"0.0-30.0","params":{"nStudents":24,"maxFlips":30,"completionMinutes":45,"basePay":8,"maxBonus":9,"perTrialBonus":0.5,"perTrialBonusThreshold":0.05,"exampleCost":0.01},"classroomParams":{"A":{"a":1,"b":4},"B":{"a":4,"b":1},"C":{"a":2,"b":8},"D":{"a":8,"b":2}},"conditions":["nonSeqFull","nonSeqPartial","seqNoFeedback","seqFeedback"],"classroomPairings":[["A","B"],["C","D"]],"coinWeights":[0.2,0.5,0.8],"subjectId":"A32JEH06T23HDF","assignmentId":"3YHH42UU5C1OBN6XN8Q1NCHYR0FL0N","hitId":"3J94SKDEKIB2MY6CGVTNWB9X0ALD5P","url":"https://gershmanlab.com/experiments/alicia/teaching/experiment/?hitId=3J94SKDEKIB2MY6CGVTNWB9X0ALD5P&workerId=A32JEH06T23HDF&assignmentId=3YHH42UU5C1OBN6XN8Q1NCHYR0FL0N&a=U4HY9&tp_a=U4HY9&b=3YHH42UU5C1OBN6XN8Q1NCHYR0FL0N&tp_b=3YHH42UU5C1OBN6XN8Q1NCHYR0FL0N&c=365799&tp_c=365799"},{"rt":13174,"response":{"heads":"9","tails":"21"},"type":"response","condition":"seqFeedback","trueTheta":0.5,"classrooms":["C","D"],"studentTrueClassroom":"C","exampleSet":"first","trial_type":"survey-html-form","trial_index":36,"time_elapsed":630039,"internal_node_id":"0.0-31.0-0.0","params":{"nStudents":24,"maxFlips":30,"completionMinutes":45,"basePay":8,"maxBonus":9,"perTrialBonus":0.5,"perTrialBonusThreshold":0.05,"exampleCost":0.01},"classroomParams":{"A":{"a":1,"b":4},"B":{"a":4,"b":1},"C":{"a":2,"b":8},"D":{"a":8,"b":2}},"conditions":["nonSeqFull","nonSeqPartial","seqNoFeedback","seqFeedback"],"classroomPairings":[["A","B"],["C","D"]],"coinWeights":[0.2,0.5,0.8],"subjectId":"A32JEH06T23HDF","assignmentId":"3YHH42UU5C1OBN6XN8Q1NCHYR0FL0N","hitId":"3J94SKDEKIB2MY6CGVTNWB9X0ALD5P","url":"https://gershmanlab.com/experiments/alicia/teaching/experiment/?hitId=3J94SKDEKIB2MY6CGVTNWB9X0ALD5P&workerId=A32JEH06T23HDF&assignmentId=3YHH42UU5C1OBN6XN8Q1NCHYR0FL0N&a=U4HY9&tp_a=U4HY9&b=3YHH42UU5C1OBN6XN8Q1NCHYR0FL0N&tp_b=3YHH42UU5C1OBN6XN8Q1NCHYR0FL0N&c=365799&tp_c=365799","heads":9,"tails":21,"studentIndex":3,"studentTrueHypers":{"a":2,"b":8},"studentGuess":0.275,"delta":0.22499999999999998,"totalExamples":30,"bonusSoFar":0},{"rt":null,"stimulus":"Sending examples to student... ","response":null,"trial_type":"html-keyboard-response","trial_index":37,"time_elapsed":632061,"internal_node_id":"0.0-32.0","params":{"nStudents":24,"maxFlips":30,"completionMinutes":45,"basePay":8,"maxBonus":9,"perTrialBonus":0.5,"perTrialBonusThreshold":0.05,"exampleCost":0.01},"classroomParams":{"A":{"a":1,"b":4},"B":{"a":4,"b":1},"C":{"a":2,"b":8},"D":{"a":8,"b":2}},"conditions":["nonSeqFull","nonSeqPartial","seqNoFeedback","seqFeedback"],"classroomPairings":[["A","B"],["C","D"]],"coinWeights":[0.2,0.5,0.8],"subjectId":"A32JEH06T23HDF","assignmentId":"3YHH42UU5C1OBN6XN8Q1NCHYR0FL0N","hitId":"3J94SKDEKIB2MY6CGVTNWB9X0ALD5P","url":"https://gershmanlab.com/experiments/alicia/teaching/experiment/?hitId=3J94SKDEKIB2MY6CGVTNWB9X0ALD5P&workerId=A32JEH06T23HDF&assignmentId=3YHH42UU5C1OBN6XN8Q1NCHYR0FL0N&a=U4HY9&tp_a=U4HY9&b=3YHH42UU5C1OBN6XN8Q1NCHYR0FL0N&tp_b=3YHH42UU5C1OBN6XN8Q1NCHYR0FL0N&c=365799&tp_c=365799"},{"rt":null,"stimulus":"Examples sent to student! Waiting for student...","response":null,"trial_type":"html-keyboard-response","trial_index":38,"time_elapsed":637563,"internal_node_id":"0.0-33.0","params":{"nStudents":24,"maxFlips":30,"completionMinutes":45,"basePay":8,"maxBonus":9,"perTrialBonus":0.5,"perTrialBonusThreshold":0.05,"exampleCost":0.01},"classroomParams":{"A":{"a":1,"b":4},"B":{"a":4,"b":1},"C":{"a":2,"b":8},"D":{"a":8,"b":2}},"conditions":["nonSeqFull","nonSeqPartial","seqNoFeedback","seqFeedback"],"classroomPairings":[["A","B"],["C","D"]],"coinWeights":[0.2,0.5,0.8],"subjectId":"A32JEH06T23HDF","assignmentId":"3YHH42UU5C1OBN6XN8Q1NCHYR0FL0N","hitId":"3J94SKDEKIB2MY6CGVTNWB9X0ALD5P","url":"https://gershmanlab.com/experiments/alicia/teaching/experiment/?hitId=3J94SKDEKIB2MY6CGVTNWB9X0ALD5P&workerId=A32JEH06T23HDF&assignmentId=3YHH42UU5C1OBN6XN8Q1NCHYR0FL0N&a=U4HY9&tp_a=U4HY9&b=3YHH42UU5C1OBN6XN8Q1NCHYR0FL0N&tp_b=3YHH42UU5C1OBN6XN8Q1NCHYR0FL0N&c=365799&tp_c=365799"},{"rt":4856,"stimulus":"\n                <p>Student's guess for coin weight: <b style=\"color:Tomato;\">0.28</b></p>\n                <p></b></p>\n                <p>You will now send another set of examples to your student. <b>Remember to take your student's guess into consideration so that you can earn the highest bonus possible!</b> </p>\n                <p>Press any key to continue.</p>\n                ","response":" ","trial_type":"html-keyboard-response","trial_index":39,"time_elapsed":642421,"internal_node_id":"0.0-34.0","params":{"nStudents":24,"maxFlips":30,"completionMinutes":45,"basePay":8,"maxBonus":9,"perTrialBonus":0.5,"perTrialBonusThreshold":0.05,"exampleCost":0.01},"classroomParams":{"A":{"a":1,"b":4},"B":{"a":4,"b":1},"C":{"a":2,"b":8},"D":{"a":8,"b":2}},"conditions":["nonSeqFull","nonSeqPartial","seqNoFeedback","seqFeedback"],"classroomPairings":[["A","B"],["C","D"]],"coinWeights":[0.2,0.5,0.8],"subjectId":"A32JEH06T23HDF","assignmentId":"3YHH42UU5C1OBN6XN8Q1NCHYR0FL0N","hitId":"3J94SKDEKIB2MY6CGVTNWB9X0ALD5P","url":"https://gershmanlab.com/experiments/alicia/teaching/experiment/?hitId=3J94SKDEKIB2MY6CGVTNWB9X0ALD5P&workerId=A32JEH06T23HDF&assignmentId=3YHH42UU5C1OBN6XN8Q1NCHYR0FL0N&a=U4HY9&tp_a=U4HY9&b=3YHH42UU5C1OBN6XN8Q1NCHYR0FL0N&tp_b=3YHH42UU5C1OBN6XN8Q1NCHYR0FL0N&c=365799&tp_c=365799"},{"rt":22321,"response":{"heads":"20","tails":"15"},"type":"response","condition":"seqFeedback","trueTheta":0.5,"classrooms":["C","D"],"studentTrueClassroom":"C","exampleSet":"second","trial_type":"survey-html-form","trial_index":40,"time_elapsed":664744,"internal_node_id":"0.0-35.0-0.0","params":{"nStudents":24,"maxFlips":30,"completionMinutes":45,"basePay":8,"maxBonus":9,"perTrialBonus":0.5,"perTrialBonusThreshold":0.05,"exampleCost":0.01},"classroomParams":{"A":{"a":1,"b":4},"B":{"a":4,"b":1},"C":{"a":2,"b":8},"D":{"a":8,"b":2}},"conditions":["nonSeqFull","nonSeqPartial","seqNoFeedback","seqFeedback"],"classroomPairings":[["A","B"],["C","D"]],"coinWeights":[0.2,0.5,0.8],"subjectId":"A32JEH06T23HDF","assignmentId":"3YHH42UU5C1OBN6XN8Q1NCHYR0FL0N","hitId":"3J94SKDEKIB2MY6CGVTNWB9X0ALD5P","url":"https://gershmanlab.com/experiments/alicia/teaching/experiment/?hitId=3J94SKDEKIB2MY6CGVTNWB9X0ALD5P&workerId=A32JEH06T23HDF&assignmentId=3YHH42UU5C1OBN6XN8Q1NCHYR0FL0N&a=U4HY9&tp_a=U4HY9&b=3YHH42UU5C1OBN6XN8Q1NCHYR0FL0N&tp_b=3YHH42UU5C1OBN6XN8Q1NCHYR0FL0N&c=365799&tp_c=365799","firstResponseHeads":9,"firstResponseTails":21,"secondResponseHeads":20,"secondResponseTails":15,"totalHeads":29,"totalTails":36,"studentIndex":3,"studentTrueHypers":{"a":2,"b":8},"studentGuess":0.41333333333333333,"delta":0.08666666666666667,"bonus":0,"bonusSoFar":0,"totalExamples":65},{"rt":10752,"response":{"heads":"17","tails":"13"},"type":"response","condition":"seqFeedback","trueTheta":0.5,"classrooms":["C","D"],"studentTrueClassroom":"C","exampleSet":"second","trial_type":"survey-html-form","trial_index":41,"time_elapsed":675498,"internal_node_id":"0.0-35.1-0.1","params":{"nStudents":24,"maxFlips":30,"completionMinutes":45,"basePay":8,"maxBonus":9,"perTrialBonus":0.5,"perTrialBonusThreshold":0.05,"exampleCost":0.01},"classroomParams":{"A":{"a":1,"b":4},"B":{"a":4,"b":1},"C":{"a":2,"b":8},"D":{"a":8,"b":2}},"conditions":["nonSeqFull","nonSeqPartial","seqNoFeedback","seqFeedback"],"classroomPairings":[["A","B"],["C","D"]],"coinWeights":[0.2,0.5,0.8],"subjectId":"A32JEH06T23HDF","assignmentId":"3YHH42UU5C1OBN6XN8Q1NCHYR0FL0N","hitId":"3J94SKDEKIB2MY6CGVTNWB9X0ALD5P","url":"https://gershmanlab.com/experiments/alicia/teaching/experiment/?hitId=3J94SKDEKIB2MY6CGVTNWB9X0ALD5P&workerId=A32JEH06T23HDF&assignmentId=3YHH42UU5C1OBN6XN8Q1NCHYR0FL0N&a=U4HY9&tp_a=U4HY9&b=3YHH42UU5C1OBN6XN8Q1NCHYR0FL0N&tp_b=3YHH42UU5C1OBN6XN8Q1NCHYR0FL0N&c=365799&tp_c=365799","firstResponseHeads":9,"firstResponseTails":21,"secondResponseHeads":17,"secondResponseTails":13,"totalHeads":26,"totalTails":34,"studentIndex":3,"studentTrueHypers":{"a":2,"b":8},"studentGuess":0.4,"delta":0.09999999999999998,"bonus":0,"bonusSoFar":0,"totalExamples":60},{"rt":null,"stimulus":"Sending examples to student... ","response":null,"trial_type":"html-keyboard-response","trial_index":42,"time_elapsed":677268,"internal_node_id":"0.0-36.0","params":{"nStudents":24,"maxFlips":30,"completionMinutes":45,"basePay":8,"maxBonus":9,"perTrialBonus":0.5,"perTrialBonusThreshold":0.05,"exampleCost":0.01},"classroomParams":{"A":{"a":1,"b":4},"B":{"a":4,"b":1},"C":{"a":2,"b":8},"D":{"a":8,"b":2}},"conditions":["nonSeqFull","nonSeqPartial","seqNoFeedback","seqFeedback"],"classroomPairings":[["A","B"],["C","D"]],"coinWeights":[0.2,0.5,0.8],"subjectId":"A32JEH06T23HDF","assignmentId":"3YHH42UU5C1OBN6XN8Q1NCHYR0FL0N","hitId":"3J94SKDEKIB2MY6CGVTNWB9X0ALD5P","url":"https://gershmanlab.com/experiments/alicia/teaching/experiment/?hitId=3J94SKDEKIB2MY6CGVTNWB9X0ALD5P&workerId=A32JEH06T23HDF&assignmentId=3YHH42UU5C1OBN6XN8Q1NCHYR0FL0N&a=U4HY9&tp_a=U4HY9&b=3YHH42UU5C1OBN6XN8Q1NCHYR0FL0N&tp_b=3YHH42UU5C1OBN6XN8Q1NCHYR0FL0N&c=365799&tp_c=365799"},{"rt":null,"stimulus":"Examples sent to student! Waiting for student...","response":null,"trial_type":"html-keyboard-response","trial_index":43,"time_elapsed":681285,"internal_node_id":"0.0-37.0","params":{"nStudents":24,"maxFlips":30,"completionMinutes":45,"basePay":8,"maxBonus":9,"perTrialBonus":0.5,"perTrialBonusThreshold":0.05,"exampleCost":0.01},"classroomParams":{"A":{"a":1,"b":4},"B":{"a":4,"b":1},"C":{"a":2,"b":8},"D":{"a":8,"b":2}},"conditions":["nonSeqFull","nonSeqPartial","seqNoFeedback","seqFeedback"],"classroomPairings":[["A","B"],["C","D"]],"coinWeights":[0.2,0.5,0.8],"subjectId":"A32JEH06T23HDF","assignmentId":"3YHH42UU5C1OBN6XN8Q1NCHYR0FL0N","hitId":"3J94SKDEKIB2MY6CGVTNWB9X0ALD5P","url":"https://gershmanlab.com/experiments/alicia/teaching/experiment/?hitId=3J94SKDEKIB2MY6CGVTNWB9X0ALD5P&workerId=A32JEH06T23HDF&assignmentId=3YHH42UU5C1OBN6XN8Q1NCHYR0FL0N&a=U4HY9&tp_a=U4HY9&b=3YHH42UU5C1OBN6XN8Q1NCHYR0FL0N&tp_b=3YHH42UU5C1OBN6XN8Q1NCHYR0FL0N&c=365799&tp_c=365799"},{"rt":2690,"stimulus":"\n                <p>Student 4's first guess for coin weight: <b style=\"color:Tomato\";>0.28</b></p>\n                <p>Student 4's second guess for coin weight: <b style=\"color:Tomato\";>0.41</b></p>\n                <p>You received a bonus of <b>$0.00</b> based on the student's second guess.</p>\n                <p>Total bonus so far: <b>$0.00</b></p>\n                <p>Press any key to continue.</p>\n                ","response":" ","trial_type":"html-keyboard-response","trial_index":44,"time_elapsed":683977,"internal_node_id":"0.0-38.0","params":{"nStudents":24,"maxFlips":30,"completionMinutes":45,"basePay":8,"maxBonus":9,"perTrialBonus":0.5,"perTrialBonusThreshold":0.05,"exampleCost":0.01},"classroomParams":{"A":{"a":1,"b":4},"B":{"a":4,"b":1},"C":{"a":2,"b":8},"D":{"a":8,"b":2}},"conditions":["nonSeqFull","nonSeqPartial","seqNoFeedback","seqFeedback"],"classroomPairings":[["A","B"],["C","D"]],"coinWeights":[0.2,0.5,0.8],"subjectId":"A32JEH06T23HDF","assignmentId":"3YHH42UU5C1OBN6XN8Q1NCHYR0FL0N","hitId":"3J94SKDEKIB2MY6CGVTNWB9X0ALD5P","url":"https://gershmanlab.com/experiments/alicia/teaching/experiment/?hitId=3J94SKDEKIB2MY6CGVTNWB9X0ALD5P&workerId=A32JEH06T23HDF&assignmentId=3YHH42UU5C1OBN6XN8Q1NCHYR0FL0N&a=U4HY9&tp_a=U4HY9&b=3YHH42UU5C1OBN6XN8Q1NCHYR0FL0N&tp_b=3YHH42UU5C1OBN6XN8Q1NCHYR0FL0N&c=365799&tp_c=365799"},{"rt":null,"stimulus":"<div style=\"font-size:60px;\">Next student</div>","response":null,"trial_type":"html-keyboard-response","trial_index":45,"time_elapsed":685993,"internal_node_id":"0.0-39.0-0.0","params":{"nStudents":24,"maxFlips":30,"completionMinutes":45,"basePay":8,"maxBonus":9,"perTrialBonus":0.5,"perTrialBonusThreshold":0.05,"exampleCost":0.01},"classroomParams":{"A":{"a":1,"b":4},"B":{"a":4,"b":1},"C":{"a":2,"b":8},"D":{"a":8,"b":2}},"conditions":["nonSeqFull","nonSeqPartial","seqNoFeedback","seqFeedback"],"classroomPairings":[["A","B"],["C","D"]],"coinWeights":[0.2,0.5,0.8],"subjectId":"A32JEH06T23HDF","assignmentId":"3YHH42UU5C1OBN6XN8Q1NCHYR0FL0N","hitId":"3J94SKDEKIB2MY6CGVTNWB9X0ALD5P","url":"https://gershmanlab.com/experiments/alicia/teaching/experiment/?hitId=3J94SKDEKIB2MY6CGVTNWB9X0ALD5P&workerId=A32JEH06T23HDF&assignmentId=3YHH42UU5C1OBN6XN8Q1NCHYR0FL0N&a=U4HY9&tp_a=U4HY9&b=3YHH42UU5C1OBN6XN8Q1NCHYR0FL0N&tp_b=3YHH42UU5C1OBN6XN8Q1NCHYR0FL0N&c=365799&tp_c=365799"},{"rt":2540,"stimulus":"\n            <h4 style=\"color:Orange;\">Student 5</h4>\n            <h2>The weight of your coin is <b style=\"color:Tomato;\">0.2</b>.</h2>\n            <p>In this block, you will be giving <b>one</b> set of examples to Student 5.</p>\n                <p>You will receive feedback at the end of the block.</p>\n            <p></p>","response":0,"trial_type":"html-button-response","trial_index":46,"time_elapsed":688534,"internal_node_id":"0.0-40.0","params":{"nStudents":24,"maxFlips":30,"completionMinutes":45,"basePay":8,"maxBonus":9,"perTrialBonus":0.5,"perTrialBonusThreshold":0.05,"exampleCost":0.01},"classroomParams":{"A":{"a":1,"b":4},"B":{"a":4,"b":1},"C":{"a":2,"b":8},"D":{"a":8,"b":2}},"conditions":["nonSeqFull","nonSeqPartial","seqNoFeedback","seqFeedback"],"classroomPairings":[["A","B"],["C","D"]],"coinWeights":[0.2,0.5,0.8],"subjectId":"A32JEH06T23HDF","assignmentId":"3YHH42UU5C1OBN6XN8Q1NCHYR0FL0N","hitId":"3J94SKDEKIB2MY6CGVTNWB9X0ALD5P","url":"https://gershmanlab.com/experiments/alicia/teaching/experiment/?hitId=3J94SKDEKIB2MY6CGVTNWB9X0ALD5P&workerId=A32JEH06T23HDF&assignmentId=3YHH42UU5C1OBN6XN8Q1NCHYR0FL0N&a=U4HY9&tp_a=U4HY9&b=3YHH42UU5C1OBN6XN8Q1NCHYR0FL0N&tp_b=3YHH42UU5C1OBN6XN8Q1NCHYR0FL0N&c=365799&tp_c=365799"},{"rt":19818,"response":{"heads":"14","tails":"16"},"type":"response","condition":"nonSeqFull","trueTheta":0.2,"classrooms":["A","B"],"studentTrueClassroom":"B","exampleSet":"first","trial_type":"survey-html-form","trial_index":47,"time_elapsed":708355,"internal_node_id":"0.0-41.0-0.0","params":{"nStudents":24,"maxFlips":30,"completionMinutes":45,"basePay":8,"maxBonus":9,"perTrialBonus":0.5,"perTrialBonusThreshold":0.05,"exampleCost":0.01},"classroomParams":{"A":{"a":1,"b":4},"B":{"a":4,"b":1},"C":{"a":2,"b":8},"D":{"a":8,"b":2}},"conditions":["nonSeqFull","nonSeqPartial","seqNoFeedback","seqFeedback"],"classroomPairings":[["A","B"],["C","D"]],"coinWeights":[0.2,0.5,0.8],"subjectId":"A32JEH06T23HDF","assignmentId":"3YHH42UU5C1OBN6XN8Q1NCHYR0FL0N","hitId":"3J94SKDEKIB2MY6CGVTNWB9X0ALD5P","url":"https://gershmanlab.com/experiments/alicia/teaching/experiment/?hitId=3J94SKDEKIB2MY6CGVTNWB9X0ALD5P&workerId=A32JEH06T23HDF&assignmentId=3YHH42UU5C1OBN6XN8Q1NCHYR0FL0N&a=U4HY9&tp_a=U4HY9&b=3YHH42UU5C1OBN6XN8Q1NCHYR0FL0N&tp_b=3YHH42UU5C1OBN6XN8Q1NCHYR0FL0N&c=365799&tp_c=365799","heads":14,"tails":16,"studentIndex":4,"studentTrueHypers":{"a":4,"b":1},"studentGuess":0.5142857142857142,"delta":0.3142857142857142,"totalExamples":30,"bonus":0,"bonusSoFar":0},{"rt":null,"stimulus":"Sending examples to student... ","response":null,"trial_type":"html-keyboard-response","trial_index":48,"time_elapsed":710113,"internal_node_id":"0.0-42.0","params":{"nStudents":24,"maxFlips":30,"completionMinutes":45,"basePay":8,"maxBonus":9,"perTrialBonus":0.5,"perTrialBonusThreshold":0.05,"exampleCost":0.01},"classroomParams":{"A":{"a":1,"b":4},"B":{"a":4,"b":1},"C":{"a":2,"b":8},"D":{"a":8,"b":2}},"conditions":["nonSeqFull","nonSeqPartial","seqNoFeedback","seqFeedback"],"classroomPairings":[["A","B"],["C","D"]],"coinWeights":[0.2,0.5,0.8],"subjectId":"A32JEH06T23HDF","assignmentId":"3YHH42UU5C1OBN6XN8Q1NCHYR0FL0N","hitId":"3J94SKDEKIB2MY6CGVTNWB9X0ALD5P","url":"https://gershmanlab.com/experiments/alicia/teaching/experiment/?hitId=3J94SKDEKIB2MY6CGVTNWB9X0ALD5P&workerId=A32JEH06T23HDF&assignmentId=3YHH42UU5C1OBN6XN8Q1NCHYR0FL0N&a=U4HY9&tp_a=U4HY9&b=3YHH42UU5C1OBN6XN8Q1NCHYR0FL0N&tp_b=3YHH42UU5C1OBN6XN8Q1NCHYR0FL0N&c=365799&tp_c=365799"},{"rt":null,"stimulus":"Examples sent to student! Waiting for student...","response":null,"trial_type":"html-keyboard-response","trial_index":49,"time_elapsed":714622,"internal_node_id":"0.0-43.0","params":{"nStudents":24,"maxFlips":30,"completionMinutes":45,"basePay":8,"maxBonus":9,"perTrialBonus":0.5,"perTrialBonusThreshold":0.05,"exampleCost":0.01},"classroomParams":{"A":{"a":1,"b":4},"B":{"a":4,"b":1},"C":{"a":2,"b":8},"D":{"a":8,"b":2}},"conditions":["nonSeqFull","nonSeqPartial","seqNoFeedback","seqFeedback"],"classroomPairings":[["A","B"],["C","D"]],"coinWeights":[0.2,0.5,0.8],"subjectId":"A32JEH06T23HDF","assignmentId":"3YHH42UU5C1OBN6XN8Q1NCHYR0FL0N","hitId":"3J94SKDEKIB2MY6CGVTNWB9X0ALD5P","url":"https://gershmanlab.com/experiments/alicia/teaching/experiment/?hitId=3J94SKDEKIB2MY6CGVTNWB9X0ALD5P&workerId=A32JEH06T23HDF&assignmentId=3YHH42UU5C1OBN6XN8Q1NCHYR0FL0N&a=U4HY9&tp_a=U4HY9&b=3YHH42UU5C1OBN6XN8Q1NCHYR0FL0N&tp_b=3YHH42UU5C1OBN6XN8Q1NCHYR0FL0N&c=365799&tp_c=365799"},{"rt":3535,"stimulus":"\n                <p>Student's guess for coin weight: <b style=\"color:Tomato;\">0.51</b></p>\n                <p>You received a bonus of <b>$0</b>. Total bonus so far: <b>$0.00</b></b></p>\n                <p></p>\n                <p>Press any key to continue.</p>\n                ","response":"enter","trial_type":"html-keyboard-response","trial_index":50,"time_elapsed":718159,"internal_node_id":"0.0-44.0","params":{"nStudents":24,"maxFlips":30,"completionMinutes":45,"basePay":8,"maxBonus":9,"perTrialBonus":0.5,"perTrialBonusThreshold":0.05,"exampleCost":0.01},"classroomParams":{"A":{"a":1,"b":4},"B":{"a":4,"b":1},"C":{"a":2,"b":8},"D":{"a":8,"b":2}},"conditions":["nonSeqFull","nonSeqPartial","seqNoFeedback","seqFeedback"],"classroomPairings":[["A","B"],["C","D"]],"coinWeights":[0.2,0.5,0.8],"subjectId":"A32JEH06T23HDF","assignmentId":"3YHH42UU5C1OBN6XN8Q1NCHYR0FL0N","hitId":"3J94SKDEKIB2MY6CGVTNWB9X0ALD5P","url":"https://gershmanlab.com/experiments/alicia/teaching/experiment/?hitId=3J94SKDEKIB2MY6CGVTNWB9X0ALD5P&workerId=A32JEH06T23HDF&assignmentId=3YHH42UU5C1OBN6XN8Q1NCHYR0FL0N&a=U4HY9&tp_a=U4HY9&b=3YHH42UU5C1OBN6XN8Q1NCHYR0FL0N&tp_b=3YHH42UU5C1OBN6XN8Q1NCHYR0FL0N&c=365799&tp_c=365799"},{"rt":null,"stimulus":"<div style=\"font-size:60px;\">Next student</div>","response":null,"trial_type":"html-keyboard-response","trial_index":51,"time_elapsed":721163,"internal_node_id":"0.0-45.0-0.0","params":{"nStudents":24,"maxFlips":30,"completionMinutes":45,"basePay":8,"maxBonus":9,"perTrialBonus":0.5,"perTrialBonusThreshold":0.05,"exampleCost":0.01},"classroomParams":{"A":{"a":1,"b":4},"B":{"a":4,"b":1},"C":{"a":2,"b":8},"D":{"a":8,"b":2}},"conditions":["nonSeqFull","nonSeqPartial","seqNoFeedback","seqFeedback"],"classroomPairings":[["A","B"],["C","D"]],"coinWeights":[0.2,0.5,0.8],"subjectId":"A32JEH06T23HDF","assignmentId":"3YHH42UU5C1OBN6XN8Q1NCHYR0FL0N","hitId":"3J94SKDEKIB2MY6CGVTNWB9X0ALD5P","url":"https://gershmanlab.com/experiments/alicia/teaching/experiment/?hitId=3J94SKDEKIB2MY6CGVTNWB9X0ALD5P&workerId=A32JEH06T23HDF&assignmentId=3YHH42UU5C1OBN6XN8Q1NCHYR0FL0N&a=U4HY9&tp_a=U4HY9&b=3YHH42UU5C1OBN6XN8Q1NCHYR0FL0N&tp_b=3YHH42UU5C1OBN6XN8Q1NCHYR0FL0N&c=365799&tp_c=365799"},{"rt":2074,"stimulus":"\n            <h4 style=\"color:Orange;\">Student 6</h4>\n            <h2>The weight of your coin is <b style=\"color:Tomato;\">0.2</b>.</h2>\n            <p>In this block, you will be giving <b>one</b> set of examples to Student 6.</p>\n                <p>You will receive feedback at the end of the block.</p>\n            <p></p>","response":0,"trial_type":"html-button-response","trial_index":52,"time_elapsed":723239,"internal_node_id":"0.0-46.0","params":{"nStudents":24,"maxFlips":30,"completionMinutes":45,"basePay":8,"maxBonus":9,"perTrialBonus":0.5,"perTrialBonusThreshold":0.05,"exampleCost":0.01},"classroomParams":{"A":{"a":1,"b":4},"B":{"a":4,"b":1},"C":{"a":2,"b":8},"D":{"a":8,"b":2}},"conditions":["nonSeqFull","nonSeqPartial","seqNoFeedback","seqFeedback"],"classroomPairings":[["A","B"],["C","D"]],"coinWeights":[0.2,0.5,0.8],"subjectId":"A32JEH06T23HDF","assignmentId":"3YHH42UU5C1OBN6XN8Q1NCHYR0FL0N","hitId":"3J94SKDEKIB2MY6CGVTNWB9X0ALD5P","url":"https://gershmanlab.com/experiments/alicia/teaching/experiment/?hitId=3J94SKDEKIB2MY6CGVTNWB9X0ALD5P&workerId=A32JEH06T23HDF&assignmentId=3YHH42UU5C1OBN6XN8Q1NCHYR0FL0N&a=U4HY9&tp_a=U4HY9&b=3YHH42UU5C1OBN6XN8Q1NCHYR0FL0N&tp_b=3YHH42UU5C1OBN6XN8Q1NCHYR0FL0N&c=365799&tp_c=365799"},{"rt":20191,"response":{"heads":"8","tails":"22"},"type":"response","condition":"nonSeqFull","trueTheta":0.2,"classrooms":["C","D"],"studentTrueClassroom":"D","exampleSet":"first","trial_type":"survey-html-form","trial_index":53,"time_elapsed":743432,"internal_node_id":"0.0-47.0-0.0","params":{"nStudents":24,"maxFlips":30,"completionMinutes":45,"basePay":8,"maxBonus":9,"perTrialBonus":0.5,"perTrialBonusThreshold":0.05,"exampleCost":0.01},"classroomParams":{"A":{"a":1,"b":4},"B":{"a":4,"b":1},"C":{"a":2,"b":8},"D":{"a":8,"b":2}},"conditions":["nonSeqFull","nonSeqPartial","seqNoFeedback","seqFeedback"],"classroomPairings":[["A","B"],["C","D"]],"coinWeights":[0.2,0.5,0.8],"subjectId":"A32JEH06T23HDF","assignmentId":"3YHH42UU5C1OBN6XN8Q1NCHYR0FL0N","hitId":"3J94SKDEKIB2MY6CGVTNWB9X0ALD5P","url":"https://gershmanlab.com/experiments/alicia/teaching/experiment/?hitId=3J94SKDEKIB2MY6CGVTNWB9X0ALD5P&workerId=A32JEH06T23HDF&assignmentId=3YHH42UU5C1OBN6XN8Q1NCHYR0FL0N&a=U4HY9&tp_a=U4HY9&b=3YHH42UU5C1OBN6XN8Q1NCHYR0FL0N&tp_b=3YHH42UU5C1OBN6XN8Q1NCHYR0FL0N&c=365799&tp_c=365799","heads":8,"tails":22,"studentIndex":5,"studentTrueHypers":{"a":8,"b":2},"studentGuess":0.4,"delta":0.2,"totalExamples":30,"bonus":0,"bonusSoFar":0},{"rt":null,"stimulus":"Sending examples to student... ","response":null,"trial_type":"html-keyboard-response","trial_index":54,"time_elapsed":745194,"internal_node_id":"0.0-48.0","params":{"nStudents":24,"maxFlips":30,"completionMinutes":45,"basePay":8,"maxBonus":9,"perTrialBonus":0.5,"perTrialBonusThreshold":0.05,"exampleCost":0.01},"classroomParams":{"A":{"a":1,"b":4},"B":{"a":4,"b":1},"C":{"a":2,"b":8},"D":{"a":8,"b":2}},"conditions":["nonSeqFull","nonSeqPartial","seqNoFeedback","seqFeedback"],"classroomPairings":[["A","B"],["C","D"]],"coinWeights":[0.2,0.5,0.8],"subjectId":"A32JEH06T23HDF","assignmentId":"3YHH42UU5C1OBN6XN8Q1NCHYR0FL0N","hitId":"3J94SKDEKIB2MY6CGVTNWB9X0ALD5P","url":"https://gershmanlab.com/experiments/alicia/teaching/experiment/?hitId=3J94SKDEKIB2MY6CGVTNWB9X0ALD5P&workerId=A32JEH06T23HDF&assignmentId=3YHH42UU5C1OBN6XN8Q1NCHYR0FL0N&a=U4HY9&tp_a=U4HY9&b=3YHH42UU5C1OBN6XN8Q1NCHYR0FL0N&tp_b=3YHH42UU5C1OBN6XN8Q1NCHYR0FL0N&c=365799&tp_c=365799"},{"rt":null,"stimulus":"Examples sent to student! Waiting for student...","response":null,"trial_type":"html-keyboard-response","trial_index":55,"time_elapsed":749702,"internal_node_id":"0.0-49.0","params":{"nStudents":24,"maxFlips":30,"completionMinutes":45,"basePay":8,"maxBonus":9,"perTrialBonus":0.5,"perTrialBonusThreshold":0.05,"exampleCost":0.01},"classroomParams":{"A":{"a":1,"b":4},"B":{"a":4,"b":1},"C":{"a":2,"b":8},"D":{"a":8,"b":2}},"conditions":["nonSeqFull","nonSeqPartial","seqNoFeedback","seqFeedback"],"classroomPairings":[["A","B"],["C","D"]],"coinWeights":[0.2,0.5,0.8],"subjectId":"A32JEH06T23HDF","assignmentId":"3YHH42UU5C1OBN6XN8Q1NCHYR0FL0N","hitId":"3J94SKDEKIB2MY6CGVTNWB9X0ALD5P","url":"https://gershmanlab.com/experiments/alicia/teaching/experiment/?hitId=3J94SKDEKIB2MY6CGVTNWB9X0ALD5P&workerId=A32JEH06T23HDF&assignmentId=3YHH42UU5C1OBN6XN8Q1NCHYR0FL0N&a=U4HY9&tp_a=U4HY9&b=3YHH42UU5C1OBN6XN8Q1NCHYR0FL0N&tp_b=3YHH42UU5C1OBN6XN8Q1NCHYR0FL0N&c=365799&tp_c=365799"},{"rt":3049,"stimulus":"\n                <p>Student's guess for coin weight: <b style=\"color:Tomato;\">0.40</b></p>\n                <p>You received a bonus of <b>$0</b>. Total bonus so far: <b>$0.00</b></b></p>\n                <p></p>\n                <p>Press any key to continue.</p>\n                ","response":" ","trial_type":"html-keyboard-response","trial_index":56,"time_elapsed":752752,"internal_node_id":"0.0-50.0","params":{"nStudents":24,"maxFlips":30,"completionMinutes":45,"basePay":8,"maxBonus":9,"perTrialBonus":0.5,"perTrialBonusThreshold":0.05,"exampleCost":0.01},"classroomParams":{"A":{"a":1,"b":4},"B":{"a":4,"b":1},"C":{"a":2,"b":8},"D":{"a":8,"b":2}},"conditions":["nonSeqFull","nonSeqPartial","seqNoFeedback","seqFeedback"],"classroomPairings":[["A","B"],["C","D"]],"coinWeights":[0.2,0.5,0.8],"subjectId":"A32JEH06T23HDF","assignmentId":"3YHH42UU5C1OBN6XN8Q1NCHYR0FL0N","hitId":"3J94SKDEKIB2MY6CGVTNWB9X0ALD5P","url":"https://gershmanlab.com/experiments/alicia/teaching/experiment/?hitId=3J94SKDEKIB2MY6CGVTNWB9X0ALD5P&workerId=A32JEH06T23HDF&assignmentId=3YHH42UU5C1OBN6XN8Q1NCHYR0FL0N&a=U4HY9&tp_a=U4HY9&b=3YHH42UU5C1OBN6XN8Q1NCHYR0FL0N&tp_b=3YHH42UU5C1OBN6XN8Q1NCHYR0FL0N&c=365799&tp_c=365799"},{"rt":null,"stimulus":"<div style=\"font-size:60px;\">Next student</div>","response":null,"trial_type":"html-keyboard-response","trial_index":57,"time_elapsed":755257,"internal_node_id":"0.0-51.0-0.0","params":{"nStudents":24,"maxFlips":30,"completionMinutes":45,"basePay":8,"maxBonus":9,"perTrialBonus":0.5,"perTrialBonusThreshold":0.05,"exampleCost":0.01},"classroomParams":{"A":{"a":1,"b":4},"B":{"a":4,"b":1},"C":{"a":2,"b":8},"D":{"a":8,"b":2}},"conditions":["nonSeqFull","nonSeqPartial","seqNoFeedback","seqFeedback"],"classroomPairings":[["A","B"],["C","D"]],"coinWeights":[0.2,0.5,0.8],"subjectId":"A32JEH06T23HDF","assignmentId":"3YHH42UU5C1OBN6XN8Q1NCHYR0FL0N","hitId":"3J94SKDEKIB2MY6CGVTNWB9X0ALD5P","url":"https://gershmanlab.com/experiments/alicia/teaching/experiment/?hitId=3J94SKDEKIB2MY6CGVTNWB9X0ALD5P&workerId=A32JEH06T23HDF&assignmentId=3YHH42UU5C1OBN6XN8Q1NCHYR0FL0N&a=U4HY9&tp_a=U4HY9&b=3YHH42UU5C1OBN6XN8Q1NCHYR0FL0N&tp_b=3YHH42UU5C1OBN6XN8Q1NCHYR0FL0N&c=365799&tp_c=365799"},{"rt":18824,"stimulus":"\n            <h4 style=\"color:Orange;\">Student 7</h4>\n            <h2>The weight of your coin is <b style=\"color:Tomato;\">0.2</b>.</h2>\n            <p>In this block, you will be giving <b>one</b> set of examples to Student 7.</p>\n                <p>You will receive feedback at the end of the block.</p>\n            <p></p>","response":0,"trial_type":"html-button-response","trial_index":58,"time_elapsed":774082,"internal_node_id":"0.0-52.0","params":{"nStudents":24,"maxFlips":30,"completionMinutes":45,"basePay":8,"maxBonus":9,"perTrialBonus":0.5,"perTrialBonusThreshold":0.05,"exampleCost":0.01},"classroomParams":{"A":{"a":1,"b":4},"B":{"a":4,"b":1},"C":{"a":2,"b":8},"D":{"a":8,"b":2}},"conditions":["nonSeqFull","nonSeqPartial","seqNoFeedback","seqFeedback"],"classroomPairings":[["A","B"],["C","D"]],"coinWeights":[0.2,0.5,0.8],"subjectId":"A32JEH06T23HDF","assignmentId":"3YHH42UU5C1OBN6XN8Q1NCHYR0FL0N","hitId":"3J94SKDEKIB2MY6CGVTNWB9X0ALD5P","url":"https://gershmanlab.com/experiments/alicia/teaching/experiment/?hitId=3J94SKDEKIB2MY6CGVTNWB9X0ALD5P&workerId=A32JEH06T23HDF&assignmentId=3YHH42UU5C1OBN6XN8Q1NCHYR0FL0N&a=U4HY9&tp_a=U4HY9&b=3YHH42UU5C1OBN6XN8Q1NCHYR0FL0N&tp_b=3YHH42UU5C1OBN6XN8Q1NCHYR0FL0N&c=365799&tp_c=365799"},{"rt":7495,"response":{"heads":"1","tails":"29"},"type":"response","condition":"nonSeqPartial","trueTheta":0.2,"classrooms":["C","D"],"studentTrueClassroom":"C","exampleSet":"first","trial_type":"survey-html-form","trial_index":59,"time_elapsed":781578,"internal_node_id":"0.0-53.0-0.0","params":{"nStudents":24,"maxFlips":30,"completionMinutes":45,"basePay":8,"maxBonus":9,"perTrialBonus":0.5,"perTrialBonusThreshold":0.05,"exampleCost":0.01},"classroomParams":{"A":{"a":1,"b":4},"B":{"a":4,"b":1},"C":{"a":2,"b":8},"D":{"a":8,"b":2}},"conditions":["nonSeqFull","nonSeqPartial","seqNoFeedback","seqFeedback"],"classroomPairings":[["A","B"],["C","D"]],"coinWeights":[0.2,0.5,0.8],"subjectId":"A32JEH06T23HDF","assignmentId":"3YHH42UU5C1OBN6XN8Q1NCHYR0FL0N","hitId":"3J94SKDEKIB2MY6CGVTNWB9X0ALD5P","url":"https://gershmanlab.com/experiments/alicia/teaching/experiment/?hitId=3J94SKDEKIB2MY6CGVTNWB9X0ALD5P&workerId=A32JEH06T23HDF&assignmentId=3YHH42UU5C1OBN6XN8Q1NCHYR0FL0N&a=U4HY9&tp_a=U4HY9&b=3YHH42UU5C1OBN6XN8Q1NCHYR0FL0N&tp_b=3YHH42UU5C1OBN6XN8Q1NCHYR0FL0N&c=365799&tp_c=365799","heads":1,"tails":29,"studentIndex":6,"studentTrueHypers":{"a":2,"b":8},"studentGuess":0.075,"delta":0.125,"totalExamples":30,"bonus":0,"bonusSoFar":0},{"rt":null,"stimulus":"Sending examples to student... ","response":null,"trial_type":"html-keyboard-response","trial_index":60,"time_elapsed":783096,"internal_node_id":"0.0-54.0","params":{"nStudents":24,"maxFlips":30,"completionMinutes":45,"basePay":8,"maxBonus":9,"perTrialBonus":0.5,"perTrialBonusThreshold":0.05,"exampleCost":0.01},"classroomParams":{"A":{"a":1,"b":4},"B":{"a":4,"b":1},"C":{"a":2,"b":8},"D":{"a":8,"b":2}},"conditions":["nonSeqFull","nonSeqPartial","seqNoFeedback","seqFeedback"],"classroomPairings":[["A","B"],["C","D"]],"coinWeights":[0.2,0.5,0.8],"subjectId":"A32JEH06T23HDF","assignmentId":"3YHH42UU5C1OBN6XN8Q1NCHYR0FL0N","hitId":"3J94SKDEKIB2MY6CGVTNWB9X0ALD5P","url":"https://gershmanlab.com/experiments/alicia/teaching/experiment/?hitId=3J94SKDEKIB2MY6CGVTNWB9X0ALD5P&workerId=A32JEH06T23HDF&assignmentId=3YHH42UU5C1OBN6XN8Q1NCHYR0FL0N&a=U4HY9&tp_a=U4HY9&b=3YHH42UU5C1OBN6XN8Q1NCHYR0FL0N&tp_b=3YHH42UU5C1OBN6XN8Q1NCHYR0FL0N&c=365799&tp_c=365799"},{"rt":null,"stimulus":"Examples sent to student! Waiting for student...","response":null,"trial_type":"html-keyboard-response","trial_index":61,"time_elapsed":788109,"internal_node_id":"0.0-55.0","params":{"nStudents":24,"maxFlips":30,"completionMinutes":45,"basePay":8,"maxBonus":9,"perTrialBonus":0.5,"perTrialBonusThreshold":0.05,"exampleCost":0.01},"classroomParams":{"A":{"a":1,"b":4},"B":{"a":4,"b":1},"C":{"a":2,"b":8},"D":{"a":8,"b":2}},"conditions":["nonSeqFull","nonSeqPartial","seqNoFeedback","seqFeedback"],"classroomPairings":[["A","B"],["C","D"]],"coinWeights":[0.2,0.5,0.8],"subjectId":"A32JEH06T23HDF","assignmentId":"3YHH42UU5C1OBN6XN8Q1NCHYR0FL0N","hitId":"3J94SKDEKIB2MY6CGVTNWB9X0ALD5P","url":"https://gershmanlab.com/experiments/alicia/teaching/experiment/?hitId=3J94SKDEKIB2MY6CGVTNWB9X0ALD5P&workerId=A32JEH06T23HDF&assignmentId=3YHH42UU5C1OBN6XN8Q1NCHYR0FL0N&a=U4HY9&tp_a=U4HY9&b=3YHH42UU5C1OBN6XN8Q1NCHYR0FL0N&tp_b=3YHH42UU5C1OBN6XN8Q1NCHYR0FL0N&c=365799&tp_c=365799"},{"rt":2337,"stimulus":"\n                <p>Student's guess for coin weight: <b style=\"color:Tomato;\">0.07</b></p>\n                <p>You received a bonus of <b>$0</b>. Total bonus so far: <b>$0.00</b></b></p>\n                <p></p>\n                <p>Press any key to continue.</p>\n                ","response":" ","trial_type":"html-keyboard-response","trial_index":62,"time_elapsed":790449,"internal_node_id":"0.0-56.0","params":{"nStudents":24,"maxFlips":30,"completionMinutes":45,"basePay":8,"maxBonus":9,"perTrialBonus":0.5,"perTrialBonusThreshold":0.05,"exampleCost":0.01},"classroomParams":{"A":{"a":1,"b":4},"B":{"a":4,"b":1},"C":{"a":2,"b":8},"D":{"a":8,"b":2}},"conditions":["nonSeqFull","nonSeqPartial","seqNoFeedback","seqFeedback"],"classroomPairings":[["A","B"],["C","D"]],"coinWeights":[0.2,0.5,0.8],"subjectId":"A32JEH06T23HDF","assignmentId":"3YHH42UU5C1OBN6XN8Q1NCHYR0FL0N","hitId":"3J94SKDEKIB2MY6CGVTNWB9X0ALD5P","url":"https://gershmanlab.com/experiments/alicia/teaching/experiment/?hitId=3J94SKDEKIB2MY6CGVTNWB9X0ALD5P&workerId=A32JEH06T23HDF&assignmentId=3YHH42UU5C1OBN6XN8Q1NCHYR0FL0N&a=U4HY9&tp_a=U4HY9&b=3YHH42UU5C1OBN6XN8Q1NCHYR0FL0N&tp_b=3YHH42UU5C1OBN6XN8Q1NCHYR0FL0N&c=365799&tp_c=365799"},{"rt":null,"stimulus":"<div style=\"font-size:60px;\">Next student</div>","response":null,"trial_type":"html-keyboard-response","trial_index":63,"time_elapsed":793459,"internal_node_id":"0.0-57.0-0.0","params":{"nStudents":24,"maxFlips":30,"completionMinutes":45,"basePay":8,"maxBonus":9,"perTrialBonus":0.5,"perTrialBonusThreshold":0.05,"exampleCost":0.01},"classroomParams":{"A":{"a":1,"b":4},"B":{"a":4,"b":1},"C":{"a":2,"b":8},"D":{"a":8,"b":2}},"conditions":["nonSeqFull","nonSeqPartial","seqNoFeedback","seqFeedback"],"classroomPairings":[["A","B"],["C","D"]],"coinWeights":[0.2,0.5,0.8],"subjectId":"A32JEH06T23HDF","assignmentId":"3YHH42UU5C1OBN6XN8Q1NCHYR0FL0N","hitId":"3J94SKDEKIB2MY6CGVTNWB9X0ALD5P","url":"https://gershmanlab.com/experiments/alicia/teaching/experiment/?hitId=3J94SKDEKIB2MY6CGVTNWB9X0ALD5P&workerId=A32JEH06T23HDF&assignmentId=3YHH42UU5C1OBN6XN8Q1NCHYR0FL0N&a=U4HY9&tp_a=U4HY9&b=3YHH42UU5C1OBN6XN8Q1NCHYR0FL0N&tp_b=3YHH42UU5C1OBN6XN8Q1NCHYR0FL0N&c=365799&tp_c=365799"},{"rt":2850,"stimulus":"\n            <h4 style=\"color:Orange;\">Student 8</h4>\n            <h2>The weight of your coin is <b style=\"color:Tomato;\">0.2</b>.</h2>\n            <p>In this block, you will be giving <b>two</b> sets of examples to Student 8.</p>\n                <p>You will receive feedback at the end of the block.</p>\n            <p></p>","response":0,"trial_type":"html-button-response","trial_index":64,"time_elapsed":796311,"internal_node_id":"0.0-58.0","params":{"nStudents":24,"maxFlips":30,"completionMinutes":45,"basePay":8,"maxBonus":9,"perTrialBonus":0.5,"perTrialBonusThreshold":0.05,"exampleCost":0.01},"classroomParams":{"A":{"a":1,"b":4},"B":{"a":4,"b":1},"C":{"a":2,"b":8},"D":{"a":8,"b":2}},"conditions":["nonSeqFull","nonSeqPartial","seqNoFeedback","seqFeedback"],"classroomPairings":[["A","B"],["C","D"]],"coinWeights":[0.2,0.5,0.8],"subjectId":"A32JEH06T23HDF","assignmentId":"3YHH42UU5C1OBN6XN8Q1NCHYR0FL0N","hitId":"3J94SKDEKIB2MY6CGVTNWB9X0ALD5P","url":"https://gershmanlab.com/experiments/alicia/teaching/experiment/?hitId=3J94SKDEKIB2MY6CGVTNWB9X0ALD5P&workerId=A32JEH06T23HDF&assignmentId=3YHH42UU5C1OBN6XN8Q1NCHYR0FL0N&a=U4HY9&tp_a=U4HY9&b=3YHH42UU5C1OBN6XN8Q1NCHYR0FL0N&tp_b=3YHH42UU5C1OBN6XN8Q1NCHYR0FL0N&c=365799&tp_c=365799"},{"rt":10684,"response":{"heads":"6","tails":"22"},"type":"response","condition":"seqNoFeedback","trueTheta":0.2,"classrooms":["C","D"],"studentTrueClassroom":"C","exampleSet":"first","trial_type":"survey-html-form","trial_index":65,"time_elapsed":806996,"internal_node_id":"0.0-59.0-0.0","params":{"nStudents":24,"maxFlips":30,"completionMinutes":45,"basePay":8,"maxBonus":9,"perTrialBonus":0.5,"perTrialBonusThreshold":0.05,"exampleCost":0.01},"classroomParams":{"A":{"a":1,"b":4},"B":{"a":4,"b":1},"C":{"a":2,"b":8},"D":{"a":8,"b":2}},"conditions":["nonSeqFull","nonSeqPartial","seqNoFeedback","seqFeedback"],"classroomPairings":[["A","B"],["C","D"]],"coinWeights":[0.2,0.5,0.8],"subjectId":"A32JEH06T23HDF","assignmentId":"3YHH42UU5C1OBN6XN8Q1NCHYR0FL0N","hitId":"3J94SKDEKIB2MY6CGVTNWB9X0ALD5P","url":"https://gershmanlab.com/experiments/alicia/teaching/experiment/?hitId=3J94SKDEKIB2MY6CGVTNWB9X0ALD5P&workerId=A32JEH06T23HDF&assignmentId=3YHH42UU5C1OBN6XN8Q1NCHYR0FL0N&a=U4HY9&tp_a=U4HY9&b=3YHH42UU5C1OBN6XN8Q1NCHYR0FL0N&tp_b=3YHH42UU5C1OBN6XN8Q1NCHYR0FL0N&c=365799&tp_c=365799","heads":6,"tails":22,"studentIndex":7,"studentTrueHypers":{"a":2,"b":8},"studentGuess":0.21052631578947367,"delta":0.010526315789473661,"totalExamples":28,"bonusSoFar":0},{"rt":null,"stimulus":"Sending examples to student... ","response":null,"trial_type":"html-keyboard-response","trial_index":66,"time_elapsed":809012,"internal_node_id":"0.0-60.0","params":{"nStudents":24,"maxFlips":30,"completionMinutes":45,"basePay":8,"maxBonus":9,"perTrialBonus":0.5,"perTrialBonusThreshold":0.05,"exampleCost":0.01},"classroomParams":{"A":{"a":1,"b":4},"B":{"a":4,"b":1},"C":{"a":2,"b":8},"D":{"a":8,"b":2}},"conditions":["nonSeqFull","nonSeqPartial","seqNoFeedback","seqFeedback"],"classroomPairings":[["A","B"],["C","D"]],"coinWeights":[0.2,0.5,0.8],"subjectId":"A32JEH06T23HDF","assignmentId":"3YHH42UU5C1OBN6XN8Q1NCHYR0FL0N","hitId":"3J94SKDEKIB2MY6CGVTNWB9X0ALD5P","url":"https://gershmanlab.com/experiments/alicia/teaching/experiment/?hitId=3J94SKDEKIB2MY6CGVTNWB9X0ALD5P&workerId=A32JEH06T23HDF&assignmentId=3YHH42UU5C1OBN6XN8Q1NCHYR0FL0N&a=U4HY9&tp_a=U4HY9&b=3YHH42UU5C1OBN6XN8Q1NCHYR0FL0N&tp_b=3YHH42UU5C1OBN6XN8Q1NCHYR0FL0N&c=365799&tp_c=365799"},{"rt":null,"stimulus":"Examples sent to student! Waiting for student...","response":null,"trial_type":"html-keyboard-response","trial_index":67,"time_elapsed":813517,"internal_node_id":"0.0-61.0","params":{"nStudents":24,"maxFlips":30,"completionMinutes":45,"basePay":8,"maxBonus":9,"perTrialBonus":0.5,"perTrialBonusThreshold":0.05,"exampleCost":0.01},"classroomParams":{"A":{"a":1,"b":4},"B":{"a":4,"b":1},"C":{"a":2,"b":8},"D":{"a":8,"b":2}},"conditions":["nonSeqFull","nonSeqPartial","seqNoFeedback","seqFeedback"],"classroomPairings":[["A","B"],["C","D"]],"coinWeights":[0.2,0.5,0.8],"subjectId":"A32JEH06T23HDF","assignmentId":"3YHH42UU5C1OBN6XN8Q1NCHYR0FL0N","hitId":"3J94SKDEKIB2MY6CGVTNWB9X0ALD5P","url":"https://gershmanlab.com/experiments/alicia/teaching/experiment/?hitId=3J94SKDEKIB2MY6CGVTNWB9X0ALD5P&workerId=A32JEH06T23HDF&assignmentId=3YHH42UU5C1OBN6XN8Q1NCHYR0FL0N&a=U4HY9&tp_a=U4HY9&b=3YHH42UU5C1OBN6XN8Q1NCHYR0FL0N&tp_b=3YHH42UU5C1OBN6XN8Q1NCHYR0FL0N&c=365799&tp_c=365799"},{"rt":15375,"response":{"heads":"16","tails":"14"},"type":"response","condition":"seqNoFeedback","trueTheta":0.2,"classrooms":["C","D"],"studentTrueClassroom":"C","exampleSet":"second","trial_type":"survey-html-form","trial_index":68,"time_elapsed":828894,"internal_node_id":"0.0-62.0-0.0","params":{"nStudents":24,"maxFlips":30,"completionMinutes":45,"basePay":8,"maxBonus":9,"perTrialBonus":0.5,"perTrialBonusThreshold":0.05,"exampleCost":0.01},"classroomParams":{"A":{"a":1,"b":4},"B":{"a":4,"b":1},"C":{"a":2,"b":8},"D":{"a":8,"b":2}},"conditions":["nonSeqFull","nonSeqPartial","seqNoFeedback","seqFeedback"],"classroomPairings":[["A","B"],["C","D"]],"coinWeights":[0.2,0.5,0.8],"subjectId":"A32JEH06T23HDF","assignmentId":"3YHH42UU5C1OBN6XN8Q1NCHYR0FL0N","hitId":"3J94SKDEKIB2MY6CGVTNWB9X0ALD5P","url":"https://gershmanlab.com/experiments/alicia/teaching/experiment/?hitId=3J94SKDEKIB2MY6CGVTNWB9X0ALD5P&workerId=A32JEH06T23HDF&assignmentId=3YHH42UU5C1OBN6XN8Q1NCHYR0FL0N&a=U4HY9&tp_a=U4HY9&b=3YHH42UU5C1OBN6XN8Q1NCHYR0FL0N&tp_b=3YHH42UU5C1OBN6XN8Q1NCHYR0FL0N&c=365799&tp_c=365799","firstResponseHeads":6,"firstResponseTails":22,"secondResponseHeads":16,"secondResponseTails":14,"totalHeads":22,"totalTails":36,"studentIndex":7,"studentTrueHypers":{"a":2,"b":8},"studentGuess":0.35294117647058826,"delta":0.15294117647058825,"bonus":0,"bonusSoFar":0,"totalExamples":58},{"rt":null,"stimulus":"Sending examples to student... ","response":null,"trial_type":"html-keyboard-response","trial_index":69,"time_elapsed":830154,"internal_node_id":"0.0-63.0","params":{"nStudents":24,"maxFlips":30,"completionMinutes":45,"basePay":8,"maxBonus":9,"perTrialBonus":0.5,"perTrialBonusThreshold":0.05,"exampleCost":0.01},"classroomParams":{"A":{"a":1,"b":4},"B":{"a":4,"b":1},"C":{"a":2,"b":8},"D":{"a":8,"b":2}},"conditions":["nonSeqFull","nonSeqPartial","seqNoFeedback","seqFeedback"],"classroomPairings":[["A","B"],["C","D"]],"coinWeights":[0.2,0.5,0.8],"subjectId":"A32JEH06T23HDF","assignmentId":"3YHH42UU5C1OBN6XN8Q1NCHYR0FL0N","hitId":"3J94SKDEKIB2MY6CGVTNWB9X0ALD5P","url":"https://gershmanlab.com/experiments/alicia/teaching/experiment/?hitId=3J94SKDEKIB2MY6CGVTNWB9X0ALD5P&workerId=A32JEH06T23HDF&assignmentId=3YHH42UU5C1OBN6XN8Q1NCHYR0FL0N&a=U4HY9&tp_a=U4HY9&b=3YHH42UU5C1OBN6XN8Q1NCHYR0FL0N&tp_b=3YHH42UU5C1OBN6XN8Q1NCHYR0FL0N&c=365799&tp_c=365799"},{"rt":null,"stimulus":"Examples sent to student! Waiting for student...","response":null,"trial_type":"html-keyboard-response","trial_index":70,"time_elapsed":836165,"internal_node_id":"0.0-64.0","params":{"nStudents":24,"maxFlips":30,"completionMinutes":45,"basePay":8,"maxBonus":9,"perTrialBonus":0.5,"perTrialBonusThreshold":0.05,"exampleCost":0.01},"classroomParams":{"A":{"a":1,"b":4},"B":{"a":4,"b":1},"C":{"a":2,"b":8},"D":{"a":8,"b":2}},"conditions":["nonSeqFull","nonSeqPartial","seqNoFeedback","seqFeedback"],"classroomPairings":[["A","B"],["C","D"]],"coinWeights":[0.2,0.5,0.8],"subjectId":"A32JEH06T23HDF","assignmentId":"3YHH42UU5C1OBN6XN8Q1NCHYR0FL0N","hitId":"3J94SKDEKIB2MY6CGVTNWB9X0ALD5P","url":"https://gershmanlab.com/experiments/alicia/teaching/experiment/?hitId=3J94SKDEKIB2MY6CGVTNWB9X0ALD5P&workerId=A32JEH06T23HDF&assignmentId=3YHH42UU5C1OBN6XN8Q1NCHYR0FL0N&a=U4HY9&tp_a=U4HY9&b=3YHH42UU5C1OBN6XN8Q1NCHYR0FL0N&tp_b=3YHH42UU5C1OBN6XN8Q1NCHYR0FL0N&c=365799&tp_c=365799"},{"rt":2550,"stimulus":"\n                <p>Student 8's first guess for coin weight: <b style=\"color:Tomato\";>0.21</b></p>\n                <p>Student 8's second guess for coin weight: <b style=\"color:Tomato\";>0.35</b></p>\n                <p>You received a bonus of <b>$0.00</b> based on the student's second guess.</p>\n                <p>Total bonus so far: <b>$0.00</b></p>\n                <p>Press any key to continue.</p>\n                ","response":" ","trial_type":"html-keyboard-response","trial_index":71,"time_elapsed":838717,"internal_node_id":"0.0-65.0","params":{"nStudents":24,"maxFlips":30,"completionMinutes":45,"basePay":8,"maxBonus":9,"perTrialBonus":0.5,"perTrialBonusThreshold":0.05,"exampleCost":0.01},"classroomParams":{"A":{"a":1,"b":4},"B":{"a":4,"b":1},"C":{"a":2,"b":8},"D":{"a":8,"b":2}},"conditions":["nonSeqFull","nonSeqPartial","seqNoFeedback","seqFeedback"],"classroomPairings":[["A","B"],["C","D"]],"coinWeights":[0.2,0.5,0.8],"subjectId":"A32JEH06T23HDF","assignmentId":"3YHH42UU5C1OBN6XN8Q1NCHYR0FL0N","hitId":"3J94SKDEKIB2MY6CGVTNWB9X0ALD5P","url":"https://gershmanlab.com/experiments/alicia/teaching/experiment/?hitId=3J94SKDEKIB2MY6CGVTNWB9X0ALD5P&workerId=A32JEH06T23HDF&assignmentId=3YHH42UU5C1OBN6XN8Q1NCHYR0FL0N&a=U4HY9&tp_a=U4HY9&b=3YHH42UU5C1OBN6XN8Q1NCHYR0FL0N&tp_b=3YHH42UU5C1OBN6XN8Q1NCHYR0FL0N&c=365799&tp_c=365799"},{"rt":null,"stimulus":"<div style=\"font-size:60px;\">Next student</div>","response":null,"trial_type":"html-keyboard-response","trial_index":72,"time_elapsed":840979,"internal_node_id":"0.0-66.0-0.0","params":{"nStudents":24,"maxFlips":30,"completionMinutes":45,"basePay":8,"maxBonus":9,"perTrialBonus":0.5,"perTrialBonusThreshold":0.05,"exampleCost":0.01},"classroomParams":{"A":{"a":1,"b":4},"B":{"a":4,"b":1},"C":{"a":2,"b":8},"D":{"a":8,"b":2}},"conditions":["nonSeqFull","nonSeqPartial","seqNoFeedback","seqFeedback"],"classroomPairings":[["A","B"],["C","D"]],"coinWeights":[0.2,0.5,0.8],"subjectId":"A32JEH06T23HDF","assignmentId":"3YHH42UU5C1OBN6XN8Q1NCHYR0FL0N","hitId":"3J94SKDEKIB2MY6CGVTNWB9X0ALD5P","url":"https://gershmanlab.com/experiments/alicia/teaching/experiment/?hitId=3J94SKDEKIB2MY6CGVTNWB9X0ALD5P&workerId=A32JEH06T23HDF&assignmentId=3YHH42UU5C1OBN6XN8Q1NCHYR0FL0N&a=U4HY9&tp_a=U4HY9&b=3YHH42UU5C1OBN6XN8Q1NCHYR0FL0N&tp_b=3YHH42UU5C1OBN6XN8Q1NCHYR0FL0N&c=365799&tp_c=365799"},{"rt":1871,"stimulus":"\n            <h4 style=\"color:Orange;\">Student 9</h4>\n            <h2>The weight of your coin is <b style=\"color:Tomato;\">0.5</b>.</h2>\n            <p>In this block, you will be giving <b>one</b> set of examples to Student 9.</p>\n                <p>You will receive feedback at the end of the block.</p>\n            <p></p>","response":0,"trial_type":"html-button-response","trial_index":73,"time_elapsed":842852,"internal_node_id":"0.0-67.0","params":{"nStudents":24,"maxFlips":30,"completionMinutes":45,"basePay":8,"maxBonus":9,"perTrialBonus":0.5,"perTrialBonusThreshold":0.05,"exampleCost":0.01},"classroomParams":{"A":{"a":1,"b":4},"B":{"a":4,"b":1},"C":{"a":2,"b":8},"D":{"a":8,"b":2}},"conditions":["nonSeqFull","nonSeqPartial","seqNoFeedback","seqFeedback"],"classroomPairings":[["A","B"],["C","D"]],"coinWeights":[0.2,0.5,0.8],"subjectId":"A32JEH06T23HDF","assignmentId":"3YHH42UU5C1OBN6XN8Q1NCHYR0FL0N","hitId":"3J94SKDEKIB2MY6CGVTNWB9X0ALD5P","url":"https://gershmanlab.com/experiments/alicia/teaching/experiment/?hitId=3J94SKDEKIB2MY6CGVTNWB9X0ALD5P&workerId=A32JEH06T23HDF&assignmentId=3YHH42UU5C1OBN6XN8Q1NCHYR0FL0N&a=U4HY9&tp_a=U4HY9&b=3YHH42UU5C1OBN6XN8Q1NCHYR0FL0N&tp_b=3YHH42UU5C1OBN6XN8Q1NCHYR0FL0N&c=365799&tp_c=365799"},{"rt":20806,"response":{"heads":"13","tails":"17"},"type":"response","condition":"nonSeqFull","trueTheta":0.5,"classrooms":["A","B"],"studentTrueClassroom":"B","exampleSet":"first","trial_type":"survey-html-form","trial_index":74,"time_elapsed":863658,"internal_node_id":"0.0-68.0-0.0","params":{"nStudents":24,"maxFlips":30,"completionMinutes":45,"basePay":8,"maxBonus":9,"perTrialBonus":0.5,"perTrialBonusThreshold":0.05,"exampleCost":0.01},"classroomParams":{"A":{"a":1,"b":4},"B":{"a":4,"b":1},"C":{"a":2,"b":8},"D":{"a":8,"b":2}},"conditions":["nonSeqFull","nonSeqPartial","seqNoFeedback","seqFeedback"],"classroomPairings":[["A","B"],["C","D"]],"coinWeights":[0.2,0.5,0.8],"subjectId":"A32JEH06T23HDF","assignmentId":"3YHH42UU5C1OBN6XN8Q1NCHYR0FL0N","hitId":"3J94SKDEKIB2MY6CGVTNWB9X0ALD5P","url":"https://gershmanlab.com/experiments/alicia/teaching/experiment/?hitId=3J94SKDEKIB2MY6CGVTNWB9X0ALD5P&workerId=A32JEH06T23HDF&assignmentId=3YHH42UU5C1OBN6XN8Q1NCHYR0FL0N&a=U4HY9&tp_a=U4HY9&b=3YHH42UU5C1OBN6XN8Q1NCHYR0FL0N&tp_b=3YHH42UU5C1OBN6XN8Q1NCHYR0FL0N&c=365799&tp_c=365799","heads":13,"tails":17,"studentIndex":8,"studentTrueHypers":{"a":4,"b":1},"studentGuess":0.4857142857142857,"delta":0.01428571428571429,"totalExamples":30,"bonus":0.2,"bonusSoFar":0.2},{"rt":null,"stimulus":"Sending examples to student... ","response":null,"trial_type":"html-keyboard-response","trial_index":75,"time_elapsed":865664,"internal_node_id":"0.0-69.0","params":{"nStudents":24,"maxFlips":30,"completionMinutes":45,"basePay":8,"maxBonus":9,"perTrialBonus":0.5,"perTrialBonusThreshold":0.05,"exampleCost":0.01},"classroomParams":{"A":{"a":1,"b":4},"B":{"a":4,"b":1},"C":{"a":2,"b":8},"D":{"a":8,"b":2}},"conditions":["nonSeqFull","nonSeqPartial","seqNoFeedback","seqFeedback"],"classroomPairings":[["A","B"],["C","D"]],"coinWeights":[0.2,0.5,0.8],"subjectId":"A32JEH06T23HDF","assignmentId":"3YHH42UU5C1OBN6XN8Q1NCHYR0FL0N","hitId":"3J94SKDEKIB2MY6CGVTNWB9X0ALD5P","url":"https://gershmanlab.com/experiments/alicia/teaching/experiment/?hitId=3J94SKDEKIB2MY6CGVTNWB9X0ALD5P&workerId=A32JEH06T23HDF&assignmentId=3YHH42UU5C1OBN6XN8Q1NCHYR0FL0N&a=U4HY9&tp_a=U4HY9&b=3YHH42UU5C1OBN6XN8Q1NCHYR0FL0N&tp_b=3YHH42UU5C1OBN6XN8Q1NCHYR0FL0N&c=365799&tp_c=365799"},{"rt":null,"stimulus":"Examples sent to student! Waiting for student...","response":null,"trial_type":"html-keyboard-response","trial_index":76,"time_elapsed":870681,"internal_node_id":"0.0-70.0","params":{"nStudents":24,"maxFlips":30,"completionMinutes":45,"basePay":8,"maxBonus":9,"perTrialBonus":0.5,"perTrialBonusThreshold":0.05,"exampleCost":0.01},"classroomParams":{"A":{"a":1,"b":4},"B":{"a":4,"b":1},"C":{"a":2,"b":8},"D":{"a":8,"b":2}},"conditions":["nonSeqFull","nonSeqPartial","seqNoFeedback","seqFeedback"],"classroomPairings":[["A","B"],["C","D"]],"coinWeights":[0.2,0.5,0.8],"subjectId":"A32JEH06T23HDF","assignmentId":"3YHH42UU5C1OBN6XN8Q1NCHYR0FL0N","hitId":"3J94SKDEKIB2MY6CGVTNWB9X0ALD5P","url":"https://gershmanlab.com/experiments/alicia/teaching/experiment/?hitId=3J94SKDEKIB2MY6CGVTNWB9X0ALD5P&workerId=A32JEH06T23HDF&assignmentId=3YHH42UU5C1OBN6XN8Q1NCHYR0FL0N&a=U4HY9&tp_a=U4HY9&b=3YHH42UU5C1OBN6XN8Q1NCHYR0FL0N&tp_b=3YHH42UU5C1OBN6XN8Q1NCHYR0FL0N&c=365799&tp_c=365799"},{"rt":3433,"stimulus":"\n                <p>Student's guess for coin weight: <b style=\"color:Tomato;\">0.49</b></p>\n                <p>You received a bonus of <b>$0.2</b>. Total bonus so far: <b>$0.20</b></b></p>\n                <p></p>\n                <p>Press any key to continue.</p>\n                ","response":" ","trial_type":"html-keyboard-response","trial_index":77,"time_elapsed":874115,"internal_node_id":"0.0-71.0","params":{"nStudents":24,"maxFlips":30,"completionMinutes":45,"basePay":8,"maxBonus":9,"perTrialBonus":0.5,"perTrialBonusThreshold":0.05,"exampleCost":0.01},"classroomParams":{"A":{"a":1,"b":4},"B":{"a":4,"b":1},"C":{"a":2,"b":8},"D":{"a":8,"b":2}},"conditions":["nonSeqFull","nonSeqPartial","seqNoFeedback","seqFeedback"],"classroomPairings":[["A","B"],["C","D"]],"coinWeights":[0.2,0.5,0.8],"subjectId":"A32JEH06T23HDF","assignmentId":"3YHH42UU5C1OBN6XN8Q1NCHYR0FL0N","hitId":"3J94SKDEKIB2MY6CGVTNWB9X0ALD5P","url":"https://gershmanlab.com/experiments/alicia/teaching/experiment/?hitId=3J94SKDEKIB2MY6CGVTNWB9X0ALD5P&workerId=A32JEH06T23HDF&assignmentId=3YHH42UU5C1OBN6XN8Q1NCHYR0FL0N&a=U4HY9&tp_a=U4HY9&b=3YHH42UU5C1OBN6XN8Q1NCHYR0FL0N&tp_b=3YHH42UU5C1OBN6XN8Q1NCHYR0FL0N&c=365799&tp_c=365799"},{"rt":null,"stimulus":"<div style=\"font-size:60px;\">Next student</div>","response":null,"trial_type":"html-keyboard-response","trial_index":78,"time_elapsed":877133,"internal_node_id":"0.0-72.0-0.0","params":{"nStudents":24,"maxFlips":30,"completionMinutes":45,"basePay":8,"maxBonus":9,"perTrialBonus":0.5,"perTrialBonusThreshold":0.05,"exampleCost":0.01},"classroomParams":{"A":{"a":1,"b":4},"B":{"a":4,"b":1},"C":{"a":2,"b":8},"D":{"a":8,"b":2}},"conditions":["nonSeqFull","nonSeqPartial","seqNoFeedback","seqFeedback"],"classroomPairings":[["A","B"],["C","D"]],"coinWeights":[0.2,0.5,0.8],"subjectId":"A32JEH06T23HDF","assignmentId":"3YHH42UU5C1OBN6XN8Q1NCHYR0FL0N","hitId":"3J94SKDEKIB2MY6CGVTNWB9X0ALD5P","url":"https://gershmanlab.com/experiments/alicia/teaching/experiment/?hitId=3J94SKDEKIB2MY6CGVTNWB9X0ALD5P&workerId=A32JEH06T23HDF&assignmentId=3YHH42UU5C1OBN6XN8Q1NCHYR0FL0N&a=U4HY9&tp_a=U4HY9&b=3YHH42UU5C1OBN6XN8Q1NCHYR0FL0N&tp_b=3YHH42UU5C1OBN6XN8Q1NCHYR0FL0N&c=365799&tp_c=365799"},{"rt":6178,"stimulus":"\n            <h4 style=\"color:Orange;\">Student 10</h4>\n            <h2>The weight of your coin is <b style=\"color:Tomato;\">0.2</b>.</h2>\n            <p>In this block, you will be giving <b>one</b> set of examples to Student 10.</p>\n                <p>You will receive feedback at the end of the block.</p>\n            <p></p>","response":0,"trial_type":"html-button-response","trial_index":79,"time_elapsed":883313,"internal_node_id":"0.0-73.0","params":{"nStudents":24,"maxFlips":30,"completionMinutes":45,"basePay":8,"maxBonus":9,"perTrialBonus":0.5,"perTrialBonusThreshold":0.05,"exampleCost":0.01},"classroomParams":{"A":{"a":1,"b":4},"B":{"a":4,"b":1},"C":{"a":2,"b":8},"D":{"a":8,"b":2}},"conditions":["nonSeqFull","nonSeqPartial","seqNoFeedback","seqFeedback"],"classroomPairings":[["A","B"],["C","D"]],"coinWeights":[0.2,0.5,0.8],"subjectId":"A32JEH06T23HDF","assignmentId":"3YHH42UU5C1OBN6XN8Q1NCHYR0FL0N","hitId":"3J94SKDEKIB2MY6CGVTNWB9X0ALD5P","url":"https://gershmanlab.com/experiments/alicia/teaching/experiment/?hitId=3J94SKDEKIB2MY6CGVTNWB9X0ALD5P&workerId=A32JEH06T23HDF&assignmentId=3YHH42UU5C1OBN6XN8Q1NCHYR0FL0N&a=U4HY9&tp_a=U4HY9&b=3YHH42UU5C1OBN6XN8Q1NCHYR0FL0N&tp_b=3YHH42UU5C1OBN6XN8Q1NCHYR0FL0N&c=365799&tp_c=365799"},{"rt":15309,"response":{"heads":"6","tails":"24"},"type":"response","condition":"nonSeqPartial","trueTheta":0.2,"classrooms":["A","B"],"studentTrueClassroom":"B","exampleSet":"first","trial_type":"survey-html-form","trial_index":80,"time_elapsed":898623,"internal_node_id":"0.0-74.0-0.0","params":{"nStudents":24,"maxFlips":30,"completionMinutes":45,"basePay":8,"maxBonus":9,"perTrialBonus":0.5,"perTrialBonusThreshold":0.05,"exampleCost":0.01},"classroomParams":{"A":{"a":1,"b":4},"B":{"a":4,"b":1},"C":{"a":2,"b":8},"D":{"a":8,"b":2}},"conditions":["nonSeqFull","nonSeqPartial","seqNoFeedback","seqFeedback"],"classroomPairings":[["A","B"],["C","D"]],"coinWeights":[0.2,0.5,0.8],"subjectId":"A32JEH06T23HDF","assignmentId":"3YHH42UU5C1OBN6XN8Q1NCHYR0FL0N","hitId":"3J94SKDEKIB2MY6CGVTNWB9X0ALD5P","url":"https://gershmanlab.com/experiments/alicia/teaching/experiment/?hitId=3J94SKDEKIB2MY6CGVTNWB9X0ALD5P&workerId=A32JEH06T23HDF&assignmentId=3YHH42UU5C1OBN6XN8Q1NCHYR0FL0N&a=U4HY9&tp_a=U4HY9&b=3YHH42UU5C1OBN6XN8Q1NCHYR0FL0N&tp_b=3YHH42UU5C1OBN6XN8Q1NCHYR0FL0N&c=365799&tp_c=365799","heads":6,"tails":24,"studentIndex":9,"studentTrueHypers":{"a":4,"b":1},"studentGuess":0.2857142857142857,"delta":0.08571428571428569,"totalExamples":30,"bonus":0,"bonusSoFar":0.2},{"rt":null,"stimulus":"Sending examples to student... ","response":null,"trial_type":"html-keyboard-response","trial_index":81,"time_elapsed":900379,"internal_node_id":"0.0-75.0","params":{"nStudents":24,"maxFlips":30,"completionMinutes":45,"basePay":8,"maxBonus":9,"perTrialBonus":0.5,"perTrialBonusThreshold":0.05,"exampleCost":0.01},"classroomParams":{"A":{"a":1,"b":4},"B":{"a":4,"b":1},"C":{"a":2,"b":8},"D":{"a":8,"b":2}},"conditions":["nonSeqFull","nonSeqPartial","seqNoFeedback","seqFeedback"],"classroomPairings":[["A","B"],["C","D"]],"coinWeights":[0.2,0.5,0.8],"subjectId":"A32JEH06T23HDF","assignmentId":"3YHH42UU5C1OBN6XN8Q1NCHYR0FL0N","hitId":"3J94SKDEKIB2MY6CGVTNWB9X0ALD5P","url":"https://gershmanlab.com/experiments/alicia/teaching/experiment/?hitId=3J94SKDEKIB2MY6CGVTNWB9X0ALD5P&workerId=A32JEH06T23HDF&assignmentId=3YHH42UU5C1OBN6XN8Q1NCHYR0FL0N&a=U4HY9&tp_a=U4HY9&b=3YHH42UU5C1OBN6XN8Q1NCHYR0FL0N&tp_b=3YHH42UU5C1OBN6XN8Q1NCHYR0FL0N&c=365799&tp_c=365799"},{"rt":null,"stimulus":"Examples sent to student! Waiting for student...","response":null,"trial_type":"html-keyboard-response","trial_index":82,"time_elapsed":905881,"internal_node_id":"0.0-76.0","params":{"nStudents":24,"maxFlips":30,"completionMinutes":45,"basePay":8,"maxBonus":9,"perTrialBonus":0.5,"perTrialBonusThreshold":0.05,"exampleCost":0.01},"classroomParams":{"A":{"a":1,"b":4},"B":{"a":4,"b":1},"C":{"a":2,"b":8},"D":{"a":8,"b":2}},"conditions":["nonSeqFull","nonSeqPartial","seqNoFeedback","seqFeedback"],"classroomPairings":[["A","B"],["C","D"]],"coinWeights":[0.2,0.5,0.8],"subjectId":"A32JEH06T23HDF","assignmentId":"3YHH42UU5C1OBN6XN8Q1NCHYR0FL0N","hitId":"3J94SKDEKIB2MY6CGVTNWB9X0ALD5P","url":"https://gershmanlab.com/experiments/alicia/teaching/experiment/?hitId=3J94SKDEKIB2MY6CGVTNWB9X0ALD5P&workerId=A32JEH06T23HDF&assignmentId=3YHH42UU5C1OBN6XN8Q1NCHYR0FL0N&a=U4HY9&tp_a=U4HY9&b=3YHH42UU5C1OBN6XN8Q1NCHYR0FL0N&tp_b=3YHH42UU5C1OBN6XN8Q1NCHYR0FL0N&c=365799&tp_c=365799"},{"rt":6208,"stimulus":"\n                <p>Student's guess for coin weight: <b style=\"color:Tomato;\">0.29</b></p>\n                <p>You received a bonus of <b>$0</b>. Total bonus so far: <b>$0.20</b></b></p>\n                <p></p>\n                <p>Press any key to continue.</p>\n                ","response":" ","trial_type":"html-keyboard-response","trial_index":83,"time_elapsed":912091,"internal_node_id":"0.0-77.0","params":{"nStudents":24,"maxFlips":30,"completionMinutes":45,"basePay":8,"maxBonus":9,"perTrialBonus":0.5,"perTrialBonusThreshold":0.05,"exampleCost":0.01},"classroomParams":{"A":{"a":1,"b":4},"B":{"a":4,"b":1},"C":{"a":2,"b":8},"D":{"a":8,"b":2}},"conditions":["nonSeqFull","nonSeqPartial","seqNoFeedback","seqFeedback"],"classroomPairings":[["A","B"],["C","D"]],"coinWeights":[0.2,0.5,0.8],"subjectId":"A32JEH06T23HDF","assignmentId":"3YHH42UU5C1OBN6XN8Q1NCHYR0FL0N","hitId":"3J94SKDEKIB2MY6CGVTNWB9X0ALD5P","url":"https://gershmanlab.com/experiments/alicia/teaching/experiment/?hitId=3J94SKDEKIB2MY6CGVTNWB9X0ALD5P&workerId=A32JEH06T23HDF&assignmentId=3YHH42UU5C1OBN6XN8Q1NCHYR0FL0N&a=U4HY9&tp_a=U4HY9&b=3YHH42UU5C1OBN6XN8Q1NCHYR0FL0N&tp_b=3YHH42UU5C1OBN6XN8Q1NCHYR0FL0N&c=365799&tp_c=365799"},{"rt":null,"stimulus":"<div style=\"font-size:60px;\">Next student</div>","response":null,"trial_type":"html-keyboard-response","trial_index":84,"time_elapsed":914110,"internal_node_id":"0.0-78.0-0.0","params":{"nStudents":24,"maxFlips":30,"completionMinutes":45,"basePay":8,"maxBonus":9,"perTrialBonus":0.5,"perTrialBonusThreshold":0.05,"exampleCost":0.01},"classroomParams":{"A":{"a":1,"b":4},"B":{"a":4,"b":1},"C":{"a":2,"b":8},"D":{"a":8,"b":2}},"conditions":["nonSeqFull","nonSeqPartial","seqNoFeedback","seqFeedback"],"classroomPairings":[["A","B"],["C","D"]],"coinWeights":[0.2,0.5,0.8],"subjectId":"A32JEH06T23HDF","assignmentId":"3YHH42UU5C1OBN6XN8Q1NCHYR0FL0N","hitId":"3J94SKDEKIB2MY6CGVTNWB9X0ALD5P","url":"https://gershmanlab.com/experiments/alicia/teaching/experiment/?hitId=3J94SKDEKIB2MY6CGVTNWB9X0ALD5P&workerId=A32JEH06T23HDF&assignmentId=3YHH42UU5C1OBN6XN8Q1NCHYR0FL0N&a=U4HY9&tp_a=U4HY9&b=3YHH42UU