[{"rt":4223,"stimulus":"Welcome to the experiment. Press any key to begin.","response":" ","trial_type":"html-keyboard-response","trial_index":0,"time_elapsed":4237,"internal_node_id":"0.0-0.0","params":{"nStudents":24,"maxFlips":30,"completionMinutes":45,"basePay":8,"maxBonus":9,"perTrialBonus":0.5,"perTrialBonusThreshold":0.05,"exampleCost":0.01},"classroomParams":{"A":{"a":1,"b":4},"B":{"a":4,"b":1},"C":{"a":2,"b":8},"D":{"a":8,"b":2}},"conditions":["nonSeqFull","nonSeqPartial","seqNoFeedback","seqFeedback"],"classroomPairings":[["A","B"],["C","D"]],"coinWeights":[0.2,0.5,0.8],"subjectId":"A358YR7MWC6LRH","assignmentId":"3ZAK8W07I50RUDTRWMI2EZDH4R8U0Q","hitId":"3J94SKDEKIB2MY6CGVTNWB9X0ALD5P","url":"https://gershmanlab.com/experiments/alicia/teaching/experiment/?hitId=3J94SKDEKIB2MY6CGVTNWB9X0ALD5P&workerId=A358YR7MWC6LRH&assignmentId=3ZAK8W07I50RUDTRWMI2EZDH4R8U0Q&a=78AZ9&tp_a=78AZ9&b=3ZAK8W07I50RUDTRWMI2EZDH4R8U0Q&tp_b=3ZAK8W07I50RUDTRWMI2EZDH4R8U0Q&c=365799&tp_c=365799"},{"rt":7437,"stimulus":"\n        <h3>Please read this consent agreement carefully before deciding whether to participate in this experiment.</h3>\n        <p><b>Purpose of the research:</b> To examine how people teach effectively.</p>\n        <p><b>What you will do in this research:</b> You will teach students the weights of different coins.</p>\n        <p><b>Time required:</b> This experiment will take 45 minutes to complete.</p>\n        <p><b>Risks:</b> There are no anticipated risks associated with participating in this study.             The effects of participating should be comparable to those you would experience from viewing a computer monitor             and using a mouse and keyboard for the duration of the experiment.</p>\n        <p><b>Benefits:</b> The study provides important information about the nature of teaching.</p>\n        <p><b>Compensation:</b> You will receive <b>$8</b> for completing the experiment and a performance bonus of up to <b>$9</b>.</p>\n        <p><b>Confidentiality:</b> Your participation in this study will remain confidential.             No personally identifiable information will be associated with your data.             Your de-identified data may be shared with other researchers and used in future projects.</p>\n        <p><b>Participation and withdrawal:</b> Your participation in this study is completely voluntary and             you may refuse to participate or you may choose to withdraw at any time without penalty or loss of\n            benefits to which you are otherwise entitled.</p>\n        <p><b>How to contact the researcher:</b> If you have questions or concerns about your participation            or payment, or want to request a summary of research findings, please contact\n            Alicia Chen, aliciachen@college.harvard.edu.</p>\n        <p><b>Whom to contact about your rights in this research:</b> For questions, concerns, suggestions,             or complaints that have not been or cannot be addressed by the researcher, or to report             research-related harm, please contact the Committee on the Use of Human Subjects in Research at Harvard University,             1414 Massachusetts Avenue, Second Floor, Cambridge, MA 02138. Phone: 617-496-2847. Email: cuhs@fas.harvard.edu.</p>\n        ","response":0,"trial_type":"html-button-response","trial_index":1,"time_elapsed":11678,"internal_node_id":"0.0-1.0","params":{"nStudents":24,"maxFlips":30,"completionMinutes":45,"basePay":8,"maxBonus":9,"perTrialBonus":0.5,"perTrialBonusThreshold":0.05,"exampleCost":0.01},"classroomParams":{"A":{"a":1,"b":4},"B":{"a":4,"b":1},"C":{"a":2,"b":8},"D":{"a":8,"b":2}},"conditions":["nonSeqFull","nonSeqPartial","seqNoFeedback","seqFeedback"],"classroomPairings":[["A","B"],["C","D"]],"coinWeights":[0.2,0.5,0.8],"subjectId":"A358YR7MWC6LRH","assignmentId":"3ZAK8W07I50RUDTRWMI2EZDH4R8U0Q","hitId":"3J94SKDEKIB2MY6CGVTNWB9X0ALD5P","url":"https://gershmanlab.com/experiments/alicia/teaching/experiment/?hitId=3J94SKDEKIB2MY6CGVTNWB9X0ALD5P&workerId=A358YR7MWC6LRH&assignmentId=3ZAK8W07I50RUDTRWMI2EZDH4R8U0Q&a=78AZ9&tp_a=78AZ9&b=3ZAK8W07I50RUDTRWMI2EZDH4R8U0Q&tp_b=3ZAK8W07I50RUDTRWMI2EZDH4R8U0Q&c=365799&tp_c=365799"},{"view_history":[{"page_index":0,"viewing_time":66269},{"page_index":1,"viewing_time":2151},{"page_index":2,"viewing_time":48912},{"page_index":3,"viewing_time":19888},{"page_index":4,"viewing_time":63816},{"page_index":5,"viewing_time":22496},{"page_index":6,"viewing_time":175048}],"rt":398582,"trial_type":"instructions","trial_index":2,"time_elapsed":410261,"internal_node_id":"0.0-2.0-0.0","params":{"nStudents":24,"maxFlips":30,"completionMinutes":45,"basePay":8,"maxBonus":9,"perTrialBonus":0.5,"perTrialBonusThreshold":0.05,"exampleCost":0.01},"classroomParams":{"A":{"a":1,"b":4},"B":{"a":4,"b":1},"C":{"a":2,"b":8},"D":{"a":8,"b":2}},"conditions":["nonSeqFull","nonSeqPartial","seqNoFeedback","seqFeedback"],"classroomPairings":[["A","B"],["C","D"]],"coinWeights":[0.2,0.5,0.8],"subjectId":"A358YR7MWC6LRH","assignmentId":"3ZAK8W07I50RUDTRWMI2EZDH4R8U0Q","hitId":"3J94SKDEKIB2MY6CGVTNWB9X0ALD5P","url":"https://gershmanlab.com/experiments/alicia/teaching/experiment/?hitId=3J94SKDEKIB2MY6CGVTNWB9X0ALD5P&workerId=A358YR7MWC6LRH&assignmentId=3ZAK8W07I50RUDTRWMI2EZDH4R8U0Q&a=78AZ9&tp_a=78AZ9&b=3ZAK8W07I50RUDTRWMI2EZDH4R8U0Q&tp_b=3ZAK8W07I50RUDTRWMI2EZDH4R8U0Q&c=365799&tp_c=365799"},{"rt":47349,"response":{"Q0":"Students in different classrooms will have seen a different number of heads and tails before seeing the examples you select for them.","Q1":"By <b>considering the student's classroom information</b> so that I can teach efficiently and accurately/helpfully at the same time (because each example I give to the student costs money!).","Q2":"The coin lands heads 90% of the time.","Q3":"No, I will teach a <b>new</b> student each time.","Q4":"The students are also on the same alien planet as you, where coins can be unfair.","Q5":"Based on the student's second (and final) guess."},"question_order":[3,4,2,1,0,5],"trial_type":"survey-multi-choice","trial_index":3,"time_elapsed":457614,"internal_node_id":"0.0-2.0-1.0","params":{"nStudents":24,"maxFlips":30,"completionMinutes":45,"basePay":8,"maxBonus":9,"perTrialBonus":0.5,"perTrialBonusThreshold":0.05,"exampleCost":0.01},"classroomParams":{"A":{"a":1,"b":4},"B":{"a":4,"b":1},"C":{"a":2,"b":8},"D":{"a":8,"b":2}},"conditions":["nonSeqFull","nonSeqPartial","seqNoFeedback","seqFeedback"],"classroomPairings":[["A","B"],["C","D"]],"coinWeights":[0.2,0.5,0.8],"subjectId":"A358YR7MWC6LRH","assignmentId":"3ZAK8W07I50RUDTRWMI2EZDH4R8U0Q","hitId":"3J94SKDEKIB2MY6CGVTNWB9X0ALD5P","url":"https://gershmanlab.com/experiments/alicia/teaching/experiment/?hitId=3J94SKDEKIB2MY6CGVTNWB9X0ALD5P&workerId=A358YR7MWC6LRH&assignmentId=3ZAK8W07I50RUDTRWMI2EZDH4R8U0Q&a=78AZ9&tp_a=78AZ9&b=3ZAK8W07I50RUDTRWMI2EZDH4R8U0Q&tp_b=3ZAK8W07I50RUDTRWMI2EZDH4R8U0Q&c=365799&tp_c=365799","pass":true},{"rt":null,"stimulus":"<div style=\"font-size:30px;\">Congrats on passing the comprehension quiz! The experiment will begin in a few seconds.</div>","response":null,"trial_type":"html-keyboard-response","trial_index":4,"time_elapsed":460625,"internal_node_id":"0.0-3.0","params":{"nStudents":24,"maxFlips":30,"completionMinutes":45,"basePay":8,"maxBonus":9,"perTrialBonus":0.5,"perTrialBonusThreshold":0.05,"exampleCost":0.01},"classroomParams":{"A":{"a":1,"b":4},"B":{"a":4,"b":1},"C":{"a":2,"b":8},"D":{"a":8,"b":2}},"conditions":["nonSeqFull","nonSeqPartial","seqNoFeedback","seqFeedback"],"classroomPairings":[["A","B"],["C","D"]],"coinWeights":[0.2,0.5,0.8],"subjectId":"A358YR7MWC6LRH","assignmentId":"3ZAK8W07I50RUDTRWMI2EZDH4R8U0Q","hitId":"3J94SKDEKIB2MY6CGVTNWB9X0ALD5P","url":"https://gershmanlab.com/experiments/alicia/teaching/experiment/?hitId=3J94SKDEKIB2MY6CGVTNWB9X0ALD5P&workerId=A358YR7MWC6LRH&assignmentId=3ZAK8W07I50RUDTRWMI2EZDH4R8U0Q&a=78AZ9&tp_a=78AZ9&b=3ZAK8W07I50RUDTRWMI2EZDH4R8U0Q&tp_b=3ZAK8W07I50RUDTRWMI2EZDH4R8U0Q&c=365799&tp_c=365799"},{"rt":null,"stimulus":"<div style=\"font-size:50px;\">First student</div>","response":null,"trial_type":"html-keyboard-response","trial_index":5,"time_elapsed":463630,"internal_node_id":"0.0-4.0","params":{"nStudents":24,"maxFlips":30,"completionMinutes":45,"basePay":8,"maxBonus":9,"perTrialBonus":0.5,"perTrialBonusThreshold":0.05,"exampleCost":0.01},"classroomParams":{"A":{"a":1,"b":4},"B":{"a":4,"b":1},"C":{"a":2,"b":8},"D":{"a":8,"b":2}},"conditions":["nonSeqFull","nonSeqPartial","seqNoFeedback","seqFeedback"],"classroomPairings":[["A","B"],["C","D"]],"coinWeights":[0.2,0.5,0.8],"subjectId":"A358YR7MWC6LRH","assignmentId":"3ZAK8W07I50RUDTRWMI2EZDH4R8U0Q","hitId":"3J94SKDEKIB2MY6CGVTNWB9X0ALD5P","url":"https://gershmanlab.com/experiments/alicia/teaching/experiment/?hitId=3J94SKDEKIB2MY6CGVTNWB9X0ALD5P&workerId=A358YR7MWC6LRH&assignmentId=3ZAK8W07I50RUDTRWMI2EZDH4R8U0Q&a=78AZ9&tp_a=78AZ9&b=3ZAK8W07I50RUDTRWMI2EZDH4R8U0Q&tp_b=3ZAK8W07I50RUDTRWMI2EZDH4R8U0Q&c=365799&tp_c=365799"},{"rt":49474,"stimulus":"\n            <h4 style=\"color:Orange;\">Student 1</h4>\n            <h2>The weight of your coin is <b style=\"color:Tomato;\">0.5</b>.</h2>\n            <p>In this block, you will be giving <b>two</b> sets of examples to Student 1.</p>\n                <p>You will receive feedback at the end of the block.</p>\n            <p></p>","response":0,"trial_type":"html-button-response","trial_index":6,"time_elapsed":513107,"internal_node_id":"0.0-5.0","params":{"nStudents":24,"maxFlips":30,"completionMinutes":45,"basePay":8,"maxBonus":9,"perTrialBonus":0.5,"perTrialBonusThreshold":0.05,"exampleCost":0.01},"classroomParams":{"A":{"a":1,"b":4},"B":{"a":4,"b":1},"C":{"a":2,"b":8},"D":{"a":8,"b":2}},"conditions":["nonSeqFull","nonSeqPartial","seqNoFeedback","seqFeedback"],"classroomPairings":[["A","B"],["C","D"]],"coinWeights":[0.2,0.5,0.8],"subjectId":"A358YR7MWC6LRH","assignmentId":"3ZAK8W07I50RUDTRWMI2EZDH4R8U0Q","hitId":"3J94SKDEKIB2MY6CGVTNWB9X0ALD5P","url":"https://gershmanlab.com/experiments/alicia/teaching/experiment/?hitId=3J94SKDEKIB2MY6CGVTNWB9X0ALD5P&workerId=A358YR7MWC6LRH&assignmentId=3ZAK8W07I50RUDTRWMI2EZDH4R8U0Q&a=78AZ9&tp_a=78AZ9&b=3ZAK8W07I50RUDTRWMI2EZDH4R8U0Q&tp_b=3ZAK8W07I50RUDTRWMI2EZDH4R8U0Q&c=365799&tp_c=365799"},{"rt":80229,"response":{"heads":"5","tails":"0"},"type":"response","condition":"seqNoFeedback","trueTheta":0.5,"classrooms":["C","D"],"studentTrueClassroom":"D","exampleSet":"first","trial_type":"survey-html-form","trial_index":7,"time_elapsed":593339,"internal_node_id":"0.0-6.0-0.0","params":{"nStudents":24,"maxFlips":30,"completionMinutes":45,"basePay":8,"maxBonus":9,"perTrialBonus":0.5,"perTrialBonusThreshold":0.05,"exampleCost":0.01},"classroomParams":{"A":{"a":1,"b":4},"B":{"a":4,"b":1},"C":{"a":2,"b":8},"D":{"a":8,"b":2}},"conditions":["nonSeqFull","nonSeqPartial","seqNoFeedback","seqFeedback"],"classroomPairings":[["A","B"],["C","D"]],"coinWeights":[0.2,0.5,0.8],"subjectId":"A358YR7MWC6LRH","assignmentId":"3ZAK8W07I50RUDTRWMI2EZDH4R8U0Q","hitId":"3J94SKDEKIB2MY6CGVTNWB9X0ALD5P","url":"https://gershmanlab.com/experiments/alicia/teaching/experiment/?hitId=3J94SKDEKIB2MY6CGVTNWB9X0ALD5P&workerId=A358YR7MWC6LRH&assignmentId=3ZAK8W07I50RUDTRWMI2EZDH4R8U0Q&a=78AZ9&tp_a=78AZ9&b=3ZAK8W07I50RUDTRWMI2EZDH4R8U0Q&tp_b=3ZAK8W07I50RUDTRWMI2EZDH4R8U0Q&c=365799&tp_c=365799","heads":5,"tails":0,"studentIndex":0,"studentTrueHypers":{"a":8,"b":2},"studentGuess":0.8666666666666667,"delta":0.3666666666666667,"totalExamples":5,"bonusSoFar":0},{"rt":null,"stimulus":"Sending examples to student... ","response":null,"trial_type":"html-keyboard-response","trial_index":8,"time_elapsed":594594,"internal_node_id":"0.0-7.0","params":{"nStudents":24,"maxFlips":30,"completionMinutes":45,"basePay":8,"maxBonus":9,"perTrialBonus":0.5,"perTrialBonusThreshold":0.05,"exampleCost":0.01},"classroomParams":{"A":{"a":1,"b":4},"B":{"a":4,"b":1},"C":{"a":2,"b":8},"D":{"a":8,"b":2}},"conditions":["nonSeqFull","nonSeqPartial","seqNoFeedback","seqFeedback"],"classroomPairings":[["A","B"],["C","D"]],"coinWeights":[0.2,0.5,0.8],"subjectId":"A358YR7MWC6LRH","assignmentId":"3ZAK8W07I50RUDTRWMI2EZDH4R8U0Q","hitId":"3J94SKDEKIB2MY6CGVTNWB9X0ALD5P","url":"https://gershmanlab.com/experiments/alicia/teaching/experiment/?hitId=3J94SKDEKIB2MY6CGVTNWB9X0ALD5P&workerId=A358YR7MWC6LRH&assignmentId=3ZAK8W07I50RUDTRWMI2EZDH4R8U0Q&a=78AZ9&tp_a=78AZ9&b=3ZAK8W07I50RUDTRWMI2EZDH4R8U0Q&tp_b=3ZAK8W07I50RUDTRWMI2EZDH4R8U0Q&c=365799&tp_c=365799"},{"rt":null,"stimulus":"Examples sent to student! Waiting for student...","response":null,"trial_type":"html-keyboard-response","trial_index":9,"time_elapsed":599097,"internal_node_id":"0.0-8.0","params":{"nStudents":24,"maxFlips":30,"completionMinutes":45,"basePay":8,"maxBonus":9,"perTrialBonus":0.5,"perTrialBonusThreshold":0.05,"exampleCost":0.01},"classroomParams":{"A":{"a":1,"b":4},"B":{"a":4,"b":1},"C":{"a":2,"b":8},"D":{"a":8,"b":2}},"conditions":["nonSeqFull","nonSeqPartial","seqNoFeedback","seqFeedback"],"classroomPairings":[["A","B"],["C","D"]],"coinWeights":[0.2,0.5,0.8],"subjectId":"A358YR7MWC6LRH","assignmentId":"3ZAK8W07I50RUDTRWMI2EZDH4R8U0Q","hitId":"3J94SKDEKIB2MY6CGVTNWB9X0ALD5P","url":"https://gershmanlab.com/experiments/alicia/teaching/experiment/?hitId=3J94SKDEKIB2MY6CGVTNWB9X0ALD5P&workerId=A358YR7MWC6LRH&assignmentId=3ZAK8W07I50RUDTRWMI2EZDH4R8U0Q&a=78AZ9&tp_a=78AZ9&b=3ZAK8W07I50RUDTRWMI2EZDH4R8U0Q&tp_b=3ZAK8W07I50RUDTRWMI2EZDH4R8U0Q&c=365799&tp_c=365799"},{"rt":11141,"response":{"heads":"5","tails":"0"},"type":"response","condition":"seqNoFeedback","trueTheta":0.5,"classrooms":["C","D"],"studentTrueClassroom":"D","exampleSet":"second","trial_type":"survey-html-form","trial_index":10,"time_elapsed":610240,"internal_node_id":"0.0-9.0-0.0","params":{"nStudents":24,"maxFlips":30,"completionMinutes":45,"basePay":8,"maxBonus":9,"perTrialBonus":0.5,"perTrialBonusThreshold":0.05,"exampleCost":0.01},"classroomParams":{"A":{"a":1,"b":4},"B":{"a":4,"b":1},"C":{"a":2,"b":8},"D":{"a":8,"b":2}},"conditions":["nonSeqFull","nonSeqPartial","seqNoFeedback","seqFeedback"],"classroomPairings":[["A","B"],["C","D"]],"coinWeights":[0.2,0.5,0.8],"subjectId":"A358YR7MWC6LRH","assignmentId":"3ZAK8W07I50RUDTRWMI2EZDH4R8U0Q","hitId":"3J94SKDEKIB2MY6CGVTNWB9X0ALD5P","url":"https://gershmanlab.com/experiments/alicia/teaching/experiment/?hitId=3J94SKDEKIB2MY6CGVTNWB9X0ALD5P&workerId=A358YR7MWC6LRH&assignmentId=3ZAK8W07I50RUDTRWMI2EZDH4R8U0Q&a=78AZ9&tp_a=78AZ9&b=3ZAK8W07I50RUDTRWMI2EZDH4R8U0Q&tp_b=3ZAK8W07I50RUDTRWMI2EZDH4R8U0Q&c=365799&tp_c=365799","firstResponseHeads":5,"firstResponseTails":0,"secondResponseHeads":5,"secondResponseTails":0,"totalHeads":10,"totalTails":0,"studentIndex":0,"studentTrueHypers":{"a":8,"b":2},"studentGuess":0.9,"delta":0.4,"bonus":0,"bonusSoFar":0,"totalExamples":10},{"rt":null,"stimulus":"Sending examples to student... ","response":null,"trial_type":"html-keyboard-response","trial_index":11,"time_elapsed":611507,"internal_node_id":"0.0-10.0","params":{"nStudents":24,"maxFlips":30,"completionMinutes":45,"basePay":8,"maxBonus":9,"perTrialBonus":0.5,"perTrialBonusThreshold":0.05,"exampleCost":0.01},"classroomParams":{"A":{"a":1,"b":4},"B":{"a":4,"b":1},"C":{"a":2,"b":8},"D":{"a":8,"b":2}},"conditions":["nonSeqFull","nonSeqPartial","seqNoFeedback","seqFeedback"],"classroomPairings":[["A","B"],["C","D"]],"coinWeights":[0.2,0.5,0.8],"subjectId":"A358YR7MWC6LRH","assignmentId":"3ZAK8W07I50RUDTRWMI2EZDH4R8U0Q","hitId":"3J94SKDEKIB2MY6CGVTNWB9X0ALD5P","url":"https://gershmanlab.com/experiments/alicia/teaching/experiment/?hitId=3J94SKDEKIB2MY6CGVTNWB9X0ALD5P&workerId=A358YR7MWC6LRH&assignmentId=3ZAK8W07I50RUDTRWMI2EZDH4R8U0Q&a=78AZ9&tp_a=78AZ9&b=3ZAK8W07I50RUDTRWMI2EZDH4R8U0Q&tp_b=3ZAK8W07I50RUDTRWMI2EZDH4R8U0Q&c=365799&tp_c=365799"},{"rt":null,"stimulus":"Examples sent to student! Waiting for student...","response":null,"trial_type":"html-keyboard-response","trial_index":12,"time_elapsed":616518,"internal_node_id":"0.0-11.0","params":{"nStudents":24,"maxFlips":30,"completionMinutes":45,"basePay":8,"maxBonus":9,"perTrialBonus":0.5,"perTrialBonusThreshold":0.05,"exampleCost":0.01},"classroomParams":{"A":{"a":1,"b":4},"B":{"a":4,"b":1},"C":{"a":2,"b":8},"D":{"a":8,"b":2}},"conditions":["nonSeqFull","nonSeqPartial","seqNoFeedback","seqFeedback"],"classroomPairings":[["A","B"],["C","D"]],"coinWeights":[0.2,0.5,0.8],"subjectId":"A358YR7MWC6LRH","assignmentId":"3ZAK8W07I50RUDTRWMI2EZDH4R8U0Q","hitId":"3J94SKDEKIB2MY6CGVTNWB9X0ALD5P","url":"https://gershmanlab.com/experiments/alicia/teaching/experiment/?hitId=3J94SKDEKIB2MY6CGVTNWB9X0ALD5P&workerId=A358YR7MWC6LRH&assignmentId=3ZAK8W07I50RUDTRWMI2EZDH4R8U0Q&a=78AZ9&tp_a=78AZ9&b=3ZAK8W07I50RUDTRWMI2EZDH4R8U0Q&tp_b=3ZAK8W07I50RUDTRWMI2EZDH4R8U0Q&c=365799&tp_c=365799"},{"rt":9952,"stimulus":"\n                <p>Student 1's first guess for coin weight: <b style=\"color:Tomato\";>0.87</b></p>\n                <p>Student 1's second guess for coin weight: <b style=\"color:Tomato\";>0.90</b></p>\n                <p>You received a bonus of <b>$0.00</b> based on the student's second guess.</p>\n                <p>Total bonus so far: <b>$0.00</b></p>\n                <p>Press any key to continue.</p>\n                ","response":" ","trial_type":"html-keyboard-response","trial_index":13,"time_elapsed":626473,"internal_node_id":"0.0-12.0","params":{"nStudents":24,"maxFlips":30,"completionMinutes":45,"basePay":8,"maxBonus":9,"perTrialBonus":0.5,"perTrialBonusThreshold":0.05,"exampleCost":0.01},"classroomParams":{"A":{"a":1,"b":4},"B":{"a":4,"b":1},"C":{"a":2,"b":8},"D":{"a":8,"b":2}},"conditions":["nonSeqFull","nonSeqPartial","seqNoFeedback","seqFeedback"],"classroomPairings":[["A","B"],["C","D"]],"coinWeights":[0.2,0.5,0.8],"subjectId":"A358YR7MWC6LRH","assignmentId":"3ZAK8W07I50RUDTRWMI2EZDH4R8U0Q","hitId":"3J94SKDEKIB2MY6CGVTNWB9X0ALD5P","url":"https://gershmanlab.com/experiments/alicia/teaching/experiment/?hitId=3J94SKDEKIB2MY6CGVTNWB9X0ALD5P&workerId=A358YR7MWC6LRH&assignmentId=3ZAK8W07I50RUDTRWMI2EZDH4R8U0Q&a=78AZ9&tp_a=78AZ9&b=3ZAK8W07I50RUDTRWMI2EZDH4R8U0Q&tp_b=3ZAK8W07I50RUDTRWMI2EZDH4R8U0Q&c=365799&tp_c=365799"},{"rt":null,"stimulus":"<div style=\"font-size:60px;\">Next student</div>","response":null,"trial_type":"html-keyboard-response","trial_index":14,"time_elapsed":628733,"internal_node_id":"0.0-13.0-0.0","params":{"nStudents":24,"maxFlips":30,"completionMinutes":45,"basePay":8,"maxBonus":9,"perTrialBonus":0.5,"perTrialBonusThreshold":0.05,"exampleCost":0.01},"classroomParams":{"A":{"a":1,"b":4},"B":{"a":4,"b":1},"C":{"a":2,"b":8},"D":{"a":8,"b":2}},"conditions":["nonSeqFull","nonSeqPartial","seqNoFeedback","seqFeedback"],"classroomPairings":[["A","B"],["C","D"]],"coinWeights":[0.2,0.5,0.8],"subjectId":"A358YR7MWC6LRH","assignmentId":"3ZAK8W07I50RUDTRWMI2EZDH4R8U0Q","hitId":"3J94SKDEKIB2MY6CGVTNWB9X0ALD5P","url":"https://gershmanlab.com/experiments/alicia/teaching/experiment/?hitId=3J94SKDEKIB2MY6CGVTNWB9X0ALD5P&workerId=A358YR7MWC6LRH&assignmentId=3ZAK8W07I50RUDTRWMI2EZDH4R8U0Q&a=78AZ9&tp_a=78AZ9&b=3ZAK8W07I50RUDTRWMI2EZDH4R8U0Q&tp_b=3ZAK8W07I50RUDTRWMI2EZDH4R8U0Q&c=365799&tp_c=365799"},{"rt":20157,"stimulus":"\n            <h4 style=\"color:Orange;\">Student 2</h4>\n            <h2>The weight of your coin is <b style=\"color:Tomato;\">0.2</b>.</h2>\n            <p>In this block, you will be giving <b>two</b> sets of examples to Student 2.</p>\n                <p>You will see the student's guess after the first set of examples. You will also receive feedback at the end of the block.</p>\n            <p>To earn the highest bonus, you will have to <b>take into consideration the student's guess</b> when you choose your second set of examples.</p>","response":0,"trial_type":"html-button-response","trial_index":15,"time_elapsed":648893,"internal_node_id":"0.0-14.0","params":{"nStudents":24,"maxFlips":30,"completionMinutes":45,"basePay":8,"maxBonus":9,"perTrialBonus":0.5,"perTrialBonusThreshold":0.05,"exampleCost":0.01},"classroomParams":{"A":{"a":1,"b":4},"B":{"a":4,"b":1},"C":{"a":2,"b":8},"D":{"a":8,"b":2}},"conditions":["nonSeqFull","nonSeqPartial","seqNoFeedback","seqFeedback"],"classroomPairings":[["A","B"],["C","D"]],"coinWeights":[0.2,0.5,0.8],"subjectId":"A358YR7MWC6LRH","assignmentId":"3ZAK8W07I50RUDTRWMI2EZDH4R8U0Q","hitId":"3J94SKDEKIB2MY6CGVTNWB9X0ALD5P","url":"https://gershmanlab.com/experiments/alicia/teaching/experiment/?hitId=3J94SKDEKIB2MY6CGVTNWB9X0ALD5P&workerId=A358YR7MWC6LRH&assignmentId=3ZAK8W07I50RUDTRWMI2EZDH4R8U0Q&a=78AZ9&tp_a=78AZ9&b=3ZAK8W07I50RUDTRWMI2EZDH4R8U0Q&tp_b=3ZAK8W07I50RUDTRWMI2EZDH4R8U0Q&c=365799&tp_c=365799"},{"rt":19830,"response":{"heads":"2","tails":"0"},"type":"response","condition":"seqFeedback","trueTheta":0.2,"classrooms":["C","D"],"studentTrueClassroom":"D","exampleSet":"first","trial_type":"survey-html-form","trial_index":16,"time_elapsed":668725,"internal_node_id":"0.0-15.0-0.0","params":{"nStudents":24,"maxFlips":30,"completionMinutes":45,"basePay":8,"maxBonus":9,"perTrialBonus":0.5,"perTrialBonusThreshold":0.05,"exampleCost":0.01},"classroomParams":{"A":{"a":1,"b":4},"B":{"a":4,"b":1},"C":{"a":2,"b":8},"D":{"a":8,"b":2}},"conditions":["nonSeqFull","nonSeqPartial","seqNoFeedback","seqFeedback"],"classroomPairings":[["A","B"],["C","D"]],"coinWeights":[0.2,0.5,0.8],"subjectId":"A358YR7MWC6LRH","assignmentId":"3ZAK8W07I50RUDTRWMI2EZDH4R8U0Q","hitId":"3J94SKDEKIB2MY6CGVTNWB9X0ALD5P","url":"https://gershmanlab.com/experiments/alicia/teaching/experiment/?hitId=3J94SKDEKIB2MY6CGVTNWB9X0ALD5P&workerId=A358YR7MWC6LRH&assignmentId=3ZAK8W07I50RUDTRWMI2EZDH4R8U0Q&a=78AZ9&tp_a=78AZ9&b=3ZAK8W07I50RUDTRWMI2EZDH4R8U0Q&tp_b=3ZAK8W07I50RUDTRWMI2EZDH4R8U0Q&c=365799&tp_c=365799","heads":2,"tails":0,"studentIndex":1,"studentTrueHypers":{"a":8,"b":2},"studentGuess":0.8333333333333334,"delta":0.6333333333333333,"totalExamples":2,"bonusSoFar":0},{"rt":null,"stimulus":"Sending examples to student... ","response":null,"trial_type":"html-keyboard-response","trial_index":17,"time_elapsed":669977,"internal_node_id":"0.0-16.0","params":{"nStudents":24,"maxFlips":30,"completionMinutes":45,"basePay":8,"maxBonus":9,"perTrialBonus":0.5,"perTrialBonusThreshold":0.05,"exampleCost":0.01},"classroomParams":{"A":{"a":1,"b":4},"B":{"a":4,"b":1},"C":{"a":2,"b":8},"D":{"a":8,"b":2}},"conditions":["nonSeqFull","nonSeqPartial","seqNoFeedback","seqFeedback"],"classroomPairings":[["A","B"],["C","D"]],"coinWeights":[0.2,0.5,0.8],"subjectId":"A358YR7MWC6LRH","assignmentId":"3ZAK8W07I50RUDTRWMI2EZDH4R8U0Q","hitId":"3J94SKDEKIB2MY6CGVTNWB9X0ALD5P","url":"https://gershmanlab.com/experiments/alicia/teaching/experiment/?hitId=3J94SKDEKIB2MY6CGVTNWB9X0ALD5P&workerId=A358YR7MWC6LRH&assignmentId=3ZAK8W07I50RUDTRWMI2EZDH4R8U0Q&a=78AZ9&tp_a=78AZ9&b=3ZAK8W07I50RUDTRWMI2EZDH4R8U0Q&tp_b=3ZAK8W07I50RUDTRWMI2EZDH4R8U0Q&c=365799&tp_c=365799"},{"rt":null,"stimulus":"Examples sent to student! Waiting for student...","response":null,"trial_type":"html-keyboard-response","trial_index":18,"time_elapsed":673979,"internal_node_id":"0.0-17.0","params":{"nStudents":24,"maxFlips":30,"completionMinutes":45,"basePay":8,"maxBonus":9,"perTrialBonus":0.5,"perTrialBonusThreshold":0.05,"exampleCost":0.01},"classroomParams":{"A":{"a":1,"b":4},"B":{"a":4,"b":1},"C":{"a":2,"b":8},"D":{"a":8,"b":2}},"conditions":["nonSeqFull","nonSeqPartial","seqNoFeedback","seqFeedback"],"classroomPairings":[["A","B"],["C","D"]],"coinWeights":[0.2,0.5,0.8],"subjectId":"A358YR7MWC6LRH","assignmentId":"3ZAK8W07I50RUDTRWMI2EZDH4R8U0Q","hitId":"3J94SKDEKIB2MY6CGVTNWB9X0ALD5P","url":"https://gershmanlab.com/experiments/alicia/teaching/experiment/?hitId=3J94SKDEKIB2MY6CGVTNWB9X0ALD5P&workerId=A358YR7MWC6LRH&assignmentId=3ZAK8W07I50RUDTRWMI2EZDH4R8U0Q&a=78AZ9&tp_a=78AZ9&b=3ZAK8W07I50RUDTRWMI2EZDH4R8U0Q&tp_b=3ZAK8W07I50RUDTRWMI2EZDH4R8U0Q&c=365799&tp_c=365799"},{"rt":6388,"stimulus":"\n                <p>Student's guess for coin weight: <b style=\"color:Tomato;\">0.83</b></p>\n                <p></b></p>\n                <p>You will now send another set of examples to your student. <b>Remember to take your student's guess into consideration so that you can earn the highest bonus possible!</b> </p>\n                <p>Press any key to continue.</p>\n                ","response":" ","trial_type":"html-keyboard-response","trial_index":19,"time_elapsed":680369,"internal_node_id":"0.0-18.0","params":{"nStudents":24,"maxFlips":30,"completionMinutes":45,"basePay":8,"maxBonus":9,"perTrialBonus":0.5,"perTrialBonusThreshold":0.05,"exampleCost":0.01},"classroomParams":{"A":{"a":1,"b":4},"B":{"a":4,"b":1},"C":{"a":2,"b":8},"D":{"a":8,"b":2}},"conditions":["nonSeqFull","nonSeqPartial","seqNoFeedback","seqFeedback"],"classroomPairings":[["A","B"],["C","D"]],"coinWeights":[0.2,0.5,0.8],"subjectId":"A358YR7MWC6LRH","assignmentId":"3ZAK8W07I50RUDTRWMI2EZDH4R8U0Q","hitId":"3J94SKDEKIB2MY6CGVTNWB9X0ALD5P","url":"https://gershmanlab.com/experiments/alicia/teaching/experiment/?hitId=3J94SKDEKIB2MY6CGVTNWB9X0ALD5P&workerId=A358YR7MWC6LRH&assignmentId=3ZAK8W07I50RUDTRWMI2EZDH4R8U0Q&a=78AZ9&tp_a=78AZ9&b=3ZAK8W07I50RUDTRWMI2EZDH4R8U0Q&tp_b=3ZAK8W07I50RUDTRWMI2EZDH4R8U0Q&c=365799&tp_c=365799"},{"rt":16938,"response":{"heads":"1","tails":"9"},"type":"response","condition":"seqFeedback","trueTheta":0.2,"classrooms":["C","D"],"studentTrueClassroom":"D","exampleSet":"second","trial_type":"survey-html-form","trial_index":20,"time_elapsed":697309,"internal_node_id":"0.0-19.0-0.0","params":{"nStudents":24,"maxFlips":30,"completionMinutes":45,"basePay":8,"maxBonus":9,"perTrialBonus":0.5,"perTrialBonusThreshold":0.05,"exampleCost":0.01},"classroomParams":{"A":{"a":1,"b":4},"B":{"a":4,"b":1},"C":{"a":2,"b":8},"D":{"a":8,"b":2}},"conditions":["nonSeqFull","nonSeqPartial","seqNoFeedback","seqFeedback"],"classroomPairings":[["A","B"],["C","D"]],"coinWeights":[0.2,0.5,0.8],"subjectId":"A358YR7MWC6LRH","assignmentId":"3ZAK8W07I50RUDTRWMI2EZDH4R8U0Q","hitId":"3J94SKDEKIB2MY6CGVTNWB9X0ALD5P","url":"https://gershmanlab.com/experiments/alicia/teaching/experiment/?hitId=3J94SKDEKIB2MY6CGVTNWB9X0ALD5P&workerId=A358YR7MWC6LRH&assignmentId=3ZAK8W07I50RUDTRWMI2EZDH4R8U0Q&a=78AZ9&tp_a=78AZ9&b=3ZAK8W07I50RUDTRWMI2EZDH4R8U0Q&tp_b=3ZAK8W07I50RUDTRWMI2EZDH4R8U0Q&c=365799&tp_c=365799","firstResponseHeads":2,"firstResponseTails":0,"secondResponseHeads":1,"secondResponseTails":9,"totalHeads":3,"totalTails":9,"studentIndex":1,"studentTrueHypers":{"a":8,"b":2},"studentGuess":0.5,"delta":0.3,"bonus":0,"bonusSoFar":0,"totalExamples":12},{"rt":null,"stimulus":"Sending examples to student... ","response":null,"trial_type":"html-keyboard-response","trial_index":21,"time_elapsed":699061,"internal_node_id":"0.0-20.0","params":{"nStudents":24,"maxFlips":30,"completionMinutes":45,"basePay":8,"maxBonus":9,"perTrialBonus":0.5,"perTrialBonusThreshold":0.05,"exampleCost":0.01},"classroomParams":{"A":{"a":1,"b":4},"B":{"a":4,"b":1},"C":{"a":2,"b":8},"D":{"a":8,"b":2}},"conditions":["nonSeqFull","nonSeqPartial","seqNoFeedback","seqFeedback"],"classroomPairings":[["A","B"],["C","D"]],"coinWeights":[0.2,0.5,0.8],"subjectId":"A358YR7MWC6LRH","assignmentId":"3ZAK8W07I50RUDTRWMI2EZDH4R8U0Q","hitId":"3J94SKDEKIB2MY6CGVTNWB9X0ALD5P","url":"https://gershmanlab.com/experiments/alicia/teaching/experiment/?hitId=3J94SKDEKIB2MY6CGVTNWB9X0ALD5P&workerId=A358YR7MWC6LRH&assignmentId=3ZAK8W07I50RUDTRWMI2EZDH4R8U0Q&a=78AZ9&tp_a=78AZ9&b=3ZAK8W07I50RUDTRWMI2EZDH4R8U0Q&tp_b=3ZAK8W07I50RUDTRWMI2EZDH4R8U0Q&c=365799&tp_c=365799"},{"rt":null,"stimulus":"Examples sent to student! Waiting for student...","response":null,"trial_type":"html-keyboard-response","trial_index":22,"time_elapsed":704569,"internal_node_id":"0.0-21.0","params":{"nStudents":24,"maxFlips":30,"completionMinutes":45,"basePay":8,"maxBonus":9,"perTrialBonus":0.5,"perTrialBonusThreshold":0.05,"exampleCost":0.01},"classroomParams":{"A":{"a":1,"b":4},"B":{"a":4,"b":1},"C":{"a":2,"b":8},"D":{"a":8,"b":2}},"conditions":["nonSeqFull","nonSeqPartial","seqNoFeedback","seqFeedback"],"classroomPairings":[["A","B"],["C","D"]],"coinWeights":[0.2,0.5,0.8],"subjectId":"A358YR7MWC6LRH","assignmentId":"3ZAK8W07I50RUDTRWMI2EZDH4R8U0Q","hitId":"3J94SKDEKIB2MY6CGVTNWB9X0ALD5P","url":"https://gershmanlab.com/experiments/alicia/teaching/experiment/?hitId=3J94SKDEKIB2MY6CGVTNWB9X0ALD5P&workerId=A358YR7MWC6LRH&assignmentId=3ZAK8W07I50RUDTRWMI2EZDH4R8U0Q&a=78AZ9&tp_a=78AZ9&b=3ZAK8W07I50RUDTRWMI2EZDH4R8U0Q&tp_b=3ZAK8W07I50RUDTRWMI2EZDH4R8U0Q&c=365799&tp_c=365799"},{"rt":5479,"stimulus":"\n                <p>Student 2's first guess for coin weight: <b style=\"color:Tomato\";>0.83</b></p>\n                <p>Student 2's second guess for coin weight: <b style=\"color:Tomato\";>0.50</b></p>\n                <p>You received a bonus of <b>$0.00</b> based on the student's second guess.</p>\n                <p>Total bonus so far: <b>$0.00</b></p>\n                <p>Press any key to continue.</p>\n                ","response":" ","trial_type":"html-keyboard-response","trial_index":23,"time_elapsed":710050,"internal_node_id":"0.0-22.0","params":{"nStudents":24,"maxFlips":30,"completionMinutes":45,"basePay":8,"maxBonus":9,"perTrialBonus":0.5,"perTrialBonusThreshold":0.05,"exampleCost":0.01},"classroomParams":{"A":{"a":1,"b":4},"B":{"a":4,"b":1},"C":{"a":2,"b":8},"D":{"a":8,"b":2}},"conditions":["nonSeqFull","nonSeqPartial","seqNoFeedback","seqFeedback"],"classroomPairings":[["A","B"],["C","D"]],"coinWeights":[0.2,0.5,0.8],"subjectId":"A358YR7MWC6LRH","assignmentId":"3ZAK8W07I50RUDTRWMI2EZDH4R8U0Q","hitId":"3J94SKDEKIB2MY6CGVTNWB9X0ALD5P","url":"https://gershmanlab.com/experiments/alicia/teaching/experiment/?hitId=3J94SKDEKIB2MY6CGVTNWB9X0ALD5P&workerId=A358YR7MWC6LRH&assignmentId=3ZAK8W07I50RUDTRWMI2EZDH4R8U0Q&a=78AZ9&tp_a=78AZ9&b=3ZAK8W07I50RUDTRWMI2EZDH4R8U0Q&tp_b=3ZAK8W07I50RUDTRWMI2EZDH4R8U0Q&c=365799&tp_c=365799"},{"rt":null,"stimulus":"<div style=\"font-size:60px;\">Next student</div>","response":null,"trial_type":"html-keyboard-response","trial_index":24,"time_elapsed":713053,"internal_node_id":"0.0-23.0-0.0","params":{"nStudents":24,"maxFlips":30,"completionMinutes":45,"basePay":8,"maxBonus":9,"perTrialBonus":0.5,"perTrialBonusThreshold":0.05,"exampleCost":0.01},"classroomParams":{"A":{"a":1,"b":4},"B":{"a":4,"b":1},"C":{"a":2,"b":8},"D":{"a":8,"b":2}},"conditions":["nonSeqFull","nonSeqPartial","seqNoFeedback","seqFeedback"],"classroomPairings":[["A","B"],["C","D"]],"coinWeights":[0.2,0.5,0.8],"subjectId":"A358YR7MWC6LRH","assignmentId":"3ZAK8W07I50RUDTRWMI2EZDH4R8U0Q","hitId":"3J94SKDEKIB2MY6CGVTNWB9X0ALD5P","url":"https://gershmanlab.com/experiments/alicia/teaching/experiment/?hitId=3J94SKDEKIB2MY6CGVTNWB9X0ALD5P&workerId=A358YR7MWC6LRH&assignmentId=3ZAK8W07I50RUDTRWMI2EZDH4R8U0Q&a=78AZ9&tp_a=78AZ9&b=3ZAK8W07I50RUDTRWMI2EZDH4R8U0Q&tp_b=3ZAK8W07I50RUDTRWMI2EZDH4R8U0Q&c=365799&tp_c=365799"},{"rt":1735,"stimulus":"\n            <h4 style=\"color:Orange;\">Student 3</h4>\n            <h2>The weight of your coin is <b style=\"color:Tomato;\">0.2</b>.</h2>\n            <p>In this block, you will be giving <b>two</b> sets of examples to Student 3.</p>\n                <p>You will see the student's guess after the first set of examples. You will also receive feedback at the end of the block.</p>\n            <p>To earn the highest bonus, you will have to <b>take into consideration the student's guess</b> when you choose your second set of examples.</p>","response":0,"trial_type":"html-button-response","trial_index":25,"time_elapsed":714790,"internal_node_id":"0.0-24.0","params":{"nStudents":24,"maxFlips":30,"completionMinutes":45,"basePay":8,"maxBonus":9,"perTrialBonus":0.5,"perTrialBonusThreshold":0.05,"exampleCost":0.01},"classroomParams":{"A":{"a":1,"b":4},"B":{"a":4,"b":1},"C":{"a":2,"b":8},"D":{"a":8,"b":2}},"conditions":["nonSeqFull","nonSeqPartial","seqNoFeedback","seqFeedback"],"classroomPairings":[["A","B"],["C","D"]],"coinWeights":[0.2,0.5,0.8],"subjectId":"A358YR7MWC6LRH","assignmentId":"3ZAK8W07I50RUDTRWMI2EZDH4R8U0Q","hitId":"3J94SKDEKIB2MY6CGVTNWB9X0ALD5P","url":"https://gershmanlab.com/experiments/alicia/teaching/experiment/?hitId=3J94SKDEKIB2MY6CGVTNWB9X0ALD5P&workerId=A358YR7MWC6LRH&assignmentId=3ZAK8W07I50RUDTRWMI2EZDH4R8U0Q&a=78AZ9&tp_a=78AZ9&b=3ZAK8W07I50RUDTRWMI2EZDH4R8U0Q&tp_b=3ZAK8W07I50RUDTRWMI2EZDH4R8U0Q&c=365799&tp_c=365799"},{"rt":4837,"response":{"heads":"2","tails":"8"},"type":"response","condition":"seqFeedback","trueTheta":0.2,"classrooms":["A","B"],"studentTrueClassroom":"B","exampleSet":"first","trial_type":"survey-html-form","trial_index":26,"time_elapsed":719629,"internal_node_id":"0.0-25.0-0.0","params":{"nStudents":24,"maxFlips":30,"completionMinutes":45,"basePay":8,"maxBonus":9,"perTrialBonus":0.5,"perTrialBonusThreshold":0.05,"exampleCost":0.01},"classroomParams":{"A":{"a":1,"b":4},"B":{"a":4,"b":1},"C":{"a":2,"b":8},"D":{"a":8,"b":2}},"conditions":["nonSeqFull","nonSeqPartial","seqNoFeedback","seqFeedback"],"classroomPairings":[["A","B"],["C","D"]],"coinWeights":[0.2,0.5,0.8],"subjectId":"A358YR7MWC6LRH","assignmentId":"3ZAK8W07I50RUDTRWMI2EZDH4R8U0Q","hitId":"3J94SKDEKIB2MY6CGVTNWB9X0ALD5P","url":"https://gershmanlab.com/experiments/alicia/teaching/experiment/?hitId=3J94SKDEKIB2MY6CGVTNWB9X0ALD5P&workerId=A358YR7MWC6LRH&assignmentId=3ZAK8W07I50RUDTRWMI2EZDH4R8U0Q&a=78AZ9&tp_a=78AZ9&b=3ZAK8W07I50RUDTRWMI2EZDH4R8U0Q&tp_b=3ZAK8W07I50RUDTRWMI2EZDH4R8U0Q&c=365799&tp_c=365799","heads":2,"tails":8,"studentIndex":2,"studentTrueHypers":{"a":4,"b":1},"studentGuess":0.4,"delta":0.2,"totalExamples":10,"bonusSoFar":0},{"rt":null,"stimulus":"Sending examples to student... ","response":null,"trial_type":"html-keyboard-response","trial_index":27,"time_elapsed":721135,"internal_node_id":"0.0-26.0","params":{"nStudents":24,"maxFlips":30,"completionMinutes":45,"basePay":8,"maxBonus":9,"perTrialBonus":0.5,"perTrialBonusThreshold":0.05,"exampleCost":0.01},"classroomParams":{"A":{"a":1,"b":4},"B":{"a":4,"b":1},"C":{"a":2,"b":8},"D":{"a":8,"b":2}},"conditions":["nonSeqFull","nonSeqPartial","seqNoFeedback","seqFeedback"],"classroomPairings":[["A","B"],["C","D"]],"coinWeights":[0.2,0.5,0.8],"subjectId":"A358YR7MWC6LRH","assignmentId":"3ZAK8W07I50RUDTRWMI2EZDH4R8U0Q","hitId":"3J94SKDEKIB2MY6CGVTNWB9X0ALD5P","url":"https://gershmanlab.com/experiments/alicia/teaching/experiment/?hitId=3J94SKDEKIB2MY6CGVTNWB9X0ALD5P&workerId=A358YR7MWC6LRH&assignmentId=3ZAK8W07I50RUDTRWMI2EZDH4R8U0Q&a=78AZ9&tp_a=78AZ9&b=3ZAK8W07I50RUDTRWMI2EZDH4R8U0Q&tp_b=3ZAK8W07I50RUDTRWMI2EZDH4R8U0Q&c=365799&tp_c=365799"},{"rt":null,"stimulus":"Examples sent to student! Waiting for student...","response":null,"trial_type":"html-keyboard-response","trial_index":28,"time_elapsed":726137,"internal_node_id":"0.0-27.0","params":{"nStudents":24,"maxFlips":30,"completionMinutes":45,"basePay":8,"maxBonus":9,"perTrialBonus":0.5,"perTrialBonusThreshold":0.05,"exampleCost":0.01},"classroomParams":{"A":{"a":1,"b":4},"B":{"a":4,"b":1},"C":{"a":2,"b":8},"D":{"a":8,"b":2}},"conditions":["nonSeqFull","nonSeqPartial","seqNoFeedback","seqFeedback"],"classroomPairings":[["A","B"],["C","D"]],"coinWeights":[0.2,0.5,0.8],"subjectId":"A358YR7MWC6LRH","assignmentId":"3ZAK8W07I50RUDTRWMI2EZDH4R8U0Q","hitId":"3J94SKDEKIB2MY6CGVTNWB9X0ALD5P","url":"https://gershmanlab.com/experiments/alicia/teaching/experiment/?hitId=3J94SKDEKIB2MY6CGVTNWB9X0ALD5P&workerId=A358YR7MWC6LRH&assignmentId=3ZAK8W07I50RUDTRWMI2EZDH4R8U0Q&a=78AZ9&tp_a=78AZ9&b=3ZAK8W07I50RUDTRWMI2EZDH4R8U0Q&tp_b=3ZAK8W07I50RUDTRWMI2EZDH4R8U0Q&c=365799&tp_c=365799"},{"rt":5566,"stimulus":"\n                <p>Student's guess for coin weight: <b style=\"color:Tomato;\">0.40</b></p>\n                <p></b></p>\n                <p>You will now send another set of examples to your student. <b>Remember to take your student's guess into consideration so that you can earn the highest bonus possible!</b> </p>\n                <p>Press any key to continue.</p>\n                ","response":" ","trial_type":"html-keyboard-response","trial_index":29,"time_elapsed":731705,"internal_node_id":"0.0-28.0","params":{"nStudents":24,"maxFlips":30,"completionMinutes":45,"basePay":8,"maxBonus":9,"perTrialBonus":0.5,"perTrialBonusThreshold":0.05,"exampleCost":0.01},"classroomParams":{"A":{"a":1,"b":4},"B":{"a":4,"b":1},"C":{"a":2,"b":8},"D":{"a":8,"b":2}},"conditions":["nonSeqFull","nonSeqPartial","seqNoFeedback","seqFeedback"],"classroomPairings":[["A","B"],["C","D"]],"coinWeights":[0.2,0.5,0.8],"subjectId":"A358YR7MWC6LRH","assignmentId":"3ZAK8W07I50RUDTRWMI2EZDH4R8U0Q","hitId":"3J94SKDEKIB2MY6CGVTNWB9X0ALD5P","url":"https://gershmanlab.com/experiments/alicia/teaching/experiment/?hitId=3J94SKDEKIB2MY6CGVTNWB9X0ALD5P&workerId=A358YR7MWC6LRH&assignmentId=3ZAK8W07I50RUDTRWMI2EZDH4R8U0Q&a=78AZ9&tp_a=78AZ9&b=3ZAK8W07I50RUDTRWMI2EZDH4R8U0Q&tp_b=3ZAK8W07I50RUDTRWMI2EZDH4R8U0Q&c=365799&tp_c=365799"},{"rt":5266,"response":{"heads":"1","tails":"9"},"type":"response","condition":"seqFeedback","trueTheta":0.2,"classrooms":["A","B"],"studentTrueClassroom":"B","exampleSet":"second","trial_type":"survey-html-form","trial_index":30,"time_elapsed":736974,"internal_node_id":"0.0-29.0-0.0","params":{"nStudents":24,"maxFlips":30,"completionMinutes":45,"basePay":8,"maxBonus":9,"perTrialBonus":0.5,"perTrialBonusThreshold":0.05,"exampleCost":0.01},"classroomParams":{"A":{"a":1,"b":4},"B":{"a":4,"b":1},"C":{"a":2,"b":8},"D":{"a":8,"b":2}},"conditions":["nonSeqFull","nonSeqPartial","seqNoFeedback","seqFeedback"],"classroomPairings":[["A","B"],["C","D"]],"coinWeights":[0.2,0.5,0.8],"subjectId":"A358YR7MWC6LRH","assignmentId":"3ZAK8W07I50RUDTRWMI2EZDH4R8U0Q","hitId":"3J94SKDEKIB2MY6CGVTNWB9X0ALD5P","url":"https://gershmanlab.com/experiments/alicia/teaching/experiment/?hitId=3J94SKDEKIB2MY6CGVTNWB9X0ALD5P&workerId=A358YR7MWC6LRH&assignmentId=3ZAK8W07I50RUDTRWMI2EZDH4R8U0Q&a=78AZ9&tp_a=78AZ9&b=3ZAK8W07I50RUDTRWMI2EZDH4R8U0Q&tp_b=3ZAK8W07I50RUDTRWMI2EZDH4R8U0Q&c=365799&tp_c=365799","firstResponseHeads":2,"firstResponseTails":8,"secondResponseHeads":1,"secondResponseTails":9,"totalHeads":3,"totalTails":17,"studentIndex":2,"studentTrueHypers":{"a":4,"b":1},"studentGuess":0.28,"delta":0.08000000000000002,"bonus":0,"bonusSoFar":0,"totalExamples":20},{"rt":null,"stimulus":"Sending examples to student... ","response":null,"trial_type":"html-keyboard-response","trial_index":31,"time_elapsed":738726,"internal_node_id":"0.0-30.0","params":{"nStudents":24,"maxFlips":30,"completionMinutes":45,"basePay":8,"maxBonus":9,"perTrialBonus":0.5,"perTrialBonusThreshold":0.05,"exampleCost":0.01},"classroomParams":{"A":{"a":1,"b":4},"B":{"a":4,"b":1},"C":{"a":2,"b":8},"D":{"a":8,"b":2}},"conditions":["nonSeqFull","nonSeqPartial","seqNoFeedback","seqFeedback"],"classroomPairings":[["A","B"],["C","D"]],"coinWeights":[0.2,0.5,0.8],"subjectId":"A358YR7MWC6LRH","assignmentId":"3ZAK8W07I50RUDTRWMI2EZDH4R8U0Q","hitId":"3J94SKDEKIB2MY6CGVTNWB9X0ALD5P","url":"https://gershmanlab.com/experiments/alicia/teaching/experiment/?hitId=3J94SKDEKIB2MY6CGVTNWB9X0ALD5P&workerId=A358YR7MWC6LRH&assignmentId=3ZAK8W07I50RUDTRWMI2EZDH4R8U0Q&a=78AZ9&tp_a=78AZ9&b=3ZAK8W07I50RUDTRWMI2EZDH4R8U0Q&tp_b=3ZAK8W07I50RUDTRWMI2EZDH4R8U0Q&c=365799&tp_c=365799"},{"rt":null,"stimulus":"Examples sent to student! Waiting for student...","response":null,"trial_type":"html-keyboard-response","trial_index":32,"time_elapsed":742728,"internal_node_id":"0.0-31.0","params":{"nStudents":24,"maxFlips":30,"completionMinutes":45,"basePay":8,"maxBonus":9,"perTrialBonus":0.5,"perTrialBonusThreshold":0.05,"exampleCost":0.01},"classroomParams":{"A":{"a":1,"b":4},"B":{"a":4,"b":1},"C":{"a":2,"b":8},"D":{"a":8,"b":2}},"conditions":["nonSeqFull","nonSeqPartial","seqNoFeedback","seqFeedback"],"classroomPairings":[["A","B"],["C","D"]],"coinWeights":[0.2,0.5,0.8],"subjectId":"A358YR7MWC6LRH","assignmentId":"3ZAK8W07I50RUDTRWMI2EZDH4R8U0Q","hitId":"3J94SKDEKIB2MY6CGVTNWB9X0ALD5P","url":"https://gershmanlab.com/experiments/alicia/teaching/experiment/?hitId=3J94SKDEKIB2MY6CGVTNWB9X0ALD5P&workerId=A358YR7MWC6LRH&assignmentId=3ZAK8W07I50RUDTRWMI2EZDH4R8U0Q&a=78AZ9&tp_a=78AZ9&b=3ZAK8W07I50RUDTRWMI2EZDH4R8U0Q&tp_b=3ZAK8W07I50RUDTRWMI2EZDH4R8U0Q&c=365799&tp_c=365799"},{"rt":3359,"stimulus":"\n                <p>Student 3's first guess for coin weight: <b style=\"color:Tomato\";>0.40</b></p>\n                <p>Student 3's second guess for coin weight: <b style=\"color:Tomato\";>0.28</b></p>\n                <p>You received a bonus of <b>$0.00</b> based on the student's second guess.</p>\n                <p>Total bonus so far: <b>$0.00</b></p>\n                <p>Press any key to continue.</p>\n                ","response":" ","trial_type":"html-keyboard-response","trial_index":33,"time_elapsed":746089,"internal_node_id":"0.0-32.0","params":{"nStudents":24,"maxFlips":30,"completionMinutes":45,"basePay":8,"maxBonus":9,"perTrialBonus":0.5,"perTrialBonusThreshold":0.05,"exampleCost":0.01},"classroomParams":{"A":{"a":1,"b":4},"B":{"a":4,"b":1},"C":{"a":2,"b":8},"D":{"a":8,"b":2}},"conditions":["nonSeqFull","nonSeqPartial","seqNoFeedback","seqFeedback"],"classroomPairings":[["A","B"],["C","D"]],"coinWeights":[0.2,0.5,0.8],"subjectId":"A358YR7MWC6LRH","assignmentId":"3ZAK8W07I50RUDTRWMI2EZDH4R8U0Q","hitId":"3J94SKDEKIB2MY6CGVTNWB9X0ALD5P","url":"https://gershmanlab.com/experiments/alicia/teaching/experiment/?hitId=3J94SKDEKIB2MY6CGVTNWB9X0ALD5P&workerId=A358YR7MWC6LRH&assignmentId=3ZAK8W07I50RUDTRWMI2EZDH4R8U0Q&a=78AZ9&tp_a=78AZ9&b=3ZAK8W07I50RUDTRWMI2EZDH4R8U0Q&tp_b=3ZAK8W07I50RUDTRWMI2EZDH4R8U0Q&c=365799&tp_c=365799"},{"rt":null,"stimulus":"<div style=\"font-size:60px;\">Next student</div>","response":null,"trial_type":"html-keyboard-response","trial_index":34,"time_elapsed":748600,"internal_node_id":"0.0-33.0-0.0","params":{"nStudents":24,"maxFlips":30,"completionMinutes":45,"basePay":8,"maxBonus":9,"perTrialBonus":0.5,"perTrialBonusThreshold":0.05,"exampleCost":0.01},"classroomParams":{"A":{"a":1,"b":4},"B":{"a":4,"b":1},"C":{"a":2,"b":8},"D":{"a":8,"b":2}},"conditions":["nonSeqFull","nonSeqPartial","seqNoFeedback","seqFeedback"],"classroomPairings":[["A","B"],["C","D"]],"coinWeights":[0.2,0.5,0.8],"subjectId":"A358YR7MWC6LRH","assignmentId":"3ZAK8W07I50RUDTRWMI2EZDH4R8U0Q","hitId":"3J94SKDEKIB2MY6CGVTNWB9X0ALD5P","url":"https://gershmanlab.com/experiments/alicia/teaching/experiment/?hitId=3J94SKDEKIB2MY6CGVTNWB9X0ALD5P&workerId=A358YR7MWC6LRH&assignmentId=3ZAK8W07I50RUDTRWMI2EZDH4R8U0Q&a=78AZ9&tp_a=78AZ9&b=3ZAK8W07I50RUDTRWMI2EZDH4R8U0Q&tp_b=3ZAK8W07I50RUDTRWMI2EZDH4R8U0Q&c=365799&tp_c=365799"},{"rt":8379,"stimulus":"\n            <h4 style=\"color:Orange;\">Student 4</h4>\n            <h2>The weight of your coin is <b style=\"color:Tomato;\">0.5</b>.</h2>\n            <p>In this block, you will be giving <b>one</b> set of examples to Student 4.</p>\n                <p>You will receive feedback at the end of the block.</p>\n            <p></p>","response":0,"trial_type":"html-button-response","trial_index":35,"time_elapsed":756980,"internal_node_id":"0.0-34.0","params":{"nStudents":24,"maxFlips":30,"completionMinutes":45,"basePay":8,"maxBonus":9,"perTrialBonus":0.5,"perTrialBonusThreshold":0.05,"exampleCost":0.01},"classroomParams":{"A":{"a":1,"b":4},"B":{"a":4,"b":1},"C":{"a":2,"b":8},"D":{"a":8,"b":2}},"conditions":["nonSeqFull","nonSeqPartial","seqNoFeedback","seqFeedback"],"classroomPairings":[["A","B"],["C","D"]],"coinWeights":[0.2,0.5,0.8],"subjectId":"A358YR7MWC6LRH","assignmentId":"3ZAK8W07I50RUDTRWMI2EZDH4R8U0Q","hitId":"3J94SKDEKIB2MY6CGVTNWB9X0ALD5P","url":"https://gershmanlab.com/experiments/alicia/teaching/experiment/?hitId=3J94SKDEKIB2MY6CGVTNWB9X0ALD5P&workerId=A358YR7MWC6LRH&assignmentId=3ZAK8W07I50RUDTRWMI2EZDH4R8U0Q&a=78AZ9&tp_a=78AZ9&b=3ZAK8W07I50RUDTRWMI2EZDH4R8U0Q&tp_b=3ZAK8W07I50RUDTRWMI2EZDH4R8U0Q&c=365799&tp_c=365799"},{"rt":12072,"response":{"heads":"4","tails":"6"},"type":"response","condition":"nonSeqPartial","trueTheta":0.5,"classrooms":["C","D"],"studentTrueClassroom":"D","exampleSet":"first","trial_type":"survey-html-form","trial_index":36,"time_elapsed":769053,"internal_node_id":"0.0-35.0-0.0","params":{"nStudents":24,"maxFlips":30,"completionMinutes":45,"basePay":8,"maxBonus":9,"perTrialBonus":0.5,"perTrialBonusThreshold":0.05,"exampleCost":0.01},"classroomParams":{"A":{"a":1,"b":4},"B":{"a":4,"b":1},"C":{"a":2,"b":8},"D":{"a":8,"b":2}},"conditions":["nonSeqFull","nonSeqPartial","seqNoFeedback","seqFeedback"],"classroomPairings":[["A","B"],["C","D"]],"coinWeights":[0.2,0.5,0.8],"subjectId":"A358YR7MWC6LRH","assignmentId":"3ZAK8W07I50RUDTRWMI2EZDH4R8U0Q","hitId":"3J94SKDEKIB2MY6CGVTNWB9X0ALD5P","url":"https://gershmanlab.com/experiments/alicia/teaching/experiment/?hitId=3J94SKDEKIB2MY6CGVTNWB9X0ALD5P&workerId=A358YR7MWC6LRH&assignmentId=3ZAK8W07I50RUDTRWMI2EZDH4R8U0Q&a=78AZ9&tp_a=78AZ9&b=3ZAK8W07I50RUDTRWMI2EZDH4R8U0Q&tp_b=3ZAK8W07I50RUDTRWMI2EZDH4R8U0Q&c=365799&tp_c=365799","heads":4,"tails":6,"studentIndex":3,"studentTrueHypers":{"a":8,"b":2},"studentGuess":0.6,"delta":0.09999999999999998,"totalExamples":10,"bonus":0,"bonusSoFar":0},{"rt":null,"stimulus":"Sending examples to student... ","response":null,"trial_type":"html-keyboard-response","trial_index":37,"time_elapsed":770812,"internal_node_id":"0.0-36.0","params":{"nStudents":24,"maxFlips":30,"completionMinutes":45,"basePay":8,"maxBonus":9,"perTrialBonus":0.5,"perTrialBonusThreshold":0.05,"exampleCost":0.01},"classroomParams":{"A":{"a":1,"b":4},"B":{"a":4,"b":1},"C":{"a":2,"b":8},"D":{"a":8,"b":2}},"conditions":["nonSeqFull","nonSeqPartial","seqNoFeedback","seqFeedback"],"classroomPairings":[["A","B"],["C","D"]],"coinWeights":[0.2,0.5,0.8],"subjectId":"A358YR7MWC6LRH","assignmentId":"3ZAK8W07I50RUDTRWMI2EZDH4R8U0Q","hitId":"3J94SKDEKIB2MY6CGVTNWB9X0ALD5P","url":"https://gershmanlab.com/experiments/alicia/teaching/experiment/?hitId=3J94SKDEKIB2MY6CGVTNWB9X0ALD5P&workerId=A358YR7MWC6LRH&assignmentId=3ZAK8W07I50RUDTRWMI2EZDH4R8U0Q&a=78AZ9&tp_a=78AZ9&b=3ZAK8W07I50RUDTRWMI2EZDH4R8U0Q&tp_b=3ZAK8W07I50RUDTRWMI2EZDH4R8U0Q&c=365799&tp_c=365799"},{"rt":null,"stimulus":"Examples sent to student! Waiting for student...","response":null,"trial_type":"html-keyboard-response","trial_index":38,"time_elapsed":776822,"internal_node_id":"0.0-37.0","params":{"nStudents":24,"maxFlips":30,"completionMinutes":45,"basePay":8,"maxBonus":9,"perTrialBonus":0.5,"perTrialBonusThreshold":0.05,"exampleCost":0.01},"classroomParams":{"A":{"a":1,"b":4},"B":{"a":4,"b":1},"C":{"a":2,"b":8},"D":{"a":8,"b":2}},"conditions":["nonSeqFull","nonSeqPartial","seqNoFeedback","seqFeedback"],"classroomPairings":[["A","B"],["C","D"]],"coinWeights":[0.2,0.5,0.8],"subjectId":"A358YR7MWC6LRH","assignmentId":"3ZAK8W07I50RUDTRWMI2EZDH4R8U0Q","hitId":"3J94SKDEKIB2MY6CGVTNWB9X0ALD5P","url":"https://gershmanlab.com/experiments/alicia/teaching/experiment/?hitId=3J94SKDEKIB2MY6CGVTNWB9X0ALD5P&workerId=A358YR7MWC6LRH&assignmentId=3ZAK8W07I50RUDTRWMI2EZDH4R8U0Q&a=78AZ9&tp_a=78AZ9&b=3ZAK8W07I50RUDTRWMI2EZDH4R8U0Q&tp_b=3ZAK8W07I50RUDTRWMI2EZDH4R8U0Q&c=365799&tp_c=365799"},{"rt":9111,"stimulus":"\n                <p>Student's guess for coin weight: <b style=\"color:Tomato;\">0.60</b></p>\n                <p>You received a bonus of <b>$0</b>. Total bonus so far: <b>$0.00</b></b></p>\n                <p></p>\n                <p>Press any key to continue.</p>\n                ","response":" ","trial_type":"html-keyboard-response","trial_index":39,"time_elapsed":785935,"internal_node_id":"0.0-38.0","params":{"nStudents":24,"maxFlips":30,"completionMinutes":45,"basePay":8,"maxBonus":9,"perTrialBonus":0.5,"perTrialBonusThreshold":0.05,"exampleCost":0.01},"classroomParams":{"A":{"a":1,"b":4},"B":{"a":4,"b":1},"C":{"a":2,"b":8},"D":{"a":8,"b":2}},"conditions":["nonSeqFull","nonSeqPartial","seqNoFeedback","seqFeedback"],"classroomPairings":[["A","B"],["C","D"]],"coinWeights":[0.2,0.5,0.8],"subjectId":"A358YR7MWC6LRH","assignmentId":"3ZAK8W07I50RUDTRWMI2EZDH4R8U0Q","hitId":"3J94SKDEKIB2MY6CGVTNWB9X0ALD5P","url":"https://gershmanlab.com/experiments/alicia/teaching/experiment/?hitId=3J94SKDEKIB2MY6CGVTNWB9X0ALD5P&workerId=A358YR7MWC6LRH&assignmentId=3ZAK8W07I50RUDTRWMI2EZDH4R8U0Q&a=78AZ9&tp_a=78AZ9&b=3ZAK8W07I50RUDTRWMI2EZDH4R8U0Q&tp_b=3ZAK8W07I50RUDTRWMI2EZDH4R8U0Q&c=365799&tp_c=365799"},{"rt":null,"stimulus":"<div style=\"font-size:60px;\">Next student</div>","response":null,"trial_type":"html-keyboard-response","trial_index":40,"time_elapsed":788448,"internal_node_id":"0.0-39.0-0.0","params":{"nStudents":24,"maxFlips":30,"completionMinutes":45,"basePay":8,"maxBonus":9,"perTrialBonus":0.5,"perTrialBonusThreshold":0.05,"exampleCost":0.01},"classroomParams":{"A":{"a":1,"b":4},"B":{"a":4,"b":1},"C":{"a":2,"b":8},"D":{"a":8,"b":2}},"conditions":["nonSeqFull","nonSeqPartial","seqNoFeedback","seqFeedback"],"classroomPairings":[["A","B"],["C","D"]],"coinWeights":[0.2,0.5,0.8],"subjectId":"A358YR7MWC6LRH","assignmentId":"3ZAK8W07I50RUDTRWMI2EZDH4R8U0Q","hitId":"3J94SKDEKIB2MY6CGVTNWB9X0ALD5P","url":"https://gershmanlab.com/experiments/alicia/teaching/experiment/?hitId=3J94SKDEKIB2MY6CGVTNWB9X0ALD5P&workerId=A358YR7MWC6LRH&assignmentId=3ZAK8W07I50RUDTRWMI2EZDH4R8U0Q&a=78AZ9&tp_a=78AZ9&b=3ZAK8W07I50RUDTRWMI2EZDH4R8U0Q&tp_b=3ZAK8W07I50RUDTRWMI2EZDH4R8U0Q&c=365799&tp_c=365799"},{"rt":4778,"stimulus":"\n            <h4 style=\"color:Orange;\">Student 5</h4>\n            <h2>The weight of your coin is <b style=\"color:Tomato;\">0.2</b>.</h2>\n            <p>In this block, you will be giving <b>two</b> sets of examples to Student 5.</p>\n                <p>You will receive feedback at the end of the block.</p>\n            <p></p>","response":0,"trial_type":"html-button-response","trial_index":41,"time_elapsed":793228,"internal_node_id":"0.0-40.0","params":{"nStudents":24,"maxFlips":30,"completionMinutes":45,"basePay":8,"maxBonus":9,"perTrialBonus":0.5,"perTrialBonusThreshold":0.05,"exampleCost":0.01},"classroomParams":{"A":{"a":1,"b":4},"B":{"a":4,"b":1},"C":{"a":2,"b":8},"D":{"a":8,"b":2}},"conditions":["nonSeqFull","nonSeqPartial","seqNoFeedback","seqFeedback"],"classroomPairings":[["A","B"],["C","D"]],"coinWeights":[0.2,0.5,0.8],"subjectId":"A358YR7MWC6LRH","assignmentId":"3ZAK8W07I50RUDTRWMI2EZDH4R8U0Q","hitId":"3J94SKDEKIB2MY6CGVTNWB9X0ALD5P","url":"https://gershmanlab.com/experiments/alicia/teaching/experiment/?hitId=3J94SKDEKIB2MY6CGVTNWB9X0ALD5P&workerId=A358YR7MWC6LRH&assignmentId=3ZAK8W07I50RUDTRWMI2EZDH4R8U0Q&a=78AZ9&tp_a=78AZ9&b=3ZAK8W07I50RUDTRWMI2EZDH4R8U0Q&tp_b=3ZAK8W07I50RUDTRWMI2EZDH4R8U0Q&c=365799&tp_c=365799"},{"rt":9024,"response":{"heads":"1","tails":"10"},"type":"response","condition":"seqNoFeedback","trueTheta":0.2,"classrooms":["A","B"],"studentTrueClassroom":"A","exampleSet":"first","trial_type":"survey-html-form","trial_index":42,"time_elapsed":802254,"internal_node_id":"0.0-41.0-0.0","params":{"nStudents":24,"maxFlips":30,"completionMinutes":45,"basePay":8,"maxBonus":9,"perTrialBonus":0.5,"perTrialBonusThreshold":0.05,"exampleCost":0.01},"classroomParams":{"A":{"a":1,"b":4},"B":{"a":4,"b":1},"C":{"a":2,"b":8},"D":{"a":8,"b":2}},"conditions":["nonSeqFull","nonSeqPartial","seqNoFeedback","seqFeedback"],"classroomPairings":[["A","B"],["C","D"]],"coinWeights":[0.2,0.5,0.8],"subjectId":"A358YR7MWC6LRH","assignmentId":"3ZAK8W07I50RUDTRWMI2EZDH4R8U0Q","hitId":"3J94SKDEKIB2MY6CGVTNWB9X0ALD5P","url":"https://gershmanlab.com/experiments/alicia/teaching/experiment/?hitId=3J94SKDEKIB2MY6CGVTNWB9X0ALD5P&workerId=A358YR7MWC6LRH&assignmentId=3ZAK8W07I50RUDTRWMI2EZDH4R8U0Q&a=78AZ9&tp_a=78AZ9&b=3ZAK8W07I50RUDTRWMI2EZDH4R8U0Q&tp_b=3ZAK8W07I50RUDTRWMI2EZDH4R8U0Q&c=365799&tp_c=365799","heads":1,"tails":10,"studentIndex":4,"studentTrueHypers":{"a":1,"b":4},"studentGuess":0.125,"delta":0.07500000000000001,"totalExamples":11,"bonusSoFar":0},{"rt":null,"stimulus":"Sending examples to student... ","response":null,"trial_type":"html-keyboard-response","trial_index":43,"time_elapsed":804279,"internal_node_id":"0.0-42.0","params":{"nStudents":24,"maxFlips":30,"completionMinutes":45,"basePay":8,"maxBonus":9,"perTrialBonus":0.5,"perTrialBonusThreshold":0.05,"exampleCost":0.01},"classroomParams":{"A":{"a":1,"b":4},"B":{"a":4,"b":1},"C":{"a":2,"b":8},"D":{"a":8,"b":2}},"conditions":["nonSeqFull","nonSeqPartial","seqNoFeedback","seqFeedback"],"classroomPairings":[["A","B"],["C","D"]],"coinWeights":[0.2,0.5,0.8],"subjectId":"A358YR7MWC6LRH","assignmentId":"3ZAK8W07I50RUDTRWMI2EZDH4R8U0Q","hitId":"3J94SKDEKIB2MY6CGVTNWB9X0ALD5P","url":"https://gershmanlab.com/experiments/alicia/teaching/experiment/?hitId=3J94SKDEKIB2MY6CGVTNWB9X0ALD5P&workerId=A358YR7MWC6LRH&assignmentId=3ZAK8W07I50RUDTRWMI2EZDH4R8U0Q&a=78AZ9&tp_a=78AZ9&b=3ZAK8W07I50RUDTRWMI2EZDH4R8U0Q&tp_b=3ZAK8W07I50RUDTRWMI2EZDH4R8U0Q&c=365799&tp_c=365799"},{"rt":null,"stimulus":"Examples sent to student! Waiting for student...","response":null,"trial_type":"html-keyboard-response","trial_index":44,"time_elapsed":809311,"internal_node_id":"0.0-43.0","params":{"nStudents":24,"maxFlips":30,"completionMinutes":45,"basePay":8,"maxBonus":9,"perTrialBonus":0.5,"perTrialBonusThreshold":0.05,"exampleCost":0.01},"classroomParams":{"A":{"a":1,"b":4},"B":{"a":4,"b":1},"C":{"a":2,"b":8},"D":{"a":8,"b":2}},"conditions":["nonSeqFull","nonSeqPartial","seqNoFeedback","seqFeedback"],"classroomPairings":[["A","B"],["C","D"]],"coinWeights":[0.2,0.5,0.8],"subjectId":"A358YR7MWC6LRH","assignmentId":"3ZAK8W07I50RUDTRWMI2EZDH4R8U0Q","hitId":"3J94SKDEKIB2MY6CGVTNWB9X0ALD5P","url":"https://gershmanlab.com/experiments/alicia/teaching/experiment/?hitId=3J94SKDEKIB2MY6CGVTNWB9X0ALD5P&workerId=A358YR7MWC6LRH&assignmentId=3ZAK8W07I50RUDTRWMI2EZDH4R8U0Q&a=78AZ9&tp_a=78AZ9&b=3ZAK8W07I50RUDTRWMI2EZDH4R8U0Q&tp_b=3ZAK8W07I50RUDTRWMI2EZDH4R8U0Q&c=365799&tp_c=365799"},{"rt":13963,"response":{"heads":"1","tails":"9"},"type":"response","condition":"seqNoFeedback","trueTheta":0.2,"classrooms":["A","B"],"studentTrueClassroom":"A","exampleSet":"second","trial_type":"survey-html-form","trial_index":45,"time_elapsed":823276,"internal_node_id":"0.0-44.0-0.0","params":{"nStudents":24,"maxFlips":30,"completionMinutes":45,"basePay":8,"maxBonus":9,"perTrialBonus":0.5,"perTrialBonusThreshold":0.05,"exampleCost":0.01},"classroomParams":{"A":{"a":1,"b":4},"B":{"a":4,"b":1},"C":{"a":2,"b":8},"D":{"a":8,"b":2}},"conditions":["nonSeqFull","nonSeqPartial","seqNoFeedback","seqFeedback"],"classroomPairings":[["A","B"],["C","D"]],"coinWeights":[0.2,0.5,0.8],"subjectId":"A358YR7MWC6LRH","assignmentId":"3ZAK8W07I50RUDTRWMI2EZDH4R8U0Q","hitId":"3J94SKDEKIB2MY6CGVTNWB9X0ALD5P","url":"https://gershmanlab.com/experiments/alicia/teaching/experiment/?hitId=3J94SKDEKIB2MY6CGVTNWB9X0ALD5P&workerId=A358YR7MWC6LRH&assignmentId=3ZAK8W07I50RUDTRWMI2EZDH4R8U0Q&a=78AZ9&tp_a=78AZ9&b=3ZAK8W07I50RUDTRWMI2EZDH4R8U0Q&tp_b=3ZAK8W07I50RUDTRWMI2EZDH4R8U0Q&c=365799&tp_c=365799","firstResponseHeads":1,"firstResponseTails":10,"secondResponseHeads":1,"secondResponseTails":9,"totalHeads":2,"totalTails":19,"studentIndex":4,"studentTrueHypers":{"a":1,"b":4},"studentGuess":0.11538461538461539,"delta":0.08461538461538462,"bonus":0,"bonusSoFar":0,"totalExamples":21},{"rt":null,"stimulus":"Sending examples to student... ","response":null,"trial_type":"html-keyboard-response","trial_index":46,"time_elapsed":824795,"internal_node_id":"0.0-45.0","params":{"nStudents":24,"maxFlips":30,"completionMinutes":45,"basePay":8,"maxBonus":9,"perTrialBonus":0.5,"perTrialBonusThreshold":0.05,"exampleCost":0.01},"classroomParams":{"A":{"a":1,"b":4},"B":{"a":4,"b":1},"C":{"a":2,"b":8},"D":{"a":8,"b":2}},"conditions":["nonSeqFull","nonSeqPartial","seqNoFeedback","seqFeedback"],"classroomPairings":[["A","B"],["C","D"]],"coinWeights":[0.2,0.5,0.8],"subjectId":"A358YR7MWC6LRH","assignmentId":"3ZAK8W07I50RUDTRWMI2EZDH4R8U0Q","hitId":"3J94SKDEKIB2MY6CGVTNWB9X0ALD5P","url":"https://gershmanlab.com/experiments/alicia/teaching/experiment/?hitId=3J94SKDEKIB2MY6CGVTNWB9X0ALD5P&workerId=A358YR7MWC6LRH&assignmentId=3ZAK8W07I50RUDTRWMI2EZDH4R8U0Q&a=78AZ9&tp_a=78AZ9&b=3ZAK8W07I50RUDTRWMI2EZDH4R8U0Q&tp_b=3ZAK8W07I50RUDTRWMI2EZDH4R8U0Q&c=365799&tp_c=365799"},{"rt":null,"stimulus":"Examples sent to student! Waiting for student...","response":null,"trial_type":"html-keyboard-response","trial_index":47,"time_elapsed":830807,"internal_node_id":"0.0-46.0","params":{"nStudents":24,"maxFlips":30,"completionMinutes":45,"basePay":8,"maxBonus":9,"perTrialBonus":0.5,"perTrialBonusThreshold":0.05,"exampleCost":0.01},"classroomParams":{"A":{"a":1,"b":4},"B":{"a":4,"b":1},"C":{"a":2,"b":8},"D":{"a":8,"b":2}},"conditions":["nonSeqFull","nonSeqPartial","seqNoFeedback","seqFeedback"],"classroomPairings":[["A","B"],["C","D"]],"coinWeights":[0.2,0.5,0.8],"subjectId":"A358YR7MWC6LRH","assignmentId":"3ZAK8W07I50RUDTRWMI2EZDH4R8U0Q","hitId":"3J94SKDEKIB2MY6CGVTNWB9X0ALD5P","url":"https://gershmanlab.com/experiments/alicia/teaching/experiment/?hitId=3J94SKDEKIB2MY6CGVTNWB9X0ALD5P&workerId=A358YR7MWC6LRH&assignmentId=3ZAK8W07I50RUDTRWMI2EZDH4R8U0Q&a=78AZ9&tp_a=78AZ9&b=3ZAK8W07I50RUDTRWMI2EZDH4R8U0Q&tp_b=3ZAK8W07I50RUDTRWMI2EZDH4R8U0Q&c=365799&tp_c=365799"},{"rt":5038,"stimulus":"\n                <p>Student 5's first guess for coin weight: <b style=\"color:Tomato\";>0.13</b></p>\n                <p>Student 5's second guess for coin weight: <b style=\"color:Tomato\";>0.12</b></p>\n                <p>You received a bonus of <b>$0.00</b> based on the student's second guess.</p>\n                <p>Total bonus so far: <b>$0.00</b></p>\n                <p>Press any key to continue.</p>\n                ","response":" ","trial_type":"html-keyboard-response","trial_index":48,"time_elapsed":835846,"internal_node_id":"0.0-47.0","params":{"nStudents":24,"maxFlips":30,"completionMinutes":45,"basePay":8,"maxBonus":9,"perTrialBonus":0.5,"perTrialBonusThreshold":0.05,"exampleCost":0.01},"classroomParams":{"A":{"a":1,"b":4},"B":{"a":4,"b":1},"C":{"a":2,"b":8},"D":{"a":8,"b":2}},"conditions":["nonSeqFull","nonSeqPartial","seqNoFeedback","seqFeedback"],"classroomPairings":[["A","B"],["C","D"]],"coinWeights":[0.2,0.5,0.8],"subjectId":"A358YR7MWC6LRH","assignmentId":"3ZAK8W07I50RUDTRWMI2EZDH4R8U0Q","hitId":"3J94SKDEKIB2MY6CGVTNWB9X0ALD5P","url":"https://gershmanlab.com/experiments/alicia/teaching/experiment/?hitId=3J94SKDEKIB2MY6CGVTNWB9X0ALD5P&workerId=A358YR7MWC6LRH&assignmentId=3ZAK8W07I50RUDTRWMI2EZDH4R8U0Q&a=78AZ9&tp_a=78AZ9&b=3ZAK8W07I50RUDTRWMI2EZDH4R8U0Q&tp_b=3ZAK8W07I50RUDTRWMI2EZDH4R8U0Q&c=365799&tp_c=365799"},{"rt":null,"stimulus":"<div style=\"font-size:60px;\">Next student</div>","response":null,"trial_type":"html-keyboard-response","trial_index":49,"time_elapsed":838353,"internal_node_id":"0.0-48.0-0.0","params":{"nStudents":24,"maxFlips":30,"completionMinutes":45,"basePay":8,"maxBonus":9,"perTrialBonus":0.5,"perTrialBonusThreshold":0.05,"exampleCost":0.01},"classroomParams":{"A":{"a":1,"b":4},"B":{"a":4,"b":1},"C":{"a":2,"b":8},"D":{"a":8,"b":2}},"conditions":["nonSeqFull","nonSeqPartial","seqNoFeedback","seqFeedback"],"classroomPairings":[["A","B"],["C","D"]],"coinWeights":[0.2,0.5,0.8],"subjectId":"A358YR7MWC6LRH","assignmentId":"3ZAK8W07I50RUDTRWMI2EZDH4R8U0Q","hitId":"3J94SKDEKIB2MY6CGVTNWB9X0ALD5P","url":"https://gershmanlab.com/experiments/alicia/teaching/experiment/?hitId=3J94SKDEKIB2MY6CGVTNWB9X0ALD5P&workerId=A358YR7MWC6LRH&assignmentId=3ZAK8W07I50RUDTRWMI2EZDH4R8U0Q&a=78AZ9&tp_a=78AZ9&b=3ZAK8W07I50RUDTRWMI2EZDH4R8U0Q&tp_b=3ZAK8W07I50RUDTRWMI2EZDH4R8U0Q&c=365799&tp_c=365799"},{"rt":1521,"stimulus":"\n            <h4 style=\"color:Orange;\">Student 6</h4>\n            <h2>The weight of your coin is <b style=\"color:Tomato;\">0.2</b>.</h2>\n            <p>In this block, you will be giving <b>two</b> sets of examples to Student 6.</p>\n                <p>You will receive feedback at the end of the block.</p>\n            <p></p>","response":0,"trial_type":"html-button-response","trial_index":50,"time_elapsed":839876,"internal_node_id":"0.0-49.0","params":{"nStudents":24,"maxFlips":30,"completionMinutes":45,"basePay":8,"maxBonus":9,"perTrialBonus":0.5,"perTrialBonusThreshold":0.05,"exampleCost":0.01},"classroomParams":{"A":{"a":1,"b":4},"B":{"a":4,"b":1},"C":{"a":2,"b":8},"D":{"a":8,"b":2}},"conditions":["nonSeqFull","nonSeqPartial","seqNoFeedback","seqFeedback"],"classroomPairings":[["A","B"],["C","D"]],"coinWeights":[0.2,0.5,0.8],"subjectId":"A358YR7MWC6LRH","assignmentId":"3ZAK8W07I50RUDTRWMI2EZDH4R8U0Q","hitId":"3J94SKDEKIB2MY6CGVTNWB9X0ALD5P","url":"https://gershmanlab.com/experiments/alicia/teaching/experiment/?hitId=3J94SKDEKIB2MY6CGVTNWB9X0ALD5P&workerId=A358YR7MWC6LRH&assignmentId=3ZAK8W07I50RUDTRWMI2EZDH4R8U0Q&a=78AZ9&tp_a=78AZ9&b=3ZAK8W07I50RUDTRWMI2EZDH4R8U0Q&tp_b=3ZAK8W07I50RUDTRWMI2EZDH4R8U0Q&c=365799&tp_c=365799"},{"rt":14168,"response":{"heads":"2","tails":"9"},"type":"response","condition":"seqNoFeedback","trueTheta":0.2,"classrooms":["C","D"],"studentTrueClassroom":"D","exampleSet":"first","trial_type":"survey-html-form","trial_index":51,"time_elapsed":854045,"internal_node_id":"0.0-50.0-0.0","params":{"nStudents":24,"maxFlips":30,"completionMinutes":45,"basePay":8,"maxBonus":9,"perTrialBonus":0.5,"perTrialBonusThreshold":0.05,"exampleCost":0.01},"classroomParams":{"A":{"a":1,"b":4},"B":{"a":4,"b":1},"C":{"a":2,"b":8},"D":{"a":8,"b":2}},"conditions":["nonSeqFull","nonSeqPartial","seqNoFeedback","seqFeedback"],"classroomPairings":[["A","B"],["C","D"]],"coinWeights":[0.2,0.5,0.8],"subjectId":"A358YR7MWC6LRH","assignmentId":"3ZAK8W07I50RUDTRWMI2EZDH4R8U0Q","hitId":"3J94SKDEKIB2MY6CGVTNWB9X0ALD5P","url":"https://gershmanlab.com/experiments/alicia/teaching/experiment/?hitId=3J94SKDEKIB2MY6CGVTNWB9X0ALD5P&workerId=A358YR7MWC6LRH&assignmentId=3ZAK8W07I50RUDTRWMI2EZDH4R8U0Q&a=78AZ9&tp_a=78AZ9&b=3ZAK8W07I50RUDTRWMI2EZDH4R8U0Q&tp_b=3ZAK8W07I50RUDTRWMI2EZDH4R8U0Q&c=365799&tp_c=365799","heads":2,"tails":9,"studentIndex":5,"studentTrueHypers":{"a":8,"b":2},"studentGuess":0.47619047619047616,"delta":0.27619047619047615,"totalExamples":11,"bonusSoFar":0},{"rt":null,"stimulus":"Sending examples to student... ","response":null,"trial_type":"html-keyboard-response","trial_index":52,"time_elapsed":856048,"internal_node_id":"0.0-51.0","params":{"nStudents":24,"maxFlips":30,"completionMinutes":45,"basePay":8,"maxBonus":9,"perTrialBonus":0.5,"perTrialBonusThreshold":0.05,"exampleCost":0.01},"classroomParams":{"A":{"a":1,"b":4},"B":{"a":4,"b":1},"C":{"a":2,"b":8},"D":{"a":8,"b":2}},"conditions":["nonSeqFull","nonSeqPartial","seqNoFeedback","seqFeedback"],"classroomPairings":[["A","B"],["C","D"]],"coinWeights":[0.2,0.5,0.8],"subjectId":"A358YR7MWC6LRH","assignmentId":"3ZAK8W07I50RUDTRWMI2EZDH4R8U0Q","hitId":"3J94SKDEKIB2MY6CGVTNWB9X0ALD5P","url":"https://gershmanlab.com/experiments/alicia/teaching/experiment/?hitId=3J94SKDEKIB2MY6CGVTNWB9X0ALD5P&workerId=A358YR7MWC6LRH&assignmentId=3ZAK8W07I50RUDTRWMI2EZDH4R8U0Q&a=78AZ9&tp_a=78AZ9&b=3ZAK8W07I50RUDTRWMI2EZDH4R8U0Q&tp_b=3ZAK8W07I50RUDTRWMI2EZDH4R8U0Q&c=365799&tp_c=365799"},{"rt":null,"stimulus":"Examples sent to student! Waiting for student...","response":null,"trial_type":"html-keyboard-response","trial_index":53,"time_elapsed":860555,"internal_node_id":"0.0-52.0","params":{"nStudents":24,"maxFlips":30,"completionMinutes":45,"basePay":8,"maxBonus":9,"perTrialBonus":0.5,"perTrialBonusThreshold":0.05,"exampleCost":0.01},"classroomParams":{"A":{"a":1,"b":4},"B":{"a":4,"b":1},"C":{"a":2,"b":8},"D":{"a":8,"b":2}},"conditions":["nonSeqFull","nonSeqPartial","seqNoFeedback","seqFeedback"],"classroomPairings":[["A","B"],["C","D"]],"coinWeights":[0.2,0.5,0.8],"subjectId":"A358YR7MWC6LRH","assignmentId":"3ZAK8W07I50RUDTRWMI2EZDH4R8U0Q","hitId":"3J94SKDEKIB2MY6CGVTNWB9X0ALD5P","url":"https://gershmanlab.com/experiments/alicia/teaching/experiment/?hitId=3J94SKDEKIB2MY6CGVTNWB9X0ALD5P&workerId=A358YR7MWC6LRH&assignmentId=3ZAK8W07I50RUDTRWMI2EZDH4R8U0Q&a=78AZ9&tp_a=78AZ9&b=3ZAK8W07I50RUDTRWMI2EZDH4R8U0Q&tp_b=3ZAK8W07I50RUDTRWMI2EZDH4R8U0Q&c=365799&tp_c=365799"},{"rt":13511,"response":{"heads":"2","tails":"10"},"type":"response","condition":"seqNoFeedback","trueTheta":0.2,"classrooms":["C","D"],"studentTrueClassroom":"D","exampleSet":"second","trial_type":"survey-html-form","trial_index":54,"time_elapsed":874069,"internal_node_id":"0.0-53.0-0.0","params":{"nStudents":24,"maxFlips":30,"completionMinutes":45,"basePay":8,"maxBonus":9,"perTrialBonus":0.5,"perTrialBonusThreshold":0.05,"exampleCost":0.01},"classroomParams":{"A":{"a":1,"b":4},"B":{"a":4,"b":1},"C":{"a":2,"b":8},"D":{"a":8,"b":2}},"conditions":["nonSeqFull","nonSeqPartial","seqNoFeedback","seqFeedback"],"classroomPairings":[["A","B"],["C","D"]],"coinWeights":[0.2,0.5,0.8],"subjectId":"A358YR7MWC6LRH","assignmentId":"3ZAK8W07I50RUDTRWMI2EZDH4R8U0Q","hitId":"3J94SKDEKIB2MY6CGVTNWB9X0ALD5P","url":"https://gershmanlab.com/experiments/alicia/teaching/experiment/?hitId=3J94SKDEKIB2MY6CGVTNWB9X0ALD5P&workerId=A358YR7MWC6LRH&assignmentId=3ZAK8W07I50RUDTRWMI2EZDH4R8U0Q&a=78AZ9&tp_a=78AZ9&b=3ZAK8W07I50RUDTRWMI2EZDH4R8U0Q&tp_b=3ZAK8W07I50RUDTRWMI2EZDH4R8U0Q&c=365799&tp_c=365799","firstResponseHeads":2,"firstResponseTails":9,"secondResponseHeads":2,"secondResponseTails":10,"totalHeads":4,"totalTails":19,"studentIndex":5,"studentTrueHypers":{"a":8,"b":2},"studentGuess":0.36363636363636365,"delta":0.16363636363636364,"bonus":0,"bonusSoFar":0,"totalExamples":23},{"rt":null,"stimulus":"Sending examples to student... ","response":null,"trial_type":"html-keyboard-response","trial_index":55,"time_elapsed":875324,"internal_node_id":"0.0-54.0","params":{"nStudents":24,"maxFlips":30,"completionMinutes":45,"basePay":8,"maxBonus":9,"perTrialBonus":0.5,"perTrialBonusThreshold":0.05,"exampleCost":0.01},"classroomParams":{"A":{"a":1,"b":4},"B":{"a":4,"b":1},"C":{"a":2,"b":8},"D":{"a":8,"b":2}},"conditions":["nonSeqFull","nonSeqPartial","seqNoFeedback","seqFeedback"],"classroomPairings":[["A","B"],["C","D"]],"coinWeights":[0.2,0.5,0.8],"subjectId":"A358YR7MWC6LRH","assignmentId":"3ZAK8W07I50RUDTRWMI2EZDH4R8U0Q","hitId":"3J94SKDEKIB2MY6CGVTNWB9X0ALD5P","url":"https://gershmanlab.com/experiments/alicia/teaching/experiment/?hitId=3J94SKDEKIB2MY6CGVTNWB9X0ALD5P&workerId=A358YR7MWC6LRH&assignmentId=3ZAK8W07I50RUDTRWMI2EZDH4R8U0Q&a=78AZ9&tp_a=78AZ9&b=3ZAK8W07I50RUDTRWMI2EZDH4R8U0Q&tp_b=3ZAK8W07I50RUDTRWMI2EZDH4R8U0Q&c=365799&tp_c=365799"},{"rt":null,"stimulus":"Examples sent to student! Waiting for student...","response":null,"trial_type":"html-keyboard-response","trial_index":56,"time_elapsed":879327,"internal_node_id":"0.0-55.0","params":{"nStudents":24,"maxFlips":30,"completionMinutes":45,"basePay":8,"maxBonus":9,"perTrialBonus":0.5,"perTrialBonusThreshold":0.05,"exampleCost":0.01},"classroomParams":{"A":{"a":1,"b":4},"B":{"a":4,"b":1},"C":{"a":2,"b":8},"D":{"a":8,"b":2}},"conditions":["nonSeqFull","nonSeqPartial","seqNoFeedback","seqFeedback"],"classroomPairings":[["A","B"],["C","D"]],"coinWeights":[0.2,0.5,0.8],"subjectId":"A358YR7MWC6LRH","assignmentId":"3ZAK8W07I50RUDTRWMI2EZDH4R8U0Q","hitId":"3J94SKDEKIB2MY6CGVTNWB9X0ALD5P","url":"https://gershmanlab.com/experiments/alicia/teaching/experiment/?hitId=3J94SKDEKIB2MY6CGVTNWB9X0ALD5P&workerId=A358YR7MWC6LRH&assignmentId=3ZAK8W07I50RUDTRWMI2EZDH4R8U0Q&a=78AZ9&tp_a=78AZ9&b=3ZAK8W07I50RUDTRWMI2EZDH4R8U0Q&tp_b=3ZAK8W07I50RUDTRWMI2EZDH4R8U0Q&c=365799&tp_c=365799"},{"rt":4464,"stimulus":"\n                <p>Student 6's first guess for coin weight: <b style=\"color:Tomato\";>0.48</b></p>\n                <p>Student 6's second guess for coin weight: <b style=\"color:Tomato\";>0.36</b></p>\n                <p>You received a bonus of <b>$0.00</b> based on the student's second guess.</p>\n                <p>Total bonus so far: <b>$0.00</b></p>\n                <p>Press any key to continue.</p>\n                ","response":" ","trial_type":"html-keyboard-response","trial_index":57,"time_elapsed":883793,"internal_node_id":"0.0-56.0","params":{"nStudents":24,"maxFlips":30,"completionMinutes":45,"basePay":8,"maxBonus":9,"perTrialBonus":0.5,"perTrialBonusThreshold":0.05,"exampleCost":0.01},"classroomParams":{"A":{"a":1,"b":4},"B":{"a":4,"b":1},"C":{"a":2,"b":8},"D":{"a":8,"b":2}},"conditions":["nonSeqFull","nonSeqPartial","seqNoFeedback","seqFeedback"],"classroomPairings":[["A","B"],["C","D"]],"coinWeights":[0.2,0.5,0.8],"subjectId":"A358YR7MWC6LRH","assignmentId":"3ZAK8W07I50RUDTRWMI2EZDH4R8U0Q","hitId":"3J94SKDEKIB2MY6CGVTNWB9X0ALD5P","url":"https://gershmanlab.com/experiments/alicia/teaching/experiment/?hitId=3J94SKDEKIB2MY6CGVTNWB9X0ALD5P&workerId=A358YR7MWC6LRH&assignmentId=3ZAK8W07I50RUDTRWMI2EZDH4R8U0Q&a=78AZ9&tp_a=78AZ9&b=3ZAK8W07I50RUDTRWMI2EZDH4R8U0Q&tp_b=3ZAK8W07I50RUDTRWMI2EZDH4R8U0Q&c=365799&tp_c=365799"},{"rt":null,"stimulus":"<div style=\"font-size:60px;\">Next student</div>","response":null,"trial_type":"html-keyboard-response","trial_index":58,"time_elapsed":886045,"internal_node_id":"0.0-57.0-0.0","params":{"nStudents":24,"maxFlips":30,"completionMinutes":45,"basePay":8,"maxBonus":9,"perTrialBonus":0.5,"perTrialBonusThreshold":0.05,"exampleCost":0.01},"classroomParams":{"A":{"a":1,"b":4},"B":{"a":4,"b":1},"C":{"a":2,"b":8},"D":{"a":8,"b":2}},"conditions":["nonSeqFull","nonSeqPartial","seqNoFeedback","seqFeedback"],"classroomPairings":[["A","B"],["C","D"]],"coinWeights":[0.2,0.5,0.8],"subjectId":"A358YR7MWC6LRH","assignmentId":"3ZAK8W07I50RUDTRWMI2EZDH4R8U0Q","hitId":"3J94SKDEKIB2MY6CGVTNWB9X0ALD5P","url":"https://gershmanlab.com/experiments/alicia/teaching/experiment/?hitId=3J94SKDEKIB2MY6CGVTNWB9X0ALD5P&workerId=A358YR7MWC6LRH&assignmentId=3ZAK8W07I50RUDTRWMI2EZDH4R8U0Q&a=78AZ9&tp_a=78AZ9&b=3ZAK8W07I50RUDTRWMI2EZDH4R8U0Q&tp_b=3ZAK8W07I50RUDTRWMI2EZDH4R8U0Q&c=365799&tp_c=365799"},{"rt":2343,"stimulus":"\n            <h4 style=\"color:Orange;\">Student 7</h4>\n            <h2>The weight of your coin is <b style=\"color:Tomato;\">0.5</b>.</h2>\n            <p>In this block, you will be giving <b>one</b> set of examples to Student 7.</p>\n                <p>You will receive feedback at the end of the block.</p>\n            <p></p>","response":0,"trial_type":"html-button-response","trial_index":59,"time_elapsed":888390,"internal_node_id":"0.0-58.0","params":{"nStudents":24,"maxFlips":30,"completionMinutes":45,"basePay":8,"maxBonus":9,"perTrialBonus":0.5,"perTrialBonusThreshold":0.05,"exampleCost":0.01},"classroomParams":{"A":{"a":1,"b":4},"B":{"a":4,"b":1},"C":{"a":2,"b":8},"D":{"a":8,"b":2}},"conditions":["nonSeqFull","nonSeqPartial","seqNoFeedback","seqFeedback"],"classroomPairings":[["A","B"],["C","D"]],"coinWeights":[0.2,0.5,0.8],"subjectId":"A358YR7MWC6LRH","assignmentId":"3ZAK8W07I50RUDTRWMI2EZDH4R8U0Q","hitId":"3J94SKDEKIB2MY6CGVTNWB9X0ALD5P","url":"https://gershmanlab.com/experiments/alicia/teaching/experiment/?hitId=3J94SKDEKIB2MY6CGVTNWB9X0ALD5P&workerId=A358YR7MWC6LRH&assignmentId=3ZAK8W07I50RUDTRWMI2EZDH4R8U0Q&a=78AZ9&tp_a=78AZ9&b=3ZAK8W07I50RUDTRWMI2EZDH4R8U0Q&tp_b=3ZAK8W07I50RUDTRWMI2EZDH4R8U0Q&c=365799&tp_c=365799"},{"rt":8022,"response":{"heads":"3","tails":"5"},"type":"response","condition":"nonSeqPartial","trueTheta":0.5,"classrooms":["A","B"],"studentTrueClassroom":"B","exampleSet":"first","trial_type":"survey-html-form","trial_index":60,"time_elapsed":896413,"internal_node_id":"0.0-59.0-0.0","params":{"nStudents":24,"maxFlips":30,"completionMinutes":45,"basePay":8,"maxBonus":9,"perTrialBonus":0.5,"perTrialBonusThreshold":0.05,"exampleCost":0.01},"classroomParams":{"A":{"a":1,"b":4},"B":{"a":4,"b":1},"C":{"a":2,"b":8},"D":{"a":8,"b":2}},"conditions":["nonSeqFull","nonSeqPartial","seqNoFeedback","seqFeedback"],"classroomPairings":[["A","B"],["C","D"]],"coinWeights":[0.2,0.5,0.8],"subjectId":"A358YR7MWC6LRH","assignmentId":"3ZAK8W07I50RUDTRWMI2EZDH4R8U0Q","hitId":"3J94SKDEKIB2MY6CGVTNWB9X0ALD5P","url":"https://gershmanlab.com/experiments/alicia/teaching/experiment/?hitId=3J94SKDEKIB2MY6CGVTNWB9X0ALD5P&workerId=A358YR7MWC6LRH&assignmentId=3ZAK8W07I50RUDTRWMI2EZDH4R8U0Q&a=78AZ9&tp_a=78AZ9&b=3ZAK8W07I50RUDTRWMI2EZDH4R8U0Q&tp_b=3ZAK8W07I50RUDTRWMI2EZDH4R8U0Q&c=365799&tp_c=365799","heads":3,"tails":5,"studentIndex":6,"studentTrueHypers":{"a":4,"b":1},"studentGuess":0.5384615384615384,"delta":0.038461538461538436,"totalExamples":8,"bonus":0.42,"bonusSoFar":0.42},{"rt":null,"stimulus":"Sending examples to student... ","response":null,"trial_type":"html-keyboard-response","trial_index":61,"time_elapsed":898167,"internal_node_id":"0.0-60.0","params":{"nStudents":24,"maxFlips":30,"completionMinutes":45,"basePay":8,"maxBonus":9,"perTrialBonus":0.5,"perTrialBonusThreshold":0.05,"exampleCost":0.01},"classroomParams":{"A":{"a":1,"b":4},"B":{"a":4,"b":1},"C":{"a":2,"b":8},"D":{"a":8,"b":2}},"conditions":["nonSeqFull","nonSeqPartial","seqNoFeedback","seqFeedback"],"classroomPairings":[["A","B"],["C","D"]],"coinWeights":[0.2,0.5,0.8],"subjectId":"A358YR7MWC6LRH","assignmentId":"3ZAK8W07I50RUDTRWMI2EZDH4R8U0Q","hitId":"3J94SKDEKIB2MY6CGVTNWB9X0ALD5P","url":"https://gershmanlab.com/experiments/alicia/teaching/experiment/?hitId=3J94SKDEKIB2MY6CGVTNWB9X0ALD5P&workerId=A358YR7MWC6LRH&assignmentId=3ZAK8W07I50RUDTRWMI2EZDH4R8U0Q&a=78AZ9&tp_a=78AZ9&b=3ZAK8W07I50RUDTRWMI2EZDH4R8U0Q&tp_b=3ZAK8W07I50RUDTRWMI2EZDH4R8U0Q&c=365799&tp_c=365799"},{"rt":null,"stimulus":"Examples sent to student! Waiting for student...","response":null,"trial_type":"html-keyboard-response","trial_index":62,"time_elapsed":903181,"internal_node_id":"0.0-61.0","params":{"nStudents":24,"maxFlips":30,"completionMinutes":45,"basePay":8,"maxBonus":9,"perTrialBonus":0.5,"perTrialBonusThreshold":0.05,"exampleCost":0.01},"classroomParams":{"A":{"a":1,"b":4},"B":{"a":4,"b":1},"C":{"a":2,"b":8},"D":{"a":8,"b":2}},"conditions":["nonSeqFull","nonSeqPartial","seqNoFeedback","seqFeedback"],"classroomPairings":[["A","B"],["C","D"]],"coinWeights":[0.2,0.5,0.8],"subjectId":"A358YR7MWC6LRH","assignmentId":"3ZAK8W07I50RUDTRWMI2EZDH4R8U0Q","hitId":"3J94SKDEKIB2MY6CGVTNWB9X0ALD5P","url":"https://gershmanlab.com/experiments/alicia/teaching/experiment/?hitId=3J94SKDEKIB2MY6CGVTNWB9X0ALD5P&workerId=A358YR7MWC6LRH&assignmentId=3ZAK8W07I50RUDTRWMI2EZDH4R8U0Q&a=78AZ9&tp_a=78AZ9&b=3ZAK8W07I50RUDTRWMI2EZDH4R8U0Q&tp_b=3ZAK8W07I50RUDTRWMI2EZDH4R8U0Q&c=365799&tp_c=365799"},{"rt":4825,"stimulus":"\n                <p>Student's guess for coin weight: <b style=\"color:Tomato;\">0.54</b></p>\n                <p>You received a bonus of <b>$0.42</b>. Total bonus so far: <b>$0.42</b></b></p>\n                <p></p>\n                <p>Press any key to continue.</p>\n                ","response":" ","trial_type":"html-keyboard-response","trial_index":63,"time_elapsed":908007,"internal_node_id":"0.0-62.0","params":{"nStudents":24,"maxFlips":30,"completionMinutes":45,"basePay":8,"maxBonus":9,"perTrialBonus":0.5,"perTrialBonusThreshold":0.05,"exampleCost":0.01},"classroomParams":{"A":{"a":1,"b":4},"B":{"a":4,"b":1},"C":{"a":2,"b":8},"D":{"a":8,"b":2}},"conditions":["nonSeqFull","nonSeqPartial","seqNoFeedback","seqFeedback"],"classroomPairings":[["A","B"],["C","D"]],"coinWeights":[0.2,0.5,0.8],"subjectId":"A358YR7MWC6LRH","assignmentId":"3ZAK8W07I50RUDTRWMI2EZDH4R8U0Q","hitId":"3J94SKDEKIB2MY6CGVTNWB9X0ALD5P","url":"https://gershmanlab.com/experiments/alicia/teaching/experiment/?hitId=3J94SKDEKIB2MY6CGVTNWB9X0ALD5P&workerId=A358YR7MWC6LRH&assignmentId=3ZAK8W07I50RUDTRWMI2EZDH4R8U0Q&a=78AZ9&tp_a=78AZ9&b=3ZAK8W07I50RUDTRWMI2EZDH4R8U0Q&tp_b=3ZAK8W07I50RUDTRWMI2EZDH4R8U0Q&c=365799&tp_c=365799"},{"rt":null,"stimulus":"<div style=\"font-size:60px;\">Next student</div>","response":null,"trial_type":"html-keyboard-response","trial_index":64,"time_elapsed":910510,"internal_node_id":"0.0-63.0-0.0","params":{"nStudents":24,"maxFlips":30,"completionMinutes":45,"basePay":8,"maxBonus":9,"perTrialBonus":0.5,"perTrialBonusThreshold":0.05,"exampleCost":0.01},"classroomParams":{"A":{"a":1,"b":4},"B":{"a":4,"b":1},"C":{"a":2,"b":8},"D":{"a":8,"b":2}},"conditions":["nonSeqFull","nonSeqPartial","seqNoFeedback","seqFeedback"],"classroomPairings":[["A","B"],["C","D"]],"coinWeights":[0.2,0.5,0.8],"subjectId":"A358YR7MWC6LRH","assignmentId":"3ZAK8W07I50RUDTRWMI2EZDH4R8U0Q","hitId":"3J94SKDEKIB2MY6CGVTNWB9X0ALD5P","url":"https://gershmanlab.com/experiments/alicia/teaching/experiment/?hitId=3J94SKDEKIB2MY6CGVTNWB9X0ALD5P&workerId=A358YR7MWC6LRH&assignmentId=3ZAK8W07I50RUDTRWMI2EZDH4R8U0Q&a=78AZ9&tp_a=78AZ9&b=3ZAK8W07I50RUDTRWMI2EZDH4R8U0Q&tp_b=3ZAK8W07I50RUDTRWMI2EZDH4R8U0Q&c=365799&tp_c=365799"},{"rt":2845,"stimulus":"\n            <h4 style=\"color:Orange;\">Student 8</h4>\n            <h2>The weight of your coin is <b style=\"color:Tomato;\">0.8</b>.</h2>\n            <p>In this block, you will be giving <b>one</b> set of examples to Student 8.</p>\n                <p>You will receive feedback at the end of the block.</p>\n            <p></p>","response":0,"trial_type":"html-button-response","trial_index":65,"time_elapsed":913356,"internal_node_id":"0.0-64.0","params":{"nStudents":24,"maxFlips":30,"completionMinutes":45,"basePay":8,"maxBonus":9,"perTrialBonus":0.5,"perTrialBonusThreshold":0.05,"exampleCost":0.01},"classroomParams":{"A":{"a":1,"b":4},"B":{"a":4,"b":1},"C":{"a":2,"b":8},"D":{"a":8,"b":2}},"conditions":["nonSeqFull","nonSeqPartial","seqNoFeedback","seqFeedback"],"classroomPairings":[["A","B"],["C","D"]],"coinWeights":[0.2,0.5,0.8],"subjectId":"A358YR7MWC6LRH","assignmentId":"3ZAK8W07I50RUDTRWMI2EZDH4R8U0Q","hitId":"3J94SKDEKIB2MY6CGVTNWB9X0ALD5P","url":"https://gershmanlab.com/experiments/alicia/teaching/experiment/?hitId=3J94SKDEKIB2MY6CGVTNWB9X0ALD5P&workerId=A358YR7MWC6LRH&assignmentId=3ZAK8W07I50RUDTRWMI2EZDH4R8U0Q&a=78AZ9&tp_a=78AZ9&b=3ZAK8W07I50RUDTRWMI2EZDH4R8U0Q&tp_b=3ZAK8W07I50RUDTRWMI2EZDH4R8U0Q&c=365799&tp_c=365799"},{"rt":7391,"response":{"heads":"6","tails":"3"},"type":"response","condition":"nonSeqPartial","trueTheta":0.8,"classrooms":["C","D"],"studentTrueClassroom":"D","exampleSet":"first","trial_type":"survey-html-form","trial_index":66,"time_elapsed":920749,"internal_node_id":"0.0-65.0-0.0","params":{"nStudents":24,"maxFlips":30,"completionMinutes":45,"basePay":8,"maxBonus":9,"perTrialBonus":0.5,"perTrialBonusThreshold":0.05,"exampleCost":0.01},"classroomParams":{"A":{"a":1,"b":4},"B":{"a":4,"b":1},"C":{"a":2,"b":8},"D":{"a":8,"b":2}},"conditions":["nonSeqFull","nonSeqPartial","seqNoFeedback","seqFeedback"],"classroomPairings":[["A","B"],["C","D"]],"coinWeights":[0.2,0.5,0.8],"subjectId":"A358YR7MWC6LRH","assignmentId":"3ZAK8W07I50RUDTRWMI2EZDH4R8U0Q","hitId":"3J94SKDEKIB2MY6CGVTNWB9X0ALD5P","url":"https://gershmanlab.com/experiments/alicia/teaching/experiment/?hitId=3J94SKDEKIB2MY6CGVTNWB9X0ALD5P&workerId=A358YR7MWC6LRH&assignmentId=3ZAK8W07I50RUDTRWMI2EZDH4R8U0Q&a=78AZ9&tp_a=78AZ9&b=3ZAK8W07I50RUDTRWMI2EZDH4R8U0Q&tp_b=3ZAK8W07I50RUDTRWMI2EZDH4R8U0Q&c=365799&tp_c=365799","heads":6,"tails":3,"studentIndex":7,"studentTrueHypers":{"a":8,"b":2},"studentGuess":0.7368421052631579,"delta":0.06315789473684219,"totalExamples":9,"bonus":0,"bonusSoFar":0.42},{"rt":null,"stimulus":"Sending examples to student... ","response":null,"trial_type":"html-keyboard-response","trial_index":67,"time_elapsed":922752,"internal_node_id":"0.0-66.0","params":{"nStudents":24,"maxFlips":30,"completionMinutes":45,"basePay":8,"maxBonus":9,"perTrialBonus":0.5,"perTrialBonusThreshold":0.05,"exampleCost":0.01},"classroomParams":{"A":{"a":1,"b":4},"B":{"a":4,"b":1},"C":{"a":2,"b":8},"D":{"a":8,"b":2}},"conditions":["nonSeqFull","nonSeqPartial","seqNoFeedback","seqFeedback"],"classroomPairings":[["A","B"],["C","D"]],"coinWeights":[0.2,0.5,0.8],"subjectId":"A358YR7MWC6LRH","assignmentId":"3ZAK8W07I50RUDTRWMI2EZDH4R8U0Q","hitId":"3J94SKDEKIB2MY6CGVTNWB9X0ALD5P","url":"https://gershmanlab.com/experiments/alicia/teaching/experiment/?hitId=3J94SKDEKIB2MY6CGVTNWB9X0ALD5P&workerId=A358YR7MWC6LRH&assignmentId=3ZAK8W07I50RUDTRWMI2EZDH4R8U0Q&a=78AZ9&tp_a=78AZ9&b=3ZAK8W07I50RUDTRWMI2EZDH4R8U0Q&tp_b=3ZAK8W07I50RUDTRWMI2EZDH4R8U0Q&c=365799&tp_c=365799"},{"rt":null,"stimulus":"Examples sent to student! Waiting for student...","response":null,"trial_type":"html-keyboard-response","trial_index":68,"time_elapsed":927265,"internal_node_id":"0.0-67.0","params":{"nStudents":24,"maxFlips":30,"completionMinutes":45,"basePay":8,"maxBonus":9,"perTrialBonus":0.5,"perTrialBonusThreshold":0.05,"exampleCost":0.01},"classroomParams":{"A":{"a":1,"b":4},"B":{"a":4,"b":1},"C":{"a":2,"b":8},"D":{"a":8,"b":2}},"conditions":["nonSeqFull","nonSeqPartial","seqNoFeedback","seqFeedback"],"classroomPairings":[["A","B"],["C","D"]],"coinWeights":[0.2,0.5,0.8],"subjectId":"A358YR7MWC6LRH","assignmentId":"3ZAK8W07I50RUDTRWMI2EZDH4R8U0Q","hitId":"3J94SKDEKIB2MY6CGVTNWB9X0ALD5P","url":"https://gershmanlab.com/experiments/alicia/teaching/experiment/?hitId=3J94SKDEKIB2MY6CGVTNWB9X0ALD5P&workerId=A358YR7MWC6LRH&assignmentId=3ZAK8W07I50RUDTRWMI2EZDH4R8U0Q&a=78AZ9&tp_a=78AZ9&b=3ZAK8W07I50RUDTRWMI2EZDH4R8U0Q&tp_b=3ZAK8W07I50RUDTRWMI2EZDH4R8U0Q&c=365799&tp_c=365799"},{"rt":3013,"stimulus":"\n                <p>Student's guess for coin weight: <b style=\"color:Tomato;\">0.74</b></p>\n                <p>You received a bonus of <b>$0</b>. Total bonus so far: <b>$0.42</b></b></p>\n                <p></p>\n                <p>Press any key to continue.</p>\n                ","response":" ","trial_type":"html-keyboard-response","trial_index":69,"time_elapsed":930279,"internal_node_id":"0.0-68.0","params":{"nStudents":24,"maxFlips":30,"completionMinutes":45,"basePay":8,"maxBonus":9,"perTrialBonus":0.5,"perTrialBonusThreshold":0.05,"exampleCost":0.01},"classroomParams":{"A":{"a":1,"b":4},"B":{"a":4,"b":1},"C":{"a":2,"b":8},"D":{"a":8,"b":2}},"conditions":["nonSeqFull","nonSeqPartial","seqNoFeedback","seqFeedback"],"classroomPairings":[["A","B"],["C","D"]],"coinWeights":[0.2,0.5,0.8],"subjectId":"A358YR7MWC6LRH","assignmentId":"3ZAK8W07I50RUDTRWMI2EZDH4R8U0Q","hitId":"3J94SKDEKIB2MY6CGVTNWB9X0ALD5P","url":"https://gershmanlab.com/experiments/alicia/teaching/experiment/?hitId=3J94SKDEKIB2MY6CGVTNWB9X0ALD5P&workerId=A358YR7MWC6LRH&assignmentId=3ZAK8W07I50RUDTRWMI2EZDH4R8U0Q&a=78AZ9&tp_a=78AZ9&b=3ZAK8W07I50RUDTRWMI2EZDH4R8U0Q&tp_b=3ZAK8W07I50RUDTRWMI2EZDH4R8U0Q&c=365799&tp_c=365799"},{"rt":null,"stimulus":"<div style=\"font-size:60px;\">Next student</div>","response":null,"trial_type":"html-keyboard-response","trial_index":70,"time_elapsed":933297,"internal_node_id":"0.0-69.0-0.0","params":{"nStudents":24,"maxFlips":30,"completionMinutes":45,"basePay":8,"maxBonus":9,"perTrialBonus":0.5,"perTrialBonusThreshold":0.05,"exampleCost":0.01},"classroomParams":{"A":{"a":1,"b":4},"B":{"a":4,"b":1},"C":{"a":2,"b":8},"D":{"a":8,"b":2}},"conditions":["nonSeqFull","nonSeqPartial","seqNoFeedback","seqFeedback"],"classroomPairings":[["A","B"],["C","D"]],"coinWeights":[0.2,0.5,0.8],"subjectId":"A358YR7MWC6LRH","assignmentId":"3ZAK8W07I50RUDTRWMI2EZDH4R8U0Q","hitId":"3J94SKDEKIB2MY6CGVTNWB9X0ALD5P","url":"https://gershmanlab.com/experiments/alicia/teaching/experiment/?hitId=3J94SKDEKIB2MY6CGVTNWB9X0ALD5P&workerId=A358YR7MWC6LRH&assignmentId=3ZAK8W07I50RUDTRWMI2EZDH4R8U0Q&a=78AZ9&tp_a=78AZ9&b=3ZAK8W07I50RUDTRWMI2EZDH4R8U0Q&tp_b=3ZAK8W07I50RUDTRWMI2EZDH4R8U0Q&c=365799&tp_c=365799"},{"rt":63129,"stimulus":"\n            <h4 style=\"color:Orange;\">Student 9</h4>\n            <h2>The weight of your coin is <b style=\"color:Tomato;\">0.2</b>.</h2>\n            <p>In this block, you will be giving <b>one</b> set of examples to Student 9.</p>\n                <p>You will receive feedback at the end of the block.</p>\n            <p></p>","response":0,"trial_type":"html-button-response","trial_index":71,"time_elapsed":996429,"internal_node_id":"0.0-70.0","params":{"nStudents":24,"maxFlips":30,"completionMinutes":45,"basePay":8,"maxBonus":9,"perTrialBonus":0.5,"perTrialBonusThreshold":0.05,"exampleCost":0.01},"classroomParams":{"A":{"a":1,"b":4},"B":{"a":4,"b":1},"C":{"a":2,"b":8},"D":{"a":8,"b":2}},"conditions":["nonSeqFull","nonSeqPartial","seqNoFeedback","seqFeedback"],"classroomPairings":[["A","B"],["C","D"]],"coinWeights":[0.2,0.5,0.8],"subjectId":"A358YR7MWC6LRH","assignmentId":"3ZAK8W07I50RUDTRWMI2EZDH4R8U0Q","hitId":"3J94SKDEKIB2MY6CGVTNWB9X0ALD5P","url":"https://gershmanlab.com/experiments/alicia/teaching/experiment/?hitId=3J94SKDEKIB2MY6CGVTNWB9X0ALD5P&workerId=A358YR7MWC6LRH&assignmentId=3ZAK8W07I50RUDTRWMI2EZDH4R8U0Q&a=78AZ9&tp_a=78AZ9&b=3ZAK8W07I50RUDTRWMI2EZDH4R8U0Q&tp_b=3ZAK8W07I50RUDTRWMI2EZDH4R8U0Q&c=365799&tp_c=365799"},{"rt":13478,"response":{"heads":"1","tails":"7"},"type":"response","condition":"nonSeqPartial","trueTheta":0.2,"classrooms":["C","D"],"studentTrueClassroom":"C","exampleSet":"first","trial_type":"survey-html-form","trial_index":72,"time_elapsed":1009909,"internal_node_id":"0.0-71.0-0.0","params":{"nStudents":24,"maxFlips":30,"completionMinutes":45,"basePay":8,"maxBonus":9,"perTrialBonus":0.5,"perTrialBonusThreshold":0.05,"exampleCost":0.01},"classroomParams":{"A":{"a":1,"b":4},"B":{"a":4,"b":1},"C":{"a":2,"b":8},"D":{"a":8,"b":2}},"conditions":["nonSeqFull","nonSeqPartial","seqNoFeedback","seqFeedback"],"classroomPairings":[["A","B"],["C","D"]],"coinWeights":[0.2,0.5,0.8],"subjectId":"A358YR7MWC6LRH","assignmentId":"3ZAK8W07I50RUDTRWMI2EZDH4R8U0Q","hitId":"3J94SKDEKIB2MY6CGVTNWB9X0ALD5P","url":"https://gershmanlab.com/experiments/alicia/teaching/experiment/?hitId=3J94SKDEKIB2MY6CGVTNWB9X0ALD5P&workerId=A358YR7MWC6LRH&assignmentId=3ZAK8W07I50RUDTRWMI2EZDH4R8U0Q&a=78AZ9&tp_a=78AZ9&b=3ZAK8W07I50RUDTRWMI2EZDH4R8U0Q&tp_b=3ZAK8W07I50RUDTRWMI2EZDH4R8U0Q&c=365799&tp_c=365799","heads":1,"tails":7,"studentIndex":8,"studentTrueHypers":{"a":2,"b":8},"studentGuess":0.16666666666666666,"delta":0.033333333333333354,"totalExamples":8,"bonus":0.42,"bonusSoFar":0.84},{"rt":null,"stimulus":"Sending examples to student... ","response":null,"trial_type":"html-keyboard-response","trial_index":73,"time_elapsed":1011675,"internal_node_id":"0.0-72.0","params":{"nStudents":24,"maxFlips":30,"completionMinutes":45,"basePay":8,"maxBonus":9,"perTrialBonus":0.5,"perTrialBonusThreshold":0.05,"exampleCost":0.01},"classroomParams":{"A":{"a":1,"b":4},"B":{"a":4,"b":1},"C":{"a":2,"b":8},"D":{"a":8,"b":2}},"conditions":["nonSeqFull","nonSeqPartial","seqNoFeedback","seqFeedback"],"classroomPairings":[["A","B"],["C","D"]],"coinWeights":[0.2,0.5,0.8],"subjectId":"A358YR7MWC6LRH","assignmentId":"3ZAK8W07I50RUDTRWMI2EZDH4R8U0Q","hitId":"3J94SKDEKIB2MY6CGVTNWB9X0ALD5P","url":"https://gershmanlab.com/experiments/alicia/teaching/experiment/?hitId=3J94SKDEKIB2MY6CGVTNWB9X0ALD5P&workerId=A358YR7MWC6LRH&assignmentId=3ZAK8W07I50RUDTRWMI2EZDH4R8U0Q&a=78AZ9&tp_a=78AZ9&b=3ZAK8W07I50RUDTRWMI2EZDH4R8U0Q&tp_b=3ZAK8W07I50RUDTRWMI2EZDH4R8U0Q&c=365799&tp_c=365799"},{"rt":null,"stimulus":"Examples sent to student! Waiting for student...","response":null,"trial_type":"html-keyboard-response","trial_index":74,"time_elapsed":1017684,"internal_node_id":"0.0-73.0","params":{"nStudents":24,"maxFlips":30,"completionMinutes":45,"basePay":8,"maxBonus":9,"perTrialBonus":0.5,"perTrialBonusThreshold":0.05,"exampleCost":0.01},"classroomParams":{"A":{"a":1,"b":4},"B":{"a":4,"b":1},"C":{"a":2,"b":8},"D":{"a":8,"b":2}},"conditions":["nonSeqFull","nonSeqPartial","seqNoFeedback","seqFeedback"],"classroomPairings":[["A","B"],["C","D"]],"coinWeights":[0.2,0.5,0.8],"subjectId":"A358YR7MWC6LRH","assignmentId":"3ZAK8W07I50RUDTRWMI2EZDH4R8U0Q","hitId":"3J94SKDEKIB2MY6CGVTNWB9X0ALD5P","url":"https://gershmanlab.com/experiments/alicia/teaching/experiment/?hitId=3J94SKDEKIB2MY6CGVTNWB9X0ALD5P&workerId=A358YR7MWC6LRH&assignmentId=3ZAK8W07I50RUDTRWMI2EZDH4R8U0Q&a=78AZ9&tp_a=78AZ9&b=3ZAK8W07I50RUDTRWMI2EZDH4R8U0Q&tp_b=3ZAK8W07I50RUDTRWMI2EZDH4R8U0Q&c=365799&tp_c=365799"},{"rt":2747,"stimulus":"\n                <p>Student's guess for coin weight: <b style=\"color:Tomato;\">0.17</b></p>\n                <p>You received a bonus of <b>$0.42</b>. Total bonus so far: <b>$0.84</b></b></p>\n                <p></p>\n                <p>Press any key to continue.</p>\n                ","response":" ","trial_type":"html-keyboard-response","trial_index":75,"time_elapsed":1020432,"internal_node_id":"0.0-74.0","params":{"nStudents":24,"maxFlips":30,"completionMinutes":45,"basePay":8,"maxBonus":9,"perTrialBonus":0.5,"perTrialBonusThreshold":0.05,"exampleCost":0.01},"classroomParams":{"A":{"a":1,"b":4},"B":{"a":4,"b":1},"C":{"a":2,"b":8},"D":{"a":8,"b":2}},"conditions":["nonSeqFull","nonSeqPartial","seqNoFeedback","seqFeedback"],"classroomPairings":[["A","B"],["C","D"]],"coinWeights":[0.2,0.5,0.8],"subjectId":"A358YR7MWC6LRH","assignmentId":"3ZAK8W07I50RUDTRWMI2EZDH4R8U0Q","hitId":"3J94SKDEKIB2MY6CGVTNWB9X0ALD5P","url":"https://gershmanlab.com/experiments/alicia/teaching/experiment/?hitId=3J94SKDEKIB2MY6CGVTNWB9X0ALD5P&workerId=A358YR7MWC6LRH&assignmentId=3ZAK8W07I50RUDTRWMI2EZDH4R8U0Q&a=78AZ9&tp_a=78AZ9&b=3ZAK8W07I50RUDTRWMI2EZDH4R8U0Q&tp_b=3ZAK8W07I50RUDTRWMI2EZDH4R8U0Q&c=365799&tp_c=365799"},{"rt":null,"stimulus":"<div style=\"font-size:60px;\">Next student</div>","response":null,"trial_type":"html-keyboard-response","trial_index":76,"time_elapsed":1022934,"internal_node_id":"0.0-75.0-0.0","params":{"nStudents":24,"maxFlips":30,"completionMinutes":45,"basePay":8,"maxBonus":9,"perTrialBonus":0.5,"perTrialBonusThreshold":0.05,"exampleCost":0.01},"classroomParams":{"A":{"a":1,"b":4},"B":{"a":4,"b":1},"C":{"a":2,"b":8},"D":{"a":8,"b":2}},"conditions":["nonSeqFull","nonSeqPartial","seqNoFeedback","seqFeedback"],"classroomPairings":[["A","B"],["C","D"]],"coinWeights":[0.2,0.5,0.8],"subjectId":"A358YR7MWC6LRH","assignmentId":"3ZAK8W07I50RUDTRWMI2EZDH4R8U0Q","hitId":"3J94SKDEKIB2MY6CGVTNWB9X0ALD5P","url":"https://gershmanlab.com/experiments/alicia/teaching/experiment/?hitId=3J94SKDEKIB2MY6CGVTNWB9X0ALD5P&workerId=A358YR7MWC6LRH&assignmentId=3ZAK8W07I50RUDTRWMI2EZDH4R8U0Q&a=78AZ9&tp_a=78AZ9&b=3ZAK8W07I50RUDTRWMI2EZDH4R8U0Q&tp_b=3ZAK8W07I50RUDTRWMI2EZDH4R8U0Q&c=365799&tp_c=365799"},{"rt":4493,"stimulus":"\n            <h4 style=\"color:Orange;\">Student 10</h4>\n            <h2>The weight of your coin is <b style=\"color:Tomato;\">0.8</b>.</h2>\n            <p>In this block, you will be giving <b>two</b> sets of examples to Student 10.</p>\n                <p>You will see the student's guess after the first set of examples. You will also receive feedback at the end of the block.</p>\n            <p>To earn the highest bonus, you will have to <b>take into consideration the student's guess</b> when you choose your second set of examples.</p>","response":0,"trial_type":"html-button-response","trial_index":77,"time_elapsed":1027429,"internal_node_id":"0.0-76.0","params":{"nStudents":24,"maxFlips":30,"completionMinutes":45,"basePay":8,"maxBonus":9,"perTrialBonus":0.5,"perTrialBonusThreshold":0.05,"exampleCost":0.01},"classroomParams":{"A":{"a":1,"b":4},"B":{"a":4,"b":1},"C":{"a":2,"b":8},"D":{"a":8,"b":2}},"conditions":["nonSeqFull","nonSeqPartial","seqNoFeedback","seqFeedback"],"classroomPairings":[["A","B"],["C","D"]],"coinWeights":[0.2,0.5,0.8],"subjectId":"A358YR7MWC6LRH","assignmentId":"3ZAK8W07I50RUDTRWMI2EZDH4R8U0Q","hitId":"3J94SKDEKIB2MY6CGVTNWB9X0ALD5P","url":"https://gershmanlab.com/experiments/alicia/teaching/experiment/?hitId=3J94SKDEKIB2MY6CGVTNWB9X0ALD5P&workerId=A358YR7MWC6LRH&assignmentId=3ZAK8W07I50RUDTRWMI2EZDH4R8U0Q&a=78AZ9&tp_a=78AZ9&b=3ZAK8W07I50RUDTRWMI2EZDH4R8U0Q&tp_b=3ZAK8W07I50RUDTRWMI2EZDH4R8U0Q&c=365799&tp_c=365799"},{"rt":8398,"response":{"heads":"5","tails":"1"},"type":"response","condition":"seqFeedback","trueTheta":0.8,"classrooms":["A","B"],"studentTrueClassroom":"B","exampleSet":"first","trial_type":"survey-html-form","trial_index":78,"time_elapsed":1035829,"internal_node_id":"0.0-77.0-0.0","params":{"nStudents":24,"maxFlips":30,"completionMinutes":45,"basePay":8,"maxBonus":9,"perTrialBonus":0.5,"perTrialBonusThreshold":0.05,"exampleCost":0.01},"classroomParams":{"A":{"a":1,"b":4},"B":{"a":4,"b":1},"C":{"a":2,"b":8},"D":{"a":8,"b":2}},"conditions":["nonSeqFull","nonSeqPartial","seqNoFeedback","seqFeedback"],"classroomPairings":[["A","B"],["C","D"]],"coinWeights":[0.2,0.5,0.8],"subjectId":"A358YR7MWC6LRH","assignmentId":"3ZAK8W07I50RUDTRWMI2EZDH4R8U0Q","hitId":"3J94SKDEKIB2MY6CGVTNWB9X0ALD5P","url":"https://gershmanlab.com/experiments/alicia/teaching/experiment/?hitId=3J94SKDEKIB2MY6CGVTNWB9X0ALD5P&workerId=A358YR7MWC6LRH&assignmentId=3ZAK8W07I50RUDTRWMI2EZDH4R8U0Q&a=78AZ9&tp_a=78AZ9&b=3ZAK8W07I50RUDTRWMI2EZDH4R8U0Q&tp_b=3ZAK8W07I50RUDTRWMI2EZDH4R8U0Q&c=365799&tp_c=365799","heads":5,"tails":1,"studentIndex":9,"studentTrueHypers":{"a":4,"b":1},"studentGuess":0.8181818181818182,"delta":0.018181818181818188,"totalExamples":6,"bonusSoFar":0.84},{"rt":null,"stimulus":"Sending examples to student... ","response":null,"trial_type":"html-keyboard-response","trial_index":79,"time_elapsed":1037094,"internal_node_id":"0.0-78.0","params":{"nStudents":24,"maxFlips":30,"completionMinutes":45,"basePay":8,"maxBonus":9,"perTrialBonus":0.5,"perTrialBonusThreshold":0.05,"exampleCost":0.01},"classroomParams":{"A":{"a":1,"b":4},"B":{"a":4,"b":1},"C":{"a":2,"b":8},"D":{"a":8,"b":2}},"conditions":["nonSeqFull","nonSeqPartial","seqNoFeedback","seqFeedback"],"classroomPairings":[["A","B"],["C","D"]],"coinWeights":[0.2,0.5,0.8],"subjectId":"A358YR7MWC6LRH","assignmentId":"3ZAK8W07I50RUDTRWMI2EZDH4R8U0Q","hitId":"3J94SKDEKIB2MY6CGVTNWB9X0ALD5P","url":"https://gershmanlab.com/experiments/alicia/teaching/experiment/?hitId=3J94SKDEKIB2MY6CGVTNWB9X0ALD5P&workerId=A358YR7MWC6LRH&assignmentId=3ZAK8W07I50RUDTRWMI2EZDH4R8U0Q&a=78AZ9&tp_a=78AZ9&b=3ZAK8W07I50RUDTRWMI2EZDH4R8U0Q&tp_b=3ZAK8W07I50RUDTRWMI2EZDH4R8U0Q&c=365799&tp_c=365799"},{"rt":null,"stimulus":"Examples sent to student! Waiting for student...","response":null,"trial_type":"html-keyboard-response","trial_index":80,"time_elapsed":1042596,"internal_node_id":"0.0-79.0","params":{"nStudents":24,"maxFlips":30,"completionMinutes":45,"basePay":8,"maxBonus":9,"perTrialBonus":0.5,"perTrialBonusThreshold":0.05,"exampleCost":0.01},"classroomParams":{"A":{"a":1,"b":4},"B":{"a":4,"b":1},"C":{"a":2,"b":8},"D":{"a":8,"b":2}},"conditions":["nonSeqFull","nonSeqPartial","seqNoFeedback","seqFeedback"],"classroomPairings":[["A","B"],["C","D"]],"coinWeights":[0.2,0.5,0.8],"subjectId":"A358YR7MWC6LRH","assignmentId":"3ZAK8W07I50RUDTRWMI2EZDH4R8U0Q","hitId":"3J94SKDEKIB2MY6CGVTNWB9X0ALD5P","url":"https://gershmanlab.com/experiments/alicia/teaching/experiment/?hitId=3J94SKDEKIB2MY6CGVTNWB9X0ALD5P&workerId=A358YR7MWC6LRH&assignmentId=3ZAK8W07I50RUDTRWMI2EZDH4R8U0Q&a=78AZ9&tp_a=78AZ9&b=3ZAK8W07I50RUDTRWMI2EZDH4R8U0Q&tp_b=3ZAK8W07I50RUDTRWMI2EZDH4R8U0Q&c=365799&tp_c=365799"},{"rt":5108,"stimulus":"\n                <p>Student's guess for coin weight: <b style=\"color:Tomato;\">0.82</b></p>\n                <p></b></p>\n                <p>You will now send another set of examples to your student. <b>Remember to take your student's guess into consideration so that you can earn the highest bonus possible!</b> </p>\n                <p>Press any key to continue.</p>\n                ","response":" ","trial_type":"html-keyboard-response","trial_index":81,"time_elapsed":1047705,"internal_node_id":"0.0-80.0","params":{"nStudents":24,"maxFlips":30,"completionMinutes":45,"basePay":8,"maxBonus":9,"perTrialBonus":0.5,"perTrialBonusThreshold":0.05,"exampleCost":0.01},"classroomParams":{"A":{"a":1,"b":4},"B":{"a":4,"b":1},"C":{"a":2,"b":8},"D":{"a":8,"b":2}},"conditions":["nonSeqFull","nonSeqPartial","seqNoFeedback","seqFeedback"],"classroomPairings":[["A","B"],["C","D"]],"coinWeights":[0.2,0.5,0.8],"subjectId":"A358YR7MWC6LRH","assignmentId":"3ZAK8W07I50RUDTRWMI2EZDH4R8U0Q","hitId":"3J94SKDEKIB2MY6CGVTNWB9X0ALD5P","url":"https://gershmanlab.com/experiments/alicia/teaching/experiment/?hitId=3J94SKDEKIB2MY6CGVTNWB9X0ALD5P&workerId=A358YR7MWC6LRH&assignmentId=3ZAK8W07I50RUDTRWMI2EZDH4R8U0Q&a=78AZ9&tp_a=78AZ9&b=3ZAK8W07I50RUDTRWMI2EZDH4R8U0Q&tp_b=3ZAK8W07I50RUDTRWMI2EZDH4R8U0Q&c=365799&tp_c=365799"},{"rt":13930,"response":{"heads":"5","tails":"1"},"type":"response","condition":"seqFeedback","trueTheta":0.8,"classrooms":["A","B"],"studentTrueClassroom":"B","exampleSet":"second","trial_type":"survey-html-form","trial_index":82,"time_elapsed":1061636,"internal_node_id":"0.0-81.0-0.0","params":{"nStudents":24,"maxFlips":30,"completionMinutes":45,"basePay":8,"maxBonus":9,"perTrialBonus":0.5,"perTrialBonusThreshold":0.05,"exampleCost":0.01},"classroomParams":{"A":{"a":1,"b":4},"B":{"a":4,"b":1},"C":{"a":2,"b":8},"D":{"a":8,"b":2}},"conditions":["nonSeqFull","nonSeqPartial","seqNoFeedback","seqFeedback"],"classroomPairings":[["A","B"],["C","D"]],"coinWeights":[0.2,0.5,0.8],"subjectId":"A358YR7MWC6LRH","assignmentId":"3ZAK8W07I50RUDTRWMI2EZDH4R8U0Q","hitId":"3J94SKDEKIB2MY6CGVTNWB9X0ALD5P","url":"https://gershmanlab.com/experiments/alicia/teaching/experiment/?hitId=3J94SKDEKIB2MY6CGVTNWB9X0ALD5P&workerId=A358YR7MWC6LRH&assignmentId=3ZAK8W07I50RUDTRWMI2EZDH4R8U0Q&a=78AZ9&tp_a=78AZ9&b=3ZAK8W07I50RUDTRWMI2EZDH4R8U0Q&tp_b=3ZAK8W07I50RUDTRWMI2EZDH4R8U0Q&c=365799&tp_c=365799","firstResponseHeads":5,"firstResponseTails":1,"secondResponseHeads":5,"secondResponseTails":1,"totalHeads":10,"totalTails":2,"studentIndex":9,"studentTrueHypers":{"a":4,"b":1},"studentGuess":0.8235294117647058,"delta":0.0235294117647058,"bonus":0.38,"bonusSoFar":1.22,"totalExamples":12},{"rt":null,"stimulus":"Sending examples to student... ","response":null,"trial_type":"html-keyboard-response","trial_index":83,"time_elapsed":1063647,"internal_node_id":"0.0-82.0","params":{"nStudents":24,"maxFlips":30,"completionMinutes":45,"basePay":8,"maxBonus":9,"perTrialBonus":0.5,"perTrialBonusThreshold":0.05,"exampleCost":0.01},"classroomParams":{"A":{"a":1,"b":4},"B":{"a":4,"b":1},"C":{"a":2,"b":8},"D":{"a":8,"b":2}},"conditions":["nonSeqFull","nonSeqPartial","seqNoFeedback","seqFeedback"],"classroomPairings":[["A","B"],["C","D"]],"coinWeights":[0.2,0.5,0.8],"subjectId":"A358YR7MWC6LRH","assignmentId":"3ZAK8W07I50RUDTRWMI2EZDH4R8U0Q","hitId":"3J94SKDEKIB2MY6CGVTNWB9X0ALD5P","url":"https://gershmanlab.com/experiments/alicia/teaching/experiment/?hitId=3J94SKDEKIB2MY6CGVTNWB9X0ALD5P&workerId=A358YR7MWC6LRH&assignmentId=3ZAK8W07I50RUDTRWMI2EZDH4R8U0Q&a=78AZ9&tp_a=78AZ9&b=3ZAK8W07I50RUDTRWMI2EZDH4R8U0Q&tp_b=3ZAK8W07I50RUDTRWMI2EZDH4R8U0Q&c=365799&tp_c=365799"},{"rt":null,"stimulus":"Examples sent to student! Waiting for student...","response":null,"trial_type":"html-keyboard-response","trial_index":84,"time_elapsed":1068148,"internal_node_id":"0.0-83.0","params":{"nStudents":24,"maxFlips":30,"completionMinutes":45,"basePay":8,"maxBonus":9,"perTrialBonus":0.5,"perTrialBonusThreshold":0.05,"exampleCost":0.01},"classroomParams":{"A":{"a":1,"b":4},"B":{"a":4,"b":1},"C":{"a":2,"b":8},"D":{"a":8,"b":2}},"conditions":["nonSeqFull","nonSeqPartial","seqNoFeedback","seqFeedback"],"classroomPairings":[["A","B"],["C","D"]],"coinWeights":[0.2,0.5,0.8],"subjectId":"A358YR7MWC6LRH","assignmentId":"3ZAK8W07I50RUDTRWMI2EZDH4R8U0Q","hitId":"3J94SKDEKIB2MY6CGVTNWB9X0ALD5P","url":"https://gershmanlab.com/experiments/alicia/teaching/experiment/?hitId=3J94SKDEKIB2MY6CGVTNWB9X0ALD5P&workerId=A358YR7MWC6LRH&assignmentId=3ZAK8W07I50RUDTRWMI2EZDH4R8U0Q&a=78AZ9&tp_a=78AZ9&b=3ZAK8W07I50RUDTRWMI2EZDH4R8U0Q&tp_b=3ZAK8W07I50RUDTRWMI2EZDH4R8U0Q&c=365799&tp_c=365799"},{"rt":3760,"stimulus":"\n                <p>Student 10's first guess for coin weight: <b style=\"color:Tomato\";>0.82</b></p>\n                <p>Student 10's second guess for coin weight: <b style=\"color:Tomato\";>0.82</b></p>\n                <p>You received a bonus of <b>$0.38</b> based on the student's second guess.</p>\n                <p>Total bonus so far: <b>$1.22</b></p>\n                <p>Press any key to continue.</p>\n                ","response":" ","trial_type":"html-keyboard-response","trial_index":85,"time_elapsed":1071910,"internal_node_id":"0.0-84.0","params":{"nStudents":24,"maxFlips":30,"completionMinutes":45,"basePay":8,"maxBonus":9,"per