[{"rt":1940,"stimulus":"Welcome to the experiment. Press any key to begin.","response":"enter","trial_type":"html-keyboard-response","trial_index":0,"time_elapsed":1965,"internal_node_id":"0.0-0.0","params":{"nStudents":24,"maxFlips":30,"completionMinutes":45,"basePay":8,"maxBonus":9,"perTrialBonus":0.5,"perTrialBonusThreshold":0.05,"exampleCost":0.01},"classroomParams":{"A":{"a":1,"b":4},"B":{"a":4,"b":1},"C":{"a":2,"b":8},"D":{"a":8,"b":2}},"conditions":["nonSeqFull","nonSeqPartial","seqNoFeedback","seqFeedback"],"classroomPairings":[["A","B"],["C","D"]],"coinWeights":[0.2,0.5,0.8],"subjectId":"A38240X9B0EBKE","assignmentId":"3FK0YFF9P0270TJ749GWVE5QCT9VVL","hitId":"34KYK9TV2RUAD363EVFPUWVPB97SBP","url":"https://gershmanlab.com/experiments/alicia/teaching/experiment/?hitId=34KYK9TV2RUAD363EVFPUWVPB97SBP&workerId=A38240X9B0EBKE&assignmentId=3FK0YFF9P0270TJ749GWVE5QCT9VVL&a=9YKF7&tp_a=9YKF7&b=3FK0YFF9P0270TJ749GWVE5QCT9VVL&tp_b=3FK0YFF9P0270TJ749GWVE5QCT9VVL&c=365717&tp_c=365717"},{"rt":17444,"stimulus":"\n        <h3>Please read this consent agreement carefully before deciding whether to participate in this experiment.</h3>\n        <p><b>Purpose of the research:</b> To examine how people teach effectively.</p>\n        <p><b>What you will do in this research:</b> You will teach students the weights of different coins.</p>\n        <p><b>Time required:</b> This experiment will take 45 minutes to complete.</p>\n        <p><b>Risks:</b> There are no anticipated risks associated with participating in this study.             The effects of participating should be comparable to those you would experience from viewing a computer monitor             and using a mouse and keyboard for the duration of the experiment.</p>\n        <p><b>Benefits:</b> The study provides important information about the nature of teaching.</p>\n        <p><b>Compensation:</b> You will receive <b>$8</b> for completing the experiment and a performance bonus of up to <b>$9</b>.</p>\n        <p><b>Confidentiality:</b> Your participation in this study will remain confidential.             No personally identifiable information will be associated with your data.             Your de-identified data may be shared with other researchers and used in future projects.</p>\n        <p><b>Participation and withdrawal:</b> Your participation in this study is completely voluntary and             you may refuse to participate or you may choose to withdraw at any time without penalty or loss of\n            benefits to which you are otherwise entitled.</p>\n        <p><b>How to contact the researcher:</b> If you have questions or concerns about your participation            or payment, or want to request a summary of research findings, please contact\n            Alicia Chen, aliciachen@college.harvard.edu.</p>\n        <p><b>Whom to contact about your rights in this research:</b> For questions, concerns, suggestions,             or complaints that have not been or cannot be addressed by the researcher, or to report             research-related harm, please contact the Committee on the Use of Human Subjects in Research at Harvard University,             1414 Massachusetts Avenue, Second Floor, Cambridge, MA 02138. Phone: 617-496-2847. Email: cuhs@fas.harvard.edu.</p>\n        ","response":0,"trial_type":"html-button-response","trial_index":1,"time_elapsed":19411,"internal_node_id":"0.0-1.0","params":{"nStudents":24,"maxFlips":30,"completionMinutes":45,"basePay":8,"maxBonus":9,"perTrialBonus":0.5,"perTrialBonusThreshold":0.05,"exampleCost":0.01},"classroomParams":{"A":{"a":1,"b":4},"B":{"a":4,"b":1},"C":{"a":2,"b":8},"D":{"a":8,"b":2}},"conditions":["nonSeqFull","nonSeqPartial","seqNoFeedback","seqFeedback"],"classroomPairings":[["A","B"],["C","D"]],"coinWeights":[0.2,0.5,0.8],"subjectId":"A38240X9B0EBKE","assignmentId":"3FK0YFF9P0270TJ749GWVE5QCT9VVL","hitId":"34KYK9TV2RUAD363EVFPUWVPB97SBP","url":"https://gershmanlab.com/experiments/alicia/teaching/experiment/?hitId=34KYK9TV2RUAD363EVFPUWVPB97SBP&workerId=A38240X9B0EBKE&assignmentId=3FK0YFF9P0270TJ749GWVE5QCT9VVL&a=9YKF7&tp_a=9YKF7&b=3FK0YFF9P0270TJ749GWVE5QCT9VVL&tp_b=3FK0YFF9P0270TJ749GWVE5QCT9VVL&c=365717&tp_c=365717"},{"view_history":[{"page_index":0,"viewing_time":8480},{"page_index":1,"viewing_time":36310},{"page_index":2,"viewing_time":30898},{"page_index":3,"viewing_time":24823},{"page_index":4,"viewing_time":7477},{"page_index":5,"viewing_time":10088},{"page_index":6,"viewing_time":56614}],"rt":174691,"trial_type":"instructions","trial_index":2,"time_elapsed":193656,"internal_node_id":"0.0-2.0-0.0","params":{"nStudents":24,"maxFlips":30,"completionMinutes":45,"basePay":8,"maxBonus":9,"perTrialBonus":0.5,"perTrialBonusThreshold":0.05,"exampleCost":0.01},"classroomParams":{"A":{"a":1,"b":4},"B":{"a":4,"b":1},"C":{"a":2,"b":8},"D":{"a":8,"b":2}},"conditions":["nonSeqFull","nonSeqPartial","seqNoFeedback","seqFeedback"],"classroomPairings":[["A","B"],["C","D"]],"coinWeights":[0.2,0.5,0.8],"subjectId":"A38240X9B0EBKE","assignmentId":"3FK0YFF9P0270TJ749GWVE5QCT9VVL","hitId":"34KYK9TV2RUAD363EVFPUWVPB97SBP","url":"https://gershmanlab.com/experiments/alicia/teaching/experiment/?hitId=34KYK9TV2RUAD363EVFPUWVPB97SBP&workerId=A38240X9B0EBKE&assignmentId=3FK0YFF9P0270TJ749GWVE5QCT9VVL&a=9YKF7&tp_a=9YKF7&b=3FK0YFF9P0270TJ749GWVE5QCT9VVL&tp_b=3FK0YFF9P0270TJ749GWVE5QCT9VVL&c=365717&tp_c=365717"},{"rt":186481,"response":{"Q0":"Students in different classrooms have seen a different proportion of fair and unfair coins before seeing the examples you select for them.","Q1":"By <b>considering the student's classroom information</b> so that I can teach efficiently and accurately/helpfully at the same time (because each example I give to the student costs money!).","Q2":"The coin lands heads 90% of the time.","Q3":"No, I will teach a <b>new</b> student each time.","Q4":"The students are also on the same alien planet as you, where coins can be unfair.","Q5":"Based on the student's second (and final) guess."},"question_order":[0,4,2,3,5,1],"trial_type":"survey-multi-choice","trial_index":3,"time_elapsed":379824,"internal_node_id":"0.0-2.0-1.0","params":{"nStudents":24,"maxFlips":30,"completionMinutes":45,"basePay":8,"maxBonus":9,"perTrialBonus":0.5,"perTrialBonusThreshold":0.05,"exampleCost":0.01},"classroomParams":{"A":{"a":1,"b":4},"B":{"a":4,"b":1},"C":{"a":2,"b":8},"D":{"a":8,"b":2}},"conditions":["nonSeqFull","nonSeqPartial","seqNoFeedback","seqFeedback"],"classroomPairings":[["A","B"],["C","D"]],"coinWeights":[0.2,0.5,0.8],"subjectId":"A38240X9B0EBKE","assignmentId":"3FK0YFF9P0270TJ749GWVE5QCT9VVL","hitId":"34KYK9TV2RUAD363EVFPUWVPB97SBP","url":"https://gershmanlab.com/experiments/alicia/teaching/experiment/?hitId=34KYK9TV2RUAD363EVFPUWVPB97SBP&workerId=A38240X9B0EBKE&assignmentId=3FK0YFF9P0270TJ749GWVE5QCT9VVL&a=9YKF7&tp_a=9YKF7&b=3FK0YFF9P0270TJ749GWVE5QCT9VVL&tp_b=3FK0YFF9P0270TJ749GWVE5QCT9VVL&c=365717&tp_c=365717","pass":false},{"rt":2884,"stimulus":"Oops, you have missed question(s) on the comprehension check! We'll show you the instructions again.","response":0,"trial_type":"html-button-response","trial_index":4,"time_elapsed":382715,"internal_node_id":"0.0-2.0-2.0-0.0","params":{"nStudents":24,"maxFlips":30,"completionMinutes":45,"basePay":8,"maxBonus":9,"perTrialBonus":0.5,"perTrialBonusThreshold":0.05,"exampleCost":0.01},"classroomParams":{"A":{"a":1,"b":4},"B":{"a":4,"b":1},"C":{"a":2,"b":8},"D":{"a":8,"b":2}},"conditions":["nonSeqFull","nonSeqPartial","seqNoFeedback","seqFeedback"],"classroomPairings":[["A","B"],["C","D"]],"coinWeights":[0.2,0.5,0.8],"subjectId":"A38240X9B0EBKE","assignmentId":"3FK0YFF9P0270TJ749GWVE5QCT9VVL","hitId":"34KYK9TV2RUAD363EVFPUWVPB97SBP","url":"https://gershmanlab.com/experiments/alicia/teaching/experiment/?hitId=34KYK9TV2RUAD363EVFPUWVPB97SBP&workerId=A38240X9B0EBKE&assignmentId=3FK0YFF9P0270TJ749GWVE5QCT9VVL&a=9YKF7&tp_a=9YKF7&b=3FK0YFF9P0270TJ749GWVE5QCT9VVL&tp_b=3FK0YFF9P0270TJ749GWVE5QCT9VVL&c=365717&tp_c=365717"},{"view_history":[{"page_index":0,"viewing_time":1223},{"page_index":1,"viewing_time":443},{"page_index":2,"viewing_time":1218},{"page_index":3,"viewing_time":840},{"page_index":4,"viewing_time":1482},{"page_index":5,"viewing_time":4553},{"page_index":6,"viewing_time":2610}],"rt":12369,"trial_type":"instructions","trial_index":5,"time_elapsed":395085,"internal_node_id":"0.0-2.1-0.1","params":{"nStudents":24,"maxFlips":30,"completionMinutes":45,"basePay":8,"maxBonus":9,"perTrialBonus":0.5,"perTrialBonusThreshold":0.05,"exampleCost":0.01},"classroomParams":{"A":{"a":1,"b":4},"B":{"a":4,"b":1},"C":{"a":2,"b":8},"D":{"a":8,"b":2}},"conditions":["nonSeqFull","nonSeqPartial","seqNoFeedback","seqFeedback"],"classroomPairings":[["A","B"],["C","D"]],"coinWeights":[0.2,0.5,0.8],"subjectId":"A38240X9B0EBKE","assignmentId":"3FK0YFF9P0270TJ749GWVE5QCT9VVL","hitId":"34KYK9TV2RUAD363EVFPUWVPB97SBP","url":"https://gershmanlab.com/experiments/alicia/teaching/experiment/?hitId=34KYK9TV2RUAD363EVFPUWVPB97SBP&workerId=A38240X9B0EBKE&assignmentId=3FK0YFF9P0270TJ749GWVE5QCT9VVL&a=9YKF7&tp_a=9YKF7&b=3FK0YFF9P0270TJ749GWVE5QCT9VVL&tp_b=3FK0YFF9P0270TJ749GWVE5QCT9VVL&c=365717&tp_c=365717"},{"rt":21852,"response":{"Q0":"Students in different classrooms will have seen a different number of heads and tails before seeing the examples you select for them.","Q1":"By <b>considering the student's classroom information</b> so that I can teach efficiently and accurately/helpfully at the same time (because each example I give to the student costs money!).","Q2":"The coin lands heads 90% of the time.","Q3":"Yes, I might encounter the same student twice.","Q4":"The students are also on the same alien planet as you, where coins can be unfair.","Q5":"Based on the student's second (and final) guess."},"question_order":[3,4,5,1,0,2],"trial_type":"survey-multi-choice","trial_index":6,"time_elapsed":416940,"internal_node_id":"0.0-2.1-1.1","params":{"nStudents":24,"maxFlips":30,"completionMinutes":45,"basePay":8,"maxBonus":9,"perTrialBonus":0.5,"perTrialBonusThreshold":0.05,"exampleCost":0.01},"classroomParams":{"A":{"a":1,"b":4},"B":{"a":4,"b":1},"C":{"a":2,"b":8},"D":{"a":8,"b":2}},"conditions":["nonSeqFull","nonSeqPartial","seqNoFeedback","seqFeedback"],"classroomPairings":[["A","B"],["C","D"]],"coinWeights":[0.2,0.5,0.8],"subjectId":"A38240X9B0EBKE","assignmentId":"3FK0YFF9P0270TJ749GWVE5QCT9VVL","hitId":"34KYK9TV2RUAD363EVFPUWVPB97SBP","url":"https://gershmanlab.com/experiments/alicia/teaching/experiment/?hitId=34KYK9TV2RUAD363EVFPUWVPB97SBP&workerId=A38240X9B0EBKE&assignmentId=3FK0YFF9P0270TJ749GWVE5QCT9VVL&a=9YKF7&tp_a=9YKF7&b=3FK0YFF9P0270TJ749GWVE5QCT9VVL&tp_b=3FK0YFF9P0270TJ749GWVE5QCT9VVL&c=365717&tp_c=365717","pass":false},{"rt":1415,"stimulus":"Oops, you have missed question(s) on the comprehension check! We'll show you the instructions again.","response":0,"trial_type":"html-button-response","trial_index":7,"time_elapsed":418361,"internal_node_id":"0.0-2.1-2.1-0.1","params":{"nStudents":24,"maxFlips":30,"completionMinutes":45,"basePay":8,"maxBonus":9,"perTrialBonus":0.5,"perTrialBonusThreshold":0.05,"exampleCost":0.01},"classroomParams":{"A":{"a":1,"b":4},"B":{"a":4,"b":1},"C":{"a":2,"b":8},"D":{"a":8,"b":2}},"conditions":["nonSeqFull","nonSeqPartial","seqNoFeedback","seqFeedback"],"classroomPairings":[["A","B"],["C","D"]],"coinWeights":[0.2,0.5,0.8],"subjectId":"A38240X9B0EBKE","assignmentId":"3FK0YFF9P0270TJ749GWVE5QCT9VVL","hitId":"34KYK9TV2RUAD363EVFPUWVPB97SBP","url":"https://gershmanlab.com/experiments/alicia/teaching/experiment/?hitId=34KYK9TV2RUAD363EVFPUWVPB97SBP&workerId=A38240X9B0EBKE&assignmentId=3FK0YFF9P0270TJ749GWVE5QCT9VVL&a=9YKF7&tp_a=9YKF7&b=3FK0YFF9P0270TJ749GWVE5QCT9VVL&tp_b=3FK0YFF9P0270TJ749GWVE5QCT9VVL&c=365717&tp_c=365717"},{"view_history":[{"page_index":0,"viewing_time":689},{"page_index":1,"viewing_time":264},{"page_index":2,"viewing_time":1057},{"page_index":3,"viewing_time":449},{"page_index":4,"viewing_time":784},{"page_index":5,"viewing_time":1143},{"page_index":6,"viewing_time":1831}],"rt":6217,"trial_type":"instructions","trial_index":8,"time_elapsed":424579,"internal_node_id":"0.0-2.2-0.2","params":{"nStudents":24,"maxFlips":30,"completionMinutes":45,"basePay":8,"maxBonus":9,"perTrialBonus":0.5,"perTrialBonusThreshold":0.05,"exampleCost":0.01},"classroomParams":{"A":{"a":1,"b":4},"B":{"a":4,"b":1},"C":{"a":2,"b":8},"D":{"a":8,"b":2}},"conditions":["nonSeqFull","nonSeqPartial","seqNoFeedback","seqFeedback"],"classroomPairings":[["A","B"],["C","D"]],"coinWeights":[0.2,0.5,0.8],"subjectId":"A38240X9B0EBKE","assignmentId":"3FK0YFF9P0270TJ749GWVE5QCT9VVL","hitId":"34KYK9TV2RUAD363EVFPUWVPB97SBP","url":"https://gershmanlab.com/experiments/alicia/teaching/experiment/?hitId=34KYK9TV2RUAD363EVFPUWVPB97SBP&workerId=A38240X9B0EBKE&assignmentId=3FK0YFF9P0270TJ749GWVE5QCT9VVL&a=9YKF7&tp_a=9YKF7&b=3FK0YFF9P0270TJ749GWVE5QCT9VVL&tp_b=3FK0YFF9P0270TJ749GWVE5QCT9VVL&c=365717&tp_c=365717"},{"rt":59475,"response":{"Q0":"Students in different classrooms will have seen a different number of heads and tails before seeing the examples you select for them.","Q1":"By <b>considering the student's classroom information</b> so that I can teach efficiently and accurately/helpfully at the same time (because each example I give to the student costs money!).","Q2":"The coin lands heads 90% of the time.","Q3":"Yes, I might encounter the same student twice.","Q4":"The students are also on the same alien planet as you, where coins can be unfair.","Q5":"Based on the student's second (and final) guess."},"question_order":[5,1,3,2,4,0],"trial_type":"survey-multi-choice","trial_index":9,"time_elapsed":484011,"internal_node_id":"0.0-2.2-1.2","params":{"nStudents":24,"maxFlips":30,"completionMinutes":45,"basePay":8,"maxBonus":9,"perTrialBonus":0.5,"perTrialBonusThreshold":0.05,"exampleCost":0.01},"classroomParams":{"A":{"a":1,"b":4},"B":{"a":4,"b":1},"C":{"a":2,"b":8},"D":{"a":8,"b":2}},"conditions":["nonSeqFull","nonSeqPartial","seqNoFeedback","seqFeedback"],"classroomPairings":[["A","B"],["C","D"]],"coinWeights":[0.2,0.5,0.8],"subjectId":"A38240X9B0EBKE","assignmentId":"3FK0YFF9P0270TJ749GWVE5QCT9VVL","hitId":"34KYK9TV2RUAD363EVFPUWVPB97SBP","url":"https://gershmanlab.com/experiments/alicia/teaching/experiment/?hitId=34KYK9TV2RUAD363EVFPUWVPB97SBP&workerId=A38240X9B0EBKE&assignmentId=3FK0YFF9P0270TJ749GWVE5QCT9VVL&a=9YKF7&tp_a=9YKF7&b=3FK0YFF9P0270TJ749GWVE5QCT9VVL&tp_b=3FK0YFF9P0270TJ749GWVE5QCT9VVL&c=365717&tp_c=365717","pass":false},{"rt":1219,"stimulus":"Oops, you have missed question(s) on the comprehension check! We'll show you the instructions again.","response":0,"trial_type":"html-button-response","trial_index":10,"time_elapsed":485236,"internal_node_id":"0.0-2.2-2.2-0.2","params":{"nStudents":24,"maxFlips":30,"completionMinutes":45,"basePay":8,"maxBonus":9,"perTrialBonus":0.5,"perTrialBonusThreshold":0.05,"exampleCost":0.01},"classroomParams":{"A":{"a":1,"b":4},"B":{"a":4,"b":1},"C":{"a":2,"b":8},"D":{"a":8,"b":2}},"conditions":["nonSeqFull","nonSeqPartial","seqNoFeedback","seqFeedback"],"classroomPairings":[["A","B"],["C","D"]],"coinWeights":[0.2,0.5,0.8],"subjectId":"A38240X9B0EBKE","assignmentId":"3FK0YFF9P0270TJ749GWVE5QCT9VVL","hitId":"34KYK9TV2RUAD363EVFPUWVPB97SBP","url":"https://gershmanlab.com/experiments/alicia/teaching/experiment/?hitId=34KYK9TV2RUAD363EVFPUWVPB97SBP&workerId=A38240X9B0EBKE&assignmentId=3FK0YFF9P0270TJ749GWVE5QCT9VVL&a=9YKF7&tp_a=9YKF7&b=3FK0YFF9P0270TJ749GWVE5QCT9VVL&tp_b=3FK0YFF9P0270TJ749GWVE5QCT9VVL&c=365717&tp_c=365717"},{"view_history":[{"page_index":0,"viewing_time":767},{"page_index":1,"viewing_time":194},{"page_index":2,"viewing_time":793},{"page_index":3,"viewing_time":506},{"page_index":4,"viewing_time":729},{"page_index":5,"viewing_time":1033},{"page_index":6,"viewing_time":691}],"rt":4713,"trial_type":"instructions","trial_index":11,"time_elapsed":489950,"internal_node_id":"0.0-2.3-0.3","params":{"nStudents":24,"maxFlips":30,"completionMinutes":45,"basePay":8,"maxBonus":9,"perTrialBonus":0.5,"perTrialBonusThreshold":0.05,"exampleCost":0.01},"classroomParams":{"A":{"a":1,"b":4},"B":{"a":4,"b":1},"C":{"a":2,"b":8},"D":{"a":8,"b":2}},"conditions":["nonSeqFull","nonSeqPartial","seqNoFeedback","seqFeedback"],"classroomPairings":[["A","B"],["C","D"]],"coinWeights":[0.2,0.5,0.8],"subjectId":"A38240X9B0EBKE","assignmentId":"3FK0YFF9P0270TJ749GWVE5QCT9VVL","hitId":"34KYK9TV2RUAD363EVFPUWVPB97SBP","url":"https://gershmanlab.com/experiments/alicia/teaching/experiment/?hitId=34KYK9TV2RUAD363EVFPUWVPB97SBP&workerId=A38240X9B0EBKE&assignmentId=3FK0YFF9P0270TJ749GWVE5QCT9VVL&a=9YKF7&tp_a=9YKF7&b=3FK0YFF9P0270TJ749GWVE5QCT9VVL&tp_b=3FK0YFF9P0270TJ749GWVE5QCT9VVL&c=365717&tp_c=365717"},{"rt":36357,"response":{"Q0":"Students in different classrooms will have seen a different number of heads and tails before seeing the examples you select for them.","Q1":"By <b>considering the student's classroom information</b> so that I can teach efficiently and accurately/helpfully at the same time (because each example I give to the student costs money!).","Q2":"The coin lands heads 90% of the time.","Q3":"No, I will teach a <b>new</b> student each time.","Q4":"The students are also on the same alien planet as you, where coins can be unfair.","Q5":"Based on the student's second (and final) guess."},"question_order":[1,4,0,2,5,3],"trial_type":"survey-multi-choice","trial_index":12,"time_elapsed":526308,"internal_node_id":"0.0-2.3-1.3","params":{"nStudents":24,"maxFlips":30,"completionMinutes":45,"basePay":8,"maxBonus":9,"perTrialBonus":0.5,"perTrialBonusThreshold":0.05,"exampleCost":0.01},"classroomParams":{"A":{"a":1,"b":4},"B":{"a":4,"b":1},"C":{"a":2,"b":8},"D":{"a":8,"b":2}},"conditions":["nonSeqFull","nonSeqPartial","seqNoFeedback","seqFeedback"],"classroomPairings":[["A","B"],["C","D"]],"coinWeights":[0.2,0.5,0.8],"subjectId":"A38240X9B0EBKE","assignmentId":"3FK0YFF9P0270TJ749GWVE5QCT9VVL","hitId":"34KYK9TV2RUAD363EVFPUWVPB97SBP","url":"https://gershmanlab.com/experiments/alicia/teaching/experiment/?hitId=34KYK9TV2RUAD363EVFPUWVPB97SBP&workerId=A38240X9B0EBKE&assignmentId=3FK0YFF9P0270TJ749GWVE5QCT9VVL&a=9YKF7&tp_a=9YKF7&b=3FK0YFF9P0270TJ749GWVE5QCT9VVL&tp_b=3FK0YFF9P0270TJ749GWVE5QCT9VVL&c=365717&tp_c=365717","pass":true},{"rt":null,"stimulus":"<div style=\"font-size:30px;\">Congrats on passing the comprehension quiz! The experiment will begin in a few seconds.</div>","response":null,"trial_type":"html-keyboard-response","trial_index":13,"time_elapsed":529324,"internal_node_id":"0.0-3.0","params":{"nStudents":24,"maxFlips":30,"completionMinutes":45,"basePay":8,"maxBonus":9,"perTrialBonus":0.5,"perTrialBonusThreshold":0.05,"exampleCost":0.01},"classroomParams":{"A":{"a":1,"b":4},"B":{"a":4,"b":1},"C":{"a":2,"b":8},"D":{"a":8,"b":2}},"conditions":["nonSeqFull","nonSeqPartial","seqNoFeedback","seqFeedback"],"classroomPairings":[["A","B"],["C","D"]],"coinWeights":[0.2,0.5,0.8],"subjectId":"A38240X9B0EBKE","assignmentId":"3FK0YFF9P0270TJ749GWVE5QCT9VVL","hitId":"34KYK9TV2RUAD363EVFPUWVPB97SBP","url":"https://gershmanlab.com/experiments/alicia/teaching/experiment/?hitId=34KYK9TV2RUAD363EVFPUWVPB97SBP&workerId=A38240X9B0EBKE&assignmentId=3FK0YFF9P0270TJ749GWVE5QCT9VVL&a=9YKF7&tp_a=9YKF7&b=3FK0YFF9P0270TJ749GWVE5QCT9VVL&tp_b=3FK0YFF9P0270TJ749GWVE5QCT9VVL&c=365717&tp_c=365717"},{"rt":null,"stimulus":"<div style=\"font-size:50px;\">First student</div>","response":null,"trial_type":"html-keyboard-response","trial_index":14,"time_elapsed":532335,"internal_node_id":"0.0-4.0","params":{"nStudents":24,"maxFlips":30,"completionMinutes":45,"basePay":8,"maxBonus":9,"perTrialBonus":0.5,"perTrialBonusThreshold":0.05,"exampleCost":0.01},"classroomParams":{"A":{"a":1,"b":4},"B":{"a":4,"b":1},"C":{"a":2,"b":8},"D":{"a":8,"b":2}},"conditions":["nonSeqFull","nonSeqPartial","seqNoFeedback","seqFeedback"],"classroomPairings":[["A","B"],["C","D"]],"coinWeights":[0.2,0.5,0.8],"subjectId":"A38240X9B0EBKE","assignmentId":"3FK0YFF9P0270TJ749GWVE5QCT9VVL","hitId":"34KYK9TV2RUAD363EVFPUWVPB97SBP","url":"https://gershmanlab.com/experiments/alicia/teaching/experiment/?hitId=34KYK9TV2RUAD363EVFPUWVPB97SBP&workerId=A38240X9B0EBKE&assignmentId=3FK0YFF9P0270TJ749GWVE5QCT9VVL&a=9YKF7&tp_a=9YKF7&b=3FK0YFF9P0270TJ749GWVE5QCT9VVL&tp_b=3FK0YFF9P0270TJ749GWVE5QCT9VVL&c=365717&tp_c=365717"},{"rt":6470,"stimulus":"\n            <h4 style=\"color:Orange;\">Student 1</h4>\n            <h2>The weight of your coin is <b style=\"color:Tomato;\">0.5</b>.</h2>\n            <p>In this block, you will be giving <b>one</b> set of examples to Student 1.</p>\n                <p>You will receive feedback at the end of the block.</p>\n            <p></p>","response":0,"trial_type":"html-button-response","trial_index":15,"time_elapsed":538806,"internal_node_id":"0.0-5.0","params":{"nStudents":24,"maxFlips":30,"completionMinutes":45,"basePay":8,"maxBonus":9,"perTrialBonus":0.5,"perTrialBonusThreshold":0.05,"exampleCost":0.01},"classroomParams":{"A":{"a":1,"b":4},"B":{"a":4,"b":1},"C":{"a":2,"b":8},"D":{"a":8,"b":2}},"conditions":["nonSeqFull","nonSeqPartial","seqNoFeedback","seqFeedback"],"classroomPairings":[["A","B"],["C","D"]],"coinWeights":[0.2,0.5,0.8],"subjectId":"A38240X9B0EBKE","assignmentId":"3FK0YFF9P0270TJ749GWVE5QCT9VVL","hitId":"34KYK9TV2RUAD363EVFPUWVPB97SBP","url":"https://gershmanlab.com/experiments/alicia/teaching/experiment/?hitId=34KYK9TV2RUAD363EVFPUWVPB97SBP&workerId=A38240X9B0EBKE&assignmentId=3FK0YFF9P0270TJ749GWVE5QCT9VVL&a=9YKF7&tp_a=9YKF7&b=3FK0YFF9P0270TJ749GWVE5QCT9VVL&tp_b=3FK0YFF9P0270TJ749GWVE5QCT9VVL&c=365717&tp_c=365717"},{"rt":23148,"response":{"heads":"5","tails":"5"},"type":"response","condition":"nonSeqPartial","trueTheta":0.5,"classrooms":["C","D"],"studentTrueClassroom":"D","exampleSet":"first","trial_type":"survey-html-form","trial_index":16,"time_elapsed":561956,"internal_node_id":"0.0-6.0-0.0","params":{"nStudents":24,"maxFlips":30,"completionMinutes":45,"basePay":8,"maxBonus":9,"perTrialBonus":0.5,"perTrialBonusThreshold":0.05,"exampleCost":0.01},"classroomParams":{"A":{"a":1,"b":4},"B":{"a":4,"b":1},"C":{"a":2,"b":8},"D":{"a":8,"b":2}},"conditions":["nonSeqFull","nonSeqPartial","seqNoFeedback","seqFeedback"],"classroomPairings":[["A","B"],["C","D"]],"coinWeights":[0.2,0.5,0.8],"subjectId":"A38240X9B0EBKE","assignmentId":"3FK0YFF9P0270TJ749GWVE5QCT9VVL","hitId":"34KYK9TV2RUAD363EVFPUWVPB97SBP","url":"https://gershmanlab.com/experiments/alicia/teaching/experiment/?hitId=34KYK9TV2RUAD363EVFPUWVPB97SBP&workerId=A38240X9B0EBKE&assignmentId=3FK0YFF9P0270TJ749GWVE5QCT9VVL&a=9YKF7&tp_a=9YKF7&b=3FK0YFF9P0270TJ749GWVE5QCT9VVL&tp_b=3FK0YFF9P0270TJ749GWVE5QCT9VVL&c=365717&tp_c=365717","heads":5,"tails":5,"studentIndex":0,"studentTrueHypers":{"a":8,"b":2},"studentGuess":0.65,"delta":0.15000000000000002,"totalExamples":10,"bonus":0,"bonusSoFar":0},{"rt":null,"stimulus":"Sending examples to student... ","response":null,"trial_type":"html-keyboard-response","trial_index":17,"time_elapsed":563219,"internal_node_id":"0.0-7.0","params":{"nStudents":24,"maxFlips":30,"completionMinutes":45,"basePay":8,"maxBonus":9,"perTrialBonus":0.5,"perTrialBonusThreshold":0.05,"exampleCost":0.01},"classroomParams":{"A":{"a":1,"b":4},"B":{"a":4,"b":1},"C":{"a":2,"b":8},"D":{"a":8,"b":2}},"conditions":["nonSeqFull","nonSeqPartial","seqNoFeedback","seqFeedback"],"classroomPairings":[["A","B"],["C","D"]],"coinWeights":[0.2,0.5,0.8],"subjectId":"A38240X9B0EBKE","assignmentId":"3FK0YFF9P0270TJ749GWVE5QCT9VVL","hitId":"34KYK9TV2RUAD363EVFPUWVPB97SBP","url":"https://gershmanlab.com/experiments/alicia/teaching/experiment/?hitId=34KYK9TV2RUAD363EVFPUWVPB97SBP&workerId=A38240X9B0EBKE&assignmentId=3FK0YFF9P0270TJ749GWVE5QCT9VVL&a=9YKF7&tp_a=9YKF7&b=3FK0YFF9P0270TJ749GWVE5QCT9VVL&tp_b=3FK0YFF9P0270TJ749GWVE5QCT9VVL&c=365717&tp_c=365717"},{"rt":null,"stimulus":"Examples sent to student! Waiting for student...","response":null,"trial_type":"html-keyboard-response","trial_index":18,"time_elapsed":569221,"internal_node_id":"0.0-8.0","params":{"nStudents":24,"maxFlips":30,"completionMinutes":45,"basePay":8,"maxBonus":9,"perTrialBonus":0.5,"perTrialBonusThreshold":0.05,"exampleCost":0.01},"classroomParams":{"A":{"a":1,"b":4},"B":{"a":4,"b":1},"C":{"a":2,"b":8},"D":{"a":8,"b":2}},"conditions":["nonSeqFull","nonSeqPartial","seqNoFeedback","seqFeedback"],"classroomPairings":[["A","B"],["C","D"]],"coinWeights":[0.2,0.5,0.8],"subjectId":"A38240X9B0EBKE","assignmentId":"3FK0YFF9P0270TJ749GWVE5QCT9VVL","hitId":"34KYK9TV2RUAD363EVFPUWVPB97SBP","url":"https://gershmanlab.com/experiments/alicia/teaching/experiment/?hitId=34KYK9TV2RUAD363EVFPUWVPB97SBP&workerId=A38240X9B0EBKE&assignmentId=3FK0YFF9P0270TJ749GWVE5QCT9VVL&a=9YKF7&tp_a=9YKF7&b=3FK0YFF9P0270TJ749GWVE5QCT9VVL&tp_b=3FK0YFF9P0270TJ749GWVE5QCT9VVL&c=365717&tp_c=365717"},{"rt":4797,"stimulus":"\n                <p>Student's guess for coin weight: <b style=\"color:Tomato;\">0.65</b></p>\n                <p>You received a bonus of <b>$0</b>. Total bonus so far: <b>$0.00</b></b></p>\n                <p></p>\n                <p>Press any key to continue.</p>\n                ","response":"enter","trial_type":"html-keyboard-response","trial_index":19,"time_elapsed":574019,"internal_node_id":"0.0-9.0","params":{"nStudents":24,"maxFlips":30,"completionMinutes":45,"basePay":8,"maxBonus":9,"perTrialBonus":0.5,"perTrialBonusThreshold":0.05,"exampleCost":0.01},"classroomParams":{"A":{"a":1,"b":4},"B":{"a":4,"b":1},"C":{"a":2,"b":8},"D":{"a":8,"b":2}},"conditions":["nonSeqFull","nonSeqPartial","seqNoFeedback","seqFeedback"],"classroomPairings":[["A","B"],["C","D"]],"coinWeights":[0.2,0.5,0.8],"subjectId":"A38240X9B0EBKE","assignmentId":"3FK0YFF9P0270TJ749GWVE5QCT9VVL","hitId":"34KYK9TV2RUAD363EVFPUWVPB97SBP","url":"https://gershmanlab.com/experiments/alicia/teaching/experiment/?hitId=34KYK9TV2RUAD363EVFPUWVPB97SBP&workerId=A38240X9B0EBKE&assignmentId=3FK0YFF9P0270TJ749GWVE5QCT9VVL&a=9YKF7&tp_a=9YKF7&b=3FK0YFF9P0270TJ749GWVE5QCT9VVL&tp_b=3FK0YFF9P0270TJ749GWVE5QCT9VVL&c=365717&tp_c=365717"},{"rt":null,"stimulus":"<div style=\"font-size:60px;\">Next student</div>","response":null,"trial_type":"html-keyboard-response","trial_index":20,"time_elapsed":577036,"internal_node_id":"0.0-10.0-0.0","params":{"nStudents":24,"maxFlips":30,"completionMinutes":45,"basePay":8,"maxBonus":9,"perTrialBonus":0.5,"perTrialBonusThreshold":0.05,"exampleCost":0.01},"classroomParams":{"A":{"a":1,"b":4},"B":{"a":4,"b":1},"C":{"a":2,"b":8},"D":{"a":8,"b":2}},"conditions":["nonSeqFull","nonSeqPartial","seqNoFeedback","seqFeedback"],"classroomPairings":[["A","B"],["C","D"]],"coinWeights":[0.2,0.5,0.8],"subjectId":"A38240X9B0EBKE","assignmentId":"3FK0YFF9P0270TJ749GWVE5QCT9VVL","hitId":"34KYK9TV2RUAD363EVFPUWVPB97SBP","url":"https://gershmanlab.com/experiments/alicia/teaching/experiment/?hitId=34KYK9TV2RUAD363EVFPUWVPB97SBP&workerId=A38240X9B0EBKE&assignmentId=3FK0YFF9P0270TJ749GWVE5QCT9VVL&a=9YKF7&tp_a=9YKF7&b=3FK0YFF9P0270TJ749GWVE5QCT9VVL&tp_b=3FK0YFF9P0270TJ749GWVE5QCT9VVL&c=365717&tp_c=365717"},{"rt":3836,"stimulus":"\n            <h4 style=\"color:Orange;\">Student 2</h4>\n            <h2>The weight of your coin is <b style=\"color:Tomato;\">0.8</b>.</h2>\n            <p>In this block, you will be giving <b>two</b> sets of examples to Student 2.</p>\n                <p>You will see the student's guess after the first set of examples. You will also receive feedback at the end of the block.</p>\n            <p>To earn the highest bonus, you will have to <b>take into consideration the student's guess</b> when you choose your second set of examples.</p>","response":0,"trial_type":"html-button-response","trial_index":21,"time_elapsed":580873,"internal_node_id":"0.0-11.0","params":{"nStudents":24,"maxFlips":30,"completionMinutes":45,"basePay":8,"maxBonus":9,"perTrialBonus":0.5,"perTrialBonusThreshold":0.05,"exampleCost":0.01},"classroomParams":{"A":{"a":1,"b":4},"B":{"a":4,"b":1},"C":{"a":2,"b":8},"D":{"a":8,"b":2}},"conditions":["nonSeqFull","nonSeqPartial","seqNoFeedback","seqFeedback"],"classroomPairings":[["A","B"],["C","D"]],"coinWeights":[0.2,0.5,0.8],"subjectId":"A38240X9B0EBKE","assignmentId":"3FK0YFF9P0270TJ749GWVE5QCT9VVL","hitId":"34KYK9TV2RUAD363EVFPUWVPB97SBP","url":"https://gershmanlab.com/experiments/alicia/teaching/experiment/?hitId=34KYK9TV2RUAD363EVFPUWVPB97SBP&workerId=A38240X9B0EBKE&assignmentId=3FK0YFF9P0270TJ749GWVE5QCT9VVL&a=9YKF7&tp_a=9YKF7&b=3FK0YFF9P0270TJ749GWVE5QCT9VVL&tp_b=3FK0YFF9P0270TJ749GWVE5QCT9VVL&c=365717&tp_c=365717"},{"rt":32064,"response":{"heads":"16","tails":"4"},"type":"response","condition":"seqFeedback","trueTheta":0.8,"classrooms":["A","B"],"studentTrueClassroom":"B","exampleSet":"first","trial_type":"survey-html-form","trial_index":22,"time_elapsed":612938,"internal_node_id":"0.0-12.0-0.0","params":{"nStudents":24,"maxFlips":30,"completionMinutes":45,"basePay":8,"maxBonus":9,"perTrialBonus":0.5,"perTrialBonusThreshold":0.05,"exampleCost":0.01},"classroomParams":{"A":{"a":1,"b":4},"B":{"a":4,"b":1},"C":{"a":2,"b":8},"D":{"a":8,"b":2}},"conditions":["nonSeqFull","nonSeqPartial","seqNoFeedback","seqFeedback"],"classroomPairings":[["A","B"],["C","D"]],"coinWeights":[0.2,0.5,0.8],"subjectId":"A38240X9B0EBKE","assignmentId":"3FK0YFF9P0270TJ749GWVE5QCT9VVL","hitId":"34KYK9TV2RUAD363EVFPUWVPB97SBP","url":"https://gershmanlab.com/experiments/alicia/teaching/experiment/?hitId=34KYK9TV2RUAD363EVFPUWVPB97SBP&workerId=A38240X9B0EBKE&assignmentId=3FK0YFF9P0270TJ749GWVE5QCT9VVL&a=9YKF7&tp_a=9YKF7&b=3FK0YFF9P0270TJ749GWVE5QCT9VVL&tp_b=3FK0YFF9P0270TJ749GWVE5QCT9VVL&c=365717&tp_c=365717","heads":16,"tails":4,"studentIndex":1,"studentTrueHypers":{"a":4,"b":1},"studentGuess":0.8,"delta":0,"totalExamples":20,"bonusSoFar":0},{"rt":null,"stimulus":"Sending examples to student... ","response":null,"trial_type":"html-keyboard-response","trial_index":23,"time_elapsed":614942,"internal_node_id":"0.0-13.0","params":{"nStudents":24,"maxFlips":30,"completionMinutes":45,"basePay":8,"maxBonus":9,"perTrialBonus":0.5,"perTrialBonusThreshold":0.05,"exampleCost":0.01},"classroomParams":{"A":{"a":1,"b":4},"B":{"a":4,"b":1},"C":{"a":2,"b":8},"D":{"a":8,"b":2}},"conditions":["nonSeqFull","nonSeqPartial","seqNoFeedback","seqFeedback"],"classroomPairings":[["A","B"],["C","D"]],"coinWeights":[0.2,0.5,0.8],"subjectId":"A38240X9B0EBKE","assignmentId":"3FK0YFF9P0270TJ749GWVE5QCT9VVL","hitId":"34KYK9TV2RUAD363EVFPUWVPB97SBP","url":"https://gershmanlab.com/experiments/alicia/teaching/experiment/?hitId=34KYK9TV2RUAD363EVFPUWVPB97SBP&workerId=A38240X9B0EBKE&assignmentId=3FK0YFF9P0270TJ749GWVE5QCT9VVL&a=9YKF7&tp_a=9YKF7&b=3FK0YFF9P0270TJ749GWVE5QCT9VVL&tp_b=3FK0YFF9P0270TJ749GWVE5QCT9VVL&c=365717&tp_c=365717"},{"rt":null,"stimulus":"Examples sent to student! Waiting for student...","response":null,"trial_type":"html-keyboard-response","trial_index":24,"time_elapsed":619457,"internal_node_id":"0.0-14.0","params":{"nStudents":24,"maxFlips":30,"completionMinutes":45,"basePay":8,"maxBonus":9,"perTrialBonus":0.5,"perTrialBonusThreshold":0.05,"exampleCost":0.01},"classroomParams":{"A":{"a":1,"b":4},"B":{"a":4,"b":1},"C":{"a":2,"b":8},"D":{"a":8,"b":2}},"conditions":["nonSeqFull","nonSeqPartial","seqNoFeedback","seqFeedback"],"classroomPairings":[["A","B"],["C","D"]],"coinWeights":[0.2,0.5,0.8],"subjectId":"A38240X9B0EBKE","assignmentId":"3FK0YFF9P0270TJ749GWVE5QCT9VVL","hitId":"34KYK9TV2RUAD363EVFPUWVPB97SBP","url":"https://gershmanlab.com/experiments/alicia/teaching/experiment/?hitId=34KYK9TV2RUAD363EVFPUWVPB97SBP&workerId=A38240X9B0EBKE&assignmentId=3FK0YFF9P0270TJ749GWVE5QCT9VVL&a=9YKF7&tp_a=9YKF7&b=3FK0YFF9P0270TJ749GWVE5QCT9VVL&tp_b=3FK0YFF9P0270TJ749GWVE5QCT9VVL&c=365717&tp_c=365717"},{"rt":8308,"stimulus":"\n                <p>Student's guess for coin weight: <b style=\"color:Tomato;\">0.80</b></p>\n                <p></b></p>\n                <p>You will now send another set of examples to your student. <b>Remember to take your student's guess into consideration so that you can earn the highest bonus possible!</b> </p>\n                <p>Press any key to continue.</p>\n                ","response":" ","trial_type":"html-keyboard-response","trial_index":25,"time_elapsed":627766,"internal_node_id":"0.0-15.0","params":{"nStudents":24,"maxFlips":30,"completionMinutes":45,"basePay":8,"maxBonus":9,"perTrialBonus":0.5,"perTrialBonusThreshold":0.05,"exampleCost":0.01},"classroomParams":{"A":{"a":1,"b":4},"B":{"a":4,"b":1},"C":{"a":2,"b":8},"D":{"a":8,"b":2}},"conditions":["nonSeqFull","nonSeqPartial","seqNoFeedback","seqFeedback"],"classroomPairings":[["A","B"],["C","D"]],"coinWeights":[0.2,0.5,0.8],"subjectId":"A38240X9B0EBKE","assignmentId":"3FK0YFF9P0270TJ749GWVE5QCT9VVL","hitId":"34KYK9TV2RUAD363EVFPUWVPB97SBP","url":"https://gershmanlab.com/experiments/alicia/teaching/experiment/?hitId=34KYK9TV2RUAD363EVFPUWVPB97SBP&workerId=A38240X9B0EBKE&assignmentId=3FK0YFF9P0270TJ749GWVE5QCT9VVL&a=9YKF7&tp_a=9YKF7&b=3FK0YFF9P0270TJ749GWVE5QCT9VVL&tp_b=3FK0YFF9P0270TJ749GWVE5QCT9VVL&c=365717&tp_c=365717"},{"rt":7560,"response":{"heads":"16","tails":"4"},"type":"response","condition":"seqFeedback","trueTheta":0.8,"classrooms":["A","B"],"studentTrueClassroom":"B","exampleSet":"second","trial_type":"survey-html-form","trial_index":26,"time_elapsed":635328,"internal_node_id":"0.0-16.0-0.0","params":{"nStudents":24,"maxFlips":30,"completionMinutes":45,"basePay":8,"maxBonus":9,"perTrialBonus":0.5,"perTrialBonusThreshold":0.05,"exampleCost":0.01},"classroomParams":{"A":{"a":1,"b":4},"B":{"a":4,"b":1},"C":{"a":2,"b":8},"D":{"a":8,"b":2}},"conditions":["nonSeqFull","nonSeqPartial","seqNoFeedback","seqFeedback"],"classroomPairings":[["A","B"],["C","D"]],"coinWeights":[0.2,0.5,0.8],"subjectId":"A38240X9B0EBKE","assignmentId":"3FK0YFF9P0270TJ749GWVE5QCT9VVL","hitId":"34KYK9TV2RUAD363EVFPUWVPB97SBP","url":"https://gershmanlab.com/experiments/alicia/teaching/experiment/?hitId=34KYK9TV2RUAD363EVFPUWVPB97SBP&workerId=A38240X9B0EBKE&assignmentId=3FK0YFF9P0270TJ749GWVE5QCT9VVL&a=9YKF7&tp_a=9YKF7&b=3FK0YFF9P0270TJ749GWVE5QCT9VVL&tp_b=3FK0YFF9P0270TJ749GWVE5QCT9VVL&c=365717&tp_c=365717","firstResponseHeads":16,"firstResponseTails":4,"secondResponseHeads":16,"secondResponseTails":4,"totalHeads":32,"totalTails":8,"studentIndex":1,"studentTrueHypers":{"a":4,"b":1},"studentGuess":0.8,"delta":0,"bonus":0.1,"bonusSoFar":0.1,"totalExamples":40},{"rt":null,"stimulus":"Sending examples to student... ","response":null,"trial_type":"html-keyboard-response","trial_index":27,"time_elapsed":637337,"internal_node_id":"0.0-17.0","params":{"nStudents":24,"maxFlips":30,"completionMinutes":45,"basePay":8,"maxBonus":9,"perTrialBonus":0.5,"perTrialBonusThreshold":0.05,"exampleCost":0.01},"classroomParams":{"A":{"a":1,"b":4},"B":{"a":4,"b":1},"C":{"a":2,"b":8},"D":{"a":8,"b":2}},"conditions":["nonSeqFull","nonSeqPartial","seqNoFeedback","seqFeedback"],"classroomPairings":[["A","B"],["C","D"]],"coinWeights":[0.2,0.5,0.8],"subjectId":"A38240X9B0EBKE","assignmentId":"3FK0YFF9P0270TJ749GWVE5QCT9VVL","hitId":"34KYK9TV2RUAD363EVFPUWVPB97SBP","url":"https://gershmanlab.com/experiments/alicia/teaching/experiment/?hitId=34KYK9TV2RUAD363EVFPUWVPB97SBP&workerId=A38240X9B0EBKE&assignmentId=3FK0YFF9P0270TJ749GWVE5QCT9VVL&a=9YKF7&tp_a=9YKF7&b=3FK0YFF9P0270TJ749GWVE5QCT9VVL&tp_b=3FK0YFF9P0270TJ749GWVE5QCT9VVL&c=365717&tp_c=365717"},{"rt":null,"stimulus":"Examples sent to student! Waiting for student...","response":null,"trial_type":"html-keyboard-response","trial_index":28,"time_elapsed":643343,"internal_node_id":"0.0-18.0","params":{"nStudents":24,"maxFlips":30,"completionMinutes":45,"basePay":8,"maxBonus":9,"perTrialBonus":0.5,"perTrialBonusThreshold":0.05,"exampleCost":0.01},"classroomParams":{"A":{"a":1,"b":4},"B":{"a":4,"b":1},"C":{"a":2,"b":8},"D":{"a":8,"b":2}},"conditions":["nonSeqFull","nonSeqPartial","seqNoFeedback","seqFeedback"],"classroomPairings":[["A","B"],["C","D"]],"coinWeights":[0.2,0.5,0.8],"subjectId":"A38240X9B0EBKE","assignmentId":"3FK0YFF9P0270TJ749GWVE5QCT9VVL","hitId":"34KYK9TV2RUAD363EVFPUWVPB97SBP","url":"https://gershmanlab.com/experiments/alicia/teaching/experiment/?hitId=34KYK9TV2RUAD363EVFPUWVPB97SBP&workerId=A38240X9B0EBKE&assignmentId=3FK0YFF9P0270TJ749GWVE5QCT9VVL&a=9YKF7&tp_a=9YKF7&b=3FK0YFF9P0270TJ749GWVE5QCT9VVL&tp_b=3FK0YFF9P0270TJ749GWVE5QCT9VVL&c=365717&tp_c=365717"},{"rt":4291,"stimulus":"\n                <p>Student 2's first guess for coin weight: <b style=\"color:Tomato\";>0.80</b></p>\n                <p>Student 2's second guess for coin weight: <b style=\"color:Tomato\";>0.80</b></p>\n                <p>You received a bonus of <b>$0.10</b> based on the student's second guess.</p>\n                <p>Total bonus so far: <b>$0.10</b></p>\n                <p>Press any key to continue.</p>\n                ","response":" ","trial_type":"html-keyboard-response","trial_index":29,"time_elapsed":647635,"internal_node_id":"0.0-19.0","params":{"nStudents":24,"maxFlips":30,"completionMinutes":45,"basePay":8,"maxBonus":9,"perTrialBonus":0.5,"perTrialBonusThreshold":0.05,"exampleCost":0.01},"classroomParams":{"A":{"a":1,"b":4},"B":{"a":4,"b":1},"C":{"a":2,"b":8},"D":{"a":8,"b":2}},"conditions":["nonSeqFull","nonSeqPartial","seqNoFeedback","seqFeedback"],"classroomPairings":[["A","B"],["C","D"]],"coinWeights":[0.2,0.5,0.8],"subjectId":"A38240X9B0EBKE","assignmentId":"3FK0YFF9P0270TJ749GWVE5QCT9VVL","hitId":"34KYK9TV2RUAD363EVFPUWVPB97SBP","url":"https://gershmanlab.com/experiments/alicia/teaching/experiment/?hitId=34KYK9TV2RUAD363EVFPUWVPB97SBP&workerId=A38240X9B0EBKE&assignmentId=3FK0YFF9P0270TJ749GWVE5QCT9VVL&a=9YKF7&tp_a=9YKF7&b=3FK0YFF9P0270TJ749GWVE5QCT9VVL&tp_b=3FK0YFF9P0270TJ749GWVE5QCT9VVL&c=365717&tp_c=365717"},{"rt":null,"stimulus":"<div style=\"font-size:60px;\">Next student</div>","response":null,"trial_type":"html-keyboard-response","trial_index":30,"time_elapsed":649636,"internal_node_id":"0.0-20.0-0.0","params":{"nStudents":24,"maxFlips":30,"completionMinutes":45,"basePay":8,"maxBonus":9,"perTrialBonus":0.5,"perTrialBonusThreshold":0.05,"exampleCost":0.01},"classroomParams":{"A":{"a":1,"b":4},"B":{"a":4,"b":1},"C":{"a":2,"b":8},"D":{"a":8,"b":2}},"conditions":["nonSeqFull","nonSeqPartial","seqNoFeedback","seqFeedback"],"classroomPairings":[["A","B"],["C","D"]],"coinWeights":[0.2,0.5,0.8],"subjectId":"A38240X9B0EBKE","assignmentId":"3FK0YFF9P0270TJ749GWVE5QCT9VVL","hitId":"34KYK9TV2RUAD363EVFPUWVPB97SBP","url":"https://gershmanlab.com/experiments/alicia/teaching/experiment/?hitId=34KYK9TV2RUAD363EVFPUWVPB97SBP&workerId=A38240X9B0EBKE&assignmentId=3FK0YFF9P0270TJ749GWVE5QCT9VVL&a=9YKF7&tp_a=9YKF7&b=3FK0YFF9P0270TJ749GWVE5QCT9VVL&tp_b=3FK0YFF9P0270TJ749GWVE5QCT9VVL&c=365717&tp_c=365717"},{"rt":2055,"stimulus":"\n            <h4 style=\"color:Orange;\">Student 3</h4>\n            <h2>The weight of your coin is <b style=\"color:Tomato;\">0.5</b>.</h2>\n            <p>In this block, you will be giving <b>two</b> sets of examples to Student 3.</p>\n                <p>You will receive feedback at the end of the block.</p>\n            <p></p>","response":0,"trial_type":"html-button-response","trial_index":31,"time_elapsed":651692,"internal_node_id":"0.0-21.0","params":{"nStudents":24,"maxFlips":30,"completionMinutes":45,"basePay":8,"maxBonus":9,"perTrialBonus":0.5,"perTrialBonusThreshold":0.05,"exampleCost":0.01},"classroomParams":{"A":{"a":1,"b":4},"B":{"a":4,"b":1},"C":{"a":2,"b":8},"D":{"a":8,"b":2}},"conditions":["nonSeqFull","nonSeqPartial","seqNoFeedback","seqFeedback"],"classroomPairings":[["A","B"],["C","D"]],"coinWeights":[0.2,0.5,0.8],"subjectId":"A38240X9B0EBKE","assignmentId":"3FK0YFF9P0270TJ749GWVE5QCT9VVL","hitId":"34KYK9TV2RUAD363EVFPUWVPB97SBP","url":"https://gershmanlab.com/experiments/alicia/teaching/experiment/?hitId=34KYK9TV2RUAD363EVFPUWVPB97SBP&workerId=A38240X9B0EBKE&assignmentId=3FK0YFF9P0270TJ749GWVE5QCT9VVL&a=9YKF7&tp_a=9YKF7&b=3FK0YFF9P0270TJ749GWVE5QCT9VVL&tp_b=3FK0YFF9P0270TJ749GWVE5QCT9VVL&c=365717&tp_c=365717"},{"rt":29057,"response":{"heads":"1","tails":"1"},"type":"response","condition":"seqNoFeedback","trueTheta":0.5,"classrooms":["C","D"],"studentTrueClassroom":"D","exampleSet":"first","trial_type":"survey-html-form","trial_index":32,"time_elapsed":680748,"internal_node_id":"0.0-22.0-0.0","params":{"nStudents":24,"maxFlips":30,"completionMinutes":45,"basePay":8,"maxBonus":9,"perTrialBonus":0.5,"perTrialBonusThreshold":0.05,"exampleCost":0.01},"classroomParams":{"A":{"a":1,"b":4},"B":{"a":4,"b":1},"C":{"a":2,"b":8},"D":{"a":8,"b":2}},"conditions":["nonSeqFull","nonSeqPartial","seqNoFeedback","seqFeedback"],"classroomPairings":[["A","B"],["C","D"]],"coinWeights":[0.2,0.5,0.8],"subjectId":"A38240X9B0EBKE","assignmentId":"3FK0YFF9P0270TJ749GWVE5QCT9VVL","hitId":"34KYK9TV2RUAD363EVFPUWVPB97SBP","url":"https://gershmanlab.com/experiments/alicia/teaching/experiment/?hitId=34KYK9TV2RUAD363EVFPUWVPB97SBP&workerId=A38240X9B0EBKE&assignmentId=3FK0YFF9P0270TJ749GWVE5QCT9VVL&a=9YKF7&tp_a=9YKF7&b=3FK0YFF9P0270TJ749GWVE5QCT9VVL&tp_b=3FK0YFF9P0270TJ749GWVE5QCT9VVL&c=365717&tp_c=365717","heads":1,"tails":1,"studentIndex":2,"studentTrueHypers":{"a":8,"b":2},"studentGuess":0.75,"delta":0.25,"totalExamples":2,"bonusSoFar":0.1},{"rt":null,"stimulus":"Sending examples to student... ","response":null,"trial_type":"html-keyboard-response","trial_index":33,"time_elapsed":682254,"internal_node_id":"0.0-23.0","params":{"nStudents":24,"maxFlips":30,"completionMinutes":45,"basePay":8,"maxBonus":9,"perTrialBonus":0.5,"perTrialBonusThreshold":0.05,"exampleCost":0.01},"classroomParams":{"A":{"a":1,"b":4},"B":{"a":4,"b":1},"C":{"a":2,"b":8},"D":{"a":8,"b":2}},"conditions":["nonSeqFull","nonSeqPartial","seqNoFeedback","seqFeedback"],"classroomPairings":[["A","B"],["C","D"]],"coinWeights":[0.2,0.5,0.8],"subjectId":"A38240X9B0EBKE","assignmentId":"3FK0YFF9P0270TJ749GWVE5QCT9VVL","hitId":"34KYK9TV2RUAD363EVFPUWVPB97SBP","url":"https://gershmanlab.com/experiments/alicia/teaching/experiment/?hitId=34KYK9TV2RUAD363EVFPUWVPB97SBP&workerId=A38240X9B0EBKE&assignmentId=3FK0YFF9P0270TJ749GWVE5QCT9VVL&a=9YKF7&tp_a=9YKF7&b=3FK0YFF9P0270TJ749GWVE5QCT9VVL&tp_b=3FK0YFF9P0270TJ749GWVE5QCT9VVL&c=365717&tp_c=365717"},{"rt":null,"stimulus":"Examples sent to student! Waiting for student...","response":null,"trial_type":"html-keyboard-response","trial_index":34,"time_elapsed":688279,"internal_node_id":"0.0-24.0","params":{"nStudents":24,"maxFlips":30,"completionMinutes":45,"basePay":8,"maxBonus":9,"perTrialBonus":0.5,"perTrialBonusThreshold":0.05,"exampleCost":0.01},"classroomParams":{"A":{"a":1,"b":4},"B":{"a":4,"b":1},"C":{"a":2,"b":8},"D":{"a":8,"b":2}},"conditions":["nonSeqFull","nonSeqPartial","seqNoFeedback","seqFeedback"],"classroomPairings":[["A","B"],["C","D"]],"coinWeights":[0.2,0.5,0.8],"subjectId":"A38240X9B0EBKE","assignmentId":"3FK0YFF9P0270TJ749GWVE5QCT9VVL","hitId":"34KYK9TV2RUAD363EVFPUWVPB97SBP","url":"https://gershmanlab.com/experiments/alicia/teaching/experiment/?hitId=34KYK9TV2RUAD363EVFPUWVPB97SBP&workerId=A38240X9B0EBKE&assignmentId=3FK0YFF9P0270TJ749GWVE5QCT9VVL&a=9YKF7&tp_a=9YKF7&b=3FK0YFF9P0270TJ749GWVE5QCT9VVL&tp_b=3FK0YFF9P0270TJ749GWVE5QCT9VVL&c=365717&tp_c=365717"},{"rt":11302,"response":{"heads":"2","tails":"2"},"type":"response","condition":"seqNoFeedback","trueTheta":0.5,"classrooms":["C","D"],"studentTrueClassroom":"D","exampleSet":"second","trial_type":"survey-html-form","trial_index":35,"time_elapsed":699583,"internal_node_id":"0.0-25.0-0.0","params":{"nStudents":24,"maxFlips":30,"completionMinutes":45,"basePay":8,"maxBonus":9,"perTrialBonus":0.5,"perTrialBonusThreshold":0.05,"exampleCost":0.01},"classroomParams":{"A":{"a":1,"b":4},"B":{"a":4,"b":1},"C":{"a":2,"b":8},"D":{"a":8,"b":2}},"conditions":["nonSeqFull","nonSeqPartial","seqNoFeedback","seqFeedback"],"classroomPairings":[["A","B"],["C","D"]],"coinWeights":[0.2,0.5,0.8],"subjectId":"A38240X9B0EBKE","assignmentId":"3FK0YFF9P0270TJ749GWVE5QCT9VVL","hitId":"34KYK9TV2RUAD363EVFPUWVPB97SBP","url":"https://gershmanlab.com/experiments/alicia/teaching/experiment/?hitId=34KYK9TV2RUAD363EVFPUWVPB97SBP&workerId=A38240X9B0EBKE&assignmentId=3FK0YFF9P0270TJ749GWVE5QCT9VVL&a=9YKF7&tp_a=9YKF7&b=3FK0YFF9P0270TJ749GWVE5QCT9VVL&tp_b=3FK0YFF9P0270TJ749GWVE5QCT9VVL&c=365717&tp_c=365717","firstResponseHeads":1,"firstResponseTails":1,"secondResponseHeads":2,"secondResponseTails":2,"totalHeads":3,"totalTails":3,"studentIndex":2,"studentTrueHypers":{"a":8,"b":2},"studentGuess":0.6875,"delta":0.1875,"bonus":0,"bonusSoFar":0.1,"totalExamples":6},{"rt":null,"stimulus":"Sending examples to student... ","response":null,"trial_type":"html-keyboard-response","trial_index":36,"time_elapsed":701585,"internal_node_id":"0.0-26.0","params":{"nStudents":24,"maxFlips":30,"completionMinutes":45,"basePay":8,"maxBonus":9,"perTrialBonus":0.5,"perTrialBonusThreshold":0.05,"exampleCost":0.01},"classroomParams":{"A":{"a":1,"b":4},"B":{"a":4,"b":1},"C":{"a":2,"b":8},"D":{"a":8,"b":2}},"conditions":["nonSeqFull","nonSeqPartial","seqNoFeedback","seqFeedback"],"classroomPairings":[["A","B"],["C","D"]],"coinWeights":[0.2,0.5,0.8],"subjectId":"A38240X9B0EBKE","assignmentId":"3FK0YFF9P0270TJ749GWVE5QCT9VVL","hitId":"34KYK9TV2RUAD363EVFPUWVPB97SBP","url":"https://gershmanlab.com/experiments/alicia/teaching/experiment/?hitId=34KYK9TV2RUAD363EVFPUWVPB97SBP&workerId=A38240X9B0EBKE&assignmentId=3FK0YFF9P0270TJ749GWVE5QCT9VVL&a=9YKF7&tp_a=9YKF7&b=3FK0YFF9P0270TJ749GWVE5QCT9VVL&tp_b=3FK0YFF9P0270TJ749GWVE5QCT9VVL&c=365717&tp_c=365717"},{"rt":null,"stimulus":"Examples sent to student! Waiting for student...","response":null,"trial_type":"html-keyboard-response","trial_index":37,"time_elapsed":706587,"internal_node_id":"0.0-27.0","params":{"nStudents":24,"maxFlips":30,"completionMinutes":45,"basePay":8,"maxBonus":9,"perTrialBonus":0.5,"perTrialBonusThreshold":0.05,"exampleCost":0.01},"classroomParams":{"A":{"a":1,"b":4},"B":{"a":4,"b":1},"C":{"a":2,"b":8},"D":{"a":8,"b":2}},"conditions":["nonSeqFull","nonSeqPartial","seqNoFeedback","seqFeedback"],"classroomPairings":[["A","B"],["C","D"]],"coinWeights":[0.2,0.5,0.8],"subjectId":"A38240X9B0EBKE","assignmentId":"3FK0YFF9P0270TJ749GWVE5QCT9VVL","hitId":"34KYK9TV2RUAD363EVFPUWVPB97SBP","url":"https://gershmanlab.com/experiments/alicia/teaching/experiment/?hitId=34KYK9TV2RUAD363EVFPUWVPB97SBP&workerId=A38240X9B0EBKE&assignmentId=3FK0YFF9P0270TJ749GWVE5QCT9VVL&a=9YKF7&tp_a=9YKF7&b=3FK0YFF9P0270TJ749GWVE5QCT9VVL&tp_b=3FK0YFF9P0270TJ749GWVE5QCT9VVL&c=365717&tp_c=365717"},{"rt":7412,"stimulus":"\n                <p>Student 3's first guess for coin weight: <b style=\"color:Tomato\";>0.75</b></p>\n                <p>Student 3's second guess for coin weight: <b style=\"color:Tomato\";>0.69</b></p>\n                <p>You received a bonus of <b>$0.00</b> based on the student's second guess.</p>\n                <p>Total bonus so far: <b>$0.10</b></p>\n                <p>Press any key to continue.</p>\n                ","response":" ","trial_type":"html-keyboard-response","trial_index":38,"time_elapsed":714000,"internal_node_id":"0.0-28.0","params":{"nStudents":24,"maxFlips":30,"completionMinutes":45,"basePay":8,"maxBonus":9,"perTrialBonus":0.5,"perTrialBonusThreshold":0.05,"exampleCost":0.01},"classroomParams":{"A":{"a":1,"b":4},"B":{"a":4,"b":1},"C":{"a":2,"b":8},"D":{"a":8,"b":2}},"conditions":["nonSeqFull","nonSeqPartial","seqNoFeedback","seqFeedback"],"classroomPairings":[["A","B"],["C","D"]],"coinWeights":[0.2,0.5,0.8],"subjectId":"A38240X9B0EBKE","assignmentId":"3FK0YFF9P0270TJ749GWVE5QCT9VVL","hitId":"34KYK9TV2RUAD363EVFPUWVPB97SBP","url":"https://gershmanlab.com/experiments/alicia/teaching/experiment/?hitId=34KYK9TV2RUAD363EVFPUWVPB97SBP&workerId=A38240X9B0EBKE&assignmentId=3FK0YFF9P0270TJ749GWVE5QCT9VVL&a=9YKF7&tp_a=9YKF7&b=3FK0YFF9P0270TJ749GWVE5QCT9VVL&tp_b=3FK0YFF9P0270TJ749GWVE5QCT9VVL&c=365717&tp_c=365717"},{"rt":null,"stimulus":"<div style=\"font-size:60px;\">Next student</div>","response":null,"trial_type":"html-keyboard-response","trial_index":39,"time_elapsed":717007,"internal_node_id":"0.0-29.0-0.0","params":{"nStudents":24,"maxFlips":30,"completionMinutes":45,"basePay":8,"maxBonus":9,"perTrialBonus":0.5,"perTrialBonusThreshold":0.05,"exampleCost":0.01},"classroomParams":{"A":{"a":1,"b":4},"B":{"a":4,"b":1},"C":{"a":2,"b":8},"D":{"a":8,"b":2}},"conditions":["nonSeqFull","nonSeqPartial","seqNoFeedback","seqFeedback"],"classroomPairings":[["A","B"],["C","D"]],"coinWeights":[0.2,0.5,0.8],"subjectId":"A38240X9B0EBKE","assignmentId":"3FK0YFF9P0270TJ749GWVE5QCT9VVL","hitId":"34KYK9TV2RUAD363EVFPUWVPB97SBP","url":"https://gershmanlab.com/experiments/alicia/teaching/experiment/?hitId=34KYK9TV2RUAD363EVFPUWVPB97SBP&workerId=A38240X9B0EBKE&assignmentId=3FK0YFF9P0270TJ749GWVE5QCT9VVL&a=9YKF7&tp_a=9YKF7&b=3FK0YFF9P0270TJ749GWVE5QCT9VVL&tp_b=3FK0YFF9P0270TJ749GWVE5QCT9VVL&c=365717&tp_c=365717"},{"rt":1941,"stimulus":"\n            <h4 style=\"color:Orange;\">Student 4</h4>\n            <h2>The weight of your coin is <b style=\"color:Tomato;\">0.8</b>.</h2>\n            <p>In this block, you will be giving <b>one</b> set of examples to Student 4.</p>\n                <p>You will receive feedback at the end of the block.</p>\n            <p></p>","response":0,"trial_type":"html-button-response","trial_index":40,"time_elapsed":718950,"internal_node_id":"0.0-30.0","params":{"nStudents":24,"maxFlips":30,"completionMinutes":45,"basePay":8,"maxBonus":9,"perTrialBonus":0.5,"perTrialBonusThreshold":0.05,"exampleCost":0.01},"classroomParams":{"A":{"a":1,"b":4},"B":{"a":4,"b":1},"C":{"a":2,"b":8},"D":{"a":8,"b":2}},"conditions":["nonSeqFull","nonSeqPartial","seqNoFeedback","seqFeedback"],"classroomPairings":[["A","B"],["C","D"]],"coinWeights":[0.2,0.5,0.8],"subjectId":"A38240X9B0EBKE","assignmentId":"3FK0YFF9P0270TJ749GWVE5QCT9VVL","hitId":"34KYK9TV2RUAD363EVFPUWVPB97SBP","url":"https://gershmanlab.com/experiments/alicia/teaching/experiment/?hitId=34KYK9TV2RUAD363EVFPUWVPB97SBP&workerId=A38240X9B0EBKE&assignmentId=3FK0YFF9P0270TJ749GWVE5QCT9VVL&a=9YKF7&tp_a=9YKF7&b=3FK0YFF9P0270TJ749GWVE5QCT9VVL&tp_b=3FK0YFF9P0270TJ749GWVE5QCT9VVL&c=365717&tp_c=365717"},{"rt":15631,"response":{"heads":"0","tails":"0"},"type":"response","condition":"nonSeqFull","trueTheta":0.8,"classrooms":["C","D"],"studentTrueClassroom":"D","exampleSet":"first","trial_type":"survey-html-form","trial_index":41,"time_elapsed":734583,"internal_node_id":"0.0-31.0-0.0","params":{"nStudents":24,"maxFlips":30,"completionMinutes":45,"basePay":8,"maxBonus":9,"perTrialBonus":0.5,"perTrialBonusThreshold":0.05,"exampleCost":0.01},"classroomParams":{"A":{"a":1,"b":4},"B":{"a":4,"b":1},"C":{"a":2,"b":8},"D":{"a":8,"b":2}},"conditions":["nonSeqFull","nonSeqPartial","seqNoFeedback","seqFeedback"],"classroomPairings":[["A","B"],["C","D"]],"coinWeights":[0.2,0.5,0.8],"subjectId":"A38240X9B0EBKE","assignmentId":"3FK0YFF9P0270TJ749GWVE5QCT9VVL","hitId":"34KYK9TV2RUAD363EVFPUWVPB97SBP","url":"https://gershmanlab.com/experiments/alicia/teaching/experiment/?hitId=34KYK9TV2RUAD363EVFPUWVPB97SBP&workerId=A38240X9B0EBKE&assignmentId=3FK0YFF9P0270TJ749GWVE5QCT9VVL&a=9YKF7&tp_a=9YKF7&b=3FK0YFF9P0270TJ749GWVE5QCT9VVL&tp_b=3FK0YFF9P0270TJ749GWVE5QCT9VVL&c=365717&tp_c=365717","heads":0,"tails":0,"studentIndex":3,"studentTrueHypers":{"a":8,"b":2},"studentGuess":0.8,"delta":0,"totalExamples":0,"bonus":0.5,"bonusSoFar":0.6},{"rt":6590,"response":{"heads":"1","tails":"0"},"type":"response","condition":"nonSeqFull","trueTheta":0.8,"classrooms":["C","D"],"studentTrueClassroom":"D","exampleSet":"first","trial_type":"survey-html-form","trial_index":42,"time_elapsed":741172,"internal_node_id":"0.0-31.1-0.1","params":{"nStudents":24,"maxFlips":30,"completionMinutes":45,"basePay":8,"maxBonus":9,"perTrialBonus":0.5,"perTrialBonusThreshold":0.05,"exampleCost":0.01},"classroomParams":{"A":{"a":1,"b":4},"B":{"a":4,"b":1},"C":{"a":2,"b":8},"D":{"a":8,"b":2}},"conditions":["nonSeqFull","nonSeqPartial","seqNoFeedback","seqFeedback"],"classroomPairings":[["A","B"],["C","D"]],"coinWeights":[0.2,0.5,0.8],"subjectId":"A38240X9B0EBKE","assignmentId":"3FK0YFF9P0270TJ749GWVE5QCT9VVL","hitId":"34KYK9TV2RUAD363EVFPUWVPB97SBP","url":"https://gershmanlab.com/experiments/alicia/teaching/experiment/?hitId=34KYK9TV2RUAD363EVFPUWVPB97SBP&workerId=A38240X9B0EBKE&assignmentId=3FK0YFF9P0270TJ749GWVE5QCT9VVL&a=9YKF7&tp_a=9YKF7&b=3FK0YFF9P0270TJ749GWVE5QCT9VVL&tp_b=3FK0YFF9P0270TJ749GWVE5QCT9VVL&c=365717&tp_c=365717","heads":1,"tails":0,"studentIndex":3,"studentTrueHypers":{"a":8,"b":2},"studentGuess":0.8181818181818182,"delta":0.018181818181818188,"totalExamples":1,"bonus":0.49,"bonusSoFar":1.09},{"rt":null,"stimulus":"Sending examples to student... ","response":null,"trial_type":"html-keyboard-response","trial_index":43,"time_elapsed":742423,"internal_node_id":"0.0-32.0","params":{"nStudents":24,"maxFlips":30,"completionMinutes":45,"basePay":8,"maxBonus":9,"perTrialBonus":0.5,"perTrialBonusThreshold":0.05,"exampleCost":0.01},"classroomParams":{"A":{"a":1,"b":4},"B":{"a":4,"b":1},"C":{"a":2,"b":8},"D":{"a":8,"b":2}},"conditions":["nonSeqFull","nonSeqPartial","seqNoFeedback","seqFeedback"],"classroomPairings":[["A","B"],["C","D"]],"coinWeights":[0.2,0.5,0.8],"subjectId":"A38240X9B0EBKE","assignmentId":"3FK0YFF9P0270TJ749GWVE5QCT9VVL","hitId":"34KYK9TV2RUAD363EVFPUWVPB97SBP","url":"https://gershmanlab.com/experiments/alicia/teaching/experiment/?hitId=34KYK9TV2RUAD363EVFPUWVPB97SBP&workerId=A38240X9B0EBKE&assignmentId=3FK0YFF9P0270TJ749GWVE5QCT9VVL&a=9YKF7&tp_a=9YKF7&b=3FK0YFF9P0270TJ749GWVE5QCT9VVL&tp_b=3FK0YFF9P0270TJ749GWVE5QCT9VVL&c=365717&tp_c=365717"},{"rt":null,"stimulus":"Examples sent to student! Waiting for student...","response":null,"trial_type":"html-keyboard-response","trial_index":44,"time_elapsed":747925,"internal_node_id":"0.0-33.0","params":{"nStudents":24,"maxFlips":30,"completionMinutes":45,"basePay":8,"maxBonus":9,"perTrialBonus":0.5,"perTrialBonusThreshold":0.05,"exampleCost":0.01},"classroomParams":{"A":{"a":1,"b":4},"B":{"a":4,"b":1},"C":{"a":2,"b":8},"D":{"a":8,"b":2}},"conditions":["nonSeqFull","nonSeqPartial","seqNoFeedback","seqFeedback"],"classroomPairings":[["A","B"],["C","D"]],"coinWeights":[0.2,0.5,0.8],"subjectId":"A38240X9B0EBKE","assignmentId":"3FK0YFF9P0270TJ749GWVE5QCT9VVL","hitId":"34KYK9TV2RUAD363EVFPUWVPB97SBP","url":"https://gershmanlab.com/experiments/alicia/teaching/experiment/?hitId=34KYK9TV2RUAD363EVFPUWVPB97SBP&workerId=A38240X9B0EBKE&assignmentId=3FK0YFF9P0270TJ749GWVE5QCT9VVL&a=9YKF7&tp_a=9YKF7&b=3FK0YFF9P0270TJ749GWVE5QCT9VVL&tp_b=3FK0YFF9P0270TJ749GWVE5QCT9VVL&c=365717&tp_c=365717"},{"rt":3495,"stimulus":"\n                <p>Student's guess for coin weight: <b style=\"color:Tomato;\">0.80</b></p>\n                <p>You received a bonus of <b>$0.5</b>. Total bonus so far: <b>$1.09</b></b></p>\n                <p></p>\n                <p>Press any key to continue.</p>\n                ","response":" ","trial_type":"html-keyboard-response","trial_index":45,"time_elapsed":751421,"internal_node_id":"0.0-34.0","params":{"nStudents":24,"maxFlips":30,"completionMinutes":45,"basePay":8,"maxBonus":9,"perTrialBonus":0.5,"perTrialBonusThreshold":0.05,"exampleCost":0.01},"classroomParams":{"A":{"a":1,"b":4},"B":{"a":4,"b":1},"C":{"a":2,"b":8},"D":{"a":8,"b":2}},"conditions":["nonSeqFull","nonSeqPartial","seqNoFeedback","seqFeedback"],"classroomPairings":[["A","B"],["C","D"]],"coinWeights":[0.2,0.5,0.8],"subjectId":"A38240X9B0EBKE","assignmentId":"3FK0YFF9P0270TJ749GWVE5QCT9VVL","hitId":"34KYK9TV2RUAD363EVFPUWVPB97SBP","url":"https://gershmanlab.com/experiments/alicia/teaching/experiment/?hitId=34KYK9TV2RUAD363EVFPUWVPB97SBP&workerId=A38240X9B0EBKE&assignmentId=3FK0YFF9P0270TJ749GWVE5QCT9VVL&a=9YKF7&tp_a=9YKF7&b=3FK0YFF9P0270TJ749GWVE5QCT9VVL&tp_b=3FK0YFF9P0270TJ749GWVE5QCT9VVL&c=365717&tp_c=365717"},{"rt":null,"stimulus":"<div style=\"font-size:60px;\">Next student</div>","response":null,"trial_type":"html-keyboard-response","trial_index":46,"time_elapsed":753926,"internal_node_id":"0.0-35.0-0.0","params":{"nStudents":24,"maxFlips":30,"completionMinutes":45,"basePay":8,"maxBonus":9,"perTrialBonus":0.5,"perTrialBonusThreshold":0.05,"exampleCost":0.01},"classroomParams":{"A":{"a":1,"b":4},"B":{"a":4,"b":1},"C":{"a":2,"b":8},"D":{"a":8,"b":2}},"conditions":["nonSeqFull","nonSeqPartial","seqNoFeedback","seqFeedback"],"classroomPairings":[["A","B"],["C","D"]],"coinWeights":[0.2,0.5,0.8],"subjectId":"A38240X9B0EBKE","assignmentId":"3FK0YFF9P0270TJ749GWVE5QCT9VVL","hitId":"34KYK9TV2RUAD363EVFPUWVPB97SBP","url":"https://gershmanlab.com/experiments/alicia/teaching/experiment/?hitId=34KYK9TV2RUAD363EVFPUWVPB97SBP&workerId=A38240X9B0EBKE&assignmentId=3FK0YFF9P0270TJ749GWVE5QCT9VVL&a=9YKF7&tp_a=9YKF7&b=3FK0YFF9P0270TJ749GWVE5QCT9VVL&tp_b=3FK0YFF9P0270TJ749GWVE5QCT9VVL&c=365717&tp_c=365717"},{"rt":3342,"stimulus":"\n            <h4 style=\"color:Orange;\">Student 5</h4>\n            <h2>The weight of your coin is <b style=\"color:Tomato;\">0.8</b>.</h2>\n            <p>In this block, you will be giving <b>one</b> set of examples to Student 5.</p>\n                <p>You will receive feedback at the end of the block.</p>\n            <p></p>","response":0,"trial_type":"html-button-response","trial_index":47,"time_elapsed":757270,"internal_node_id":"0.0-36.0","params":{"nStudents":24,"maxFlips":30,"completionMinutes":45,"basePay":8,"maxBonus":9,"perTrialBonus":0.5,"perTrialBonusThreshold":0.05,"exampleCost":0.01},"classroomParams":{"A":{"a":1,"b":4},"B":{"a":4,"b":1},"C":{"a":2,"b":8},"D":{"a":8,"b":2}},"conditions":["nonSeqFull","nonSeqPartial","seqNoFeedback","seqFeedback"],"classroomPairings":[["A","B"],["C","D"]],"coinWeights":[0.2,0.5,0.8],"subjectId":"A38240X9B0EBKE","assignmentId":"3FK0YFF9P0270TJ749GWVE5QCT9VVL","hitId":"34KYK9TV2RUAD363EVFPUWVPB97SBP","url":"https://gershmanlab.com/experiments/alicia/teaching/experiment/?hitId=34KYK9TV2RUAD363EVFPUWVPB97SBP&workerId=A38240X9B0EBKE&assignmentId=3FK0YFF9P0270TJ749GWVE5QCT9VVL&a=9YKF7&tp_a=9YKF7&b=3FK0YFF9P0270TJ749GWVE5QCT9VVL&tp_b=3FK0YFF9P0270TJ749GWVE5QCT9VVL&c=365717&tp_c=365717"},{"rt":13121,"response":{"heads":"4","tails":"1"},"type":"response","condition":"nonSeqPartial","trueTheta":0.8,"classrooms":["C","D"],"studentTrueClassroom":"C","exampleSet":"first","trial_type":"survey-html-form","trial_index":48,"time_elapsed":770393,"internal_node_id":"0.0-37.0-0.0","params":{"nStudents":24,"maxFlips":30,"completionMinutes":45,"basePay":8,"maxBonus":9,"perTrialBonus":0.5,"perTrialBonusThreshold":0.05,"exampleCost":0.01},"classroomParams":{"A":{"a":1,"b":4},"B":{"a":4,"b":1},"C":{"a":2,"b":8},"D":{"a":8,"b":2}},"conditions":["nonSeqFull","nonSeqPartial","seqNoFeedback","seqFeedback"],"classroomPairings":[["A","B"],["C","D"]],"coinWeights":[0.2,0.5,0.8],"subjectId":"A38240X9B0EBKE","assignmentId":"3FK0YFF9P0270TJ749GWVE5QCT9VVL","hitId":"34KYK9TV2RUAD363EVFPUWVPB97SBP","url":"https://gershmanlab.com/experiments/alicia/teaching/experiment/?hitId=34KYK9TV2RUAD363EVFPUWVPB97SBP&workerId=A38240X9B0EBKE&assignmentId=3FK0YFF9P0270TJ749GWVE5QCT9VVL&a=9YKF7&tp_a=9YKF7&b=3FK0YFF9P0270TJ749GWVE5QCT9VVL&tp_b=3FK0YFF9P0270TJ749GWVE5QCT9VVL&c=365717&tp_c=365717","heads":4,"tails":1,"studentIndex":4,"studentTrueHypers":{"a":2,"b":8},"studentGuess":0.4,"delta":0.4,"totalExamples":5,"bonus":0,"bonusSoFar":1.09},{"rt":null,"stimulus":"Sending examples to student... ","response":null,"trial_type":"html-keyboard-response","trial_index":49,"time_elapsed":771912,"internal_node_id":"0.0-38.0","params":{"nStudents":24,"maxFlips":30,"completionMinutes":45,"basePay":8,"maxBonus":9,"perTrialBonus":0.5,"perTrialBonusThreshold":0.05,"exampleCost":0.01},"classroomParams":{"A":{"a":1,"b":4},"B":{"a":4,"b":1},"C":{"a":2,"b":8},"D":{"a":8,"b":2}},"conditions":["nonSeqFull","nonSeqPartial","seqNoFeedback","seqFeedback"],"classroomPairings":[["A","B"],["C","D"]],"coinWeights":[0.2,0.5,0.8],"subjectId":"A38240X9B0EBKE","assignmentId":"3FK0YFF9P0270TJ749GWVE5QCT9VVL","hitId":"34KYK9TV2RUAD363EVFPUWVPB97SBP","url":"https://gershmanlab.com/experiments/alicia/teaching/experiment/?hitId=34KYK9TV2RUAD363EVFPUWVPB97SBP&workerId=A38240X9B0EBKE&assignmentId=3FK0YFF9P0270TJ749GWVE5QCT9VVL&a=9YKF7&tp_a=9YKF7&b=3FK0YFF9P0270TJ749GWVE5QCT9VVL&tp_b=3FK0YFF9P0270TJ749GWVE5QCT9VVL&c=365717&tp_c=365717"},{"rt":null,"stimulus":"Examples sent to student! Waiting for student...","response":null,"trial_type":"html-keyboard-response","trial_index":50,"time_elapsed":776922,"internal_node_id":"0.0-39.0","params":{"nStudents":24,"maxFlips":30,"completionMinutes":45,"basePay":8,"maxBonus":9,"perTrialBonus":0.5,"perTrialBonusThreshold":0.05,"exampleCost":0.01},"classroomParams":{"A":{"a":1,"b":4},"B":{"a":4,"b":1},"C":{"a":2,"b":8},"D":{"a":8,"b":2}},"conditions":["nonSeqFull","nonSeqPartial","seqNoFeedback","seqFeedback"],"classroomPairings":[["A","B"],["C","D"]],"coinWeights":[0.2,0.5,0.8],"subjectId":"A38240X9B0EBKE","assignmentId":"3FK0YFF9P0270TJ749GWVE5QCT9VVL","hitId":"34KYK9TV2RUAD363EVFPUWVPB97SBP","url":"https://gershmanlab.com/experiments/alicia/teaching/experiment/?hitId=34KYK9TV2RUAD363EVFPUWVPB97SBP&workerId=A38240X9B0EBKE&assignmentId=3FK0YFF9P0270TJ749GWVE5QCT9VVL&a=9YKF7&tp_a=9YKF7&b=3FK0YFF9P0270TJ749GWVE5QCT9VVL&tp_b=3FK0YFF9P0270TJ749GWVE5QCT9VVL&c=365717&tp_c=365717"},{"rt":3826,"stimulus":"\n                <p>Student's guess for coin weight: <b style=\"color:Tomato;\">0.40</b></p>\n                <p>You received a bonus of <b>$0</b>. Total bonus so far: <b>$1.09</b></b></p>\n                <p></p>\n                <p>Press any key to continue.</p>\n                ","response":" ","trial_type":"html-keyboard-response","trial_index":51,"time_elapsed":780748,"internal_node_id":"0.0-40.0","params":{"nStudents":24,"maxFlips":30,"completionMinutes":45,"basePay":8,"maxBonus":9,"perTrialBonus":0.5,"perTrialBonusThreshold":0.05,"exampleCost":0.01},"classroomParams":{"A":{"a":1,"b":4},"B":{"a":4,"b":1},"C":{"a":2,"b":8},"D":{"a":8,"b":2}},"conditions":["nonSeqFull","nonSeqPartial","seqNoFeedback","seqFeedback"],"classroomPairings":[["A","B"],["C","D"]],"coinWeights":[0.2,0.5,0.8],"subjectId":"A38240X9B0EBKE","assignmentId":"3FK0YFF9P0270TJ749GWVE5QCT9VVL","hitId":"34KYK9TV2RUAD363EVFPUWVPB97SBP","url":"https://gershmanlab.com/experiments/alicia/teaching/experiment/?hitId=34KYK9TV2RUAD363EVFPUWVPB97SBP&workerId=A38240X9B0EBKE&assignmentId=3FK0YFF9P0270TJ749GWVE5QCT9VVL&a=9YKF7&tp_a=9YKF7&b=3FK0YFF9P0270TJ749GWVE5QCT9VVL&tp_b=3FK0YFF9P0270TJ749GWVE5QCT9VVL&c=365717&tp_c=365717"},{"rt":null,"stimulus":"<div style=\"font-size:60px;\">Next student</div>","response":null,"trial_type":"html-keyboard-response","trial_index":52,"time_elapsed":783750,"internal_node_id":"0.0-41.0-0.0","params":{"nStudents":24,"maxFlips":30,"completionMinutes":45,"basePay":8,"maxBonus":9,"perTrialBonus":0.5,"perTrialBonusThreshold":0.05,"exampleCost":0.01},"classroomParams":{"A":{"a":1,"b":4},"B":{"a":4,"b":1},"C":{"a":2,"b":8},"D":{"a":8,"b":2}},"conditions":["nonSeqFull","nonSeqPartial","seqNoFeedback","seqFeedback"],"classroomPairings":[["A","B"],["C","D"]],"coinWeights":[0.2,0.5,0.8],"subjectId":"A38240X9B0EBKE","assignmentId":"3FK0YFF9P0270TJ749GWVE5QCT9VVL","hitId":"34KYK9TV2RUAD363EVFPUWVPB97SBP","url":"https://gershmanlab.com/experiments/alicia/teaching/experiment/?hitId=34KYK9TV2RUAD363EVFPUWVPB97SBP&workerId=A38240X9B0EBKE&assignmentId=3FK0YFF9P0270TJ749GWVE5QCT9VVL&a=9YKF7&tp_a=9YKF7&b=3FK0YFF9P0270TJ749GWVE5QCT9VVL&tp_b=3FK0YFF9P0270TJ749GWVE5QCT9VVL&c=365717&tp_c=365717"},{"rt":10224,"stimulus":"\n            <h4 style=\"color:Orange;\">Student 6</h4>\n            <h2>The weight of your coin is <b style=\"color:Tomato;\">0.8</b>.</h2>\n            <p>In this block, you will be giving <b>two</b> sets of examples to Student 6.</p>\n                <p>You will see the student's guess after the first set of examples. You will also receive feedback at the end of the block.</p>\n            <p>To earn the highest bonus, you will have to <b>take into consideration the student's guess</b> when you choose your second set of examples.</p>","response":0,"trial_type":"html-button-response","trial_index":53,"time_elapsed":793975,"internal_node_id":"0.0-42.0","params":{"nStudents":24,"maxFlips":30,"completionMinutes":45,"basePay":8,"maxBonus":9,"perTrialBonus":0.5,"perTrialBonusThreshold":0.05,"exampleCost":0.01},"classroomParams":{"A":{"a":1,"b":4},"B":{"a":4,"b":1},"C":{"a":2,"b":8},"D":{"a":8,"b":2}},"conditions":["nonSeqFull","nonSeqPartial","seqNoFeedback","seqFeedback"],"classroomPairings":[["A","B"],["C","D"]],"coinWeights":[0.2,0.5,0.8],"subjectId":"A38240X9B0EBKE","assignmentId":"3FK0YFF9P0270TJ749GWVE5QCT9VVL","hitId":"34KYK9TV2RUAD363EVFPUWVPB97SBP","url":"https://gershmanlab.com/experiments/alicia/teaching/experiment/?hitId=34KYK9TV2RUAD363EVFPUWVPB97SBP&workerId=A38240X9B0EBKE&assignmentId=3FK0YFF9P0270TJ749GWVE5QCT9VVL&a=9YKF7&tp_a=9YKF7&b=3FK0YFF9P0270TJ749GWVE5QCT9VVL&tp_b=3FK0YFF9P0270TJ749GWVE5QCT9VVL&c=365717&tp_c=365717"},{"rt":11507,"response":{"heads":"4","tails":"0"},"type":"response","condition":"seqFeedback","trueTheta":0.8,"classrooms":["C","D"],"studentTrueClassroom":"C","exampleSet":"first","trial_type":"survey-html-form","trial_index":54,"time_elapsed":805479,"internal_node_id":"0.0-43.0-0.0","params":{"nStudents":24,"maxFlips":30,"completionMinutes":45,"basePay":8,"maxBonus":9,"perTrialBonus":0.5,"perTrialBonusThreshold":0.05,"exampleCost":0.01},"classroomParams":{"A":{"a":1,"b":4},"B":{"a":4,"b":1},"C":{"a":2,"b":8},"D":{"a":8,"b":2}},"conditions":["nonSeqFull","nonSeqPartial","seqNoFeedback","seqFeedback"],"classroomPairings":[["A","B"],["C","D"]],"coinWeights":[0.2,0.5,0.8],"subjectId":"A38240X9B0EBKE","assignmentId":"3FK0YFF9P0270TJ749GWVE5QCT9VVL","hitId":"34KYK9TV2RUAD363EVFPUWVPB97SBP","url":"https://gershmanlab.com/experiments/alicia/teaching/experiment/?hitId=34KYK9TV2RUAD363EVFPUWVPB97SBP&workerId=A38240X9B0EBKE&assignmentId=3FK0YFF9P0270TJ749GWVE5QCT9VVL&a=9YKF7&tp_a=9YKF7&b=3FK0YFF9P0270TJ749GWVE5QCT9VVL&tp_b=3FK0YFF9P0270TJ749GWVE5QCT9VVL&c=365717&tp_c=365717","heads":4,"tails":0,"studentIndex":5,"studentTrueHypers":{"a":2,"b":8},"studentGuess":0.42857142857142855,"delta":0.3714285714285715,"totalExamples":4,"bonusSoFar":1.09},{"rt":null,"stimulus":"Sending examples to student... ","response":null,"trial_type":"html-keyboard-response","trial_index":55,"time_elapsed":806745,"internal_node_id":"0.0-44.0","params":{"nStudents":24,"maxFlips":30,"completionMinutes":45,"basePay":8,"maxBonus":9,"perTrialBonus":0.5,"perTrialBonusThreshold":0.05,"exampleCost":0.01},"classroomParams":{"A":{"a":1,"b":4},"B":{"a":4,"b":1},"C":{"a":2,"b":8},"D":{"a":8,"b":2}},"conditions":["nonSeqFull","nonSeqPartial","seqNoFeedback","seqFeedback"],"classroomPairings":[["A","B"],["C","D"]],"coinWeights":[0.2,0.5,0.8],"subjectId":"A38240X9B0EBKE","assignmentId":"3FK0YFF9P0270TJ749GWVE5QCT9VVL","hitId":"34KYK9TV2RUAD363EVFPUWVPB97SBP","url":"https://gershmanlab.com/experiments/alicia/teaching/experiment/?hitId=34KYK9TV2RUAD363EVFPUWVPB97SBP&workerId=A38240X9B0EBKE&assignmentId=3FK0YFF9P0270TJ749GWVE5QCT9VVL&a=9YKF7&tp_a=9YKF7&b=3FK0YFF9P0270TJ749GWVE5QCT9VVL&tp_b=3FK0YFF9P0270TJ749GWVE5QCT9VVL&c=365717&tp_c=365717"},{"rt":null,"stimulus":"Examples sent to student! Waiting for student...","response":null,"trial_type":"html-keyboard-response","trial_index":56,"time_elapsed":811264,"internal_node_id":"0.0-45.0","params":{"nStudents":24,"maxFlips":30,"completionMinutes":45,"basePay":8,"maxBonus":9,"perTrialBonus":0.5,"perTrialBonusThreshold":0.05,"exampleCost":0.01},"classroomParams":{"A":{"a":1,"b":4},"B":{"a":4,"b":1},"C":{"a":2,"b":8},"D":{"a":8,"b":2}},"conditions":["nonSeqFull","nonSeqPartial","seqNoFeedback","seqFeedback"],"classroomPairings":[["A","B"],["C","D"]],"coinWeights":[0.2,0.5,0.8],"subjectId":"A38240X9B0EBKE","assignmentId":"3FK0YFF9P0270TJ749GWVE5QCT9VVL","hitId":"34KYK9TV2RUAD363EVFPUWVPB97SBP","url":"https://gershmanlab.com/experiments/alicia/teaching/experiment/?hitId=34KYK9TV2RUAD363EVFPUWVPB97SBP&workerId=A38240X9B0EBKE&assignmentId=3FK0YFF9P0270TJ749GWVE5QCT9VVL&a=9YKF7&tp_a=9YKF7&b=3FK0YFF9P0270TJ749GWVE5QCT9VVL&tp_b=3FK0YFF9P0270TJ749GWVE5QCT9VVL&c=365717&tp_c=365717"},{"rt":3711,"stimulus":"\n                <p>Student's guess for coin weight: <b style=\"color:Tomato;\">0.43</b></p>\n                <p></b></p>\n                <p>You will now send another set of examples to your student. <b>Remember to take your student's guess into consideration so that you can earn the highest bonus possible!</b> </p>\n                <p>Press any key to continue.</p>\n                ","response":" ","trial_type":"html-keyboard-response","trial_index":57,"time_elapsed":814976,"internal_node_id":"0.0-46.0","params":{"nStudents":24,"maxFlips":30,"completionMinutes":45,"basePay":8,"maxBonus":9,"perTrialBonus":0.5,"perTrialBonusThreshold":0.05,"exampleCost":0.01},"classroomParams":{"A":{"a":1,"b":4},"B":{"a":4,"b":1},"C":{"a":2,"b":8},"D":{"a":8,"b":2}},"conditions":["nonSeqFull","nonSeqPartial","seqNoFeedback","seqFeedback"],"classroomPairings":[["A","B"],["C","D"]],"coinWeights":[0.2,0.5,0.8],"subjectId":"A38240X9B0EBKE","assignmentId":"3FK0YFF9P0270TJ749GWVE5QCT9VVL","hitId":"34KYK9TV2RUAD363EVFPUWVPB97SBP","url":"https://gershmanlab.com/experiments/alicia/teaching/experiment/?hitId=34KYK9TV2RUAD363EVFPUWVPB97SBP&workerId=A38240X9B0EBKE&assignmentId=3FK0YFF9P0270TJ749GWVE5QCT9VVL&a=9YKF7&tp_a=9YKF7&b=3FK0YFF9P0270TJ749GWVE5QCT9VVL&tp_b=3FK0YFF9P0270TJ749GWVE5QCT9VVL&c=365717&tp_c=365717"},{"rt":10855,"response":{"heads":"8","tails":"0"},"type":"response","condition":"seqFeedback","trueTheta":0.8,"classrooms":["C","D"],"studentTrueClassroom":"C","exampleSet":"second","trial_type":"survey-html-form","trial_index":58,"time_elapsed":825832,"internal_node_id":"0.0-47.0-0.0","params":{"nStudents":24,"maxFlips":30,"completionMinutes":45,"basePay":8,"maxBonus":9,"perTrialBonus":0.5,"perTrialBonusThreshold":0.05,"exampleCost":0.01},"classroomParams":{"A":{"a":1,"b":4},"B":{"a":4,"b":1},"C":{"a":2,"b":8},"D":{"a":8,"b":2}},"conditions":["nonSeqFull","nonSeqPartial","seqNoFeedback","seqFeedback"],"classroomPairings":[["A","B"],["C","D"]],"coinWeights":[0.2,0.5,0.8],"subjectId":"A38240X9B0EBKE","assignmentId":"3FK0YFF9P0270TJ749GWVE5QCT9VVL","hitId":"34KYK9TV2RUAD363EVFPUWVPB97SBP","url":"https://gershmanlab.com/experiments/alicia/teaching/experiment/?hitId=34KYK9TV2RUAD363EVFPUWVPB97SBP&workerId=A38240X9B0EBKE&assignmentId=3FK0YFF9P0270TJ749GWVE5QCT9VVL&a=9YKF7&tp_a=9YKF7&b=3FK0YFF9P0270TJ749GWVE5QCT9VVL&tp_b=3FK0YFF9P0270TJ749GWVE5QCT9VVL&c=365717&tp_c=365717","firstResponseHeads":4,"firstResponseTails":0,"secondResponseHeads":8,"secondResponseTails":0,"totalHeads":12,"totalTails":0,"studentIndex":5,"studentTrueHypers":{"a":2,"b":8},"studentGuess":0.6363636363636364,"delta":0.1636363636363637,"bonus":0,"bonusSoFar":1.09,"totalExamples":12},{"rt":null,"stimulus":"Sending examples to student... ","response":null,"trial_type":"html-keyboard-response","trial_index":59,"time_elapsed":827591,"internal_node_id":"0.0-48.0","params":{"nStudents":24,"maxFlips":30,"completionMinutes":45,"basePay":8,"maxBonus":9,"perTrialBonus":0.5,"perTrialBonusThreshold":0.05,"exampleCost":0.01},"classroomParams":{"A":{"a":1,"b":4},"B":{"a":4,"b":1},"C":{"a":2,"b":8},"D":{"a":8,"b":2}},"conditions":["nonSeqFull","nonSeqPartial","seqNoFeedback","seqFeedback"],"classroomPairings":[["A","B"],["C","D"]],"coinWeights":[0.2,0.5,0.8],"subjectId":"A38240X9B0EBKE","assignmentId":"3FK0YFF9P0270TJ749GWVE5QCT9VVL","hitId":"34KYK9TV2RUAD363EVFPUWVPB97SBP","url":"https://gershmanlab.com/experiments/alicia/teaching/experiment/?hitId=34KYK9TV2RUAD363EVFPUWVPB97SBP&workerId=A38240X9B0EBKE&assignmentId=3FK0YFF9P0270TJ749GWVE5QCT9VVL&a=9YKF7&tp_a=9YKF7&b=3FK0YFF9P0270TJ749GWVE5QCT9VVL&tp_b=3FK0YFF9P0270TJ749GWVE5QCT9VVL&c=365717&tp_c=365717"},{"rt":null,"stimulus":"Examples sent to student! Waiting for student...","response":null,"trial_type":"html-keyboard-response","trial_index":60,"time_elapsed":833607,"internal_node_id":"0.0-49.0","params":{"nStudents":24,"maxFlips":30,"completionMinutes":45,"basePay":8,"maxBonus":9,"perTrialBonus":0.5,"perTrialBonusThreshold":0.05,"exampleCost":0.01},"classroomParams":{"A":{"a":1,"b":4},"B":{"a":4,"b":1},"C":{"a":2,"b":8},"D":{"a":8,"b":2}},"conditions":["nonSeqFull","nonSeqPartial","seqNoFeedback","seqFeedback"],"classroomPairings":[["A","B"],["C","D"]],"coinWeights":[0.2,0.5,0.8],"subjectId":"A38240X9B0EBKE","assignmentId":"3FK0YFF9P0270TJ749GWVE5QCT9VVL","hitId":"34KYK9TV2RUAD363EVFPUWVPB97SBP","url":"https://gershmanlab.com/experiments/alicia/teaching/experiment/?hitId=34KYK9TV2RUAD363EVFPUWVPB97SBP&workerId=A38240X9B0EBKE&assignmentId=3FK0YFF9P0270TJ749GWVE5QCT9VVL&a=9YKF7&tp_a=9YKF7&b=3FK0YFF9P0270TJ749GWVE5QCT9VVL&tp_b=3FK0YFF9P0270TJ749GWVE5QCT9VVL&c=365717&tp_c=365717"},{"rt":4473,"stimulus":"\n                <p>Student 6's first guess for coin weight: <b style=\"color:Tomato\";>0.43</b></p>\n                <p>Student 6's second guess for coin weight: <b style=\"color:Tomato\";>0.64</b></p>\n                <p>You received a bonus of <b>$0.00</b> based on the student's second guess.</p>\n                <p>Total bonus so far: <b>$1.09</b></p>\n                <p>Press any key to continue.</p>\n                ","response":" ","trial_type":"html-keyboard-response","trial_index":61,"time_elapsed":838081,"internal_node_id":"0.0-50.0","params":{"nStudents":24,"maxFlips":30,"completionMinutes":45,"basePay":8,"maxBonus":9,"perTrialBonus":0.5,"perTrialBonusThreshold":0.05,"exampleCost":0.01},"classroomParams":{"A":{"a":1,"b":4},"B":{"a":4,"b":1},"C":{"a":2,"b":8},"D":{"a":8,"b":2}},"conditions":["nonSeqFull","nonSeqPartial","seqNoFeedback","seqFeedback"],"classroomPairings":[["A","B"],["C","D"]],"coinWeights":[0.2,0.5,0.8],"subjectId":"A38240X9B0EBKE","assignmentId":"3FK0YFF9P0270TJ749GWVE5QCT9VVL","hitId":"34KYK9TV2RUAD363EVFPUWVPB97SBP","url":"https://gershmanlab.com/experiments/alicia/teaching/experiment/?hitId=34KYK9TV2RUAD363EVFPUWVPB97SBP&workerId=A38240X9B0EBKE&assignmentId=3FK0YFF9P0270TJ749GWVE5QCT9VVL&a=9YKF7&tp_a=9YKF7&b=3FK0YFF9P0270TJ749GWVE5QCT9VVL&tp_b=3FK0YFF9P0270TJ749GWVE5QCT9VVL&c=365717&tp_c=365717"},{"rt":null,"stimulus":"<div style=\"font-size:60px;\">Next student</div>","response":null,"trial_type":"html-keyboard-response","trial_index":62,"time_elapsed":840582,"internal_node_id":"0.0-51.0-0.0","params":{"nStudents":24,"maxFlips":30,"completionMinutes":45,"basePay":8,"maxBonus":9,"perTrialBonus":0.5,"perTrialBonusThreshold":0.05,"exampleCost":0.01},"classroomParams":{"A":{"a":1,"b":4},"B":{"a":4,"b":1},"C":{"a":2,"b":8},"D":{"a":8,"b":2}},"conditions":["nonSeqFull","nonSeqPartial","seqNoFeedback","seqFeedback"],"classroomPairings":[["A","B"],["C","D"]],"coinWeights":[0.2,0.5,0.8],"subjectId":"A38240X9B0EBKE","assignmentId":"3FK0YFF9P0270TJ749GWVE5QCT9VVL","hitId":"34KYK9TV2RUAD363EVFPUWVPB97SBP","url":"https://gershmanlab.com/experiments/alicia/teaching/experiment/?hitId=34KYK9TV2RUAD363EVFPUWVPB97SBP&workerId=A38240X9B0EBKE&assignmentId=3FK0YFF9P0270TJ749GWVE5QCT9VVL&a=9YKF7&tp_a=9YKF7&b=3FK0YFF9P0270TJ749GWVE5QCT9VVL&tp_b=3FK0YFF9P0270TJ749GWVE5QCT9VVL&c=365717&tp_c=365717"},{"rt":2866,"stimulus":"\n            <h4 style=\"color:Orange;\">Student 7</h4>\n            <h2>The weight of your coin is <b style=\"color:Tomato;\">0.2</b>.</h2>\n            <p>In this block, you will be giving <b>two</b> sets of examples to Student 7.</p>\n                <p>You will see the student's guess after the first set of examples. You will also receive feedback at the end of the block.</p>\n            <p>To earn the highest bonus, you will have to <b>take into consideration the student's guess</b> when you choose your second set of examples.</p>","response":0,"trial_type":"html-button-response","trial_index":63,"time_elapsed":843449,"internal_node_id":"0.0-52.0","params":{"nStudents":24,"maxFlips":30,"completionMinutes":45,"basePay":8,"maxBonus":9,"perTrialBonus":0.5,"perTrialBonusThreshold":0.05,"exampleCost":0.01},"classroomParams":{"A":{"a":1,"b":4},"B":{"a":4,"b":1},"C":{"a":2,"b":8},"D":{"a":8,"b":2}},"conditions":["nonSeqFull","nonSeqPartial","seqNoFeedback","seqFeedback"],"classroomPairings":[["A","B"],["C","D"]],"coinWeights":[0.2,0.5,0.8],"subjectId":"A38240X9B0EBKE","assignmentId":"3FK0YFF9P0270TJ749GWVE5QCT9VVL","hitId":"34KYK9TV2RUAD363EVFPUWVPB97SBP","url":"https://gershmanlab.com/experiments/alicia/teaching/experiment/?hitId=34KYK9TV2RUAD363EVFPUWVPB97SBP&workerId=A38240X9B0EBKE&assignmentId=3FK0YFF9P0270TJ749GWVE5QCT9VVL&a=9YKF7&tp_a=9YKF7&b=3FK0YFF9P0270TJ749GWVE5QCT9VVL&tp_b=3FK0YFF9P0270TJ749GWVE5QCT9VVL&c=365717&tp_c=365717"},{"rt":5683,"response":{"heads":"0","tails":"0"},"type":"response","condition":"seqFeedback","trueTheta":0.2,"classrooms":["A","B"],"studentTrueClassroom":"B","exampleSet":"first","trial_type":"survey-html-form","trial_index":64,"time_elapsed":849134,"internal_node_id":"0.0-53.0-0.0","params":{"nStudents":24,"maxFlips":30,"completionMinutes":45,"basePay":8,"maxBonus":9,"perTrialBonus":0.5,"perTrialBonusThreshold":0.05,"exampleCost":0.01},"classroomParams":{"A":{"a":1,"b":4},"B":{"a":4,"b":1},"C":{"a":2,"b":8},"D":{"a":8,"b":2}},"conditions":["nonSeqFull","nonSeqPartial","seqNoFeedback","seqFeedback"],"classroomPairings":[["A","B"],["C","D"]],"coinWeights":[0.2,0.5,0.8],"subjectId":"A38240X9B0EBKE","assignmentId":"3FK0YFF9P0270TJ749GWVE5QCT9VVL","hitId":"34KYK9TV2RUAD363EVFPUWVPB97SBP","url":"https://gershmanlab.com/experiments/alicia/teaching/experiment/?hitId=34KYK9TV2RUAD363EVFPUWVPB97SBP&workerId=A38240X9B0EBKE&assignmentId=3FK0YFF9P0270TJ749GWVE5QCT9VVL&a=9YKF7&tp_a=9YKF7&b=3FK0YFF9P0270TJ749GWVE5QCT9VVL&tp_b=3FK0YFF9P0270TJ749GWVE5QCT9VVL&c=365717&tp_c=365717","heads":0,"tails":0,"studentIndex":6,"studentTrueHypers":{"a":4,"b":1},"studentGuess":0.8,"delta":0.6000000000000001,"totalExamples":0,"bonusSoFar":1.09},{"rt":5673,"response":{"heads":"0","tails":"4"},"type":"response","condition":"seqFeedback","trueTheta":0.2,"classrooms":["A","B"],"studentTrueClassroom":"B","exampleSet":"first","trial_type":"survey-html-form","trial_index":65,"time_elapsed":854809,"internal_node_id":"0.0-53.1-0.1","params":{"nStudents":24,"maxFlips":30,"completionMinutes":45,"basePay":8,"maxBonus":9,"perTrialBonus":0.5,"perTrialBonusThreshold":0.05,"exampleCost":0.01},"classroomParams":{"A":{"a":1,"b":4},"B":{"a":4,"b":1},"C":{"a":2,"b":8},"D":{"a":8,"b":2}},"conditions":["nonSeqFull","nonSeqPartial","seqNoFeedback","seqFeedback"],"classroomPairings":[["A","B"],["C","D"]],"coinWeights":[0.2,0.5,0.8],"subjectId":"A38240X9B0EBKE","assignmentId":"3FK0YFF9P0270TJ749GWVE5QCT9VVL","hitId":"34KYK9TV2RUAD363EVFPUWVPB97SBP","url":"https://gershmanlab.com/experiments/alicia/teaching/experiment/?hitId=34KYK9TV2RUAD363EVFPUWVPB97SBP&workerId=A38240X9B0EBKE&assignmentId=3FK0YFF9P0270TJ749GWVE5QCT9VVL&a=9YKF7&tp_a=9YKF7&b=3FK0YFF9P0270TJ749GWVE5QCT9VVL&tp_b=3FK0YFF9P0270TJ749GWVE5QCT9VVL&c=365717&tp_c=365717","heads":0,"tails":4,"studentIndex":6,"studentTrueHypers":{"a":4,"b":1},"studentGuess":0.4444444444444444,"delta":0.2444444444444444,"totalExamples":4,"bonusSoFar":1.09},{"rt":null,"stimulus":"Sending examples to student... ","response":null,"trial_type":"html-keyboard-response","trial_index":66,"time_elapsed":856065,"internal_node_id":"0.0-54.0","params":{"nStudents":24,"maxFlips":30,"completionMinutes":45,"basePay":8,"maxBonus":9,"perTrialBonus":0.5,"perTrialBonusThreshold":0.05,"exampleCost":0.01},"classroomParams":{"A":{"a":1,"b":4},"B":{"a":4,"b":1},"C":{"a":2,"b":8},"D":{"a":8,"b":2}},"conditions":["nonSeqFull","nonSeqPartial","seqNoFeedback","seqFeedback"],"classroomPairings":[["A","B"],["C","D"]],"coinWeights":[0.2,0.5,0.8],"subjectId":"A38240X9B0EBKE","assignmentId":"3FK0YFF9P0270TJ749GWVE5QCT9VVL","hitId":"34KYK9TV2RUAD363EVFPUWVPB97SBP","url":"https://gershmanlab.com/experiments/alicia/teaching/experiment/?hitId=34KYK9TV2RUAD363EVFPUWVPB97SBP&workerId=A38240X9B0EBKE&assignmentId=3FK0YFF9P0270TJ749GWVE5QCT9VVL&a=9YKF7&tp_a=9YKF7&b=3FK0YFF9P0270TJ749GWVE5QCT9VVL&tp_b=3FK0YFF9P0270TJ749GWVE5QCT9VVL&c=365717&tp_c=365717"},{"rt":null,"stimulus":"Examples sent to student! Waiting for student...","response":null,"trial_type":"html-keyboard-response","trial_index":67,"time_elapsed":861576,"internal_node_id":"0.0-55.0","params":{"nStudents":24,"maxFlips":30,"completionMinutes":45,"basePay":8,"maxBonus":9,"perTrialBonus":0.5,"perTrialBonusThreshold":0.05,"exampleCost":0.01},"classroomParams":{"A":{"a":1,"b":4},"B":{"a":4,"b":1},"C":{"a":2,"b":8},"D":{"a":8,"b":2}},"conditions":["nonSeqFull","nonSeqPartial","seqNoFeedback","seqFeedback"],"classroomPairings":[["A","B"],["C","D"]],"coinWeights":[0.2,0.5,0.8],"subjectId":"A38240X9B0EBKE","assignmentId":"3FK0YFF9P0270TJ749GWVE5QCT9VVL","hitId":"34KYK9TV2RUAD363EVFPUWVPB97SBP","url":"https://gershmanlab.com/experiments/alicia/teaching/experiment/?hitId=34KYK9TV2RUAD363EVFPUWVPB97SBP&workerId=A38240X9B0EBKE&assignmentId=3FK0YFF9P0270TJ749GWVE5QCT9VVL&a=9YKF7&tp_a=9YKF7&b=3FK0YFF9P0270TJ749GWVE5QCT9VVL&tp_b=3FK0YFF9P0270TJ749GWVE5QCT9VVL&c=365717&tp_c=365717"},{"rt":4704,"stimulus":"\n                <p>Student's guess for coin weight: <b style=\"color:Tomato;\">0.80</b></p>\n                <p></b></p>\n                <p>You will now send another set of examples to your student. <b>Remember to take your student's guess into consideration so that you can earn the highest bonus possible!</b> </p>\n                <p>Press any key to continue.</p>\n                ","response":" ","trial_type":"html-keyboard-response","trial_index":68,"time_elapsed":866277,"internal_node_id":"0.0-56.0","params":{"nStudents":24,"maxFlips":30,"completionMinutes":45,"basePay":8,"maxBonus":9,"perTrialBonus":0.5,"perTrialBonusThreshold":0.05,"exampleCost":0.01},"classroomParams":{"A":{"a":1,"b":4},"B":{"a":4,"b":1},"C":{"a":2,"b":8},"D":{"a":8,"b":2}},"conditions":["nonSeqFull","nonSeqPartial","seqNoFeedback","seqFeedback"],"classroomPairings":[["A","B"],["C","D"]],"coinWeights":[0.2,0.5,0.8],"subjectId":"A38240X9B0EBKE","assignmentId":"3FK0YFF9P0270TJ749GWVE5QCT9VVL","hitId":"34KYK9TV2RUAD363EVFPUWVPB97SBP","url":"https://gershmanlab.com/experiments/alicia/teaching/experiment/?hitId=34KYK9TV2RUAD363EVFPUWVPB97SBP&workerId=A38240X9B0EBKE&assignmentId=3FK0YFF9P0270TJ749GWVE5QCT9VVL&a=9YKF7&tp_a=9YKF7&b=3FK0YFF9P0270TJ749GWVE5QCT9VVL&tp_b=3FK0YFF9P0270TJ749GWVE5QCT9VVL&c=365717&tp_c=365717"},{"rt":13087,"response":{"heads":"1","tails":"10"},"type":"response","condition":"seqFeedback","trueTheta":0.2,"classrooms":["A","B"],"studentTrueClassroom":"B","exampleSet":"second","trial_type":"survey-html-form","trial_index":69,"time_elapsed":879365,"internal_node_id":"0.0-57.0-0.0","params":{"nStudents":24,"maxFlips":30,"completionMinutes":45,"basePay":8,"maxBonus":9,"perTrialBonus":0.5,"perTrialBonusThreshold":0.05,"exampleCost":0.01},"classroomParams":{"A":{"a":1,"b":4},"B":{"a":4,"b":1},"C":{"a":2,"b":8},"D":{"a":8,"b":2}},"conditions":["nonSeqFull","nonSeqPartial","seqNoFeedback","seqFeedback"],"classroomPairings":[["A","B"],["C","D"]],"coinWeights":[0.2,0.5,0.8],"subjectId":"A38240X9B0EBKE","assignmentId":"3FK0YFF9P0270TJ749GWVE5QCT9VVL","hitId":"34KYK9TV2RUAD363EVFPUWVPB97SBP","url":"https://gershmanlab.com/experiments/alicia/teaching/experiment/?hitId=34KYK9TV2RUAD363EVFPUWVPB97SBP&workerId=A38240X9B0EBKE&assignmentId=3FK0YFF9P0270TJ749GWVE5QCT9VVL&a=9YKF7&tp_a=9YKF7&b=3FK0YFF9P0270TJ749GWVE5QCT9VVL&tp_b=3FK0YFF9P0270TJ749GWVE5QCT9VVL&c=365717&tp_c=365717","firstResponseHeads":0,"firstResponseTails":0,"secondResponseHeads":1,"secondResponseTails":10,"totalHeads":1,"totalTails":10,"studentIndex":6,"studentTrueHypers":{"a":4,"b":1},"studentGuess":0.3125,"delta":0.11249999999999999,"bonus":0,"bonusSoFar":1.09,"totalExamples":11},{"rt":null,"stimulus":"Sending examples to student... ","response":null,"trial_type":"html-keyboard-response","trial_index":70,"time_elapsed":881369,"internal_node_id":"0.0-58.0","params":{"nStudents":24,"maxFlips":30,"completionMinutes":45,"basePay":8,"maxBonus":9,"perTrialBonus":0.5,"perTrialBonusThreshold":0.05,"exampleCost":0.01},"classroomParams":{"A":{"a":1,"b":4},"B":{"a":4,"b":1},"C":{"a":2,"b":8},"D":{"a":8,"b":2}},"conditions":["nonSeqFull","nonSeqPartial","seqNoFeedback","seqFeedback"],"classroomPairings":[["A","B"],["C","D"]],"coinWeights":[0.2,0.5,0.8],"subjectId":"A38240X9B0EBKE","assignmentId":"3FK0YFF9P0270TJ749GWVE5QCT9VVL","hitId":"34KYK9TV2RUAD363EVFPUWVPB97SBP","url":"https://gershmanlab.com/experiments/alicia/teaching/experiment/?hitId=34KYK9TV2RUAD363EVFPUWVPB97SBP&workerId=A38240X9B0EBKE&assignmentId=3FK0YFF9P0270TJ749GWVE5QCT9VVL&a=9YKF7&tp_a=9YKF7&b=3FK0YFF9P0270TJ749GWVE5QCT9VVL&tp_b=3FK0YFF9P0270TJ749GWVE5QCT9VVL&c=365717&tp_c=365717"},{"rt":null,"stimulus":"Examples sent to student! Waiting for student...","response":null,"trial_type":"html-keyboard-response","trial_index":71,"time_elapsed":886383,"internal_node_id":"0.0-59.0","params":{"nStudents":24,"maxFlips":30,"completionMinutes":45,"basePay":8,"maxBonus":9,"perTrialBonus":0.5,"perTrialBonusThreshold":0.05,"exampleCost":0.01},"classroomParams":{"A":{"a":1,"b":4},"B":{"a":4,"b":1},"C":{"a":2,"b":8},"D":{"a":8,"b":2}},"conditions":["nonSeqFull","nonSeqPartial","seqNoFeedback","seqFeedback"],"classroomPairings":[["A","B"],["C","D"]],"coinWeights":[0.2,0.5,0.8],"subjectId":"A38240X9B0EBKE","assignmentId":"3FK0YFF9P0270TJ749GWVE5QCT9VVL","hitId":"34KYK9TV2RUAD363EVFPUWVPB97SBP","url":"https://gershmanlab.com/experiments/alicia/teaching/experiment/?hitId=34KYK9TV2RUAD363EVFPUWVPB97SBP&workerId=A38240X9B0EBKE&assignmentId=3FK0YFF9P0270TJ749GWVE5QCT9VVL&a=9YKF7&tp_a=9YKF7&b=3FK0YFF9P0270TJ749GWVE5QCT9VVL&tp_b=3FK0YFF9P0270TJ749GWVE5QCT9VVL&c=365717&tp_c=365717"},{"rt":3293,"stimulus":"\n                <p>Student 7's first guess for coin weight: <b style=\"color:Tomato\";>0.80</b></p>\n                <p>Student 7's second guess for coin weight: <b style=\"color:Tomato\";>0.31</b></p>\n                <p>You received a bonus of <b>$0.00</b> based on the student's second guess.</p>\n                <p>Total bonus so far: <b>$1.09</b></p>\n                <p>Press any key to continue.</p>\n                ","response":" ","trial_type":"html-keyboard-response","trial_index":72,"time_elapsed":889677,"internal_node_id":"0.0-60.0","params":{"nStudents":24,"maxFlips":30,"completionMinutes":45,"basePay":8,"maxBonus":9,"perTrialBonus":0.5,"perTrialBonusThreshold":0.05,"exampleCost":0.01},"classroomParams":{"A":{"a":1,"b":4},"B":{"a":4,"b":1},"C":{"a":2,"b":8},"D":{"a":8,"b":2}},"conditions":["nonSeqFull","nonSeqPartial","seqNoFeedback","seqFeedback"],"classroomPairings":[["A","B"],["C","D"]],"coinWeights":[0.2,0.5,0.8],"subjectId":"A38240X9B0EBKE","assignmentId":"3FK0YFF9P0270TJ749GWVE5QCT9VVL","hitId":"34KYK9TV2RUAD363EVFPUWVPB97SBP","url":"https://gershmanlab.com/experiments/alicia/teaching/experiment/?hitId=34KYK9TV2RUAD363EVFPUWVPB97SBP&workerId=A38240X9B0EBKE&assignmentId=3FK0YFF9P0270TJ749GWVE5QCT9VVL&a=9YKF7&tp_a=9YKF7&b=3FK0YFF9P0270TJ749GWVE5QCT9VVL&tp_b=3FK0YFF9P0270TJ749GWVE5QCT9VVL&c=365717&tp_c=365717"},{"rt":null,"stimulus":"<div style=\"font-size:60px;\">Next student</div>","response":null,"trial_type":"html-keyboard-response","trial_index":73,"time_elapsed":891934,"internal_node_id":"0.0-61.0-0.0","params":{"nStudents":24,"maxFlips":30,"completionMinutes":45,"basePay":8,"maxBonus":9,"perTrialBonus":0.5,"perTrialBonusThreshold":0.05,"exampleCost":0.01},"classroomParams":{"A":{"a":1,"b":4},"B":{"a":4,"b":1},"C":{"a":2,"b":8},"D":{"a":8,"b":2}},"conditions":["nonSeqFull","nonSeqPartial","seqNoFeedback","seqFeedback"],"classroomPairings":[["A","B"],["C","D"]],"coinWeights":[0.2,0.5,0.8],"subjectId":"A38240X9B0EBKE","assignmentId":"3FK0YFF9P0270TJ749GWVE5QCT9VVL","hitId":"34KYK9TV2RUAD363EVFPUWVPB97SBP","url":"https://gershmanlab.com/experiments/alicia/teaching/experiment/?hitId=34KYK9TV2RUAD363EVFPUWVPB97SBP&workerId=A38240X9B0EBKE&assignmentId=3FK0YFF9P0270TJ749GWVE5QCT9VVL&a=9YKF7&tp_a=9YKF7&b=3FK0YFF9P0270TJ749GWVE5QCT9VVL&tp_b=3FK0YFF9P0270TJ749GWVE5QCT9VVL&c=365717&tp_c=365717"},{"rt":14554,"stimulus":"\n            <h4 style=\"color:Orange;\">Student 8</h4>\n            <h2>The weight of your coin is <b style=\"color:Tomato;\">0.5</b>.</h2>\n            <p>In this block, you will be giving <b>one</b> set of examples to Student 8.</p>\n                <p>You will receive feedback at the end of the block.</p>\n            <p></p>","response":0,"trial_type":"html-button-response","trial_index":74,"time_elapsed":906489,"internal_node_id":"0.0-62.0","params":{"nStudents":24,"maxFlips":30,"completionMinutes":45,"basePay":8,"maxBonus":9,"perTrialBonus":0.5,"perTrialBonusThreshold":0.05,"exampleCost":0.01},"classroomParams":{"A":{"a":1,"b":4},"B":{"a":4,"b":1},"C":{"a":2,"b":8},"D":{"a":8,"b":2}},"conditions":["nonSeqFull","nonSeqPartial","seqNoFeedback","seqFeedback"],"classroomPairings":[["A","B"],["C","D"]],"coinWeights":[0.2,0.5,0.8],"subjectId":"A38240X9B0EBKE","assignmentId":"3FK0YFF9P0270TJ749GWVE5QCT9VVL","hitId":"34KYK9TV2RUAD363EVFPUWVPB97SBP","url":"https://gershmanlab.com/experiments/alicia/teaching/experiment/?hitId=34KYK9TV2RUAD363EVFPUWVPB97SBP&workerId=A38240X9B0EBKE&assignmentId=3FK0YFF9P0270TJ749GWVE5QCT9VVL&a=9YKF7&tp_a=9YKF7&b=3FK0YFF9P0270TJ749GWVE5QCT9VVL&tp_b=3FK0YFF9P0270TJ749GWVE5QCT9VVL&c=365717&tp_c=365717"},{"rt":17148,"response":{"heads":"1","tails":"6"},"type":"response","condition":"nonSeqFull","trueTheta":0.5,"classrooms":["A","B"],"studentTrueClassroom":"B","exampleSet":"first","trial_type":"survey-html-form","trial_index":75,"time_elapsed":923641,"internal_node_id":"0.0-63.0-0.0","params":{"nStudents":24,"maxFlips":30,"completionMinutes":45,"basePay":8,"maxBonus":9,"perTrialBonus":0.5,"perTrialBonusThreshold":0.05,"exampleCost":0.01},"classroomParams":{"A":{"a":1,"b":4},"B":{"a":4,"b":1},"C":{"a":2,"b":8},"D":{"a":8,"b":2}},"conditions":["nonSeqFull","nonSeqPartial","seqNoFeedback","seqFeedback"],"classroomPairings":[["A","B"],["C","D"]],"coinWeights":[0.2,0.5,0.8],"subjectId":"A38240X9B0EBKE","assignmentId":"3FK0YFF9P0270TJ749GWVE5QCT9VVL","hitId":"34KYK9TV2RUAD363EVFPUWVPB97SBP","url":"https://gershmanlab.com/experiments/alicia/teaching/experiment/?hitId=34KYK9TV2RUAD363EVFPUWVPB97SBP&workerId=A38240X9B0EBKE&assignmentId=3FK0YFF9P0270TJ749GWVE5QCT9VVL&a=9YKF7&tp_a=9YKF7&b=3FK0YFF9P0270TJ749GWVE5QCT9VVL&tp_b=3FK0YFF9P0270TJ749GWVE5QCT9VVL&c=365717&tp_c=365717","heads":1,"tails":6,"studentIndex":7,"studentTrueHypers":{"a":4,"b":1},"studentGuess":0.4166666666666667,"delta":0.08333333333333331,"totalExamples":7,"bonus":0,"bonusSoFar":1.09},{"rt":null,"stimulus":"Sending examples to student... ","response":null,"trial_type":"html-keyboard-response","trial_index":76,"time_elapsed":925398,"internal_node_id":"0.0-64.0","params":{"nStudents":24,"maxFlips":30,"completionMinutes":45,"basePay":8,"maxBonus":9,"perTrialBonus":0.5,"perTrialBonusThreshold":0.05,"exampleCost":0.01},"classroomParams":{"A":{"a":1,"b":4},"B":{"a":4,"b":1},"C":{"a":2,"b":8},"D":{"a":8,"b":2}},"conditions":["nonSeqFull","nonSeqPartial","seqNoFeedback","seqFeedback"],"classroomPairings":[["A","B"],["C","D"]],"coinWeights":[0.2,0.5,0.8],"subjectId":"A38240X9B0EBKE","assignmentId":"3FK0YFF9P0270TJ749GWVE5QCT9VVL","hitId":"34KYK9TV2RUAD363EVFPUWVPB97SBP","url":"https://gershmanlab.com/experiments/alicia/teaching/experiment/?hitId=34KYK9TV2RUAD363EVFPUWVPB97SBP&workerId=A38240X9B0EBKE&assignmentId=3FK0YFF9P0270TJ749GWVE5QCT9VVL&a=9YKF7&tp_a=9YKF7&b=3FK0YFF9P0270TJ749GWVE5QCT9VVL&tp_b=3FK0YFF9P0270TJ749GWVE5QCT9VVL&c=365717&tp_c=365717"},{"rt":null,"stimulus":"Examples sent to student! Waiting for student...","response":null,"trial_type":"html-keyboard-response","trial_index":77,"time_elapsed":931413,"internal_node_id":"0.0-65.0","params":{"nStudents":24,"maxFlips":30,"completionMinutes":45,"basePay":8,"maxBonus":9,"perTrialBonus":0.5,"perTrialBonusThreshold":0.05,"exampleCost":0.01},"classroomParams":{"A":{"a":1,"b":4},"B":{"a":4,"b":1},"C":{"a":2,"b":8},"D":{"a":8,"b":2}},"conditions":["nonSeqFull","nonSeqPartial","seqNoFeedback","seqFeedback"],"classroomPairings":[["A","B"],["C","D"]],"coinWeights":[0.2,0.5,0.8],"subjectId":"A38240X9B0EBKE","assignmentId":"3FK0YFF9P0270TJ749GWVE5QCT9VVL","hitId":"34KYK9TV2RUAD363EVFPUWVPB97SBP","url":"https://gershmanlab.com/experiments/alicia/teaching/experiment/?hitId=34KYK9TV2RUAD363EVFPUWVPB97SBP&workerId=A38240X9B0EBKE&assignmentId=3FK0YFF9P0270TJ749GWVE5QCT9VVL&a=9YKF7&tp_a=9YKF7&b=3FK0YFF9P0270TJ749GWVE5QCT9VVL&tp_b=3FK0YFF9P0270TJ749GWVE5QCT9VVL&c=365717&tp_c=365717"},{"rt":4698,"stimulus":"\n                <p>Student's guess for coin weight: <b style=\"color:Tomato;\">0.42</b></p>\n                <p>You received a bonus of <b>$0</b>. Total bonus so far: <b>$1.09</b></b></p>\n                <p></p>\n                <p>Press any key to continue.</p>\n                ","response":" ","trial_type":"html-keyboard-response","trial_index":78,"time_elapsed":936113,"internal_node_id":"0.0-66.0","params":{"nStudents":24,"maxFlips":30,"completionMinutes":45,"basePay":8,"maxBonus":9,"perTrialBonus":0.5,"perTrialBonusThreshold":0.05,"exampleCost":0.01},"classroomParams":{"A":{"a":1,"b":4},"B":{"a":4,"b":1},"C":{"a":2,"b":8},"D":{"a":8,"b":2}},"conditions":["nonSeqFull","nonSeqPartial","seqNoFeedback","seqFeedback"],"classroomPairings":[["A","B"],["C","D"]],"coinWeights":[0.2,0.5,0.8],"subjectId":"A38240X9B0EBKE","assignmentId":"3FK0YFF9P0270TJ749GWVE5QCT9VVL","hitId":"34KYK9TV2RUAD363EVFPUWVPB97SBP","url":"https://gershmanlab.com/experiments/alicia/teaching/experiment/?hitId=34KYK9TV2RUAD363EVFPUWVPB97SBP&workerId=A38240X9B0EBKE&assignmentId=3FK0YFF9P0270TJ749GWVE5QCT9VVL&a=9YKF7&tp_a=9YKF7&b=3FK0YFF9P0270TJ749GWVE5QCT9VVL&tp_b=3FK0YFF9P0270TJ749GWVE5QCT9VVL&c=365717&tp_c=365717"},{"rt":null,"stimulus":"<div style=\"font-size:60px;\">Next student</div>","response":null,"trial_type":"html-keyboard-response","trial_index":79,"time_elapsed":938367,"internal_node_id":"0.0-67.0-0.0","params":{"nStudents":24,"maxFlips":30,"completionMinutes":45,"basePay":8,"maxBonus":9,"perTrialBonus":0.5,"perTrialBonusThreshold":0.05,"exampleCost":0.01},"classroomParams":{"A":{"a":1,"b":4},"B":{"a":4,"b":1},"C":{"a":2,"b":8},"D":{"a":8,"b":2}},"conditions":["nonSeqFull","nonSeqPartial","seqNoFeedback","seqFeedback"],"classroomPairings":[["A","B"],["C","D"]],"coinWeights":[0.2,0.5,0.8],"subjectId":"A38240X9B0EBKE","assignmentId":"3FK0YFF9P0270TJ749GWVE5QCT9VVL","hitId":"34KYK9TV2RUAD363EVFPUWVPB97SBP","url":"https://gershmanlab.com/experiments/alicia/teaching/experiment/?hitId=34KYK9TV2RUAD363EVFPUWVPB97SBP&workerId=A38240X9B0EBKE&assignmentId=3FK0YFF9P0270TJ749GWVE5QCT9VVL&a=9YKF7&tp_a=9YKF7&b=3FK0YFF9P0270TJ749GWVE5QCT9VVL&tp_b=3FK0YFF9P0270TJ749GWVE5QCT9VVL&c=365717&tp_c=365717"},{"rt":3487,"stimulus":"\n            <h4 style=\"color:Orange;\">Student 9</h4>\n            <h2>The weight of your coin is <b style=\"color:Tomato;\">0.8</b>.</h2>\n            <p>In this block, you will be giving <b>two</b> sets of examples to Student 9.</p>\n                <p>You will receive feedback at the end of the block.</p>\n            <p></p>","response":0,"trial_type":"html-button-response","trial_index":80,"time_elapsed":941855,"internal_node_id":"0.0-68.0","params":{"nStudents":24,"maxFlips":30,"completionMinutes":45,"basePay":8,"maxBonus":9,"perTrialBonus":0.5,"perTrialBonusThreshold":0.05,"exampleCost":0.01},"classroomParams":{"A":{"a":1,"b":4},"B":{"a":4,"b":1},"C":{"a":2,"b":8},"D":{"a":8,"b":2}},"conditions":["nonSeqFull","nonSeqPartial","seqNoFeedback","seqFeedback"],"classroomPairings":[["A","B"],["C","D"]],"coinWeights":[0.2,0.5,0.8],"subjectId":"A38240X9B0EBKE","assignmentId":"3FK0YFF9P0270TJ749GWVE5QCT9VVL","hitId":"34KYK9TV2RUAD363EVFPUWVPB97SBP","url":"https://gershmanlab.com/experiments/alicia/teaching/experiment/?hitId=34KYK9TV2RUAD363EVFPUWVPB97SBP&workerId=A38240X9B0EBKE&assignmentId=3FK0YFF9P0270TJ749GWVE5QCT9VVL&a=9YKF7&tp_a=9YKF7&b=3FK0YFF9P0270TJ749GWVE5QCT9VVL&tp_b=3FK0YFF9P0270TJ749GWVE5QCT9VVL&c=365717&tp_c=365717"},{"rt":12744,"response":{"heads":"4","tails":"0"},"type":"response","condition":"seqNoFeedback","trueTheta":0.8,"classrooms":["A","B"],"studentTrueClassroom":"A","exampleSet":"first","trial_type":"survey-html-form","trial_index":81,"time_elapsed":954600,"internal_node_id":"0.0-69.0-0.0","params":{"nStudents":24,"maxFlips":30,"completionMinutes":45,"basePay":8,"maxBonus":9,"perTrialBonus":0.5,"perTrialBonusThreshold":0.05,"exampleCost":0.01},"classroomParams":{"A":{"a":1,"b":4},"B":{"a":4,"b":1},"C":{"a":2,"b":8},"D":{"a":8,"b":2}},"conditions":["nonSeqFull","nonSeqPartial","seqNoFeedback","seqFeedback"],"classroomPairings":[["A","B"],["C","D"]],"coinWeights":[0.2,0.5,0.8],"subjectId":"A38240X9B0EBKE","assignmentId":"3FK0YFF9P0270TJ749GWVE5QCT9VVL","hitId":"34KYK9TV2RUAD363EVFPUWVPB97SBP","url":"https://gershmanlab.com/experiments/alicia/teaching/experiment/?hitId=34KYK9TV2RUAD363EVFPUWVPB97SBP&workerId=A38240X9B0EBKE&assignmentId=3FK0YFF9P0270TJ749GWVE5QCT9VVL&a=9YKF7&tp_a=9YKF7&b=3FK0YFF9P0270TJ749GWVE5QCT9VVL&tp_b=3FK0YFF9P0270TJ749GWVE5QCT9VVL&c=365717&tp_c=365717","heads":4,"tails":0,"studentIndex":8,"studentTrueHypers":{"a":1,"b":4},"studentGuess":0.5555555555555556,"delta":0.24444444444444446,"totalExamples":4,"bonusSoFar":1.09},{"rt":null,"stimulus":"Sending examples to student... ","response":null,"trial_type":"html-keyboard-response","trial_index":82,"time_elapsed":956360,"internal_node_id":"0.0-70.0","params":{"nStudents":24,"maxFlips":30,"completionMinutes":45,"basePay":8,"maxBonus":9,"perTrialBonus":0.5,"perTrialBonusThreshold":0.05,"exampleCost":0.01},"classroomParams":{"A":{"a":1,"b":4},"B":{"a":4,"b":1},"C":{"a":2,"b":8},"D":{"a":8,"b":2}},"conditions":["nonSeqFull","nonSeqPartial","seqNoFeedback","seqFeedback"],"classroomPairings":[["A","B"],["C","D"]],"coinWeights":[0.2,0.5,0.8],"subjectId":"A38240X9B0EBKE","assignmentId":"3FK0YFF9P0270TJ749GWVE5QCT9VVL","hitId":"34KYK9TV2RUAD363EVFPUWVPB97SBP","url":"https://gershmanlab.com/experiments/alicia/teaching/experiment/?hitId=34KYK9TV2RUAD363EVFPUWVPB97SBP&workerId=A38240X9B0EBKE&assignmentId=3FK0YFF9P0270TJ749GWVE5QCT9VVL&a=9YKF7&tp_a=9YKF7&b=3FK0YFF9P0270TJ749GWVE5QCT9VVL&tp_b=3FK0YFF9P0270TJ749GWVE5QCT9VVL&c=365717&tp_c=365717"},{"rt":null,"stimulus":"Examples sent to student! Waiting for student...","response":null,"trial_type":"html-keyboard-response","trial_index":83,"time_elapsed":960869,"internal_node_id":"0.0-71.0","params":{"nStudents":24,"maxFlips":30,"completionMinutes":45,"basePay":8,"maxBonus":9,"perTrialBonus":0.5,"perTrialBonusThreshold":0.05,"exampleCost":0.01},"classroomParams":{"A":{"a":1,"b":4},"B":{"a":4,"b":1},"C":{"a":2,"b":8},"D":{"a":8,"b":2}},"conditions":["nonSeqFull","nonSeqPartial","seqNoFeedback","seqFeedback"],"classroomPairings":[["A","B"],["C","D"]],"coinWeights":[0.2,0.5,0.8],"subjectId":"A38240X9B0EBKE","assignmentId":"3FK0YFF9P0270TJ749GWVE5QCT9VVL","hitId":"34KYK9TV2RUAD363EVFPUWVPB97SBP","url":"https://gershmanlab.com/experiments/alicia/teaching/experiment/?hitId=34KYK9TV2RUAD363EVFPUWVPB97SBP&workerId=A38240X9B0EBKE&assignmentId=3FK0YFF9P0270TJ749GWVE5QCT9VVL&a=9YKF7&tp_a=9YKF7&b=3FK0YFF9P0270TJ749GWVE5QCT9VVL&tp_b=3FK0YFF9P0270TJ749GWVE5QCT9VVL&c=365717&tp_c=365717"},{"rt":12009,"response":{"heads":"4","tails":"1"},"type":"response","condition":"seqNoFeedback","trueTheta":0.8,"classrooms":["A","B"],"studentTrueClassroom":"A","exampleSet":"second","trial_type":"survey-html-form","trial_index":84,"time_elapsed":972881,"internal_node_id":"0.0-72.0-0.0","params":{"nStudents":24,"maxFlips":30,"completionMinutes":45,"basePay":8,"maxBonus":9,"perTrialBonus":0.5,"perTrialBonusThreshold":0.05,"exampleCo