[{"rt":17520,"stimulus":"Welcome to the experiment. Press any key to begin.","response":" ","trial_type":"html-keyboard-response","trial_index":0,"time_elapsed":17537,"internal_node_id":"0.0-0.0","params":{"nStudents":24,"maxFlips":30,"completionMinutes":45,"basePay":8,"maxBonus":9,"perTrialBonus":0.5,"perTrialBonusThreshold":0.05,"exampleCost":0.01},"classroomParams":{"A":{"a":1,"b":4},"B":{"a":4,"b":1},"C":{"a":2,"b":8},"D":{"a":8,"b":2}},"conditions":["nonSeqFull","nonSeqPartial","seqNoFeedback","seqFeedback"],"classroomPairings":[["A","B"],["C","D"]],"coinWeights":[0.2,0.5,0.8],"subjectId":"A38IZLCH8VYVFK","assignmentId":"3X4MXAO0BHASMB2VLZGIGJZ1YYVWR4","hitId":"32TZXEA1OL6QYKM0MXQIQH2ABHN14I","url":"https://gershmanlab.com/experiments/alicia/teaching/experiment/?hitId=32TZXEA1OL6QYKM0MXQIQH2ABHN14I&workerId=A38IZLCH8VYVFK&assignmentId=3X4MXAO0BHASMB2VLZGIGJZ1YYVWR4&a=0X4X9&tp_a=0X4X9&b=3X4MXAO0BHASMB2VLZGIGJZ1YYVWR4&tp_b=3X4MXAO0BHASMB2VLZGIGJZ1YYVWR4&c=365799&tp_c=365799"},{"rt":27053,"stimulus":"\n        <h3>Please read this consent agreement carefully before deciding whether to participate in this experiment.</h3>\n        <p><b>Purpose of the research:</b> To examine how people teach effectively.</p>\n        <p><b>What you will do in this research:</b> You will teach students the weights of different coins.</p>\n        <p><b>Time required:</b> This experiment will take 45 minutes to complete.</p>\n        <p><b>Risks:</b> There are no anticipated risks associated with participating in this study.             The effects of participating should be comparable to those you would experience from viewing a computer monitor             and using a mouse and keyboard for the duration of the experiment.</p>\n        <p><b>Benefits:</b> The study provides important information about the nature of teaching.</p>\n        <p><b>Compensation:</b> You will receive <b>$8</b> for completing the experiment and a performance bonus of up to <b>$9</b>.</p>\n        <p><b>Confidentiality:</b> Your participation in this study will remain confidential.             No personally identifiable information will be associated with your data.             Your de-identified data may be shared with other researchers and used in future projects.</p>\n        <p><b>Participation and withdrawal:</b> Your participation in this study is completely voluntary and             you may refuse to participate or you may choose to withdraw at any time without penalty or loss of\n            benefits to which you are otherwise entitled.</p>\n        <p><b>How to contact the researcher:</b> If you have questions or concerns about your participation            or payment, or want to request a summary of research findings, please contact\n            Alicia Chen, aliciachen@college.harvard.edu.</p>\n        <p><b>Whom to contact about your rights in this research:</b> For questions, concerns, suggestions,             or complaints that have not been or cannot be addressed by the researcher, or to report             research-related harm, please contact the Committee on the Use of Human Subjects in Research at Harvard University,             1414 Massachusetts Avenue, Second Floor, Cambridge, MA 02138. Phone: 617-496-2847. Email: cuhs@fas.harvard.edu.</p>\n        ","response":0,"trial_type":"html-button-response","trial_index":1,"time_elapsed":44592,"internal_node_id":"0.0-1.0","params":{"nStudents":24,"maxFlips":30,"completionMinutes":45,"basePay":8,"maxBonus":9,"perTrialBonus":0.5,"perTrialBonusThreshold":0.05,"exampleCost":0.01},"classroomParams":{"A":{"a":1,"b":4},"B":{"a":4,"b":1},"C":{"a":2,"b":8},"D":{"a":8,"b":2}},"conditions":["nonSeqFull","nonSeqPartial","seqNoFeedback","seqFeedback"],"classroomPairings":[["A","B"],["C","D"]],"coinWeights":[0.2,0.5,0.8],"subjectId":"A38IZLCH8VYVFK","assignmentId":"3X4MXAO0BHASMB2VLZGIGJZ1YYVWR4","hitId":"32TZXEA1OL6QYKM0MXQIQH2ABHN14I","url":"https://gershmanlab.com/experiments/alicia/teaching/experiment/?hitId=32TZXEA1OL6QYKM0MXQIQH2ABHN14I&workerId=A38IZLCH8VYVFK&assignmentId=3X4MXAO0BHASMB2VLZGIGJZ1YYVWR4&a=0X4X9&tp_a=0X4X9&b=3X4MXAO0BHASMB2VLZGIGJZ1YYVWR4&tp_b=3X4MXAO0BHASMB2VLZGIGJZ1YYVWR4&c=365799&tp_c=365799"},{"view_history":[{"page_index":0,"viewing_time":6233},{"page_index":1,"viewing_time":8320},{"page_index":2,"viewing_time":27080},{"page_index":3,"viewing_time":13628},{"page_index":4,"viewing_time":11296},{"page_index":5,"viewing_time":13881},{"page_index":6,"viewing_time":27576}],"rt":108014,"trial_type":"instructions","trial_index":2,"time_elapsed":152629,"internal_node_id":"0.0-2.0-0.0","params":{"nStudents":24,"maxFlips":30,"completionMinutes":45,"basePay":8,"maxBonus":9,"perTrialBonus":0.5,"perTrialBonusThreshold":0.05,"exampleCost":0.01},"classroomParams":{"A":{"a":1,"b":4},"B":{"a":4,"b":1},"C":{"a":2,"b":8},"D":{"a":8,"b":2}},"conditions":["nonSeqFull","nonSeqPartial","seqNoFeedback","seqFeedback"],"classroomPairings":[["A","B"],["C","D"]],"coinWeights":[0.2,0.5,0.8],"subjectId":"A38IZLCH8VYVFK","assignmentId":"3X4MXAO0BHASMB2VLZGIGJZ1YYVWR4","hitId":"32TZXEA1OL6QYKM0MXQIQH2ABHN14I","url":"https://gershmanlab.com/experiments/alicia/teaching/experiment/?hitId=32TZXEA1OL6QYKM0MXQIQH2ABHN14I&workerId=A38IZLCH8VYVFK&assignmentId=3X4MXAO0BHASMB2VLZGIGJZ1YYVWR4&a=0X4X9&tp_a=0X4X9&b=3X4MXAO0BHASMB2VLZGIGJZ1YYVWR4&tp_b=3X4MXAO0BHASMB2VLZGIGJZ1YYVWR4&c=365799&tp_c=365799"},{"rt":39813,"response":{"Q0":"Students in different classrooms have seen a different proportion of fair and unfair coins before seeing the examples you select for them.","Q1":"By <b>considering the student's classroom information</b> so that I can teach efficiently and accurately/helpfully at the same time (because each example I give to the student costs money!).","Q2":"The coin lands heads 90% of the time.","Q3":"No, I will teach a <b>new</b> student each time.","Q4":"The students are also on the same alien planet as you, where coins can be unfair.","Q5":"Based on the student's second (and final) guess."},"question_order":[0,3,5,4,1,2],"trial_type":"survey-multi-choice","trial_index":3,"time_elapsed":192446,"internal_node_id":"0.0-2.0-1.0","params":{"nStudents":24,"maxFlips":30,"completionMinutes":45,"basePay":8,"maxBonus":9,"perTrialBonus":0.5,"perTrialBonusThreshold":0.05,"exampleCost":0.01},"classroomParams":{"A":{"a":1,"b":4},"B":{"a":4,"b":1},"C":{"a":2,"b":8},"D":{"a":8,"b":2}},"conditions":["nonSeqFull","nonSeqPartial","seqNoFeedback","seqFeedback"],"classroomPairings":[["A","B"],["C","D"]],"coinWeights":[0.2,0.5,0.8],"subjectId":"A38IZLCH8VYVFK","assignmentId":"3X4MXAO0BHASMB2VLZGIGJZ1YYVWR4","hitId":"32TZXEA1OL6QYKM0MXQIQH2ABHN14I","url":"https://gershmanlab.com/experiments/alicia/teaching/experiment/?hitId=32TZXEA1OL6QYKM0MXQIQH2ABHN14I&workerId=A38IZLCH8VYVFK&assignmentId=3X4MXAO0BHASMB2VLZGIGJZ1YYVWR4&a=0X4X9&tp_a=0X4X9&b=3X4MXAO0BHASMB2VLZGIGJZ1YYVWR4&tp_b=3X4MXAO0BHASMB2VLZGIGJZ1YYVWR4&c=365799&tp_c=365799","pass":false},{"rt":2653,"stimulus":"Oops, you have missed question(s) on the comprehension check! We'll show you the instructions again.","response":0,"trial_type":"html-button-response","trial_index":4,"time_elapsed":195104,"internal_node_id":"0.0-2.0-2.0-0.0","params":{"nStudents":24,"maxFlips":30,"completionMinutes":45,"basePay":8,"maxBonus":9,"perTrialBonus":0.5,"perTrialBonusThreshold":0.05,"exampleCost":0.01},"classroomParams":{"A":{"a":1,"b":4},"B":{"a":4,"b":1},"C":{"a":2,"b":8},"D":{"a":8,"b":2}},"conditions":["nonSeqFull","nonSeqPartial","seqNoFeedback","seqFeedback"],"classroomPairings":[["A","B"],["C","D"]],"coinWeights":[0.2,0.5,0.8],"subjectId":"A38IZLCH8VYVFK","assignmentId":"3X4MXAO0BHASMB2VLZGIGJZ1YYVWR4","hitId":"32TZXEA1OL6QYKM0MXQIQH2ABHN14I","url":"https://gershmanlab.com/experiments/alicia/teaching/experiment/?hitId=32TZXEA1OL6QYKM0MXQIQH2ABHN14I&workerId=A38IZLCH8VYVFK&assignmentId=3X4MXAO0BHASMB2VLZGIGJZ1YYVWR4&a=0X4X9&tp_a=0X4X9&b=3X4MXAO0BHASMB2VLZGIGJZ1YYVWR4&tp_b=3X4MXAO0BHASMB2VLZGIGJZ1YYVWR4&c=365799&tp_c=365799"},{"view_history":[{"page_index":0,"viewing_time":2196},{"page_index":1,"viewing_time":1753},{"page_index":2,"viewing_time":41423},{"page_index":3,"viewing_time":1778},{"page_index":2,"viewing_time":2280},{"page_index":3,"viewing_time":8741},{"page_index":4,"viewing_time":2970},{"page_index":5,"viewing_time":18839},{"page_index":6,"viewing_time":7490}],"rt":87471,"trial_type":"instructions","trial_index":5,"time_elapsed":282576,"internal_node_id":"0.0-2.1-0.1","params":{"nStudents":24,"maxFlips":30,"completionMinutes":45,"basePay":8,"maxBonus":9,"perTrialBonus":0.5,"perTrialBonusThreshold":0.05,"exampleCost":0.01},"classroomParams":{"A":{"a":1,"b":4},"B":{"a":4,"b":1},"C":{"a":2,"b":8},"D":{"a":8,"b":2}},"conditions":["nonSeqFull","nonSeqPartial","seqNoFeedback","seqFeedback"],"classroomPairings":[["A","B"],["C","D"]],"coinWeights":[0.2,0.5,0.8],"subjectId":"A38IZLCH8VYVFK","assignmentId":"3X4MXAO0BHASMB2VLZGIGJZ1YYVWR4","hitId":"32TZXEA1OL6QYKM0MXQIQH2ABHN14I","url":"https://gershmanlab.com/experiments/alicia/teaching/experiment/?hitId=32TZXEA1OL6QYKM0MXQIQH2ABHN14I&workerId=A38IZLCH8VYVFK&assignmentId=3X4MXAO0BHASMB2VLZGIGJZ1YYVWR4&a=0X4X9&tp_a=0X4X9&b=3X4MXAO0BHASMB2VLZGIGJZ1YYVWR4&tp_b=3X4MXAO0BHASMB2VLZGIGJZ1YYVWR4&c=365799&tp_c=365799"},{"rt":25493,"response":{"Q0":"Students in different classrooms will have seen a different number of heads and tails before seeing the examples you select for them.","Q1":"By <b>considering the student's classroom information</b> so that I can teach efficiently and accurately/helpfully at the same time (because each example I give to the student costs money!).","Q2":"The coin lands heads 90% of the time.","Q3":"Yes, I might encounter the same student twice.","Q4":"The students are also on the same alien planet as you, where coins can be unfair.","Q5":"Based on the student's second (and final) guess."},"question_order":[4,2,0,1,5,3],"trial_type":"survey-multi-choice","trial_index":6,"time_elapsed":308072,"internal_node_id":"0.0-2.1-1.1","params":{"nStudents":24,"maxFlips":30,"completionMinutes":45,"basePay":8,"maxBonus":9,"perTrialBonus":0.5,"perTrialBonusThreshold":0.05,"exampleCost":0.01},"classroomParams":{"A":{"a":1,"b":4},"B":{"a":4,"b":1},"C":{"a":2,"b":8},"D":{"a":8,"b":2}},"conditions":["nonSeqFull","nonSeqPartial","seqNoFeedback","seqFeedback"],"classroomPairings":[["A","B"],["C","D"]],"coinWeights":[0.2,0.5,0.8],"subjectId":"A38IZLCH8VYVFK","assignmentId":"3X4MXAO0BHASMB2VLZGIGJZ1YYVWR4","hitId":"32TZXEA1OL6QYKM0MXQIQH2ABHN14I","url":"https://gershmanlab.com/experiments/alicia/teaching/experiment/?hitId=32TZXEA1OL6QYKM0MXQIQH2ABHN14I&workerId=A38IZLCH8VYVFK&assignmentId=3X4MXAO0BHASMB2VLZGIGJZ1YYVWR4&a=0X4X9&tp_a=0X4X9&b=3X4MXAO0BHASMB2VLZGIGJZ1YYVWR4&tp_b=3X4MXAO0BHASMB2VLZGIGJZ1YYVWR4&c=365799&tp_c=365799","pass":false},{"rt":1923,"stimulus":"Oops, you have missed question(s) on the comprehension check! We'll show you the instructions again.","response":0,"trial_type":"html-button-response","trial_index":7,"time_elapsed":309998,"internal_node_id":"0.0-2.1-2.1-0.1","params":{"nStudents":24,"maxFlips":30,"completionMinutes":45,"basePay":8,"maxBonus":9,"perTrialBonus":0.5,"perTrialBonusThreshold":0.05,"exampleCost":0.01},"classroomParams":{"A":{"a":1,"b":4},"B":{"a":4,"b":1},"C":{"a":2,"b":8},"D":{"a":8,"b":2}},"conditions":["nonSeqFull","nonSeqPartial","seqNoFeedback","seqFeedback"],"classroomPairings":[["A","B"],["C","D"]],"coinWeights":[0.2,0.5,0.8],"subjectId":"A38IZLCH8VYVFK","assignmentId":"3X4MXAO0BHASMB2VLZGIGJZ1YYVWR4","hitId":"32TZXEA1OL6QYKM0MXQIQH2ABHN14I","url":"https://gershmanlab.com/experiments/alicia/teaching/experiment/?hitId=32TZXEA1OL6QYKM0MXQIQH2ABHN14I&workerId=A38IZLCH8VYVFK&assignmentId=3X4MXAO0BHASMB2VLZGIGJZ1YYVWR4&a=0X4X9&tp_a=0X4X9&b=3X4MXAO0BHASMB2VLZGIGJZ1YYVWR4&tp_b=3X4MXAO0BHASMB2VLZGIGJZ1YYVWR4&c=365799&tp_c=365799"},{"view_history":[{"page_index":0,"viewing_time":1340},{"page_index":1,"viewing_time":562},{"page_index":2,"viewing_time":1949},{"page_index":3,"viewing_time":751},{"page_index":4,"viewing_time":1218},{"page_index":5,"viewing_time":929},{"page_index":6,"viewing_time":1884}],"rt":8633,"trial_type":"instructions","trial_index":8,"time_elapsed":318631,"internal_node_id":"0.0-2.2-0.2","params":{"nStudents":24,"maxFlips":30,"completionMinutes":45,"basePay":8,"maxBonus":9,"perTrialBonus":0.5,"perTrialBonusThreshold":0.05,"exampleCost":0.01},"classroomParams":{"A":{"a":1,"b":4},"B":{"a":4,"b":1},"C":{"a":2,"b":8},"D":{"a":8,"b":2}},"conditions":["nonSeqFull","nonSeqPartial","seqNoFeedback","seqFeedback"],"classroomPairings":[["A","B"],["C","D"]],"coinWeights":[0.2,0.5,0.8],"subjectId":"A38IZLCH8VYVFK","assignmentId":"3X4MXAO0BHASMB2VLZGIGJZ1YYVWR4","hitId":"32TZXEA1OL6QYKM0MXQIQH2ABHN14I","url":"https://gershmanlab.com/experiments/alicia/teaching/experiment/?hitId=32TZXEA1OL6QYKM0MXQIQH2ABHN14I&workerId=A38IZLCH8VYVFK&assignmentId=3X4MXAO0BHASMB2VLZGIGJZ1YYVWR4&a=0X4X9&tp_a=0X4X9&b=3X4MXAO0BHASMB2VLZGIGJZ1YYVWR4&tp_b=3X4MXAO0BHASMB2VLZGIGJZ1YYVWR4&c=365799&tp_c=365799"},{"rt":14047,"response":{"Q0":"Students in different classrooms will have seen a different number of heads and tails before seeing the examples you select for them.","Q1":"By <b>considering the student's classroom information</b> so that I can teach efficiently and accurately/helpfully at the same time (because each example I give to the student costs money!).","Q2":"The coin lands heads 90% of the time.","Q3":"No, I will teach a <b>new</b> student each time.","Q4":"The students are also on the same alien planet as you, where coins can be unfair.","Q5":"Based on the student's second (and final) guess."},"question_order":[4,1,3,2,0,5],"trial_type":"survey-multi-choice","trial_index":9,"time_elapsed":332680,"internal_node_id":"0.0-2.2-1.2","params":{"nStudents":24,"maxFlips":30,"completionMinutes":45,"basePay":8,"maxBonus":9,"perTrialBonus":0.5,"perTrialBonusThreshold":0.05,"exampleCost":0.01},"classroomParams":{"A":{"a":1,"b":4},"B":{"a":4,"b":1},"C":{"a":2,"b":8},"D":{"a":8,"b":2}},"conditions":["nonSeqFull","nonSeqPartial","seqNoFeedback","seqFeedback"],"classroomPairings":[["A","B"],["C","D"]],"coinWeights":[0.2,0.5,0.8],"subjectId":"A38IZLCH8VYVFK","assignmentId":"3X4MXAO0BHASMB2VLZGIGJZ1YYVWR4","hitId":"32TZXEA1OL6QYKM0MXQIQH2ABHN14I","url":"https://gershmanlab.com/experiments/alicia/teaching/experiment/?hitId=32TZXEA1OL6QYKM0MXQIQH2ABHN14I&workerId=A38IZLCH8VYVFK&assignmentId=3X4MXAO0BHASMB2VLZGIGJZ1YYVWR4&a=0X4X9&tp_a=0X4X9&b=3X4MXAO0BHASMB2VLZGIGJZ1YYVWR4&tp_b=3X4MXAO0BHASMB2VLZGIGJZ1YYVWR4&c=365799&tp_c=365799","pass":true},{"rt":null,"stimulus":"<div style=\"font-size:30px;\">Congrats on passing the comprehension quiz! The experiment will begin in a few seconds.</div>","response":null,"trial_type":"html-keyboard-response","trial_index":10,"time_elapsed":335688,"internal_node_id":"0.0-3.0","params":{"nStudents":24,"maxFlips":30,"completionMinutes":45,"basePay":8,"maxBonus":9,"perTrialBonus":0.5,"perTrialBonusThreshold":0.05,"exampleCost":0.01},"classroomParams":{"A":{"a":1,"b":4},"B":{"a":4,"b":1},"C":{"a":2,"b":8},"D":{"a":8,"b":2}},"conditions":["nonSeqFull","nonSeqPartial","seqNoFeedback","seqFeedback"],"classroomPairings":[["A","B"],["C","D"]],"coinWeights":[0.2,0.5,0.8],"subjectId":"A38IZLCH8VYVFK","assignmentId":"3X4MXAO0BHASMB2VLZGIGJZ1YYVWR4","hitId":"32TZXEA1OL6QYKM0MXQIQH2ABHN14I","url":"https://gershmanlab.com/experiments/alicia/teaching/experiment/?hitId=32TZXEA1OL6QYKM0MXQIQH2ABHN14I&workerId=A38IZLCH8VYVFK&assignmentId=3X4MXAO0BHASMB2VLZGIGJZ1YYVWR4&a=0X4X9&tp_a=0X4X9&b=3X4MXAO0BHASMB2VLZGIGJZ1YYVWR4&tp_b=3X4MXAO0BHASMB2VLZGIGJZ1YYVWR4&c=365799&tp_c=365799"},{"rt":null,"stimulus":"<div style=\"font-size:50px;\">First student</div>","response":null,"trial_type":"html-keyboard-response","trial_index":11,"time_elapsed":338690,"internal_node_id":"0.0-4.0","params":{"nStudents":24,"maxFlips":30,"completionMinutes":45,"basePay":8,"maxBonus":9,"perTrialBonus":0.5,"perTrialBonusThreshold":0.05,"exampleCost":0.01},"classroomParams":{"A":{"a":1,"b":4},"B":{"a":4,"b":1},"C":{"a":2,"b":8},"D":{"a":8,"b":2}},"conditions":["nonSeqFull","nonSeqPartial","seqNoFeedback","seqFeedback"],"classroomPairings":[["A","B"],["C","D"]],"coinWeights":[0.2,0.5,0.8],"subjectId":"A38IZLCH8VYVFK","assignmentId":"3X4MXAO0BHASMB2VLZGIGJZ1YYVWR4","hitId":"32TZXEA1OL6QYKM0MXQIQH2ABHN14I","url":"https://gershmanlab.com/experiments/alicia/teaching/experiment/?hitId=32TZXEA1OL6QYKM0MXQIQH2ABHN14I&workerId=A38IZLCH8VYVFK&assignmentId=3X4MXAO0BHASMB2VLZGIGJZ1YYVWR4&a=0X4X9&tp_a=0X4X9&b=3X4MXAO0BHASMB2VLZGIGJZ1YYVWR4&tp_b=3X4MXAO0BHASMB2VLZGIGJZ1YYVWR4&c=365799&tp_c=365799"},{"rt":14607,"stimulus":"\n            <h4 style=\"color:Orange;\">Student 1</h4>\n            <h2>The weight of your coin is <b style=\"color:Tomato;\">0.2</b>.</h2>\n            <p>In this block, you will be giving <b>two</b> sets of examples to Student 1.</p>\n                <p>You will receive feedback at the end of the block.</p>\n            <p></p>","response":0,"trial_type":"html-button-response","trial_index":12,"time_elapsed":353298,"internal_node_id":"0.0-5.0","params":{"nStudents":24,"maxFlips":30,"completionMinutes":45,"basePay":8,"maxBonus":9,"perTrialBonus":0.5,"perTrialBonusThreshold":0.05,"exampleCost":0.01},"classroomParams":{"A":{"a":1,"b":4},"B":{"a":4,"b":1},"C":{"a":2,"b":8},"D":{"a":8,"b":2}},"conditions":["nonSeqFull","nonSeqPartial","seqNoFeedback","seqFeedback"],"classroomPairings":[["A","B"],["C","D"]],"coinWeights":[0.2,0.5,0.8],"subjectId":"A38IZLCH8VYVFK","assignmentId":"3X4MXAO0BHASMB2VLZGIGJZ1YYVWR4","hitId":"32TZXEA1OL6QYKM0MXQIQH2ABHN14I","url":"https://gershmanlab.com/experiments/alicia/teaching/experiment/?hitId=32TZXEA1OL6QYKM0MXQIQH2ABHN14I&workerId=A38IZLCH8VYVFK&assignmentId=3X4MXAO0BHASMB2VLZGIGJZ1YYVWR4&a=0X4X9&tp_a=0X4X9&b=3X4MXAO0BHASMB2VLZGIGJZ1YYVWR4&tp_b=3X4MXAO0BHASMB2VLZGIGJZ1YYVWR4&c=365799&tp_c=365799"},{"rt":111057,"response":{"heads":"1","tails":"4"},"type":"response","condition":"seqNoFeedback","trueTheta":0.2,"classrooms":["A","B"],"studentTrueClassroom":"A","exampleSet":"first","trial_type":"survey-html-form","trial_index":13,"time_elapsed":464357,"internal_node_id":"0.0-6.0-0.0","params":{"nStudents":24,"maxFlips":30,"completionMinutes":45,"basePay":8,"maxBonus":9,"perTrialBonus":0.5,"perTrialBonusThreshold":0.05,"exampleCost":0.01},"classroomParams":{"A":{"a":1,"b":4},"B":{"a":4,"b":1},"C":{"a":2,"b":8},"D":{"a":8,"b":2}},"conditions":["nonSeqFull","nonSeqPartial","seqNoFeedback","seqFeedback"],"classroomPairings":[["A","B"],["C","D"]],"coinWeights":[0.2,0.5,0.8],"subjectId":"A38IZLCH8VYVFK","assignmentId":"3X4MXAO0BHASMB2VLZGIGJZ1YYVWR4","hitId":"32TZXEA1OL6QYKM0MXQIQH2ABHN14I","url":"https://gershmanlab.com/experiments/alicia/teaching/experiment/?hitId=32TZXEA1OL6QYKM0MXQIQH2ABHN14I&workerId=A38IZLCH8VYVFK&assignmentId=3X4MXAO0BHASMB2VLZGIGJZ1YYVWR4&a=0X4X9&tp_a=0X4X9&b=3X4MXAO0BHASMB2VLZGIGJZ1YYVWR4&tp_b=3X4MXAO0BHASMB2VLZGIGJZ1YYVWR4&c=365799&tp_c=365799","heads":1,"tails":4,"studentIndex":0,"studentTrueHypers":{"a":1,"b":4},"studentGuess":0.2,"delta":0,"totalExamples":5,"bonusSoFar":0},{"rt":null,"stimulus":"Sending examples to student... ","response":null,"trial_type":"html-keyboard-response","trial_index":14,"time_elapsed":465613,"internal_node_id":"0.0-7.0","params":{"nStudents":24,"maxFlips":30,"completionMinutes":45,"basePay":8,"maxBonus":9,"perTrialBonus":0.5,"perTrialBonusThreshold":0.05,"exampleCost":0.01},"classroomParams":{"A":{"a":1,"b":4},"B":{"a":4,"b":1},"C":{"a":2,"b":8},"D":{"a":8,"b":2}},"conditions":["nonSeqFull","nonSeqPartial","seqNoFeedback","seqFeedback"],"classroomPairings":[["A","B"],["C","D"]],"coinWeights":[0.2,0.5,0.8],"subjectId":"A38IZLCH8VYVFK","assignmentId":"3X4MXAO0BHASMB2VLZGIGJZ1YYVWR4","hitId":"32TZXEA1OL6QYKM0MXQIQH2ABHN14I","url":"https://gershmanlab.com/experiments/alicia/teaching/experiment/?hitId=32TZXEA1OL6QYKM0MXQIQH2ABHN14I&workerId=A38IZLCH8VYVFK&assignmentId=3X4MXAO0BHASMB2VLZGIGJZ1YYVWR4&a=0X4X9&tp_a=0X4X9&b=3X4MXAO0BHASMB2VLZGIGJZ1YYVWR4&tp_b=3X4MXAO0BHASMB2VLZGIGJZ1YYVWR4&c=365799&tp_c=365799"},{"rt":null,"stimulus":"Examples sent to student! Waiting for student...","response":null,"trial_type":"html-keyboard-response","trial_index":15,"time_elapsed":469619,"internal_node_id":"0.0-8.0","params":{"nStudents":24,"maxFlips":30,"completionMinutes":45,"basePay":8,"maxBonus":9,"perTrialBonus":0.5,"perTrialBonusThreshold":0.05,"exampleCost":0.01},"classroomParams":{"A":{"a":1,"b":4},"B":{"a":4,"b":1},"C":{"a":2,"b":8},"D":{"a":8,"b":2}},"conditions":["nonSeqFull","nonSeqPartial","seqNoFeedback","seqFeedback"],"classroomPairings":[["A","B"],["C","D"]],"coinWeights":[0.2,0.5,0.8],"subjectId":"A38IZLCH8VYVFK","assignmentId":"3X4MXAO0BHASMB2VLZGIGJZ1YYVWR4","hitId":"32TZXEA1OL6QYKM0MXQIQH2ABHN14I","url":"https://gershmanlab.com/experiments/alicia/teaching/experiment/?hitId=32TZXEA1OL6QYKM0MXQIQH2ABHN14I&workerId=A38IZLCH8VYVFK&assignmentId=3X4MXAO0BHASMB2VLZGIGJZ1YYVWR4&a=0X4X9&tp_a=0X4X9&b=3X4MXAO0BHASMB2VLZGIGJZ1YYVWR4&tp_b=3X4MXAO0BHASMB2VLZGIGJZ1YYVWR4&c=365799&tp_c=365799"},{"rt":11817,"response":{"heads":"1","tails":"4"},"type":"response","condition":"seqNoFeedback","trueTheta":0.2,"classrooms":["A","B"],"studentTrueClassroom":"A","exampleSet":"second","trial_type":"survey-html-form","trial_index":16,"time_elapsed":481437,"internal_node_id":"0.0-9.0-0.0","params":{"nStudents":24,"maxFlips":30,"completionMinutes":45,"basePay":8,"maxBonus":9,"perTrialBonus":0.5,"perTrialBonusThreshold":0.05,"exampleCost":0.01},"classroomParams":{"A":{"a":1,"b":4},"B":{"a":4,"b":1},"C":{"a":2,"b":8},"D":{"a":8,"b":2}},"conditions":["nonSeqFull","nonSeqPartial","seqNoFeedback","seqFeedback"],"classroomPairings":[["A","B"],["C","D"]],"coinWeights":[0.2,0.5,0.8],"subjectId":"A38IZLCH8VYVFK","assignmentId":"3X4MXAO0BHASMB2VLZGIGJZ1YYVWR4","hitId":"32TZXEA1OL6QYKM0MXQIQH2ABHN14I","url":"https://gershmanlab.com/experiments/alicia/teaching/experiment/?hitId=32TZXEA1OL6QYKM0MXQIQH2ABHN14I&workerId=A38IZLCH8VYVFK&assignmentId=3X4MXAO0BHASMB2VLZGIGJZ1YYVWR4&a=0X4X9&tp_a=0X4X9&b=3X4MXAO0BHASMB2VLZGIGJZ1YYVWR4&tp_b=3X4MXAO0BHASMB2VLZGIGJZ1YYVWR4&c=365799&tp_c=365799","firstResponseHeads":1,"firstResponseTails":4,"secondResponseHeads":1,"secondResponseTails":4,"totalHeads":2,"totalTails":8,"studentIndex":0,"studentTrueHypers":{"a":1,"b":4},"studentGuess":0.2,"delta":0,"bonus":0.4,"bonusSoFar":0.4,"totalExamples":10},{"rt":null,"stimulus":"Sending examples to student... ","response":null,"trial_type":"html-keyboard-response","trial_index":17,"time_elapsed":483192,"internal_node_id":"0.0-10.0","params":{"nStudents":24,"maxFlips":30,"completionMinutes":45,"basePay":8,"maxBonus":9,"perTrialBonus":0.5,"perTrialBonusThreshold":0.05,"exampleCost":0.01},"classroomParams":{"A":{"a":1,"b":4},"B":{"a":4,"b":1},"C":{"a":2,"b":8},"D":{"a":8,"b":2}},"conditions":["nonSeqFull","nonSeqPartial","seqNoFeedback","seqFeedback"],"classroomPairings":[["A","B"],["C","D"]],"coinWeights":[0.2,0.5,0.8],"subjectId":"A38IZLCH8VYVFK","assignmentId":"3X4MXAO0BHASMB2VLZGIGJZ1YYVWR4","hitId":"32TZXEA1OL6QYKM0MXQIQH2ABHN14I","url":"https://gershmanlab.com/experiments/alicia/teaching/experiment/?hitId=32TZXEA1OL6QYKM0MXQIQH2ABHN14I&workerId=A38IZLCH8VYVFK&assignmentId=3X4MXAO0BHASMB2VLZGIGJZ1YYVWR4&a=0X4X9&tp_a=0X4X9&b=3X4MXAO0BHASMB2VLZGIGJZ1YYVWR4&tp_b=3X4MXAO0BHASMB2VLZGIGJZ1YYVWR4&c=365799&tp_c=365799"},{"rt":null,"stimulus":"Examples sent to student! Waiting for student...","response":null,"trial_type":"html-keyboard-response","trial_index":18,"time_elapsed":489197,"internal_node_id":"0.0-11.0","params":{"nStudents":24,"maxFlips":30,"completionMinutes":45,"basePay":8,"maxBonus":9,"perTrialBonus":0.5,"perTrialBonusThreshold":0.05,"exampleCost":0.01},"classroomParams":{"A":{"a":1,"b":4},"B":{"a":4,"b":1},"C":{"a":2,"b":8},"D":{"a":8,"b":2}},"conditions":["nonSeqFull","nonSeqPartial","seqNoFeedback","seqFeedback"],"classroomPairings":[["A","B"],["C","D"]],"coinWeights":[0.2,0.5,0.8],"subjectId":"A38IZLCH8VYVFK","assignmentId":"3X4MXAO0BHASMB2VLZGIGJZ1YYVWR4","hitId":"32TZXEA1OL6QYKM0MXQIQH2ABHN14I","url":"https://gershmanlab.com/experiments/alicia/teaching/experiment/?hitId=32TZXEA1OL6QYKM0MXQIQH2ABHN14I&workerId=A38IZLCH8VYVFK&assignmentId=3X4MXAO0BHASMB2VLZGIGJZ1YYVWR4&a=0X4X9&tp_a=0X4X9&b=3X4MXAO0BHASMB2VLZGIGJZ1YYVWR4&tp_b=3X4MXAO0BHASMB2VLZGIGJZ1YYVWR4&c=365799&tp_c=365799"},{"rt":5369,"stimulus":"\n                <p>Student 1's first guess for coin weight: <b style=\"color:Tomato\";>0.20</b></p>\n                <p>Student 1's second guess for coin weight: <b style=\"color:Tomato\";>0.20</b></p>\n                <p>You received a bonus of <b>$0.40</b> based on the student's second guess.</p>\n                <p>Total bonus so far: <b>$0.40</b></p>\n                <p>Press any key to continue.</p>\n                ","response":" ","trial_type":"html-keyboard-response","trial_index":19,"time_elapsed":494567,"internal_node_id":"0.0-12.0","params":{"nStudents":24,"maxFlips":30,"completionMinutes":45,"basePay":8,"maxBonus":9,"perTrialBonus":0.5,"perTrialBonusThreshold":0.05,"exampleCost":0.01},"classroomParams":{"A":{"a":1,"b":4},"B":{"a":4,"b":1},"C":{"a":2,"b":8},"D":{"a":8,"b":2}},"conditions":["nonSeqFull","nonSeqPartial","seqNoFeedback","seqFeedback"],"classroomPairings":[["A","B"],["C","D"]],"coinWeights":[0.2,0.5,0.8],"subjectId":"A38IZLCH8VYVFK","assignmentId":"3X4MXAO0BHASMB2VLZGIGJZ1YYVWR4","hitId":"32TZXEA1OL6QYKM0MXQIQH2ABHN14I","url":"https://gershmanlab.com/experiments/alicia/teaching/experiment/?hitId=32TZXEA1OL6QYKM0MXQIQH2ABHN14I&workerId=A38IZLCH8VYVFK&assignmentId=3X4MXAO0BHASMB2VLZGIGJZ1YYVWR4&a=0X4X9&tp_a=0X4X9&b=3X4MXAO0BHASMB2VLZGIGJZ1YYVWR4&tp_b=3X4MXAO0BHASMB2VLZGIGJZ1YYVWR4&c=365799&tp_c=365799"},{"rt":null,"stimulus":"<div style=\"font-size:60px;\">Next student</div>","response":null,"trial_type":"html-keyboard-response","trial_index":20,"time_elapsed":496568,"internal_node_id":"0.0-13.0-0.0","params":{"nStudents":24,"maxFlips":30,"completionMinutes":45,"basePay":8,"maxBonus":9,"perTrialBonus":0.5,"perTrialBonusThreshold":0.05,"exampleCost":0.01},"classroomParams":{"A":{"a":1,"b":4},"B":{"a":4,"b":1},"C":{"a":2,"b":8},"D":{"a":8,"b":2}},"conditions":["nonSeqFull","nonSeqPartial","seqNoFeedback","seqFeedback"],"classroomPairings":[["A","B"],["C","D"]],"coinWeights":[0.2,0.5,0.8],"subjectId":"A38IZLCH8VYVFK","assignmentId":"3X4MXAO0BHASMB2VLZGIGJZ1YYVWR4","hitId":"32TZXEA1OL6QYKM0MXQIQH2ABHN14I","url":"https://gershmanlab.com/experiments/alicia/teaching/experiment/?hitId=32TZXEA1OL6QYKM0MXQIQH2ABHN14I&workerId=A38IZLCH8VYVFK&assignmentId=3X4MXAO0BHASMB2VLZGIGJZ1YYVWR4&a=0X4X9&tp_a=0X4X9&b=3X4MXAO0BHASMB2VLZGIGJZ1YYVWR4&tp_b=3X4MXAO0BHASMB2VLZGIGJZ1YYVWR4&c=365799&tp_c=365799"},{"rt":5118,"stimulus":"\n            <h4 style=\"color:Orange;\">Student 2</h4>\n            <h2>The weight of your coin is <b style=\"color:Tomato;\">0.5</b>.</h2>\n            <p>In this block, you will be giving <b>one</b> set of examples to Student 2.</p>\n                <p>You will receive feedback at the end of the block.</p>\n            <p></p>","response":0,"trial_type":"html-button-response","trial_index":21,"time_elapsed":501688,"internal_node_id":"0.0-14.0","params":{"nStudents":24,"maxFlips":30,"completionMinutes":45,"basePay":8,"maxBonus":9,"perTrialBonus":0.5,"perTrialBonusThreshold":0.05,"exampleCost":0.01},"classroomParams":{"A":{"a":1,"b":4},"B":{"a":4,"b":1},"C":{"a":2,"b":8},"D":{"a":8,"b":2}},"conditions":["nonSeqFull","nonSeqPartial","seqNoFeedback","seqFeedback"],"classroomPairings":[["A","B"],["C","D"]],"coinWeights":[0.2,0.5,0.8],"subjectId":"A38IZLCH8VYVFK","assignmentId":"3X4MXAO0BHASMB2VLZGIGJZ1YYVWR4","hitId":"32TZXEA1OL6QYKM0MXQIQH2ABHN14I","url":"https://gershmanlab.com/experiments/alicia/teaching/experiment/?hitId=32TZXEA1OL6QYKM0MXQIQH2ABHN14I&workerId=A38IZLCH8VYVFK&assignmentId=3X4MXAO0BHASMB2VLZGIGJZ1YYVWR4&a=0X4X9&tp_a=0X4X9&b=3X4MXAO0BHASMB2VLZGIGJZ1YYVWR4&tp_b=3X4MXAO0BHASMB2VLZGIGJZ1YYVWR4&c=365799&tp_c=365799"},{"rt":17123,"response":{"heads":"10","tails":"10"},"type":"response","condition":"nonSeqPartial","trueTheta":0.5,"classrooms":["C","D"],"studentTrueClassroom":"D","exampleSet":"first","trial_type":"survey-html-form","trial_index":22,"time_elapsed":518813,"internal_node_id":"0.0-15.0-0.0","params":{"nStudents":24,"maxFlips":30,"completionMinutes":45,"basePay":8,"maxBonus":9,"perTrialBonus":0.5,"perTrialBonusThreshold":0.05,"exampleCost":0.01},"classroomParams":{"A":{"a":1,"b":4},"B":{"a":4,"b":1},"C":{"a":2,"b":8},"D":{"a":8,"b":2}},"conditions":["nonSeqFull","nonSeqPartial","seqNoFeedback","seqFeedback"],"classroomPairings":[["A","B"],["C","D"]],"coinWeights":[0.2,0.5,0.8],"subjectId":"A38IZLCH8VYVFK","assignmentId":"3X4MXAO0BHASMB2VLZGIGJZ1YYVWR4","hitId":"32TZXEA1OL6QYKM0MXQIQH2ABHN14I","url":"https://gershmanlab.com/experiments/alicia/teaching/experiment/?hitId=32TZXEA1OL6QYKM0MXQIQH2ABHN14I&workerId=A38IZLCH8VYVFK&assignmentId=3X4MXAO0BHASMB2VLZGIGJZ1YYVWR4&a=0X4X9&tp_a=0X4X9&b=3X4MXAO0BHASMB2VLZGIGJZ1YYVWR4&tp_b=3X4MXAO0BHASMB2VLZGIGJZ1YYVWR4&c=365799&tp_c=365799","heads":10,"tails":10,"studentIndex":1,"studentTrueHypers":{"a":8,"b":2},"studentGuess":0.6,"delta":0.09999999999999998,"totalExamples":20,"bonus":0,"bonusSoFar":0.4},{"rt":null,"stimulus":"Sending examples to student... ","response":null,"trial_type":"html-keyboard-response","trial_index":23,"time_elapsed":520317,"internal_node_id":"0.0-16.0","params":{"nStudents":24,"maxFlips":30,"completionMinutes":45,"basePay":8,"maxBonus":9,"perTrialBonus":0.5,"perTrialBonusThreshold":0.05,"exampleCost":0.01},"classroomParams":{"A":{"a":1,"b":4},"B":{"a":4,"b":1},"C":{"a":2,"b":8},"D":{"a":8,"b":2}},"conditions":["nonSeqFull","nonSeqPartial","seqNoFeedback","seqFeedback"],"classroomPairings":[["A","B"],["C","D"]],"coinWeights":[0.2,0.5,0.8],"subjectId":"A38IZLCH8VYVFK","assignmentId":"3X4MXAO0BHASMB2VLZGIGJZ1YYVWR4","hitId":"32TZXEA1OL6QYKM0MXQIQH2ABHN14I","url":"https://gershmanlab.com/experiments/alicia/teaching/experiment/?hitId=32TZXEA1OL6QYKM0MXQIQH2ABHN14I&workerId=A38IZLCH8VYVFK&assignmentId=3X4MXAO0BHASMB2VLZGIGJZ1YYVWR4&a=0X4X9&tp_a=0X4X9&b=3X4MXAO0BHASMB2VLZGIGJZ1YYVWR4&tp_b=3X4MXAO0BHASMB2VLZGIGJZ1YYVWR4&c=365799&tp_c=365799"},{"rt":null,"stimulus":"Examples sent to student! Waiting for student...","response":null,"trial_type":"html-keyboard-response","trial_index":24,"time_elapsed":524323,"internal_node_id":"0.0-17.0","params":{"nStudents":24,"maxFlips":30,"completionMinutes":45,"basePay":8,"maxBonus":9,"perTrialBonus":0.5,"perTrialBonusThreshold":0.05,"exampleCost":0.01},"classroomParams":{"A":{"a":1,"b":4},"B":{"a":4,"b":1},"C":{"a":2,"b":8},"D":{"a":8,"b":2}},"conditions":["nonSeqFull","nonSeqPartial","seqNoFeedback","seqFeedback"],"classroomPairings":[["A","B"],["C","D"]],"coinWeights":[0.2,0.5,0.8],"subjectId":"A38IZLCH8VYVFK","assignmentId":"3X4MXAO0BHASMB2VLZGIGJZ1YYVWR4","hitId":"32TZXEA1OL6QYKM0MXQIQH2ABHN14I","url":"https://gershmanlab.com/experiments/alicia/teaching/experiment/?hitId=32TZXEA1OL6QYKM0MXQIQH2ABHN14I&workerId=A38IZLCH8VYVFK&assignmentId=3X4MXAO0BHASMB2VLZGIGJZ1YYVWR4&a=0X4X9&tp_a=0X4X9&b=3X4MXAO0BHASMB2VLZGIGJZ1YYVWR4&tp_b=3X4MXAO0BHASMB2VLZGIGJZ1YYVWR4&c=365799&tp_c=365799"},{"rt":4828,"stimulus":"\n                <p>Student's guess for coin weight: <b style=\"color:Tomato;\">0.60</b></p>\n                <p>You received a bonus of <b>$0</b>. Total bonus so far: <b>$0.40</b></b></p>\n                <p></p>\n                <p>Press any key to continue.</p>\n                ","response":" ","trial_type":"html-keyboard-response","trial_index":25,"time_elapsed":529152,"internal_node_id":"0.0-18.0","params":{"nStudents":24,"maxFlips":30,"completionMinutes":45,"basePay":8,"maxBonus":9,"perTrialBonus":0.5,"perTrialBonusThreshold":0.05,"exampleCost":0.01},"classroomParams":{"A":{"a":1,"b":4},"B":{"a":4,"b":1},"C":{"a":2,"b":8},"D":{"a":8,"b":2}},"conditions":["nonSeqFull","nonSeqPartial","seqNoFeedback","seqFeedback"],"classroomPairings":[["A","B"],["C","D"]],"coinWeights":[0.2,0.5,0.8],"subjectId":"A38IZLCH8VYVFK","assignmentId":"3X4MXAO0BHASMB2VLZGIGJZ1YYVWR4","hitId":"32TZXEA1OL6QYKM0MXQIQH2ABHN14I","url":"https://gershmanlab.com/experiments/alicia/teaching/experiment/?hitId=32TZXEA1OL6QYKM0MXQIQH2ABHN14I&workerId=A38IZLCH8VYVFK&assignmentId=3X4MXAO0BHASMB2VLZGIGJZ1YYVWR4&a=0X4X9&tp_a=0X4X9&b=3X4MXAO0BHASMB2VLZGIGJZ1YYVWR4&tp_b=3X4MXAO0BHASMB2VLZGIGJZ1YYVWR4&c=365799&tp_c=365799"},{"rt":null,"stimulus":"<div style=\"font-size:60px;\">Next student</div>","response":null,"trial_type":"html-keyboard-response","trial_index":26,"time_elapsed":532157,"internal_node_id":"0.0-19.0-0.0","params":{"nStudents":24,"maxFlips":30,"completionMinutes":45,"basePay":8,"maxBonus":9,"perTrialBonus":0.5,"perTrialBonusThreshold":0.05,"exampleCost":0.01},"classroomParams":{"A":{"a":1,"b":4},"B":{"a":4,"b":1},"C":{"a":2,"b":8},"D":{"a":8,"b":2}},"conditions":["nonSeqFull","nonSeqPartial","seqNoFeedback","seqFeedback"],"classroomPairings":[["A","B"],["C","D"]],"coinWeights":[0.2,0.5,0.8],"subjectId":"A38IZLCH8VYVFK","assignmentId":"3X4MXAO0BHASMB2VLZGIGJZ1YYVWR4","hitId":"32TZXEA1OL6QYKM0MXQIQH2ABHN14I","url":"https://gershmanlab.com/experiments/alicia/teaching/experiment/?hitId=32TZXEA1OL6QYKM0MXQIQH2ABHN14I&workerId=A38IZLCH8VYVFK&assignmentId=3X4MXAO0BHASMB2VLZGIGJZ1YYVWR4&a=0X4X9&tp_a=0X4X9&b=3X4MXAO0BHASMB2VLZGIGJZ1YYVWR4&tp_b=3X4MXAO0BHASMB2VLZGIGJZ1YYVWR4&c=365799&tp_c=365799"},{"rt":17707,"stimulus":"\n            <h4 style=\"color:Orange;\">Student 3</h4>\n            <h2>The weight of your coin is <b style=\"color:Tomato;\">0.2</b>.</h2>\n            <p>In this block, you will be giving <b>one</b> set of examples to Student 3.</p>\n                <p>You will receive feedback at the end of the block.</p>\n            <p></p>","response":0,"trial_type":"html-button-response","trial_index":27,"time_elapsed":549865,"internal_node_id":"0.0-20.0","params":{"nStudents":24,"maxFlips":30,"completionMinutes":45,"basePay":8,"maxBonus":9,"perTrialBonus":0.5,"perTrialBonusThreshold":0.05,"exampleCost":0.01},"classroomParams":{"A":{"a":1,"b":4},"B":{"a":4,"b":1},"C":{"a":2,"b":8},"D":{"a":8,"b":2}},"conditions":["nonSeqFull","nonSeqPartial","seqNoFeedback","seqFeedback"],"classroomPairings":[["A","B"],["C","D"]],"coinWeights":[0.2,0.5,0.8],"subjectId":"A38IZLCH8VYVFK","assignmentId":"3X4MXAO0BHASMB2VLZGIGJZ1YYVWR4","hitId":"32TZXEA1OL6QYKM0MXQIQH2ABHN14I","url":"https://gershmanlab.com/experiments/alicia/teaching/experiment/?hitId=32TZXEA1OL6QYKM0MXQIQH2ABHN14I&workerId=A38IZLCH8VYVFK&assignmentId=3X4MXAO0BHASMB2VLZGIGJZ1YYVWR4&a=0X4X9&tp_a=0X4X9&b=3X4MXAO0BHASMB2VLZGIGJZ1YYVWR4&tp_b=3X4MXAO0BHASMB2VLZGIGJZ1YYVWR4&c=365799&tp_c=365799"},{"rt":13400,"response":{"heads":"1","tails":"4"},"type":"response","condition":"nonSeqFull","trueTheta":0.2,"classrooms":["A","B"],"studentTrueClassroom":"A","exampleSet":"first","trial_type":"survey-html-form","trial_index":28,"time_elapsed":563267,"internal_node_id":"0.0-21.0-0.0","params":{"nStudents":24,"maxFlips":30,"completionMinutes":45,"basePay":8,"maxBonus":9,"perTrialBonus":0.5,"perTrialBonusThreshold":0.05,"exampleCost":0.01},"classroomParams":{"A":{"a":1,"b":4},"B":{"a":4,"b":1},"C":{"a":2,"b":8},"D":{"a":8,"b":2}},"conditions":["nonSeqFull","nonSeqPartial","seqNoFeedback","seqFeedback"],"classroomPairings":[["A","B"],["C","D"]],"coinWeights":[0.2,0.5,0.8],"subjectId":"A38IZLCH8VYVFK","assignmentId":"3X4MXAO0BHASMB2VLZGIGJZ1YYVWR4","hitId":"32TZXEA1OL6QYKM0MXQIQH2ABHN14I","url":"https://gershmanlab.com/experiments/alicia/teaching/experiment/?hitId=32TZXEA1OL6QYKM0MXQIQH2ABHN14I&workerId=A38IZLCH8VYVFK&assignmentId=3X4MXAO0BHASMB2VLZGIGJZ1YYVWR4&a=0X4X9&tp_a=0X4X9&b=3X4MXAO0BHASMB2VLZGIGJZ1YYVWR4&tp_b=3X4MXAO0BHASMB2VLZGIGJZ1YYVWR4&c=365799&tp_c=365799","heads":1,"tails":4,"studentIndex":2,"studentTrueHypers":{"a":1,"b":4},"studentGuess":0.2,"delta":0,"totalExamples":5,"bonus":0.45,"bonusSoFar":0.85},{"rt":null,"stimulus":"Sending examples to student... ","response":null,"trial_type":"html-keyboard-response","trial_index":29,"time_elapsed":565019,"internal_node_id":"0.0-22.0","params":{"nStudents":24,"maxFlips":30,"completionMinutes":45,"basePay":8,"maxBonus":9,"perTrialBonus":0.5,"perTrialBonusThreshold":0.05,"exampleCost":0.01},"classroomParams":{"A":{"a":1,"b":4},"B":{"a":4,"b":1},"C":{"a":2,"b":8},"D":{"a":8,"b":2}},"conditions":["nonSeqFull","nonSeqPartial","seqNoFeedback","seqFeedback"],"classroomPairings":[["A","B"],["C","D"]],"coinWeights":[0.2,0.5,0.8],"subjectId":"A38IZLCH8VYVFK","assignmentId":"3X4MXAO0BHASMB2VLZGIGJZ1YYVWR4","hitId":"32TZXEA1OL6QYKM0MXQIQH2ABHN14I","url":"https://gershmanlab.com/experiments/alicia/teaching/experiment/?hitId=32TZXEA1OL6QYKM0MXQIQH2ABHN14I&workerId=A38IZLCH8VYVFK&assignmentId=3X4MXAO0BHASMB2VLZGIGJZ1YYVWR4&a=0X4X9&tp_a=0X4X9&b=3X4MXAO0BHASMB2VLZGIGJZ1YYVWR4&tp_b=3X4MXAO0BHASMB2VLZGIGJZ1YYVWR4&c=365799&tp_c=365799"},{"rt":null,"stimulus":"Examples sent to student! Waiting for student...","response":null,"trial_type":"html-keyboard-response","trial_index":30,"time_elapsed":570521,"internal_node_id":"0.0-23.0","params":{"nStudents":24,"maxFlips":30,"completionMinutes":45,"basePay":8,"maxBonus":9,"perTrialBonus":0.5,"perTrialBonusThreshold":0.05,"exampleCost":0.01},"classroomParams":{"A":{"a":1,"b":4},"B":{"a":4,"b":1},"C":{"a":2,"b":8},"D":{"a":8,"b":2}},"conditions":["nonSeqFull","nonSeqPartial","seqNoFeedback","seqFeedback"],"classroomPairings":[["A","B"],["C","D"]],"coinWeights":[0.2,0.5,0.8],"subjectId":"A38IZLCH8VYVFK","assignmentId":"3X4MXAO0BHASMB2VLZGIGJZ1YYVWR4","hitId":"32TZXEA1OL6QYKM0MXQIQH2ABHN14I","url":"https://gershmanlab.com/experiments/alicia/teaching/experiment/?hitId=32TZXEA1OL6QYKM0MXQIQH2ABHN14I&workerId=A38IZLCH8VYVFK&assignmentId=3X4MXAO0BHASMB2VLZGIGJZ1YYVWR4&a=0X4X9&tp_a=0X4X9&b=3X4MXAO0BHASMB2VLZGIGJZ1YYVWR4&tp_b=3X4MXAO0BHASMB2VLZGIGJZ1YYVWR4&c=365799&tp_c=365799"},{"rt":3000,"stimulus":"\n                <p>Student's guess for coin weight: <b style=\"color:Tomato;\">0.20</b></p>\n                <p>You received a bonus of <b>$0.45</b>. Total bonus so far: <b>$0.85</b></b></p>\n                <p></p>\n                <p>Press any key to continue.</p>\n                ","response":" ","trial_type":"html-keyboard-response","trial_index":31,"time_elapsed":573522,"internal_node_id":"0.0-24.0","params":{"nStudents":24,"maxFlips":30,"completionMinutes":45,"basePay":8,"maxBonus":9,"perTrialBonus":0.5,"perTrialBonusThreshold":0.05,"exampleCost":0.01},"classroomParams":{"A":{"a":1,"b":4},"B":{"a":4,"b":1},"C":{"a":2,"b":8},"D":{"a":8,"b":2}},"conditions":["nonSeqFull","nonSeqPartial","seqNoFeedback","seqFeedback"],"classroomPairings":[["A","B"],["C","D"]],"coinWeights":[0.2,0.5,0.8],"subjectId":"A38IZLCH8VYVFK","assignmentId":"3X4MXAO0BHASMB2VLZGIGJZ1YYVWR4","hitId":"32TZXEA1OL6QYKM0MXQIQH2ABHN14I","url":"https://gershmanlab.com/experiments/alicia/teaching/experiment/?hitId=32TZXEA1OL6QYKM0MXQIQH2ABHN14I&workerId=A38IZLCH8VYVFK&assignmentId=3X4MXAO0BHASMB2VLZGIGJZ1YYVWR4&a=0X4X9&tp_a=0X4X9&b=3X4MXAO0BHASMB2VLZGIGJZ1YYVWR4&tp_b=3X4MXAO0BHASMB2VLZGIGJZ1YYVWR4&c=365799&tp_c=365799"},{"rt":null,"stimulus":"<div style=\"font-size:60px;\">Next student</div>","response":null,"trial_type":"html-keyboard-response","trial_index":32,"time_elapsed":575773,"internal_node_id":"0.0-25.0-0.0","params":{"nStudents":24,"maxFlips":30,"completionMinutes":45,"basePay":8,"maxBonus":9,"perTrialBonus":0.5,"perTrialBonusThreshold":0.05,"exampleCost":0.01},"classroomParams":{"A":{"a":1,"b":4},"B":{"a":4,"b":1},"C":{"a":2,"b":8},"D":{"a":8,"b":2}},"conditions":["nonSeqFull","nonSeqPartial","seqNoFeedback","seqFeedback"],"classroomPairings":[["A","B"],["C","D"]],"coinWeights":[0.2,0.5,0.8],"subjectId":"A38IZLCH8VYVFK","assignmentId":"3X4MXAO0BHASMB2VLZGIGJZ1YYVWR4","hitId":"32TZXEA1OL6QYKM0MXQIQH2ABHN14I","url":"https://gershmanlab.com/experiments/alicia/teaching/experiment/?hitId=32TZXEA1OL6QYKM0MXQIQH2ABHN14I&workerId=A38IZLCH8VYVFK&assignmentId=3X4MXAO0BHASMB2VLZGIGJZ1YYVWR4&a=0X4X9&tp_a=0X4X9&b=3X4MXAO0BHASMB2VLZGIGJZ1YYVWR4&tp_b=3X4MXAO0BHASMB2VLZGIGJZ1YYVWR4&c=365799&tp_c=365799"},{"rt":3561,"stimulus":"\n            <h4 style=\"color:Orange;\">Student 4</h4>\n            <h2>The weight of your coin is <b style=\"color:Tomato;\">0.5</b>.</h2>\n            <p>In this block, you will be giving <b>one</b> set of examples to Student 4.</p>\n                <p>You will receive feedback at the end of the block.</p>\n            <p></p>","response":0,"trial_type":"html-button-response","trial_index":33,"time_elapsed":579336,"internal_node_id":"0.0-26.0","params":{"nStudents":24,"maxFlips":30,"completionMinutes":45,"basePay":8,"maxBonus":9,"perTrialBonus":0.5,"perTrialBonusThreshold":0.05,"exampleCost":0.01},"classroomParams":{"A":{"a":1,"b":4},"B":{"a":4,"b":1},"C":{"a":2,"b":8},"D":{"a":8,"b":2}},"conditions":["nonSeqFull","nonSeqPartial","seqNoFeedback","seqFeedback"],"classroomPairings":[["A","B"],["C","D"]],"coinWeights":[0.2,0.5,0.8],"subjectId":"A38IZLCH8VYVFK","assignmentId":"3X4MXAO0BHASMB2VLZGIGJZ1YYVWR4","hitId":"32TZXEA1OL6QYKM0MXQIQH2ABHN14I","url":"https://gershmanlab.com/experiments/alicia/teaching/experiment/?hitId=32TZXEA1OL6QYKM0MXQIQH2ABHN14I&workerId=A38IZLCH8VYVFK&assignmentId=3X4MXAO0BHASMB2VLZGIGJZ1YYVWR4&a=0X4X9&tp_a=0X4X9&b=3X4MXAO0BHASMB2VLZGIGJZ1YYVWR4&tp_b=3X4MXAO0BHASMB2VLZGIGJZ1YYVWR4&c=365799&tp_c=365799"},{"rt":9379,"response":{"heads":"15","tails":"15"},"type":"response","condition":"nonSeqFull","trueTheta":0.5,"classrooms":["C","D"],"studentTrueClassroom":"D","exampleSet":"first","trial_type":"survey-html-form","trial_index":34,"time_elapsed":588716,"internal_node_id":"0.0-27.0-0.0","params":{"nStudents":24,"maxFlips":30,"completionMinutes":45,"basePay":8,"maxBonus":9,"perTrialBonus":0.5,"perTrialBonusThreshold":0.05,"exampleCost":0.01},"classroomParams":{"A":{"a":1,"b":4},"B":{"a":4,"b":1},"C":{"a":2,"b":8},"D":{"a":8,"b":2}},"conditions":["nonSeqFull","nonSeqPartial","seqNoFeedback","seqFeedback"],"classroomPairings":[["A","B"],["C","D"]],"coinWeights":[0.2,0.5,0.8],"subjectId":"A38IZLCH8VYVFK","assignmentId":"3X4MXAO0BHASMB2VLZGIGJZ1YYVWR4","hitId":"32TZXEA1OL6QYKM0MXQIQH2ABHN14I","url":"https://gershmanlab.com/experiments/alicia/teaching/experiment/?hitId=32TZXEA1OL6QYKM0MXQIQH2ABHN14I&workerId=A38IZLCH8VYVFK&assignmentId=3X4MXAO0BHASMB2VLZGIGJZ1YYVWR4&a=0X4X9&tp_a=0X4X9&b=3X4MXAO0BHASMB2VLZGIGJZ1YYVWR4&tp_b=3X4MXAO0BHASMB2VLZGIGJZ1YYVWR4&c=365799&tp_c=365799","heads":15,"tails":15,"studentIndex":3,"studentTrueHypers":{"a":8,"b":2},"studentGuess":0.575,"delta":0.07499999999999996,"totalExamples":30,"bonus":0,"bonusSoFar":0.85},{"rt":null,"stimulus":"Sending examples to student... ","response":null,"trial_type":"html-keyboard-response","trial_index":35,"time_elapsed":589970,"internal_node_id":"0.0-28.0","params":{"nStudents":24,"maxFlips":30,"completionMinutes":45,"basePay":8,"maxBonus":9,"perTrialBonus":0.5,"perTrialBonusThreshold":0.05,"exampleCost":0.01},"classroomParams":{"A":{"a":1,"b":4},"B":{"a":4,"b":1},"C":{"a":2,"b":8},"D":{"a":8,"b":2}},"conditions":["nonSeqFull","nonSeqPartial","seqNoFeedback","seqFeedback"],"classroomPairings":[["A","B"],["C","D"]],"coinWeights":[0.2,0.5,0.8],"subjectId":"A38IZLCH8VYVFK","assignmentId":"3X4MXAO0BHASMB2VLZGIGJZ1YYVWR4","hitId":"32TZXEA1OL6QYKM0MXQIQH2ABHN14I","url":"https://gershmanlab.com/experiments/alicia/teaching/experiment/?hitId=32TZXEA1OL6QYKM0MXQIQH2ABHN14I&workerId=A38IZLCH8VYVFK&assignmentId=3X4MXAO0BHASMB2VLZGIGJZ1YYVWR4&a=0X4X9&tp_a=0X4X9&b=3X4MXAO0BHASMB2VLZGIGJZ1YYVWR4&tp_b=3X4MXAO0BHASMB2VLZGIGJZ1YYVWR4&c=365799&tp_c=365799"},{"rt":null,"stimulus":"Examples sent to student! Waiting for student...","response":null,"trial_type":"html-keyboard-response","trial_index":36,"time_elapsed":593974,"internal_node_id":"0.0-29.0","params":{"nStudents":24,"maxFlips":30,"completionMinutes":45,"basePay":8,"maxBonus":9,"perTrialBonus":0.5,"perTrialBonusThreshold":0.05,"exampleCost":0.01},"classroomParams":{"A":{"a":1,"b":4},"B":{"a":4,"b":1},"C":{"a":2,"b":8},"D":{"a":8,"b":2}},"conditions":["nonSeqFull","nonSeqPartial","seqNoFeedback","seqFeedback"],"classroomPairings":[["A","B"],["C","D"]],"coinWeights":[0.2,0.5,0.8],"subjectId":"A38IZLCH8VYVFK","assignmentId":"3X4MXAO0BHASMB2VLZGIGJZ1YYVWR4","hitId":"32TZXEA1OL6QYKM0MXQIQH2ABHN14I","url":"https://gershmanlab.com/experiments/alicia/teaching/experiment/?hitId=32TZXEA1OL6QYKM0MXQIQH2ABHN14I&workerId=A38IZLCH8VYVFK&assignmentId=3X4MXAO0BHASMB2VLZGIGJZ1YYVWR4&a=0X4X9&tp_a=0X4X9&b=3X4MXAO0BHASMB2VLZGIGJZ1YYVWR4&tp_b=3X4MXAO0BHASMB2VLZGIGJZ1YYVWR4&c=365799&tp_c=365799"},{"rt":15258,"stimulus":"\n                <p>Student's guess for coin weight: <b style=\"color:Tomato;\">0.57</b></p>\n                <p>You received a bonus of <b>$0</b>. Total bonus so far: <b>$0.85</b></b></p>\n                <p></p>\n                <p>Press any key to continue.</p>\n                ","response":" ","trial_type":"html-keyboard-response","trial_index":37,"time_elapsed":609233,"internal_node_id":"0.0-30.0","params":{"nStudents":24,"maxFlips":30,"completionMinutes":45,"basePay":8,"maxBonus":9,"perTrialBonus":0.5,"perTrialBonusThreshold":0.05,"exampleCost":0.01},"classroomParams":{"A":{"a":1,"b":4},"B":{"a":4,"b":1},"C":{"a":2,"b":8},"D":{"a":8,"b":2}},"conditions":["nonSeqFull","nonSeqPartial","seqNoFeedback","seqFeedback"],"classroomPairings":[["A","B"],["C","D"]],"coinWeights":[0.2,0.5,0.8],"subjectId":"A38IZLCH8VYVFK","assignmentId":"3X4MXAO0BHASMB2VLZGIGJZ1YYVWR4","hitId":"32TZXEA1OL6QYKM0MXQIQH2ABHN14I","url":"https://gershmanlab.com/experiments/alicia/teaching/experiment/?hitId=32TZXEA1OL6QYKM0MXQIQH2ABHN14I&workerId=A38IZLCH8VYVFK&assignmentId=3X4MXAO0BHASMB2VLZGIGJZ1YYVWR4&a=0X4X9&tp_a=0X4X9&b=3X4MXAO0BHASMB2VLZGIGJZ1YYVWR4&tp_b=3X4MXAO0BHASMB2VLZGIGJZ1YYVWR4&c=365799&tp_c=365799"},{"rt":null,"stimulus":"<div style=\"font-size:60px;\">Next student</div>","response":null,"trial_type":"html-keyboard-response","trial_index":38,"time_elapsed":612237,"internal_node_id":"0.0-31.0-0.0","params":{"nStudents":24,"maxFlips":30,"completionMinutes":45,"basePay":8,"maxBonus":9,"perTrialBonus":0.5,"perTrialBonusThreshold":0.05,"exampleCost":0.01},"classroomParams":{"A":{"a":1,"b":4},"B":{"a":4,"b":1},"C":{"a":2,"b":8},"D":{"a":8,"b":2}},"conditions":["nonSeqFull","nonSeqPartial","seqNoFeedback","seqFeedback"],"classroomPairings":[["A","B"],["C","D"]],"coinWeights":[0.2,0.5,0.8],"subjectId":"A38IZLCH8VYVFK","assignmentId":"3X4MXAO0BHASMB2VLZGIGJZ1YYVWR4","hitId":"32TZXEA1OL6QYKM0MXQIQH2ABHN14I","url":"https://gershmanlab.com/experiments/alicia/teaching/experiment/?hitId=32TZXEA1OL6QYKM0MXQIQH2ABHN14I&workerId=A38IZLCH8VYVFK&assignmentId=3X4MXAO0BHASMB2VLZGIGJZ1YYVWR4&a=0X4X9&tp_a=0X4X9&b=3X4MXAO0BHASMB2VLZGIGJZ1YYVWR4&tp_b=3X4MXAO0BHASMB2VLZGIGJZ1YYVWR4&c=365799&tp_c=365799"},{"rt":2910,"stimulus":"\n            <h4 style=\"color:Orange;\">Student 5</h4>\n            <h2>The weight of your coin is <b style=\"color:Tomato;\">0.5</b>.</h2>\n            <p>In this block, you will be giving <b>one</b> set of examples to Student 5.</p>\n                <p>You will receive feedback at the end of the block.</p>\n            <p></p>","response":0,"trial_type":"html-button-response","trial_index":39,"time_elapsed":615148,"internal_node_id":"0.0-32.0","params":{"nStudents":24,"maxFlips":30,"completionMinutes":45,"basePay":8,"maxBonus":9,"perTrialBonus":0.5,"perTrialBonusThreshold":0.05,"exampleCost":0.01},"classroomParams":{"A":{"a":1,"b":4},"B":{"a":4,"b":1},"C":{"a":2,"b":8},"D":{"a":8,"b":2}},"conditions":["nonSeqFull","nonSeqPartial","seqNoFeedback","seqFeedback"],"classroomPairings":[["A","B"],["C","D"]],"coinWeights":[0.2,0.5,0.8],"subjectId":"A38IZLCH8VYVFK","assignmentId":"3X4MXAO0BHASMB2VLZGIGJZ1YYVWR4","hitId":"32TZXEA1OL6QYKM0MXQIQH2ABHN14I","url":"https://gershmanlab.com/experiments/alicia/teaching/experiment/?hitId=32TZXEA1OL6QYKM0MXQIQH2ABHN14I&workerId=A38IZLCH8VYVFK&assignmentId=3X4MXAO0BHASMB2VLZGIGJZ1YYVWR4&a=0X4X9&tp_a=0X4X9&b=3X4MXAO0BHASMB2VLZGIGJZ1YYVWR4&tp_b=3X4MXAO0BHASMB2VLZGIGJZ1YYVWR4&c=365799&tp_c=365799"},{"rt":34117,"response":{"heads":"15","tails":"15"},"type":"response","condition":"nonSeqFull","trueTheta":0.5,"classrooms":["A","B"],"studentTrueClassroom":"A","exampleSet":"first","trial_type":"survey-html-form","trial_index":40,"time_elapsed":649266,"internal_node_id":"0.0-33.0-0.0","params":{"nStudents":24,"maxFlips":30,"completionMinutes":45,"basePay":8,"maxBonus":9,"perTrialBonus":0.5,"perTrialBonusThreshold":0.05,"exampleCost":0.01},"classroomParams":{"A":{"a":1,"b":4},"B":{"a":4,"b":1},"C":{"a":2,"b":8},"D":{"a":8,"b":2}},"conditions":["nonSeqFull","nonSeqPartial","seqNoFeedback","seqFeedback"],"classroomPairings":[["A","B"],["C","D"]],"coinWeights":[0.2,0.5,0.8],"subjectId":"A38IZLCH8VYVFK","assignmentId":"3X4MXAO0BHASMB2VLZGIGJZ1YYVWR4","hitId":"32TZXEA1OL6QYKM0MXQIQH2ABHN14I","url":"https://gershmanlab.com/experiments/alicia/teaching/experiment/?hitId=32TZXEA1OL6QYKM0MXQIQH2ABHN14I&workerId=A38IZLCH8VYVFK&assignmentId=3X4MXAO0BHASMB2VLZGIGJZ1YYVWR4&a=0X4X9&tp_a=0X4X9&b=3X4MXAO0BHASMB2VLZGIGJZ1YYVWR4&tp_b=3X4MXAO0BHASMB2VLZGIGJZ1YYVWR4&c=365799&tp_c=365799","heads":15,"tails":15,"studentIndex":4,"studentTrueHypers":{"a":1,"b":4},"studentGuess":0.45714285714285713,"delta":0.04285714285714287,"totalExamples":30,"bonus":0.2,"bonusSoFar":1.05},{"rt":null,"stimulus":"Sending examples to student... ","response":null,"trial_type":"html-keyboard-response","trial_index":41,"time_elapsed":650771,"internal_node_id":"0.0-34.0","params":{"nStudents":24,"maxFlips":30,"completionMinutes":45,"basePay":8,"maxBonus":9,"perTrialBonus":0.5,"perTrialBonusThreshold":0.05,"exampleCost":0.01},"classroomParams":{"A":{"a":1,"b":4},"B":{"a":4,"b":1},"C":{"a":2,"b":8},"D":{"a":8,"b":2}},"conditions":["nonSeqFull","nonSeqPartial","seqNoFeedback","seqFeedback"],"classroomPairings":[["A","B"],["C","D"]],"coinWeights":[0.2,0.5,0.8],"subjectId":"A38IZLCH8VYVFK","assignmentId":"3X4MXAO0BHASMB2VLZGIGJZ1YYVWR4","hitId":"32TZXEA1OL6QYKM0MXQIQH2ABHN14I","url":"https://gershmanlab.com/experiments/alicia/teaching/experiment/?hitId=32TZXEA1OL6QYKM0MXQIQH2ABHN14I&workerId=A38IZLCH8VYVFK&assignmentId=3X4MXAO0BHASMB2VLZGIGJZ1YYVWR4&a=0X4X9&tp_a=0X4X9&b=3X4MXAO0BHASMB2VLZGIGJZ1YYVWR4&tp_b=3X4MXAO0BHASMB2VLZGIGJZ1YYVWR4&c=365799&tp_c=365799"},{"rt":null,"stimulus":"Examples sent to student! Waiting for student...","response":null,"trial_type":"html-keyboard-response","trial_index":42,"time_elapsed":656275,"internal_node_id":"0.0-35.0","params":{"nStudents":24,"maxFlips":30,"completionMinutes":45,"basePay":8,"maxBonus":9,"perTrialBonus":0.5,"perTrialBonusThreshold":0.05,"exampleCost":0.01},"classroomParams":{"A":{"a":1,"b":4},"B":{"a":4,"b":1},"C":{"a":2,"b":8},"D":{"a":8,"b":2}},"conditions":["nonSeqFull","nonSeqPartial","seqNoFeedback","seqFeedback"],"classroomPairings":[["A","B"],["C","D"]],"coinWeights":[0.2,0.5,0.8],"subjectId":"A38IZLCH8VYVFK","assignmentId":"3X4MXAO0BHASMB2VLZGIGJZ1YYVWR4","hitId":"32TZXEA1OL6QYKM0MXQIQH2ABHN14I","url":"https://gershmanlab.com/experiments/alicia/teaching/experiment/?hitId=32TZXEA1OL6QYKM0MXQIQH2ABHN14I&workerId=A38IZLCH8VYVFK&assignmentId=3X4MXAO0BHASMB2VLZGIGJZ1YYVWR4&a=0X4X9&tp_a=0X4X9&b=3X4MXAO0BHASMB2VLZGIGJZ1YYVWR4&tp_b=3X4MXAO0BHASMB2VLZGIGJZ1YYVWR4&c=365799&tp_c=365799"},{"rt":3976,"stimulus":"\n                <p>Student's guess for coin weight: <b style=\"color:Tomato;\">0.46</b></p>\n                <p>You received a bonus of <b>$0.2</b>. Total bonus so far: <b>$1.05</b></b></p>\n                <p></p>\n                <p>Press any key to continue.</p>\n                ","response":" ","trial_type":"html-keyboard-response","trial_index":43,"time_elapsed":660252,"internal_node_id":"0.0-36.0","params":{"nStudents":24,"maxFlips":30,"completionMinutes":45,"basePay":8,"maxBonus":9,"perTrialBonus":0.5,"perTrialBonusThreshold":0.05,"exampleCost":0.01},"classroomParams":{"A":{"a":1,"b":4},"B":{"a":4,"b":1},"C":{"a":2,"b":8},"D":{"a":8,"b":2}},"conditions":["nonSeqFull","nonSeqPartial","seqNoFeedback","seqFeedback"],"classroomPairings":[["A","B"],["C","D"]],"coinWeights":[0.2,0.5,0.8],"subjectId":"A38IZLCH8VYVFK","assignmentId":"3X4MXAO0BHASMB2VLZGIGJZ1YYVWR4","hitId":"32TZXEA1OL6QYKM0MXQIQH2ABHN14I","url":"https://gershmanlab.com/experiments/alicia/teaching/experiment/?hitId=32TZXEA1OL6QYKM0MXQIQH2ABHN14I&workerId=A38IZLCH8VYVFK&assignmentId=3X4MXAO0BHASMB2VLZGIGJZ1YYVWR4&a=0X4X9&tp_a=0X4X9&b=3X4MXAO0BHASMB2VLZGIGJZ1YYVWR4&tp_b=3X4MXAO0BHASMB2VLZGIGJZ1YYVWR4&c=365799&tp_c=365799"},{"rt":null,"stimulus":"<div style=\"font-size:60px;\">Next student</div>","response":null,"trial_type":"html-keyboard-response","trial_index":44,"time_elapsed":662507,"internal_node_id":"0.0-37.0-0.0","params":{"nStudents":24,"maxFlips":30,"completionMinutes":45,"basePay":8,"maxBonus":9,"perTrialBonus":0.5,"perTrialBonusThreshold":0.05,"exampleCost":0.01},"classroomParams":{"A":{"a":1,"b":4},"B":{"a":4,"b":1},"C":{"a":2,"b":8},"D":{"a":8,"b":2}},"conditions":["nonSeqFull","nonSeqPartial","seqNoFeedback","seqFeedback"],"classroomPairings":[["A","B"],["C","D"]],"coinWeights":[0.2,0.5,0.8],"subjectId":"A38IZLCH8VYVFK","assignmentId":"3X4MXAO0BHASMB2VLZGIGJZ1YYVWR4","hitId":"32TZXEA1OL6QYKM0MXQIQH2ABHN14I","url":"https://gershmanlab.com/experiments/alicia/teaching/experiment/?hitId=32TZXEA1OL6QYKM0MXQIQH2ABHN14I&workerId=A38IZLCH8VYVFK&assignmentId=3X4MXAO0BHASMB2VLZGIGJZ1YYVWR4&a=0X4X9&tp_a=0X4X9&b=3X4MXAO0BHASMB2VLZGIGJZ1YYVWR4&tp_b=3X4MXAO0BHASMB2VLZGIGJZ1YYVWR4&c=365799&tp_c=365799"},{"rt":59365,"stimulus":"\n            <h4 style=\"color:Orange;\">Student 6</h4>\n            <h2>The weight of your coin is <b style=\"color:Tomato;\">0.2</b>.</h2>\n            <p>In this block, you will be giving <b>one</b> set of examples to Student 6.</p>\n                <p>You will receive feedback at the end of the block.</p>\n            <p></p>","response":0,"trial_type":"html-button-response","trial_index":45,"time_elapsed":721874,"internal_node_id":"0.0-38.0","params":{"nStudents":24,"maxFlips":30,"completionMinutes":45,"basePay":8,"maxBonus":9,"perTrialBonus":0.5,"perTrialBonusThreshold":0.05,"exampleCost":0.01},"classroomParams":{"A":{"a":1,"b":4},"B":{"a":4,"b":1},"C":{"a":2,"b":8},"D":{"a":8,"b":2}},"conditions":["nonSeqFull","nonSeqPartial","seqNoFeedback","seqFeedback"],"classroomPairings":[["A","B"],["C","D"]],"coinWeights":[0.2,0.5,0.8],"subjectId":"A38IZLCH8VYVFK","assignmentId":"3X4MXAO0BHASMB2VLZGIGJZ1YYVWR4","hitId":"32TZXEA1OL6QYKM0MXQIQH2ABHN14I","url":"https://gershmanlab.com/experiments/alicia/teaching/experiment/?hitId=32TZXEA1OL6QYKM0MXQIQH2ABHN14I&workerId=A38IZLCH8VYVFK&assignmentId=3X4MXAO0BHASMB2VLZGIGJZ1YYVWR4&a=0X4X9&tp_a=0X4X9&b=3X4MXAO0BHASMB2VLZGIGJZ1YYVWR4&tp_b=3X4MXAO0BHASMB2VLZGIGJZ1YYVWR4&c=365799&tp_c=365799"},{"rt":11920,"response":{"heads":"2","tails":"8"},"type":"response","condition":"nonSeqPartial","trueTheta":0.2,"classrooms":["A","B"],"studentTrueClassroom":"B","exampleSet":"first","trial_type":"survey-html-form","trial_index":46,"time_elapsed":733795,"internal_node_id":"0.0-39.0-0.0","params":{"nStudents":24,"maxFlips":30,"completionMinutes":45,"basePay":8,"maxBonus":9,"perTrialBonus":0.5,"perTrialBonusThreshold":0.05,"exampleCost":0.01},"classroomParams":{"A":{"a":1,"b":4},"B":{"a":4,"b":1},"C":{"a":2,"b":8},"D":{"a":8,"b":2}},"conditions":["nonSeqFull","nonSeqPartial","seqNoFeedback","seqFeedback"],"classroomPairings":[["A","B"],["C","D"]],"coinWeights":[0.2,0.5,0.8],"subjectId":"A38IZLCH8VYVFK","assignmentId":"3X4MXAO0BHASMB2VLZGIGJZ1YYVWR4","hitId":"32TZXEA1OL6QYKM0MXQIQH2ABHN14I","url":"https://gershmanlab.com/experiments/alicia/teaching/experiment/?hitId=32TZXEA1OL6QYKM0MXQIQH2ABHN14I&workerId=A38IZLCH8VYVFK&assignmentId=3X4MXAO0BHASMB2VLZGIGJZ1YYVWR4&a=0X4X9&tp_a=0X4X9&b=3X4MXAO0BHASMB2VLZGIGJZ1YYVWR4&tp_b=3X4MXAO0BHASMB2VLZGIGJZ1YYVWR4&c=365799&tp_c=365799","heads":2,"tails":8,"studentIndex":5,"studentTrueHypers":{"a":4,"b":1},"studentGuess":0.4,"delta":0.2,"totalExamples":10,"bonus":0,"bonusSoFar":1.05},{"rt":null,"stimulus":"Sending examples to student... ","response":null,"trial_type":"html-keyboard-response","trial_index":47,"time_elapsed":735300,"internal_node_id":"0.0-40.0","params":{"nStudents":24,"maxFlips":30,"completionMinutes":45,"basePay":8,"maxBonus":9,"perTrialBonus":0.5,"perTrialBonusThreshold":0.05,"exampleCost":0.01},"classroomParams":{"A":{"a":1,"b":4},"B":{"a":4,"b":1},"C":{"a":2,"b":8},"D":{"a":8,"b":2}},"conditions":["nonSeqFull","nonSeqPartial","seqNoFeedback","seqFeedback"],"classroomPairings":[["A","B"],["C","D"]],"coinWeights":[0.2,0.5,0.8],"subjectId":"A38IZLCH8VYVFK","assignmentId":"3X4MXAO0BHASMB2VLZGIGJZ1YYVWR4","hitId":"32TZXEA1OL6QYKM0MXQIQH2ABHN14I","url":"https://gershmanlab.com/experiments/alicia/teaching/experiment/?hitId=32TZXEA1OL6QYKM0MXQIQH2ABHN14I&workerId=A38IZLCH8VYVFK&assignmentId=3X4MXAO0BHASMB2VLZGIGJZ1YYVWR4&a=0X4X9&tp_a=0X4X9&b=3X4MXAO0BHASMB2VLZGIGJZ1YYVWR4&tp_b=3X4MXAO0BHASMB2VLZGIGJZ1YYVWR4&c=365799&tp_c=365799"},{"rt":null,"stimulus":"Examples sent to student! Waiting for student...","response":null,"trial_type":"html-keyboard-response","trial_index":48,"time_elapsed":740804,"internal_node_id":"0.0-41.0","params":{"nStudents":24,"maxFlips":30,"completionMinutes":45,"basePay":8,"maxBonus":9,"perTrialBonus":0.5,"perTrialBonusThreshold":0.05,"exampleCost":0.01},"classroomParams":{"A":{"a":1,"b":4},"B":{"a":4,"b":1},"C":{"a":2,"b":8},"D":{"a":8,"b":2}},"conditions":["nonSeqFull","nonSeqPartial","seqNoFeedback","seqFeedback"],"classroomPairings":[["A","B"],["C","D"]],"coinWeights":[0.2,0.5,0.8],"subjectId":"A38IZLCH8VYVFK","assignmentId":"3X4MXAO0BHASMB2VLZGIGJZ1YYVWR4","hitId":"32TZXEA1OL6QYKM0MXQIQH2ABHN14I","url":"https://gershmanlab.com/experiments/alicia/teaching/experiment/?hitId=32TZXEA1OL6QYKM0MXQIQH2ABHN14I&workerId=A38IZLCH8VYVFK&assignmentId=3X4MXAO0BHASMB2VLZGIGJZ1YYVWR4&a=0X4X9&tp_a=0X4X9&b=3X4MXAO0BHASMB2VLZGIGJZ1YYVWR4&tp_b=3X4MXAO0BHASMB2VLZGIGJZ1YYVWR4&c=365799&tp_c=365799"},{"rt":3736,"stimulus":"\n                <p>Student's guess for coin weight: <b style=\"color:Tomato;\">0.40</b></p>\n                <p>You received a bonus of <b>$0</b>. Total bonus so far: <b>$1.05</b></b></p>\n                <p></p>\n                <p>Press any key to continue.</p>\n                ","response":" ","trial_type":"html-keyboard-response","trial_index":49,"time_elapsed":744541,"internal_node_id":"0.0-42.0","params":{"nStudents":24,"maxFlips":30,"completionMinutes":45,"basePay":8,"maxBonus":9,"perTrialBonus":0.5,"perTrialBonusThreshold":0.05,"exampleCost":0.01},"classroomParams":{"A":{"a":1,"b":4},"B":{"a":4,"b":1},"C":{"a":2,"b":8},"D":{"a":8,"b":2}},"conditions":["nonSeqFull","nonSeqPartial","seqNoFeedback","seqFeedback"],"classroomPairings":[["A","B"],["C","D"]],"coinWeights":[0.2,0.5,0.8],"subjectId":"A38IZLCH8VYVFK","assignmentId":"3X4MXAO0BHASMB2VLZGIGJZ1YYVWR4","hitId":"32TZXEA1OL6QYKM0MXQIQH2ABHN14I","url":"https://gershmanlab.com/experiments/alicia/teaching/experiment/?hitId=32TZXEA1OL6QYKM0MXQIQH2ABHN14I&workerId=A38IZLCH8VYVFK&assignmentId=3X4MXAO0BHASMB2VLZGIGJZ1YYVWR4&a=0X4X9&tp_a=0X4X9&b=3X4MXAO0BHASMB2VLZGIGJZ1YYVWR4&tp_b=3X4MXAO0BHASMB2VLZGIGJZ1YYVWR4&c=365799&tp_c=365799"},{"rt":null,"stimulus":"<div style=\"font-size:60px;\">Next student</div>","response":null,"trial_type":"html-keyboard-response","trial_index":50,"time_elapsed":747545,"internal_node_id":"0.0-43.0-0.0","params":{"nStudents":24,"maxFlips":30,"completionMinutes":45,"basePay":8,"maxBonus":9,"perTrialBonus":0.5,"perTrialBonusThreshold":0.05,"exampleCost":0.01},"classroomParams":{"A":{"a":1,"b":4},"B":{"a":4,"b":1},"C":{"a":2,"b":8},"D":{"a":8,"b":2}},"conditions":["nonSeqFull","nonSeqPartial","seqNoFeedback","seqFeedback"],"classroomPairings":[["A","B"],["C","D"]],"coinWeights":[0.2,0.5,0.8],"subjectId":"A38IZLCH8VYVFK","assignmentId":"3X4MXAO0BHASMB2VLZGIGJZ1YYVWR4","hitId":"32TZXEA1OL6QYKM0MXQIQH2ABHN14I","url":"https://gershmanlab.com/experiments/alicia/teaching/experiment/?hitId=32TZXEA1OL6QYKM0MXQIQH2ABHN14I&workerId=A38IZLCH8VYVFK&assignmentId=3X4MXAO0BHASMB2VLZGIGJZ1YYVWR4&a=0X4X9&tp_a=0X4X9&b=3X4MXAO0BHASMB2VLZGIGJZ1YYVWR4&tp_b=3X4MXAO0BHASMB2VLZGIGJZ1YYVWR4&c=365799&tp_c=365799"},{"rt":2352,"stimulus":"\n            <h4 style=\"color:Orange;\">Student 7</h4>\n            <h2>The weight of your coin is <b style=\"color:Tomato;\">0.8</b>.</h2>\n            <p>In this block, you will be giving <b>one</b> set of examples to Student 7.</p>\n                <p>You will receive feedback at the end of the block.</p>\n            <p></p>","response":0,"trial_type":"html-button-response","trial_index":51,"time_elapsed":749898,"internal_node_id":"0.0-44.0","params":{"nStudents":24,"maxFlips":30,"completionMinutes":45,"basePay":8,"maxBonus":9,"perTrialBonus":0.5,"perTrialBonusThreshold":0.05,"exampleCost":0.01},"classroomParams":{"A":{"a":1,"b":4},"B":{"a":4,"b":1},"C":{"a":2,"b":8},"D":{"a":8,"b":2}},"conditions":["nonSeqFull","nonSeqPartial","seqNoFeedback","seqFeedback"],"classroomPairings":[["A","B"],["C","D"]],"coinWeights":[0.2,0.5,0.8],"subjectId":"A38IZLCH8VYVFK","assignmentId":"3X4MXAO0BHASMB2VLZGIGJZ1YYVWR4","hitId":"32TZXEA1OL6QYKM0MXQIQH2ABHN14I","url":"https://gershmanlab.com/experiments/alicia/teaching/experiment/?hitId=32TZXEA1OL6QYKM0MXQIQH2ABHN14I&workerId=A38IZLCH8VYVFK&assignmentId=3X4MXAO0BHASMB2VLZGIGJZ1YYVWR4&a=0X4X9&tp_a=0X4X9&b=3X4MXAO0BHASMB2VLZGIGJZ1YYVWR4&tp_b=3X4MXAO0BHASMB2VLZGIGJZ1YYVWR4&c=365799&tp_c=365799"},{"rt":14623,"response":{"heads":"8","tails":"2"},"type":"response","condition":"nonSeqFull","trueTheta":0.8,"classrooms":["C","D"],"studentTrueClassroom":"D","exampleSet":"first","trial_type":"survey-html-form","trial_index":52,"time_elapsed":764522,"internal_node_id":"0.0-45.0-0.0","params":{"nStudents":24,"maxFlips":30,"completionMinutes":45,"basePay":8,"maxBonus":9,"perTrialBonus":0.5,"perTrialBonusThreshold":0.05,"exampleCost":0.01},"classroomParams":{"A":{"a":1,"b":4},"B":{"a":4,"b":1},"C":{"a":2,"b":8},"D":{"a":8,"b":2}},"conditions":["nonSeqFull","nonSeqPartial","seqNoFeedback","seqFeedback"],"classroomPairings":[["A","B"],["C","D"]],"coinWeights":[0.2,0.5,0.8],"subjectId":"A38IZLCH8VYVFK","assignmentId":"3X4MXAO0BHASMB2VLZGIGJZ1YYVWR4","hitId":"32TZXEA1OL6QYKM0MXQIQH2ABHN14I","url":"https://gershmanlab.com/experiments/alicia/teaching/experiment/?hitId=32TZXEA1OL6QYKM0MXQIQH2ABHN14I&workerId=A38IZLCH8VYVFK&assignmentId=3X4MXAO0BHASMB2VLZGIGJZ1YYVWR4&a=0X4X9&tp_a=0X4X9&b=3X4MXAO0BHASMB2VLZGIGJZ1YYVWR4&tp_b=3X4MXAO0BHASMB2VLZGIGJZ1YYVWR4&c=365799&tp_c=365799","heads":8,"tails":2,"studentIndex":6,"studentTrueHypers":{"a":8,"b":2},"studentGuess":0.8,"delta":0,"totalExamples":10,"bonus":0.4,"bonusSoFar":1.45},{"rt":null,"stimulus":"Sending examples to student... ","response":null,"trial_type":"html-keyboard-response","trial_index":53,"time_elapsed":766275,"internal_node_id":"0.0-46.0","params":{"nStudents":24,"maxFlips":30,"completionMinutes":45,"basePay":8,"maxBonus":9,"perTrialBonus":0.5,"perTrialBonusThreshold":0.05,"exampleCost":0.01},"classroomParams":{"A":{"a":1,"b":4},"B":{"a":4,"b":1},"C":{"a":2,"b":8},"D":{"a":8,"b":2}},"conditions":["nonSeqFull","nonSeqPartial","seqNoFeedback","seqFeedback"],"classroomPairings":[["A","B"],["C","D"]],"coinWeights":[0.2,0.5,0.8],"subjectId":"A38IZLCH8VYVFK","assignmentId":"3X4MXAO0BHASMB2VLZGIGJZ1YYVWR4","hitId":"32TZXEA1OL6QYKM0MXQIQH2ABHN14I","url":"https://gershmanlab.com/experiments/alicia/teaching/experiment/?hitId=32TZXEA1OL6QYKM0MXQIQH2ABHN14I&workerId=A38IZLCH8VYVFK&assignmentId=3X4MXAO0BHASMB2VLZGIGJZ1YYVWR4&a=0X4X9&tp_a=0X4X9&b=3X4MXAO0BHASMB2VLZGIGJZ1YYVWR4&tp_b=3X4MXAO0BHASMB2VLZGIGJZ1YYVWR4&c=365799&tp_c=365799"},{"rt":null,"stimulus":"Examples sent to student! Waiting for student...","response":null,"trial_type":"html-keyboard-response","trial_index":54,"time_elapsed":771777,"internal_node_id":"0.0-47.0","params":{"nStudents":24,"maxFlips":30,"completionMinutes":45,"basePay":8,"maxBonus":9,"perTrialBonus":0.5,"perTrialBonusThreshold":0.05,"exampleCost":0.01},"classroomParams":{"A":{"a":1,"b":4},"B":{"a":4,"b":1},"C":{"a":2,"b":8},"D":{"a":8,"b":2}},"conditions":["nonSeqFull","nonSeqPartial","seqNoFeedback","seqFeedback"],"classroomPairings":[["A","B"],["C","D"]],"coinWeights":[0.2,0.5,0.8],"subjectId":"A38IZLCH8VYVFK","assignmentId":"3X4MXAO0BHASMB2VLZGIGJZ1YYVWR4","hitId":"32TZXEA1OL6QYKM0MXQIQH2ABHN14I","url":"https://gershmanlab.com/experiments/alicia/teaching/experiment/?hitId=32TZXEA1OL6QYKM0MXQIQH2ABHN14I&workerId=A38IZLCH8VYVFK&assignmentId=3X4MXAO0BHASMB2VLZGIGJZ1YYVWR4&a=0X4X9&tp_a=0X4X9&b=3X4MXAO0BHASMB2VLZGIGJZ1YYVWR4&tp_b=3X4MXAO0BHASMB2VLZGIGJZ1YYVWR4&c=365799&tp_c=365799"},{"rt":null,"stimulus":"\n                <p>Student's guess for coin weight: <b style=\"color:Tomato;\">0.80</b></p>\n                <p>You received a bonus of <b>$0.4</b>. Total bonus so far: <b>$1.45</b></b></p>\n                <p></p>\n                <p>Press any key to continue.</p>\n                ","response":null,"trial_type":"html-keyboard-response","trial_index":55,"time_elapsed":801779,"internal_node_id":"0.0-48.0","params":{"nStudents":24,"maxFlips":30,"completionMinutes":45,"basePay":8,"maxBonus":9,"perTrialBonus":0.5,"perTrialBonusThreshold":0.05,"exampleCost":0.01},"classroomParams":{"A":{"a":1,"b":4},"B":{"a":4,"b":1},"C":{"a":2,"b":8},"D":{"a":8,"b":2}},"conditions":["nonSeqFull","nonSeqPartial","seqNoFeedback","seqFeedback"],"classroomPairings":[["A","B"],["C","D"]],"coinWeights":[0.2,0.5,0.8],"subjectId":"A38IZLCH8VYVFK","assignmentId":"3X4MXAO0BHASMB2VLZGIGJZ1YYVWR4","hitId":"32TZXEA1OL6QYKM0MXQIQH2ABHN14I","url":"https://gershmanlab.com/experiments/alicia/teaching/experiment/?hitId=32TZXEA1OL6QYKM0MXQIQH2ABHN14I&workerId=A38IZLCH8VYVFK&assignmentId=3X4MXAO0BHASMB2VLZGIGJZ1YYVWR4&a=0X4X9&tp_a=0X4X9&b=3X4MXAO0BHASMB2VLZGIGJZ1YYVWR4&tp_b=3X4MXAO0BHASMB2VLZGIGJZ1YYVWR4&c=365799&tp_c=365799"},{"rt":null,"stimulus":"<div style=\"font-size:60px;\">Next student</div>","response":null,"trial_type":"html-keyboard-response","trial_index":56,"time_elapsed":803785,"internal_node_id":"0.0-49.0-0.0","params":{"nStudents":24,"maxFlips":30,"completionMinutes":45,"basePay":8,"maxBonus":9,"perTrialBonus":0.5,"perTrialBonusThreshold":0.05,"exampleCost":0.01},"classroomParams":{"A":{"a":1,"b":4},"B":{"a":4,"b":1},"C":{"a":2,"b":8},"D":{"a":8,"b":2}},"conditions":["nonSeqFull","nonSeqPartial","seqNoFeedback","seqFeedback"],"classroomPairings":[["A","B"],["C","D"]],"coinWeights":[0.2,0.5,0.8],"subjectId":"A38IZLCH8VYVFK","assignmentId":"3X4MXAO0BHASMB2VLZGIGJZ1YYVWR4","hitId":"32TZXEA1OL6QYKM0MXQIQH2ABHN14I","url":"https://gershmanlab.com/experiments/alicia/teaching/experiment/?hitId=32TZXEA1OL6QYKM0MXQIQH2ABHN14I&workerId=A38IZLCH8VYVFK&assignmentId=3X4MXAO0BHASMB2VLZGIGJZ1YYVWR4&a=0X4X9&tp_a=0X4X9&b=3X4MXAO0BHASMB2VLZGIGJZ1YYVWR4&tp_b=3X4MXAO0BHASMB2VLZGIGJZ1YYVWR4&c=365799&tp_c=365799"},{"rt":5850,"stimulus":"\n            <h4 style=\"color:Orange;\">Student 8</h4>\n            <h2>The weight of your coin is <b style=\"color:Tomato;\">0.8</b>.</h2>\n            <p>In this block, you will be giving <b>two</b> sets of examples to Student 8.</p>\n                <p>You will see the student's guess after the first set of examples. You will also receive feedback at the end of the block.</p>\n            <p>To earn the highest bonus, you will have to <b>take into consideration the student's guess</b> when you choose your second set of examples.</p>","response":0,"trial_type":"html-button-response","trial_index":57,"time_elapsed":809636,"internal_node_id":"0.0-50.0","params":{"nStudents":24,"maxFlips":30,"completionMinutes":45,"basePay":8,"maxBonus":9,"perTrialBonus":0.5,"perTrialBonusThreshold":0.05,"exampleCost":0.01},"classroomParams":{"A":{"a":1,"b":4},"B":{"a":4,"b":1},"C":{"a":2,"b":8},"D":{"a":8,"b":2}},"conditions":["nonSeqFull","nonSeqPartial","seqNoFeedback","seqFeedback"],"classroomPairings":[["A","B"],["C","D"]],"coinWeights":[0.2,0.5,0.8],"subjectId":"A38IZLCH8VYVFK","assignmentId":"3X4MXAO0BHASMB2VLZGIGJZ1YYVWR4","hitId":"32TZXEA1OL6QYKM0MXQIQH2ABHN14I","url":"https://gershmanlab.com/experiments/alicia/teaching/experiment/?hitId=32TZXEA1OL6QYKM0MXQIQH2ABHN14I&workerId=A38IZLCH8VYVFK&assignmentId=3X4MXAO0BHASMB2VLZGIGJZ1YYVWR4&a=0X4X9&tp_a=0X4X9&b=3X4MXAO0BHASMB2VLZGIGJZ1YYVWR4&tp_b=3X4MXAO0BHASMB2VLZGIGJZ1YYVWR4&c=365799&tp_c=365799"},{"rt":30254,"response":{"heads":"16","tails":"4"},"type":"response","condition":"seqFeedback","trueTheta":0.8,"classrooms":["A","B"],"studentTrueClassroom":"A","exampleSet":"first","trial_type":"survey-html-form","trial_index":58,"time_elapsed":839891,"internal_node_id":"0.0-51.0-0.0","params":{"nStudents":24,"maxFlips":30,"completionMinutes":45,"basePay":8,"maxBonus":9,"perTrialBonus":0.5,"perTrialBonusThreshold":0.05,"exampleCost":0.01},"classroomParams":{"A":{"a":1,"b":4},"B":{"a":4,"b":1},"C":{"a":2,"b":8},"D":{"a":8,"b":2}},"conditions":["nonSeqFull","nonSeqPartial","seqNoFeedback","seqFeedback"],"classroomPairings":[["A","B"],["C","D"]],"coinWeights":[0.2,0.5,0.8],"subjectId":"A38IZLCH8VYVFK","assignmentId":"3X4MXAO0BHASMB2VLZGIGJZ1YYVWR4","hitId":"32TZXEA1OL6QYKM0MXQIQH2ABHN14I","url":"https://gershmanlab.com/experiments/alicia/teaching/experiment/?hitId=32TZXEA1OL6QYKM0MXQIQH2ABHN14I&workerId=A38IZLCH8VYVFK&assignmentId=3X4MXAO0BHASMB2VLZGIGJZ1YYVWR4&a=0X4X9&tp_a=0X4X9&b=3X4MXAO0BHASMB2VLZGIGJZ1YYVWR4&tp_b=3X4MXAO0BHASMB2VLZGIGJZ1YYVWR4&c=365799&tp_c=365799","heads":16,"tails":4,"studentIndex":7,"studentTrueHypers":{"a":1,"b":4},"studentGuess":0.68,"delta":0.12,"totalExamples":20,"bonusSoFar":1.45},{"rt":null,"stimulus":"Sending examples to student... ","response":null,"trial_type":"html-keyboard-response","trial_index":59,"time_elapsed":841145,"internal_node_id":"0.0-52.0","params":{"nStudents":24,"maxFlips":30,"completionMinutes":45,"basePay":8,"maxBonus":9,"perTrialBonus":0.5,"perTrialBonusThreshold":0.05,"exampleCost":0.01},"classroomParams":{"A":{"a":1,"b":4},"B":{"a":4,"b":1},"C":{"a":2,"b":8},"D":{"a":8,"b":2}},"conditions":["nonSeqFull","nonSeqPartial","seqNoFeedback","seqFeedback"],"classroomPairings":[["A","B"],["C","D"]],"coinWeights":[0.2,0.5,0.8],"subjectId":"A38IZLCH8VYVFK","assignmentId":"3X4MXAO0BHASMB2VLZGIGJZ1YYVWR4","hitId":"32TZXEA1OL6QYKM0MXQIQH2ABHN14I","url":"https://gershmanlab.com/experiments/alicia/teaching/experiment/?hitId=32TZXEA1OL6QYKM0MXQIQH2ABHN14I&workerId=A38IZLCH8VYVFK&assignmentId=3X4MXAO0BHASMB2VLZGIGJZ1YYVWR4&a=0X4X9&tp_a=0X4X9&b=3X4MXAO0BHASMB2VLZGIGJZ1YYVWR4&tp_b=3X4MXAO0BHASMB2VLZGIGJZ1YYVWR4&c=365799&tp_c=365799"},{"rt":null,"stimulus":"Examples sent to student! Waiting for student...","response":null,"trial_type":"html-keyboard-response","trial_index":60,"time_elapsed":845146,"internal_node_id":"0.0-53.0","params":{"nStudents":24,"maxFlips":30,"completionMinutes":45,"basePay":8,"maxBonus":9,"perTrialBonus":0.5,"perTrialBonusThreshold":0.05,"exampleCost":0.01},"classroomParams":{"A":{"a":1,"b":4},"B":{"a":4,"b":1},"C":{"a":2,"b":8},"D":{"a":8,"b":2}},"conditions":["nonSeqFull","nonSeqPartial","seqNoFeedback","seqFeedback"],"classroomPairings":[["A","B"],["C","D"]],"coinWeights":[0.2,0.5,0.8],"subjectId":"A38IZLCH8VYVFK","assignmentId":"3X4MXAO0BHASMB2VLZGIGJZ1YYVWR4","hitId":"32TZXEA1OL6QYKM0MXQIQH2ABHN14I","url":"https://gershmanlab.com/experiments/alicia/teaching/experiment/?hitId=32TZXEA1OL6QYKM0MXQIQH2ABHN14I&workerId=A38IZLCH8VYVFK&assignmentId=3X4MXAO0BHASMB2VLZGIGJZ1YYVWR4&a=0X4X9&tp_a=0X4X9&b=3X4MXAO0BHASMB2VLZGIGJZ1YYVWR4&tp_b=3X4MXAO0BHASMB2VLZGIGJZ1YYVWR4&c=365799&tp_c=365799"},{"rt":4531,"stimulus":"\n                <p>Student's guess for coin weight: <b style=\"color:Tomato;\">0.68</b></p>\n                <p></b></p>\n                <p>You will now send another set of examples to your student. <b>Remember to take your student's guess into consideration so that you can earn the highest bonus possible!</b> </p>\n                <p>Press any key to continue.</p>\n                ","response":" ","trial_type":"html-keyboard-response","trial_index":61,"time_elapsed":849678,"internal_node_id":"0.0-54.0","params":{"nStudents":24,"maxFlips":30,"completionMinutes":45,"basePay":8,"maxBonus":9,"perTrialBonus":0.5,"perTrialBonusThreshold":0.05,"exampleCost":0.01},"classroomParams":{"A":{"a":1,"b":4},"B":{"a":4,"b":1},"C":{"a":2,"b":8},"D":{"a":8,"b":2}},"conditions":["nonSeqFull","nonSeqPartial","seqNoFeedback","seqFeedback"],"classroomPairings":[["A","B"],["C","D"]],"coinWeights":[0.2,0.5,0.8],"subjectId":"A38IZLCH8VYVFK","assignmentId":"3X4MXAO0BHASMB2VLZGIGJZ1YYVWR4","hitId":"32TZXEA1OL6QYKM0MXQIQH2ABHN14I","url":"https://gershmanlab.com/experiments/alicia/teaching/experiment/?hitId=32TZXEA1OL6QYKM0MXQIQH2ABHN14I&workerId=A38IZLCH8VYVFK&assignmentId=3X4MXAO0BHASMB2VLZGIGJZ1YYVWR4&a=0X4X9&tp_a=0X4X9&b=3X4MXAO0BHASMB2VLZGIGJZ1YYVWR4&tp_b=3X4MXAO0BHASMB2VLZGIGJZ1YYVWR4&c=365799&tp_c=365799"},{"rt":9879,"response":{"heads":"16","tails":"4"},"type":"response","condition":"seqFeedback","trueTheta":0.8,"classrooms":["A","B"],"studentTrueClassroom":"A","exampleSet":"second","trial_type":"survey-html-form","trial_index":62,"time_elapsed":859558,"internal_node_id":"0.0-55.0-0.0","params":{"nStudents":24,"maxFlips":30,"completionMinutes":45,"basePay":8,"maxBonus":9,"perTrialBonus":0.5,"perTrialBonusThreshold":0.05,"exampleCost":0.01},"classroomParams":{"A":{"a":1,"b":4},"B":{"a":4,"b":1},"C":{"a":2,"b":8},"D":{"a":8,"b":2}},"conditions":["nonSeqFull","nonSeqPartial","seqNoFeedback","seqFeedback"],"classroomPairings":[["A","B"],["C","D"]],"coinWeights":[0.2,0.5,0.8],"subjectId":"A38IZLCH8VYVFK","assignmentId":"3X4MXAO0BHASMB2VLZGIGJZ1YYVWR4","hitId":"32TZXEA1OL6QYKM0MXQIQH2ABHN14I","url":"https://gershmanlab.com/experiments/alicia/teaching/experiment/?hitId=32TZXEA1OL6QYKM0MXQIQH2ABHN14I&workerId=A38IZLCH8VYVFK&assignmentId=3X4MXAO0BHASMB2VLZGIGJZ1YYVWR4&a=0X4X9&tp_a=0X4X9&b=3X4MXAO0BHASMB2VLZGIGJZ1YYVWR4&tp_b=3X4MXAO0BHASMB2VLZGIGJZ1YYVWR4&c=365799&tp_c=365799","firstResponseHeads":16,"firstResponseTails":4,"secondResponseHeads":16,"secondResponseTails":4,"totalHeads":32,"totalTails":8,"studentIndex":7,"studentTrueHypers":{"a":1,"b":4},"studentGuess":0.7333333333333333,"delta":0.06666666666666676,"bonus":0,"bonusSoFar":1.45,"totalExamples":40},{"rt":null,"stimulus":"Sending examples to student... ","response":null,"trial_type":"html-keyboard-response","trial_index":63,"time_elapsed":860809,"internal_node_id":"0.0-56.0","params":{"nStudents":24,"maxFlips":30,"completionMinutes":45,"basePay":8,"maxBonus":9,"perTrialBonus":0.5,"perTrialBonusThreshold":0.05,"exampleCost":0.01},"classroomParams":{"A":{"a":1,"b":4},"B":{"a":4,"b":1},"C":{"a":2,"b":8},"D":{"a":8,"b":2}},"conditions":["nonSeqFull","nonSeqPartial","seqNoFeedback","seqFeedback"],"classroomPairings":[["A","B"],["C","D"]],"coinWeights":[0.2,0.5,0.8],"subjectId":"A38IZLCH8VYVFK","assignmentId":"3X4MXAO0BHASMB2VLZGIGJZ1YYVWR4","hitId":"32TZXEA1OL6QYKM0MXQIQH2ABHN14I","url":"https://gershmanlab.com/experiments/alicia/teaching/experiment/?hitId=32TZXEA1OL6QYKM0MXQIQH2ABHN14I&workerId=A38IZLCH8VYVFK&assignmentId=3X4MXAO0BHASMB2VLZGIGJZ1YYVWR4&a=0X4X9&tp_a=0X4X9&b=3X4MXAO0BHASMB2VLZGIGJZ1YYVWR4&tp_b=3X4MXAO0BHASMB2VLZGIGJZ1YYVWR4&c=365799&tp_c=365799"},{"rt":null,"stimulus":"Examples sent to student! Waiting for student...","response":null,"trial_type":"html-keyboard-response","trial_index":64,"time_elapsed":865311,"internal_node_id":"0.0-57.0","params":{"nStudents":24,"maxFlips":30,"completionMinutes":45,"basePay":8,"maxBonus":9,"perTrialBonus":0.5,"perTrialBonusThreshold":0.05,"exampleCost":0.01},"classroomParams":{"A":{"a":1,"b":4},"B":{"a":4,"b":1},"C":{"a":2,"b":8},"D":{"a":8,"b":2}},"conditions":["nonSeqFull","nonSeqPartial","seqNoFeedback","seqFeedback"],"classroomPairings":[["A","B"],["C","D"]],"coinWeights":[0.2,0.5,0.8],"subjectId":"A38IZLCH8VYVFK","assignmentId":"3X4MXAO0BHASMB2VLZGIGJZ1YYVWR4","hitId":"32TZXEA1OL6QYKM0MXQIQH2ABHN14I","url":"https://gershmanlab.com/experiments/alicia/teaching/experiment/?hitId=32TZXEA1OL6QYKM0MXQIQH2ABHN14I&workerId=A38IZLCH8VYVFK&assignmentId=3X4MXAO0BHASMB2VLZGIGJZ1YYVWR4&a=0X4X9&tp_a=0X4X9&b=3X4MXAO0BHASMB2VLZGIGJZ1YYVWR4&tp_b=3X4MXAO0BHASMB2VLZGIGJZ1YYVWR4&c=365799&tp_c=365799"},{"rt":3231,"stimulus":"\n                <p>Student 8's first guess for coin weight: <b style=\"color:Tomato\";>0.68</b></p>\n                <p>Student 8's second guess for coin weight: <b style=\"color:Tomato\";>0.73</b></p>\n                <p>You received a bonus of <b>$0.00</b> based on the student's second guess.</p>\n                <p>Total bonus so far: <b>$1.45</b></p>\n                <p>Press any key to continue.</p>\n                ","response":" ","trial_type":"html-keyboard-response","trial_index":65,"time_elapsed":868543,"internal_node_id":"0.0-58.0","params":{"nStudents":24,"maxFlips":30,"completionMinutes":45,"basePay":8,"maxBonus":9,"perTrialBonus":0.5,"perTrialBonusThreshold":0.05,"exampleCost":0.01},"classroomParams":{"A":{"a":1,"b":4},"B":{"a":4,"b":1},"C":{"a":2,"b":8},"D":{"a":8,"b":2}},"conditions":["nonSeqFull","nonSeqPartial","seqNoFeedback","seqFeedback"],"classroomPairings":[["A","B"],["C","D"]],"coinWeights":[0.2,0.5,0.8],"subjectId":"A38IZLCH8VYVFK","assignmentId":"3X4MXAO0BHASMB2VLZGIGJZ1YYVWR4","hitId":"32TZXEA1OL6QYKM0MXQIQH2ABHN14I","url":"https://gershmanlab.com/experiments/alicia/teaching/experiment/?hitId=32TZXEA1OL6QYKM0MXQIQH2ABHN14I&workerId=A38IZLCH8VYVFK&assignmentId=3X4MXAO0BHASMB2VLZGIGJZ1YYVWR4&a=0X4X9&tp_a=0X4X9&b=3X4MXAO0BHASMB2VLZGIGJZ1YYVWR4&tp_b=3X4MXAO0BHASMB2VLZGIGJZ1YYVWR4&c=365799&tp_c=365799"},{"rt":null,"stimulus":"<div style=\"font-size:60px;\">Next student</div>","response":null,"trial_type":"html-keyboard-response","trial_index":66,"time_elapsed":871582,"internal_node_id":"0.0-59.0-0.0","params":{"nStudents":24,"maxFlips":30,"completionMinutes":45,"basePay":8,"maxBonus":9,"perTrialBonus":0.5,"perTrialBonusThreshold":0.05,"exampleCost":0.01},"classroomParams":{"A":{"a":1,"b":4},"B":{"a":4,"b":1},"C":{"a":2,"b":8},"D":{"a":8,"b":2}},"conditions":["nonSeqFull","nonSeqPartial","seqNoFeedback","seqFeedback"],"classroomPairings":[["A","B"],["C","D"]],"coinWeights":[0.2,0.5,0.8],"subjectId":"A38IZLCH8VYVFK","assignmentId":"3X4MXAO0BHASMB2VLZGIGJZ1YYVWR4","hitId":"32TZXEA1OL6QYKM0MXQIQH2ABHN14I","url":"https://gershmanlab.com/experiments/alicia/teaching/experiment/?hitId=32TZXEA1OL6QYKM0MXQIQH2ABHN14I&workerId=A38IZLCH8VYVFK&assignmentId=3X4MXAO0BHASMB2VLZGIGJZ1YYVWR4&a=0X4X9&tp_a=0X4X9&b=3X4MXAO0BHASMB2VLZGIGJZ1YYVWR4&tp_b=3X4MXAO0BHASMB2VLZGIGJZ1YYVWR4&c=365799&tp_c=365799"},{"rt":60280,"stimulus":"\n            <h4 style=\"color:Orange;\">Student 9</h4>\n            <h2>The weight of your coin is <b style=\"color:Tomato;\">0.8</b>.</h2>\n            <p>In this block, you will be giving <b>one</b> set of examples to Student 9.</p>\n                <p>You will receive feedback at the end of the block.</p>\n            <p></p>","response":0,"trial_type":"html-button-response","trial_index":67,"time_elapsed":931864,"internal_node_id":"0.0-60.0","params":{"nStudents":24,"maxFlips":30,"completionMinutes":45,"basePay":8,"maxBonus":9,"perTrialBonus":0.5,"perTrialBonusThreshold":0.05,"exampleCost":0.01},"classroomParams":{"A":{"a":1,"b":4},"B":{"a":4,"b":1},"C":{"a":2,"b":8},"D":{"a":8,"b":2}},"conditions":["nonSeqFull","nonSeqPartial","seqNoFeedback","seqFeedback"],"classroomPairings":[["A","B"],["C","D"]],"coinWeights":[0.2,0.5,0.8],"subjectId":"A38IZLCH8VYVFK","assignmentId":"3X4MXAO0BHASMB2VLZGIGJZ1YYVWR4","hitId":"32TZXEA1OL6QYKM0MXQIQH2ABHN14I","url":"https://gershmanlab.com/experiments/alicia/teaching/experiment/?hitId=32TZXEA1OL6QYKM0MXQIQH2ABHN14I&workerId=A38IZLCH8VYVFK&assignmentId=3X4MXAO0BHASMB2VLZGIGJZ1YYVWR4&a=0X4X9&tp_a=0X4X9&b=3X4MXAO0BHASMB2VLZGIGJZ1YYVWR4&tp_b=3X4MXAO0BHASMB2VLZGIGJZ1YYVWR4&c=365799&tp_c=365799"},{"rt":27330,"response":{"heads":"16","tails":"4"},"type":"response","condition":"nonSeqPartial","trueTheta":0.8,"classrooms":["C","D"],"studentTrueClassroom":"D","exampleSet":"first","trial_type":"survey-html-form","trial_index":68,"time_elapsed":959195,"internal_node_id":"0.0-61.0-0.0","params":{"nStudents":24,"maxFlips":30,"completionMinutes":45,"basePay":8,"maxBonus":9,"perTrialBonus":0.5,"perTrialBonusThreshold":0.05,"exampleCost":0.01},"classroomParams":{"A":{"a":1,"b":4},"B":{"a":4,"b":1},"C":{"a":2,"b":8},"D":{"a":8,"b":2}},"conditions":["nonSeqFull","nonSeqPartial","seqNoFeedback","seqFeedback"],"classroomPairings":[["A","B"],["C","D"]],"coinWeights":[0.2,0.5,0.8],"subjectId":"A38IZLCH8VYVFK","assignmentId":"3X4MXAO0BHASMB2VLZGIGJZ1YYVWR4","hitId":"32TZXEA1OL6QYKM0MXQIQH2ABHN14I","url":"https://gershmanlab.com/experiments/alicia/teaching/experiment/?hitId=32TZXEA1OL6QYKM0MXQIQH2ABHN14I&workerId=A38IZLCH8VYVFK&assignmentId=3X4MXAO0BHASMB2VLZGIGJZ1YYVWR4&a=0X4X9&tp_a=0X4X9&b=3X4MXAO0BHASMB2VLZGIGJZ1YYVWR4&tp_b=3X4MXAO0BHASMB2VLZGIGJZ1YYVWR4&c=365799&tp_c=365799","heads":16,"tails":4,"studentIndex":8,"studentTrueHypers":{"a":8,"b":2},"studentGuess":0.8,"delta":0,"totalExamples":20,"bonus":0.3,"bonusSoFar":1.75},{"rt":null,"stimulus":"Sending examples to student... ","response":null,"trial_type":"html-keyboard-response","trial_index":69,"time_elapsed":960697,"internal_node_id":"0.0-62.0","params":{"nStudents":24,"maxFlips":30,"completionMinutes":45,"basePay":8,"maxBonus":9,"perTrialBonus":0.5,"perTrialBonusThreshold":0.05,"exampleCost":0.01},"classroomParams":{"A":{"a":1,"b":4},"B":{"a":4,"b":1},"C":{"a":2,"b":8},"D":{"a":8,"b":2}},"conditions":["nonSeqFull","nonSeqPartial","seqNoFeedback","seqFeedback"],"classroomPairings":[["A","B"],["C","D"]],"coinWeights":[0.2,0.5,0.8],"subjectId":"A38IZLCH8VYVFK","assignmentId":"3X4MXAO0BHASMB2VLZGIGJZ1YYVWR4","hitId":"32TZXEA1OL6QYKM0MXQIQH2ABHN14I","url":"https://gershmanlab.com/experiments/alicia/teaching/experiment/?hitId=32TZXEA1OL6QYKM0MXQIQH2ABHN14I&workerId=A38IZLCH8VYVFK&assignmentId=3X4MXAO0BHASMB2VLZGIGJZ1YYVWR4&a=0X4X9&tp_a=0X4X9&b=3X4MXAO0BHASMB2VLZGIGJZ1YYVWR4&tp_b=3X4MXAO0BHASMB2VLZGIGJZ1YYVWR4&c=365799&tp_c=365799"},{"rt":null,"stimulus":"Examples sent to student! Waiting for student...","response":null,"trial_type":"html-keyboard-response","trial_index":70,"time_elapsed":966703,"internal_node_id":"0.0-63.0","params":{"nStudents":24,"maxFlips":30,"completionMinutes":45,"basePay":8,"maxBonus":9,"perTrialBonus":0.5,"perTrialBonusThreshold":0.05,"exampleCost":0.01},"classroomParams":{"A":{"a":1,"b":4},"B":{"a":4,"b":1},"C":{"a":2,"b":8},"D":{"a":8,"b":2}},"conditions":["nonSeqFull","nonSeqPartial","seqNoFeedback","seqFeedback"],"classroomPairings":[["A","B"],["C","D"]],"coinWeights":[0.2,0.5,0.8],"subjectId":"A38IZLCH8VYVFK","assignmentId":"3X4MXAO0BHASMB2VLZGIGJZ1YYVWR4","hitId":"32TZXEA1OL6QYKM0MXQIQH2ABHN14I","url":"https://gershmanlab.com/experiments/alicia/teaching/experiment/?hitId=32TZXEA1OL6QYKM0MXQIQH2ABHN14I&workerId=A38IZLCH8VYVFK&assignmentId=3X4MXAO0BHASMB2VLZGIGJZ1YYVWR4&a=0X4X9&tp_a=0X4X9&b=3X4MXAO0BHASMB2VLZGIGJZ1YYVWR4&tp_b=3X4MXAO0BHASMB2VLZGIGJZ1YYVWR4&c=365799&tp_c=365799"},{"rt":3460,"stimulus":"\n                <p>Student's guess for coin weight: <b style=\"color:Tomato;\">0.80</b></p>\n                <p>You received a bonus of <b>$0.3</b>. Total bonus so far: <b>$1.75</b></b></p>\n                <p></p>\n                <p>Press any key to continue.</p>\n                ","response":" ","trial_type":"html-keyboard-response","trial_index":71,"time_elapsed":970163,"internal_node_id":"0.0-64.0","params":{"nStudents":24,"maxFlips":30,"completionMinutes":45,"basePay":8,"maxBonus":9,"perTrialBonus":0.5,"perTrialBonusThreshold":0.05,"exampleCost":0.01},"classroomParams":{"A":{"a":1,"b":4},"B":{"a":4,"b":1},"C":{"a":2,"b":8},"D":{"a":8,"b":2}},"conditions":["nonSeqFull","nonSeqPartial","seqNoFeedback","seqFeedback"],"classroomPairings":[["A","B"],["C","D"]],"coinWeights":[0.2,0.5,0.8],"subjectId":"A38IZLCH8VYVFK","assignmentId":"3X4MXAO0BHASMB2VLZGIGJZ1YYVWR4","hitId":"32TZXEA1OL6QYKM0MXQIQH2ABHN14I","url":"https://gershmanlab.com/experiments/alicia/teaching/experiment/?hitId=32TZXEA1OL6QYKM0MXQIQH2ABHN14I&workerId=A38IZLCH8VYVFK&assignmentId=3X4MXAO0BHASMB2VLZGIGJZ1YYVWR4&a=0X4X9&tp_a=0X4X9&b=3X4MXAO0BHASMB2VLZGIGJZ1YYVWR4&tp_b=3X4MXAO0BHASMB2VLZGIGJZ1YYVWR4&c=365799&tp_c=365799"},{"rt":null,"stimulus":"<div style=\"font-size:60px;\">Next student</div>","response":null,"trial_type":"html-keyboard-response","trial_index":72,"time_elapsed":972665,"internal_node_id":"0.0-65.0-0.0","params":{"nStudents":24,"maxFlips":30,"completionMinutes":45,"basePay":8,"maxBonus":9,"perTrialBonus":0.5,"perTrialBonusThreshold":0.05,"exampleCost":0.01},"classroomParams":{"A":{"a":1,"b":4},"B":{"a":4,"b":1},"C":{"a":2,"b":8},"D":{"a":8,"b":2}},"conditions":["nonSeqFull","nonSeqPartial","seqNoFeedback","seqFeedback"],"classroomPairings":[["A","B"],["C","D"]],"coinWeights":[0.2,0.5,0.8],"subjectId":"A38IZLCH8VYVFK","assignmentId":"3X4MXAO0BHASMB2VLZGIGJZ1YYVWR4","hitId":"32TZXEA1OL6QYKM0MXQIQH2ABHN14I","url":"https://gershmanlab.com/experiments/alicia/teaching/experiment/?hitId=32TZXEA1OL6QYKM0MXQIQH2ABHN14I&workerId=A38IZLCH8VYVFK&assignmentId=3X4MXAO0BHASMB2VLZGIGJZ1YYVWR4&a=0X4X9&tp_a=0X4X9&b=3X4MXAO0BHASMB2VLZGIGJZ1YYVWR4&tp_b=3X4MXAO0BHASMB2VLZGIGJZ1YYVWR4&c=365799&tp_c=365799"},{"rt":3533,"stimulus":"\n            <h4 style=\"color:Orange;\">Student 10</h4>\n            <h2>The weight of your coin is <b style=\"color:Tomato;\">0.5</b>.</h2>\n            <p>In this block, you will be giving <b>two</b> sets of examples to Student 10.</p>\n                <p>You will see the student's guess after the first set of examples. You will also receive feedback at the end of the block.</p>\n            <p>To earn the highest bonus, you will have to <b>take into consideration the student's guess</b> when you choose your second set of examples.</p>","response":0,"trial_type":"html-button-response","trial_index":73,"time_elapsed":976199,"internal_node_id":"0.0-66.0","params":{"nStudents":24,"maxFlips":30,"completionMinutes":45,"basePay":8,"maxBonus":9,"perTrialBonus":0.5,"perTrialBonusThreshold":0.05,"exampleCost":0.01},"classroomParams":{"A":{"a":1,"b":4},"B":{"a":4,"b":1},"C":{"a":2,"b":8},"D":{"a":8,"b":2}},"conditions":["nonSeqFull","nonSeqPartial","seqNoFeedback","seqFeedback"],"classroomPairings":[["A","B"],["C","D"]],"coinWeights":[0.2,0.5,0.8],"subjectId":"A38IZLCH8VYVFK","assignmentId":"3X4MXAO0BHASMB2VLZGIGJZ1YYVWR4","hitId":"32TZXEA1OL6QYKM0MXQIQH2ABHN14I","url":"https://gershmanlab.com/experiments/alicia/teaching/experiment/?hitId=32TZXEA1OL6QYKM0MXQIQH2ABHN14I&workerId=A38IZLCH8VYVFK&assignmentId=3X4MXAO0BHASMB2VLZGIGJZ1YYVWR4&a=0X4X9&tp_a=0X4X9&b=3X4MXAO0BHASMB2VLZGIGJZ1YYVWR4&tp_b=3X4MXAO0BHASMB2VLZGIGJZ1YYVWR4&c=365799&tp_c=365799"},{"rt":20760,"response":{"heads":"8","tails":"7"},"type":"response","condition":"seqFeedback","trueTheta":0.5,"classrooms":["A","B"],"studentTrueClassroom":"A","exampleSet":"first","trial_type":"survey-html-form","trial_index":74,"time_elapsed":996960,"internal_node_id":"0.0-67.0-0.0","params":{"nStudents":24,"maxFlips":30,"completionMinutes":45,"basePay":8,"maxBonus":9,"perTrialBonus":0.5,"perTrialBonusThreshold":0.05,"exampleCost":0.01},"classroomParams":{"A":{"a":1,"b":4},"B":{"a":4,"b":1},"C":{"a":2,"b":8},"D":{"a":8,"b":2}},"conditions":["nonSeqFull","nonSeqPartial","seqNoFeedback","seqFeedback"],"classroomPairings":[["A","B"],["C","D"]],"coinWeights":[0.2,0.5,0.8],"subjectId":"A38IZLCH8VYVFK","assignmentId":"3X4MXAO0BHASMB2VLZGIGJZ1YYVWR4","hitId":"32TZXEA1OL6QYKM0MXQIQH2ABHN14I","url":"https://gershmanlab.com/experiments/alicia/teaching/experiment/?hitId=32TZXEA1OL6QYKM0MXQIQH2ABHN14I&workerId=A38IZLCH8VYVFK&assignmentId=3X4MXAO0BHASMB2VLZGIGJZ1YYVWR4&a=0X4X9&tp_a=0X4X9&b=3X4MXAO0BHASMB2VLZGIGJZ1YYVWR4&tp_b=3X4MXAO0BHASMB2VLZGIGJZ1YYVWR4&c=365799&tp_c=365799","heads":8,"tails":7,"studentIndex":9,"studentTrueHypers":{"a":1,"b":4},"studentGuess":0.45,"delta":0.04999999999999999,"totalExamples":15,"bonusSoFar":1.75},{"rt":null,"stimulus":"Sending examples to student... ","response":null,"trial_type":"html-keyboard-response","trial_index":75,"time_elapsed":998964,"internal_node_id":"0.0-68.0","params":{"nStudents":24,"maxFlips":30,"completionMinutes":45,"basePay":8,"maxBonus":9,"perTrialBonus":0.5,"perTrialBonusThreshold":0.05,"exampleCost":0.01},"classroomParams":{"A":{"a":1,"b":4},"B":{"a":4,"b":1},"C":{"a":2,"b":8},"D":{"a":8,"b":2}},"conditions":["nonSeqFull","nonSeqPartial","seqNoFeedback","seqFeedback"],"classroomPairings":[["A","B"],["C","D"]],"coinWeights":[0.2,0.5,0.8],"subjectId":"A38IZLCH8VYVFK","assignmentId":"3X4MXAO0BHASMB2VLZGIGJZ1YYVWR4","hitId":"32TZXEA1OL6QYKM0MXQIQH2ABHN14I","url":"https://gershmanlab.com/experiments/alicia/teaching/experiment/?hitId=32TZXEA1OL6QYKM0MXQIQH2ABHN14I&workerId=A38IZLCH8VYVFK&assignmentId=3X4MXAO0BHASMB2VLZGIGJZ1YYVWR4&a=0X4X9&tp_a=0X4X9&b=3X4MXAO0BHASMB2VLZGIGJZ1YYVWR4&tp_b=3X4MXAO0BHASMB2VLZGIGJZ1YYVWR4&c=365799&tp_c=365799"},{"rt":null,"stimulus":"Examples sent to student! Waiting for student...","response":null,"trial_type":"html-keyboard-response","trial_index":76,"time_elapsed":1003967,"internal_node_id":"0.0-69.0","params":{"nStudents":24,"maxFlips":30,"completionMinutes":45,"basePay":8,"maxBonus":9,"perTrialBonus":0.5,"perTrialBonusThreshold":0.05,"exampleCost":0.01},"classroomParams":{"A":{"a":1,"b":4},"B":{"a":4,"b":1},"C":{"a":2,"b":8},"D":{"a":8,"b":2}},"conditions":["nonSeqFull","nonSeqPartial","seqNoFeedback","seqFeedback"],"classroomPairings":[["A","B"],["C","D"]],"coinWeights":[0.2,0.5,0.8],"subjectId":"A38IZLCH8VYVFK","assignmentId":"3X4MXAO0BHASMB2VLZGIGJZ1YYVWR4","hitId":"32TZXEA1OL6QYKM0MXQIQH2ABHN14I","url":"https://gershmanlab.com/experiments/alicia/teaching/experiment/?hitId=32TZXEA1OL6QYKM0MXQIQH2ABHN14I&workerId=A38IZLCH8VYVFK&assignmentId=3X4MXAO0BHASMB2VLZGIGJZ1YYVWR4&a=0X4X9&tp_a=0X4X9&b=3X4MXAO0BHASMB2VLZGIGJZ1YYVWR4&tp_b=3X4MXAO0BHASMB2VLZGIGJZ1YYVWR4&c=365799&tp_c=365799"},{"rt":5636,"stimulus":"\n                <p>Student's guess for coin weight: <b style=\"color:Tomato;\">0.45</b></p>\n                <p></b></p>\n                <p>You will now send another set of examples to your student. <b>Remember to take your student's guess into consideration so that you can earn the highest bonus possible!</b> </p>\n                <p>Press any key to continue.</p>\n                ","response":" ","trial_type":"html-keyboard-response","trial_index":77,"time_elapsed":1009608,"internal_node_id":"0.0-70.0","params":{"nStudents":24,"maxFlips":30,"completionMinutes":45,"basePay":8,"maxBonus":9,"perTrialBonus":0.5,"perTrialBonusThreshold":0.05,"exampleCost":0.01},"classroomParams":{"A":{"a":1,"b":4},"B":{"a":4,"b":1},"C":{"a":2,"b":8},"D":{"a":8,"b":2}},"conditions":["nonSeqFull","nonSeqPartial","seqNoFeedback","seqFeedback"],"classroomPairings":[["A","B"],["C","D"]],"coinWeights":[0.2,0.5,0.8],"subjectId":"A38IZLCH8VYVFK","assignmentId":"3X4MXAO0BHASMB2VLZGIGJZ1YYVWR4","hitId":"32TZXEA1OL6QYKM0MXQIQH2ABHN14I","url":"https://gershmanlab.com/experiments/alicia/teaching/experiment/?hitId=32TZXEA1OL6QYKM0MXQIQH2ABHN14I&workerId=A38IZLCH8VYVFK&assignmentId=3X4MXAO0BHASMB2VLZGIGJZ1YYVWR4&a=0X4X9&tp_a=0X4X9&b=3X4MXAO0BHASMB2VLZGIGJZ1YYVWR4&tp_b=3X4MXAO0BHASMB2VLZGIGJZ1YYVWR4&c=365799&tp_c=365799"},{"rt":6280,"response":{"heads":"8","tails":"7"},"type":"response","condition":"seqFeedback","trueTheta":0.5,"classrooms":["A","B"],"studentTrueClassroom":"A","exampleSet":"second","trial_type":"survey-html-form","trial_index":78,"time_elapsed":1015893,"internal_node_id":"0.0-71.0-0.0","params":{"nStudents":24,"maxFlips":30,"completionMinutes":45,"basePay":8,"maxBonus":9,"perTrialBonus":0.5,"perTrialBonusThreshold":0.05,"exampleCost":0.01},"classroomParams":{"A":{"a":1,"b":4},"B":{"a":4,"b":1},"C":{"a":2,"b":8},"D":{"a":8,"b":2}},"conditions":["nonSeqFull","nonSeqPartial","seqNoFeedback","seqFeedback"],"classroomPairings":[["A","B"],["C","D"]],"coinWeights":[0.2,0.5,0.8],"subjectId":"A38IZLCH8VYVFK","assignmentId":"3X4MXAO0BHASMB2VLZGIGJZ1YYVWR4","hitId":"32TZXEA1OL6QYKM0MXQIQH2ABHN14I","url":"https://gershmanlab.com/experiments/alicia/teaching/experiment/?hitId=32TZXEA1OL6QYKM0MXQIQH2ABHN14I&workerId=A38IZLCH8VYVFK&assignmentId=3X4MXAO0BHASMB2VLZGIGJZ1YYVWR4&a=0X4X9&tp_a=0X4X9&b=3X4MXAO0BHASMB2VLZGIGJZ1YYVWR4&tp_b=3X4MXAO0BHASMB2VLZGIGJZ1YYVWR4&c=365799&tp_c=365799","firstResponseHeads":8,"firstResponseTails":7,"secondResponseHeads":8,"secondResponseTails":7,"totalHeads":16,"totalTails":14,"studentIndex":9,"studentTrueHypers":{"a":1,"b":4},"studentGuess":0.4857142857142857,"delta":0.01428571428571429,"bonus":0.2,"bonusSoFar":1.95,"totalExamples":30},{"rt":null,"stimulus":"Sending examples to student... ","response":null,"trial_type":"html-keyboard-response","trial_index":79,"time_elapsed":1017396,"internal_node_id":"0.0-72.0","params":{"nStudents":24,"maxFlips":30,"completionMinutes":45,"basePay":8,"maxBonus":9,"perTrialBonus":0.5,"perTrialBonusThreshold":0.05,"exampleCost":0.01},"classroomParams":{"A":{"a":1,"b":4},"B":{"a":4,"b":1},"C":{"a":2,"b":8},"D":{"a":8,"b":2}},"conditions":["nonSeqFull","nonSeqPartial","seqNoFeedback","seqFeedback"],"classroomPairings":[["A","B"],["C","D"]],"coinWeights":[0.2,0.5,0.8],"subjectId":"A38IZLCH8VYVFK","assignmentId":"3X4MXAO0BHASMB2VLZGIGJZ1YYVWR4","hitId":"32TZXEA1OL6QYKM0MXQIQH2ABHN14I","url":"https://gershmanlab.com/experiments/alicia/teaching/experiment/?hitId=32TZXEA1OL6QYKM0MXQIQH2ABHN14I&workerId=A38IZLCH8VYVFK&assignmentId=3X4MXAO0BHASMB2VLZGIGJZ1YYVWR4&a=0X4X9&tp_a=0X4X9&b=3X4MXAO0BHASMB2VLZGIGJZ1YYVWR4&tp_b=3X4MXAO0BHASMB2VLZGIGJZ1YYVWR4&c=365799&tp_c=365799"},{"rt":null,"stimulus":"Examples sent to student! Waiting for student...","response":null,"trial_type":"html-keyboard-response","trial_index":80,"time_elapsed":1022901,"internal_node_id":"0.0-73.0","params":{"nStudents":24,"maxFlips":30,"completionMinutes":45,"basePay":8,"maxBonus":9,"perTrialBonus":0.5,"perTrialBonusThreshold":0.05,"exampleCost":0.01},"classroomParams":{"A":{"a":1,"b":4},"B":{"a":4,"b":1},"C":{"a":2,"b":8},"D":{"a":8,"b":2}},"conditions":["nonSeqFull","nonSeqPartial","seqNoFeedback","seqFeedback"],"classroomPairings":[["A","B"],["C","D"]],"coinWeights":[0.2,0.5,0.8],"subjectId":"A38IZLCH8VYVFK","assignmentId":"3X4MXAO0BHASMB2VLZGIGJZ1YYVWR4","hitId":"32TZXEA1OL6QYKM0MXQIQH2ABHN14I","url":"https://gershmanlab.com/experiments/alicia/teaching/experiment/?hitId=32TZXEA1OL6QYKM0MXQIQH2ABHN14I&workerId=A38IZLCH8VYVFK&assignmentId=3X4MXAO0BHASMB2VLZGIGJZ1YYVWR4&a=0X4X9&tp_a=0X4X9&b=3X4MXAO0BHASMB2VLZGIGJZ1YYVWR4&tp_b=3X4MXAO0BHASMB2VLZGIGJZ1YYVWR4&c=365799&tp_c=365799"},{"rt":3339,"stimulus":"\n                <p>Student 10's first guess for coin weight: <b style=\"color:Tomato\";>0.45</b></p>\n                <p>Student 10's second guess for coin weight: <b style=\"color:Tomato\";>0.49</b></p>\n                <p>You received a bonus of <b>$0.20</b> based on the student's second guess.</p>\n                <p>Total bonus so far: <b>$1.95</b></p>\n                <p>Press any key to continue.</p>\n                ","response":" ","trial_type":"html-keyboard-response","trial_index":81,"time_elapsed":1026242,"internal_node_id":"0.0-74.0","params":{"nStudents":24,"maxFlips":30,"completionMinutes":45,"basePay":8,"maxBonus":9,"perTrialBonus":0.5,"perTrialBonusThreshold":0.05,"exampleCost":0.01},"classroomParams":{"A":{"a":1,"b":4},"B":{"a":4,"b":1},"C":{"a":2,"b":8},"D":{"a":8,"b":2}},"conditions":["nonSeqFull","nonSeqPartial","seqNoFeedback","seqFeedback"],"classroomPairings":[["A","B"],["C","D"]],"coinWeights":[0.2,0.5,0.8],"subjectId":"A38IZLCH8VYVFK","assignmentId":"3X4MXAO0BHASMB2VLZGIGJZ1YYVWR4","hitId":"32TZXEA1OL6QYKM0MXQIQH2ABHN14I","url":"https://gershmanlab.com/experiments/alicia/teaching/experiment/?hitId=32TZXEA1OL6QYKM0MXQIQH2ABHN14I&workerId=A38IZLCH8VYVFK&assignmentId=3X4MXAO0BHASMB2VLZGIGJZ1YYVWR4&a=0X4X9&tp_a=0X4X9&b=3X4MXAO0BHASMB2VLZGIGJZ1YYVWR4&tp_b=3X4MXAO0BHASMB2VLZGIGJZ1YYVWR4&c=365799&tp_c=365799"},{"rt":null,"stimulus":"<div style=\"font-size:60px;\">Next student</div>","response":null,"trial_type":"html-keyboard-response","trial_index":82,"time_elapsed":1028247,"internal_node_id":"0.0-75.0-0.0","params":{"nStudents":24,"maxFlips":30,"completionMinutes":45,"basePay":8,"maxBonus":9,"perTrialBonus":0.5,"perTrialBonusThreshold":0.05,"exampleCost":0.01},"classroomParams":{"A":{"a":1,"b":4},"B":{"a":4,"b":1},"C":{"a":2,"b":8},"D":{"a":8,"b":2}},"conditions":["nonSeqFull","nonSeqPartial","seqNoFeedback","seqFeedback"],"classroomPairings":[["A","B"],["C","D"]],"coinWeights":[0.2,0.5,0.8],"subjectId":"A38IZLCH8VYVFK","assignmentId":"3X4MXAO0BHASMB2VLZGIGJZ1YYVWR4","hitId":"32TZXEA1OL6QYKM0MXQIQH2ABHN14I","url":"https://gershmanlab.com/experiments/alicia/teaching/experiment/?hitId=32TZXEA1OL6QYKM0MXQIQH2ABHN14I&workerId=A38IZLCH8VYVFK&assignmentId=3X4MXAO0BHASMB2VLZGIGJZ1YYVWR4&a=0X4X9&tp_a=0X4X9&b=3X4MXAO0BHASMB2VLZGIGJZ1YYVWR4&tp_b=3X4MXAO0BHASMB2VLZGIGJZ1YYVWR4&c=365799&tp_c=365799"},{"rt":14565,"stimulus":"\n            <h4 style=\"color:Orange;\">Student 11</h4>\n            <h2>The weight of your coin is <b style=\"color:Tomato;\">0.2</b>.</h2>\n            <p>In this block, you will be giving <b>two</b> sets of examples to Student 11.</p>\n                <p>You will receive feedback at the end of the block.</p>\n            <p></p>","response":0,"trial_type":"html-button-response","trial_index":83,"time_elapsed":1042815,"internal_node_id":"0.0-76.0","params":{"nStudents":24,"maxFlips":30,"completionMinutes":45,"basePay":8,"maxBonus":9,"perTrialBonus":0.5,"perTrialBonusThreshold":0.05,"exampleCost":0.01},"classroomParams":{"A":{"a":1,"b":4},"B":{"a":4,"b":1},"C":{"a":2,"b":8},"D":{"a":8,"b":2}},"conditions":["nonSeqFull","nonSeqPartial","seqNoFeedback","seqFeedback"],"classroomPairings":[["A","B"],["C","D"]],"coinWeights":[0.2,0.5,0.8],"subjectId":"A38IZLCH8VYVFK","assignmentId":"3X4MXAO0BHASMB2VLZGIGJZ1YYVWR4","hitId":"32TZXEA1OL6QYKM0MXQIQH2ABHN14I","url":"https://gershmanlab.com/experiments/alicia/teaching/experiment/?hitId=32TZXEA1OL6QYKM0MXQIQH2ABHN14I&workerId=A38IZLCH8VYVFK&assignmentId=3X4MXAO0BHASMB2VLZGIGJZ1YYVWR4&a=0X4X9&tp_a=0X4X9&b=3X4MXAO0BHASMB2VLZGIGJZ1YYVWR4&tp_b=3X4MXAO0BHASMB2VLZGIGJZ1YYVWR4&c=365799&tp_c=365799"},{"rt":24595,"response":{"heads":"2","tails":"8"},"type":"response","condition":"seqNoFeedback","trueTheta":0.2,"classrooms":["C","D"],"studentTrueClassroom":"D","exampleSet":"first","trial_type":"survey-html-form","trial_index":84,"time_elapsed":1067412,"internal_node_id":"0.0-77.0-0.0","params":{"nStudents":24,"maxFlips":30,"completionMinutes":45,"basePay":8,"maxBonus":9,"perTrialBonus":0.5,"perTrialBonusThreshold":0.05,"exampleCost":0.01},"classroomParams":{"A":{"a":1,"b":4},"B":{"a":4,"b":1},"C":{"a":2,"b":8},"D":{"a":8,"b":2}},"conditions":["nonSeqFull","nonSeqPartial","seqNoFeedback","seqFeedback"],"classroomPairings":[["A","B"],["C","D"]],"coinWeights":[0.2,0.5,0.8],"subjectId":"A38IZLCH8VYVFK","assignmentId":"3X4MXAO0BHASMB2VLZGIGJZ1YYVWR4","hitId":"32TZXEA1OL6QYKM0MXQIQH2ABHN14I","url":"https://gershmanlab.com/experiments/alicia/teaching/experiment/?hitId=32TZXEA1OL6QYKM0MXQIQH2ABHN14I&workerId=A38IZLCH8VYVFK&assignmentId=3X4MXAO0BHASMB2VLZGIGJZ1YYVWR4&a=0X4X9&tp_a=0X4X9&b=3X4MXAO0BHASMB2VLZGIGJZ1YYVWR4&tp_b=3X4MXAO0BHASMB2VLZGIGJZ1YYVWR4&c=365799&tp_c=365799","heads":2,"tails":8,"studentIndex":10,"studentTrueHypers":{"a":8,"b":2},"studentGuess":0.5,"delta":0.3,"totalExamples":10,"bonusSoFar":1.95},{"rt":null,"stimulus":"Sending examples to student... ","response":null,"trial_type":"html-keyboard-response","trial_index":85,"time_elapsed":1068916,"internal_node_id":"0.0-78.0","params":{"