[{"rt":2945,"stimulus":"Welcome to the experiment. Press any key to begin.","response":" ","trial_type":"html-keyboard-response","trial_index":0,"time_elapsed":2956,"internal_node_id":"0.0-0.0","params":{"nStudents":24,"maxFlips":30,"completionMinutes":45,"basePay":8,"maxBonus":9,"perTrialBonus":0.5,"perTrialBonusThreshold":0.05,"exampleCost":0.01},"classroomParams":{"A":{"a":1,"b":4},"B":{"a":4,"b":1},"C":{"a":2,"b":8},"D":{"a":8,"b":2}},"conditions":["nonSeqFull","nonSeqPartial","seqNoFeedback","seqFeedback"],"classroomPairings":[["A","B"],["C","D"]],"coinWeights":[0.2,0.5,0.8],"subjectId":"A39SK1E6IMQBD5","assignmentId":"3R3YRB5GRGPNVQR9OOFV35PUDDKUAH","hitId":"3UDTAB6HH6LRO17U79I9TKUGSHV90J","url":"https://gershmanlab.com/experiments/alicia/teaching/experiment/?hitId=3UDTAB6HH6LRO17U79I9TKUGSHV90J&workerId=A39SK1E6IMQBD5&assignmentId=3R3YRB5GRGPNVQR9OOFV35PUDDKUAH&a=GR3R9&tp_a=GR3R9&b=3R3YRB5GRGPNVQR9OOFV35PUDDKUAH&tp_b=3R3YRB5GRGPNVQR9OOFV35PUDDKUAH&c=365799&tp_c=365799"},{"rt":10916,"stimulus":"\n        <h3>Please read this consent agreement carefully before deciding whether to participate in this experiment.</h3>\n        <p><b>Purpose of the research:</b> To examine how people teach effectively.</p>\n        <p><b>What you will do in this research:</b> You will teach students the weights of different coins.</p>\n        <p><b>Time required:</b> This experiment will take 45 minutes to complete.</p>\n        <p><b>Risks:</b> There are no anticipated risks associated with participating in this study.             The effects of participating should be comparable to those you would experience from viewing a computer monitor             and using a mouse and keyboard for the duration of the experiment.</p>\n        <p><b>Benefits:</b> The study provides important information about the nature of teaching.</p>\n        <p><b>Compensation:</b> You will receive <b>$8</b> for completing the experiment and a performance bonus of up to <b>$9</b>.</p>\n        <p><b>Confidentiality:</b> Your participation in this study will remain confidential.             No personally identifiable information will be associated with your data.             Your de-identified data may be shared with other researchers and used in future projects.</p>\n        <p><b>Participation and withdrawal:</b> Your participation in this study is completely voluntary and             you may refuse to participate or you may choose to withdraw at any time without penalty or loss of\n            benefits to which you are otherwise entitled.</p>\n        <p><b>How to contact the researcher:</b> If you have questions or concerns about your participation            or payment, or want to request a summary of research findings, please contact\n            Alicia Chen, aliciachen@college.harvard.edu.</p>\n        <p><b>Whom to contact about your rights in this research:</b> For questions, concerns, suggestions,             or complaints that have not been or cannot be addressed by the researcher, or to report             research-related harm, please contact the Committee on the Use of Human Subjects in Research at Harvard University,             1414 Massachusetts Avenue, Second Floor, Cambridge, MA 02138. Phone: 617-496-2847. Email: cuhs@fas.harvard.edu.</p>\n        ","response":0,"trial_type":"html-button-response","trial_index":1,"time_elapsed":13877,"internal_node_id":"0.0-1.0","params":{"nStudents":24,"maxFlips":30,"completionMinutes":45,"basePay":8,"maxBonus":9,"perTrialBonus":0.5,"perTrialBonusThreshold":0.05,"exampleCost":0.01},"classroomParams":{"A":{"a":1,"b":4},"B":{"a":4,"b":1},"C":{"a":2,"b":8},"D":{"a":8,"b":2}},"conditions":["nonSeqFull","nonSeqPartial","seqNoFeedback","seqFeedback"],"classroomPairings":[["A","B"],["C","D"]],"coinWeights":[0.2,0.5,0.8],"subjectId":"A39SK1E6IMQBD5","assignmentId":"3R3YRB5GRGPNVQR9OOFV35PUDDKUAH","hitId":"3UDTAB6HH6LRO17U79I9TKUGSHV90J","url":"https://gershmanlab.com/experiments/alicia/teaching/experiment/?hitId=3UDTAB6HH6LRO17U79I9TKUGSHV90J&workerId=A39SK1E6IMQBD5&assignmentId=3R3YRB5GRGPNVQR9OOFV35PUDDKUAH&a=GR3R9&tp_a=GR3R9&b=3R3YRB5GRGPNVQR9OOFV35PUDDKUAH&tp_b=3R3YRB5GRGPNVQR9OOFV35PUDDKUAH&c=365799&tp_c=365799"},{"view_history":[{"page_index":0,"viewing_time":7948},{"page_index":1,"viewing_time":3590},{"page_index":2,"viewing_time":38943},{"page_index":3,"viewing_time":24328},{"page_index":4,"viewing_time":9789},{"page_index":5,"viewing_time":28543},{"page_index":6,"viewing_time":50444}],"rt":163589,"trial_type":"instructions","trial_index":2,"time_elapsed":177468,"internal_node_id":"0.0-2.0-0.0","params":{"nStudents":24,"maxFlips":30,"completionMinutes":45,"basePay":8,"maxBonus":9,"perTrialBonus":0.5,"perTrialBonusThreshold":0.05,"exampleCost":0.01},"classroomParams":{"A":{"a":1,"b":4},"B":{"a":4,"b":1},"C":{"a":2,"b":8},"D":{"a":8,"b":2}},"conditions":["nonSeqFull","nonSeqPartial","seqNoFeedback","seqFeedback"],"classroomPairings":[["A","B"],["C","D"]],"coinWeights":[0.2,0.5,0.8],"subjectId":"A39SK1E6IMQBD5","assignmentId":"3R3YRB5GRGPNVQR9OOFV35PUDDKUAH","hitId":"3UDTAB6HH6LRO17U79I9TKUGSHV90J","url":"https://gershmanlab.com/experiments/alicia/teaching/experiment/?hitId=3UDTAB6HH6LRO17U79I9TKUGSHV90J&workerId=A39SK1E6IMQBD5&assignmentId=3R3YRB5GRGPNVQR9OOFV35PUDDKUAH&a=GR3R9&tp_a=GR3R9&b=3R3YRB5GRGPNVQR9OOFV35PUDDKUAH&tp_b=3R3YRB5GRGPNVQR9OOFV35PUDDKUAH&c=365799&tp_c=365799"},{"rt":63580,"response":{"Q0":"Students in different classrooms have seen a different proportion of fair and unfair coins before seeing the examples you select for them.","Q1":"By <b>considering the student's classroom information</b> so that I can teach efficiently and accurately/helpfully at the same time (because each example I give to the student costs money!).","Q2":"The coin lands heads 90% of the time.","Q3":"Yes, I might encounter the same student twice.","Q4":"The students are also on the same alien planet as you, where coins can be unfair.","Q5":"Based on both guesses."},"question_order":[2,3,4,5,0,1],"trial_type":"survey-multi-choice","trial_index":3,"time_elapsed":241052,"internal_node_id":"0.0-2.0-1.0","params":{"nStudents":24,"maxFlips":30,"completionMinutes":45,"basePay":8,"maxBonus":9,"perTrialBonus":0.5,"perTrialBonusThreshold":0.05,"exampleCost":0.01},"classroomParams":{"A":{"a":1,"b":4},"B":{"a":4,"b":1},"C":{"a":2,"b":8},"D":{"a":8,"b":2}},"conditions":["nonSeqFull","nonSeqPartial","seqNoFeedback","seqFeedback"],"classroomPairings":[["A","B"],["C","D"]],"coinWeights":[0.2,0.5,0.8],"subjectId":"A39SK1E6IMQBD5","assignmentId":"3R3YRB5GRGPNVQR9OOFV35PUDDKUAH","hitId":"3UDTAB6HH6LRO17U79I9TKUGSHV90J","url":"https://gershmanlab.com/experiments/alicia/teaching/experiment/?hitId=3UDTAB6HH6LRO17U79I9TKUGSHV90J&workerId=A39SK1E6IMQBD5&assignmentId=3R3YRB5GRGPNVQR9OOFV35PUDDKUAH&a=GR3R9&tp_a=GR3R9&b=3R3YRB5GRGPNVQR9OOFV35PUDDKUAH&tp_b=3R3YRB5GRGPNVQR9OOFV35PUDDKUAH&c=365799&tp_c=365799","pass":false},{"rt":4018,"stimulus":"Oops, you have missed question(s) on the comprehension check! We'll show you the instructions again.","response":0,"trial_type":"html-button-response","trial_index":4,"time_elapsed":245074,"internal_node_id":"0.0-2.0-2.0-0.0","params":{"nStudents":24,"maxFlips":30,"completionMinutes":45,"basePay":8,"maxBonus":9,"perTrialBonus":0.5,"perTrialBonusThreshold":0.05,"exampleCost":0.01},"classroomParams":{"A":{"a":1,"b":4},"B":{"a":4,"b":1},"C":{"a":2,"b":8},"D":{"a":8,"b":2}},"conditions":["nonSeqFull","nonSeqPartial","seqNoFeedback","seqFeedback"],"classroomPairings":[["A","B"],["C","D"]],"coinWeights":[0.2,0.5,0.8],"subjectId":"A39SK1E6IMQBD5","assignmentId":"3R3YRB5GRGPNVQR9OOFV35PUDDKUAH","hitId":"3UDTAB6HH6LRO17U79I9TKUGSHV90J","url":"https://gershmanlab.com/experiments/alicia/teaching/experiment/?hitId=3UDTAB6HH6LRO17U79I9TKUGSHV90J&workerId=A39SK1E6IMQBD5&assignmentId=3R3YRB5GRGPNVQR9OOFV35PUDDKUAH&a=GR3R9&tp_a=GR3R9&b=3R3YRB5GRGPNVQR9OOFV35PUDDKUAH&tp_b=3R3YRB5GRGPNVQR9OOFV35PUDDKUAH&c=365799&tp_c=365799"},{"view_history":[{"page_index":0,"viewing_time":4318},{"page_index":1,"viewing_time":2749},{"page_index":2,"viewing_time":41547},{"page_index":3,"viewing_time":18630},{"page_index":4,"viewing_time":16541},{"page_index":5,"viewing_time":36795},{"page_index":6,"viewing_time":42354}],"rt":162935,"trial_type":"instructions","trial_index":5,"time_elapsed":408011,"internal_node_id":"0.0-2.1-0.1","params":{"nStudents":24,"maxFlips":30,"completionMinutes":45,"basePay":8,"maxBonus":9,"perTrialBonus":0.5,"perTrialBonusThreshold":0.05,"exampleCost":0.01},"classroomParams":{"A":{"a":1,"b":4},"B":{"a":4,"b":1},"C":{"a":2,"b":8},"D":{"a":8,"b":2}},"conditions":["nonSeqFull","nonSeqPartial","seqNoFeedback","seqFeedback"],"classroomPairings":[["A","B"],["C","D"]],"coinWeights":[0.2,0.5,0.8],"subjectId":"A39SK1E6IMQBD5","assignmentId":"3R3YRB5GRGPNVQR9OOFV35PUDDKUAH","hitId":"3UDTAB6HH6LRO17U79I9TKUGSHV90J","url":"https://gershmanlab.com/experiments/alicia/teaching/experiment/?hitId=3UDTAB6HH6LRO17U79I9TKUGSHV90J&workerId=A39SK1E6IMQBD5&assignmentId=3R3YRB5GRGPNVQR9OOFV35PUDDKUAH&a=GR3R9&tp_a=GR3R9&b=3R3YRB5GRGPNVQR9OOFV35PUDDKUAH&tp_b=3R3YRB5GRGPNVQR9OOFV35PUDDKUAH&c=365799&tp_c=365799"},{"rt":66630,"response":{"Q0":"Students in different classrooms have seen a different proportion of fair and unfair coins before seeing the examples you select for them.","Q1":"By <b>considering the student's classroom information</b> so that I can teach efficiently and accurately/helpfully at the same time (because each example I give to the student costs money!).","Q2":"The coin lands heads 90% of the time.","Q3":"No, I will teach a <b>new</b> student each time.","Q4":"The students are also on the same alien planet as you, where coins can be unfair.","Q5":"Based on the student's first guess."},"question_order":[0,2,1,4,5,3],"trial_type":"survey-multi-choice","trial_index":6,"time_elapsed":474643,"internal_node_id":"0.0-2.1-1.1","params":{"nStudents":24,"maxFlips":30,"completionMinutes":45,"basePay":8,"maxBonus":9,"perTrialBonus":0.5,"perTrialBonusThreshold":0.05,"exampleCost":0.01},"classroomParams":{"A":{"a":1,"b":4},"B":{"a":4,"b":1},"C":{"a":2,"b":8},"D":{"a":8,"b":2}},"conditions":["nonSeqFull","nonSeqPartial","seqNoFeedback","seqFeedback"],"classroomPairings":[["A","B"],["C","D"]],"coinWeights":[0.2,0.5,0.8],"subjectId":"A39SK1E6IMQBD5","assignmentId":"3R3YRB5GRGPNVQR9OOFV35PUDDKUAH","hitId":"3UDTAB6HH6LRO17U79I9TKUGSHV90J","url":"https://gershmanlab.com/experiments/alicia/teaching/experiment/?hitId=3UDTAB6HH6LRO17U79I9TKUGSHV90J&workerId=A39SK1E6IMQBD5&assignmentId=3R3YRB5GRGPNVQR9OOFV35PUDDKUAH&a=GR3R9&tp_a=GR3R9&b=3R3YRB5GRGPNVQR9OOFV35PUDDKUAH&tp_b=3R3YRB5GRGPNVQR9OOFV35PUDDKUAH&c=365799&tp_c=365799","pass":false},{"rt":2155,"stimulus":"Oops, you have missed question(s) on the comprehension check! We'll show you the instructions again.","response":0,"trial_type":"html-button-response","trial_index":7,"time_elapsed":476803,"internal_node_id":"0.0-2.1-2.1-0.1","params":{"nStudents":24,"maxFlips":30,"completionMinutes":45,"basePay":8,"maxBonus":9,"perTrialBonus":0.5,"perTrialBonusThreshold":0.05,"exampleCost":0.01},"classroomParams":{"A":{"a":1,"b":4},"B":{"a":4,"b":1},"C":{"a":2,"b":8},"D":{"a":8,"b":2}},"conditions":["nonSeqFull","nonSeqPartial","seqNoFeedback","seqFeedback"],"classroomPairings":[["A","B"],["C","D"]],"coinWeights":[0.2,0.5,0.8],"subjectId":"A39SK1E6IMQBD5","assignmentId":"3R3YRB5GRGPNVQR9OOFV35PUDDKUAH","hitId":"3UDTAB6HH6LRO17U79I9TKUGSHV90J","url":"https://gershmanlab.com/experiments/alicia/teaching/experiment/?hitId=3UDTAB6HH6LRO17U79I9TKUGSHV90J&workerId=A39SK1E6IMQBD5&assignmentId=3R3YRB5GRGPNVQR9OOFV35PUDDKUAH&a=GR3R9&tp_a=GR3R9&b=3R3YRB5GRGPNVQR9OOFV35PUDDKUAH&tp_b=3R3YRB5GRGPNVQR9OOFV35PUDDKUAH&c=365799&tp_c=365799"},{"view_history":[{"page_index":0,"viewing_time":893},{"page_index":1,"viewing_time":372},{"page_index":2,"viewing_time":982},{"page_index":3,"viewing_time":346},{"page_index":4,"viewing_time":817},{"page_index":5,"viewing_time":1634},{"page_index":6,"viewing_time":2242},{"page_index":5,"viewing_time":2902},{"page_index":6,"viewing_time":2781}],"rt":12969,"trial_type":"instructions","trial_index":8,"time_elapsed":489773,"internal_node_id":"0.0-2.2-0.2","params":{"nStudents":24,"maxFlips":30,"completionMinutes":45,"basePay":8,"maxBonus":9,"perTrialBonus":0.5,"perTrialBonusThreshold":0.05,"exampleCost":0.01},"classroomParams":{"A":{"a":1,"b":4},"B":{"a":4,"b":1},"C":{"a":2,"b":8},"D":{"a":8,"b":2}},"conditions":["nonSeqFull","nonSeqPartial","seqNoFeedback","seqFeedback"],"classroomPairings":[["A","B"],["C","D"]],"coinWeights":[0.2,0.5,0.8],"subjectId":"A39SK1E6IMQBD5","assignmentId":"3R3YRB5GRGPNVQR9OOFV35PUDDKUAH","hitId":"3UDTAB6HH6LRO17U79I9TKUGSHV90J","url":"https://gershmanlab.com/experiments/alicia/teaching/experiment/?hitId=3UDTAB6HH6LRO17U79I9TKUGSHV90J&workerId=A39SK1E6IMQBD5&assignmentId=3R3YRB5GRGPNVQR9OOFV35PUDDKUAH&a=GR3R9&tp_a=GR3R9&b=3R3YRB5GRGPNVQR9OOFV35PUDDKUAH&tp_b=3R3YRB5GRGPNVQR9OOFV35PUDDKUAH&c=365799&tp_c=365799"},{"rt":128210,"response":{"Q0":"Students in different classrooms have seen a different proportion of fair and unfair coins before seeing the examples you select for them.","Q1":"By <b>considering the student's classroom information</b> so that I can teach efficiently and accurately/helpfully at the same time (because each example I give to the student costs money!).","Q2":"The coin lands heads 90% of the time.","Q3":"Yes, I might encounter the same student twice.","Q4":"The students are also on the same alien planet as you, where coins can be unfair.","Q5":"Based on both guesses."},"question_order":[3,1,2,5,0,4],"trial_type":"survey-multi-choice","trial_index":9,"time_elapsed":617986,"internal_node_id":"0.0-2.2-1.2","params":{"nStudents":24,"maxFlips":30,"completionMinutes":45,"basePay":8,"maxBonus":9,"perTrialBonus":0.5,"perTrialBonusThreshold":0.05,"exampleCost":0.01},"classroomParams":{"A":{"a":1,"b":4},"B":{"a":4,"b":1},"C":{"a":2,"b":8},"D":{"a":8,"b":2}},"conditions":["nonSeqFull","nonSeqPartial","seqNoFeedback","seqFeedback"],"classroomPairings":[["A","B"],["C","D"]],"coinWeights":[0.2,0.5,0.8],"subjectId":"A39SK1E6IMQBD5","assignmentId":"3R3YRB5GRGPNVQR9OOFV35PUDDKUAH","hitId":"3UDTAB6HH6LRO17U79I9TKUGSHV90J","url":"https://gershmanlab.com/experiments/alicia/teaching/experiment/?hitId=3UDTAB6HH6LRO17U79I9TKUGSHV90J&workerId=A39SK1E6IMQBD5&assignmentId=3R3YRB5GRGPNVQR9OOFV35PUDDKUAH&a=GR3R9&tp_a=GR3R9&b=3R3YRB5GRGPNVQR9OOFV35PUDDKUAH&tp_b=3R3YRB5GRGPNVQR9OOFV35PUDDKUAH&c=365799&tp_c=365799","pass":false},{"rt":1678,"stimulus":"Oops, you have missed question(s) on the comprehension check! We'll show you the instructions again.","response":0,"trial_type":"html-button-response","trial_index":10,"time_elapsed":619669,"internal_node_id":"0.0-2.2-2.2-0.2","params":{"nStudents":24,"maxFlips":30,"completionMinutes":45,"basePay":8,"maxBonus":9,"perTrialBonus":0.5,"perTrialBonusThreshold":0.05,"exampleCost":0.01},"classroomParams":{"A":{"a":1,"b":4},"B":{"a":4,"b":1},"C":{"a":2,"b":8},"D":{"a":8,"b":2}},"conditions":["nonSeqFull","nonSeqPartial","seqNoFeedback","seqFeedback"],"classroomPairings":[["A","B"],["C","D"]],"coinWeights":[0.2,0.5,0.8],"subjectId":"A39SK1E6IMQBD5","assignmentId":"3R3YRB5GRGPNVQR9OOFV35PUDDKUAH","hitId":"3UDTAB6HH6LRO17U79I9TKUGSHV90J","url":"https://gershmanlab.com/experiments/alicia/teaching/experiment/?hitId=3UDTAB6HH6LRO17U79I9TKUGSHV90J&workerId=A39SK1E6IMQBD5&assignmentId=3R3YRB5GRGPNVQR9OOFV35PUDDKUAH&a=GR3R9&tp_a=GR3R9&b=3R3YRB5GRGPNVQR9OOFV35PUDDKUAH&tp_b=3R3YRB5GRGPNVQR9OOFV35PUDDKUAH&c=365799&tp_c=365799"},{"view_history":[{"page_index":0,"viewing_time":1319},{"page_index":1,"viewing_time":529},{"page_index":2,"viewing_time":974},{"page_index":3,"viewing_time":634},{"page_index":4,"viewing_time":860},{"page_index":5,"viewing_time":657},{"page_index":6,"viewing_time":839}],"rt":5812,"trial_type":"instructions","trial_index":11,"time_elapsed":625481,"internal_node_id":"0.0-2.3-0.3","params":{"nStudents":24,"maxFlips":30,"completionMinutes":45,"basePay":8,"maxBonus":9,"perTrialBonus":0.5,"perTrialBonusThreshold":0.05,"exampleCost":0.01},"classroomParams":{"A":{"a":1,"b":4},"B":{"a":4,"b":1},"C":{"a":2,"b":8},"D":{"a":8,"b":2}},"conditions":["nonSeqFull","nonSeqPartial","seqNoFeedback","seqFeedback"],"classroomPairings":[["A","B"],["C","D"]],"coinWeights":[0.2,0.5,0.8],"subjectId":"A39SK1E6IMQBD5","assignmentId":"3R3YRB5GRGPNVQR9OOFV35PUDDKUAH","hitId":"3UDTAB6HH6LRO17U79I9TKUGSHV90J","url":"https://gershmanlab.com/experiments/alicia/teaching/experiment/?hitId=3UDTAB6HH6LRO17U79I9TKUGSHV90J&workerId=A39SK1E6IMQBD5&assignmentId=3R3YRB5GRGPNVQR9OOFV35PUDDKUAH&a=GR3R9&tp_a=GR3R9&b=3R3YRB5GRGPNVQR9OOFV35PUDDKUAH&tp_b=3R3YRB5GRGPNVQR9OOFV35PUDDKUAH&c=365799&tp_c=365799"},{"rt":34272,"response":{"Q0":"Students in different classrooms have seen a different proportion of fair and unfair coins before seeing the examples you select for them.","Q1":"By <b>considering the student's classroom information</b> so that I can teach efficiently and accurately/helpfully at the same time (because each example I give to the student costs money!).","Q2":"The coin lands heads 90% of the time.","Q3":"Yes, I might encounter the same student twice.","Q4":"The students are also on the same alien planet as you, where coins can be unfair.","Q5":"Based on the student's second (and final) guess."},"question_order":[2,1,3,5,0,4],"trial_type":"survey-multi-choice","trial_index":12,"time_elapsed":659755,"internal_node_id":"0.0-2.3-1.3","params":{"nStudents":24,"maxFlips":30,"completionMinutes":45,"basePay":8,"maxBonus":9,"perTrialBonus":0.5,"perTrialBonusThreshold":0.05,"exampleCost":0.01},"classroomParams":{"A":{"a":1,"b":4},"B":{"a":4,"b":1},"C":{"a":2,"b":8},"D":{"a":8,"b":2}},"conditions":["nonSeqFull","nonSeqPartial","seqNoFeedback","seqFeedback"],"classroomPairings":[["A","B"],["C","D"]],"coinWeights":[0.2,0.5,0.8],"subjectId":"A39SK1E6IMQBD5","assignmentId":"3R3YRB5GRGPNVQR9OOFV35PUDDKUAH","hitId":"3UDTAB6HH6LRO17U79I9TKUGSHV90J","url":"https://gershmanlab.com/experiments/alicia/teaching/experiment/?hitId=3UDTAB6HH6LRO17U79I9TKUGSHV90J&workerId=A39SK1E6IMQBD5&assignmentId=3R3YRB5GRGPNVQR9OOFV35PUDDKUAH&a=GR3R9&tp_a=GR3R9&b=3R3YRB5GRGPNVQR9OOFV35PUDDKUAH&tp_b=3R3YRB5GRGPNVQR9OOFV35PUDDKUAH&c=365799&tp_c=365799","pass":false},{"rt":2000,"stimulus":"Oops, you have missed question(s) on the comprehension check! We'll show you the instructions again.","response":0,"trial_type":"html-button-response","trial_index":13,"time_elapsed":661758,"internal_node_id":"0.0-2.3-2.3-0.3","params":{"nStudents":24,"maxFlips":30,"completionMinutes":45,"basePay":8,"maxBonus":9,"perTrialBonus":0.5,"perTrialBonusThreshold":0.05,"exampleCost":0.01},"classroomParams":{"A":{"a":1,"b":4},"B":{"a":4,"b":1},"C":{"a":2,"b":8},"D":{"a":8,"b":2}},"conditions":["nonSeqFull","nonSeqPartial","seqNoFeedback","seqFeedback"],"classroomPairings":[["A","B"],["C","D"]],"coinWeights":[0.2,0.5,0.8],"subjectId":"A39SK1E6IMQBD5","assignmentId":"3R3YRB5GRGPNVQR9OOFV35PUDDKUAH","hitId":"3UDTAB6HH6LRO17U79I9TKUGSHV90J","url":"https://gershmanlab.com/experiments/alicia/teaching/experiment/?hitId=3UDTAB6HH6LRO17U79I9TKUGSHV90J&workerId=A39SK1E6IMQBD5&assignmentId=3R3YRB5GRGPNVQR9OOFV35PUDDKUAH&a=GR3R9&tp_a=GR3R9&b=3R3YRB5GRGPNVQR9OOFV35PUDDKUAH&tp_b=3R3YRB5GRGPNVQR9OOFV35PUDDKUAH&c=365799&tp_c=365799"},{"view_history":[{"page_index":0,"viewing_time":3023},{"page_index":1,"viewing_time":1293},{"page_index":2,"viewing_time":9690},{"page_index":3,"viewing_time":7240},{"page_index":4,"viewing_time":5282},{"page_index":5,"viewing_time":22372},{"page_index":6,"viewing_time":26828}],"rt":75728,"trial_type":"instructions","trial_index":14,"time_elapsed":737487,"internal_node_id":"0.0-2.4-0.4","params":{"nStudents":24,"maxFlips":30,"completionMinutes":45,"basePay":8,"maxBonus":9,"perTrialBonus":0.5,"perTrialBonusThreshold":0.05,"exampleCost":0.01},"classroomParams":{"A":{"a":1,"b":4},"B":{"a":4,"b":1},"C":{"a":2,"b":8},"D":{"a":8,"b":2}},"conditions":["nonSeqFull","nonSeqPartial","seqNoFeedback","seqFeedback"],"classroomPairings":[["A","B"],["C","D"]],"coinWeights":[0.2,0.5,0.8],"subjectId":"A39SK1E6IMQBD5","assignmentId":"3R3YRB5GRGPNVQR9OOFV35PUDDKUAH","hitId":"3UDTAB6HH6LRO17U79I9TKUGSHV90J","url":"https://gershmanlab.com/experiments/alicia/teaching/experiment/?hitId=3UDTAB6HH6LRO17U79I9TKUGSHV90J&workerId=A39SK1E6IMQBD5&assignmentId=3R3YRB5GRGPNVQR9OOFV35PUDDKUAH&a=GR3R9&tp_a=GR3R9&b=3R3YRB5GRGPNVQR9OOFV35PUDDKUAH&tp_b=3R3YRB5GRGPNVQR9OOFV35PUDDKUAH&c=365799&tp_c=365799"},{"rt":27207,"response":{"Q0":"Students in different classrooms will have seen a different number of heads and tails before seeing the examples you select for them.","Q1":"By <b>considering the student's classroom information</b> so that I can teach efficiently and accurately/helpfully at the same time (because each example I give to the student costs money!).","Q2":"The coin lands heads 90% of the time.","Q3":"No, I will teach a <b>new</b> student each time.","Q4":"The students are also on the same alien planet as you, where coins can be unfair.","Q5":"Based on the student's second (and final) guess."},"question_order":[5,2,0,3,1,4],"trial_type":"survey-multi-choice","trial_index":15,"time_elapsed":764696,"internal_node_id":"0.0-2.4-1.4","params":{"nStudents":24,"maxFlips":30,"completionMinutes":45,"basePay":8,"maxBonus":9,"perTrialBonus":0.5,"perTrialBonusThreshold":0.05,"exampleCost":0.01},"classroomParams":{"A":{"a":1,"b":4},"B":{"a":4,"b":1},"C":{"a":2,"b":8},"D":{"a":8,"b":2}},"conditions":["nonSeqFull","nonSeqPartial","seqNoFeedback","seqFeedback"],"classroomPairings":[["A","B"],["C","D"]],"coinWeights":[0.2,0.5,0.8],"subjectId":"A39SK1E6IMQBD5","assignmentId":"3R3YRB5GRGPNVQR9OOFV35PUDDKUAH","hitId":"3UDTAB6HH6LRO17U79I9TKUGSHV90J","url":"https://gershmanlab.com/experiments/alicia/teaching/experiment/?hitId=3UDTAB6HH6LRO17U79I9TKUGSHV90J&workerId=A39SK1E6IMQBD5&assignmentId=3R3YRB5GRGPNVQR9OOFV35PUDDKUAH&a=GR3R9&tp_a=GR3R9&b=3R3YRB5GRGPNVQR9OOFV35PUDDKUAH&tp_b=3R3YRB5GRGPNVQR9OOFV35PUDDKUAH&c=365799&tp_c=365799","pass":true},{"rt":null,"stimulus":"<div style=\"font-size:30px;\">Congrats on passing the comprehension quiz! The experiment will begin in a few seconds.</div>","response":null,"trial_type":"html-keyboard-response","trial_index":16,"time_elapsed":768130,"internal_node_id":"0.0-3.0","params":{"nStudents":24,"maxFlips":30,"completionMinutes":45,"basePay":8,"maxBonus":9,"perTrialBonus":0.5,"perTrialBonusThreshold":0.05,"exampleCost":0.01},"classroomParams":{"A":{"a":1,"b":4},"B":{"a":4,"b":1},"C":{"a":2,"b":8},"D":{"a":8,"b":2}},"conditions":["nonSeqFull","nonSeqPartial","seqNoFeedback","seqFeedback"],"classroomPairings":[["A","B"],["C","D"]],"coinWeights":[0.2,0.5,0.8],"subjectId":"A39SK1E6IMQBD5","assignmentId":"3R3YRB5GRGPNVQR9OOFV35PUDDKUAH","hitId":"3UDTAB6HH6LRO17U79I9TKUGSHV90J","url":"https://gershmanlab.com/experiments/alicia/teaching/experiment/?hitId=3UDTAB6HH6LRO17U79I9TKUGSHV90J&workerId=A39SK1E6IMQBD5&assignmentId=3R3YRB5GRGPNVQR9OOFV35PUDDKUAH&a=GR3R9&tp_a=GR3R9&b=3R3YRB5GRGPNVQR9OOFV35PUDDKUAH&tp_b=3R3YRB5GRGPNVQR9OOFV35PUDDKUAH&c=365799&tp_c=365799"},{"rt":null,"stimulus":"<div style=\"font-size:50px;\">First student</div>","response":null,"trial_type":"html-keyboard-response","trial_index":17,"time_elapsed":772139,"internal_node_id":"0.0-4.0","params":{"nStudents":24,"maxFlips":30,"completionMinutes":45,"basePay":8,"maxBonus":9,"perTrialBonus":0.5,"perTrialBonusThreshold":0.05,"exampleCost":0.01},"classroomParams":{"A":{"a":1,"b":4},"B":{"a":4,"b":1},"C":{"a":2,"b":8},"D":{"a":8,"b":2}},"conditions":["nonSeqFull","nonSeqPartial","seqNoFeedback","seqFeedback"],"classroomPairings":[["A","B"],["C","D"]],"coinWeights":[0.2,0.5,0.8],"subjectId":"A39SK1E6IMQBD5","assignmentId":"3R3YRB5GRGPNVQR9OOFV35PUDDKUAH","hitId":"3UDTAB6HH6LRO17U79I9TKUGSHV90J","url":"https://gershmanlab.com/experiments/alicia/teaching/experiment/?hitId=3UDTAB6HH6LRO17U79I9TKUGSHV90J&workerId=A39SK1E6IMQBD5&assignmentId=3R3YRB5GRGPNVQR9OOFV35PUDDKUAH&a=GR3R9&tp_a=GR3R9&b=3R3YRB5GRGPNVQR9OOFV35PUDDKUAH&tp_b=3R3YRB5GRGPNVQR9OOFV35PUDDKUAH&c=365799&tp_c=365799"},{"rt":26994,"stimulus":"\n            <h4 style=\"color:Orange;\">Student 1</h4>\n            <h2>The weight of your coin is <b style=\"color:Tomato;\">0.2</b>.</h2>\n            <p>In this block, you will be giving <b>two</b> sets of examples to Student 1.</p>\n                <p>You will see the student's guess after the first set of examples. You will also receive feedback at the end of the block.</p>\n            <p>To earn the highest bonus, you will have to <b>take into consideration the student's guess</b> when you choose your second set of examples.</p>","response":0,"trial_type":"html-button-response","trial_index":18,"time_elapsed":799140,"internal_node_id":"0.0-5.0","params":{"nStudents":24,"maxFlips":30,"completionMinutes":45,"basePay":8,"maxBonus":9,"perTrialBonus":0.5,"perTrialBonusThreshold":0.05,"exampleCost":0.01},"classroomParams":{"A":{"a":1,"b":4},"B":{"a":4,"b":1},"C":{"a":2,"b":8},"D":{"a":8,"b":2}},"conditions":["nonSeqFull","nonSeqPartial","seqNoFeedback","seqFeedback"],"classroomPairings":[["A","B"],["C","D"]],"coinWeights":[0.2,0.5,0.8],"subjectId":"A39SK1E6IMQBD5","assignmentId":"3R3YRB5GRGPNVQR9OOFV35PUDDKUAH","hitId":"3UDTAB6HH6LRO17U79I9TKUGSHV90J","url":"https://gershmanlab.com/experiments/alicia/teaching/experiment/?hitId=3UDTAB6HH6LRO17U79I9TKUGSHV90J&workerId=A39SK1E6IMQBD5&assignmentId=3R3YRB5GRGPNVQR9OOFV35PUDDKUAH&a=GR3R9&tp_a=GR3R9&b=3R3YRB5GRGPNVQR9OOFV35PUDDKUAH&tp_b=3R3YRB5GRGPNVQR9OOFV35PUDDKUAH&c=365799&tp_c=365799"},{"rt":52128,"response":{"heads":"4","tails":"1"},"type":"response","condition":"seqFeedback","trueTheta":0.2,"classrooms":["C","D"],"studentTrueClassroom":"D","exampleSet":"first","trial_type":"survey-html-form","trial_index":19,"time_elapsed":851270,"internal_node_id":"0.0-6.0-0.0","params":{"nStudents":24,"maxFlips":30,"completionMinutes":45,"basePay":8,"maxBonus":9,"perTrialBonus":0.5,"perTrialBonusThreshold":0.05,"exampleCost":0.01},"classroomParams":{"A":{"a":1,"b":4},"B":{"a":4,"b":1},"C":{"a":2,"b":8},"D":{"a":8,"b":2}},"conditions":["nonSeqFull","nonSeqPartial","seqNoFeedback","seqFeedback"],"classroomPairings":[["A","B"],["C","D"]],"coinWeights":[0.2,0.5,0.8],"subjectId":"A39SK1E6IMQBD5","assignmentId":"3R3YRB5GRGPNVQR9OOFV35PUDDKUAH","hitId":"3UDTAB6HH6LRO17U79I9TKUGSHV90J","url":"https://gershmanlab.com/experiments/alicia/teaching/experiment/?hitId=3UDTAB6HH6LRO17U79I9TKUGSHV90J&workerId=A39SK1E6IMQBD5&assignmentId=3R3YRB5GRGPNVQR9OOFV35PUDDKUAH&a=GR3R9&tp_a=GR3R9&b=3R3YRB5GRGPNVQR9OOFV35PUDDKUAH&tp_b=3R3YRB5GRGPNVQR9OOFV35PUDDKUAH&c=365799&tp_c=365799","heads":4,"tails":1,"studentIndex":0,"studentTrueHypers":{"a":8,"b":2},"studentGuess":0.8,"delta":0.6000000000000001,"totalExamples":5,"bonusSoFar":0},{"rt":null,"stimulus":"Sending examples to student... ","response":null,"trial_type":"html-keyboard-response","trial_index":20,"time_elapsed":852772,"internal_node_id":"0.0-7.0","params":{"nStudents":24,"maxFlips":30,"completionMinutes":45,"basePay":8,"maxBonus":9,"perTrialBonus":0.5,"perTrialBonusThreshold":0.05,"exampleCost":0.01},"classroomParams":{"A":{"a":1,"b":4},"B":{"a":4,"b":1},"C":{"a":2,"b":8},"D":{"a":8,"b":2}},"conditions":["nonSeqFull","nonSeqPartial","seqNoFeedback","seqFeedback"],"classroomPairings":[["A","B"],["C","D"]],"coinWeights":[0.2,0.5,0.8],"subjectId":"A39SK1E6IMQBD5","assignmentId":"3R3YRB5GRGPNVQR9OOFV35PUDDKUAH","hitId":"3UDTAB6HH6LRO17U79I9TKUGSHV90J","url":"https://gershmanlab.com/experiments/alicia/teaching/experiment/?hitId=3UDTAB6HH6LRO17U79I9TKUGSHV90J&workerId=A39SK1E6IMQBD5&assignmentId=3R3YRB5GRGPNVQR9OOFV35PUDDKUAH&a=GR3R9&tp_a=GR3R9&b=3R3YRB5GRGPNVQR9OOFV35PUDDKUAH&tp_b=3R3YRB5GRGPNVQR9OOFV35PUDDKUAH&c=365799&tp_c=365799"},{"rt":null,"stimulus":"Examples sent to student! Waiting for student...","response":null,"trial_type":"html-keyboard-response","trial_index":21,"time_elapsed":857285,"internal_node_id":"0.0-8.0","params":{"nStudents":24,"maxFlips":30,"completionMinutes":45,"basePay":8,"maxBonus":9,"perTrialBonus":0.5,"perTrialBonusThreshold":0.05,"exampleCost":0.01},"classroomParams":{"A":{"a":1,"b":4},"B":{"a":4,"b":1},"C":{"a":2,"b":8},"D":{"a":8,"b":2}},"conditions":["nonSeqFull","nonSeqPartial","seqNoFeedback","seqFeedback"],"classroomPairings":[["A","B"],["C","D"]],"coinWeights":[0.2,0.5,0.8],"subjectId":"A39SK1E6IMQBD5","assignmentId":"3R3YRB5GRGPNVQR9OOFV35PUDDKUAH","hitId":"3UDTAB6HH6LRO17U79I9TKUGSHV90J","url":"https://gershmanlab.com/experiments/alicia/teaching/experiment/?hitId=3UDTAB6HH6LRO17U79I9TKUGSHV90J&workerId=A39SK1E6IMQBD5&assignmentId=3R3YRB5GRGPNVQR9OOFV35PUDDKUAH&a=GR3R9&tp_a=GR3R9&b=3R3YRB5GRGPNVQR9OOFV35PUDDKUAH&tp_b=3R3YRB5GRGPNVQR9OOFV35PUDDKUAH&c=365799&tp_c=365799"},{"rt":9086,"stimulus":"\n                <p>Student's guess for coin weight: <b style=\"color:Tomato;\">0.80</b></p>\n                <p></b></p>\n                <p>You will now send another set of examples to your student. <b>Remember to take your student's guess into consideration so that you can earn the highest bonus possible!</b> </p>\n                <p>Press any key to continue.</p>\n                ","response":" ","trial_type":"html-keyboard-response","trial_index":22,"time_elapsed":866377,"internal_node_id":"0.0-9.0","params":{"nStudents":24,"maxFlips":30,"completionMinutes":45,"basePay":8,"maxBonus":9,"perTrialBonus":0.5,"perTrialBonusThreshold":0.05,"exampleCost":0.01},"classroomParams":{"A":{"a":1,"b":4},"B":{"a":4,"b":1},"C":{"a":2,"b":8},"D":{"a":8,"b":2}},"conditions":["nonSeqFull","nonSeqPartial","seqNoFeedback","seqFeedback"],"classroomPairings":[["A","B"],["C","D"]],"coinWeights":[0.2,0.5,0.8],"subjectId":"A39SK1E6IMQBD5","assignmentId":"3R3YRB5GRGPNVQR9OOFV35PUDDKUAH","hitId":"3UDTAB6HH6LRO17U79I9TKUGSHV90J","url":"https://gershmanlab.com/experiments/alicia/teaching/experiment/?hitId=3UDTAB6HH6LRO17U79I9TKUGSHV90J&workerId=A39SK1E6IMQBD5&assignmentId=3R3YRB5GRGPNVQR9OOFV35PUDDKUAH&a=GR3R9&tp_a=GR3R9&b=3R3YRB5GRGPNVQR9OOFV35PUDDKUAH&tp_b=3R3YRB5GRGPNVQR9OOFV35PUDDKUAH&c=365799&tp_c=365799"},{"rt":31939,"response":{"heads":"4","tails":"1"},"type":"response","condition":"seqFeedback","trueTheta":0.2,"classrooms":["C","D"],"studentTrueClassroom":"D","exampleSet":"second","trial_type":"survey-html-form","trial_index":23,"time_elapsed":898318,"internal_node_id":"0.0-10.0-0.0","params":{"nStudents":24,"maxFlips":30,"completionMinutes":45,"basePay":8,"maxBonus":9,"perTrialBonus":0.5,"perTrialBonusThreshold":0.05,"exampleCost":0.01},"classroomParams":{"A":{"a":1,"b":4},"B":{"a":4,"b":1},"C":{"a":2,"b":8},"D":{"a":8,"b":2}},"conditions":["nonSeqFull","nonSeqPartial","seqNoFeedback","seqFeedback"],"classroomPairings":[["A","B"],["C","D"]],"coinWeights":[0.2,0.5,0.8],"subjectId":"A39SK1E6IMQBD5","assignmentId":"3R3YRB5GRGPNVQR9OOFV35PUDDKUAH","hitId":"3UDTAB6HH6LRO17U79I9TKUGSHV90J","url":"https://gershmanlab.com/experiments/alicia/teaching/experiment/?hitId=3UDTAB6HH6LRO17U79I9TKUGSHV90J&workerId=A39SK1E6IMQBD5&assignmentId=3R3YRB5GRGPNVQR9OOFV35PUDDKUAH&a=GR3R9&tp_a=GR3R9&b=3R3YRB5GRGPNVQR9OOFV35PUDDKUAH&tp_b=3R3YRB5GRGPNVQR9OOFV35PUDDKUAH&c=365799&tp_c=365799","firstResponseHeads":4,"firstResponseTails":1,"secondResponseHeads":4,"secondResponseTails":1,"totalHeads":8,"totalTails":2,"studentIndex":0,"studentTrueHypers":{"a":8,"b":2},"studentGuess":0.8,"delta":0.6000000000000001,"bonus":0,"bonusSoFar":0,"totalExamples":10},{"rt":null,"stimulus":"Sending examples to student... ","response":null,"trial_type":"html-keyboard-response","trial_index":24,"time_elapsed":899572,"internal_node_id":"0.0-11.0","params":{"nStudents":24,"maxFlips":30,"completionMinutes":45,"basePay":8,"maxBonus":9,"perTrialBonus":0.5,"perTrialBonusThreshold":0.05,"exampleCost":0.01},"classroomParams":{"A":{"a":1,"b":4},"B":{"a":4,"b":1},"C":{"a":2,"b":8},"D":{"a":8,"b":2}},"conditions":["nonSeqFull","nonSeqPartial","seqNoFeedback","seqFeedback"],"classroomPairings":[["A","B"],["C","D"]],"coinWeights":[0.2,0.5,0.8],"subjectId":"A39SK1E6IMQBD5","assignmentId":"3R3YRB5GRGPNVQR9OOFV35PUDDKUAH","hitId":"3UDTAB6HH6LRO17U79I9TKUGSHV90J","url":"https://gershmanlab.com/experiments/alicia/teaching/experiment/?hitId=3UDTAB6HH6LRO17U79I9TKUGSHV90J&workerId=A39SK1E6IMQBD5&assignmentId=3R3YRB5GRGPNVQR9OOFV35PUDDKUAH&a=GR3R9&tp_a=GR3R9&b=3R3YRB5GRGPNVQR9OOFV35PUDDKUAH&tp_b=3R3YRB5GRGPNVQR9OOFV35PUDDKUAH&c=365799&tp_c=365799"},{"rt":null,"stimulus":"Examples sent to student! Waiting for student...","response":null,"trial_type":"html-keyboard-response","trial_index":25,"time_elapsed":904074,"internal_node_id":"0.0-12.0","params":{"nStudents":24,"maxFlips":30,"completionMinutes":45,"basePay":8,"maxBonus":9,"perTrialBonus":0.5,"perTrialBonusThreshold":0.05,"exampleCost":0.01},"classroomParams":{"A":{"a":1,"b":4},"B":{"a":4,"b":1},"C":{"a":2,"b":8},"D":{"a":8,"b":2}},"conditions":["nonSeqFull","nonSeqPartial","seqNoFeedback","seqFeedback"],"classroomPairings":[["A","B"],["C","D"]],"coinWeights":[0.2,0.5,0.8],"subjectId":"A39SK1E6IMQBD5","assignmentId":"3R3YRB5GRGPNVQR9OOFV35PUDDKUAH","hitId":"3UDTAB6HH6LRO17U79I9TKUGSHV90J","url":"https://gershmanlab.com/experiments/alicia/teaching/experiment/?hitId=3UDTAB6HH6LRO17U79I9TKUGSHV90J&workerId=A39SK1E6IMQBD5&assignmentId=3R3YRB5GRGPNVQR9OOFV35PUDDKUAH&a=GR3R9&tp_a=GR3R9&b=3R3YRB5GRGPNVQR9OOFV35PUDDKUAH&tp_b=3R3YRB5GRGPNVQR9OOFV35PUDDKUAH&c=365799&tp_c=365799"},{"rt":4344,"stimulus":"\n                <p>Student 1's first guess for coin weight: <b style=\"color:Tomato\";>0.80</b></p>\n                <p>Student 1's second guess for coin weight: <b style=\"color:Tomato\";>0.80</b></p>\n                <p>You received a bonus of <b>$0.00</b> based on the student's second guess.</p>\n                <p>Total bonus so far: <b>$0.00</b></p>\n                <p>Press any key to continue.</p>\n                ","response":" ","trial_type":"html-keyboard-response","trial_index":26,"time_elapsed":908422,"internal_node_id":"0.0-13.0","params":{"nStudents":24,"maxFlips":30,"completionMinutes":45,"basePay":8,"maxBonus":9,"perTrialBonus":0.5,"perTrialBonusThreshold":0.05,"exampleCost":0.01},"classroomParams":{"A":{"a":1,"b":4},"B":{"a":4,"b":1},"C":{"a":2,"b":8},"D":{"a":8,"b":2}},"conditions":["nonSeqFull","nonSeqPartial","seqNoFeedback","seqFeedback"],"classroomPairings":[["A","B"],["C","D"]],"coinWeights":[0.2,0.5,0.8],"subjectId":"A39SK1E6IMQBD5","assignmentId":"3R3YRB5GRGPNVQR9OOFV35PUDDKUAH","hitId":"3UDTAB6HH6LRO17U79I9TKUGSHV90J","url":"https://gershmanlab.com/experiments/alicia/teaching/experiment/?hitId=3UDTAB6HH6LRO17U79I9TKUGSHV90J&workerId=A39SK1E6IMQBD5&assignmentId=3R3YRB5GRGPNVQR9OOFV35PUDDKUAH&a=GR3R9&tp_a=GR3R9&b=3R3YRB5GRGPNVQR9OOFV35PUDDKUAH&tp_b=3R3YRB5GRGPNVQR9OOFV35PUDDKUAH&c=365799&tp_c=365799"},{"rt":null,"stimulus":"<div style=\"font-size:60px;\">Next student</div>","response":null,"trial_type":"html-keyboard-response","trial_index":27,"time_elapsed":911428,"internal_node_id":"0.0-14.0-0.0","params":{"nStudents":24,"maxFlips":30,"completionMinutes":45,"basePay":8,"maxBonus":9,"perTrialBonus":0.5,"perTrialBonusThreshold":0.05,"exampleCost":0.01},"classroomParams":{"A":{"a":1,"b":4},"B":{"a":4,"b":1},"C":{"a":2,"b":8},"D":{"a":8,"b":2}},"conditions":["nonSeqFull","nonSeqPartial","seqNoFeedback","seqFeedback"],"classroomPairings":[["A","B"],["C","D"]],"coinWeights":[0.2,0.5,0.8],"subjectId":"A39SK1E6IMQBD5","assignmentId":"3R3YRB5GRGPNVQR9OOFV35PUDDKUAH","hitId":"3UDTAB6HH6LRO17U79I9TKUGSHV90J","url":"https://gershmanlab.com/experiments/alicia/teaching/experiment/?hitId=3UDTAB6HH6LRO17U79I9TKUGSHV90J&workerId=A39SK1E6IMQBD5&assignmentId=3R3YRB5GRGPNVQR9OOFV35PUDDKUAH&a=GR3R9&tp_a=GR3R9&b=3R3YRB5GRGPNVQR9OOFV35PUDDKUAH&tp_b=3R3YRB5GRGPNVQR9OOFV35PUDDKUAH&c=365799&tp_c=365799"},{"rt":5686,"stimulus":"\n            <h4 style=\"color:Orange;\">Student 2</h4>\n            <h2>The weight of your coin is <b style=\"color:Tomato;\">0.5</b>.</h2>\n            <p>In this block, you will be giving <b>one</b> set of examples to Student 2.</p>\n                <p>You will receive feedback at the end of the block.</p>\n            <p></p>","response":0,"trial_type":"html-button-response","trial_index":28,"time_elapsed":917118,"internal_node_id":"0.0-15.0","params":{"nStudents":24,"maxFlips":30,"completionMinutes":45,"basePay":8,"maxBonus":9,"perTrialBonus":0.5,"perTrialBonusThreshold":0.05,"exampleCost":0.01},"classroomParams":{"A":{"a":1,"b":4},"B":{"a":4,"b":1},"C":{"a":2,"b":8},"D":{"a":8,"b":2}},"conditions":["nonSeqFull","nonSeqPartial","seqNoFeedback","seqFeedback"],"classroomPairings":[["A","B"],["C","D"]],"coinWeights":[0.2,0.5,0.8],"subjectId":"A39SK1E6IMQBD5","assignmentId":"3R3YRB5GRGPNVQR9OOFV35PUDDKUAH","hitId":"3UDTAB6HH6LRO17U79I9TKUGSHV90J","url":"https://gershmanlab.com/experiments/alicia/teaching/experiment/?hitId=3UDTAB6HH6LRO17U79I9TKUGSHV90J&workerId=A39SK1E6IMQBD5&assignmentId=3R3YRB5GRGPNVQR9OOFV35PUDDKUAH&a=GR3R9&tp_a=GR3R9&b=3R3YRB5GRGPNVQR9OOFV35PUDDKUAH&tp_b=3R3YRB5GRGPNVQR9OOFV35PUDDKUAH&c=365799&tp_c=365799"},{"rt":7088,"response":{"heads":"1","tails":"1"},"type":"response","condition":"nonSeqFull","trueTheta":0.5,"classrooms":["C","D"],"studentTrueClassroom":"D","exampleSet":"first","trial_type":"survey-html-form","trial_index":29,"time_elapsed":924208,"internal_node_id":"0.0-16.0-0.0","params":{"nStudents":24,"maxFlips":30,"completionMinutes":45,"basePay":8,"maxBonus":9,"perTrialBonus":0.5,"perTrialBonusThreshold":0.05,"exampleCost":0.01},"classroomParams":{"A":{"a":1,"b":4},"B":{"a":4,"b":1},"C":{"a":2,"b":8},"D":{"a":8,"b":2}},"conditions":["nonSeqFull","nonSeqPartial","seqNoFeedback","seqFeedback"],"classroomPairings":[["A","B"],["C","D"]],"coinWeights":[0.2,0.5,0.8],"subjectId":"A39SK1E6IMQBD5","assignmentId":"3R3YRB5GRGPNVQR9OOFV35PUDDKUAH","hitId":"3UDTAB6HH6LRO17U79I9TKUGSHV90J","url":"https://gershmanlab.com/experiments/alicia/teaching/experiment/?hitId=3UDTAB6HH6LRO17U79I9TKUGSHV90J&workerId=A39SK1E6IMQBD5&assignmentId=3R3YRB5GRGPNVQR9OOFV35PUDDKUAH&a=GR3R9&tp_a=GR3R9&b=3R3YRB5GRGPNVQR9OOFV35PUDDKUAH&tp_b=3R3YRB5GRGPNVQR9OOFV35PUDDKUAH&c=365799&tp_c=365799","heads":1,"tails":1,"studentIndex":1,"studentTrueHypers":{"a":8,"b":2},"studentGuess":0.75,"delta":0.25,"totalExamples":2,"bonus":0,"bonusSoFar":0},{"rt":null,"stimulus":"Sending examples to student... ","response":null,"trial_type":"html-keyboard-response","trial_index":30,"time_elapsed":925712,"internal_node_id":"0.0-17.0","params":{"nStudents":24,"maxFlips":30,"completionMinutes":45,"basePay":8,"maxBonus":9,"perTrialBonus":0.5,"perTrialBonusThreshold":0.05,"exampleCost":0.01},"classroomParams":{"A":{"a":1,"b":4},"B":{"a":4,"b":1},"C":{"a":2,"b":8},"D":{"a":8,"b":2}},"conditions":["nonSeqFull","nonSeqPartial","seqNoFeedback","seqFeedback"],"classroomPairings":[["A","B"],["C","D"]],"coinWeights":[0.2,0.5,0.8],"subjectId":"A39SK1E6IMQBD5","assignmentId":"3R3YRB5GRGPNVQR9OOFV35PUDDKUAH","hitId":"3UDTAB6HH6LRO17U79I9TKUGSHV90J","url":"https://gershmanlab.com/experiments/alicia/teaching/experiment/?hitId=3UDTAB6HH6LRO17U79I9TKUGSHV90J&workerId=A39SK1E6IMQBD5&assignmentId=3R3YRB5GRGPNVQR9OOFV35PUDDKUAH&a=GR3R9&tp_a=GR3R9&b=3R3YRB5GRGPNVQR9OOFV35PUDDKUAH&tp_b=3R3YRB5GRGPNVQR9OOFV35PUDDKUAH&c=365799&tp_c=365799"},{"rt":null,"stimulus":"Examples sent to student! Waiting for student...","response":null,"trial_type":"html-keyboard-response","trial_index":31,"time_elapsed":930731,"internal_node_id":"0.0-18.0","params":{"nStudents":24,"maxFlips":30,"completionMinutes":45,"basePay":8,"maxBonus":9,"perTrialBonus":0.5,"perTrialBonusThreshold":0.05,"exampleCost":0.01},"classroomParams":{"A":{"a":1,"b":4},"B":{"a":4,"b":1},"C":{"a":2,"b":8},"D":{"a":8,"b":2}},"conditions":["nonSeqFull","nonSeqPartial","seqNoFeedback","seqFeedback"],"classroomPairings":[["A","B"],["C","D"]],"coinWeights":[0.2,0.5,0.8],"subjectId":"A39SK1E6IMQBD5","assignmentId":"3R3YRB5GRGPNVQR9OOFV35PUDDKUAH","hitId":"3UDTAB6HH6LRO17U79I9TKUGSHV90J","url":"https://gershmanlab.com/experiments/alicia/teaching/experiment/?hitId=3UDTAB6HH6LRO17U79I9TKUGSHV90J&workerId=A39SK1E6IMQBD5&assignmentId=3R3YRB5GRGPNVQR9OOFV35PUDDKUAH&a=GR3R9&tp_a=GR3R9&b=3R3YRB5GRGPNVQR9OOFV35PUDDKUAH&tp_b=3R3YRB5GRGPNVQR9OOFV35PUDDKUAH&c=365799&tp_c=365799"},{"rt":6687,"stimulus":"\n                <p>Student's guess for coin weight: <b style=\"color:Tomato;\">0.75</b></p>\n                <p>You received a bonus of <b>$0</b>. Total bonus so far: <b>$0.00</b></b></p>\n                <p></p>\n                <p>Press any key to continue.</p>\n                ","response":" ","trial_type":"html-keyboard-response","trial_index":32,"time_elapsed":937423,"internal_node_id":"0.0-19.0","params":{"nStudents":24,"maxFlips":30,"completionMinutes":45,"basePay":8,"maxBonus":9,"perTrialBonus":0.5,"perTrialBonusThreshold":0.05,"exampleCost":0.01},"classroomParams":{"A":{"a":1,"b":4},"B":{"a":4,"b":1},"C":{"a":2,"b":8},"D":{"a":8,"b":2}},"conditions":["nonSeqFull","nonSeqPartial","seqNoFeedback","seqFeedback"],"classroomPairings":[["A","B"],["C","D"]],"coinWeights":[0.2,0.5,0.8],"subjectId":"A39SK1E6IMQBD5","assignmentId":"3R3YRB5GRGPNVQR9OOFV35PUDDKUAH","hitId":"3UDTAB6HH6LRO17U79I9TKUGSHV90J","url":"https://gershmanlab.com/experiments/alicia/teaching/experiment/?hitId=3UDTAB6HH6LRO17U79I9TKUGSHV90J&workerId=A39SK1E6IMQBD5&assignmentId=3R3YRB5GRGPNVQR9OOFV35PUDDKUAH&a=GR3R9&tp_a=GR3R9&b=3R3YRB5GRGPNVQR9OOFV35PUDDKUAH&tp_b=3R3YRB5GRGPNVQR9OOFV35PUDDKUAH&c=365799&tp_c=365799"},{"rt":null,"stimulus":"<div style=\"font-size:60px;\">Next student</div>","response":null,"trial_type":"html-keyboard-response","trial_index":33,"time_elapsed":940425,"internal_node_id":"0.0-20.0-0.0","params":{"nStudents":24,"maxFlips":30,"completionMinutes":45,"basePay":8,"maxBonus":9,"perTrialBonus":0.5,"perTrialBonusThreshold":0.05,"exampleCost":0.01},"classroomParams":{"A":{"a":1,"b":4},"B":{"a":4,"b":1},"C":{"a":2,"b":8},"D":{"a":8,"b":2}},"conditions":["nonSeqFull","nonSeqPartial","seqNoFeedback","seqFeedback"],"classroomPairings":[["A","B"],["C","D"]],"coinWeights":[0.2,0.5,0.8],"subjectId":"A39SK1E6IMQBD5","assignmentId":"3R3YRB5GRGPNVQR9OOFV35PUDDKUAH","hitId":"3UDTAB6HH6LRO17U79I9TKUGSHV90J","url":"https://gershmanlab.com/experiments/alicia/teaching/experiment/?hitId=3UDTAB6HH6LRO17U79I9TKUGSHV90J&workerId=A39SK1E6IMQBD5&assignmentId=3R3YRB5GRGPNVQR9OOFV35PUDDKUAH&a=GR3R9&tp_a=GR3R9&b=3R3YRB5GRGPNVQR9OOFV35PUDDKUAH&tp_b=3R3YRB5GRGPNVQR9OOFV35PUDDKUAH&c=365799&tp_c=365799"},{"rt":6167,"stimulus":"\n            <h4 style=\"color:Orange;\">Student 3</h4>\n            <h2>The weight of your coin is <b style=\"color:Tomato;\">0.2</b>.</h2>\n            <p>In this block, you will be giving <b>one</b> set of examples to Student 3.</p>\n                <p>You will receive feedback at the end of the block.</p>\n            <p></p>","response":0,"trial_type":"html-button-response","trial_index":34,"time_elapsed":946596,"internal_node_id":"0.0-21.0","params":{"nStudents":24,"maxFlips":30,"completionMinutes":45,"basePay":8,"maxBonus":9,"perTrialBonus":0.5,"perTrialBonusThreshold":0.05,"exampleCost":0.01},"classroomParams":{"A":{"a":1,"b":4},"B":{"a":4,"b":1},"C":{"a":2,"b":8},"D":{"a":8,"b":2}},"conditions":["nonSeqFull","nonSeqPartial","seqNoFeedback","seqFeedback"],"classroomPairings":[["A","B"],["C","D"]],"coinWeights":[0.2,0.5,0.8],"subjectId":"A39SK1E6IMQBD5","assignmentId":"3R3YRB5GRGPNVQR9OOFV35PUDDKUAH","hitId":"3UDTAB6HH6LRO17U79I9TKUGSHV90J","url":"https://gershmanlab.com/experiments/alicia/teaching/experiment/?hitId=3UDTAB6HH6LRO17U79I9TKUGSHV90J&workerId=A39SK1E6IMQBD5&assignmentId=3R3YRB5GRGPNVQR9OOFV35PUDDKUAH&a=GR3R9&tp_a=GR3R9&b=3R3YRB5GRGPNVQR9OOFV35PUDDKUAH&tp_b=3R3YRB5GRGPNVQR9OOFV35PUDDKUAH&c=365799&tp_c=365799"},{"rt":15924,"response":{"heads":"4","tails":"1"},"type":"response","condition":"nonSeqFull","trueTheta":0.2,"classrooms":["A","B"],"studentTrueClassroom":"B","exampleSet":"first","trial_type":"survey-html-form","trial_index":35,"time_elapsed":962522,"internal_node_id":"0.0-22.0-0.0","params":{"nStudents":24,"maxFlips":30,"completionMinutes":45,"basePay":8,"maxBonus":9,"perTrialBonus":0.5,"perTrialBonusThreshold":0.05,"exampleCost":0.01},"classroomParams":{"A":{"a":1,"b":4},"B":{"a":4,"b":1},"C":{"a":2,"b":8},"D":{"a":8,"b":2}},"conditions":["nonSeqFull","nonSeqPartial","seqNoFeedback","seqFeedback"],"classroomPairings":[["A","B"],["C","D"]],"coinWeights":[0.2,0.5,0.8],"subjectId":"A39SK1E6IMQBD5","assignmentId":"3R3YRB5GRGPNVQR9OOFV35PUDDKUAH","hitId":"3UDTAB6HH6LRO17U79I9TKUGSHV90J","url":"https://gershmanlab.com/experiments/alicia/teaching/experiment/?hitId=3UDTAB6HH6LRO17U79I9TKUGSHV90J&workerId=A39SK1E6IMQBD5&assignmentId=3R3YRB5GRGPNVQR9OOFV35PUDDKUAH&a=GR3R9&tp_a=GR3R9&b=3R3YRB5GRGPNVQR9OOFV35PUDDKUAH&tp_b=3R3YRB5GRGPNVQR9OOFV35PUDDKUAH&c=365799&tp_c=365799","heads":4,"tails":1,"studentIndex":2,"studentTrueHypers":{"a":4,"b":1},"studentGuess":0.8,"delta":0.6000000000000001,"totalExamples":5,"bonus":0,"bonusSoFar":0},{"rt":null,"stimulus":"Sending examples to student... ","response":null,"trial_type":"html-keyboard-response","trial_index":36,"time_elapsed":963778,"internal_node_id":"0.0-23.0","params":{"nStudents":24,"maxFlips":30,"completionMinutes":45,"basePay":8,"maxBonus":9,"perTrialBonus":0.5,"perTrialBonusThreshold":0.05,"exampleCost":0.01},"classroomParams":{"A":{"a":1,"b":4},"B":{"a":4,"b":1},"C":{"a":2,"b":8},"D":{"a":8,"b":2}},"conditions":["nonSeqFull","nonSeqPartial","seqNoFeedback","seqFeedback"],"classroomPairings":[["A","B"],["C","D"]],"coinWeights":[0.2,0.5,0.8],"subjectId":"A39SK1E6IMQBD5","assignmentId":"3R3YRB5GRGPNVQR9OOFV35PUDDKUAH","hitId":"3UDTAB6HH6LRO17U79I9TKUGSHV90J","url":"https://gershmanlab.com/experiments/alicia/teaching/experiment/?hitId=3UDTAB6HH6LRO17U79I9TKUGSHV90J&workerId=A39SK1E6IMQBD5&assignmentId=3R3YRB5GRGPNVQR9OOFV35PUDDKUAH&a=GR3R9&tp_a=GR3R9&b=3R3YRB5GRGPNVQR9OOFV35PUDDKUAH&tp_b=3R3YRB5GRGPNVQR9OOFV35PUDDKUAH&c=365799&tp_c=365799"},{"rt":null,"stimulus":"Examples sent to student! Waiting for student...","response":null,"trial_type":"html-keyboard-response","trial_index":37,"time_elapsed":969785,"internal_node_id":"0.0-24.0","params":{"nStudents":24,"maxFlips":30,"completionMinutes":45,"basePay":8,"maxBonus":9,"perTrialBonus":0.5,"perTrialBonusThreshold":0.05,"exampleCost":0.01},"classroomParams":{"A":{"a":1,"b":4},"B":{"a":4,"b":1},"C":{"a":2,"b":8},"D":{"a":8,"b":2}},"conditions":["nonSeqFull","nonSeqPartial","seqNoFeedback","seqFeedback"],"classroomPairings":[["A","B"],["C","D"]],"coinWeights":[0.2,0.5,0.8],"subjectId":"A39SK1E6IMQBD5","assignmentId":"3R3YRB5GRGPNVQR9OOFV35PUDDKUAH","hitId":"3UDTAB6HH6LRO17U79I9TKUGSHV90J","url":"https://gershmanlab.com/experiments/alicia/teaching/experiment/?hitId=3UDTAB6HH6LRO17U79I9TKUGSHV90J&workerId=A39SK1E6IMQBD5&assignmentId=3R3YRB5GRGPNVQR9OOFV35PUDDKUAH&a=GR3R9&tp_a=GR3R9&b=3R3YRB5GRGPNVQR9OOFV35PUDDKUAH&tp_b=3R3YRB5GRGPNVQR9OOFV35PUDDKUAH&c=365799&tp_c=365799"},{"rt":4322,"stimulus":"\n                <p>Student's guess for coin weight: <b style=\"color:Tomato;\">0.80</b></p>\n                <p>You received a bonus of <b>$0</b>. Total bonus so far: <b>$0.00</b></b></p>\n                <p></p>\n                <p>Press any key to continue.</p>\n                ","response":" ","trial_type":"html-keyboard-response","trial_index":38,"time_elapsed":974110,"internal_node_id":"0.0-25.0","params":{"nStudents":24,"maxFlips":30,"completionMinutes":45,"basePay":8,"maxBonus":9,"perTrialBonus":0.5,"perTrialBonusThreshold":0.05,"exampleCost":0.01},"classroomParams":{"A":{"a":1,"b":4},"B":{"a":4,"b":1},"C":{"a":2,"b":8},"D":{"a":8,"b":2}},"conditions":["nonSeqFull","nonSeqPartial","seqNoFeedback","seqFeedback"],"classroomPairings":[["A","B"],["C","D"]],"coinWeights":[0.2,0.5,0.8],"subjectId":"A39SK1E6IMQBD5","assignmentId":"3R3YRB5GRGPNVQR9OOFV35PUDDKUAH","hitId":"3UDTAB6HH6LRO17U79I9TKUGSHV90J","url":"https://gershmanlab.com/experiments/alicia/teaching/experiment/?hitId=3UDTAB6HH6LRO17U79I9TKUGSHV90J&workerId=A39SK1E6IMQBD5&assignmentId=3R3YRB5GRGPNVQR9OOFV35PUDDKUAH&a=GR3R9&tp_a=GR3R9&b=3R3YRB5GRGPNVQR9OOFV35PUDDKUAH&tp_b=3R3YRB5GRGPNVQR9OOFV35PUDDKUAH&c=365799&tp_c=365799"},{"rt":null,"stimulus":"<div style=\"font-size:60px;\">Next student</div>","response":null,"trial_type":"html-keyboard-response","trial_index":39,"time_elapsed":976119,"internal_node_id":"0.0-26.0-0.0","params":{"nStudents":24,"maxFlips":30,"completionMinutes":45,"basePay":8,"maxBonus":9,"perTrialBonus":0.5,"perTrialBonusThreshold":0.05,"exampleCost":0.01},"classroomParams":{"A":{"a":1,"b":4},"B":{"a":4,"b":1},"C":{"a":2,"b":8},"D":{"a":8,"b":2}},"conditions":["nonSeqFull","nonSeqPartial","seqNoFeedback","seqFeedback"],"classroomPairings":[["A","B"],["C","D"]],"coinWeights":[0.2,0.5,0.8],"subjectId":"A39SK1E6IMQBD5","assignmentId":"3R3YRB5GRGPNVQR9OOFV35PUDDKUAH","hitId":"3UDTAB6HH6LRO17U79I9TKUGSHV90J","url":"https://gershmanlab.com/experiments/alicia/teaching/experiment/?hitId=3UDTAB6HH6LRO17U79I9TKUGSHV90J&workerId=A39SK1E6IMQBD5&assignmentId=3R3YRB5GRGPNVQR9OOFV35PUDDKUAH&a=GR3R9&tp_a=GR3R9&b=3R3YRB5GRGPNVQR9OOFV35PUDDKUAH&tp_b=3R3YRB5GRGPNVQR9OOFV35PUDDKUAH&c=365799&tp_c=365799"},{"rt":3457,"stimulus":"\n            <h4 style=\"color:Orange;\">Student 4</h4>\n            <h2>The weight of your coin is <b style=\"color:Tomato;\">0.8</b>.</h2>\n            <p>In this block, you will be giving <b>one</b> set of examples to Student 4.</p>\n                <p>You will receive feedback at the end of the block.</p>\n            <p></p>","response":0,"trial_type":"html-button-response","trial_index":40,"time_elapsed":979578,"internal_node_id":"0.0-27.0","params":{"nStudents":24,"maxFlips":30,"completionMinutes":45,"basePay":8,"maxBonus":9,"perTrialBonus":0.5,"perTrialBonusThreshold":0.05,"exampleCost":0.01},"classroomParams":{"A":{"a":1,"b":4},"B":{"a":4,"b":1},"C":{"a":2,"b":8},"D":{"a":8,"b":2}},"conditions":["nonSeqFull","nonSeqPartial","seqNoFeedback","seqFeedback"],"classroomPairings":[["A","B"],["C","D"]],"coinWeights":[0.2,0.5,0.8],"subjectId":"A39SK1E6IMQBD5","assignmentId":"3R3YRB5GRGPNVQR9OOFV35PUDDKUAH","hitId":"3UDTAB6HH6LRO17U79I9TKUGSHV90J","url":"https://gershmanlab.com/experiments/alicia/teaching/experiment/?hitId=3UDTAB6HH6LRO17U79I9TKUGSHV90J&workerId=A39SK1E6IMQBD5&assignmentId=3R3YRB5GRGPNVQR9OOFV35PUDDKUAH&a=GR3R9&tp_a=GR3R9&b=3R3YRB5GRGPNVQR9OOFV35PUDDKUAH&tp_b=3R3YRB5GRGPNVQR9OOFV35PUDDKUAH&c=365799&tp_c=365799"},{"rt":15689,"response":{"heads":"4","tails":"1"},"type":"response","condition":"nonSeqFull","trueTheta":0.8,"classrooms":["A","B"],"studentTrueClassroom":"A","exampleSet":"first","trial_type":"survey-html-form","trial_index":41,"time_elapsed":995269,"internal_node_id":"0.0-28.0-0.0","params":{"nStudents":24,"maxFlips":30,"completionMinutes":45,"basePay":8,"maxBonus":9,"perTrialBonus":0.5,"perTrialBonusThreshold":0.05,"exampleCost":0.01},"classroomParams":{"A":{"a":1,"b":4},"B":{"a":4,"b":1},"C":{"a":2,"b":8},"D":{"a":8,"b":2}},"conditions":["nonSeqFull","nonSeqPartial","seqNoFeedback","seqFeedback"],"classroomPairings":[["A","B"],["C","D"]],"coinWeights":[0.2,0.5,0.8],"subjectId":"A39SK1E6IMQBD5","assignmentId":"3R3YRB5GRGPNVQR9OOFV35PUDDKUAH","hitId":"3UDTAB6HH6LRO17U79I9TKUGSHV90J","url":"https://gershmanlab.com/experiments/alicia/teaching/experiment/?hitId=3UDTAB6HH6LRO17U79I9TKUGSHV90J&workerId=A39SK1E6IMQBD5&assignmentId=3R3YRB5GRGPNVQR9OOFV35PUDDKUAH&a=GR3R9&tp_a=GR3R9&b=3R3YRB5GRGPNVQR9OOFV35PUDDKUAH&tp_b=3R3YRB5GRGPNVQR9OOFV35PUDDKUAH&c=365799&tp_c=365799","heads":4,"tails":1,"studentIndex":3,"studentTrueHypers":{"a":1,"b":4},"studentGuess":0.5,"delta":0.30000000000000004,"totalExamples":5,"bonus":0,"bonusSoFar":0},{"rt":null,"stimulus":"Sending examples to student... ","response":null,"trial_type":"html-keyboard-response","trial_index":42,"time_elapsed":997020,"internal_node_id":"0.0-29.0","params":{"nStudents":24,"maxFlips":30,"completionMinutes":45,"basePay":8,"maxBonus":9,"perTrialBonus":0.5,"perTrialBonusThreshold":0.05,"exampleCost":0.01},"classroomParams":{"A":{"a":1,"b":4},"B":{"a":4,"b":1},"C":{"a":2,"b":8},"D":{"a":8,"b":2}},"conditions":["nonSeqFull","nonSeqPartial","seqNoFeedback","seqFeedback"],"classroomPairings":[["A","B"],["C","D"]],"coinWeights":[0.2,0.5,0.8],"subjectId":"A39SK1E6IMQBD5","assignmentId":"3R3YRB5GRGPNVQR9OOFV35PUDDKUAH","hitId":"3UDTAB6HH6LRO17U79I9TKUGSHV90J","url":"https://gershmanlab.com/experiments/alicia/teaching/experiment/?hitId=3UDTAB6HH6LRO17U79I9TKUGSHV90J&workerId=A39SK1E6IMQBD5&assignmentId=3R3YRB5GRGPNVQR9OOFV35PUDDKUAH&a=GR3R9&tp_a=GR3R9&b=3R3YRB5GRGPNVQR9OOFV35PUDDKUAH&tp_b=3R3YRB5GRGPNVQR9OOFV35PUDDKUAH&c=365799&tp_c=365799"},{"rt":null,"stimulus":"Examples sent to student! Waiting for student...","response":null,"trial_type":"html-keyboard-response","trial_index":43,"time_elapsed":1001532,"internal_node_id":"0.0-30.0","params":{"nStudents":24,"maxFlips":30,"completionMinutes":45,"basePay":8,"maxBonus":9,"perTrialBonus":0.5,"perTrialBonusThreshold":0.05,"exampleCost":0.01},"classroomParams":{"A":{"a":1,"b":4},"B":{"a":4,"b":1},"C":{"a":2,"b":8},"D":{"a":8,"b":2}},"conditions":["nonSeqFull","nonSeqPartial","seqNoFeedback","seqFeedback"],"classroomPairings":[["A","B"],["C","D"]],"coinWeights":[0.2,0.5,0.8],"subjectId":"A39SK1E6IMQBD5","assignmentId":"3R3YRB5GRGPNVQR9OOFV35PUDDKUAH","hitId":"3UDTAB6HH6LRO17U79I9TKUGSHV90J","url":"https://gershmanlab.com/experiments/alicia/teaching/experiment/?hitId=3UDTAB6HH6LRO17U79I9TKUGSHV90J&workerId=A39SK1E6IMQBD5&assignmentId=3R3YRB5GRGPNVQR9OOFV35PUDDKUAH&a=GR3R9&tp_a=GR3R9&b=3R3YRB5GRGPNVQR9OOFV35PUDDKUAH&tp_b=3R3YRB5GRGPNVQR9OOFV35PUDDKUAH&c=365799&tp_c=365799"},{"rt":3748,"stimulus":"\n                <p>Student's guess for coin weight: <b style=\"color:Tomato;\">0.50</b></p>\n                <p>You received a bonus of <b>$0</b>. Total bonus so far: <b>$0.00</b></b></p>\n                <p></p>\n                <p>Press any key to continue.</p>\n                ","response":" ","trial_type":"html-keyboard-response","trial_index":44,"time_elapsed":1005281,"internal_node_id":"0.0-31.0","params":{"nStudents":24,"maxFlips":30,"completionMinutes":45,"basePay":8,"maxBonus":9,"perTrialBonus":0.5,"perTrialBonusThreshold":0.05,"exampleCost":0.01},"classroomParams":{"A":{"a":1,"b":4},"B":{"a":4,"b":1},"C":{"a":2,"b":8},"D":{"a":8,"b":2}},"conditions":["nonSeqFull","nonSeqPartial","seqNoFeedback","seqFeedback"],"classroomPairings":[["A","B"],["C","D"]],"coinWeights":[0.2,0.5,0.8],"subjectId":"A39SK1E6IMQBD5","assignmentId":"3R3YRB5GRGPNVQR9OOFV35PUDDKUAH","hitId":"3UDTAB6HH6LRO17U79I9TKUGSHV90J","url":"https://gershmanlab.com/experiments/alicia/teaching/experiment/?hitId=3UDTAB6HH6LRO17U79I9TKUGSHV90J&workerId=A39SK1E6IMQBD5&assignmentId=3R3YRB5GRGPNVQR9OOFV35PUDDKUAH&a=GR3R9&tp_a=GR3R9&b=3R3YRB5GRGPNVQR9OOFV35PUDDKUAH&tp_b=3R3YRB5GRGPNVQR9OOFV35PUDDKUAH&c=365799&tp_c=365799"},{"rt":null,"stimulus":"<div style=\"font-size:60px;\">Next student</div>","response":null,"trial_type":"html-keyboard-response","trial_index":45,"time_elapsed":1007285,"internal_node_id":"0.0-32.0-0.0","params":{"nStudents":24,"maxFlips":30,"completionMinutes":45,"basePay":8,"maxBonus":9,"perTrialBonus":0.5,"perTrialBonusThreshold":0.05,"exampleCost":0.01},"classroomParams":{"A":{"a":1,"b":4},"B":{"a":4,"b":1},"C":{"a":2,"b":8},"D":{"a":8,"b":2}},"conditions":["nonSeqFull","nonSeqPartial","seqNoFeedback","seqFeedback"],"classroomPairings":[["A","B"],["C","D"]],"coinWeights":[0.2,0.5,0.8],"subjectId":"A39SK1E6IMQBD5","assignmentId":"3R3YRB5GRGPNVQR9OOFV35PUDDKUAH","hitId":"3UDTAB6HH6LRO17U79I9TKUGSHV90J","url":"https://gershmanlab.com/experiments/alicia/teaching/experiment/?hitId=3UDTAB6HH6LRO17U79I9TKUGSHV90J&workerId=A39SK1E6IMQBD5&assignmentId=3R3YRB5GRGPNVQR9OOFV35PUDDKUAH&a=GR3R9&tp_a=GR3R9&b=3R3YRB5GRGPNVQR9OOFV35PUDDKUAH&tp_b=3R3YRB5GRGPNVQR9OOFV35PUDDKUAH&c=365799&tp_c=365799"},{"rt":3874,"stimulus":"\n            <h4 style=\"color:Orange;\">Student 5</h4>\n            <h2>The weight of your coin is <b style=\"color:Tomato;\">0.5</b>.</h2>\n            <p>In this block, you will be giving <b>one</b> set of examples to Student 5.</p>\n                <p>You will receive feedback at the end of the block.</p>\n            <p></p>","response":0,"trial_type":"html-button-response","trial_index":46,"time_elapsed":1011161,"internal_node_id":"0.0-33.0","params":{"nStudents":24,"maxFlips":30,"completionMinutes":45,"basePay":8,"maxBonus":9,"perTrialBonus":0.5,"perTrialBonusThreshold":0.05,"exampleCost":0.01},"classroomParams":{"A":{"a":1,"b":4},"B":{"a":4,"b":1},"C":{"a":2,"b":8},"D":{"a":8,"b":2}},"conditions":["nonSeqFull","nonSeqPartial","seqNoFeedback","seqFeedback"],"classroomPairings":[["A","B"],["C","D"]],"coinWeights":[0.2,0.5,0.8],"subjectId":"A39SK1E6IMQBD5","assignmentId":"3R3YRB5GRGPNVQR9OOFV35PUDDKUAH","hitId":"3UDTAB6HH6LRO17U79I9TKUGSHV90J","url":"https://gershmanlab.com/experiments/alicia/teaching/experiment/?hitId=3UDTAB6HH6LRO17U79I9TKUGSHV90J&workerId=A39SK1E6IMQBD5&assignmentId=3R3YRB5GRGPNVQR9OOFV35PUDDKUAH&a=GR3R9&tp_a=GR3R9&b=3R3YRB5GRGPNVQR9OOFV35PUDDKUAH&tp_b=3R3YRB5GRGPNVQR9OOFV35PUDDKUAH&c=365799&tp_c=365799"},{"rt":15538,"response":{"heads":"3","tails":"0"},"type":"response","condition":"nonSeqFull","trueTheta":0.5,"classrooms":["A","B"],"studentTrueClassroom":"A","exampleSet":"first","trial_type":"survey-html-form","trial_index":47,"time_elapsed":1026700,"internal_node_id":"0.0-34.0-0.0","params":{"nStudents":24,"maxFlips":30,"completionMinutes":45,"basePay":8,"maxBonus":9,"perTrialBonus":0.5,"perTrialBonusThreshold":0.05,"exampleCost":0.01},"classroomParams":{"A":{"a":1,"b":4},"B":{"a":4,"b":1},"C":{"a":2,"b":8},"D":{"a":8,"b":2}},"conditions":["nonSeqFull","nonSeqPartial","seqNoFeedback","seqFeedback"],"classroomPairings":[["A","B"],["C","D"]],"coinWeights":[0.2,0.5,0.8],"subjectId":"A39SK1E6IMQBD5","assignmentId":"3R3YRB5GRGPNVQR9OOFV35PUDDKUAH","hitId":"3UDTAB6HH6LRO17U79I9TKUGSHV90J","url":"https://gershmanlab.com/experiments/alicia/teaching/experiment/?hitId=3UDTAB6HH6LRO17U79I9TKUGSHV90J&workerId=A39SK1E6IMQBD5&assignmentId=3R3YRB5GRGPNVQR9OOFV35PUDDKUAH&a=GR3R9&tp_a=GR3R9&b=3R3YRB5GRGPNVQR9OOFV35PUDDKUAH&tp_b=3R3YRB5GRGPNVQR9OOFV35PUDDKUAH&c=365799&tp_c=365799","heads":3,"tails":0,"studentIndex":4,"studentTrueHypers":{"a":1,"b":4},"studentGuess":0.5,"delta":0,"totalExamples":3,"bonus":0.47,"bonusSoFar":0.47},{"rt":null,"stimulus":"Sending examples to student... ","response":null,"trial_type":"html-keyboard-response","trial_index":48,"time_elapsed":1028710,"internal_node_id":"0.0-35.0","params":{"nStudents":24,"maxFlips":30,"completionMinutes":45,"basePay":8,"maxBonus":9,"perTrialBonus":0.5,"perTrialBonusThreshold":0.05,"exampleCost":0.01},"classroomParams":{"A":{"a":1,"b":4},"B":{"a":4,"b":1},"C":{"a":2,"b":8},"D":{"a":8,"b":2}},"conditions":["nonSeqFull","nonSeqPartial","seqNoFeedback","seqFeedback"],"classroomPairings":[["A","B"],["C","D"]],"coinWeights":[0.2,0.5,0.8],"subjectId":"A39SK1E6IMQBD5","assignmentId":"3R3YRB5GRGPNVQR9OOFV35PUDDKUAH","hitId":"3UDTAB6HH6LRO17U79I9TKUGSHV90J","url":"https://gershmanlab.com/experiments/alicia/teaching/experiment/?hitId=3UDTAB6HH6LRO17U79I9TKUGSHV90J&workerId=A39SK1E6IMQBD5&assignmentId=3R3YRB5GRGPNVQR9OOFV35PUDDKUAH&a=GR3R9&tp_a=GR3R9&b=3R3YRB5GRGPNVQR9OOFV35PUDDKUAH&tp_b=3R3YRB5GRGPNVQR9OOFV35PUDDKUAH&c=365799&tp_c=365799"},{"rt":null,"stimulus":"Examples sent to student! Waiting for student...","response":null,"trial_type":"html-keyboard-response","trial_index":49,"time_elapsed":1033720,"internal_node_id":"0.0-36.0","params":{"nStudents":24,"maxFlips":30,"completionMinutes":45,"basePay":8,"maxBonus":9,"perTrialBonus":0.5,"perTrialBonusThreshold":0.05,"exampleCost":0.01},"classroomParams":{"A":{"a":1,"b":4},"B":{"a":4,"b":1},"C":{"a":2,"b":8},"D":{"a":8,"b":2}},"conditions":["nonSeqFull","nonSeqPartial","seqNoFeedback","seqFeedback"],"classroomPairings":[["A","B"],["C","D"]],"coinWeights":[0.2,0.5,0.8],"subjectId":"A39SK1E6IMQBD5","assignmentId":"3R3YRB5GRGPNVQR9OOFV35PUDDKUAH","hitId":"3UDTAB6HH6LRO17U79I9TKUGSHV90J","url":"https://gershmanlab.com/experiments/alicia/teaching/experiment/?hitId=3UDTAB6HH6LRO17U79I9TKUGSHV90J&workerId=A39SK1E6IMQBD5&assignmentId=3R3YRB5GRGPNVQR9OOFV35PUDDKUAH&a=GR3R9&tp_a=GR3R9&b=3R3YRB5GRGPNVQR9OOFV35PUDDKUAH&tp_b=3R3YRB5GRGPNVQR9OOFV35PUDDKUAH&c=365799&tp_c=365799"},{"rt":5336,"stimulus":"\n                <p>Student's guess for coin weight: <b style=\"color:Tomato;\">0.50</b></p>\n                <p>You received a bonus of <b>$0.47</b>. Total bonus so far: <b>$0.47</b></b></p>\n                <p></p>\n                <p>Press any key to continue.</p>\n                ","response":" ","trial_type":"html-keyboard-response","trial_index":50,"time_elapsed":1039057,"internal_node_id":"0.0-37.0","params":{"nStudents":24,"maxFlips":30,"completionMinutes":45,"basePay":8,"maxBonus":9,"perTrialBonus":0.5,"perTrialBonusThreshold":0.05,"exampleCost":0.01},"classroomParams":{"A":{"a":1,"b":4},"B":{"a":4,"b":1},"C":{"a":2,"b":8},"D":{"a":8,"b":2}},"conditions":["nonSeqFull","nonSeqPartial","seqNoFeedback","seqFeedback"],"classroomPairings":[["A","B"],["C","D"]],"coinWeights":[0.2,0.5,0.8],"subjectId":"A39SK1E6IMQBD5","assignmentId":"3R3YRB5GRGPNVQR9OOFV35PUDDKUAH","hitId":"3UDTAB6HH6LRO17U79I9TKUGSHV90J","url":"https://gershmanlab.com/experiments/alicia/teaching/experiment/?hitId=3UDTAB6HH6LRO17U79I9TKUGSHV90J&workerId=A39SK1E6IMQBD5&assignmentId=3R3YRB5GRGPNVQR9OOFV35PUDDKUAH&a=GR3R9&tp_a=GR3R9&b=3R3YRB5GRGPNVQR9OOFV35PUDDKUAH&tp_b=3R3YRB5GRGPNVQR9OOFV35PUDDKUAH&c=365799&tp_c=365799"},{"rt":null,"stimulus":"<div style=\"font-size:60px;\">Next student</div>","response":null,"trial_type":"html-keyboard-response","trial_index":51,"time_elapsed":1041565,"internal_node_id":"0.0-38.0-0.0","params":{"nStudents":24,"maxFlips":30,"completionMinutes":45,"basePay":8,"maxBonus":9,"perTrialBonus":0.5,"perTrialBonusThreshold":0.05,"exampleCost":0.01},"classroomParams":{"A":{"a":1,"b":4},"B":{"a":4,"b":1},"C":{"a":2,"b":8},"D":{"a":8,"b":2}},"conditions":["nonSeqFull","nonSeqPartial","seqNoFeedback","seqFeedback"],"classroomPairings":[["A","B"],["C","D"]],"coinWeights":[0.2,0.5,0.8],"subjectId":"A39SK1E6IMQBD5","assignmentId":"3R3YRB5GRGPNVQR9OOFV35PUDDKUAH","hitId":"3UDTAB6HH6LRO17U79I9TKUGSHV90J","url":"https://gershmanlab.com/experiments/alicia/teaching/experiment/?hitId=3UDTAB6HH6LRO17U79I9TKUGSHV90J&workerId=A39SK1E6IMQBD5&assignmentId=3R3YRB5GRGPNVQR9OOFV35PUDDKUAH&a=GR3R9&tp_a=GR3R9&b=3R3YRB5GRGPNVQR9OOFV35PUDDKUAH&tp_b=3R3YRB5GRGPNVQR9OOFV35PUDDKUAH&c=365799&tp_c=365799"},{"rt":4879,"stimulus":"\n            <h4 style=\"color:Orange;\">Student 6</h4>\n            <h2>The weight of your coin is <b style=\"color:Tomato;\">0.8</b>.</h2>\n            <p>In this block, you will be giving <b>one</b> set of examples to Student 6.</p>\n                <p>You will receive feedback at the end of the block.</p>\n            <p></p>","response":0,"trial_type":"html-button-response","trial_index":52,"time_elapsed":1046448,"internal_node_id":"0.0-39.0","params":{"nStudents":24,"maxFlips":30,"completionMinutes":45,"basePay":8,"maxBonus":9,"perTrialBonus":0.5,"perTrialBonusThreshold":0.05,"exampleCost":0.01},"classroomParams":{"A":{"a":1,"b":4},"B":{"a":4,"b":1},"C":{"a":2,"b":8},"D":{"a":8,"b":2}},"conditions":["nonSeqFull","nonSeqPartial","seqNoFeedback","seqFeedback"],"classroomPairings":[["A","B"],["C","D"]],"coinWeights":[0.2,0.5,0.8],"subjectId":"A39SK1E6IMQBD5","assignmentId":"3R3YRB5GRGPNVQR9OOFV35PUDDKUAH","hitId":"3UDTAB6HH6LRO17U79I9TKUGSHV90J","url":"https://gershmanlab.com/experiments/alicia/teaching/experiment/?hitId=3UDTAB6HH6LRO17U79I9TKUGSHV90J&workerId=A39SK1E6IMQBD5&assignmentId=3R3YRB5GRGPNVQR9OOFV35PUDDKUAH&a=GR3R9&tp_a=GR3R9&b=3R3YRB5GRGPNVQR9OOFV35PUDDKUAH&tp_b=3R3YRB5GRGPNVQR9OOFV35PUDDKUAH&c=365799&tp_c=365799"},{"rt":16751,"response":{"heads":"0","tails":"0"},"type":"response","condition":"nonSeqPartial","trueTheta":0.8,"classrooms":["C","D"],"studentTrueClassroom":"C","exampleSet":"first","trial_type":"survey-html-form","trial_index":53,"time_elapsed":1063199,"internal_node_id":"0.0-40.0-0.0","params":{"nStudents":24,"maxFlips":30,"completionMinutes":45,"basePay":8,"maxBonus":9,"perTrialBonus":0.5,"perTrialBonusThreshold":0.05,"exampleCost":0.01},"classroomParams":{"A":{"a":1,"b":4},"B":{"a":4,"b":1},"C":{"a":2,"b":8},"D":{"a":8,"b":2}},"conditions":["nonSeqFull","nonSeqPartial","seqNoFeedback","seqFeedback"],"classroomPairings":[["A","B"],["C","D"]],"coinWeights":[0.2,0.5,0.8],"subjectId":"A39SK1E6IMQBD5","assignmentId":"3R3YRB5GRGPNVQR9OOFV35PUDDKUAH","hitId":"3UDTAB6HH6LRO17U79I9TKUGSHV90J","url":"https://gershmanlab.com/experiments/alicia/teaching/experiment/?hitId=3UDTAB6HH6LRO17U79I9TKUGSHV90J&workerId=A39SK1E6IMQBD5&assignmentId=3R3YRB5GRGPNVQR9OOFV35PUDDKUAH&a=GR3R9&tp_a=GR3R9&b=3R3YRB5GRGPNVQR9OOFV35PUDDKUAH&tp_b=3R3YRB5GRGPNVQR9OOFV35PUDDKUAH&c=365799&tp_c=365799","heads":0,"tails":0,"studentIndex":5,"studentTrueHypers":{"a":2,"b":8},"studentGuess":0.2,"delta":0.6000000000000001,"totalExamples":0,"bonus":0,"bonusSoFar":0.47},{"rt":7111,"response":{"heads":"0","tails":"0"},"type":"response","condition":"nonSeqPartial","trueTheta":0.8,"classrooms":["C","D"],"studentTrueClassroom":"C","exampleSet":"first","trial_type":"survey-html-form","trial_index":54,"time_elapsed":1070312,"internal_node_id":"0.0-40.1-0.1","params":{"nStudents":24,"maxFlips":30,"completionMinutes":45,"basePay":8,"maxBonus":9,"perTrialBonus":0.5,"perTrialBonusThreshold":0.05,"exampleCost":0.01},"classroomParams":{"A":{"a":1,"b":4},"B":{"a":4,"b":1},"C":{"a":2,"b":8},"D":{"a":8,"b":2}},"conditions":["nonSeqFull","nonSeqPartial","seqNoFeedback","seqFeedback"],"classroomPairings":[["A","B"],["C","D"]],"coinWeights":[0.2,0.5,0.8],"subjectId":"A39SK1E6IMQBD5","assignmentId":"3R3YRB5GRGPNVQR9OOFV35PUDDKUAH","hitId":"3UDTAB6HH6LRO17U79I9TKUGSHV90J","url":"https://gershmanlab.com/experiments/alicia/teaching/experiment/?hitId=3UDTAB6HH6LRO17U79I9TKUGSHV90J&workerId=A39SK1E6IMQBD5&assignmentId=3R3YRB5GRGPNVQR9OOFV35PUDDKUAH&a=GR3R9&tp_a=GR3R9&b=3R3YRB5GRGPNVQR9OOFV35PUDDKUAH&tp_b=3R3YRB5GRGPNVQR9OOFV35PUDDKUAH&c=365799&tp_c=365799","heads":0,"tails":0,"studentIndex":5,"studentTrueHypers":{"a":2,"b":8},"studentGuess":0.2,"delta":0.6000000000000001,"totalExamples":0,"bonus":0,"bonusSoFar":0.47},{"rt":36701,"response":{"heads":"1","tails":"1"},"type":"response","condition":"nonSeqPartial","trueTheta":0.8,"classrooms":["C","D"],"studentTrueClassroom":"C","exampleSet":"first","trial_type":"survey-html-form","trial_index":55,"time_elapsed":1107014,"internal_node_id":"0.0-40.2-0.2","params":{"nStudents":24,"maxFlips":30,"completionMinutes":45,"basePay":8,"maxBonus":9,"perTrialBonus":0.5,"perTrialBonusThreshold":0.05,"exampleCost":0.01},"classroomParams":{"A":{"a":1,"b":4},"B":{"a":4,"b":1},"C":{"a":2,"b":8},"D":{"a":8,"b":2}},"conditions":["nonSeqFull","nonSeqPartial","seqNoFeedback","seqFeedback"],"classroomPairings":[["A","B"],["C","D"]],"coinWeights":[0.2,0.5,0.8],"subjectId":"A39SK1E6IMQBD5","assignmentId":"3R3YRB5GRGPNVQR9OOFV35PUDDKUAH","hitId":"3UDTAB6HH6LRO17U79I9TKUGSHV90J","url":"https://gershmanlab.com/experiments/alicia/teaching/experiment/?hitId=3UDTAB6HH6LRO17U79I9TKUGSHV90J&workerId=A39SK1E6IMQBD5&assignmentId=3R3YRB5GRGPNVQR9OOFV35PUDDKUAH&a=GR3R9&tp_a=GR3R9&b=3R3YRB5GRGPNVQR9OOFV35PUDDKUAH&tp_b=3R3YRB5GRGPNVQR9OOFV35PUDDKUAH&c=365799&tp_c=365799","heads":1,"tails":1,"studentIndex":5,"studentTrueHypers":{"a":2,"b":8},"studentGuess":0.25,"delta":0.55,"totalExamples":2,"bonus":0,"bonusSoFar":0.47},{"rt":null,"stimulus":"Sending examples to student... ","response":null,"trial_type":"html-keyboard-response","trial_index":56,"time_elapsed":1108271,"internal_node_id":"0.0-41.0","params":{"nStudents":24,"maxFlips":30,"completionMinutes":45,"basePay":8,"maxBonus":9,"perTrialBonus":0.5,"perTrialBonusThreshold":0.05,"exampleCost":0.01},"classroomParams":{"A":{"a":1,"b":4},"B":{"a":4,"b":1},"C":{"a":2,"b":8},"D":{"a":8,"b":2}},"conditions":["nonSeqFull","nonSeqPartial","seqNoFeedback","seqFeedback"],"classroomPairings":[["A","B"],["C","D"]],"coinWeights":[0.2,0.5,0.8],"subjectId":"A39SK1E6IMQBD5","assignmentId":"3R3YRB5GRGPNVQR9OOFV35PUDDKUAH","hitId":"3UDTAB6HH6LRO17U79I9TKUGSHV90J","url":"https://gershmanlab.com/experiments/alicia/teaching/experiment/?hitId=3UDTAB6HH6LRO17U79I9TKUGSHV90J&workerId=A39SK1E6IMQBD5&assignmentId=3R3YRB5GRGPNVQR9OOFV35PUDDKUAH&a=GR3R9&tp_a=GR3R9&b=3R3YRB5GRGPNVQR9OOFV35PUDDKUAH&tp_b=3R3YRB5GRGPNVQR9OOFV35PUDDKUAH&c=365799&tp_c=365799"},{"rt":null,"stimulus":"Examples sent to student! Waiting for student...","response":null,"trial_type":"html-keyboard-response","trial_index":57,"time_elapsed":1113781,"internal_node_id":"0.0-42.0","params":{"nStudents":24,"maxFlips":30,"completionMinutes":45,"basePay":8,"maxBonus":9,"perTrialBonus":0.5,"perTrialBonusThreshold":0.05,"exampleCost":0.01},"classroomParams":{"A":{"a":1,"b":4},"B":{"a":4,"b":1},"C":{"a":2,"b":8},"D":{"a":8,"b":2}},"conditions":["nonSeqFull","nonSeqPartial","seqNoFeedback","seqFeedback"],"classroomPairings":[["A","B"],["C","D"]],"coinWeights":[0.2,0.5,0.8],"subjectId":"A39SK1E6IMQBD5","assignmentId":"3R3YRB5GRGPNVQR9OOFV35PUDDKUAH","hitId":"3UDTAB6HH6LRO17U79I9TKUGSHV90J","url":"https://gershmanlab.com/experiments/alicia/teaching/experiment/?hitId=3UDTAB6HH6LRO17U79I9TKUGSHV90J&workerId=A39SK1E6IMQBD5&assignmentId=3R3YRB5GRGPNVQR9OOFV35PUDDKUAH&a=GR3R9&tp_a=GR3R9&b=3R3YRB5GRGPNVQR9OOFV35PUDDKUAH&tp_b=3R3YRB5GRGPNVQR9OOFV35PUDDKUAH&c=365799&tp_c=365799"},{"rt":6929,"stimulus":"\n                <p>Student's guess for coin weight: <b style=\"color:Tomato;\">0.20</b></p>\n                <p>You received a bonus of <b>$0</b>. Total bonus so far: <b>$0.47</b></b></p>\n                <p></p>\n                <p>Press any key to continue.</p>\n                ","response":" ","trial_type":"html-keyboard-response","trial_index":58,"time_elapsed":1120712,"internal_node_id":"0.0-43.0","params":{"nStudents":24,"maxFlips":30,"completionMinutes":45,"basePay":8,"maxBonus":9,"perTrialBonus":0.5,"perTrialBonusThreshold":0.05,"exampleCost":0.01},"classroomParams":{"A":{"a":1,"b":4},"B":{"a":4,"b":1},"C":{"a":2,"b":8},"D":{"a":8,"b":2}},"conditions":["nonSeqFull","nonSeqPartial","seqNoFeedback","seqFeedback"],"classroomPairings":[["A","B"],["C","D"]],"coinWeights":[0.2,0.5,0.8],"subjectId":"A39SK1E6IMQBD5","assignmentId":"3R3YRB5GRGPNVQR9OOFV35PUDDKUAH","hitId":"3UDTAB6HH6LRO17U79I9TKUGSHV90J","url":"https://gershmanlab.com/experiments/alicia/teaching/experiment/?hitId=3UDTAB6HH6LRO17U79I9TKUGSHV90J&workerId=A39SK1E6IMQBD5&assignmentId=3R3YRB5GRGPNVQR9OOFV35PUDDKUAH&a=GR3R9&tp_a=GR3R9&b=3R3YRB5GRGPNVQR9OOFV35PUDDKUAH&tp_b=3R3YRB5GRGPNVQR9OOFV35PUDDKUAH&c=365799&tp_c=365799"},{"rt":null,"stimulus":"<div style=\"font-size:60px;\">Next student</div>","response":null,"trial_type":"html-keyboard-response","trial_index":59,"time_elapsed":1123215,"internal_node_id":"0.0-44.0-0.0","params":{"nStudents":24,"maxFlips":30,"completionMinutes":45,"basePay":8,"maxBonus":9,"perTrialBonus":0.5,"perTrialBonusThreshold":0.05,"exampleCost":0.01},"classroomParams":{"A":{"a":1,"b":4},"B":{"a":4,"b":1},"C":{"a":2,"b":8},"D":{"a":8,"b":2}},"conditions":["nonSeqFull","nonSeqPartial","seqNoFeedback","seqFeedback"],"classroomPairings":[["A","B"],["C","D"]],"coinWeights":[0.2,0.5,0.8],"subjectId":"A39SK1E6IMQBD5","assignmentId":"3R3YRB5GRGPNVQR9OOFV35PUDDKUAH","hitId":"3UDTAB6HH6LRO17U79I9TKUGSHV90J","url":"https://gershmanlab.com/experiments/alicia/teaching/experiment/?hitId=3UDTAB6HH6LRO17U79I9TKUGSHV90J&workerId=A39SK1E6IMQBD5&assignmentId=3R3YRB5GRGPNVQR9OOFV35PUDDKUAH&a=GR3R9&tp_a=GR3R9&b=3R3YRB5GRGPNVQR9OOFV35PUDDKUAH&tp_b=3R3YRB5GRGPNVQR9OOFV35PUDDKUAH&c=365799&tp_c=365799"},{"rt":3123,"stimulus":"\n            <h4 style=\"color:Orange;\">Student 7</h4>\n            <h2>The weight of your coin is <b style=\"color:Tomato;\">0.8</b>.</h2>\n            <p>In this block, you will be giving <b>one</b> set of examples to Student 7.</p>\n                <p>You will receive feedback at the end of the block.</p>\n            <p></p>","response":0,"trial_type":"html-button-response","trial_index":60,"time_elapsed":1126340,"internal_node_id":"0.0-45.0","params":{"nStudents":24,"maxFlips":30,"completionMinutes":45,"basePay":8,"maxBonus":9,"perTrialBonus":0.5,"perTrialBonusThreshold":0.05,"exampleCost":0.01},"classroomParams":{"A":{"a":1,"b":4},"B":{"a":4,"b":1},"C":{"a":2,"b":8},"D":{"a":8,"b":2}},"conditions":["nonSeqFull","nonSeqPartial","seqNoFeedback","seqFeedback"],"classroomPairings":[["A","B"],["C","D"]],"coinWeights":[0.2,0.5,0.8],"subjectId":"A39SK1E6IMQBD5","assignmentId":"3R3YRB5GRGPNVQR9OOFV35PUDDKUAH","hitId":"3UDTAB6HH6LRO17U79I9TKUGSHV90J","url":"https://gershmanlab.com/experiments/alicia/teaching/experiment/?hitId=3UDTAB6HH6LRO17U79I9TKUGSHV90J&workerId=A39SK1E6IMQBD5&assignmentId=3R3YRB5GRGPNVQR9OOFV35PUDDKUAH&a=GR3R9&tp_a=GR3R9&b=3R3YRB5GRGPNVQR9OOFV35PUDDKUAH&tp_b=3R3YRB5GRGPNVQR9OOFV35PUDDKUAH&c=365799&tp_c=365799"},{"rt":19839,"response":{"heads":"30","tails":"0"},"type":"response","condition":"nonSeqFull","trueTheta":0.8,"classrooms":["C","D"],"studentTrueClassroom":"C","exampleSet":"first","trial_type":"survey-html-form","trial_index":61,"time_elapsed":1146180,"internal_node_id":"0.0-46.0-0.0","params":{"nStudents":24,"maxFlips":30,"completionMinutes":45,"basePay":8,"maxBonus":9,"perTrialBonus":0.5,"perTrialBonusThreshold":0.05,"exampleCost":0.01},"classroomParams":{"A":{"a":1,"b":4},"B":{"a":4,"b":1},"C":{"a":2,"b":8},"D":{"a":8,"b":2}},"conditions":["nonSeqFull","nonSeqPartial","seqNoFeedback","seqFeedback"],"classroomPairings":[["A","B"],["C","D"]],"coinWeights":[0.2,0.5,0.8],"subjectId":"A39SK1E6IMQBD5","assignmentId":"3R3YRB5GRGPNVQR9OOFV35PUDDKUAH","hitId":"3UDTAB6HH6LRO17U79I9TKUGSHV90J","url":"https://gershmanlab.com/experiments/alicia/teaching/experiment/?hitId=3UDTAB6HH6LRO17U79I9TKUGSHV90J&workerId=A39SK1E6IMQBD5&assignmentId=3R3YRB5GRGPNVQR9OOFV35PUDDKUAH&a=GR3R9&tp_a=GR3R9&b=3R3YRB5GRGPNVQR9OOFV35PUDDKUAH&tp_b=3R3YRB5GRGPNVQR9OOFV35PUDDKUAH&c=365799&tp_c=365799","heads":30,"tails":0,"studentIndex":6,"studentTrueHypers":{"a":2,"b":8},"studentGuess":0.8,"delta":0,"totalExamples":30,"bonus":0.2,"bonusSoFar":0.67},{"rt":null,"stimulus":"Sending examples to student... ","response":null,"trial_type":"html-keyboard-response","trial_index":62,"time_elapsed":1148182,"internal_node_id":"0.0-47.0","params":{"nStudents":24,"maxFlips":30,"completionMinutes":45,"basePay":8,"maxBonus":9,"perTrialBonus":0.5,"perTrialBonusThreshold":0.05,"exampleCost":0.01},"classroomParams":{"A":{"a":1,"b":4},"B":{"a":4,"b":1},"C":{"a":2,"b":8},"D":{"a":8,"b":2}},"conditions":["nonSeqFull","nonSeqPartial","seqNoFeedback","seqFeedback"],"classroomPairings":[["A","B"],["C","D"]],"coinWeights":[0.2,0.5,0.8],"subjectId":"A39SK1E6IMQBD5","assignmentId":"3R3YRB5GRGPNVQR9OOFV35PUDDKUAH","hitId":"3UDTAB6HH6LRO17U79I9TKUGSHV90J","url":"https://gershmanlab.com/experiments/alicia/teaching/experiment/?hitId=3UDTAB6HH6LRO17U79I9TKUGSHV90J&workerId=A39SK1E6IMQBD5&assignmentId=3R3YRB5GRGPNVQR9OOFV35PUDDKUAH&a=GR3R9&tp_a=GR3R9&b=3R3YRB5GRGPNVQR9OOFV35PUDDKUAH&tp_b=3R3YRB5GRGPNVQR9OOFV35PUDDKUAH&c=365799&tp_c=365799"},{"rt":null,"stimulus":"Examples sent to student! Waiting for student...","response":null,"trial_type":"html-keyboard-response","trial_index":63,"time_elapsed":1153686,"internal_node_id":"0.0-48.0","params":{"nStudents":24,"maxFlips":30,"completionMinutes":45,"basePay":8,"maxBonus":9,"perTrialBonus":0.5,"perTrialBonusThreshold":0.05,"exampleCost":0.01},"classroomParams":{"A":{"a":1,"b":4},"B":{"a":4,"b":1},"C":{"a":2,"b":8},"D":{"a":8,"b":2}},"conditions":["nonSeqFull","nonSeqPartial","seqNoFeedback","seqFeedback"],"classroomPairings":[["A","B"],["C","D"]],"coinWeights":[0.2,0.5,0.8],"subjectId":"A39SK1E6IMQBD5","assignmentId":"3R3YRB5GRGPNVQR9OOFV35PUDDKUAH","hitId":"3UDTAB6HH6LRO17U79I9TKUGSHV90J","url":"https://gershmanlab.com/experiments/alicia/teaching/experiment/?hitId=3UDTAB6HH6LRO17U79I9TKUGSHV90J&workerId=A39SK1E6IMQBD5&assignmentId=3R3YRB5GRGPNVQR9OOFV35PUDDKUAH&a=GR3R9&tp_a=GR3R9&b=3R3YRB5GRGPNVQR9OOFV35PUDDKUAH&tp_b=3R3YRB5GRGPNVQR9OOFV35PUDDKUAH&c=365799&tp_c=365799"},{"rt":4525,"stimulus":"\n                <p>Student's guess for coin weight: <b style=\"color:Tomato;\">0.80</b></p>\n                <p>You received a bonus of <b>$0.2</b>. Total bonus so far: <b>$0.67</b></b></p>\n                <p></p>\n                <p>Press any key to continue.</p>\n                ","response":" ","trial_type":"html-keyboard-response","trial_index":64,"time_elapsed":1158213,"internal_node_id":"0.0-49.0","params":{"nStudents":24,"maxFlips":30,"completionMinutes":45,"basePay":8,"maxBonus":9,"perTrialBonus":0.5,"perTrialBonusThreshold":0.05,"exampleCost":0.01},"classroomParams":{"A":{"a":1,"b":4},"B":{"a":4,"b":1},"C":{"a":2,"b":8},"D":{"a":8,"b":2}},"conditions":["nonSeqFull","nonSeqPartial","seqNoFeedback","seqFeedback"],"classroomPairings":[["A","B"],["C","D"]],"coinWeights":[0.2,0.5,0.8],"subjectId":"A39SK1E6IMQBD5","assignmentId":"3R3YRB5GRGPNVQR9OOFV35PUDDKUAH","hitId":"3UDTAB6HH6LRO17U79I9TKUGSHV90J","url":"https://gershmanlab.com/experiments/alicia/teaching/experiment/?hitId=3UDTAB6HH6LRO17U79I9TKUGSHV90J&workerId=A39SK1E6IMQBD5&assignmentId=3R3YRB5GRGPNVQR9OOFV35PUDDKUAH&a=GR3R9&tp_a=GR3R9&b=3R3YRB5GRGPNVQR9OOFV35PUDDKUAH&tp_b=3R3YRB5GRGPNVQR9OOFV35PUDDKUAH&c=365799&tp_c=365799"},{"rt":null,"stimulus":"<div style=\"font-size:60px;\">Next student</div>","response":null,"trial_type":"html-keyboard-response","trial_index":65,"time_elapsed":1160471,"internal_node_id":"0.0-50.0-0.0","params":{"nStudents":24,"maxFlips":30,"completionMinutes":45,"basePay":8,"maxBonus":9,"perTrialBonus":0.5,"perTrialBonusThreshold":0.05,"exampleCost":0.01},"classroomParams":{"A":{"a":1,"b":4},"B":{"a":4,"b":1},"C":{"a":2,"b":8},"D":{"a":8,"b":2}},"conditions":["nonSeqFull","nonSeqPartial","seqNoFeedback","seqFeedback"],"classroomPairings":[["A","B"],["C","D"]],"coinWeights":[0.2,0.5,0.8],"subjectId":"A39SK1E6IMQBD5","assignmentId":"3R3YRB5GRGPNVQR9OOFV35PUDDKUAH","hitId":"3UDTAB6HH6LRO17U79I9TKUGSHV90J","url":"https://gershmanlab.com/experiments/alicia/teaching/experiment/?hitId=3UDTAB6HH6LRO17U79I9TKUGSHV90J&workerId=A39SK1E6IMQBD5&assignmentId=3R3YRB5GRGPNVQR9OOFV35PUDDKUAH&a=GR3R9&tp_a=GR3R9&b=3R3YRB5GRGPNVQR9OOFV35PUDDKUAH&tp_b=3R3YRB5GRGPNVQR9OOFV35PUDDKUAH&c=365799&tp_c=365799"},{"rt":5659,"stimulus":"\n            <h4 style=\"color:Orange;\">Student 8</h4>\n            <h2>The weight of your coin is <b style=\"color:Tomato;\">0.2</b>.</h2>\n            <p>In this block, you will be giving <b>two</b> sets of examples to Student 8.</p>\n                <p>You will receive feedback at the end of the block.</p>\n            <p></p>","response":0,"trial_type":"html-button-response","trial_index":66,"time_elapsed":1166132,"internal_node_id":"0.0-51.0","params":{"nStudents":24,"maxFlips":30,"completionMinutes":45,"basePay":8,"maxBonus":9,"perTrialBonus":0.5,"perTrialBonusThreshold":0.05,"exampleCost":0.01},"classroomParams":{"A":{"a":1,"b":4},"B":{"a":4,"b":1},"C":{"a":2,"b":8},"D":{"a":8,"b":2}},"conditions":["nonSeqFull","nonSeqPartial","seqNoFeedback","seqFeedback"],"classroomPairings":[["A","B"],["C","D"]],"coinWeights":[0.2,0.5,0.8],"subjectId":"A39SK1E6IMQBD5","assignmentId":"3R3YRB5GRGPNVQR9OOFV35PUDDKUAH","hitId":"3UDTAB6HH6LRO17U79I9TKUGSHV90J","url":"https://gershmanlab.com/experiments/alicia/teaching/experiment/?hitId=3UDTAB6HH6LRO17U79I9TKUGSHV90J&workerId=A39SK1E6IMQBD5&assignmentId=3R3YRB5GRGPNVQR9OOFV35PUDDKUAH&a=GR3R9&tp_a=GR3R9&b=3R3YRB5GRGPNVQR9OOFV35PUDDKUAH&tp_b=3R3YRB5GRGPNVQR9OOFV35PUDDKUAH&c=365799&tp_c=365799"},{"rt":24457,"response":{"heads":"1","tails":"0"},"type":"response","condition":"seqNoFeedback","trueTheta":0.2,"classrooms":["A","B"],"studentTrueClassroom":"A","exampleSet":"first","trial_type":"survey-html-form","trial_index":67,"time_elapsed":1190591,"internal_node_id":"0.0-52.0-0.0","params":{"nStudents":24,"maxFlips":30,"completionMinutes":45,"basePay":8,"maxBonus":9,"perTrialBonus":0.5,"perTrialBonusThreshold":0.05,"exampleCost":0.01},"classroomParams":{"A":{"a":1,"b":4},"B":{"a":4,"b":1},"C":{"a":2,"b":8},"D":{"a":8,"b":2}},"conditions":["nonSeqFull","nonSeqPartial","seqNoFeedback","seqFeedback"],"classroomPairings":[["A","B"],["C","D"]],"coinWeights":[0.2,0.5,0.8],"subjectId":"A39SK1E6IMQBD5","assignmentId":"3R3YRB5GRGPNVQR9OOFV35PUDDKUAH","hitId":"3UDTAB6HH6LRO17U79I9TKUGSHV90J","url":"https://gershmanlab.com/experiments/alicia/teaching/experiment/?hitId=3UDTAB6HH6LRO17U79I9TKUGSHV90J&workerId=A39SK1E6IMQBD5&assignmentId=3R3YRB5GRGPNVQR9OOFV35PUDDKUAH&a=GR3R9&tp_a=GR3R9&b=3R3YRB5GRGPNVQR9OOFV35PUDDKUAH&tp_b=3R3YRB5GRGPNVQR9OOFV35PUDDKUAH&c=365799&tp_c=365799","heads":1,"tails":0,"studentIndex":7,"studentTrueHypers":{"a":1,"b":4},"studentGuess":0.3333333333333333,"delta":0.1333333333333333,"totalExamples":1,"bonusSoFar":0.67},{"rt":null,"stimulus":"Sending examples to student... ","response":null,"trial_type":"html-keyboard-response","trial_index":68,"time_elapsed":1191845,"internal_node_id":"0.0-53.0","params":{"nStudents":24,"maxFlips":30,"completionMinutes":45,"basePay":8,"maxBonus":9,"perTrialBonus":0.5,"perTrialBonusThreshold":0.05,"exampleCost":0.01},"classroomParams":{"A":{"a":1,"b":4},"B":{"a":4,"b":1},"C":{"a":2,"b":8},"D":{"a":8,"b":2}},"conditions":["nonSeqFull","nonSeqPartial","seqNoFeedback","seqFeedback"],"classroomPairings":[["A","B"],["C","D"]],"coinWeights":[0.2,0.5,0.8],"subjectId":"A39SK1E6IMQBD5","assignmentId":"3R3YRB5GRGPNVQR9OOFV35PUDDKUAH","hitId":"3UDTAB6HH6LRO17U79I9TKUGSHV90J","url":"https://gershmanlab.com/experiments/alicia/teaching/experiment/?hitId=3UDTAB6HH6LRO17U79I9TKUGSHV90J&workerId=A39SK1E6IMQBD5&assignmentId=3R3YRB5GRGPNVQR9OOFV35PUDDKUAH&a=GR3R9&tp_a=GR3R9&b=3R3YRB5GRGPNVQR9OOFV35PUDDKUAH&tp_b=3R3YRB5GRGPNVQR9OOFV35PUDDKUAH&c=365799&tp_c=365799"},{"rt":null,"stimulus":"Examples sent to student! Waiting for student...","response":null,"trial_type":"html-keyboard-response","trial_index":69,"time_elapsed":1197851,"internal_node_id":"0.0-54.0","params":{"nStudents":24,"maxFlips":30,"completionMinutes":45,"basePay":8,"maxBonus":9,"perTrialBonus":0.5,"perTrialBonusThreshold":0.05,"exampleCost":0.01},"classroomParams":{"A":{"a":1,"b":4},"B":{"a":4,"b":1},"C":{"a":2,"b":8},"D":{"a":8,"b":2}},"conditions":["nonSeqFull","nonSeqPartial","seqNoFeedback","seqFeedback"],"classroomPairings":[["A","B"],["C","D"]],"coinWeights":[0.2,0.5,0.8],"subjectId":"A39SK1E6IMQBD5","assignmentId":"3R3YRB5GRGPNVQR9OOFV35PUDDKUAH","hitId":"3UDTAB6HH6LRO17U79I9TKUGSHV90J","url":"https://gershmanlab.com/experiments/alicia/teaching/experiment/?hitId=3UDTAB6HH6LRO17U79I9TKUGSHV90J&workerId=A39SK1E6IMQBD5&assignmentId=3R3YRB5GRGPNVQR9OOFV35PUDDKUAH&a=GR3R9&tp_a=GR3R9&b=3R3YRB5GRGPNVQR9OOFV35PUDDKUAH&tp_b=3R3YRB5GRGPNVQR9OOFV35PUDDKUAH&c=365799&tp_c=365799"},{"rt":11140,"response":{"heads":"0","tails":"0"},"type":"response","condition":"seqNoFeedback","trueTheta":0.2,"classrooms":["A","B"],"studentTrueClassroom":"A","exampleSet":"second","trial_type":"survey-html-form","trial_index":70,"time_elapsed":1208993,"internal_node_id":"0.0-55.0-0.0","params":{"nStudents":24,"maxFlips":30,"completionMinutes":45,"basePay":8,"maxBonus":9,"perTrialBonus":0.5,"perTrialBonusThreshold":0.05,"exampleCost":0.01},"classroomParams":{"A":{"a":1,"b":4},"B":{"a":4,"b":1},"C":{"a":2,"b":8},"D":{"a":8,"b":2}},"conditions":["nonSeqFull","nonSeqPartial","seqNoFeedback","seqFeedback"],"classroomPairings":[["A","B"],["C","D"]],"coinWeights":[0.2,0.5,0.8],"subjectId":"A39SK1E6IMQBD5","assignmentId":"3R3YRB5GRGPNVQR9OOFV35PUDDKUAH","hitId":"3UDTAB6HH6LRO17U79I9TKUGSHV90J","url":"https://gershmanlab.com/experiments/alicia/teaching/experiment/?hitId=3UDTAB6HH6LRO17U79I9TKUGSHV90J&workerId=A39SK1E6IMQBD5&assignmentId=3R3YRB5GRGPNVQR9OOFV35PUDDKUAH&a=GR3R9&tp_a=GR3R9&b=3R3YRB5GRGPNVQR9OOFV35PUDDKUAH&tp_b=3R3YRB5GRGPNVQR9OOFV35PUDDKUAH&c=365799&tp_c=365799","firstResponseHeads":1,"firstResponseTails":0,"secondResponseHeads":0,"secondResponseTails":0,"totalHeads":1,"totalTails":0,"studentIndex":7,"studentTrueHypers":{"a":1,"b":4},"studentGuess":0.3333333333333333,"delta":0.1333333333333333,"bonus":0,"bonusSoFar":0.67,"totalExamples":1},{"rt":4563,"response":{"heads":"1","tails":"1"},"type":"response","condition":"seqNoFeedback","trueTheta":0.2,"classrooms":["A","B"],"studentTrueClassroom":"A","exampleSet":"second","trial_type":"survey-html-form","trial_index":71,"time_elapsed":1213558,"internal_node_id":"0.0-55.1-0.1","params":{"nStudents":24,"maxFlips":30,"completionMinutes":45,"basePay":8,"maxBonus":9,"perTrialBonus":0.5,"perTrialBonusThreshold":0.05,"exampleCost":0.01},"classroomParams":{"A":{"a":1,"b":4},"B":{"a":4,"b":1},"C":{"a":2,"b":8},"D":{"a":8,"b":2}},"conditions":["nonSeqFull","nonSeqPartial","seqNoFeedback","seqFeedback"],"classroomPairings":[["A","B"],["C","D"]],"coinWeights":[0.2,0.5,0.8],"subjectId":"A39SK1E6IMQBD5","assignmentId":"3R3YRB5GRGPNVQR9OOFV35PUDDKUAH","hitId":"3UDTAB6HH6LRO17U79I9TKUGSHV90J","url":"https://gershmanlab.com/experiments/alicia/teaching/experiment/?hitId=3UDTAB6HH6LRO17U79I9TKUGSHV90J&workerId=A39SK1E6IMQBD5&assignmentId=3R3YRB5GRGPNVQR9OOFV35PUDDKUAH&a=GR3R9&tp_a=GR3R9&b=3R3YRB5GRGPNVQR9OOFV35PUDDKUAH&tp_b=3R3YRB5GRGPNVQR9OOFV35PUDDKUAH&c=365799&tp_c=365799","firstResponseHeads":1,"firstResponseTails":0,"secondResponseHeads":1,"secondResponseTails":1,"totalHeads":2,"totalTails":1,"studentIndex":7,"studentTrueHypers":{"a":1,"b":4},"studentGuess":0.375,"delta":0.175,"bonus":0,"bonusSoFar":0.67,"totalExamples":3},{"rt":null,"stimulus":"Sending examples to student... ","response":null,"trial_type":"html-keyboard-response","trial_index":72,"time_elapsed":1214825,"internal_node_id":"0.0-56.0","params":{"nStudents":24,"maxFlips":30,"completionMinutes":45,"basePay":8,"maxBonus":9,"perTrialBonus":0.5,"perTrialBonusThreshold":0.05,"exampleCost":0.01},"classroomParams":{"A":{"a":1,"b":4},"B":{"a":4,"b":1},"C":{"a":2,"b":8},"D":{"a":8,"b":2}},"conditions":["nonSeqFull","nonSeqPartial","seqNoFeedback","seqFeedback"],"classroomPairings":[["A","B"],["C","D"]],"coinWeights":[0.2,0.5,0.8],"subjectId":"A39SK1E6IMQBD5","assignmentId":"3R3YRB5GRGPNVQR9OOFV35PUDDKUAH","hitId":"3UDTAB6HH6LRO17U79I9TKUGSHV90J","url":"https://gershmanlab.com/experiments/alicia/teaching/experiment/?hitId=3UDTAB6HH6LRO17U79I9TKUGSHV90J&workerId=A39SK1E6IMQBD5&assignmentId=3R3YRB5GRGPNVQR9OOFV35PUDDKUAH&a=GR3R9&tp_a=GR3R9&b=3R3YRB5GRGPNVQR9OOFV35PUDDKUAH&tp_b=3R3YRB5GRGPNVQR9OOFV35PUDDKUAH&c=365799&tp_c=365799"},{"rt":null,"stimulus":"Examples sent to student! Waiting for student...","response":null,"trial_type":"html-keyboard-response","trial_index":73,"time_elapsed":1220337,"internal_node_id":"0.0-57.0","params":{"nStudents":24,"maxFlips":30,"completionMinutes":45,"basePay":8,"maxBonus":9,"perTrialBonus":0.5,"perTrialBonusThreshold":0.05,"exampleCost":0.01},"classroomParams":{"A":{"a":1,"b":4},"B":{"a":4,"b":1},"C":{"a":2,"b":8},"D":{"a":8,"b":2}},"conditions":["nonSeqFull","nonSeqPartial","seqNoFeedback","seqFeedback"],"classroomPairings":[["A","B"],["C","D"]],"coinWeights":[0.2,0.5,0.8],"subjectId":"A39SK1E6IMQBD5","assignmentId":"3R3YRB5GRGPNVQR9OOFV35PUDDKUAH","hitId":"3UDTAB6HH6LRO17U79I9TKUGSHV90J","url":"https://gershmanlab.com/experiments/alicia/teaching/experiment/?hitId=3UDTAB6HH6LRO17U79I9TKUGSHV90J&workerId=A39SK1E6IMQBD5&assignmentId=3R3YRB5GRGPNVQR9OOFV35PUDDKUAH&a=GR3R9&tp_a=GR3R9&b=3R3YRB5GRGPNVQR9OOFV35PUDDKUAH&tp_b=3R3YRB5GRGPNVQR9OOFV35PUDDKUAH&c=365799&tp_c=365799"},{"rt":8399,"stimulus":"\n                <p>Student 8's first guess for coin weight: <b style=\"color:Tomato\";>0.33</b></p>\n                <p>Student 8's second guess for coin weight: <b style=\"color:Tomato\";>0.33</b></p>\n                <p>You received a bonus of <b>$0.00</b> based on the student's second guess.</p>\n                <p>Total bonus so far: <b>$0.67</b></p>\n                <p>Press any key to continue.</p>\n                ","response":" ","trial_type":"html-keyboard-response","trial_index":74,"time_elapsed":1228738,"internal_node_id":"0.0-58.0","params":{"nStudents":24,"maxFlips":30,"completionMinutes":45,"basePay":8,"maxBonus":9,"perTrialBonus":0.5,"perTrialBonusThreshold":0.05,"exampleCost":0.01},"classroomParams":{"A":{"a":1,"b":4},"B":{"a":4,"b":1},"C":{"a":2,"b":8},"D":{"a":8,"b":2}},"conditions":["nonSeqFull","nonSeqPartial","seqNoFeedback","seqFeedback"],"classroomPairings":[["A","B"],["C","D"]],"coinWeights":[0.2,0.5,0.8],"subjectId":"A39SK1E6IMQBD5","assignmentId":"3R3YRB5GRGPNVQR9OOFV35PUDDKUAH","hitId":"3UDTAB6HH6LRO17U79I9TKUGSHV90J","url":"https://gershmanlab.com/experiments/alicia/teaching/experiment/?hitId=3UDTAB6HH6LRO17U79I9TKUGSHV90J&workerId=A39SK1E6IMQBD5&assignmentId=3R3YRB5GRGPNVQR9OOFV35PUDDKUAH&a=GR3R9&tp_a=GR3R9&b=3R3YRB5GRGPNVQR9OOFV35PUDDKUAH&tp_b=3R3YRB5GRGPNVQR9OOFV35PUDDKUAH&c=365799&tp_c=365799"},{"rt":null,"stimulus":"<div style=\"font-size:60px;\">Next student</div>","response":null,"trial_type":"html-keyboard-response","trial_index":75,"time_elapsed":1230991,"internal_node_id":"0.0-59.0-0.0","params":{"nStudents":24,"maxFlips":30,"completionMinutes":45,"basePay":8,"maxBonus":9,"perTrialBonus":0.5,"perTrialBonusThreshold":0.05,"exampleCost":0.01},"classroomParams":{"A":{"a":1,"b":4},"B":{"a":4,"b":1},"C":{"a":2,"b":8},"D":{"a":8,"b":2}},"conditions":["nonSeqFull","nonSeqPartial","seqNoFeedback","seqFeedback"],"classroomPairings":[["A","B"],["C","D"]],"coinWeights":[0.2,0.5,0.8],"subjectId":"A39SK1E6IMQBD5","assignmentId":"3R3YRB5GRGPNVQR9OOFV35PUDDKUAH","hitId":"3UDTAB6HH6LRO17U79I9TKUGSHV90J","url":"https://gershmanlab.com/experiments/alicia/teaching/experiment/?hitId=3UDTAB6HH6LRO17U79I9TKUGSHV90J&workerId=A39SK1E6IMQBD5&assignmentId=3R3YRB5GRGPNVQR9OOFV35PUDDKUAH&a=GR3R9&tp_a=GR3R9&b=3R3YRB5GRGPNVQR9OOFV35PUDDKUAH&tp_b=3R3YRB5GRGPNVQR9OOFV35PUDDKUAH&c=365799&tp_c=365799"},{"rt":4912,"stimulus":"\n            <h4 style=\"color:Orange;\">Student 9</h4>\n            <h2>The weight of your coin is <b style=\"color:Tomato;\">0.5</b>.</h2>\n            <p>In this block, you will be giving <b>two</b> sets of examples to Student 9.</p>\n                <p>You will receive feedback at the end of the block.</p>\n            <p></p>","response":0,"trial_type":"html-button-response","trial_index":76,"time_elapsed":1235906,"internal_node_id":"0.0-60.0","params":{"nStudents":24,"maxFlips":30,"completionMinutes":45,"basePay":8,"maxBonus":9,"perTrialBonus":0.5,"perTrialBonusThreshold":0.05,"exampleCost":0.01},"classroomParams":{"A":{"a":1,"b":4},"B":{"a":4,"b":1},"C":{"a":2,"b":8},"D":{"a":8,"b":2}},"conditions":["nonSeqFull","nonSeqPartial","seqNoFeedback","seqFeedback"],"classroomPairings":[["A","B"],["C","D"]],"coinWeights":[0.2,0.5,0.8],"subjectId":"A39SK1E6IMQBD5","assignmentId":"3R3YRB5GRGPNVQR9OOFV35PUDDKUAH","hitId":"3UDTAB6HH6LRO17U79I9TKUGSHV90J","url":"https://gershmanlab.com/experiments/alicia/teaching/experiment/?hitId=3UDTAB6HH6LRO17U79I9TKUGSHV90J&workerId=A39SK1E6IMQBD5&assignmentId=3R3YRB5GRGPNVQR9OOFV35PUDDKUAH&a=GR3R9&tp_a=GR3R9&b=3R3YRB5GRGPNVQR9OOFV35PUDDKUAH&tp_b=3R3YRB5GRGPNVQR9OOFV35PUDDKUAH&c=365799&tp_c=365799"},{"rt":7623,"response":{"heads":"1","tails":"1"},"type":"response","condition":"seqNoFeedback","trueTheta":0.5,"classrooms":["C","D"],"studentTrueClassroom":"C","exampleSet":"first","trial_type":"survey-html-form","trial_index":77,"time_elapsed":1243530,"internal_node_id":"0.0-61.0-0.0","params":{"nStudents":24,"maxFlips":30,"completionMinutes":45,"basePay":8,"maxBonus":9,"perTrialBonus":0.5,"perTrialBonusThreshold":0.05,"exampleCost":0.01},"classroomParams":{"A":{"a":1,"b":4},"B":{"a":4,"b":1},"C":{"a":2,"b":8},"D":{"a":8,"b":2}},"conditions":["nonSeqFull","nonSeqPartial","seqNoFeedback","seqFeedback"],"classroomPairings":[["A","B"],["C","D"]],"coinWeights":[0.2,0.5,0.8],"subjectId":"A39SK1E6IMQBD5","assignmentId":"3R3YRB5GRGPNVQR9OOFV35PUDDKUAH","hitId":"3UDTAB6HH6LRO17U79I9TKUGSHV90J","url":"https://gershmanlab.com/experiments/alicia/teaching/experiment/?hitId=3UDTAB6HH6LRO17U79I9TKUGSHV90J&workerId=A39SK1E6IMQBD5&assignmentId=3R3YRB5GRGPNVQR9OOFV35PUDDKUAH&a=GR3R9&tp_a=GR3R9&b=3R3YRB5GRGPNVQR9OOFV35PUDDKUAH&tp_b=3R3YRB5GRGPNVQR9OOFV35PUDDKUAH&c=365799&tp_c=365799","heads":1,"tails":1,"studentIndex":8,"studentTrueHypers":{"a":2,"b":8},"studentGuess":0.25,"delta":0.25,"totalExamples":2,"bonusSoFar":0.67},{"rt":null,"stimulus":"Sending examples to student... ","response":null,"trial_type":"html-keyboard-response","trial_index":78,"time_elapsed":1245035,"internal_node_id":"0.0-62.0","params":{"nStudents":24,"maxFlips":30,"completionMinutes":45,"basePay":8,"maxBonus":9,"perTrialBonus":0.5,"perTrialBonusThreshold":0.05,"exampleCost":0.01},"classroomParams":{"A":{"a":1,"b":4},"B":{"a":4,"b":1},"C":{"a":2,"b":8},"D":{"a":8,"b":2}},"conditions":["nonSeqFull","nonSeqPartial","seqNoFeedback","seqFeedback"],"classroomPairings":[["A","B"],["C","D"]],"coinWeights":[0.2,0.5,0.8],"subjectId":"A39SK1E6IMQBD5","assignmentId":"3R3YRB5GRGPNVQR9OOFV35PUDDKUAH","hitId":"3UDTAB6HH6LRO17U79I9TKUGSHV90J","url":"https://gershmanlab.com/experiments/alicia/teaching/experiment/?hitId=3UDTAB6HH6LRO17U79I9TKUGSHV90J&workerId=A39SK1E6IMQBD5&assignmentId=3R3YRB5GRGPNVQR9OOFV35PUDDKUAH&a=GR3R9&tp_a=GR3R9&b=3R3YRB5GRGPNVQR9OOFV35PUDDKUAH&tp_b=3R3YRB5GRGPNVQR9OOFV35PUDDKUAH&c=365799&tp_c=365799"},{"rt":null,"stimulus":"Examples sent to student! Waiting for student...","response":null,"trial_type":"html-keyboard-response","trial_index":79,"time_elapsed":1251048,"internal_node_id":"0.0-63.0","params":{"nStudents":24,"maxFlips":30,"completionMinutes":45,"basePay":8,"maxBonus":9,"perTrialBonus":0.5,"perTrialBonusThreshold":0.05,"exampleCost":0.01},"classroomParams":{"A":{"a":1,"b":4},"B":{"a":4,"b":1},"C":{"a":2,"b":8},"D":{"a":8,"b":2}},"conditions":["nonSeqFull","nonSeqPartial","seqNoFeedback","seqFeedback"],"classroomPairings":[["A","B"],["C","D"]],"coinWeights":[0.2,0.5,0.8],"subjectId":"A39SK1E6IMQBD5","assignmentId":"3R3YRB5GRGPNVQR9OOFV35PUDDKUAH","hitId":"3UDTAB6HH6LRO17U79I9TKUGSHV90J","url":"https://gershmanlab.com/experiments/alicia/teaching/experiment/?hitId=3UDTAB6HH6LRO17U79I9TKUGSHV90J&workerId=A39SK1E6IMQBD5&assignmentId=3R3YRB5GRGPNVQR9OOFV35PUDDKUAH&a=GR3R9&tp_a=GR3R9&b=3R3YRB5GRGPNVQR9OOFV35PUDDKUAH&tp_b=3R3YRB5GRGPNVQR9OOFV35PUDDKUAH&c=365799&tp_c=365799"},{"rt":9469,"response":{"heads":"1","tails":"1"},"type":"response","condition":"seqNoFeedback","trueTheta":0.5,"classrooms":["C","D"],"studentTrueClassroom":"C","exampleSet":"second","trial_type":"survey-html-form","trial_index":80,"time_elapsed":1260520,"internal_node_id":"0.0-64.0-0.0","params":{"nStudents":24,"maxFlips":30,"completionMinutes":45,"basePay":8,"maxBonus":9,"perTrialBonus":0.5,"perTrialBonusThreshold":0.05,"exampleCost":0.01},"classroomParams":{"A":{"a":1,"b":4},"B":{"a":4,"b":1},"C":{"a":2,"b":8},"D":{"a":8,"b":2}},"conditions":["nonSeqFull","nonSeqPartial","seqNoFeedback","seqFeedback"],"classroomPairings":[["A","B"],["C","D"]],"coinWeights":[0.2,0.5,0.8],"subjectId":"A39SK1E6IMQBD5","assignmentId":"3R3YRB5GRGPNVQR9OOFV35PUDDKUAH","hitId":"3UDTAB6HH6LRO17U79I9TKUGSHV90J","url":"https://gershmanlab.com/experiments/alicia/teaching/experiment/?hitId=3UDTAB6HH6LRO17U79I9TKUGSHV90J&workerId=A39SK1E6IMQBD5&assignmentId=3R3YRB5GRGPNVQR9OOFV35PUDDKUAH&a=GR3R9&tp_a=GR3R9&b=3R3YRB5GRGPNVQR9OOFV35PUDDKUAH&tp_b=3R3YRB5GRGPNVQR9OOFV35PUDDKUAH&c=365799&tp_c=365799","firstResponseHeads":1,"firstResponseTails":1,"secondResponseHeads":1,"secondResponseTails":1,"totalHeads":2,"totalTails":2,"studentIndex":8,"studentTrueHypers":{"a":2,"b":8},"studentGuess":0.2857142857142857,"delta":0.2142857142857143,"bonus":0,"bonusSoFar":0.67,"totalExamples":4},{"rt":null,"stimulus":"Sending examples to student... ","response":null,"trial_type":"html-keyboard-response","trial_index":81,"time_elapsed":1261771,"internal_node_id":"0.0-65.0","params":{"nStudents":24,"maxFlips":30,"completionMinutes":45,"basePay":8,"maxBonus":9,"perTrialBonus":0.5,"perTrialBonusThreshold":0.05,"exampleCost":0.01},"classroomParams":{"A":{"a":1,"b":4},"B":{"a":4,"b":1},"C":{"a":2,"b":8},"D":{"a":8,"b":2}},"conditions":["nonSeqFull","nonSeqPartial","seqNoFeedback","seqFeedback"],"classroomPairings":[["A","B"],["C","D"]],"coinWeights":[0.2,0.5,0.8],"subjectId":"A39SK1E6IMQBD5","assignmentId":"3R3YRB5GRGPNVQR9OOFV35PUDDKUAH","hitId":"3UDTAB6HH6LRO17U79I9TKUGSHV90J","url":"https://gershmanlab.com/experiments/alicia/teaching/experiment/?hitId=3UDTAB6HH6LRO17U79I9TKUGSHV90J&workerId=A39SK1E6IMQBD5&assignmentId=3R3YRB5GRGPNVQR9OOFV35PUDDKUAH&a=GR3R9&tp_a=GR3R9&b=3R3YRB5GRGPNVQR9OOFV35PUDDKUAH&tp_b=3R3YRB5GRGPNVQR9OOFV35PUDDKUAH&c=365799&tp_c=365799"},{"rt":null,"stimulus":"Examples sent to student! Waiting for student...","response":null,"trial_type":"html-keyboard-response","trial_index":82,"time_elapsed":1265775,"internal_node_id":"0.0-66.0","params":{"nStudents":24,"maxFlips":30,"completionMinutes":45,"basePay":8,"maxBonus":9,"perTrialBonus":0.5,"perTrialBonusThreshold":0.05,"exampleCost":0.01},"classroomParams":{"A":{"a":1,"b":4},"B":{"a":4,"b":1},"C":{"a":2,"b":8},"D":{"a":8,"b":2}},"conditions":["nonSeqFull","nonSeqPartial","seqNoFeedback","seqFeedback"],"classroomPairings":[["A","B"],["C","D"]],"coinWeights":[0.2,0.5,0.8],"subjectId":"A39SK1E6IMQBD5","assignmentId":"3R3YRB5GRGPNVQR9OOFV35PUDDKUAH","hitId":"3UDTAB6HH6LRO17U79I9TKUGSHV90J","url":"https://gershmanlab.com/experiments/alicia/teaching/experiment/?hitId=3UDTAB6HH6LRO17U79I9TKUGSHV90J&workerId=A39SK1E6IMQBD5&assignmentId=3R3YRB5GRGPNVQR9OOFV35PUDDKUAH&a=GR3R9&tp_a=GR3R9&b=3R3YRB5GRGPNVQR9OOFV35PUDDKUAH&tp_b=3R3YRB5GRGPNVQR9OOFV35PUDDKUAH&c=365799&tp_c=365799"},{"rt":4520,"stimulus":"\n                <p>Student 9's first guess for coin weight: <b style=\"color:Tomato\";>0.25</b></p>\n                <p>Student 9's second guess for coin weight: <b style=\"color:Tomato\";>0.29</b></p>\n                <p>You received a bonus of <b>$0.00</b> based on the student's second guess.</p>\n                <p>Total bonus so far: <b>$0.67</b></p>\n                <p>Press any key to continue.</p>\n                ","response":" ","trial_type":"html-keyboard-response","trial_index":83,"time_elapsed":1270296,"internal_node_id":"0.0-67.0","params":{"nStudents":24,"maxFlips":30,"completionMinutes":45,"basePay":8,"maxBonus":9,"perTrialBonus":0.5,"perTrialBonusThreshold":0.05,"exampleCost":0.01},"classroomParams":{"A":{"a":1,"b":4},"B":{"a":4,"b":1},"C":{"a":2,"b":8},"D":{"a":8,"b":2}},"conditions":["nonSeqFull","nonSeqPartial","seqNoFeedback","seqFeedback"],"classroomPairings":[["A","B"],["C","D"]],"coinWeights":[0.2,0.5,0.8],"subjectId":"A39SK1E6IMQBD5","assignmentId":"3R3YRB5GRGPNVQR9OOFV35PUDDKUAH","hitId":"3UDTAB6HH6LRO17U79I9TKUGSHV90J","url":"https://gershmanlab.com/experiments/alicia/teaching/experiment/?hitId=3UDTAB6HH6LRO17U79I9TKUGSHV90J&workerId=A39SK1E6IMQBD5&assignmentId=3R3YRB5GRGPNVQR9OOFV35PUDDKUAH&a=GR3R9&tp_a=GR3R9&b=3R3YRB5GRGPNVQR9OOFV35PUDDKUAH&tp_b=3R3YRB5GRGPNVQR9OOFV35PUDDKUAH&c=365799&tp_c=365799"},{"rt":null,"stimulus":"<div style=\"font-size:60px;\">Next student</div>","response":null,"trial_type":"html-keyboard-response","trial_index":84,"time_elapsed":1272300,"internal_node_id":"0.0-68.0-0.0","params":{"nStudents":24,"maxFlips":30,"completionMinutes":45,"basePay":8,"maxBonus":9,"perTrialBonus":0.5,"perTrialBonusThreshold":0.05,"exampleCost":0.01},"classroomParams":{"A":{"a":1,"b":4},"B":{"a":4,"b":1},"C":{"a":2,"b":8},"D":{"a":8,"b":2}},"conditions":["nonSeqFull","nonSeqPartial","seqNoFeedback","seqFeedback"],"classroomPairings":[["A","B"],["C","D"]],"coinWeights":[0.2,0