[{"rt":17223,"stimulus":"Welcome to the experiment. Press any key to begin.","response":" ","trial_type":"html-keyboard-response","trial_index":0,"time_elapsed":17293,"internal_node_id":"0.0-0.0","params":{"nStudents":24,"maxFlips":30,"completionMinutes":45,"basePay":8,"maxBonus":9,"perTrialBonus":0.5,"perTrialBonusThreshold":0.05,"exampleCost":0.01},"classroomParams":{"A":{"a":1,"b":4},"B":{"a":4,"b":1},"C":{"a":2,"b":8},"D":{"a":8,"b":2}},"conditions":["nonSeqFull","nonSeqPartial","seqNoFeedback","seqFeedback"],"classroomPairings":[["A","B"],["C","D"]],"coinWeights":[0.2,0.5,0.8],"subjectId":"A3C8JI69WPTKWH","assignmentId":"3OLF68YTNANYC8UJTZKWH5OR3Q5FA3","hitId":"3AQN9REUTF20OMGWRXYK787QVFOYDP","url":"https://gershmanlab.com/experiments/alicia/teaching/experiment/?hitId=3AQN9REUTF20OMGWRXYK787QVFOYDP&workerId=A3C8JI69WPTKWH&assignmentId=3OLF68YTNANYC8UJTZKWH5OR3Q5FA3&a=T6LO9&tp_a=T6LO9&b=3OLF68YTNANYC8UJTZKWH5OR3Q5FA3&tp_b=3OLF68YTNANYC8UJTZKWH5OR3Q5FA3&c=365799&tp_c=365799"},{"rt":63042,"stimulus":"\n        <h3>Please read this consent agreement carefully before deciding whether to participate in this experiment.</h3>\n        <p><b>Purpose of the research:</b> To examine how people teach effectively.</p>\n        <p><b>What you will do in this research:</b> You will teach students the weights of different coins.</p>\n        <p><b>Time required:</b> This experiment will take 45 minutes to complete.</p>\n        <p><b>Risks:</b> There are no anticipated risks associated with participating in this study.             The effects of participating should be comparable to those you would experience from viewing a computer monitor             and using a mouse and keyboard for the duration of the experiment.</p>\n        <p><b>Benefits:</b> The study provides important information about the nature of teaching.</p>\n        <p><b>Compensation:</b> You will receive <b>$8</b> for completing the experiment and a performance bonus of up to <b>$9</b>.</p>\n        <p><b>Confidentiality:</b> Your participation in this study will remain confidential.             No personally identifiable information will be associated with your data.             Your de-identified data may be shared with other researchers and used in future projects.</p>\n        <p><b>Participation and withdrawal:</b> Your participation in this study is completely voluntary and             you may refuse to participate or you may choose to withdraw at any time without penalty or loss of\n            benefits to which you are otherwise entitled.</p>\n        <p><b>How to contact the researcher:</b> If you have questions or concerns about your participation            or payment, or want to request a summary of research findings, please contact\n            Alicia Chen, aliciachen@college.harvard.edu.</p>\n        <p><b>Whom to contact about your rights in this research:</b> For questions, concerns, suggestions,             or complaints that have not been or cannot be addressed by the researcher, or to report             research-related harm, please contact the Committee on the Use of Human Subjects in Research at Harvard University,             1414 Massachusetts Avenue, Second Floor, Cambridge, MA 02138. Phone: 617-496-2847. Email: cuhs@fas.harvard.edu.</p>\n        ","response":0,"trial_type":"html-button-response","trial_index":1,"time_elapsed":80335,"internal_node_id":"0.0-1.0","params":{"nStudents":24,"maxFlips":30,"completionMinutes":45,"basePay":8,"maxBonus":9,"perTrialBonus":0.5,"perTrialBonusThreshold":0.05,"exampleCost":0.01},"classroomParams":{"A":{"a":1,"b":4},"B":{"a":4,"b":1},"C":{"a":2,"b":8},"D":{"a":8,"b":2}},"conditions":["nonSeqFull","nonSeqPartial","seqNoFeedback","seqFeedback"],"classroomPairings":[["A","B"],["C","D"]],"coinWeights":[0.2,0.5,0.8],"subjectId":"A3C8JI69WPTKWH","assignmentId":"3OLF68YTNANYC8UJTZKWH5OR3Q5FA3","hitId":"3AQN9REUTF20OMGWRXYK787QVFOYDP","url":"https://gershmanlab.com/experiments/alicia/teaching/experiment/?hitId=3AQN9REUTF20OMGWRXYK787QVFOYDP&workerId=A3C8JI69WPTKWH&assignmentId=3OLF68YTNANYC8UJTZKWH5OR3Q5FA3&a=T6LO9&tp_a=T6LO9&b=3OLF68YTNANYC8UJTZKWH5OR3Q5FA3&tp_b=3OLF68YTNANYC8UJTZKWH5OR3Q5FA3&c=365799&tp_c=365799"},{"view_history":[{"page_index":0,"viewing_time":8450},{"page_index":1,"viewing_time":5044},{"page_index":2,"viewing_time":68767},{"page_index":3,"viewing_time":133518},{"page_index":4,"viewing_time":15605},{"page_index":5,"viewing_time":97407},{"page_index":6,"viewing_time":55081}],"rt":383873,"trial_type":"instructions","trial_index":2,"time_elapsed":464197,"internal_node_id":"0.0-2.0-0.0","params":{"nStudents":24,"maxFlips":30,"completionMinutes":45,"basePay":8,"maxBonus":9,"perTrialBonus":0.5,"perTrialBonusThreshold":0.05,"exampleCost":0.01},"classroomParams":{"A":{"a":1,"b":4},"B":{"a":4,"b":1},"C":{"a":2,"b":8},"D":{"a":8,"b":2}},"conditions":["nonSeqFull","nonSeqPartial","seqNoFeedback","seqFeedback"],"classroomPairings":[["A","B"],["C","D"]],"coinWeights":[0.2,0.5,0.8],"subjectId":"A3C8JI69WPTKWH","assignmentId":"3OLF68YTNANYC8UJTZKWH5OR3Q5FA3","hitId":"3AQN9REUTF20OMGWRXYK787QVFOYDP","url":"https://gershmanlab.com/experiments/alicia/teaching/experiment/?hitId=3AQN9REUTF20OMGWRXYK787QVFOYDP&workerId=A3C8JI69WPTKWH&assignmentId=3OLF68YTNANYC8UJTZKWH5OR3Q5FA3&a=T6LO9&tp_a=T6LO9&b=3OLF68YTNANYC8UJTZKWH5OR3Q5FA3&tp_b=3OLF68YTNANYC8UJTZKWH5OR3Q5FA3&c=365799&tp_c=365799"},{"rt":307839,"response":{"Q0":"Students in different classrooms will have seen a different number of heads and tails before seeing the examples you select for them.","Q1":"By <b>considering the student's classroom information</b> so that I can teach efficiently and accurately/helpfully at the same time (because each example I give to the student costs money!).","Q2":"The coin lands heads 90% of the time.","Q3":"No, I will teach a <b>new</b> student each time.","Q4":"The students are also on the same alien planet as you, where coins can be unfair.","Q5":"Based on the student's second (and final) guess."},"question_order":[5,1,3,2,4,0],"trial_type":"survey-multi-choice","trial_index":3,"time_elapsed":772043,"internal_node_id":"0.0-2.0-1.0","params":{"nStudents":24,"maxFlips":30,"completionMinutes":45,"basePay":8,"maxBonus":9,"perTrialBonus":0.5,"perTrialBonusThreshold":0.05,"exampleCost":0.01},"classroomParams":{"A":{"a":1,"b":4},"B":{"a":4,"b":1},"C":{"a":2,"b":8},"D":{"a":8,"b":2}},"conditions":["nonSeqFull","nonSeqPartial","seqNoFeedback","seqFeedback"],"classroomPairings":[["A","B"],["C","D"]],"coinWeights":[0.2,0.5,0.8],"subjectId":"A3C8JI69WPTKWH","assignmentId":"3OLF68YTNANYC8UJTZKWH5OR3Q5FA3","hitId":"3AQN9REUTF20OMGWRXYK787QVFOYDP","url":"https://gershmanlab.com/experiments/alicia/teaching/experiment/?hitId=3AQN9REUTF20OMGWRXYK787QVFOYDP&workerId=A3C8JI69WPTKWH&assignmentId=3OLF68YTNANYC8UJTZKWH5OR3Q5FA3&a=T6LO9&tp_a=T6LO9&b=3OLF68YTNANYC8UJTZKWH5OR3Q5FA3&tp_b=3OLF68YTNANYC8UJTZKWH5OR3Q5FA3&c=365799&tp_c=365799","pass":true},{"rt":null,"stimulus":"<div style=\"font-size:30px;\">Congrats on passing the comprehension quiz! The experiment will begin in a few seconds.</div>","response":null,"trial_type":"html-keyboard-response","trial_index":4,"time_elapsed":775071,"internal_node_id":"0.0-3.0","params":{"nStudents":24,"maxFlips":30,"completionMinutes":45,"basePay":8,"maxBonus":9,"perTrialBonus":0.5,"perTrialBonusThreshold":0.05,"exampleCost":0.01},"classroomParams":{"A":{"a":1,"b":4},"B":{"a":4,"b":1},"C":{"a":2,"b":8},"D":{"a":8,"b":2}},"conditions":["nonSeqFull","nonSeqPartial","seqNoFeedback","seqFeedback"],"classroomPairings":[["A","B"],["C","D"]],"coinWeights":[0.2,0.5,0.8],"subjectId":"A3C8JI69WPTKWH","assignmentId":"3OLF68YTNANYC8UJTZKWH5OR3Q5FA3","hitId":"3AQN9REUTF20OMGWRXYK787QVFOYDP","url":"https://gershmanlab.com/experiments/alicia/teaching/experiment/?hitId=3AQN9REUTF20OMGWRXYK787QVFOYDP&workerId=A3C8JI69WPTKWH&assignmentId=3OLF68YTNANYC8UJTZKWH5OR3Q5FA3&a=T6LO9&tp_a=T6LO9&b=3OLF68YTNANYC8UJTZKWH5OR3Q5FA3&tp_b=3OLF68YTNANYC8UJTZKWH5OR3Q5FA3&c=365799&tp_c=365799"},{"rt":null,"stimulus":"<div style=\"font-size:50px;\">First student</div>","response":null,"trial_type":"html-keyboard-response","trial_index":5,"time_elapsed":778073,"internal_node_id":"0.0-4.0","params":{"nStudents":24,"maxFlips":30,"completionMinutes":45,"basePay":8,"maxBonus":9,"perTrialBonus":0.5,"perTrialBonusThreshold":0.05,"exampleCost":0.01},"classroomParams":{"A":{"a":1,"b":4},"B":{"a":4,"b":1},"C":{"a":2,"b":8},"D":{"a":8,"b":2}},"conditions":["nonSeqFull","nonSeqPartial","seqNoFeedback","seqFeedback"],"classroomPairings":[["A","B"],["C","D"]],"coinWeights":[0.2,0.5,0.8],"subjectId":"A3C8JI69WPTKWH","assignmentId":"3OLF68YTNANYC8UJTZKWH5OR3Q5FA3","hitId":"3AQN9REUTF20OMGWRXYK787QVFOYDP","url":"https://gershmanlab.com/experiments/alicia/teaching/experiment/?hitId=3AQN9REUTF20OMGWRXYK787QVFOYDP&workerId=A3C8JI69WPTKWH&assignmentId=3OLF68YTNANYC8UJTZKWH5OR3Q5FA3&a=T6LO9&tp_a=T6LO9&b=3OLF68YTNANYC8UJTZKWH5OR3Q5FA3&tp_b=3OLF68YTNANYC8UJTZKWH5OR3Q5FA3&c=365799&tp_c=365799"},{"rt":17142,"stimulus":"\n            <h4 style=\"color:Orange;\">Student 1</h4>\n            <h2>The weight of your coin is <b style=\"color:Tomato;\">0.8</b>.</h2>\n            <p>In this block, you will be giving <b>two</b> sets of examples to Student 1.</p>\n                <p>You will see the student's guess after the first set of examples. You will also receive feedback at the end of the block.</p>\n            <p>To earn the highest bonus, you will have to <b>take into consideration the student's guess</b> when you choose your second set of examples.</p>","response":0,"trial_type":"html-button-response","trial_index":6,"time_elapsed":795220,"internal_node_id":"0.0-5.0","params":{"nStudents":24,"maxFlips":30,"completionMinutes":45,"basePay":8,"maxBonus":9,"perTrialBonus":0.5,"perTrialBonusThreshold":0.05,"exampleCost":0.01},"classroomParams":{"A":{"a":1,"b":4},"B":{"a":4,"b":1},"C":{"a":2,"b":8},"D":{"a":8,"b":2}},"conditions":["nonSeqFull","nonSeqPartial","seqNoFeedback","seqFeedback"],"classroomPairings":[["A","B"],["C","D"]],"coinWeights":[0.2,0.5,0.8],"subjectId":"A3C8JI69WPTKWH","assignmentId":"3OLF68YTNANYC8UJTZKWH5OR3Q5FA3","hitId":"3AQN9REUTF20OMGWRXYK787QVFOYDP","url":"https://gershmanlab.com/experiments/alicia/teaching/experiment/?hitId=3AQN9REUTF20OMGWRXYK787QVFOYDP&workerId=A3C8JI69WPTKWH&assignmentId=3OLF68YTNANYC8UJTZKWH5OR3Q5FA3&a=T6LO9&tp_a=T6LO9&b=3OLF68YTNANYC8UJTZKWH5OR3Q5FA3&tp_b=3OLF68YTNANYC8UJTZKWH5OR3Q5FA3&c=365799&tp_c=365799"},{"rt":94239,"response":{"heads":"4","tails":"0"},"type":"response","condition":"seqFeedback","trueTheta":0.8,"classrooms":["A","B"],"studentTrueClassroom":"B","exampleSet":"first","trial_type":"survey-html-form","trial_index":7,"time_elapsed":889465,"internal_node_id":"0.0-6.0-0.0","params":{"nStudents":24,"maxFlips":30,"completionMinutes":45,"basePay":8,"maxBonus":9,"perTrialBonus":0.5,"perTrialBonusThreshold":0.05,"exampleCost":0.01},"classroomParams":{"A":{"a":1,"b":4},"B":{"a":4,"b":1},"C":{"a":2,"b":8},"D":{"a":8,"b":2}},"conditions":["nonSeqFull","nonSeqPartial","seqNoFeedback","seqFeedback"],"classroomPairings":[["A","B"],["C","D"]],"coinWeights":[0.2,0.5,0.8],"subjectId":"A3C8JI69WPTKWH","assignmentId":"3OLF68YTNANYC8UJTZKWH5OR3Q5FA3","hitId":"3AQN9REUTF20OMGWRXYK787QVFOYDP","url":"https://gershmanlab.com/experiments/alicia/teaching/experiment/?hitId=3AQN9REUTF20OMGWRXYK787QVFOYDP&workerId=A3C8JI69WPTKWH&assignmentId=3OLF68YTNANYC8UJTZKWH5OR3Q5FA3&a=T6LO9&tp_a=T6LO9&b=3OLF68YTNANYC8UJTZKWH5OR3Q5FA3&tp_b=3OLF68YTNANYC8UJTZKWH5OR3Q5FA3&c=365799&tp_c=365799","heads":4,"tails":0,"studentIndex":0,"studentTrueHypers":{"a":4,"b":1},"studentGuess":0.8888888888888888,"delta":0.0888888888888888,"totalExamples":4,"bonusSoFar":0},{"rt":null,"stimulus":"Sending examples to student... ","response":null,"trial_type":"html-keyboard-response","trial_index":8,"time_elapsed":891469,"internal_node_id":"0.0-7.0","params":{"nStudents":24,"maxFlips":30,"completionMinutes":45,"basePay":8,"maxBonus":9,"perTrialBonus":0.5,"perTrialBonusThreshold":0.05,"exampleCost":0.01},"classroomParams":{"A":{"a":1,"b":4},"B":{"a":4,"b":1},"C":{"a":2,"b":8},"D":{"a":8,"b":2}},"conditions":["nonSeqFull","nonSeqPartial","seqNoFeedback","seqFeedback"],"classroomPairings":[["A","B"],["C","D"]],"coinWeights":[0.2,0.5,0.8],"subjectId":"A3C8JI69WPTKWH","assignmentId":"3OLF68YTNANYC8UJTZKWH5OR3Q5FA3","hitId":"3AQN9REUTF20OMGWRXYK787QVFOYDP","url":"https://gershmanlab.com/experiments/alicia/teaching/experiment/?hitId=3AQN9REUTF20OMGWRXYK787QVFOYDP&workerId=A3C8JI69WPTKWH&assignmentId=3OLF68YTNANYC8UJTZKWH5OR3Q5FA3&a=T6LO9&tp_a=T6LO9&b=3OLF68YTNANYC8UJTZKWH5OR3Q5FA3&tp_b=3OLF68YTNANYC8UJTZKWH5OR3Q5FA3&c=365799&tp_c=365799"},{"rt":null,"stimulus":"Examples sent to student! Waiting for student...","response":null,"trial_type":"html-keyboard-response","trial_index":9,"time_elapsed":895973,"internal_node_id":"0.0-8.0","params":{"nStudents":24,"maxFlips":30,"completionMinutes":45,"basePay":8,"maxBonus":9,"perTrialBonus":0.5,"perTrialBonusThreshold":0.05,"exampleCost":0.01},"classroomParams":{"A":{"a":1,"b":4},"B":{"a":4,"b":1},"C":{"a":2,"b":8},"D":{"a":8,"b":2}},"conditions":["nonSeqFull","nonSeqPartial","seqNoFeedback","seqFeedback"],"classroomPairings":[["A","B"],["C","D"]],"coinWeights":[0.2,0.5,0.8],"subjectId":"A3C8JI69WPTKWH","assignmentId":"3OLF68YTNANYC8UJTZKWH5OR3Q5FA3","hitId":"3AQN9REUTF20OMGWRXYK787QVFOYDP","url":"https://gershmanlab.com/experiments/alicia/teaching/experiment/?hitId=3AQN9REUTF20OMGWRXYK787QVFOYDP&workerId=A3C8JI69WPTKWH&assignmentId=3OLF68YTNANYC8UJTZKWH5OR3Q5FA3&a=T6LO9&tp_a=T6LO9&b=3OLF68YTNANYC8UJTZKWH5OR3Q5FA3&tp_b=3OLF68YTNANYC8UJTZKWH5OR3Q5FA3&c=365799&tp_c=365799"},{"rt":9976,"stimulus":"\n                <p>Student's guess for coin weight: <b style=\"color:Tomato;\">0.89</b></p>\n                <p></b></p>\n                <p>You will now send another set of examples to your student. <b>Remember to take your student's guess into consideration so that you can earn the highest bonus possible!</b> </p>\n                <p>Press any key to continue.</p>\n                ","response":" ","trial_type":"html-keyboard-response","trial_index":10,"time_elapsed":905950,"internal_node_id":"0.0-9.0","params":{"nStudents":24,"maxFlips":30,"completionMinutes":45,"basePay":8,"maxBonus":9,"perTrialBonus":0.5,"perTrialBonusThreshold":0.05,"exampleCost":0.01},"classroomParams":{"A":{"a":1,"b":4},"B":{"a":4,"b":1},"C":{"a":2,"b":8},"D":{"a":8,"b":2}},"conditions":["nonSeqFull","nonSeqPartial","seqNoFeedback","seqFeedback"],"classroomPairings":[["A","B"],["C","D"]],"coinWeights":[0.2,0.5,0.8],"subjectId":"A3C8JI69WPTKWH","assignmentId":"3OLF68YTNANYC8UJTZKWH5OR3Q5FA3","hitId":"3AQN9REUTF20OMGWRXYK787QVFOYDP","url":"https://gershmanlab.com/experiments/alicia/teaching/experiment/?hitId=3AQN9REUTF20OMGWRXYK787QVFOYDP&workerId=A3C8JI69WPTKWH&assignmentId=3OLF68YTNANYC8UJTZKWH5OR3Q5FA3&a=T6LO9&tp_a=T6LO9&b=3OLF68YTNANYC8UJTZKWH5OR3Q5FA3&tp_b=3OLF68YTNANYC8UJTZKWH5OR3Q5FA3&c=365799&tp_c=365799"},{"rt":21372,"response":{"heads":"4","tails":"1"},"type":"response","condition":"seqFeedback","trueTheta":0.8,"classrooms":["A","B"],"studentTrueClassroom":"B","exampleSet":"second","trial_type":"survey-html-form","trial_index":11,"time_elapsed":927323,"internal_node_id":"0.0-10.0-0.0","params":{"nStudents":24,"maxFlips":30,"completionMinutes":45,"basePay":8,"maxBonus":9,"perTrialBonus":0.5,"perTrialBonusThreshold":0.05,"exampleCost":0.01},"classroomParams":{"A":{"a":1,"b":4},"B":{"a":4,"b":1},"C":{"a":2,"b":8},"D":{"a":8,"b":2}},"conditions":["nonSeqFull","nonSeqPartial","seqNoFeedback","seqFeedback"],"classroomPairings":[["A","B"],["C","D"]],"coinWeights":[0.2,0.5,0.8],"subjectId":"A3C8JI69WPTKWH","assignmentId":"3OLF68YTNANYC8UJTZKWH5OR3Q5FA3","hitId":"3AQN9REUTF20OMGWRXYK787QVFOYDP","url":"https://gershmanlab.com/experiments/alicia/teaching/experiment/?hitId=3AQN9REUTF20OMGWRXYK787QVFOYDP&workerId=A3C8JI69WPTKWH&assignmentId=3OLF68YTNANYC8UJTZKWH5OR3Q5FA3&a=T6LO9&tp_a=T6LO9&b=3OLF68YTNANYC8UJTZKWH5OR3Q5FA3&tp_b=3OLF68YTNANYC8UJTZKWH5OR3Q5FA3&c=365799&tp_c=365799","firstResponseHeads":4,"firstResponseTails":0,"secondResponseHeads":4,"secondResponseTails":1,"totalHeads":8,"totalTails":1,"studentIndex":0,"studentTrueHypers":{"a":4,"b":1},"studentGuess":0.8571428571428571,"delta":0.05714285714285705,"bonus":0,"bonusSoFar":0,"totalExamples":9},{"rt":null,"stimulus":"Sending examples to student... ","response":null,"trial_type":"html-keyboard-response","trial_index":12,"time_elapsed":929328,"internal_node_id":"0.0-11.0","params":{"nStudents":24,"maxFlips":30,"completionMinutes":45,"basePay":8,"maxBonus":9,"perTrialBonus":0.5,"perTrialBonusThreshold":0.05,"exampleCost":0.01},"classroomParams":{"A":{"a":1,"b":4},"B":{"a":4,"b":1},"C":{"a":2,"b":8},"D":{"a":8,"b":2}},"conditions":["nonSeqFull","nonSeqPartial","seqNoFeedback","seqFeedback"],"classroomPairings":[["A","B"],["C","D"]],"coinWeights":[0.2,0.5,0.8],"subjectId":"A3C8JI69WPTKWH","assignmentId":"3OLF68YTNANYC8UJTZKWH5OR3Q5FA3","hitId":"3AQN9REUTF20OMGWRXYK787QVFOYDP","url":"https://gershmanlab.com/experiments/alicia/teaching/experiment/?hitId=3AQN9REUTF20OMGWRXYK787QVFOYDP&workerId=A3C8JI69WPTKWH&assignmentId=3OLF68YTNANYC8UJTZKWH5OR3Q5FA3&a=T6LO9&tp_a=T6LO9&b=3OLF68YTNANYC8UJTZKWH5OR3Q5FA3&tp_b=3OLF68YTNANYC8UJTZKWH5OR3Q5FA3&c=365799&tp_c=365799"},{"rt":null,"stimulus":"Examples sent to student! Waiting for student...","response":null,"trial_type":"html-keyboard-response","trial_index":13,"time_elapsed":934329,"internal_node_id":"0.0-12.0","params":{"nStudents":24,"maxFlips":30,"completionMinutes":45,"basePay":8,"maxBonus":9,"perTrialBonus":0.5,"perTrialBonusThreshold":0.05,"exampleCost":0.01},"classroomParams":{"A":{"a":1,"b":4},"B":{"a":4,"b":1},"C":{"a":2,"b":8},"D":{"a":8,"b":2}},"conditions":["nonSeqFull","nonSeqPartial","seqNoFeedback","seqFeedback"],"classroomPairings":[["A","B"],["C","D"]],"coinWeights":[0.2,0.5,0.8],"subjectId":"A3C8JI69WPTKWH","assignmentId":"3OLF68YTNANYC8UJTZKWH5OR3Q5FA3","hitId":"3AQN9REUTF20OMGWRXYK787QVFOYDP","url":"https://gershmanlab.com/experiments/alicia/teaching/experiment/?hitId=3AQN9REUTF20OMGWRXYK787QVFOYDP&workerId=A3C8JI69WPTKWH&assignmentId=3OLF68YTNANYC8UJTZKWH5OR3Q5FA3&a=T6LO9&tp_a=T6LO9&b=3OLF68YTNANYC8UJTZKWH5OR3Q5FA3&tp_b=3OLF68YTNANYC8UJTZKWH5OR3Q5FA3&c=365799&tp_c=365799"},{"rt":7473,"stimulus":"\n                <p>Student 1's first guess for coin weight: <b style=\"color:Tomato\";>0.89</b></p>\n                <p>Student 1's second guess for coin weight: <b style=\"color:Tomato\";>0.86</b></p>\n                <p>You received a bonus of <b>$0.00</b> based on the student's second guess.</p>\n                <p>Total bonus so far: <b>$0.00</b></p>\n                <p>Press any key to continue.</p>\n                ","response":" ","trial_type":"html-keyboard-response","trial_index":14,"time_elapsed":941802,"internal_node_id":"0.0-13.0","params":{"nStudents":24,"maxFlips":30,"completionMinutes":45,"basePay":8,"maxBonus":9,"perTrialBonus":0.5,"perTrialBonusThreshold":0.05,"exampleCost":0.01},"classroomParams":{"A":{"a":1,"b":4},"B":{"a":4,"b":1},"C":{"a":2,"b":8},"D":{"a":8,"b":2}},"conditions":["nonSeqFull","nonSeqPartial","seqNoFeedback","seqFeedback"],"classroomPairings":[["A","B"],["C","D"]],"coinWeights":[0.2,0.5,0.8],"subjectId":"A3C8JI69WPTKWH","assignmentId":"3OLF68YTNANYC8UJTZKWH5OR3Q5FA3","hitId":"3AQN9REUTF20OMGWRXYK787QVFOYDP","url":"https://gershmanlab.com/experiments/alicia/teaching/experiment/?hitId=3AQN9REUTF20OMGWRXYK787QVFOYDP&workerId=A3C8JI69WPTKWH&assignmentId=3OLF68YTNANYC8UJTZKWH5OR3Q5FA3&a=T6LO9&tp_a=T6LO9&b=3OLF68YTNANYC8UJTZKWH5OR3Q5FA3&tp_b=3OLF68YTNANYC8UJTZKWH5OR3Q5FA3&c=365799&tp_c=365799"},{"rt":null,"stimulus":"<div style=\"font-size:60px;\">Next student</div>","response":null,"trial_type":"html-keyboard-response","trial_index":15,"time_elapsed":943805,"internal_node_id":"0.0-14.0-0.0","params":{"nStudents":24,"maxFlips":30,"completionMinutes":45,"basePay":8,"maxBonus":9,"perTrialBonus":0.5,"perTrialBonusThreshold":0.05,"exampleCost":0.01},"classroomParams":{"A":{"a":1,"b":4},"B":{"a":4,"b":1},"C":{"a":2,"b":8},"D":{"a":8,"b":2}},"conditions":["nonSeqFull","nonSeqPartial","seqNoFeedback","seqFeedback"],"classroomPairings":[["A","B"],["C","D"]],"coinWeights":[0.2,0.5,0.8],"subjectId":"A3C8JI69WPTKWH","assignmentId":"3OLF68YTNANYC8UJTZKWH5OR3Q5FA3","hitId":"3AQN9REUTF20OMGWRXYK787QVFOYDP","url":"https://gershmanlab.com/experiments/alicia/teaching/experiment/?hitId=3AQN9REUTF20OMGWRXYK787QVFOYDP&workerId=A3C8JI69WPTKWH&assignmentId=3OLF68YTNANYC8UJTZKWH5OR3Q5FA3&a=T6LO9&tp_a=T6LO9&b=3OLF68YTNANYC8UJTZKWH5OR3Q5FA3&tp_b=3OLF68YTNANYC8UJTZKWH5OR3Q5FA3&c=365799&tp_c=365799"},{"rt":7035,"stimulus":"\n            <h4 style=\"color:Orange;\">Student 2</h4>\n            <h2>The weight of your coin is <b style=\"color:Tomato;\">0.5</b>.</h2>\n            <p>In this block, you will be giving <b>two</b> sets of examples to Student 2.</p>\n                <p>You will see the student's guess after the first set of examples. You will also receive feedback at the end of the block.</p>\n            <p>To earn the highest bonus, you will have to <b>take into consideration the student's guess</b> when you choose your second set of examples.</p>","response":0,"trial_type":"html-button-response","trial_index":16,"time_elapsed":950841,"internal_node_id":"0.0-15.0","params":{"nStudents":24,"maxFlips":30,"completionMinutes":45,"basePay":8,"maxBonus":9,"perTrialBonus":0.5,"perTrialBonusThreshold":0.05,"exampleCost":0.01},"classroomParams":{"A":{"a":1,"b":4},"B":{"a":4,"b":1},"C":{"a":2,"b":8},"D":{"a":8,"b":2}},"conditions":["nonSeqFull","nonSeqPartial","seqNoFeedback","seqFeedback"],"classroomPairings":[["A","B"],["C","D"]],"coinWeights":[0.2,0.5,0.8],"subjectId":"A3C8JI69WPTKWH","assignmentId":"3OLF68YTNANYC8UJTZKWH5OR3Q5FA3","hitId":"3AQN9REUTF20OMGWRXYK787QVFOYDP","url":"https://gershmanlab.com/experiments/alicia/teaching/experiment/?hitId=3AQN9REUTF20OMGWRXYK787QVFOYDP&workerId=A3C8JI69WPTKWH&assignmentId=3OLF68YTNANYC8UJTZKWH5OR3Q5FA3&a=T6LO9&tp_a=T6LO9&b=3OLF68YTNANYC8UJTZKWH5OR3Q5FA3&tp_b=3OLF68YTNANYC8UJTZKWH5OR3Q5FA3&c=365799&tp_c=365799"},{"rt":18843,"response":{"heads":"0","tails":"3"},"type":"response","condition":"seqFeedback","trueTheta":0.5,"classrooms":["A","B"],"studentTrueClassroom":"A","exampleSet":"first","trial_type":"survey-html-form","trial_index":17,"time_elapsed":969685,"internal_node_id":"0.0-16.0-0.0","params":{"nStudents":24,"maxFlips":30,"completionMinutes":45,"basePay":8,"maxBonus":9,"perTrialBonus":0.5,"perTrialBonusThreshold":0.05,"exampleCost":0.01},"classroomParams":{"A":{"a":1,"b":4},"B":{"a":4,"b":1},"C":{"a":2,"b":8},"D":{"a":8,"b":2}},"conditions":["nonSeqFull","nonSeqPartial","seqNoFeedback","seqFeedback"],"classroomPairings":[["A","B"],["C","D"]],"coinWeights":[0.2,0.5,0.8],"subjectId":"A3C8JI69WPTKWH","assignmentId":"3OLF68YTNANYC8UJTZKWH5OR3Q5FA3","hitId":"3AQN9REUTF20OMGWRXYK787QVFOYDP","url":"https://gershmanlab.com/experiments/alicia/teaching/experiment/?hitId=3AQN9REUTF20OMGWRXYK787QVFOYDP&workerId=A3C8JI69WPTKWH&assignmentId=3OLF68YTNANYC8UJTZKWH5OR3Q5FA3&a=T6LO9&tp_a=T6LO9&b=3OLF68YTNANYC8UJTZKWH5OR3Q5FA3&tp_b=3OLF68YTNANYC8UJTZKWH5OR3Q5FA3&c=365799&tp_c=365799","heads":0,"tails":3,"studentIndex":1,"studentTrueHypers":{"a":1,"b":4},"studentGuess":0.125,"delta":0.375,"totalExamples":3,"bonusSoFar":0},{"rt":null,"stimulus":"Sending examples to student... ","response":null,"trial_type":"html-keyboard-response","trial_index":18,"time_elapsed":971686,"internal_node_id":"0.0-17.0","params":{"nStudents":24,"maxFlips":30,"completionMinutes":45,"basePay":8,"maxBonus":9,"perTrialBonus":0.5,"perTrialBonusThreshold":0.05,"exampleCost":0.01},"classroomParams":{"A":{"a":1,"b":4},"B":{"a":4,"b":1},"C":{"a":2,"b":8},"D":{"a":8,"b":2}},"conditions":["nonSeqFull","nonSeqPartial","seqNoFeedback","seqFeedback"],"classroomPairings":[["A","B"],["C","D"]],"coinWeights":[0.2,0.5,0.8],"subjectId":"A3C8JI69WPTKWH","assignmentId":"3OLF68YTNANYC8UJTZKWH5OR3Q5FA3","hitId":"3AQN9REUTF20OMGWRXYK787QVFOYDP","url":"https://gershmanlab.com/experiments/alicia/teaching/experiment/?hitId=3AQN9REUTF20OMGWRXYK787QVFOYDP&workerId=A3C8JI69WPTKWH&assignmentId=3OLF68YTNANYC8UJTZKWH5OR3Q5FA3&a=T6LO9&tp_a=T6LO9&b=3OLF68YTNANYC8UJTZKWH5OR3Q5FA3&tp_b=3OLF68YTNANYC8UJTZKWH5OR3Q5FA3&c=365799&tp_c=365799"},{"rt":null,"stimulus":"Examples sent to student! Waiting for student...","response":null,"trial_type":"html-keyboard-response","trial_index":19,"time_elapsed":977192,"internal_node_id":"0.0-18.0","params":{"nStudents":24,"maxFlips":30,"completionMinutes":45,"basePay":8,"maxBonus":9,"perTrialBonus":0.5,"perTrialBonusThreshold":0.05,"exampleCost":0.01},"classroomParams":{"A":{"a":1,"b":4},"B":{"a":4,"b":1},"C":{"a":2,"b":8},"D":{"a":8,"b":2}},"conditions":["nonSeqFull","nonSeqPartial","seqNoFeedback","seqFeedback"],"classroomPairings":[["A","B"],["C","D"]],"coinWeights":[0.2,0.5,0.8],"subjectId":"A3C8JI69WPTKWH","assignmentId":"3OLF68YTNANYC8UJTZKWH5OR3Q5FA3","hitId":"3AQN9REUTF20OMGWRXYK787QVFOYDP","url":"https://gershmanlab.com/experiments/alicia/teaching/experiment/?hitId=3AQN9REUTF20OMGWRXYK787QVFOYDP&workerId=A3C8JI69WPTKWH&assignmentId=3OLF68YTNANYC8UJTZKWH5OR3Q5FA3&a=T6LO9&tp_a=T6LO9&b=3OLF68YTNANYC8UJTZKWH5OR3Q5FA3&tp_b=3OLF68YTNANYC8UJTZKWH5OR3Q5FA3&c=365799&tp_c=365799"},{"rt":5760,"stimulus":"\n                <p>Student's guess for coin weight: <b style=\"color:Tomato;\">0.13</b></p>\n                <p></b></p>\n                <p>You will now send another set of examples to your student. <b>Remember to take your student's guess into consideration so that you can earn the highest bonus possible!</b> </p>\n                <p>Press any key to continue.</p>\n                ","response":" ","trial_type":"html-keyboard-response","trial_index":20,"time_elapsed":982953,"internal_node_id":"0.0-19.0","params":{"nStudents":24,"maxFlips":30,"completionMinutes":45,"basePay":8,"maxBonus":9,"perTrialBonus":0.5,"perTrialBonusThreshold":0.05,"exampleCost":0.01},"classroomParams":{"A":{"a":1,"b":4},"B":{"a":4,"b":1},"C":{"a":2,"b":8},"D":{"a":8,"b":2}},"conditions":["nonSeqFull","nonSeqPartial","seqNoFeedback","seqFeedback"],"classroomPairings":[["A","B"],["C","D"]],"coinWeights":[0.2,0.5,0.8],"subjectId":"A3C8JI69WPTKWH","assignmentId":"3OLF68YTNANYC8UJTZKWH5OR3Q5FA3","hitId":"3AQN9REUTF20OMGWRXYK787QVFOYDP","url":"https://gershmanlab.com/experiments/alicia/teaching/experiment/?hitId=3AQN9REUTF20OMGWRXYK787QVFOYDP&workerId=A3C8JI69WPTKWH&assignmentId=3OLF68YTNANYC8UJTZKWH5OR3Q5FA3&a=T6LO9&tp_a=T6LO9&b=3OLF68YTNANYC8UJTZKWH5OR3Q5FA3&tp_b=3OLF68YTNANYC8UJTZKWH5OR3Q5FA3&c=365799&tp_c=365799"},{"rt":23499,"response":{"heads":"3","tails":"0"},"type":"response","condition":"seqFeedback","trueTheta":0.5,"classrooms":["A","B"],"studentTrueClassroom":"A","exampleSet":"second","trial_type":"survey-html-form","trial_index":21,"time_elapsed":1006456,"internal_node_id":"0.0-20.0-0.0","params":{"nStudents":24,"maxFlips":30,"completionMinutes":45,"basePay":8,"maxBonus":9,"perTrialBonus":0.5,"perTrialBonusThreshold":0.05,"exampleCost":0.01},"classroomParams":{"A":{"a":1,"b":4},"B":{"a":4,"b":1},"C":{"a":2,"b":8},"D":{"a":8,"b":2}},"conditions":["nonSeqFull","nonSeqPartial","seqNoFeedback","seqFeedback"],"classroomPairings":[["A","B"],["C","D"]],"coinWeights":[0.2,0.5,0.8],"subjectId":"A3C8JI69WPTKWH","assignmentId":"3OLF68YTNANYC8UJTZKWH5OR3Q5FA3","hitId":"3AQN9REUTF20OMGWRXYK787QVFOYDP","url":"https://gershmanlab.com/experiments/alicia/teaching/experiment/?hitId=3AQN9REUTF20OMGWRXYK787QVFOYDP&workerId=A3C8JI69WPTKWH&assignmentId=3OLF68YTNANYC8UJTZKWH5OR3Q5FA3&a=T6LO9&tp_a=T6LO9&b=3OLF68YTNANYC8UJTZKWH5OR3Q5FA3&tp_b=3OLF68YTNANYC8UJTZKWH5OR3Q5FA3&c=365799&tp_c=365799","firstResponseHeads":0,"firstResponseTails":3,"secondResponseHeads":3,"secondResponseTails":0,"totalHeads":3,"totalTails":3,"studentIndex":1,"studentTrueHypers":{"a":1,"b":4},"studentGuess":0.36363636363636365,"delta":0.13636363636363635,"bonus":0,"bonusSoFar":0,"totalExamples":6},{"rt":null,"stimulus":"Sending examples to student... ","response":null,"trial_type":"html-keyboard-response","trial_index":22,"time_elapsed":1007715,"internal_node_id":"0.0-21.0","params":{"nStudents":24,"maxFlips":30,"completionMinutes":45,"basePay":8,"maxBonus":9,"perTrialBonus":0.5,"perTrialBonusThreshold":0.05,"exampleCost":0.01},"classroomParams":{"A":{"a":1,"b":4},"B":{"a":4,"b":1},"C":{"a":2,"b":8},"D":{"a":8,"b":2}},"conditions":["nonSeqFull","nonSeqPartial","seqNoFeedback","seqFeedback"],"classroomPairings":[["A","B"],["C","D"]],"coinWeights":[0.2,0.5,0.8],"subjectId":"A3C8JI69WPTKWH","assignmentId":"3OLF68YTNANYC8UJTZKWH5OR3Q5FA3","hitId":"3AQN9REUTF20OMGWRXYK787QVFOYDP","url":"https://gershmanlab.com/experiments/alicia/teaching/experiment/?hitId=3AQN9REUTF20OMGWRXYK787QVFOYDP&workerId=A3C8JI69WPTKWH&assignmentId=3OLF68YTNANYC8UJTZKWH5OR3Q5FA3&a=T6LO9&tp_a=T6LO9&b=3OLF68YTNANYC8UJTZKWH5OR3Q5FA3&tp_b=3OLF68YTNANYC8UJTZKWH5OR3Q5FA3&c=365799&tp_c=365799"},{"rt":null,"stimulus":"Examples sent to student! Waiting for student...","response":null,"trial_type":"html-keyboard-response","trial_index":23,"time_elapsed":1013217,"internal_node_id":"0.0-22.0","params":{"nStudents":24,"maxFlips":30,"completionMinutes":45,"basePay":8,"maxBonus":9,"perTrialBonus":0.5,"perTrialBonusThreshold":0.05,"exampleCost":0.01},"classroomParams":{"A":{"a":1,"b":4},"B":{"a":4,"b":1},"C":{"a":2,"b":8},"D":{"a":8,"b":2}},"conditions":["nonSeqFull","nonSeqPartial","seqNoFeedback","seqFeedback"],"classroomPairings":[["A","B"],["C","D"]],"coinWeights":[0.2,0.5,0.8],"subjectId":"A3C8JI69WPTKWH","assignmentId":"3OLF68YTNANYC8UJTZKWH5OR3Q5FA3","hitId":"3AQN9REUTF20OMGWRXYK787QVFOYDP","url":"https://gershmanlab.com/experiments/alicia/teaching/experiment/?hitId=3AQN9REUTF20OMGWRXYK787QVFOYDP&workerId=A3C8JI69WPTKWH&assignmentId=3OLF68YTNANYC8UJTZKWH5OR3Q5FA3&a=T6LO9&tp_a=T6LO9&b=3OLF68YTNANYC8UJTZKWH5OR3Q5FA3&tp_b=3OLF68YTNANYC8UJTZKWH5OR3Q5FA3&c=365799&tp_c=365799"},{"rt":7871,"stimulus":"\n                <p>Student 2's first guess for coin weight: <b style=\"color:Tomato\";>0.13</b></p>\n                <p>Student 2's second guess for coin weight: <b style=\"color:Tomato\";>0.36</b></p>\n                <p>You received a bonus of <b>$0.00</b> based on the student's second guess.</p>\n                <p>Total bonus so far: <b>$0.00</b></p>\n                <p>Press any key to continue.</p>\n                ","response":" ","trial_type":"html-keyboard-response","trial_index":24,"time_elapsed":1021089,"internal_node_id":"0.0-23.0","params":{"nStudents":24,"maxFlips":30,"completionMinutes":45,"basePay":8,"maxBonus":9,"perTrialBonus":0.5,"perTrialBonusThreshold":0.05,"exampleCost":0.01},"classroomParams":{"A":{"a":1,"b":4},"B":{"a":4,"b":1},"C":{"a":2,"b":8},"D":{"a":8,"b":2}},"conditions":["nonSeqFull","nonSeqPartial","seqNoFeedback","seqFeedback"],"classroomPairings":[["A","B"],["C","D"]],"coinWeights":[0.2,0.5,0.8],"subjectId":"A3C8JI69WPTKWH","assignmentId":"3OLF68YTNANYC8UJTZKWH5OR3Q5FA3","hitId":"3AQN9REUTF20OMGWRXYK787QVFOYDP","url":"https://gershmanlab.com/experiments/alicia/teaching/experiment/?hitId=3AQN9REUTF20OMGWRXYK787QVFOYDP&workerId=A3C8JI69WPTKWH&assignmentId=3OLF68YTNANYC8UJTZKWH5OR3Q5FA3&a=T6LO9&tp_a=T6LO9&b=3OLF68YTNANYC8UJTZKWH5OR3Q5FA3&tp_b=3OLF68YTNANYC8UJTZKWH5OR3Q5FA3&c=365799&tp_c=365799"},{"rt":null,"stimulus":"<div style=\"font-size:60px;\">Next student</div>","response":null,"trial_type":"html-keyboard-response","trial_index":25,"time_elapsed":1023093,"internal_node_id":"0.0-24.0-0.0","params":{"nStudents":24,"maxFlips":30,"completionMinutes":45,"basePay":8,"maxBonus":9,"perTrialBonus":0.5,"perTrialBonusThreshold":0.05,"exampleCost":0.01},"classroomParams":{"A":{"a":1,"b":4},"B":{"a":4,"b":1},"C":{"a":2,"b":8},"D":{"a":8,"b":2}},"conditions":["nonSeqFull","nonSeqPartial","seqNoFeedback","seqFeedback"],"classroomPairings":[["A","B"],["C","D"]],"coinWeights":[0.2,0.5,0.8],"subjectId":"A3C8JI69WPTKWH","assignmentId":"3OLF68YTNANYC8UJTZKWH5OR3Q5FA3","hitId":"3AQN9REUTF20OMGWRXYK787QVFOYDP","url":"https://gershmanlab.com/experiments/alicia/teaching/experiment/?hitId=3AQN9REUTF20OMGWRXYK787QVFOYDP&workerId=A3C8JI69WPTKWH&assignmentId=3OLF68YTNANYC8UJTZKWH5OR3Q5FA3&a=T6LO9&tp_a=T6LO9&b=3OLF68YTNANYC8UJTZKWH5OR3Q5FA3&tp_b=3OLF68YTNANYC8UJTZKWH5OR3Q5FA3&c=365799&tp_c=365799"},{"rt":1984,"stimulus":"\n            <h4 style=\"color:Orange;\">Student 3</h4>\n            <h2>The weight of your coin is <b style=\"color:Tomato;\">0.8</b>.</h2>\n            <p>In this block, you will be giving <b>two</b> sets of examples to Student 3.</p>\n                <p>You will receive feedback at the end of the block.</p>\n            <p></p>","response":0,"trial_type":"html-button-response","trial_index":26,"time_elapsed":1025079,"internal_node_id":"0.0-25.0","params":{"nStudents":24,"maxFlips":30,"completionMinutes":45,"basePay":8,"maxBonus":9,"perTrialBonus":0.5,"perTrialBonusThreshold":0.05,"exampleCost":0.01},"classroomParams":{"A":{"a":1,"b":4},"B":{"a":4,"b":1},"C":{"a":2,"b":8},"D":{"a":8,"b":2}},"conditions":["nonSeqFull","nonSeqPartial","seqNoFeedback","seqFeedback"],"classroomPairings":[["A","B"],["C","D"]],"coinWeights":[0.2,0.5,0.8],"subjectId":"A3C8JI69WPTKWH","assignmentId":"3OLF68YTNANYC8UJTZKWH5OR3Q5FA3","hitId":"3AQN9REUTF20OMGWRXYK787QVFOYDP","url":"https://gershmanlab.com/experiments/alicia/teaching/experiment/?hitId=3AQN9REUTF20OMGWRXYK787QVFOYDP&workerId=A3C8JI69WPTKWH&assignmentId=3OLF68YTNANYC8UJTZKWH5OR3Q5FA3&a=T6LO9&tp_a=T6LO9&b=3OLF68YTNANYC8UJTZKWH5OR3Q5FA3&tp_b=3OLF68YTNANYC8UJTZKWH5OR3Q5FA3&c=365799&tp_c=365799"},{"rt":7691,"response":{"heads":"0","tails":"0"},"type":"response","condition":"seqNoFeedback","trueTheta":0.8,"classrooms":["C","D"],"studentTrueClassroom":"C","exampleSet":"first","trial_type":"survey-html-form","trial_index":27,"time_elapsed":1032771,"internal_node_id":"0.0-26.0-0.0","params":{"nStudents":24,"maxFlips":30,"completionMinutes":45,"basePay":8,"maxBonus":9,"perTrialBonus":0.5,"perTrialBonusThreshold":0.05,"exampleCost":0.01},"classroomParams":{"A":{"a":1,"b":4},"B":{"a":4,"b":1},"C":{"a":2,"b":8},"D":{"a":8,"b":2}},"conditions":["nonSeqFull","nonSeqPartial","seqNoFeedback","seqFeedback"],"classroomPairings":[["A","B"],["C","D"]],"coinWeights":[0.2,0.5,0.8],"subjectId":"A3C8JI69WPTKWH","assignmentId":"3OLF68YTNANYC8UJTZKWH5OR3Q5FA3","hitId":"3AQN9REUTF20OMGWRXYK787QVFOYDP","url":"https://gershmanlab.com/experiments/alicia/teaching/experiment/?hitId=3AQN9REUTF20OMGWRXYK787QVFOYDP&workerId=A3C8JI69WPTKWH&assignmentId=3OLF68YTNANYC8UJTZKWH5OR3Q5FA3&a=T6LO9&tp_a=T6LO9&b=3OLF68YTNANYC8UJTZKWH5OR3Q5FA3&tp_b=3OLF68YTNANYC8UJTZKWH5OR3Q5FA3&c=365799&tp_c=365799","heads":0,"tails":0,"studentIndex":2,"studentTrueHypers":{"a":2,"b":8},"studentGuess":0.2,"delta":0.6000000000000001,"totalExamples":0,"bonusSoFar":0},{"rt":6588,"response":{"heads":"0","tails":"0"},"type":"response","condition":"seqNoFeedback","trueTheta":0.8,"classrooms":["C","D"],"studentTrueClassroom":"C","exampleSet":"first","trial_type":"survey-html-form","trial_index":28,"time_elapsed":1039362,"internal_node_id":"0.0-26.1-0.1","params":{"nStudents":24,"maxFlips":30,"completionMinutes":45,"basePay":8,"maxBonus":9,"perTrialBonus":0.5,"perTrialBonusThreshold":0.05,"exampleCost":0.01},"classroomParams":{"A":{"a":1,"b":4},"B":{"a":4,"b":1},"C":{"a":2,"b":8},"D":{"a":8,"b":2}},"conditions":["nonSeqFull","nonSeqPartial","seqNoFeedback","seqFeedback"],"classroomPairings":[["A","B"],["C","D"]],"coinWeights":[0.2,0.5,0.8],"subjectId":"A3C8JI69WPTKWH","assignmentId":"3OLF68YTNANYC8UJTZKWH5OR3Q5FA3","hitId":"3AQN9REUTF20OMGWRXYK787QVFOYDP","url":"https://gershmanlab.com/experiments/alicia/teaching/experiment/?hitId=3AQN9REUTF20OMGWRXYK787QVFOYDP&workerId=A3C8JI69WPTKWH&assignmentId=3OLF68YTNANYC8UJTZKWH5OR3Q5FA3&a=T6LO9&tp_a=T6LO9&b=3OLF68YTNANYC8UJTZKWH5OR3Q5FA3&tp_b=3OLF68YTNANYC8UJTZKWH5OR3Q5FA3&c=365799&tp_c=365799","heads":0,"tails":0,"studentIndex":2,"studentTrueHypers":{"a":2,"b":8},"studentGuess":0.2,"delta":0.6000000000000001,"totalExamples":0,"bonusSoFar":0},{"rt":7921,"response":{"heads":"0","tails":"0"},"type":"response","condition":"seqNoFeedback","trueTheta":0.8,"classrooms":["C","D"],"studentTrueClassroom":"C","exampleSet":"first","trial_type":"survey-html-form","trial_index":29,"time_elapsed":1047284,"internal_node_id":"0.0-26.2-0.2","params":{"nStudents":24,"maxFlips":30,"completionMinutes":45,"basePay":8,"maxBonus":9,"perTrialBonus":0.5,"perTrialBonusThreshold":0.05,"exampleCost":0.01},"classroomParams":{"A":{"a":1,"b":4},"B":{"a":4,"b":1},"C":{"a":2,"b":8},"D":{"a":8,"b":2}},"conditions":["nonSeqFull","nonSeqPartial","seqNoFeedback","seqFeedback"],"classroomPairings":[["A","B"],["C","D"]],"coinWeights":[0.2,0.5,0.8],"subjectId":"A3C8JI69WPTKWH","assignmentId":"3OLF68YTNANYC8UJTZKWH5OR3Q5FA3","hitId":"3AQN9REUTF20OMGWRXYK787QVFOYDP","url":"https://gershmanlab.com/experiments/alicia/teaching/experiment/?hitId=3AQN9REUTF20OMGWRXYK787QVFOYDP&workerId=A3C8JI69WPTKWH&assignmentId=3OLF68YTNANYC8UJTZKWH5OR3Q5FA3&a=T6LO9&tp_a=T6LO9&b=3OLF68YTNANYC8UJTZKWH5OR3Q5FA3&tp_b=3OLF68YTNANYC8UJTZKWH5OR3Q5FA3&c=365799&tp_c=365799","heads":0,"tails":0,"studentIndex":2,"studentTrueHypers":{"a":2,"b":8},"studentGuess":0.2,"delta":0.6000000000000001,"totalExamples":0,"bonusSoFar":0},{"rt":26381,"response":{"heads":"1","tails":"1"},"type":"response","condition":"seqNoFeedback","trueTheta":0.8,"classrooms":["C","D"],"studentTrueClassroom":"C","exampleSet":"first","trial_type":"survey-html-form","trial_index":30,"time_elapsed":1073665,"internal_node_id":"0.0-26.3-0.3","params":{"nStudents":24,"maxFlips":30,"completionMinutes":45,"basePay":8,"maxBonus":9,"perTrialBonus":0.5,"perTrialBonusThreshold":0.05,"exampleCost":0.01},"classroomParams":{"A":{"a":1,"b":4},"B":{"a":4,"b":1},"C":{"a":2,"b":8},"D":{"a":8,"b":2}},"conditions":["nonSeqFull","nonSeqPartial","seqNoFeedback","seqFeedback"],"classroomPairings":[["A","B"],["C","D"]],"coinWeights":[0.2,0.5,0.8],"subjectId":"A3C8JI69WPTKWH","assignmentId":"3OLF68YTNANYC8UJTZKWH5OR3Q5FA3","hitId":"3AQN9REUTF20OMGWRXYK787QVFOYDP","url":"https://gershmanlab.com/experiments/alicia/teaching/experiment/?hitId=3AQN9REUTF20OMGWRXYK787QVFOYDP&workerId=A3C8JI69WPTKWH&assignmentId=3OLF68YTNANYC8UJTZKWH5OR3Q5FA3&a=T6LO9&tp_a=T6LO9&b=3OLF68YTNANYC8UJTZKWH5OR3Q5FA3&tp_b=3OLF68YTNANYC8UJTZKWH5OR3Q5FA3&c=365799&tp_c=365799","heads":1,"tails":1,"studentIndex":2,"studentTrueHypers":{"a":2,"b":8},"studentGuess":0.25,"delta":0.55,"totalExamples":2,"bonusSoFar":0},{"rt":null,"stimulus":"Sending examples to student... ","response":null,"trial_type":"html-keyboard-response","trial_index":31,"time_elapsed":1075417,"internal_node_id":"0.0-27.0","params":{"nStudents":24,"maxFlips":30,"completionMinutes":45,"basePay":8,"maxBonus":9,"perTrialBonus":0.5,"perTrialBonusThreshold":0.05,"exampleCost":0.01},"classroomParams":{"A":{"a":1,"b":4},"B":{"a":4,"b":1},"C":{"a":2,"b":8},"D":{"a":8,"b":2}},"conditions":["nonSeqFull","nonSeqPartial","seqNoFeedback","seqFeedback"],"classroomPairings":[["A","B"],["C","D"]],"coinWeights":[0.2,0.5,0.8],"subjectId":"A3C8JI69WPTKWH","assignmentId":"3OLF68YTNANYC8UJTZKWH5OR3Q5FA3","hitId":"3AQN9REUTF20OMGWRXYK787QVFOYDP","url":"https://gershmanlab.com/experiments/alicia/teaching/experiment/?hitId=3AQN9REUTF20OMGWRXYK787QVFOYDP&workerId=A3C8JI69WPTKWH&assignmentId=3OLF68YTNANYC8UJTZKWH5OR3Q5FA3&a=T6LO9&tp_a=T6LO9&b=3OLF68YTNANYC8UJTZKWH5OR3Q5FA3&tp_b=3OLF68YTNANYC8UJTZKWH5OR3Q5FA3&c=365799&tp_c=365799"},{"rt":null,"stimulus":"Examples sent to student! Waiting for student...","response":null,"trial_type":"html-keyboard-response","trial_index":32,"time_elapsed":1080918,"internal_node_id":"0.0-28.0","params":{"nStudents":24,"maxFlips":30,"completionMinutes":45,"basePay":8,"maxBonus":9,"perTrialBonus":0.5,"perTrialBonusThreshold":0.05,"exampleCost":0.01},"classroomParams":{"A":{"a":1,"b":4},"B":{"a":4,"b":1},"C":{"a":2,"b":8},"D":{"a":8,"b":2}},"conditions":["nonSeqFull","nonSeqPartial","seqNoFeedback","seqFeedback"],"classroomPairings":[["A","B"],["C","D"]],"coinWeights":[0.2,0.5,0.8],"subjectId":"A3C8JI69WPTKWH","assignmentId":"3OLF68YTNANYC8UJTZKWH5OR3Q5FA3","hitId":"3AQN9REUTF20OMGWRXYK787QVFOYDP","url":"https://gershmanlab.com/experiments/alicia/teaching/experiment/?hitId=3AQN9REUTF20OMGWRXYK787QVFOYDP&workerId=A3C8JI69WPTKWH&assignmentId=3OLF68YTNANYC8UJTZKWH5OR3Q5FA3&a=T6LO9&tp_a=T6LO9&b=3OLF68YTNANYC8UJTZKWH5OR3Q5FA3&tp_b=3OLF68YTNANYC8UJTZKWH5OR3Q5FA3&c=365799&tp_c=365799"},{"rt":10200,"response":{"heads":"1","tails":"1"},"type":"response","condition":"seqNoFeedback","trueTheta":0.8,"classrooms":["C","D"],"studentTrueClassroom":"C","exampleSet":"second","trial_type":"survey-html-form","trial_index":33,"time_elapsed":1091119,"internal_node_id":"0.0-29.0-0.0","params":{"nStudents":24,"maxFlips":30,"completionMinutes":45,"basePay":8,"maxBonus":9,"perTrialBonus":0.5,"perTrialBonusThreshold":0.05,"exampleCost":0.01},"classroomParams":{"A":{"a":1,"b":4},"B":{"a":4,"b":1},"C":{"a":2,"b":8},"D":{"a":8,"b":2}},"conditions":["nonSeqFull","nonSeqPartial","seqNoFeedback","seqFeedback"],"classroomPairings":[["A","B"],["C","D"]],"coinWeights":[0.2,0.5,0.8],"subjectId":"A3C8JI69WPTKWH","assignmentId":"3OLF68YTNANYC8UJTZKWH5OR3Q5FA3","hitId":"3AQN9REUTF20OMGWRXYK787QVFOYDP","url":"https://gershmanlab.com/experiments/alicia/teaching/experiment/?hitId=3AQN9REUTF20OMGWRXYK787QVFOYDP&workerId=A3C8JI69WPTKWH&assignmentId=3OLF68YTNANYC8UJTZKWH5OR3Q5FA3&a=T6LO9&tp_a=T6LO9&b=3OLF68YTNANYC8UJTZKWH5OR3Q5FA3&tp_b=3OLF68YTNANYC8UJTZKWH5OR3Q5FA3&c=365799&tp_c=365799","firstResponseHeads":0,"firstResponseTails":0,"secondResponseHeads":1,"secondResponseTails":1,"totalHeads":1,"totalTails":1,"studentIndex":2,"studentTrueHypers":{"a":2,"b":8},"studentGuess":0.25,"delta":0.55,"bonus":0,"bonusSoFar":0,"totalExamples":2},{"rt":null,"stimulus":"Sending examples to student... ","response":null,"trial_type":"html-keyboard-response","trial_index":34,"time_elapsed":1093121,"internal_node_id":"0.0-30.0","params":{"nStudents":24,"maxFlips":30,"completionMinutes":45,"basePay":8,"maxBonus":9,"perTrialBonus":0.5,"perTrialBonusThreshold":0.05,"exampleCost":0.01},"classroomParams":{"A":{"a":1,"b":4},"B":{"a":4,"b":1},"C":{"a":2,"b":8},"D":{"a":8,"b":2}},"conditions":["nonSeqFull","nonSeqPartial","seqNoFeedback","seqFeedback"],"classroomPairings":[["A","B"],["C","D"]],"coinWeights":[0.2,0.5,0.8],"subjectId":"A3C8JI69WPTKWH","assignmentId":"3OLF68YTNANYC8UJTZKWH5OR3Q5FA3","hitId":"3AQN9REUTF20OMGWRXYK787QVFOYDP","url":"https://gershmanlab.com/experiments/alicia/teaching/experiment/?hitId=3AQN9REUTF20OMGWRXYK787QVFOYDP&workerId=A3C8JI69WPTKWH&assignmentId=3OLF68YTNANYC8UJTZKWH5OR3Q5FA3&a=T6LO9&tp_a=T6LO9&b=3OLF68YTNANYC8UJTZKWH5OR3Q5FA3&tp_b=3OLF68YTNANYC8UJTZKWH5OR3Q5FA3&c=365799&tp_c=365799"},{"rt":null,"stimulus":"Examples sent to student! Waiting for student...","response":null,"trial_type":"html-keyboard-response","trial_index":35,"time_elapsed":1099122,"internal_node_id":"0.0-31.0","params":{"nStudents":24,"maxFlips":30,"completionMinutes":45,"basePay":8,"maxBonus":9,"perTrialBonus":0.5,"perTrialBonusThreshold":0.05,"exampleCost":0.01},"classroomParams":{"A":{"a":1,"b":4},"B":{"a":4,"b":1},"C":{"a":2,"b":8},"D":{"a":8,"b":2}},"conditions":["nonSeqFull","nonSeqPartial","seqNoFeedback","seqFeedback"],"classroomPairings":[["A","B"],["C","D"]],"coinWeights":[0.2,0.5,0.8],"subjectId":"A3C8JI69WPTKWH","assignmentId":"3OLF68YTNANYC8UJTZKWH5OR3Q5FA3","hitId":"3AQN9REUTF20OMGWRXYK787QVFOYDP","url":"https://gershmanlab.com/experiments/alicia/teaching/experiment/?hitId=3AQN9REUTF20OMGWRXYK787QVFOYDP&workerId=A3C8JI69WPTKWH&assignmentId=3OLF68YTNANYC8UJTZKWH5OR3Q5FA3&a=T6LO9&tp_a=T6LO9&b=3OLF68YTNANYC8UJTZKWH5OR3Q5FA3&tp_b=3OLF68YTNANYC8UJTZKWH5OR3Q5FA3&c=365799&tp_c=365799"},{"rt":7915,"stimulus":"\n                <p>Student 3's first guess for coin weight: <b style=\"color:Tomato\";>0.20</b></p>\n                <p>Student 3's second guess for coin weight: <b style=\"color:Tomato\";>0.25</b></p>\n                <p>You received a bonus of <b>$0.00</b> based on the student's second guess.</p>\n                <p>Total bonus so far: <b>$0.00</b></p>\n                <p>Press any key to continue.</p>\n                ","response":" ","trial_type":"html-keyboard-response","trial_index":36,"time_elapsed":1107038,"internal_node_id":"0.0-32.0","params":{"nStudents":24,"maxFlips":30,"completionMinutes":45,"basePay":8,"maxBonus":9,"perTrialBonus":0.5,"perTrialBonusThreshold":0.05,"exampleCost":0.01},"classroomParams":{"A":{"a":1,"b":4},"B":{"a":4,"b":1},"C":{"a":2,"b":8},"D":{"a":8,"b":2}},"conditions":["nonSeqFull","nonSeqPartial","seqNoFeedback","seqFeedback"],"classroomPairings":[["A","B"],["C","D"]],"coinWeights":[0.2,0.5,0.8],"subjectId":"A3C8JI69WPTKWH","assignmentId":"3OLF68YTNANYC8UJTZKWH5OR3Q5FA3","hitId":"3AQN9REUTF20OMGWRXYK787QVFOYDP","url":"https://gershmanlab.com/experiments/alicia/teaching/experiment/?hitId=3AQN9REUTF20OMGWRXYK787QVFOYDP&workerId=A3C8JI69WPTKWH&assignmentId=3OLF68YTNANYC8UJTZKWH5OR3Q5FA3&a=T6LO9&tp_a=T6LO9&b=3OLF68YTNANYC8UJTZKWH5OR3Q5FA3&tp_b=3OLF68YTNANYC8UJTZKWH5OR3Q5FA3&c=365799&tp_c=365799"},{"rt":null,"stimulus":"<div style=\"font-size:60px;\">Next student</div>","response":null,"trial_type":"html-keyboard-response","trial_index":37,"time_elapsed":1109289,"internal_node_id":"0.0-33.0-0.0","params":{"nStudents":24,"maxFlips":30,"completionMinutes":45,"basePay":8,"maxBonus":9,"perTrialBonus":0.5,"perTrialBonusThreshold":0.05,"exampleCost":0.01},"classroomParams":{"A":{"a":1,"b":4},"B":{"a":4,"b":1},"C":{"a":2,"b":8},"D":{"a":8,"b":2}},"conditions":["nonSeqFull","nonSeqPartial","seqNoFeedback","seqFeedback"],"classroomPairings":[["A","B"],["C","D"]],"coinWeights":[0.2,0.5,0.8],"subjectId":"A3C8JI69WPTKWH","assignmentId":"3OLF68YTNANYC8UJTZKWH5OR3Q5FA3","hitId":"3AQN9REUTF20OMGWRXYK787QVFOYDP","url":"https://gershmanlab.com/experiments/alicia/teaching/experiment/?hitId=3AQN9REUTF20OMGWRXYK787QVFOYDP&workerId=A3C8JI69WPTKWH&assignmentId=3OLF68YTNANYC8UJTZKWH5OR3Q5FA3&a=T6LO9&tp_a=T6LO9&b=3OLF68YTNANYC8UJTZKWH5OR3Q5FA3&tp_b=3OLF68YTNANYC8UJTZKWH5OR3Q5FA3&c=365799&tp_c=365799"},{"rt":2476,"stimulus":"\n            <h4 style=\"color:Orange;\">Student 4</h4>\n            <h2>The weight of your coin is <b style=\"color:Tomato;\">0.2</b>.</h2>\n            <p>In this block, you will be giving <b>one</b> set of examples to Student 4.</p>\n                <p>You will receive feedback at the end of the block.</p>\n            <p></p>","response":0,"trial_type":"html-button-response","trial_index":38,"time_elapsed":1111767,"internal_node_id":"0.0-34.0","params":{"nStudents":24,"maxFlips":30,"completionMinutes":45,"basePay":8,"maxBonus":9,"perTrialBonus":0.5,"perTrialBonusThreshold":0.05,"exampleCost":0.01},"classroomParams":{"A":{"a":1,"b":4},"B":{"a":4,"b":1},"C":{"a":2,"b":8},"D":{"a":8,"b":2}},"conditions":["nonSeqFull","nonSeqPartial","seqNoFeedback","seqFeedback"],"classroomPairings":[["A","B"],["C","D"]],"coinWeights":[0.2,0.5,0.8],"subjectId":"A3C8JI69WPTKWH","assignmentId":"3OLF68YTNANYC8UJTZKWH5OR3Q5FA3","hitId":"3AQN9REUTF20OMGWRXYK787QVFOYDP","url":"https://gershmanlab.com/experiments/alicia/teaching/experiment/?hitId=3AQN9REUTF20OMGWRXYK787QVFOYDP&workerId=A3C8JI69WPTKWH&assignmentId=3OLF68YTNANYC8UJTZKWH5OR3Q5FA3&a=T6LO9&tp_a=T6LO9&b=3OLF68YTNANYC8UJTZKWH5OR3Q5FA3&tp_b=3OLF68YTNANYC8UJTZKWH5OR3Q5FA3&c=365799&tp_c=365799"},{"rt":54651,"response":{"heads":"0","tails":"15"},"type":"response","condition":"nonSeqFull","trueTheta":0.2,"classrooms":["A","B"],"studentTrueClassroom":"B","exampleSet":"first","trial_type":"survey-html-form","trial_index":39,"time_elapsed":1166418,"internal_node_id":"0.0-35.0-0.0","params":{"nStudents":24,"maxFlips":30,"completionMinutes":45,"basePay":8,"maxBonus":9,"perTrialBonus":0.5,"perTrialBonusThreshold":0.05,"exampleCost":0.01},"classroomParams":{"A":{"a":1,"b":4},"B":{"a":4,"b":1},"C":{"a":2,"b":8},"D":{"a":8,"b":2}},"conditions":["nonSeqFull","nonSeqPartial","seqNoFeedback","seqFeedback"],"classroomPairings":[["A","B"],["C","D"]],"coinWeights":[0.2,0.5,0.8],"subjectId":"A3C8JI69WPTKWH","assignmentId":"3OLF68YTNANYC8UJTZKWH5OR3Q5FA3","hitId":"3AQN9REUTF20OMGWRXYK787QVFOYDP","url":"https://gershmanlab.com/experiments/alicia/teaching/experiment/?hitId=3AQN9REUTF20OMGWRXYK787QVFOYDP&workerId=A3C8JI69WPTKWH&assignmentId=3OLF68YTNANYC8UJTZKWH5OR3Q5FA3&a=T6LO9&tp_a=T6LO9&b=3OLF68YTNANYC8UJTZKWH5OR3Q5FA3&tp_b=3OLF68YTNANYC8UJTZKWH5OR3Q5FA3&c=365799&tp_c=365799","heads":0,"tails":15,"studentIndex":3,"studentTrueHypers":{"a":4,"b":1},"studentGuess":0.2,"delta":0,"totalExamples":15,"bonus":0.35,"bonusSoFar":0.35},{"rt":null,"stimulus":"Sending examples to student... ","response":null,"trial_type":"html-keyboard-response","trial_index":40,"time_elapsed":1167924,"internal_node_id":"0.0-36.0","params":{"nStudents":24,"maxFlips":30,"completionMinutes":45,"basePay":8,"maxBonus":9,"perTrialBonus":0.5,"perTrialBonusThreshold":0.05,"exampleCost":0.01},"classroomParams":{"A":{"a":1,"b":4},"B":{"a":4,"b":1},"C":{"a":2,"b":8},"D":{"a":8,"b":2}},"conditions":["nonSeqFull","nonSeqPartial","seqNoFeedback","seqFeedback"],"classroomPairings":[["A","B"],["C","D"]],"coinWeights":[0.2,0.5,0.8],"subjectId":"A3C8JI69WPTKWH","assignmentId":"3OLF68YTNANYC8UJTZKWH5OR3Q5FA3","hitId":"3AQN9REUTF20OMGWRXYK787QVFOYDP","url":"https://gershmanlab.com/experiments/alicia/teaching/experiment/?hitId=3AQN9REUTF20OMGWRXYK787QVFOYDP&workerId=A3C8JI69WPTKWH&assignmentId=3OLF68YTNANYC8UJTZKWH5OR3Q5FA3&a=T6LO9&tp_a=T6LO9&b=3OLF68YTNANYC8UJTZKWH5OR3Q5FA3&tp_b=3OLF68YTNANYC8UJTZKWH5OR3Q5FA3&c=365799&tp_c=365799"},{"rt":null,"stimulus":"Examples sent to student! Waiting for student...","response":null,"trial_type":"html-keyboard-response","trial_index":41,"time_elapsed":1173926,"internal_node_id":"0.0-37.0","params":{"nStudents":24,"maxFlips":30,"completionMinutes":45,"basePay":8,"maxBonus":9,"perTrialBonus":0.5,"perTrialBonusThreshold":0.05,"exampleCost":0.01},"classroomParams":{"A":{"a":1,"b":4},"B":{"a":4,"b":1},"C":{"a":2,"b":8},"D":{"a":8,"b":2}},"conditions":["nonSeqFull","nonSeqPartial","seqNoFeedback","seqFeedback"],"classroomPairings":[["A","B"],["C","D"]],"coinWeights":[0.2,0.5,0.8],"subjectId":"A3C8JI69WPTKWH","assignmentId":"3OLF68YTNANYC8UJTZKWH5OR3Q5FA3","hitId":"3AQN9REUTF20OMGWRXYK787QVFOYDP","url":"https://gershmanlab.com/experiments/alicia/teaching/experiment/?hitId=3AQN9REUTF20OMGWRXYK787QVFOYDP&workerId=A3C8JI69WPTKWH&assignmentId=3OLF68YTNANYC8UJTZKWH5OR3Q5FA3&a=T6LO9&tp_a=T6LO9&b=3OLF68YTNANYC8UJTZKWH5OR3Q5FA3&tp_b=3OLF68YTNANYC8UJTZKWH5OR3Q5FA3&c=365799&tp_c=365799"},{"rt":3859,"stimulus":"\n                <p>Student's guess for coin weight: <b style=\"color:Tomato;\">0.20</b></p>\n                <p>You received a bonus of <b>$0.35</b>. Total bonus so far: <b>$0.35</b></b></p>\n                <p></p>\n                <p>Press any key to continue.</p>\n                ","response":" ","trial_type":"html-keyboard-response","trial_index":42,"time_elapsed":1177787,"internal_node_id":"0.0-38.0","params":{"nStudents":24,"maxFlips":30,"completionMinutes":45,"basePay":8,"maxBonus":9,"perTrialBonus":0.5,"perTrialBonusThreshold":0.05,"exampleCost":0.01},"classroomParams":{"A":{"a":1,"b":4},"B":{"a":4,"b":1},"C":{"a":2,"b":8},"D":{"a":8,"b":2}},"conditions":["nonSeqFull","nonSeqPartial","seqNoFeedback","seqFeedback"],"classroomPairings":[["A","B"],["C","D"]],"coinWeights":[0.2,0.5,0.8],"subjectId":"A3C8JI69WPTKWH","assignmentId":"3OLF68YTNANYC8UJTZKWH5OR3Q5FA3","hitId":"3AQN9REUTF20OMGWRXYK787QVFOYDP","url":"https://gershmanlab.com/experiments/alicia/teaching/experiment/?hitId=3AQN9REUTF20OMGWRXYK787QVFOYDP&workerId=A3C8JI69WPTKWH&assignmentId=3OLF68YTNANYC8UJTZKWH5OR3Q5FA3&a=T6LO9&tp_a=T6LO9&b=3OLF68YTNANYC8UJTZKWH5OR3Q5FA3&tp_b=3OLF68YTNANYC8UJTZKWH5OR3Q5FA3&c=365799&tp_c=365799"},{"rt":null,"stimulus":"<div style=\"font-size:60px;\">Next student</div>","response":null,"trial_type":"html-keyboard-response","trial_index":43,"time_elapsed":1180288,"internal_node_id":"0.0-39.0-0.0","params":{"nStudents":24,"maxFlips":30,"completionMinutes":45,"basePay":8,"maxBonus":9,"perTrialBonus":0.5,"perTrialBonusThreshold":0.05,"exampleCost":0.01},"classroomParams":{"A":{"a":1,"b":4},"B":{"a":4,"b":1},"C":{"a":2,"b":8},"D":{"a":8,"b":2}},"conditions":["nonSeqFull","nonSeqPartial","seqNoFeedback","seqFeedback"],"classroomPairings":[["A","B"],["C","D"]],"coinWeights":[0.2,0.5,0.8],"subjectId":"A3C8JI69WPTKWH","assignmentId":"3OLF68YTNANYC8UJTZKWH5OR3Q5FA3","hitId":"3AQN9REUTF20OMGWRXYK787QVFOYDP","url":"https://gershmanlab.com/experiments/alicia/teaching/experiment/?hitId=3AQN9REUTF20OMGWRXYK787QVFOYDP&workerId=A3C8JI69WPTKWH&assignmentId=3OLF68YTNANYC8UJTZKWH5OR3Q5FA3&a=T6LO9&tp_a=T6LO9&b=3OLF68YTNANYC8UJTZKWH5OR3Q5FA3&tp_b=3OLF68YTNANYC8UJTZKWH5OR3Q5FA3&c=365799&tp_c=365799"},{"rt":2079,"stimulus":"\n            <h4 style=\"color:Orange;\">Student 5</h4>\n            <h2>The weight of your coin is <b style=\"color:Tomato;\">0.8</b>.</h2>\n            <p>In this block, you will be giving <b>one</b> set of examples to Student 5.</p>\n                <p>You will receive feedback at the end of the block.</p>\n            <p></p>","response":0,"trial_type":"html-button-response","trial_index":44,"time_elapsed":1182368,"internal_node_id":"0.0-40.0","params":{"nStudents":24,"maxFlips":30,"completionMinutes":45,"basePay":8,"maxBonus":9,"perTrialBonus":0.5,"perTrialBonusThreshold":0.05,"exampleCost":0.01},"classroomParams":{"A":{"a":1,"b":4},"B":{"a":4,"b":1},"C":{"a":2,"b":8},"D":{"a":8,"b":2}},"conditions":["nonSeqFull","nonSeqPartial","seqNoFeedback","seqFeedback"],"classroomPairings":[["A","B"],["C","D"]],"coinWeights":[0.2,0.5,0.8],"subjectId":"A3C8JI69WPTKWH","assignmentId":"3OLF68YTNANYC8UJTZKWH5OR3Q5FA3","hitId":"3AQN9REUTF20OMGWRXYK787QVFOYDP","url":"https://gershmanlab.com/experiments/alicia/teaching/experiment/?hitId=3AQN9REUTF20OMGWRXYK787QVFOYDP&workerId=A3C8JI69WPTKWH&assignmentId=3OLF68YTNANYC8UJTZKWH5OR3Q5FA3&a=T6LO9&tp_a=T6LO9&b=3OLF68YTNANYC8UJTZKWH5OR3Q5FA3&tp_b=3OLF68YTNANYC8UJTZKWH5OR3Q5FA3&c=365799&tp_c=365799"},{"rt":54033,"response":{"heads":"0","tails":"0"},"type":"response","condition":"nonSeqFull","trueTheta":0.8,"classrooms":["A","B"],"studentTrueClassroom":"B","exampleSet":"first","trial_type":"survey-html-form","trial_index":45,"time_elapsed":1236400,"internal_node_id":"0.0-41.0-0.0","params":{"nStudents":24,"maxFlips":30,"completionMinutes":45,"basePay":8,"maxBonus":9,"perTrialBonus":0.5,"perTrialBonusThreshold":0.05,"exampleCost":0.01},"classroomParams":{"A":{"a":1,"b":4},"B":{"a":4,"b":1},"C":{"a":2,"b":8},"D":{"a":8,"b":2}},"conditions":["nonSeqFull","nonSeqPartial","seqNoFeedback","seqFeedback"],"classroomPairings":[["A","B"],["C","D"]],"coinWeights":[0.2,0.5,0.8],"subjectId":"A3C8JI69WPTKWH","assignmentId":"3OLF68YTNANYC8UJTZKWH5OR3Q5FA3","hitId":"3AQN9REUTF20OMGWRXYK787QVFOYDP","url":"https://gershmanlab.com/experiments/alicia/teaching/experiment/?hitId=3AQN9REUTF20OMGWRXYK787QVFOYDP&workerId=A3C8JI69WPTKWH&assignmentId=3OLF68YTNANYC8UJTZKWH5OR3Q5FA3&a=T6LO9&tp_a=T6LO9&b=3OLF68YTNANYC8UJTZKWH5OR3Q5FA3&tp_b=3OLF68YTNANYC8UJTZKWH5OR3Q5FA3&c=365799&tp_c=365799","heads":0,"tails":0,"studentIndex":4,"studentTrueHypers":{"a":4,"b":1},"studentGuess":0.8,"delta":0,"totalExamples":0,"bonus":0.5,"bonusSoFar":0.85},{"rt":6519,"response":{"heads":"4","tails":"1"},"type":"response","condition":"nonSeqFull","trueTheta":0.8,"classrooms":["A","B"],"studentTrueClassroom":"B","exampleSet":"first","trial_type":"survey-html-form","trial_index":46,"time_elapsed":1242920,"internal_node_id":"0.0-41.1-0.1","params":{"nStudents":24,"maxFlips":30,"completionMinutes":45,"basePay":8,"maxBonus":9,"perTrialBonus":0.5,"perTrialBonusThreshold":0.05,"exampleCost":0.01},"classroomParams":{"A":{"a":1,"b":4},"B":{"a":4,"b":1},"C":{"a":2,"b":8},"D":{"a":8,"b":2}},"conditions":["nonSeqFull","nonSeqPartial","seqNoFeedback","seqFeedback"],"classroomPairings":[["A","B"],["C","D"]],"coinWeights":[0.2,0.5,0.8],"subjectId":"A3C8JI69WPTKWH","assignmentId":"3OLF68YTNANYC8UJTZKWH5OR3Q5FA3","hitId":"3AQN9REUTF20OMGWRXYK787QVFOYDP","url":"https://gershmanlab.com/experiments/alicia/teaching/experiment/?hitId=3AQN9REUTF20OMGWRXYK787QVFOYDP&workerId=A3C8JI69WPTKWH&assignmentId=3OLF68YTNANYC8UJTZKWH5OR3Q5FA3&a=T6LO9&tp_a=T6LO9&b=3OLF68YTNANYC8UJTZKWH5OR3Q5FA3&tp_b=3OLF68YTNANYC8UJTZKWH5OR3Q5FA3&c=365799&tp_c=365799","heads":4,"tails":1,"studentIndex":4,"studentTrueHypers":{"a":4,"b":1},"studentGuess":0.8,"delta":0,"totalExamples":5,"bonus":0.45,"bonusSoFar":1.3},{"rt":null,"stimulus":"Sending examples to student... ","response":null,"trial_type":"html-keyboard-response","trial_index":47,"time_elapsed":1244926,"internal_node_id":"0.0-42.0","params":{"nStudents":24,"maxFlips":30,"completionMinutes":45,"basePay":8,"maxBonus":9,"perTrialBonus":0.5,"perTrialBonusThreshold":0.05,"exampleCost":0.01},"classroomParams":{"A":{"a":1,"b":4},"B":{"a":4,"b":1},"C":{"a":2,"b":8},"D":{"a":8,"b":2}},"conditions":["nonSeqFull","nonSeqPartial","seqNoFeedback","seqFeedback"],"classroomPairings":[["A","B"],["C","D"]],"coinWeights":[0.2,0.5,0.8],"subjectId":"A3C8JI69WPTKWH","assignmentId":"3OLF68YTNANYC8UJTZKWH5OR3Q5FA3","hitId":"3AQN9REUTF20OMGWRXYK787QVFOYDP","url":"https://gershmanlab.com/experiments/alicia/teaching/experiment/?hitId=3AQN9REUTF20OMGWRXYK787QVFOYDP&workerId=A3C8JI69WPTKWH&assignmentId=3OLF68YTNANYC8UJTZKWH5OR3Q5FA3&a=T6LO9&tp_a=T6LO9&b=3OLF68YTNANYC8UJTZKWH5OR3Q5FA3&tp_b=3OLF68YTNANYC8UJTZKWH5OR3Q5FA3&c=365799&tp_c=365799"},{"rt":null,"stimulus":"Examples sent to student! Waiting for student...","response":null,"trial_type":"html-keyboard-response","trial_index":48,"time_elapsed":1250431,"internal_node_id":"0.0-43.0","params":{"nStudents":24,"maxFlips":30,"completionMinutes":45,"basePay":8,"maxBonus":9,"perTrialBonus":0.5,"perTrialBonusThreshold":0.05,"exampleCost":0.01},"classroomParams":{"A":{"a":1,"b":4},"B":{"a":4,"b":1},"C":{"a":2,"b":8},"D":{"a":8,"b":2}},"conditions":["nonSeqFull","nonSeqPartial","seqNoFeedback","seqFeedback"],"classroomPairings":[["A","B"],["C","D"]],"coinWeights":[0.2,0.5,0.8],"subjectId":"A3C8JI69WPTKWH","assignmentId":"3OLF68YTNANYC8UJTZKWH5OR3Q5FA3","hitId":"3AQN9REUTF20OMGWRXYK787QVFOYDP","url":"https://gershmanlab.com/experiments/alicia/teaching/experiment/?hitId=3AQN9REUTF20OMGWRXYK787QVFOYDP&workerId=A3C8JI69WPTKWH&assignmentId=3OLF68YTNANYC8UJTZKWH5OR3Q5FA3&a=T6LO9&tp_a=T6LO9&b=3OLF68YTNANYC8UJTZKWH5OR3Q5FA3&tp_b=3OLF68YTNANYC8UJTZKWH5OR3Q5FA3&c=365799&tp_c=365799"},{"rt":2224,"stimulus":"\n                <p>Student's guess for coin weight: <b style=\"color:Tomato;\">0.80</b></p>\n                <p>You received a bonus of <b>$0.5</b>. Total bonus so far: <b>$1.30</b></b></p>\n                <p></p>\n                <p>Press any key to continue.</p>\n                ","response":" ","trial_type":"html-keyboard-response","trial_index":49,"time_elapsed":1252656,"internal_node_id":"0.0-44.0","params":{"nStudents":24,"maxFlips":30,"completionMinutes":45,"basePay":8,"maxBonus":9,"perTrialBonus":0.5,"perTrialBonusThreshold":0.05,"exampleCost":0.01},"classroomParams":{"A":{"a":1,"b":4},"B":{"a":4,"b":1},"C":{"a":2,"b":8},"D":{"a":8,"b":2}},"conditions":["nonSeqFull","nonSeqPartial","seqNoFeedback","seqFeedback"],"classroomPairings":[["A","B"],["C","D"]],"coinWeights":[0.2,0.5,0.8],"subjectId":"A3C8JI69WPTKWH","assignmentId":"3OLF68YTNANYC8UJTZKWH5OR3Q5FA3","hitId":"3AQN9REUTF20OMGWRXYK787QVFOYDP","url":"https://gershmanlab.com/experiments/alicia/teaching/experiment/?hitId=3AQN9REUTF20OMGWRXYK787QVFOYDP&workerId=A3C8JI69WPTKWH&assignmentId=3OLF68YTNANYC8UJTZKWH5OR3Q5FA3&a=T6LO9&tp_a=T6LO9&b=3OLF68YTNANYC8UJTZKWH5OR3Q5FA3&tp_b=3OLF68YTNANYC8UJTZKWH5OR3Q5FA3&c=365799&tp_c=365799"},{"rt":null,"stimulus":"<div style=\"font-size:60px;\">Next student</div>","response":null,"trial_type":"html-keyboard-response","trial_index":50,"time_elapsed":1255658,"internal_node_id":"0.0-45.0-0.0","params":{"nStudents":24,"maxFlips":30,"completionMinutes":45,"basePay":8,"maxBonus":9,"perTrialBonus":0.5,"perTrialBonusThreshold":0.05,"exampleCost":0.01},"classroomParams":{"A":{"a":1,"b":4},"B":{"a":4,"b":1},"C":{"a":2,"b":8},"D":{"a":8,"b":2}},"conditions":["nonSeqFull","nonSeqPartial","seqNoFeedback","seqFeedback"],"classroomPairings":[["A","B"],["C","D"]],"coinWeights":[0.2,0.5,0.8],"subjectId":"A3C8JI69WPTKWH","assignmentId":"3OLF68YTNANYC8UJTZKWH5OR3Q5FA3","hitId":"3AQN9REUTF20OMGWRXYK787QVFOYDP","url":"https://gershmanlab.com/experiments/alicia/teaching/experiment/?hitId=3AQN9REUTF20OMGWRXYK787QVFOYDP&workerId=A3C8JI69WPTKWH&assignmentId=3OLF68YTNANYC8UJTZKWH5OR3Q5FA3&a=T6LO9&tp_a=T6LO9&b=3OLF68YTNANYC8UJTZKWH5OR3Q5FA3&tp_b=3OLF68YTNANYC8UJTZKWH5OR3Q5FA3&c=365799&tp_c=365799"},{"rt":7315,"stimulus":"\n            <h4 style=\"color:Orange;\">Student 6</h4>\n            <h2>The weight of your coin is <b style=\"color:Tomato;\">0.5</b>.</h2>\n            <p>In this block, you will be giving <b>two</b> sets of examples to Student 6.</p>\n                <p>You will see the student's guess after the first set of examples. You will also receive feedback at the end of the block.</p>\n            <p>To earn the highest bonus, you will have to <b>take into consideration the student's guess</b> when you choose your second set of examples.</p>","response":0,"trial_type":"html-button-response","trial_index":51,"time_elapsed":1262974,"internal_node_id":"0.0-46.0","params":{"nStudents":24,"maxFlips":30,"completionMinutes":45,"basePay":8,"maxBonus":9,"perTrialBonus":0.5,"perTrialBonusThreshold":0.05,"exampleCost":0.01},"classroomParams":{"A":{"a":1,"b":4},"B":{"a":4,"b":1},"C":{"a":2,"b":8},"D":{"a":8,"b":2}},"conditions":["nonSeqFull","nonSeqPartial","seqNoFeedback","seqFeedback"],"classroomPairings":[["A","B"],["C","D"]],"coinWeights":[0.2,0.5,0.8],"subjectId":"A3C8JI69WPTKWH","assignmentId":"3OLF68YTNANYC8UJTZKWH5OR3Q5FA3","hitId":"3AQN9REUTF20OMGWRXYK787QVFOYDP","url":"https://gershmanlab.com/experiments/alicia/teaching/experiment/?hitId=3AQN9REUTF20OMGWRXYK787QVFOYDP&workerId=A3C8JI69WPTKWH&assignmentId=3OLF68YTNANYC8UJTZKWH5OR3Q5FA3&a=T6LO9&tp_a=T6LO9&b=3OLF68YTNANYC8UJTZKWH5OR3Q5FA3&tp_b=3OLF68YTNANYC8UJTZKWH5OR3Q5FA3&c=365799&tp_c=365799"},{"rt":17072,"response":{"heads":"6","tails":"0"},"type":"response","condition":"seqFeedback","trueTheta":0.5,"classrooms":["C","D"],"studentTrueClassroom":"D","exampleSet":"first","trial_type":"survey-html-form","trial_index":52,"time_elapsed":1280047,"internal_node_id":"0.0-47.0-0.0","params":{"nStudents":24,"maxFlips":30,"completionMinutes":45,"basePay":8,"maxBonus":9,"perTrialBonus":0.5,"perTrialBonusThreshold":0.05,"exampleCost":0.01},"classroomParams":{"A":{"a":1,"b":4},"B":{"a":4,"b":1},"C":{"a":2,"b":8},"D":{"a":8,"b":2}},"conditions":["nonSeqFull","nonSeqPartial","seqNoFeedback","seqFeedback"],"classroomPairings":[["A","B"],["C","D"]],"coinWeights":[0.2,0.5,0.8],"subjectId":"A3C8JI69WPTKWH","assignmentId":"3OLF68YTNANYC8UJTZKWH5OR3Q5FA3","hitId":"3AQN9REUTF20OMGWRXYK787QVFOYDP","url":"https://gershmanlab.com/experiments/alicia/teaching/experiment/?hitId=3AQN9REUTF20OMGWRXYK787QVFOYDP&workerId=A3C8JI69WPTKWH&assignmentId=3OLF68YTNANYC8UJTZKWH5OR3Q5FA3&a=T6LO9&tp_a=T6LO9&b=3OLF68YTNANYC8UJTZKWH5OR3Q5FA3&tp_b=3OLF68YTNANYC8UJTZKWH5OR3Q5FA3&c=365799&tp_c=365799","heads":6,"tails":0,"studentIndex":5,"studentTrueHypers":{"a":8,"b":2},"studentGuess":0.875,"delta":0.375,"totalExamples":6,"bonusSoFar":1.3},{"rt":null,"stimulus":"Sending examples to student... ","response":null,"trial_type":"html-keyboard-response","trial_index":53,"time_elapsed":1281301,"internal_node_id":"0.0-48.0","params":{"nStudents":24,"maxFlips":30,"completionMinutes":45,"basePay":8,"maxBonus":9,"perTrialBonus":0.5,"perTrialBonusThreshold":0.05,"exampleCost":0.01},"classroomParams":{"A":{"a":1,"b":4},"B":{"a":4,"b":1},"C":{"a":2,"b":8},"D":{"a":8,"b":2}},"conditions":["nonSeqFull","nonSeqPartial","seqNoFeedback","seqFeedback"],"classroomPairings":[["A","B"],["C","D"]],"coinWeights":[0.2,0.5,0.8],"subjectId":"A3C8JI69WPTKWH","assignmentId":"3OLF68YTNANYC8UJTZKWH5OR3Q5FA3","hitId":"3AQN9REUTF20OMGWRXYK787QVFOYDP","url":"https://gershmanlab.com/experiments/alicia/teaching/experiment/?hitId=3AQN9REUTF20OMGWRXYK787QVFOYDP&workerId=A3C8JI69WPTKWH&assignmentId=3OLF68YTNANYC8UJTZKWH5OR3Q5FA3&a=T6LO9&tp_a=T6LO9&b=3OLF68YTNANYC8UJTZKWH5OR3Q5FA3&tp_b=3OLF68YTNANYC8UJTZKWH5OR3Q5FA3&c=365799&tp_c=365799"},{"rt":null,"stimulus":"Examples sent to student! Waiting for student...","response":null,"trial_type":"html-keyboard-response","trial_index":54,"time_elapsed":1285804,"internal_node_id":"0.0-49.0","params":{"nStudents":24,"maxFlips":30,"completionMinutes":45,"basePay":8,"maxBonus":9,"perTrialBonus":0.5,"perTrialBonusThreshold":0.05,"exampleCost":0.01},"classroomParams":{"A":{"a":1,"b":4},"B":{"a":4,"b":1},"C":{"a":2,"b":8},"D":{"a":8,"b":2}},"conditions":["nonSeqFull","nonSeqPartial","seqNoFeedback","seqFeedback"],"classroomPairings":[["A","B"],["C","D"]],"coinWeights":[0.2,0.5,0.8],"subjectId":"A3C8JI69WPTKWH","assignmentId":"3OLF68YTNANYC8UJTZKWH5OR3Q5FA3","hitId":"3AQN9REUTF20OMGWRXYK787QVFOYDP","url":"https://gershmanlab.com/experiments/alicia/teaching/experiment/?hitId=3AQN9REUTF20OMGWRXYK787QVFOYDP&workerId=A3C8JI69WPTKWH&assignmentId=3OLF68YTNANYC8UJTZKWH5OR3Q5FA3&a=T6LO9&tp_a=T6LO9&b=3OLF68YTNANYC8UJTZKWH5OR3Q5FA3&tp_b=3OLF68YTNANYC8UJTZKWH5OR3Q5FA3&c=365799&tp_c=365799"},{"rt":11523,"stimulus":"\n                <p>Student's guess for coin weight: <b style=\"color:Tomato;\">0.88</b></p>\n                <p></b></p>\n                <p>You will now send another set of examples to your student. <b>Remember to take your student's guess into consideration so that you can earn the highest bonus possible!</b> </p>\n                <p>Press any key to continue.</p>\n                ","response":" ","trial_type":"html-keyboard-response","trial_index":55,"time_elapsed":1297327,"internal_node_id":"0.0-50.0","params":{"nStudents":24,"maxFlips":30,"completionMinutes":45,"basePay":8,"maxBonus":9,"perTrialBonus":0.5,"perTrialBonusThreshold":0.05,"exampleCost":0.01},"classroomParams":{"A":{"a":1,"b":4},"B":{"a":4,"b":1},"C":{"a":2,"b":8},"D":{"a":8,"b":2}},"conditions":["nonSeqFull","nonSeqPartial","seqNoFeedback","seqFeedback"],"classroomPairings":[["A","B"],["C","D"]],"coinWeights":[0.2,0.5,0.8],"subjectId":"A3C8JI69WPTKWH","assignmentId":"3OLF68YTNANYC8UJTZKWH5OR3Q5FA3","hitId":"3AQN9REUTF20OMGWRXYK787QVFOYDP","url":"https://gershmanlab.com/experiments/alicia/teaching/experiment/?hitId=3AQN9REUTF20OMGWRXYK787QVFOYDP&workerId=A3C8JI69WPTKWH&assignmentId=3OLF68YTNANYC8UJTZKWH5OR3Q5FA3&a=T6LO9&tp_a=T6LO9&b=3OLF68YTNANYC8UJTZKWH5OR3Q5FA3&tp_b=3OLF68YTNANYC8UJTZKWH5OR3Q5FA3&c=365799&tp_c=365799"},{"rt":9349,"response":{"heads":"0","tails":"6"},"type":"response","condition":"seqFeedback","trueTheta":0.5,"classrooms":["C","D"],"studentTrueClassroom":"D","exampleSet":"second","trial_type":"survey-html-form","trial_index":56,"time_elapsed":1306679,"internal_node_id":"0.0-51.0-0.0","params":{"nStudents":24,"maxFlips":30,"completionMinutes":45,"basePay":8,"maxBonus":9,"perTrialBonus":0.5,"perTrialBonusThreshold":0.05,"exampleCost":0.01},"classroomParams":{"A":{"a":1,"b":4},"B":{"a":4,"b":1},"C":{"a":2,"b":8},"D":{"a":8,"b":2}},"conditions":["nonSeqFull","nonSeqPartial","seqNoFeedback","seqFeedback"],"classroomPairings":[["A","B"],["C","D"]],"coinWeights":[0.2,0.5,0.8],"subjectId":"A3C8JI69WPTKWH","assignmentId":"3OLF68YTNANYC8UJTZKWH5OR3Q5FA3","hitId":"3AQN9REUTF20OMGWRXYK787QVFOYDP","url":"https://gershmanlab.com/experiments/alicia/teaching/experiment/?hitId=3AQN9REUTF20OMGWRXYK787QVFOYDP&workerId=A3C8JI69WPTKWH&assignmentId=3OLF68YTNANYC8UJTZKWH5OR3Q5FA3&a=T6LO9&tp_a=T6LO9&b=3OLF68YTNANYC8UJTZKWH5OR3Q5FA3&tp_b=3OLF68YTNANYC8UJTZKWH5OR3Q5FA3&c=365799&tp_c=365799","firstResponseHeads":6,"firstResponseTails":0,"secondResponseHeads":0,"secondResponseTails":6,"totalHeads":6,"totalTails":6,"studentIndex":5,"studentTrueHypers":{"a":8,"b":2},"studentGuess":0.6363636363636364,"delta":0.13636363636363635,"bonus":0,"bonusSoFar":1.3,"totalExamples":12},{"rt":null,"stimulus":"Sending examples to student... ","response":null,"trial_type":"html-keyboard-response","trial_index":57,"time_elapsed":1308184,"internal_node_id":"0.0-52.0","params":{"nStudents":24,"maxFlips":30,"completionMinutes":45,"basePay":8,"maxBonus":9,"perTrialBonus":0.5,"perTrialBonusThreshold":0.05,"exampleCost":0.01},"classroomParams":{"A":{"a":1,"b":4},"B":{"a":4,"b":1},"C":{"a":2,"b":8},"D":{"a":8,"b":2}},"conditions":["nonSeqFull","nonSeqPartial","seqNoFeedback","seqFeedback"],"classroomPairings":[["A","B"],["C","D"]],"coinWeights":[0.2,0.5,0.8],"subjectId":"A3C8JI69WPTKWH","assignmentId":"3OLF68YTNANYC8UJTZKWH5OR3Q5FA3","hitId":"3AQN9REUTF20OMGWRXYK787QVFOYDP","url":"https://gershmanlab.com/experiments/alicia/teaching/experiment/?hitId=3AQN9REUTF20OMGWRXYK787QVFOYDP&workerId=A3C8JI69WPTKWH&assignmentId=3OLF68YTNANYC8UJTZKWH5OR3Q5FA3&a=T6LO9&tp_a=T6LO9&b=3OLF68YTNANYC8UJTZKWH5OR3Q5FA3&tp_b=3OLF68YTNANYC8UJTZKWH5OR3Q5FA3&c=365799&tp_c=365799"},{"rt":null,"stimulus":"Examples sent to student! Waiting for student...","response":null,"trial_type":"html-keyboard-response","trial_index":58,"time_elapsed":1314187,"internal_node_id":"0.0-53.0","params":{"nStudents":24,"maxFlips":30,"completionMinutes":45,"basePay":8,"maxBonus":9,"perTrialBonus":0.5,"perTrialBonusThreshold":0.05,"exampleCost":0.01},"classroomParams":{"A":{"a":1,"b":4},"B":{"a":4,"b":1},"C":{"a":2,"b":8},"D":{"a":8,"b":2}},"conditions":["nonSeqFull","nonSeqPartial","seqNoFeedback","seqFeedback"],"classroomPairings":[["A","B"],["C","D"]],"coinWeights":[0.2,0.5,0.8],"subjectId":"A3C8JI69WPTKWH","assignmentId":"3OLF68YTNANYC8UJTZKWH5OR3Q5FA3","hitId":"3AQN9REUTF20OMGWRXYK787QVFOYDP","url":"https://gershmanlab.com/experiments/alicia/teaching/experiment/?hitId=3AQN9REUTF20OMGWRXYK787QVFOYDP&workerId=A3C8JI69WPTKWH&assignmentId=3OLF68YTNANYC8UJTZKWH5OR3Q5FA3&a=T6LO9&tp_a=T6LO9&b=3OLF68YTNANYC8UJTZKWH5OR3Q5FA3&tp_b=3OLF68YTNANYC8UJTZKWH5OR3Q5FA3&c=365799&tp_c=365799"},{"rt":9690,"stimulus":"\n                <p>Student 6's first guess for coin weight: <b style=\"color:Tomato\";>0.88</b></p>\n                <p>Student 6's second guess for coin weight: <b style=\"color:Tomato\";>0.64</b></p>\n                <p>You received a bonus of <b>$0.00</b> based on the student's second guess.</p>\n                <p>Total bonus so far: <b>$1.30</b></p>\n                <p>Press any key to continue.</p>\n                ","response":" ","trial_type":"html-keyboard-response","trial_index":59,"time_elapsed":1323878,"internal_node_id":"0.0-54.0","params":{"nStudents":24,"maxFlips":30,"completionMinutes":45,"basePay":8,"maxBonus":9,"perTrialBonus":0.5,"perTrialBonusThreshold":0.05,"exampleCost":0.01},"classroomParams":{"A":{"a":1,"b":4},"B":{"a":4,"b":1},"C":{"a":2,"b":8},"D":{"a":8,"b":2}},"conditions":["nonSeqFull","nonSeqPartial","seqNoFeedback","seqFeedback"],"classroomPairings":[["A","B"],["C","D"]],"coinWeights":[0.2,0.5,0.8],"subjectId":"A3C8JI69WPTKWH","assignmentId":"3OLF68YTNANYC8UJTZKWH5OR3Q5FA3","hitId":"3AQN9REUTF20OMGWRXYK787QVFOYDP","url":"https://gershmanlab.com/experiments/alicia/teaching/experiment/?hitId=3AQN9REUTF20OMGWRXYK787QVFOYDP&workerId=A3C8JI69WPTKWH&assignmentId=3OLF68YTNANYC8UJTZKWH5OR3Q5FA3&a=T6LO9&tp_a=T6LO9&b=3OLF68YTNANYC8UJTZKWH5OR3Q5FA3&tp_b=3OLF68YTNANYC8UJTZKWH5OR3Q5FA3&c=365799&tp_c=365799"},{"rt":null,"stimulus":"<div style=\"font-size:60px;\">Next student</div>","response":null,"trial_type":"html-keyboard-response","trial_index":60,"time_elapsed":1326133,"internal_node_id":"0.0-55.0-0.0","params":{"nStudents":24,"maxFlips":30,"completionMinutes":45,"basePay":8,"maxBonus":9,"perTrialBonus":0.5,"perTrialBonusThreshold":0.05,"exampleCost":0.01},"classroomParams":{"A":{"a":1,"b":4},"B":{"a":4,"b":1},"C":{"a":2,"b":8},"D":{"a":8,"b":2}},"conditions":["nonSeqFull","nonSeqPartial","seqNoFeedback","seqFeedback"],"classroomPairings":[["A","B"],["C","D"]],"coinWeights":[0.2,0.5,0.8],"subjectId":"A3C8JI69WPTKWH","assignmentId":"3OLF68YTNANYC8UJTZKWH5OR3Q5FA3","hitId":"3AQN9REUTF20OMGWRXYK787QVFOYDP","url":"https://gershmanlab.com/experiments/alicia/teaching/experiment/?hitId=3AQN9REUTF20OMGWRXYK787QVFOYDP&workerId=A3C8JI69WPTKWH&assignmentId=3OLF68YTNANYC8UJTZKWH5OR3Q5FA3&a=T6LO9&tp_a=T6LO9&b=3OLF68YTNANYC8UJTZKWH5OR3Q5FA3&tp_b=3OLF68YTNANYC8UJTZKWH5OR3Q5FA3&c=365799&tp_c=365799"},{"rt":4167,"stimulus":"\n            <h4 style=\"color:Orange;\">Student 7</h4>\n            <h2>The weight of your coin is <b style=\"color:Tomato;\">0.5</b>.</h2>\n            <p>In this block, you will be giving <b>one</b> set of examples to Student 7.</p>\n                <p>You will receive feedback at the end of the block.</p>\n            <p></p>","response":0,"trial_type":"html-button-response","trial_index":61,"time_elapsed":1330303,"internal_node_id":"0.0-56.0","params":{"nStudents":24,"maxFlips":30,"completionMinutes":45,"basePay":8,"maxBonus":9,"perTrialBonus":0.5,"perTrialBonusThreshold":0.05,"exampleCost":0.01},"classroomParams":{"A":{"a":1,"b":4},"B":{"a":4,"b":1},"C":{"a":2,"b":8},"D":{"a":8,"b":2}},"conditions":["nonSeqFull","nonSeqPartial","seqNoFeedback","seqFeedback"],"classroomPairings":[["A","B"],["C","D"]],"coinWeights":[0.2,0.5,0.8],"subjectId":"A3C8JI69WPTKWH","assignmentId":"3OLF68YTNANYC8UJTZKWH5OR3Q5FA3","hitId":"3AQN9REUTF20OMGWRXYK787QVFOYDP","url":"https://gershmanlab.com/experiments/alicia/teaching/experiment/?hitId=3AQN9REUTF20OMGWRXYK787QVFOYDP&workerId=A3C8JI69WPTKWH&assignmentId=3OLF68YTNANYC8UJTZKWH5OR3Q5FA3&a=T6LO9&tp_a=T6LO9&b=3OLF68YTNANYC8UJTZKWH5OR3Q5FA3&tp_b=3OLF68YTNANYC8UJTZKWH5OR3Q5FA3&c=365799&tp_c=365799"},{"rt":7603,"response":{"heads":"0","tails":"6"},"type":"response","condition":"nonSeqFull","trueTheta":0.5,"classrooms":["C","D"],"studentTrueClassroom":"D","exampleSet":"first","trial_type":"survey-html-form","trial_index":62,"time_elapsed":1337908,"internal_node_id":"0.0-57.0-0.0","params":{"nStudents":24,"maxFlips":30,"completionMinutes":45,"basePay":8,"maxBonus":9,"perTrialBonus":0.5,"perTrialBonusThreshold":0.05,"exampleCost":0.01},"classroomParams":{"A":{"a":1,"b":4},"B":{"a":4,"b":1},"C":{"a":2,"b":8},"D":{"a":8,"b":2}},"conditions":["nonSeqFull","nonSeqPartial","seqNoFeedback","seqFeedback"],"classroomPairings":[["A","B"],["C","D"]],"coinWeights":[0.2,0.5,0.8],"subjectId":"A3C8JI69WPTKWH","assignmentId":"3OLF68YTNANYC8UJTZKWH5OR3Q5FA3","hitId":"3AQN9REUTF20OMGWRXYK787QVFOYDP","url":"https://gershmanlab.com/experiments/alicia/teaching/experiment/?hitId=3AQN9REUTF20OMGWRXYK787QVFOYDP&workerId=A3C8JI69WPTKWH&assignmentId=3OLF68YTNANYC8UJTZKWH5OR3Q5FA3&a=T6LO9&tp_a=T6LO9&b=3OLF68YTNANYC8UJTZKWH5OR3Q5FA3&tp_b=3OLF68YTNANYC8UJTZKWH5OR3Q5FA3&c=365799&tp_c=365799","heads":0,"tails":6,"studentIndex":6,"studentTrueHypers":{"a":8,"b":2},"studentGuess":0.5,"delta":0,"totalExamples":6,"bonus":0.44,"bonusSoFar":1.74},{"rt":null,"stimulus":"Sending examples to student... ","response":null,"trial_type":"html-keyboard-response","trial_index":63,"time_elapsed":1339912,"internal_node_id":"0.0-58.0","params":{"nStudents":24,"maxFlips":30,"completionMinutes":45,"basePay":8,"maxBonus":9,"perTrialBonus":0.5,"perTrialBonusThreshold":0.05,"exampleCost":0.01},"classroomParams":{"A":{"a":1,"b":4},"B":{"a":4,"b":1},"C":{"a":2,"b":8},"D":{"a":8,"b":2}},"conditions":["nonSeqFull","nonSeqPartial","seqNoFeedback","seqFeedback"],"classroomPairings":[["A","B"],["C","D"]],"coinWeights":[0.2,0.5,0.8],"subjectId":"A3C8JI69WPTKWH","assignmentId":"3OLF68YTNANYC8UJTZKWH5OR3Q5FA3","hitId":"3AQN9REUTF20OMGWRXYK787QVFOYDP","url":"https://gershmanlab.com/experiments/alicia/teaching/experiment/?hitId=3AQN9REUTF20OMGWRXYK787QVFOYDP&workerId=A3C8JI69WPTKWH&assignmentId=3OLF68YTNANYC8UJTZKWH5OR3Q5FA3&a=T6LO9&tp_a=T6LO9&b=3OLF68YTNANYC8UJTZKWH5OR3Q5FA3&tp_b=3OLF68YTNANYC8UJTZKWH5OR3Q5FA3&c=365799&tp_c=365799"},{"rt":null,"stimulus":"Examples sent to student! Waiting for student...","response":null,"trial_type":"html-keyboard-response","trial_index":64,"time_elapsed":1344914,"internal_node_id":"0.0-59.0","params":{"nStudents":24,"maxFlips":30,"completionMinutes":45,"basePay":8,"maxBonus":9,"perTrialBonus":0.5,"perTrialBonusThreshold":0.05,"exampleCost":0.01},"classroomParams":{"A":{"a":1,"b":4},"B":{"a":4,"b":1},"C":{"a":2,"b":8},"D":{"a":8,"b":2}},"conditions":["nonSeqFull","nonSeqPartial","seqNoFeedback","seqFeedback"],"classroomPairings":[["A","B"],["C","D"]],"coinWeights":[0.2,0.5,0.8],"subjectId":"A3C8JI69WPTKWH","assignmentId":"3OLF68YTNANYC8UJTZKWH5OR3Q5FA3","hitId":"3AQN9REUTF20OMGWRXYK787QVFOYDP","url":"https://gershmanlab.com/experiments/alicia/teaching/experiment/?hitId=3AQN9REUTF20OMGWRXYK787QVFOYDP&workerId=A3C8JI69WPTKWH&assignmentId=3OLF68YTNANYC8UJTZKWH5OR3Q5FA3&a=T6LO9&tp_a=T6LO9&b=3OLF68YTNANYC8UJTZKWH5OR3Q5FA3&tp_b=3OLF68YTNANYC8UJTZKWH5OR3Q5FA3&c=365799&tp_c=365799"},{"rt":10370,"stimulus":"\n                <p>Student's guess for coin weight: <b style=\"color:Tomato;\">0.50</b></p>\n                <p>You received a bonus of <b>$0.44</b>. Total bonus so far: <b>$1.74</b></b></p>\n                <p></p>\n                <p>Press any key to continue.</p>\n                ","response":" ","trial_type":"html-keyboard-response","trial_index":65,"time_elapsed":1355285,"internal_node_id":"0.0-60.0","params":{"nStudents":24,"maxFlips":30,"completionMinutes":45,"basePay":8,"maxBonus":9,"perTrialBonus":0.5,"perTrialBonusThreshold":0.05,"exampleCost":0.01},"classroomParams":{"A":{"a":1,"b":4},"B":{"a":4,"b":1},"C":{"a":2,"b":8},"D":{"a":8,"b":2}},"conditions":["nonSeqFull","nonSeqPartial","seqNoFeedback","seqFeedback"],"classroomPairings":[["A","B"],["C","D"]],"coinWeights":[0.2,0.5,0.8],"subjectId":"A3C8JI69WPTKWH","assignmentId":"3OLF68YTNANYC8UJTZKWH5OR3Q5FA3","hitId":"3AQN9REUTF20OMGWRXYK787QVFOYDP","url":"https://gershmanlab.com/experiments/alicia/teaching/experiment/?hitId=3AQN9REUTF20OMGWRXYK787QVFOYDP&workerId=A3C8JI69WPTKWH&assignmentId=3OLF68YTNANYC8UJTZKWH5OR3Q5FA3&a=T6LO9&tp_a=T6LO9&b=3OLF68YTNANYC8UJTZKWH5OR3Q5FA3&tp_b=3OLF68YTNANYC8UJTZKWH5OR3Q5FA3&c=365799&tp_c=365799"},{"rt":null,"stimulus":"<div style=\"font-size:60px;\">Next student</div>","response":null,"trial_type":"html-keyboard-response","trial_index":66,"time_elapsed":1357286,"internal_node_id":"0.0-61.0-0.0","params":{"nStudents":24,"maxFlips":30,"completionMinutes":45,"basePay":8,"maxBonus":9,"perTrialBonus":0.5,"perTrialBonusThreshold":0.05,"exampleCost":0.01},"classroomParams":{"A":{"a":1,"b":4},"B":{"a":4,"b":1},"C":{"a":2,"b":8},"D":{"a":8,"b":2}},"conditions":["nonSeqFull","nonSeqPartial","seqNoFeedback","seqFeedback"],"classroomPairings":[["A","B"],["C","D"]],"coinWeights":[0.2,0.5,0.8],"subjectId":"A3C8JI69WPTKWH","assignmentId":"3OLF68YTNANYC8UJTZKWH5OR3Q5FA3","hitId":"3AQN9REUTF20OMGWRXYK787QVFOYDP","url":"https://gershmanlab.com/experiments/alicia/teaching/experiment/?hitId=3AQN9REUTF20OMGWRXYK787QVFOYDP&workerId=A3C8JI69WPTKWH&assignmentId=3OLF68YTNANYC8UJTZKWH5OR3Q5FA3&a=T6LO9&tp_a=T6LO9&b=3OLF68YTNANYC8UJTZKWH5OR3Q5FA3&tp_b=3OLF68YTNANYC8UJTZKWH5OR3Q5FA3&c=365799&tp_c=365799"},{"rt":2985,"stimulus":"\n            <h4 style=\"color:Orange;\">Student 8</h4>\n            <h2>The weight of your coin is <b style=\"color:Tomato;\">0.2</b>.</h2>\n            <p>In this block, you will be giving <b>one</b> set of examples to Student 8.</p>\n                <p>You will receive feedback at the end of the block.</p>\n            <p></p>","response":0,"trial_type":"html-button-response","trial_index":67,"time_elapsed":1360272,"internal_node_id":"0.0-62.0","params":{"nStudents":24,"maxFlips":30,"completionMinutes":45,"basePay":8,"maxBonus":9,"perTrialBonus":0.5,"perTrialBonusThreshold":0.05,"exampleCost":0.01},"classroomParams":{"A":{"a":1,"b":4},"B":{"a":4,"b":1},"C":{"a":2,"b":8},"D":{"a":8,"b":2}},"conditions":["nonSeqFull","nonSeqPartial","seqNoFeedback","seqFeedback"],"classroomPairings":[["A","B"],["C","D"]],"coinWeights":[0.2,0.5,0.8],"subjectId":"A3C8JI69WPTKWH","assignmentId":"3OLF68YTNANYC8UJTZKWH5OR3Q5FA3","hitId":"3AQN9REUTF20OMGWRXYK787QVFOYDP","url":"https://gershmanlab.com/experiments/alicia/teaching/experiment/?hitId=3AQN9REUTF20OMGWRXYK787QVFOYDP&workerId=A3C8JI69WPTKWH&assignmentId=3OLF68YTNANYC8UJTZKWH5OR3Q5FA3&a=T6LO9&tp_a=T6LO9&b=3OLF68YTNANYC8UJTZKWH5OR3Q5FA3&tp_b=3OLF68YTNANYC8UJTZKWH5OR3Q5FA3&c=365799&tp_c=365799"},{"rt":12842,"response":{"heads":"0","tails":"1"},"type":"response","condition":"nonSeqPartial","trueTheta":0.2,"classrooms":["A","B"],"studentTrueClassroom":"A","exampleSet":"first","trial_type":"survey-html-form","trial_index":68,"time_elapsed":1373115,"internal_node_id":"0.0-63.0-0.0","params":{"nStudents":24,"maxFlips":30,"completionMinutes":45,"basePay":8,"maxBonus":9,"perTrialBonus":0.5,"perTrialBonusThreshold":0.05,"exampleCost":0.01},"classroomParams":{"A":{"a":1,"b":4},"B":{"a":4,"b":1},"C":{"a":2,"b":8},"D":{"a":8,"b":2}},"conditions":["nonSeqFull","nonSeqPartial","seqNoFeedback","seqFeedback"],"classroomPairings":[["A","B"],["C","D"]],"coinWeights":[0.2,0.5,0.8],"subjectId":"A3C8JI69WPTKWH","assignmentId":"3OLF68YTNANYC8UJTZKWH5OR3Q5FA3","hitId":"3AQN9REUTF20OMGWRXYK787QVFOYDP","url":"https://gershmanlab.com/experiments/alicia/teaching/experiment/?hitId=3AQN9REUTF20OMGWRXYK787QVFOYDP&workerId=A3C8JI69WPTKWH&assignmentId=3OLF68YTNANYC8UJTZKWH5OR3Q5FA3&a=T6LO9&tp_a=T6LO9&b=3OLF68YTNANYC8UJTZKWH5OR3Q5FA3&tp_b=3OLF68YTNANYC8UJTZKWH5OR3Q5FA3&c=365799&tp_c=365799","heads":0,"tails":1,"studentIndex":7,"studentTrueHypers":{"a":1,"b":4},"studentGuess":0.16666666666666666,"delta":0.033333333333333354,"totalExamples":1,"bonus":0.49,"bonusSoFar":2.23},{"rt":null,"stimulus":"Sending examples to student... ","response":null,"trial_type":"html-keyboard-response","trial_index":69,"time_elapsed":1374869,"internal_node_id":"0.0-64.0","params":{"nStudents":24,"maxFlips":30,"completionMinutes":45,"basePay":8,"maxBonus":9,"perTrialBonus":0.5,"perTrialBonusThreshold":0.05,"exampleCost":0.01},"classroomParams":{"A":{"a":1,"b":4},"B":{"a":4,"b":1},"C":{"a":2,"b":8},"D":{"a":8,"b":2}},"conditions":["nonSeqFull","nonSeqPartial","seqNoFeedback","seqFeedback"],"classroomPairings":[["A","B"],["C","D"]],"coinWeights":[0.2,0.5,0.8],"subjectId":"A3C8JI69WPTKWH","assignmentId":"3OLF68YTNANYC8UJTZKWH5OR3Q5FA3","hitId":"3AQN9REUTF20OMGWRXYK787QVFOYDP","url":"https://gershmanlab.com/experiments/alicia/teaching/experiment/?hitId=3AQN9REUTF20OMGWRXYK787QVFOYDP&workerId=A3C8JI69WPTKWH&assignmentId=3OLF68YTNANYC8UJTZKWH5OR3Q5FA3&a=T6LO9&tp_a=T6LO9&b=3OLF68YTNANYC8UJTZKWH5OR3Q5FA3&tp_b=3OLF68YTNANYC8UJTZKWH5OR3Q5FA3&c=365799&tp_c=365799"},{"rt":null,"stimulus":"Examples sent to student! Waiting for student...","response":null,"trial_type":"html-keyboard-response","trial_index":70,"time_elapsed":1380875,"internal_node_id":"0.0-65.0","params":{"nStudents":24,"maxFlips":30,"completionMinutes":45,"basePay":8,"maxBonus":9,"perTrialBonus":0.5,"perTrialBonusThreshold":0.05,"exampleCost":0.01},"classroomParams":{"A":{"a":1,"b":4},"B":{"a":4,"b":1},"C":{"a":2,"b":8},"D":{"a":8,"b":2}},"conditions":["nonSeqFull","nonSeqPartial","seqNoFeedback","seqFeedback"],"classroomPairings":[["A","B"],["C","D"]],"coinWeights":[0.2,0.5,0.8],"subjectId":"A3C8JI69WPTKWH","assignmentId":"3OLF68YTNANYC8UJTZKWH5OR3Q5FA3","hitId":"3AQN9REUTF20OMGWRXYK787QVFOYDP","url":"https://gershmanlab.com/experiments/alicia/teaching/experiment/?hitId=3AQN9REUTF20OMGWRXYK787QVFOYDP&workerId=A3C8JI69WPTKWH&assignmentId=3OLF68YTNANYC8UJTZKWH5OR3Q5FA3&a=T6LO9&tp_a=T6LO9&b=3OLF68YTNANYC8UJTZKWH5OR3Q5FA3&tp_b=3OLF68YTNANYC8UJTZKWH5OR3Q5FA3&c=365799&tp_c=365799"},{"rt":7665,"stimulus":"\n                <p>Student's guess for coin weight: <b style=\"color:Tomato;\">0.17</b></p>\n                <p>You received a bonus of <b>$0.49</b>. Total bonus so far: <b>$2.23</b></b></p>\n                <p></p>\n                <p>Press any key to continue.</p>\n                ","response":" ","trial_type":"html-keyboard-response","trial_index":71,"time_elapsed":1388540,"internal_node_id":"0.0-66.0","params":{"nStudents":24,"maxFlips":30,"completionMinutes":45,"basePay":8,"maxBonus":9,"perTrialBonus":0.5,"perTrialBonusThreshold":0.05,"exampleCost":0.01},"classroomParams":{"A":{"a":1,"b":4},"B":{"a":4,"b":1},"C":{"a":2,"b":8},"D":{"a":8,"b":2}},"conditions":["nonSeqFull","nonSeqPartial","seqNoFeedback","seqFeedback"],"classroomPairings":[["A","B"],["C","D"]],"coinWeights":[0.2,0.5,0.8],"subjectId":"A3C8JI69WPTKWH","assignmentId":"3OLF68YTNANYC8UJTZKWH5OR3Q5FA3","hitId":"3AQN9REUTF20OMGWRXYK787QVFOYDP","url":"https://gershmanlab.com/experiments/alicia/teaching/experiment/?hitId=3AQN9REUTF20OMGWRXYK787QVFOYDP&workerId=A3C8JI69WPTKWH&assignmentId=3OLF68YTNANYC8UJTZKWH5OR3Q5FA3&a=T6LO9&tp_a=T6LO9&b=3OLF68YTNANYC8UJTZKWH5OR3Q5FA3&tp_b=3OLF68YTNANYC8UJTZKWH5OR3Q5FA3&c=365799&tp_c=365799"},{"rt":null,"stimulus":"<div style=\"font-size:60px;\">Next student</div>","response":null,"trial_type":"html-keyboard-response","trial_index":72,"time_elapsed":1390543,"internal_node_id":"0.0-67.0-0.0","params":{"nStudents":24,"maxFlips":30,"completionMinutes":45,"basePay":8,"maxBonus":9,"perTrialBonus":0.5,"perTrialBonusThreshold":0.05,"exampleCost":0.01},"classroomParams":{"A":{"a":1,"b":4},"B":{"a":4,"b":1},"C":{"a":2,"b":8},"D":{"a":8,"b":2}},"conditions":["nonSeqFull","nonSeqPartial","seqNoFeedback","seqFeedback"],"classroomPairings":[["A","B"],["C","D"]],"coinWeights":[0.2,0.5,0.8],"subjectId":"A3C8JI69WPTKWH","assignmentId":"3OLF68YTNANYC8UJTZKWH5OR3Q5FA3","hitId":"3AQN9REUTF20OMGWRXYK787QVFOYDP","url":"https://gershmanlab.com/experiments/alicia/teaching/experiment/?hitId=3AQN9REUTF20OMGWRXYK787QVFOYDP&workerId=A3C8JI69WPTKWH&assignmentId=3OLF68YTNANYC8UJTZKWH5OR3Q5FA3&a=T6LO9&tp_a=T6LO9&b=3OLF68YTNANYC8UJTZKWH5OR3Q5FA3&tp_b=3OLF68YTNANYC8UJTZKWH5OR3Q5FA3&c=365799&tp_c=365799"},{"rt":3089,"stimulus":"\n            <h4 style=\"color:Orange;\">Student 9</h4>\n            <h2>The weight of your coin is <b style=\"color:Tomato;\">0.5</b>.</h2>\n            <p>In this block, you will be giving <b>one</b> set of examples to Student 9.</p>\n                <p>You will receive feedback at the end of the block.</p>\n            <p></p>","response":0,"trial_type":"html-button-response","trial_index":73,"time_elapsed":1393633,"internal_node_id":"0.0-68.0","params":{"nStudents":24,"maxFlips":30,"completionMinutes":45,"basePay":8,"maxBonus":9,"perTrialBonus":0.5,"perTrialBonusThreshold":0.05,"exampleCost":0.01},"classroomParams":{"A":{"a":1,"b":4},"B":{"a":4,"b":1},"C":{"a":2,"b":8},"D":{"a":8,"b":2}},"conditions":["nonSeqFull","nonSeqPartial","seqNoFeedback","seqFeedback"],"classroomPairings":[["A","B"],["C","D"]],"coinWeights":[0.2,0.5,0.8],"subjectId":"A3C8JI69WPTKWH","assignmentId":"3OLF68YTNANYC8UJTZKWH5OR3Q5FA3","hitId":"3AQN9REUTF20OMGWRXYK787QVFOYDP","url":"https://gershmanlab.com/experiments/alicia/teaching/experiment/?hitId=3AQN9REUTF20OMGWRXYK787QVFOYDP&workerId=A3C8JI69WPTKWH&assignmentId=3OLF68YTNANYC8UJTZKWH5OR3Q5FA3&a=T6LO9&tp_a=T6LO9&b=3OLF68YTNANYC8UJTZKWH5OR3Q5FA3&tp_b=3OLF68YTNANYC8UJTZKWH5OR3Q5FA3&c=365799&tp_c=365799"},{"rt":4900,"response":{"heads":"0","tails":"3"},"type":"response","condition":"nonSeqFull","trueTheta":0.5,"classrooms":["A","B"],"studentTrueClassroom":"B","exampleSet":"first","trial_type":"survey-html-form","trial_index":74,"time_elapsed":1398535,"internal_node_id":"0.0-69.0-0.0","params":{"nStudents":24,"maxFlips":30,"completionMinutes":45,"basePay":8,"maxBonus":9,"perTrialBonus":0.5,"perTrialBonusThreshold":0.05,"exampleCost":0.01},"classroomParams":{"A":{"a":1,"b":4},"B":{"a":4,"b":1},"C":{"a":2,"b":8},"D":{"a":8,"b":2}},"conditions":["nonSeqFull","nonSeqPartial","seqNoFeedback","seqFeedback"],"classroomPairings":[["A","B"],["C","D"]],"coinWeights":[0.2,0.5,0.8],"subjectId":"A3C8JI69WPTKWH","assignmentId":"3OLF68YTNANYC8UJTZKWH5OR3Q5FA3","hitId":"3AQN9REUTF20OMGWRXYK787QVFOYDP","url":"https://gershmanlab.com/experiments/alicia/teaching/experiment/?hitId=3AQN9REUTF20OMGWRXYK787QVFOYDP&workerId=A3C8JI69WPTKWH&assignmentId=3OLF68YTNANYC8UJTZKWH5OR3Q5FA3&a=T6LO9&tp_a=T6LO9&b=3OLF68YTNANYC8UJTZKWH5OR3Q5FA3&tp_b=3OLF68YTNANYC8UJTZKWH5OR3Q5FA3&c=365799&tp_c=365799","heads":0,"tails":3,"studentIndex":8,"studentTrueHypers":{"a":4,"b":1},"studentGuess":0.5,"delta":0,"totalExamples":3,"bonus":0.47,"bonusSoFar":2.7},{"rt":null,"stimulus":"Sending examples to student... ","response":null,"trial_type":"html-keyboard-response","trial_index":75,"time_elapsed":1400536,"internal_node_id":"0.0-70.0","params":{"nStudents":24,"maxFlips":30,"completionMinutes":45,"basePay":8,"maxBonus":9,"perTrialBonus":0.5,"perTrialBonusThreshold":0.05,"exampleCost":0.01},"classroomParams":{"A":{"a":1,"b":4},"B":{"a":4,"b":1},"C":{"a":2,"b":8},"D":{"a":8,"b":2}},"conditions":["nonSeqFull","nonSeqPartial","seqNoFeedback","seqFeedback"],"classroomPairings":[["A","B"],["C","D"]],"coinWeights":[0.2,0.5,0.8],"subjectId":"A3C8JI69WPTKWH","assignmentId":"3OLF68YTNANYC8UJTZKWH5OR3Q5FA3","hitId":"3AQN9REUTF20OMGWRXYK787QVFOYDP","url":"https://gershmanlab.com/experiments/alicia/teaching/experiment/?hitId=3AQN9REUTF20OMGWRXYK787QVFOYDP&workerId=A3C8JI69WPTKWH&assignmentId=3OLF68YTNANYC8UJTZKWH5OR3Q5FA3&a=T6LO9&tp_a=T6LO9&b=3OLF68YTNANYC8UJTZKWH5OR3Q5FA3&tp_b=3OLF68YTNANYC8UJTZKWH5OR3Q5FA3&c=365799&tp_c=365799"},{"rt":null,"stimulus":"Examples sent to student! Waiting for student...","response":null,"trial_type":"html-keyboard-response","trial_index":76,"time_elapsed":1406540,"internal_node_id":"0.0-71.0","params":{"nStudents":24,"maxFlips":30,"completionMinutes":45,"basePay":8,"maxBonus":9,"perTrialBonus":0.5,"perTrialBonusThreshold":0.05,"exampleCost":0.01},"classroomParams":{"A":{"a":1,"b":4},"B":{"a":4,"b":1},"C":{"a":2,"b":8},"D":{"a":8,"b":2}},"conditions":["nonSeqFull","nonSeqPartial","seqNoFeedback","seqFeedback"],"classroomPairings":[["A","B"],["C","D"]],"coinWeights":[0.2,0.5,0.8],"subjectId":"A3C8JI69WPTKWH","assignmentId":"3OLF68YTNANYC8UJTZKWH5OR3Q5FA3","hitId":"3AQN9REUTF20OMGWRXYK787QVFOYDP","url":"https://gershmanlab.com/experiments/alicia/teaching/experiment/?hitId=3AQN9REUTF20OMGWRXYK787QVFOYDP&workerId=A3C8JI69WPTKWH&assignmentId=3OLF68YTNANYC8UJTZKWH5OR3Q5FA3&a=T6LO9&tp_a=T6LO9&b=3OLF68YTNANYC8UJTZKWH5OR3Q5FA3&tp_b=3OLF68YTNANYC8UJTZKWH5OR3Q5FA3&c=365799&tp_c=365799"},{"rt":2870,"stimulus":"\n                <p>Student's guess for coin weight: <b style=\"color:Tomato;\">0.50</b></p>\n                <p>You received a bonus of <b>$0.47</b>. Total bonus so far: <b>$2.70</b></b></p>\n                <p></p>\n                <p>Press any key to continue.</p>\n                ","response":" ","trial_type":"html-keyboard-response","trial_index":77,"time_elapsed":1409411,"internal_node_id":"0.0-72.0","params":{"nStudents":24,"maxFlips":30,"completionMinutes":45,"basePay":8,"maxBonus":9,"perTrialBonus":0.5,"perTrialBonusThreshold":0.05,"exampleCost":0.01},"classroomParams":{"A":{"a":1,"b":4},"B":{"a":4,"b":1},"C":{"a":2,"b":8},"D":{"a":8,"b":2}},"conditions":["nonSeqFull","nonSeqPartial","seqNoFeedback","seqFeedback"],"classroomPairings":[["A","B"],["C","D"]],"coinWeights":[0.2,0.5,0.8],"subjectId":"A3C8JI69WPTKWH","assignmentId":"3OLF68YTNANYC8UJTZKWH5OR3Q5FA3","hitId":"3AQN9REUTF20OMGWRXYK787QVFOYDP","url":"https://gershmanlab.com/experiments/alicia/teaching/experiment/?hitId=3AQN9REUTF20OMGWRXYK787QVFOYDP&workerId=A3C8JI69WPTKWH&assignmentId=3OLF68YTNANYC8UJTZKWH5OR3Q5FA3&a=T6LO9&tp_a=T6LO9&b=3OLF68YTNANYC8UJTZKWH5OR3Q5FA3&tp_b=3OLF68YTNANYC8UJTZKWH5OR3Q5FA3&c=365799&tp_c=365799"},{"rt":null,"stimulus":"<div style=\"font-size:60px;\">Next student</div>","response":null,"trial_type":"html-keyboard-response","trial_index":78,"time_elapsed":1412416,"internal_node_id":"0.0-73.0-0.0","params":{"nStudents":24,"maxFlips":30,"completionMinutes":45,"basePay":8,"maxBonus":9,"perTrialBonus":0.5,"perTrialBonusThreshold":0.05,"exampleCost":0.01},"classroomParams":{"A":{"a":1,"b":4},"B":{"a":4,"b":1},"C":{"a":2,"b":8},"D":{"a":8,"b":2}},"conditions":["nonSeqFull","nonSeqPartial","seqNoFeedback","seqFeedback"],"classroomPairings":[["A","B"],["C","D"]],"coinWeights":[0.2,0.5,0.8],"subjectId":"A3C8JI69WPTKWH","assignmentId":"3OLF68YTNANYC8UJTZKWH5OR3Q5FA3","hitId":"3AQN9REUTF20OMGWRXYK787QVFOYDP","url":"https://gershmanlab.com/experiments/alicia/teaching/experiment/?hitId=3AQN9REUTF20OMGWRXYK787QVFOYDP&workerId=A3C8JI69WPTKWH&assignmentId=3OLF68YTNANYC8UJTZKWH5OR3Q5FA3&a=T6LO9&tp_a=T6LO9&b=3OLF68YTNANYC8UJTZKWH5OR3Q5FA3&tp_b=3OLF68YTNANYC8UJTZKWH5OR3Q5FA3&c=365799&tp_c=365799"},{"rt":3324,"stimulus":"\n            <h4 style=\"color:Orange;\">Student 10</h4>\n            <h2>The weight of your coin is <b style=\"color:Tomato;\">0.2</b>.</h2>\n            <p>In this block, you will be giving <b>two</b> sets of examples to Student 10.</p>\n                <p>You will see the student's guess after the first set of examples. You will also receive feedback at the end of the block.</p>\n            <p>To earn the highest bonus, you will have to <b>take into consideration the student's guess</b> when you choose your second set of examples.</p>","response":0,"trial_type":"html-button-response","trial_index":79,"time_elapsed":1415742,"internal_node_id":"0.0-74.0","params":{"nStudents":24,"maxFlips":30,"completionMinutes":45,"basePay":8,"maxBonus":9,"perTrialBonus":0.5,"perTrialBonusThreshold":0.05,"exampleCost":0.01},"classroomParams":{"A":{"a":1,"b":4},"B":{"a":4,"b":1},"C":{"a":2,"b":8},"D":{"a":8,"b":2}},"conditions":["nonSeqFull","nonSeqPartial","seqNoFeedback","seqFeedback"],"classroomPairings":[["A","B"],["C","D"]],"coinWeights":[0.2,0.5,0.8],"subjectId":"A3C8JI69WPTKWH","assignmentId":"3OLF68YTNANYC8UJTZKWH5OR3Q5FA3","hitId":"3AQN9REUTF20OMGWRXYK787QVFOYDP","url":"https://gershmanlab.com/experiments/alicia/teaching/experiment/?hitId=3AQN9REUTF20OMGWRXYK787QVFOYDP&workerId=A3C8JI69WPTKWH&assignmentId=3OLF68YTNANYC8UJTZKWH5OR3Q5FA3&a=T6LO9&tp_a=T6LO9&b=3OLF68YTNANYC8UJTZKWH5OR3Q5FA3&tp_b=3OLF68YTNANYC8UJTZKWH5OR3Q5FA3&c=365799&tp_c=365799"},{"rt":41212,"response":{"heads":"0","tails":"0"},"type":"response","condition":"seqFeedback","trueTheta":0.2,"classrooms":["A","B"],"studentTrueClassroom":"B","exampleSet":"first","trial_type":"survey-html-form","trial_index":80,"time_elapsed":1456953,"internal_node_id":"0.0-75.0-0.0","params":{"nStudents":24,"maxFlips":30,"completionMinutes":45,"basePay":8,"maxBonus":9,"perTrialBonus":0.5,"perTrialBonusThreshold":0.05,"exampleCost":0.01},"classroomParams":{"A":{"a":1,"b":4},"B":{"a":4,"b":1},"C":{"a":2,"b":8},"D":{"a":8,"b":2}},"conditions":["nonSeqFull","nonSeqPartial","seqNoFeedback","seqFeedback"],"classroomPairings":[["A","B"],["C","D"]],"coinWeights":[0.2,0.5,0.8],"subjectId":"A3C8JI69WPTKWH","assignmentId":"3OLF68YTNANYC8UJTZKWH5OR3Q5FA3","hitId":"3AQN9REUTF20OMGWRXYK787QVFOYDP","url":"https://gershmanlab.com/experiments/alicia/teaching/experiment/?hitId=3AQN9REUTF20OMGWRXYK787QVFOYDP&workerId=A3C8JI69WPTKWH&assignmentId=3OLF68YTNANYC8UJTZKWH5OR3Q5FA3&a=T6LO9&tp_a=T6LO9&b=3OLF68YTNANYC8UJTZKWH5OR3Q5FA3&tp_b=3OLF68YTNANYC8UJTZKWH5OR3Q5FA3&c=365799&tp_c=365799","heads":0,"tails":0,"studentIndex":9,"studentTrueHypers":{"a":4,"b":1},"studentGuess":0.8,"delta":0.6000000000000001,"totalExamples":0,"bonusSoFar":2.7},{"rt":23878,"response":{"heads":"1","tails":"4"},"type":"response","condition":"seqFeedback","trueTheta":0.2,"classrooms":["A","B"],"studentTrueClassroom":"B","exampleSet":"first","trial_type":"survey-html-form","trial_index":81,"time_elapsed":1480831,"internal_node_id":"0.0-75.1-0.1","params":{"nStudents":24,"maxFlips":30,"completionMinutes":45,"basePay":8,"maxBonus":9,"perTrialBonus":0.5,"perTrialBonusThreshold":0.05,"exampleCost":0.01},"classroomParams":{"A":{"a":1,"b":4},"B":{"a":4,"b":1},"C":{"a":2,"b":8},"D":{"a":8,"b":2}},"conditions":["nonSeqFull","nonSeqPartial","seqNoFeedback","seqFeedback"],"classroomPairings":[["A","B"],["C","D"]],"coinWeights":[0.2,0.5,0.8],"subjectId":"A3C8JI69WPTKWH","assignmentId":"3OLF68YTNANYC8UJTZKWH5OR3Q5FA3","hitId":"3AQN9REUTF20OMGWRXYK787QVFOYDP","url":"https://gershmanlab.com/experiments/alicia/teaching/experiment/?hitId=3AQN9REUTF20OMGWRXYK787QVFOYDP&workerId=A3C8JI69WPTKWH&assignmentId=3OLF68YTNANYC8UJTZKWH5OR3Q5FA3&a=T6LO9&tp_a=T6LO9&b=3OLF68YTNANYC8UJTZKWH5OR3Q5FA3&tp_b=3OLF68YTNANYC8UJTZKWH5OR3Q5FA3&c=365799&tp_c=365799","heads":1,"tails":4,"studentIndex":9,"studentTrueHypers":{"a":4,"b":1},"studentGuess":0.5,"delta":0.3,"totalExamples":5,"bonusSoFar":2.7},{"rt":null,"stimulus":"Sending examples to student... ","response":null,"trial_type":"html-keyboard-response","trial_index":82,"time_elapsed":1482834,"internal_node_id":"0.0-76.0","params":{"nStudents":24,"maxFlips":30,"completionMinutes":45,"basePay":8,"maxBonus":9,"perTrialBonus":0.5,"perTrialBonusThreshold":0.05,"exampleCost":0.01},"classroomParams":{"A":{"a":1,"b":4},"B":{"a":4,"b":1},"C":{"a":2,"b":8},"D":{"a":8,"b":2}},"conditions":["nonSeqFull","nonSeqPartial","seqNoFeedback","seqFeedback"],"classroomPairings":[["A","B"],["C","D"]],"coinWeights":[0.2,0.5,0.8],"subjectId":"A3C8JI69WPTKWH","assignmentId":"3OLF68YTNANYC8UJTZKWH5OR3Q5FA3","hitId":"3AQN9REUTF20OMGWRXYK787QVFOYDP","url":"https://gershmanlab.com/experiments/alicia/teaching/experiment/?hitId=3AQN9REUTF20OMGWRXYK787QVFOYDP&workerId=A3C8JI69WPTKWH&assignmentId=3OLF68YTNANYC8UJTZKWH5OR3Q5FA3&a=T6LO9&tp_a=T6LO9&b=3OLF68YTNANYC8UJTZKWH5OR3Q5FA3&tp_b=3OLF68YTNANYC8UJTZKWH5OR3Q5FA3&c=365799&tp_c=365799"},{"rt":null,"stimulus":"Examples sent to student! Waiting for student...","response":null,"trial_type":"html-keyboard-response","trial_index":83,"time_elapsed":1488838,"internal_node_id":"0.0-77.0","params":{"nStudents":24,"maxFlips":30,"completionMinutes":45,"basePay":8,"maxBonus":9,"perTrialBonus":0.5,"perTrialBonusThreshold":0.05,"exampleCost":0.01},"classroomParams":{"A":{"a":1,"b":4},"B":{"a":4,"b":1},"C":{"a":2,"b":8},"D":{"a":8,"b":2}},"conditions":["nonSeqFull","nonSeqPartial","seqNoFeedback","seqFeedback"],"classroomPairings":[["A","B"],["C","D"]],"coinWeights":[0.2,0.5,0.8],"subjectId":"A3C8JI69WPTKWH","assignmentId":"3OLF68YTNANYC8UJTZKWH5OR3Q5FA3","hitId":"3AQN9REUTF20OMGWRXYK787QVFOYDP","url":"https://gershmanlab.com/experiments/alicia/teaching/experiment/?hitId=3AQN9REUTF20OMGWRXYK787QVFOYDP&workerId=A3C8JI69WPTKWH&assignmentId=3OLF68YTNANYC8UJTZKWH5OR3Q5FA3&a=T6LO9&tp_a=T6LO9&b=3OLF68YTNANYC8UJTZKWH5OR3Q5FA3&tp_b=3OLF68YTNANYC8UJTZKWH5OR3Q5FA3&c=365799&tp_c=365799"},{"rt":2857,"stimulus":"\n                <p>Student's guess for coin weight: <b style=\"color:Tomato;\">0.80</b></p>\n                <p></b></p>\n                <p>You will now send another set of examples to your student. <b>Remember to take your student's guess into consideration so that you can earn the highest bonus possible!</b> </p>\n                <p>Press any key to continue.</p>\n                ","response":" ","trial_type":"html-keyboard-response","trial_index":84,"time_elapsed":1491696,"internal_node_id":"0.0-78.0","params":{"nStudents":24,"maxFlips":30,"completionMinutes":45,"basePay":8,"maxBonus":9,"perTrialBonus":0.5,"perTrialBonusThreshold":0.05,"exampleCost":0.01},"classroomParams":{"A":{"a":1,"b":4},"B":{"a":4,"b":1},"C":{"a":2,"b":8},"D":{"a":8,"b":2}},"conditions":["nonSeqFull","nonSeqPartial","seqNoFeedback","seqFeedback"],"classroomPairings":[["A","B"],["C","D"]],"coinWeights":[0.2,0.5,0.8],"subjectId":"A3C8JI69WPTKWH","assignmentId":"3OLF68YTNANYC8UJTZKWH5OR3Q5FA3","hitId":"3AQN9REUTF20OMGWRXYK787QVFOYDP","url":"https://gershmanlab.com/experiments/alicia/teaching/experiment/?hitId=3AQN9REUTF20OMGWRXYK787QVFOYDP&workerId=A3C8JI69WPTKWH&assignmentId=3OLF68Y