[{"rt":1893,"stimulus":"Welcome to the experiment. Press any key to begin.","response":" ","trial_type":"html-keyboard-response","trial_index":0,"time_elapsed":1920,"internal_node_id":"0.0-0.0","params":{"nStudents":24,"maxFlips":30,"completionMinutes":45,"basePay":8,"maxBonus":9,"perTrialBonus":0.5,"perTrialBonusThreshold":0.05,"exampleCost":0.01},"classroomParams":{"A":{"a":1,"b":4},"B":{"a":4,"b":1},"C":{"a":2,"b":8},"D":{"a":8,"b":2}},"conditions":["nonSeqFull","nonSeqPartial","seqNoFeedback","seqFeedback"],"classroomPairings":[["A","B"],["C","D"]],"coinWeights":[0.2,0.5,0.8],"subjectId":"A3CGQOJC28OVGN","assignmentId":"3Z4AIRP3C7ZJI684XAXPCBVV31VX1O","hitId":"3Z3R5YC0P3915KVY8X6BNRIWSQNFTT","url":"https://gershmanlab.com/experiments/alicia/teaching/experiment/?hitId=3Z3R5YC0P3915KVY8X6BNRIWSQNFTT&workerId=A3CGQOJC28OVGN&assignmentId=3Z4AIRP3C7ZJI684XAXPCBVV31VX1O&a=3I4Z9&tp_a=3I4Z9&b=3Z4AIRP3C7ZJI684XAXPCBVV31VX1O&tp_b=3Z4AIRP3C7ZJI684XAXPCBVV31VX1O&c=365799&tp_c=365799"},{"rt":4958,"stimulus":"\n        <h3>Please read this consent agreement carefully before deciding whether to participate in this experiment.</h3>\n        <p><b>Purpose of the research:</b> To examine how people teach effectively.</p>\n        <p><b>What you will do in this research:</b> You will teach students the weights of different coins.</p>\n        <p><b>Time required:</b> This experiment will take 45 minutes to complete.</p>\n        <p><b>Risks:</b> There are no anticipated risks associated with participating in this study.             The effects of participating should be comparable to those you would experience from viewing a computer monitor             and using a mouse and keyboard for the duration of the experiment.</p>\n        <p><b>Benefits:</b> The study provides important information about the nature of teaching.</p>\n        <p><b>Compensation:</b> You will receive <b>$8</b> for completing the experiment and a performance bonus of up to <b>$9</b>.</p>\n        <p><b>Confidentiality:</b> Your participation in this study will remain confidential.             No personally identifiable information will be associated with your data.             Your de-identified data may be shared with other researchers and used in future projects.</p>\n        <p><b>Participation and withdrawal:</b> Your participation in this study is completely voluntary and             you may refuse to participate or you may choose to withdraw at any time without penalty or loss of\n            benefits to which you are otherwise entitled.</p>\n        <p><b>How to contact the researcher:</b> If you have questions or concerns about your participation            or payment, or want to request a summary of research findings, please contact\n            Alicia Chen, aliciachen@college.harvard.edu.</p>\n        <p><b>Whom to contact about your rights in this research:</b> For questions, concerns, suggestions,             or complaints that have not been or cannot be addressed by the researcher, or to report             research-related harm, please contact the Committee on the Use of Human Subjects in Research at Harvard University,             1414 Massachusetts Avenue, Second Floor, Cambridge, MA 02138. Phone: 617-496-2847. Email: cuhs@fas.harvard.edu.</p>\n        ","response":0,"trial_type":"html-button-response","trial_index":1,"time_elapsed":6880,"internal_node_id":"0.0-1.0","params":{"nStudents":24,"maxFlips":30,"completionMinutes":45,"basePay":8,"maxBonus":9,"perTrialBonus":0.5,"perTrialBonusThreshold":0.05,"exampleCost":0.01},"classroomParams":{"A":{"a":1,"b":4},"B":{"a":4,"b":1},"C":{"a":2,"b":8},"D":{"a":8,"b":2}},"conditions":["nonSeqFull","nonSeqPartial","seqNoFeedback","seqFeedback"],"classroomPairings":[["A","B"],["C","D"]],"coinWeights":[0.2,0.5,0.8],"subjectId":"A3CGQOJC28OVGN","assignmentId":"3Z4AIRP3C7ZJI684XAXPCBVV31VX1O","hitId":"3Z3R5YC0P3915KVY8X6BNRIWSQNFTT","url":"https://gershmanlab.com/experiments/alicia/teaching/experiment/?hitId=3Z3R5YC0P3915KVY8X6BNRIWSQNFTT&workerId=A3CGQOJC28OVGN&assignmentId=3Z4AIRP3C7ZJI684XAXPCBVV31VX1O&a=3I4Z9&tp_a=3I4Z9&b=3Z4AIRP3C7ZJI684XAXPCBVV31VX1O&tp_b=3Z4AIRP3C7ZJI684XAXPCBVV31VX1O&c=365799&tp_c=365799"},{"view_history":[{"page_index":0,"viewing_time":4648},{"page_index":1,"viewing_time":2486},{"page_index":2,"viewing_time":22801},{"page_index":3,"viewing_time":17898},{"page_index":4,"viewing_time":13000},{"page_index":5,"viewing_time":20595},{"page_index":6,"viewing_time":30048}],"rt":111476,"trial_type":"instructions","trial_index":2,"time_elapsed":118354,"internal_node_id":"0.0-2.0-0.0","params":{"nStudents":24,"maxFlips":30,"completionMinutes":45,"basePay":8,"maxBonus":9,"perTrialBonus":0.5,"perTrialBonusThreshold":0.05,"exampleCost":0.01},"classroomParams":{"A":{"a":1,"b":4},"B":{"a":4,"b":1},"C":{"a":2,"b":8},"D":{"a":8,"b":2}},"conditions":["nonSeqFull","nonSeqPartial","seqNoFeedback","seqFeedback"],"classroomPairings":[["A","B"],["C","D"]],"coinWeights":[0.2,0.5,0.8],"subjectId":"A3CGQOJC28OVGN","assignmentId":"3Z4AIRP3C7ZJI684XAXPCBVV31VX1O","hitId":"3Z3R5YC0P3915KVY8X6BNRIWSQNFTT","url":"https://gershmanlab.com/experiments/alicia/teaching/experiment/?hitId=3Z3R5YC0P3915KVY8X6BNRIWSQNFTT&workerId=A3CGQOJC28OVGN&assignmentId=3Z4AIRP3C7ZJI684XAXPCBVV31VX1O&a=3I4Z9&tp_a=3I4Z9&b=3Z4AIRP3C7ZJI684XAXPCBVV31VX1O&tp_b=3Z4AIRP3C7ZJI684XAXPCBVV31VX1O&c=365799&tp_c=365799"},{"rt":43422,"response":{"Q0":"Students in different classrooms will have seen a different number of heads and tails before seeing the examples you select for them.","Q1":"By <b>considering the student's classroom information</b> so that I can teach efficiently and accurately/helpfully at the same time (because each example I give to the student costs money!).","Q2":"The coin lands heads 90% of the time.","Q3":"No, I will teach a <b>new</b> student each time.","Q4":"The students are also on the same alien planet as you, where coins can be unfair.","Q5":"Based on the student's second (and final) guess."},"question_order":[3,5,4,2,0,1],"trial_type":"survey-multi-choice","trial_index":3,"time_elapsed":161778,"internal_node_id":"0.0-2.0-1.0","params":{"nStudents":24,"maxFlips":30,"completionMinutes":45,"basePay":8,"maxBonus":9,"perTrialBonus":0.5,"perTrialBonusThreshold":0.05,"exampleCost":0.01},"classroomParams":{"A":{"a":1,"b":4},"B":{"a":4,"b":1},"C":{"a":2,"b":8},"D":{"a":8,"b":2}},"conditions":["nonSeqFull","nonSeqPartial","seqNoFeedback","seqFeedback"],"classroomPairings":[["A","B"],["C","D"]],"coinWeights":[0.2,0.5,0.8],"subjectId":"A3CGQOJC28OVGN","assignmentId":"3Z4AIRP3C7ZJI684XAXPCBVV31VX1O","hitId":"3Z3R5YC0P3915KVY8X6BNRIWSQNFTT","url":"https://gershmanlab.com/experiments/alicia/teaching/experiment/?hitId=3Z3R5YC0P3915KVY8X6BNRIWSQNFTT&workerId=A3CGQOJC28OVGN&assignmentId=3Z4AIRP3C7ZJI684XAXPCBVV31VX1O&a=3I4Z9&tp_a=3I4Z9&b=3Z4AIRP3C7ZJI684XAXPCBVV31VX1O&tp_b=3Z4AIRP3C7ZJI684XAXPCBVV31VX1O&c=365799&tp_c=365799","pass":true},{"rt":null,"stimulus":"<div style=\"font-size:30px;\">Congrats on passing the comprehension quiz! The experiment will begin in a few seconds.</div>","response":null,"trial_type":"html-keyboard-response","trial_index":4,"time_elapsed":164789,"internal_node_id":"0.0-3.0","params":{"nStudents":24,"maxFlips":30,"completionMinutes":45,"basePay":8,"maxBonus":9,"perTrialBonus":0.5,"perTrialBonusThreshold":0.05,"exampleCost":0.01},"classroomParams":{"A":{"a":1,"b":4},"B":{"a":4,"b":1},"C":{"a":2,"b":8},"D":{"a":8,"b":2}},"conditions":["nonSeqFull","nonSeqPartial","seqNoFeedback","seqFeedback"],"classroomPairings":[["A","B"],["C","D"]],"coinWeights":[0.2,0.5,0.8],"subjectId":"A3CGQOJC28OVGN","assignmentId":"3Z4AIRP3C7ZJI684XAXPCBVV31VX1O","hitId":"3Z3R5YC0P3915KVY8X6BNRIWSQNFTT","url":"https://gershmanlab.com/experiments/alicia/teaching/experiment/?hitId=3Z3R5YC0P3915KVY8X6BNRIWSQNFTT&workerId=A3CGQOJC28OVGN&assignmentId=3Z4AIRP3C7ZJI684XAXPCBVV31VX1O&a=3I4Z9&tp_a=3I4Z9&b=3Z4AIRP3C7ZJI684XAXPCBVV31VX1O&tp_b=3Z4AIRP3C7ZJI684XAXPCBVV31VX1O&c=365799&tp_c=365799"},{"rt":null,"stimulus":"<div style=\"font-size:50px;\">First student</div>","response":null,"trial_type":"html-keyboard-response","trial_index":5,"time_elapsed":167792,"internal_node_id":"0.0-4.0","params":{"nStudents":24,"maxFlips":30,"completionMinutes":45,"basePay":8,"maxBonus":9,"perTrialBonus":0.5,"perTrialBonusThreshold":0.05,"exampleCost":0.01},"classroomParams":{"A":{"a":1,"b":4},"B":{"a":4,"b":1},"C":{"a":2,"b":8},"D":{"a":8,"b":2}},"conditions":["nonSeqFull","nonSeqPartial","seqNoFeedback","seqFeedback"],"classroomPairings":[["A","B"],["C","D"]],"coinWeights":[0.2,0.5,0.8],"subjectId":"A3CGQOJC28OVGN","assignmentId":"3Z4AIRP3C7ZJI684XAXPCBVV31VX1O","hitId":"3Z3R5YC0P3915KVY8X6BNRIWSQNFTT","url":"https://gershmanlab.com/experiments/alicia/teaching/experiment/?hitId=3Z3R5YC0P3915KVY8X6BNRIWSQNFTT&workerId=A3CGQOJC28OVGN&assignmentId=3Z4AIRP3C7ZJI684XAXPCBVV31VX1O&a=3I4Z9&tp_a=3I4Z9&b=3Z4AIRP3C7ZJI684XAXPCBVV31VX1O&tp_b=3Z4AIRP3C7ZJI684XAXPCBVV31VX1O&c=365799&tp_c=365799"},{"rt":11219,"stimulus":"\n            <h4 style=\"color:Orange;\">Student 1</h4>\n            <h2>The weight of your coin is <b style=\"color:Tomato;\">0.8</b>.</h2>\n            <p>In this block, you will be giving <b>two</b> sets of examples to Student 1.</p>\n                <p>You will see the student's guess after the first set of examples. You will also receive feedback at the end of the block.</p>\n            <p>To earn the highest bonus, you will have to <b>take into consideration the student's guess</b> when you choose your second set of examples.</p>","response":0,"trial_type":"html-button-response","trial_index":6,"time_elapsed":179012,"internal_node_id":"0.0-5.0","params":{"nStudents":24,"maxFlips":30,"completionMinutes":45,"basePay":8,"maxBonus":9,"perTrialBonus":0.5,"perTrialBonusThreshold":0.05,"exampleCost":0.01},"classroomParams":{"A":{"a":1,"b":4},"B":{"a":4,"b":1},"C":{"a":2,"b":8},"D":{"a":8,"b":2}},"conditions":["nonSeqFull","nonSeqPartial","seqNoFeedback","seqFeedback"],"classroomPairings":[["A","B"],["C","D"]],"coinWeights":[0.2,0.5,0.8],"subjectId":"A3CGQOJC28OVGN","assignmentId":"3Z4AIRP3C7ZJI684XAXPCBVV31VX1O","hitId":"3Z3R5YC0P3915KVY8X6BNRIWSQNFTT","url":"https://gershmanlab.com/experiments/alicia/teaching/experiment/?hitId=3Z3R5YC0P3915KVY8X6BNRIWSQNFTT&workerId=A3CGQOJC28OVGN&assignmentId=3Z4AIRP3C7ZJI684XAXPCBVV31VX1O&a=3I4Z9&tp_a=3I4Z9&b=3Z4AIRP3C7ZJI684XAXPCBVV31VX1O&tp_b=3Z4AIRP3C7ZJI684XAXPCBVV31VX1O&c=365799&tp_c=365799"},{"rt":31617,"response":{"heads":"3","tails":"0"},"type":"response","condition":"seqFeedback","trueTheta":0.8,"classrooms":["C","D"],"studentTrueClassroom":"D","exampleSet":"first","trial_type":"survey-html-form","trial_index":7,"time_elapsed":210631,"internal_node_id":"0.0-6.0-0.0","params":{"nStudents":24,"maxFlips":30,"completionMinutes":45,"basePay":8,"maxBonus":9,"perTrialBonus":0.5,"perTrialBonusThreshold":0.05,"exampleCost":0.01},"classroomParams":{"A":{"a":1,"b":4},"B":{"a":4,"b":1},"C":{"a":2,"b":8},"D":{"a":8,"b":2}},"conditions":["nonSeqFull","nonSeqPartial","seqNoFeedback","seqFeedback"],"classroomPairings":[["A","B"],["C","D"]],"coinWeights":[0.2,0.5,0.8],"subjectId":"A3CGQOJC28OVGN","assignmentId":"3Z4AIRP3C7ZJI684XAXPCBVV31VX1O","hitId":"3Z3R5YC0P3915KVY8X6BNRIWSQNFTT","url":"https://gershmanlab.com/experiments/alicia/teaching/experiment/?hitId=3Z3R5YC0P3915KVY8X6BNRIWSQNFTT&workerId=A3CGQOJC28OVGN&assignmentId=3Z4AIRP3C7ZJI684XAXPCBVV31VX1O&a=3I4Z9&tp_a=3I4Z9&b=3Z4AIRP3C7ZJI684XAXPCBVV31VX1O&tp_b=3Z4AIRP3C7ZJI684XAXPCBVV31VX1O&c=365799&tp_c=365799","heads":3,"tails":0,"studentIndex":0,"studentTrueHypers":{"a":8,"b":2},"studentGuess":0.8461538461538461,"delta":0.0461538461538461,"totalExamples":3,"bonusSoFar":0},{"rt":null,"stimulus":"Sending examples to student... ","response":null,"trial_type":"html-keyboard-response","trial_index":8,"time_elapsed":212389,"internal_node_id":"0.0-7.0","params":{"nStudents":24,"maxFlips":30,"completionMinutes":45,"basePay":8,"maxBonus":9,"perTrialBonus":0.5,"perTrialBonusThreshold":0.05,"exampleCost":0.01},"classroomParams":{"A":{"a":1,"b":4},"B":{"a":4,"b":1},"C":{"a":2,"b":8},"D":{"a":8,"b":2}},"conditions":["nonSeqFull","nonSeqPartial","seqNoFeedback","seqFeedback"],"classroomPairings":[["A","B"],["C","D"]],"coinWeights":[0.2,0.5,0.8],"subjectId":"A3CGQOJC28OVGN","assignmentId":"3Z4AIRP3C7ZJI684XAXPCBVV31VX1O","hitId":"3Z3R5YC0P3915KVY8X6BNRIWSQNFTT","url":"https://gershmanlab.com/experiments/alicia/teaching/experiment/?hitId=3Z3R5YC0P3915KVY8X6BNRIWSQNFTT&workerId=A3CGQOJC28OVGN&assignmentId=3Z4AIRP3C7ZJI684XAXPCBVV31VX1O&a=3I4Z9&tp_a=3I4Z9&b=3Z4AIRP3C7ZJI684XAXPCBVV31VX1O&tp_b=3Z4AIRP3C7ZJI684XAXPCBVV31VX1O&c=365799&tp_c=365799"},{"rt":null,"stimulus":"Examples sent to student! Waiting for student...","response":null,"trial_type":"html-keyboard-response","trial_index":9,"time_elapsed":216893,"internal_node_id":"0.0-8.0","params":{"nStudents":24,"maxFlips":30,"completionMinutes":45,"basePay":8,"maxBonus":9,"perTrialBonus":0.5,"perTrialBonusThreshold":0.05,"exampleCost":0.01},"classroomParams":{"A":{"a":1,"b":4},"B":{"a":4,"b":1},"C":{"a":2,"b":8},"D":{"a":8,"b":2}},"conditions":["nonSeqFull","nonSeqPartial","seqNoFeedback","seqFeedback"],"classroomPairings":[["A","B"],["C","D"]],"coinWeights":[0.2,0.5,0.8],"subjectId":"A3CGQOJC28OVGN","assignmentId":"3Z4AIRP3C7ZJI684XAXPCBVV31VX1O","hitId":"3Z3R5YC0P3915KVY8X6BNRIWSQNFTT","url":"https://gershmanlab.com/experiments/alicia/teaching/experiment/?hitId=3Z3R5YC0P3915KVY8X6BNRIWSQNFTT&workerId=A3CGQOJC28OVGN&assignmentId=3Z4AIRP3C7ZJI684XAXPCBVV31VX1O&a=3I4Z9&tp_a=3I4Z9&b=3Z4AIRP3C7ZJI684XAXPCBVV31VX1O&tp_b=3Z4AIRP3C7ZJI684XAXPCBVV31VX1O&c=365799&tp_c=365799"},{"rt":6773,"stimulus":"\n                <p>Student's guess for coin weight: <b style=\"color:Tomato;\">0.85</b></p>\n                <p></b></p>\n                <p>You will now send another set of examples to your student. <b>Remember to take your student's guess into consideration so that you can earn the highest bonus possible!</b> </p>\n                <p>Press any key to continue.</p>\n                ","response":" ","trial_type":"html-keyboard-response","trial_index":10,"time_elapsed":223668,"internal_node_id":"0.0-9.0","params":{"nStudents":24,"maxFlips":30,"completionMinutes":45,"basePay":8,"maxBonus":9,"perTrialBonus":0.5,"perTrialBonusThreshold":0.05,"exampleCost":0.01},"classroomParams":{"A":{"a":1,"b":4},"B":{"a":4,"b":1},"C":{"a":2,"b":8},"D":{"a":8,"b":2}},"conditions":["nonSeqFull","nonSeqPartial","seqNoFeedback","seqFeedback"],"classroomPairings":[["A","B"],["C","D"]],"coinWeights":[0.2,0.5,0.8],"subjectId":"A3CGQOJC28OVGN","assignmentId":"3Z4AIRP3C7ZJI684XAXPCBVV31VX1O","hitId":"3Z3R5YC0P3915KVY8X6BNRIWSQNFTT","url":"https://gershmanlab.com/experiments/alicia/teaching/experiment/?hitId=3Z3R5YC0P3915KVY8X6BNRIWSQNFTT&workerId=A3CGQOJC28OVGN&assignmentId=3Z4AIRP3C7ZJI684XAXPCBVV31VX1O&a=3I4Z9&tp_a=3I4Z9&b=3Z4AIRP3C7ZJI684XAXPCBVV31VX1O&tp_b=3Z4AIRP3C7ZJI684XAXPCBVV31VX1O&c=365799&tp_c=365799"},{"rt":15252,"response":{"heads":"2","tails":"0"},"type":"response","condition":"seqFeedback","trueTheta":0.8,"classrooms":["C","D"],"studentTrueClassroom":"D","exampleSet":"second","trial_type":"survey-html-form","trial_index":11,"time_elapsed":238921,"internal_node_id":"0.0-10.0-0.0","params":{"nStudents":24,"maxFlips":30,"completionMinutes":45,"basePay":8,"maxBonus":9,"perTrialBonus":0.5,"perTrialBonusThreshold":0.05,"exampleCost":0.01},"classroomParams":{"A":{"a":1,"b":4},"B":{"a":4,"b":1},"C":{"a":2,"b":8},"D":{"a":8,"b":2}},"conditions":["nonSeqFull","nonSeqPartial","seqNoFeedback","seqFeedback"],"classroomPairings":[["A","B"],["C","D"]],"coinWeights":[0.2,0.5,0.8],"subjectId":"A3CGQOJC28OVGN","assignmentId":"3Z4AIRP3C7ZJI684XAXPCBVV31VX1O","hitId":"3Z3R5YC0P3915KVY8X6BNRIWSQNFTT","url":"https://gershmanlab.com/experiments/alicia/teaching/experiment/?hitId=3Z3R5YC0P3915KVY8X6BNRIWSQNFTT&workerId=A3CGQOJC28OVGN&assignmentId=3Z4AIRP3C7ZJI684XAXPCBVV31VX1O&a=3I4Z9&tp_a=3I4Z9&b=3Z4AIRP3C7ZJI684XAXPCBVV31VX1O&tp_b=3Z4AIRP3C7ZJI684XAXPCBVV31VX1O&c=365799&tp_c=365799","firstResponseHeads":3,"firstResponseTails":0,"secondResponseHeads":2,"secondResponseTails":0,"totalHeads":5,"totalTails":0,"studentIndex":0,"studentTrueHypers":{"a":8,"b":2},"studentGuess":0.8666666666666667,"delta":0.06666666666666665,"bonus":0,"bonusSoFar":0,"totalExamples":5},{"rt":null,"stimulus":"Sending examples to student... ","response":null,"trial_type":"html-keyboard-response","trial_index":12,"time_elapsed":240678,"internal_node_id":"0.0-11.0","params":{"nStudents":24,"maxFlips":30,"completionMinutes":45,"basePay":8,"maxBonus":9,"perTrialBonus":0.5,"perTrialBonusThreshold":0.05,"exampleCost":0.01},"classroomParams":{"A":{"a":1,"b":4},"B":{"a":4,"b":1},"C":{"a":2,"b":8},"D":{"a":8,"b":2}},"conditions":["nonSeqFull","nonSeqPartial","seqNoFeedback","seqFeedback"],"classroomPairings":[["A","B"],["C","D"]],"coinWeights":[0.2,0.5,0.8],"subjectId":"A3CGQOJC28OVGN","assignmentId":"3Z4AIRP3C7ZJI684XAXPCBVV31VX1O","hitId":"3Z3R5YC0P3915KVY8X6BNRIWSQNFTT","url":"https://gershmanlab.com/experiments/alicia/teaching/experiment/?hitId=3Z3R5YC0P3915KVY8X6BNRIWSQNFTT&workerId=A3CGQOJC28OVGN&assignmentId=3Z4AIRP3C7ZJI684XAXPCBVV31VX1O&a=3I4Z9&tp_a=3I4Z9&b=3Z4AIRP3C7ZJI684XAXPCBVV31VX1O&tp_b=3Z4AIRP3C7ZJI684XAXPCBVV31VX1O&c=365799&tp_c=365799"},{"rt":null,"stimulus":"Examples sent to student! Waiting for student...","response":null,"trial_type":"html-keyboard-response","trial_index":13,"time_elapsed":245182,"internal_node_id":"0.0-12.0","params":{"nStudents":24,"maxFlips":30,"completionMinutes":45,"basePay":8,"maxBonus":9,"perTrialBonus":0.5,"perTrialBonusThreshold":0.05,"exampleCost":0.01},"classroomParams":{"A":{"a":1,"b":4},"B":{"a":4,"b":1},"C":{"a":2,"b":8},"D":{"a":8,"b":2}},"conditions":["nonSeqFull","nonSeqPartial","seqNoFeedback","seqFeedback"],"classroomPairings":[["A","B"],["C","D"]],"coinWeights":[0.2,0.5,0.8],"subjectId":"A3CGQOJC28OVGN","assignmentId":"3Z4AIRP3C7ZJI684XAXPCBVV31VX1O","hitId":"3Z3R5YC0P3915KVY8X6BNRIWSQNFTT","url":"https://gershmanlab.com/experiments/alicia/teaching/experiment/?hitId=3Z3R5YC0P3915KVY8X6BNRIWSQNFTT&workerId=A3CGQOJC28OVGN&assignmentId=3Z4AIRP3C7ZJI684XAXPCBVV31VX1O&a=3I4Z9&tp_a=3I4Z9&b=3Z4AIRP3C7ZJI684XAXPCBVV31VX1O&tp_b=3Z4AIRP3C7ZJI684XAXPCBVV31VX1O&c=365799&tp_c=365799"},{"rt":7697,"stimulus":"\n                <p>Student 1's first guess for coin weight: <b style=\"color:Tomato\";>0.85</b></p>\n                <p>Student 1's second guess for coin weight: <b style=\"color:Tomato\";>0.87</b></p>\n                <p>You received a bonus of <b>$0.00</b> based on the student's second guess.</p>\n                <p>Total bonus so far: <b>$0.00</b></p>\n                <p>Press any key to continue.</p>\n                ","response":"enter","trial_type":"html-keyboard-response","trial_index":14,"time_elapsed":252881,"internal_node_id":"0.0-13.0","params":{"nStudents":24,"maxFlips":30,"completionMinutes":45,"basePay":8,"maxBonus":9,"perTrialBonus":0.5,"perTrialBonusThreshold":0.05,"exampleCost":0.01},"classroomParams":{"A":{"a":1,"b":4},"B":{"a":4,"b":1},"C":{"a":2,"b":8},"D":{"a":8,"b":2}},"conditions":["nonSeqFull","nonSeqPartial","seqNoFeedback","seqFeedback"],"classroomPairings":[["A","B"],["C","D"]],"coinWeights":[0.2,0.5,0.8],"subjectId":"A3CGQOJC28OVGN","assignmentId":"3Z4AIRP3C7ZJI684XAXPCBVV31VX1O","hitId":"3Z3R5YC0P3915KVY8X6BNRIWSQNFTT","url":"https://gershmanlab.com/experiments/alicia/teaching/experiment/?hitId=3Z3R5YC0P3915KVY8X6BNRIWSQNFTT&workerId=A3CGQOJC28OVGN&assignmentId=3Z4AIRP3C7ZJI684XAXPCBVV31VX1O&a=3I4Z9&tp_a=3I4Z9&b=3Z4AIRP3C7ZJI684XAXPCBVV31VX1O&tp_b=3Z4AIRP3C7ZJI684XAXPCBVV31VX1O&c=365799&tp_c=365799"},{"rt":null,"stimulus":"<div style=\"font-size:60px;\">Next student</div>","response":null,"trial_type":"html-keyboard-response","trial_index":15,"time_elapsed":255135,"internal_node_id":"0.0-14.0-0.0","params":{"nStudents":24,"maxFlips":30,"completionMinutes":45,"basePay":8,"maxBonus":9,"perTrialBonus":0.5,"perTrialBonusThreshold":0.05,"exampleCost":0.01},"classroomParams":{"A":{"a":1,"b":4},"B":{"a":4,"b":1},"C":{"a":2,"b":8},"D":{"a":8,"b":2}},"conditions":["nonSeqFull","nonSeqPartial","seqNoFeedback","seqFeedback"],"classroomPairings":[["A","B"],["C","D"]],"coinWeights":[0.2,0.5,0.8],"subjectId":"A3CGQOJC28OVGN","assignmentId":"3Z4AIRP3C7ZJI684XAXPCBVV31VX1O","hitId":"3Z3R5YC0P3915KVY8X6BNRIWSQNFTT","url":"https://gershmanlab.com/experiments/alicia/teaching/experiment/?hitId=3Z3R5YC0P3915KVY8X6BNRIWSQNFTT&workerId=A3CGQOJC28OVGN&assignmentId=3Z4AIRP3C7ZJI684XAXPCBVV31VX1O&a=3I4Z9&tp_a=3I4Z9&b=3Z4AIRP3C7ZJI684XAXPCBVV31VX1O&tp_b=3Z4AIRP3C7ZJI684XAXPCBVV31VX1O&c=365799&tp_c=365799"},{"rt":4644,"stimulus":"\n            <h4 style=\"color:Orange;\">Student 2</h4>\n            <h2>The weight of your coin is <b style=\"color:Tomato;\">0.2</b>.</h2>\n            <p>In this block, you will be giving <b>one</b> set of examples to Student 2.</p>\n                <p>You will receive feedback at the end of the block.</p>\n            <p></p>","response":0,"trial_type":"html-button-response","trial_index":16,"time_elapsed":259780,"internal_node_id":"0.0-15.0","params":{"nStudents":24,"maxFlips":30,"completionMinutes":45,"basePay":8,"maxBonus":9,"perTrialBonus":0.5,"perTrialBonusThreshold":0.05,"exampleCost":0.01},"classroomParams":{"A":{"a":1,"b":4},"B":{"a":4,"b":1},"C":{"a":2,"b":8},"D":{"a":8,"b":2}},"conditions":["nonSeqFull","nonSeqPartial","seqNoFeedback","seqFeedback"],"classroomPairings":[["A","B"],["C","D"]],"coinWeights":[0.2,0.5,0.8],"subjectId":"A3CGQOJC28OVGN","assignmentId":"3Z4AIRP3C7ZJI684XAXPCBVV31VX1O","hitId":"3Z3R5YC0P3915KVY8X6BNRIWSQNFTT","url":"https://gershmanlab.com/experiments/alicia/teaching/experiment/?hitId=3Z3R5YC0P3915KVY8X6BNRIWSQNFTT&workerId=A3CGQOJC28OVGN&assignmentId=3Z4AIRP3C7ZJI684XAXPCBVV31VX1O&a=3I4Z9&tp_a=3I4Z9&b=3Z4AIRP3C7ZJI684XAXPCBVV31VX1O&tp_b=3Z4AIRP3C7ZJI684XAXPCBVV31VX1O&c=365799&tp_c=365799"},{"rt":11376,"response":{"heads":"0","tails":"8"},"type":"response","condition":"nonSeqFull","trueTheta":0.2,"classrooms":["C","D"],"studentTrueClassroom":"D","exampleSet":"first","trial_type":"survey-html-form","trial_index":17,"time_elapsed":271158,"internal_node_id":"0.0-16.0-0.0","params":{"nStudents":24,"maxFlips":30,"completionMinutes":45,"basePay":8,"maxBonus":9,"perTrialBonus":0.5,"perTrialBonusThreshold":0.05,"exampleCost":0.01},"classroomParams":{"A":{"a":1,"b":4},"B":{"a":4,"b":1},"C":{"a":2,"b":8},"D":{"a":8,"b":2}},"conditions":["nonSeqFull","nonSeqPartial","seqNoFeedback","seqFeedback"],"classroomPairings":[["A","B"],["C","D"]],"coinWeights":[0.2,0.5,0.8],"subjectId":"A3CGQOJC28OVGN","assignmentId":"3Z4AIRP3C7ZJI684XAXPCBVV31VX1O","hitId":"3Z3R5YC0P3915KVY8X6BNRIWSQNFTT","url":"https://gershmanlab.com/experiments/alicia/teaching/experiment/?hitId=3Z3R5YC0P3915KVY8X6BNRIWSQNFTT&workerId=A3CGQOJC28OVGN&assignmentId=3Z4AIRP3C7ZJI684XAXPCBVV31VX1O&a=3I4Z9&tp_a=3I4Z9&b=3Z4AIRP3C7ZJI684XAXPCBVV31VX1O&tp_b=3Z4AIRP3C7ZJI684XAXPCBVV31VX1O&c=365799&tp_c=365799","heads":0,"tails":8,"studentIndex":1,"studentTrueHypers":{"a":8,"b":2},"studentGuess":0.4444444444444444,"delta":0.2444444444444444,"totalExamples":8,"bonus":0,"bonusSoFar":0},{"rt":null,"stimulus":"Sending examples to student... ","response":null,"trial_type":"html-keyboard-response","trial_index":18,"time_elapsed":272415,"internal_node_id":"0.0-17.0","params":{"nStudents":24,"maxFlips":30,"completionMinutes":45,"basePay":8,"maxBonus":9,"perTrialBonus":0.5,"perTrialBonusThreshold":0.05,"exampleCost":0.01},"classroomParams":{"A":{"a":1,"b":4},"B":{"a":4,"b":1},"C":{"a":2,"b":8},"D":{"a":8,"b":2}},"conditions":["nonSeqFull","nonSeqPartial","seqNoFeedback","seqFeedback"],"classroomPairings":[["A","B"],["C","D"]],"coinWeights":[0.2,0.5,0.8],"subjectId":"A3CGQOJC28OVGN","assignmentId":"3Z4AIRP3C7ZJI684XAXPCBVV31VX1O","hitId":"3Z3R5YC0P3915KVY8X6BNRIWSQNFTT","url":"https://gershmanlab.com/experiments/alicia/teaching/experiment/?hitId=3Z3R5YC0P3915KVY8X6BNRIWSQNFTT&workerId=A3CGQOJC28OVGN&assignmentId=3Z4AIRP3C7ZJI684XAXPCBVV31VX1O&a=3I4Z9&tp_a=3I4Z9&b=3Z4AIRP3C7ZJI684XAXPCBVV31VX1O&tp_b=3Z4AIRP3C7ZJI684XAXPCBVV31VX1O&c=365799&tp_c=365799"},{"rt":null,"stimulus":"Examples sent to student! Waiting for student...","response":null,"trial_type":"html-keyboard-response","trial_index":19,"time_elapsed":276918,"internal_node_id":"0.0-18.0","params":{"nStudents":24,"maxFlips":30,"completionMinutes":45,"basePay":8,"maxBonus":9,"perTrialBonus":0.5,"perTrialBonusThreshold":0.05,"exampleCost":0.01},"classroomParams":{"A":{"a":1,"b":4},"B":{"a":4,"b":1},"C":{"a":2,"b":8},"D":{"a":8,"b":2}},"conditions":["nonSeqFull","nonSeqPartial","seqNoFeedback","seqFeedback"],"classroomPairings":[["A","B"],["C","D"]],"coinWeights":[0.2,0.5,0.8],"subjectId":"A3CGQOJC28OVGN","assignmentId":"3Z4AIRP3C7ZJI684XAXPCBVV31VX1O","hitId":"3Z3R5YC0P3915KVY8X6BNRIWSQNFTT","url":"https://gershmanlab.com/experiments/alicia/teaching/experiment/?hitId=3Z3R5YC0P3915KVY8X6BNRIWSQNFTT&workerId=A3CGQOJC28OVGN&assignmentId=3Z4AIRP3C7ZJI684XAXPCBVV31VX1O&a=3I4Z9&tp_a=3I4Z9&b=3Z4AIRP3C7ZJI684XAXPCBVV31VX1O&tp_b=3Z4AIRP3C7ZJI684XAXPCBVV31VX1O&c=365799&tp_c=365799"},{"rt":6039,"stimulus":"\n                <p>Student's guess for coin weight: <b style=\"color:Tomato;\">0.44</b></p>\n                <p>You received a bonus of <b>$0</b>. Total bonus so far: <b>$0.00</b></b></p>\n                <p></p>\n                <p>Press any key to continue.</p>\n                ","response":" ","trial_type":"html-keyboard-response","trial_index":20,"time_elapsed":282958,"internal_node_id":"0.0-19.0","params":{"nStudents":24,"maxFlips":30,"completionMinutes":45,"basePay":8,"maxBonus":9,"perTrialBonus":0.5,"perTrialBonusThreshold":0.05,"exampleCost":0.01},"classroomParams":{"A":{"a":1,"b":4},"B":{"a":4,"b":1},"C":{"a":2,"b":8},"D":{"a":8,"b":2}},"conditions":["nonSeqFull","nonSeqPartial","seqNoFeedback","seqFeedback"],"classroomPairings":[["A","B"],["C","D"]],"coinWeights":[0.2,0.5,0.8],"subjectId":"A3CGQOJC28OVGN","assignmentId":"3Z4AIRP3C7ZJI684XAXPCBVV31VX1O","hitId":"3Z3R5YC0P3915KVY8X6BNRIWSQNFTT","url":"https://gershmanlab.com/experiments/alicia/teaching/experiment/?hitId=3Z3R5YC0P3915KVY8X6BNRIWSQNFTT&workerId=A3CGQOJC28OVGN&assignmentId=3Z4AIRP3C7ZJI684XAXPCBVV31VX1O&a=3I4Z9&tp_a=3I4Z9&b=3Z4AIRP3C7ZJI684XAXPCBVV31VX1O&tp_b=3Z4AIRP3C7ZJI684XAXPCBVV31VX1O&c=365799&tp_c=365799"},{"rt":null,"stimulus":"<div style=\"font-size:60px;\">Next student</div>","response":null,"trial_type":"html-keyboard-response","trial_index":21,"time_elapsed":285964,"internal_node_id":"0.0-20.0-0.0","params":{"nStudents":24,"maxFlips":30,"completionMinutes":45,"basePay":8,"maxBonus":9,"perTrialBonus":0.5,"perTrialBonusThreshold":0.05,"exampleCost":0.01},"classroomParams":{"A":{"a":1,"b":4},"B":{"a":4,"b":1},"C":{"a":2,"b":8},"D":{"a":8,"b":2}},"conditions":["nonSeqFull","nonSeqPartial","seqNoFeedback","seqFeedback"],"classroomPairings":[["A","B"],["C","D"]],"coinWeights":[0.2,0.5,0.8],"subjectId":"A3CGQOJC28OVGN","assignmentId":"3Z4AIRP3C7ZJI684XAXPCBVV31VX1O","hitId":"3Z3R5YC0P3915KVY8X6BNRIWSQNFTT","url":"https://gershmanlab.com/experiments/alicia/teaching/experiment/?hitId=3Z3R5YC0P3915KVY8X6BNRIWSQNFTT&workerId=A3CGQOJC28OVGN&assignmentId=3Z4AIRP3C7ZJI684XAXPCBVV31VX1O&a=3I4Z9&tp_a=3I4Z9&b=3Z4AIRP3C7ZJI684XAXPCBVV31VX1O&tp_b=3Z4AIRP3C7ZJI684XAXPCBVV31VX1O&c=365799&tp_c=365799"},{"rt":2723,"stimulus":"\n            <h4 style=\"color:Orange;\">Student 3</h4>\n            <h2>The weight of your coin is <b style=\"color:Tomato;\">0.2</b>.</h2>\n            <p>In this block, you will be giving <b>two</b> sets of examples to Student 3.</p>\n                <p>You will receive feedback at the end of the block.</p>\n            <p></p>","response":0,"trial_type":"html-button-response","trial_index":22,"time_elapsed":288688,"internal_node_id":"0.0-21.0","params":{"nStudents":24,"maxFlips":30,"completionMinutes":45,"basePay":8,"maxBonus":9,"perTrialBonus":0.5,"perTrialBonusThreshold":0.05,"exampleCost":0.01},"classroomParams":{"A":{"a":1,"b":4},"B":{"a":4,"b":1},"C":{"a":2,"b":8},"D":{"a":8,"b":2}},"conditions":["nonSeqFull","nonSeqPartial","seqNoFeedback","seqFeedback"],"classroomPairings":[["A","B"],["C","D"]],"coinWeights":[0.2,0.5,0.8],"subjectId":"A3CGQOJC28OVGN","assignmentId":"3Z4AIRP3C7ZJI684XAXPCBVV31VX1O","hitId":"3Z3R5YC0P3915KVY8X6BNRIWSQNFTT","url":"https://gershmanlab.com/experiments/alicia/teaching/experiment/?hitId=3Z3R5YC0P3915KVY8X6BNRIWSQNFTT&workerId=A3CGQOJC28OVGN&assignmentId=3Z4AIRP3C7ZJI684XAXPCBVV31VX1O&a=3I4Z9&tp_a=3I4Z9&b=3Z4AIRP3C7ZJI684XAXPCBVV31VX1O&tp_b=3Z4AIRP3C7ZJI684XAXPCBVV31VX1O&c=365799&tp_c=365799"},{"rt":9781,"response":{"heads":"0","tails":"3"},"type":"response","condition":"seqNoFeedback","trueTheta":0.2,"classrooms":["C","D"],"studentTrueClassroom":"C","exampleSet":"first","trial_type":"survey-html-form","trial_index":23,"time_elapsed":298470,"internal_node_id":"0.0-22.0-0.0","params":{"nStudents":24,"maxFlips":30,"completionMinutes":45,"basePay":8,"maxBonus":9,"perTrialBonus":0.5,"perTrialBonusThreshold":0.05,"exampleCost":0.01},"classroomParams":{"A":{"a":1,"b":4},"B":{"a":4,"b":1},"C":{"a":2,"b":8},"D":{"a":8,"b":2}},"conditions":["nonSeqFull","nonSeqPartial","seqNoFeedback","seqFeedback"],"classroomPairings":[["A","B"],["C","D"]],"coinWeights":[0.2,0.5,0.8],"subjectId":"A3CGQOJC28OVGN","assignmentId":"3Z4AIRP3C7ZJI684XAXPCBVV31VX1O","hitId":"3Z3R5YC0P3915KVY8X6BNRIWSQNFTT","url":"https://gershmanlab.com/experiments/alicia/teaching/experiment/?hitId=3Z3R5YC0P3915KVY8X6BNRIWSQNFTT&workerId=A3CGQOJC28OVGN&assignmentId=3Z4AIRP3C7ZJI684XAXPCBVV31VX1O&a=3I4Z9&tp_a=3I4Z9&b=3Z4AIRP3C7ZJI684XAXPCBVV31VX1O&tp_b=3Z4AIRP3C7ZJI684XAXPCBVV31VX1O&c=365799&tp_c=365799","heads":0,"tails":3,"studentIndex":2,"studentTrueHypers":{"a":2,"b":8},"studentGuess":0.15384615384615385,"delta":0.046153846153846156,"totalExamples":3,"bonusSoFar":0},{"rt":null,"stimulus":"Sending examples to student... ","response":null,"trial_type":"html-keyboard-response","trial_index":24,"time_elapsed":299976,"internal_node_id":"0.0-23.0","params":{"nStudents":24,"maxFlips":30,"completionMinutes":45,"basePay":8,"maxBonus":9,"perTrialBonus":0.5,"perTrialBonusThreshold":0.05,"exampleCost":0.01},"classroomParams":{"A":{"a":1,"b":4},"B":{"a":4,"b":1},"C":{"a":2,"b":8},"D":{"a":8,"b":2}},"conditions":["nonSeqFull","nonSeqPartial","seqNoFeedback","seqFeedback"],"classroomPairings":[["A","B"],["C","D"]],"coinWeights":[0.2,0.5,0.8],"subjectId":"A3CGQOJC28OVGN","assignmentId":"3Z4AIRP3C7ZJI684XAXPCBVV31VX1O","hitId":"3Z3R5YC0P3915KVY8X6BNRIWSQNFTT","url":"https://gershmanlab.com/experiments/alicia/teaching/experiment/?hitId=3Z3R5YC0P3915KVY8X6BNRIWSQNFTT&workerId=A3CGQOJC28OVGN&assignmentId=3Z4AIRP3C7ZJI684XAXPCBVV31VX1O&a=3I4Z9&tp_a=3I4Z9&b=3Z4AIRP3C7ZJI684XAXPCBVV31VX1O&tp_b=3Z4AIRP3C7ZJI684XAXPCBVV31VX1O&c=365799&tp_c=365799"},{"rt":null,"stimulus":"Examples sent to student! Waiting for student...","response":null,"trial_type":"html-keyboard-response","trial_index":25,"time_elapsed":304482,"internal_node_id":"0.0-24.0","params":{"nStudents":24,"maxFlips":30,"completionMinutes":45,"basePay":8,"maxBonus":9,"perTrialBonus":0.5,"perTrialBonusThreshold":0.05,"exampleCost":0.01},"classroomParams":{"A":{"a":1,"b":4},"B":{"a":4,"b":1},"C":{"a":2,"b":8},"D":{"a":8,"b":2}},"conditions":["nonSeqFull","nonSeqPartial","seqNoFeedback","seqFeedback"],"classroomPairings":[["A","B"],["C","D"]],"coinWeights":[0.2,0.5,0.8],"subjectId":"A3CGQOJC28OVGN","assignmentId":"3Z4AIRP3C7ZJI684XAXPCBVV31VX1O","hitId":"3Z3R5YC0P3915KVY8X6BNRIWSQNFTT","url":"https://gershmanlab.com/experiments/alicia/teaching/experiment/?hitId=3Z3R5YC0P3915KVY8X6BNRIWSQNFTT&workerId=A3CGQOJC28OVGN&assignmentId=3Z4AIRP3C7ZJI684XAXPCBVV31VX1O&a=3I4Z9&tp_a=3I4Z9&b=3Z4AIRP3C7ZJI684XAXPCBVV31VX1O&tp_b=3Z4AIRP3C7ZJI684XAXPCBVV31VX1O&c=365799&tp_c=365799"},{"rt":13439,"response":{"heads":"1","tails":"4"},"type":"response","condition":"seqNoFeedback","trueTheta":0.2,"classrooms":["C","D"],"studentTrueClassroom":"C","exampleSet":"second","trial_type":"survey-html-form","trial_index":26,"time_elapsed":317923,"internal_node_id":"0.0-25.0-0.0","params":{"nStudents":24,"maxFlips":30,"completionMinutes":45,"basePay":8,"maxBonus":9,"perTrialBonus":0.5,"perTrialBonusThreshold":0.05,"exampleCost":0.01},"classroomParams":{"A":{"a":1,"b":4},"B":{"a":4,"b":1},"C":{"a":2,"b":8},"D":{"a":8,"b":2}},"conditions":["nonSeqFull","nonSeqPartial","seqNoFeedback","seqFeedback"],"classroomPairings":[["A","B"],["C","D"]],"coinWeights":[0.2,0.5,0.8],"subjectId":"A3CGQOJC28OVGN","assignmentId":"3Z4AIRP3C7ZJI684XAXPCBVV31VX1O","hitId":"3Z3R5YC0P3915KVY8X6BNRIWSQNFTT","url":"https://gershmanlab.com/experiments/alicia/teaching/experiment/?hitId=3Z3R5YC0P3915KVY8X6BNRIWSQNFTT&workerId=A3CGQOJC28OVGN&assignmentId=3Z4AIRP3C7ZJI684XAXPCBVV31VX1O&a=3I4Z9&tp_a=3I4Z9&b=3Z4AIRP3C7ZJI684XAXPCBVV31VX1O&tp_b=3Z4AIRP3C7ZJI684XAXPCBVV31VX1O&c=365799&tp_c=365799","firstResponseHeads":0,"firstResponseTails":3,"secondResponseHeads":1,"secondResponseTails":4,"totalHeads":1,"totalTails":7,"studentIndex":2,"studentTrueHypers":{"a":2,"b":8},"studentGuess":0.16666666666666666,"delta":0.033333333333333354,"bonus":0.42,"bonusSoFar":0.42,"totalExamples":8},{"rt":null,"stimulus":"Sending examples to student... ","response":null,"trial_type":"html-keyboard-response","trial_index":27,"time_elapsed":319679,"internal_node_id":"0.0-26.0","params":{"nStudents":24,"maxFlips":30,"completionMinutes":45,"basePay":8,"maxBonus":9,"perTrialBonus":0.5,"perTrialBonusThreshold":0.05,"exampleCost":0.01},"classroomParams":{"A":{"a":1,"b":4},"B":{"a":4,"b":1},"C":{"a":2,"b":8},"D":{"a":8,"b":2}},"conditions":["nonSeqFull","nonSeqPartial","seqNoFeedback","seqFeedback"],"classroomPairings":[["A","B"],["C","D"]],"coinWeights":[0.2,0.5,0.8],"subjectId":"A3CGQOJC28OVGN","assignmentId":"3Z4AIRP3C7ZJI684XAXPCBVV31VX1O","hitId":"3Z3R5YC0P3915KVY8X6BNRIWSQNFTT","url":"https://gershmanlab.com/experiments/alicia/teaching/experiment/?hitId=3Z3R5YC0P3915KVY8X6BNRIWSQNFTT&workerId=A3CGQOJC28OVGN&assignmentId=3Z4AIRP3C7ZJI684XAXPCBVV31VX1O&a=3I4Z9&tp_a=3I4Z9&b=3Z4AIRP3C7ZJI684XAXPCBVV31VX1O&tp_b=3Z4AIRP3C7ZJI684XAXPCBVV31VX1O&c=365799&tp_c=365799"},{"rt":null,"stimulus":"Examples sent to student! Waiting for student...","response":null,"trial_type":"html-keyboard-response","trial_index":28,"time_elapsed":325183,"internal_node_id":"0.0-27.0","params":{"nStudents":24,"maxFlips":30,"completionMinutes":45,"basePay":8,"maxBonus":9,"perTrialBonus":0.5,"perTrialBonusThreshold":0.05,"exampleCost":0.01},"classroomParams":{"A":{"a":1,"b":4},"B":{"a":4,"b":1},"C":{"a":2,"b":8},"D":{"a":8,"b":2}},"conditions":["nonSeqFull","nonSeqPartial","seqNoFeedback","seqFeedback"],"classroomPairings":[["A","B"],["C","D"]],"coinWeights":[0.2,0.5,0.8],"subjectId":"A3CGQOJC28OVGN","assignmentId":"3Z4AIRP3C7ZJI684XAXPCBVV31VX1O","hitId":"3Z3R5YC0P3915KVY8X6BNRIWSQNFTT","url":"https://gershmanlab.com/experiments/alicia/teaching/experiment/?hitId=3Z3R5YC0P3915KVY8X6BNRIWSQNFTT&workerId=A3CGQOJC28OVGN&assignmentId=3Z4AIRP3C7ZJI684XAXPCBVV31VX1O&a=3I4Z9&tp_a=3I4Z9&b=3Z4AIRP3C7ZJI684XAXPCBVV31VX1O&tp_b=3Z4AIRP3C7ZJI684XAXPCBVV31VX1O&c=365799&tp_c=365799"},{"rt":4310,"stimulus":"\n                <p>Student 3's first guess for coin weight: <b style=\"color:Tomato\";>0.15</b></p>\n                <p>Student 3's second guess for coin weight: <b style=\"color:Tomato\";>0.17</b></p>\n                <p>You received a bonus of <b>$0.42</b> based on the student's second guess.</p>\n                <p>Total bonus so far: <b>$0.42</b></p>\n                <p>Press any key to continue.</p>\n                ","response":"arrowdown","trial_type":"html-keyboard-response","trial_index":29,"time_elapsed":329494,"internal_node_id":"0.0-28.0","params":{"nStudents":24,"maxFlips":30,"completionMinutes":45,"basePay":8,"maxBonus":9,"perTrialBonus":0.5,"perTrialBonusThreshold":0.05,"exampleCost":0.01},"classroomParams":{"A":{"a":1,"b":4},"B":{"a":4,"b":1},"C":{"a":2,"b":8},"D":{"a":8,"b":2}},"conditions":["nonSeqFull","nonSeqPartial","seqNoFeedback","seqFeedback"],"classroomPairings":[["A","B"],["C","D"]],"coinWeights":[0.2,0.5,0.8],"subjectId":"A3CGQOJC28OVGN","assignmentId":"3Z4AIRP3C7ZJI684XAXPCBVV31VX1O","hitId":"3Z3R5YC0P3915KVY8X6BNRIWSQNFTT","url":"https://gershmanlab.com/experiments/alicia/teaching/experiment/?hitId=3Z3R5YC0P3915KVY8X6BNRIWSQNFTT&workerId=A3CGQOJC28OVGN&assignmentId=3Z4AIRP3C7ZJI684XAXPCBVV31VX1O&a=3I4Z9&tp_a=3I4Z9&b=3Z4AIRP3C7ZJI684XAXPCBVV31VX1O&tp_b=3Z4AIRP3C7ZJI684XAXPCBVV31VX1O&c=365799&tp_c=365799"},{"rt":null,"stimulus":"<div style=\"font-size:60px;\">Next student</div>","response":null,"trial_type":"html-keyboard-response","trial_index":30,"time_elapsed":331996,"internal_node_id":"0.0-29.0-0.0","params":{"nStudents":24,"maxFlips":30,"completionMinutes":45,"basePay":8,"maxBonus":9,"perTrialBonus":0.5,"perTrialBonusThreshold":0.05,"exampleCost":0.01},"classroomParams":{"A":{"a":1,"b":4},"B":{"a":4,"b":1},"C":{"a":2,"b":8},"D":{"a":8,"b":2}},"conditions":["nonSeqFull","nonSeqPartial","seqNoFeedback","seqFeedback"],"classroomPairings":[["A","B"],["C","D"]],"coinWeights":[0.2,0.5,0.8],"subjectId":"A3CGQOJC28OVGN","assignmentId":"3Z4AIRP3C7ZJI684XAXPCBVV31VX1O","hitId":"3Z3R5YC0P3915KVY8X6BNRIWSQNFTT","url":"https://gershmanlab.com/experiments/alicia/teaching/experiment/?hitId=3Z3R5YC0P3915KVY8X6BNRIWSQNFTT&workerId=A3CGQOJC28OVGN&assignmentId=3Z4AIRP3C7ZJI684XAXPCBVV31VX1O&a=3I4Z9&tp_a=3I4Z9&b=3Z4AIRP3C7ZJI684XAXPCBVV31VX1O&tp_b=3Z4AIRP3C7ZJI684XAXPCBVV31VX1O&c=365799&tp_c=365799"},{"rt":149916,"stimulus":"\n            <h4 style=\"color:Orange;\">Student 4</h4>\n            <h2>The weight of your coin is <b style=\"color:Tomato;\">0.5</b>.</h2>\n            <p>In this block, you will be giving <b>two</b> sets of examples to Student 4.</p>\n                <p>You will see the student's guess after the first set of examples. You will also receive feedback at the end of the block.</p>\n            <p>To earn the highest bonus, you will have to <b>take into consideration the student's guess</b> when you choose your second set of examples.</p>","response":0,"trial_type":"html-button-response","trial_index":31,"time_elapsed":481908,"internal_node_id":"0.0-30.0","params":{"nStudents":24,"maxFlips":30,"completionMinutes":45,"basePay":8,"maxBonus":9,"perTrialBonus":0.5,"perTrialBonusThreshold":0.05,"exampleCost":0.01},"classroomParams":{"A":{"a":1,"b":4},"B":{"a":4,"b":1},"C":{"a":2,"b":8},"D":{"a":8,"b":2}},"conditions":["nonSeqFull","nonSeqPartial","seqNoFeedback","seqFeedback"],"classroomPairings":[["A","B"],["C","D"]],"coinWeights":[0.2,0.5,0.8],"subjectId":"A3CGQOJC28OVGN","assignmentId":"3Z4AIRP3C7ZJI684XAXPCBVV31VX1O","hitId":"3Z3R5YC0P3915KVY8X6BNRIWSQNFTT","url":"https://gershmanlab.com/experiments/alicia/teaching/experiment/?hitId=3Z3R5YC0P3915KVY8X6BNRIWSQNFTT&workerId=A3CGQOJC28OVGN&assignmentId=3Z4AIRP3C7ZJI684XAXPCBVV31VX1O&a=3I4Z9&tp_a=3I4Z9&b=3Z4AIRP3C7ZJI684XAXPCBVV31VX1O&tp_b=3Z4AIRP3C7ZJI684XAXPCBVV31VX1O&c=365799&tp_c=365799"},{"rt":5589,"response":{"heads":"1","tails":"1"},"type":"response","condition":"seqFeedback","trueTheta":0.5,"classrooms":["C","D"],"studentTrueClassroom":"C","exampleSet":"first","trial_type":"survey-html-form","trial_index":32,"time_elapsed":487498,"internal_node_id":"0.0-31.0-0.0","params":{"nStudents":24,"maxFlips":30,"completionMinutes":45,"basePay":8,"maxBonus":9,"perTrialBonus":0.5,"perTrialBonusThreshold":0.05,"exampleCost":0.01},"classroomParams":{"A":{"a":1,"b":4},"B":{"a":4,"b":1},"C":{"a":2,"b":8},"D":{"a":8,"b":2}},"conditions":["nonSeqFull","nonSeqPartial","seqNoFeedback","seqFeedback"],"classroomPairings":[["A","B"],["C","D"]],"coinWeights":[0.2,0.5,0.8],"subjectId":"A3CGQOJC28OVGN","assignmentId":"3Z4AIRP3C7ZJI684XAXPCBVV31VX1O","hitId":"3Z3R5YC0P3915KVY8X6BNRIWSQNFTT","url":"https://gershmanlab.com/experiments/alicia/teaching/experiment/?hitId=3Z3R5YC0P3915KVY8X6BNRIWSQNFTT&workerId=A3CGQOJC28OVGN&assignmentId=3Z4AIRP3C7ZJI684XAXPCBVV31VX1O&a=3I4Z9&tp_a=3I4Z9&b=3Z4AIRP3C7ZJI684XAXPCBVV31VX1O&tp_b=3Z4AIRP3C7ZJI684XAXPCBVV31VX1O&c=365799&tp_c=365799","heads":1,"tails":1,"studentIndex":3,"studentTrueHypers":{"a":2,"b":8},"studentGuess":0.25,"delta":0.25,"totalExamples":2,"bonusSoFar":0.42},{"rt":null,"stimulus":"Sending examples to student... ","response":null,"trial_type":"html-keyboard-response","trial_index":33,"time_elapsed":489503,"internal_node_id":"0.0-32.0","params":{"nStudents":24,"maxFlips":30,"completionMinutes":45,"basePay":8,"maxBonus":9,"perTrialBonus":0.5,"perTrialBonusThreshold":0.05,"exampleCost":0.01},"classroomParams":{"A":{"a":1,"b":4},"B":{"a":4,"b":1},"C":{"a":2,"b":8},"D":{"a":8,"b":2}},"conditions":["nonSeqFull","nonSeqPartial","seqNoFeedback","seqFeedback"],"classroomPairings":[["A","B"],["C","D"]],"coinWeights":[0.2,0.5,0.8],"subjectId":"A3CGQOJC28OVGN","assignmentId":"3Z4AIRP3C7ZJI684XAXPCBVV31VX1O","hitId":"3Z3R5YC0P3915KVY8X6BNRIWSQNFTT","url":"https://gershmanlab.com/experiments/alicia/teaching/experiment/?hitId=3Z3R5YC0P3915KVY8X6BNRIWSQNFTT&workerId=A3CGQOJC28OVGN&assignmentId=3Z4AIRP3C7ZJI684XAXPCBVV31VX1O&a=3I4Z9&tp_a=3I4Z9&b=3Z4AIRP3C7ZJI684XAXPCBVV31VX1O&tp_b=3Z4AIRP3C7ZJI684XAXPCBVV31VX1O&c=365799&tp_c=365799"},{"rt":null,"stimulus":"Examples sent to student! Waiting for student...","response":null,"trial_type":"html-keyboard-response","trial_index":34,"time_elapsed":494509,"internal_node_id":"0.0-33.0","params":{"nStudents":24,"maxFlips":30,"completionMinutes":45,"basePay":8,"maxBonus":9,"perTrialBonus":0.5,"perTrialBonusThreshold":0.05,"exampleCost":0.01},"classroomParams":{"A":{"a":1,"b":4},"B":{"a":4,"b":1},"C":{"a":2,"b":8},"D":{"a":8,"b":2}},"conditions":["nonSeqFull","nonSeqPartial","seqNoFeedback","seqFeedback"],"classroomPairings":[["A","B"],["C","D"]],"coinWeights":[0.2,0.5,0.8],"subjectId":"A3CGQOJC28OVGN","assignmentId":"3Z4AIRP3C7ZJI684XAXPCBVV31VX1O","hitId":"3Z3R5YC0P3915KVY8X6BNRIWSQNFTT","url":"https://gershmanlab.com/experiments/alicia/teaching/experiment/?hitId=3Z3R5YC0P3915KVY8X6BNRIWSQNFTT&workerId=A3CGQOJC28OVGN&assignmentId=3Z4AIRP3C7ZJI684XAXPCBVV31VX1O&a=3I4Z9&tp_a=3I4Z9&b=3Z4AIRP3C7ZJI684XAXPCBVV31VX1O&tp_b=3Z4AIRP3C7ZJI684XAXPCBVV31VX1O&c=365799&tp_c=365799"},{"rt":23232,"stimulus":"\n                <p>Student's guess for coin weight: <b style=\"color:Tomato;\">0.25</b></p>\n                <p></b></p>\n                <p>You will now send another set of examples to your student. <b>Remember to take your student's guess into consideration so that you can earn the highest bonus possible!</b> </p>\n                <p>Press any key to continue.</p>\n                ","response":" ","trial_type":"html-keyboard-response","trial_index":35,"time_elapsed":517741,"internal_node_id":"0.0-34.0","params":{"nStudents":24,"maxFlips":30,"completionMinutes":45,"basePay":8,"maxBonus":9,"perTrialBonus":0.5,"perTrialBonusThreshold":0.05,"exampleCost":0.01},"classroomParams":{"A":{"a":1,"b":4},"B":{"a":4,"b":1},"C":{"a":2,"b":8},"D":{"a":8,"b":2}},"conditions":["nonSeqFull","nonSeqPartial","seqNoFeedback","seqFeedback"],"classroomPairings":[["A","B"],["C","D"]],"coinWeights":[0.2,0.5,0.8],"subjectId":"A3CGQOJC28OVGN","assignmentId":"3Z4AIRP3C7ZJI684XAXPCBVV31VX1O","hitId":"3Z3R5YC0P3915KVY8X6BNRIWSQNFTT","url":"https://gershmanlab.com/experiments/alicia/teaching/experiment/?hitId=3Z3R5YC0P3915KVY8X6BNRIWSQNFTT&workerId=A3CGQOJC28OVGN&assignmentId=3Z4AIRP3C7ZJI684XAXPCBVV31VX1O&a=3I4Z9&tp_a=3I4Z9&b=3Z4AIRP3C7ZJI684XAXPCBVV31VX1O&tp_b=3Z4AIRP3C7ZJI684XAXPCBVV31VX1O&c=365799&tp_c=365799"},{"rt":9726,"response":{"heads":"1","tails":"1"},"type":"response","condition":"seqFeedback","trueTheta":0.5,"classrooms":["C","D"],"studentTrueClassroom":"C","exampleSet":"second","trial_type":"survey-html-form","trial_index":36,"time_elapsed":527469,"internal_node_id":"0.0-35.0-0.0","params":{"nStudents":24,"maxFlips":30,"completionMinutes":45,"basePay":8,"maxBonus":9,"perTrialBonus":0.5,"perTrialBonusThreshold":0.05,"exampleCost":0.01},"classroomParams":{"A":{"a":1,"b":4},"B":{"a":4,"b":1},"C":{"a":2,"b":8},"D":{"a":8,"b":2}},"conditions":["nonSeqFull","nonSeqPartial","seqNoFeedback","seqFeedback"],"classroomPairings":[["A","B"],["C","D"]],"coinWeights":[0.2,0.5,0.8],"subjectId":"A3CGQOJC28OVGN","assignmentId":"3Z4AIRP3C7ZJI684XAXPCBVV31VX1O","hitId":"3Z3R5YC0P3915KVY8X6BNRIWSQNFTT","url":"https://gershmanlab.com/experiments/alicia/teaching/experiment/?hitId=3Z3R5YC0P3915KVY8X6BNRIWSQNFTT&workerId=A3CGQOJC28OVGN&assignmentId=3Z4AIRP3C7ZJI684XAXPCBVV31VX1O&a=3I4Z9&tp_a=3I4Z9&b=3Z4AIRP3C7ZJI684XAXPCBVV31VX1O&tp_b=3Z4AIRP3C7ZJI684XAXPCBVV31VX1O&c=365799&tp_c=365799","firstResponseHeads":1,"firstResponseTails":1,"secondResponseHeads":1,"secondResponseTails":1,"totalHeads":2,"totalTails":2,"studentIndex":3,"studentTrueHypers":{"a":2,"b":8},"studentGuess":0.2857142857142857,"delta":0.2142857142857143,"bonus":0,"bonusSoFar":0.42,"totalExamples":4},{"rt":null,"stimulus":"Sending examples to student... ","response":null,"trial_type":"html-keyboard-response","trial_index":37,"time_elapsed":528725,"internal_node_id":"0.0-36.0","params":{"nStudents":24,"maxFlips":30,"completionMinutes":45,"basePay":8,"maxBonus":9,"perTrialBonus":0.5,"perTrialBonusThreshold":0.05,"exampleCost":0.01},"classroomParams":{"A":{"a":1,"b":4},"B":{"a":4,"b":1},"C":{"a":2,"b":8},"D":{"a":8,"b":2}},"conditions":["nonSeqFull","nonSeqPartial","seqNoFeedback","seqFeedback"],"classroomPairings":[["A","B"],["C","D"]],"coinWeights":[0.2,0.5,0.8],"subjectId":"A3CGQOJC28OVGN","assignmentId":"3Z4AIRP3C7ZJI684XAXPCBVV31VX1O","hitId":"3Z3R5YC0P3915KVY8X6BNRIWSQNFTT","url":"https://gershmanlab.com/experiments/alicia/teaching/experiment/?hitId=3Z3R5YC0P3915KVY8X6BNRIWSQNFTT&workerId=A3CGQOJC28OVGN&assignmentId=3Z4AIRP3C7ZJI684XAXPCBVV31VX1O&a=3I4Z9&tp_a=3I4Z9&b=3Z4AIRP3C7ZJI684XAXPCBVV31VX1O&tp_b=3Z4AIRP3C7ZJI684XAXPCBVV31VX1O&c=365799&tp_c=365799"},{"rt":null,"stimulus":"Examples sent to student! Waiting for student...","response":null,"trial_type":"html-keyboard-response","trial_index":38,"time_elapsed":532731,"internal_node_id":"0.0-37.0","params":{"nStudents":24,"maxFlips":30,"completionMinutes":45,"basePay":8,"maxBonus":9,"perTrialBonus":0.5,"perTrialBonusThreshold":0.05,"exampleCost":0.01},"classroomParams":{"A":{"a":1,"b":4},"B":{"a":4,"b":1},"C":{"a":2,"b":8},"D":{"a":8,"b":2}},"conditions":["nonSeqFull","nonSeqPartial","seqNoFeedback","seqFeedback"],"classroomPairings":[["A","B"],["C","D"]],"coinWeights":[0.2,0.5,0.8],"subjectId":"A3CGQOJC28OVGN","assignmentId":"3Z4AIRP3C7ZJI684XAXPCBVV31VX1O","hitId":"3Z3R5YC0P3915KVY8X6BNRIWSQNFTT","url":"https://gershmanlab.com/experiments/alicia/teaching/experiment/?hitId=3Z3R5YC0P3915KVY8X6BNRIWSQNFTT&workerId=A3CGQOJC28OVGN&assignmentId=3Z4AIRP3C7ZJI684XAXPCBVV31VX1O&a=3I4Z9&tp_a=3I4Z9&b=3Z4AIRP3C7ZJI684XAXPCBVV31VX1O&tp_b=3Z4AIRP3C7ZJI684XAXPCBVV31VX1O&c=365799&tp_c=365799"},{"rt":1762,"stimulus":"\n                <p>Student 4's first guess for coin weight: <b style=\"color:Tomato\";>0.25</b></p>\n                <p>Student 4's second guess for coin weight: <b style=\"color:Tomato\";>0.29</b></p>\n                <p>You received a bonus of <b>$0.00</b> based on the student's second guess.</p>\n                <p>Total bonus so far: <b>$0.42</b></p>\n                <p>Press any key to continue.</p>\n                ","response":" ","trial_type":"html-keyboard-response","trial_index":39,"time_elapsed":534494,"internal_node_id":"0.0-38.0","params":{"nStudents":24,"maxFlips":30,"completionMinutes":45,"basePay":8,"maxBonus":9,"perTrialBonus":0.5,"perTrialBonusThreshold":0.05,"exampleCost":0.01},"classroomParams":{"A":{"a":1,"b":4},"B":{"a":4,"b":1},"C":{"a":2,"b":8},"D":{"a":8,"b":2}},"conditions":["nonSeqFull","nonSeqPartial","seqNoFeedback","seqFeedback"],"classroomPairings":[["A","B"],["C","D"]],"coinWeights":[0.2,0.5,0.8],"subjectId":"A3CGQOJC28OVGN","assignmentId":"3Z4AIRP3C7ZJI684XAXPCBVV31VX1O","hitId":"3Z3R5YC0P3915KVY8X6BNRIWSQNFTT","url":"https://gershmanlab.com/experiments/alicia/teaching/experiment/?hitId=3Z3R5YC0P3915KVY8X6BNRIWSQNFTT&workerId=A3CGQOJC28OVGN&assignmentId=3Z4AIRP3C7ZJI684XAXPCBVV31VX1O&a=3I4Z9&tp_a=3I4Z9&b=3Z4AIRP3C7ZJI684XAXPCBVV31VX1O&tp_b=3Z4AIRP3C7ZJI684XAXPCBVV31VX1O&c=365799&tp_c=365799"},{"rt":null,"stimulus":"<div style=\"font-size:60px;\">Next student</div>","response":null,"trial_type":"html-keyboard-response","trial_index":40,"time_elapsed":537871,"internal_node_id":"0.0-39.0-0.0","params":{"nStudents":24,"maxFlips":30,"completionMinutes":45,"basePay":8,"maxBonus":9,"perTrialBonus":0.5,"perTrialBonusThreshold":0.05,"exampleCost":0.01},"classroomParams":{"A":{"a":1,"b":4},"B":{"a":4,"b":1},"C":{"a":2,"b":8},"D":{"a":8,"b":2}},"conditions":["nonSeqFull","nonSeqPartial","seqNoFeedback","seqFeedback"],"classroomPairings":[["A","B"],["C","D"]],"coinWeights":[0.2,0.5,0.8],"subjectId":"A3CGQOJC28OVGN","assignmentId":"3Z4AIRP3C7ZJI684XAXPCBVV31VX1O","hitId":"3Z3R5YC0P3915KVY8X6BNRIWSQNFTT","url":"https://gershmanlab.com/experiments/alicia/teaching/experiment/?hitId=3Z3R5YC0P3915KVY8X6BNRIWSQNFTT&workerId=A3CGQOJC28OVGN&assignmentId=3Z4AIRP3C7ZJI684XAXPCBVV31VX1O&a=3I4Z9&tp_a=3I4Z9&b=3Z4AIRP3C7ZJI684XAXPCBVV31VX1O&tp_b=3Z4AIRP3C7ZJI684XAXPCBVV31VX1O&c=365799&tp_c=365799"},{"rt":6661,"stimulus":"\n            <h4 style=\"color:Orange;\">Student 5</h4>\n            <h2>The weight of your coin is <b style=\"color:Tomato;\">0.8</b>.</h2>\n            <p>In this block, you will be giving <b>two</b> sets of examples to Student 5.</p>\n                <p>You will receive feedback at the end of the block.</p>\n            <p></p>","response":0,"trial_type":"html-button-response","trial_index":41,"time_elapsed":544532,"internal_node_id":"0.0-40.0","params":{"nStudents":24,"maxFlips":30,"completionMinutes":45,"basePay":8,"maxBonus":9,"perTrialBonus":0.5,"perTrialBonusThreshold":0.05,"exampleCost":0.01},"classroomParams":{"A":{"a":1,"b":4},"B":{"a":4,"b":1},"C":{"a":2,"b":8},"D":{"a":8,"b":2}},"conditions":["nonSeqFull","nonSeqPartial","seqNoFeedback","seqFeedback"],"classroomPairings":[["A","B"],["C","D"]],"coinWeights":[0.2,0.5,0.8],"subjectId":"A3CGQOJC28OVGN","assignmentId":"3Z4AIRP3C7ZJI684XAXPCBVV31VX1O","hitId":"3Z3R5YC0P3915KVY8X6BNRIWSQNFTT","url":"https://gershmanlab.com/experiments/alicia/teaching/experiment/?hitId=3Z3R5YC0P3915KVY8X6BNRIWSQNFTT&workerId=A3CGQOJC28OVGN&assignmentId=3Z4AIRP3C7ZJI684XAXPCBVV31VX1O&a=3I4Z9&tp_a=3I4Z9&b=3Z4AIRP3C7ZJI684XAXPCBVV31VX1O&tp_b=3Z4AIRP3C7ZJI684XAXPCBVV31VX1O&c=365799&tp_c=365799"},{"rt":13968,"response":{"heads":"4","tails":"1"},"type":"response","condition":"seqNoFeedback","trueTheta":0.8,"classrooms":["C","D"],"studentTrueClassroom":"C","exampleSet":"first","trial_type":"survey-html-form","trial_index":42,"time_elapsed":558502,"internal_node_id":"0.0-41.0-0.0","params":{"nStudents":24,"maxFlips":30,"completionMinutes":45,"basePay":8,"maxBonus":9,"perTrialBonus":0.5,"perTrialBonusThreshold":0.05,"exampleCost":0.01},"classroomParams":{"A":{"a":1,"b":4},"B":{"a":4,"b":1},"C":{"a":2,"b":8},"D":{"a":8,"b":2}},"conditions":["nonSeqFull","nonSeqPartial","seqNoFeedback","seqFeedback"],"classroomPairings":[["A","B"],["C","D"]],"coinWeights":[0.2,0.5,0.8],"subjectId":"A3CGQOJC28OVGN","assignmentId":"3Z4AIRP3C7ZJI684XAXPCBVV31VX1O","hitId":"3Z3R5YC0P3915KVY8X6BNRIWSQNFTT","url":"https://gershmanlab.com/experiments/alicia/teaching/experiment/?hitId=3Z3R5YC0P3915KVY8X6BNRIWSQNFTT&workerId=A3CGQOJC28OVGN&assignmentId=3Z4AIRP3C7ZJI684XAXPCBVV31VX1O&a=3I4Z9&tp_a=3I4Z9&b=3Z4AIRP3C7ZJI684XAXPCBVV31VX1O&tp_b=3Z4AIRP3C7ZJI684XAXPCBVV31VX1O&c=365799&tp_c=365799","heads":4,"tails":1,"studentIndex":4,"studentTrueHypers":{"a":2,"b":8},"studentGuess":0.4,"delta":0.4,"totalExamples":5,"bonusSoFar":0.42},{"rt":null,"stimulus":"Sending examples to student... ","response":null,"trial_type":"html-keyboard-response","trial_index":43,"time_elapsed":560008,"internal_node_id":"0.0-42.0","params":{"nStudents":24,"maxFlips":30,"completionMinutes":45,"basePay":8,"maxBonus":9,"perTrialBonus":0.5,"perTrialBonusThreshold":0.05,"exampleCost":0.01},"classroomParams":{"A":{"a":1,"b":4},"B":{"a":4,"b":1},"C":{"a":2,"b":8},"D":{"a":8,"b":2}},"conditions":["nonSeqFull","nonSeqPartial","seqNoFeedback","seqFeedback"],"classroomPairings":[["A","B"],["C","D"]],"coinWeights":[0.2,0.5,0.8],"subjectId":"A3CGQOJC28OVGN","assignmentId":"3Z4AIRP3C7ZJI684XAXPCBVV31VX1O","hitId":"3Z3R5YC0P3915KVY8X6BNRIWSQNFTT","url":"https://gershmanlab.com/experiments/alicia/teaching/experiment/?hitId=3Z3R5YC0P3915KVY8X6BNRIWSQNFTT&workerId=A3CGQOJC28OVGN&assignmentId=3Z4AIRP3C7ZJI684XAXPCBVV31VX1O&a=3I4Z9&tp_a=3I4Z9&b=3Z4AIRP3C7ZJI684XAXPCBVV31VX1O&tp_b=3Z4AIRP3C7ZJI684XAXPCBVV31VX1O&c=365799&tp_c=365799"},{"rt":null,"stimulus":"Examples sent to student! Waiting for student...","response":null,"trial_type":"html-keyboard-response","trial_index":44,"time_elapsed":565009,"internal_node_id":"0.0-43.0","params":{"nStudents":24,"maxFlips":30,"completionMinutes":45,"basePay":8,"maxBonus":9,"perTrialBonus":0.5,"perTrialBonusThreshold":0.05,"exampleCost":0.01},"classroomParams":{"A":{"a":1,"b":4},"B":{"a":4,"b":1},"C":{"a":2,"b":8},"D":{"a":8,"b":2}},"conditions":["nonSeqFull","nonSeqPartial","seqNoFeedback","seqFeedback"],"classroomPairings":[["A","B"],["C","D"]],"coinWeights":[0.2,0.5,0.8],"subjectId":"A3CGQOJC28OVGN","assignmentId":"3Z4AIRP3C7ZJI684XAXPCBVV31VX1O","hitId":"3Z3R5YC0P3915KVY8X6BNRIWSQNFTT","url":"https://gershmanlab.com/experiments/alicia/teaching/experiment/?hitId=3Z3R5YC0P3915KVY8X6BNRIWSQNFTT&workerId=A3CGQOJC28OVGN&assignmentId=3Z4AIRP3C7ZJI684XAXPCBVV31VX1O&a=3I4Z9&tp_a=3I4Z9&b=3Z4AIRP3C7ZJI684XAXPCBVV31VX1O&tp_b=3Z4AIRP3C7ZJI684XAXPCBVV31VX1O&c=365799&tp_c=365799"},{"rt":31848,"response":{"heads":"8","tails":"2"},"type":"response","condition":"seqNoFeedback","trueTheta":0.8,"classrooms":["C","D"],"studentTrueClassroom":"C","exampleSet":"second","trial_type":"survey-html-form","trial_index":45,"time_elapsed":596858,"internal_node_id":"0.0-44.0-0.0","params":{"nStudents":24,"maxFlips":30,"completionMinutes":45,"basePay":8,"maxBonus":9,"perTrialBonus":0.5,"perTrialBonusThreshold":0.05,"exampleCost":0.01},"classroomParams":{"A":{"a":1,"b":4},"B":{"a":4,"b":1},"C":{"a":2,"b":8},"D":{"a":8,"b":2}},"conditions":["nonSeqFull","nonSeqPartial","seqNoFeedback","seqFeedback"],"classroomPairings":[["A","B"],["C","D"]],"coinWeights":[0.2,0.5,0.8],"subjectId":"A3CGQOJC28OVGN","assignmentId":"3Z4AIRP3C7ZJI684XAXPCBVV31VX1O","hitId":"3Z3R5YC0P3915KVY8X6BNRIWSQNFTT","url":"https://gershmanlab.com/experiments/alicia/teaching/experiment/?hitId=3Z3R5YC0P3915KVY8X6BNRIWSQNFTT&workerId=A3CGQOJC28OVGN&assignmentId=3Z4AIRP3C7ZJI684XAXPCBVV31VX1O&a=3I4Z9&tp_a=3I4Z9&b=3Z4AIRP3C7ZJI684XAXPCBVV31VX1O&tp_b=3Z4AIRP3C7ZJI684XAXPCBVV31VX1O&c=365799&tp_c=365799","firstResponseHeads":4,"firstResponseTails":1,"secondResponseHeads":8,"secondResponseTails":2,"totalHeads":12,"totalTails":3,"studentIndex":4,"studentTrueHypers":{"a":2,"b":8},"studentGuess":0.56,"delta":0.24,"bonus":0,"bonusSoFar":0.42,"totalExamples":15},{"rt":null,"stimulus":"Sending examples to student... ","response":null,"trial_type":"html-keyboard-response","trial_index":46,"time_elapsed":598615,"internal_node_id":"0.0-45.0","params":{"nStudents":24,"maxFlips":30,"completionMinutes":45,"basePay":8,"maxBonus":9,"perTrialBonus":0.5,"perTrialBonusThreshold":0.05,"exampleCost":0.01},"classroomParams":{"A":{"a":1,"b":4},"B":{"a":4,"b":1},"C":{"a":2,"b":8},"D":{"a":8,"b":2}},"conditions":["nonSeqFull","nonSeqPartial","seqNoFeedback","seqFeedback"],"classroomPairings":[["A","B"],["C","D"]],"coinWeights":[0.2,0.5,0.8],"subjectId":"A3CGQOJC28OVGN","assignmentId":"3Z4AIRP3C7ZJI684XAXPCBVV31VX1O","hitId":"3Z3R5YC0P3915KVY8X6BNRIWSQNFTT","url":"https://gershmanlab.com/experiments/alicia/teaching/experiment/?hitId=3Z3R5YC0P3915KVY8X6BNRIWSQNFTT&workerId=A3CGQOJC28OVGN&assignmentId=3Z4AIRP3C7ZJI684XAXPCBVV31VX1O&a=3I4Z9&tp_a=3I4Z9&b=3Z4AIRP3C7ZJI684XAXPCBVV31VX1O&tp_b=3Z4AIRP3C7ZJI684XAXPCBVV31VX1O&c=365799&tp_c=365799"},{"rt":null,"stimulus":"Examples sent to student! Waiting for student...","response":null,"trial_type":"html-keyboard-response","trial_index":47,"time_elapsed":604617,"internal_node_id":"0.0-46.0","params":{"nStudents":24,"maxFlips":30,"completionMinutes":45,"basePay":8,"maxBonus":9,"perTrialBonus":0.5,"perTrialBonusThreshold":0.05,"exampleCost":0.01},"classroomParams":{"A":{"a":1,"b":4},"B":{"a":4,"b":1},"C":{"a":2,"b":8},"D":{"a":8,"b":2}},"conditions":["nonSeqFull","nonSeqPartial","seqNoFeedback","seqFeedback"],"classroomPairings":[["A","B"],["C","D"]],"coinWeights":[0.2,0.5,0.8],"subjectId":"A3CGQOJC28OVGN","assignmentId":"3Z4AIRP3C7ZJI684XAXPCBVV31VX1O","hitId":"3Z3R5YC0P3915KVY8X6BNRIWSQNFTT","url":"https://gershmanlab.com/experiments/alicia/teaching/experiment/?hitId=3Z3R5YC0P3915KVY8X6BNRIWSQNFTT&workerId=A3CGQOJC28OVGN&assignmentId=3Z4AIRP3C7ZJI684XAXPCBVV31VX1O&a=3I4Z9&tp_a=3I4Z9&b=3Z4AIRP3C7ZJI684XAXPCBVV31VX1O&tp_b=3Z4AIRP3C7ZJI684XAXPCBVV31VX1O&c=365799&tp_c=365799"},{"rt":5030,"stimulus":"\n                <p>Student 5's first guess for coin weight: <b style=\"color:Tomato\";>0.40</b></p>\n                <p>Student 5's second guess for coin weight: <b style=\"color:Tomato\";>0.56</b></p>\n                <p>You received a bonus of <b>$0.00</b> based on the student's second guess.</p>\n                <p>Total bonus so far: <b>$0.42</b></p>\n                <p>Press any key to continue.</p>\n                ","response":"enter","trial_type":"html-keyboard-response","trial_index":48,"time_elapsed":609649,"internal_node_id":"0.0-47.0","params":{"nStudents":24,"maxFlips":30,"completionMinutes":45,"basePay":8,"maxBonus":9,"perTrialBonus":0.5,"perTrialBonusThreshold":0.05,"exampleCost":0.01},"classroomParams":{"A":{"a":1,"b":4},"B":{"a":4,"b":1},"C":{"a":2,"b":8},"D":{"a":8,"b":2}},"conditions":["nonSeqFull","nonSeqPartial","seqNoFeedback","seqFeedback"],"classroomPairings":[["A","B"],["C","D"]],"coinWeights":[0.2,0.5,0.8],"subjectId":"A3CGQOJC28OVGN","assignmentId":"3Z4AIRP3C7ZJI684XAXPCBVV31VX1O","hitId":"3Z3R5YC0P3915KVY8X6BNRIWSQNFTT","url":"https://gershmanlab.com/experiments/alicia/teaching/experiment/?hitId=3Z3R5YC0P3915KVY8X6BNRIWSQNFTT&workerId=A3CGQOJC28OVGN&assignmentId=3Z4AIRP3C7ZJI684XAXPCBVV31VX1O&a=3I4Z9&tp_a=3I4Z9&b=3Z4AIRP3C7ZJI684XAXPCBVV31VX1O&tp_b=3Z4AIRP3C7ZJI684XAXPCBVV31VX1O&c=365799&tp_c=365799"},{"rt":null,"stimulus":"<div style=\"font-size:60px;\">Next student</div>","response":null,"trial_type":"html-keyboard-response","trial_index":49,"time_elapsed":611902,"internal_node_id":"0.0-48.0-0.0","params":{"nStudents":24,"maxFlips":30,"completionMinutes":45,"basePay":8,"maxBonus":9,"perTrialBonus":0.5,"perTrialBonusThreshold":0.05,"exampleCost":0.01},"classroomParams":{"A":{"a":1,"b":4},"B":{"a":4,"b":1},"C":{"a":2,"b":8},"D":{"a":8,"b":2}},"conditions":["nonSeqFull","nonSeqPartial","seqNoFeedback","seqFeedback"],"classroomPairings":[["A","B"],["C","D"]],"coinWeights":[0.2,0.5,0.8],"subjectId":"A3CGQOJC28OVGN","assignmentId":"3Z4AIRP3C7ZJI684XAXPCBVV31VX1O","hitId":"3Z3R5YC0P3915KVY8X6BNRIWSQNFTT","url":"https://gershmanlab.com/experiments/alicia/teaching/experiment/?hitId=3Z3R5YC0P3915KVY8X6BNRIWSQNFTT&workerId=A3CGQOJC28OVGN&assignmentId=3Z4AIRP3C7ZJI684XAXPCBVV31VX1O&a=3I4Z9&tp_a=3I4Z9&b=3Z4AIRP3C7ZJI684XAXPCBVV31VX1O&tp_b=3Z4AIRP3C7ZJI684XAXPCBVV31VX1O&c=365799&tp_c=365799"},{"rt":3257,"stimulus":"\n            <h4 style=\"color:Orange;\">Student 6</h4>\n            <h2>The weight of your coin is <b style=\"color:Tomato;\">0.2</b>.</h2>\n            <p>In this block, you will be giving <b>two</b> sets of examples to Student 6.</p>\n                <p>You will see the student's guess after the first set of examples. You will also receive feedback at the end of the block.</p>\n            <p>To earn the highest bonus, you will have to <b>take into consideration the student's guess</b> when you choose your second set of examples.</p>","response":0,"trial_type":"html-button-response","trial_index":50,"time_elapsed":615160,"internal_node_id":"0.0-49.0","params":{"nStudents":24,"maxFlips":30,"completionMinutes":45,"basePay":8,"maxBonus":9,"perTrialBonus":0.5,"perTrialBonusThreshold":0.05,"exampleCost":0.01},"classroomParams":{"A":{"a":1,"b":4},"B":{"a":4,"b":1},"C":{"a":2,"b":8},"D":{"a":8,"b":2}},"conditions":["nonSeqFull","nonSeqPartial","seqNoFeedback","seqFeedback"],"classroomPairings":[["A","B"],["C","D"]],"coinWeights":[0.2,0.5,0.8],"subjectId":"A3CGQOJC28OVGN","assignmentId":"3Z4AIRP3C7ZJI684XAXPCBVV31VX1O","hitId":"3Z3R5YC0P3915KVY8X6BNRIWSQNFTT","url":"https://gershmanlab.com/experiments/alicia/teaching/experiment/?hitId=3Z3R5YC0P3915KVY8X6BNRIWSQNFTT&workerId=A3CGQOJC28OVGN&assignmentId=3Z4AIRP3C7ZJI684XAXPCBVV31VX1O&a=3I4Z9&tp_a=3I4Z9&b=3Z4AIRP3C7ZJI684XAXPCBVV31VX1O&tp_b=3Z4AIRP3C7ZJI684XAXPCBVV31VX1O&c=365799&tp_c=365799"},{"rt":6110,"response":{"heads":"1","tails":"4"},"type":"response","condition":"seqFeedback","trueTheta":0.2,"classrooms":["C","D"],"studentTrueClassroom":"D","exampleSet":"first","trial_type":"survey-html-form","trial_index":51,"time_elapsed":621272,"internal_node_id":"0.0-50.0-0.0","params":{"nStudents":24,"maxFlips":30,"completionMinutes":45,"basePay":8,"maxBonus":9,"perTrialBonus":0.5,"perTrialBonusThreshold":0.05,"exampleCost":0.01},"classroomParams":{"A":{"a":1,"b":4},"B":{"a":4,"b":1},"C":{"a":2,"b":8},"D":{"a":8,"b":2}},"conditions":["nonSeqFull","nonSeqPartial","seqNoFeedback","seqFeedback"],"classroomPairings":[["A","B"],["C","D"]],"coinWeights":[0.2,0.5,0.8],"subjectId":"A3CGQOJC28OVGN","assignmentId":"3Z4AIRP3C7ZJI684XAXPCBVV31VX1O","hitId":"3Z3R5YC0P3915KVY8X6BNRIWSQNFTT","url":"https://gershmanlab.com/experiments/alicia/teaching/experiment/?hitId=3Z3R5YC0P3915KVY8X6BNRIWSQNFTT&workerId=A3CGQOJC28OVGN&assignmentId=3Z4AIRP3C7ZJI684XAXPCBVV31VX1O&a=3I4Z9&tp_a=3I4Z9&b=3Z4AIRP3C7ZJI684XAXPCBVV31VX1O&tp_b=3Z4AIRP3C7ZJI684XAXPCBVV31VX1O&c=365799&tp_c=365799","heads":1,"tails":4,"studentIndex":5,"studentTrueHypers":{"a":8,"b":2},"studentGuess":0.6,"delta":0.39999999999999997,"totalExamples":5,"bonusSoFar":0.42},{"rt":null,"stimulus":"Sending examples to student... ","response":null,"trial_type":"html-keyboard-response","trial_index":52,"time_elapsed":623026,"internal_node_id":"0.0-51.0","params":{"nStudents":24,"maxFlips":30,"completionMinutes":45,"basePay":8,"maxBonus":9,"perTrialBonus":0.5,"perTrialBonusThreshold":0.05,"exampleCost":0.01},"classroomParams":{"A":{"a":1,"b":4},"B":{"a":4,"b":1},"C":{"a":2,"b":8},"D":{"a":8,"b":2}},"conditions":["nonSeqFull","nonSeqPartial","seqNoFeedback","seqFeedback"],"classroomPairings":[["A","B"],["C","D"]],"coinWeights":[0.2,0.5,0.8],"subjectId":"A3CGQOJC28OVGN","assignmentId":"3Z4AIRP3C7ZJI684XAXPCBVV31VX1O","hitId":"3Z3R5YC0P3915KVY8X6BNRIWSQNFTT","url":"https://gershmanlab.com/experiments/alicia/teaching/experiment/?hitId=3Z3R5YC0P3915KVY8X6BNRIWSQNFTT&workerId=A3CGQOJC28OVGN&assignmentId=3Z4AIRP3C7ZJI684XAXPCBVV31VX1O&a=3I4Z9&tp_a=3I4Z9&b=3Z4AIRP3C7ZJI684XAXPCBVV31VX1O&tp_b=3Z4AIRP3C7ZJI684XAXPCBVV31VX1O&c=365799&tp_c=365799"},{"rt":null,"stimulus":"Examples sent to student! Waiting for student...","response":null,"trial_type":"html-keyboard-response","trial_index":53,"time_elapsed":628027,"internal_node_id":"0.0-52.0","params":{"nStudents":24,"maxFlips":30,"completionMinutes":45,"basePay":8,"maxBonus":9,"perTrialBonus":0.5,"perTrialBonusThreshold":0.05,"exampleCost":0.01},"classroomParams":{"A":{"a":1,"b":4},"B":{"a":4,"b":1},"C":{"a":2,"b":8},"D":{"a":8,"b":2}},"conditions":["nonSeqFull","nonSeqPartial","seqNoFeedback","seqFeedback"],"classroomPairings":[["A","B"],["C","D"]],"coinWeights":[0.2,0.5,0.8],"subjectId":"A3CGQOJC28OVGN","assignmentId":"3Z4AIRP3C7ZJI684XAXPCBVV31VX1O","hitId":"3Z3R5YC0P3915KVY8X6BNRIWSQNFTT","url":"https://gershmanlab.com/experiments/alicia/teaching/experiment/?hitId=3Z3R5YC0P3915KVY8X6BNRIWSQNFTT&workerId=A3CGQOJC28OVGN&assignmentId=3Z4AIRP3C7ZJI684XAXPCBVV31VX1O&a=3I4Z9&tp_a=3I4Z9&b=3Z4AIRP3C7ZJI684XAXPCBVV31VX1O&tp_b=3Z4AIRP3C7ZJI684XAXPCBVV31VX1O&c=365799&tp_c=365799"},{"rt":6088,"stimulus":"\n                <p>Student's guess for coin weight: <b style=\"color:Tomato;\">0.60</b></p>\n                <p></b></p>\n                <p>You will now send another set of examples to your student. <b>Remember to take your student's guess into consideration so that you can earn the highest bonus possible!</b> </p>\n                <p>Press any key to continue.</p>\n                ","response":"arrowdown","trial_type":"html-keyboard-response","trial_index":54,"time_elapsed":634116,"internal_node_id":"0.0-53.0","params":{"nStudents":24,"maxFlips":30,"completionMinutes":45,"basePay":8,"maxBonus":9,"perTrialBonus":0.5,"perTrialBonusThreshold":0.05,"exampleCost":0.01},"classroomParams":{"A":{"a":1,"b":4},"B":{"a":4,"b":1},"C":{"a":2,"b":8},"D":{"a":8,"b":2}},"conditions":["nonSeqFull","nonSeqPartial","seqNoFeedback","seqFeedback"],"classroomPairings":[["A","B"],["C","D"]],"coinWeights":[0.2,0.5,0.8],"subjectId":"A3CGQOJC28OVGN","assignmentId":"3Z4AIRP3C7ZJI684XAXPCBVV31VX1O","hitId":"3Z3R5YC0P3915KVY8X6BNRIWSQNFTT","url":"https://gershmanlab.com/experiments/alicia/teaching/experiment/?hitId=3Z3R5YC0P3915KVY8X6BNRIWSQNFTT&workerId=A3CGQOJC28OVGN&assignmentId=3Z4AIRP3C7ZJI684XAXPCBVV31VX1O&a=3I4Z9&tp_a=3I4Z9&b=3Z4AIRP3C7ZJI684XAXPCBVV31VX1O&tp_b=3Z4AIRP3C7ZJI684XAXPCBVV31VX1O&c=365799&tp_c=365799"},{"rt":7736,"response":{"heads":"10","tails":"2"},"type":"response","condition":"seqFeedback","trueTheta":0.2,"classrooms":["C","D"],"studentTrueClassroom":"D","exampleSet":"second","trial_type":"survey-html-form","trial_index":55,"time_elapsed":641853,"internal_node_id":"0.0-54.0-0.0","params":{"nStudents":24,"maxFlips":30,"completionMinutes":45,"basePay":8,"maxBonus":9,"perTrialBonus":0.5,"perTrialBonusThreshold":0.05,"exampleCost":0.01},"classroomParams":{"A":{"a":1,"b":4},"B":{"a":4,"b":1},"C":{"a":2,"b":8},"D":{"a":8,"b":2}},"conditions":["nonSeqFull","nonSeqPartial","seqNoFeedback","seqFeedback"],"classroomPairings":[["A","B"],["C","D"]],"coinWeights":[0.2,0.5,0.8],"subjectId":"A3CGQOJC28OVGN","assignmentId":"3Z4AIRP3C7ZJI684XAXPCBVV31VX1O","hitId":"3Z3R5YC0P3915KVY8X6BNRIWSQNFTT","url":"https://gershmanlab.com/experiments/alicia/teaching/experiment/?hitId=3Z3R5YC0P3915KVY8X6BNRIWSQNFTT&workerId=A3CGQOJC28OVGN&assignmentId=3Z4AIRP3C7ZJI684XAXPCBVV31VX1O&a=3I4Z9&tp_a=3I4Z9&b=3Z4AIRP3C7ZJI684XAXPCBVV31VX1O&tp_b=3Z4AIRP3C7ZJI684XAXPCBVV31VX1O&c=365799&tp_c=365799","firstResponseHeads":1,"firstResponseTails":4,"secondResponseHeads":10,"secondResponseTails":2,"totalHeads":11,"totalTails":6,"studentIndex":5,"studentTrueHypers":{"a":8,"b":2},"studentGuess":0.7037037037037037,"delta":0.5037037037037038,"bonus":0,"bonusSoFar":0.42,"totalExamples":17},{"rt":null,"stimulus":"Sending examples to student... ","response":null,"trial_type":"html-keyboard-response","trial_index":56,"time_elapsed":643856,"internal_node_id":"0.0-55.0","params":{"nStudents":24,"maxFlips":30,"completionMinutes":45,"basePay":8,"maxBonus":9,"perTrialBonus":0.5,"perTrialBonusThreshold":0.05,"exampleCost":0.01},"classroomParams":{"A":{"a":1,"b":4},"B":{"a":4,"b":1},"C":{"a":2,"b":8},"D":{"a":8,"b":2}},"conditions":["nonSeqFull","nonSeqPartial","seqNoFeedback","seqFeedback"],"classroomPairings":[["A","B"],["C","D"]],"coinWeights":[0.2,0.5,0.8],"subjectId":"A3CGQOJC28OVGN","assignmentId":"3Z4AIRP3C7ZJI684XAXPCBVV31VX1O","hitId":"3Z3R5YC0P3915KVY8X6BNRIWSQNFTT","url":"https://gershmanlab.com/experiments/alicia/teaching/experiment/?hitId=3Z3R5YC0P3915KVY8X6BNRIWSQNFTT&workerId=A3CGQOJC28OVGN&assignmentId=3Z4AIRP3C7ZJI684XAXPCBVV31VX1O&a=3I4Z9&tp_a=3I4Z9&b=3Z4AIRP3C7ZJI684XAXPCBVV31VX1O&tp_b=3Z4AIRP3C7ZJI684XAXPCBVV31VX1O&c=365799&tp_c=365799"},{"rt":null,"stimulus":"Examples sent to student! Waiting for student...","response":null,"trial_type":"html-keyboard-response","trial_index":57,"time_elapsed":649361,"internal_node_id":"0.0-56.0","params":{"nStudents":24,"maxFlips":30,"completionMinutes":45,"basePay":8,"maxBonus":9,"perTrialBonus":0.5,"perTrialBonusThreshold":0.05,"exampleCost":0.01},"classroomParams":{"A":{"a":1,"b":4},"B":{"a":4,"b":1},"C":{"a":2,"b":8},"D":{"a":8,"b":2}},"conditions":["nonSeqFull","nonSeqPartial","seqNoFeedback","seqFeedback"],"classroomPairings":[["A","B"],["C","D"]],"coinWeights":[0.2,0.5,0.8],"subjectId":"A3CGQOJC28OVGN","assignmentId":"3Z4AIRP3C7ZJI684XAXPCBVV31VX1O","hitId":"3Z3R5YC0P3915KVY8X6BNRIWSQNFTT","url":"https://gershmanlab.com/experiments/alicia/teaching/experiment/?hitId=3Z3R5YC0P3915KVY8X6BNRIWSQNFTT&workerId=A3CGQOJC28OVGN&assignmentId=3Z4AIRP3C7ZJI684XAXPCBVV31VX1O&a=3I4Z9&tp_a=3I4Z9&b=3Z4AIRP3C7ZJI684XAXPCBVV31VX1O&tp_b=3Z4AIRP3C7ZJI684XAXPCBVV31VX1O&c=365799&tp_c=365799"},{"rt":3843,"stimulus":"\n                <p>Student 6's first guess for coin weight: <b style=\"color:Tomato\";>0.60</b></p>\n                <p>Student 6's second guess for coin weight: <b style=\"color:Tomato\";>0.70</b></p>\n                <p>You received a bonus of <b>$0.00</b> based on the student's second guess.</p>\n                <p>Total bonus so far: <b>$0.42</b></p>\n                <p>Press any key to continue.</p>\n                ","response":" ","trial_type":"html-keyboard-response","trial_index":58,"time_elapsed":653206,"internal_node_id":"0.0-57.0","params":{"nStudents":24,"maxFlips":30,"completionMinutes":45,"basePay":8,"maxBonus":9,"perTrialBonus":0.5,"perTrialBonusThreshold":0.05,"exampleCost":0.01},"classroomParams":{"A":{"a":1,"b":4},"B":{"a":4,"b":1},"C":{"a":2,"b":8},"D":{"a":8,"b":2}},"conditions":["nonSeqFull","nonSeqPartial","seqNoFeedback","seqFeedback"],"classroomPairings":[["A","B"],["C","D"]],"coinWeights":[0.2,0.5,0.8],"subjectId":"A3CGQOJC28OVGN","assignmentId":"3Z4AIRP3C7ZJI684XAXPCBVV31VX1O","hitId":"3Z3R5YC0P3915KVY8X6BNRIWSQNFTT","url":"https://gershmanlab.com/experiments/alicia/teaching/experiment/?hitId=3Z3R5YC0P3915KVY8X6BNRIWSQNFTT&workerId=A3CGQOJC28OVGN&assignmentId=3Z4AIRP3C7ZJI684XAXPCBVV31VX1O&a=3I4Z9&tp_a=3I4Z9&b=3Z4AIRP3C7ZJI684XAXPCBVV31VX1O&tp_b=3Z4AIRP3C7ZJI684XAXPCBVV31VX1O&c=365799&tp_c=365799"},{"rt":null,"stimulus":"<div style=\"font-size:60px;\">Next student</div>","response":null,"trial_type":"html-keyboard-response","trial_index":59,"time_elapsed":655208,"internal_node_id":"0.0-58.0-0.0","params":{"nStudents":24,"maxFlips":30,"completionMinutes":45,"basePay":8,"maxBonus":9,"perTrialBonus":0.5,"perTrialBonusThreshold":0.05,"exampleCost":0.01},"classroomParams":{"A":{"a":1,"b":4},"B":{"a":4,"b":1},"C":{"a":2,"b":8},"D":{"a":8,"b":2}},"conditions":["nonSeqFull","nonSeqPartial","seqNoFeedback","seqFeedback"],"classroomPairings":[["A","B"],["C","D"]],"coinWeights":[0.2,0.5,0.8],"subjectId":"A3CGQOJC28OVGN","assignmentId":"3Z4AIRP3C7ZJI684XAXPCBVV31VX1O","hitId":"3Z3R5YC0P3915KVY8X6BNRIWSQNFTT","url":"https://gershmanlab.com/experiments/alicia/teaching/experiment/?hitId=3Z3R5YC0P3915KVY8X6BNRIWSQNFTT&workerId=A3CGQOJC28OVGN&assignmentId=3Z4AIRP3C7ZJI684XAXPCBVV31VX1O&a=3I4Z9&tp_a=3I4Z9&b=3Z4AIRP3C7ZJI684XAXPCBVV31VX1O&tp_b=3Z4AIRP3C7ZJI684XAXPCBVV31VX1O&c=365799&tp_c=365799"},{"rt":4339,"stimulus":"\n            <h4 style=\"color:Orange;\">Student 7</h4>\n            <h2>The weight of your coin is <b style=\"color:Tomato;\">0.5</b>.</h2>\n            <p>In this block, you will be giving <b>one</b> set of examples to Student 7.</p>\n                <p>You will receive feedback at the end of the block.</p>\n            <p></p>","response":0,"trial_type":"html-button-response","trial_index":60,"time_elapsed":659549,"internal_node_id":"0.0-59.0","params":{"nStudents":24,"maxFlips":30,"completionMinutes":45,"basePay":8,"maxBonus":9,"perTrialBonus":0.5,"perTrialBonusThreshold":0.05,"exampleCost":0.01},"classroomParams":{"A":{"a":1,"b":4},"B":{"a":4,"b":1},"C":{"a":2,"b":8},"D":{"a":8,"b":2}},"conditions":["nonSeqFull","nonSeqPartial","seqNoFeedback","seqFeedback"],"classroomPairings":[["A","B"],["C","D"]],"coinWeights":[0.2,0.5,0.8],"subjectId":"A3CGQOJC28OVGN","assignmentId":"3Z4AIRP3C7ZJI684XAXPCBVV31VX1O","hitId":"3Z3R5YC0P3915KVY8X6BNRIWSQNFTT","url":"https://gershmanlab.com/experiments/alicia/teaching/experiment/?hitId=3Z3R5YC0P3915KVY8X6BNRIWSQNFTT&workerId=A3CGQOJC28OVGN&assignmentId=3Z4AIRP3C7ZJI684XAXPCBVV31VX1O&a=3I4Z9&tp_a=3I4Z9&b=3Z4AIRP3C7ZJI684XAXPCBVV31VX1O&tp_b=3Z4AIRP3C7ZJI684XAXPCBVV31VX1O&c=365799&tp_c=365799"},{"rt":5506,"response":{"heads":"5","tails":"5"},"type":"response","condition":"nonSeqPartial","trueTheta":0.5,"classrooms":["A","B"],"studentTrueClassroom":"B","exampleSet":"first","trial_type":"survey-html-form","trial_index":61,"time_elapsed":665057,"internal_node_id":"0.0-60.0-0.0","params":{"nStudents":24,"maxFlips":30,"completionMinutes":45,"basePay":8,"maxBonus":9,"perTrialBonus":0.5,"perTrialBonusThreshold":0.05,"exampleCost":0.01},"classroomParams":{"A":{"a":1,"b":4},"B":{"a":4,"b":1},"C":{"a":2,"b":8},"D":{"a":8,"b":2}},"conditions":["nonSeqFull","nonSeqPartial","seqNoFeedback","seqFeedback"],"classroomPairings":[["A","B"],["C","D"]],"coinWeights":[0.2,0.5,0.8],"subjectId":"A3CGQOJC28OVGN","assignmentId":"3Z4AIRP3C7ZJI684XAXPCBVV31VX1O","hitId":"3Z3R5YC0P3915KVY8X6BNRIWSQNFTT","url":"https://gershmanlab.com/experiments/alicia/teaching/experiment/?hitId=3Z3R5YC0P3915KVY8X6BNRIWSQNFTT&workerId=A3CGQOJC28OVGN&assignmentId=3Z4AIRP3C7ZJI684XAXPCBVV31VX1O&a=3I4Z9&tp_a=3I4Z9&b=3Z4AIRP3C7ZJI684XAXPCBVV31VX1O&tp_b=3Z4AIRP3C7ZJI684XAXPCBVV31VX1O&c=365799&tp_c=365799","heads":5,"tails":5,"studentIndex":6,"studentTrueHypers":{"a":4,"b":1},"studentGuess":0.6,"delta":0.09999999999999998,"totalExamples":10,"bonus":0,"bonusSoFar":0.42},{"rt":null,"stimulus":"Sending examples to student... ","response":null,"trial_type":"html-keyboard-response","trial_index":62,"time_elapsed":666314,"internal_node_id":"0.0-61.0","params":{"nStudents":24,"maxFlips":30,"completionMinutes":45,"basePay":8,"maxBonus":9,"perTrialBonus":0.5,"perTrialBonusThreshold":0.05,"exampleCost":0.01},"classroomParams":{"A":{"a":1,"b":4},"B":{"a":4,"b":1},"C":{"a":2,"b":8},"D":{"a":8,"b":2}},"conditions":["nonSeqFull","nonSeqPartial","seqNoFeedback","seqFeedback"],"classroomPairings":[["A","B"],["C","D"]],"coinWeights":[0.2,0.5,0.8],"subjectId":"A3CGQOJC28OVGN","assignmentId":"3Z4AIRP3C7ZJI684XAXPCBVV31VX1O","hitId":"3Z3R5YC0P3915KVY8X6BNRIWSQNFTT","url":"https://gershmanlab.com/experiments/alicia/teaching/experiment/?hitId=3Z3R5YC0P3915KVY8X6BNRIWSQNFTT&workerId=A3CGQOJC28OVGN&assignmentId=3Z4AIRP3C7ZJI684XAXPCBVV31VX1O&a=3I4Z9&tp_a=3I4Z9&b=3Z4AIRP3C7ZJI684XAXPCBVV31VX1O&tp_b=3Z4AIRP3C7ZJI684XAXPCBVV31VX1O&c=365799&tp_c=365799"},{"rt":null,"stimulus":"Examples sent to student! Waiting for student...","response":null,"trial_type":"html-keyboard-response","trial_index":63,"time_elapsed":671320,"internal_node_id":"0.0-62.0","params":{"nStudents":24,"maxFlips":30,"completionMinutes":45,"basePay":8,"maxBonus":9,"perTrialBonus":0.5,"perTrialBonusThreshold":0.05,"exampleCost":0.01},"classroomParams":{"A":{"a":1,"b":4},"B":{"a":4,"b":1},"C":{"a":2,"b":8},"D":{"a":8,"b":2}},"conditions":["nonSeqFull","nonSeqPartial","seqNoFeedback","seqFeedback"],"classroomPairings":[["A","B"],["C","D"]],"coinWeights":[0.2,0.5,0.8],"subjectId":"A3CGQOJC28OVGN","assignmentId":"3Z4AIRP3C7ZJI684XAXPCBVV31VX1O","hitId":"3Z3R5YC0P3915KVY8X6BNRIWSQNFTT","url":"https://gershmanlab.com/experiments/alicia/teaching/experiment/?hitId=3Z3R5YC0P3915KVY8X6BNRIWSQNFTT&workerId=A3CGQOJC28OVGN&assignmentId=3Z4AIRP3C7ZJI684XAXPCBVV31VX1O&a=3I4Z9&tp_a=3I4Z9&b=3Z4AIRP3C7ZJI684XAXPCBVV31VX1O&tp_b=3Z4AIRP3C7ZJI684XAXPCBVV31VX1O&c=365799&tp_c=365799"},{"rt":3440,"stimulus":"\n                <p>Student's guess for coin weight: <b style=\"color:Tomato;\">0.60</b></p>\n                <p>You received a bonus of <b>$0</b>. Total bonus so far: <b>$0.42</b></b></p>\n                <p></p>\n                <p>Press any key to continue.</p>\n                ","response":"arrowright","trial_type":"html-keyboard-response","trial_index":64,"time_elapsed":674761,"internal_node_id":"0.0-63.0","params":{"nStudents":24,"maxFlips":30,"completionMinutes":45,"basePay":8,"maxBonus":9,"perTrialBonus":0.5,"perTrialBonusThreshold":0.05,"exampleCost":0.01},"classroomParams":{"A":{"a":1,"b":4},"B":{"a":4,"b":1},"C":{"a":2,"b":8},"D":{"a":8,"b":2}},"conditions":["nonSeqFull","nonSeqPartial","seqNoFeedback","seqFeedback"],"classroomPairings":[["A","B"],["C","D"]],"coinWeights":[0.2,0.5,0.8],"subjectId":"A3CGQOJC28OVGN","assignmentId":"3Z4AIRP3C7ZJI684XAXPCBVV31VX1O","hitId":"3Z3R5YC0P3915KVY8X6BNRIWSQNFTT","url":"https://gershmanlab.com/experiments/alicia/teaching/experiment/?hitId=3Z3R5YC0P3915KVY8X6BNRIWSQNFTT&workerId=A3CGQOJC28OVGN&assignmentId=3Z4AIRP3C7ZJI684XAXPCBVV31VX1O&a=3I4Z9&tp_a=3I4Z9&b=3Z4AIRP3C7ZJI684XAXPCBVV31VX1O&tp_b=3Z4AIRP3C7ZJI684XAXPCBVV31VX1O&c=365799&tp_c=365799"},{"rt":null,"stimulus":"<div style=\"font-size:60px;\">Next student</div>","response":null,"trial_type":"html-keyboard-response","trial_index":65,"time_elapsed":677767,"internal_node_id":"0.0-64.0-0.0","params":{"nStudents":24,"maxFlips":30,"completionMinutes":45,"basePay":8,"maxBonus":9,"perTrialBonus":0.5,"perTrialBonusThreshold":0.05,"exampleCost":0.01},"classroomParams":{"A":{"a":1,"b":4},"B":{"a":4,"b":1},"C":{"a":2,"b":8},"D":{"a":8,"b":2}},"conditions":["nonSeqFull","nonSeqPartial","seqNoFeedback","seqFeedback"],"classroomPairings":[["A","B"],["C","D"]],"coinWeights":[0.2,0.5,0.8],"subjectId":"A3CGQOJC28OVGN","assignmentId":"3Z4AIRP3C7ZJI684XAXPCBVV31VX1O","hitId":"3Z3R5YC0P3915KVY8X6BNRIWSQNFTT","url":"https://gershmanlab.com/experiments/alicia/teaching/experiment/?hitId=3Z3R5YC0P3915KVY8X6BNRIWSQNFTT&workerId=A3CGQOJC28OVGN&assignmentId=3Z4AIRP3C7ZJI684XAXPCBVV31VX1O&a=3I4Z9&tp_a=3I4Z9&b=3Z4AIRP3C7ZJI684XAXPCBVV31VX1O&tp_b=3Z4AIRP3C7ZJI684XAXPCBVV31VX1O&c=365799&tp_c=365799"},{"rt":15409,"stimulus":"\n            <h4 style=\"color:Orange;\">Student 8</h4>\n            <h2>The weight of your coin is <b style=\"color:Tomato;\">0.8</b>.</h2>\n            <p>In this block, you will be giving <b>one</b> set of examples to Student 8.</p>\n                <p>You will receive feedback at the end of the block.</p>\n            <p></p>","response":0,"trial_type":"html-button-response","trial_index":66,"time_elapsed":693176,"internal_node_id":"0.0-65.0","params":{"nStudents":24,"maxFlips":30,"completionMinutes":45,"basePay":8,"maxBonus":9,"perTrialBonus":0.5,"perTrialBonusThreshold":0.05,"exampleCost":0.01},"classroomParams":{"A":{"a":1,"b":4},"B":{"a":4,"b":1},"C":{"a":2,"b":8},"D":{"a":8,"b":2}},"conditions":["nonSeqFull","nonSeqPartial","seqNoFeedback","seqFeedback"],"classroomPairings":[["A","B"],["C","D"]],"coinWeights":[0.2,0.5,0.8],"subjectId":"A3CGQOJC28OVGN","assignmentId":"3Z4AIRP3C7ZJI684XAXPCBVV31VX1O","hitId":"3Z3R5YC0P3915KVY8X6BNRIWSQNFTT","url":"https://gershmanlab.com/experiments/alicia/teaching/experiment/?hitId=3Z3R5YC0P3915KVY8X6BNRIWSQNFTT&workerId=A3CGQOJC28OVGN&assignmentId=3Z4AIRP3C7ZJI684XAXPCBVV31VX1O&a=3I4Z9&tp_a=3I4Z9&b=3Z4AIRP3C7ZJI684XAXPCBVV31VX1O&tp_b=3Z4AIRP3C7ZJI684XAXPCBVV31VX1O&c=365799&tp_c=365799"},{"rt":15558,"response":{"heads":"12","tails":"3"},"type":"response","condition":"nonSeqFull","trueTheta":0.8,"classrooms":["C","D"],"studentTrueClassroom":"C","exampleSet":"first","trial_type":"survey-html-form","trial_index":67,"time_elapsed":708735,"internal_node_id":"0.0-66.0-0.0","params":{"nStudents":24,"maxFlips":30,"completionMinutes":45,"basePay":8,"maxBonus":9,"perTrialBonus":0.5,"perTrialBonusThreshold":0.05,"exampleCost":0.01},"classroomParams":{"A":{"a":1,"b":4},"B":{"a":4,"b":1},"C":{"a":2,"b":8},"D":{"a":8,"b":2}},"conditions":["nonSeqFull","nonSeqPartial","seqNoFeedback","seqFeedback"],"classroomPairings":[["A","B"],["C","D"]],"coinWeights":[0.2,0.5,0.8],"subjectId":"A3CGQOJC28OVGN","assignmentId":"3Z4AIRP3C7ZJI684XAXPCBVV31VX1O","hitId":"3Z3R5YC0P3915KVY8X6BNRIWSQNFTT","url":"https://gershmanlab.com/experiments/alicia/teaching/experiment/?hitId=3Z3R5YC0P3915KVY8X6BNRIWSQNFTT&workerId=A3CGQOJC28OVGN&assignmentId=3Z4AIRP3C7ZJI684XAXPCBVV31VX1O&a=3I4Z9&tp_a=3I4Z9&b=3Z4AIRP3C7ZJI684XAXPCBVV31VX1O&tp_b=3Z4AIRP3C7ZJI684XAXPCBVV31VX1O&c=365799&tp_c=365799","heads":12,"tails":3,"studentIndex":7,"studentTrueHypers":{"a":2,"b":8},"studentGuess":0.56,"delta":0.24,"totalExamples":15,"bonus":0,"bonusSoFar":0.42},{"rt":null,"stimulus":"Sending examples to student... ","response":null,"trial_type":"html-keyboard-response","trial_index":68,"time_elapsed":710742,"internal_node_id":"0.0-67.0","params":{"nStudents":24,"maxFlips":30,"completionMinutes":45,"basePay":8,"maxBonus":9,"perTrialBonus":0.5,"perTrialBonusThreshold":0.05,"exampleCost":0.01},"classroomParams":{"A":{"a":1,"b":4},"B":{"a":4,"b":1},"C":{"a":2,"b":8},"D":{"a":8,"b":2}},"conditions":["nonSeqFull","nonSeqPartial","seqNoFeedback","seqFeedback"],"classroomPairings":[["A","B"],["C","D"]],"coinWeights":[0.2,0.5,0.8],"subjectId":"A3CGQOJC28OVGN","assignmentId":"3Z4AIRP3C7ZJI684XAXPCBVV31VX1O","hitId":"3Z3R5YC0P3915KVY8X6BNRIWSQNFTT","url":"https://gershmanlab.com/experiments/alicia/teaching/experiment/?hitId=3Z3R5YC0P3915KVY8X6BNRIWSQNFTT&workerId=A3CGQOJC28OVGN&assignmentId=3Z4AIRP3C7ZJI684XAXPCBVV31VX1O&a=3I4Z9&tp_a=3I4Z9&b=3Z4AIRP3C7ZJI684XAXPCBVV31VX1O&tp_b=3Z4AIRP3C7ZJI684XAXPCBVV31VX1O&c=365799&tp_c=365799"},{"rt":null,"stimulus":"Examples sent to student! Waiting for student...","response":null,"trial_type":"html-keyboard-response","trial_index":69,"time_elapsed":715748,"internal_node_id":"0.0-68.0","params":{"nStudents":24,"maxFlips":30,"completionMinutes":45,"basePay":8,"maxBonus":9,"perTrialBonus":0.5,"perTrialBonusThreshold":0.05,"exampleCost":0.01},"classroomParams":{"A":{"a":1,"b":4},"B":{"a":4,"b":1},"C":{"a":2,"b":8},"D":{"a":8,"b":2}},"conditions":["nonSeqFull","nonSeqPartial","seqNoFeedback","seqFeedback"],"classroomPairings":[["A","B"],["C","D"]],"coinWeights":[0.2,0.5,0.8],"subjectId":"A3CGQOJC28OVGN","assignmentId":"3Z4AIRP3C7ZJI684XAXPCBVV31VX1O","hitId":"3Z3R5YC0P3915KVY8X6BNRIWSQNFTT","url":"https://gershmanlab.com/experiments/alicia/teaching/experiment/?hitId=3Z3R5YC0P3915KVY8X6BNRIWSQNFTT&workerId=A3CGQOJC28OVGN&assignmentId=3Z4AIRP3C7ZJI684XAXPCBVV31VX1O&a=3I4Z9&tp_a=3I4Z9&b=3Z4AIRP3C7ZJI684XAXPCBVV31VX1O&tp_b=3Z4AIRP3C7ZJI684XAXPCBVV31VX1O&c=365799&tp_c=365799"},{"rt":22886,"stimulus":"\n                <p>Student's guess for coin weight: <b style=\"color:Tomato;\">0.56</b></p>\n                <p>You received a bonus of <b>$0</b>. Total bonus so far: <b>$0.42</b></b></p>\n                <p></p>\n                <p>Press any key to continue.</p>\n                ","response":" ","trial_type":"html-keyboard-response","trial_index":70,"time_elapsed":738633,"internal_node_id":"0.0-69.0","params":{"nStudents":24,"maxFlips":30,"completionMinutes":45,"basePay":8,"maxBonus":9,"perTrialBonus":0.5,"perTrialBonusThreshold":0.05,"exampleCost":0.01},"classroomParams":{"A":{"a":1,"b":4},"B":{"a":4,"b":1},"C":{"a":2,"b":8},"D":{"a":8,"b":2}},"conditions":["nonSeqFull","nonSeqPartial","seqNoFeedback","seqFeedback"],"classroomPairings":[["A","B"],["C","D"]],"coinWeights":[0.2,0.5,0.8],"subjectId":"A3CGQOJC28OVGN","assignmentId":"3Z4AIRP3C7ZJI684XAXPCBVV31VX1O","hitId":"3Z3R5YC0P3915KVY8X6BNRIWSQNFTT","url":"https://gershmanlab.com/experiments/alicia/teaching/experiment/?hitId=3Z3R5YC0P3915KVY8X6BNRIWSQNFTT&workerId=A3CGQOJC28OVGN&assignmentId=3Z4AIRP3C7ZJI684XAXPCBVV31VX1O&a=3I4Z9&tp_a=3I4Z9&b=3Z4AIRP3C7ZJI684XAXPCBVV31VX1O&tp_b=3Z4AIRP3C7ZJI684XAXPCBVV31VX1O&c=365799&tp_c=365799"},{"rt":null,"stimulus":"<div style=\"font-size:60px;\">Next student</div>","response":null,"trial_type":"html-keyboard-response","trial_index":71,"time_elapsed":740890,"internal_node_id":"0.0-70.0-0.0","params":{"nStudents":24,"maxFlips":30,"completionMinutes":45,"basePay":8,"maxBonus":9,"perTrialBonus":0.5,"perTrialBonusThreshold":0.05,"exampleCost":0.01},"classroomParams":{"A":{"a":1,"b":4},"B":{"a":4,"b":1},"C":{"a":2,"b":8},"D":{"a":8,"b":2}},"conditions":["nonSeqFull","nonSeqPartial","seqNoFeedback","seqFeedback"],"classroomPairings":[["A","B"],["C","D"]],"coinWeights":[0.2,0.5,0.8],"subjectId":"A3CGQOJC28OVGN","assignmentId":"3Z4AIRP3C7ZJI684XAXPCBVV31VX1O","hitId":"3Z3R5YC0P3915KVY8X6BNRIWSQNFTT","url":"https://gershmanlab.com/experiments/alicia/teaching/experiment/?hitId=3Z3R5YC0P3915KVY8X6BNRIWSQNFTT&workerId=A3CGQOJC28OVGN&assignmentId=3Z4AIRP3C7ZJI684XAXPCBVV31VX1O&a=3I4Z9&tp_a=3I4Z9&b=3Z4AIRP3C7ZJI684XAXPCBVV31VX1O&tp_b=3Z4AIRP3C7ZJI684XAXPCBVV31VX1O&c=365799&tp_c=365799"},{"rt":2111,"stimulus":"\n            <h4 style=\"color:Orange;\">Student 9</h4>\n            <h2>The weight of your coin is <b style=\"color:Tomato;\">0.2</b>.</h2>\n            <p>In this block, you will be giving <b>two</b> sets of examples to Student 9.</p>\n                <p>You will receive feedback at the end of the block.</p>\n            <p></p>","response":0,"trial_type":"html-button-response","trial_index":72,"time_elapsed":743001,"internal_node_id":"0.0-71.0","params":{"nStudents":24,"maxFlips":30,"completionMinutes":45,"basePay":8,"maxBonus":9,"perTrialBonus":0.5,"perTrialBonusThreshold":0.05,"exampleCost":0.01},"classroomParams":{"A":{"a":1,"b":4},"B":{"a":4,"b":1},"C":{"a":2,"b":8},"D":{"a":8,"b":2}},"conditions":["nonSeqFull","nonSeqPartial","seqNoFeedback","seqFeedback"],"classroomPairings":[["A","B"],["C","D"]],"coinWeights":[0.2,0.5,0.8],"subjectId":"A3CGQOJC28OVGN","assignmentId":"3Z4AIRP3C7ZJI684XAXPCBVV31VX1O","hitId":"3Z3R5YC0P3915KVY8X6BNRIWSQNFTT","url":"https://gershmanlab.com/experiments/alicia/teaching/experiment/?hitId=3Z3R5YC0P3915KVY8X6BNRIWSQNFTT&workerId=A3CGQOJC28OVGN&assignmentId=3Z4AIRP3C7ZJI684XAXPCBVV31VX1O&a=3I4Z9&tp_a=3I4Z9&b=3Z4AIRP3C7ZJI684XAXPCBVV31VX1O&tp_b=3Z4AIRP3C7ZJI684XAXPCBVV31VX1O&c=365799&tp_c=365799"},{"rt":6161,"response":{"heads":"2","tails":"8"},"type":"response","condition":"seqNoFeedback","trueTheta":0.2,"classrooms":["A","B"],"studentTrueClassroom":"B","exampleSet":"first","trial_type":"survey-html-form","trial_index":73,"time_elapsed":749164,"internal_node_id":"0.0-72.0-0.0","params":{"nStudents":24,"maxFlips":30,"completionMinutes":45,"basePay":8,"maxBonus":9,"perTrialBonus":0.5,"perTrialBonusThreshold":0.05,"exampleCost":0.01},"classroomParams":{"A":{"a":1,"b":4},"B":{"a":4,"b":1},"C":{"a":2,"b":8},"D":{"a":8,"b":2}},"conditions":["nonSeqFull","nonSeqPartial","seqNoFeedback","seqFeedback"],"classroomPairings":[["A","B"],["C","D"]],"coinWeights":[0.2,0.5,0.8],"subjectId":"A3CGQOJC28OVGN","assignmentId":"3Z4AIRP3C7ZJI684XAXPCBVV31VX1O","hitId":"3Z3R5YC0P3915KVY8X6BNRIWSQNFTT","url":"https://gershmanlab.com/experiments/alicia/teaching/experiment/?hitId=3Z3R5YC0P3915KVY8X6BNRIWSQNFTT&workerId=A3CGQOJC28OVGN&assignmentId=3Z4AIRP3C7ZJI684XAXPCBVV31VX1O&a=3I4Z9&tp_a=3I4Z9&b=3Z4AIRP3C7ZJI684XAXPCBVV31VX1O&tp_b=3Z4AIRP3C7ZJI684XAXPCBVV31VX1O&c=365799&tp_c=365799","heads":2,"tails":8,"studentIndex":8,"studentTrueHypers":{"a":4,"b":1},"studentGuess":0.4,"delta":0.2,"totalExamples":10,"bonusSoFar":0.42},{"rt":null,"stimulus":"Sending examples to student... ","response":null,"trial_type":"html-keyboard-response","trial_index":74,"time_elapsed":750670,"internal_node_id":"0.0-73.0","params":{"nStudents":24,"maxFlips":30,"completionMinutes":45,"basePay":8,"maxBonus":9,"perTrialBonus":0.5,"perTrialBonusThreshold":0.05,"exampleCost":0.01},"classroomParams":{"A":{"a":1,"b":4},"B":{"a":4,"b":1},"C":{"a":2,"b":8},"D":{"a":8,"b":2}},"conditions":["nonSeqFull","nonSeqPartial","seqNoFeedback","seqFeedback"],"classroomPairings":[["A","B"],["C","D"]],"coinWeights":[0.2,0.5,0.8],"subjectId":"A3CGQOJC28OVGN","assignmentId":"3Z4AIRP3C7ZJI684XAXPCBVV31VX1O","hitId":"3Z3R5YC0P3915KVY8X6BNRIWSQNFTT","url":"https://gershmanlab.com/experiments/alicia/teaching/experiment/?hitId=3Z3R5YC0P3915KVY8X6BNRIWSQNFTT&workerId=A3CGQOJC28OVGN&assignmentId=3Z4AIRP3C7ZJI684XAXPCBVV31VX1O&a=3I4Z9&tp_a=3I4Z9&b=3Z4AIRP3C7ZJI684XAXPCBVV31VX1O&tp_b=3Z4AIRP3C7ZJI684XAXPCBVV31VX1O&c=365799&tp_c=365799"},{"rt":null,"stimulus":"Examples sent to student! Waiting for student...","response":null,"trial_type":"html-keyboard-response","trial_index":75,"time_elapsed":755676,"internal_node_id":"0.0-74.0","params":{"nStudents":24,"maxFlips":30,"completionMinutes":45,"basePay":8,"maxBonus":9,"perTrialBonus":0.5,"perTrialBonusThreshold":0.05,"exampleCost":0.01},"classroomParams":{"A":{"a":1,"b":4},"B":{"a":4,"b":1},"C":{"a":2,"b":8},"D":{"a":8,"b":2}},"conditions":["nonSeqFull","nonSeqPartial","seqNoFeedback","seqFeedback"],"classroomPairings":[["A","B"],["C","D"]],"coinWeights":[0.2,0.5,0.8],"subjectId":"A3CGQOJC28OVGN","assignmentId":"3Z4AIRP3C7ZJI684XAXPCBVV31VX1O","hitId":"3Z3R5YC0P3915KVY8X6BNRIWSQNFTT","url":"https://gershmanlab.com/experiments/alicia/teaching/experiment/?hitId=3Z3R5YC0P3915KVY8X6BNRIWSQNFTT&workerId=A3CGQOJC28OVGN&assignmentId=3Z4AIRP3C7ZJI684XAXPCBVV31VX1O&a=3I4Z9&tp_a=3I4Z9&b=3Z4AIRP3C7ZJI684XAXPCBVV31VX1O&tp_b=3Z4AIRP3C7ZJI684XAXPCBVV31VX1O&c=365799&tp_c=365799"},{"rt":7064,"response":{"heads":"2","tails":"8"},"type":"response","condition":"seqNoFeedback","trueTheta":0.2,"classrooms":["A","B"],"studentTrueClassroom":"B","exampleSet":"second","trial_type":"survey-html-form","trial_index":76,"time_elapsed":762741,"internal_node_id":"0.0-75.0-0.0","params":{"nStudents":24,"maxFlips":30,"completionMinutes":45,"basePay":8,"maxBonus":9,"perTrialBonus":0.5,"perTrialBonusThreshold":0.05,"exampleCost":0.01},"classroomParams":{"A":{"a":1,"b":4},"B":{"a":4,"b":1},"C":{"a":2,"b":8},"D":{"a":8,"b":2}},"conditions":["nonSeqFull","nonSeqPartial","seqNoFeedback","seqFeedback"],"classroomPairings":[["A","B"],["C","D"]],"coinWeights":[0.2,0.5,0.8],"subjectId":"A3CGQOJC28OVGN","assignmentId":"3Z4AIRP3C7ZJI684XAXPCBVV31VX1O","hitId":"3Z3R5YC0P3915KVY8X6BNRIWSQNFTT","url":"https://gershmanlab.com/experiments/alicia/teaching/experiment/?hitId=3Z3R5YC0P3915KVY8X6BNRIWSQNFTT&workerId=A3CGQOJC28OVGN&assignmentId=3Z4AIRP3C7ZJI684XAXPCBVV31VX1O&a=3I4Z9&tp_a=3I4Z9&b=3Z4AIRP3C7ZJI684XAXPCBVV31VX1O&tp_b=3Z4AIRP3C7ZJI684XAXPCBVV31VX1O&c=365799&tp_c=365799","firstResponseHeads":2,"firstResponseTails":8,"secondResponseHeads":2,"secondResponseTails":8,"totalHeads":4,"totalTails":16,"studentIndex":8,"studentTrueHypers":{"a":4,"b":1},"studentGuess":0.32,"delta":0.12,"bonus":0,"bonusSoFar":0.42,"totalExamples":20},{"rt":null,"stimulus":"Sending examples to student... ","response":null,"trial_type":"html-keyboard-response","trial_index":77,"time_elapsed":764248,"internal_node_id":"0.0-76.0","params":{"nStudents":24,"maxFlips":30,"completionMinutes":45,"basePay":8,"maxBonus":9,"perTrialBonus":0.5,"perTrialBonusThreshold":0.05,"exampleCost":0.01},"classroomParams":{"A":{"a":1,"b":4},"B":{"a":4,"b":1},"C":{"a":2,"b":8},"D":{"a":8,"b":2}},"conditions":["nonSeqFull","nonSeqPartial","seqNoFeedback","seqFeedback"],"classroomPairings":[["A","B"],["C","D"]],"coinWeights":[0.2,0.5,0.8],"subjectId":"A3CGQOJC28OVGN","assignmentId":"3Z4AIRP3C7ZJI684XAXPCBVV31VX1O","hitId":"3Z3R5YC0P3915KVY8X6BNRIWSQNFTT","url":"https://gershmanlab.com/experiments/alicia/teaching/experiment/?hitId=3Z3R5YC0P3915KVY8X6BNRIWSQNFTT&workerId=A3CGQOJC28OVGN&assignmentId=3Z4AIRP3C7ZJI684XAXPCBVV31VX1O&a=3I4Z9&tp_a=3I4Z9&b=3Z4AIRP3C7ZJI684XAXPCBVV31VX1O&tp_b=3Z4AIRP3C7ZJI684XAXPCBVV31VX1O&c=365799&tp_c=365799"},{"rt":null,"stimulus":"Examples sent to student! Waiting for student...","response":null,"trial_type":"html-keyboard-response","trial_index":78,"time_elapsed":769250,"internal_node_id":"0.0-77.0","params":{"nStudents":24,"maxFlips":30,"completionMinutes":45,"basePay":8,"maxBonus":9,"perTrialBonus":0.5,"perTrialBonusThreshold":0.05,"exampleCost":0.01},"classroomParams":{"A":{"a":1,"b":4},"B":{"a":4,"b":1},"C":{"a":2,"b":8},"D":{"a":8,"b":2}},"conditions":["nonSeqFull","nonSeqPartial","seqNoFeedback","seqFeedback"],"classroomPairings":[["A","B"],["C","D"]],"coinWeights":[0.2,0.5,0.8],"subjectId":"A3CGQOJC28OVGN","assignmentId":"3Z4AIRP3C7ZJI684XAXPCBVV31VX1O","hitId":"3Z3R5YC0P3915KVY8X6BNRIWSQNFTT","url":"https://gershmanlab.com/experiments/alicia/teaching/experiment/?hitId=3Z3R5YC0P3915KVY8X6BNRIWSQNFTT&workerId=A3CGQOJC28OVGN&assignmentId=3Z4AIRP3C7ZJI684XAXPCBVV31VX1O&a=3I4Z9&tp_a=3I4Z9&b=3Z4AIRP3C7ZJI684XAXPCBVV31VX1O&tp_b=3Z4AIRP3C7ZJI684XAXPCBVV31VX1O&c=365799&tp_c=365799"},{"rt":6598,"stimulus":"\n                <p>Student 9's first guess for coin weight: <b style=\"color:Tomato\";>0.40</b></p>\n                <p>Student 9's second guess for coin weight: <b style=\"color:Tomato\";>0.32</b></p>\n                <p>You received a bonus of <b>$0.00</b> based on the student's second guess.</p>\n                <p>Total bonus so far: <b>$0.42</b></p>\n                <p>Press any key to continue.</p>\n                ","response":" ","trial_type":"html-keyboard-response","trial_index":79,"time_elapsed":775849,"internal_node_id":"0.0-78.0","params":{"nStudents":24,"maxFlips":30,"completionMinutes":45,"basePay":8,"maxBonus":9,"perTrialBonus":0.5,"perTrialBonusThreshold":0.05,"exampleCost":0.01},"classroomParams":{"A":{"a":1,"b":4},"B":{"a":4,"b":1},"C":{"a":2,"b":8},"D":{"a":8,"b":2}},"conditions":["nonSeqFull","nonSeqPartial","seqNoFeedback","seqFeedback"],"classroomPairings":[["A","B"],["C","D"]],"coinWeights":[0.2,0.5,0.8],"subjectId":"A3CGQOJC28OVGN","assignmentId":"3Z4AIRP3C7ZJI684XAXPCBVV31VX1O","hitId":"3Z3R5YC0P3915KVY8X6BNRIWSQNFTT","url":"https://gershmanlab.com/experiments/alicia/teaching/experiment/?hitId=3Z3R5YC0P3915KVY8X6BNRIWSQNFTT&workerId=A3CGQOJC28OVGN&assignmentId=3Z4AIRP3C7ZJI684XAXPCBVV31VX1O&a=3I4Z9&tp_a=3I4Z9&b=3Z4AIRP3C7ZJI684XAXPCBVV31VX1O&tp_b=3Z4AIRP3C7ZJI684XAXPCBVV31VX1O&c=365799&tp_c=365799"},{"rt":null,"stimulus":"<div style=\"font-size:60px;\">Next student</div>","response":null,"trial_type":"html-keyboard-response","trial_index":80,"time_elapsed":778104,"internal_node_id":"0.0-79.0-0.0","params":{"nStudents":24,"maxFlips":30,"completionMinutes":45,"basePay":8,"maxBonus":9,"perTrialBonus":0.5,"perTrialBonusThreshold":0.05,"exampleCost":0.01},"classroomParams":{"A":{"a":1,"b":4},"B":{"a":4,"b":1},"C":{"a":2,"b":8},"D":{"a":8,"b":2}},"conditions":["nonSeqFull","nonSeqPartial","seqNoFeedback","seqFeedback"],"classroomPairings":[["A","B"],["C","D"]],"coinWeights":[0.2,0.5,0.8],"subjectId":"A3CGQOJC28OVGN","assignmentId":"3Z4AIRP3C7ZJI684XAXPCBVV31VX1O","hitId":"3Z3R5YC0P3915KVY8X6BNRIWSQNFTT","url":"https://gershmanlab.com/experiments/alicia/teaching/experiment/?hitId=3Z3R5YC0P3915KVY8X6BNRIWSQNFTT&workerId=A3CGQOJC28OVGN&assignmentId=3Z4AIRP3C7ZJI684XAXPCBVV31VX1O&a=3I4Z9&tp_a=3I4Z9&b=3Z4AIRP3C7ZJI684XAXPCBVV31VX1O&tp_b=3Z4AIRP3C7ZJI684XAXPCBVV31VX1O&c=365799&tp_c=365799"},{"rt":3954,"stimulus":"\n            <h4 style=\"color:Orange;\">Student 10</h4>\n            <h2>The weight of your coin is <b style=\"color:Tomato;\">0.2</b>.</h2>\n            <p>In this block, you will be giving <b>one</b> set of examples to Student 10.</p>\n                <p>You will receive feedback at the end of the block.</p>\n            <p></p>","response":0,"trial_type":"html-button-response","trial_index":81,"time_elapsed":782059,"internal_node_id":"0.0-80.0","params":{"nStudents":24,"maxFlips":30,"completionMinutes":45,"basePay":8,"maxBonus":9,"perTrialBonus":0.5,"perTrialBonusThreshold":0.05,"exampleCost":0.01},"classroomParams":{"A":{"a":1,"b":4},"B":{"a":4,"b":1},"C":{"a":2,"b":8},"D":{"a":8,"b":2}},"conditions":["nonSeqFull","nonSeqPartial","seqNoFeedback","seqFeedback"],"classroomPairings":[["A","B"],["C","D"]],"coinWeights":[0.2,0.5,0.8],"subjectId":"A3CGQOJC28OVGN","assignmentId":"3Z4AIRP3C7ZJI684XAXPCBVV31VX1O","hitId":"3Z3R5YC0P3915KVY8X6BNRIWSQNFTT","url":"https://gershmanlab.com/experiments/alicia/teaching/experiment/?hitId=3Z3R5YC0P3915KVY8X6BNRIWSQNFTT&workerId=A3CGQOJC28OVGN&assignmentId=3Z4AIRP3C7ZJI684XAXPCBVV31VX1O&a=3I4Z9&tp_a=3I4Z9&b=3Z4AIRP3C7ZJI684XAXPCBVV31VX1O&tp_b=3Z4AIRP3C7ZJI684XAXPCBVV31VX1O&c=365799&tp_c=365799"},{"rt":5075,"response":{"heads":"1","tails":"8"},"type":"response","condition":"nonSeqFull","trueTheta":0.2,"classrooms":["A","B"],"studentTrueClassroom":"A","exampleSet":"first","trial_type":"survey-html-form","trial_index":82,"time_elapsed":787135,"internal_node_id":"0.0-81.0-0.0","params":{"nStudents":24,"maxFlips":30,"completionMinutes":45,"basePay":8,"maxBonus":9,"perTrialBonus":0.5,"perTrialBonusThreshold":0.05,"exampleCost":0.01},"classroomParams":{"A":{"a":1,"b":4},"B":{"a":4,"b":1},"C":{"a":2,"b":8},"D":{"a":8,"b":2}},"conditions":["nonSeqFull","nonSeqPartial","seqNoFeedback","seqFeedback"],"classroomPairings":[["A","B"],["C","D"]],"coinWeights":[0.2,0.5,0.8],"subjectId":"A3CGQOJC28OVGN","assignmentId":"3Z4AIRP3C7ZJI684XAXPCBVV31VX1O","hitId":"3Z3R5YC0P3915KVY8X6BNRIWSQNFTT","url":"https://gershmanlab.com/experiments/alicia/teaching/experiment/?hitId=3Z3R5YC0P3915KVY8X6BNRIWSQNFTT&workerId=A3CGQOJC28OVGN&assignmentId=3Z4AIRP3C7ZJI684XAXPCBVV31VX1O&a=3I4Z9&tp_a=3I4Z9&b=3Z4AIRP3C7ZJI684XAXPCBVV31VX1O&tp_b=3Z4AIRP3C7ZJI684XAXPCBVV31VX1O&c=365799&tp_c=365799","heads":1,"tails":8,"studentIndex":9,"studentTrueHypers":{"a":1,"b":4},"studentGuess":0.14285714285714285,"delta":0.05714285714285716,"totalExamples":9,"bonus":0,"bonusSoFar":0.42},{"rt":null,"stimulus":"Sending examples to student... ","response":null,"trial_type":"html-keyboard-response","trial_index":83,"time_elapsed":788891,"internal_node_id":"0.0-82.0","params":{"nStudents":24,"maxFlips":30,"completionMinutes":45,"basePay":8,"maxBonus":9,"perTrialBonus":0.5,"perTrialBonusThreshold":0.05,"exampleCost":0.01},"classroomParams":{"A":{"a":1,"b":4},"B":{"a":4,"b":1},"C":{"a":2,"b":8},"D":{"a":8,"b":2}},"conditions":["nonSeqFull","nonSeqPartial","seqNoFeedback","seqFeedback"],"classroomPairings":[["A","B"],["C","D"]],"coinWeights":[0.2,0.5,0.8],"subjectId":"A3CGQOJC28OVGN","assignmentId":"3Z4AIRP3C7ZJI684XAXPCBVV31VX1O","hitId":"3Z3R5YC0P3915KVY8X6BNRIWSQNFTT","url":"https://gershmanlab.com/experiments/alicia/teaching/experiment/?hitId=3Z3R5YC0P3915KVY8X6BNRIWSQNFTT&workerId=A3CGQOJC28OVGN&assignmentId=3Z4AIRP3C7ZJI684XAXPCBVV31VX1O&a=3I4Z9&tp_a=3I4Z9&b=3Z4AIRP3C7ZJI684XAXPCBVV31VX1O&tp_b=3Z4AIRP3C7ZJI684XAXPCBVV31VX1O&c=365799&tp_c=365799"},{"rt":null,"stimulus":"Examples sent to student! Waiting for student...","response":null,"trial_type":"html-keyboard-response","trial_index":84,"time_elapsed":793898,"internal_node_id":"0.0-83.0","params":{"nStudents":24,"maxFlips":30,"completionMinutes":45,"basePay":8,"maxBonus":9,"perTrialBonus":0.5,"perTrialBonusThreshold":0.05,"exampleCost":0.01},"classroomParams":{"A":{"a":1,"b":4},"B":{"a":4,"b":1},"C":{"a":2,"b":8},"D":{"a":8,"b":2}},"conditions":["nonSeqFull","nonSeqPartial","seqNoFeedback","seqFeedback"],"classroomPairings":[["A","B"],["C","D"]],"coinWeights":[0.2,0.5,0.8],"subjectId":"A3CGQOJC28OVGN","assignmentId":"3Z4AIRP3C7ZJI684XAXPCBVV31VX1O","hitId":"3Z3R5YC0P3915KVY8X6BNRIWSQNFTT","url":"https://gershmanlab.com/experiments/alicia/teaching/experiment/?hitId=3Z3R5YC0P3915KVY8X6BNRIWSQNFTT&workerId=A3CGQOJC28OVGN&assignmentId=3Z4AIRP3C7ZJI684XAXPCBVV31VX1O&a=3I4Z9&tp_a=3I4Z9&b=3Z4AIRP3C7ZJI684XAXPCBVV31VX1O&tp_b=3Z4AIRP3C7ZJI684XAXPCBVV31VX1O&c=365799&tp_c=365799"},{"rt":5413,"stimulus":"\n                <p>Student's guess for coin weight: <b style=\"color:Tomato;\">0.14</b></p>\n                <p>You received a bonus of <b>$0</b>. Total bonus so far: <b>$0.42</b></b></p>\n                <p></p>\n                <p>Press any key to continue.</p>\n                ","response":"arrowdown","trial_type":"html-keyboard-response","trial_index":85,"time_elapsed":799311,"internal_node_id":"0.0-84.0","params":{"nStudents":24,"maxFlips":30,"completionMinutes":45,"basePay":8,"maxBonus":9,"perTrialBonus":0.5,"perTrialBonusThreshold":0.05,"exampleCost":0