[{"rt":20443,"stimulus":"Welcome to the experiment. Press any key to begin.","response":" ","trial_type":"html-keyboard-response","trial_index":0,"time_elapsed":20517,"internal_node_id":"0.0-0.0","params":{"nStudents":24,"maxFlips":30,"completionMinutes":45,"basePay":8,"maxBonus":9,"perTrialBonus":0.5,"perTrialBonusThreshold":0.05,"exampleCost":0.01},"classroomParams":{"A":{"a":1,"b":4},"B":{"a":4,"b":1},"C":{"a":2,"b":8},"D":{"a":8,"b":2}},"conditions":["nonSeqFull","nonSeqPartial","seqNoFeedback","seqFeedback"],"classroomPairings":[["A","B"],["C","D"]],"coinWeights":[0.2,0.5,0.8],"subjectId":"A3EA4SHCLJ1UZQ","assignmentId":"3H8DHMCCWAX7Q1P9EK2VNJO2WPJKDC","hitId":"3NI0WFPPI9246I5W92FX9A3E2GN605","url":"https://gershmanlab.com/experiments/alicia/teaching/experiment/?hitId=3NI0WFPPI9246I5W92FX9A3E2GN605&workerId=A3EA4SHCLJ1UZQ&assignmentId=3H8DHMCCWAX7Q1P9EK2VNJO2WPJKDC&a=CH8H9&tp_a=CH8H9&b=3H8DHMCCWAX7Q1P9EK2VNJO2WPJKDC&tp_b=3H8DHMCCWAX7Q1P9EK2VNJO2WPJKDC&c=365799&tp_c=365799"},{"rt":12219,"stimulus":"\n        <h3>Please read this consent agreement carefully before deciding whether to participate in this experiment.</h3>\n        <p><b>Purpose of the research:</b> To examine how people teach effectively.</p>\n        <p><b>What you will do in this research:</b> You will teach students the weights of different coins.</p>\n        <p><b>Time required:</b> This experiment will take 45 minutes to complete.</p>\n        <p><b>Risks:</b> There are no anticipated risks associated with participating in this study.             The effects of participating should be comparable to those you would experience from viewing a computer monitor             and using a mouse and keyboard for the duration of the experiment.</p>\n        <p><b>Benefits:</b> The study provides important information about the nature of teaching.</p>\n        <p><b>Compensation:</b> You will receive <b>$8</b> for completing the experiment and a performance bonus of up to <b>$9</b>.</p>\n        <p><b>Confidentiality:</b> Your participation in this study will remain confidential.             No personally identifiable information will be associated with your data.             Your de-identified data may be shared with other researchers and used in future projects.</p>\n        <p><b>Participation and withdrawal:</b> Your participation in this study is completely voluntary and             you may refuse to participate or you may choose to withdraw at any time without penalty or loss of\n            benefits to which you are otherwise entitled.</p>\n        <p><b>How to contact the researcher:</b> If you have questions or concerns about your participation            or payment, or want to request a summary of research findings, please contact\n            Alicia Chen, aliciachen@college.harvard.edu.</p>\n        <p><b>Whom to contact about your rights in this research:</b> For questions, concerns, suggestions,             or complaints that have not been or cannot be addressed by the researcher, or to report             research-related harm, please contact the Committee on the Use of Human Subjects in Research at Harvard University,             1414 Massachusetts Avenue, Second Floor, Cambridge, MA 02138. Phone: 617-496-2847. Email: cuhs@fas.harvard.edu.</p>\n        ","response":0,"trial_type":"html-button-response","trial_index":1,"time_elapsed":32737,"internal_node_id":"0.0-1.0","params":{"nStudents":24,"maxFlips":30,"completionMinutes":45,"basePay":8,"maxBonus":9,"perTrialBonus":0.5,"perTrialBonusThreshold":0.05,"exampleCost":0.01},"classroomParams":{"A":{"a":1,"b":4},"B":{"a":4,"b":1},"C":{"a":2,"b":8},"D":{"a":8,"b":2}},"conditions":["nonSeqFull","nonSeqPartial","seqNoFeedback","seqFeedback"],"classroomPairings":[["A","B"],["C","D"]],"coinWeights":[0.2,0.5,0.8],"subjectId":"A3EA4SHCLJ1UZQ","assignmentId":"3H8DHMCCWAX7Q1P9EK2VNJO2WPJKDC","hitId":"3NI0WFPPI9246I5W92FX9A3E2GN605","url":"https://gershmanlab.com/experiments/alicia/teaching/experiment/?hitId=3NI0WFPPI9246I5W92FX9A3E2GN605&workerId=A3EA4SHCLJ1UZQ&assignmentId=3H8DHMCCWAX7Q1P9EK2VNJO2WPJKDC&a=CH8H9&tp_a=CH8H9&b=3H8DHMCCWAX7Q1P9EK2VNJO2WPJKDC&tp_b=3H8DHMCCWAX7Q1P9EK2VNJO2WPJKDC&c=365799&tp_c=365799"},{"view_history":[{"page_index":0,"viewing_time":3440},{"page_index":1,"viewing_time":7430},{"page_index":2,"viewing_time":65498},{"page_index":3,"viewing_time":99958},{"page_index":4,"viewing_time":27896},{"page_index":5,"viewing_time":21516},{"page_index":6,"viewing_time":40147}],"rt":265885,"trial_type":"instructions","trial_index":2,"time_elapsed":298614,"internal_node_id":"0.0-2.0-0.0","params":{"nStudents":24,"maxFlips":30,"completionMinutes":45,"basePay":8,"maxBonus":9,"perTrialBonus":0.5,"perTrialBonusThreshold":0.05,"exampleCost":0.01},"classroomParams":{"A":{"a":1,"b":4},"B":{"a":4,"b":1},"C":{"a":2,"b":8},"D":{"a":8,"b":2}},"conditions":["nonSeqFull","nonSeqPartial","seqNoFeedback","seqFeedback"],"classroomPairings":[["A","B"],["C","D"]],"coinWeights":[0.2,0.5,0.8],"subjectId":"A3EA4SHCLJ1UZQ","assignmentId":"3H8DHMCCWAX7Q1P9EK2VNJO2WPJKDC","hitId":"3NI0WFPPI9246I5W92FX9A3E2GN605","url":"https://gershmanlab.com/experiments/alicia/teaching/experiment/?hitId=3NI0WFPPI9246I5W92FX9A3E2GN605&workerId=A3EA4SHCLJ1UZQ&assignmentId=3H8DHMCCWAX7Q1P9EK2VNJO2WPJKDC&a=CH8H9&tp_a=CH8H9&b=3H8DHMCCWAX7Q1P9EK2VNJO2WPJKDC&tp_b=3H8DHMCCWAX7Q1P9EK2VNJO2WPJKDC&c=365799&tp_c=365799"},{"rt":83078,"response":{"Q0":"Students in different classrooms will have seen a different number of heads and tails before seeing the examples you select for them.","Q1":"By <b>considering the student's classroom information</b> so that I can teach efficiently and accurately/helpfully at the same time (because each example I give to the student costs money!).","Q2":"The coin lands heads 90% of the time.","Q3":"No, I will teach a <b>new</b> student each time.","Q4":"The students are also on the same alien planet as you, where coins can be unfair.","Q5":"Based on the student's second (and final) guess."},"question_order":[5,0,1,2,3,4],"trial_type":"survey-multi-choice","trial_index":3,"time_elapsed":381693,"internal_node_id":"0.0-2.0-1.0","params":{"nStudents":24,"maxFlips":30,"completionMinutes":45,"basePay":8,"maxBonus":9,"perTrialBonus":0.5,"perTrialBonusThreshold":0.05,"exampleCost":0.01},"classroomParams":{"A":{"a":1,"b":4},"B":{"a":4,"b":1},"C":{"a":2,"b":8},"D":{"a":8,"b":2}},"conditions":["nonSeqFull","nonSeqPartial","seqNoFeedback","seqFeedback"],"classroomPairings":[["A","B"],["C","D"]],"coinWeights":[0.2,0.5,0.8],"subjectId":"A3EA4SHCLJ1UZQ","assignmentId":"3H8DHMCCWAX7Q1P9EK2VNJO2WPJKDC","hitId":"3NI0WFPPI9246I5W92FX9A3E2GN605","url":"https://gershmanlab.com/experiments/alicia/teaching/experiment/?hitId=3NI0WFPPI9246I5W92FX9A3E2GN605&workerId=A3EA4SHCLJ1UZQ&assignmentId=3H8DHMCCWAX7Q1P9EK2VNJO2WPJKDC&a=CH8H9&tp_a=CH8H9&b=3H8DHMCCWAX7Q1P9EK2VNJO2WPJKDC&tp_b=3H8DHMCCWAX7Q1P9EK2VNJO2WPJKDC&c=365799&tp_c=365799","pass":true},{"rt":null,"stimulus":"<div style=\"font-size:30px;\">Congrats on passing the comprehension quiz! The experiment will begin in a few seconds.</div>","response":null,"trial_type":"html-keyboard-response","trial_index":4,"time_elapsed":384707,"internal_node_id":"0.0-3.0","params":{"nStudents":24,"maxFlips":30,"completionMinutes":45,"basePay":8,"maxBonus":9,"perTrialBonus":0.5,"perTrialBonusThreshold":0.05,"exampleCost":0.01},"classroomParams":{"A":{"a":1,"b":4},"B":{"a":4,"b":1},"C":{"a":2,"b":8},"D":{"a":8,"b":2}},"conditions":["nonSeqFull","nonSeqPartial","seqNoFeedback","seqFeedback"],"classroomPairings":[["A","B"],["C","D"]],"coinWeights":[0.2,0.5,0.8],"subjectId":"A3EA4SHCLJ1UZQ","assignmentId":"3H8DHMCCWAX7Q1P9EK2VNJO2WPJKDC","hitId":"3NI0WFPPI9246I5W92FX9A3E2GN605","url":"https://gershmanlab.com/experiments/alicia/teaching/experiment/?hitId=3NI0WFPPI9246I5W92FX9A3E2GN605&workerId=A3EA4SHCLJ1UZQ&assignmentId=3H8DHMCCWAX7Q1P9EK2VNJO2WPJKDC&a=CH8H9&tp_a=CH8H9&b=3H8DHMCCWAX7Q1P9EK2VNJO2WPJKDC&tp_b=3H8DHMCCWAX7Q1P9EK2VNJO2WPJKDC&c=365799&tp_c=365799"},{"rt":null,"stimulus":"<div style=\"font-size:50px;\">First student</div>","response":null,"trial_type":"html-keyboard-response","trial_index":5,"time_elapsed":387708,"internal_node_id":"0.0-4.0","params":{"nStudents":24,"maxFlips":30,"completionMinutes":45,"basePay":8,"maxBonus":9,"perTrialBonus":0.5,"perTrialBonusThreshold":0.05,"exampleCost":0.01},"classroomParams":{"A":{"a":1,"b":4},"B":{"a":4,"b":1},"C":{"a":2,"b":8},"D":{"a":8,"b":2}},"conditions":["nonSeqFull","nonSeqPartial","seqNoFeedback","seqFeedback"],"classroomPairings":[["A","B"],["C","D"]],"coinWeights":[0.2,0.5,0.8],"subjectId":"A3EA4SHCLJ1UZQ","assignmentId":"3H8DHMCCWAX7Q1P9EK2VNJO2WPJKDC","hitId":"3NI0WFPPI9246I5W92FX9A3E2GN605","url":"https://gershmanlab.com/experiments/alicia/teaching/experiment/?hitId=3NI0WFPPI9246I5W92FX9A3E2GN605&workerId=A3EA4SHCLJ1UZQ&assignmentId=3H8DHMCCWAX7Q1P9EK2VNJO2WPJKDC&a=CH8H9&tp_a=CH8H9&b=3H8DHMCCWAX7Q1P9EK2VNJO2WPJKDC&tp_b=3H8DHMCCWAX7Q1P9EK2VNJO2WPJKDC&c=365799&tp_c=365799"},{"rt":14989,"stimulus":"\n            <h4 style=\"color:Orange;\">Student 1</h4>\n            <h2>The weight of your coin is <b style=\"color:Tomato;\">0.5</b>.</h2>\n            <p>In this block, you will be giving <b>two</b> sets of examples to Student 1.</p>\n                <p>You will see the student's guess after the first set of examples. You will also receive feedback at the end of the block.</p>\n            <p>To earn the highest bonus, you will have to <b>take into consideration the student's guess</b> when you choose your second set of examples.</p>","response":0,"trial_type":"html-button-response","trial_index":6,"time_elapsed":402698,"internal_node_id":"0.0-5.0","params":{"nStudents":24,"maxFlips":30,"completionMinutes":45,"basePay":8,"maxBonus":9,"perTrialBonus":0.5,"perTrialBonusThreshold":0.05,"exampleCost":0.01},"classroomParams":{"A":{"a":1,"b":4},"B":{"a":4,"b":1},"C":{"a":2,"b":8},"D":{"a":8,"b":2}},"conditions":["nonSeqFull","nonSeqPartial","seqNoFeedback","seqFeedback"],"classroomPairings":[["A","B"],["C","D"]],"coinWeights":[0.2,0.5,0.8],"subjectId":"A3EA4SHCLJ1UZQ","assignmentId":"3H8DHMCCWAX7Q1P9EK2VNJO2WPJKDC","hitId":"3NI0WFPPI9246I5W92FX9A3E2GN605","url":"https://gershmanlab.com/experiments/alicia/teaching/experiment/?hitId=3NI0WFPPI9246I5W92FX9A3E2GN605&workerId=A3EA4SHCLJ1UZQ&assignmentId=3H8DHMCCWAX7Q1P9EK2VNJO2WPJKDC&a=CH8H9&tp_a=CH8H9&b=3H8DHMCCWAX7Q1P9EK2VNJO2WPJKDC&tp_b=3H8DHMCCWAX7Q1P9EK2VNJO2WPJKDC&c=365799&tp_c=365799"},{"rt":20700,"response":{"heads":"1","tails":"1"},"type":"response","condition":"seqFeedback","trueTheta":0.5,"classrooms":["A","B"],"studentTrueClassroom":"A","exampleSet":"first","trial_type":"survey-html-form","trial_index":7,"time_elapsed":423399,"internal_node_id":"0.0-6.0-0.0","params":{"nStudents":24,"maxFlips":30,"completionMinutes":45,"basePay":8,"maxBonus":9,"perTrialBonus":0.5,"perTrialBonusThreshold":0.05,"exampleCost":0.01},"classroomParams":{"A":{"a":1,"b":4},"B":{"a":4,"b":1},"C":{"a":2,"b":8},"D":{"a":8,"b":2}},"conditions":["nonSeqFull","nonSeqPartial","seqNoFeedback","seqFeedback"],"classroomPairings":[["A","B"],["C","D"]],"coinWeights":[0.2,0.5,0.8],"subjectId":"A3EA4SHCLJ1UZQ","assignmentId":"3H8DHMCCWAX7Q1P9EK2VNJO2WPJKDC","hitId":"3NI0WFPPI9246I5W92FX9A3E2GN605","url":"https://gershmanlab.com/experiments/alicia/teaching/experiment/?hitId=3NI0WFPPI9246I5W92FX9A3E2GN605&workerId=A3EA4SHCLJ1UZQ&assignmentId=3H8DHMCCWAX7Q1P9EK2VNJO2WPJKDC&a=CH8H9&tp_a=CH8H9&b=3H8DHMCCWAX7Q1P9EK2VNJO2WPJKDC&tp_b=3H8DHMCCWAX7Q1P9EK2VNJO2WPJKDC&c=365799&tp_c=365799","heads":1,"tails":1,"studentIndex":0,"studentTrueHypers":{"a":1,"b":4},"studentGuess":0.2857142857142857,"delta":0.2142857142857143,"totalExamples":2,"bonusSoFar":0},{"rt":null,"stimulus":"Sending examples to student... ","response":null,"trial_type":"html-keyboard-response","trial_index":8,"time_elapsed":424907,"internal_node_id":"0.0-7.0","params":{"nStudents":24,"maxFlips":30,"completionMinutes":45,"basePay":8,"maxBonus":9,"perTrialBonus":0.5,"perTrialBonusThreshold":0.05,"exampleCost":0.01},"classroomParams":{"A":{"a":1,"b":4},"B":{"a":4,"b":1},"C":{"a":2,"b":8},"D":{"a":8,"b":2}},"conditions":["nonSeqFull","nonSeqPartial","seqNoFeedback","seqFeedback"],"classroomPairings":[["A","B"],["C","D"]],"coinWeights":[0.2,0.5,0.8],"subjectId":"A3EA4SHCLJ1UZQ","assignmentId":"3H8DHMCCWAX7Q1P9EK2VNJO2WPJKDC","hitId":"3NI0WFPPI9246I5W92FX9A3E2GN605","url":"https://gershmanlab.com/experiments/alicia/teaching/experiment/?hitId=3NI0WFPPI9246I5W92FX9A3E2GN605&workerId=A3EA4SHCLJ1UZQ&assignmentId=3H8DHMCCWAX7Q1P9EK2VNJO2WPJKDC&a=CH8H9&tp_a=CH8H9&b=3H8DHMCCWAX7Q1P9EK2VNJO2WPJKDC&tp_b=3H8DHMCCWAX7Q1P9EK2VNJO2WPJKDC&c=365799&tp_c=365799"},{"rt":null,"stimulus":"Examples sent to student! Waiting for student...","response":null,"trial_type":"html-keyboard-response","trial_index":9,"time_elapsed":429408,"internal_node_id":"0.0-8.0","params":{"nStudents":24,"maxFlips":30,"completionMinutes":45,"basePay":8,"maxBonus":9,"perTrialBonus":0.5,"perTrialBonusThreshold":0.05,"exampleCost":0.01},"classroomParams":{"A":{"a":1,"b":4},"B":{"a":4,"b":1},"C":{"a":2,"b":8},"D":{"a":8,"b":2}},"conditions":["nonSeqFull","nonSeqPartial","seqNoFeedback","seqFeedback"],"classroomPairings":[["A","B"],["C","D"]],"coinWeights":[0.2,0.5,0.8],"subjectId":"A3EA4SHCLJ1UZQ","assignmentId":"3H8DHMCCWAX7Q1P9EK2VNJO2WPJKDC","hitId":"3NI0WFPPI9246I5W92FX9A3E2GN605","url":"https://gershmanlab.com/experiments/alicia/teaching/experiment/?hitId=3NI0WFPPI9246I5W92FX9A3E2GN605&workerId=A3EA4SHCLJ1UZQ&assignmentId=3H8DHMCCWAX7Q1P9EK2VNJO2WPJKDC&a=CH8H9&tp_a=CH8H9&b=3H8DHMCCWAX7Q1P9EK2VNJO2WPJKDC&tp_b=3H8DHMCCWAX7Q1P9EK2VNJO2WPJKDC&c=365799&tp_c=365799"},{"rt":11108,"stimulus":"\n                <p>Student's guess for coin weight: <b style=\"color:Tomato;\">0.29</b></p>\n                <p></b></p>\n                <p>You will now send another set of examples to your student. <b>Remember to take your student's guess into consideration so that you can earn the highest bonus possible!</b> </p>\n                <p>Press any key to continue.</p>\n                ","response":" ","trial_type":"html-keyboard-response","trial_index":10,"time_elapsed":440518,"internal_node_id":"0.0-9.0","params":{"nStudents":24,"maxFlips":30,"completionMinutes":45,"basePay":8,"maxBonus":9,"perTrialBonus":0.5,"perTrialBonusThreshold":0.05,"exampleCost":0.01},"classroomParams":{"A":{"a":1,"b":4},"B":{"a":4,"b":1},"C":{"a":2,"b":8},"D":{"a":8,"b":2}},"conditions":["nonSeqFull","nonSeqPartial","seqNoFeedback","seqFeedback"],"classroomPairings":[["A","B"],["C","D"]],"coinWeights":[0.2,0.5,0.8],"subjectId":"A3EA4SHCLJ1UZQ","assignmentId":"3H8DHMCCWAX7Q1P9EK2VNJO2WPJKDC","hitId":"3NI0WFPPI9246I5W92FX9A3E2GN605","url":"https://gershmanlab.com/experiments/alicia/teaching/experiment/?hitId=3NI0WFPPI9246I5W92FX9A3E2GN605&workerId=A3EA4SHCLJ1UZQ&assignmentId=3H8DHMCCWAX7Q1P9EK2VNJO2WPJKDC&a=CH8H9&tp_a=CH8H9&b=3H8DHMCCWAX7Q1P9EK2VNJO2WPJKDC&tp_b=3H8DHMCCWAX7Q1P9EK2VNJO2WPJKDC&c=365799&tp_c=365799"},{"rt":6140,"response":{"heads":"1","tails":"1"},"type":"response","condition":"seqFeedback","trueTheta":0.5,"classrooms":["A","B"],"studentTrueClassroom":"A","exampleSet":"second","trial_type":"survey-html-form","trial_index":11,"time_elapsed":446658,"internal_node_id":"0.0-10.0-0.0","params":{"nStudents":24,"maxFlips":30,"completionMinutes":45,"basePay":8,"maxBonus":9,"perTrialBonus":0.5,"perTrialBonusThreshold":0.05,"exampleCost":0.01},"classroomParams":{"A":{"a":1,"b":4},"B":{"a":4,"b":1},"C":{"a":2,"b":8},"D":{"a":8,"b":2}},"conditions":["nonSeqFull","nonSeqPartial","seqNoFeedback","seqFeedback"],"classroomPairings":[["A","B"],["C","D"]],"coinWeights":[0.2,0.5,0.8],"subjectId":"A3EA4SHCLJ1UZQ","assignmentId":"3H8DHMCCWAX7Q1P9EK2VNJO2WPJKDC","hitId":"3NI0WFPPI9246I5W92FX9A3E2GN605","url":"https://gershmanlab.com/experiments/alicia/teaching/experiment/?hitId=3NI0WFPPI9246I5W92FX9A3E2GN605&workerId=A3EA4SHCLJ1UZQ&assignmentId=3H8DHMCCWAX7Q1P9EK2VNJO2WPJKDC&a=CH8H9&tp_a=CH8H9&b=3H8DHMCCWAX7Q1P9EK2VNJO2WPJKDC&tp_b=3H8DHMCCWAX7Q1P9EK2VNJO2WPJKDC&c=365799&tp_c=365799","firstResponseHeads":1,"firstResponseTails":1,"secondResponseHeads":1,"secondResponseTails":1,"totalHeads":2,"totalTails":2,"studentIndex":0,"studentTrueHypers":{"a":1,"b":4},"studentGuess":0.3333333333333333,"delta":0.16666666666666669,"bonus":0,"bonusSoFar":0,"totalExamples":4},{"rt":null,"stimulus":"Sending examples to student... ","response":null,"trial_type":"html-keyboard-response","trial_index":12,"time_elapsed":447914,"internal_node_id":"0.0-11.0","params":{"nStudents":24,"maxFlips":30,"completionMinutes":45,"basePay":8,"maxBonus":9,"perTrialBonus":0.5,"perTrialBonusThreshold":0.05,"exampleCost":0.01},"classroomParams":{"A":{"a":1,"b":4},"B":{"a":4,"b":1},"C":{"a":2,"b":8},"D":{"a":8,"b":2}},"conditions":["nonSeqFull","nonSeqPartial","seqNoFeedback","seqFeedback"],"classroomPairings":[["A","B"],["C","D"]],"coinWeights":[0.2,0.5,0.8],"subjectId":"A3EA4SHCLJ1UZQ","assignmentId":"3H8DHMCCWAX7Q1P9EK2VNJO2WPJKDC","hitId":"3NI0WFPPI9246I5W92FX9A3E2GN605","url":"https://gershmanlab.com/experiments/alicia/teaching/experiment/?hitId=3NI0WFPPI9246I5W92FX9A3E2GN605&workerId=A3EA4SHCLJ1UZQ&assignmentId=3H8DHMCCWAX7Q1P9EK2VNJO2WPJKDC&a=CH8H9&tp_a=CH8H9&b=3H8DHMCCWAX7Q1P9EK2VNJO2WPJKDC&tp_b=3H8DHMCCWAX7Q1P9EK2VNJO2WPJKDC&c=365799&tp_c=365799"},{"rt":null,"stimulus":"Examples sent to student! Waiting for student...","response":null,"trial_type":"html-keyboard-response","trial_index":13,"time_elapsed":452917,"internal_node_id":"0.0-12.0","params":{"nStudents":24,"maxFlips":30,"completionMinutes":45,"basePay":8,"maxBonus":9,"perTrialBonus":0.5,"perTrialBonusThreshold":0.05,"exampleCost":0.01},"classroomParams":{"A":{"a":1,"b":4},"B":{"a":4,"b":1},"C":{"a":2,"b":8},"D":{"a":8,"b":2}},"conditions":["nonSeqFull","nonSeqPartial","seqNoFeedback","seqFeedback"],"classroomPairings":[["A","B"],["C","D"]],"coinWeights":[0.2,0.5,0.8],"subjectId":"A3EA4SHCLJ1UZQ","assignmentId":"3H8DHMCCWAX7Q1P9EK2VNJO2WPJKDC","hitId":"3NI0WFPPI9246I5W92FX9A3E2GN605","url":"https://gershmanlab.com/experiments/alicia/teaching/experiment/?hitId=3NI0WFPPI9246I5W92FX9A3E2GN605&workerId=A3EA4SHCLJ1UZQ&assignmentId=3H8DHMCCWAX7Q1P9EK2VNJO2WPJKDC&a=CH8H9&tp_a=CH8H9&b=3H8DHMCCWAX7Q1P9EK2VNJO2WPJKDC&tp_b=3H8DHMCCWAX7Q1P9EK2VNJO2WPJKDC&c=365799&tp_c=365799"},{"rt":6678,"stimulus":"\n                <p>Student 1's first guess for coin weight: <b style=\"color:Tomato\";>0.29</b></p>\n                <p>Student 1's second guess for coin weight: <b style=\"color:Tomato\";>0.33</b></p>\n                <p>You received a bonus of <b>$0.00</b> based on the student's second guess.</p>\n                <p>Total bonus so far: <b>$0.00</b></p>\n                <p>Press any key to continue.</p>\n                ","response":" ","trial_type":"html-keyboard-response","trial_index":14,"time_elapsed":459596,"internal_node_id":"0.0-13.0","params":{"nStudents":24,"maxFlips":30,"completionMinutes":45,"basePay":8,"maxBonus":9,"perTrialBonus":0.5,"perTrialBonusThreshold":0.05,"exampleCost":0.01},"classroomParams":{"A":{"a":1,"b":4},"B":{"a":4,"b":1},"C":{"a":2,"b":8},"D":{"a":8,"b":2}},"conditions":["nonSeqFull","nonSeqPartial","seqNoFeedback","seqFeedback"],"classroomPairings":[["A","B"],["C","D"]],"coinWeights":[0.2,0.5,0.8],"subjectId":"A3EA4SHCLJ1UZQ","assignmentId":"3H8DHMCCWAX7Q1P9EK2VNJO2WPJKDC","hitId":"3NI0WFPPI9246I5W92FX9A3E2GN605","url":"https://gershmanlab.com/experiments/alicia/teaching/experiment/?hitId=3NI0WFPPI9246I5W92FX9A3E2GN605&workerId=A3EA4SHCLJ1UZQ&assignmentId=3H8DHMCCWAX7Q1P9EK2VNJO2WPJKDC&a=CH8H9&tp_a=CH8H9&b=3H8DHMCCWAX7Q1P9EK2VNJO2WPJKDC&tp_b=3H8DHMCCWAX7Q1P9EK2VNJO2WPJKDC&c=365799&tp_c=365799"},{"rt":null,"stimulus":"<div style=\"font-size:60px;\">Next student</div>","response":null,"trial_type":"html-keyboard-response","trial_index":15,"time_elapsed":462098,"internal_node_id":"0.0-14.0-0.0","params":{"nStudents":24,"maxFlips":30,"completionMinutes":45,"basePay":8,"maxBonus":9,"perTrialBonus":0.5,"perTrialBonusThreshold":0.05,"exampleCost":0.01},"classroomParams":{"A":{"a":1,"b":4},"B":{"a":4,"b":1},"C":{"a":2,"b":8},"D":{"a":8,"b":2}},"conditions":["nonSeqFull","nonSeqPartial","seqNoFeedback","seqFeedback"],"classroomPairings":[["A","B"],["C","D"]],"coinWeights":[0.2,0.5,0.8],"subjectId":"A3EA4SHCLJ1UZQ","assignmentId":"3H8DHMCCWAX7Q1P9EK2VNJO2WPJKDC","hitId":"3NI0WFPPI9246I5W92FX9A3E2GN605","url":"https://gershmanlab.com/experiments/alicia/teaching/experiment/?hitId=3NI0WFPPI9246I5W92FX9A3E2GN605&workerId=A3EA4SHCLJ1UZQ&assignmentId=3H8DHMCCWAX7Q1P9EK2VNJO2WPJKDC&a=CH8H9&tp_a=CH8H9&b=3H8DHMCCWAX7Q1P9EK2VNJO2WPJKDC&tp_b=3H8DHMCCWAX7Q1P9EK2VNJO2WPJKDC&c=365799&tp_c=365799"},{"rt":18054,"stimulus":"\n            <h4 style=\"color:Orange;\">Student 2</h4>\n            <h2>The weight of your coin is <b style=\"color:Tomato;\">0.2</b>.</h2>\n            <p>In this block, you will be giving <b>one</b> set of examples to Student 2.</p>\n                <p>You will receive feedback at the end of the block.</p>\n            <p></p>","response":0,"trial_type":"html-button-response","trial_index":16,"time_elapsed":480153,"internal_node_id":"0.0-15.0","params":{"nStudents":24,"maxFlips":30,"completionMinutes":45,"basePay":8,"maxBonus":9,"perTrialBonus":0.5,"perTrialBonusThreshold":0.05,"exampleCost":0.01},"classroomParams":{"A":{"a":1,"b":4},"B":{"a":4,"b":1},"C":{"a":2,"b":8},"D":{"a":8,"b":2}},"conditions":["nonSeqFull","nonSeqPartial","seqNoFeedback","seqFeedback"],"classroomPairings":[["A","B"],["C","D"]],"coinWeights":[0.2,0.5,0.8],"subjectId":"A3EA4SHCLJ1UZQ","assignmentId":"3H8DHMCCWAX7Q1P9EK2VNJO2WPJKDC","hitId":"3NI0WFPPI9246I5W92FX9A3E2GN605","url":"https://gershmanlab.com/experiments/alicia/teaching/experiment/?hitId=3NI0WFPPI9246I5W92FX9A3E2GN605&workerId=A3EA4SHCLJ1UZQ&assignmentId=3H8DHMCCWAX7Q1P9EK2VNJO2WPJKDC&a=CH8H9&tp_a=CH8H9&b=3H8DHMCCWAX7Q1P9EK2VNJO2WPJKDC&tp_b=3H8DHMCCWAX7Q1P9EK2VNJO2WPJKDC&c=365799&tp_c=365799"},{"rt":42367,"response":{"heads":"0","tails":"8"},"type":"response","condition":"nonSeqPartial","trueTheta":0.2,"classrooms":["A","B"],"studentTrueClassroom":"A","exampleSet":"first","trial_type":"survey-html-form","trial_index":17,"time_elapsed":522519,"internal_node_id":"0.0-16.0-0.0","params":{"nStudents":24,"maxFlips":30,"completionMinutes":45,"basePay":8,"maxBonus":9,"perTrialBonus":0.5,"perTrialBonusThreshold":0.05,"exampleCost":0.01},"classroomParams":{"A":{"a":1,"b":4},"B":{"a":4,"b":1},"C":{"a":2,"b":8},"D":{"a":8,"b":2}},"conditions":["nonSeqFull","nonSeqPartial","seqNoFeedback","seqFeedback"],"classroomPairings":[["A","B"],["C","D"]],"coinWeights":[0.2,0.5,0.8],"subjectId":"A3EA4SHCLJ1UZQ","assignmentId":"3H8DHMCCWAX7Q1P9EK2VNJO2WPJKDC","hitId":"3NI0WFPPI9246I5W92FX9A3E2GN605","url":"https://gershmanlab.com/experiments/alicia/teaching/experiment/?hitId=3NI0WFPPI9246I5W92FX9A3E2GN605&workerId=A3EA4SHCLJ1UZQ&assignmentId=3H8DHMCCWAX7Q1P9EK2VNJO2WPJKDC&a=CH8H9&tp_a=CH8H9&b=3H8DHMCCWAX7Q1P9EK2VNJO2WPJKDC&tp_b=3H8DHMCCWAX7Q1P9EK2VNJO2WPJKDC&c=365799&tp_c=365799","heads":0,"tails":8,"studentIndex":1,"studentTrueHypers":{"a":1,"b":4},"studentGuess":0.07692307692307693,"delta":0.12307692307692308,"totalExamples":8,"bonus":0,"bonusSoFar":0},{"rt":null,"stimulus":"Sending examples to student... ","response":null,"trial_type":"html-keyboard-response","trial_index":18,"time_elapsed":523773,"internal_node_id":"0.0-17.0","params":{"nStudents":24,"maxFlips":30,"completionMinutes":45,"basePay":8,"maxBonus":9,"perTrialBonus":0.5,"perTrialBonusThreshold":0.05,"exampleCost":0.01},"classroomParams":{"A":{"a":1,"b":4},"B":{"a":4,"b":1},"C":{"a":2,"b":8},"D":{"a":8,"b":2}},"conditions":["nonSeqFull","nonSeqPartial","seqNoFeedback","seqFeedback"],"classroomPairings":[["A","B"],["C","D"]],"coinWeights":[0.2,0.5,0.8],"subjectId":"A3EA4SHCLJ1UZQ","assignmentId":"3H8DHMCCWAX7Q1P9EK2VNJO2WPJKDC","hitId":"3NI0WFPPI9246I5W92FX9A3E2GN605","url":"https://gershmanlab.com/experiments/alicia/teaching/experiment/?hitId=3NI0WFPPI9246I5W92FX9A3E2GN605&workerId=A3EA4SHCLJ1UZQ&assignmentId=3H8DHMCCWAX7Q1P9EK2VNJO2WPJKDC&a=CH8H9&tp_a=CH8H9&b=3H8DHMCCWAX7Q1P9EK2VNJO2WPJKDC&tp_b=3H8DHMCCWAX7Q1P9EK2VNJO2WPJKDC&c=365799&tp_c=365799"},{"rt":null,"stimulus":"Examples sent to student! Waiting for student...","response":null,"trial_type":"html-keyboard-response","trial_index":19,"time_elapsed":528278,"internal_node_id":"0.0-18.0","params":{"nStudents":24,"maxFlips":30,"completionMinutes":45,"basePay":8,"maxBonus":9,"perTrialBonus":0.5,"perTrialBonusThreshold":0.05,"exampleCost":0.01},"classroomParams":{"A":{"a":1,"b":4},"B":{"a":4,"b":1},"C":{"a":2,"b":8},"D":{"a":8,"b":2}},"conditions":["nonSeqFull","nonSeqPartial","seqNoFeedback","seqFeedback"],"classroomPairings":[["A","B"],["C","D"]],"coinWeights":[0.2,0.5,0.8],"subjectId":"A3EA4SHCLJ1UZQ","assignmentId":"3H8DHMCCWAX7Q1P9EK2VNJO2WPJKDC","hitId":"3NI0WFPPI9246I5W92FX9A3E2GN605","url":"https://gershmanlab.com/experiments/alicia/teaching/experiment/?hitId=3NI0WFPPI9246I5W92FX9A3E2GN605&workerId=A3EA4SHCLJ1UZQ&assignmentId=3H8DHMCCWAX7Q1P9EK2VNJO2WPJKDC&a=CH8H9&tp_a=CH8H9&b=3H8DHMCCWAX7Q1P9EK2VNJO2WPJKDC&tp_b=3H8DHMCCWAX7Q1P9EK2VNJO2WPJKDC&c=365799&tp_c=365799"},{"rt":5420,"stimulus":"\n                <p>Student's guess for coin weight: <b style=\"color:Tomato;\">0.08</b></p>\n                <p>You received a bonus of <b>$0</b>. Total bonus so far: <b>$0.00</b></b></p>\n                <p></p>\n                <p>Press any key to continue.</p>\n                ","response":" ","trial_type":"html-keyboard-response","trial_index":20,"time_elapsed":533698,"internal_node_id":"0.0-19.0","params":{"nStudents":24,"maxFlips":30,"completionMinutes":45,"basePay":8,"maxBonus":9,"perTrialBonus":0.5,"perTrialBonusThreshold":0.05,"exampleCost":0.01},"classroomParams":{"A":{"a":1,"b":4},"B":{"a":4,"b":1},"C":{"a":2,"b":8},"D":{"a":8,"b":2}},"conditions":["nonSeqFull","nonSeqPartial","seqNoFeedback","seqFeedback"],"classroomPairings":[["A","B"],["C","D"]],"coinWeights":[0.2,0.5,0.8],"subjectId":"A3EA4SHCLJ1UZQ","assignmentId":"3H8DHMCCWAX7Q1P9EK2VNJO2WPJKDC","hitId":"3NI0WFPPI9246I5W92FX9A3E2GN605","url":"https://gershmanlab.com/experiments/alicia/teaching/experiment/?hitId=3NI0WFPPI9246I5W92FX9A3E2GN605&workerId=A3EA4SHCLJ1UZQ&assignmentId=3H8DHMCCWAX7Q1P9EK2VNJO2WPJKDC&a=CH8H9&tp_a=CH8H9&b=3H8DHMCCWAX7Q1P9EK2VNJO2WPJKDC&tp_b=3H8DHMCCWAX7Q1P9EK2VNJO2WPJKDC&c=365799&tp_c=365799"},{"rt":null,"stimulus":"<div style=\"font-size:60px;\">Next student</div>","response":null,"trial_type":"html-keyboard-response","trial_index":21,"time_elapsed":536202,"internal_node_id":"0.0-20.0-0.0","params":{"nStudents":24,"maxFlips":30,"completionMinutes":45,"basePay":8,"maxBonus":9,"perTrialBonus":0.5,"perTrialBonusThreshold":0.05,"exampleCost":0.01},"classroomParams":{"A":{"a":1,"b":4},"B":{"a":4,"b":1},"C":{"a":2,"b":8},"D":{"a":8,"b":2}},"conditions":["nonSeqFull","nonSeqPartial","seqNoFeedback","seqFeedback"],"classroomPairings":[["A","B"],["C","D"]],"coinWeights":[0.2,0.5,0.8],"subjectId":"A3EA4SHCLJ1UZQ","assignmentId":"3H8DHMCCWAX7Q1P9EK2VNJO2WPJKDC","hitId":"3NI0WFPPI9246I5W92FX9A3E2GN605","url":"https://gershmanlab.com/experiments/alicia/teaching/experiment/?hitId=3NI0WFPPI9246I5W92FX9A3E2GN605&workerId=A3EA4SHCLJ1UZQ&assignmentId=3H8DHMCCWAX7Q1P9EK2VNJO2WPJKDC&a=CH8H9&tp_a=CH8H9&b=3H8DHMCCWAX7Q1P9EK2VNJO2WPJKDC&tp_b=3H8DHMCCWAX7Q1P9EK2VNJO2WPJKDC&c=365799&tp_c=365799"},{"rt":4054,"stimulus":"\n            <h4 style=\"color:Orange;\">Student 3</h4>\n            <h2>The weight of your coin is <b style=\"color:Tomato;\">0.8</b>.</h2>\n            <p>In this block, you will be giving <b>one</b> set of examples to Student 3.</p>\n                <p>You will receive feedback at the end of the block.</p>\n            <p></p>","response":0,"trial_type":"html-button-response","trial_index":22,"time_elapsed":540257,"internal_node_id":"0.0-21.0","params":{"nStudents":24,"maxFlips":30,"completionMinutes":45,"basePay":8,"maxBonus":9,"perTrialBonus":0.5,"perTrialBonusThreshold":0.05,"exampleCost":0.01},"classroomParams":{"A":{"a":1,"b":4},"B":{"a":4,"b":1},"C":{"a":2,"b":8},"D":{"a":8,"b":2}},"conditions":["nonSeqFull","nonSeqPartial","seqNoFeedback","seqFeedback"],"classroomPairings":[["A","B"],["C","D"]],"coinWeights":[0.2,0.5,0.8],"subjectId":"A3EA4SHCLJ1UZQ","assignmentId":"3H8DHMCCWAX7Q1P9EK2VNJO2WPJKDC","hitId":"3NI0WFPPI9246I5W92FX9A3E2GN605","url":"https://gershmanlab.com/experiments/alicia/teaching/experiment/?hitId=3NI0WFPPI9246I5W92FX9A3E2GN605&workerId=A3EA4SHCLJ1UZQ&assignmentId=3H8DHMCCWAX7Q1P9EK2VNJO2WPJKDC&a=CH8H9&tp_a=CH8H9&b=3H8DHMCCWAX7Q1P9EK2VNJO2WPJKDC&tp_b=3H8DHMCCWAX7Q1P9EK2VNJO2WPJKDC&c=365799&tp_c=365799"},{"rt":7325,"response":{"heads":"8","tails":"0"},"type":"response","condition":"nonSeqFull","trueTheta":0.8,"classrooms":["C","D"],"studentTrueClassroom":"C","exampleSet":"first","trial_type":"survey-html-form","trial_index":23,"time_elapsed":547583,"internal_node_id":"0.0-22.0-0.0","params":{"nStudents":24,"maxFlips":30,"completionMinutes":45,"basePay":8,"maxBonus":9,"perTrialBonus":0.5,"perTrialBonusThreshold":0.05,"exampleCost":0.01},"classroomParams":{"A":{"a":1,"b":4},"B":{"a":4,"b":1},"C":{"a":2,"b":8},"D":{"a":8,"b":2}},"conditions":["nonSeqFull","nonSeqPartial","seqNoFeedback","seqFeedback"],"classroomPairings":[["A","B"],["C","D"]],"coinWeights":[0.2,0.5,0.8],"subjectId":"A3EA4SHCLJ1UZQ","assignmentId":"3H8DHMCCWAX7Q1P9EK2VNJO2WPJKDC","hitId":"3NI0WFPPI9246I5W92FX9A3E2GN605","url":"https://gershmanlab.com/experiments/alicia/teaching/experiment/?hitId=3NI0WFPPI9246I5W92FX9A3E2GN605&workerId=A3EA4SHCLJ1UZQ&assignmentId=3H8DHMCCWAX7Q1P9EK2VNJO2WPJKDC&a=CH8H9&tp_a=CH8H9&b=3H8DHMCCWAX7Q1P9EK2VNJO2WPJKDC&tp_b=3H8DHMCCWAX7Q1P9EK2VNJO2WPJKDC&c=365799&tp_c=365799","heads":8,"tails":0,"studentIndex":2,"studentTrueHypers":{"a":2,"b":8},"studentGuess":0.5555555555555556,"delta":0.24444444444444446,"totalExamples":8,"bonus":0,"bonusSoFar":0},{"rt":null,"stimulus":"Sending examples to student... ","response":null,"trial_type":"html-keyboard-response","trial_index":24,"time_elapsed":548834,"internal_node_id":"0.0-23.0","params":{"nStudents":24,"maxFlips":30,"completionMinutes":45,"basePay":8,"maxBonus":9,"perTrialBonus":0.5,"perTrialBonusThreshold":0.05,"exampleCost":0.01},"classroomParams":{"A":{"a":1,"b":4},"B":{"a":4,"b":1},"C":{"a":2,"b":8},"D":{"a":8,"b":2}},"conditions":["nonSeqFull","nonSeqPartial","seqNoFeedback","seqFeedback"],"classroomPairings":[["A","B"],["C","D"]],"coinWeights":[0.2,0.5,0.8],"subjectId":"A3EA4SHCLJ1UZQ","assignmentId":"3H8DHMCCWAX7Q1P9EK2VNJO2WPJKDC","hitId":"3NI0WFPPI9246I5W92FX9A3E2GN605","url":"https://gershmanlab.com/experiments/alicia/teaching/experiment/?hitId=3NI0WFPPI9246I5W92FX9A3E2GN605&workerId=A3EA4SHCLJ1UZQ&assignmentId=3H8DHMCCWAX7Q1P9EK2VNJO2WPJKDC&a=CH8H9&tp_a=CH8H9&b=3H8DHMCCWAX7Q1P9EK2VNJO2WPJKDC&tp_b=3H8DHMCCWAX7Q1P9EK2VNJO2WPJKDC&c=365799&tp_c=365799"},{"rt":null,"stimulus":"Examples sent to student! Waiting for student...","response":null,"trial_type":"html-keyboard-response","trial_index":25,"time_elapsed":553835,"internal_node_id":"0.0-24.0","params":{"nStudents":24,"maxFlips":30,"completionMinutes":45,"basePay":8,"maxBonus":9,"perTrialBonus":0.5,"perTrialBonusThreshold":0.05,"exampleCost":0.01},"classroomParams":{"A":{"a":1,"b":4},"B":{"a":4,"b":1},"C":{"a":2,"b":8},"D":{"a":8,"b":2}},"conditions":["nonSeqFull","nonSeqPartial","seqNoFeedback","seqFeedback"],"classroomPairings":[["A","B"],["C","D"]],"coinWeights":[0.2,0.5,0.8],"subjectId":"A3EA4SHCLJ1UZQ","assignmentId":"3H8DHMCCWAX7Q1P9EK2VNJO2WPJKDC","hitId":"3NI0WFPPI9246I5W92FX9A3E2GN605","url":"https://gershmanlab.com/experiments/alicia/teaching/experiment/?hitId=3NI0WFPPI9246I5W92FX9A3E2GN605&workerId=A3EA4SHCLJ1UZQ&assignmentId=3H8DHMCCWAX7Q1P9EK2VNJO2WPJKDC&a=CH8H9&tp_a=CH8H9&b=3H8DHMCCWAX7Q1P9EK2VNJO2WPJKDC&tp_b=3H8DHMCCWAX7Q1P9EK2VNJO2WPJKDC&c=365799&tp_c=365799"},{"rt":5469,"stimulus":"\n                <p>Student's guess for coin weight: <b style=\"color:Tomato;\">0.56</b></p>\n                <p>You received a bonus of <b>$0</b>. Total bonus so far: <b>$0.00</b></b></p>\n                <p></p>\n                <p>Press any key to continue.</p>\n                ","response":" ","trial_type":"html-keyboard-response","trial_index":26,"time_elapsed":559305,"internal_node_id":"0.0-25.0","params":{"nStudents":24,"maxFlips":30,"completionMinutes":45,"basePay":8,"maxBonus":9,"perTrialBonus":0.5,"perTrialBonusThreshold":0.05,"exampleCost":0.01},"classroomParams":{"A":{"a":1,"b":4},"B":{"a":4,"b":1},"C":{"a":2,"b":8},"D":{"a":8,"b":2}},"conditions":["nonSeqFull","nonSeqPartial","seqNoFeedback","seqFeedback"],"classroomPairings":[["A","B"],["C","D"]],"coinWeights":[0.2,0.5,0.8],"subjectId":"A3EA4SHCLJ1UZQ","assignmentId":"3H8DHMCCWAX7Q1P9EK2VNJO2WPJKDC","hitId":"3NI0WFPPI9246I5W92FX9A3E2GN605","url":"https://gershmanlab.com/experiments/alicia/teaching/experiment/?hitId=3NI0WFPPI9246I5W92FX9A3E2GN605&workerId=A3EA4SHCLJ1UZQ&assignmentId=3H8DHMCCWAX7Q1P9EK2VNJO2WPJKDC&a=CH8H9&tp_a=CH8H9&b=3H8DHMCCWAX7Q1P9EK2VNJO2WPJKDC&tp_b=3H8DHMCCWAX7Q1P9EK2VNJO2WPJKDC&c=365799&tp_c=365799"},{"rt":null,"stimulus":"<div style=\"font-size:60px;\">Next student</div>","response":null,"trial_type":"html-keyboard-response","trial_index":27,"time_elapsed":561561,"internal_node_id":"0.0-26.0-0.0","params":{"nStudents":24,"maxFlips":30,"completionMinutes":45,"basePay":8,"maxBonus":9,"perTrialBonus":0.5,"perTrialBonusThreshold":0.05,"exampleCost":0.01},"classroomParams":{"A":{"a":1,"b":4},"B":{"a":4,"b":1},"C":{"a":2,"b":8},"D":{"a":8,"b":2}},"conditions":["nonSeqFull","nonSeqPartial","seqNoFeedback","seqFeedback"],"classroomPairings":[["A","B"],["C","D"]],"coinWeights":[0.2,0.5,0.8],"subjectId":"A3EA4SHCLJ1UZQ","assignmentId":"3H8DHMCCWAX7Q1P9EK2VNJO2WPJKDC","hitId":"3NI0WFPPI9246I5W92FX9A3E2GN605","url":"https://gershmanlab.com/experiments/alicia/teaching/experiment/?hitId=3NI0WFPPI9246I5W92FX9A3E2GN605&workerId=A3EA4SHCLJ1UZQ&assignmentId=3H8DHMCCWAX7Q1P9EK2VNJO2WPJKDC&a=CH8H9&tp_a=CH8H9&b=3H8DHMCCWAX7Q1P9EK2VNJO2WPJKDC&tp_b=3H8DHMCCWAX7Q1P9EK2VNJO2WPJKDC&c=365799&tp_c=365799"},{"rt":5024,"stimulus":"\n            <h4 style=\"color:Orange;\">Student 4</h4>\n            <h2>The weight of your coin is <b style=\"color:Tomato;\">0.8</b>.</h2>\n            <p>In this block, you will be giving <b>two</b> sets of examples to Student 4.</p>\n                <p>You will receive feedback at the end of the block.</p>\n            <p></p>","response":0,"trial_type":"html-button-response","trial_index":28,"time_elapsed":566586,"internal_node_id":"0.0-27.0","params":{"nStudents":24,"maxFlips":30,"completionMinutes":45,"basePay":8,"maxBonus":9,"perTrialBonus":0.5,"perTrialBonusThreshold":0.05,"exampleCost":0.01},"classroomParams":{"A":{"a":1,"b":4},"B":{"a":4,"b":1},"C":{"a":2,"b":8},"D":{"a":8,"b":2}},"conditions":["nonSeqFull","nonSeqPartial","seqNoFeedback","seqFeedback"],"classroomPairings":[["A","B"],["C","D"]],"coinWeights":[0.2,0.5,0.8],"subjectId":"A3EA4SHCLJ1UZQ","assignmentId":"3H8DHMCCWAX7Q1P9EK2VNJO2WPJKDC","hitId":"3NI0WFPPI9246I5W92FX9A3E2GN605","url":"https://gershmanlab.com/experiments/alicia/teaching/experiment/?hitId=3NI0WFPPI9246I5W92FX9A3E2GN605&workerId=A3EA4SHCLJ1UZQ&assignmentId=3H8DHMCCWAX7Q1P9EK2VNJO2WPJKDC&a=CH8H9&tp_a=CH8H9&b=3H8DHMCCWAX7Q1P9EK2VNJO2WPJKDC&tp_b=3H8DHMCCWAX7Q1P9EK2VNJO2WPJKDC&c=365799&tp_c=365799"},{"rt":10234,"response":{"heads":"8","tails":"0"},"type":"response","condition":"seqNoFeedback","trueTheta":0.8,"classrooms":["A","B"],"studentTrueClassroom":"B","exampleSet":"first","trial_type":"survey-html-form","trial_index":29,"time_elapsed":576821,"internal_node_id":"0.0-28.0-0.0","params":{"nStudents":24,"maxFlips":30,"completionMinutes":45,"basePay":8,"maxBonus":9,"perTrialBonus":0.5,"perTrialBonusThreshold":0.05,"exampleCost":0.01},"classroomParams":{"A":{"a":1,"b":4},"B":{"a":4,"b":1},"C":{"a":2,"b":8},"D":{"a":8,"b":2}},"conditions":["nonSeqFull","nonSeqPartial","seqNoFeedback","seqFeedback"],"classroomPairings":[["A","B"],["C","D"]],"coinWeights":[0.2,0.5,0.8],"subjectId":"A3EA4SHCLJ1UZQ","assignmentId":"3H8DHMCCWAX7Q1P9EK2VNJO2WPJKDC","hitId":"3NI0WFPPI9246I5W92FX9A3E2GN605","url":"https://gershmanlab.com/experiments/alicia/teaching/experiment/?hitId=3NI0WFPPI9246I5W92FX9A3E2GN605&workerId=A3EA4SHCLJ1UZQ&assignmentId=3H8DHMCCWAX7Q1P9EK2VNJO2WPJKDC&a=CH8H9&tp_a=CH8H9&b=3H8DHMCCWAX7Q1P9EK2VNJO2WPJKDC&tp_b=3H8DHMCCWAX7Q1P9EK2VNJO2WPJKDC&c=365799&tp_c=365799","heads":8,"tails":0,"studentIndex":3,"studentTrueHypers":{"a":4,"b":1},"studentGuess":0.9230769230769231,"delta":0.12307692307692308,"totalExamples":8,"bonusSoFar":0},{"rt":null,"stimulus":"Sending examples to student... ","response":null,"trial_type":"html-keyboard-response","trial_index":30,"time_elapsed":578325,"internal_node_id":"0.0-29.0","params":{"nStudents":24,"maxFlips":30,"completionMinutes":45,"basePay":8,"maxBonus":9,"perTrialBonus":0.5,"perTrialBonusThreshold":0.05,"exampleCost":0.01},"classroomParams":{"A":{"a":1,"b":4},"B":{"a":4,"b":1},"C":{"a":2,"b":8},"D":{"a":8,"b":2}},"conditions":["nonSeqFull","nonSeqPartial","seqNoFeedback","seqFeedback"],"classroomPairings":[["A","B"],["C","D"]],"coinWeights":[0.2,0.5,0.8],"subjectId":"A3EA4SHCLJ1UZQ","assignmentId":"3H8DHMCCWAX7Q1P9EK2VNJO2WPJKDC","hitId":"3NI0WFPPI9246I5W92FX9A3E2GN605","url":"https://gershmanlab.com/experiments/alicia/teaching/experiment/?hitId=3NI0WFPPI9246I5W92FX9A3E2GN605&workerId=A3EA4SHCLJ1UZQ&assignmentId=3H8DHMCCWAX7Q1P9EK2VNJO2WPJKDC&a=CH8H9&tp_a=CH8H9&b=3H8DHMCCWAX7Q1P9EK2VNJO2WPJKDC&tp_b=3H8DHMCCWAX7Q1P9EK2VNJO2WPJKDC&c=365799&tp_c=365799"},{"rt":null,"stimulus":"Examples sent to student! Waiting for student...","response":null,"trial_type":"html-keyboard-response","trial_index":31,"time_elapsed":583329,"internal_node_id":"0.0-30.0","params":{"nStudents":24,"maxFlips":30,"completionMinutes":45,"basePay":8,"maxBonus":9,"perTrialBonus":0.5,"perTrialBonusThreshold":0.05,"exampleCost":0.01},"classroomParams":{"A":{"a":1,"b":4},"B":{"a":4,"b":1},"C":{"a":2,"b":8},"D":{"a":8,"b":2}},"conditions":["nonSeqFull","nonSeqPartial","seqNoFeedback","seqFeedback"],"classroomPairings":[["A","B"],["C","D"]],"coinWeights":[0.2,0.5,0.8],"subjectId":"A3EA4SHCLJ1UZQ","assignmentId":"3H8DHMCCWAX7Q1P9EK2VNJO2WPJKDC","hitId":"3NI0WFPPI9246I5W92FX9A3E2GN605","url":"https://gershmanlab.com/experiments/alicia/teaching/experiment/?hitId=3NI0WFPPI9246I5W92FX9A3E2GN605&workerId=A3EA4SHCLJ1UZQ&assignmentId=3H8DHMCCWAX7Q1P9EK2VNJO2WPJKDC&a=CH8H9&tp_a=CH8H9&b=3H8DHMCCWAX7Q1P9EK2VNJO2WPJKDC&tp_b=3H8DHMCCWAX7Q1P9EK2VNJO2WPJKDC&c=365799&tp_c=365799"},{"rt":6841,"response":{"heads":"8","tails":"0"},"type":"response","condition":"seqNoFeedback","trueTheta":0.8,"classrooms":["A","B"],"studentTrueClassroom":"B","exampleSet":"second","trial_type":"survey-html-form","trial_index":32,"time_elapsed":590171,"internal_node_id":"0.0-31.0-0.0","params":{"nStudents":24,"maxFlips":30,"completionMinutes":45,"basePay":8,"maxBonus":9,"perTrialBonus":0.5,"perTrialBonusThreshold":0.05,"exampleCost":0.01},"classroomParams":{"A":{"a":1,"b":4},"B":{"a":4,"b":1},"C":{"a":2,"b":8},"D":{"a":8,"b":2}},"conditions":["nonSeqFull","nonSeqPartial","seqNoFeedback","seqFeedback"],"classroomPairings":[["A","B"],["C","D"]],"coinWeights":[0.2,0.5,0.8],"subjectId":"A3EA4SHCLJ1UZQ","assignmentId":"3H8DHMCCWAX7Q1P9EK2VNJO2WPJKDC","hitId":"3NI0WFPPI9246I5W92FX9A3E2GN605","url":"https://gershmanlab.com/experiments/alicia/teaching/experiment/?hitId=3NI0WFPPI9246I5W92FX9A3E2GN605&workerId=A3EA4SHCLJ1UZQ&assignmentId=3H8DHMCCWAX7Q1P9EK2VNJO2WPJKDC&a=CH8H9&tp_a=CH8H9&b=3H8DHMCCWAX7Q1P9EK2VNJO2WPJKDC&tp_b=3H8DHMCCWAX7Q1P9EK2VNJO2WPJKDC&c=365799&tp_c=365799","firstResponseHeads":8,"firstResponseTails":0,"secondResponseHeads":8,"secondResponseTails":0,"totalHeads":16,"totalTails":0,"studentIndex":3,"studentTrueHypers":{"a":4,"b":1},"studentGuess":0.9523809523809523,"delta":0.15238095238095228,"bonus":0,"bonusSoFar":0,"totalExamples":16},{"rt":null,"stimulus":"Sending examples to student... ","response":null,"trial_type":"html-keyboard-response","trial_index":33,"time_elapsed":592174,"internal_node_id":"0.0-32.0","params":{"nStudents":24,"maxFlips":30,"completionMinutes":45,"basePay":8,"maxBonus":9,"perTrialBonus":0.5,"perTrialBonusThreshold":0.05,"exampleCost":0.01},"classroomParams":{"A":{"a":1,"b":4},"B":{"a":4,"b":1},"C":{"a":2,"b":8},"D":{"a":8,"b":2}},"conditions":["nonSeqFull","nonSeqPartial","seqNoFeedback","seqFeedback"],"classroomPairings":[["A","B"],["C","D"]],"coinWeights":[0.2,0.5,0.8],"subjectId":"A3EA4SHCLJ1UZQ","assignmentId":"3H8DHMCCWAX7Q1P9EK2VNJO2WPJKDC","hitId":"3NI0WFPPI9246I5W92FX9A3E2GN605","url":"https://gershmanlab.com/experiments/alicia/teaching/experiment/?hitId=3NI0WFPPI9246I5W92FX9A3E2GN605&workerId=A3EA4SHCLJ1UZQ&assignmentId=3H8DHMCCWAX7Q1P9EK2VNJO2WPJKDC&a=CH8H9&tp_a=CH8H9&b=3H8DHMCCWAX7Q1P9EK2VNJO2WPJKDC&tp_b=3H8DHMCCWAX7Q1P9EK2VNJO2WPJKDC&c=365799&tp_c=365799"},{"rt":null,"stimulus":"Examples sent to student! Waiting for student...","response":null,"trial_type":"html-keyboard-response","trial_index":34,"time_elapsed":596180,"internal_node_id":"0.0-33.0","params":{"nStudents":24,"maxFlips":30,"completionMinutes":45,"basePay":8,"maxBonus":9,"perTrialBonus":0.5,"perTrialBonusThreshold":0.05,"exampleCost":0.01},"classroomParams":{"A":{"a":1,"b":4},"B":{"a":4,"b":1},"C":{"a":2,"b":8},"D":{"a":8,"b":2}},"conditions":["nonSeqFull","nonSeqPartial","seqNoFeedback","seqFeedback"],"classroomPairings":[["A","B"],["C","D"]],"coinWeights":[0.2,0.5,0.8],"subjectId":"A3EA4SHCLJ1UZQ","assignmentId":"3H8DHMCCWAX7Q1P9EK2VNJO2WPJKDC","hitId":"3NI0WFPPI9246I5W92FX9A3E2GN605","url":"https://gershmanlab.com/experiments/alicia/teaching/experiment/?hitId=3NI0WFPPI9246I5W92FX9A3E2GN605&workerId=A3EA4SHCLJ1UZQ&assignmentId=3H8DHMCCWAX7Q1P9EK2VNJO2WPJKDC&a=CH8H9&tp_a=CH8H9&b=3H8DHMCCWAX7Q1P9EK2VNJO2WPJKDC&tp_b=3H8DHMCCWAX7Q1P9EK2VNJO2WPJKDC&c=365799&tp_c=365799"},{"rt":4907,"stimulus":"\n                <p>Student 4's first guess for coin weight: <b style=\"color:Tomato\";>0.92</b></p>\n                <p>Student 4's second guess for coin weight: <b style=\"color:Tomato\";>0.95</b></p>\n                <p>You received a bonus of <b>$0.00</b> based on the student's second guess.</p>\n                <p>Total bonus so far: <b>$0.00</b></p>\n                <p>Press any key to continue.</p>\n                ","response":" ","trial_type":"html-keyboard-response","trial_index":35,"time_elapsed":601088,"internal_node_id":"0.0-34.0","params":{"nStudents":24,"maxFlips":30,"completionMinutes":45,"basePay":8,"maxBonus":9,"perTrialBonus":0.5,"perTrialBonusThreshold":0.05,"exampleCost":0.01},"classroomParams":{"A":{"a":1,"b":4},"B":{"a":4,"b":1},"C":{"a":2,"b":8},"D":{"a":8,"b":2}},"conditions":["nonSeqFull","nonSeqPartial","seqNoFeedback","seqFeedback"],"classroomPairings":[["A","B"],["C","D"]],"coinWeights":[0.2,0.5,0.8],"subjectId":"A3EA4SHCLJ1UZQ","assignmentId":"3H8DHMCCWAX7Q1P9EK2VNJO2WPJKDC","hitId":"3NI0WFPPI9246I5W92FX9A3E2GN605","url":"https://gershmanlab.com/experiments/alicia/teaching/experiment/?hitId=3NI0WFPPI9246I5W92FX9A3E2GN605&workerId=A3EA4SHCLJ1UZQ&assignmentId=3H8DHMCCWAX7Q1P9EK2VNJO2WPJKDC&a=CH8H9&tp_a=CH8H9&b=3H8DHMCCWAX7Q1P9EK2VNJO2WPJKDC&tp_b=3H8DHMCCWAX7Q1P9EK2VNJO2WPJKDC&c=365799&tp_c=365799"},{"rt":null,"stimulus":"<div style=\"font-size:60px;\">Next student</div>","response":null,"trial_type":"html-keyboard-response","trial_index":36,"time_elapsed":603092,"internal_node_id":"0.0-35.0-0.0","params":{"nStudents":24,"maxFlips":30,"completionMinutes":45,"basePay":8,"maxBonus":9,"perTrialBonus":0.5,"perTrialBonusThreshold":0.05,"exampleCost":0.01},"classroomParams":{"A":{"a":1,"b":4},"B":{"a":4,"b":1},"C":{"a":2,"b":8},"D":{"a":8,"b":2}},"conditions":["nonSeqFull","nonSeqPartial","seqNoFeedback","seqFeedback"],"classroomPairings":[["A","B"],["C","D"]],"coinWeights":[0.2,0.5,0.8],"subjectId":"A3EA4SHCLJ1UZQ","assignmentId":"3H8DHMCCWAX7Q1P9EK2VNJO2WPJKDC","hitId":"3NI0WFPPI9246I5W92FX9A3E2GN605","url":"https://gershmanlab.com/experiments/alicia/teaching/experiment/?hitId=3NI0WFPPI9246I5W92FX9A3E2GN605&workerId=A3EA4SHCLJ1UZQ&assignmentId=3H8DHMCCWAX7Q1P9EK2VNJO2WPJKDC&a=CH8H9&tp_a=CH8H9&b=3H8DHMCCWAX7Q1P9EK2VNJO2WPJKDC&tp_b=3H8DHMCCWAX7Q1P9EK2VNJO2WPJKDC&c=365799&tp_c=365799"},{"rt":3184,"stimulus":"\n            <h4 style=\"color:Orange;\">Student 5</h4>\n            <h2>The weight of your coin is <b style=\"color:Tomato;\">0.5</b>.</h2>\n            <p>In this block, you will be giving <b>one</b> set of examples to Student 5.</p>\n                <p>You will receive feedback at the end of the block.</p>\n            <p></p>","response":0,"trial_type":"html-button-response","trial_index":37,"time_elapsed":606278,"internal_node_id":"0.0-36.0","params":{"nStudents":24,"maxFlips":30,"completionMinutes":45,"basePay":8,"maxBonus":9,"perTrialBonus":0.5,"perTrialBonusThreshold":0.05,"exampleCost":0.01},"classroomParams":{"A":{"a":1,"b":4},"B":{"a":4,"b":1},"C":{"a":2,"b":8},"D":{"a":8,"b":2}},"conditions":["nonSeqFull","nonSeqPartial","seqNoFeedback","seqFeedback"],"classroomPairings":[["A","B"],["C","D"]],"coinWeights":[0.2,0.5,0.8],"subjectId":"A3EA4SHCLJ1UZQ","assignmentId":"3H8DHMCCWAX7Q1P9EK2VNJO2WPJKDC","hitId":"3NI0WFPPI9246I5W92FX9A3E2GN605","url":"https://gershmanlab.com/experiments/alicia/teaching/experiment/?hitId=3NI0WFPPI9246I5W92FX9A3E2GN605&workerId=A3EA4SHCLJ1UZQ&assignmentId=3H8DHMCCWAX7Q1P9EK2VNJO2WPJKDC&a=CH8H9&tp_a=CH8H9&b=3H8DHMCCWAX7Q1P9EK2VNJO2WPJKDC&tp_b=3H8DHMCCWAX7Q1P9EK2VNJO2WPJKDC&c=365799&tp_c=365799"},{"rt":8050,"response":{"heads":"15","tails":"15"},"type":"response","condition":"nonSeqFull","trueTheta":0.5,"classrooms":["C","D"],"studentTrueClassroom":"C","exampleSet":"first","trial_type":"survey-html-form","trial_index":38,"time_elapsed":614328,"internal_node_id":"0.0-37.0-0.0","params":{"nStudents":24,"maxFlips":30,"completionMinutes":45,"basePay":8,"maxBonus":9,"perTrialBonus":0.5,"perTrialBonusThreshold":0.05,"exampleCost":0.01},"classroomParams":{"A":{"a":1,"b":4},"B":{"a":4,"b":1},"C":{"a":2,"b":8},"D":{"a":8,"b":2}},"conditions":["nonSeqFull","nonSeqPartial","seqNoFeedback","seqFeedback"],"classroomPairings":[["A","B"],["C","D"]],"coinWeights":[0.2,0.5,0.8],"subjectId":"A3EA4SHCLJ1UZQ","assignmentId":"3H8DHMCCWAX7Q1P9EK2VNJO2WPJKDC","hitId":"3NI0WFPPI9246I5W92FX9A3E2GN605","url":"https://gershmanlab.com/experiments/alicia/teaching/experiment/?hitId=3NI0WFPPI9246I5W92FX9A3E2GN605&workerId=A3EA4SHCLJ1UZQ&assignmentId=3H8DHMCCWAX7Q1P9EK2VNJO2WPJKDC&a=CH8H9&tp_a=CH8H9&b=3H8DHMCCWAX7Q1P9EK2VNJO2WPJKDC&tp_b=3H8DHMCCWAX7Q1P9EK2VNJO2WPJKDC&c=365799&tp_c=365799","heads":15,"tails":15,"studentIndex":4,"studentTrueHypers":{"a":2,"b":8},"studentGuess":0.425,"delta":0.07500000000000001,"totalExamples":30,"bonus":0,"bonusSoFar":0},{"rt":null,"stimulus":"Sending examples to student... ","response":null,"trial_type":"html-keyboard-response","trial_index":39,"time_elapsed":616334,"internal_node_id":"0.0-38.0","params":{"nStudents":24,"maxFlips":30,"completionMinutes":45,"basePay":8,"maxBonus":9,"perTrialBonus":0.5,"perTrialBonusThreshold":0.05,"exampleCost":0.01},"classroomParams":{"A":{"a":1,"b":4},"B":{"a":4,"b":1},"C":{"a":2,"b":8},"D":{"a":8,"b":2}},"conditions":["nonSeqFull","nonSeqPartial","seqNoFeedback","seqFeedback"],"classroomPairings":[["A","B"],["C","D"]],"coinWeights":[0.2,0.5,0.8],"subjectId":"A3EA4SHCLJ1UZQ","assignmentId":"3H8DHMCCWAX7Q1P9EK2VNJO2WPJKDC","hitId":"3NI0WFPPI9246I5W92FX9A3E2GN605","url":"https://gershmanlab.com/experiments/alicia/teaching/experiment/?hitId=3NI0WFPPI9246I5W92FX9A3E2GN605&workerId=A3EA4SHCLJ1UZQ&assignmentId=3H8DHMCCWAX7Q1P9EK2VNJO2WPJKDC&a=CH8H9&tp_a=CH8H9&b=3H8DHMCCWAX7Q1P9EK2VNJO2WPJKDC&tp_b=3H8DHMCCWAX7Q1P9EK2VNJO2WPJKDC&c=365799&tp_c=365799"},{"rt":null,"stimulus":"Examples sent to student! Waiting for student...","response":null,"trial_type":"html-keyboard-response","trial_index":40,"time_elapsed":620337,"internal_node_id":"0.0-39.0","params":{"nStudents":24,"maxFlips":30,"completionMinutes":45,"basePay":8,"maxBonus":9,"perTrialBonus":0.5,"perTrialBonusThreshold":0.05,"exampleCost":0.01},"classroomParams":{"A":{"a":1,"b":4},"B":{"a":4,"b":1},"C":{"a":2,"b":8},"D":{"a":8,"b":2}},"conditions":["nonSeqFull","nonSeqPartial","seqNoFeedback","seqFeedback"],"classroomPairings":[["A","B"],["C","D"]],"coinWeights":[0.2,0.5,0.8],"subjectId":"A3EA4SHCLJ1UZQ","assignmentId":"3H8DHMCCWAX7Q1P9EK2VNJO2WPJKDC","hitId":"3NI0WFPPI9246I5W92FX9A3E2GN605","url":"https://gershmanlab.com/experiments/alicia/teaching/experiment/?hitId=3NI0WFPPI9246I5W92FX9A3E2GN605&workerId=A3EA4SHCLJ1UZQ&assignmentId=3H8DHMCCWAX7Q1P9EK2VNJO2WPJKDC&a=CH8H9&tp_a=CH8H9&b=3H8DHMCCWAX7Q1P9EK2VNJO2WPJKDC&tp_b=3H8DHMCCWAX7Q1P9EK2VNJO2WPJKDC&c=365799&tp_c=365799"},{"rt":4173,"stimulus":"\n                <p>Student's guess for coin weight: <b style=\"color:Tomato;\">0.42</b></p>\n                <p>You received a bonus of <b>$0</b>. Total bonus so far: <b>$0.00</b></b></p>\n                <p></p>\n                <p>Press any key to continue.</p>\n                ","response":" ","trial_type":"html-keyboard-response","trial_index":41,"time_elapsed":624511,"internal_node_id":"0.0-40.0","params":{"nStudents":24,"maxFlips":30,"completionMinutes":45,"basePay":8,"maxBonus":9,"perTrialBonus":0.5,"perTrialBonusThreshold":0.05,"exampleCost":0.01},"classroomParams":{"A":{"a":1,"b":4},"B":{"a":4,"b":1},"C":{"a":2,"b":8},"D":{"a":8,"b":2}},"conditions":["nonSeqFull","nonSeqPartial","seqNoFeedback","seqFeedback"],"classroomPairings":[["A","B"],["C","D"]],"coinWeights":[0.2,0.5,0.8],"subjectId":"A3EA4SHCLJ1UZQ","assignmentId":"3H8DHMCCWAX7Q1P9EK2VNJO2WPJKDC","hitId":"3NI0WFPPI9246I5W92FX9A3E2GN605","url":"https://gershmanlab.com/experiments/alicia/teaching/experiment/?hitId=3NI0WFPPI9246I5W92FX9A3E2GN605&workerId=A3EA4SHCLJ1UZQ&assignmentId=3H8DHMCCWAX7Q1P9EK2VNJO2WPJKDC&a=CH8H9&tp_a=CH8H9&b=3H8DHMCCWAX7Q1P9EK2VNJO2WPJKDC&tp_b=3H8DHMCCWAX7Q1P9EK2VNJO2WPJKDC&c=365799&tp_c=365799"},{"rt":null,"stimulus":"<div style=\"font-size:60px;\">Next student</div>","response":null,"trial_type":"html-keyboard-response","trial_index":42,"time_elapsed":627515,"internal_node_id":"0.0-41.0-0.0","params":{"nStudents":24,"maxFlips":30,"completionMinutes":45,"basePay":8,"maxBonus":9,"perTrialBonus":0.5,"perTrialBonusThreshold":0.05,"exampleCost":0.01},"classroomParams":{"A":{"a":1,"b":4},"B":{"a":4,"b":1},"C":{"a":2,"b":8},"D":{"a":8,"b":2}},"conditions":["nonSeqFull","nonSeqPartial","seqNoFeedback","seqFeedback"],"classroomPairings":[["A","B"],["C","D"]],"coinWeights":[0.2,0.5,0.8],"subjectId":"A3EA4SHCLJ1UZQ","assignmentId":"3H8DHMCCWAX7Q1P9EK2VNJO2WPJKDC","hitId":"3NI0WFPPI9246I5W92FX9A3E2GN605","url":"https://gershmanlab.com/experiments/alicia/teaching/experiment/?hitId=3NI0WFPPI9246I5W92FX9A3E2GN605&workerId=A3EA4SHCLJ1UZQ&assignmentId=3H8DHMCCWAX7Q1P9EK2VNJO2WPJKDC&a=CH8H9&tp_a=CH8H9&b=3H8DHMCCWAX7Q1P9EK2VNJO2WPJKDC&tp_b=3H8DHMCCWAX7Q1P9EK2VNJO2WPJKDC&c=365799&tp_c=365799"},{"rt":44111,"stimulus":"\n            <h4 style=\"color:Orange;\">Student 6</h4>\n            <h2>The weight of your coin is <b style=\"color:Tomato;\">0.8</b>.</h2>\n            <p>In this block, you will be giving <b>two</b> sets of examples to Student 6.</p>\n                <p>You will receive feedback at the end of the block.</p>\n            <p></p>","response":0,"trial_type":"html-button-response","trial_index":43,"time_elapsed":671625,"internal_node_id":"0.0-42.0","params":{"nStudents":24,"maxFlips":30,"completionMinutes":45,"basePay":8,"maxBonus":9,"perTrialBonus":0.5,"perTrialBonusThreshold":0.05,"exampleCost":0.01},"classroomParams":{"A":{"a":1,"b":4},"B":{"a":4,"b":1},"C":{"a":2,"b":8},"D":{"a":8,"b":2}},"conditions":["nonSeqFull","nonSeqPartial","seqNoFeedback","seqFeedback"],"classroomPairings":[["A","B"],["C","D"]],"coinWeights":[0.2,0.5,0.8],"subjectId":"A3EA4SHCLJ1UZQ","assignmentId":"3H8DHMCCWAX7Q1P9EK2VNJO2WPJKDC","hitId":"3NI0WFPPI9246I5W92FX9A3E2GN605","url":"https://gershmanlab.com/experiments/alicia/teaching/experiment/?hitId=3NI0WFPPI9246I5W92FX9A3E2GN605&workerId=A3EA4SHCLJ1UZQ&assignmentId=3H8DHMCCWAX7Q1P9EK2VNJO2WPJKDC&a=CH8H9&tp_a=CH8H9&b=3H8DHMCCWAX7Q1P9EK2VNJO2WPJKDC&tp_b=3H8DHMCCWAX7Q1P9EK2VNJO2WPJKDC&c=365799&tp_c=365799"},{"rt":17199,"response":{"heads":"2","tails":"8"},"type":"response","condition":"seqNoFeedback","trueTheta":0.8,"classrooms":["C","D"],"studentTrueClassroom":"D","exampleSet":"first","trial_type":"survey-html-form","trial_index":44,"time_elapsed":688825,"internal_node_id":"0.0-43.0-0.0","params":{"nStudents":24,"maxFlips":30,"completionMinutes":45,"basePay":8,"maxBonus":9,"perTrialBonus":0.5,"perTrialBonusThreshold":0.05,"exampleCost":0.01},"classroomParams":{"A":{"a":1,"b":4},"B":{"a":4,"b":1},"C":{"a":2,"b":8},"D":{"a":8,"b":2}},"conditions":["nonSeqFull","nonSeqPartial","seqNoFeedback","seqFeedback"],"classroomPairings":[["A","B"],["C","D"]],"coinWeights":[0.2,0.5,0.8],"subjectId":"A3EA4SHCLJ1UZQ","assignmentId":"3H8DHMCCWAX7Q1P9EK2VNJO2WPJKDC","hitId":"3NI0WFPPI9246I5W92FX9A3E2GN605","url":"https://gershmanlab.com/experiments/alicia/teaching/experiment/?hitId=3NI0WFPPI9246I5W92FX9A3E2GN605&workerId=A3EA4SHCLJ1UZQ&assignmentId=3H8DHMCCWAX7Q1P9EK2VNJO2WPJKDC&a=CH8H9&tp_a=CH8H9&b=3H8DHMCCWAX7Q1P9EK2VNJO2WPJKDC&tp_b=3H8DHMCCWAX7Q1P9EK2VNJO2WPJKDC&c=365799&tp_c=365799","heads":2,"tails":8,"studentIndex":5,"studentTrueHypers":{"a":8,"b":2},"studentGuess":0.5,"delta":0.30000000000000004,"totalExamples":10,"bonusSoFar":0},{"rt":null,"stimulus":"Sending examples to student... ","response":null,"trial_type":"html-keyboard-response","trial_index":45,"time_elapsed":690828,"internal_node_id":"0.0-44.0","params":{"nStudents":24,"maxFlips":30,"completionMinutes":45,"basePay":8,"maxBonus":9,"perTrialBonus":0.5,"perTrialBonusThreshold":0.05,"exampleCost":0.01},"classroomParams":{"A":{"a":1,"b":4},"B":{"a":4,"b":1},"C":{"a":2,"b":8},"D":{"a":8,"b":2}},"conditions":["nonSeqFull","nonSeqPartial","seqNoFeedback","seqFeedback"],"classroomPairings":[["A","B"],["C","D"]],"coinWeights":[0.2,0.5,0.8],"subjectId":"A3EA4SHCLJ1UZQ","assignmentId":"3H8DHMCCWAX7Q1P9EK2VNJO2WPJKDC","hitId":"3NI0WFPPI9246I5W92FX9A3E2GN605","url":"https://gershmanlab.com/experiments/alicia/teaching/experiment/?hitId=3NI0WFPPI9246I5W92FX9A3E2GN605&workerId=A3EA4SHCLJ1UZQ&assignmentId=3H8DHMCCWAX7Q1P9EK2VNJO2WPJKDC&a=CH8H9&tp_a=CH8H9&b=3H8DHMCCWAX7Q1P9EK2VNJO2WPJKDC&tp_b=3H8DHMCCWAX7Q1P9EK2VNJO2WPJKDC&c=365799&tp_c=365799"},{"rt":null,"stimulus":"Examples sent to student! Waiting for student...","response":null,"trial_type":"html-keyboard-response","trial_index":46,"time_elapsed":696830,"internal_node_id":"0.0-45.0","params":{"nStudents":24,"maxFlips":30,"completionMinutes":45,"basePay":8,"maxBonus":9,"perTrialBonus":0.5,"perTrialBonusThreshold":0.05,"exampleCost":0.01},"classroomParams":{"A":{"a":1,"b":4},"B":{"a":4,"b":1},"C":{"a":2,"b":8},"D":{"a":8,"b":2}},"conditions":["nonSeqFull","nonSeqPartial","seqNoFeedback","seqFeedback"],"classroomPairings":[["A","B"],["C","D"]],"coinWeights":[0.2,0.5,0.8],"subjectId":"A3EA4SHCLJ1UZQ","assignmentId":"3H8DHMCCWAX7Q1P9EK2VNJO2WPJKDC","hitId":"3NI0WFPPI9246I5W92FX9A3E2GN605","url":"https://gershmanlab.com/experiments/alicia/teaching/experiment/?hitId=3NI0WFPPI9246I5W92FX9A3E2GN605&workerId=A3EA4SHCLJ1UZQ&assignmentId=3H8DHMCCWAX7Q1P9EK2VNJO2WPJKDC&a=CH8H9&tp_a=CH8H9&b=3H8DHMCCWAX7Q1P9EK2VNJO2WPJKDC&tp_b=3H8DHMCCWAX7Q1P9EK2VNJO2WPJKDC&c=365799&tp_c=365799"},{"rt":11446,"response":{"heads":"8","tails":"2"},"type":"response","condition":"seqNoFeedback","trueTheta":0.8,"classrooms":["C","D"],"studentTrueClassroom":"D","exampleSet":"second","trial_type":"survey-html-form","trial_index":47,"time_elapsed":708277,"internal_node_id":"0.0-46.0-0.0","params":{"nStudents":24,"maxFlips":30,"completionMinutes":45,"basePay":8,"maxBonus":9,"perTrialBonus":0.5,"perTrialBonusThreshold":0.05,"exampleCost":0.01},"classroomParams":{"A":{"a":1,"b":4},"B":{"a":4,"b":1},"C":{"a":2,"b":8},"D":{"a":8,"b":2}},"conditions":["nonSeqFull","nonSeqPartial","seqNoFeedback","seqFeedback"],"classroomPairings":[["A","B"],["C","D"]],"coinWeights":[0.2,0.5,0.8],"subjectId":"A3EA4SHCLJ1UZQ","assignmentId":"3H8DHMCCWAX7Q1P9EK2VNJO2WPJKDC","hitId":"3NI0WFPPI9246I5W92FX9A3E2GN605","url":"https://gershmanlab.com/experiments/alicia/teaching/experiment/?hitId=3NI0WFPPI9246I5W92FX9A3E2GN605&workerId=A3EA4SHCLJ1UZQ&assignmentId=3H8DHMCCWAX7Q1P9EK2VNJO2WPJKDC&a=CH8H9&tp_a=CH8H9&b=3H8DHMCCWAX7Q1P9EK2VNJO2WPJKDC&tp_b=3H8DHMCCWAX7Q1P9EK2VNJO2WPJKDC&c=365799&tp_c=365799","firstResponseHeads":2,"firstResponseTails":8,"secondResponseHeads":8,"secondResponseTails":2,"totalHeads":10,"totalTails":10,"studentIndex":5,"studentTrueHypers":{"a":8,"b":2},"studentGuess":0.6,"delta":0.20000000000000007,"bonus":0,"bonusSoFar":0,"totalExamples":20},{"rt":null,"stimulus":"Sending examples to student... ","response":null,"trial_type":"html-keyboard-response","trial_index":48,"time_elapsed":709528,"internal_node_id":"0.0-47.0","params":{"nStudents":24,"maxFlips":30,"completionMinutes":45,"basePay":8,"maxBonus":9,"perTrialBonus":0.5,"perTrialBonusThreshold":0.05,"exampleCost":0.01},"classroomParams":{"A":{"a":1,"b":4},"B":{"a":4,"b":1},"C":{"a":2,"b":8},"D":{"a":8,"b":2}},"conditions":["nonSeqFull","nonSeqPartial","seqNoFeedback","seqFeedback"],"classroomPairings":[["A","B"],["C","D"]],"coinWeights":[0.2,0.5,0.8],"subjectId":"A3EA4SHCLJ1UZQ","assignmentId":"3H8DHMCCWAX7Q1P9EK2VNJO2WPJKDC","hitId":"3NI0WFPPI9246I5W92FX9A3E2GN605","url":"https://gershmanlab.com/experiments/alicia/teaching/experiment/?hitId=3NI0WFPPI9246I5W92FX9A3E2GN605&workerId=A3EA4SHCLJ1UZQ&assignmentId=3H8DHMCCWAX7Q1P9EK2VNJO2WPJKDC&a=CH8H9&tp_a=CH8H9&b=3H8DHMCCWAX7Q1P9EK2VNJO2WPJKDC&tp_b=3H8DHMCCWAX7Q1P9EK2VNJO2WPJKDC&c=365799&tp_c=365799"},{"rt":null,"stimulus":"Examples sent to student! Waiting for student...","response":null,"trial_type":"html-keyboard-response","trial_index":49,"time_elapsed":715032,"internal_node_id":"0.0-48.0","params":{"nStudents":24,"maxFlips":30,"completionMinutes":45,"basePay":8,"maxBonus":9,"perTrialBonus":0.5,"perTrialBonusThreshold":0.05,"exampleCost":0.01},"classroomParams":{"A":{"a":1,"b":4},"B":{"a":4,"b":1},"C":{"a":2,"b":8},"D":{"a":8,"b":2}},"conditions":["nonSeqFull","nonSeqPartial","seqNoFeedback","seqFeedback"],"classroomPairings":[["A","B"],["C","D"]],"coinWeights":[0.2,0.5,0.8],"subjectId":"A3EA4SHCLJ1UZQ","assignmentId":"3H8DHMCCWAX7Q1P9EK2VNJO2WPJKDC","hitId":"3NI0WFPPI9246I5W92FX9A3E2GN605","url":"https://gershmanlab.com/experiments/alicia/teaching/experiment/?hitId=3NI0WFPPI9246I5W92FX9A3E2GN605&workerId=A3EA4SHCLJ1UZQ&assignmentId=3H8DHMCCWAX7Q1P9EK2VNJO2WPJKDC&a=CH8H9&tp_a=CH8H9&b=3H8DHMCCWAX7Q1P9EK2VNJO2WPJKDC&tp_b=3H8DHMCCWAX7Q1P9EK2VNJO2WPJKDC&c=365799&tp_c=365799"},{"rt":4723,"stimulus":"\n                <p>Student 6's first guess for coin weight: <b style=\"color:Tomato\";>0.50</b></p>\n                <p>Student 6's second guess for coin weight: <b style=\"color:Tomato\";>0.60</b></p>\n                <p>You received a bonus of <b>$0.00</b> based on the student's second guess.</p>\n                <p>Total bonus so far: <b>$0.00</b></p>\n                <p>Press any key to continue.</p>\n                ","response":" ","trial_type":"html-keyboard-response","trial_index":50,"time_elapsed":719755,"internal_node_id":"0.0-49.0","params":{"nStudents":24,"maxFlips":30,"completionMinutes":45,"basePay":8,"maxBonus":9,"perTrialBonus":0.5,"perTrialBonusThreshold":0.05,"exampleCost":0.01},"classroomParams":{"A":{"a":1,"b":4},"B":{"a":4,"b":1},"C":{"a":2,"b":8},"D":{"a":8,"b":2}},"conditions":["nonSeqFull","nonSeqPartial","seqNoFeedback","seqFeedback"],"classroomPairings":[["A","B"],["C","D"]],"coinWeights":[0.2,0.5,0.8],"subjectId":"A3EA4SHCLJ1UZQ","assignmentId":"3H8DHMCCWAX7Q1P9EK2VNJO2WPJKDC","hitId":"3NI0WFPPI9246I5W92FX9A3E2GN605","url":"https://gershmanlab.com/experiments/alicia/teaching/experiment/?hitId=3NI0WFPPI9246I5W92FX9A3E2GN605&workerId=A3EA4SHCLJ1UZQ&assignmentId=3H8DHMCCWAX7Q1P9EK2VNJO2WPJKDC&a=CH8H9&tp_a=CH8H9&b=3H8DHMCCWAX7Q1P9EK2VNJO2WPJKDC&tp_b=3H8DHMCCWAX7Q1P9EK2VNJO2WPJKDC&c=365799&tp_c=365799"},{"rt":null,"stimulus":"<div style=\"font-size:60px;\">Next student</div>","response":null,"trial_type":"html-keyboard-response","trial_index":51,"time_elapsed":721761,"internal_node_id":"0.0-50.0-0.0","params":{"nStudents":24,"maxFlips":30,"completionMinutes":45,"basePay":8,"maxBonus":9,"perTrialBonus":0.5,"perTrialBonusThreshold":0.05,"exampleCost":0.01},"classroomParams":{"A":{"a":1,"b":4},"B":{"a":4,"b":1},"C":{"a":2,"b":8},"D":{"a":8,"b":2}},"conditions":["nonSeqFull","nonSeqPartial","seqNoFeedback","seqFeedback"],"classroomPairings":[["A","B"],["C","D"]],"coinWeights":[0.2,0.5,0.8],"subjectId":"A3EA4SHCLJ1UZQ","assignmentId":"3H8DHMCCWAX7Q1P9EK2VNJO2WPJKDC","hitId":"3NI0WFPPI9246I5W92FX9A3E2GN605","url":"https://gershmanlab.com/experiments/alicia/teaching/experiment/?hitId=3NI0WFPPI9246I5W92FX9A3E2GN605&workerId=A3EA4SHCLJ1UZQ&assignmentId=3H8DHMCCWAX7Q1P9EK2VNJO2WPJKDC&a=CH8H9&tp_a=CH8H9&b=3H8DHMCCWAX7Q1P9EK2VNJO2WPJKDC&tp_b=3H8DHMCCWAX7Q1P9EK2VNJO2WPJKDC&c=365799&tp_c=365799"},{"rt":7660,"stimulus":"\n            <h4 style=\"color:Orange;\">Student 7</h4>\n            <h2>The weight of your coin is <b style=\"color:Tomato;\">0.8</b>.</h2>\n            <p>In this block, you will be giving <b>two</b> sets of examples to Student 7.</p>\n                <p>You will see the student's guess after the first set of examples. You will also receive feedback at the end of the block.</p>\n            <p>To earn the highest bonus, you will have to <b>take into consideration the student's guess</b> when you choose your second set of examples.</p>","response":0,"trial_type":"html-button-response","trial_index":52,"time_elapsed":729421,"internal_node_id":"0.0-51.0","params":{"nStudents":24,"maxFlips":30,"completionMinutes":45,"basePay":8,"maxBonus":9,"perTrialBonus":0.5,"perTrialBonusThreshold":0.05,"exampleCost":0.01},"classroomParams":{"A":{"a":1,"b":4},"B":{"a":4,"b":1},"C":{"a":2,"b":8},"D":{"a":8,"b":2}},"conditions":["nonSeqFull","nonSeqPartial","seqNoFeedback","seqFeedback"],"classroomPairings":[["A","B"],["C","D"]],"coinWeights":[0.2,0.5,0.8],"subjectId":"A3EA4SHCLJ1UZQ","assignmentId":"3H8DHMCCWAX7Q1P9EK2VNJO2WPJKDC","hitId":"3NI0WFPPI9246I5W92FX9A3E2GN605","url":"https://gershmanlab.com/experiments/alicia/teaching/experiment/?hitId=3NI0WFPPI9246I5W92FX9A3E2GN605&workerId=A3EA4SHCLJ1UZQ&assignmentId=3H8DHMCCWAX7Q1P9EK2VNJO2WPJKDC&a=CH8H9&tp_a=CH8H9&b=3H8DHMCCWAX7Q1P9EK2VNJO2WPJKDC&tp_b=3H8DHMCCWAX7Q1P9EK2VNJO2WPJKDC&c=365799&tp_c=365799"},{"rt":12416,"response":{"heads":"10","tails":"2"},"type":"response","condition":"seqFeedback","trueTheta":0.8,"classrooms":["C","D"],"studentTrueClassroom":"D","exampleSet":"first","trial_type":"survey-html-form","trial_index":53,"time_elapsed":741838,"internal_node_id":"0.0-52.0-0.0","params":{"nStudents":24,"maxFlips":30,"completionMinutes":45,"basePay":8,"maxBonus":9,"perTrialBonus":0.5,"perTrialBonusThreshold":0.05,"exampleCost":0.01},"classroomParams":{"A":{"a":1,"b":4},"B":{"a":4,"b":1},"C":{"a":2,"b":8},"D":{"a":8,"b":2}},"conditions":["nonSeqFull","nonSeqPartial","seqNoFeedback","seqFeedback"],"classroomPairings":[["A","B"],["C","D"]],"coinWeights":[0.2,0.5,0.8],"subjectId":"A3EA4SHCLJ1UZQ","assignmentId":"3H8DHMCCWAX7Q1P9EK2VNJO2WPJKDC","hitId":"3NI0WFPPI9246I5W92FX9A3E2GN605","url":"https://gershmanlab.com/experiments/alicia/teaching/experiment/?hitId=3NI0WFPPI9246I5W92FX9A3E2GN605&workerId=A3EA4SHCLJ1UZQ&assignmentId=3H8DHMCCWAX7Q1P9EK2VNJO2WPJKDC&a=CH8H9&tp_a=CH8H9&b=3H8DHMCCWAX7Q1P9EK2VNJO2WPJKDC&tp_b=3H8DHMCCWAX7Q1P9EK2VNJO2WPJKDC&c=365799&tp_c=365799","heads":10,"tails":2,"studentIndex":6,"studentTrueHypers":{"a":8,"b":2},"studentGuess":0.8181818181818182,"delta":0.018181818181818188,"totalExamples":12,"bonusSoFar":0},{"rt":null,"stimulus":"Sending examples to student... ","response":null,"trial_type":"html-keyboard-response","trial_index":54,"time_elapsed":743840,"internal_node_id":"0.0-53.0","params":{"nStudents":24,"maxFlips":30,"completionMinutes":45,"basePay":8,"maxBonus":9,"perTrialBonus":0.5,"perTrialBonusThreshold":0.05,"exampleCost":0.01},"classroomParams":{"A":{"a":1,"b":4},"B":{"a":4,"b":1},"C":{"a":2,"b":8},"D":{"a":8,"b":2}},"conditions":["nonSeqFull","nonSeqPartial","seqNoFeedback","seqFeedback"],"classroomPairings":[["A","B"],["C","D"]],"coinWeights":[0.2,0.5,0.8],"subjectId":"A3EA4SHCLJ1UZQ","assignmentId":"3H8DHMCCWAX7Q1P9EK2VNJO2WPJKDC","hitId":"3NI0WFPPI9246I5W92FX9A3E2GN605","url":"https://gershmanlab.com/experiments/alicia/teaching/experiment/?hitId=3NI0WFPPI9246I5W92FX9A3E2GN605&workerId=A3EA4SHCLJ1UZQ&assignmentId=3H8DHMCCWAX7Q1P9EK2VNJO2WPJKDC&a=CH8H9&tp_a=CH8H9&b=3H8DHMCCWAX7Q1P9EK2VNJO2WPJKDC&tp_b=3H8DHMCCWAX7Q1P9EK2VNJO2WPJKDC&c=365799&tp_c=365799"},{"rt":null,"stimulus":"Examples sent to student! Waiting for student...","response":null,"trial_type":"html-keyboard-response","trial_index":55,"time_elapsed":749345,"internal_node_id":"0.0-54.0","params":{"nStudents":24,"maxFlips":30,"completionMinutes":45,"basePay":8,"maxBonus":9,"perTrialBonus":0.5,"perTrialBonusThreshold":0.05,"exampleCost":0.01},"classroomParams":{"A":{"a":1,"b":4},"B":{"a":4,"b":1},"C":{"a":2,"b":8},"D":{"a":8,"b":2}},"conditions":["nonSeqFull","nonSeqPartial","seqNoFeedback","seqFeedback"],"classroomPairings":[["A","B"],["C","D"]],"coinWeights":[0.2,0.5,0.8],"subjectId":"A3EA4SHCLJ1UZQ","assignmentId":"3H8DHMCCWAX7Q1P9EK2VNJO2WPJKDC","hitId":"3NI0WFPPI9246I5W92FX9A3E2GN605","url":"https://gershmanlab.com/experiments/alicia/teaching/experiment/?hitId=3NI0WFPPI9246I5W92FX9A3E2GN605&workerId=A3EA4SHCLJ1UZQ&assignmentId=3H8DHMCCWAX7Q1P9EK2VNJO2WPJKDC&a=CH8H9&tp_a=CH8H9&b=3H8DHMCCWAX7Q1P9EK2VNJO2WPJKDC&tp_b=3H8DHMCCWAX7Q1P9EK2VNJO2WPJKDC&c=365799&tp_c=365799"},{"rt":6113,"stimulus":"\n                <p>Student's guess for coin weight: <b style=\"color:Tomato;\">0.82</b></p>\n                <p></b></p>\n                <p>You will now send another set of examples to your student. <b>Remember to take your student's guess into consideration so that you can earn the highest bonus possible!</b> </p>\n                <p>Press any key to continue.</p>\n                ","response":" ","trial_type":"html-keyboard-response","trial_index":56,"time_elapsed":755458,"internal_node_id":"0.0-55.0","params":{"nStudents":24,"maxFlips":30,"completionMinutes":45,"basePay":8,"maxBonus":9,"perTrialBonus":0.5,"perTrialBonusThreshold":0.05,"exampleCost":0.01},"classroomParams":{"A":{"a":1,"b":4},"B":{"a":4,"b":1},"C":{"a":2,"b":8},"D":{"a":8,"b":2}},"conditions":["nonSeqFull","nonSeqPartial","seqNoFeedback","seqFeedback"],"classroomPairings":[["A","B"],["C","D"]],"coinWeights":[0.2,0.5,0.8],"subjectId":"A3EA4SHCLJ1UZQ","assignmentId":"3H8DHMCCWAX7Q1P9EK2VNJO2WPJKDC","hitId":"3NI0WFPPI9246I5W92FX9A3E2GN605","url":"https://gershmanlab.com/experiments/alicia/teaching/experiment/?hitId=3NI0WFPPI9246I5W92FX9A3E2GN605&workerId=A3EA4SHCLJ1UZQ&assignmentId=3H8DHMCCWAX7Q1P9EK2VNJO2WPJKDC&a=CH8H9&tp_a=CH8H9&b=3H8DHMCCWAX7Q1P9EK2VNJO2WPJKDC&tp_b=3H8DHMCCWAX7Q1P9EK2VNJO2WPJKDC&c=365799&tp_c=365799"},{"rt":7380,"response":{"heads":"10","tails":"2"},"type":"response","condition":"seqFeedback","trueTheta":0.8,"classrooms":["C","D"],"studentTrueClassroom":"D","exampleSet":"second","trial_type":"survey-html-form","trial_index":57,"time_elapsed":762839,"internal_node_id":"0.0-56.0-0.0","params":{"nStudents":24,"maxFlips":30,"completionMinutes":45,"basePay":8,"maxBonus":9,"perTrialBonus":0.5,"perTrialBonusThreshold":0.05,"exampleCost":0.01},"classroomParams":{"A":{"a":1,"b":4},"B":{"a":4,"b":1},"C":{"a":2,"b":8},"D":{"a":8,"b":2}},"conditions":["nonSeqFull","nonSeqPartial","seqNoFeedback","seqFeedback"],"classroomPairings":[["A","B"],["C","D"]],"coinWeights":[0.2,0.5,0.8],"subjectId":"A3EA4SHCLJ1UZQ","assignmentId":"3H8DHMCCWAX7Q1P9EK2VNJO2WPJKDC","hitId":"3NI0WFPPI9246I5W92FX9A3E2GN605","url":"https://gershmanlab.com/experiments/alicia/teaching/experiment/?hitId=3NI0WFPPI9246I5W92FX9A3E2GN605&workerId=A3EA4SHCLJ1UZQ&assignmentId=3H8DHMCCWAX7Q1P9EK2VNJO2WPJKDC&a=CH8H9&tp_a=CH8H9&b=3H8DHMCCWAX7Q1P9EK2VNJO2WPJKDC&tp_b=3H8DHMCCWAX7Q1P9EK2VNJO2WPJKDC&c=365799&tp_c=365799","firstResponseHeads":10,"firstResponseTails":2,"secondResponseHeads":10,"secondResponseTails":2,"totalHeads":20,"totalTails":4,"studentIndex":6,"studentTrueHypers":{"a":8,"b":2},"studentGuess":0.8235294117647058,"delta":0.0235294117647058,"bonus":0.26,"bonusSoFar":0.26,"totalExamples":24},{"rt":null,"stimulus":"Sending examples to student... ","response":null,"trial_type":"html-keyboard-response","trial_index":58,"time_elapsed":764593,"internal_node_id":"0.0-57.0","params":{"nStudents":24,"maxFlips":30,"completionMinutes":45,"basePay":8,"maxBonus":9,"perTrialBonus":0.5,"perTrialBonusThreshold":0.05,"exampleCost":0.01},"classroomParams":{"A":{"a":1,"b":4},"B":{"a":4,"b":1},"C":{"a":2,"b":8},"D":{"a":8,"b":2}},"conditions":["nonSeqFull","nonSeqPartial","seqNoFeedback","seqFeedback"],"classroomPairings":[["A","B"],["C","D"]],"coinWeights":[0.2,0.5,0.8],"subjectId":"A3EA4SHCLJ1UZQ","assignmentId":"3H8DHMCCWAX7Q1P9EK2VNJO2WPJKDC","hitId":"3NI0WFPPI9246I5W92FX9A3E2GN605","url":"https://gershmanlab.com/experiments/alicia/teaching/experiment/?hitId=3NI0WFPPI9246I5W92FX9A3E2GN605&workerId=A3EA4SHCLJ1UZQ&assignmentId=3H8DHMCCWAX7Q1P9EK2VNJO2WPJKDC&a=CH8H9&tp_a=CH8H9&b=3H8DHMCCWAX7Q1P9EK2VNJO2WPJKDC&tp_b=3H8DHMCCWAX7Q1P9EK2VNJO2WPJKDC&c=365799&tp_c=365799"},{"rt":null,"stimulus":"Examples sent to student! Waiting for student...","response":null,"trial_type":"html-keyboard-response","trial_index":59,"time_elapsed":770099,"internal_node_id":"0.0-58.0","params":{"nStudents":24,"maxFlips":30,"completionMinutes":45,"basePay":8,"maxBonus":9,"perTrialBonus":0.5,"perTrialBonusThreshold":0.05,"exampleCost":0.01},"classroomParams":{"A":{"a":1,"b":4},"B":{"a":4,"b":1},"C":{"a":2,"b":8},"D":{"a":8,"b":2}},"conditions":["nonSeqFull","nonSeqPartial","seqNoFeedback","seqFeedback"],"classroomPairings":[["A","B"],["C","D"]],"coinWeights":[0.2,0.5,0.8],"subjectId":"A3EA4SHCLJ1UZQ","assignmentId":"3H8DHMCCWAX7Q1P9EK2VNJO2WPJKDC","hitId":"3NI0WFPPI9246I5W92FX9A3E2GN605","url":"https://gershmanlab.com/experiments/alicia/teaching/experiment/?hitId=3NI0WFPPI9246I5W92FX9A3E2GN605&workerId=A3EA4SHCLJ1UZQ&assignmentId=3H8DHMCCWAX7Q1P9EK2VNJO2WPJKDC&a=CH8H9&tp_a=CH8H9&b=3H8DHMCCWAX7Q1P9EK2VNJO2WPJKDC&tp_b=3H8DHMCCWAX7Q1P9EK2VNJO2WPJKDC&c=365799&tp_c=365799"},{"rt":2926,"stimulus":"\n                <p>Student 7's first guess for coin weight: <b style=\"color:Tomato\";>0.82</b></p>\n                <p>Student 7's second guess for coin weight: <b style=\"color:Tomato\";>0.82</b></p>\n                <p>You received a bonus of <b>$0.26</b> based on the student's second guess.</p>\n                <p>Total bonus so far: <b>$0.26</b></p>\n                <p>Press any key to continue.</p>\n                ","response":" ","trial_type":"html-keyboard-response","trial_index":60,"time_elapsed":773026,"internal_node_id":"0.0-59.0","params":{"nStudents":24,"maxFlips":30,"completionMinutes":45,"basePay":8,"maxBonus":9,"perTrialBonus":0.5,"perTrialBonusThreshold":0.05,"exampleCost":0.01},"classroomParams":{"A":{"a":1,"b":4},"B":{"a":4,"b":1},"C":{"a":2,"b":8},"D":{"a":8,"b":2}},"conditions":["nonSeqFull","nonSeqPartial","seqNoFeedback","seqFeedback"],"classroomPairings":[["A","B"],["C","D"]],"coinWeights":[0.2,0.5,0.8],"subjectId":"A3EA4SHCLJ1UZQ","assignmentId":"3H8DHMCCWAX7Q1P9EK2VNJO2WPJKDC","hitId":"3NI0WFPPI9246I5W92FX9A3E2GN605","url":"https://gershmanlab.com/experiments/alicia/teaching/experiment/?hitId=3NI0WFPPI9246I5W92FX9A3E2GN605&workerId=A3EA4SHCLJ1UZQ&assignmentId=3H8DHMCCWAX7Q1P9EK2VNJO2WPJKDC&a=CH8H9&tp_a=CH8H9&b=3H8DHMCCWAX7Q1P9EK2VNJO2WPJKDC&tp_b=3H8DHMCCWAX7Q1P9EK2VNJO2WPJKDC&c=365799&tp_c=365799"},{"rt":null,"stimulus":"<div style=\"font-size:60px;\">Next student</div>","response":null,"trial_type":"html-keyboard-response","trial_index":61,"time_elapsed":775281,"internal_node_id":"0.0-60.0-0.0","params":{"nStudents":24,"maxFlips":30,"completionMinutes":45,"basePay":8,"maxBonus":9,"perTrialBonus":0.5,"perTrialBonusThreshold":0.05,"exampleCost":0.01},"classroomParams":{"A":{"a":1,"b":4},"B":{"a":4,"b":1},"C":{"a":2,"b":8},"D":{"a":8,"b":2}},"conditions":["nonSeqFull","nonSeqPartial","seqNoFeedback","seqFeedback"],"classroomPairings":[["A","B"],["C","D"]],"coinWeights":[0.2,0.5,0.8],"subjectId":"A3EA4SHCLJ1UZQ","assignmentId":"3H8DHMCCWAX7Q1P9EK2VNJO2WPJKDC","hitId":"3NI0WFPPI9246I5W92FX9A3E2GN605","url":"https://gershmanlab.com/experiments/alicia/teaching/experiment/?hitId=3NI0WFPPI9246I5W92FX9A3E2GN605&workerId=A3EA4SHCLJ1UZQ&assignmentId=3H8DHMCCWAX7Q1P9EK2VNJO2WPJKDC&a=CH8H9&tp_a=CH8H9&b=3H8DHMCCWAX7Q1P9EK2VNJO2WPJKDC&tp_b=3H8DHMCCWAX7Q1P9EK2VNJO2WPJKDC&c=365799&tp_c=365799"},{"rt":5268,"stimulus":"\n            <h4 style=\"color:Orange;\">Student 8</h4>\n            <h2>The weight of your coin is <b style=\"color:Tomato;\">0.8</b>.</h2>\n            <p>In this block, you will be giving <b>one</b> set of examples to Student 8.</p>\n                <p>You will receive feedback at the end of the block.</p>\n            <p></p>","response":0,"trial_type":"html-button-response","trial_index":62,"time_elapsed":780550,"internal_node_id":"0.0-61.0","params":{"nStudents":24,"maxFlips":30,"completionMinutes":45,"basePay":8,"maxBonus":9,"perTrialBonus":0.5,"perTrialBonusThreshold":0.05,"exampleCost":0.01},"classroomParams":{"A":{"a":1,"b":4},"B":{"a":4,"b":1},"C":{"a":2,"b":8},"D":{"a":8,"b":2}},"conditions":["nonSeqFull","nonSeqPartial","seqNoFeedback","seqFeedback"],"classroomPairings":[["A","B"],["C","D"]],"coinWeights":[0.2,0.5,0.8],"subjectId":"A3EA4SHCLJ1UZQ","assignmentId":"3H8DHMCCWAX7Q1P9EK2VNJO2WPJKDC","hitId":"3NI0WFPPI9246I5W92FX9A3E2GN605","url":"https://gershmanlab.com/experiments/alicia/teaching/experiment/?hitId=3NI0WFPPI9246I5W92FX9A3E2GN605&workerId=A3EA4SHCLJ1UZQ&assignmentId=3H8DHMCCWAX7Q1P9EK2VNJO2WPJKDC&a=CH8H9&tp_a=CH8H9&b=3H8DHMCCWAX7Q1P9EK2VNJO2WPJKDC&tp_b=3H8DHMCCWAX7Q1P9EK2VNJO2WPJKDC&c=365799&tp_c=365799"},{"rt":8453,"response":{"heads":"10","tails":"2"},"type":"response","condition":"nonSeqFull","trueTheta":0.8,"classrooms":["A","B"],"studentTrueClassroom":"B","exampleSet":"first","trial_type":"survey-html-form","trial_index":63,"time_elapsed":789003,"internal_node_id":"0.0-62.0-0.0","params":{"nStudents":24,"maxFlips":30,"completionMinutes":45,"basePay":8,"maxBonus":9,"perTrialBonus":0.5,"perTrialBonusThreshold":0.05,"exampleCost":0.01},"classroomParams":{"A":{"a":1,"b":4},"B":{"a":4,"b":1},"C":{"a":2,"b":8},"D":{"a":8,"b":2}},"conditions":["nonSeqFull","nonSeqPartial","seqNoFeedback","seqFeedback"],"classroomPairings":[["A","B"],["C","D"]],"coinWeights":[0.2,0.5,0.8],"subjectId":"A3EA4SHCLJ1UZQ","assignmentId":"3H8DHMCCWAX7Q1P9EK2VNJO2WPJKDC","hitId":"3NI0WFPPI9246I5W92FX9A3E2GN605","url":"https://gershmanlab.com/experiments/alicia/teaching/experiment/?hitId=3NI0WFPPI9246I5W92FX9A3E2GN605&workerId=A3EA4SHCLJ1UZQ&assignmentId=3H8DHMCCWAX7Q1P9EK2VNJO2WPJKDC&a=CH8H9&tp_a=CH8H9&b=3H8DHMCCWAX7Q1P9EK2VNJO2WPJKDC&tp_b=3H8DHMCCWAX7Q1P9EK2VNJO2WPJKDC&c=365799&tp_c=365799","heads":10,"tails":2,"studentIndex":7,"studentTrueHypers":{"a":4,"b":1},"studentGuess":0.8235294117647058,"delta":0.0235294117647058,"totalExamples":12,"bonus":0.38,"bonusSoFar":0.64},{"rt":null,"stimulus":"Sending examples to student... ","response":null,"trial_type":"html-keyboard-response","trial_index":64,"time_elapsed":791008,"internal_node_id":"0.0-63.0","params":{"nStudents":24,"maxFlips":30,"completionMinutes":45,"basePay":8,"maxBonus":9,"perTrialBonus":0.5,"perTrialBonusThreshold":0.05,"exampleCost":0.01},"classroomParams":{"A":{"a":1,"b":4},"B":{"a":4,"b":1},"C":{"a":2,"b":8},"D":{"a":8,"b":2}},"conditions":["nonSeqFull","nonSeqPartial","seqNoFeedback","seqFeedback"],"classroomPairings":[["A","B"],["C","D"]],"coinWeights":[0.2,0.5,0.8],"subjectId":"A3EA4SHCLJ1UZQ","assignmentId":"3H8DHMCCWAX7Q1P9EK2VNJO2WPJKDC","hitId":"3NI0WFPPI9246I5W92FX9A3E2GN605","url":"https://gershmanlab.com/experiments/alicia/teaching/experiment/?hitId=3NI0WFPPI9246I5W92FX9A3E2GN605&workerId=A3EA4SHCLJ1UZQ&assignmentId=3H8DHMCCWAX7Q1P9EK2VNJO2WPJKDC&a=CH8H9&tp_a=CH8H9&b=3H8DHMCCWAX7Q1P9EK2VNJO2WPJKDC&tp_b=3H8DHMCCWAX7Q1P9EK2VNJO2WPJKDC&c=365799&tp_c=365799"},{"rt":null,"stimulus":"Examples sent to student! Waiting for student...","response":null,"trial_type":"html-keyboard-response","trial_index":65,"time_elapsed":796010,"internal_node_id":"0.0-64.0","params":{"nStudents":24,"maxFlips":30,"completionMinutes":45,"basePay":8,"maxBonus":9,"perTrialBonus":0.5,"perTrialBonusThreshold":0.05,"exampleCost":0.01},"classroomParams":{"A":{"a":1,"b":4},"B":{"a":4,"b":1},"C":{"a":2,"b":8},"D":{"a":8,"b":2}},"conditions":["nonSeqFull","nonSeqPartial","seqNoFeedback","seqFeedback"],"classroomPairings":[["A","B"],["C","D"]],"coinWeights":[0.2,0.5,0.8],"subjectId":"A3EA4SHCLJ1UZQ","assignmentId":"3H8DHMCCWAX7Q1P9EK2VNJO2WPJKDC","hitId":"3NI0WFPPI9246I5W92FX9A3E2GN605","url":"https://gershmanlab.com/experiments/alicia/teaching/experiment/?hitId=3NI0WFPPI9246I5W92FX9A3E2GN605&workerId=A3EA4SHCLJ1UZQ&assignmentId=3H8DHMCCWAX7Q1P9EK2VNJO2WPJKDC&a=CH8H9&tp_a=CH8H9&b=3H8DHMCCWAX7Q1P9EK2VNJO2WPJKDC&tp_b=3H8DHMCCWAX7Q1P9EK2VNJO2WPJKDC&c=365799&tp_c=365799"},{"rt":2190,"stimulus":"\n                <p>Student's guess for coin weight: <b style=\"color:Tomato;\">0.82</b></p>\n                <p>You received a bonus of <b>$0.38</b>. Total bonus so far: <b>$0.64</b></b></p>\n                <p></p>\n                <p>Press any key to continue.</p>\n                ","response":" ","trial_type":"html-keyboard-response","trial_index":66,"time_elapsed":798201,"internal_node_id":"0.0-65.0","params":{"nStudents":24,"maxFlips":30,"completionMinutes":45,"basePay":8,"maxBonus":9,"perTrialBonus":0.5,"perTrialBonusThreshold":0.05,"exampleCost":0.01},"classroomParams":{"A":{"a":1,"b":4},"B":{"a":4,"b":1},"C":{"a":2,"b":8},"D":{"a":8,"b":2}},"conditions":["nonSeqFull","nonSeqPartial","seqNoFeedback","seqFeedback"],"classroomPairings":[["A","B"],["C","D"]],"coinWeights":[0.2,0.5,0.8],"subjectId":"A3EA4SHCLJ1UZQ","assignmentId":"3H8DHMCCWAX7Q1P9EK2VNJO2WPJKDC","hitId":"3NI0WFPPI9246I5W92FX9A3E2GN605","url":"https://gershmanlab.com/experiments/alicia/teaching/experiment/?hitId=3NI0WFPPI9246I5W92FX9A3E2GN605&workerId=A3EA4SHCLJ1UZQ&assignmentId=3H8DHMCCWAX7Q1P9EK2VNJO2WPJKDC&a=CH8H9&tp_a=CH8H9&b=3H8DHMCCWAX7Q1P9EK2VNJO2WPJKDC&tp_b=3H8DHMCCWAX7Q1P9EK2VNJO2WPJKDC&c=365799&tp_c=365799"},{"rt":null,"stimulus":"<div style=\"font-size:60px;\">Next student</div>","response":null,"trial_type":"html-keyboard-response","trial_index":67,"time_elapsed":801205,"internal_node_id":"0.0-66.0-0.0","params":{"nStudents":24,"maxFlips":30,"completionMinutes":45,"basePay":8,"maxBonus":9,"perTrialBonus":0.5,"perTrialBonusThreshold":0.05,"exampleCost":0.01},"classroomParams":{"A":{"a":1,"b":4},"B":{"a":4,"b":1},"C":{"a":2,"b":8},"D":{"a":8,"b":2}},"conditions":["nonSeqFull","nonSeqPartial","seqNoFeedback","seqFeedback"],"classroomPairings":[["A","B"],["C","D"]],"coinWeights":[0.2,0.5,0.8],"subjectId":"A3EA4SHCLJ1UZQ","assignmentId":"3H8DHMCCWAX7Q1P9EK2VNJO2WPJKDC","hitId":"3NI0WFPPI9246I5W92FX9A3E2GN605","url":"https://gershmanlab.com/experiments/alicia/teaching/experiment/?hitId=3NI0WFPPI9246I5W92FX9A3E2GN605&workerId=A3EA4SHCLJ1UZQ&assignmentId=3H8DHMCCWAX7Q1P9EK2VNJO2WPJKDC&a=CH8H9&tp_a=CH8H9&b=3H8DHMCCWAX7Q1P9EK2VNJO2WPJKDC&tp_b=3H8DHMCCWAX7Q1P9EK2VNJO2WPJKDC&c=365799&tp_c=365799"},{"rt":11685,"stimulus":"\n            <h4 style=\"color:Orange;\">Student 9</h4>\n            <h2>The weight of your coin is <b style=\"color:Tomato;\">0.2</b>.</h2>\n            <p>In this block, you will be giving <b>two</b> sets of examples to Student 9.</p>\n                <p>You will see the student's guess after the first set of examples. You will also receive feedback at the end of the block.</p>\n            <p>To earn the highest bonus, you will have to <b>take into consideration the student's guess</b> when you choose your second set of examples.</p>","response":0,"trial_type":"html-button-response","trial_index":68,"time_elapsed":812890,"internal_node_id":"0.0-67.0","params":{"nStudents":24,"maxFlips":30,"completionMinutes":45,"basePay":8,"maxBonus":9,"perTrialBonus":0.5,"perTrialBonusThreshold":0.05,"exampleCost":0.01},"classroomParams":{"A":{"a":1,"b":4},"B":{"a":4,"b":1},"C":{"a":2,"b":8},"D":{"a":8,"b":2}},"conditions":["nonSeqFull","nonSeqPartial","seqNoFeedback","seqFeedback"],"classroomPairings":[["A","B"],["C","D"]],"coinWeights":[0.2,0.5,0.8],"subjectId":"A3EA4SHCLJ1UZQ","assignmentId":"3H8DHMCCWAX7Q1P9EK2VNJO2WPJKDC","hitId":"3NI0WFPPI9246I5W92FX9A3E2GN605","url":"https://gershmanlab.com/experiments/alicia/teaching/experiment/?hitId=3NI0WFPPI9246I5W92FX9A3E2GN605&workerId=A3EA4SHCLJ1UZQ&assignmentId=3H8DHMCCWAX7Q1P9EK2VNJO2WPJKDC&a=CH8H9&tp_a=CH8H9&b=3H8DHMCCWAX7Q1P9EK2VNJO2WPJKDC&tp_b=3H8DHMCCWAX7Q1P9EK2VNJO2WPJKDC&c=365799&tp_c=365799"},{"rt":5188,"response":{"heads":"2","tails":"10"},"type":"response","condition":"seqFeedback","trueTheta":0.2,"classrooms":["A","B"],"studentTrueClassroom":"B","exampleSet":"first","trial_type":"survey-html-form","trial_index":69,"time_elapsed":818079,"internal_node_id":"0.0-68.0-0.0","params":{"nStudents":24,"maxFlips":30,"completionMinutes":45,"basePay":8,"maxBonus":9,"perTrialBonus":0.5,"perTrialBonusThreshold":0.05,"exampleCost":0.01},"classroomParams":{"A":{"a":1,"b":4},"B":{"a":4,"b":1},"C":{"a":2,"b":8},"D":{"a":8,"b":2}},"conditions":["nonSeqFull","nonSeqPartial","seqNoFeedback","seqFeedback"],"classroomPairings":[["A","B"],["C","D"]],"coinWeights":[0.2,0.5,0.8],"subjectId":"A3EA4SHCLJ1UZQ","assignmentId":"3H8DHMCCWAX7Q1P9EK2VNJO2WPJKDC","hitId":"3NI0WFPPI9246I5W92FX9A3E2GN605","url":"https://gershmanlab.com/experiments/alicia/teaching/experiment/?hitId=3NI0WFPPI9246I5W92FX9A3E2GN605&workerId=A3EA4SHCLJ1UZQ&assignmentId=3H8DHMCCWAX7Q1P9EK2VNJO2WPJKDC&a=CH8H9&tp_a=CH8H9&b=3H8DHMCCWAX7Q1P9EK2VNJO2WPJKDC&tp_b=3H8DHMCCWAX7Q1P9EK2VNJO2WPJKDC&c=365799&tp_c=365799","heads":2,"tails":10,"studentIndex":8,"studentTrueHypers":{"a":4,"b":1},"studentGuess":0.35294117647058826,"delta":0.15294117647058825,"totalExamples":12,"bonusSoFar":0.64},{"rt":null,"stimulus":"Sending examples to student... ","response":null,"trial_type":"html-keyboard-response","trial_index":70,"time_elapsed":820081,"internal_node_id":"0.0-69.0","params":{"nStudents":24,"maxFlips":30,"completionMinutes":45,"basePay":8,"maxBonus":9,"perTrialBonus":0.5,"perTrialBonusThreshold":0.05,"exampleCost":0.01},"classroomParams":{"A":{"a":1,"b":4},"B":{"a":4,"b":1},"C":{"a":2,"b":8},"D":{"a":8,"b":2}},"conditions":["nonSeqFull","nonSeqPartial","seqNoFeedback","seqFeedback"],"classroomPairings":[["A","B"],["C","D"]],"coinWeights":[0.2,0.5,0.8],"subjectId":"A3EA4SHCLJ1UZQ","assignmentId":"3H8DHMCCWAX7Q1P9EK2VNJO2WPJKDC","hitId":"3NI0WFPPI9246I5W92FX9A3E2GN605","url":"https://gershmanlab.com/experiments/alicia/teaching/experiment/?hitId=3NI0WFPPI9246I5W92FX9A3E2GN605&workerId=A3EA4SHCLJ1UZQ&assignmentId=3H8DHMCCWAX7Q1P9EK2VNJO2WPJKDC&a=CH8H9&tp_a=CH8H9&b=3H8DHMCCWAX7Q1P9EK2VNJO2WPJKDC&tp_b=3H8DHMCCWAX7Q1P9EK2VNJO2WPJKDC&c=365799&tp_c=365799"},{"rt":null,"stimulus":"Examples sent to student! Waiting for student...","response":null,"trial_type":"html-keyboard-response","trial_index":71,"time_elapsed":824085,"internal_node_id":"0.0-70.0","params":{"nStudents":24,"maxFlips":30,"completionMinutes":45,"basePay":8,"maxBonus":9,"perTrialBonus":0.5,"perTrialBonusThreshold":0.05,"exampleCost":0.01},"classroomParams":{"A":{"a":1,"b":4},"B":{"a":4,"b":1},"C":{"a":2,"b":8},"D":{"a":8,"b":2}},"conditions":["nonSeqFull","nonSeqPartial","seqNoFeedback","seqFeedback"],"classroomPairings":[["A","B"],["C","D"]],"coinWeights":[0.2,0.5,0.8],"subjectId":"A3EA4SHCLJ1UZQ","assignmentId":"3H8DHMCCWAX7Q1P9EK2VNJO2WPJKDC","hitId":"3NI0WFPPI9246I5W92FX9A3E2GN605","url":"https://gershmanlab.com/experiments/alicia/teaching/experiment/?hitId=3NI0WFPPI9246I5W92FX9A3E2GN605&workerId=A3EA4SHCLJ1UZQ&assignmentId=3H8DHMCCWAX7Q1P9EK2VNJO2WPJKDC&a=CH8H9&tp_a=CH8H9&b=3H8DHMCCWAX7Q1P9EK2VNJO2WPJKDC&tp_b=3H8DHMCCWAX7Q1P9EK2VNJO2WPJKDC&c=365799&tp_c=365799"},{"rt":2618,"stimulus":"\n                <p>Student's guess for coin weight: <b style=\"color:Tomato;\">0.35</b></p>\n                <p></b></p>\n                <p>You will now send another set of examples to your student. <b>Remember to take your student's guess into consideration so that you can earn the highest bonus possible!</b> </p>\n                <p>Press any key to continue.</p>\n                ","response":" ","trial_type":"html-keyboard-response","trial_index":72,"time_elapsed":826704,"internal_node_id":"0.0-71.0","params":{"nStudents":24,"maxFlips":30,"completionMinutes":45,"basePay":8,"maxBonus":9,"perTrialBonus":0.5,"perTrialBonusThreshold":0.05,"exampleCost":0.01},"classroomParams":{"A":{"a":1,"b":4},"B":{"a":4,"b":1},"C":{"a":2,"b":8},"D":{"a":8,"b":2}},"conditions":["nonSeqFull","nonSeqPartial","seqNoFeedback","seqFeedback"],"classroomPairings":[["A","B"],["C","D"]],"coinWeights":[0.2,0.5,0.8],"subjectId":"A3EA4SHCLJ1UZQ","assignmentId":"3H8DHMCCWAX7Q1P9EK2VNJO2WPJKDC","hitId":"3NI0WFPPI9246I5W92FX9A3E2GN605","url":"https://gershmanlab.com/experiments/alicia/teaching/experiment/?hitId=3NI0WFPPI9246I5W92FX9A3E2GN605&workerId=A3EA4SHCLJ1UZQ&assignmentId=3H8DHMCCWAX7Q1P9EK2VNJO2WPJKDC&a=CH8H9&tp_a=CH8H9&b=3H8DHMCCWAX7Q1P9EK2VNJO2WPJKDC&tp_b=3H8DHMCCWAX7Q1P9EK2VNJO2WPJKDC&c=365799&tp_c=365799"},{"rt":9669,"response":{"heads":"2","tails":"12"},"type":"response","condition":"seqFeedback","trueTheta":0.2,"classrooms":["A","B"],"studentTrueClassroom":"B","exampleSet":"second","trial_type":"survey-html-form","trial_index":73,"time_elapsed":836374,"internal_node_id":"0.0-72.0-0.0","params":{"nStudents":24,"maxFlips":30,"completionMinutes":45,"basePay":8,"maxBonus":9,"perTrialBonus":0.5,"perTrialBonusThreshold":0.05,"exampleCost":0.01},"classroomParams":{"A":{"a":1,"b":4},"B":{"a":4,"b":1},"C":{"a":2,"b":8},"D":{"a":8,"b":2}},"conditions":["nonSeqFull","nonSeqPartial","seqNoFeedback","seqFeedback"],"classroomPairings":[["A","B"],["C","D"]],"coinWeights":[0.2,0.5,0.8],"subjectId":"A3EA4SHCLJ1UZQ","assignmentId":"3H8DHMCCWAX7Q1P9EK2VNJO2WPJKDC","hitId":"3NI0WFPPI9246I5W92FX9A3E2GN605","url":"https://gershmanlab.com/experiments/alicia/teaching/experiment/?hitId=3NI0WFPPI9246I5W92FX9A3E2GN605&workerId=A3EA4SHCLJ1UZQ&assignmentId=3H8DHMCCWAX7Q1P9EK2VNJO2WPJKDC&a=CH8H9&tp_a=CH8H9&b=3H8DHMCCWAX7Q1P9EK2VNJO2WPJKDC&tp_b=3H8DHMCCWAX7Q1P9EK2VNJO2WPJKDC&c=365799&tp_c=365799","firstResponseHeads":2,"firstResponseTails":10,"secondResponseHeads":2,"secondResponseTails":12,"totalHeads":4,"totalTails":22,"studentIndex":8,"studentTrueHypers":{"a":4,"b":1},"studentGuess":0.25806451612903225,"delta":0.05806451612903224,"bonus":0,"bonusSoFar":0.64,"totalExamples":26},{"rt":null,"stimulus":"Sending examples to student... ","response":null,"trial_type":"html-keyboard-response","trial_index":74,"time_elapsed":838127,"internal_node_id":"0.0-73.0","params":{"nStudents":24,"maxFlips":30,"completionMinutes":45,"basePay":8,"maxBonus":9,"perTrialBonus":0.5,"perTrialBonusThreshold":0.05,"exampleCost":0.01},"classroomParams":{"A":{"a":1,"b":4},"B":{"a":4,"b":1},"C":{"a":2,"b":8},"D":{"a":8,"b":2}},"conditions":["nonSeqFull","nonSeqPartial","seqNoFeedback","seqFeedback"],"classroomPairings":[["A","B"],["C","D"]],"coinWeights":[0.2,0.5,0.8],"subjectId":"A3EA4SHCLJ1UZQ","assignmentId":"3H8DHMCCWAX7Q1P9EK2VNJO2WPJKDC","hitId":"3NI0WFPPI9246I5W92FX9A3E2GN605","url":"https://gershmanlab.com/experiments/alicia/teaching/experiment/?hitId=3NI0WFPPI9246I5W92FX9A3E2GN605&workerId=A3EA4SHCLJ1UZQ&assignmentId=3H8DHMCCWAX7Q1P9EK2VNJO2WPJKDC&a=CH8H9&tp_a=CH8H9&b=3H8DHMCCWAX7Q1P9EK2VNJO2WPJKDC&tp_b=3H8DHMCCWAX7Q1P9EK2VNJO2WPJKDC&c=365799&tp_c=365799"},{"rt":null,"stimulus":"Examples sent to student! Waiting for student...","response":null,"trial_type":"html-keyboard-response","trial_index":75,"time_elapsed":844132,"internal_node_id":"0.0-74.0","params":{"nStudents":24,"maxFlips":30,"completionMinutes":45,"basePay":8,"maxBonus":9,"perTrialBonus":0.5,"perTrialBonusThreshold":0.05,"exampleCost":0.01},"classroomParams":{"A":{"a":1,"b":4},"B":{"a":4,"b":1},"C":{"a":2,"b":8},"D":{"a":8,"b":2}},"conditions":["nonSeqFull","nonSeqPartial","seqNoFeedback","seqFeedback"],"classroomPairings":[["A","B"],["C","D"]],"coinWeights":[0.2,0.5,0.8],"subjectId":"A3EA4SHCLJ1UZQ","assignmentId":"3H8DHMCCWAX7Q1P9EK2VNJO2WPJKDC","hitId":"3NI0WFPPI9246I5W92FX9A3E2GN605","url":"https://gershmanlab.com/experiments/alicia/teaching/experiment/?hitId=3NI0WFPPI9246I5W92FX9A3E2GN605&workerId=A3EA4SHCLJ1UZQ&assignmentId=3H8DHMCCWAX7Q1P9EK2VNJO2WPJKDC&a=CH8H9&tp_a=CH8H9&b=3H8DHMCCWAX7Q1P9EK2VNJO2WPJKDC&tp_b=3H8DHMCCWAX7Q1P9EK2VNJO2WPJKDC&c=365799&tp_c=365799"},{"rt":6122,"stimulus":"\n                <p>Student 9's first guess for coin weight: <b style=\"color:Tomato\";>0.35</b></p>\n                <p>Student 9's second guess for coin weight: <b style=\"color:Tomato\";>0.26</b></p>\n                <p>You received a bonus of <b>$0.00</b> based on the student's second guess.</p>\n                <p>Total bonus so far: <b>$0.64</b></p>\n                <p>Press any key to continue.</p>\n                ","response":" ","trial_type":"html-keyboard-response","trial_index":76,"time_elapsed":850255,"internal_node_id":"0.0-75.0","params":{"nStudents":24,"maxFlips":30,"completionMinutes":45,"basePay":8,"maxBonus":9,"perTrialBonus":0.5,"perTrialBonusThreshold":0.05,"exampleCost":0.01},"classroomParams":{"A":{"a":1,"b":4},"B":{"a":4,"b":1},"C":{"a":2,"b":8},"D":{"a":8,"b":2}},"conditions":["nonSeqFull","nonSeqPartial","seqNoFeedback","seqFeedback"],"classroomPairings":[["A","B"],["C","D"]],"coinWeights":[0.2,0.5,0.8],"subjectId":"A3EA4SHCLJ1UZQ","assignmentId":"3H8DHMCCWAX7Q1P9EK2VNJO2WPJKDC","hitId":"3NI0WFPPI9246I5W92FX9A3E2GN605","url":"https://gershmanlab.com/experiments/alicia/teaching/experiment/?hitId=3NI0WFPPI9246I5W92FX9A3E2GN605&workerId=A3EA4SHCLJ1UZQ&assignmentId=3H8DHMCCWAX7Q1P9EK2VNJO2WPJKDC&a=CH8H9&tp_a=CH8H9&b=3H8DHMCCWAX7Q1P9EK2VNJO2WPJKDC&tp_b=3H8DHMCCWAX7Q1P9EK2VNJO2WPJKDC&c=365799&tp_c=365799"},{"rt":null,"stimulus":"<div style=\"font-size:60px;\">Next student</div>","response":null,"trial_type":"html-keyboard-response","trial_index":77,"time_elapsed":852508,"internal_node_id":"0.0-76.0-0.0","params":{"nStudents":24,"maxFlips":30,"completionMinutes":45,"basePay":8,"maxBonus":9,"perTrialBonus":0.5,"perTrialBonusThreshold":0.05,"exampleCost":0.01},"classroomParams":{"A":{"a":1,"b":4},"B":{"a":4,"b":1},"C":{"a":2,"b":8},"D":{"a":8,"b":2}},"conditions":["nonSeqFull","nonSeqPartial","seqNoFeedback","seqFeedback"],"classroomPairings":[["A","B"],["C","D"]],"coinWeights":[0.2,0.5,0.8],"subjectId":"A3EA4SHCLJ1UZQ","assignmentId":"3H8DHMCCWAX7Q1P9EK2VNJO2WPJKDC","hitId":"3NI0WFPPI9246I5W92FX9A3E2GN605","url":"https://gershmanlab.com/experiments/alicia/teaching/experiment/?hitId=3NI0WFPPI9246I5W92FX9A3E2GN605&workerId=A3EA4SHCLJ1UZQ&assignmentId=3H8DHMCCWAX7Q1P9EK2VNJO2WPJKDC&a=CH8H9&tp_a=CH8H9&b=3H8DHMCCWAX7Q1P9EK2VNJO2WPJKDC&tp_b=3H8DHMCCWAX7Q1P9EK2VNJO2WPJKDC&c=365799&tp_c=365799"},{"rt":1486,"stimulus":"\n            <h4 style=\"color:Orange;\">Student 10</h4>\n            <h2>The weight of your coin is <b style=\"color:Tomato;\">0.5</b>.</h2>\n            <p>In this block, you will be giving <b>one</b> set of examples to Student 10.</p>\n                <p>You will receive feedback at the end of the block.</p>\n            <p></p>","response":0,"trial_type":"html-button-response","trial_index":78,"time_elapsed":853995,"internal_node_id":"0.0-77.0","params":{"nStudents":24,"maxFlips":30,"completionMinutes":45,"basePay":8,"maxBonus":9,"perTrialBonus":0.5,"perTrialBonusThreshold":0.05,"exampleCost":0.01},"classroomParams":{"A":{"a":1,"b":4},"B":{"a":4,"b":1},"C":{"a":2,"b":8},"D":{"a":8,"b":2}},"conditions":["nonSeqFull","nonSeqPartial","seqNoFeedback","seqFeedback"],"classroomPairings":[["A","B"],["C","D"]],"coinWeights":[0.2,0.5,0.8],"subjectId":"A3EA4SHCLJ1UZQ","assignmentId":"3H8DHMCCWAX7Q1P9EK2VNJO2WPJKDC","hitId":"3NI0WFPPI9246I5W92FX9A3E2GN605","url":"https://gershmanlab.com/experiments/alicia/teaching/experiment/?hitId=3NI0WFPPI9246I5W92FX9A3E2GN605&workerId=A3EA4SHCLJ1UZQ&assignmentId=3H8DHMCCWAX7Q1P9EK2VNJO2WPJKDC&a=CH8H9&tp_a=CH8H9&b=3H8DHMCCWAX7Q1P9EK2VNJO2WPJKDC&tp_b=3H8DHMCCWAX7Q1P9EK2VNJO2WPJKDC&c=365799&tp_c=365799"},{"rt":15399,"response":{"heads":"1","tails":"1"},"type":"response","condition":"nonSeqFull","trueTheta":0.5,"classrooms":["A","B"],"studentTrueClassroom":"B","exampleSet":"first","trial_type":"survey-html-form","trial_index":79,"time_elapsed":869394,"internal_node_id":"0.0-78.0-0.0","params":{"nStudents":24,"maxFlips":30,"completionMinutes":45,"basePay":8,"maxBonus":9,"perTrialBonus":0.5,"perTrialBonusThreshold":0.05,"exampleCost":0.01},"classroomParams":{"A":{"a":1,"b":4},"B":{"a":4,"b":1},"C":{"a":2,"b":8},"D":{"a":8,"b":2}},"conditions":["nonSeqFull","nonSeqPartial","seqNoFeedback","seqFeedback"],"classroomPairings":[["A","B"],["C","D"]],"coinWeights":[0.2,0.5,0.8],"subjectId":"A3EA4SHCLJ1UZQ","assignmentId":"3H8DHMCCWAX7Q1P9EK2VNJO2WPJKDC","hitId":"3NI0WFPPI9246I5W92FX9A3E2GN605","url":"https://gershmanlab.com/experiments/alicia/teaching/experiment/?hitId=3NI0WFPPI9246I5W92FX9A3E2GN605&workerId=A3EA4SHCLJ1UZQ&assignmentId=3H8DHMCCWAX7Q1P9EK2VNJO2WPJKDC&a=CH8H9&tp_a=CH8H9&b=3H8DHMCCWAX7Q1P9EK2VNJO2WPJKDC&tp_b=3H8DHMCCWAX7Q1P9EK2VNJO2WPJKDC&c=365799&tp_c=365799","heads":1,"tails":1,"studentIndex":9,"studentTrueHypers":{"a":4,"b":1},"studentGuess":0.7142857142857143,"delta":0.2142857142857143,"totalExamples":2,"bonus":0,"bonusSoFar":0.64},{"rt":null,"stimulus":"Sending examples to student... ","response":null,"trial_type":"html-keyboard-response","trial_index":80,"time_elapsed":870899,"internal_node_id":"0.0-79.0","params":{"nStudents":24,"maxFlips":30,"completionMinutes":45,"basePay":8,"maxBonus":9,"perTrialBonus":0.5,"perTrialBonusThreshold":0.05,"exampleCost":0.01},"classroomParams":{"A":{"a":1,"b":4},"B":{"a":4,"b":1},"C":{"a":2,"b":8},"D":{"a":8,"b":2}},"conditions":["nonSeqFull","nonSeqPartial","seqNoFeedback","seqFeedback"],"classroomPairings":[["A","B"],["C","D"]],"coinWeights":[0.2,0.5,0.8],"subjectId":"A3EA4SHCLJ1UZQ","assignmentId":"3H8DHMCCWAX7Q1P9EK2VNJO2WPJKDC","hitId":"3NI0WFPPI9246I5W92FX9A3E2GN605","url":"https://gershmanlab.com/experiments/alicia/teaching/experiment/?hitId=3NI0WFPPI9246I5W92FX9A3E2GN605&workerId=A3EA4SHCLJ1UZQ&assignmentId=3H8DHMCCWAX7Q1P9EK2VNJO2WPJKDC&a=CH8H9&tp_a=CH8H9&b=3H8DHMCCWAX7Q1P9EK2VNJO2WPJKDC&tp_b=3H8DHMCCWAX7Q1P9EK2VNJO2WPJKDC&c=365799&tp_c=365799"},{"rt":null,"stimulus":"Examples sent to student! Waiting for student...","response":null,"trial_type":"html-keyboard-response","trial_index":81,"time_elapsed":874901,"internal_node_id":"0.0-80.0","params":{"nStudents":24,"maxFlips":30,"completionMinutes":45,"basePay":8,"maxBonus":9,"perTrialBonus":0.5,"perTrialBonusThreshold":0.05,"exampleCost":0.01},"classroomParams":{"A":{"a":1,"b":4},"B":{"a":4,"b":1},"C":{"a":2,"b":8},"D":{"a":8,"b":2}},"conditions":["nonSeqFull","nonSeqPartial","seqNoFeedback","seqFeedback"],"classroomPairings":[["A","B"],["C","D"]],"coinWeights":[0.2,0.5,0.8],"subjectId":"A3EA4SHCLJ1UZQ","assignmentId":"3H8DHMCCWAX7Q1P9EK2VNJO2WPJKDC","hitId":"3NI0WFPPI9246I5W92FX9A3E2GN605","url":"https://gershmanlab.com/experiments/alicia/teaching/experiment/?hitId=3NI0WFPPI9246I5W92FX9A3E2GN605&workerId=A3EA4SHCLJ1UZQ&assignmentId=3H8DHMCCWAX7Q1P9EK2VNJO2WPJKDC&a=CH8H9&tp_a=CH8H9&b=3H8DHMCCWAX7Q1P9EK2VNJO2WPJKDC&tp_b=3H8DHMCCWAX7Q1P9EK2VNJO2WPJKDC&c=365799&tp_c=365799"},{"rt":2200,"stimulus":"\n                <p>Student's guess for coin weight: <b style=\"color:Tomato;\">0.71</b></p>\n                <p>You received a bonus of <b>$0</b>. Total bonus so far: <b>$0.64</b></b></p>\n                <p></p>\n                <p>Press any key to continue.</p>\n                ","response":" ","trial_type":"html-keyboard-response","trial_index":82,"time_elapsed":877102,"internal_node_id":"0.0-81.0","params":{"nStudents":24,"maxFlips":30,"completionMinutes":45,"basePay":8,"maxBonus":9,"perTrialBonus":0.5,"perTrialBonusThreshold":0.05,"exampleCost":0.01},"classroomParams":{"A":{"a":1,"b":4},"B":{"a":4,"b":1},"C":{"a":2,"b":8},"D":{"a":8,"b":2}},"conditions":["nonSeqFull","nonSeqPartial","seqNoFeedback","seqFeedback"],"classroomPairings":[["A","B"],["C","D"]],"coinWeights":[0.2,0.5,0.8],"subjectId":"A3EA4SHCLJ1UZQ","assignmentId":"3H8DHMCCWAX7Q1P9EK2VNJO2WPJKDC","hitId":"3NI0WFPPI9246I5W92FX9A3E2GN605","url":"https://gershmanlab.com/experiments/alicia/teaching/experiment/?hitId=3NI0WFPPI9246I5W92FX9A3E2GN605&workerId=A3EA4SHCLJ1UZQ&assignmentId=3H8DHMCCWAX7Q1P9EK2VNJO2WPJKDC&a=CH8H9&tp_a=CH8H9&b=3H8DHMCCWAX7Q1P9EK2VNJO2WPJKDC&tp_b=3H8DHMCCWAX7Q1P9EK2VNJO2WPJKDC&c=365799&tp_c=365799"},{"rt":null,"stimulus":"<div style=\"font-size:60px;\">Next student</div>","response":null,"trial_type":"html-keyboard-response","trial_index":83,"time_elapsed":880047,"internal_node_id":"0.0-82.0-0.0","params":{"nStudents":24,"maxFlips":30,"completionMinutes":45,"basePay":8,"maxBonus":9,"perTrialBonus":0.5,"perTrialBonusThreshold":0.05,"exampleCost":0.01},"classroomParams":{"A":{"a":1,"b":4},"B":{"a":4,"b":1},"C":{"a":2,"b":8},"D":{"a":8,"b":2}},"conditions":["nonSeqFull","nonSeqPartial","seqNoFeedback","seqFeedback"],"classroomPairings":[["A","B"],["C","D"]],"coinWeights":[0.2,0.5,0.8],"subjectId":"A3EA4SHCLJ1UZQ","assignmentId":"3H8DHMCCWAX7Q1P9EK2VNJO2WPJKDC","hitId":"3NI0WFPPI9246I5W92FX9A3E2GN605","url":"https://gershmanlab.com/experiments/alicia/teaching/experiment/?hitId=3NI0WFPPI9246I5W92FX9A3E2GN605&workerId=A3EA4SHCLJ1UZQ&assignmentId=3H8DHMCCWAX7Q1P9EK2VNJO2WPJKDC&a=CH8H9&tp_a=CH8H9&b=3H8DHMCCWAX7Q1P9EK2VNJO2WPJKDC&tp_b=3H8DHMCCWAX7Q1P9EK2VNJO2WPJKDC&c=365799&tp_c=365799"},{"rt":3147,"stimulus":"\n            <h4 style=\"color:Orange;\">Student 11</h4>\n            <h2>The weight of your coin is <b style=\"color:Tomato;\">0.5</b>.</h2>\n            <p>In this block, you will be giving <b>one</b> set of examples to Student 11.</p>\n                <p>You will receive feedback at the end of the block.</p>\n            <p></p>","response":0,"trial_type":"html-button-response","trial_index":84,"time_elapsed":883195,"internal_node_id":"0.0-83.0","params":{"nStudents":24,"maxFlips":30,"completionMinutes":45,"basePay":8,"maxBonus":9,"perTrialBonus":0.5,"perTrialBonusThreshold":0.05,"exampleCost":0.01},"classroomParams":{"A":{"a":1,"b":4},"B":{"a":4,"b":1},"C":{"a":2,"b":8},"D":{"a":8,"b":2}},"conditions":["nonSeqFull","nonSeqPartial","seqNoFeedback","seqFeedback"],"classroomPairings":[["A","B"],["C","D"]],"coinWeights":[0.2,0.5,0.8],"subjectId":"A3EA4SHCLJ1UZQ","assignmentId":"3H8DHMCCWAX7Q1P9EK2VNJO2WPJKDC","hitId":"3NI0WFPPI9246I5W92FX9A3E2GN605","url":"https://gershmanlab.com/experiments/alicia/teaching/experiment/?hitId=3NI0WFPPI9246I5W92FX9A3E2GN605&workerId=A3EA4SHCLJ1UZQ&assignmentId=3H8DHMCCWAX7Q1P9EK2VNJO2WPJKDC&a=CH8H9&tp_a=CH8H9&b=3H8DHMCCWAX7Q1P9EK2VNJO2WPJKDC&tp_b=3H8DHMCCWAX7Q1P9EK2VNJO2WPJKDC&c=365799&tp_c=365799"},{"rt":12132,"response":{"heads":"8","tails":"8"},"type":"response","condition":"nonSeqPartial","trueTheta":0.5,"classrooms":["C","D"],"studentTrueClassroom":"C","exampleSet":"first","trial_type":"survey-html-form","trial_index":85,"time_elapsed":895328,"internal_node_id":"0.0-84.0-0.0","params":{"nStudents":24,"maxFlips":30,"completionMinutes":45,"basePay":8,"maxBonus":9,"perTrialBonus":0.5,"perTrialBonusThreshold":0.05,"e