[{"rt":2037,"stimulus":"Welcome to the experiment. Press any key to begin.","response":" ","trial_type":"html-keyboard-response","trial_index":0,"time_elapsed":2053,"internal_node_id":"0.0-0.0","params":{"nStudents":24,"maxFlips":30,"completionMinutes":45,"basePay":8,"maxBonus":9,"perTrialBonus":0.5,"perTrialBonusThreshold":0.05,"exampleCost":0.01},"classroomParams":{"A":{"a":1,"b":4},"B":{"a":4,"b":1},"C":{"a":2,"b":8},"D":{"a":8,"b":2}},"conditions":["nonSeqFull","nonSeqPartial","seqNoFeedback","seqFeedback"],"classroomPairings":[["A","B"],["C","D"]],"coinWeights":[0.2,0.5,0.8],"subjectId":"A3EU8ENRH654SB","assignmentId":"3HL8HNGX46NK7PKE1T6WLAD7X8NF9O","hitId":"32TZXEA1OL6QYKM0MXQIQH2ABHN14I","url":"https://gershmanlab.com/experiments/alicia/teaching/experiment/?hitId=32TZXEA1OL6QYKM0MXQIQH2ABHN14I&workerId=A3EU8ENRH654SB&assignmentId=3HL8HNGX46NK7PKE1T6WLAD7X8NF9O&a=XHLH9&tp_a=XHLH9&b=3HL8HNGX46NK7PKE1T6WLAD7X8NF9O&tp_b=3HL8HNGX46NK7PKE1T6WLAD7X8NF9O&c=365799&tp_c=365799"},{"rt":19306,"stimulus":"\n        <h3>Please read this consent agreement carefully before deciding whether to participate in this experiment.</h3>\n        <p><b>Purpose of the research:</b> To examine how people teach effectively.</p>\n        <p><b>What you will do in this research:</b> You will teach students the weights of different coins.</p>\n        <p><b>Time required:</b> This experiment will take 45 minutes to complete.</p>\n        <p><b>Risks:</b> There are no anticipated risks associated with participating in this study.             The effects of participating should be comparable to those you would experience from viewing a computer monitor             and using a mouse and keyboard for the duration of the experiment.</p>\n        <p><b>Benefits:</b> The study provides important information about the nature of teaching.</p>\n        <p><b>Compensation:</b> You will receive <b>$8</b> for completing the experiment and a performance bonus of up to <b>$9</b>.</p>\n        <p><b>Confidentiality:</b> Your participation in this study will remain confidential.             No personally identifiable information will be associated with your data.             Your de-identified data may be shared with other researchers and used in future projects.</p>\n        <p><b>Participation and withdrawal:</b> Your participation in this study is completely voluntary and             you may refuse to participate or you may choose to withdraw at any time without penalty or loss of\n            benefits to which you are otherwise entitled.</p>\n        <p><b>How to contact the researcher:</b> If you have questions or concerns about your participation            or payment, or want to request a summary of research findings, please contact\n            Alicia Chen, aliciachen@college.harvard.edu.</p>\n        <p><b>Whom to contact about your rights in this research:</b> For questions, concerns, suggestions,             or complaints that have not been or cannot be addressed by the researcher, or to report             research-related harm, please contact the Committee on the Use of Human Subjects in Research at Harvard University,             1414 Massachusetts Avenue, Second Floor, Cambridge, MA 02138. Phone: 617-496-2847. Email: cuhs@fas.harvard.edu.</p>\n        ","response":0,"trial_type":"html-button-response","trial_index":1,"time_elapsed":21361,"internal_node_id":"0.0-1.0","params":{"nStudents":24,"maxFlips":30,"completionMinutes":45,"basePay":8,"maxBonus":9,"perTrialBonus":0.5,"perTrialBonusThreshold":0.05,"exampleCost":0.01},"classroomParams":{"A":{"a":1,"b":4},"B":{"a":4,"b":1},"C":{"a":2,"b":8},"D":{"a":8,"b":2}},"conditions":["nonSeqFull","nonSeqPartial","seqNoFeedback","seqFeedback"],"classroomPairings":[["A","B"],["C","D"]],"coinWeights":[0.2,0.5,0.8],"subjectId":"A3EU8ENRH654SB","assignmentId":"3HL8HNGX46NK7PKE1T6WLAD7X8NF9O","hitId":"32TZXEA1OL6QYKM0MXQIQH2ABHN14I","url":"https://gershmanlab.com/experiments/alicia/teaching/experiment/?hitId=32TZXEA1OL6QYKM0MXQIQH2ABHN14I&workerId=A3EU8ENRH654SB&assignmentId=3HL8HNGX46NK7PKE1T6WLAD7X8NF9O&a=XHLH9&tp_a=XHLH9&b=3HL8HNGX46NK7PKE1T6WLAD7X8NF9O&tp_b=3HL8HNGX46NK7PKE1T6WLAD7X8NF9O&c=365799&tp_c=365799"},{"view_history":[{"page_index":0,"viewing_time":6131},{"page_index":1,"viewing_time":8783},{"page_index":2,"viewing_time":38517},{"page_index":3,"viewing_time":29265},{"page_index":4,"viewing_time":24600},{"page_index":5,"viewing_time":34066},{"page_index":6,"viewing_time":36336}],"rt":177698,"trial_type":"instructions","trial_index":2,"time_elapsed":199061,"internal_node_id":"0.0-2.0-0.0","params":{"nStudents":24,"maxFlips":30,"completionMinutes":45,"basePay":8,"maxBonus":9,"perTrialBonus":0.5,"perTrialBonusThreshold":0.05,"exampleCost":0.01},"classroomParams":{"A":{"a":1,"b":4},"B":{"a":4,"b":1},"C":{"a":2,"b":8},"D":{"a":8,"b":2}},"conditions":["nonSeqFull","nonSeqPartial","seqNoFeedback","seqFeedback"],"classroomPairings":[["A","B"],["C","D"]],"coinWeights":[0.2,0.5,0.8],"subjectId":"A3EU8ENRH654SB","assignmentId":"3HL8HNGX46NK7PKE1T6WLAD7X8NF9O","hitId":"32TZXEA1OL6QYKM0MXQIQH2ABHN14I","url":"https://gershmanlab.com/experiments/alicia/teaching/experiment/?hitId=32TZXEA1OL6QYKM0MXQIQH2ABHN14I&workerId=A3EU8ENRH654SB&assignmentId=3HL8HNGX46NK7PKE1T6WLAD7X8NF9O&a=XHLH9&tp_a=XHLH9&b=3HL8HNGX46NK7PKE1T6WLAD7X8NF9O&tp_b=3HL8HNGX46NK7PKE1T6WLAD7X8NF9O&c=365799&tp_c=365799"},{"rt":218498,"response":{"Q0":"Students in different classrooms will have seen a different number of heads and tails before seeing the examples you select for them.","Q1":"By <b>considering the student's classroom information</b> so that I can teach efficiently and accurately/helpfully at the same time (because each example I give to the student costs money!).","Q2":"The coin lands heads 90% of the time.","Q3":"No, I will teach a <b>new</b> student each time.","Q4":"The students are also on the same alien planet as you, where coins can be unfair.","Q5":"Based on the student's second (and final) guess."},"question_order":[4,0,2,1,5,3],"trial_type":"survey-multi-choice","trial_index":3,"time_elapsed":417558,"internal_node_id":"0.0-2.0-1.0","params":{"nStudents":24,"maxFlips":30,"completionMinutes":45,"basePay":8,"maxBonus":9,"perTrialBonus":0.5,"perTrialBonusThreshold":0.05,"exampleCost":0.01},"classroomParams":{"A":{"a":1,"b":4},"B":{"a":4,"b":1},"C":{"a":2,"b":8},"D":{"a":8,"b":2}},"conditions":["nonSeqFull","nonSeqPartial","seqNoFeedback","seqFeedback"],"classroomPairings":[["A","B"],["C","D"]],"coinWeights":[0.2,0.5,0.8],"subjectId":"A3EU8ENRH654SB","assignmentId":"3HL8HNGX46NK7PKE1T6WLAD7X8NF9O","hitId":"32TZXEA1OL6QYKM0MXQIQH2ABHN14I","url":"https://gershmanlab.com/experiments/alicia/teaching/experiment/?hitId=32TZXEA1OL6QYKM0MXQIQH2ABHN14I&workerId=A3EU8ENRH654SB&assignmentId=3HL8HNGX46NK7PKE1T6WLAD7X8NF9O&a=XHLH9&tp_a=XHLH9&b=3HL8HNGX46NK7PKE1T6WLAD7X8NF9O&tp_b=3HL8HNGX46NK7PKE1T6WLAD7X8NF9O&c=365799&tp_c=365799","pass":true},{"rt":null,"stimulus":"<div style=\"font-size:30px;\">Congrats on passing the comprehension quiz! The experiment will begin in a few seconds.</div>","response":null,"trial_type":"html-keyboard-response","trial_index":4,"time_elapsed":420564,"internal_node_id":"0.0-3.0","params":{"nStudents":24,"maxFlips":30,"completionMinutes":45,"basePay":8,"maxBonus":9,"perTrialBonus":0.5,"perTrialBonusThreshold":0.05,"exampleCost":0.01},"classroomParams":{"A":{"a":1,"b":4},"B":{"a":4,"b":1},"C":{"a":2,"b":8},"D":{"a":8,"b":2}},"conditions":["nonSeqFull","nonSeqPartial","seqNoFeedback","seqFeedback"],"classroomPairings":[["A","B"],["C","D"]],"coinWeights":[0.2,0.5,0.8],"subjectId":"A3EU8ENRH654SB","assignmentId":"3HL8HNGX46NK7PKE1T6WLAD7X8NF9O","hitId":"32TZXEA1OL6QYKM0MXQIQH2ABHN14I","url":"https://gershmanlab.com/experiments/alicia/teaching/experiment/?hitId=32TZXEA1OL6QYKM0MXQIQH2ABHN14I&workerId=A3EU8ENRH654SB&assignmentId=3HL8HNGX46NK7PKE1T6WLAD7X8NF9O&a=XHLH9&tp_a=XHLH9&b=3HL8HNGX46NK7PKE1T6WLAD7X8NF9O&tp_b=3HL8HNGX46NK7PKE1T6WLAD7X8NF9O&c=365799&tp_c=365799"},{"rt":null,"stimulus":"<div style=\"font-size:50px;\">First student</div>","response":null,"trial_type":"html-keyboard-response","trial_index":5,"time_elapsed":423580,"internal_node_id":"0.0-4.0","params":{"nStudents":24,"maxFlips":30,"completionMinutes":45,"basePay":8,"maxBonus":9,"perTrialBonus":0.5,"perTrialBonusThreshold":0.05,"exampleCost":0.01},"classroomParams":{"A":{"a":1,"b":4},"B":{"a":4,"b":1},"C":{"a":2,"b":8},"D":{"a":8,"b":2}},"conditions":["nonSeqFull","nonSeqPartial","seqNoFeedback","seqFeedback"],"classroomPairings":[["A","B"],["C","D"]],"coinWeights":[0.2,0.5,0.8],"subjectId":"A3EU8ENRH654SB","assignmentId":"3HL8HNGX46NK7PKE1T6WLAD7X8NF9O","hitId":"32TZXEA1OL6QYKM0MXQIQH2ABHN14I","url":"https://gershmanlab.com/experiments/alicia/teaching/experiment/?hitId=32TZXEA1OL6QYKM0MXQIQH2ABHN14I&workerId=A3EU8ENRH654SB&assignmentId=3HL8HNGX46NK7PKE1T6WLAD7X8NF9O&a=XHLH9&tp_a=XHLH9&b=3HL8HNGX46NK7PKE1T6WLAD7X8NF9O&tp_b=3HL8HNGX46NK7PKE1T6WLAD7X8NF9O&c=365799&tp_c=365799"},{"rt":19942,"stimulus":"\n            <h4 style=\"color:Orange;\">Student 1</h4>\n            <h2>The weight of your coin is <b style=\"color:Tomato;\">0.2</b>.</h2>\n            <p>In this block, you will be giving <b>one</b> set of examples to Student 1.</p>\n                <p>You will receive feedback at the end of the block.</p>\n            <p></p>","response":0,"trial_type":"html-button-response","trial_index":6,"time_elapsed":443527,"internal_node_id":"0.0-5.0","params":{"nStudents":24,"maxFlips":30,"completionMinutes":45,"basePay":8,"maxBonus":9,"perTrialBonus":0.5,"perTrialBonusThreshold":0.05,"exampleCost":0.01},"classroomParams":{"A":{"a":1,"b":4},"B":{"a":4,"b":1},"C":{"a":2,"b":8},"D":{"a":8,"b":2}},"conditions":["nonSeqFull","nonSeqPartial","seqNoFeedback","seqFeedback"],"classroomPairings":[["A","B"],["C","D"]],"coinWeights":[0.2,0.5,0.8],"subjectId":"A3EU8ENRH654SB","assignmentId":"3HL8HNGX46NK7PKE1T6WLAD7X8NF9O","hitId":"32TZXEA1OL6QYKM0MXQIQH2ABHN14I","url":"https://gershmanlab.com/experiments/alicia/teaching/experiment/?hitId=32TZXEA1OL6QYKM0MXQIQH2ABHN14I&workerId=A3EU8ENRH654SB&assignmentId=3HL8HNGX46NK7PKE1T6WLAD7X8NF9O&a=XHLH9&tp_a=XHLH9&b=3HL8HNGX46NK7PKE1T6WLAD7X8NF9O&tp_b=3HL8HNGX46NK7PKE1T6WLAD7X8NF9O&c=365799&tp_c=365799"},{"rt":109630,"response":{"heads":"1","tails":"5"},"type":"response","condition":"nonSeqFull","trueTheta":0.2,"classrooms":["C","D"],"studentTrueClassroom":"C","exampleSet":"first","trial_type":"survey-html-form","trial_index":7,"time_elapsed":553156,"internal_node_id":"0.0-6.0-0.0","params":{"nStudents":24,"maxFlips":30,"completionMinutes":45,"basePay":8,"maxBonus":9,"perTrialBonus":0.5,"perTrialBonusThreshold":0.05,"exampleCost":0.01},"classroomParams":{"A":{"a":1,"b":4},"B":{"a":4,"b":1},"C":{"a":2,"b":8},"D":{"a":8,"b":2}},"conditions":["nonSeqFull","nonSeqPartial","seqNoFeedback","seqFeedback"],"classroomPairings":[["A","B"],["C","D"]],"coinWeights":[0.2,0.5,0.8],"subjectId":"A3EU8ENRH654SB","assignmentId":"3HL8HNGX46NK7PKE1T6WLAD7X8NF9O","hitId":"32TZXEA1OL6QYKM0MXQIQH2ABHN14I","url":"https://gershmanlab.com/experiments/alicia/teaching/experiment/?hitId=32TZXEA1OL6QYKM0MXQIQH2ABHN14I&workerId=A3EU8ENRH654SB&assignmentId=3HL8HNGX46NK7PKE1T6WLAD7X8NF9O&a=XHLH9&tp_a=XHLH9&b=3HL8HNGX46NK7PKE1T6WLAD7X8NF9O&tp_b=3HL8HNGX46NK7PKE1T6WLAD7X8NF9O&c=365799&tp_c=365799","heads":1,"tails":5,"studentIndex":0,"studentTrueHypers":{"a":2,"b":8},"studentGuess":0.1875,"delta":0.012500000000000011,"totalExamples":6,"bonus":0.44,"bonusSoFar":0.44},{"rt":null,"stimulus":"Sending examples to student... ","response":null,"trial_type":"html-keyboard-response","trial_index":8,"time_elapsed":554674,"internal_node_id":"0.0-7.0","params":{"nStudents":24,"maxFlips":30,"completionMinutes":45,"basePay":8,"maxBonus":9,"perTrialBonus":0.5,"perTrialBonusThreshold":0.05,"exampleCost":0.01},"classroomParams":{"A":{"a":1,"b":4},"B":{"a":4,"b":1},"C":{"a":2,"b":8},"D":{"a":8,"b":2}},"conditions":["nonSeqFull","nonSeqPartial","seqNoFeedback","seqFeedback"],"classroomPairings":[["A","B"],["C","D"]],"coinWeights":[0.2,0.5,0.8],"subjectId":"A3EU8ENRH654SB","assignmentId":"3HL8HNGX46NK7PKE1T6WLAD7X8NF9O","hitId":"32TZXEA1OL6QYKM0MXQIQH2ABHN14I","url":"https://gershmanlab.com/experiments/alicia/teaching/experiment/?hitId=32TZXEA1OL6QYKM0MXQIQH2ABHN14I&workerId=A3EU8ENRH654SB&assignmentId=3HL8HNGX46NK7PKE1T6WLAD7X8NF9O&a=XHLH9&tp_a=XHLH9&b=3HL8HNGX46NK7PKE1T6WLAD7X8NF9O&tp_b=3HL8HNGX46NK7PKE1T6WLAD7X8NF9O&c=365799&tp_c=365799"},{"rt":null,"stimulus":"Examples sent to student! Waiting for student...","response":null,"trial_type":"html-keyboard-response","trial_index":9,"time_elapsed":560682,"internal_node_id":"0.0-8.0","params":{"nStudents":24,"maxFlips":30,"completionMinutes":45,"basePay":8,"maxBonus":9,"perTrialBonus":0.5,"perTrialBonusThreshold":0.05,"exampleCost":0.01},"classroomParams":{"A":{"a":1,"b":4},"B":{"a":4,"b":1},"C":{"a":2,"b":8},"D":{"a":8,"b":2}},"conditions":["nonSeqFull","nonSeqPartial","seqNoFeedback","seqFeedback"],"classroomPairings":[["A","B"],["C","D"]],"coinWeights":[0.2,0.5,0.8],"subjectId":"A3EU8ENRH654SB","assignmentId":"3HL8HNGX46NK7PKE1T6WLAD7X8NF9O","hitId":"32TZXEA1OL6QYKM0MXQIQH2ABHN14I","url":"https://gershmanlab.com/experiments/alicia/teaching/experiment/?hitId=32TZXEA1OL6QYKM0MXQIQH2ABHN14I&workerId=A3EU8ENRH654SB&assignmentId=3HL8HNGX46NK7PKE1T6WLAD7X8NF9O&a=XHLH9&tp_a=XHLH9&b=3HL8HNGX46NK7PKE1T6WLAD7X8NF9O&tp_b=3HL8HNGX46NK7PKE1T6WLAD7X8NF9O&c=365799&tp_c=365799"},{"rt":5416,"stimulus":"\n                <p>Student's guess for coin weight: <b style=\"color:Tomato;\">0.19</b></p>\n                <p>You received a bonus of <b>$0.44</b>. Total bonus so far: <b>$0.44</b></b></p>\n                <p></p>\n                <p>Press any key to continue.</p>\n                ","response":" ","trial_type":"html-keyboard-response","trial_index":10,"time_elapsed":566099,"internal_node_id":"0.0-9.0","params":{"nStudents":24,"maxFlips":30,"completionMinutes":45,"basePay":8,"maxBonus":9,"perTrialBonus":0.5,"perTrialBonusThreshold":0.05,"exampleCost":0.01},"classroomParams":{"A":{"a":1,"b":4},"B":{"a":4,"b":1},"C":{"a":2,"b":8},"D":{"a":8,"b":2}},"conditions":["nonSeqFull","nonSeqPartial","seqNoFeedback","seqFeedback"],"classroomPairings":[["A","B"],["C","D"]],"coinWeights":[0.2,0.5,0.8],"subjectId":"A3EU8ENRH654SB","assignmentId":"3HL8HNGX46NK7PKE1T6WLAD7X8NF9O","hitId":"32TZXEA1OL6QYKM0MXQIQH2ABHN14I","url":"https://gershmanlab.com/experiments/alicia/teaching/experiment/?hitId=32TZXEA1OL6QYKM0MXQIQH2ABHN14I&workerId=A3EU8ENRH654SB&assignmentId=3HL8HNGX46NK7PKE1T6WLAD7X8NF9O&a=XHLH9&tp_a=XHLH9&b=3HL8HNGX46NK7PKE1T6WLAD7X8NF9O&tp_b=3HL8HNGX46NK7PKE1T6WLAD7X8NF9O&c=365799&tp_c=365799"},{"rt":null,"stimulus":"<div style=\"font-size:60px;\">Next student</div>","response":null,"trial_type":"html-keyboard-response","trial_index":11,"time_elapsed":568616,"internal_node_id":"0.0-10.0-0.0","params":{"nStudents":24,"maxFlips":30,"completionMinutes":45,"basePay":8,"maxBonus":9,"perTrialBonus":0.5,"perTrialBonusThreshold":0.05,"exampleCost":0.01},"classroomParams":{"A":{"a":1,"b":4},"B":{"a":4,"b":1},"C":{"a":2,"b":8},"D":{"a":8,"b":2}},"conditions":["nonSeqFull","nonSeqPartial","seqNoFeedback","seqFeedback"],"classroomPairings":[["A","B"],["C","D"]],"coinWeights":[0.2,0.5,0.8],"subjectId":"A3EU8ENRH654SB","assignmentId":"3HL8HNGX46NK7PKE1T6WLAD7X8NF9O","hitId":"32TZXEA1OL6QYKM0MXQIQH2ABHN14I","url":"https://gershmanlab.com/experiments/alicia/teaching/experiment/?hitId=32TZXEA1OL6QYKM0MXQIQH2ABHN14I&workerId=A3EU8ENRH654SB&assignmentId=3HL8HNGX46NK7PKE1T6WLAD7X8NF9O&a=XHLH9&tp_a=XHLH9&b=3HL8HNGX46NK7PKE1T6WLAD7X8NF9O&tp_b=3HL8HNGX46NK7PKE1T6WLAD7X8NF9O&c=365799&tp_c=365799"},{"rt":13508,"stimulus":"\n            <h4 style=\"color:Orange;\">Student 2</h4>\n            <h2>The weight of your coin is <b style=\"color:Tomato;\">0.5</b>.</h2>\n            <p>In this block, you will be giving <b>two</b> sets of examples to Student 2.</p>\n                <p>You will see the student's guess after the first set of examples. You will also receive feedback at the end of the block.</p>\n            <p>To earn the highest bonus, you will have to <b>take into consideration the student's guess</b> when you choose your second set of examples.</p>","response":0,"trial_type":"html-button-response","trial_index":12,"time_elapsed":582125,"internal_node_id":"0.0-11.0","params":{"nStudents":24,"maxFlips":30,"completionMinutes":45,"basePay":8,"maxBonus":9,"perTrialBonus":0.5,"perTrialBonusThreshold":0.05,"exampleCost":0.01},"classroomParams":{"A":{"a":1,"b":4},"B":{"a":4,"b":1},"C":{"a":2,"b":8},"D":{"a":8,"b":2}},"conditions":["nonSeqFull","nonSeqPartial","seqNoFeedback","seqFeedback"],"classroomPairings":[["A","B"],["C","D"]],"coinWeights":[0.2,0.5,0.8],"subjectId":"A3EU8ENRH654SB","assignmentId":"3HL8HNGX46NK7PKE1T6WLAD7X8NF9O","hitId":"32TZXEA1OL6QYKM0MXQIQH2ABHN14I","url":"https://gershmanlab.com/experiments/alicia/teaching/experiment/?hitId=32TZXEA1OL6QYKM0MXQIQH2ABHN14I&workerId=A3EU8ENRH654SB&assignmentId=3HL8HNGX46NK7PKE1T6WLAD7X8NF9O&a=XHLH9&tp_a=XHLH9&b=3HL8HNGX46NK7PKE1T6WLAD7X8NF9O&tp_b=3HL8HNGX46NK7PKE1T6WLAD7X8NF9O&c=365799&tp_c=365799"},{"rt":23033,"response":{"heads":"1","tails":"1"},"type":"response","condition":"seqFeedback","trueTheta":0.5,"classrooms":["C","D"],"studentTrueClassroom":"C","exampleSet":"first","trial_type":"survey-html-form","trial_index":13,"time_elapsed":605159,"internal_node_id":"0.0-12.0-0.0","params":{"nStudents":24,"maxFlips":30,"completionMinutes":45,"basePay":8,"maxBonus":9,"perTrialBonus":0.5,"perTrialBonusThreshold":0.05,"exampleCost":0.01},"classroomParams":{"A":{"a":1,"b":4},"B":{"a":4,"b":1},"C":{"a":2,"b":8},"D":{"a":8,"b":2}},"conditions":["nonSeqFull","nonSeqPartial","seqNoFeedback","seqFeedback"],"classroomPairings":[["A","B"],["C","D"]],"coinWeights":[0.2,0.5,0.8],"subjectId":"A3EU8ENRH654SB","assignmentId":"3HL8HNGX46NK7PKE1T6WLAD7X8NF9O","hitId":"32TZXEA1OL6QYKM0MXQIQH2ABHN14I","url":"https://gershmanlab.com/experiments/alicia/teaching/experiment/?hitId=32TZXEA1OL6QYKM0MXQIQH2ABHN14I&workerId=A3EU8ENRH654SB&assignmentId=3HL8HNGX46NK7PKE1T6WLAD7X8NF9O&a=XHLH9&tp_a=XHLH9&b=3HL8HNGX46NK7PKE1T6WLAD7X8NF9O&tp_b=3HL8HNGX46NK7PKE1T6WLAD7X8NF9O&c=365799&tp_c=365799","heads":1,"tails":1,"studentIndex":1,"studentTrueHypers":{"a":2,"b":8},"studentGuess":0.25,"delta":0.25,"totalExamples":2,"bonusSoFar":0.44},{"rt":null,"stimulus":"Sending examples to student... ","response":null,"trial_type":"html-keyboard-response","trial_index":14,"time_elapsed":606677,"internal_node_id":"0.0-13.0","params":{"nStudents":24,"maxFlips":30,"completionMinutes":45,"basePay":8,"maxBonus":9,"perTrialBonus":0.5,"perTrialBonusThreshold":0.05,"exampleCost":0.01},"classroomParams":{"A":{"a":1,"b":4},"B":{"a":4,"b":1},"C":{"a":2,"b":8},"D":{"a":8,"b":2}},"conditions":["nonSeqFull","nonSeqPartial","seqNoFeedback","seqFeedback"],"classroomPairings":[["A","B"],["C","D"]],"coinWeights":[0.2,0.5,0.8],"subjectId":"A3EU8ENRH654SB","assignmentId":"3HL8HNGX46NK7PKE1T6WLAD7X8NF9O","hitId":"32TZXEA1OL6QYKM0MXQIQH2ABHN14I","url":"https://gershmanlab.com/experiments/alicia/teaching/experiment/?hitId=32TZXEA1OL6QYKM0MXQIQH2ABHN14I&workerId=A3EU8ENRH654SB&assignmentId=3HL8HNGX46NK7PKE1T6WLAD7X8NF9O&a=XHLH9&tp_a=XHLH9&b=3HL8HNGX46NK7PKE1T6WLAD7X8NF9O&tp_b=3HL8HNGX46NK7PKE1T6WLAD7X8NF9O&c=365799&tp_c=365799"},{"rt":null,"stimulus":"Examples sent to student! Waiting for student...","response":null,"trial_type":"html-keyboard-response","trial_index":15,"time_elapsed":611692,"internal_node_id":"0.0-14.0","params":{"nStudents":24,"maxFlips":30,"completionMinutes":45,"basePay":8,"maxBonus":9,"perTrialBonus":0.5,"perTrialBonusThreshold":0.05,"exampleCost":0.01},"classroomParams":{"A":{"a":1,"b":4},"B":{"a":4,"b":1},"C":{"a":2,"b":8},"D":{"a":8,"b":2}},"conditions":["nonSeqFull","nonSeqPartial","seqNoFeedback","seqFeedback"],"classroomPairings":[["A","B"],["C","D"]],"coinWeights":[0.2,0.5,0.8],"subjectId":"A3EU8ENRH654SB","assignmentId":"3HL8HNGX46NK7PKE1T6WLAD7X8NF9O","hitId":"32TZXEA1OL6QYKM0MXQIQH2ABHN14I","url":"https://gershmanlab.com/experiments/alicia/teaching/experiment/?hitId=32TZXEA1OL6QYKM0MXQIQH2ABHN14I&workerId=A3EU8ENRH654SB&assignmentId=3HL8HNGX46NK7PKE1T6WLAD7X8NF9O&a=XHLH9&tp_a=XHLH9&b=3HL8HNGX46NK7PKE1T6WLAD7X8NF9O&tp_b=3HL8HNGX46NK7PKE1T6WLAD7X8NF9O&c=365799&tp_c=365799"},{"rt":9451,"stimulus":"\n                <p>Student's guess for coin weight: <b style=\"color:Tomato;\">0.25</b></p>\n                <p></b></p>\n                <p>You will now send another set of examples to your student. <b>Remember to take your student's guess into consideration so that you can earn the highest bonus possible!</b> </p>\n                <p>Press any key to continue.</p>\n                ","response":" ","trial_type":"html-keyboard-response","trial_index":16,"time_elapsed":621145,"internal_node_id":"0.0-15.0","params":{"nStudents":24,"maxFlips":30,"completionMinutes":45,"basePay":8,"maxBonus":9,"perTrialBonus":0.5,"perTrialBonusThreshold":0.05,"exampleCost":0.01},"classroomParams":{"A":{"a":1,"b":4},"B":{"a":4,"b":1},"C":{"a":2,"b":8},"D":{"a":8,"b":2}},"conditions":["nonSeqFull","nonSeqPartial","seqNoFeedback","seqFeedback"],"classroomPairings":[["A","B"],["C","D"]],"coinWeights":[0.2,0.5,0.8],"subjectId":"A3EU8ENRH654SB","assignmentId":"3HL8HNGX46NK7PKE1T6WLAD7X8NF9O","hitId":"32TZXEA1OL6QYKM0MXQIQH2ABHN14I","url":"https://gershmanlab.com/experiments/alicia/teaching/experiment/?hitId=32TZXEA1OL6QYKM0MXQIQH2ABHN14I&workerId=A3EU8ENRH654SB&assignmentId=3HL8HNGX46NK7PKE1T6WLAD7X8NF9O&a=XHLH9&tp_a=XHLH9&b=3HL8HNGX46NK7PKE1T6WLAD7X8NF9O&tp_b=3HL8HNGX46NK7PKE1T6WLAD7X8NF9O&c=365799&tp_c=365799"},{"rt":135211,"response":{"heads":"3","tails":"1"},"type":"response","condition":"seqFeedback","trueTheta":0.5,"classrooms":["C","D"],"studentTrueClassroom":"C","exampleSet":"second","trial_type":"survey-html-form","trial_index":17,"time_elapsed":756359,"internal_node_id":"0.0-16.0-0.0","params":{"nStudents":24,"maxFlips":30,"completionMinutes":45,"basePay":8,"maxBonus":9,"perTrialBonus":0.5,"perTrialBonusThreshold":0.05,"exampleCost":0.01},"classroomParams":{"A":{"a":1,"b":4},"B":{"a":4,"b":1},"C":{"a":2,"b":8},"D":{"a":8,"b":2}},"conditions":["nonSeqFull","nonSeqPartial","seqNoFeedback","seqFeedback"],"classroomPairings":[["A","B"],["C","D"]],"coinWeights":[0.2,0.5,0.8],"subjectId":"A3EU8ENRH654SB","assignmentId":"3HL8HNGX46NK7PKE1T6WLAD7X8NF9O","hitId":"32TZXEA1OL6QYKM0MXQIQH2ABHN14I","url":"https://gershmanlab.com/experiments/alicia/teaching/experiment/?hitId=32TZXEA1OL6QYKM0MXQIQH2ABHN14I&workerId=A3EU8ENRH654SB&assignmentId=3HL8HNGX46NK7PKE1T6WLAD7X8NF9O&a=XHLH9&tp_a=XHLH9&b=3HL8HNGX46NK7PKE1T6WLAD7X8NF9O&tp_b=3HL8HNGX46NK7PKE1T6WLAD7X8NF9O&c=365799&tp_c=365799","firstResponseHeads":1,"firstResponseTails":1,"secondResponseHeads":3,"secondResponseTails":1,"totalHeads":4,"totalTails":2,"studentIndex":1,"studentTrueHypers":{"a":2,"b":8},"studentGuess":0.375,"delta":0.125,"bonus":0,"bonusSoFar":0.44,"totalExamples":6},{"rt":null,"stimulus":"Sending examples to student... ","response":null,"trial_type":"html-keyboard-response","trial_index":18,"time_elapsed":758365,"internal_node_id":"0.0-17.0","params":{"nStudents":24,"maxFlips":30,"completionMinutes":45,"basePay":8,"maxBonus":9,"perTrialBonus":0.5,"perTrialBonusThreshold":0.05,"exampleCost":0.01},"classroomParams":{"A":{"a":1,"b":4},"B":{"a":4,"b":1},"C":{"a":2,"b":8},"D":{"a":8,"b":2}},"conditions":["nonSeqFull","nonSeqPartial","seqNoFeedback","seqFeedback"],"classroomPairings":[["A","B"],["C","D"]],"coinWeights":[0.2,0.5,0.8],"subjectId":"A3EU8ENRH654SB","assignmentId":"3HL8HNGX46NK7PKE1T6WLAD7X8NF9O","hitId":"32TZXEA1OL6QYKM0MXQIQH2ABHN14I","url":"https://gershmanlab.com/experiments/alicia/teaching/experiment/?hitId=32TZXEA1OL6QYKM0MXQIQH2ABHN14I&workerId=A3EU8ENRH654SB&assignmentId=3HL8HNGX46NK7PKE1T6WLAD7X8NF9O&a=XHLH9&tp_a=XHLH9&b=3HL8HNGX46NK7PKE1T6WLAD7X8NF9O&tp_b=3HL8HNGX46NK7PKE1T6WLAD7X8NF9O&c=365799&tp_c=365799"},{"rt":null,"stimulus":"Examples sent to student! Waiting for student...","response":null,"trial_type":"html-keyboard-response","trial_index":19,"time_elapsed":763880,"internal_node_id":"0.0-18.0","params":{"nStudents":24,"maxFlips":30,"completionMinutes":45,"basePay":8,"maxBonus":9,"perTrialBonus":0.5,"perTrialBonusThreshold":0.05,"exampleCost":0.01},"classroomParams":{"A":{"a":1,"b":4},"B":{"a":4,"b":1},"C":{"a":2,"b":8},"D":{"a":8,"b":2}},"conditions":["nonSeqFull","nonSeqPartial","seqNoFeedback","seqFeedback"],"classroomPairings":[["A","B"],["C","D"]],"coinWeights":[0.2,0.5,0.8],"subjectId":"A3EU8ENRH654SB","assignmentId":"3HL8HNGX46NK7PKE1T6WLAD7X8NF9O","hitId":"32TZXEA1OL6QYKM0MXQIQH2ABHN14I","url":"https://gershmanlab.com/experiments/alicia/teaching/experiment/?hitId=32TZXEA1OL6QYKM0MXQIQH2ABHN14I&workerId=A3EU8ENRH654SB&assignmentId=3HL8HNGX46NK7PKE1T6WLAD7X8NF9O&a=XHLH9&tp_a=XHLH9&b=3HL8HNGX46NK7PKE1T6WLAD7X8NF9O&tp_b=3HL8HNGX46NK7PKE1T6WLAD7X8NF9O&c=365799&tp_c=365799"},{"rt":5567,"stimulus":"\n                <p>Student 2's first guess for coin weight: <b style=\"color:Tomato\";>0.25</b></p>\n                <p>Student 2's second guess for coin weight: <b style=\"color:Tomato\";>0.38</b></p>\n                <p>You received a bonus of <b>$0.00</b> based on the student's second guess.</p>\n                <p>Total bonus so far: <b>$0.44</b></p>\n                <p>Press any key to continue.</p>\n                ","response":"meta","trial_type":"html-keyboard-response","trial_index":20,"time_elapsed":769448,"internal_node_id":"0.0-19.0","params":{"nStudents":24,"maxFlips":30,"completionMinutes":45,"basePay":8,"maxBonus":9,"perTrialBonus":0.5,"perTrialBonusThreshold":0.05,"exampleCost":0.01},"classroomParams":{"A":{"a":1,"b":4},"B":{"a":4,"b":1},"C":{"a":2,"b":8},"D":{"a":8,"b":2}},"conditions":["nonSeqFull","nonSeqPartial","seqNoFeedback","seqFeedback"],"classroomPairings":[["A","B"],["C","D"]],"coinWeights":[0.2,0.5,0.8],"subjectId":"A3EU8ENRH654SB","assignmentId":"3HL8HNGX46NK7PKE1T6WLAD7X8NF9O","hitId":"32TZXEA1OL6QYKM0MXQIQH2ABHN14I","url":"https://gershmanlab.com/experiments/alicia/teaching/experiment/?hitId=32TZXEA1OL6QYKM0MXQIQH2ABHN14I&workerId=A3EU8ENRH654SB&assignmentId=3HL8HNGX46NK7PKE1T6WLAD7X8NF9O&a=XHLH9&tp_a=XHLH9&b=3HL8HNGX46NK7PKE1T6WLAD7X8NF9O&tp_b=3HL8HNGX46NK7PKE1T6WLAD7X8NF9O&c=365799&tp_c=365799"},{"rt":null,"stimulus":"<div style=\"font-size:60px;\">Next student</div>","response":null,"trial_type":"html-keyboard-response","trial_index":21,"time_elapsed":771715,"internal_node_id":"0.0-20.0-0.0","params":{"nStudents":24,"maxFlips":30,"completionMinutes":45,"basePay":8,"maxBonus":9,"perTrialBonus":0.5,"perTrialBonusThreshold":0.05,"exampleCost":0.01},"classroomParams":{"A":{"a":1,"b":4},"B":{"a":4,"b":1},"C":{"a":2,"b":8},"D":{"a":8,"b":2}},"conditions":["nonSeqFull","nonSeqPartial","seqNoFeedback","seqFeedback"],"classroomPairings":[["A","B"],["C","D"]],"coinWeights":[0.2,0.5,0.8],"subjectId":"A3EU8ENRH654SB","assignmentId":"3HL8HNGX46NK7PKE1T6WLAD7X8NF9O","hitId":"32TZXEA1OL6QYKM0MXQIQH2ABHN14I","url":"https://gershmanlab.com/experiments/alicia/teaching/experiment/?hitId=32TZXEA1OL6QYKM0MXQIQH2ABHN14I&workerId=A3EU8ENRH654SB&assignmentId=3HL8HNGX46NK7PKE1T6WLAD7X8NF9O&a=XHLH9&tp_a=XHLH9&b=3HL8HNGX46NK7PKE1T6WLAD7X8NF9O&tp_b=3HL8HNGX46NK7PKE1T6WLAD7X8NF9O&c=365799&tp_c=365799"},{"rt":21491,"stimulus":"\n            <h4 style=\"color:Orange;\">Student 3</h4>\n            <h2>The weight of your coin is <b style=\"color:Tomato;\">0.5</b>.</h2>\n            <p>In this block, you will be giving <b>two</b> sets of examples to Student 3.</p>\n                <p>You will see the student's guess after the first set of examples. You will also receive feedback at the end of the block.</p>\n            <p>To earn the highest bonus, you will have to <b>take into consideration the student's guess</b> when you choose your second set of examples.</p>","response":0,"trial_type":"html-button-response","trial_index":22,"time_elapsed":793208,"internal_node_id":"0.0-21.0","params":{"nStudents":24,"maxFlips":30,"completionMinutes":45,"basePay":8,"maxBonus":9,"perTrialBonus":0.5,"perTrialBonusThreshold":0.05,"exampleCost":0.01},"classroomParams":{"A":{"a":1,"b":4},"B":{"a":4,"b":1},"C":{"a":2,"b":8},"D":{"a":8,"b":2}},"conditions":["nonSeqFull","nonSeqPartial","seqNoFeedback","seqFeedback"],"classroomPairings":[["A","B"],["C","D"]],"coinWeights":[0.2,0.5,0.8],"subjectId":"A3EU8ENRH654SB","assignmentId":"3HL8HNGX46NK7PKE1T6WLAD7X8NF9O","hitId":"32TZXEA1OL6QYKM0MXQIQH2ABHN14I","url":"https://gershmanlab.com/experiments/alicia/teaching/experiment/?hitId=32TZXEA1OL6QYKM0MXQIQH2ABHN14I&workerId=A3EU8ENRH654SB&assignmentId=3HL8HNGX46NK7PKE1T6WLAD7X8NF9O&a=XHLH9&tp_a=XHLH9&b=3HL8HNGX46NK7PKE1T6WLAD7X8NF9O&tp_b=3HL8HNGX46NK7PKE1T6WLAD7X8NF9O&c=365799&tp_c=365799"},{"rt":35514,"response":{"heads":"1","tails":"1"},"type":"response","condition":"seqFeedback","trueTheta":0.5,"classrooms":["A","B"],"studentTrueClassroom":"B","exampleSet":"first","trial_type":"survey-html-form","trial_index":23,"time_elapsed":828724,"internal_node_id":"0.0-22.0-0.0","params":{"nStudents":24,"maxFlips":30,"completionMinutes":45,"basePay":8,"maxBonus":9,"perTrialBonus":0.5,"perTrialBonusThreshold":0.05,"exampleCost":0.01},"classroomParams":{"A":{"a":1,"b":4},"B":{"a":4,"b":1},"C":{"a":2,"b":8},"D":{"a":8,"b":2}},"conditions":["nonSeqFull","nonSeqPartial","seqNoFeedback","seqFeedback"],"classroomPairings":[["A","B"],["C","D"]],"coinWeights":[0.2,0.5,0.8],"subjectId":"A3EU8ENRH654SB","assignmentId":"3HL8HNGX46NK7PKE1T6WLAD7X8NF9O","hitId":"32TZXEA1OL6QYKM0MXQIQH2ABHN14I","url":"https://gershmanlab.com/experiments/alicia/teaching/experiment/?hitId=32TZXEA1OL6QYKM0MXQIQH2ABHN14I&workerId=A3EU8ENRH654SB&assignmentId=3HL8HNGX46NK7PKE1T6WLAD7X8NF9O&a=XHLH9&tp_a=XHLH9&b=3HL8HNGX46NK7PKE1T6WLAD7X8NF9O&tp_b=3HL8HNGX46NK7PKE1T6WLAD7X8NF9O&c=365799&tp_c=365799","heads":1,"tails":1,"studentIndex":2,"studentTrueHypers":{"a":4,"b":1},"studentGuess":0.7142857142857143,"delta":0.2142857142857143,"totalExamples":2,"bonusSoFar":0.44},{"rt":null,"stimulus":"Sending examples to student... ","response":null,"trial_type":"html-keyboard-response","trial_index":24,"time_elapsed":829990,"internal_node_id":"0.0-23.0","params":{"nStudents":24,"maxFlips":30,"completionMinutes":45,"basePay":8,"maxBonus":9,"perTrialBonus":0.5,"perTrialBonusThreshold":0.05,"exampleCost":0.01},"classroomParams":{"A":{"a":1,"b":4},"B":{"a":4,"b":1},"C":{"a":2,"b":8},"D":{"a":8,"b":2}},"conditions":["nonSeqFull","nonSeqPartial","seqNoFeedback","seqFeedback"],"classroomPairings":[["A","B"],["C","D"]],"coinWeights":[0.2,0.5,0.8],"subjectId":"A3EU8ENRH654SB","assignmentId":"3HL8HNGX46NK7PKE1T6WLAD7X8NF9O","hitId":"32TZXEA1OL6QYKM0MXQIQH2ABHN14I","url":"https://gershmanlab.com/experiments/alicia/teaching/experiment/?hitId=32TZXEA1OL6QYKM0MXQIQH2ABHN14I&workerId=A3EU8ENRH654SB&assignmentId=3HL8HNGX46NK7PKE1T6WLAD7X8NF9O&a=XHLH9&tp_a=XHLH9&b=3HL8HNGX46NK7PKE1T6WLAD7X8NF9O&tp_b=3HL8HNGX46NK7PKE1T6WLAD7X8NF9O&c=365799&tp_c=365799"},{"rt":null,"stimulus":"Examples sent to student! Waiting for student...","response":null,"trial_type":"html-keyboard-response","trial_index":25,"time_elapsed":835006,"internal_node_id":"0.0-24.0","params":{"nStudents":24,"maxFlips":30,"completionMinutes":45,"basePay":8,"maxBonus":9,"perTrialBonus":0.5,"perTrialBonusThreshold":0.05,"exampleCost":0.01},"classroomParams":{"A":{"a":1,"b":4},"B":{"a":4,"b":1},"C":{"a":2,"b":8},"D":{"a":8,"b":2}},"conditions":["nonSeqFull","nonSeqPartial","seqNoFeedback","seqFeedback"],"classroomPairings":[["A","B"],["C","D"]],"coinWeights":[0.2,0.5,0.8],"subjectId":"A3EU8ENRH654SB","assignmentId":"3HL8HNGX46NK7PKE1T6WLAD7X8NF9O","hitId":"32TZXEA1OL6QYKM0MXQIQH2ABHN14I","url":"https://gershmanlab.com/experiments/alicia/teaching/experiment/?hitId=32TZXEA1OL6QYKM0MXQIQH2ABHN14I&workerId=A3EU8ENRH654SB&assignmentId=3HL8HNGX46NK7PKE1T6WLAD7X8NF9O&a=XHLH9&tp_a=XHLH9&b=3HL8HNGX46NK7PKE1T6WLAD7X8NF9O&tp_b=3HL8HNGX46NK7PKE1T6WLAD7X8NF9O&c=365799&tp_c=365799"},{"rt":26846,"stimulus":"\n                <p>Student's guess for coin weight: <b style=\"color:Tomato;\">0.71</b></p>\n                <p></b></p>\n                <p>You will now send another set of examples to your student. <b>Remember to take your student's guess into consideration so that you can earn the highest bonus possible!</b> </p>\n                <p>Press any key to continue.</p>\n                ","response":" ","trial_type":"html-keyboard-response","trial_index":26,"time_elapsed":861853,"internal_node_id":"0.0-25.0","params":{"nStudents":24,"maxFlips":30,"completionMinutes":45,"basePay":8,"maxBonus":9,"perTrialBonus":0.5,"perTrialBonusThreshold":0.05,"exampleCost":0.01},"classroomParams":{"A":{"a":1,"b":4},"B":{"a":4,"b":1},"C":{"a":2,"b":8},"D":{"a":8,"b":2}},"conditions":["nonSeqFull","nonSeqPartial","seqNoFeedback","seqFeedback"],"classroomPairings":[["A","B"],["C","D"]],"coinWeights":[0.2,0.5,0.8],"subjectId":"A3EU8ENRH654SB","assignmentId":"3HL8HNGX46NK7PKE1T6WLAD7X8NF9O","hitId":"32TZXEA1OL6QYKM0MXQIQH2ABHN14I","url":"https://gershmanlab.com/experiments/alicia/teaching/experiment/?hitId=32TZXEA1OL6QYKM0MXQIQH2ABHN14I&workerId=A3EU8ENRH654SB&assignmentId=3HL8HNGX46NK7PKE1T6WLAD7X8NF9O&a=XHLH9&tp_a=XHLH9&b=3HL8HNGX46NK7PKE1T6WLAD7X8NF9O&tp_b=3HL8HNGX46NK7PKE1T6WLAD7X8NF9O&c=365799&tp_c=365799"},{"rt":108257,"response":{"heads":"1","tails":"4"},"type":"response","condition":"seqFeedback","trueTheta":0.5,"classrooms":["A","B"],"studentTrueClassroom":"B","exampleSet":"second","trial_type":"survey-html-form","trial_index":27,"time_elapsed":970111,"internal_node_id":"0.0-26.0-0.0","params":{"nStudents":24,"maxFlips":30,"completionMinutes":45,"basePay":8,"maxBonus":9,"perTrialBonus":0.5,"perTrialBonusThreshold":0.05,"exampleCost":0.01},"classroomParams":{"A":{"a":1,"b":4},"B":{"a":4,"b":1},"C":{"a":2,"b":8},"D":{"a":8,"b":2}},"conditions":["nonSeqFull","nonSeqPartial","seqNoFeedback","seqFeedback"],"classroomPairings":[["A","B"],["C","D"]],"coinWeights":[0.2,0.5,0.8],"subjectId":"A3EU8ENRH654SB","assignmentId":"3HL8HNGX46NK7PKE1T6WLAD7X8NF9O","hitId":"32TZXEA1OL6QYKM0MXQIQH2ABHN14I","url":"https://gershmanlab.com/experiments/alicia/teaching/experiment/?hitId=32TZXEA1OL6QYKM0MXQIQH2ABHN14I&workerId=A3EU8ENRH654SB&assignmentId=3HL8HNGX46NK7PKE1T6WLAD7X8NF9O&a=XHLH9&tp_a=XHLH9&b=3HL8HNGX46NK7PKE1T6WLAD7X8NF9O&tp_b=3HL8HNGX46NK7PKE1T6WLAD7X8NF9O&c=365799&tp_c=365799","firstResponseHeads":1,"firstResponseTails":1,"secondResponseHeads":1,"secondResponseTails":4,"totalHeads":2,"totalTails":5,"studentIndex":2,"studentTrueHypers":{"a":4,"b":1},"studentGuess":0.5,"delta":0,"bonus":0.43,"bonusSoFar":0.87,"totalExamples":7},{"rt":null,"stimulus":"Sending examples to student... ","response":null,"trial_type":"html-keyboard-response","trial_index":28,"time_elapsed":971366,"internal_node_id":"0.0-27.0","params":{"nStudents":24,"maxFlips":30,"completionMinutes":45,"basePay":8,"maxBonus":9,"perTrialBonus":0.5,"perTrialBonusThreshold":0.05,"exampleCost":0.01},"classroomParams":{"A":{"a":1,"b":4},"B":{"a":4,"b":1},"C":{"a":2,"b":8},"D":{"a":8,"b":2}},"conditions":["nonSeqFull","nonSeqPartial","seqNoFeedback","seqFeedback"],"classroomPairings":[["A","B"],["C","D"]],"coinWeights":[0.2,0.5,0.8],"subjectId":"A3EU8ENRH654SB","assignmentId":"3HL8HNGX46NK7PKE1T6WLAD7X8NF9O","hitId":"32TZXEA1OL6QYKM0MXQIQH2ABHN14I","url":"https://gershmanlab.com/experiments/alicia/teaching/experiment/?hitId=32TZXEA1OL6QYKM0MXQIQH2ABHN14I&workerId=A3EU8ENRH654SB&assignmentId=3HL8HNGX46NK7PKE1T6WLAD7X8NF9O&a=XHLH9&tp_a=XHLH9&b=3HL8HNGX46NK7PKE1T6WLAD7X8NF9O&tp_b=3HL8HNGX46NK7PKE1T6WLAD7X8NF9O&c=365799&tp_c=365799"},{"rt":null,"stimulus":"Examples sent to student! Waiting for student...","response":null,"trial_type":"html-keyboard-response","trial_index":29,"time_elapsed":977382,"internal_node_id":"0.0-28.0","params":{"nStudents":24,"maxFlips":30,"completionMinutes":45,"basePay":8,"maxBonus":9,"perTrialBonus":0.5,"perTrialBonusThreshold":0.05,"exampleCost":0.01},"classroomParams":{"A":{"a":1,"b":4},"B":{"a":4,"b":1},"C":{"a":2,"b":8},"D":{"a":8,"b":2}},"conditions":["nonSeqFull","nonSeqPartial","seqNoFeedback","seqFeedback"],"classroomPairings":[["A","B"],["C","D"]],"coinWeights":[0.2,0.5,0.8],"subjectId":"A3EU8ENRH654SB","assignmentId":"3HL8HNGX46NK7PKE1T6WLAD7X8NF9O","hitId":"32TZXEA1OL6QYKM0MXQIQH2ABHN14I","url":"https://gershmanlab.com/experiments/alicia/teaching/experiment/?hitId=32TZXEA1OL6QYKM0MXQIQH2ABHN14I&workerId=A3EU8ENRH654SB&assignmentId=3HL8HNGX46NK7PKE1T6WLAD7X8NF9O&a=XHLH9&tp_a=XHLH9&b=3HL8HNGX46NK7PKE1T6WLAD7X8NF9O&tp_b=3HL8HNGX46NK7PKE1T6WLAD7X8NF9O&c=365799&tp_c=365799"},{"rt":13022,"stimulus":"\n                <p>Student 3's first guess for coin weight: <b style=\"color:Tomato\";>0.71</b></p>\n                <p>Student 3's second guess for coin weight: <b style=\"color:Tomato\";>0.50</b></p>\n                <p>You received a bonus of <b>$0.43</b> based on the student's second guess.</p>\n                <p>Total bonus so far: <b>$0.87</b></p>\n                <p>Press any key to continue.</p>\n                ","response":" ","trial_type":"html-keyboard-response","trial_index":30,"time_elapsed":990406,"internal_node_id":"0.0-29.0","params":{"nStudents":24,"maxFlips":30,"completionMinutes":45,"basePay":8,"maxBonus":9,"perTrialBonus":0.5,"perTrialBonusThreshold":0.05,"exampleCost":0.01},"classroomParams":{"A":{"a":1,"b":4},"B":{"a":4,"b":1},"C":{"a":2,"b":8},"D":{"a":8,"b":2}},"conditions":["nonSeqFull","nonSeqPartial","seqNoFeedback","seqFeedback"],"classroomPairings":[["A","B"],["C","D"]],"coinWeights":[0.2,0.5,0.8],"subjectId":"A3EU8ENRH654SB","assignmentId":"3HL8HNGX46NK7PKE1T6WLAD7X8NF9O","hitId":"32TZXEA1OL6QYKM0MXQIQH2ABHN14I","url":"https://gershmanlab.com/experiments/alicia/teaching/experiment/?hitId=32TZXEA1OL6QYKM0MXQIQH2ABHN14I&workerId=A3EU8ENRH654SB&assignmentId=3HL8HNGX46NK7PKE1T6WLAD7X8NF9O&a=XHLH9&tp_a=XHLH9&b=3HL8HNGX46NK7PKE1T6WLAD7X8NF9O&tp_b=3HL8HNGX46NK7PKE1T6WLAD7X8NF9O&c=365799&tp_c=365799"},{"rt":null,"stimulus":"<div style=\"font-size:60px;\">Next student</div>","response":null,"trial_type":"html-keyboard-response","trial_index":31,"time_elapsed":992919,"internal_node_id":"0.0-30.0-0.0","params":{"nStudents":24,"maxFlips":30,"completionMinutes":45,"basePay":8,"maxBonus":9,"perTrialBonus":0.5,"perTrialBonusThreshold":0.05,"exampleCost":0.01},"classroomParams":{"A":{"a":1,"b":4},"B":{"a":4,"b":1},"C":{"a":2,"b":8},"D":{"a":8,"b":2}},"conditions":["nonSeqFull","nonSeqPartial","seqNoFeedback","seqFeedback"],"classroomPairings":[["A","B"],["C","D"]],"coinWeights":[0.2,0.5,0.8],"subjectId":"A3EU8ENRH654SB","assignmentId":"3HL8HNGX46NK7PKE1T6WLAD7X8NF9O","hitId":"32TZXEA1OL6QYKM0MXQIQH2ABHN14I","url":"https://gershmanlab.com/experiments/alicia/teaching/experiment/?hitId=32TZXEA1OL6QYKM0MXQIQH2ABHN14I&workerId=A3EU8ENRH654SB&assignmentId=3HL8HNGX46NK7PKE1T6WLAD7X8NF9O&a=XHLH9&tp_a=XHLH9&b=3HL8HNGX46NK7PKE1T6WLAD7X8NF9O&tp_b=3HL8HNGX46NK7PKE1T6WLAD7X8NF9O&c=365799&tp_c=365799"},{"rt":17405,"stimulus":"\n            <h4 style=\"color:Orange;\">Student 4</h4>\n            <h2>The weight of your coin is <b style=\"color:Tomato;\">0.8</b>.</h2>\n            <p>In this block, you will be giving <b>one</b> set of examples to Student 4.</p>\n                <p>You will receive feedback at the end of the block.</p>\n            <p></p>","response":0,"trial_type":"html-button-response","trial_index":32,"time_elapsed":1010325,"internal_node_id":"0.0-31.0","params":{"nStudents":24,"maxFlips":30,"completionMinutes":45,"basePay":8,"maxBonus":9,"perTrialBonus":0.5,"perTrialBonusThreshold":0.05,"exampleCost":0.01},"classroomParams":{"A":{"a":1,"b":4},"B":{"a":4,"b":1},"C":{"a":2,"b":8},"D":{"a":8,"b":2}},"conditions":["nonSeqFull","nonSeqPartial","seqNoFeedback","seqFeedback"],"classroomPairings":[["A","B"],["C","D"]],"coinWeights":[0.2,0.5,0.8],"subjectId":"A3EU8ENRH654SB","assignmentId":"3HL8HNGX46NK7PKE1T6WLAD7X8NF9O","hitId":"32TZXEA1OL6QYKM0MXQIQH2ABHN14I","url":"https://gershmanlab.com/experiments/alicia/teaching/experiment/?hitId=32TZXEA1OL6QYKM0MXQIQH2ABHN14I&workerId=A3EU8ENRH654SB&assignmentId=3HL8HNGX46NK7PKE1T6WLAD7X8NF9O&a=XHLH9&tp_a=XHLH9&b=3HL8HNGX46NK7PKE1T6WLAD7X8NF9O&tp_b=3HL8HNGX46NK7PKE1T6WLAD7X8NF9O&c=365799&tp_c=365799"},{"rt":280881,"response":{"heads":"15","tails":"0"},"type":"response","condition":"nonSeqPartial","trueTheta":0.8,"classrooms":["A","B"],"studentTrueClassroom":"B","exampleSet":"first","trial_type":"survey-html-form","trial_index":33,"time_elapsed":1291207,"internal_node_id":"0.0-32.0-0.0","params":{"nStudents":24,"maxFlips":30,"completionMinutes":45,"basePay":8,"maxBonus":9,"perTrialBonus":0.5,"perTrialBonusThreshold":0.05,"exampleCost":0.01},"classroomParams":{"A":{"a":1,"b":4},"B":{"a":4,"b":1},"C":{"a":2,"b":8},"D":{"a":8,"b":2}},"conditions":["nonSeqFull","nonSeqPartial","seqNoFeedback","seqFeedback"],"classroomPairings":[["A","B"],["C","D"]],"coinWeights":[0.2,0.5,0.8],"subjectId":"A3EU8ENRH654SB","assignmentId":"3HL8HNGX46NK7PKE1T6WLAD7X8NF9O","hitId":"32TZXEA1OL6QYKM0MXQIQH2ABHN14I","url":"https://gershmanlab.com/experiments/alicia/teaching/experiment/?hitId=32TZXEA1OL6QYKM0MXQIQH2ABHN14I&workerId=A3EU8ENRH654SB&assignmentId=3HL8HNGX46NK7PKE1T6WLAD7X8NF9O&a=XHLH9&tp_a=XHLH9&b=3HL8HNGX46NK7PKE1T6WLAD7X8NF9O&tp_b=3HL8HNGX46NK7PKE1T6WLAD7X8NF9O&c=365799&tp_c=365799","heads":15,"tails":0,"studentIndex":3,"studentTrueHypers":{"a":4,"b":1},"studentGuess":0.95,"delta":0.1499999999999999,"totalExamples":15,"bonus":0,"bonusSoFar":0.87},{"rt":null,"stimulus":"Sending examples to student... ","response":null,"trial_type":"html-keyboard-response","trial_index":34,"time_elapsed":1292473,"internal_node_id":"0.0-33.0","params":{"nStudents":24,"maxFlips":30,"completionMinutes":45,"basePay":8,"maxBonus":9,"perTrialBonus":0.5,"perTrialBonusThreshold":0.05,"exampleCost":0.01},"classroomParams":{"A":{"a":1,"b":4},"B":{"a":4,"b":1},"C":{"a":2,"b":8},"D":{"a":8,"b":2}},"conditions":["nonSeqFull","nonSeqPartial","seqNoFeedback","seqFeedback"],"classroomPairings":[["A","B"],["C","D"]],"coinWeights":[0.2,0.5,0.8],"subjectId":"A3EU8ENRH654SB","assignmentId":"3HL8HNGX46NK7PKE1T6WLAD7X8NF9O","hitId":"32TZXEA1OL6QYKM0MXQIQH2ABHN14I","url":"https://gershmanlab.com/experiments/alicia/teaching/experiment/?hitId=32TZXEA1OL6QYKM0MXQIQH2ABHN14I&workerId=A3EU8ENRH654SB&assignmentId=3HL8HNGX46NK7PKE1T6WLAD7X8NF9O&a=XHLH9&tp_a=XHLH9&b=3HL8HNGX46NK7PKE1T6WLAD7X8NF9O&tp_b=3HL8HNGX46NK7PKE1T6WLAD7X8NF9O&c=365799&tp_c=365799"},{"rt":null,"stimulus":"Examples sent to student! Waiting for student...","response":null,"trial_type":"html-keyboard-response","trial_index":35,"time_elapsed":1298490,"internal_node_id":"0.0-34.0","params":{"nStudents":24,"maxFlips":30,"completionMinutes":45,"basePay":8,"maxBonus":9,"perTrialBonus":0.5,"perTrialBonusThreshold":0.05,"exampleCost":0.01},"classroomParams":{"A":{"a":1,"b":4},"B":{"a":4,"b":1},"C":{"a":2,"b":8},"D":{"a":8,"b":2}},"conditions":["nonSeqFull","nonSeqPartial","seqNoFeedback","seqFeedback"],"classroomPairings":[["A","B"],["C","D"]],"coinWeights":[0.2,0.5,0.8],"subjectId":"A3EU8ENRH654SB","assignmentId":"3HL8HNGX46NK7PKE1T6WLAD7X8NF9O","hitId":"32TZXEA1OL6QYKM0MXQIQH2ABHN14I","url":"https://gershmanlab.com/experiments/alicia/teaching/experiment/?hitId=32TZXEA1OL6QYKM0MXQIQH2ABHN14I&workerId=A3EU8ENRH654SB&assignmentId=3HL8HNGX46NK7PKE1T6WLAD7X8NF9O&a=XHLH9&tp_a=XHLH9&b=3HL8HNGX46NK7PKE1T6WLAD7X8NF9O&tp_b=3HL8HNGX46NK7PKE1T6WLAD7X8NF9O&c=365799&tp_c=365799"},{"rt":4925,"stimulus":"\n                <p>Student's guess for coin weight: <b style=\"color:Tomato;\">0.95</b></p>\n                <p>You received a bonus of <b>$0</b>. Total bonus so far: <b>$0.87</b></b></p>\n                <p></p>\n                <p>Press any key to continue.</p>\n                ","response":" ","trial_type":"html-keyboard-response","trial_index":36,"time_elapsed":1303416,"internal_node_id":"0.0-35.0","params":{"nStudents":24,"maxFlips":30,"completionMinutes":45,"basePay":8,"maxBonus":9,"perTrialBonus":0.5,"perTrialBonusThreshold":0.05,"exampleCost":0.01},"classroomParams":{"A":{"a":1,"b":4},"B":{"a":4,"b":1},"C":{"a":2,"b":8},"D":{"a":8,"b":2}},"conditions":["nonSeqFull","nonSeqPartial","seqNoFeedback","seqFeedback"],"classroomPairings":[["A","B"],["C","D"]],"coinWeights":[0.2,0.5,0.8],"subjectId":"A3EU8ENRH654SB","assignmentId":"3HL8HNGX46NK7PKE1T6WLAD7X8NF9O","hitId":"32TZXEA1OL6QYKM0MXQIQH2ABHN14I","url":"https://gershmanlab.com/experiments/alicia/teaching/experiment/?hitId=32TZXEA1OL6QYKM0MXQIQH2ABHN14I&workerId=A3EU8ENRH654SB&assignmentId=3HL8HNGX46NK7PKE1T6WLAD7X8NF9O&a=XHLH9&tp_a=XHLH9&b=3HL8HNGX46NK7PKE1T6WLAD7X8NF9O&tp_b=3HL8HNGX46NK7PKE1T6WLAD7X8NF9O&c=365799&tp_c=365799"},{"rt":null,"stimulus":"<div style=\"font-size:60px;\">Next student</div>","response":null,"trial_type":"html-keyboard-response","trial_index":37,"time_elapsed":1305675,"internal_node_id":"0.0-36.0-0.0","params":{"nStudents":24,"maxFlips":30,"completionMinutes":45,"basePay":8,"maxBonus":9,"perTrialBonus":0.5,"perTrialBonusThreshold":0.05,"exampleCost":0.01},"classroomParams":{"A":{"a":1,"b":4},"B":{"a":4,"b":1},"C":{"a":2,"b":8},"D":{"a":8,"b":2}},"conditions":["nonSeqFull","nonSeqPartial","seqNoFeedback","seqFeedback"],"classroomPairings":[["A","B"],["C","D"]],"coinWeights":[0.2,0.5,0.8],"subjectId":"A3EU8ENRH654SB","assignmentId":"3HL8HNGX46NK7PKE1T6WLAD7X8NF9O","hitId":"32TZXEA1OL6QYKM0MXQIQH2ABHN14I","url":"https://gershmanlab.com/experiments/alicia/teaching/experiment/?hitId=32TZXEA1OL6QYKM0MXQIQH2ABHN14I&workerId=A3EU8ENRH654SB&assignmentId=3HL8HNGX46NK7PKE1T6WLAD7X8NF9O&a=XHLH9&tp_a=XHLH9&b=3HL8HNGX46NK7PKE1T6WLAD7X8NF9O&tp_b=3HL8HNGX46NK7PKE1T6WLAD7X8NF9O&c=365799&tp_c=365799"},{"rt":7297,"stimulus":"\n            <h4 style=\"color:Orange;\">Student 5</h4>\n            <h2>The weight of your coin is <b style=\"color:Tomato;\">0.8</b>.</h2>\n            <p>In this block, you will be giving <b>two</b> sets of examples to Student 5.</p>\n                <p>You will receive feedback at the end of the block.</p>\n            <p></p>","response":0,"trial_type":"html-button-response","trial_index":38,"time_elapsed":1312974,"internal_node_id":"0.0-37.0","params":{"nStudents":24,"maxFlips":30,"completionMinutes":45,"basePay":8,"maxBonus":9,"perTrialBonus":0.5,"perTrialBonusThreshold":0.05,"exampleCost":0.01},"classroomParams":{"A":{"a":1,"b":4},"B":{"a":4,"b":1},"C":{"a":2,"b":8},"D":{"a":8,"b":2}},"conditions":["nonSeqFull","nonSeqPartial","seqNoFeedback","seqFeedback"],"classroomPairings":[["A","B"],["C","D"]],"coinWeights":[0.2,0.5,0.8],"subjectId":"A3EU8ENRH654SB","assignmentId":"3HL8HNGX46NK7PKE1T6WLAD7X8NF9O","hitId":"32TZXEA1OL6QYKM0MXQIQH2ABHN14I","url":"https://gershmanlab.com/experiments/alicia/teaching/experiment/?hitId=32TZXEA1OL6QYKM0MXQIQH2ABHN14I&workerId=A3EU8ENRH654SB&assignmentId=3HL8HNGX46NK7PKE1T6WLAD7X8NF9O&a=XHLH9&tp_a=XHLH9&b=3HL8HNGX46NK7PKE1T6WLAD7X8NF9O&tp_b=3HL8HNGX46NK7PKE1T6WLAD7X8NF9O&c=365799&tp_c=365799"},{"rt":44018,"response":{"heads":"1","tails":"1"},"type":"response","condition":"seqNoFeedback","trueTheta":0.8,"classrooms":["C","D"],"studentTrueClassroom":"D","exampleSet":"first","trial_type":"survey-html-form","trial_index":39,"time_elapsed":1356993,"internal_node_id":"0.0-38.0-0.0","params":{"nStudents":24,"maxFlips":30,"completionMinutes":45,"basePay":8,"maxBonus":9,"perTrialBonus":0.5,"perTrialBonusThreshold":0.05,"exampleCost":0.01},"classroomParams":{"A":{"a":1,"b":4},"B":{"a":4,"b":1},"C":{"a":2,"b":8},"D":{"a":8,"b":2}},"conditions":["nonSeqFull","nonSeqPartial","seqNoFeedback","seqFeedback"],"classroomPairings":[["A","B"],["C","D"]],"coinWeights":[0.2,0.5,0.8],"subjectId":"A3EU8ENRH654SB","assignmentId":"3HL8HNGX46NK7PKE1T6WLAD7X8NF9O","hitId":"32TZXEA1OL6QYKM0MXQIQH2ABHN14I","url":"https://gershmanlab.com/experiments/alicia/teaching/experiment/?hitId=32TZXEA1OL6QYKM0MXQIQH2ABHN14I&workerId=A3EU8ENRH654SB&assignmentId=3HL8HNGX46NK7PKE1T6WLAD7X8NF9O&a=XHLH9&tp_a=XHLH9&b=3HL8HNGX46NK7PKE1T6WLAD7X8NF9O&tp_b=3HL8HNGX46NK7PKE1T6WLAD7X8NF9O&c=365799&tp_c=365799","heads":1,"tails":1,"studentIndex":4,"studentTrueHypers":{"a":8,"b":2},"studentGuess":0.75,"delta":0.050000000000000044,"totalExamples":2,"bonusSoFar":0.87},{"rt":null,"stimulus":"Sending examples to student... ","response":null,"trial_type":"html-keyboard-response","trial_index":40,"time_elapsed":1359005,"internal_node_id":"0.0-39.0","params":{"nStudents":24,"maxFlips":30,"completionMinutes":45,"basePay":8,"maxBonus":9,"perTrialBonus":0.5,"perTrialBonusThreshold":0.05,"exampleCost":0.01},"classroomParams":{"A":{"a":1,"b":4},"B":{"a":4,"b":1},"C":{"a":2,"b":8},"D":{"a":8,"b":2}},"conditions":["nonSeqFull","nonSeqPartial","seqNoFeedback","seqFeedback"],"classroomPairings":[["A","B"],["C","D"]],"coinWeights":[0.2,0.5,0.8],"subjectId":"A3EU8ENRH654SB","assignmentId":"3HL8HNGX46NK7PKE1T6WLAD7X8NF9O","hitId":"32TZXEA1OL6QYKM0MXQIQH2ABHN14I","url":"https://gershmanlab.com/experiments/alicia/teaching/experiment/?hitId=32TZXEA1OL6QYKM0MXQIQH2ABHN14I&workerId=A3EU8ENRH654SB&assignmentId=3HL8HNGX46NK7PKE1T6WLAD7X8NF9O&a=XHLH9&tp_a=XHLH9&b=3HL8HNGX46NK7PKE1T6WLAD7X8NF9O&tp_b=3HL8HNGX46NK7PKE1T6WLAD7X8NF9O&c=365799&tp_c=365799"},{"rt":null,"stimulus":"Examples sent to student! Waiting for student...","response":null,"trial_type":"html-keyboard-response","trial_index":41,"time_elapsed":1363520,"internal_node_id":"0.0-40.0","params":{"nStudents":24,"maxFlips":30,"completionMinutes":45,"basePay":8,"maxBonus":9,"perTrialBonus":0.5,"perTrialBonusThreshold":0.05,"exampleCost":0.01},"classroomParams":{"A":{"a":1,"b":4},"B":{"a":4,"b":1},"C":{"a":2,"b":8},"D":{"a":8,"b":2}},"conditions":["nonSeqFull","nonSeqPartial","seqNoFeedback","seqFeedback"],"classroomPairings":[["A","B"],["C","D"]],"coinWeights":[0.2,0.5,0.8],"subjectId":"A3EU8ENRH654SB","assignmentId":"3HL8HNGX46NK7PKE1T6WLAD7X8NF9O","hitId":"32TZXEA1OL6QYKM0MXQIQH2ABHN14I","url":"https://gershmanlab.com/experiments/alicia/teaching/experiment/?hitId=32TZXEA1OL6QYKM0MXQIQH2ABHN14I&workerId=A3EU8ENRH654SB&assignmentId=3HL8HNGX46NK7PKE1T6WLAD7X8NF9O&a=XHLH9&tp_a=XHLH9&b=3HL8HNGX46NK7PKE1T6WLAD7X8NF9O&tp_b=3HL8HNGX46NK7PKE1T6WLAD7X8NF9O&c=365799&tp_c=365799"},{"rt":146053,"response":{"heads":"30","tails":"0"},"type":"response","condition":"seqNoFeedback","trueTheta":0.8,"classrooms":["C","D"],"studentTrueClassroom":"D","exampleSet":"second","trial_type":"survey-html-form","trial_index":42,"time_elapsed":1509574,"internal_node_id":"0.0-41.0-0.0","params":{"nStudents":24,"maxFlips":30,"completionMinutes":45,"basePay":8,"maxBonus":9,"perTrialBonus":0.5,"perTrialBonusThreshold":0.05,"exampleCost":0.01},"classroomParams":{"A":{"a":1,"b":4},"B":{"a":4,"b":1},"C":{"a":2,"b":8},"D":{"a":8,"b":2}},"conditions":["nonSeqFull","nonSeqPartial","seqNoFeedback","seqFeedback"],"classroomPairings":[["A","B"],["C","D"]],"coinWeights":[0.2,0.5,0.8],"subjectId":"A3EU8ENRH654SB","assignmentId":"3HL8HNGX46NK7PKE1T6WLAD7X8NF9O","hitId":"32TZXEA1OL6QYKM0MXQIQH2ABHN14I","url":"https://gershmanlab.com/experiments/alicia/teaching/experiment/?hitId=32TZXEA1OL6QYKM0MXQIQH2ABHN14I&workerId=A3EU8ENRH654SB&assignmentId=3HL8HNGX46NK7PKE1T6WLAD7X8NF9O&a=XHLH9&tp_a=XHLH9&b=3HL8HNGX46NK7PKE1T6WLAD7X8NF9O&tp_b=3HL8HNGX46NK7PKE1T6WLAD7X8NF9O&c=365799&tp_c=365799","firstResponseHeads":1,"firstResponseTails":1,"secondResponseHeads":30,"secondResponseTails":0,"totalHeads":31,"totalTails":1,"studentIndex":4,"studentTrueHypers":{"a":8,"b":2},"studentGuess":0.9285714285714286,"delta":0.12857142857142856,"bonus":0,"bonusSoFar":0.87,"totalExamples":32},{"rt":null,"stimulus":"Sending examples to student... ","response":null,"trial_type":"html-keyboard-response","trial_index":43,"time_elapsed":1510849,"internal_node_id":"0.0-42.0","params":{"nStudents":24,"maxFlips":30,"completionMinutes":45,"basePay":8,"maxBonus":9,"perTrialBonus":0.5,"perTrialBonusThreshold":0.05,"exampleCost":0.01},"classroomParams":{"A":{"a":1,"b":4},"B":{"a":4,"b":1},"C":{"a":2,"b":8},"D":{"a":8,"b":2}},"conditions":["nonSeqFull","nonSeqPartial","seqNoFeedback","seqFeedback"],"classroomPairings":[["A","B"],["C","D"]],"coinWeights":[0.2,0.5,0.8],"subjectId":"A3EU8ENRH654SB","assignmentId":"3HL8HNGX46NK7PKE1T6WLAD7X8NF9O","hitId":"32TZXEA1OL6QYKM0MXQIQH2ABHN14I","url":"https://gershmanlab.com/experiments/alicia/teaching/experiment/?hitId=32TZXEA1OL6QYKM0MXQIQH2ABHN14I&workerId=A3EU8ENRH654SB&assignmentId=3HL8HNGX46NK7PKE1T6WLAD7X8NF9O&a=XHLH9&tp_a=XHLH9&b=3HL8HNGX46NK7PKE1T6WLAD7X8NF9O&tp_b=3HL8HNGX46NK7PKE1T6WLAD7X8NF9O&c=365799&tp_c=365799"},{"rt":null,"stimulus":"Examples sent to student! Waiting for student...","response":null,"trial_type":"html-keyboard-response","trial_index":44,"time_elapsed":1515364,"internal_node_id":"0.0-43.0","params":{"nStudents":24,"maxFlips":30,"completionMinutes":45,"basePay":8,"maxBonus":9,"perTrialBonus":0.5,"perTrialBonusThreshold":0.05,"exampleCost":0.01},"classroomParams":{"A":{"a":1,"b":4},"B":{"a":4,"b":1},"C":{"a":2,"b":8},"D":{"a":8,"b":2}},"conditions":["nonSeqFull","nonSeqPartial","seqNoFeedback","seqFeedback"],"classroomPairings":[["A","B"],["C","D"]],"coinWeights":[0.2,0.5,0.8],"subjectId":"A3EU8ENRH654SB","assignmentId":"3HL8HNGX46NK7PKE1T6WLAD7X8NF9O","hitId":"32TZXEA1OL6QYKM0MXQIQH2ABHN14I","url":"https://gershmanlab.com/experiments/alicia/teaching/experiment/?hitId=32TZXEA1OL6QYKM0MXQIQH2ABHN14I&workerId=A3EU8ENRH654SB&assignmentId=3HL8HNGX46NK7PKE1T6WLAD7X8NF9O&a=XHLH9&tp_a=XHLH9&b=3HL8HNGX46NK7PKE1T6WLAD7X8NF9O&tp_b=3HL8HNGX46NK7PKE1T6WLAD7X8NF9O&c=365799&tp_c=365799"},{"rt":6841,"stimulus":"\n                <p>Student 5's first guess for coin weight: <b style=\"color:Tomato\";>0.75</b></p>\n                <p>Student 5's second guess for coin weight: <b style=\"color:Tomato\";>0.93</b></p>\n                <p>You received a bonus of <b>$0.00</b> based on the student's second guess.</p>\n                <p>Total bonus so far: <b>$0.87</b></p>\n                <p>Press any key to continue.</p>\n                ","response":" ","trial_type":"html-keyboard-response","trial_index":45,"time_elapsed":1522206,"internal_node_id":"0.0-44.0","params":{"nStudents":24,"maxFlips":30,"completionMinutes":45,"basePay":8,"maxBonus":9,"perTrialBonus":0.5,"perTrialBonusThreshold":0.05,"exampleCost":0.01},"classroomParams":{"A":{"a":1,"b":4},"B":{"a":4,"b":1},"C":{"a":2,"b":8},"D":{"a":8,"b":2}},"conditions":["nonSeqFull","nonSeqPartial","seqNoFeedback","seqFeedback"],"classroomPairings":[["A","B"],["C","D"]],"coinWeights":[0.2,0.5,0.8],"subjectId":"A3EU8ENRH654SB","assignmentId":"3HL8HNGX46NK7PKE1T6WLAD7X8NF9O","hitId":"32TZXEA1OL6QYKM0MXQIQH2ABHN14I","url":"https://gershmanlab.com/experiments/alicia/teaching/experiment/?hitId=32TZXEA1OL6QYKM0MXQIQH2ABHN14I&workerId=A3EU8ENRH654SB&assignmentId=3HL8HNGX46NK7PKE1T6WLAD7X8NF9O&a=XHLH9&tp_a=XHLH9&b=3HL8HNGX46NK7PKE1T6WLAD7X8NF9O&tp_b=3HL8HNGX46NK7PKE1T6WLAD7X8NF9O&c=365799&tp_c=365799"},{"rt":null,"stimulus":"<div style=\"font-size:60px;\">Next student</div>","response":null,"trial_type":"html-keyboard-response","trial_index":46,"time_elapsed":1525212,"internal_node_id":"0.0-45.0-0.0","params":{"nStudents":24,"maxFlips":30,"completionMinutes":45,"basePay":8,"maxBonus":9,"perTrialBonus":0.5,"perTrialBonusThreshold":0.05,"exampleCost":0.01},"classroomParams":{"A":{"a":1,"b":4},"B":{"a":4,"b":1},"C":{"a":2,"b":8},"D":{"a":8,"b":2}},"conditions":["nonSeqFull","nonSeqPartial","seqNoFeedback","seqFeedback"],"classroomPairings":[["A","B"],["C","D"]],"coinWeights":[0.2,0.5,0.8],"subjectId":"A3EU8ENRH654SB","assignmentId":"3HL8HNGX46NK7PKE1T6WLAD7X8NF9O","hitId":"32TZXEA1OL6QYKM0MXQIQH2ABHN14I","url":"https://gershmanlab.com/experiments/alicia/teaching/experiment/?hitId=32TZXEA1OL6QYKM0MXQIQH2ABHN14I&workerId=A3EU8ENRH654SB&assignmentId=3HL8HNGX46NK7PKE1T6WLAD7X8NF9O&a=XHLH9&tp_a=XHLH9&b=3HL8HNGX46NK7PKE1T6WLAD7X8NF9O&tp_b=3HL8HNGX46NK7PKE1T6WLAD7X8NF9O&c=365799&tp_c=365799"},{"rt":6604,"stimulus":"\n            <h4 style=\"color:Orange;\">Student 6</h4>\n            <h2>The weight of your coin is <b style=\"color:Tomato;\">0.8</b>.</h2>\n            <p>In this block, you will be giving <b>one</b> set of examples to Student 6.</p>\n                <p>You will receive feedback at the end of the block.</p>\n            <p></p>","response":0,"trial_type":"html-button-response","trial_index":47,"time_elapsed":1531817,"internal_node_id":"0.0-46.0","params":{"nStudents":24,"maxFlips":30,"completionMinutes":45,"basePay":8,"maxBonus":9,"perTrialBonus":0.5,"perTrialBonusThreshold":0.05,"exampleCost":0.01},"classroomParams":{"A":{"a":1,"b":4},"B":{"a":4,"b":1},"C":{"a":2,"b":8},"D":{"a":8,"b":2}},"conditions":["nonSeqFull","nonSeqPartial","seqNoFeedback","seqFeedback"],"classroomPairings":[["A","B"],["C","D"]],"coinWeights":[0.2,0.5,0.8],"subjectId":"A3EU8ENRH654SB","assignmentId":"3HL8HNGX46NK7PKE1T6WLAD7X8NF9O","hitId":"32TZXEA1OL6QYKM0MXQIQH2ABHN14I","url":"https://gershmanlab.com/experiments/alicia/teaching/experiment/?hitId=32TZXEA1OL6QYKM0MXQIQH2ABHN14I&workerId=A3EU8ENRH654SB&assignmentId=3HL8HNGX46NK7PKE1T6WLAD7X8NF9O&a=XHLH9&tp_a=XHLH9&b=3HL8HNGX46NK7PKE1T6WLAD7X8NF9O&tp_b=3HL8HNGX46NK7PKE1T6WLAD7X8NF9O&c=365799&tp_c=365799"},{"rt":96525,"response":{"heads":"15","tails":"0"},"type":"response","condition":"nonSeqFull","trueTheta":0.8,"classrooms":["A","B"],"studentTrueClassroom":"A","exampleSet":"first","trial_type":"survey-html-form","trial_index":48,"time_elapsed":1628343,"internal_node_id":"0.0-47.0-0.0","params":{"nStudents":24,"maxFlips":30,"completionMinutes":45,"basePay":8,"maxBonus":9,"perTrialBonus":0.5,"perTrialBonusThreshold":0.05,"exampleCost":0.01},"classroomParams":{"A":{"a":1,"b":4},"B":{"a":4,"b":1},"C":{"a":2,"b":8},"D":{"a":8,"b":2}},"conditions":["nonSeqFull","nonSeqPartial","seqNoFeedback","seqFeedback"],"classroomPairings":[["A","B"],["C","D"]],"coinWeights":[0.2,0.5,0.8],"subjectId":"A3EU8ENRH654SB","assignmentId":"3HL8HNGX46NK7PKE1T6WLAD7X8NF9O","hitId":"32TZXEA1OL6QYKM0MXQIQH2ABHN14I","url":"https://gershmanlab.com/experiments/alicia/teaching/experiment/?hitId=32TZXEA1OL6QYKM0MXQIQH2ABHN14I&workerId=A3EU8ENRH654SB&assignmentId=3HL8HNGX46NK7PKE1T6WLAD7X8NF9O&a=XHLH9&tp_a=XHLH9&b=3HL8HNGX46NK7PKE1T6WLAD7X8NF9O&tp_b=3HL8HNGX46NK7PKE1T6WLAD7X8NF9O&c=365799&tp_c=365799","heads":15,"tails":0,"studentIndex":5,"studentTrueHypers":{"a":1,"b":4},"studentGuess":0.8,"delta":0,"totalExamples":15,"bonus":0.35,"bonusSoFar":1.22},{"rt":null,"stimulus":"Sending examples to student... ","response":null,"trial_type":"html-keyboard-response","trial_index":49,"time_elapsed":1629850,"internal_node_id":"0.0-48.0","params":{"nStudents":24,"maxFlips":30,"completionMinutes":45,"basePay":8,"maxBonus":9,"perTrialBonus":0.5,"perTrialBonusThreshold":0.05,"exampleCost":0.01},"classroomParams":{"A":{"a":1,"b":4},"B":{"a":4,"b":1},"C":{"a":2,"b":8},"D":{"a":8,"b":2}},"conditions":["nonSeqFull","nonSeqPartial","seqNoFeedback","seqFeedback"],"classroomPairings":[["A","B"],["C","D"]],"coinWeights":[0.2,0.5,0.8],"subjectId":"A3EU8ENRH654SB","assignmentId":"3HL8HNGX46NK7PKE1T6WLAD7X8NF9O","hitId":"32TZXEA1OL6QYKM0MXQIQH2ABHN14I","url":"https://gershmanlab.com/experiments/alicia/teaching/experiment/?hitId=32TZXEA1OL6QYKM0MXQIQH2ABHN14I&workerId=A3EU8ENRH654SB&assignmentId=3HL8HNGX46NK7PKE1T6WLAD7X8NF9O&a=XHLH9&tp_a=XHLH9&b=3HL8HNGX46NK7PKE1T6WLAD7X8NF9O&tp_b=3HL8HNGX46NK7PKE1T6WLAD7X8NF9O&c=365799&tp_c=365799"},{"rt":null,"stimulus":"Examples sent to student! Waiting for student...","response":null,"trial_type":"html-keyboard-response","trial_index":50,"time_elapsed":1634357,"internal_node_id":"0.0-49.0","params":{"nStudents":24,"maxFlips":30,"completionMinutes":45,"basePay":8,"maxBonus":9,"perTrialBonus":0.5,"perTrialBonusThreshold":0.05,"exampleCost":0.01},"classroomParams":{"A":{"a":1,"b":4},"B":{"a":4,"b":1},"C":{"a":2,"b":8},"D":{"a":8,"b":2}},"conditions":["nonSeqFull","nonSeqPartial","seqNoFeedback","seqFeedback"],"classroomPairings":[["A","B"],["C","D"]],"coinWeights":[0.2,0.5,0.8],"subjectId":"A3EU8ENRH654SB","assignmentId":"3HL8HNGX46NK7PKE1T6WLAD7X8NF9O","hitId":"32TZXEA1OL6QYKM0MXQIQH2ABHN14I","url":"https://gershmanlab.com/experiments/alicia/teaching/experiment/?hitId=32TZXEA1OL6QYKM0MXQIQH2ABHN14I&workerId=A3EU8ENRH654SB&assignmentId=3HL8HNGX46NK7PKE1T6WLAD7X8NF9O&a=XHLH9&tp_a=XHLH9&b=3HL8HNGX46NK7PKE1T6WLAD7X8NF9O&tp_b=3HL8HNGX46NK7PKE1T6WLAD7X8NF9O&c=365799&tp_c=365799"},{"rt":4430,"stimulus":"\n                <p>Student's guess for coin weight: <b style=\"color:Tomato;\">0.80</b></p>\n                <p>You received a bonus of <b>$0.35</b>. Total bonus so far: <b>$1.22</b></b></p>\n                <p></p>\n                <p>Press any key to continue.</p>\n                ","response":" ","trial_type":"html-keyboard-response","trial_index":51,"time_elapsed":1638789,"internal_node_id":"0.0-50.0","params":{"nStudents":24,"maxFlips":30,"completionMinutes":45,"basePay":8,"maxBonus":9,"perTrialBonus":0.5,"perTrialBonusThreshold":0.05,"exampleCost":0.01},"classroomParams":{"A":{"a":1,"b":4},"B":{"a":4,"b":1},"C":{"a":2,"b":8},"D":{"a":8,"b":2}},"conditions":["nonSeqFull","nonSeqPartial","seqNoFeedback","seqFeedback"],"classroomPairings":[["A","B"],["C","D"]],"coinWeights":[0.2,0.5,0.8],"subjectId":"A3EU8ENRH654SB","assignmentId":"3HL8HNGX46NK7PKE1T6WLAD7X8NF9O","hitId":"32TZXEA1OL6QYKM0MXQIQH2ABHN14I","url":"https://gershmanlab.com/experiments/alicia/teaching/experiment/?hitId=32TZXEA1OL6QYKM0MXQIQH2ABHN14I&workerId=A3EU8ENRH654SB&assignmentId=3HL8HNGX46NK7PKE1T6WLAD7X8NF9O&a=XHLH9&tp_a=XHLH9&b=3HL8HNGX46NK7PKE1T6WLAD7X8NF9O&tp_b=3HL8HNGX46NK7PKE1T6WLAD7X8NF9O&c=365799&tp_c=365799"},{"rt":null,"stimulus":"<div style=\"font-size:60px;\">Next student</div>","response":null,"trial_type":"html-keyboard-response","trial_index":52,"time_elapsed":1641051,"internal_node_id":"0.0-51.0-0.0","params":{"nStudents":24,"maxFlips":30,"completionMinutes":45,"basePay":8,"maxBonus":9,"perTrialBonus":0.5,"perTrialBonusThreshold":0.05,"exampleCost":0.01},"classroomParams":{"A":{"a":1,"b":4},"B":{"a":4,"b":1},"C":{"a":2,"b":8},"D":{"a":8,"b":2}},"conditions":["nonSeqFull","nonSeqPartial","seqNoFeedback","seqFeedback"],"classroomPairings":[["A","B"],["C","D"]],"coinWeights":[0.2,0.5,0.8],"subjectId":"A3EU8ENRH654SB","assignmentId":"3HL8HNGX46NK7PKE1T6WLAD7X8NF9O","hitId":"32TZXEA1OL6QYKM0MXQIQH2ABHN14I","url":"https://gershmanlab.com/experiments/alicia/teaching/experiment/?hitId=32TZXEA1OL6QYKM0MXQIQH2ABHN14I&workerId=A3EU8ENRH654SB&assignmentId=3HL8HNGX46NK7PKE1T6WLAD7X8NF9O&a=XHLH9&tp_a=XHLH9&b=3HL8HNGX46NK7PKE1T6WLAD7X8NF9O&tp_b=3HL8HNGX46NK7PKE1T6WLAD7X8NF9O&c=365799&tp_c=365799"},{"rt":6906,"stimulus":"\n            <h4 style=\"color:Orange;\">Student 7</h4>\n            <h2>The weight of your coin is <b style=\"color:Tomato;\">0.5</b>.</h2>\n            <p>In this block, you will be giving <b>two</b> sets of examples to Student 7.</p>\n                <p>You will receive feedback at the end of the block.</p>\n            <p></p>","response":0,"trial_type":"html-button-response","trial_index":53,"time_elapsed":1647958,"internal_node_id":"0.0-52.0","params":{"nStudents":24,"maxFlips":30,"completionMinutes":45,"basePay":8,"maxBonus":9,"perTrialBonus":0.5,"perTrialBonusThreshold":0.05,"exampleCost":0.01},"classroomParams":{"A":{"a":1,"b":4},"B":{"a":4,"b":1},"C":{"a":2,"b":8},"D":{"a":8,"b":2}},"conditions":["nonSeqFull","nonSeqPartial","seqNoFeedback","seqFeedback"],"classroomPairings":[["A","B"],["C","D"]],"coinWeights":[0.2,0.5,0.8],"subjectId":"A3EU8ENRH654SB","assignmentId":"3HL8HNGX46NK7PKE1T6WLAD7X8NF9O","hitId":"32TZXEA1OL6QYKM0MXQIQH2ABHN14I","url":"https://gershmanlab.com/experiments/alicia/teaching/experiment/?hitId=32TZXEA1OL6QYKM0MXQIQH2ABHN14I&workerId=A3EU8ENRH654SB&assignmentId=3HL8HNGX46NK7PKE1T6WLAD7X8NF9O&a=XHLH9&tp_a=XHLH9&b=3HL8HNGX46NK7PKE1T6WLAD7X8NF9O&tp_b=3HL8HNGX46NK7PKE1T6WLAD7X8NF9O&c=365799&tp_c=365799"},{"rt":29599,"response":{"heads":"1","tails":"0"},"type":"response","condition":"seqNoFeedback","trueTheta":0.5,"classrooms":["C","D"],"studentTrueClassroom":"C","exampleSet":"first","trial_type":"survey-html-form","trial_index":54,"time_elapsed":1677558,"internal_node_id":"0.0-53.0-0.0","params":{"nStudents":24,"maxFlips":30,"completionMinutes":45,"basePay":8,"maxBonus":9,"perTrialBonus":0.5,"perTrialBonusThreshold":0.05,"exampleCost":0.01},"classroomParams":{"A":{"a":1,"b":4},"B":{"a":4,"b":1},"C":{"a":2,"b":8},"D":{"a":8,"b":2}},"conditions":["nonSeqFull","nonSeqPartial","seqNoFeedback","seqFeedback"],"classroomPairings":[["A","B"],["C","D"]],"coinWeights":[0.2,0.5,0.8],"subjectId":"A3EU8ENRH654SB","assignmentId":"3HL8HNGX46NK7PKE1T6WLAD7X8NF9O","hitId":"32TZXEA1OL6QYKM0MXQIQH2ABHN14I","url":"https://gershmanlab.com/experiments/alicia/teaching/experiment/?hitId=32TZXEA1OL6QYKM0MXQIQH2ABHN14I&workerId=A3EU8ENRH654SB&assignmentId=3HL8HNGX46NK7PKE1T6WLAD7X8NF9O&a=XHLH9&tp_a=XHLH9&b=3HL8HNGX46NK7PKE1T6WLAD7X8NF9O&tp_b=3HL8HNGX46NK7PKE1T6WLAD7X8NF9O&c=365799&tp_c=365799","heads":1,"tails":0,"studentIndex":6,"studentTrueHypers":{"a":2,"b":8},"studentGuess":0.2727272727272727,"delta":0.2272727272727273,"totalExamples":1,"bonusSoFar":1.22},{"rt":null,"stimulus":"Sending examples to student... ","response":null,"trial_type":"html-keyboard-response","trial_index":55,"time_elapsed":1679567,"internal_node_id":"0.0-54.0","params":{"nStudents":24,"maxFlips":30,"completionMinutes":45,"basePay":8,"maxBonus":9,"perTrialBonus":0.5,"perTrialBonusThreshold":0.05,"exampleCost":0.01},"classroomParams":{"A":{"a":1,"b":4},"B":{"a":4,"b":1},"C":{"a":2,"b":8},"D":{"a":8,"b":2}},"conditions":["nonSeqFull","nonSeqPartial","seqNoFeedback","seqFeedback"],"classroomPairings":[["A","B"],["C","D"]],"coinWeights":[0.2,0.5,0.8],"subjectId":"A3EU8ENRH654SB","assignmentId":"3HL8HNGX46NK7PKE1T6WLAD7X8NF9O","hitId":"32TZXEA1OL6QYKM0MXQIQH2ABHN14I","url":"https://gershmanlab.com/experiments/alicia/teaching/experiment/?hitId=32TZXEA1OL6QYKM0MXQIQH2ABHN14I&workerId=A3EU8ENRH654SB&assignmentId=3HL8HNGX46NK7PKE1T6WLAD7X8NF9O&a=XHLH9&tp_a=XHLH9&b=3HL8HNGX46NK7PKE1T6WLAD7X8NF9O&tp_b=3HL8HNGX46NK7PKE1T6WLAD7X8NF9O&c=365799&tp_c=365799"},{"rt":null,"stimulus":"Examples sent to student! Waiting for student...","response":null,"trial_type":"html-keyboard-response","trial_index":56,"time_elapsed":1684572,"internal_node_id":"0.0-55.0","params":{"nStudents":24,"maxFlips":30,"completionMinutes":45,"basePay":8,"maxBonus":9,"perTrialBonus":0.5,"perTrialBonusThreshold":0.05,"exampleCost":0.01},"classroomParams":{"A":{"a":1,"b":4},"B":{"a":4,"b":1},"C":{"a":2,"b":8},"D":{"a":8,"b":2}},"conditions":["nonSeqFull","nonSeqPartial","seqNoFeedback","seqFeedback"],"classroomPairings":[["A","B"],["C","D"]],"coinWeights":[0.2,0.5,0.8],"subjectId":"A3EU8ENRH654SB","assignmentId":"3HL8HNGX46NK7PKE1T6WLAD7X8NF9O","hitId":"32TZXEA1OL6QYKM0MXQIQH2ABHN14I","url":"https://gershmanlab.com/experiments/alicia/teaching/experiment/?hitId=32TZXEA1OL6QYKM0MXQIQH2ABHN14I&workerId=A3EU8ENRH654SB&assignmentId=3HL8HNGX46NK7PKE1T6WLAD7X8NF9O&a=XHLH9&tp_a=XHLH9&b=3HL8HNGX46NK7PKE1T6WLAD7X8NF9O&tp_b=3HL8HNGX46NK7PKE1T6WLAD7X8NF9O&c=365799&tp_c=365799"},{"rt":50469,"response":{"heads":"6","tails":"0"},"type":"response","condition":"seqNoFeedback","trueTheta":0.5,"classrooms":["C","D"],"studentTrueClassroom":"C","exampleSet":"second","trial_type":"survey-html-form","trial_index":57,"time_elapsed":1735042,"internal_node_id":"0.0-56.0-0.0","params":{"nStudents":24,"maxFlips":30,"completionMinutes":45,"basePay":8,"maxBonus":9,"perTrialBonus":0.5,"perTrialBonusThreshold":0.05,"exampleCost":0.01},"classroomParams":{"A":{"a":1,"b":4},"B":{"a":4,"b":1},"C":{"a":2,"b":8},"D":{"a":8,"b":2}},"conditions":["nonSeqFull","nonSeqPartial","seqNoFeedback","seqFeedback"],"classroomPairings":[["A","B"],["C","D"]],"coinWeights":[0.2,0.5,0.8],"subjectId":"A3EU8ENRH654SB","assignmentId":"3HL8HNGX46NK7PKE1T6WLAD7X8NF9O","hitId":"32TZXEA1OL6QYKM0MXQIQH2ABHN14I","url":"https://gershmanlab.com/experiments/alicia/teaching/experiment/?hitId=32TZXEA1OL6QYKM0MXQIQH2ABHN14I&workerId=A3EU8ENRH654SB&assignmentId=3HL8HNGX46NK7PKE1T6WLAD7X8NF9O&a=XHLH9&tp_a=XHLH9&b=3HL8HNGX46NK7PKE1T6WLAD7X8NF9O&tp_b=3HL8HNGX46NK7PKE1T6WLAD7X8NF9O&c=365799&tp_c=365799","firstResponseHeads":1,"firstResponseTails":0,"secondResponseHeads":6,"secondResponseTails":0,"totalHeads":7,"totalTails":0,"studentIndex":6,"studentTrueHypers":{"a":2,"b":8},"studentGuess":0.5294117647058824,"delta":0.02941176470588236,"bonus":0.43,"bonusSoFar":1.65,"totalExamples":7},{"rt":null,"stimulus":"Sending examples to student... ","response":null,"trial_type":"html-keyboard-response","trial_index":58,"time_elapsed":1737051,"internal_node_id":"0.0-57.0","params":{"nStudents":24,"maxFlips":30,"completionMinutes":45,"basePay":8,"maxBonus":9,"perTrialBonus":0.5,"perTrialBonusThreshold":0.05,"exampleCost":0.01},"classroomParams":{"A":{"a":1,"b":4},"B":{"a":4,"b":1},"C":{"a":2,"b":8},"D":{"a":8,"b":2}},"conditions":["nonSeqFull","nonSeqPartial","seqNoFeedback","seqFeedback"],"classroomPairings":[["A","B"],["C","D"]],"coinWeights":[0.2,0.5,0.8],"subjectId":"A3EU8ENRH654SB","assignmentId":"3HL8HNGX46NK7PKE1T6WLAD7X8NF9O","hitId":"32TZXEA1OL6QYKM0MXQIQH2ABHN14I","url":"https://gershmanlab.com/experiments/alicia/teaching/experiment/?hitId=32TZXEA1OL6QYKM0MXQIQH2ABHN14I&workerId=A3EU8ENRH654SB&assignmentId=3HL8HNGX46NK7PKE1T6WLAD7X8NF9O&a=XHLH9&tp_a=XHLH9&b=3HL8HNGX46NK7PKE1T6WLAD7X8NF9O&tp_b=3HL8HNGX46NK7PKE1T6WLAD7X8NF9O&c=365799&tp_c=365799"},{"rt":null,"stimulus":"Examples sent to student! Waiting for student...","response":null,"trial_type":"html-keyboard-response","trial_index":59,"time_elapsed":1742567,"internal_node_id":"0.0-58.0","params":{"nStudents":24,"maxFlips":30,"completionMinutes":45,"basePay":8,"maxBonus":9,"perTrialBonus":0.5,"perTrialBonusThreshold":0.05,"exampleCost":0.01},"classroomParams":{"A":{"a":1,"b":4},"B":{"a":4,"b":1},"C":{"a":2,"b":8},"D":{"a":8,"b":2}},"conditions":["nonSeqFull","nonSeqPartial","seqNoFeedback","seqFeedback"],"classroomPairings":[["A","B"],["C","D"]],"coinWeights":[0.2,0.5,0.8],"subjectId":"A3EU8ENRH654SB","assignmentId":"3HL8HNGX46NK7PKE1T6WLAD7X8NF9O","hitId":"32TZXEA1OL6QYKM0MXQIQH2ABHN14I","url":"https://gershmanlab.com/experiments/alicia/teaching/experiment/?hitId=32TZXEA1OL6QYKM0MXQIQH2ABHN14I&workerId=A3EU8ENRH654SB&assignmentId=3HL8HNGX46NK7PKE1T6WLAD7X8NF9O&a=XHLH9&tp_a=XHLH9&b=3HL8HNGX46NK7PKE1T6WLAD7X8NF9O&tp_b=3HL8HNGX46NK7PKE1T6WLAD7X8NF9O&c=365799&tp_c=365799"},{"rt":8104,"stimulus":"\n                <p>Student 7's first guess for coin weight: <b style=\"color:Tomato\";>0.27</b></p>\n                <p>Student 7's second guess for coin weight: <b style=\"color:Tomato\";>0.53</b></p>\n                <p>You received a bonus of <b>$0.43</b> based on the student's second guess.</p>\n                <p>Total bonus so far: <b>$1.65</b></p>\n                <p>Press any key to continue.</p>\n                ","response":" ","trial_type":"html-keyboard-response","trial_index":60,"time_elapsed":1750674,"internal_node_id":"0.0-59.0","params":{"nStudents":24,"maxFlips":30,"completionMinutes":45,"basePay":8,"maxBonus":9,"perTrialBonus":0.5,"perTrialBonusThreshold":0.05,"exampleCost":0.01},"classroomParams":{"A":{"a":1,"b":4},"B":{"a":4,"b":1},"C":{"a":2,"b":8},"D":{"a":8,"b":2}},"conditions":["nonSeqFull","nonSeqPartial","seqNoFeedback","seqFeedback"],"classroomPairings":[["A","B"],["C","D"]],"coinWeights":[0.2,0.5,0.8],"subjectId":"A3EU8ENRH654SB","assignmentId":"3HL8HNGX46NK7PKE1T6WLAD7X8NF9O","hitId":"32TZXEA1OL6QYKM0MXQIQH2ABHN14I","url":"https://gershmanlab.com/experiments/alicia/teaching/experiment/?hitId=32TZXEA1OL6QYKM0MXQIQH2ABHN14I&workerId=A3EU8ENRH654SB&assignmentId=3HL8HNGX46NK7PKE1T6WLAD7X8NF9O&a=XHLH9&tp_a=XHLH9&b=3HL8HNGX46NK7PKE1T6WLAD7X8NF9O&tp_b=3HL8HNGX46NK7PKE1T6WLAD7X8NF9O&c=365799&tp_c=365799"},{"rt":null,"stimulus":"<div style=\"font-size:60px;\">Next student</div>","response":null,"trial_type":"html-keyboard-response","trial_index":61,"time_elapsed":1753176,"internal_node_id":"0.0-60.0-0.0","params":{"nStudents":24,"maxFlips":30,"completionMinutes":45,"basePay":8,"maxBonus":9,"perTrialBonus":0.5,"perTrialBonusThreshold":0.05,"exampleCost":0.01},"classroomParams":{"A":{"a":1,"b":4},"B":{"a":4,"b":1},"C":{"a":2,"b":8},"D":{"a":8,"b":2}},"conditions":["nonSeqFull","nonSeqPartial","seqNoFeedback","seqFeedback"],"classroomPairings":[["A","B"],["C","D"]],"coinWeights":[0.2,0.5,0.8],"subjectId":"A3EU8ENRH654SB","assignmentId":"3HL8HNGX46NK7PKE1T6WLAD7X8NF9O","hitId":"32TZXEA1OL6QYKM0MXQIQH2ABHN14I","url":"https://gershmanlab.com/experiments/alicia/teaching/experiment/?hitId=32TZXEA1OL6QYKM0MXQIQH2ABHN14I&workerId=A3EU8ENRH654SB&assignmentId=3HL8HNGX46NK7PKE1T6WLAD7X8NF9O&a=XHLH9&tp_a=XHLH9&b=3HL8HNGX46NK7PKE1T6WLAD7X8NF9O&tp_b=3HL8HNGX46NK7PKE1T6WLAD7X8NF9O&c=365799&tp_c=365799"},{"rt":53944,"stimulus":"\n            <h4 style=\"color:Orange;\">Student 8</h4>\n            <h2>The weight of your coin is <b style=\"color:Tomato;\">0.5</b>.</h2>\n            <p>In this block, you will be giving <b>one</b> set of examples to Student 8.</p>\n                <p>You will receive feedback at the end of the block.</p>\n            <p></p>","response":0,"trial_type":"html-button-response","trial_index":62,"time_elapsed":1807109,"internal_node_id":"0.0-61.0","params":{"nStudents":24,"maxFlips":30,"completionMinutes":45,"basePay":8,"maxBonus":9,"perTrialBonus":0.5,"perTrialBonusThreshold":0.05,"exampleCost":0.01},"classroomParams":{"A":{"a":1,"b":4},"B":{"a":4,"b":1},"C":{"a":2,"b":8},"D":{"a":8,"b":2}},"conditions":["nonSeqFull","nonSeqPartial","seqNoFeedback","seqFeedback"],"classroomPairings":[["A","B"],["C","D"]],"coinWeights":[0.2,0.5,0.8],"subjectId":"A3EU8ENRH654SB","assignmentId":"3HL8HNGX46NK7PKE1T6WLAD7X8NF9O","hitId":"32TZXEA1OL6QYKM0MXQIQH2ABHN14I","url":"https://gershmanlab.com/experiments/alicia/teaching/experiment/?hitId=32TZXEA1OL6QYKM0MXQIQH2ABHN14I&workerId=A3EU8ENRH654SB&assignmentId=3HL8HNGX46NK7PKE1T6WLAD7X8NF9O&a=XHLH9&tp_a=XHLH9&b=3HL8HNGX46NK7PKE1T6WLAD7X8NF9O&tp_b=3HL8HNGX46NK7PKE1T6WLAD7X8NF9O&c=365799&tp_c=365799"},{"rt":14969,"response":{"heads":"0","tails":"3"},"type":"response","condition":"nonSeqPartial","trueTheta":0.5,"classrooms":["A","B"],"studentTrueClassroom":"B","exampleSet":"first","trial_type":"survey-html-form","trial_index":63,"time_elapsed":1822079,"internal_node_id":"0.0-62.0-0.0","params":{"nStudents":24,"maxFlips":30,"completionMinutes":45,"basePay":8,"maxBonus":9,"perTrialBonus":0.5,"perTrialBonusThreshold":0.05,"exampleCost":0.01},"classroomParams":{"A":{"a":1,"b":4},"B":{"a":4,"b":1},"C":{"a":2,"b":8},"D":{"a":8,"b":2}},"conditions":["nonSeqFull","nonSeqPartial","seqNoFeedback","seqFeedback"],"classroomPairings":[["A","B"],["C","D"]],"coinWeights":[0.2,0.5,0.8],"subjectId":"A3EU8ENRH654SB","assignmentId":"3HL8HNGX46NK7PKE1T6WLAD7X8NF9O","hitId":"32TZXEA1OL6QYKM0MXQIQH2ABHN14I","url":"https://gershmanlab.com/experiments/alicia/teaching/experiment/?hitId=32TZXEA1OL6QYKM0MXQIQH2ABHN14I&workerId=A3EU8ENRH654SB&assignmentId=3HL8HNGX46NK7PKE1T6WLAD7X8NF9O&a=XHLH9&tp_a=XHLH9&b=3HL8HNGX46NK7PKE1T6WLAD7X8NF9O&tp_b=3HL8HNGX46NK7PKE1T6WLAD7X8NF9O&c=365799&tp_c=365799","heads":0,"tails":3,"studentIndex":7,"studentTrueHypers":{"a":4,"b":1},"studentGuess":0.5,"delta":0,"totalExamples":3,"bonus":0.47,"bonusSoFar":2.12},{"rt":null,"stimulus":"Sending examples to student... ","response":null,"trial_type":"html-keyboard-response","trial_index":64,"time_elapsed":1823336,"internal_node_id":"0.0-63.0","params":{"nStudents":24,"maxFlips":30,"completionMinutes":45,"basePay":8,"maxBonus":9,"perTrialBonus":0.5,"perTrialBonusThreshold":0.05,"exampleCost":0.01},"classroomParams":{"A":{"a":1,"b":4},"B":{"a":4,"b":1},"C":{"a":2,"b":8},"D":{"a":8,"b":2}},"conditions":["nonSeqFull","nonSeqPartial","seqNoFeedback","seqFeedback"],"classroomPairings":[["A","B"],["C","D"]],"coinWeights":[0.2,0.5,0.8],"subjectId":"A3EU8ENRH654SB","assignmentId":"3HL8HNGX46NK7PKE1T6WLAD7X8NF9O","hitId":"32TZXEA1OL6QYKM0MXQIQH2ABHN14I","url":"https://gershmanlab.com/experiments/alicia/teaching/experiment/?hitId=32TZXEA1OL6QYKM0MXQIQH2ABHN14I&workerId=A3EU8ENRH654SB&assignmentId=3HL8HNGX46NK7PKE1T6WLAD7X8NF9O&a=XHLH9&tp_a=XHLH9&b=3HL8HNGX46NK7PKE1T6WLAD7X8NF9O&tp_b=3HL8HNGX46NK7PKE1T6WLAD7X8NF9O&c=365799&tp_c=365799"},{"rt":null,"stimulus":"Examples sent to student! Waiting for student...","response":null,"trial_type":"html-keyboard-response","trial_index":65,"time_elapsed":1829352,"internal_node_id":"0.0-64.0","params":{"nStudents":24,"maxFlips":30,"completionMinutes":45,"basePay":8,"maxBonus":9,"perTrialBonus":0.5,"perTrialBonusThreshold":0.05,"exampleCost":0.01},"classroomParams":{"A":{"a":1,"b":4},"B":{"a":4,"b":1},"C":{"a":2,"b":8},"D":{"a":8,"b":2}},"conditions":["nonSeqFull","nonSeqPartial","seqNoFeedback","seqFeedback"],"classroomPairings":[["A","B"],["C","D"]],"coinWeights":[0.2,0.5,0.8],"subjectId":"A3EU8ENRH654SB","assignmentId":"3HL8HNGX46NK7PKE1T6WLAD7X8NF9O","hitId":"32TZXEA1OL6QYKM0MXQIQH2ABHN14I","url":"https://gershmanlab.com/experiments/alicia/teaching/experiment/?hitId=32TZXEA1OL6QYKM0MXQIQH2ABHN14I&workerId=A3EU8ENRH654SB&assignmentId=3HL8HNGX46NK7PKE1T6WLAD7X8NF9O&a=XHLH9&tp_a=XHLH9&b=3HL8HNGX46NK7PKE1T6WLAD7X8NF9O&tp_b=3HL8HNGX46NK7PKE1T6WLAD7X8NF9O&c=365799&tp_c=365799"},{"rt":2906,"stimulus":"\n                <p>Student's guess for coin weight: <b style=\"color:Tomato;\">0.50</b></p>\n                <p>You received a bonus of <b>$0.47</b>. Total bonus so far: <b>$2.12</b></b></p>\n                <p></p>\n                <p>Press any key to continue.</p>\n                ","response":" ","trial_type":"html-keyboard-response","trial_index":66,"time_elapsed":1832261,"internal_node_id":"0.0-65.0","params":{"nStudents":24,"maxFlips":30,"completionMinutes":45,"basePay":8,"maxBonus":9,"perTrialBonus":0.5,"perTrialBonusThreshold":0.05,"exampleCost":0.01},"classroomParams":{"A":{"a":1,"b":4},"B":{"a":4,"b":1},"C":{"a":2,"b":8},"D":{"a":8,"b":2}},"conditions":["nonSeqFull","nonSeqPartial","seqNoFeedback","seqFeedback"],"classroomPairings":[["A","B"],["C","D"]],"coinWeights":[0.2,0.5,0.8],"subjectId":"A3EU8ENRH654SB","assignmentId":"3HL8HNGX46NK7PKE1T6WLAD7X8NF9O","hitId":"32TZXEA1OL6QYKM0MXQIQH2ABHN14I","url":"https://gershmanlab.com/experiments/alicia/teaching/experiment/?hitId=32TZXEA1OL6QYKM0MXQIQH2ABHN14I&workerId=A3EU8ENRH654SB&assignmentId=3HL8HNGX46NK7PKE1T6WLAD7X8NF9O&a=XHLH9&tp_a=XHLH9&b=3HL8HNGX46NK7PKE1T6WLAD7X8NF9O&tp_b=3HL8HNGX46NK7PKE1T6WLAD7X8NF9O&c=365799&tp_c=365799"},{"rt":null,"stimulus":"<div style=\"font-size:60px;\">Next student</div>","response":null,"trial_type":"html-keyboard-response","trial_index":67,"time_elapsed":1835272,"internal_node_id":"0.0-66.0-0.0","params":{"nStudents":24,"maxFlips":30,"completionMinutes":45,"basePay":8,"maxBonus":9,"perTrialBonus":0.5,"perTrialBonusThreshold":0.05,"exampleCost":0.01},"classroomParams":{"A":{"a":1,"b":4},"B":{"a":4,"b":1},"C":{"a":2,"b":8},"D":{"a":8,"b":2}},"conditions":["nonSeqFull","nonSeqPartial","seqNoFeedback","seqFeedback"],"classroomPairings":[["A","B"],["C","D"]],"coinWeights":[0.2,0.5,0.8],"subjectId":"A3EU8ENRH654SB","assignmentId":"3HL8HNGX46NK7PKE1T6WLAD7X8NF9O","hitId":"32TZXEA1OL6QYKM0MXQIQH2ABHN14I","url":"https://gershmanlab.com/experiments/alicia/teaching/experiment/?hitId=32TZXEA1OL6QYKM0MXQIQH2ABHN14I&workerId=A3EU8ENRH654SB&assignmentId=3HL8HNGX46NK7PKE1T6WLAD7X8NF9O&a=XHLH9&tp_a=XHLH9&b=3HL8HNGX46NK7PKE1T6WLAD7X8NF9O&tp_b=3HL8HNGX46NK7PKE1T6WLAD7X8NF9O&c=365799&tp_c=365799"},{"rt":5506,"stimulus":"\n            <h4 style=\"color:Orange;\">Student 9</h4>\n            <h2>The weight of your coin is <b style=\"color:Tomato;\">0.8</b>.</h2>\n            <p>In this block, you will be giving <b>two</b> sets of examples to Student 9.</p>\n                <p>You will receive feedback at the end of the block.</p>\n            <p></p>","response":0,"trial_type":"html-button-response","trial_index":68,"time_elapsed":1840780,"internal_node_id":"0.0-67.0","params":{"nStudents":24,"maxFlips":30,"completionMinutes":45,"basePay":8,"maxBonus":9,"perTrialBonus":0.5,"perTrialBonusThreshold":0.05,"exampleCost":0.01},"classroomParams":{"A":{"a":1,"b":4},"B":{"a":4,"b":1},"C":{"a":2,"b":8},"D":{"a":8,"b":2}},"conditions":["nonSeqFull","nonSeqPartial","seqNoFeedback","seqFeedback"],"classroomPairings":[["A","B"],["C","D"]],"coinWeights":[0.2,0.5,0.8],"subjectId":"A3EU8ENRH654SB","assignmentId":"3HL8HNGX46NK7PKE1T6WLAD7X8NF9O","hitId":"32TZXEA1OL6QYKM0MXQIQH2ABHN14I","url":"https://gershmanlab.com/experiments/alicia/teaching/experiment/?hitId=32TZXEA1OL6QYKM0MXQIQH2ABHN14I&workerId=A3EU8ENRH654SB&assignmentId=3HL8HNGX46NK7PKE1T6WLAD7X8NF9O&a=XHLH9&tp_a=XHLH9&b=3HL8HNGX46NK7PKE1T6WLAD7X8NF9O&tp_b=3HL8HNGX46NK7PKE1T6WLAD7X8NF9O&c=365799&tp_c=365799"},{"rt":29214,"response":{"heads":"1","tails":"0"},"type":"response","condition":"seqNoFeedback","trueTheta":0.8,"classrooms":["A","B"],"studentTrueClassroom":"B","exampleSet":"first","trial_type":"survey-html-form","trial_index":69,"time_elapsed":1870008,"internal_node_id":"0.0-68.0-0.0","params":{"nStudents":24,"maxFlips":30,"completionMinutes":45,"basePay":8,"maxBonus":9,"perTrialBonus":0.5,"perTrialBonusThreshold":0.05,"exampleCost":0.01},"classroomParams":{"A":{"a":1,"b":4},"B":{"a":4,"b":1},"C":{"a":2,"b":8},"D":{"a":8,"b":2}},"conditions":["nonSeqFull","nonSeqPartial","seqNoFeedback","seqFeedback"],"classroomPairings":[["A","B"],["C","D"]],"coinWeights":[0.2,0.5,0.8],"subjectId":"A3EU8ENRH654SB","assignmentId":"3HL8HNGX46NK7PKE1T6WLAD7X8NF9O","hitId":"32TZXEA1OL6QYKM0MXQIQH2ABHN14I","url":"https://gershmanlab.com/experiments/alicia/teaching/experiment/?hitId=32TZXEA1OL6QYKM0MXQIQH2ABHN14I&workerId=A3EU8ENRH654SB&assignmentId=3HL8HNGX46NK7PKE1T6WLAD7X8NF9O&a=XHLH9&tp_a=XHLH9&b=3HL8HNGX46NK7PKE1T6WLAD7X8NF9O&tp_b=3HL8HNGX46NK7PKE1T6WLAD7X8NF9O&c=365799&tp_c=365799","heads":1,"tails":0,"studentIndex":8,"studentTrueHypers":{"a":4,"b":1},"studentGuess":0.8333333333333334,"delta":0.033333333333333326,"totalExamples":1,"bonusSoFar":2.12},{"rt":null,"stimulus":"Sending examples to student... ","response":null,"trial_type":"html-keyboard-response","trial_index":70,"time_elapsed":1871769,"internal_node_id":"0.0-69.0","params":{"nStudents":24,"maxFlips":30,"completionMinutes":45,"basePay":8,"maxBonus":9,"perTrialBonus":0.5,"perTrialBonusThreshold":0.05,"exampleCost":0.01},"classroomParams":{"A":{"a":1,"b":4},"B":{"a":4,"b":1},"C":{"a":2,"b":8},"D":{"a":8,"b":2}},"conditions":["nonSeqFull","nonSeqPartial","seqNoFeedback","seqFeedback"],"classroomPairings":[["A","B"],["C","D"]],"coinWeights":[0.2,0.5,0.8],"subjectId":"A3EU8ENRH654SB","assignmentId":"3HL8HNGX46NK7PKE1T6WLAD7X8NF9O","hitId":"32TZXEA1OL6QYKM0MXQIQH2ABHN14I","url":"https://gershmanlab.com/experiments/alicia/teaching/experiment/?hitId=32TZXEA1OL6QYKM0MXQIQH2ABHN14I&workerId=A3EU8ENRH654SB&assignmentId=3HL8HNGX46NK7PKE1T6WLAD7X8NF9O&a=XHLH9&tp_a=XHLH9&b=3HL8HNGX46NK7PKE1T6WLAD7X8NF9O&tp_b=3HL8HNGX46NK7PKE1T6WLAD7X8NF9O&c=365799&tp_c=365799"},{"rt":null,"stimulus":"Examples sent to student! Waiting for student...","response":null,"trial_type":"html-keyboard-response","trial_index":71,"time_elapsed":1877771,"internal_node_id":"0.0-70.0","params":{"nStudents":24,"maxFlips":30,"completionMinutes":45,"basePay":8,"maxBonus":9,"perTrialBonus":0.5,"perTrialBonusThreshold":0.05,"exampleCost":0.01},"classroomParams":{"A":{"a":1,"b":4},"B":{"a":4,"b":1},"C":{"a":2,"b":8},"D":{"a":8,"b":2}},"conditions":["nonSeqFull","nonSeqPartial","seqNoFeedback","seqFeedback"],"classroomPairings":[["A","B"],["C","D"]],"coinWeights":[0.2,0.5,0.8],"subjectId":"A3EU8ENRH654SB","assignmentId":"3HL8HNGX46NK7PKE1T6WLAD7X8NF9O","hitId":"32TZXEA1OL6QYKM0MXQIQH2ABHN14I","url":"https://gershmanlab.com/experiments/alicia/teaching/experiment/?hitId=32TZXEA1OL6QYKM0MXQIQH2ABHN14I&workerId=A3EU8ENRH654SB&assignmentId=3HL8HNGX46NK7PKE1T6WLAD7X8NF9O&a=XHLH9&tp_a=XHLH9&b=3HL8HNGX46NK7PKE1T6WLAD7X8NF9O&tp_b=3HL8HNGX46NK7PKE1T6WLAD7X8NF9O&c=365799&tp_c=365799"},{"rt":13602,"response":{"heads":"15","tails":"0"},"type":"response","condition":"seqNoFeedback","trueTheta":0.8,"classrooms":["A","B"],"studentTrueClassroom":"B","exampleSet":"second","trial_type":"survey-html-form","trial_index":72,"time_elapsed":1891375,"internal_node_id":"0.0-71.0-0.0","params":{"nStudents":24,"maxFlips":30,"completionMinutes":45,"basePay":8,"maxBonus":9,"perTrialBonus":0.5,"perTrialBonusThreshold":0.05,"exampleCost":0.01},"classroomParams":{"A":{"a":1,"b":4},"B":{"a":4,"b":1},"C":{"a":2,"b":8},"D":{"a":8,"b":2}},"conditions":["nonSeqFull","nonSeqPartial","seqNoFeedback","seqFeedback"],"classroomPairings":[["A","B"],["C","D"]],"coinWeights":[0.2,0.5,0.8],"subjectId":"A3EU8ENRH654SB","assignmentId":"3HL8HNGX46NK7PKE1T6WLAD7X8NF9O","hitId":"32TZXEA1OL6QYKM0MXQIQH2ABHN14I","url":"https://gershmanlab.com/experiments/alicia/teaching/experiment/?hitId=32TZXEA1OL6QYKM0MXQIQH2ABHN14I&workerId=A3EU8ENRH654SB&assignmentId=3HL8HNGX46NK7PKE1T6WLAD7X8NF9O&a=XHLH9&tp_a=XHLH9&b=3HL8HNGX46NK7PKE1T6WLAD7X8NF9O&tp_b=3HL8HNGX46NK7PKE1T6WLAD7X8NF9O&c=365799&tp_c=365799","firstResponseHeads":1,"firstResponseTails":0,"secondResponseHeads":15,"secondResponseTails":0,"totalHeads":16,"totalTails":0,"studentIndex":8,"studentTrueHypers":{"a":4,"b":1},"studentGuess":0.9523809523809523,"delta":0.15238095238095228,"bonus":0,"bonusSoFar":2.12,"totalExamples":16},{"rt":null,"stimulus":"Sending examples to student... ","response":null,"trial_type":"html-keyboard-response","trial_index":73,"time_elapsed":1892880,"internal_node_id":"0.0-72.0","params":{"nStudents":24,"maxFlips":30,"completionMinutes":45,"basePay":8,"maxBonus":9,"perTrialBonus":0.5,"perTrialBonusThreshold":0.05,"exampleCost":0.01},"classroomParams":{"A":{"a":1,"b":4},"B":{"a":4,"b":1},"C":{"a":2,"b":8},"D":{"a":8,"b":2}},"conditions":["nonSeqFull","nonSeqPartial","seqNoFeedback","seqFeedback"],"classroomPairings":[["A","B"],["C","D"]],"coinWeights":[0.2,0.5,0.8],"subjectId":"A3EU8ENRH654SB","assignmentId":"3HL8HNGX46NK7PKE1T6WLAD7X8NF9O","hitId":"32TZXEA1OL6QYKM0MXQIQH2ABHN14I","url":"https://gershmanlab.com/experiments/alicia/teaching/experiment/?hitId=32TZXEA1OL6QYKM0MXQIQH2ABHN14I&workerId=A3EU8ENRH654SB&assignmentId=3HL8HNGX46NK7PKE1T6WLAD7X8NF9O&a=XHLH9&tp_a=XHLH9&b=3HL8HNGX46NK7PKE1T6WLAD7X8NF9O&tp_b=3HL8HNGX46NK7PKE1T6WLAD7X8NF9O&c=365799&tp_c=365799"},{"rt":null,"stimulus":"Examples sent to student! Waiting for student...","response":null,"trial_type":"html-keyboard-response","trial_index":74,"time_elapsed":1898396,"internal_node_id":"0.0-73.0","params":{"nStudents":24,"maxFlips":30,"completionMinutes":45,"basePay":8,"maxBonus":9,"perTrialBonus":0.5,"perTrialBonusThreshold":0.05,"exampleCost":0.01},"classroomParams":{"A":{"a":1,"b":4},"B":{"a":4,"b":1},"C":{"a":2,"b":8},"D":{"a":8,"b":2}},"conditions":["nonSeqFull","nonSeqPartial","seqNoFeedback","seqFeedback"],"classroomPairings":[["A","B"],["C","D"]],"coinWeights":[0.2,0.5,0.8],"subjectId":"A3EU8ENRH654SB","assignmentId":"3HL8HNGX46NK7PKE1T6WLAD7X8NF9O","hitId":"32TZXEA1OL6QYKM0MXQIQH2ABHN14I","url":"https://gershmanlab.com/experiments/alicia/teaching/experiment/?hitId=32TZXEA1OL6QYKM0MXQIQH2ABHN14I&workerId=A3EU8ENRH654SB&assignmentId=3HL8HNGX46NK7PKE1T6WLAD7X8NF9O&a=XHLH9&tp_a=XHLH9&b=3HL8HNGX46NK7PKE1T6WLAD7X8NF9O&tp_b=3HL8HNGX46NK7PKE1T6WLAD7X8NF9O&c=365799&tp_c=365799"},{"rt":22225,"stimulus":"\n                <p>Student 9's first guess for coin weight: <b style=\"color:Tomato\";>0.83</b></p>\n                <p>Student 9's second guess for coin weight: <b style=\"color:Tomato\";>0.95</b></p>\n                <p>You received a bonus of <b>$0.00</b> based on the student's second guess.</p>\n                <p>Total bonus so far: <b>$2.12</b></p>\n                <p>Press any key to continue.</p>\n                ","response":" ","trial_type":"html-keyboard-response","trial_index":75,"time_elapsed":1920622,"internal_node_id":"0.0-74.0","params":{"nStudents":24,"maxFlips":30,"completionMinutes":45,"basePay":8,"maxBonus":9,"perTrialBonus":0.5,"perTrialBonusThreshold":0.05,"exampleCost":0.01},"classroomParams":{"A":{"a":1,"b":4},"B":{"a":4,"b":1},"C":{"a":2,"b":8},"D":{"a":8,"b":2}},"conditions":["nonSeqFull","nonSeqPartial","seqNoFeedback","seqFeedback"],"classroomPairings":[["A","B"],["C","D"]],"coinWeights":[0.2,0.5,0.8],"subjectId":"A3EU8ENRH654SB","assignmentId":"3HL8HNGX46NK7PKE1T6WLAD7X8NF9O","hitId":"32TZXEA1OL6QYKM0MXQIQH2ABHN14I","url":"https://gershmanlab.com/experiments/alicia/teaching/experiment/?hitId=32TZXEA1OL6QYKM0MXQIQH2ABHN14I&workerId=A3EU8ENRH654SB&assignmentId=3HL8HNGX46NK7PKE1T6WLAD7X8NF9O&a=XHLH9&tp_a=XHLH9&b=3HL8HNGX46NK7PKE1T6WLAD7X8NF9O&tp_b=3HL8HNGX46NK7PKE1T6WLAD7X8NF9O&c=365799&tp_c=365799"},{"rt":null,"stimulus":"<div style=\"font-size:60px;\">Next student</div>","response":null,"trial_type":"html-keyboard-response","trial_index":76,"time_elapsed":1922630,"internal_node_id":"0.0-75.0-0.0","params":{"nStudents":24,"maxFlips":30,"completionMinutes":45,"basePay":8,"maxBonus":9,"perTrialBonus":0.5,"perTrialBonusThreshold":0.05,"exampleCost":0.01},"classroomParams":{"A":{"a":1,"b":4},"B":{"a":4,"b":1},"C":{"a":2,"b":8},"D":{"a":8,"b":2}},"conditions":["nonSeqFull","nonSeqPartial","seqNoFeedback","seqFeedback"],"classroomPairings":[["A","B"],["C","D"]],"coinWeights":[0.2,0.5,0.8],"subjectId":"A3EU8ENRH654SB","assignmentId":"3HL8HNGX46NK7PKE1T6WLAD7X8NF9O","hitId":"32TZXEA1OL6QYKM0MXQIQH2ABHN14I","url":"https://gershmanlab.com/experiments/alicia/teaching/experiment/?hitId=32TZXEA1OL6QYKM0MXQIQH2ABHN14I&workerId=A3EU8ENRH654SB&assignmentId=3HL8HNGX46NK7PKE1T6WLAD7X8NF9O&a=XHLH9&tp_a=XHLH9&b=3HL8HNGX46NK7PKE1T6WLAD7X8NF9O&tp_b=3HL8HNGX46NK7PKE1T6WLAD7X8NF9O&c=365799&tp_c=365799"},{"rt":11542,"stimulus":"\n            <h4 style=\"color:Orange;\">Student 10</h4>\n            <h2>The weight of your coin is <b style=\"color:Tomato;\">0.8</b>.</h2>\n            <p>In this block, you will be giving <b>two</b> sets of examples to Student 10.</p>\n                <p>You will see the student's guess after the first set of examples. You will also receive feedback at the end of the block.</p>\n            <p>To earn the highest bonus, you will have to <b>take into consideration the student's guess</b> when you choose your second set of examples.</p>","response":0,"trial_type":"html-button-response","trial_index":77,"time_elapsed":1934172,"internal_node_id":"0.0-76.0","params":{"nStudents":24,"maxFlips":30,"completionMinutes":45,"basePay":8,"maxBonus":9,"perTrialBonus":0.5,"perTrialBonusThreshold":0.05,"exampleCost":0.01},"classroomParams":{"A":{"a":1,"b":4},"B":{"a":4,"b":1},"C":{"a":2,"b":8},"D":{"a":8,"b":2}},"conditions":["nonSeqFull","nonSeqPartial","seqNoFeedback","seqFeedback"],"classroomPairings":[["A","B"],["C","D"]],"coinWeights":[0.2,0.5,0.8],"subjectId":"A3EU8ENRH654SB","assignmentId":"3HL8HNGX46NK7PKE1T6WLAD7X8NF9O","hitId":"32TZXEA1OL6QYKM0MXQIQH2ABHN14I","url":"https://gershmanlab.com/experiments/alicia/teaching/experiment/?hitId=32TZXEA1OL6QYKM0MXQIQH2ABHN14I&workerId=A3EU8ENRH654SB&assignmentId=3HL8HNGX46NK7PKE1T6WLAD7X8NF9O&a=XHLH9&tp_a=XHLH9&b=3HL8HNGX46NK7PKE1T6WLAD7X8NF9O&tp_b=3HL8HNGX46NK7PKE1T6WLAD7X8NF9O&c=365799&tp_c=365799"},{"rt":15401,"response":{"heads":"0","tails":"0"},"type":"response","condition":"seqFeedback","trueTheta":0.8,"classrooms":["A","B"],"studentTrueClassroom":"A","exampleSet":"first","trial_type":"survey-html-form","trial_index":78,"time_elapsed":1949574,"internal_node_id":"0.0-77.0-0.0","params":{"nStudents":24,"maxFlips":30,"completionMinutes":45,"basePay":8,"maxBonus":9,"perTrialBonus":0.5,"perTrialBonusThreshold":0.05,"exampleCost":0.01},"classroomParams":{"A":{"a":1,"b":4},"B":{"a":4,"b":1},"C":{"a":2,"b":8},"D":{"a":8,"b":2}},"conditions":["nonSeqFull","nonSeqPartial","seqNoFeedback","seqFeedback"],"classroomPairings":[["A","B"],["C","D"]],"coinWeights":[0.2,0.5,0.8],"subjectId":"A3EU8ENRH654SB","assignmentId":"3HL8HNGX46NK7PKE1T6WLAD7X8NF9O","hitId":"32TZXEA1OL6QYKM0MXQIQH2ABHN14I","url":"https://gershmanlab.com/experiments/alicia/teaching/experiment/?hitId=32TZXEA1OL6QYKM0MXQIQH2ABHN14I&workerId=A3EU8ENRH654SB&assignmentId=3HL8HNGX46NK7PKE1T6WLAD7X8NF9O&a=XHLH9&tp_a=XHLH9&b=3HL8HNGX46NK7PKE1T6WLAD7X8NF9O&tp_b=3HL8HNGX46NK7PKE1T6WLAD7X8NF9O&c=365799&tp_c=365799","heads":0,"tails":0,"studentIndex":9,"studentTrueHypers":{"a":1,"b":4},"studentGuess":0.2,"delta":0.6000000000000001,"totalExamples":0,"bonusSoFar":2.12},{"rt":2832,"response":{"heads":"0","tails":"0"},"type":"response","condition":"seqFeedback","trueTheta":0.8,"classrooms":["A","B"],"studentTrueClassroom":"A","exampleSet":"first","trial_type":"survey-html-form","trial_index":79,"time_elapsed":1952408,"internal_node_id":"0.0-77.1-0.1","params":{"nStudents":24,"maxFlips":30,"completionMinutes":45,"basePay":8,"maxBonus":9,"perTrialBonus":0.5,"perTrialBonusThreshold":0.05,"exampleCost":0.01},"classroomParams":{"A":{"a":1,"b":4},"B":{"a":4,"b":1},"C":{"a":2,"b":8},"D":{"a":8,"b":2}},"conditions":["nonSeqFull","nonSeqPartial","seqNoFeedback","seqFeedback"],"classroomPairings":[["A","B"],["C","D"]],"coinWeights":[0.2,0.5,0.8],"subjectId":"A3EU8ENRH654SB","assignmentId":"3HL8HNGX46NK7PKE1T6WLAD7X8NF9O","hitId":"32TZXEA1OL6QYKM0MXQIQH2ABHN14I","url":"https://gershmanlab.com/experiments/alicia/teaching/experiment/?hitId=32TZXEA1OL6QYKM0MXQIQH2ABHN14I&workerId=A3EU8ENRH654SB&assignmentId=3HL8HNGX46NK7PKE1T6WLAD7X8NF9O&a=XHLH9&tp_a=XHLH9&b=3HL8HNGX46NK7PKE1T6WLAD7X8NF9O&tp_b=3HL8HNGX46NK7PKE1T6WLAD7X8NF9O&c=365799&tp_c=365799","heads":0,"tails":0,"studentIndex":9,"studentTrueHypers":{"a":1,"b":4},"studentGuess":0.2,"delta":0.6000000000000001,"totalExamples":0,"bonusSoFar":2.12},{"rt":6114,"response":{"heads":"1","tails":"0"},"type":"response","condition":"seqFeedback","trueTheta":0.8,"classrooms":["A","B"],"studentTrueClassroom":"A","exampleSet":"first","trial_type":"survey-html-form","trial_index":80,"time_elapsed":1958523,"internal_node_id":"0.0-77.2-0.2","params":{"nStudents":24,"maxFlips":30,"completionMinutes":45,"basePay":8,"maxBonus":9,"perTrialBonus":0.5,"perTrialBonusThreshold":0.05,"exampleCost":0.01},"classroomParams":{"A":{"a":1,"b":4},"B":{"a":4,"b":1},"C":{"a":2,"b":8},"D":{"a":8,"b":2}},"conditions":["nonSeqFull","nonSeqPartial","seqNoFeedback","seqFeedback"],"classroomPairings":[["A","B"],["C","D"]],"coinWeights":[0.2,0.5,0.8],"subjectId":"A3EU8ENRH654SB","assignmentId":"3HL8HNGX46NK7PKE1T6WLAD7X8NF9O","hitId":"32TZXEA1OL6QYKM0MXQIQH2ABHN14I","url":"https://gershmanlab.com/experiments/alicia/teaching/experiment/?hitId=32TZXEA1OL6QYKM0MXQIQH2ABHN14I&workerId=A3EU8ENRH654SB&assignmentId=3HL8HNGX46NK7PKE1T6WLAD7X8NF9O&a=XHLH9&tp_a=XHLH9&b=3HL8HNGX46NK7PKE1T6WLAD7X8NF9O&tp_b=3HL8HNGX46NK7PKE1T6WLAD7X8NF9O&c=365799&tp_c=365799","heads":1,"tails":0,"studentIndex":9,"studentTrueHypers":{"a":1,"b":4},"studentGuess":0.3333333333333333,"delta":0.46666666666666673,"totalExamples":1,"bonusSoFar":2.12},{"rt":null,"stimulus":"Sending examples to student... ","response":null,"trial_type":"html-keyboard-response","trial_index":81,"time_elapsed":1960285,"internal_node_id":"0.0-78.0","params":{"nStudents":24,"maxFlips":30,"completionMinutes":45,"basePay":8,"maxBonus":9,"perTrialBonus":0.5,"perTrialBonusThreshold":0.05,"exampleCost":0.01},"classroomParams":{"A":{"a":1,"b":4},"B":{"a":4,"b":1},"C":{"a":2,"b":8},"D":{"a":8,"b":2}},"conditions":["nonSeqFull","nonSeqPartial","seqNoFeedback","seqFeedback"],"classroomPairings":[["A","B"],["C","D"]],"coinWeights":[0.2,0.5,0.8],"subjectId":"A3EU8ENRH654SB","assignmentId":"3HL8HNGX46NK7PKE1T6WLAD7X8NF9O","hitId":"32TZXEA1OL6QYKM0MXQIQH2ABHN14I","url":"https://gershmanlab.com/experiments/alicia/teaching/experiment/?hitId=32TZXEA1OL6QYKM0MXQIQH2ABHN14I&workerId=A3EU8ENRH654SB&assignmentId=3HL8HNGX46NK7PKE1T6WLAD7X8NF9O&a=XHLH9&tp_a=XHLH9&b=3HL8HNGX46NK7PKE1T6WLAD7X8NF9O&tp_b=3HL8HNGX46NK7PKE1T6WLAD7X8NF9O&c=365799&tp_c=365799"},{"rt":null,"stimulus":"Examples sent to student! Waiting for student...","response":null,"trial_type":"html-keyboard-response","trial_index":82,"time_elapsed":1966300,"internal_node_id":"0.0-79.0","params":{"nStudents":24,"maxFlips":30,"completionMinutes":45,"basePay":8,"maxBonus":9,"perTrialBonus":0.5,"perTrialBonusThreshold":0.05,"exampleCost":0.01},"classroomParams":{"A":{"a":1,"b":4},"B":{"a":4,"b":1},"C":{"a":2,"b":8},"D":{"a":8,"b":2}},"conditions":["nonSeqFull","nonSeqPartial","seqNoFeedback","seqFeedback"],"classroomPairings":[["A","B"],["C","D"]],"coinWeights":[0.2,0.5,0.8],"subjectId":"A3EU8ENRH654SB","assignmentId":"3HL8HNGX46NK7PKE1T6WLAD7X8NF9O","hitId":"32TZXEA1OL6QYKM0MXQIQH2ABHN14I","url":"https://gershmanlab.com/experiments/alicia/teaching/experiment/?hitId=32TZXEA1OL6QYKM0MXQIQH2ABHN14I&workerId=A3EU8ENRH654SB&assignmentId=3HL8HNGX46NK7PKE1T6WLAD7X8NF9O&a=XHLH9&tp_a=XHLH9&b=3HL8HNGX46NK7PKE1T6WLAD7X8NF9O&tp_b=3HL8HNGX46NK7PKE1T6WLAD7X8NF9O&c=365799&tp_c=365799"},{"rt":9535,"stimulus":"\n                <p>Student's guess for coin weight: <b style=\"color:Tomato;\">0.20</b></p>\n                <p></b></p>\n                <p>You will now send another set of examples to your student. <b>Remember to take your student's guess into consideration so that you can earn the highest bonus possible!</b> </p>\n                <p>Press any key to continue.</p>\n                ","response":" ","trial_type":"html-keyboard-response","trial_index":83,"time_elapsed":1975835,"internal_node_id":"0.0-80.0","params":{"nStudents":24,"maxFlips":30,"completionMinutes":45,"basePay":8,"maxBonus":9,"perTrialBonus":0.5,"perTrialBonusThreshold":0.05,"exampleCost":0.01},"classroomParams":{"A":{"a":1,"b":4},"B":{"a":4,"b":1},"C":{"a":2,"b":8},"D":{"a":8,"b":2}},"conditions":["nonSeqFull","nonSeqPartial","seqNoFeedback","seqFeedback"],"classroomPairings":[["A","B"],["C","D"]],"coinWeights":[0.2,0.5,0.8],"subjectId":"A3EU8ENRH654SB","assignmentId":"3HL8HNGX46NK7PKE1T6WLAD7X8NF9O","hitId":"32TZXEA1OL6QYKM0MXQIQH2ABHN14I","url":"https://gershmanlab.com/experiments/alicia/teaching/experiment/?hitId=32TZXEA1OL6QYKM0MXQIQH2ABHN14I&workerId=A3EU8ENRH654SB&assignmentId=3HL8HNGX46NK7PKE1T6WLAD7X8NF9O&a=XHLH9&tp_a=XHLH9&b=3HL8HNGX46NK7PKE1T6WLAD7X8NF9O&tp_b=3HL8HNGX46NK7PKE1T6WLAD7X8NF9O&c=365799&tp_c=365799"},{"rt":34655,"response":{"heads":"14","tails":"0"},"type":"response","condition":"seqFeedback","trueTheta":0.8,"classrooms":["A","B"],"studentTrueClassroom":"A","exampleSet":"second","trial_type":"survey-html-form","trial_index":84,"time_elapsed":2010492,"internal_node_id":"0.0-81.0-0.0","params":{"nStudents":24,"maxFlips":30,"completionMinutes":45,"basePay":8,"maxBonus":9,"perTrialBonus":0.5,"perTrialBonusThreshold":0.05,"exampleCost":0.01},"classroomParams":{"A":{"a":1,"b":4},"B":{"a":4,"b":1},"C":{"a":2,"b":8},"D":{"a":8,"b":2}},"conditions":["nonSeqFull","nonSeqPartial","seqNoFeedback","seqFeedback"],"classroomPairings":[["A","B"],["C","D"]],"coinWeights":[0.2,0.5,0.8],"subjectId":"A3EU8ENRH654SB","assignmentId":"3HL8HNGX46NK7PKE1T6WLAD7X8NF9O","hitId":"32TZXEA1OL6QYKM0MXQIQH2ABHN14I","url":"https://gershmanlab.com/experiments/alicia/teaching/experiment/?hitId=32TZXEA1OL6QYKM0MXQIQH2ABHN14I&workerId=A3EU8ENRH654SB&assignmentId=3HL8HNGX46NK7PKE1T6WLAD7X8NF9O&a=XHLH9&tp_a=XHLH9&b=3HL8HNGX46NK7PKE1T6WLAD7X8NF9O&tp_b=3HL8HNGX46NK7PKE1T6WLAD7X8NF9O&c=365799&tp_c=365799","firstResponseHeads":0,"firstResponseTails":0,"secondResponseHeads":14,"secondResponseTails":0,"totalHeads":14,"totalTails":0,"studentIndex":9,"studentTrueHypers":{"a":1,"b":4},"studentGuess":0.7894736842105263,"delta":0.010526315789473717,"bonus":0.36,"bonusSoFar":2.48,"totalExamples":14},{"rt":null,"stimulus":"Sending examples to student... ","response":null,"trial_type":"html-keyboard-response","trial_index":85,"time_el