[{"rt":4761,"stimulus":"Welcome to the experiment. Press any key to begin.","response":" ","trial_type":"html-keyboard-response","trial_index":0,"time_elapsed":4776,"internal_node_id":"0.0-0.0","params":{"nStudents":24,"maxFlips":30,"completionMinutes":45,"basePay":8,"maxBonus":9,"perTrialBonus":0.5,"perTrialBonusThreshold":0.05,"exampleCost":0.01},"classroomParams":{"A":{"a":1,"b":4},"B":{"a":4,"b":1},"C":{"a":2,"b":8},"D":{"a":8,"b":2}},"conditions":["nonSeqFull","nonSeqPartial","seqNoFeedback","seqFeedback"],"classroomPairings":[["A","B"],["C","D"]],"coinWeights":[0.2,0.5,0.8],"subjectId":"A3G5IPGLH1IIZN","assignmentId":"3QEMNNSB2YLJVMIPVQDMJEJGQ5JD7Z","hitId":"3J94SKDEKIB2MY6CGVTNWB9X0ALD5P","url":"https://gershmanlab.com/experiments/alicia/teaching/experiment/?hitId=3J94SKDEKIB2MY6CGVTNWB9X0ALD5P&workerId=A3G5IPGLH1IIZN&assignmentId=3QEMNNSB2YLJVMIPVQDMJEJGQ5JD7Z&a=BNEQ9&tp_a=BNEQ9&b=3QEMNNSB2YLJVMIPVQDMJEJGQ5JD7Z&tp_b=3QEMNNSB2YLJVMIPVQDMJEJGQ5JD7Z&c=365799&tp_c=365799"},{"rt":29923,"stimulus":"\n        <h3>Please read this consent agreement carefully before deciding whether to participate in this experiment.</h3>\n        <p><b>Purpose of the research:</b> To examine how people teach effectively.</p>\n        <p><b>What you will do in this research:</b> You will teach students the weights of different coins.</p>\n        <p><b>Time required:</b> This experiment will take 45 minutes to complete.</p>\n        <p><b>Risks:</b> There are no anticipated risks associated with participating in this study.             The effects of participating should be comparable to those you would experience from viewing a computer monitor             and using a mouse and keyboard for the duration of the experiment.</p>\n        <p><b>Benefits:</b> The study provides important information about the nature of teaching.</p>\n        <p><b>Compensation:</b> You will receive <b>$8</b> for completing the experiment and a performance bonus of up to <b>$9</b>.</p>\n        <p><b>Confidentiality:</b> Your participation in this study will remain confidential.             No personally identifiable information will be associated with your data.             Your de-identified data may be shared with other researchers and used in future projects.</p>\n        <p><b>Participation and withdrawal:</b> Your participation in this study is completely voluntary and             you may refuse to participate or you may choose to withdraw at any time without penalty or loss of\n            benefits to which you are otherwise entitled.</p>\n        <p><b>How to contact the researcher:</b> If you have questions or concerns about your participation            or payment, or want to request a summary of research findings, please contact\n            Alicia Chen, aliciachen@college.harvard.edu.</p>\n        <p><b>Whom to contact about your rights in this research:</b> For questions, concerns, suggestions,             or complaints that have not been or cannot be addressed by the researcher, or to report             research-related harm, please contact the Committee on the Use of Human Subjects in Research at Harvard University,             1414 Massachusetts Avenue, Second Floor, Cambridge, MA 02138. Phone: 617-496-2847. Email: cuhs@fas.harvard.edu.</p>\n        ","response":0,"trial_type":"html-button-response","trial_index":1,"time_elapsed":34705,"internal_node_id":"0.0-1.0","params":{"nStudents":24,"maxFlips":30,"completionMinutes":45,"basePay":8,"maxBonus":9,"perTrialBonus":0.5,"perTrialBonusThreshold":0.05,"exampleCost":0.01},"classroomParams":{"A":{"a":1,"b":4},"B":{"a":4,"b":1},"C":{"a":2,"b":8},"D":{"a":8,"b":2}},"conditions":["nonSeqFull","nonSeqPartial","seqNoFeedback","seqFeedback"],"classroomPairings":[["A","B"],["C","D"]],"coinWeights":[0.2,0.5,0.8],"subjectId":"A3G5IPGLH1IIZN","assignmentId":"3QEMNNSB2YLJVMIPVQDMJEJGQ5JD7Z","hitId":"3J94SKDEKIB2MY6CGVTNWB9X0ALD5P","url":"https://gershmanlab.com/experiments/alicia/teaching/experiment/?hitId=3J94SKDEKIB2MY6CGVTNWB9X0ALD5P&workerId=A3G5IPGLH1IIZN&assignmentId=3QEMNNSB2YLJVMIPVQDMJEJGQ5JD7Z&a=BNEQ9&tp_a=BNEQ9&b=3QEMNNSB2YLJVMIPVQDMJEJGQ5JD7Z&tp_b=3QEMNNSB2YLJVMIPVQDMJEJGQ5JD7Z&c=365799&tp_c=365799"},{"view_history":[{"page_index":0,"viewing_time":15347},{"page_index":1,"viewing_time":2848},{"page_index":2,"viewing_time":40576},{"page_index":3,"viewing_time":28944},{"page_index":4,"viewing_time":19032},{"page_index":5,"viewing_time":98984},{"page_index":6,"viewing_time":102496}],"rt":308229,"trial_type":"instructions","trial_index":2,"time_elapsed":342937,"internal_node_id":"0.0-2.0-0.0","params":{"nStudents":24,"maxFlips":30,"completionMinutes":45,"basePay":8,"maxBonus":9,"perTrialBonus":0.5,"perTrialBonusThreshold":0.05,"exampleCost":0.01},"classroomParams":{"A":{"a":1,"b":4},"B":{"a":4,"b":1},"C":{"a":2,"b":8},"D":{"a":8,"b":2}},"conditions":["nonSeqFull","nonSeqPartial","seqNoFeedback","seqFeedback"],"classroomPairings":[["A","B"],["C","D"]],"coinWeights":[0.2,0.5,0.8],"subjectId":"A3G5IPGLH1IIZN","assignmentId":"3QEMNNSB2YLJVMIPVQDMJEJGQ5JD7Z","hitId":"3J94SKDEKIB2MY6CGVTNWB9X0ALD5P","url":"https://gershmanlab.com/experiments/alicia/teaching/experiment/?hitId=3J94SKDEKIB2MY6CGVTNWB9X0ALD5P&workerId=A3G5IPGLH1IIZN&assignmentId=3QEMNNSB2YLJVMIPVQDMJEJGQ5JD7Z&a=BNEQ9&tp_a=BNEQ9&b=3QEMNNSB2YLJVMIPVQDMJEJGQ5JD7Z&tp_b=3QEMNNSB2YLJVMIPVQDMJEJGQ5JD7Z&c=365799&tp_c=365799"},{"rt":60699,"response":{"Q0":"Students in different classrooms will have seen a different number of heads and tails before seeing the examples you select for them.","Q1":"By <b>considering the student's classroom information</b> so that I can teach efficiently and accurately/helpfully at the same time (because each example I give to the student costs money!).","Q2":"The coin lands heads 90% of the time.","Q3":"Yes, I might encounter the same student twice.","Q4":"The students are also on the same alien planet as you, where coins can be unfair.","Q5":"Based on the student's second (and final) guess."},"question_order":[3,4,1,0,5,2],"trial_type":"survey-multi-choice","trial_index":3,"time_elapsed":403646,"internal_node_id":"0.0-2.0-1.0","params":{"nStudents":24,"maxFlips":30,"completionMinutes":45,"basePay":8,"maxBonus":9,"perTrialBonus":0.5,"perTrialBonusThreshold":0.05,"exampleCost":0.01},"classroomParams":{"A":{"a":1,"b":4},"B":{"a":4,"b":1},"C":{"a":2,"b":8},"D":{"a":8,"b":2}},"conditions":["nonSeqFull","nonSeqPartial","seqNoFeedback","seqFeedback"],"classroomPairings":[["A","B"],["C","D"]],"coinWeights":[0.2,0.5,0.8],"subjectId":"A3G5IPGLH1IIZN","assignmentId":"3QEMNNSB2YLJVMIPVQDMJEJGQ5JD7Z","hitId":"3J94SKDEKIB2MY6CGVTNWB9X0ALD5P","url":"https://gershmanlab.com/experiments/alicia/teaching/experiment/?hitId=3J94SKDEKIB2MY6CGVTNWB9X0ALD5P&workerId=A3G5IPGLH1IIZN&assignmentId=3QEMNNSB2YLJVMIPVQDMJEJGQ5JD7Z&a=BNEQ9&tp_a=BNEQ9&b=3QEMNNSB2YLJVMIPVQDMJEJGQ5JD7Z&tp_b=3QEMNNSB2YLJVMIPVQDMJEJGQ5JD7Z&c=365799&tp_c=365799","pass":false},{"rt":4051,"stimulus":"Oops, you have missed question(s) on the comprehension check! We'll show you the instructions again.","response":0,"trial_type":"html-button-response","trial_index":4,"time_elapsed":407712,"internal_node_id":"0.0-2.0-2.0-0.0","params":{"nStudents":24,"maxFlips":30,"completionMinutes":45,"basePay":8,"maxBonus":9,"perTrialBonus":0.5,"perTrialBonusThreshold":0.05,"exampleCost":0.01},"classroomParams":{"A":{"a":1,"b":4},"B":{"a":4,"b":1},"C":{"a":2,"b":8},"D":{"a":8,"b":2}},"conditions":["nonSeqFull","nonSeqPartial","seqNoFeedback","seqFeedback"],"classroomPairings":[["A","B"],["C","D"]],"coinWeights":[0.2,0.5,0.8],"subjectId":"A3G5IPGLH1IIZN","assignmentId":"3QEMNNSB2YLJVMIPVQDMJEJGQ5JD7Z","hitId":"3J94SKDEKIB2MY6CGVTNWB9X0ALD5P","url":"https://gershmanlab.com/experiments/alicia/teaching/experiment/?hitId=3J94SKDEKIB2MY6CGVTNWB9X0ALD5P&workerId=A3G5IPGLH1IIZN&assignmentId=3QEMNNSB2YLJVMIPVQDMJEJGQ5JD7Z&a=BNEQ9&tp_a=BNEQ9&b=3QEMNNSB2YLJVMIPVQDMJEJGQ5JD7Z&tp_b=3QEMNNSB2YLJVMIPVQDMJEJGQ5JD7Z&c=365799&tp_c=365799"},{"view_history":[{"page_index":0,"viewing_time":2372},{"page_index":1,"viewing_time":2512},{"page_index":2,"viewing_time":7768},{"page_index":3,"viewing_time":16576},{"page_index":4,"viewing_time":10016},{"page_index":5,"viewing_time":14984},{"page_index":6,"viewing_time":27744}],"rt":81972,"trial_type":"instructions","trial_index":5,"time_elapsed":489687,"internal_node_id":"0.0-2.1-0.1","params":{"nStudents":24,"maxFlips":30,"completionMinutes":45,"basePay":8,"maxBonus":9,"perTrialBonus":0.5,"perTrialBonusThreshold":0.05,"exampleCost":0.01},"classroomParams":{"A":{"a":1,"b":4},"B":{"a":4,"b":1},"C":{"a":2,"b":8},"D":{"a":8,"b":2}},"conditions":["nonSeqFull","nonSeqPartial","seqNoFeedback","seqFeedback"],"classroomPairings":[["A","B"],["C","D"]],"coinWeights":[0.2,0.5,0.8],"subjectId":"A3G5IPGLH1IIZN","assignmentId":"3QEMNNSB2YLJVMIPVQDMJEJGQ5JD7Z","hitId":"3J94SKDEKIB2MY6CGVTNWB9X0ALD5P","url":"https://gershmanlab.com/experiments/alicia/teaching/experiment/?hitId=3J94SKDEKIB2MY6CGVTNWB9X0ALD5P&workerId=A3G5IPGLH1IIZN&assignmentId=3QEMNNSB2YLJVMIPVQDMJEJGQ5JD7Z&a=BNEQ9&tp_a=BNEQ9&b=3QEMNNSB2YLJVMIPVQDMJEJGQ5JD7Z&tp_b=3QEMNNSB2YLJVMIPVQDMJEJGQ5JD7Z&c=365799&tp_c=365799"},{"rt":42925,"response":{"Q0":"Students in different classrooms will have seen a different number of heads and tails before seeing the examples you select for them.","Q1":"By <b>considering the student's classroom information</b> so that I can teach efficiently and accurately/helpfully at the same time (because each example I give to the student costs money!).","Q2":"The coin lands heads 90% of the time.","Q3":"No, I will teach a <b>new</b> student each time.","Q4":"The students are also on the same alien planet as you, where coins can be unfair.","Q5":"Based on the student's second (and final) guess."},"question_order":[4,3,1,0,2,5],"trial_type":"survey-multi-choice","trial_index":6,"time_elapsed":532616,"internal_node_id":"0.0-2.1-1.1","params":{"nStudents":24,"maxFlips":30,"completionMinutes":45,"basePay":8,"maxBonus":9,"perTrialBonus":0.5,"perTrialBonusThreshold":0.05,"exampleCost":0.01},"classroomParams":{"A":{"a":1,"b":4},"B":{"a":4,"b":1},"C":{"a":2,"b":8},"D":{"a":8,"b":2}},"conditions":["nonSeqFull","nonSeqPartial","seqNoFeedback","seqFeedback"],"classroomPairings":[["A","B"],["C","D"]],"coinWeights":[0.2,0.5,0.8],"subjectId":"A3G5IPGLH1IIZN","assignmentId":"3QEMNNSB2YLJVMIPVQDMJEJGQ5JD7Z","hitId":"3J94SKDEKIB2MY6CGVTNWB9X0ALD5P","url":"https://gershmanlab.com/experiments/alicia/teaching/experiment/?hitId=3J94SKDEKIB2MY6CGVTNWB9X0ALD5P&workerId=A3G5IPGLH1IIZN&assignmentId=3QEMNNSB2YLJVMIPVQDMJEJGQ5JD7Z&a=BNEQ9&tp_a=BNEQ9&b=3QEMNNSB2YLJVMIPVQDMJEJGQ5JD7Z&tp_b=3QEMNNSB2YLJVMIPVQDMJEJGQ5JD7Z&c=365799&tp_c=365799","pass":true},{"rt":null,"stimulus":"<div style=\"font-size:30px;\">Congrats on passing the comprehension quiz! The experiment will begin in a few seconds.</div>","response":null,"trial_type":"html-keyboard-response","trial_index":7,"time_elapsed":535629,"internal_node_id":"0.0-3.0","params":{"nStudents":24,"maxFlips":30,"completionMinutes":45,"basePay":8,"maxBonus":9,"perTrialBonus":0.5,"perTrialBonusThreshold":0.05,"exampleCost":0.01},"classroomParams":{"A":{"a":1,"b":4},"B":{"a":4,"b":1},"C":{"a":2,"b":8},"D":{"a":8,"b":2}},"conditions":["nonSeqFull","nonSeqPartial","seqNoFeedback","seqFeedback"],"classroomPairings":[["A","B"],["C","D"]],"coinWeights":[0.2,0.5,0.8],"subjectId":"A3G5IPGLH1IIZN","assignmentId":"3QEMNNSB2YLJVMIPVQDMJEJGQ5JD7Z","hitId":"3J94SKDEKIB2MY6CGVTNWB9X0ALD5P","url":"https://gershmanlab.com/experiments/alicia/teaching/experiment/?hitId=3J94SKDEKIB2MY6CGVTNWB9X0ALD5P&workerId=A3G5IPGLH1IIZN&assignmentId=3QEMNNSB2YLJVMIPVQDMJEJGQ5JD7Z&a=BNEQ9&tp_a=BNEQ9&b=3QEMNNSB2YLJVMIPVQDMJEJGQ5JD7Z&tp_b=3QEMNNSB2YLJVMIPVQDMJEJGQ5JD7Z&c=365799&tp_c=365799"},{"rt":null,"stimulus":"<div style=\"font-size:50px;\">First student</div>","response":null,"trial_type":"html-keyboard-response","trial_index":8,"time_elapsed":538631,"internal_node_id":"0.0-4.0","params":{"nStudents":24,"maxFlips":30,"completionMinutes":45,"basePay":8,"maxBonus":9,"perTrialBonus":0.5,"perTrialBonusThreshold":0.05,"exampleCost":0.01},"classroomParams":{"A":{"a":1,"b":4},"B":{"a":4,"b":1},"C":{"a":2,"b":8},"D":{"a":8,"b":2}},"conditions":["nonSeqFull","nonSeqPartial","seqNoFeedback","seqFeedback"],"classroomPairings":[["A","B"],["C","D"]],"coinWeights":[0.2,0.5,0.8],"subjectId":"A3G5IPGLH1IIZN","assignmentId":"3QEMNNSB2YLJVMIPVQDMJEJGQ5JD7Z","hitId":"3J94SKDEKIB2MY6CGVTNWB9X0ALD5P","url":"https://gershmanlab.com/experiments/alicia/teaching/experiment/?hitId=3J94SKDEKIB2MY6CGVTNWB9X0ALD5P&workerId=A3G5IPGLH1IIZN&assignmentId=3QEMNNSB2YLJVMIPVQDMJEJGQ5JD7Z&a=BNEQ9&tp_a=BNEQ9&b=3QEMNNSB2YLJVMIPVQDMJEJGQ5JD7Z&tp_b=3QEMNNSB2YLJVMIPVQDMJEJGQ5JD7Z&c=365799&tp_c=365799"},{"rt":14477,"stimulus":"\n            <h4 style=\"color:Orange;\">Student 1</h4>\n            <h2>The weight of your coin is <b style=\"color:Tomato;\">0.5</b>.</h2>\n            <p>In this block, you will be giving <b>one</b> set of examples to Student 1.</p>\n                <p>You will receive feedback at the end of the block.</p>\n            <p></p>","response":0,"trial_type":"html-button-response","trial_index":9,"time_elapsed":553111,"internal_node_id":"0.0-5.0","params":{"nStudents":24,"maxFlips":30,"completionMinutes":45,"basePay":8,"maxBonus":9,"perTrialBonus":0.5,"perTrialBonusThreshold":0.05,"exampleCost":0.01},"classroomParams":{"A":{"a":1,"b":4},"B":{"a":4,"b":1},"C":{"a":2,"b":8},"D":{"a":8,"b":2}},"conditions":["nonSeqFull","nonSeqPartial","seqNoFeedback","seqFeedback"],"classroomPairings":[["A","B"],["C","D"]],"coinWeights":[0.2,0.5,0.8],"subjectId":"A3G5IPGLH1IIZN","assignmentId":"3QEMNNSB2YLJVMIPVQDMJEJGQ5JD7Z","hitId":"3J94SKDEKIB2MY6CGVTNWB9X0ALD5P","url":"https://gershmanlab.com/experiments/alicia/teaching/experiment/?hitId=3J94SKDEKIB2MY6CGVTNWB9X0ALD5P&workerId=A3G5IPGLH1IIZN&assignmentId=3QEMNNSB2YLJVMIPVQDMJEJGQ5JD7Z&a=BNEQ9&tp_a=BNEQ9&b=3QEMNNSB2YLJVMIPVQDMJEJGQ5JD7Z&tp_b=3QEMNNSB2YLJVMIPVQDMJEJGQ5JD7Z&c=365799&tp_c=365799"},{"rt":25485,"response":{"heads":"0","tails":"3"},"type":"response","condition":"nonSeqFull","trueTheta":0.5,"classrooms":["A","B"],"studentTrueClassroom":"B","exampleSet":"first","trial_type":"survey-html-form","trial_index":10,"time_elapsed":578601,"internal_node_id":"0.0-6.0-0.0","params":{"nStudents":24,"maxFlips":30,"completionMinutes":45,"basePay":8,"maxBonus":9,"perTrialBonus":0.5,"perTrialBonusThreshold":0.05,"exampleCost":0.01},"classroomParams":{"A":{"a":1,"b":4},"B":{"a":4,"b":1},"C":{"a":2,"b":8},"D":{"a":8,"b":2}},"conditions":["nonSeqFull","nonSeqPartial","seqNoFeedback","seqFeedback"],"classroomPairings":[["A","B"],["C","D"]],"coinWeights":[0.2,0.5,0.8],"subjectId":"A3G5IPGLH1IIZN","assignmentId":"3QEMNNSB2YLJVMIPVQDMJEJGQ5JD7Z","hitId":"3J94SKDEKIB2MY6CGVTNWB9X0ALD5P","url":"https://gershmanlab.com/experiments/alicia/teaching/experiment/?hitId=3J94SKDEKIB2MY6CGVTNWB9X0ALD5P&workerId=A3G5IPGLH1IIZN&assignmentId=3QEMNNSB2YLJVMIPVQDMJEJGQ5JD7Z&a=BNEQ9&tp_a=BNEQ9&b=3QEMNNSB2YLJVMIPVQDMJEJGQ5JD7Z&tp_b=3QEMNNSB2YLJVMIPVQDMJEJGQ5JD7Z&c=365799&tp_c=365799","heads":0,"tails":3,"studentIndex":0,"studentTrueHypers":{"a":4,"b":1},"studentGuess":0.5,"delta":0,"totalExamples":3,"bonus":0.47,"bonusSoFar":0.47},{"rt":null,"stimulus":"Sending examples to student... ","response":null,"trial_type":"html-keyboard-response","trial_index":11,"time_elapsed":580605,"internal_node_id":"0.0-7.0","params":{"nStudents":24,"maxFlips":30,"completionMinutes":45,"basePay":8,"maxBonus":9,"perTrialBonus":0.5,"perTrialBonusThreshold":0.05,"exampleCost":0.01},"classroomParams":{"A":{"a":1,"b":4},"B":{"a":4,"b":1},"C":{"a":2,"b":8},"D":{"a":8,"b":2}},"conditions":["nonSeqFull","nonSeqPartial","seqNoFeedback","seqFeedback"],"classroomPairings":[["A","B"],["C","D"]],"coinWeights":[0.2,0.5,0.8],"subjectId":"A3G5IPGLH1IIZN","assignmentId":"3QEMNNSB2YLJVMIPVQDMJEJGQ5JD7Z","hitId":"3J94SKDEKIB2MY6CGVTNWB9X0ALD5P","url":"https://gershmanlab.com/experiments/alicia/teaching/experiment/?hitId=3J94SKDEKIB2MY6CGVTNWB9X0ALD5P&workerId=A3G5IPGLH1IIZN&assignmentId=3QEMNNSB2YLJVMIPVQDMJEJGQ5JD7Z&a=BNEQ9&tp_a=BNEQ9&b=3QEMNNSB2YLJVMIPVQDMJEJGQ5JD7Z&tp_b=3QEMNNSB2YLJVMIPVQDMJEJGQ5JD7Z&c=365799&tp_c=365799"},{"rt":null,"stimulus":"Examples sent to student! Waiting for student...","response":null,"trial_type":"html-keyboard-response","trial_index":12,"time_elapsed":585108,"internal_node_id":"0.0-8.0","params":{"nStudents":24,"maxFlips":30,"completionMinutes":45,"basePay":8,"maxBonus":9,"perTrialBonus":0.5,"perTrialBonusThreshold":0.05,"exampleCost":0.01},"classroomParams":{"A":{"a":1,"b":4},"B":{"a":4,"b":1},"C":{"a":2,"b":8},"D":{"a":8,"b":2}},"conditions":["nonSeqFull","nonSeqPartial","seqNoFeedback","seqFeedback"],"classroomPairings":[["A","B"],["C","D"]],"coinWeights":[0.2,0.5,0.8],"subjectId":"A3G5IPGLH1IIZN","assignmentId":"3QEMNNSB2YLJVMIPVQDMJEJGQ5JD7Z","hitId":"3J94SKDEKIB2MY6CGVTNWB9X0ALD5P","url":"https://gershmanlab.com/experiments/alicia/teaching/experiment/?hitId=3J94SKDEKIB2MY6CGVTNWB9X0ALD5P&workerId=A3G5IPGLH1IIZN&assignmentId=3QEMNNSB2YLJVMIPVQDMJEJGQ5JD7Z&a=BNEQ9&tp_a=BNEQ9&b=3QEMNNSB2YLJVMIPVQDMJEJGQ5JD7Z&tp_b=3QEMNNSB2YLJVMIPVQDMJEJGQ5JD7Z&c=365799&tp_c=365799"},{"rt":10256,"stimulus":"\n                <p>Student's guess for coin weight: <b style=\"color:Tomato;\">0.50</b></p>\n                <p>You received a bonus of <b>$0.47</b>. Total bonus so far: <b>$0.47</b></b></p>\n                <p></p>\n                <p>Press any key to continue.</p>\n                ","response":" ","trial_type":"html-keyboard-response","trial_index":13,"time_elapsed":595367,"internal_node_id":"0.0-9.0","params":{"nStudents":24,"maxFlips":30,"completionMinutes":45,"basePay":8,"maxBonus":9,"perTrialBonus":0.5,"perTrialBonusThreshold":0.05,"exampleCost":0.01},"classroomParams":{"A":{"a":1,"b":4},"B":{"a":4,"b":1},"C":{"a":2,"b":8},"D":{"a":8,"b":2}},"conditions":["nonSeqFull","nonSeqPartial","seqNoFeedback","seqFeedback"],"classroomPairings":[["A","B"],["C","D"]],"coinWeights":[0.2,0.5,0.8],"subjectId":"A3G5IPGLH1IIZN","assignmentId":"3QEMNNSB2YLJVMIPVQDMJEJGQ5JD7Z","hitId":"3J94SKDEKIB2MY6CGVTNWB9X0ALD5P","url":"https://gershmanlab.com/experiments/alicia/teaching/experiment/?hitId=3J94SKDEKIB2MY6CGVTNWB9X0ALD5P&workerId=A3G5IPGLH1IIZN&assignmentId=3QEMNNSB2YLJVMIPVQDMJEJGQ5JD7Z&a=BNEQ9&tp_a=BNEQ9&b=3QEMNNSB2YLJVMIPVQDMJEJGQ5JD7Z&tp_b=3QEMNNSB2YLJVMIPVQDMJEJGQ5JD7Z&c=365799&tp_c=365799"},{"rt":null,"stimulus":"<div style=\"font-size:60px;\">Next student</div>","response":null,"trial_type":"html-keyboard-response","trial_index":14,"time_elapsed":598370,"internal_node_id":"0.0-10.0-0.0","params":{"nStudents":24,"maxFlips":30,"completionMinutes":45,"basePay":8,"maxBonus":9,"perTrialBonus":0.5,"perTrialBonusThreshold":0.05,"exampleCost":0.01},"classroomParams":{"A":{"a":1,"b":4},"B":{"a":4,"b":1},"C":{"a":2,"b":8},"D":{"a":8,"b":2}},"conditions":["nonSeqFull","nonSeqPartial","seqNoFeedback","seqFeedback"],"classroomPairings":[["A","B"],["C","D"]],"coinWeights":[0.2,0.5,0.8],"subjectId":"A3G5IPGLH1IIZN","assignmentId":"3QEMNNSB2YLJVMIPVQDMJEJGQ5JD7Z","hitId":"3J94SKDEKIB2MY6CGVTNWB9X0ALD5P","url":"https://gershmanlab.com/experiments/alicia/teaching/experiment/?hitId=3J94SKDEKIB2MY6CGVTNWB9X0ALD5P&workerId=A3G5IPGLH1IIZN&assignmentId=3QEMNNSB2YLJVMIPVQDMJEJGQ5JD7Z&a=BNEQ9&tp_a=BNEQ9&b=3QEMNNSB2YLJVMIPVQDMJEJGQ5JD7Z&tp_b=3QEMNNSB2YLJVMIPVQDMJEJGQ5JD7Z&c=365799&tp_c=365799"},{"rt":5282,"stimulus":"\n            <h4 style=\"color:Orange;\">Student 2</h4>\n            <h2>The weight of your coin is <b style=\"color:Tomato;\">0.8</b>.</h2>\n            <p>In this block, you will be giving <b>one</b> set of examples to Student 2.</p>\n                <p>You will receive feedback at the end of the block.</p>\n            <p></p>","response":0,"trial_type":"html-button-response","trial_index":15,"time_elapsed":603654,"internal_node_id":"0.0-11.0","params":{"nStudents":24,"maxFlips":30,"completionMinutes":45,"basePay":8,"maxBonus":9,"perTrialBonus":0.5,"perTrialBonusThreshold":0.05,"exampleCost":0.01},"classroomParams":{"A":{"a":1,"b":4},"B":{"a":4,"b":1},"C":{"a":2,"b":8},"D":{"a":8,"b":2}},"conditions":["nonSeqFull","nonSeqPartial","seqNoFeedback","seqFeedback"],"classroomPairings":[["A","B"],["C","D"]],"coinWeights":[0.2,0.5,0.8],"subjectId":"A3G5IPGLH1IIZN","assignmentId":"3QEMNNSB2YLJVMIPVQDMJEJGQ5JD7Z","hitId":"3J94SKDEKIB2MY6CGVTNWB9X0ALD5P","url":"https://gershmanlab.com/experiments/alicia/teaching/experiment/?hitId=3J94SKDEKIB2MY6CGVTNWB9X0ALD5P&workerId=A3G5IPGLH1IIZN&assignmentId=3QEMNNSB2YLJVMIPVQDMJEJGQ5JD7Z&a=BNEQ9&tp_a=BNEQ9&b=3QEMNNSB2YLJVMIPVQDMJEJGQ5JD7Z&tp_b=3QEMNNSB2YLJVMIPVQDMJEJGQ5JD7Z&c=365799&tp_c=365799"},{"rt":11775,"response":{"heads":"2","tails":"0"},"type":"response","condition":"nonSeqFull","trueTheta":0.8,"classrooms":["C","D"],"studentTrueClassroom":"D","exampleSet":"first","trial_type":"survey-html-form","trial_index":16,"time_elapsed":615434,"internal_node_id":"0.0-12.0-0.0","params":{"nStudents":24,"maxFlips":30,"completionMinutes":45,"basePay":8,"maxBonus":9,"perTrialBonus":0.5,"perTrialBonusThreshold":0.05,"exampleCost":0.01},"classroomParams":{"A":{"a":1,"b":4},"B":{"a":4,"b":1},"C":{"a":2,"b":8},"D":{"a":8,"b":2}},"conditions":["nonSeqFull","nonSeqPartial","seqNoFeedback","seqFeedback"],"classroomPairings":[["A","B"],["C","D"]],"coinWeights":[0.2,0.5,0.8],"subjectId":"A3G5IPGLH1IIZN","assignmentId":"3QEMNNSB2YLJVMIPVQDMJEJGQ5JD7Z","hitId":"3J94SKDEKIB2MY6CGVTNWB9X0ALD5P","url":"https://gershmanlab.com/experiments/alicia/teaching/experiment/?hitId=3J94SKDEKIB2MY6CGVTNWB9X0ALD5P&workerId=A3G5IPGLH1IIZN&assignmentId=3QEMNNSB2YLJVMIPVQDMJEJGQ5JD7Z&a=BNEQ9&tp_a=BNEQ9&b=3QEMNNSB2YLJVMIPVQDMJEJGQ5JD7Z&tp_b=3QEMNNSB2YLJVMIPVQDMJEJGQ5JD7Z&c=365799&tp_c=365799","heads":2,"tails":0,"studentIndex":1,"studentTrueHypers":{"a":8,"b":2},"studentGuess":0.8333333333333334,"delta":0.033333333333333326,"totalExamples":2,"bonus":0.48,"bonusSoFar":0.95},{"rt":null,"stimulus":"Sending examples to student... ","response":null,"trial_type":"html-keyboard-response","trial_index":17,"time_elapsed":616938,"internal_node_id":"0.0-13.0","params":{"nStudents":24,"maxFlips":30,"completionMinutes":45,"basePay":8,"maxBonus":9,"perTrialBonus":0.5,"perTrialBonusThreshold":0.05,"exampleCost":0.01},"classroomParams":{"A":{"a":1,"b":4},"B":{"a":4,"b":1},"C":{"a":2,"b":8},"D":{"a":8,"b":2}},"conditions":["nonSeqFull","nonSeqPartial","seqNoFeedback","seqFeedback"],"classroomPairings":[["A","B"],["C","D"]],"coinWeights":[0.2,0.5,0.8],"subjectId":"A3G5IPGLH1IIZN","assignmentId":"3QEMNNSB2YLJVMIPVQDMJEJGQ5JD7Z","hitId":"3J94SKDEKIB2MY6CGVTNWB9X0ALD5P","url":"https://gershmanlab.com/experiments/alicia/teaching/experiment/?hitId=3J94SKDEKIB2MY6CGVTNWB9X0ALD5P&workerId=A3G5IPGLH1IIZN&assignmentId=3QEMNNSB2YLJVMIPVQDMJEJGQ5JD7Z&a=BNEQ9&tp_a=BNEQ9&b=3QEMNNSB2YLJVMIPVQDMJEJGQ5JD7Z&tp_b=3QEMNNSB2YLJVMIPVQDMJEJGQ5JD7Z&c=365799&tp_c=365799"},{"rt":null,"stimulus":"Examples sent to student! Waiting for student...","response":null,"trial_type":"html-keyboard-response","trial_index":18,"time_elapsed":620941,"internal_node_id":"0.0-14.0","params":{"nStudents":24,"maxFlips":30,"completionMinutes":45,"basePay":8,"maxBonus":9,"perTrialBonus":0.5,"perTrialBonusThreshold":0.05,"exampleCost":0.01},"classroomParams":{"A":{"a":1,"b":4},"B":{"a":4,"b":1},"C":{"a":2,"b":8},"D":{"a":8,"b":2}},"conditions":["nonSeqFull","nonSeqPartial","seqNoFeedback","seqFeedback"],"classroomPairings":[["A","B"],["C","D"]],"coinWeights":[0.2,0.5,0.8],"subjectId":"A3G5IPGLH1IIZN","assignmentId":"3QEMNNSB2YLJVMIPVQDMJEJGQ5JD7Z","hitId":"3J94SKDEKIB2MY6CGVTNWB9X0ALD5P","url":"https://gershmanlab.com/experiments/alicia/teaching/experiment/?hitId=3J94SKDEKIB2MY6CGVTNWB9X0ALD5P&workerId=A3G5IPGLH1IIZN&assignmentId=3QEMNNSB2YLJVMIPVQDMJEJGQ5JD7Z&a=BNEQ9&tp_a=BNEQ9&b=3QEMNNSB2YLJVMIPVQDMJEJGQ5JD7Z&tp_b=3QEMNNSB2YLJVMIPVQDMJEJGQ5JD7Z&c=365799&tp_c=365799"},{"rt":5548,"stimulus":"\n                <p>Student's guess for coin weight: <b style=\"color:Tomato;\">0.83</b></p>\n                <p>You received a bonus of <b>$0.48</b>. Total bonus so far: <b>$0.95</b></b></p>\n                <p></p>\n                <p>Press any key to continue.</p>\n                ","response":" ","trial_type":"html-keyboard-response","trial_index":19,"time_elapsed":626491,"internal_node_id":"0.0-15.0","params":{"nStudents":24,"maxFlips":30,"completionMinutes":45,"basePay":8,"maxBonus":9,"perTrialBonus":0.5,"perTrialBonusThreshold":0.05,"exampleCost":0.01},"classroomParams":{"A":{"a":1,"b":4},"B":{"a":4,"b":1},"C":{"a":2,"b":8},"D":{"a":8,"b":2}},"conditions":["nonSeqFull","nonSeqPartial","seqNoFeedback","seqFeedback"],"classroomPairings":[["A","B"],["C","D"]],"coinWeights":[0.2,0.5,0.8],"subjectId":"A3G5IPGLH1IIZN","assignmentId":"3QEMNNSB2YLJVMIPVQDMJEJGQ5JD7Z","hitId":"3J94SKDEKIB2MY6CGVTNWB9X0ALD5P","url":"https://gershmanlab.com/experiments/alicia/teaching/experiment/?hitId=3J94SKDEKIB2MY6CGVTNWB9X0ALD5P&workerId=A3G5IPGLH1IIZN&assignmentId=3QEMNNSB2YLJVMIPVQDMJEJGQ5JD7Z&a=BNEQ9&tp_a=BNEQ9&b=3QEMNNSB2YLJVMIPVQDMJEJGQ5JD7Z&tp_b=3QEMNNSB2YLJVMIPVQDMJEJGQ5JD7Z&c=365799&tp_c=365799"},{"rt":null,"stimulus":"<div style=\"font-size:60px;\">Next student</div>","response":null,"trial_type":"html-keyboard-response","trial_index":20,"time_elapsed":628744,"internal_node_id":"0.0-16.0-0.0","params":{"nStudents":24,"maxFlips":30,"completionMinutes":45,"basePay":8,"maxBonus":9,"perTrialBonus":0.5,"perTrialBonusThreshold":0.05,"exampleCost":0.01},"classroomParams":{"A":{"a":1,"b":4},"B":{"a":4,"b":1},"C":{"a":2,"b":8},"D":{"a":8,"b":2}},"conditions":["nonSeqFull","nonSeqPartial","seqNoFeedback","seqFeedback"],"classroomPairings":[["A","B"],["C","D"]],"coinWeights":[0.2,0.5,0.8],"subjectId":"A3G5IPGLH1IIZN","assignmentId":"3QEMNNSB2YLJVMIPVQDMJEJGQ5JD7Z","hitId":"3J94SKDEKIB2MY6CGVTNWB9X0ALD5P","url":"https://gershmanlab.com/experiments/alicia/teaching/experiment/?hitId=3J94SKDEKIB2MY6CGVTNWB9X0ALD5P&workerId=A3G5IPGLH1IIZN&assignmentId=3QEMNNSB2YLJVMIPVQDMJEJGQ5JD7Z&a=BNEQ9&tp_a=BNEQ9&b=3QEMNNSB2YLJVMIPVQDMJEJGQ5JD7Z&tp_b=3QEMNNSB2YLJVMIPVQDMJEJGQ5JD7Z&c=365799&tp_c=365799"},{"rt":25877,"stimulus":"\n            <h4 style=\"color:Orange;\">Student 3</h4>\n            <h2>The weight of your coin is <b style=\"color:Tomato;\">0.5</b>.</h2>\n            <p>In this block, you will be giving <b>two</b> sets of examples to Student 3.</p>\n                <p>You will see the student's guess after the first set of examples. You will also receive feedback at the end of the block.</p>\n            <p>To earn the highest bonus, you will have to <b>take into consideration the student's guess</b> when you choose your second set of examples.</p>","response":0,"trial_type":"html-button-response","trial_index":21,"time_elapsed":654624,"internal_node_id":"0.0-17.0","params":{"nStudents":24,"maxFlips":30,"completionMinutes":45,"basePay":8,"maxBonus":9,"perTrialBonus":0.5,"perTrialBonusThreshold":0.05,"exampleCost":0.01},"classroomParams":{"A":{"a":1,"b":4},"B":{"a":4,"b":1},"C":{"a":2,"b":8},"D":{"a":8,"b":2}},"conditions":["nonSeqFull","nonSeqPartial","seqNoFeedback","seqFeedback"],"classroomPairings":[["A","B"],["C","D"]],"coinWeights":[0.2,0.5,0.8],"subjectId":"A3G5IPGLH1IIZN","assignmentId":"3QEMNNSB2YLJVMIPVQDMJEJGQ5JD7Z","hitId":"3J94SKDEKIB2MY6CGVTNWB9X0ALD5P","url":"https://gershmanlab.com/experiments/alicia/teaching/experiment/?hitId=3J94SKDEKIB2MY6CGVTNWB9X0ALD5P&workerId=A3G5IPGLH1IIZN&assignmentId=3QEMNNSB2YLJVMIPVQDMJEJGQ5JD7Z&a=BNEQ9&tp_a=BNEQ9&b=3QEMNNSB2YLJVMIPVQDMJEJGQ5JD7Z&tp_b=3QEMNNSB2YLJVMIPVQDMJEJGQ5JD7Z&c=365799&tp_c=365799"},{"rt":32004,"response":{"heads":"3","tails":"0"},"type":"response","condition":"seqFeedback","trueTheta":0.5,"classrooms":["A","B"],"studentTrueClassroom":"B","exampleSet":"first","trial_type":"survey-html-form","trial_index":22,"time_elapsed":686632,"internal_node_id":"0.0-18.0-0.0","params":{"nStudents":24,"maxFlips":30,"completionMinutes":45,"basePay":8,"maxBonus":9,"perTrialBonus":0.5,"perTrialBonusThreshold":0.05,"exampleCost":0.01},"classroomParams":{"A":{"a":1,"b":4},"B":{"a":4,"b":1},"C":{"a":2,"b":8},"D":{"a":8,"b":2}},"conditions":["nonSeqFull","nonSeqPartial","seqNoFeedback","seqFeedback"],"classroomPairings":[["A","B"],["C","D"]],"coinWeights":[0.2,0.5,0.8],"subjectId":"A3G5IPGLH1IIZN","assignmentId":"3QEMNNSB2YLJVMIPVQDMJEJGQ5JD7Z","hitId":"3J94SKDEKIB2MY6CGVTNWB9X0ALD5P","url":"https://gershmanlab.com/experiments/alicia/teaching/experiment/?hitId=3J94SKDEKIB2MY6CGVTNWB9X0ALD5P&workerId=A3G5IPGLH1IIZN&assignmentId=3QEMNNSB2YLJVMIPVQDMJEJGQ5JD7Z&a=BNEQ9&tp_a=BNEQ9&b=3QEMNNSB2YLJVMIPVQDMJEJGQ5JD7Z&tp_b=3QEMNNSB2YLJVMIPVQDMJEJGQ5JD7Z&c=365799&tp_c=365799","heads":3,"tails":0,"studentIndex":2,"studentTrueHypers":{"a":4,"b":1},"studentGuess":0.875,"delta":0.375,"totalExamples":3,"bonusSoFar":0.95},{"rt":null,"stimulus":"Sending examples to student... ","response":null,"trial_type":"html-keyboard-response","trial_index":23,"time_elapsed":688635,"internal_node_id":"0.0-19.0","params":{"nStudents":24,"maxFlips":30,"completionMinutes":45,"basePay":8,"maxBonus":9,"perTrialBonus":0.5,"perTrialBonusThreshold":0.05,"exampleCost":0.01},"classroomParams":{"A":{"a":1,"b":4},"B":{"a":4,"b":1},"C":{"a":2,"b":8},"D":{"a":8,"b":2}},"conditions":["nonSeqFull","nonSeqPartial","seqNoFeedback","seqFeedback"],"classroomPairings":[["A","B"],["C","D"]],"coinWeights":[0.2,0.5,0.8],"subjectId":"A3G5IPGLH1IIZN","assignmentId":"3QEMNNSB2YLJVMIPVQDMJEJGQ5JD7Z","hitId":"3J94SKDEKIB2MY6CGVTNWB9X0ALD5P","url":"https://gershmanlab.com/experiments/alicia/teaching/experiment/?hitId=3J94SKDEKIB2MY6CGVTNWB9X0ALD5P&workerId=A3G5IPGLH1IIZN&assignmentId=3QEMNNSB2YLJVMIPVQDMJEJGQ5JD7Z&a=BNEQ9&tp_a=BNEQ9&b=3QEMNNSB2YLJVMIPVQDMJEJGQ5JD7Z&tp_b=3QEMNNSB2YLJVMIPVQDMJEJGQ5JD7Z&c=365799&tp_c=365799"},{"rt":null,"stimulus":"Examples sent to student! Waiting for student...","response":null,"trial_type":"html-keyboard-response","trial_index":24,"time_elapsed":693636,"internal_node_id":"0.0-20.0","params":{"nStudents":24,"maxFlips":30,"completionMinutes":45,"basePay":8,"maxBonus":9,"perTrialBonus":0.5,"perTrialBonusThreshold":0.05,"exampleCost":0.01},"classroomParams":{"A":{"a":1,"b":4},"B":{"a":4,"b":1},"C":{"a":2,"b":8},"D":{"a":8,"b":2}},"conditions":["nonSeqFull","nonSeqPartial","seqNoFeedback","seqFeedback"],"classroomPairings":[["A","B"],["C","D"]],"coinWeights":[0.2,0.5,0.8],"subjectId":"A3G5IPGLH1IIZN","assignmentId":"3QEMNNSB2YLJVMIPVQDMJEJGQ5JD7Z","hitId":"3J94SKDEKIB2MY6CGVTNWB9X0ALD5P","url":"https://gershmanlab.com/experiments/alicia/teaching/experiment/?hitId=3J94SKDEKIB2MY6CGVTNWB9X0ALD5P&workerId=A3G5IPGLH1IIZN&assignmentId=3QEMNNSB2YLJVMIPVQDMJEJGQ5JD7Z&a=BNEQ9&tp_a=BNEQ9&b=3QEMNNSB2YLJVMIPVQDMJEJGQ5JD7Z&tp_b=3QEMNNSB2YLJVMIPVQDMJEJGQ5JD7Z&c=365799&tp_c=365799"},{"rt":20309,"stimulus":"\n                <p>Student's guess for coin weight: <b style=\"color:Tomato;\">0.88</b></p>\n                <p></b></p>\n                <p>You will now send another set of examples to your student. <b>Remember to take your student's guess into consideration so that you can earn the highest bonus possible!</b> </p>\n                <p>Press any key to continue.</p>\n                ","response":" ","trial_type":"html-keyboard-response","trial_index":25,"time_elapsed":713947,"internal_node_id":"0.0-21.0","params":{"nStudents":24,"maxFlips":30,"completionMinutes":45,"basePay":8,"maxBonus":9,"perTrialBonus":0.5,"perTrialBonusThreshold":0.05,"exampleCost":0.01},"classroomParams":{"A":{"a":1,"b":4},"B":{"a":4,"b":1},"C":{"a":2,"b":8},"D":{"a":8,"b":2}},"conditions":["nonSeqFull","nonSeqPartial","seqNoFeedback","seqFeedback"],"classroomPairings":[["A","B"],["C","D"]],"coinWeights":[0.2,0.5,0.8],"subjectId":"A3G5IPGLH1IIZN","assignmentId":"3QEMNNSB2YLJVMIPVQDMJEJGQ5JD7Z","hitId":"3J94SKDEKIB2MY6CGVTNWB9X0ALD5P","url":"https://gershmanlab.com/experiments/alicia/teaching/experiment/?hitId=3J94SKDEKIB2MY6CGVTNWB9X0ALD5P&workerId=A3G5IPGLH1IIZN&assignmentId=3QEMNNSB2YLJVMIPVQDMJEJGQ5JD7Z&a=BNEQ9&tp_a=BNEQ9&b=3QEMNNSB2YLJVMIPVQDMJEJGQ5JD7Z&tp_b=3QEMNNSB2YLJVMIPVQDMJEJGQ5JD7Z&c=365799&tp_c=365799"},{"rt":10538,"response":{"heads":"0","tails":"7"},"type":"response","condition":"seqFeedback","trueTheta":0.5,"classrooms":["A","B"],"studentTrueClassroom":"B","exampleSet":"second","trial_type":"survey-html-form","trial_index":26,"time_elapsed":724488,"internal_node_id":"0.0-22.0-0.0","params":{"nStudents":24,"maxFlips":30,"completionMinutes":45,"basePay":8,"maxBonus":9,"perTrialBonus":0.5,"perTrialBonusThreshold":0.05,"exampleCost":0.01},"classroomParams":{"A":{"a":1,"b":4},"B":{"a":4,"b":1},"C":{"a":2,"b":8},"D":{"a":8,"b":2}},"conditions":["nonSeqFull","nonSeqPartial","seqNoFeedback","seqFeedback"],"classroomPairings":[["A","B"],["C","D"]],"coinWeights":[0.2,0.5,0.8],"subjectId":"A3G5IPGLH1IIZN","assignmentId":"3QEMNNSB2YLJVMIPVQDMJEJGQ5JD7Z","hitId":"3J94SKDEKIB2MY6CGVTNWB9X0ALD5P","url":"https://gershmanlab.com/experiments/alicia/teaching/experiment/?hitId=3J94SKDEKIB2MY6CGVTNWB9X0ALD5P&workerId=A3G5IPGLH1IIZN&assignmentId=3QEMNNSB2YLJVMIPVQDMJEJGQ5JD7Z&a=BNEQ9&tp_a=BNEQ9&b=3QEMNNSB2YLJVMIPVQDMJEJGQ5JD7Z&tp_b=3QEMNNSB2YLJVMIPVQDMJEJGQ5JD7Z&c=365799&tp_c=365799","firstResponseHeads":3,"firstResponseTails":0,"secondResponseHeads":0,"secondResponseTails":7,"totalHeads":3,"totalTails":7,"studentIndex":2,"studentTrueHypers":{"a":4,"b":1},"studentGuess":0.4666666666666667,"delta":0.033333333333333326,"bonus":0.4,"bonusSoFar":1.35,"totalExamples":10},{"rt":null,"stimulus":"Sending examples to student... ","response":null,"trial_type":"html-keyboard-response","trial_index":27,"time_elapsed":725992,"internal_node_id":"0.0-23.0","params":{"nStudents":24,"maxFlips":30,"completionMinutes":45,"basePay":8,"maxBonus":9,"perTrialBonus":0.5,"perTrialBonusThreshold":0.05,"exampleCost":0.01},"classroomParams":{"A":{"a":1,"b":4},"B":{"a":4,"b":1},"C":{"a":2,"b":8},"D":{"a":8,"b":2}},"conditions":["nonSeqFull","nonSeqPartial","seqNoFeedback","seqFeedback"],"classroomPairings":[["A","B"],["C","D"]],"coinWeights":[0.2,0.5,0.8],"subjectId":"A3G5IPGLH1IIZN","assignmentId":"3QEMNNSB2YLJVMIPVQDMJEJGQ5JD7Z","hitId":"3J94SKDEKIB2MY6CGVTNWB9X0ALD5P","url":"https://gershmanlab.com/experiments/alicia/teaching/experiment/?hitId=3J94SKDEKIB2MY6CGVTNWB9X0ALD5P&workerId=A3G5IPGLH1IIZN&assignmentId=3QEMNNSB2YLJVMIPVQDMJEJGQ5JD7Z&a=BNEQ9&tp_a=BNEQ9&b=3QEMNNSB2YLJVMIPVQDMJEJGQ5JD7Z&tp_b=3QEMNNSB2YLJVMIPVQDMJEJGQ5JD7Z&c=365799&tp_c=365799"},{"rt":null,"stimulus":"Examples sent to student! Waiting for student...","response":null,"trial_type":"html-keyboard-response","trial_index":28,"time_elapsed":729994,"internal_node_id":"0.0-24.0","params":{"nStudents":24,"maxFlips":30,"completionMinutes":45,"basePay":8,"maxBonus":9,"perTrialBonus":0.5,"perTrialBonusThreshold":0.05,"exampleCost":0.01},"classroomParams":{"A":{"a":1,"b":4},"B":{"a":4,"b":1},"C":{"a":2,"b":8},"D":{"a":8,"b":2}},"conditions":["nonSeqFull","nonSeqPartial","seqNoFeedback","seqFeedback"],"classroomPairings":[["A","B"],["C","D"]],"coinWeights":[0.2,0.5,0.8],"subjectId":"A3G5IPGLH1IIZN","assignmentId":"3QEMNNSB2YLJVMIPVQDMJEJGQ5JD7Z","hitId":"3J94SKDEKIB2MY6CGVTNWB9X0ALD5P","url":"https://gershmanlab.com/experiments/alicia/teaching/experiment/?hitId=3J94SKDEKIB2MY6CGVTNWB9X0ALD5P&workerId=A3G5IPGLH1IIZN&assignmentId=3QEMNNSB2YLJVMIPVQDMJEJGQ5JD7Z&a=BNEQ9&tp_a=BNEQ9&b=3QEMNNSB2YLJVMIPVQDMJEJGQ5JD7Z&tp_b=3QEMNNSB2YLJVMIPVQDMJEJGQ5JD7Z&c=365799&tp_c=365799"},{"rt":6866,"stimulus":"\n                <p>Student 3's first guess for coin weight: <b style=\"color:Tomato\";>0.88</b></p>\n                <p>Student 3's second guess for coin weight: <b style=\"color:Tomato\";>0.47</b></p>\n                <p>You received a bonus of <b>$0.40</b> based on the student's second guess.</p>\n                <p>Total bonus so far: <b>$1.35</b></p>\n                <p>Press any key to continue.</p>\n                ","response":" ","trial_type":"html-keyboard-response","trial_index":29,"time_elapsed":736862,"internal_node_id":"0.0-25.0","params":{"nStudents":24,"maxFlips":30,"completionMinutes":45,"basePay":8,"maxBonus":9,"perTrialBonus":0.5,"perTrialBonusThreshold":0.05,"exampleCost":0.01},"classroomParams":{"A":{"a":1,"b":4},"B":{"a":4,"b":1},"C":{"a":2,"b":8},"D":{"a":8,"b":2}},"conditions":["nonSeqFull","nonSeqPartial","seqNoFeedback","seqFeedback"],"classroomPairings":[["A","B"],["C","D"]],"coinWeights":[0.2,0.5,0.8],"subjectId":"A3G5IPGLH1IIZN","assignmentId":"3QEMNNSB2YLJVMIPVQDMJEJGQ5JD7Z","hitId":"3J94SKDEKIB2MY6CGVTNWB9X0ALD5P","url":"https://gershmanlab.com/experiments/alicia/teaching/experiment/?hitId=3J94SKDEKIB2MY6CGVTNWB9X0ALD5P&workerId=A3G5IPGLH1IIZN&assignmentId=3QEMNNSB2YLJVMIPVQDMJEJGQ5JD7Z&a=BNEQ9&tp_a=BNEQ9&b=3QEMNNSB2YLJVMIPVQDMJEJGQ5JD7Z&tp_b=3QEMNNSB2YLJVMIPVQDMJEJGQ5JD7Z&c=365799&tp_c=365799"},{"rt":null,"stimulus":"<div style=\"font-size:60px;\">Next student</div>","response":null,"trial_type":"html-keyboard-response","trial_index":30,"time_elapsed":739114,"internal_node_id":"0.0-26.0-0.0","params":{"nStudents":24,"maxFlips":30,"completionMinutes":45,"basePay":8,"maxBonus":9,"perTrialBonus":0.5,"perTrialBonusThreshold":0.05,"exampleCost":0.01},"classroomParams":{"A":{"a":1,"b":4},"B":{"a":4,"b":1},"C":{"a":2,"b":8},"D":{"a":8,"b":2}},"conditions":["nonSeqFull","nonSeqPartial","seqNoFeedback","seqFeedback"],"classroomPairings":[["A","B"],["C","D"]],"coinWeights":[0.2,0.5,0.8],"subjectId":"A3G5IPGLH1IIZN","assignmentId":"3QEMNNSB2YLJVMIPVQDMJEJGQ5JD7Z","hitId":"3J94SKDEKIB2MY6CGVTNWB9X0ALD5P","url":"https://gershmanlab.com/experiments/alicia/teaching/experiment/?hitId=3J94SKDEKIB2MY6CGVTNWB9X0ALD5P&workerId=A3G5IPGLH1IIZN&assignmentId=3QEMNNSB2YLJVMIPVQDMJEJGQ5JD7Z&a=BNEQ9&tp_a=BNEQ9&b=3QEMNNSB2YLJVMIPVQDMJEJGQ5JD7Z&tp_b=3QEMNNSB2YLJVMIPVQDMJEJGQ5JD7Z&c=365799&tp_c=365799"},{"rt":3978,"stimulus":"\n            <h4 style=\"color:Orange;\">Student 4</h4>\n            <h2>The weight of your coin is <b style=\"color:Tomato;\">0.8</b>.</h2>\n            <p>In this block, you will be giving <b>one</b> set of examples to Student 4.</p>\n                <p>You will receive feedback at the end of the block.</p>\n            <p></p>","response":0,"trial_type":"html-button-response","trial_index":31,"time_elapsed":743095,"internal_node_id":"0.0-27.0","params":{"nStudents":24,"maxFlips":30,"completionMinutes":45,"basePay":8,"maxBonus":9,"perTrialBonus":0.5,"perTrialBonusThreshold":0.05,"exampleCost":0.01},"classroomParams":{"A":{"a":1,"b":4},"B":{"a":4,"b":1},"C":{"a":2,"b":8},"D":{"a":8,"b":2}},"conditions":["nonSeqFull","nonSeqPartial","seqNoFeedback","seqFeedback"],"classroomPairings":[["A","B"],["C","D"]],"coinWeights":[0.2,0.5,0.8],"subjectId":"A3G5IPGLH1IIZN","assignmentId":"3QEMNNSB2YLJVMIPVQDMJEJGQ5JD7Z","hitId":"3J94SKDEKIB2MY6CGVTNWB9X0ALD5P","url":"https://gershmanlab.com/experiments/alicia/teaching/experiment/?hitId=3J94SKDEKIB2MY6CGVTNWB9X0ALD5P&workerId=A3G5IPGLH1IIZN&assignmentId=3QEMNNSB2YLJVMIPVQDMJEJGQ5JD7Z&a=BNEQ9&tp_a=BNEQ9&b=3QEMNNSB2YLJVMIPVQDMJEJGQ5JD7Z&tp_b=3QEMNNSB2YLJVMIPVQDMJEJGQ5JD7Z&c=365799&tp_c=365799"},{"rt":27093,"response":{"heads":"6","tails":"0"},"type":"response","condition":"nonSeqPartial","trueTheta":0.8,"classrooms":["C","D"],"studentTrueClassroom":"C","exampleSet":"first","trial_type":"survey-html-form","trial_index":32,"time_elapsed":770192,"internal_node_id":"0.0-28.0-0.0","params":{"nStudents":24,"maxFlips":30,"completionMinutes":45,"basePay":8,"maxBonus":9,"perTrialBonus":0.5,"perTrialBonusThreshold":0.05,"exampleCost":0.01},"classroomParams":{"A":{"a":1,"b":4},"B":{"a":4,"b":1},"C":{"a":2,"b":8},"D":{"a":8,"b":2}},"conditions":["nonSeqFull","nonSeqPartial","seqNoFeedback","seqFeedback"],"classroomPairings":[["A","B"],["C","D"]],"coinWeights":[0.2,0.5,0.8],"subjectId":"A3G5IPGLH1IIZN","assignmentId":"3QEMNNSB2YLJVMIPVQDMJEJGQ5JD7Z","hitId":"3J94SKDEKIB2MY6CGVTNWB9X0ALD5P","url":"https://gershmanlab.com/experiments/alicia/teaching/experiment/?hitId=3J94SKDEKIB2MY6CGVTNWB9X0ALD5P&workerId=A3G5IPGLH1IIZN&assignmentId=3QEMNNSB2YLJVMIPVQDMJEJGQ5JD7Z&a=BNEQ9&tp_a=BNEQ9&b=3QEMNNSB2YLJVMIPVQDMJEJGQ5JD7Z&tp_b=3QEMNNSB2YLJVMIPVQDMJEJGQ5JD7Z&c=365799&tp_c=365799","heads":6,"tails":0,"studentIndex":3,"studentTrueHypers":{"a":2,"b":8},"studentGuess":0.5,"delta":0.30000000000000004,"totalExamples":6,"bonus":0,"bonusSoFar":1.35},{"rt":null,"stimulus":"Sending examples to student... ","response":null,"trial_type":"html-keyboard-response","trial_index":33,"time_elapsed":772194,"internal_node_id":"0.0-29.0","params":{"nStudents":24,"maxFlips":30,"completionMinutes":45,"basePay":8,"maxBonus":9,"perTrialBonus":0.5,"perTrialBonusThreshold":0.05,"exampleCost":0.01},"classroomParams":{"A":{"a":1,"b":4},"B":{"a":4,"b":1},"C":{"a":2,"b":8},"D":{"a":8,"b":2}},"conditions":["nonSeqFull","nonSeqPartial","seqNoFeedback","seqFeedback"],"classroomPairings":[["A","B"],["C","D"]],"coinWeights":[0.2,0.5,0.8],"subjectId":"A3G5IPGLH1IIZN","assignmentId":"3QEMNNSB2YLJVMIPVQDMJEJGQ5JD7Z","hitId":"3J94SKDEKIB2MY6CGVTNWB9X0ALD5P","url":"https://gershmanlab.com/experiments/alicia/teaching/experiment/?hitId=3J94SKDEKIB2MY6CGVTNWB9X0ALD5P&workerId=A3G5IPGLH1IIZN&assignmentId=3QEMNNSB2YLJVMIPVQDMJEJGQ5JD7Z&a=BNEQ9&tp_a=BNEQ9&b=3QEMNNSB2YLJVMIPVQDMJEJGQ5JD7Z&tp_b=3QEMNNSB2YLJVMIPVQDMJEJGQ5JD7Z&c=365799&tp_c=365799"},{"rt":null,"stimulus":"Examples sent to student! Waiting for student...","response":null,"trial_type":"html-keyboard-response","trial_index":34,"time_elapsed":776697,"internal_node_id":"0.0-30.0","params":{"nStudents":24,"maxFlips":30,"completionMinutes":45,"basePay":8,"maxBonus":9,"perTrialBonus":0.5,"perTrialBonusThreshold":0.05,"exampleCost":0.01},"classroomParams":{"A":{"a":1,"b":4},"B":{"a":4,"b":1},"C":{"a":2,"b":8},"D":{"a":8,"b":2}},"conditions":["nonSeqFull","nonSeqPartial","seqNoFeedback","seqFeedback"],"classroomPairings":[["A","B"],["C","D"]],"coinWeights":[0.2,0.5,0.8],"subjectId":"A3G5IPGLH1IIZN","assignmentId":"3QEMNNSB2YLJVMIPVQDMJEJGQ5JD7Z","hitId":"3J94SKDEKIB2MY6CGVTNWB9X0ALD5P","url":"https://gershmanlab.com/experiments/alicia/teaching/experiment/?hitId=3J94SKDEKIB2MY6CGVTNWB9X0ALD5P&workerId=A3G5IPGLH1IIZN&assignmentId=3QEMNNSB2YLJVMIPVQDMJEJGQ5JD7Z&a=BNEQ9&tp_a=BNEQ9&b=3QEMNNSB2YLJVMIPVQDMJEJGQ5JD7Z&tp_b=3QEMNNSB2YLJVMIPVQDMJEJGQ5JD7Z&c=365799&tp_c=365799"},{"rt":15892,"stimulus":"\n                <p>Student's guess for coin weight: <b style=\"color:Tomato;\">0.50</b></p>\n                <p>You received a bonus of <b>$0</b>. Total bonus so far: <b>$1.35</b></b></p>\n                <p></p>\n                <p>Press any key to continue.</p>\n                ","response":" ","trial_type":"html-keyboard-response","trial_index":35,"time_elapsed":792590,"internal_node_id":"0.0-31.0","params":{"nStudents":24,"maxFlips":30,"completionMinutes":45,"basePay":8,"maxBonus":9,"perTrialBonus":0.5,"perTrialBonusThreshold":0.05,"exampleCost":0.01},"classroomParams":{"A":{"a":1,"b":4},"B":{"a":4,"b":1},"C":{"a":2,"b":8},"D":{"a":8,"b":2}},"conditions":["nonSeqFull","nonSeqPartial","seqNoFeedback","seqFeedback"],"classroomPairings":[["A","B"],["C","D"]],"coinWeights":[0.2,0.5,0.8],"subjectId":"A3G5IPGLH1IIZN","assignmentId":"3QEMNNSB2YLJVMIPVQDMJEJGQ5JD7Z","hitId":"3J94SKDEKIB2MY6CGVTNWB9X0ALD5P","url":"https://gershmanlab.com/experiments/alicia/teaching/experiment/?hitId=3J94SKDEKIB2MY6CGVTNWB9X0ALD5P&workerId=A3G5IPGLH1IIZN&assignmentId=3QEMNNSB2YLJVMIPVQDMJEJGQ5JD7Z&a=BNEQ9&tp_a=BNEQ9&b=3QEMNNSB2YLJVMIPVQDMJEJGQ5JD7Z&tp_b=3QEMNNSB2YLJVMIPVQDMJEJGQ5JD7Z&c=365799&tp_c=365799"},{"rt":null,"stimulus":"<div style=\"font-size:60px;\">Next student</div>","response":null,"trial_type":"html-keyboard-response","trial_index":36,"time_elapsed":795593,"internal_node_id":"0.0-32.0-0.0","params":{"nStudents":24,"maxFlips":30,"completionMinutes":45,"basePay":8,"maxBonus":9,"perTrialBonus":0.5,"perTrialBonusThreshold":0.05,"exampleCost":0.01},"classroomParams":{"A":{"a":1,"b":4},"B":{"a":4,"b":1},"C":{"a":2,"b":8},"D":{"a":8,"b":2}},"conditions":["nonSeqFull","nonSeqPartial","seqNoFeedback","seqFeedback"],"classroomPairings":[["A","B"],["C","D"]],"coinWeights":[0.2,0.5,0.8],"subjectId":"A3G5IPGLH1IIZN","assignmentId":"3QEMNNSB2YLJVMIPVQDMJEJGQ5JD7Z","hitId":"3J94SKDEKIB2MY6CGVTNWB9X0ALD5P","url":"https://gershmanlab.com/experiments/alicia/teaching/experiment/?hitId=3J94SKDEKIB2MY6CGVTNWB9X0ALD5P&workerId=A3G5IPGLH1IIZN&assignmentId=3QEMNNSB2YLJVMIPVQDMJEJGQ5JD7Z&a=BNEQ9&tp_a=BNEQ9&b=3QEMNNSB2YLJVMIPVQDMJEJGQ5JD7Z&tp_b=3QEMNNSB2YLJVMIPVQDMJEJGQ5JD7Z&c=365799&tp_c=365799"},{"rt":7356,"stimulus":"\n            <h4 style=\"color:Orange;\">Student 5</h4>\n            <h2>The weight of your coin is <b style=\"color:Tomato;\">0.2</b>.</h2>\n            <p>In this block, you will be giving <b>two</b> sets of examples to Student 5.</p>\n                <p>You will see the student's guess after the first set of examples. You will also receive feedback at the end of the block.</p>\n            <p>To earn the highest bonus, you will have to <b>take into consideration the student's guess</b> when you choose your second set of examples.</p>","response":0,"trial_type":"html-button-response","trial_index":37,"time_elapsed":802952,"internal_node_id":"0.0-33.0","params":{"nStudents":24,"maxFlips":30,"completionMinutes":45,"basePay":8,"maxBonus":9,"perTrialBonus":0.5,"perTrialBonusThreshold":0.05,"exampleCost":0.01},"classroomParams":{"A":{"a":1,"b":4},"B":{"a":4,"b":1},"C":{"a":2,"b":8},"D":{"a":8,"b":2}},"conditions":["nonSeqFull","nonSeqPartial","seqNoFeedback","seqFeedback"],"classroomPairings":[["A","B"],["C","D"]],"coinWeights":[0.2,0.5,0.8],"subjectId":"A3G5IPGLH1IIZN","assignmentId":"3QEMNNSB2YLJVMIPVQDMJEJGQ5JD7Z","hitId":"3J94SKDEKIB2MY6CGVTNWB9X0ALD5P","url":"https://gershmanlab.com/experiments/alicia/teaching/experiment/?hitId=3J94SKDEKIB2MY6CGVTNWB9X0ALD5P&workerId=A3G5IPGLH1IIZN&assignmentId=3QEMNNSB2YLJVMIPVQDMJEJGQ5JD7Z&a=BNEQ9&tp_a=BNEQ9&b=3QEMNNSB2YLJVMIPVQDMJEJGQ5JD7Z&tp_b=3QEMNNSB2YLJVMIPVQDMJEJGQ5JD7Z&c=365799&tp_c=365799"},{"rt":17420,"response":{"heads":"2","tails":"0"},"type":"response","condition":"seqFeedback","trueTheta":0.2,"classrooms":["A","B"],"studentTrueClassroom":"A","exampleSet":"first","trial_type":"survey-html-form","trial_index":38,"time_elapsed":820376,"internal_node_id":"0.0-34.0-0.0","params":{"nStudents":24,"maxFlips":30,"completionMinutes":45,"basePay":8,"maxBonus":9,"perTrialBonus":0.5,"perTrialBonusThreshold":0.05,"exampleCost":0.01},"classroomParams":{"A":{"a":1,"b":4},"B":{"a":4,"b":1},"C":{"a":2,"b":8},"D":{"a":8,"b":2}},"conditions":["nonSeqFull","nonSeqPartial","seqNoFeedback","seqFeedback"],"classroomPairings":[["A","B"],["C","D"]],"coinWeights":[0.2,0.5,0.8],"subjectId":"A3G5IPGLH1IIZN","assignmentId":"3QEMNNSB2YLJVMIPVQDMJEJGQ5JD7Z","hitId":"3J94SKDEKIB2MY6CGVTNWB9X0ALD5P","url":"https://gershmanlab.com/experiments/alicia/teaching/experiment/?hitId=3J94SKDEKIB2MY6CGVTNWB9X0ALD5P&workerId=A3G5IPGLH1IIZN&assignmentId=3QEMNNSB2YLJVMIPVQDMJEJGQ5JD7Z&a=BNEQ9&tp_a=BNEQ9&b=3QEMNNSB2YLJVMIPVQDMJEJGQ5JD7Z&tp_b=3QEMNNSB2YLJVMIPVQDMJEJGQ5JD7Z&c=365799&tp_c=365799","heads":2,"tails":0,"studentIndex":4,"studentTrueHypers":{"a":1,"b":4},"studentGuess":0.42857142857142855,"delta":0.22857142857142854,"totalExamples":2,"bonusSoFar":1.35},{"rt":null,"stimulus":"Sending examples to student... ","response":null,"trial_type":"html-keyboard-response","trial_index":39,"time_elapsed":821879,"internal_node_id":"0.0-35.0","params":{"nStudents":24,"maxFlips":30,"completionMinutes":45,"basePay":8,"maxBonus":9,"perTrialBonus":0.5,"perTrialBonusThreshold":0.05,"exampleCost":0.01},"classroomParams":{"A":{"a":1,"b":4},"B":{"a":4,"b":1},"C":{"a":2,"b":8},"D":{"a":8,"b":2}},"conditions":["nonSeqFull","nonSeqPartial","seqNoFeedback","seqFeedback"],"classroomPairings":[["A","B"],["C","D"]],"coinWeights":[0.2,0.5,0.8],"subjectId":"A3G5IPGLH1IIZN","assignmentId":"3QEMNNSB2YLJVMIPVQDMJEJGQ5JD7Z","hitId":"3J94SKDEKIB2MY6CGVTNWB9X0ALD5P","url":"https://gershmanlab.com/experiments/alicia/teaching/experiment/?hitId=3J94SKDEKIB2MY6CGVTNWB9X0ALD5P&workerId=A3G5IPGLH1IIZN&assignmentId=3QEMNNSB2YLJVMIPVQDMJEJGQ5JD7Z&a=BNEQ9&tp_a=BNEQ9&b=3QEMNNSB2YLJVMIPVQDMJEJGQ5JD7Z&tp_b=3QEMNNSB2YLJVMIPVQDMJEJGQ5JD7Z&c=365799&tp_c=365799"},{"rt":null,"stimulus":"Examples sent to student! Waiting for student...","response":null,"trial_type":"html-keyboard-response","trial_index":40,"time_elapsed":825882,"internal_node_id":"0.0-36.0","params":{"nStudents":24,"maxFlips":30,"completionMinutes":45,"basePay":8,"maxBonus":9,"perTrialBonus":0.5,"perTrialBonusThreshold":0.05,"exampleCost":0.01},"classroomParams":{"A":{"a":1,"b":4},"B":{"a":4,"b":1},"C":{"a":2,"b":8},"D":{"a":8,"b":2}},"conditions":["nonSeqFull","nonSeqPartial","seqNoFeedback","seqFeedback"],"classroomPairings":[["A","B"],["C","D"]],"coinWeights":[0.2,0.5,0.8],"subjectId":"A3G5IPGLH1IIZN","assignmentId":"3QEMNNSB2YLJVMIPVQDMJEJGQ5JD7Z","hitId":"3J94SKDEKIB2MY6CGVTNWB9X0ALD5P","url":"https://gershmanlab.com/experiments/alicia/teaching/experiment/?hitId=3J94SKDEKIB2MY6CGVTNWB9X0ALD5P&workerId=A3G5IPGLH1IIZN&assignmentId=3QEMNNSB2YLJVMIPVQDMJEJGQ5JD7Z&a=BNEQ9&tp_a=BNEQ9&b=3QEMNNSB2YLJVMIPVQDMJEJGQ5JD7Z&tp_b=3QEMNNSB2YLJVMIPVQDMJEJGQ5JD7Z&c=365799&tp_c=365799"},{"rt":13640,"stimulus":"\n                <p>Student's guess for coin weight: <b style=\"color:Tomato;\">0.43</b></p>\n                <p></b></p>\n                <p>You will now send another set of examples to your student. <b>Remember to take your student's guess into consideration so that you can earn the highest bonus possible!</b> </p>\n                <p>Press any key to continue.</p>\n                ","response":" ","trial_type":"html-keyboard-response","trial_index":41,"time_elapsed":839525,"internal_node_id":"0.0-37.0","params":{"nStudents":24,"maxFlips":30,"completionMinutes":45,"basePay":8,"maxBonus":9,"perTrialBonus":0.5,"perTrialBonusThreshold":0.05,"exampleCost":0.01},"classroomParams":{"A":{"a":1,"b":4},"B":{"a":4,"b":1},"C":{"a":2,"b":8},"D":{"a":8,"b":2}},"conditions":["nonSeqFull","nonSeqPartial","seqNoFeedback","seqFeedback"],"classroomPairings":[["A","B"],["C","D"]],"coinWeights":[0.2,0.5,0.8],"subjectId":"A3G5IPGLH1IIZN","assignmentId":"3QEMNNSB2YLJVMIPVQDMJEJGQ5JD7Z","hitId":"3J94SKDEKIB2MY6CGVTNWB9X0ALD5P","url":"https://gershmanlab.com/experiments/alicia/teaching/experiment/?hitId=3J94SKDEKIB2MY6CGVTNWB9X0ALD5P&workerId=A3G5IPGLH1IIZN&assignmentId=3QEMNNSB2YLJVMIPVQDMJEJGQ5JD7Z&a=BNEQ9&tp_a=BNEQ9&b=3QEMNNSB2YLJVMIPVQDMJEJGQ5JD7Z&tp_b=3QEMNNSB2YLJVMIPVQDMJEJGQ5JD7Z&c=365799&tp_c=365799"},{"rt":10872,"response":{"heads":"0","tails":"6"},"type":"response","condition":"seqFeedback","trueTheta":0.2,"classrooms":["A","B"],"studentTrueClassroom":"A","exampleSet":"second","trial_type":"survey-html-form","trial_index":42,"time_elapsed":850400,"internal_node_id":"0.0-38.0-0.0","params":{"nStudents":24,"maxFlips":30,"completionMinutes":45,"basePay":8,"maxBonus":9,"perTrialBonus":0.5,"perTrialBonusThreshold":0.05,"exampleCost":0.01},"classroomParams":{"A":{"a":1,"b":4},"B":{"a":4,"b":1},"C":{"a":2,"b":8},"D":{"a":8,"b":2}},"conditions":["nonSeqFull","nonSeqPartial","seqNoFeedback","seqFeedback"],"classroomPairings":[["A","B"],["C","D"]],"coinWeights":[0.2,0.5,0.8],"subjectId":"A3G5IPGLH1IIZN","assignmentId":"3QEMNNSB2YLJVMIPVQDMJEJGQ5JD7Z","hitId":"3J94SKDEKIB2MY6CGVTNWB9X0ALD5P","url":"https://gershmanlab.com/experiments/alicia/teaching/experiment/?hitId=3J94SKDEKIB2MY6CGVTNWB9X0ALD5P&workerId=A3G5IPGLH1IIZN&assignmentId=3QEMNNSB2YLJVMIPVQDMJEJGQ5JD7Z&a=BNEQ9&tp_a=BNEQ9&b=3QEMNNSB2YLJVMIPVQDMJEJGQ5JD7Z&tp_b=3QEMNNSB2YLJVMIPVQDMJEJGQ5JD7Z&c=365799&tp_c=365799","firstResponseHeads":2,"firstResponseTails":0,"secondResponseHeads":0,"secondResponseTails":6,"totalHeads":2,"totalTails":6,"studentIndex":4,"studentTrueHypers":{"a":1,"b":4},"studentGuess":0.23076923076923078,"delta":0.03076923076923077,"bonus":0.42,"bonusSoFar":1.77,"totalExamples":8},{"rt":null,"stimulus":"Sending examples to student... ","response":null,"trial_type":"html-keyboard-response","trial_index":43,"time_elapsed":851652,"internal_node_id":"0.0-39.0","params":{"nStudents":24,"maxFlips":30,"completionMinutes":45,"basePay":8,"maxBonus":9,"perTrialBonus":0.5,"perTrialBonusThreshold":0.05,"exampleCost":0.01},"classroomParams":{"A":{"a":1,"b":4},"B":{"a":4,"b":1},"C":{"a":2,"b":8},"D":{"a":8,"b":2}},"conditions":["nonSeqFull","nonSeqPartial","seqNoFeedback","seqFeedback"],"classroomPairings":[["A","B"],["C","D"]],"coinWeights":[0.2,0.5,0.8],"subjectId":"A3G5IPGLH1IIZN","assignmentId":"3QEMNNSB2YLJVMIPVQDMJEJGQ5JD7Z","hitId":"3J94SKDEKIB2MY6CGVTNWB9X0ALD5P","url":"https://gershmanlab.com/experiments/alicia/teaching/experiment/?hitId=3J94SKDEKIB2MY6CGVTNWB9X0ALD5P&workerId=A3G5IPGLH1IIZN&assignmentId=3QEMNNSB2YLJVMIPVQDMJEJGQ5JD7Z&a=BNEQ9&tp_a=BNEQ9&b=3QEMNNSB2YLJVMIPVQDMJEJGQ5JD7Z&tp_b=3QEMNNSB2YLJVMIPVQDMJEJGQ5JD7Z&c=365799&tp_c=365799"},{"rt":null,"stimulus":"Examples sent to student! Waiting for student...","response":null,"trial_type":"html-keyboard-response","trial_index":44,"time_elapsed":856154,"internal_node_id":"0.0-40.0","params":{"nStudents":24,"maxFlips":30,"completionMinutes":45,"basePay":8,"maxBonus":9,"perTrialBonus":0.5,"perTrialBonusThreshold":0.05,"exampleCost":0.01},"classroomParams":{"A":{"a":1,"b":4},"B":{"a":4,"b":1},"C":{"a":2,"b":8},"D":{"a":8,"b":2}},"conditions":["nonSeqFull","nonSeqPartial","seqNoFeedback","seqFeedback"],"classroomPairings":[["A","B"],["C","D"]],"coinWeights":[0.2,0.5,0.8],"subjectId":"A3G5IPGLH1IIZN","assignmentId":"3QEMNNSB2YLJVMIPVQDMJEJGQ5JD7Z","hitId":"3J94SKDEKIB2MY6CGVTNWB9X0ALD5P","url":"https://gershmanlab.com/experiments/alicia/teaching/experiment/?hitId=3J94SKDEKIB2MY6CGVTNWB9X0ALD5P&workerId=A3G5IPGLH1IIZN&assignmentId=3QEMNNSB2YLJVMIPVQDMJEJGQ5JD7Z&a=BNEQ9&tp_a=BNEQ9&b=3QEMNNSB2YLJVMIPVQDMJEJGQ5JD7Z&tp_b=3QEMNNSB2YLJVMIPVQDMJEJGQ5JD7Z&c=365799&tp_c=365799"},{"rt":8803,"stimulus":"\n                <p>Student 5's first guess for coin weight: <b style=\"color:Tomato\";>0.43</b></p>\n                <p>Student 5's second guess for coin weight: <b style=\"color:Tomato\";>0.23</b></p>\n                <p>You received a bonus of <b>$0.42</b> based on the student's second guess.</p>\n                <p>Total bonus so far: <b>$1.77</b></p>\n                <p>Press any key to continue.</p>\n                ","response":" ","trial_type":"html-keyboard-response","trial_index":45,"time_elapsed":864960,"internal_node_id":"0.0-41.0","params":{"nStudents":24,"maxFlips":30,"completionMinutes":45,"basePay":8,"maxBonus":9,"perTrialBonus":0.5,"perTrialBonusThreshold":0.05,"exampleCost":0.01},"classroomParams":{"A":{"a":1,"b":4},"B":{"a":4,"b":1},"C":{"a":2,"b":8},"D":{"a":8,"b":2}},"conditions":["nonSeqFull","nonSeqPartial","seqNoFeedback","seqFeedback"],"classroomPairings":[["A","B"],["C","D"]],"coinWeights":[0.2,0.5,0.8],"subjectId":"A3G5IPGLH1IIZN","assignmentId":"3QEMNNSB2YLJVMIPVQDMJEJGQ5JD7Z","hitId":"3J94SKDEKIB2MY6CGVTNWB9X0ALD5P","url":"https://gershmanlab.com/experiments/alicia/teaching/experiment/?hitId=3J94SKDEKIB2MY6CGVTNWB9X0ALD5P&workerId=A3G5IPGLH1IIZN&assignmentId=3QEMNNSB2YLJVMIPVQDMJEJGQ5JD7Z&a=BNEQ9&tp_a=BNEQ9&b=3QEMNNSB2YLJVMIPVQDMJEJGQ5JD7Z&tp_b=3QEMNNSB2YLJVMIPVQDMJEJGQ5JD7Z&c=365799&tp_c=365799"},{"rt":null,"stimulus":"<div style=\"font-size:60px;\">Next student</div>","response":null,"trial_type":"html-keyboard-response","trial_index":46,"time_elapsed":866962,"internal_node_id":"0.0-42.0-0.0","params":{"nStudents":24,"maxFlips":30,"completionMinutes":45,"basePay":8,"maxBonus":9,"perTrialBonus":0.5,"perTrialBonusThreshold":0.05,"exampleCost":0.01},"classroomParams":{"A":{"a":1,"b":4},"B":{"a":4,"b":1},"C":{"a":2,"b":8},"D":{"a":8,"b":2}},"conditions":["nonSeqFull","nonSeqPartial","seqNoFeedback","seqFeedback"],"classroomPairings":[["A","B"],["C","D"]],"coinWeights":[0.2,0.5,0.8],"subjectId":"A3G5IPGLH1IIZN","assignmentId":"3QEMNNSB2YLJVMIPVQDMJEJGQ5JD7Z","hitId":"3J94SKDEKIB2MY6CGVTNWB9X0ALD5P","url":"https://gershmanlab.com/experiments/alicia/teaching/experiment/?hitId=3J94SKDEKIB2MY6CGVTNWB9X0ALD5P&workerId=A3G5IPGLH1IIZN&assignmentId=3QEMNNSB2YLJVMIPVQDMJEJGQ5JD7Z&a=BNEQ9&tp_a=BNEQ9&b=3QEMNNSB2YLJVMIPVQDMJEJGQ5JD7Z&tp_b=3QEMNNSB2YLJVMIPVQDMJEJGQ5JD7Z&c=365799&tp_c=365799"},{"rt":4002,"stimulus":"\n            <h4 style=\"color:Orange;\">Student 6</h4>\n            <h2>The weight of your coin is <b style=\"color:Tomato;\">0.5</b>.</h2>\n            <p>In this block, you will be giving <b>two</b> sets of examples to Student 6.</p>\n                <p>You will receive feedback at the end of the block.</p>\n            <p></p>","response":0,"trial_type":"html-button-response","trial_index":47,"time_elapsed":870967,"internal_node_id":"0.0-43.0","params":{"nStudents":24,"maxFlips":30,"completionMinutes":45,"basePay":8,"maxBonus":9,"perTrialBonus":0.5,"perTrialBonusThreshold":0.05,"exampleCost":0.01},"classroomParams":{"A":{"a":1,"b":4},"B":{"a":4,"b":1},"C":{"a":2,"b":8},"D":{"a":8,"b":2}},"conditions":["nonSeqFull","nonSeqPartial","seqNoFeedback","seqFeedback"],"classroomPairings":[["A","B"],["C","D"]],"coinWeights":[0.2,0.5,0.8],"subjectId":"A3G5IPGLH1IIZN","assignmentId":"3QEMNNSB2YLJVMIPVQDMJEJGQ5JD7Z","hitId":"3J94SKDEKIB2MY6CGVTNWB9X0ALD5P","url":"https://gershmanlab.com/experiments/alicia/teaching/experiment/?hitId=3J94SKDEKIB2MY6CGVTNWB9X0ALD5P&workerId=A3G5IPGLH1IIZN&assignmentId=3QEMNNSB2YLJVMIPVQDMJEJGQ5JD7Z&a=BNEQ9&tp_a=BNEQ9&b=3QEMNNSB2YLJVMIPVQDMJEJGQ5JD7Z&tp_b=3QEMNNSB2YLJVMIPVQDMJEJGQ5JD7Z&c=365799&tp_c=365799"},{"rt":21111,"response":{"heads":"6","tails":"0"},"type":"response","condition":"seqNoFeedback","trueTheta":0.5,"classrooms":["C","D"],"studentTrueClassroom":"C","exampleSet":"first","trial_type":"survey-html-form","trial_index":48,"time_elapsed":892082,"internal_node_id":"0.0-44.0-0.0","params":{"nStudents":24,"maxFlips":30,"completionMinutes":45,"basePay":8,"maxBonus":9,"perTrialBonus":0.5,"perTrialBonusThreshold":0.05,"exampleCost":0.01},"classroomParams":{"A":{"a":1,"b":4},"B":{"a":4,"b":1},"C":{"a":2,"b":8},"D":{"a":8,"b":2}},"conditions":["nonSeqFull","nonSeqPartial","seqNoFeedback","seqFeedback"],"classroomPairings":[["A","B"],["C","D"]],"coinWeights":[0.2,0.5,0.8],"subjectId":"A3G5IPGLH1IIZN","assignmentId":"3QEMNNSB2YLJVMIPVQDMJEJGQ5JD7Z","hitId":"3J94SKDEKIB2MY6CGVTNWB9X0ALD5P","url":"https://gershmanlab.com/experiments/alicia/teaching/experiment/?hitId=3J94SKDEKIB2MY6CGVTNWB9X0ALD5P&workerId=A3G5IPGLH1IIZN&assignmentId=3QEMNNSB2YLJVMIPVQDMJEJGQ5JD7Z&a=BNEQ9&tp_a=BNEQ9&b=3QEMNNSB2YLJVMIPVQDMJEJGQ5JD7Z&tp_b=3QEMNNSB2YLJVMIPVQDMJEJGQ5JD7Z&c=365799&tp_c=365799","heads":6,"tails":0,"studentIndex":5,"studentTrueHypers":{"a":2,"b":8},"studentGuess":0.5,"delta":0,"totalExamples":6,"bonusSoFar":1.77},{"rt":null,"stimulus":"Sending examples to student... ","response":null,"trial_type":"html-keyboard-response","trial_index":49,"time_elapsed":893836,"internal_node_id":"0.0-45.0","params":{"nStudents":24,"maxFlips":30,"completionMinutes":45,"basePay":8,"maxBonus":9,"perTrialBonus":0.5,"perTrialBonusThreshold":0.05,"exampleCost":0.01},"classroomParams":{"A":{"a":1,"b":4},"B":{"a":4,"b":1},"C":{"a":2,"b":8},"D":{"a":8,"b":2}},"conditions":["nonSeqFull","nonSeqPartial","seqNoFeedback","seqFeedback"],"classroomPairings":[["A","B"],["C","D"]],"coinWeights":[0.2,0.5,0.8],"subjectId":"A3G5IPGLH1IIZN","assignmentId":"3QEMNNSB2YLJVMIPVQDMJEJGQ5JD7Z","hitId":"3J94SKDEKIB2MY6CGVTNWB9X0ALD5P","url":"https://gershmanlab.com/experiments/alicia/teaching/experiment/?hitId=3J94SKDEKIB2MY6CGVTNWB9X0ALD5P&workerId=A3G5IPGLH1IIZN&assignmentId=3QEMNNSB2YLJVMIPVQDMJEJGQ5JD7Z&a=BNEQ9&tp_a=BNEQ9&b=3QEMNNSB2YLJVMIPVQDMJEJGQ5JD7Z&tp_b=3QEMNNSB2YLJVMIPVQDMJEJGQ5JD7Z&c=365799&tp_c=365799"},{"rt":null,"stimulus":"Examples sent to student! Waiting for student...","response":null,"trial_type":"html-keyboard-response","trial_index":50,"time_elapsed":897838,"internal_node_id":"0.0-46.0","params":{"nStudents":24,"maxFlips":30,"completionMinutes":45,"basePay":8,"maxBonus":9,"perTrialBonus":0.5,"perTrialBonusThreshold":0.05,"exampleCost":0.01},"classroomParams":{"A":{"a":1,"b":4},"B":{"a":4,"b":1},"C":{"a":2,"b":8},"D":{"a":8,"b":2}},"conditions":["nonSeqFull","nonSeqPartial","seqNoFeedback","seqFeedback"],"classroomPairings":[["A","B"],["C","D"]],"coinWeights":[0.2,0.5,0.8],"subjectId":"A3G5IPGLH1IIZN","assignmentId":"3QEMNNSB2YLJVMIPVQDMJEJGQ5JD7Z","hitId":"3J94SKDEKIB2MY6CGVTNWB9X0ALD5P","url":"https://gershmanlab.com/experiments/alicia/teaching/experiment/?hitId=3J94SKDEKIB2MY6CGVTNWB9X0ALD5P&workerId=A3G5IPGLH1IIZN&assignmentId=3QEMNNSB2YLJVMIPVQDMJEJGQ5JD7Z&a=BNEQ9&tp_a=BNEQ9&b=3QEMNNSB2YLJVMIPVQDMJEJGQ5JD7Z&tp_b=3QEMNNSB2YLJVMIPVQDMJEJGQ5JD7Z&c=365799&tp_c=365799"},{"rt":21583,"response":{"heads":"0","tails":"0"},"type":"response","condition":"seqNoFeedback","trueTheta":0.5,"classrooms":["C","D"],"studentTrueClassroom":"C","exampleSet":"second","trial_type":"survey-html-form","trial_index":51,"time_elapsed":919424,"internal_node_id":"0.0-47.0-0.0","params":{"nStudents":24,"maxFlips":30,"completionMinutes":45,"basePay":8,"maxBonus":9,"perTrialBonus":0.5,"perTrialBonusThreshold":0.05,"exampleCost":0.01},"classroomParams":{"A":{"a":1,"b":4},"B":{"a":4,"b":1},"C":{"a":2,"b":8},"D":{"a":8,"b":2}},"conditions":["nonSeqFull","nonSeqPartial","seqNoFeedback","seqFeedback"],"classroomPairings":[["A","B"],["C","D"]],"coinWeights":[0.2,0.5,0.8],"subjectId":"A3G5IPGLH1IIZN","assignmentId":"3QEMNNSB2YLJVMIPVQDMJEJGQ5JD7Z","hitId":"3J94SKDEKIB2MY6CGVTNWB9X0ALD5P","url":"https://gershmanlab.com/experiments/alicia/teaching/experiment/?hitId=3J94SKDEKIB2MY6CGVTNWB9X0ALD5P&workerId=A3G5IPGLH1IIZN&assignmentId=3QEMNNSB2YLJVMIPVQDMJEJGQ5JD7Z&a=BNEQ9&tp_a=BNEQ9&b=3QEMNNSB2YLJVMIPVQDMJEJGQ5JD7Z&tp_b=3QEMNNSB2YLJVMIPVQDMJEJGQ5JD7Z&c=365799&tp_c=365799","firstResponseHeads":6,"firstResponseTails":0,"secondResponseHeads":0,"secondResponseTails":0,"totalHeads":6,"totalTails":0,"studentIndex":5,"studentTrueHypers":{"a":2,"b":8},"studentGuess":0.5,"delta":0,"bonus":0.44,"bonusSoFar":2.21,"totalExamples":6},{"rt":13820,"response":{"heads":"1","tails":"1"},"type":"response","condition":"seqNoFeedback","trueTheta":0.5,"classrooms":["C","D"],"studentTrueClassroom":"C","exampleSet":"second","trial_type":"survey-html-form","trial_index":52,"time_elapsed":933257,"internal_node_id":"0.0-47.1-0.1","params":{"nStudents":24,"maxFlips":30,"completionMinutes":45,"basePay":8,"maxBonus":9,"perTrialBonus":0.5,"perTrialBonusThreshold":0.05,"exampleCost":0.01},"classroomParams":{"A":{"a":1,"b":4},"B":{"a":4,"b":1},"C":{"a":2,"b":8},"D":{"a":8,"b":2}},"conditions":["nonSeqFull","nonSeqPartial","seqNoFeedback","seqFeedback"],"classroomPairings":[["A","B"],["C","D"]],"coinWeights":[0.2,0.5,0.8],"subjectId":"A3G5IPGLH1IIZN","assignmentId":"3QEMNNSB2YLJVMIPVQDMJEJGQ5JD7Z","hitId":"3J94SKDEKIB2MY6CGVTNWB9X0ALD5P","url":"https://gershmanlab.com/experiments/alicia/teaching/experiment/?hitId=3J94SKDEKIB2MY6CGVTNWB9X0ALD5P&workerId=A3G5IPGLH1IIZN&assignmentId=3QEMNNSB2YLJVMIPVQDMJEJGQ5JD7Z&a=BNEQ9&tp_a=BNEQ9&b=3QEMNNSB2YLJVMIPVQDMJEJGQ5JD7Z&tp_b=3QEMNNSB2YLJVMIPVQDMJEJGQ5JD7Z&c=365799&tp_c=365799","firstResponseHeads":6,"firstResponseTails":0,"secondResponseHeads":1,"secondResponseTails":1,"totalHeads":7,"totalTails":1,"studentIndex":5,"studentTrueHypers":{"a":2,"b":8},"studentGuess":0.5,"delta":0,"bonus":0.42,"bonusSoFar":2.63,"totalExamples":8},{"rt":null,"stimulus":"Sending examples to student... ","response":null,"trial_type":"html-keyboard-response","trial_index":53,"time_elapsed":935261,"internal_node_id":"0.0-48.0","params":{"nStudents":24,"maxFlips":30,"completionMinutes":45,"basePay":8,"maxBonus":9,"perTrialBonus":0.5,"perTrialBonusThreshold":0.05,"exampleCost":0.01},"classroomParams":{"A":{"a":1,"b":4},"B":{"a":4,"b":1},"C":{"a":2,"b":8},"D":{"a":8,"b":2}},"conditions":["nonSeqFull","nonSeqPartial","seqNoFeedback","seqFeedback"],"classroomPairings":[["A","B"],["C","D"]],"coinWeights":[0.2,0.5,0.8],"subjectId":"A3G5IPGLH1IIZN","assignmentId":"3QEMNNSB2YLJVMIPVQDMJEJGQ5JD7Z","hitId":"3J94SKDEKIB2MY6CGVTNWB9X0ALD5P","url":"https://gershmanlab.com/experiments/alicia/teaching/experiment/?hitId=3J94SKDEKIB2MY6CGVTNWB9X0ALD5P&workerId=A3G5IPGLH1IIZN&assignmentId=3QEMNNSB2YLJVMIPVQDMJEJGQ5JD7Z&a=BNEQ9&tp_a=BNEQ9&b=3QEMNNSB2YLJVMIPVQDMJEJGQ5JD7Z&tp_b=3QEMNNSB2YLJVMIPVQDMJEJGQ5JD7Z&c=365799&tp_c=365799"},{"rt":null,"stimulus":"Examples sent to student! Waiting for student...","response":null,"trial_type":"html-keyboard-response","trial_index":54,"time_elapsed":939264,"internal_node_id":"0.0-49.0","params":{"nStudents":24,"maxFlips":30,"completionMinutes":45,"basePay":8,"maxBonus":9,"perTrialBonus":0.5,"perTrialBonusThreshold":0.05,"exampleCost":0.01},"classroomParams":{"A":{"a":1,"b":4},"B":{"a":4,"b":1},"C":{"a":2,"b":8},"D":{"a":8,"b":2}},"conditions":["nonSeqFull","nonSeqPartial","seqNoFeedback","seqFeedback"],"classroomPairings":[["A","B"],["C","D"]],"coinWeights":[0.2,0.5,0.8],"subjectId":"A3G5IPGLH1IIZN","assignmentId":"3QEMNNSB2YLJVMIPVQDMJEJGQ5JD7Z","hitId":"3J94SKDEKIB2MY6CGVTNWB9X0ALD5P","url":"https://gershmanlab.com/experiments/alicia/teaching/experiment/?hitId=3J94SKDEKIB2MY6CGVTNWB9X0ALD5P&workerId=A3G5IPGLH1IIZN&assignmentId=3QEMNNSB2YLJVMIPVQDMJEJGQ5JD7Z&a=BNEQ9&tp_a=BNEQ9&b=3QEMNNSB2YLJVMIPVQDMJEJGQ5JD7Z&tp_b=3QEMNNSB2YLJVMIPVQDMJEJGQ5JD7Z&c=365799&tp_c=365799"},{"rt":12364,"stimulus":"\n                <p>Student 6's first guess for coin weight: <b style=\"color:Tomato\";>0.50</b></p>\n                <p>Student 6's second guess for coin weight: <b style=\"color:Tomato\";>0.50</b></p>\n                <p>You received a bonus of <b>$0.44</b> based on the student's second guess.</p>\n                <p>Total bonus so far: <b>$2.63</b></p>\n                <p>Press any key to continue.</p>\n                ","response":" ","trial_type":"html-keyboard-response","trial_index":55,"time_elapsed":951640,"internal_node_id":"0.0-50.0","params":{"nStudents":24,"maxFlips":30,"completionMinutes":45,"basePay":8,"maxBonus":9,"perTrialBonus":0.5,"perTrialBonusThreshold":0.05,"exampleCost":0.01},"classroomParams":{"A":{"a":1,"b":4},"B":{"a":4,"b":1},"C":{"a":2,"b":8},"D":{"a":8,"b":2}},"conditions":["nonSeqFull","nonSeqPartial","seqNoFeedback","seqFeedback"],"classroomPairings":[["A","B"],["C","D"]],"coinWeights":[0.2,0.5,0.8],"subjectId":"A3G5IPGLH1IIZN","assignmentId":"3QEMNNSB2YLJVMIPVQDMJEJGQ5JD7Z","hitId":"3J94SKDEKIB2MY6CGVTNWB9X0ALD5P","url":"https://gershmanlab.com/experiments/alicia/teaching/experiment/?hitId=3J94SKDEKIB2MY6CGVTNWB9X0ALD5P&workerId=A3G5IPGLH1IIZN&assignmentId=3QEMNNSB2YLJVMIPVQDMJEJGQ5JD7Z&a=BNEQ9&tp_a=BNEQ9&b=3QEMNNSB2YLJVMIPVQDMJEJGQ5JD7Z&tp_b=3QEMNNSB2YLJVMIPVQDMJEJGQ5JD7Z&c=365799&tp_c=365799"},{"rt":null,"stimulus":"<div style=\"font-size:60px;\">Next student</div>","response":null,"trial_type":"html-keyboard-response","trial_index":56,"time_elapsed":953893,"internal_node_id":"0.0-51.0-0.0","params":{"nStudents":24,"maxFlips":30,"completionMinutes":45,"basePay":8,"maxBonus":9,"perTrialBonus":0.5,"perTrialBonusThreshold":0.05,"exampleCost":0.01},"classroomParams":{"A":{"a":1,"b":4},"B":{"a":4,"b":1},"C":{"a":2,"b":8},"D":{"a":8,"b":2}},"conditions":["nonSeqFull","nonSeqPartial","seqNoFeedback","seqFeedback"],"classroomPairings":[["A","B"],["C","D"]],"coinWeights":[0.2,0.5,0.8],"subjectId":"A3G5IPGLH1IIZN","assignmentId":"3QEMNNSB2YLJVMIPVQDMJEJGQ5JD7Z","hitId":"3J94SKDEKIB2MY6CGVTNWB9X0ALD5P","url":"https://gershmanlab.com/experiments/alicia/teaching/experiment/?hitId=3J94SKDEKIB2MY6CGVTNWB9X0ALD5P&workerId=A3G5IPGLH1IIZN&assignmentId=3QEMNNSB2YLJVMIPVQDMJEJGQ5JD7Z&a=BNEQ9&tp_a=BNEQ9&b=3QEMNNSB2YLJVMIPVQDMJEJGQ5JD7Z&tp_b=3QEMNNSB2YLJVMIPVQDMJEJGQ5JD7Z&c=365799&tp_c=365799"},{"rt":7095,"stimulus":"\n            <h4 style=\"color:Orange;\">Student 7</h4>\n            <h2>The weight of your coin is <b style=\"color:Tomato;\">0.5</b>.</h2>\n            <p>In this block, you will be giving <b>one</b> set of examples to Student 7.</p>\n                <p>You will receive feedback at the end of the block.</p>\n            <p></p>","response":0,"trial_type":"html-button-response","trial_index":57,"time_elapsed":960991,"internal_node_id":"0.0-52.0","params":{"nStudents":24,"maxFlips":30,"completionMinutes":45,"basePay":8,"maxBonus":9,"perTrialBonus":0.5,"perTrialBonusThreshold":0.05,"exampleCost":0.01},"classroomParams":{"A":{"a":1,"b":4},"B":{"a":4,"b":1},"C":{"a":2,"b":8},"D":{"a":8,"b":2}},"conditions":["nonSeqFull","nonSeqPartial","seqNoFeedback","seqFeedback"],"classroomPairings":[["A","B"],["C","D"]],"coinWeights":[0.2,0.5,0.8],"subjectId":"A3G5IPGLH1IIZN","assignmentId":"3QEMNNSB2YLJVMIPVQDMJEJGQ5JD7Z","hitId":"3J94SKDEKIB2MY6CGVTNWB9X0ALD5P","url":"https://gershmanlab.com/experiments/alicia/teaching/experiment/?hitId=3J94SKDEKIB2MY6CGVTNWB9X0ALD5P&workerId=A3G5IPGLH1IIZN&assignmentId=3QEMNNSB2YLJVMIPVQDMJEJGQ5JD7Z&a=BNEQ9&tp_a=BNEQ9&b=3QEMNNSB2YLJVMIPVQDMJEJGQ5JD7Z&tp_b=3QEMNNSB2YLJVMIPVQDMJEJGQ5JD7Z&c=365799&tp_c=365799"},{"rt":12117,"response":{"heads":"6","tails":"0"},"type":"response","condition":"nonSeqPartial","trueTheta":0.5,"classrooms":["C","D"],"studentTrueClassroom":"D","exampleSet":"first","trial_type":"survey-html-form","trial_index":58,"time_elapsed":973112,"internal_node_id":"0.0-53.0-0.0","params":{"nStudents":24,"maxFlips":30,"completionMinutes":45,"basePay":8,"maxBonus":9,"perTrialBonus":0.5,"perTrialBonusThreshold":0.05,"exampleCost":0.01},"classroomParams":{"A":{"a":1,"b":4},"B":{"a":4,"b":1},"C":{"a":2,"b":8},"D":{"a":8,"b":2}},"conditions":["nonSeqFull","nonSeqPartial","seqNoFeedback","seqFeedback"],"classroomPairings":[["A","B"],["C","D"]],"coinWeights":[0.2,0.5,0.8],"subjectId":"A3G5IPGLH1IIZN","assignmentId":"3QEMNNSB2YLJVMIPVQDMJEJGQ5JD7Z","hitId":"3J94SKDEKIB2MY6CGVTNWB9X0ALD5P","url":"https://gershmanlab.com/experiments/alicia/teaching/experiment/?hitId=3J94SKDEKIB2MY6CGVTNWB9X0ALD5P&workerId=A3G5IPGLH1IIZN&assignmentId=3QEMNNSB2YLJVMIPVQDMJEJGQ5JD7Z&a=BNEQ9&tp_a=BNEQ9&b=3QEMNNSB2YLJVMIPVQDMJEJGQ5JD7Z&tp_b=3QEMNNSB2YLJVMIPVQDMJEJGQ5JD7Z&c=365799&tp_c=365799","heads":6,"tails":0,"studentIndex":6,"studentTrueHypers":{"a":8,"b":2},"studentGuess":0.875,"delta":0.375,"totalExamples":6,"bonus":0,"bonusSoFar":2.63},{"rt":null,"stimulus":"Sending examples to student... ","response":null,"trial_type":"html-keyboard-response","trial_index":59,"time_elapsed":974616,"internal_node_id":"0.0-54.0","params":{"nStudents":24,"maxFlips":30,"completionMinutes":45,"basePay":8,"maxBonus":9,"perTrialBonus":0.5,"perTrialBonusThreshold":0.05,"exampleCost":0.01},"classroomParams":{"A":{"a":1,"b":4},"B":{"a":4,"b":1},"C":{"a":2,"b":8},"D":{"a":8,"b":2}},"conditions":["nonSeqFull","nonSeqPartial","seqNoFeedback","seqFeedback"],"classroomPairings":[["A","B"],["C","D"]],"coinWeights":[0.2,0.5,0.8],"subjectId":"A3G5IPGLH1IIZN","assignmentId":"3QEMNNSB2YLJVMIPVQDMJEJGQ5JD7Z","hitId":"3J94SKDEKIB2MY6CGVTNWB9X0ALD5P","url":"https://gershmanlab.com/experiments/alicia/teaching/experiment/?hitId=3J94SKDEKIB2MY6CGVTNWB9X0ALD5P&workerId=A3G5IPGLH1IIZN&assignmentId=3QEMNNSB2YLJVMIPVQDMJEJGQ5JD7Z&a=BNEQ9&tp_a=BNEQ9&b=3QEMNNSB2YLJVMIPVQDMJEJGQ5JD7Z&tp_b=3QEMNNSB2YLJVMIPVQDMJEJGQ5JD7Z&c=365799&tp_c=365799"},{"rt":null,"stimulus":"Examples sent to student! Waiting for student...","response":null,"trial_type":"html-keyboard-response","trial_index":60,"time_elapsed":980117,"internal_node_id":"0.0-55.0","params":{"nStudents":24,"maxFlips":30,"completionMinutes":45,"basePay":8,"maxBonus":9,"perTrialBonus":0.5,"perTrialBonusThreshold":0.05,"exampleCost":0.01},"classroomParams":{"A":{"a":1,"b":4},"B":{"a":4,"b":1},"C":{"a":2,"b":8},"D":{"a":8,"b":2}},"conditions":["nonSeqFull","nonSeqPartial","seqNoFeedback","seqFeedback"],"classroomPairings":[["A","B"],["C","D"]],"coinWeights":[0.2,0.5,0.8],"subjectId":"A3G5IPGLH1IIZN","assignmentId":"3QEMNNSB2YLJVMIPVQDMJEJGQ5JD7Z","hitId":"3J94SKDEKIB2MY6CGVTNWB9X0ALD5P","url":"https://gershmanlab.com/experiments/alicia/teaching/experiment/?hitId=3J94SKDEKIB2MY6CGVTNWB9X0ALD5P&workerId=A3G5IPGLH1IIZN&assignmentId=3QEMNNSB2YLJVMIPVQDMJEJGQ5JD7Z&a=BNEQ9&tp_a=BNEQ9&b=3QEMNNSB2YLJVMIPVQDMJEJGQ5JD7Z&tp_b=3QEMNNSB2YLJVMIPVQDMJEJGQ5JD7Z&c=365799&tp_c=365799"},{"rt":4422,"stimulus":"\n                <p>Student's guess for coin weight: <b style=\"color:Tomato;\">0.88</b></p>\n                <p>You received a bonus of <b>$0</b>. Total bonus so far: <b>$2.63</b></b></p>\n                <p></p>\n                <p>Press any key to continue.</p>\n                ","response":" ","trial_type":"html-keyboard-response","trial_index":61,"time_elapsed":984541,"internal_node_id":"0.0-56.0","params":{"nStudents":24,"maxFlips":30,"completionMinutes":45,"basePay":8,"maxBonus":9,"perTrialBonus":0.5,"perTrialBonusThreshold":0.05,"exampleCost":0.01},"classroomParams":{"A":{"a":1,"b":4},"B":{"a":4,"b":1},"C":{"a":2,"b":8},"D":{"a":8,"b":2}},"conditions":["nonSeqFull","nonSeqPartial","seqNoFeedback","seqFeedback"],"classroomPairings":[["A","B"],["C","D"]],"coinWeights":[0.2,0.5,0.8],"subjectId":"A3G5IPGLH1IIZN","assignmentId":"3QEMNNSB2YLJVMIPVQDMJEJGQ5JD7Z","hitId":"3J94SKDEKIB2MY6CGVTNWB9X0ALD5P","url":"https://gershmanlab.com/experiments/alicia/teaching/experiment/?hitId=3J94SKDEKIB2MY6CGVTNWB9X0ALD5P&workerId=A3G5IPGLH1IIZN&assignmentId=3QEMNNSB2YLJVMIPVQDMJEJGQ5JD7Z&a=BNEQ9&tp_a=BNEQ9&b=3QEMNNSB2YLJVMIPVQDMJEJGQ5JD7Z&tp_b=3QEMNNSB2YLJVMIPVQDMJEJGQ5JD7Z&c=365799&tp_c=365799"},{"rt":null,"stimulus":"<div style=\"font-size:60px;\">Next student</div>","response":null,"trial_type":"html-keyboard-response","trial_index":62,"time_elapsed":987543,"internal_node_id":"0.0-57.0-0.0","params":{"nStudents":24,"maxFlips":30,"completionMinutes":45,"basePay":8,"maxBonus":9,"perTrialBonus":0.5,"perTrialBonusThreshold":0.05,"exampleCost":0.01},"classroomParams":{"A":{"a":1,"b":4},"B":{"a":4,"b":1},"C":{"a":2,"b":8},"D":{"a":8,"b":2}},"conditions":["nonSeqFull","nonSeqPartial","seqNoFeedback","seqFeedback"],"classroomPairings":[["A","B"],["C","D"]],"coinWeights":[0.2,0.5,0.8],"subjectId":"A3G5IPGLH1IIZN","assignmentId":"3QEMNNSB2YLJVMIPVQDMJEJGQ5JD7Z","hitId":"3J94SKDEKIB2MY6CGVTNWB9X0ALD5P","url":"https://gershmanlab.com/experiments/alicia/teaching/experiment/?hitId=3J94SKDEKIB2MY6CGVTNWB9X0ALD5P&workerId=A3G5IPGLH1IIZN&assignmentId=3QEMNNSB2YLJVMIPVQDMJEJGQ5JD7Z&a=BNEQ9&tp_a=BNEQ9&b=3QEMNNSB2YLJVMIPVQDMJEJGQ5JD7Z&tp_b=3QEMNNSB2YLJVMIPVQDMJEJGQ5JD7Z&c=365799&tp_c=365799"},{"rt":3461,"stimulus":"\n            <h4 style=\"color:Orange;\">Student 8</h4>\n            <h2>The weight of your coin is <b style=\"color:Tomato;\">0.5</b>.</h2>\n            <p>In this block, you will be giving <b>one</b> set of examples to Student 8.</p>\n                <p>You will receive feedback at the end of the block.</p>\n            <p></p>","response":0,"trial_type":"html-button-response","trial_index":63,"time_elapsed":991007,"internal_node_id":"0.0-58.0","params":{"nStudents":24,"maxFlips":30,"completionMinutes":45,"basePay":8,"maxBonus":9,"perTrialBonus":0.5,"perTrialBonusThreshold":0.05,"exampleCost":0.01},"classroomParams":{"A":{"a":1,"b":4},"B":{"a":4,"b":1},"C":{"a":2,"b":8},"D":{"a":8,"b":2}},"conditions":["nonSeqFull","nonSeqPartial","seqNoFeedback","seqFeedback"],"classroomPairings":[["A","B"],["C","D"]],"coinWeights":[0.2,0.5,0.8],"subjectId":"A3G5IPGLH1IIZN","assignmentId":"3QEMNNSB2YLJVMIPVQDMJEJGQ5JD7Z","hitId":"3J94SKDEKIB2MY6CGVTNWB9X0ALD5P","url":"https://gershmanlab.com/experiments/alicia/teaching/experiment/?hitId=3J94SKDEKIB2MY6CGVTNWB9X0ALD5P&workerId=A3G5IPGLH1IIZN&assignmentId=3QEMNNSB2YLJVMIPVQDMJEJGQ5JD7Z&a=BNEQ9&tp_a=BNEQ9&b=3QEMNNSB2YLJVMIPVQDMJEJGQ5JD7Z&tp_b=3QEMNNSB2YLJVMIPVQDMJEJGQ5JD7Z&c=365799&tp_c=365799"},{"rt":11182,"response":{"heads":"6","tails":"0"},"type":"response","condition":"nonSeqFull","trueTheta":0.5,"classrooms":["C","D"],"studentTrueClassroom":"C","exampleSet":"first","trial_type":"survey-html-form","trial_index":64,"time_elapsed":1002192,"internal_node_id":"0.0-59.0-0.0","params":{"nStudents":24,"maxFlips":30,"completionMinutes":45,"basePay":8,"maxBonus":9,"perTrialBonus":0.5,"perTrialBonusThreshold":0.05,"exampleCost":0.01},"classroomParams":{"A":{"a":1,"b":4},"B":{"a":4,"b":1},"C":{"a":2,"b":8},"D":{"a":8,"b":2}},"conditions":["nonSeqFull","nonSeqPartial","seqNoFeedback","seqFeedback"],"classroomPairings":[["A","B"],["C","D"]],"coinWeights":[0.2,0.5,0.8],"subjectId":"A3G5IPGLH1IIZN","assignmentId":"3QEMNNSB2YLJVMIPVQDMJEJGQ5JD7Z","hitId":"3J94SKDEKIB2MY6CGVTNWB9X0ALD5P","url":"https://gershmanlab.com/experiments/alicia/teaching/experiment/?hitId=3J94SKDEKIB2MY6CGVTNWB9X0ALD5P&workerId=A3G5IPGLH1IIZN&assignmentId=3QEMNNSB2YLJVMIPVQDMJEJGQ5JD7Z&a=BNEQ9&tp_a=BNEQ9&b=3QEMNNSB2YLJVMIPVQDMJEJGQ5JD7Z&tp_b=3QEMNNSB2YLJVMIPVQDMJEJGQ5JD7Z&c=365799&tp_c=365799","heads":6,"tails":0,"studentIndex":7,"studentTrueHypers":{"a":2,"b":8},"studentGuess":0.5,"delta":0,"totalExamples":6,"bonus":0.44,"bonusSoFar":3.07},{"rt":null,"stimulus":"Sending examples to student... ","response":null,"trial_type":"html-keyboard-response","trial_index":65,"time_elapsed":1003944,"internal_node_id":"0.0-60.0","params":{"nStudents":24,"maxFlips":30,"completionMinutes":45,"basePay":8,"maxBonus":9,"perTrialBonus":0.5,"perTrialBonusThreshold":0.05,"exampleCost":0.01},"classroomParams":{"A":{"a":1,"b":4},"B":{"a":4,"b":1},"C":{"a":2,"b":8},"D":{"a":8,"b":2}},"conditions":["nonSeqFull","nonSeqPartial","seqNoFeedback","seqFeedback"],"classroomPairings":[["A","B"],["C","D"]],"coinWeights":[0.2,0.5,0.8],"subjectId":"A3G5IPGLH1IIZN","assignmentId":"3QEMNNSB2YLJVMIPVQDMJEJGQ5JD7Z","hitId":"3J94SKDEKIB2MY6CGVTNWB9X0ALD5P","url":"https://gershmanlab.com/experiments/alicia/teaching/experiment/?hitId=3J94SKDEKIB2MY6CGVTNWB9X0ALD5P&workerId=A3G5IPGLH1IIZN&assignmentId=3QEMNNSB2YLJVMIPVQDMJEJGQ5JD7Z&a=BNEQ9&tp_a=BNEQ9&b=3QEMNNSB2YLJVMIPVQDMJEJGQ5JD7Z&tp_b=3QEMNNSB2YLJVMIPVQDMJEJGQ5JD7Z&c=365799&tp_c=365799"},{"rt":null,"stimulus":"Examples sent to student! Waiting for student...","response":null,"trial_type":"html-keyboard-response","trial_index":66,"time_elapsed":1008446,"internal_node_id":"0.0-61.0","params":{"nStudents":24,"maxFlips":30,"completionMinutes":45,"basePay":8,"maxBonus":9,"perTrialBonus":0.5,"perTrialBonusThreshold":0.05,"exampleCost":0.01},"classroomParams":{"A":{"a":1,"b":4},"B":{"a":4,"b":1},"C":{"a":2,"b":8},"D":{"a":8,"b":2}},"conditions":["nonSeqFull","nonSeqPartial","seqNoFeedback","seqFeedback"],"classroomPairings":[["A","B"],["C","D"]],"coinWeights":[0.2,0.5,0.8],"subjectId":"A3G5IPGLH1IIZN","assignmentId":"3QEMNNSB2YLJVMIPVQDMJEJGQ5JD7Z","hitId":"3J94SKDEKIB2MY6CGVTNWB9X0ALD5P","url":"https://gershmanlab.com/experiments/alicia/teaching/experiment/?hitId=3J94SKDEKIB2MY6CGVTNWB9X0ALD5P&workerId=A3G5IPGLH1IIZN&assignmentId=3QEMNNSB2YLJVMIPVQDMJEJGQ5JD7Z&a=BNEQ9&tp_a=BNEQ9&b=3QEMNNSB2YLJVMIPVQDMJEJGQ5JD7Z&tp_b=3QEMNNSB2YLJVMIPVQDMJEJGQ5JD7Z&c=365799&tp_c=365799"},{"rt":9085,"stimulus":"\n                <p>Student's guess for coin weight: <b style=\"color:Tomato;\">0.50</b></p>\n                <p>You received a bonus of <b>$0.44</b>. Total bonus so far: <b>$3.07</b></b></p>\n                <p></p>\n                <p>Press any key to continue.</p>\n                ","response":" ","trial_type":"html-keyboard-response","trial_index":67,"time_elapsed":1017532,"internal_node_id":"0.0-62.0","params":{"nStudents":24,"maxFlips":30,"completionMinutes":45,"basePay":8,"maxBonus":9,"perTrialBonus":0.5,"perTrialBonusThreshold":0.05,"exampleCost":0.01},"classroomParams":{"A":{"a":1,"b":4},"B":{"a":4,"b":1},"C":{"a":2,"b":8},"D":{"a":8,"b":2}},"conditions":["nonSeqFull","nonSeqPartial","seqNoFeedback","seqFeedback"],"classroomPairings":[["A","B"],["C","D"]],"coinWeights":[0.2,0.5,0.8],"subjectId":"A3G5IPGLH1IIZN","assignmentId":"3QEMNNSB2YLJVMIPVQDMJEJGQ5JD7Z","hitId":"3J94SKDEKIB2MY6CGVTNWB9X0ALD5P","url":"https://gershmanlab.com/experiments/alicia/teaching/experiment/?hitId=3J94SKDEKIB2MY6CGVTNWB9X0ALD5P&workerId=A3G5IPGLH1IIZN&assignmentId=3QEMNNSB2YLJVMIPVQDMJEJGQ5JD7Z&a=BNEQ9&tp_a=BNEQ9&b=3QEMNNSB2YLJVMIPVQDMJEJGQ5JD7Z&tp_b=3QEMNNSB2YLJVMIPVQDMJEJGQ5JD7Z&c=365799&tp_c=365799"},{"rt":null,"stimulus":"<div style=\"font-size:60px;\">Next student</div>","response":null,"trial_type":"html-keyboard-response","trial_index":68,"time_elapsed":1019784,"internal_node_id":"0.0-63.0-0.0","params":{"nStudents":24,"maxFlips":30,"completionMinutes":45,"basePay":8,"maxBonus":9,"perTrialBonus":0.5,"perTrialBonusThreshold":0.05,"exampleCost":0.01},"classroomParams":{"A":{"a":1,"b":4},"B":{"a":4,"b":1},"C":{"a":2,"b":8},"D":{"a":8,"b":2}},"conditions":["nonSeqFull","nonSeqPartial","seqNoFeedback","seqFeedback"],"classroomPairings":[["A","B"],["C","D"]],"coinWeights":[0.2,0.5,0.8],"subjectId":"A3G5IPGLH1IIZN","assignmentId":"3QEMNNSB2YLJVMIPVQDMJEJGQ5JD7Z","hitId":"3J94SKDEKIB2MY6CGVTNWB9X0ALD5P","url":"https://gershmanlab.com/experiments/alicia/teaching/experiment/?hitId=3J94SKDEKIB2MY6CGVTNWB9X0ALD5P&workerId=A3G5IPGLH1IIZN&assignmentId=3QEMNNSB2YLJVMIPVQDMJEJGQ5JD7Z&a=BNEQ9&tp_a=BNEQ9&b=3QEMNNSB2YLJVMIPVQDMJEJGQ5JD7Z&tp_b=3QEMNNSB2YLJVMIPVQDMJEJGQ5JD7Z&c=365799&tp_c=365799"},{"rt":6931,"stimulus":"\n            <h4 style=\"color:Orange;\">Student 9</h4>\n            <h2>The weight of your coin is <b style=\"color:Tomato;\">0.8</b>.</h2>\n            <p>In this block, you will be giving <b>two</b> sets of examples to Student 9.</p>\n                <p>You will see the student's guess after the first set of examples. You will also receive feedback at the end of the block.</p>\n            <p>To earn the highest bonus, you will have to <b>take into consideration the student's guess</b> when you choose your second set of examples.</p>","response":0,"trial_type":"html-button-response","trial_index":69,"time_elapsed":1026719,"internal_node_id":"0.0-64.0","params":{"nStudents":24,"maxFlips":30,"completionMinutes":45,"basePay":8,"maxBonus":9,"perTrialBonus":0.5,"perTrialBonusThreshold":0.05,"exampleCost":0.01},"classroomParams":{"A":{"a":1,"b":4},"B":{"a":4,"b":1},"C":{"a":2,"b":8},"D":{"a":8,"b":2}},"conditions":["nonSeqFull","nonSeqPartial","seqNoFeedback","seqFeedback"],"classroomPairings":[["A","B"],["C","D"]],"coinWeights":[0.2,0.5,0.8],"subjectId":"A3G5IPGLH1IIZN","assignmentId":"3QEMNNSB2YLJVMIPVQDMJEJGQ5JD7Z","hitId":"3J94SKDEKIB2MY6CGVTNWB9X0ALD5P","url":"https://gershmanlab.com/experiments/alicia/teaching/experiment/?hitId=3J94SKDEKIB2MY6CGVTNWB9X0ALD5P&workerId=A3G5IPGLH1IIZN&assignmentId=3QEMNNSB2YLJVMIPVQDMJEJGQ5JD7Z&a=BNEQ9&tp_a=BNEQ9&b=3QEMNNSB2YLJVMIPVQDMJEJGQ5JD7Z&tp_b=3QEMNNSB2YLJVMIPVQDMJEJGQ5JD7Z&c=365799&tp_c=365799"},{"rt":21621,"response":{"heads":"6","tails":"0"},"type":"response","condition":"seqFeedback","trueTheta":0.8,"classrooms":["C","D"],"studentTrueClassroom":"D","exampleSet":"first","trial_type":"survey-html-form","trial_index":70,"time_elapsed":1048347,"internal_node_id":"0.0-65.0-0.0","params":{"nStudents":24,"maxFlips":30,"completionMinutes":45,"basePay":8,"maxBonus":9,"perTrialBonus":0.5,"perTrialBonusThreshold":0.05,"exampleCost":0.01},"classroomParams":{"A":{"a":1,"b":4},"B":{"a":4,"b":1},"C":{"a":2,"b":8},"D":{"a":8,"b":2}},"conditions":["nonSeqFull","nonSeqPartial","seqNoFeedback","seqFeedback"],"classroomPairings":[["A","B"],["C","D"]],"coinWeights":[0.2,0.5,0.8],"subjectId":"A3G5IPGLH1IIZN","assignmentId":"3QEMNNSB2YLJVMIPVQDMJEJGQ5JD7Z","hitId":"3J94SKDEKIB2MY6CGVTNWB9X0ALD5P","url":"https://gershmanlab.com/experiments/alicia/teaching/experiment/?hitId=3J94SKDEKIB2MY6CGVTNWB9X0ALD5P&workerId=A3G5IPGLH1IIZN&assignmentId=3QEMNNSB2YLJVMIPVQDMJEJGQ5JD7Z&a=BNEQ9&tp_a=BNEQ9&b=3QEMNNSB2YLJVMIPVQDMJEJGQ5JD7Z&tp_b=3QEMNNSB2YLJVMIPVQDMJEJGQ5JD7Z&c=365799&tp_c=365799","heads":6,"tails":0,"studentIndex":8,"studentTrueHypers":{"a":8,"b":2},"studentGuess":0.875,"delta":0.07499999999999996,"totalExamples":6,"bonusSoFar":3.07},{"rt":null,"stimulus":"Sending examples to student... ","response":null,"trial_type":"html-keyboard-response","trial_index":71,"time_elapsed":1049600,"internal_node_id":"0.0-66.0","params":{"nStudents":24,"maxFlips":30,"completionMinutes":45,"basePay":8,"maxBonus":9,"perTrialBonus":0.5,"perTrialBonusThreshold":0.05,"exampleCost":0.01},"classroomParams":{"A":{"a":1,"b":4},"B":{"a":4,"b":1},"C":{"a":2,"b":8},"D":{"a":8,"b":2}},"conditions":["nonSeqFull","nonSeqPartial","seqNoFeedback","seqFeedback"],"classroomPairings":[["A","B"],["C","D"]],"coinWeights":[0.2,0.5,0.8],"subjectId":"A3G5IPGLH1IIZN","assignmentId":"3QEMNNSB2YLJVMIPVQDMJEJGQ5JD7Z","hitId":"3J94SKDEKIB2MY6CGVTNWB9X0ALD5P","url":"https://gershmanlab.com/experiments/alicia/teaching/experiment/?hitId=3J94SKDEKIB2MY6CGVTNWB9X0ALD5P&workerId=A3G5IPGLH1IIZN&assignmentId=3QEMNNSB2YLJVMIPVQDMJEJGQ5JD7Z&a=BNEQ9&tp_a=BNEQ9&b=3QEMNNSB2YLJVMIPVQDMJEJGQ5JD7Z&tp_b=3QEMNNSB2YLJVMIPVQDMJEJGQ5JD7Z&c=365799&tp_c=365799"},{"rt":null,"stimulus":"Examples sent to student! Waiting for student...","response":null,"trial_type":"html-keyboard-response","trial_index":72,"time_elapsed":1055102,"internal_node_id":"0.0-67.0","params":{"nStudents":24,"maxFlips":30,"completionMinutes":45,"basePay":8,"maxBonus":9,"perTrialBonus":0.5,"perTrialBonusThreshold":0.05,"exampleCost":0.01},"classroomParams":{"A":{"a":1,"b":4},"B":{"a":4,"b":1},"C":{"a":2,"b":8},"D":{"a":8,"b":2}},"conditions":["nonSeqFull","nonSeqPartial","seqNoFeedback","seqFeedback"],"classroomPairings":[["A","B"],["C","D"]],"coinWeights":[0.2,0.5,0.8],"subjectId":"A3G5IPGLH1IIZN","assignmentId":"3QEMNNSB2YLJVMIPVQDMJEJGQ5JD7Z","hitId":"3J94SKDEKIB2MY6CGVTNWB9X0ALD5P","url":"https://gershmanlab.com/experiments/alicia/teaching/experiment/?hitId=3J94SKDEKIB2MY6CGVTNWB9X0ALD5P&workerId=A3G5IPGLH1IIZN&assignmentId=3QEMNNSB2YLJVMIPVQDMJEJGQ5JD7Z&a=BNEQ9&tp_a=BNEQ9&b=3QEMNNSB2YLJVMIPVQDMJEJGQ5JD7Z&tp_b=3QEMNNSB2YLJVMIPVQDMJEJGQ5JD7Z&c=365799&tp_c=365799"},{"rt":11545,"stimulus":"\n                <p>Student's guess for coin weight: <b style=\"color:Tomato;\">0.88</b></p>\n                <p></b></p>\n                <p>You will now send another set of examples to your student. <b>Remember to take your student's guess into consideration so that you can earn the highest bonus possible!</b> </p>\n                <p>Press any key to continue.</p>\n                ","response":" ","trial_type":"html-keyboard-response","trial_index":73,"time_elapsed":1066650,"internal_node_id":"0.0-68.0","params":{"nStudents":24,"maxFlips":30,"completionMinutes":45,"basePay":8,"maxBonus":9,"perTrialBonus":0.5,"perTrialBonusThreshold":0.05,"exampleCost":0.01},"classroomParams":{"A":{"a":1,"b":4},"B":{"a":4,"b":1},"C":{"a":2,"b":8},"D":{"a":8,"b":2}},"conditions":["nonSeqFull","nonSeqPartial","seqNoFeedback","seqFeedback"],"classroomPairings":[["A","B"],["C","D"]],"coinWeights":[0.2,0.5,0.8],"subjectId":"A3G5IPGLH1IIZN","assignmentId":"3QEMNNSB2YLJVMIPVQDMJEJGQ5JD7Z","hitId":"3J94SKDEKIB2MY6CGVTNWB9X0ALD5P","url":"https://gershmanlab.com/experiments/alicia/teaching/experiment/?hitId=3J94SKDEKIB2MY6CGVTNWB9X0ALD5P&workerId=A3G5IPGLH1IIZN&assignmentId=3QEMNNSB2YLJVMIPVQDMJEJGQ5JD7Z&a=BNEQ9&tp_a=BNEQ9&b=3QEMNNSB2YLJVMIPVQDMJEJGQ5JD7Z&tp_b=3QEMNNSB2YLJVMIPVQDMJEJGQ5JD7Z&c=365799&tp_c=365799"},{"rt":8939,"response":{"heads":"0","tails":"2"},"type":"response","condition":"seqFeedback","trueTheta":0.8,"classrooms":["C","D"],"studentTrueClassroom":"D","exampleSet":"second","trial_type":"survey-html-form","trial_index":74,"time_elapsed":1075592,"internal_node_id":"0.0-69.0-0.0","params":{"nStudents":24,"maxFlips":30,"completionMinutes":45,"basePay":8,"maxBonus":9,"perTrialBonus":0.5,"perTrialBonusThreshold":0.05,"exampleCost":0.01},"classroomParams":{"A":{"a":1,"b":4},"B":{"a":4,"b":1},"C":{"a":2,"b":8},"D":{"a":8,"b":2}},"conditions":["nonSeqFull","nonSeqPartial","seqNoFeedback","seqFeedback"],"classroomPairings":[["A","B"],["C","D"]],"coinWeights":[0.2,0.5,0.8],"subjectId":"A3G5IPGLH1IIZN","assignmentId":"3QEMNNSB2YLJVMIPVQDMJEJGQ5JD7Z","hitId":"3J94SKDEKIB2MY6CGVTNWB9X0ALD5P","url":"https://gershmanlab.com/experiments/alicia/teaching/experiment/?hitId=3J94SKDEKIB2MY6CGVTNWB9X0ALD5P&workerId=A3G5IPGLH1IIZN&assignmentId=3QEMNNSB2YLJVMIPVQDMJEJGQ5JD7Z&a=BNEQ9&tp_a=BNEQ9&b=3QEMNNSB2YLJVMIPVQDMJEJGQ5JD7Z&tp_b=3QEMNNSB2YLJVMIPVQDMJEJGQ5JD7Z&c=365799&tp_c=365799","firstResponseHeads":6,"firstResponseTails":0,"secondResponseHeads":0,"secondResponseTails":2,"totalHeads":6,"totalTails":2,"studentIndex":8,"studentTrueHypers":{"a":8,"b":2},"studentGuess":0.7777777777777778,"delta":0.022222222222222254,"bonus":0.42,"bonusSoFar":3.49,"totalExamples":8},{"rt":null,"stimulus":"Sending examples to student... ","response":null,"trial_type":"html-keyboard-response","trial_index":75,"time_elapsed":1077346,"internal_node_id":"0.0-70.0","params":{"nStudents":24,"maxFlips":30,"completionMinutes":45,"basePay":8,"maxBonus":9,"perTrialBonus":0.5,"perTrialBonusThreshold":0.05,"exampleCost":0.01},"classroomParams":{"A":{"a":1,"b":4},"B":{"a":4,"b":1},"C":{"a":2,"b":8},"D":{"a":8,"b":2}},"conditions":["nonSeqFull","nonSeqPartial","seqNoFeedback","seqFeedback"],"classroomPairings":[["A","B"],["C","D"]],"coinWeights":[0.2,0.5,0.8],"subjectId":"A3G5IPGLH1IIZN","assignmentId":"3QEMNNSB2YLJVMIPVQDMJEJGQ5JD7Z","hitId":"3J94SKDEKIB2MY6CGVTNWB9X0ALD5P","url":"https://gershmanlab.com/experiments/alicia/teaching/experiment/?hitId=3J94SKDEKIB2MY6CGVTNWB9X0ALD5P&workerId=A3G5IPGLH1IIZN&assignmentId=3QEMNNSB2YLJVMIPVQDMJEJGQ5JD7Z&a=BNEQ9&tp_a=BNEQ9&b=3QEMNNSB2YLJVMIPVQDMJEJGQ5JD7Z&tp_b=3QEMNNSB2YLJVMIPVQDMJEJGQ5JD7Z&c=365799&tp_c=365799"},{"rt":null,"stimulus":"Examples sent to student! Waiting for student...","response":null,"trial_type":"html-keyboard-response","trial_index":76,"time_elapsed":1081349,"internal_node_id":"0.0-71.0","params":{"nStudents":24,"maxFlips":30,"completionMinutes":45,"basePay":8,"maxBonus":9,"perTrialBonus":0.5,"perTrialBonusThreshold":0.05,"exampleCost":0.01},"classroomParams":{"A":{"a":1,"b":4},"B":{"a":4,"b":1},"C":{"a":2,"b":8},"D":{"a":8,"b":2}},"conditions":["nonSeqFull","nonSeqPartial","seqNoFeedback","seqFeedback"],"classroomPairings":[["A","B"],["C","D"]],"coinWeights":[0.2,0.5,0.8],"subjectId":"A3G5IPGLH1IIZN","assignmentId":"3QEMNNSB2YLJVMIPVQDMJEJGQ5JD7Z","hitId":"3J94SKDEKIB2MY6CGVTNWB9X0ALD5P","url":"https://gershmanlab.com/experiments/alicia/teaching/experiment/?hitId=3J94SKDEKIB2MY6CGVTNWB9X0ALD5P&workerId=A3G5IPGLH1IIZN&assignmentId=3QEMNNSB2YLJVMIPVQDMJEJGQ5JD7Z&a=BNEQ9&tp_a=BNEQ9&b=3QEMNNSB2YLJVMIPVQDMJEJGQ5JD7Z&tp_b=3QEMNNSB2YLJVMIPVQDMJEJGQ5JD7Z&c=365799&tp_c=365799"},{"rt":7856,"stimulus":"\n                <p>Student 9's first guess for coin weight: <b style=\"color:Tomato\";>0.88</b></p>\n                <p>Student 9's second guess for coin weight: <b style=\"color:Tomato\";>0.78</b></p>\n                <p>You received a bonus of <b>$0.42</b> based on the student's second guess.</p>\n                <p>Total bonus so far: <b>$3.49</b></p>\n                <p>Press any key to continue.</p>\n                ","response":" ","trial_type":"html-keyboard-response","trial_index":77,"time_elapsed":1089208,"internal_node_id":"0.0-72.0","params":{"nStudents":24,"maxFlips":30,"completionMinutes":45,"basePay":8,"maxBonus":9,"perTrialBonus":0.5,"perTrialBonusThreshold":0.05,"exampleCost":0.01},"classroomParams":{"A":{"a":1,"b":4},"B":{"a":4,"b":1},"C":{"a":2,"b":8},"D":{"a":8,"b":2}},"conditions":["nonSeqFull","nonSeqPartial","seqNoFeedback","seqFeedback"],"classroomPairings":[["A","B"],["C","D"]],"coinWeights":[0.2,0.5,0.8],"subjectId":"A3G5IPGLH1IIZN","assignmentId":"3QEMNNSB2YLJVMIPVQDMJEJGQ5JD7Z","hitId":"3J94SKDEKIB2MY6CGVTNWB9X0ALD5P","url":"https://gershmanlab.com/experiments/alicia/teaching/experiment/?hitId=3J94SKDEKIB2MY6CGVTNWB9X0ALD5P&workerId=A3G5IPGLH1IIZN&assignmentId=3QEMNNSB2YLJVMIPVQDMJEJGQ5JD7Z&a=BNEQ9&tp_a=BNEQ9&b=3QEMNNSB2YLJVMIPVQDMJEJGQ5JD7Z&tp_b=3QEMNNSB2YLJVMIPVQDMJEJGQ5JD7Z&c=365799&tp_c=365799"},{"rt":null,"stimulus":"<div style=\"font-size:60px;\">Next student</div>","response":null,"trial_type":"html-keyboard-response","trial_index":78,"time_elapsed":1091460,"internal_node_id":"0.0-73.0-0.0","params":{"nStudents":24,"maxFlips":30,"completionMinutes":45,"basePay":8,"maxBonus":9,"perTrialBonus":0.5,"perTrialBonusThreshold":0.05,"exampleCost":0.01},"classroomParams":{"A":{"a":1,"b":4},"B":{"a":4,"b":1},"C":{"a":2,"b":8},"D":{"a":8,"b":2}},"conditions":["nonSeqFull","nonSeqPartial","seqNoFeedback","seqFeedback"],"classroomPairings":[["A","B"],["C","D"]],"coinWeights":[0.2,0.5,0.8],"subjectId":"A3G5IPGLH1IIZN","assignmentId":"3QEMNNSB2YLJVMIPVQDMJEJGQ5JD7Z","hitId":"3J94SKDEKIB2MY6CGVTNWB9X0ALD5P","url":"https://gershmanlab.com/experiments/alicia/teaching/experiment/?hitId=3J94SKDEKIB2MY6CGVTNWB9X0ALD5P&workerId=A3G5IPGLH1IIZN&assignmentId=3QEMNNSB2YLJVMIPVQDMJEJGQ5JD7Z&a=BNEQ9&tp_a=BNEQ9&b=3QEMNNSB2YLJVMIPVQDMJEJGQ5JD7Z&tp_b=3QEMNNSB2YLJVMIPVQDMJEJGQ5JD7Z&c=365799&tp_c=365799"},{"rt":11168,"stimulus":"\n            <h4 style=\"color:Orange;\">Student 10</h4>\n            <h2>The weight of your coin is <b style=\"color:Tomato;\">0.2</b>.</h2>\n            <p>In this block, you will be giving <b>two</b> sets of examples to Student 10.</p>\n                <p>You will see the student's guess after the first set of examples. You will also receive feedback at the end of the block.</p>\n            <p>To earn the highest bonus, you will have to <b>take into consideration the student's guess</b> when you choose your second set of examples.</p>","response":0,"trial_type":"html-button-response","trial_index":79,"time_elapsed":1102630,"internal_node_id":"0.0-74.0","params":{"nStudents":24,"maxFlips":30,"completionMinutes":45,"basePay":8,"maxBonus":9,"perTrialBonus":0.5,"perTrialBonusThreshold":0.05,"exampleCost":0.01},"classroomParams":{"A":{"a":1,"b":4},"B":{"a":4,"b":1},"C":{"a":2,"b":8},"D":{"a":8,"b":2}},"conditions":["nonSeqFull","nonSeqPartial","seqNoFeedback","seqFeedback"],"classroomPairings":[["A","B"],["C","D"]],"coinWeights":[0.2,0.5,0.8],"subjectId":"A3G5IPGLH1IIZN","assignmentId":"3QEMNNSB2YLJVMIPVQDMJEJGQ5JD7Z","hitId":"3J94SKDEKIB2MY6CGVTNWB9X0ALD5P","url":"https://gershmanlab.com/experiments/alicia/teaching/experiment/?hitId=3J94SKDEKIB2MY6CGVTNWB9X0ALD5P&workerId=A3G5IPGLH1IIZN&assignmentId=3QEMNNSB2YLJVMIPVQDMJEJGQ5JD7Z&a=BNEQ9&tp_a=BNEQ9&b=3QEMNNSB2YLJVMIPVQDMJEJGQ5JD7Z&tp_b=3QEMNNSB2YLJVMIPVQDMJEJGQ5JD7Z&c=365799&tp_c=365799"},{"rt":19363,"response":{"heads":"0","tails":"6"},"type":"response","condition":"seqFeedback","trueTheta":0.2,"classrooms":["C","D"],"studentTrueClassroom":"D","exampleSet":"first","trial_type":"survey-html-form","trial_index":80,"time_elapsed":1122000,"internal_node_id":"0.0-75.0-0.0","params":{"nStudents":24,"maxFlips":30,"completionMinutes":45,"basePay":8,"maxBonus":9,"perTrialBonus":0.5,"perTrialBonusThreshold":0.05,"exampleCost":0.01},"classroomParams":{"A":{"a":1,"b":4},"B":{"a":4,"b":1},"C":{"a":2,"b":8},"D":{"a":8,"b":2}},"conditions":["nonSeqFull","nonSeqPartial","seqNoFeedback","seqFeedback"],"classroomPairings":[["A","B"],["C","D"]],"coinWeights":[0.2,0.5,0.8],"subjectId":"A3G5IPGLH1IIZN","assignmentId":"3QEMNNSB2YLJVMIPVQDMJEJGQ5JD7Z","hitId":"3J94SKDEKIB2MY6CGVTNWB9X0ALD5P","url":"https://gershmanlab.com/experiments/alicia/teaching/experiment/?hitId=3J94SKDEKIB2MY6CGVTNWB9X0ALD5P&workerId=A3G5IPGLH1IIZN&assignmentId=3QEMNNSB2YLJVMIPVQDMJEJGQ5JD7Z&a=BNEQ9&tp_a=BNEQ9&b=3QEMNNSB2YLJVMIPVQDMJEJGQ5JD7Z&tp_b=3QEMNNSB2YLJVMIPVQDMJEJGQ5JD7Z&c=365799&tp_c=365799","heads":0,"tails":6,"studentIndex":9,"studentTrueHypers":{"a":8,"b":2},"studentGuess":0.5,"delta":0.3,"totalExamples":6,"bonusSoFar":3.49},{"rt":null,"stimulus":"Sending examples to student... ","response":null,"trial_type":"html-keyboard-response","trial_index":81,"time_elapsed":1123753,"internal_node_id":"0.0-76.0","params":{"nStudents":24,"maxFlips":30,"completionMinutes":45,"basePay":8,"maxBonus":9,"perTrialBonus":0.5,"perTrialBonusThreshold":0.05,"exampleCost":0.01},"classroomParams":{"A":{"a":1,"b":4},"B":{"a":4,"b":1},"C":{"a":2,"b":8},"D":{"a":8,"b":2}},"conditions":["nonSeqFull","nonSeqPartial","seqNoFeedback","seqFeedback"],"classroomPairings":[["A","B"],["C","D"]],"coinWeights":[0.2,0.5,0.8],"subjectId":"A3G5IPGLH1IIZN","assignmentId":"3QEMNNSB2YLJVMIPVQDMJEJGQ5JD7Z","hitId":"3J94SKDEKIB2MY6CGVTNWB9X0ALD5P","url":"https://gershmanlab.com/experiments/alicia/teaching/experiment/?hitId=3J94SKDEKIB2MY6CGVTNWB9X0ALD5P&workerId=A3G5IPGLH1IIZN&assignmentId=3QEMNNSB2YLJVMIPVQDMJEJGQ5JD7Z&a=BNEQ9&tp_a=BNEQ9&b=3QEMNNSB2YLJVMIPVQDMJEJGQ5JD7Z&tp_b=3QEMNNSB2YLJVMIPVQDMJEJGQ5JD7Z&c=365799&tp_c=365799"},{"rt":null,"stimulus":"Examples sent to student! Waiting for student...","response":null,"trial_type":"html-keyboard-response","trial_index":82,"time_elapsed":1128756,"internal_node_id":"0.0-77.0","params":{"nStudents":24,"maxFlips":30,"completionMinutes":45,"basePay":8,"maxBonus":9,"perTrialBonus":0.5,"perTrialBonusThreshold":0.05,"exampleCost":0.01},"classroomParams":{"A":{"a":1,"b":4},"B":{"a":4,"b":1},"C":{"a":2,"b":8},"D":{"a":8,"b":2}},"conditions":["nonSeqFull","nonSeqPartial","seqNoFeedback","seqFeedback"],"classroomPairings":[["A","B"],["C","D"]],"coinWeights":[0.2,0.5,0.8],"subjectId":"A3G5IPGLH1IIZN","assignmentId":"3QEMNNSB2YLJVMIPVQDMJEJGQ5JD7Z","hitId":"3J94SKDEKIB2MY6CGVTNWB9X0ALD5P","url":"https://gershmanlab.com/experiments/alicia/teaching/experiment/?hitId=3J94SKDEKIB2MY6CGVTNWB9X0ALD5P&workerId=A3G5IPGLH1IIZN&assignmentId=3QEMNNSB2YLJVMIPVQDMJEJGQ5JD7Z&a=BNEQ9&tp_a=BNEQ9&b=3QEMNNSB2YLJVMIPVQDMJEJGQ5JD7Z&tp_b=3QEMNNSB2YLJVMIPVQDMJEJGQ5JD7Z&c=365799&tp_c=365799"},{"rt":5489,"stimulus":"\n                <p>Student's guess for coin weight: <b style=\"color:Tomato;\">0.50</b></p>\n                <p></b></p>\n                <p>You will now send another set of examples to your student. <b>Remember to take your student's guess into consideration so that you can earn the highest bonus possible!</b> </p>\n                <p>Press any key to continue.</p>\n                ","response":" ","trial_type":"html-keyboard-response","trial_index":83,"time_elapsed":1134247,"internal_node_id":"0.0-78.0","params":{"nStudents":24,"maxFlips":30,"completionMinutes":45,"basePay":8,"maxBonus":9,"perTrialBonus":0.5,"perTrialBonusThreshold":0.05,"exampleCost":0.01},"classroomParams":{"A":{"a":1,"b":4},"B":{"a":4,"b":1},"C":{"a":2,"b":8},"D":{"a":8,"b":2}},"conditions":["nonSeqFull","nonSeqPartial","seqNoFeedback","seqFeedback"],"classroomPairings":[["A","B"],["C","D"]],"coinWeights":[0.2,0.5,0.8],"subjectId":"A3G5IPGLH1IIZN","assignmentId":"3QEMNNSB2YLJVMIPVQDMJEJGQ5JD7Z","hitId":"3J94SKDEKIB2MY6CGVTNWB9X0ALD5P","url":"https://gershmanlab.com/experiments/alicia/teaching/experiment/?hitId=3J94SKDEKIB2MY6CGVTNWB9X0ALD5P&workerId=A3G5IPGLH1IIZN&assignmentId=3QEMNNSB2YLJVMIPVQDMJEJGQ5JD7Z&a=BNEQ9&tp_a=BNEQ9&b=3QEMNNSB2YLJVMIPVQDMJEJGQ5JD7Z&tp_b=3QEMNNSB2YLJVMIPVQDMJEJGQ5JD7Z&c=365799&tp_c=365799"},{"rt":24814,"response":{"heads":"0","tails":"10"},"type":"response","condition":"seqFeedback","trueTheta":0.2,"classrooms":["C","D"],"studentTrueClassroom":"D","exampleSet":"second","trial_type":"survey-html-form","trial_index":84,"time_elapsed":1159064,"internal_node_id":"0.0-79.0-0.0","params":{"nStudents":24,"maxFlips":30,"completionMinutes":45,"basePay":8,"maxBonus":9,"perTrialBonus":0.5,"perTrialBonusThreshold":0.05,"exampleCost":0.01},"classroomParams":{"A":{"a":1,"b":4},"B":{"a":4,"b":1},"C":{"a":2,"b":8},"D":{"a":8,"b":2}},"conditions":["nonSeqFull","nonSeqPartial","seqNoFeedback","seqFeedback"],"classroomPairings":[["A","B"],["C","D"]],"coinWeights":[0.2,0.5,0.8],"subjectId":"A3G5IPGLH1IIZN","assignmentId":"3QEMNNSB2YLJVMIPVQDMJEJGQ5JD7Z","hitId":"3J94SKDEKIB2MY6CGVTNWB9X0ALD5P","url":"https://gershmanlab.com/experiments/alicia/teaching/experiment/?hitId=3J9