[{"rt":5138,"stimulus":"Welcome to the experiment. Press any key to begin.","response":"h","trial_type":"html-keyboard-response","trial_index":0,"time_elapsed":5147,"internal_node_id":"0.0-0.0","params":{"nStudents":24,"maxFlips":30,"completionMinutes":45,"basePay":8,"maxBonus":9,"perTrialBonus":0.5,"perTrialBonusThreshold":0.05,"exampleCost":0.01},"classroomParams":{"A":{"a":1,"b":4},"B":{"a":4,"b":1},"C":{"a":2,"b":8},"D":{"a":8,"b":2}},"conditions":["nonSeqFull","nonSeqPartial","seqNoFeedback","seqFeedback"],"classroomPairings":[["A","B"],["C","D"]],"coinWeights":[0.2,0.5,0.8],"subjectId":"A3I40B0FATY8VH","assignmentId":"3RYC5T2D74F2225U9D2NOPR550GRPQ","hitId":"3E9VAUV7BW02QFDK7N7IH7ZKACRYAN","url":"https://gershmanlab.com/experiments/alicia/teaching/experiment/?hitId=3E9VAUV7BW02QFDK7N7IH7ZKACRYAN&workerId=A3I40B0FATY8VH&assignmentId=3RYC5T2D74F2225U9D2NOPR550GRPQ&a=D5YR9&tp_a=D5YR9&b=3RYC5T2D74F2225U9D2NOPR550GRPQ&tp_b=3RYC5T2D74F2225U9D2NOPR550GRPQ&c=365799&tp_c=365799"},{"rt":4816,"stimulus":"\n        <h3>Please read this consent agreement carefully before deciding whether to participate in this experiment.</h3>\n        <p><b>Purpose of the research:</b> To examine how people teach effectively.</p>\n        <p><b>What you will do in this research:</b> You will teach students the weights of different coins.</p>\n        <p><b>Time required:</b> This experiment will take 45 minutes to complete.</p>\n        <p><b>Risks:</b> There are no anticipated risks associated with participating in this study.             The effects of participating should be comparable to those you would experience from viewing a computer monitor             and using a mouse and keyboard for the duration of the experiment.</p>\n        <p><b>Benefits:</b> The study provides important information about the nature of teaching.</p>\n        <p><b>Compensation:</b> You will receive <b>$8</b> for completing the experiment and a performance bonus of up to <b>$9</b>.</p>\n        <p><b>Confidentiality:</b> Your participation in this study will remain confidential.             No personally identifiable information will be associated with your data.             Your de-identified data may be shared with other researchers and used in future projects.</p>\n        <p><b>Participation and withdrawal:</b> Your participation in this study is completely voluntary and             you may refuse to participate or you may choose to withdraw at any time without penalty or loss of\n            benefits to which you are otherwise entitled.</p>\n        <p><b>How to contact the researcher:</b> If you have questions or concerns about your participation            or payment, or want to request a summary of research findings, please contact\n            Alicia Chen, aliciachen@college.harvard.edu.</p>\n        <p><b>Whom to contact about your rights in this research:</b> For questions, concerns, suggestions,             or complaints that have not been or cannot be addressed by the researcher, or to report             research-related harm, please contact the Committee on the Use of Human Subjects in Research at Harvard University,             1414 Massachusetts Avenue, Second Floor, Cambridge, MA 02138. Phone: 617-496-2847. Email: cuhs@fas.harvard.edu.</p>\n        ","response":0,"trial_type":"html-button-response","trial_index":1,"time_elapsed":9964,"internal_node_id":"0.0-1.0","params":{"nStudents":24,"maxFlips":30,"completionMinutes":45,"basePay":8,"maxBonus":9,"perTrialBonus":0.5,"perTrialBonusThreshold":0.05,"exampleCost":0.01},"classroomParams":{"A":{"a":1,"b":4},"B":{"a":4,"b":1},"C":{"a":2,"b":8},"D":{"a":8,"b":2}},"conditions":["nonSeqFull","nonSeqPartial","seqNoFeedback","seqFeedback"],"classroomPairings":[["A","B"],["C","D"]],"coinWeights":[0.2,0.5,0.8],"subjectId":"A3I40B0FATY8VH","assignmentId":"3RYC5T2D74F2225U9D2NOPR550GRPQ","hitId":"3E9VAUV7BW02QFDK7N7IH7ZKACRYAN","url":"https://gershmanlab.com/experiments/alicia/teaching/experiment/?hitId=3E9VAUV7BW02QFDK7N7IH7ZKACRYAN&workerId=A3I40B0FATY8VH&assignmentId=3RYC5T2D74F2225U9D2NOPR550GRPQ&a=D5YR9&tp_a=D5YR9&b=3RYC5T2D74F2225U9D2NOPR550GRPQ&tp_b=3RYC5T2D74F2225U9D2NOPR550GRPQ&c=365799&tp_c=365799"},{"view_history":[{"page_index":0,"viewing_time":6225},{"page_index":1,"viewing_time":4015},{"page_index":2,"viewing_time":38316},{"page_index":3,"viewing_time":33345},{"page_index":4,"viewing_time":12622},{"page_index":5,"viewing_time":28718},{"page_index":6,"viewing_time":37338}],"rt":160579,"trial_type":"instructions","trial_index":2,"time_elapsed":170543,"internal_node_id":"0.0-2.0-0.0","params":{"nStudents":24,"maxFlips":30,"completionMinutes":45,"basePay":8,"maxBonus":9,"perTrialBonus":0.5,"perTrialBonusThreshold":0.05,"exampleCost":0.01},"classroomParams":{"A":{"a":1,"b":4},"B":{"a":4,"b":1},"C":{"a":2,"b":8},"D":{"a":8,"b":2}},"conditions":["nonSeqFull","nonSeqPartial","seqNoFeedback","seqFeedback"],"classroomPairings":[["A","B"],["C","D"]],"coinWeights":[0.2,0.5,0.8],"subjectId":"A3I40B0FATY8VH","assignmentId":"3RYC5T2D74F2225U9D2NOPR550GRPQ","hitId":"3E9VAUV7BW02QFDK7N7IH7ZKACRYAN","url":"https://gershmanlab.com/experiments/alicia/teaching/experiment/?hitId=3E9VAUV7BW02QFDK7N7IH7ZKACRYAN&workerId=A3I40B0FATY8VH&assignmentId=3RYC5T2D74F2225U9D2NOPR550GRPQ&a=D5YR9&tp_a=D5YR9&b=3RYC5T2D74F2225U9D2NOPR550GRPQ&tp_b=3RYC5T2D74F2225U9D2NOPR550GRPQ&c=365799&tp_c=365799"},{"rt":48708,"response":{"Q0":"Students in different classrooms will have seen a different number of heads and tails before seeing the examples you select for them.","Q1":"By <b>considering the student's classroom information</b> so that I can teach efficiently and accurately/helpfully at the same time (because each example I give to the student costs money!).","Q2":"The coin lands heads 90% of the time.","Q3":"No, I will teach a <b>new</b> student each time.","Q4":"The students are also on the same alien planet as you, where coins can be unfair.","Q5":"Based on the student's second (and final) guess."},"question_order":[1,2,3,5,0,4],"trial_type":"survey-multi-choice","trial_index":3,"time_elapsed":219253,"internal_node_id":"0.0-2.0-1.0","params":{"nStudents":24,"maxFlips":30,"completionMinutes":45,"basePay":8,"maxBonus":9,"perTrialBonus":0.5,"perTrialBonusThreshold":0.05,"exampleCost":0.01},"classroomParams":{"A":{"a":1,"b":4},"B":{"a":4,"b":1},"C":{"a":2,"b":8},"D":{"a":8,"b":2}},"conditions":["nonSeqFull","nonSeqPartial","seqNoFeedback","seqFeedback"],"classroomPairings":[["A","B"],["C","D"]],"coinWeights":[0.2,0.5,0.8],"subjectId":"A3I40B0FATY8VH","assignmentId":"3RYC5T2D74F2225U9D2NOPR550GRPQ","hitId":"3E9VAUV7BW02QFDK7N7IH7ZKACRYAN","url":"https://gershmanlab.com/experiments/alicia/teaching/experiment/?hitId=3E9VAUV7BW02QFDK7N7IH7ZKACRYAN&workerId=A3I40B0FATY8VH&assignmentId=3RYC5T2D74F2225U9D2NOPR550GRPQ&a=D5YR9&tp_a=D5YR9&b=3RYC5T2D74F2225U9D2NOPR550GRPQ&tp_b=3RYC5T2D74F2225U9D2NOPR550GRPQ&c=365799&tp_c=365799","pass":true},{"rt":null,"stimulus":"<div style=\"font-size:30px;\">Congrats on passing the comprehension quiz! The experiment will begin in a few seconds.</div>","response":null,"trial_type":"html-keyboard-response","trial_index":4,"time_elapsed":222256,"internal_node_id":"0.0-3.0","params":{"nStudents":24,"maxFlips":30,"completionMinutes":45,"basePay":8,"maxBonus":9,"perTrialBonus":0.5,"perTrialBonusThreshold":0.05,"exampleCost":0.01},"classroomParams":{"A":{"a":1,"b":4},"B":{"a":4,"b":1},"C":{"a":2,"b":8},"D":{"a":8,"b":2}},"conditions":["nonSeqFull","nonSeqPartial","seqNoFeedback","seqFeedback"],"classroomPairings":[["A","B"],["C","D"]],"coinWeights":[0.2,0.5,0.8],"subjectId":"A3I40B0FATY8VH","assignmentId":"3RYC5T2D74F2225U9D2NOPR550GRPQ","hitId":"3E9VAUV7BW02QFDK7N7IH7ZKACRYAN","url":"https://gershmanlab.com/experiments/alicia/teaching/experiment/?hitId=3E9VAUV7BW02QFDK7N7IH7ZKACRYAN&workerId=A3I40B0FATY8VH&assignmentId=3RYC5T2D74F2225U9D2NOPR550GRPQ&a=D5YR9&tp_a=D5YR9&b=3RYC5T2D74F2225U9D2NOPR550GRPQ&tp_b=3RYC5T2D74F2225U9D2NOPR550GRPQ&c=365799&tp_c=365799"},{"rt":null,"stimulus":"<div style=\"font-size:50px;\">First student</div>","response":null,"trial_type":"html-keyboard-response","trial_index":5,"time_elapsed":225257,"internal_node_id":"0.0-4.0","params":{"nStudents":24,"maxFlips":30,"completionMinutes":45,"basePay":8,"maxBonus":9,"perTrialBonus":0.5,"perTrialBonusThreshold":0.05,"exampleCost":0.01},"classroomParams":{"A":{"a":1,"b":4},"B":{"a":4,"b":1},"C":{"a":2,"b":8},"D":{"a":8,"b":2}},"conditions":["nonSeqFull","nonSeqPartial","seqNoFeedback","seqFeedback"],"classroomPairings":[["A","B"],["C","D"]],"coinWeights":[0.2,0.5,0.8],"subjectId":"A3I40B0FATY8VH","assignmentId":"3RYC5T2D74F2225U9D2NOPR550GRPQ","hitId":"3E9VAUV7BW02QFDK7N7IH7ZKACRYAN","url":"https://gershmanlab.com/experiments/alicia/teaching/experiment/?hitId=3E9VAUV7BW02QFDK7N7IH7ZKACRYAN&workerId=A3I40B0FATY8VH&assignmentId=3RYC5T2D74F2225U9D2NOPR550GRPQ&a=D5YR9&tp_a=D5YR9&b=3RYC5T2D74F2225U9D2NOPR550GRPQ&tp_b=3RYC5T2D74F2225U9D2NOPR550GRPQ&c=365799&tp_c=365799"},{"rt":9161,"stimulus":"\n            <h4 style=\"color:Orange;\">Student 1</h4>\n            <h2>The weight of your coin is <b style=\"color:Tomato;\">0.2</b>.</h2>\n            <p>In this block, you will be giving <b>one</b> set of examples to Student 1.</p>\n                <p>You will receive feedback at the end of the block.</p>\n            <p></p>","response":0,"trial_type":"html-button-response","trial_index":6,"time_elapsed":234419,"internal_node_id":"0.0-5.0","params":{"nStudents":24,"maxFlips":30,"completionMinutes":45,"basePay":8,"maxBonus":9,"perTrialBonus":0.5,"perTrialBonusThreshold":0.05,"exampleCost":0.01},"classroomParams":{"A":{"a":1,"b":4},"B":{"a":4,"b":1},"C":{"a":2,"b":8},"D":{"a":8,"b":2}},"conditions":["nonSeqFull","nonSeqPartial","seqNoFeedback","seqFeedback"],"classroomPairings":[["A","B"],["C","D"]],"coinWeights":[0.2,0.5,0.8],"subjectId":"A3I40B0FATY8VH","assignmentId":"3RYC5T2D74F2225U9D2NOPR550GRPQ","hitId":"3E9VAUV7BW02QFDK7N7IH7ZKACRYAN","url":"https://gershmanlab.com/experiments/alicia/teaching/experiment/?hitId=3E9VAUV7BW02QFDK7N7IH7ZKACRYAN&workerId=A3I40B0FATY8VH&assignmentId=3RYC5T2D74F2225U9D2NOPR550GRPQ&a=D5YR9&tp_a=D5YR9&b=3RYC5T2D74F2225U9D2NOPR550GRPQ&tp_b=3RYC5T2D74F2225U9D2NOPR550GRPQ&c=365799&tp_c=365799"},{"rt":24280,"response":{"heads":"1","tails":"4"},"type":"response","condition":"nonSeqFull","trueTheta":0.2,"classrooms":["A","B"],"studentTrueClassroom":"B","exampleSet":"first","trial_type":"survey-html-form","trial_index":7,"time_elapsed":258699,"internal_node_id":"0.0-6.0-0.0","params":{"nStudents":24,"maxFlips":30,"completionMinutes":45,"basePay":8,"maxBonus":9,"perTrialBonus":0.5,"perTrialBonusThreshold":0.05,"exampleCost":0.01},"classroomParams":{"A":{"a":1,"b":4},"B":{"a":4,"b":1},"C":{"a":2,"b":8},"D":{"a":8,"b":2}},"conditions":["nonSeqFull","nonSeqPartial","seqNoFeedback","seqFeedback"],"classroomPairings":[["A","B"],["C","D"]],"coinWeights":[0.2,0.5,0.8],"subjectId":"A3I40B0FATY8VH","assignmentId":"3RYC5T2D74F2225U9D2NOPR550GRPQ","hitId":"3E9VAUV7BW02QFDK7N7IH7ZKACRYAN","url":"https://gershmanlab.com/experiments/alicia/teaching/experiment/?hitId=3E9VAUV7BW02QFDK7N7IH7ZKACRYAN&workerId=A3I40B0FATY8VH&assignmentId=3RYC5T2D74F2225U9D2NOPR550GRPQ&a=D5YR9&tp_a=D5YR9&b=3RYC5T2D74F2225U9D2NOPR550GRPQ&tp_b=3RYC5T2D74F2225U9D2NOPR550GRPQ&c=365799&tp_c=365799","heads":1,"tails":4,"studentIndex":0,"studentTrueHypers":{"a":4,"b":1},"studentGuess":0.5,"delta":0.3,"totalExamples":5,"bonus":0,"bonusSoFar":0},{"rt":null,"stimulus":"Sending examples to student... ","response":null,"trial_type":"html-keyboard-response","trial_index":8,"time_elapsed":260701,"internal_node_id":"0.0-7.0","params":{"nStudents":24,"maxFlips":30,"completionMinutes":45,"basePay":8,"maxBonus":9,"perTrialBonus":0.5,"perTrialBonusThreshold":0.05,"exampleCost":0.01},"classroomParams":{"A":{"a":1,"b":4},"B":{"a":4,"b":1},"C":{"a":2,"b":8},"D":{"a":8,"b":2}},"conditions":["nonSeqFull","nonSeqPartial","seqNoFeedback","seqFeedback"],"classroomPairings":[["A","B"],["C","D"]],"coinWeights":[0.2,0.5,0.8],"subjectId":"A3I40B0FATY8VH","assignmentId":"3RYC5T2D74F2225U9D2NOPR550GRPQ","hitId":"3E9VAUV7BW02QFDK7N7IH7ZKACRYAN","url":"https://gershmanlab.com/experiments/alicia/teaching/experiment/?hitId=3E9VAUV7BW02QFDK7N7IH7ZKACRYAN&workerId=A3I40B0FATY8VH&assignmentId=3RYC5T2D74F2225U9D2NOPR550GRPQ&a=D5YR9&tp_a=D5YR9&b=3RYC5T2D74F2225U9D2NOPR550GRPQ&tp_b=3RYC5T2D74F2225U9D2NOPR550GRPQ&c=365799&tp_c=365799"},{"rt":null,"stimulus":"Examples sent to student! Waiting for student...","response":null,"trial_type":"html-keyboard-response","trial_index":9,"time_elapsed":266703,"internal_node_id":"0.0-8.0","params":{"nStudents":24,"maxFlips":30,"completionMinutes":45,"basePay":8,"maxBonus":9,"perTrialBonus":0.5,"perTrialBonusThreshold":0.05,"exampleCost":0.01},"classroomParams":{"A":{"a":1,"b":4},"B":{"a":4,"b":1},"C":{"a":2,"b":8},"D":{"a":8,"b":2}},"conditions":["nonSeqFull","nonSeqPartial","seqNoFeedback","seqFeedback"],"classroomPairings":[["A","B"],["C","D"]],"coinWeights":[0.2,0.5,0.8],"subjectId":"A3I40B0FATY8VH","assignmentId":"3RYC5T2D74F2225U9D2NOPR550GRPQ","hitId":"3E9VAUV7BW02QFDK7N7IH7ZKACRYAN","url":"https://gershmanlab.com/experiments/alicia/teaching/experiment/?hitId=3E9VAUV7BW02QFDK7N7IH7ZKACRYAN&workerId=A3I40B0FATY8VH&assignmentId=3RYC5T2D74F2225U9D2NOPR550GRPQ&a=D5YR9&tp_a=D5YR9&b=3RYC5T2D74F2225U9D2NOPR550GRPQ&tp_b=3RYC5T2D74F2225U9D2NOPR550GRPQ&c=365799&tp_c=365799"},{"rt":4507,"stimulus":"\n                <p>Student's guess for coin weight: <b style=\"color:Tomato;\">0.50</b></p>\n                <p>You received a bonus of <b>$0</b>. Total bonus so far: <b>$0.00</b></b></p>\n                <p></p>\n                <p>Press any key to continue.</p>\n                ","response":"5","trial_type":"html-keyboard-response","trial_index":10,"time_elapsed":271211,"internal_node_id":"0.0-9.0","params":{"nStudents":24,"maxFlips":30,"completionMinutes":45,"basePay":8,"maxBonus":9,"perTrialBonus":0.5,"perTrialBonusThreshold":0.05,"exampleCost":0.01},"classroomParams":{"A":{"a":1,"b":4},"B":{"a":4,"b":1},"C":{"a":2,"b":8},"D":{"a":8,"b":2}},"conditions":["nonSeqFull","nonSeqPartial","seqNoFeedback","seqFeedback"],"classroomPairings":[["A","B"],["C","D"]],"coinWeights":[0.2,0.5,0.8],"subjectId":"A3I40B0FATY8VH","assignmentId":"3RYC5T2D74F2225U9D2NOPR550GRPQ","hitId":"3E9VAUV7BW02QFDK7N7IH7ZKACRYAN","url":"https://gershmanlab.com/experiments/alicia/teaching/experiment/?hitId=3E9VAUV7BW02QFDK7N7IH7ZKACRYAN&workerId=A3I40B0FATY8VH&assignmentId=3RYC5T2D74F2225U9D2NOPR550GRPQ&a=D5YR9&tp_a=D5YR9&b=3RYC5T2D74F2225U9D2NOPR550GRPQ&tp_b=3RYC5T2D74F2225U9D2NOPR550GRPQ&c=365799&tp_c=365799"},{"rt":null,"stimulus":"<div style=\"font-size:60px;\">Next student</div>","response":null,"trial_type":"html-keyboard-response","trial_index":11,"time_elapsed":273213,"internal_node_id":"0.0-10.0-0.0","params":{"nStudents":24,"maxFlips":30,"completionMinutes":45,"basePay":8,"maxBonus":9,"perTrialBonus":0.5,"perTrialBonusThreshold":0.05,"exampleCost":0.01},"classroomParams":{"A":{"a":1,"b":4},"B":{"a":4,"b":1},"C":{"a":2,"b":8},"D":{"a":8,"b":2}},"conditions":["nonSeqFull","nonSeqPartial","seqNoFeedback","seqFeedback"],"classroomPairings":[["A","B"],["C","D"]],"coinWeights":[0.2,0.5,0.8],"subjectId":"A3I40B0FATY8VH","assignmentId":"3RYC5T2D74F2225U9D2NOPR550GRPQ","hitId":"3E9VAUV7BW02QFDK7N7IH7ZKACRYAN","url":"https://gershmanlab.com/experiments/alicia/teaching/experiment/?hitId=3E9VAUV7BW02QFDK7N7IH7ZKACRYAN&workerId=A3I40B0FATY8VH&assignmentId=3RYC5T2D74F2225U9D2NOPR550GRPQ&a=D5YR9&tp_a=D5YR9&b=3RYC5T2D74F2225U9D2NOPR550GRPQ&tp_b=3RYC5T2D74F2225U9D2NOPR550GRPQ&c=365799&tp_c=365799"},{"rt":2877,"stimulus":"\n            <h4 style=\"color:Orange;\">Student 2</h4>\n            <h2>The weight of your coin is <b style=\"color:Tomato;\">0.8</b>.</h2>\n            <p>In this block, you will be giving <b>two</b> sets of examples to Student 2.</p>\n                <p>You will receive feedback at the end of the block.</p>\n            <p></p>","response":0,"trial_type":"html-button-response","trial_index":12,"time_elapsed":276091,"internal_node_id":"0.0-11.0","params":{"nStudents":24,"maxFlips":30,"completionMinutes":45,"basePay":8,"maxBonus":9,"perTrialBonus":0.5,"perTrialBonusThreshold":0.05,"exampleCost":0.01},"classroomParams":{"A":{"a":1,"b":4},"B":{"a":4,"b":1},"C":{"a":2,"b":8},"D":{"a":8,"b":2}},"conditions":["nonSeqFull","nonSeqPartial","seqNoFeedback","seqFeedback"],"classroomPairings":[["A","B"],["C","D"]],"coinWeights":[0.2,0.5,0.8],"subjectId":"A3I40B0FATY8VH","assignmentId":"3RYC5T2D74F2225U9D2NOPR550GRPQ","hitId":"3E9VAUV7BW02QFDK7N7IH7ZKACRYAN","url":"https://gershmanlab.com/experiments/alicia/teaching/experiment/?hitId=3E9VAUV7BW02QFDK7N7IH7ZKACRYAN&workerId=A3I40B0FATY8VH&assignmentId=3RYC5T2D74F2225U9D2NOPR550GRPQ&a=D5YR9&tp_a=D5YR9&b=3RYC5T2D74F2225U9D2NOPR550GRPQ&tp_b=3RYC5T2D74F2225U9D2NOPR550GRPQ&c=365799&tp_c=365799"},{"rt":17934,"response":{"heads":"10","tails":"0"},"type":"response","condition":"seqNoFeedback","trueTheta":0.8,"classrooms":["C","D"],"studentTrueClassroom":"D","exampleSet":"first","trial_type":"survey-html-form","trial_index":13,"time_elapsed":294025,"internal_node_id":"0.0-12.0-0.0","params":{"nStudents":24,"maxFlips":30,"completionMinutes":45,"basePay":8,"maxBonus":9,"perTrialBonus":0.5,"perTrialBonusThreshold":0.05,"exampleCost":0.01},"classroomParams":{"A":{"a":1,"b":4},"B":{"a":4,"b":1},"C":{"a":2,"b":8},"D":{"a":8,"b":2}},"conditions":["nonSeqFull","nonSeqPartial","seqNoFeedback","seqFeedback"],"classroomPairings":[["A","B"],["C","D"]],"coinWeights":[0.2,0.5,0.8],"subjectId":"A3I40B0FATY8VH","assignmentId":"3RYC5T2D74F2225U9D2NOPR550GRPQ","hitId":"3E9VAUV7BW02QFDK7N7IH7ZKACRYAN","url":"https://gershmanlab.com/experiments/alicia/teaching/experiment/?hitId=3E9VAUV7BW02QFDK7N7IH7ZKACRYAN&workerId=A3I40B0FATY8VH&assignmentId=3RYC5T2D74F2225U9D2NOPR550GRPQ&a=D5YR9&tp_a=D5YR9&b=3RYC5T2D74F2225U9D2NOPR550GRPQ&tp_b=3RYC5T2D74F2225U9D2NOPR550GRPQ&c=365799&tp_c=365799","heads":10,"tails":0,"studentIndex":1,"studentTrueHypers":{"a":8,"b":2},"studentGuess":0.9,"delta":0.09999999999999998,"totalExamples":10,"bonusSoFar":0},{"rt":null,"stimulus":"Sending examples to student... ","response":null,"trial_type":"html-keyboard-response","trial_index":14,"time_elapsed":296028,"internal_node_id":"0.0-13.0","params":{"nStudents":24,"maxFlips":30,"completionMinutes":45,"basePay":8,"maxBonus":9,"perTrialBonus":0.5,"perTrialBonusThreshold":0.05,"exampleCost":0.01},"classroomParams":{"A":{"a":1,"b":4},"B":{"a":4,"b":1},"C":{"a":2,"b":8},"D":{"a":8,"b":2}},"conditions":["nonSeqFull","nonSeqPartial","seqNoFeedback","seqFeedback"],"classroomPairings":[["A","B"],["C","D"]],"coinWeights":[0.2,0.5,0.8],"subjectId":"A3I40B0FATY8VH","assignmentId":"3RYC5T2D74F2225U9D2NOPR550GRPQ","hitId":"3E9VAUV7BW02QFDK7N7IH7ZKACRYAN","url":"https://gershmanlab.com/experiments/alicia/teaching/experiment/?hitId=3E9VAUV7BW02QFDK7N7IH7ZKACRYAN&workerId=A3I40B0FATY8VH&assignmentId=3RYC5T2D74F2225U9D2NOPR550GRPQ&a=D5YR9&tp_a=D5YR9&b=3RYC5T2D74F2225U9D2NOPR550GRPQ&tp_b=3RYC5T2D74F2225U9D2NOPR550GRPQ&c=365799&tp_c=365799"},{"rt":null,"stimulus":"Examples sent to student! Waiting for student...","response":null,"trial_type":"html-keyboard-response","trial_index":15,"time_elapsed":301031,"internal_node_id":"0.0-14.0","params":{"nStudents":24,"maxFlips":30,"completionMinutes":45,"basePay":8,"maxBonus":9,"perTrialBonus":0.5,"perTrialBonusThreshold":0.05,"exampleCost":0.01},"classroomParams":{"A":{"a":1,"b":4},"B":{"a":4,"b":1},"C":{"a":2,"b":8},"D":{"a":8,"b":2}},"conditions":["nonSeqFull","nonSeqPartial","seqNoFeedback","seqFeedback"],"classroomPairings":[["A","B"],["C","D"]],"coinWeights":[0.2,0.5,0.8],"subjectId":"A3I40B0FATY8VH","assignmentId":"3RYC5T2D74F2225U9D2NOPR550GRPQ","hitId":"3E9VAUV7BW02QFDK7N7IH7ZKACRYAN","url":"https://gershmanlab.com/experiments/alicia/teaching/experiment/?hitId=3E9VAUV7BW02QFDK7N7IH7ZKACRYAN&workerId=A3I40B0FATY8VH&assignmentId=3RYC5T2D74F2225U9D2NOPR550GRPQ&a=D5YR9&tp_a=D5YR9&b=3RYC5T2D74F2225U9D2NOPR550GRPQ&tp_b=3RYC5T2D74F2225U9D2NOPR550GRPQ&c=365799&tp_c=365799"},{"rt":16774,"response":{"heads":"10","tails":"0"},"type":"response","condition":"seqNoFeedback","trueTheta":0.8,"classrooms":["C","D"],"studentTrueClassroom":"D","exampleSet":"second","trial_type":"survey-html-form","trial_index":16,"time_elapsed":317805,"internal_node_id":"0.0-15.0-0.0","params":{"nStudents":24,"maxFlips":30,"completionMinutes":45,"basePay":8,"maxBonus":9,"perTrialBonus":0.5,"perTrialBonusThreshold":0.05,"exampleCost":0.01},"classroomParams":{"A":{"a":1,"b":4},"B":{"a":4,"b":1},"C":{"a":2,"b":8},"D":{"a":8,"b":2}},"conditions":["nonSeqFull","nonSeqPartial","seqNoFeedback","seqFeedback"],"classroomPairings":[["A","B"],["C","D"]],"coinWeights":[0.2,0.5,0.8],"subjectId":"A3I40B0FATY8VH","assignmentId":"3RYC5T2D74F2225U9D2NOPR550GRPQ","hitId":"3E9VAUV7BW02QFDK7N7IH7ZKACRYAN","url":"https://gershmanlab.com/experiments/alicia/teaching/experiment/?hitId=3E9VAUV7BW02QFDK7N7IH7ZKACRYAN&workerId=A3I40B0FATY8VH&assignmentId=3RYC5T2D74F2225U9D2NOPR550GRPQ&a=D5YR9&tp_a=D5YR9&b=3RYC5T2D74F2225U9D2NOPR550GRPQ&tp_b=3RYC5T2D74F2225U9D2NOPR550GRPQ&c=365799&tp_c=365799","firstResponseHeads":10,"firstResponseTails":0,"secondResponseHeads":10,"secondResponseTails":0,"totalHeads":20,"totalTails":0,"studentIndex":1,"studentTrueHypers":{"a":8,"b":2},"studentGuess":0.9333333333333333,"delta":0.1333333333333333,"bonus":0,"bonusSoFar":0,"totalExamples":20},{"rt":null,"stimulus":"Sending examples to student... ","response":null,"trial_type":"html-keyboard-response","trial_index":17,"time_elapsed":319307,"internal_node_id":"0.0-16.0","params":{"nStudents":24,"maxFlips":30,"completionMinutes":45,"basePay":8,"maxBonus":9,"perTrialBonus":0.5,"perTrialBonusThreshold":0.05,"exampleCost":0.01},"classroomParams":{"A":{"a":1,"b":4},"B":{"a":4,"b":1},"C":{"a":2,"b":8},"D":{"a":8,"b":2}},"conditions":["nonSeqFull","nonSeqPartial","seqNoFeedback","seqFeedback"],"classroomPairings":[["A","B"],["C","D"]],"coinWeights":[0.2,0.5,0.8],"subjectId":"A3I40B0FATY8VH","assignmentId":"3RYC5T2D74F2225U9D2NOPR550GRPQ","hitId":"3E9VAUV7BW02QFDK7N7IH7ZKACRYAN","url":"https://gershmanlab.com/experiments/alicia/teaching/experiment/?hitId=3E9VAUV7BW02QFDK7N7IH7ZKACRYAN&workerId=A3I40B0FATY8VH&assignmentId=3RYC5T2D74F2225U9D2NOPR550GRPQ&a=D5YR9&tp_a=D5YR9&b=3RYC5T2D74F2225U9D2NOPR550GRPQ&tp_b=3RYC5T2D74F2225U9D2NOPR550GRPQ&c=365799&tp_c=365799"},{"rt":null,"stimulus":"Examples sent to student! Waiting for student...","response":null,"trial_type":"html-keyboard-response","trial_index":18,"time_elapsed":323808,"internal_node_id":"0.0-17.0","params":{"nStudents":24,"maxFlips":30,"completionMinutes":45,"basePay":8,"maxBonus":9,"perTrialBonus":0.5,"perTrialBonusThreshold":0.05,"exampleCost":0.01},"classroomParams":{"A":{"a":1,"b":4},"B":{"a":4,"b":1},"C":{"a":2,"b":8},"D":{"a":8,"b":2}},"conditions":["nonSeqFull","nonSeqPartial","seqNoFeedback","seqFeedback"],"classroomPairings":[["A","B"],["C","D"]],"coinWeights":[0.2,0.5,0.8],"subjectId":"A3I40B0FATY8VH","assignmentId":"3RYC5T2D74F2225U9D2NOPR550GRPQ","hitId":"3E9VAUV7BW02QFDK7N7IH7ZKACRYAN","url":"https://gershmanlab.com/experiments/alicia/teaching/experiment/?hitId=3E9VAUV7BW02QFDK7N7IH7ZKACRYAN&workerId=A3I40B0FATY8VH&assignmentId=3RYC5T2D74F2225U9D2NOPR550GRPQ&a=D5YR9&tp_a=D5YR9&b=3RYC5T2D74F2225U9D2NOPR550GRPQ&tp_b=3RYC5T2D74F2225U9D2NOPR550GRPQ&c=365799&tp_c=365799"},{"rt":6043,"stimulus":"\n                <p>Student 2's first guess for coin weight: <b style=\"color:Tomato\";>0.90</b></p>\n                <p>Student 2's second guess for coin weight: <b style=\"color:Tomato\";>0.93</b></p>\n                <p>You received a bonus of <b>$0.00</b> based on the student's second guess.</p>\n                <p>Total bonus so far: <b>$0.00</b></p>\n                <p>Press any key to continue.</p>\n                ","response":"2","trial_type":"html-keyboard-response","trial_index":19,"time_elapsed":329852,"internal_node_id":"0.0-18.0","params":{"nStudents":24,"maxFlips":30,"completionMinutes":45,"basePay":8,"maxBonus":9,"perTrialBonus":0.5,"perTrialBonusThreshold":0.05,"exampleCost":0.01},"classroomParams":{"A":{"a":1,"b":4},"B":{"a":4,"b":1},"C":{"a":2,"b":8},"D":{"a":8,"b":2}},"conditions":["nonSeqFull","nonSeqPartial","seqNoFeedback","seqFeedback"],"classroomPairings":[["A","B"],["C","D"]],"coinWeights":[0.2,0.5,0.8],"subjectId":"A3I40B0FATY8VH","assignmentId":"3RYC5T2D74F2225U9D2NOPR550GRPQ","hitId":"3E9VAUV7BW02QFDK7N7IH7ZKACRYAN","url":"https://gershmanlab.com/experiments/alicia/teaching/experiment/?hitId=3E9VAUV7BW02QFDK7N7IH7ZKACRYAN&workerId=A3I40B0FATY8VH&assignmentId=3RYC5T2D74F2225U9D2NOPR550GRPQ&a=D5YR9&tp_a=D5YR9&b=3RYC5T2D74F2225U9D2NOPR550GRPQ&tp_b=3RYC5T2D74F2225U9D2NOPR550GRPQ&c=365799&tp_c=365799"},{"rt":null,"stimulus":"<div style=\"font-size:60px;\">Next student</div>","response":null,"trial_type":"html-keyboard-response","trial_index":20,"time_elapsed":332853,"internal_node_id":"0.0-19.0-0.0","params":{"nStudents":24,"maxFlips":30,"completionMinutes":45,"basePay":8,"maxBonus":9,"perTrialBonus":0.5,"perTrialBonusThreshold":0.05,"exampleCost":0.01},"classroomParams":{"A":{"a":1,"b":4},"B":{"a":4,"b":1},"C":{"a":2,"b":8},"D":{"a":8,"b":2}},"conditions":["nonSeqFull","nonSeqPartial","seqNoFeedback","seqFeedback"],"classroomPairings":[["A","B"],["C","D"]],"coinWeights":[0.2,0.5,0.8],"subjectId":"A3I40B0FATY8VH","assignmentId":"3RYC5T2D74F2225U9D2NOPR550GRPQ","hitId":"3E9VAUV7BW02QFDK7N7IH7ZKACRYAN","url":"https://gershmanlab.com/experiments/alicia/teaching/experiment/?hitId=3E9VAUV7BW02QFDK7N7IH7ZKACRYAN&workerId=A3I40B0FATY8VH&assignmentId=3RYC5T2D74F2225U9D2NOPR550GRPQ&a=D5YR9&tp_a=D5YR9&b=3RYC5T2D74F2225U9D2NOPR550GRPQ&tp_b=3RYC5T2D74F2225U9D2NOPR550GRPQ&c=365799&tp_c=365799"},{"rt":3549,"stimulus":"\n            <h4 style=\"color:Orange;\">Student 3</h4>\n            <h2>The weight of your coin is <b style=\"color:Tomato;\">0.8</b>.</h2>\n            <p>In this block, you will be giving <b>one</b> set of examples to Student 3.</p>\n                <p>You will receive feedback at the end of the block.</p>\n            <p></p>","response":0,"trial_type":"html-button-response","trial_index":21,"time_elapsed":336402,"internal_node_id":"0.0-20.0","params":{"nStudents":24,"maxFlips":30,"completionMinutes":45,"basePay":8,"maxBonus":9,"perTrialBonus":0.5,"perTrialBonusThreshold":0.05,"exampleCost":0.01},"classroomParams":{"A":{"a":1,"b":4},"B":{"a":4,"b":1},"C":{"a":2,"b":8},"D":{"a":8,"b":2}},"conditions":["nonSeqFull","nonSeqPartial","seqNoFeedback","seqFeedback"],"classroomPairings":[["A","B"],["C","D"]],"coinWeights":[0.2,0.5,0.8],"subjectId":"A3I40B0FATY8VH","assignmentId":"3RYC5T2D74F2225U9D2NOPR550GRPQ","hitId":"3E9VAUV7BW02QFDK7N7IH7ZKACRYAN","url":"https://gershmanlab.com/experiments/alicia/teaching/experiment/?hitId=3E9VAUV7BW02QFDK7N7IH7ZKACRYAN&workerId=A3I40B0FATY8VH&assignmentId=3RYC5T2D74F2225U9D2NOPR550GRPQ&a=D5YR9&tp_a=D5YR9&b=3RYC5T2D74F2225U9D2NOPR550GRPQ&tp_b=3RYC5T2D74F2225U9D2NOPR550GRPQ&c=365799&tp_c=365799"},{"rt":17972,"response":{"heads":"10","tails":"5"},"type":"response","condition":"nonSeqFull","trueTheta":0.8,"classrooms":["A","B"],"studentTrueClassroom":"B","exampleSet":"first","trial_type":"survey-html-form","trial_index":22,"time_elapsed":354374,"internal_node_id":"0.0-21.0-0.0","params":{"nStudents":24,"maxFlips":30,"completionMinutes":45,"basePay":8,"maxBonus":9,"perTrialBonus":0.5,"perTrialBonusThreshold":0.05,"exampleCost":0.01},"classroomParams":{"A":{"a":1,"b":4},"B":{"a":4,"b":1},"C":{"a":2,"b":8},"D":{"a":8,"b":2}},"conditions":["nonSeqFull","nonSeqPartial","seqNoFeedback","seqFeedback"],"classroomPairings":[["A","B"],["C","D"]],"coinWeights":[0.2,0.5,0.8],"subjectId":"A3I40B0FATY8VH","assignmentId":"3RYC5T2D74F2225U9D2NOPR550GRPQ","hitId":"3E9VAUV7BW02QFDK7N7IH7ZKACRYAN","url":"https://gershmanlab.com/experiments/alicia/teaching/experiment/?hitId=3E9VAUV7BW02QFDK7N7IH7ZKACRYAN&workerId=A3I40B0FATY8VH&assignmentId=3RYC5T2D74F2225U9D2NOPR550GRPQ&a=D5YR9&tp_a=D5YR9&b=3RYC5T2D74F2225U9D2NOPR550GRPQ&tp_b=3RYC5T2D74F2225U9D2NOPR550GRPQ&c=365799&tp_c=365799","heads":10,"tails":5,"studentIndex":2,"studentTrueHypers":{"a":4,"b":1},"studentGuess":0.7,"delta":0.10000000000000009,"totalExamples":15,"bonus":0,"bonusSoFar":0},{"rt":null,"stimulus":"Sending examples to student... ","response":null,"trial_type":"html-keyboard-response","trial_index":23,"time_elapsed":356376,"internal_node_id":"0.0-22.0","params":{"nStudents":24,"maxFlips":30,"completionMinutes":45,"basePay":8,"maxBonus":9,"perTrialBonus":0.5,"perTrialBonusThreshold":0.05,"exampleCost":0.01},"classroomParams":{"A":{"a":1,"b":4},"B":{"a":4,"b":1},"C":{"a":2,"b":8},"D":{"a":8,"b":2}},"conditions":["nonSeqFull","nonSeqPartial","seqNoFeedback","seqFeedback"],"classroomPairings":[["A","B"],["C","D"]],"coinWeights":[0.2,0.5,0.8],"subjectId":"A3I40B0FATY8VH","assignmentId":"3RYC5T2D74F2225U9D2NOPR550GRPQ","hitId":"3E9VAUV7BW02QFDK7N7IH7ZKACRYAN","url":"https://gershmanlab.com/experiments/alicia/teaching/experiment/?hitId=3E9VAUV7BW02QFDK7N7IH7ZKACRYAN&workerId=A3I40B0FATY8VH&assignmentId=3RYC5T2D74F2225U9D2NOPR550GRPQ&a=D5YR9&tp_a=D5YR9&b=3RYC5T2D74F2225U9D2NOPR550GRPQ&tp_b=3RYC5T2D74F2225U9D2NOPR550GRPQ&c=365799&tp_c=365799"},{"rt":null,"stimulus":"Examples sent to student! Waiting for student...","response":null,"trial_type":"html-keyboard-response","trial_index":24,"time_elapsed":361377,"internal_node_id":"0.0-23.0","params":{"nStudents":24,"maxFlips":30,"completionMinutes":45,"basePay":8,"maxBonus":9,"perTrialBonus":0.5,"perTrialBonusThreshold":0.05,"exampleCost":0.01},"classroomParams":{"A":{"a":1,"b":4},"B":{"a":4,"b":1},"C":{"a":2,"b":8},"D":{"a":8,"b":2}},"conditions":["nonSeqFull","nonSeqPartial","seqNoFeedback","seqFeedback"],"classroomPairings":[["A","B"],["C","D"]],"coinWeights":[0.2,0.5,0.8],"subjectId":"A3I40B0FATY8VH","assignmentId":"3RYC5T2D74F2225U9D2NOPR550GRPQ","hitId":"3E9VAUV7BW02QFDK7N7IH7ZKACRYAN","url":"https://gershmanlab.com/experiments/alicia/teaching/experiment/?hitId=3E9VAUV7BW02QFDK7N7IH7ZKACRYAN&workerId=A3I40B0FATY8VH&assignmentId=3RYC5T2D74F2225U9D2NOPR550GRPQ&a=D5YR9&tp_a=D5YR9&b=3RYC5T2D74F2225U9D2NOPR550GRPQ&tp_b=3RYC5T2D74F2225U9D2NOPR550GRPQ&c=365799&tp_c=365799"},{"rt":2622,"stimulus":"\n                <p>Student's guess for coin weight: <b style=\"color:Tomato;\">0.70</b></p>\n                <p>You received a bonus of <b>$0</b>. Total bonus so far: <b>$0.00</b></b></p>\n                <p></p>\n                <p>Press any key to continue.</p>\n                ","response":"5","trial_type":"html-keyboard-response","trial_index":25,"time_elapsed":364000,"internal_node_id":"0.0-24.0","params":{"nStudents":24,"maxFlips":30,"completionMinutes":45,"basePay":8,"maxBonus":9,"perTrialBonus":0.5,"perTrialBonusThreshold":0.05,"exampleCost":0.01},"classroomParams":{"A":{"a":1,"b":4},"B":{"a":4,"b":1},"C":{"a":2,"b":8},"D":{"a":8,"b":2}},"conditions":["nonSeqFull","nonSeqPartial","seqNoFeedback","seqFeedback"],"classroomPairings":[["A","B"],["C","D"]],"coinWeights":[0.2,0.5,0.8],"subjectId":"A3I40B0FATY8VH","assignmentId":"3RYC5T2D74F2225U9D2NOPR550GRPQ","hitId":"3E9VAUV7BW02QFDK7N7IH7ZKACRYAN","url":"https://gershmanlab.com/experiments/alicia/teaching/experiment/?hitId=3E9VAUV7BW02QFDK7N7IH7ZKACRYAN&workerId=A3I40B0FATY8VH&assignmentId=3RYC5T2D74F2225U9D2NOPR550GRPQ&a=D5YR9&tp_a=D5YR9&b=3RYC5T2D74F2225U9D2NOPR550GRPQ&tp_b=3RYC5T2D74F2225U9D2NOPR550GRPQ&c=365799&tp_c=365799"},{"rt":null,"stimulus":"<div style=\"font-size:60px;\">Next student</div>","response":null,"trial_type":"html-keyboard-response","trial_index":26,"time_elapsed":366251,"internal_node_id":"0.0-25.0-0.0","params":{"nStudents":24,"maxFlips":30,"completionMinutes":45,"basePay":8,"maxBonus":9,"perTrialBonus":0.5,"perTrialBonusThreshold":0.05,"exampleCost":0.01},"classroomParams":{"A":{"a":1,"b":4},"B":{"a":4,"b":1},"C":{"a":2,"b":8},"D":{"a":8,"b":2}},"conditions":["nonSeqFull","nonSeqPartial","seqNoFeedback","seqFeedback"],"classroomPairings":[["A","B"],["C","D"]],"coinWeights":[0.2,0.5,0.8],"subjectId":"A3I40B0FATY8VH","assignmentId":"3RYC5T2D74F2225U9D2NOPR550GRPQ","hitId":"3E9VAUV7BW02QFDK7N7IH7ZKACRYAN","url":"https://gershmanlab.com/experiments/alicia/teaching/experiment/?hitId=3E9VAUV7BW02QFDK7N7IH7ZKACRYAN&workerId=A3I40B0FATY8VH&assignmentId=3RYC5T2D74F2225U9D2NOPR550GRPQ&a=D5YR9&tp_a=D5YR9&b=3RYC5T2D74F2225U9D2NOPR550GRPQ&tp_b=3RYC5T2D74F2225U9D2NOPR550GRPQ&c=365799&tp_c=365799"},{"rt":7651,"stimulus":"\n            <h4 style=\"color:Orange;\">Student 4</h4>\n            <h2>The weight of your coin is <b style=\"color:Tomato;\">0.5</b>.</h2>\n            <p>In this block, you will be giving <b>two</b> sets of examples to Student 4.</p>\n                <p>You will receive feedback at the end of the block.</p>\n            <p></p>","response":0,"trial_type":"html-button-response","trial_index":27,"time_elapsed":373903,"internal_node_id":"0.0-26.0","params":{"nStudents":24,"maxFlips":30,"completionMinutes":45,"basePay":8,"maxBonus":9,"perTrialBonus":0.5,"perTrialBonusThreshold":0.05,"exampleCost":0.01},"classroomParams":{"A":{"a":1,"b":4},"B":{"a":4,"b":1},"C":{"a":2,"b":8},"D":{"a":8,"b":2}},"conditions":["nonSeqFull","nonSeqPartial","seqNoFeedback","seqFeedback"],"classroomPairings":[["A","B"],["C","D"]],"coinWeights":[0.2,0.5,0.8],"subjectId":"A3I40B0FATY8VH","assignmentId":"3RYC5T2D74F2225U9D2NOPR550GRPQ","hitId":"3E9VAUV7BW02QFDK7N7IH7ZKACRYAN","url":"https://gershmanlab.com/experiments/alicia/teaching/experiment/?hitId=3E9VAUV7BW02QFDK7N7IH7ZKACRYAN&workerId=A3I40B0FATY8VH&assignmentId=3RYC5T2D74F2225U9D2NOPR550GRPQ&a=D5YR9&tp_a=D5YR9&b=3RYC5T2D74F2225U9D2NOPR550GRPQ&tp_b=3RYC5T2D74F2225U9D2NOPR550GRPQ&c=365799&tp_c=365799"},{"rt":12958,"response":{"heads":"15","tails":"0"},"type":"response","condition":"seqNoFeedback","trueTheta":0.5,"classrooms":["A","B"],"studentTrueClassroom":"A","exampleSet":"first","trial_type":"survey-html-form","trial_index":28,"time_elapsed":386861,"internal_node_id":"0.0-27.0-0.0","params":{"nStudents":24,"maxFlips":30,"completionMinutes":45,"basePay":8,"maxBonus":9,"perTrialBonus":0.5,"perTrialBonusThreshold":0.05,"exampleCost":0.01},"classroomParams":{"A":{"a":1,"b":4},"B":{"a":4,"b":1},"C":{"a":2,"b":8},"D":{"a":8,"b":2}},"conditions":["nonSeqFull","nonSeqPartial","seqNoFeedback","seqFeedback"],"classroomPairings":[["A","B"],["C","D"]],"coinWeights":[0.2,0.5,0.8],"subjectId":"A3I40B0FATY8VH","assignmentId":"3RYC5T2D74F2225U9D2NOPR550GRPQ","hitId":"3E9VAUV7BW02QFDK7N7IH7ZKACRYAN","url":"https://gershmanlab.com/experiments/alicia/teaching/experiment/?hitId=3E9VAUV7BW02QFDK7N7IH7ZKACRYAN&workerId=A3I40B0FATY8VH&assignmentId=3RYC5T2D74F2225U9D2NOPR550GRPQ&a=D5YR9&tp_a=D5YR9&b=3RYC5T2D74F2225U9D2NOPR550GRPQ&tp_b=3RYC5T2D74F2225U9D2NOPR550GRPQ&c=365799&tp_c=365799","heads":15,"tails":0,"studentIndex":3,"studentTrueHypers":{"a":1,"b":4},"studentGuess":0.8,"delta":0.30000000000000004,"totalExamples":15,"bonusSoFar":0},{"rt":null,"stimulus":"Sending examples to student... ","response":null,"trial_type":"html-keyboard-response","trial_index":29,"time_elapsed":388113,"internal_node_id":"0.0-28.0","params":{"nStudents":24,"maxFlips":30,"completionMinutes":45,"basePay":8,"maxBonus":9,"perTrialBonus":0.5,"perTrialBonusThreshold":0.05,"exampleCost":0.01},"classroomParams":{"A":{"a":1,"b":4},"B":{"a":4,"b":1},"C":{"a":2,"b":8},"D":{"a":8,"b":2}},"conditions":["nonSeqFull","nonSeqPartial","seqNoFeedback","seqFeedback"],"classroomPairings":[["A","B"],["C","D"]],"coinWeights":[0.2,0.5,0.8],"subjectId":"A3I40B0FATY8VH","assignmentId":"3RYC5T2D74F2225U9D2NOPR550GRPQ","hitId":"3E9VAUV7BW02QFDK7N7IH7ZKACRYAN","url":"https://gershmanlab.com/experiments/alicia/teaching/experiment/?hitId=3E9VAUV7BW02QFDK7N7IH7ZKACRYAN&workerId=A3I40B0FATY8VH&assignmentId=3RYC5T2D74F2225U9D2NOPR550GRPQ&a=D5YR9&tp_a=D5YR9&b=3RYC5T2D74F2225U9D2NOPR550GRPQ&tp_b=3RYC5T2D74F2225U9D2NOPR550GRPQ&c=365799&tp_c=365799"},{"rt":null,"stimulus":"Examples sent to student! Waiting for student...","response":null,"trial_type":"html-keyboard-response","trial_index":30,"time_elapsed":392614,"internal_node_id":"0.0-29.0","params":{"nStudents":24,"maxFlips":30,"completionMinutes":45,"basePay":8,"maxBonus":9,"perTrialBonus":0.5,"perTrialBonusThreshold":0.05,"exampleCost":0.01},"classroomParams":{"A":{"a":1,"b":4},"B":{"a":4,"b":1},"C":{"a":2,"b":8},"D":{"a":8,"b":2}},"conditions":["nonSeqFull","nonSeqPartial","seqNoFeedback","seqFeedback"],"classroomPairings":[["A","B"],["C","D"]],"coinWeights":[0.2,0.5,0.8],"subjectId":"A3I40B0FATY8VH","assignmentId":"3RYC5T2D74F2225U9D2NOPR550GRPQ","hitId":"3E9VAUV7BW02QFDK7N7IH7ZKACRYAN","url":"https://gershmanlab.com/experiments/alicia/teaching/experiment/?hitId=3E9VAUV7BW02QFDK7N7IH7ZKACRYAN&workerId=A3I40B0FATY8VH&assignmentId=3RYC5T2D74F2225U9D2NOPR550GRPQ&a=D5YR9&tp_a=D5YR9&b=3RYC5T2D74F2225U9D2NOPR550GRPQ&tp_b=3RYC5T2D74F2225U9D2NOPR550GRPQ&c=365799&tp_c=365799"},{"rt":9879,"response":{"heads":"15","tails":"15"},"type":"response","condition":"seqNoFeedback","trueTheta":0.5,"classrooms":["A","B"],"studentTrueClassroom":"A","exampleSet":"second","trial_type":"survey-html-form","trial_index":31,"time_elapsed":402494,"internal_node_id":"0.0-30.0-0.0","params":{"nStudents":24,"maxFlips":30,"completionMinutes":45,"basePay":8,"maxBonus":9,"perTrialBonus":0.5,"perTrialBonusThreshold":0.05,"exampleCost":0.01},"classroomParams":{"A":{"a":1,"b":4},"B":{"a":4,"b":1},"C":{"a":2,"b":8},"D":{"a":8,"b":2}},"conditions":["nonSeqFull","nonSeqPartial","seqNoFeedback","seqFeedback"],"classroomPairings":[["A","B"],["C","D"]],"coinWeights":[0.2,0.5,0.8],"subjectId":"A3I40B0FATY8VH","assignmentId":"3RYC5T2D74F2225U9D2NOPR550GRPQ","hitId":"3E9VAUV7BW02QFDK7N7IH7ZKACRYAN","url":"https://gershmanlab.com/experiments/alicia/teaching/experiment/?hitId=3E9VAUV7BW02QFDK7N7IH7ZKACRYAN&workerId=A3I40B0FATY8VH&assignmentId=3RYC5T2D74F2225U9D2NOPR550GRPQ&a=D5YR9&tp_a=D5YR9&b=3RYC5T2D74F2225U9D2NOPR550GRPQ&tp_b=3RYC5T2D74F2225U9D2NOPR550GRPQ&c=365799&tp_c=365799","firstResponseHeads":15,"firstResponseTails":0,"secondResponseHeads":15,"secondResponseTails":15,"totalHeads":30,"totalTails":15,"studentIndex":3,"studentTrueHypers":{"a":1,"b":4},"studentGuess":0.62,"delta":0.12,"bonus":0,"bonusSoFar":0,"totalExamples":45},{"rt":null,"stimulus":"Sending examples to student... ","response":null,"trial_type":"html-keyboard-response","trial_index":32,"time_elapsed":403995,"internal_node_id":"0.0-31.0","params":{"nStudents":24,"maxFlips":30,"completionMinutes":45,"basePay":8,"maxBonus":9,"perTrialBonus":0.5,"perTrialBonusThreshold":0.05,"exampleCost":0.01},"classroomParams":{"A":{"a":1,"b":4},"B":{"a":4,"b":1},"C":{"a":2,"b":8},"D":{"a":8,"b":2}},"conditions":["nonSeqFull","nonSeqPartial","seqNoFeedback","seqFeedback"],"classroomPairings":[["A","B"],["C","D"]],"coinWeights":[0.2,0.5,0.8],"subjectId":"A3I40B0FATY8VH","assignmentId":"3RYC5T2D74F2225U9D2NOPR550GRPQ","hitId":"3E9VAUV7BW02QFDK7N7IH7ZKACRYAN","url":"https://gershmanlab.com/experiments/alicia/teaching/experiment/?hitId=3E9VAUV7BW02QFDK7N7IH7ZKACRYAN&workerId=A3I40B0FATY8VH&assignmentId=3RYC5T2D74F2225U9D2NOPR550GRPQ&a=D5YR9&tp_a=D5YR9&b=3RYC5T2D74F2225U9D2NOPR550GRPQ&tp_b=3RYC5T2D74F2225U9D2NOPR550GRPQ&c=365799&tp_c=365799"},{"rt":null,"stimulus":"Examples sent to student! Waiting for student...","response":null,"trial_type":"html-keyboard-response","trial_index":33,"time_elapsed":409995,"internal_node_id":"0.0-32.0","params":{"nStudents":24,"maxFlips":30,"completionMinutes":45,"basePay":8,"maxBonus":9,"perTrialBonus":0.5,"perTrialBonusThreshold":0.05,"exampleCost":0.01},"classroomParams":{"A":{"a":1,"b":4},"B":{"a":4,"b":1},"C":{"a":2,"b":8},"D":{"a":8,"b":2}},"conditions":["nonSeqFull","nonSeqPartial","seqNoFeedback","seqFeedback"],"classroomPairings":[["A","B"],["C","D"]],"coinWeights":[0.2,0.5,0.8],"subjectId":"A3I40B0FATY8VH","assignmentId":"3RYC5T2D74F2225U9D2NOPR550GRPQ","hitId":"3E9VAUV7BW02QFDK7N7IH7ZKACRYAN","url":"https://gershmanlab.com/experiments/alicia/teaching/experiment/?hitId=3E9VAUV7BW02QFDK7N7IH7ZKACRYAN&workerId=A3I40B0FATY8VH&assignmentId=3RYC5T2D74F2225U9D2NOPR550GRPQ&a=D5YR9&tp_a=D5YR9&b=3RYC5T2D74F2225U9D2NOPR550GRPQ&tp_b=3RYC5T2D74F2225U9D2NOPR550GRPQ&c=365799&tp_c=365799"},{"rt":5492,"stimulus":"\n                <p>Student 4's first guess for coin weight: <b style=\"color:Tomato\";>0.80</b></p>\n                <p>Student 4's second guess for coin weight: <b style=\"color:Tomato\";>0.62</b></p>\n                <p>You received a bonus of <b>$0.00</b> based on the student's second guess.</p>\n                <p>Total bonus so far: <b>$0.00</b></p>\n                <p>Press any key to continue.</p>\n                ","response":"5","trial_type":"html-keyboard-response","trial_index":34,"time_elapsed":415488,"internal_node_id":"0.0-33.0","params":{"nStudents":24,"maxFlips":30,"completionMinutes":45,"basePay":8,"maxBonus":9,"perTrialBonus":0.5,"perTrialBonusThreshold":0.05,"exampleCost":0.01},"classroomParams":{"A":{"a":1,"b":4},"B":{"a":4,"b":1},"C":{"a":2,"b":8},"D":{"a":8,"b":2}},"conditions":["nonSeqFull","nonSeqPartial","seqNoFeedback","seqFeedback"],"classroomPairings":[["A","B"],["C","D"]],"coinWeights":[0.2,0.5,0.8],"subjectId":"A3I40B0FATY8VH","assignmentId":"3RYC5T2D74F2225U9D2NOPR550GRPQ","hitId":"3E9VAUV7BW02QFDK7N7IH7ZKACRYAN","url":"https://gershmanlab.com/experiments/alicia/teaching/experiment/?hitId=3E9VAUV7BW02QFDK7N7IH7ZKACRYAN&workerId=A3I40B0FATY8VH&assignmentId=3RYC5T2D74F2225U9D2NOPR550GRPQ&a=D5YR9&tp_a=D5YR9&b=3RYC5T2D74F2225U9D2NOPR550GRPQ&tp_b=3RYC5T2D74F2225U9D2NOPR550GRPQ&c=365799&tp_c=365799"},{"rt":null,"stimulus":"<div style=\"font-size:60px;\">Next student</div>","response":null,"trial_type":"html-keyboard-response","trial_index":35,"time_elapsed":417989,"internal_node_id":"0.0-34.0-0.0","params":{"nStudents":24,"maxFlips":30,"completionMinutes":45,"basePay":8,"maxBonus":9,"perTrialBonus":0.5,"perTrialBonusThreshold":0.05,"exampleCost":0.01},"classroomParams":{"A":{"a":1,"b":4},"B":{"a":4,"b":1},"C":{"a":2,"b":8},"D":{"a":8,"b":2}},"conditions":["nonSeqFull","nonSeqPartial","seqNoFeedback","seqFeedback"],"classroomPairings":[["A","B"],["C","D"]],"coinWeights":[0.2,0.5,0.8],"subjectId":"A3I40B0FATY8VH","assignmentId":"3RYC5T2D74F2225U9D2NOPR550GRPQ","hitId":"3E9VAUV7BW02QFDK7N7IH7ZKACRYAN","url":"https://gershmanlab.com/experiments/alicia/teaching/experiment/?hitId=3E9VAUV7BW02QFDK7N7IH7ZKACRYAN&workerId=A3I40B0FATY8VH&assignmentId=3RYC5T2D74F2225U9D2NOPR550GRPQ&a=D5YR9&tp_a=D5YR9&b=3RYC5T2D74F2225U9D2NOPR550GRPQ&tp_b=3RYC5T2D74F2225U9D2NOPR550GRPQ&c=365799&tp_c=365799"},{"rt":9222,"stimulus":"\n            <h4 style=\"color:Orange;\">Student 5</h4>\n            <h2>The weight of your coin is <b style=\"color:Tomato;\">0.8</b>.</h2>\n            <p>In this block, you will be giving <b>two</b> sets of examples to Student 5.</p>\n                <p>You will see the student's guess after the first set of examples. You will also receive feedback at the end of the block.</p>\n            <p>To earn the highest bonus, you will have to <b>take into consideration the student's guess</b> when you choose your second set of examples.</p>","response":0,"trial_type":"html-button-response","trial_index":36,"time_elapsed":427212,"internal_node_id":"0.0-35.0","params":{"nStudents":24,"maxFlips":30,"completionMinutes":45,"basePay":8,"maxBonus":9,"perTrialBonus":0.5,"perTrialBonusThreshold":0.05,"exampleCost":0.01},"classroomParams":{"A":{"a":1,"b":4},"B":{"a":4,"b":1},"C":{"a":2,"b":8},"D":{"a":8,"b":2}},"conditions":["nonSeqFull","nonSeqPartial","seqNoFeedback","seqFeedback"],"classroomPairings":[["A","B"],["C","D"]],"coinWeights":[0.2,0.5,0.8],"subjectId":"A3I40B0FATY8VH","assignmentId":"3RYC5T2D74F2225U9D2NOPR550GRPQ","hitId":"3E9VAUV7BW02QFDK7N7IH7ZKACRYAN","url":"https://gershmanlab.com/experiments/alicia/teaching/experiment/?hitId=3E9VAUV7BW02QFDK7N7IH7ZKACRYAN&workerId=A3I40B0FATY8VH&assignmentId=3RYC5T2D74F2225U9D2NOPR550GRPQ&a=D5YR9&tp_a=D5YR9&b=3RYC5T2D74F2225U9D2NOPR550GRPQ&tp_b=3RYC5T2D74F2225U9D2NOPR550GRPQ&c=365799&tp_c=365799"},{"rt":10744,"response":{"heads":"10","tails":"5"},"type":"response","condition":"seqFeedback","trueTheta":0.8,"classrooms":["C","D"],"studentTrueClassroom":"C","exampleSet":"first","trial_type":"survey-html-form","trial_index":37,"time_elapsed":437956,"internal_node_id":"0.0-36.0-0.0","params":{"nStudents":24,"maxFlips":30,"completionMinutes":45,"basePay":8,"maxBonus":9,"perTrialBonus":0.5,"perTrialBonusThreshold":0.05,"exampleCost":0.01},"classroomParams":{"A":{"a":1,"b":4},"B":{"a":4,"b":1},"C":{"a":2,"b":8},"D":{"a":8,"b":2}},"conditions":["nonSeqFull","nonSeqPartial","seqNoFeedback","seqFeedback"],"classroomPairings":[["A","B"],["C","D"]],"coinWeights":[0.2,0.5,0.8],"subjectId":"A3I40B0FATY8VH","assignmentId":"3RYC5T2D74F2225U9D2NOPR550GRPQ","hitId":"3E9VAUV7BW02QFDK7N7IH7ZKACRYAN","url":"https://gershmanlab.com/experiments/alicia/teaching/experiment/?hitId=3E9VAUV7BW02QFDK7N7IH7ZKACRYAN&workerId=A3I40B0FATY8VH&assignmentId=3RYC5T2D74F2225U9D2NOPR550GRPQ&a=D5YR9&tp_a=D5YR9&b=3RYC5T2D74F2225U9D2NOPR550GRPQ&tp_b=3RYC5T2D74F2225U9D2NOPR550GRPQ&c=365799&tp_c=365799","heads":10,"tails":5,"studentIndex":4,"studentTrueHypers":{"a":2,"b":8},"studentGuess":0.48,"delta":0.32000000000000006,"totalExamples":15,"bonusSoFar":0},{"rt":null,"stimulus":"Sending examples to student... ","response":null,"trial_type":"html-keyboard-response","trial_index":38,"time_elapsed":439208,"internal_node_id":"0.0-37.0","params":{"nStudents":24,"maxFlips":30,"completionMinutes":45,"basePay":8,"maxBonus":9,"perTrialBonus":0.5,"perTrialBonusThreshold":0.05,"exampleCost":0.01},"classroomParams":{"A":{"a":1,"b":4},"B":{"a":4,"b":1},"C":{"a":2,"b":8},"D":{"a":8,"b":2}},"conditions":["nonSeqFull","nonSeqPartial","seqNoFeedback","seqFeedback"],"classroomPairings":[["A","B"],["C","D"]],"coinWeights":[0.2,0.5,0.8],"subjectId":"A3I40B0FATY8VH","assignmentId":"3RYC5T2D74F2225U9D2NOPR550GRPQ","hitId":"3E9VAUV7BW02QFDK7N7IH7ZKACRYAN","url":"https://gershmanlab.com/experiments/alicia/teaching/experiment/?hitId=3E9VAUV7BW02QFDK7N7IH7ZKACRYAN&workerId=A3I40B0FATY8VH&assignmentId=3RYC5T2D74F2225U9D2NOPR550GRPQ&a=D5YR9&tp_a=D5YR9&b=3RYC5T2D74F2225U9D2NOPR550GRPQ&tp_b=3RYC5T2D74F2225U9D2NOPR550GRPQ&c=365799&tp_c=365799"},{"rt":null,"stimulus":"Examples sent to student! Waiting for student...","response":null,"trial_type":"html-keyboard-response","trial_index":39,"time_elapsed":444710,"internal_node_id":"0.0-38.0","params":{"nStudents":24,"maxFlips":30,"completionMinutes":45,"basePay":8,"maxBonus":9,"perTrialBonus":0.5,"perTrialBonusThreshold":0.05,"exampleCost":0.01},"classroomParams":{"A":{"a":1,"b":4},"B":{"a":4,"b":1},"C":{"a":2,"b":8},"D":{"a":8,"b":2}},"conditions":["nonSeqFull","nonSeqPartial","seqNoFeedback","seqFeedback"],"classroomPairings":[["A","B"],["C","D"]],"coinWeights":[0.2,0.5,0.8],"subjectId":"A3I40B0FATY8VH","assignmentId":"3RYC5T2D74F2225U9D2NOPR550GRPQ","hitId":"3E9VAUV7BW02QFDK7N7IH7ZKACRYAN","url":"https://gershmanlab.com/experiments/alicia/teaching/experiment/?hitId=3E9VAUV7BW02QFDK7N7IH7ZKACRYAN&workerId=A3I40B0FATY8VH&assignmentId=3RYC5T2D74F2225U9D2NOPR550GRPQ&a=D5YR9&tp_a=D5YR9&b=3RYC5T2D74F2225U9D2NOPR550GRPQ&tp_b=3RYC5T2D74F2225U9D2NOPR550GRPQ&c=365799&tp_c=365799"},{"rt":5505,"stimulus":"\n                <p>Student's guess for coin weight: <b style=\"color:Tomato;\">0.48</b></p>\n                <p></b></p>\n                <p>You will now send another set of examples to your student. <b>Remember to take your student's guess into consideration so that you can earn the highest bonus possible!</b> </p>\n                <p>Press any key to continue.</p>\n                ","response":"4","trial_type":"html-keyboard-response","trial_index":40,"time_elapsed":450215,"internal_node_id":"0.0-39.0","params":{"nStudents":24,"maxFlips":30,"completionMinutes":45,"basePay":8,"maxBonus":9,"perTrialBonus":0.5,"perTrialBonusThreshold":0.05,"exampleCost":0.01},"classroomParams":{"A":{"a":1,"b":4},"B":{"a":4,"b":1},"C":{"a":2,"b":8},"D":{"a":8,"b":2}},"conditions":["nonSeqFull","nonSeqPartial","seqNoFeedback","seqFeedback"],"classroomPairings":[["A","B"],["C","D"]],"coinWeights":[0.2,0.5,0.8],"subjectId":"A3I40B0FATY8VH","assignmentId":"3RYC5T2D74F2225U9D2NOPR550GRPQ","hitId":"3E9VAUV7BW02QFDK7N7IH7ZKACRYAN","url":"https://gershmanlab.com/experiments/alicia/teaching/experiment/?hitId=3E9VAUV7BW02QFDK7N7IH7ZKACRYAN&workerId=A3I40B0FATY8VH&assignmentId=3RYC5T2D74F2225U9D2NOPR550GRPQ&a=D5YR9&tp_a=D5YR9&b=3RYC5T2D74F2225U9D2NOPR550GRPQ&tp_b=3RYC5T2D74F2225U9D2NOPR550GRPQ&c=365799&tp_c=365799"},{"rt":10358,"response":{"heads":"12","tails":"0"},"type":"response","condition":"seqFeedback","trueTheta":0.8,"classrooms":["C","D"],"studentTrueClassroom":"C","exampleSet":"second","trial_type":"survey-html-form","trial_index":41,"time_elapsed":460574,"internal_node_id":"0.0-40.0-0.0","params":{"nStudents":24,"maxFlips":30,"completionMinutes":45,"basePay":8,"maxBonus":9,"perTrialBonus":0.5,"perTrialBonusThreshold":0.05,"exampleCost":0.01},"classroomParams":{"A":{"a":1,"b":4},"B":{"a":4,"b":1},"C":{"a":2,"b":8},"D":{"a":8,"b":2}},"conditions":["nonSeqFull","nonSeqPartial","seqNoFeedback","seqFeedback"],"classroomPairings":[["A","B"],["C","D"]],"coinWeights":[0.2,0.5,0.8],"subjectId":"A3I40B0FATY8VH","assignmentId":"3RYC5T2D74F2225U9D2NOPR550GRPQ","hitId":"3E9VAUV7BW02QFDK7N7IH7ZKACRYAN","url":"https://gershmanlab.com/experiments/alicia/teaching/experiment/?hitId=3E9VAUV7BW02QFDK7N7IH7ZKACRYAN&workerId=A3I40B0FATY8VH&assignmentId=3RYC5T2D74F2225U9D2NOPR550GRPQ&a=D5YR9&tp_a=D5YR9&b=3RYC5T2D74F2225U9D2NOPR550GRPQ&tp_b=3RYC5T2D74F2225U9D2NOPR550GRPQ&c=365799&tp_c=365799","firstResponseHeads":10,"firstResponseTails":5,"secondResponseHeads":12,"secondResponseTails":0,"totalHeads":22,"totalTails":5,"studentIndex":4,"studentTrueHypers":{"a":2,"b":8},"studentGuess":0.6486486486486487,"delta":0.15135135135135136,"bonus":0,"bonusSoFar":0,"totalExamples":27},{"rt":null,"stimulus":"Sending examples to student... ","response":null,"trial_type":"html-keyboard-response","trial_index":42,"time_elapsed":462325,"internal_node_id":"0.0-41.0","params":{"nStudents":24,"maxFlips":30,"completionMinutes":45,"basePay":8,"maxBonus":9,"perTrialBonus":0.5,"perTrialBonusThreshold":0.05,"exampleCost":0.01},"classroomParams":{"A":{"a":1,"b":4},"B":{"a":4,"b":1},"C":{"a":2,"b":8},"D":{"a":8,"b":2}},"conditions":["nonSeqFull","nonSeqPartial","seqNoFeedback","seqFeedback"],"classroomPairings":[["A","B"],["C","D"]],"coinWeights":[0.2,0.5,0.8],"subjectId":"A3I40B0FATY8VH","assignmentId":"3RYC5T2D74F2225U9D2NOPR550GRPQ","hitId":"3E9VAUV7BW02QFDK7N7IH7ZKACRYAN","url":"https://gershmanlab.com/experiments/alicia/teaching/experiment/?hitId=3E9VAUV7BW02QFDK7N7IH7ZKACRYAN&workerId=A3I40B0FATY8VH&assignmentId=3RYC5T2D74F2225U9D2NOPR550GRPQ&a=D5YR9&tp_a=D5YR9&b=3RYC5T2D74F2225U9D2NOPR550GRPQ&tp_b=3RYC5T2D74F2225U9D2NOPR550GRPQ&c=365799&tp_c=365799"},{"rt":null,"stimulus":"Examples sent to student! Waiting for student...","response":null,"trial_type":"html-keyboard-response","trial_index":43,"time_elapsed":467826,"internal_node_id":"0.0-42.0","params":{"nStudents":24,"maxFlips":30,"completionMinutes":45,"basePay":8,"maxBonus":9,"perTrialBonus":0.5,"perTrialBonusThreshold":0.05,"exampleCost":0.01},"classroomParams":{"A":{"a":1,"b":4},"B":{"a":4,"b":1},"C":{"a":2,"b":8},"D":{"a":8,"b":2}},"conditions":["nonSeqFull","nonSeqPartial","seqNoFeedback","seqFeedback"],"classroomPairings":[["A","B"],["C","D"]],"coinWeights":[0.2,0.5,0.8],"subjectId":"A3I40B0FATY8VH","assignmentId":"3RYC5T2D74F2225U9D2NOPR550GRPQ","hitId":"3E9VAUV7BW02QFDK7N7IH7ZKACRYAN","url":"https://gershmanlab.com/experiments/alicia/teaching/experiment/?hitId=3E9VAUV7BW02QFDK7N7IH7ZKACRYAN&workerId=A3I40B0FATY8VH&assignmentId=3RYC5T2D74F2225U9D2NOPR550GRPQ&a=D5YR9&tp_a=D5YR9&b=3RYC5T2D74F2225U9D2NOPR550GRPQ&tp_b=3RYC5T2D74F2225U9D2NOPR550GRPQ&c=365799&tp_c=365799"},{"rt":4019,"stimulus":"\n                <p>Student 5's first guess for coin weight: <b style=\"color:Tomato\";>0.48</b></p>\n                <p>Student 5's second guess for coin weight: <b style=\"color:Tomato\";>0.65</b></p>\n                <p>You received a bonus of <b>$0.00</b> based on the student's second guess.</p>\n                <p>Total bonus so far: <b>$0.00</b></p>\n                <p>Press any key to continue.</p>\n                ","response":"5","trial_type":"html-keyboard-response","trial_index":44,"time_elapsed":471846,"internal_node_id":"0.0-43.0","params":{"nStudents":24,"maxFlips":30,"completionMinutes":45,"basePay":8,"maxBonus":9,"perTrialBonus":0.5,"perTrialBonusThreshold":0.05,"exampleCost":0.01},"classroomParams":{"A":{"a":1,"b":4},"B":{"a":4,"b":1},"C":{"a":2,"b":8},"D":{"a":8,"b":2}},"conditions":["nonSeqFull","nonSeqPartial","seqNoFeedback","seqFeedback"],"classroomPairings":[["A","B"],["C","D"]],"coinWeights":[0.2,0.5,0.8],"subjectId":"A3I40B0FATY8VH","assignmentId":"3RYC5T2D74F2225U9D2NOPR550GRPQ","hitId":"3E9VAUV7BW02QFDK7N7IH7ZKACRYAN","url":"https://gershmanlab.com/experiments/alicia/teaching/experiment/?hitId=3E9VAUV7BW02QFDK7N7IH7ZKACRYAN&workerId=A3I40B0FATY8VH&assignmentId=3RYC5T2D74F2225U9D2NOPR550GRPQ&a=D5YR9&tp_a=D5YR9&b=3RYC5T2D74F2225U9D2NOPR550GRPQ&tp_b=3RYC5T2D74F2225U9D2NOPR550GRPQ&c=365799&tp_c=365799"},{"rt":null,"stimulus":"<div style=\"font-size:60px;\">Next student</div>","response":null,"trial_type":"html-keyboard-response","trial_index":45,"time_elapsed":474346,"internal_node_id":"0.0-44.0-0.0","params":{"nStudents":24,"maxFlips":30,"completionMinutes":45,"basePay":8,"maxBonus":9,"perTrialBonus":0.5,"perTrialBonusThreshold":0.05,"exampleCost":0.01},"classroomParams":{"A":{"a":1,"b":4},"B":{"a":4,"b":1},"C":{"a":2,"b":8},"D":{"a":8,"b":2}},"conditions":["nonSeqFull","nonSeqPartial","seqNoFeedback","seqFeedback"],"classroomPairings":[["A","B"],["C","D"]],"coinWeights":[0.2,0.5,0.8],"subjectId":"A3I40B0FATY8VH","assignmentId":"3RYC5T2D74F2225U9D2NOPR550GRPQ","hitId":"3E9VAUV7BW02QFDK7N7IH7ZKACRYAN","url":"https://gershmanlab.com/experiments/alicia/teaching/experiment/?hitId=3E9VAUV7BW02QFDK7N7IH7ZKACRYAN&workerId=A3I40B0FATY8VH&assignmentId=3RYC5T2D74F2225U9D2NOPR550GRPQ&a=D5YR9&tp_a=D5YR9&b=3RYC5T2D74F2225U9D2NOPR550GRPQ&tp_b=3RYC5T2D74F2225U9D2NOPR550GRPQ&c=365799&tp_c=365799"},{"rt":5515,"stimulus":"\n            <h4 style=\"color:Orange;\">Student 6</h4>\n            <h2>The weight of your coin is <b style=\"color:Tomato;\">0.5</b>.</h2>\n            <p>In this block, you will be giving <b>two</b> sets of examples to Student 6.</p>\n                <p>You will see the student's guess after the first set of examples. You will also receive feedback at the end of the block.</p>\n            <p>To earn the highest bonus, you will have to <b>take into consideration the student's guess</b> when you choose your second set of examples.</p>","response":0,"trial_type":"html-button-response","trial_index":46,"time_elapsed":479862,"internal_node_id":"0.0-45.0","params":{"nStudents":24,"maxFlips":30,"completionMinutes":45,"basePay":8,"maxBonus":9,"perTrialBonus":0.5,"perTrialBonusThreshold":0.05,"exampleCost":0.01},"classroomParams":{"A":{"a":1,"b":4},"B":{"a":4,"b":1},"C":{"a":2,"b":8},"D":{"a":8,"b":2}},"conditions":["nonSeqFull","nonSeqPartial","seqNoFeedback","seqFeedback"],"classroomPairings":[["A","B"],["C","D"]],"coinWeights":[0.2,0.5,0.8],"subjectId":"A3I40B0FATY8VH","assignmentId":"3RYC5T2D74F2225U9D2NOPR550GRPQ","hitId":"3E9VAUV7BW02QFDK7N7IH7ZKACRYAN","url":"https://gershmanlab.com/experiments/alicia/teaching/experiment/?hitId=3E9VAUV7BW02QFDK7N7IH7ZKACRYAN&workerId=A3I40B0FATY8VH&assignmentId=3RYC5T2D74F2225U9D2NOPR550GRPQ&a=D5YR9&tp_a=D5YR9&b=3RYC5T2D74F2225U9D2NOPR550GRPQ&tp_b=3RYC5T2D74F2225U9D2NOPR550GRPQ&c=365799&tp_c=365799"},{"rt":11439,"response":{"heads":"14","tails":"8"},"type":"response","condition":"seqFeedback","trueTheta":0.5,"classrooms":["C","D"],"studentTrueClassroom":"D","exampleSet":"first","trial_type":"survey-html-form","trial_index":47,"time_elapsed":491302,"internal_node_id":"0.0-46.0-0.0","params":{"nStudents":24,"maxFlips":30,"completionMinutes":45,"basePay":8,"maxBonus":9,"perTrialBonus":0.5,"perTrialBonusThreshold":0.05,"exampleCost":0.01},"classroomParams":{"A":{"a":1,"b":4},"B":{"a":4,"b":1},"C":{"a":2,"b":8},"D":{"a":8,"b":2}},"conditions":["nonSeqFull","nonSeqPartial","seqNoFeedback","seqFeedback"],"classroomPairings":[["A","B"],["C","D"]],"coinWeights":[0.2,0.5,0.8],"subjectId":"A3I40B0FATY8VH","assignmentId":"3RYC5T2D74F2225U9D2NOPR550GRPQ","hitId":"3E9VAUV7BW02QFDK7N7IH7ZKACRYAN","url":"https://gershmanlab.com/experiments/alicia/teaching/experiment/?hitId=3E9VAUV7BW02QFDK7N7IH7ZKACRYAN&workerId=A3I40B0FATY8VH&assignmentId=3RYC5T2D74F2225U9D2NOPR550GRPQ&a=D5YR9&tp_a=D5YR9&b=3RYC5T2D74F2225U9D2NOPR550GRPQ&tp_b=3RYC5T2D74F2225U9D2NOPR550GRPQ&c=365799&tp_c=365799","heads":14,"tails":8,"studentIndex":5,"studentTrueHypers":{"a":8,"b":2},"studentGuess":0.6875,"delta":0.1875,"totalExamples":22,"bonusSoFar":0},{"rt":null,"stimulus":"Sending examples to student... ","response":null,"trial_type":"html-keyboard-response","trial_index":48,"time_elapsed":492552,"internal_node_id":"0.0-47.0","params":{"nStudents":24,"maxFlips":30,"completionMinutes":45,"basePay":8,"maxBonus":9,"perTrialBonus":0.5,"perTrialBonusThreshold":0.05,"exampleCost":0.01},"classroomParams":{"A":{"a":1,"b":4},"B":{"a":4,"b":1},"C":{"a":2,"b":8},"D":{"a":8,"b":2}},"conditions":["nonSeqFull","nonSeqPartial","seqNoFeedback","seqFeedback"],"classroomPairings":[["A","B"],["C","D"]],"coinWeights":[0.2,0.5,0.8],"subjectId":"A3I40B0FATY8VH","assignmentId":"3RYC5T2D74F2225U9D2NOPR550GRPQ","hitId":"3E9VAUV7BW02QFDK7N7IH7ZKACRYAN","url":"https://gershmanlab.com/experiments/alicia/teaching/experiment/?hitId=3E9VAUV7BW02QFDK7N7IH7ZKACRYAN&workerId=A3I40B0FATY8VH&assignmentId=3RYC5T2D74F2225U9D2NOPR550GRPQ&a=D5YR9&tp_a=D5YR9&b=3RYC5T2D74F2225U9D2NOPR550GRPQ&tp_b=3RYC5T2D74F2225U9D2NOPR550GRPQ&c=365799&tp_c=365799"},{"rt":null,"stimulus":"Examples sent to student! Waiting for student...","response":null,"trial_type":"html-keyboard-response","trial_index":49,"time_elapsed":498554,"internal_node_id":"0.0-48.0","params":{"nStudents":24,"maxFlips":30,"completionMinutes":45,"basePay":8,"maxBonus":9,"perTrialBonus":0.5,"perTrialBonusThreshold":0.05,"exampleCost":0.01},"classroomParams":{"A":{"a":1,"b":4},"B":{"a":4,"b":1},"C":{"a":2,"b":8},"D":{"a":8,"b":2}},"conditions":["nonSeqFull","nonSeqPartial","seqNoFeedback","seqFeedback"],"classroomPairings":[["A","B"],["C","D"]],"coinWeights":[0.2,0.5,0.8],"subjectId":"A3I40B0FATY8VH","assignmentId":"3RYC5T2D74F2225U9D2NOPR550GRPQ","hitId":"3E9VAUV7BW02QFDK7N7IH7ZKACRYAN","url":"https://gershmanlab.com/experiments/alicia/teaching/experiment/?hitId=3E9VAUV7BW02QFDK7N7IH7ZKACRYAN&workerId=A3I40B0FATY8VH&assignmentId=3RYC5T2D74F2225U9D2NOPR550GRPQ&a=D5YR9&tp_a=D5YR9&b=3RYC5T2D74F2225U9D2NOPR550GRPQ&tp_b=3RYC5T2D74F2225U9D2NOPR550GRPQ&c=365799&tp_c=365799"},{"rt":5607,"stimulus":"\n                <p>Student's guess for coin weight: <b style=\"color:Tomato;\">0.69</b></p>\n                <p></b></p>\n                <p>You will now send another set of examples to your student. <b>Remember to take your student's guess into consideration so that you can earn the highest bonus possible!</b> </p>\n                <p>Press any key to continue.</p>\n                ","response":"5","trial_type":"html-keyboard-response","trial_index":50,"time_elapsed":504162,"internal_node_id":"0.0-49.0","params":{"nStudents":24,"maxFlips":30,"completionMinutes":45,"basePay":8,"maxBonus":9,"perTrialBonus":0.5,"perTrialBonusThreshold":0.05,"exampleCost":0.01},"classroomParams":{"A":{"a":1,"b":4},"B":{"a":4,"b":1},"C":{"a":2,"b":8},"D":{"a":8,"b":2}},"conditions":["nonSeqFull","nonSeqPartial","seqNoFeedback","seqFeedback"],"classroomPairings":[["A","B"],["C","D"]],"coinWeights":[0.2,0.5,0.8],"subjectId":"A3I40B0FATY8VH","assignmentId":"3RYC5T2D74F2225U9D2NOPR550GRPQ","hitId":"3E9VAUV7BW02QFDK7N7IH7ZKACRYAN","url":"https://gershmanlab.com/experiments/alicia/teaching/experiment/?hitId=3E9VAUV7BW02QFDK7N7IH7ZKACRYAN&workerId=A3I40B0FATY8VH&assignmentId=3RYC5T2D74F2225U9D2NOPR550GRPQ&a=D5YR9&tp_a=D5YR9&b=3RYC5T2D74F2225U9D2NOPR550GRPQ&tp_b=3RYC5T2D74F2225U9D2NOPR550GRPQ&c=365799&tp_c=365799"},{"rt":10956,"response":{"heads":"10","tails":"10"},"type":"response","condition":"seqFeedback","trueTheta":0.5,"classrooms":["C","D"],"studentTrueClassroom":"D","exampleSet":"second","trial_type":"survey-html-form","trial_index":51,"time_elapsed":515119,"internal_node_id":"0.0-50.0-0.0","params":{"nStudents":24,"maxFlips":30,"completionMinutes":45,"basePay":8,"maxBonus":9,"perTrialBonus":0.5,"perTrialBonusThreshold":0.05,"exampleCost":0.01},"classroomParams":{"A":{"a":1,"b":4},"B":{"a":4,"b":1},"C":{"a":2,"b":8},"D":{"a":8,"b":2}},"conditions":["nonSeqFull","nonSeqPartial","seqNoFeedback","seqFeedback"],"classroomPairings":[["A","B"],["C","D"]],"coinWeights":[0.2,0.5,0.8],"subjectId":"A3I40B0FATY8VH","assignmentId":"3RYC5T2D74F2225U9D2NOPR550GRPQ","hitId":"3E9VAUV7BW02QFDK7N7IH7ZKACRYAN","url":"https://gershmanlab.com/experiments/alicia/teaching/experiment/?hitId=3E9VAUV7BW02QFDK7N7IH7ZKACRYAN&workerId=A3I40B0FATY8VH&assignmentId=3RYC5T2D74F2225U9D2NOPR550GRPQ&a=D5YR9&tp_a=D5YR9&b=3RYC5T2D74F2225U9D2NOPR550GRPQ&tp_b=3RYC5T2D74F2225U9D2NOPR550GRPQ&c=365799&tp_c=365799","firstResponseHeads":14,"firstResponseTails":8,"secondResponseHeads":10,"secondResponseTails":10,"totalHeads":24,"totalTails":18,"studentIndex":5,"studentTrueHypers":{"a":8,"b":2},"studentGuess":0.6153846153846154,"delta":0.11538461538461542,"bonus":0,"bonusSoFar":0,"totalExamples":42},{"rt":null,"stimulus":"Sending examples to student... ","response":null,"trial_type":"html-keyboard-response","trial_index":52,"time_elapsed":517122,"internal_node_id":"0.0-51.0","params":{"nStudents":24,"maxFlips":30,"completionMinutes":45,"basePay":8,"maxBonus":9,"perTrialBonus":0.5,"perTrialBonusThreshold":0.05,"exampleCost":0.01},"classroomParams":{"A":{"a":1,"b":4},"B":{"a":4,"b":1},"C":{"a":2,"b":8},"D":{"a":8,"b":2}},"conditions":["nonSeqFull","nonSeqPartial","seqNoFeedback","seqFeedback"],"classroomPairings":[["A","B"],["C","D"]],"coinWeights":[0.2,0.5,0.8],"subjectId":"A3I40B0FATY8VH","assignmentId":"3RYC5T2D74F2225U9D2NOPR550GRPQ","hitId":"3E9VAUV7BW02QFDK7N7IH7ZKACRYAN","url":"https://gershmanlab.com/experiments/alicia/teaching/experiment/?hitId=3E9VAUV7BW02QFDK7N7IH7ZKACRYAN&workerId=A3I40B0FATY8VH&assignmentId=3RYC5T2D74F2225U9D2NOPR550GRPQ&a=D5YR9&tp_a=D5YR9&b=3RYC5T2D74F2225U9D2NOPR550GRPQ&tp_b=3RYC5T2D74F2225U9D2NOPR550GRPQ&c=365799&tp_c=365799"},{"rt":null,"stimulus":"Examples sent to student! Waiting for student...","response":null,"trial_type":"html-keyboard-response","trial_index":53,"time_elapsed":521623,"internal_node_id":"0.0-52.0","params":{"nStudents":24,"maxFlips":30,"completionMinutes":45,"basePay":8,"maxBonus":9,"perTrialBonus":0.5,"perTrialBonusThreshold":0.05,"exampleCost":0.01},"classroomParams":{"A":{"a":1,"b":4},"B":{"a":4,"b":1},"C":{"a":2,"b":8},"D":{"a":8,"b":2}},"conditions":["nonSeqFull","nonSeqPartial","seqNoFeedback","seqFeedback"],"classroomPairings":[["A","B"],["C","D"]],"coinWeights":[0.2,0.5,0.8],"subjectId":"A3I40B0FATY8VH","assignmentId":"3RYC5T2D74F2225U9D2NOPR550GRPQ","hitId":"3E9VAUV7BW02QFDK7N7IH7ZKACRYAN","url":"https://gershmanlab.com/experiments/alicia/teaching/experiment/?hitId=3E9VAUV7BW02QFDK7N7IH7ZKACRYAN&workerId=A3I40B0FATY8VH&assignmentId=3RYC5T2D74F2225U9D2NOPR550GRPQ&a=D5YR9&tp_a=D5YR9&b=3RYC5T2D74F2225U9D2NOPR550GRPQ&tp_b=3RYC5T2D74F2225U9D2NOPR550GRPQ&c=365799&tp_c=365799"},{"rt":4065,"stimulus":"\n                <p>Student 6's first guess for coin weight: <b style=\"color:Tomato\";>0.69</b></p>\n                <p>Student 6's second guess for coin weight: <b style=\"color:Tomato\";>0.62</b></p>\n                <p>You received a bonus of <b>$0.00</b> based on the student's second guess.</p>\n                <p>Total bonus so far: <b>$0.00</b></p>\n                <p>Press any key to continue.</p>\n                ","response":"5","trial_type":"html-keyboard-response","trial_index":54,"time_elapsed":525688,"internal_node_id":"0.0-53.0","params":{"nStudents":24,"maxFlips":30,"completionMinutes":45,"basePay":8,"maxBonus":9,"perTrialBonus":0.5,"perTrialBonusThreshold":0.05,"exampleCost":0.01},"classroomParams":{"A":{"a":1,"b":4},"B":{"a":4,"b":1},"C":{"a":2,"b":8},"D":{"a":8,"b":2}},"conditions":["nonSeqFull","nonSeqPartial","seqNoFeedback","seqFeedback"],"classroomPairings":[["A","B"],["C","D"]],"coinWeights":[0.2,0.5,0.8],"subjectId":"A3I40B0FATY8VH","assignmentId":"3RYC5T2D74F2225U9D2NOPR550GRPQ","hitId":"3E9VAUV7BW02QFDK7N7IH7ZKACRYAN","url":"https://gershmanlab.com/experiments/alicia/teaching/experiment/?hitId=3E9VAUV7BW02QFDK7N7IH7ZKACRYAN&workerId=A3I40B0FATY8VH&assignmentId=3RYC5T2D74F2225U9D2NOPR550GRPQ&a=D5YR9&tp_a=D5YR9&b=3RYC5T2D74F2225U9D2NOPR550GRPQ&tp_b=3RYC5T2D74F2225U9D2NOPR550GRPQ&c=365799&tp_c=365799"},{"rt":null,"stimulus":"<div style=\"font-size:60px;\">Next student</div>","response":null,"trial_type":"html-keyboard-response","trial_index":55,"time_elapsed":527940,"internal_node_id":"0.0-54.0-0.0","params":{"nStudents":24,"maxFlips":30,"completionMinutes":45,"basePay":8,"maxBonus":9,"perTrialBonus":0.5,"perTrialBonusThreshold":0.05,"exampleCost":0.01},"classroomParams":{"A":{"a":1,"b":4},"B":{"a":4,"b":1},"C":{"a":2,"b":8},"D":{"a":8,"b":2}},"conditions":["nonSeqFull","nonSeqPartial","seqNoFeedback","seqFeedback"],"classroomPairings":[["A","B"],["C","D"]],"coinWeights":[0.2,0.5,0.8],"subjectId":"A3I40B0FATY8VH","assignmentId":"3RYC5T2D74F2225U9D2NOPR550GRPQ","hitId":"3E9VAUV7BW02QFDK7N7IH7ZKACRYAN","url":"https://gershmanlab.com/experiments/alicia/teaching/experiment/?hitId=3E9VAUV7BW02QFDK7N7IH7ZKACRYAN&workerId=A3I40B0FATY8VH&assignmentId=3RYC5T2D74F2225U9D2NOPR550GRPQ&a=D5YR9&tp_a=D5YR9&b=3RYC5T2D74F2225U9D2NOPR550GRPQ&tp_b=3RYC5T2D74F2225U9D2NOPR550GRPQ&c=365799&tp_c=365799"},{"rt":7552,"stimulus":"\n            <h4 style=\"color:Orange;\">Student 7</h4>\n            <h2>The weight of your coin is <b style=\"color:Tomato;\">0.2</b>.</h2>\n            <p>In this block, you will be giving <b>two</b> sets of examples to Student 7.</p>\n                <p>You will see the student's guess after the first set of examples. You will also receive feedback at the end of the block.</p>\n            <p>To earn the highest bonus, you will have to <b>take into consideration the student's guess</b> when you choose your second set of examples.</p>","response":0,"trial_type":"html-button-response","trial_index":56,"time_elapsed":535492,"internal_node_id":"0.0-55.0","params":{"nStudents":24,"maxFlips":30,"completionMinutes":45,"basePay":8,"maxBonus":9,"perTrialBonus":0.5,"perTrialBonusThreshold":0.05,"exampleCost":0.01},"classroomParams":{"A":{"a":1,"b":4},"B":{"a":4,"b":1},"C":{"a":2,"b":8},"D":{"a":8,"b":2}},"conditions":["nonSeqFull","nonSeqPartial","seqNoFeedback","seqFeedback"],"classroomPairings":[["A","B"],["C","D"]],"coinWeights":[0.2,0.5,0.8],"subjectId":"A3I40B0FATY8VH","assignmentId":"3RYC5T2D74F2225U9D2NOPR550GRPQ","hitId":"3E9VAUV7BW02QFDK7N7IH7ZKACRYAN","url":"https://gershmanlab.com/experiments/alicia/teaching/experiment/?hitId=3E9VAUV7BW02QFDK7N7IH7ZKACRYAN&workerId=A3I40B0FATY8VH&assignmentId=3RYC5T2D74F2225U9D2NOPR550GRPQ&a=D5YR9&tp_a=D5YR9&b=3RYC5T2D74F2225U9D2NOPR550GRPQ&tp_b=3RYC5T2D74F2225U9D2NOPR550GRPQ&c=365799&tp_c=365799"},{"rt":11375,"response":{"heads":"0","tails":"15"},"type":"response","condition":"seqFeedback","trueTheta":0.2,"classrooms":["C","D"],"studentTrueClassroom":"D","exampleSet":"first","trial_type":"survey-html-form","trial_index":57,"time_elapsed":546868,"internal_node_id":"0.0-56.0-0.0","params":{"nStudents":24,"maxFlips":30,"completionMinutes":45,"basePay":8,"maxBonus":9,"perTrialBonus":0.5,"perTrialBonusThreshold":0.05,"exampleCost":0.01},"classroomParams":{"A":{"a":1,"b":4},"B":{"a":4,"b":1},"C":{"a":2,"b":8},"D":{"a":8,"b":2}},"conditions":["nonSeqFull","nonSeqPartial","seqNoFeedback","seqFeedback"],"classroomPairings":[["A","B"],["C","D"]],"coinWeights":[0.2,0.5,0.8],"subjectId":"A3I40B0FATY8VH","assignmentId":"3RYC5T2D74F2225U9D2NOPR550GRPQ","hitId":"3E9VAUV7BW02QFDK7N7IH7ZKACRYAN","url":"https://gershmanlab.com/experiments/alicia/teaching/experiment/?hitId=3E9VAUV7BW02QFDK7N7IH7ZKACRYAN&workerId=A3I40B0FATY8VH&assignmentId=3RYC5T2D74F2225U9D2NOPR550GRPQ&a=D5YR9&tp_a=D5YR9&b=3RYC5T2D74F2225U9D2NOPR550GRPQ&tp_b=3RYC5T2D74F2225U9D2NOPR550GRPQ&c=365799&tp_c=365799","heads":0,"tails":15,"studentIndex":6,"studentTrueHypers":{"a":8,"b":2},"studentGuess":0.32,"delta":0.12,"totalExamples":15,"bonusSoFar":0},{"rt":null,"stimulus":"Sending examples to student... ","response":null,"trial_type":"html-keyboard-response","trial_index":58,"time_elapsed":548119,"internal_node_id":"0.0-57.0","params":{"nStudents":24,"maxFlips":30,"completionMinutes":45,"basePay":8,"maxBonus":9,"perTrialBonus":0.5,"perTrialBonusThreshold":0.05,"exampleCost":0.01},"classroomParams":{"A":{"a":1,"b":4},"B":{"a":4,"b":1},"C":{"a":2,"b":8},"D":{"a":8,"b":2}},"conditions":["nonSeqFull","nonSeqPartial","seqNoFeedback","seqFeedback"],"classroomPairings":[["A","B"],["C","D"]],"coinWeights":[0.2,0.5,0.8],"subjectId":"A3I40B0FATY8VH","assignmentId":"3RYC5T2D74F2225U9D2NOPR550GRPQ","hitId":"3E9VAUV7BW02QFDK7N7IH7ZKACRYAN","url":"https://gershmanlab.com/experiments/alicia/teaching/experiment/?hitId=3E9VAUV7BW02QFDK7N7IH7ZKACRYAN&workerId=A3I40B0FATY8VH&assignmentId=3RYC5T2D74F2225U9D2NOPR550GRPQ&a=D5YR9&tp_a=D5YR9&b=3RYC5T2D74F2225U9D2NOPR550GRPQ&tp_b=3RYC5T2D74F2225U9D2NOPR550GRPQ&c=365799&tp_c=365799"},{"rt":null,"stimulus":"Examples sent to student! Waiting for student...","response":null,"trial_type":"html-keyboard-response","trial_index":59,"time_elapsed":552121,"internal_node_id":"0.0-58.0","params":{"nStudents":24,"maxFlips":30,"completionMinutes":45,"basePay":8,"maxBonus":9,"perTrialBonus":0.5,"perTrialBonusThreshold":0.05,"exampleCost":0.01},"classroomParams":{"A":{"a":1,"b":4},"B":{"a":4,"b":1},"C":{"a":2,"b":8},"D":{"a":8,"b":2}},"conditions":["nonSeqFull","nonSeqPartial","seqNoFeedback","seqFeedback"],"classroomPairings":[["A","B"],["C","D"]],"coinWeights":[0.2,0.5,0.8],"subjectId":"A3I40B0FATY8VH","assignmentId":"3RYC5T2D74F2225U9D2NOPR550GRPQ","hitId":"3E9VAUV7BW02QFDK7N7IH7ZKACRYAN","url":"https://gershmanlab.com/experiments/alicia/teaching/experiment/?hitId=3E9VAUV7BW02QFDK7N7IH7ZKACRYAN&workerId=A3I40B0FATY8VH&assignmentId=3RYC5T2D74F2225U9D2NOPR550GRPQ&a=D5YR9&tp_a=D5YR9&b=3RYC5T2D74F2225U9D2NOPR550GRPQ&tp_b=3RYC5T2D74F2225U9D2NOPR550GRPQ&c=365799&tp_c=365799"},{"rt":4402,"stimulus":"\n                <p>Student's guess for coin weight: <b style=\"color:Tomato;\">0.32</b></p>\n                <p></b></p>\n                <p>You will now send another set of examples to your student. <b>Remember to take your student's guess into consideration so that you can earn the highest bonus possible!</b> </p>\n                <p>Press any key to continue.</p>\n                ","response":"5","trial_type":"html-keyboard-response","trial_index":60,"time_elapsed":556523,"internal_node_id":"0.0-59.0","params":{"nStudents":24,"maxFlips":30,"completionMinutes":45,"basePay":8,"maxBonus":9,"perTrialBonus":0.5,"perTrialBonusThreshold":0.05,"exampleCost":0.01},"classroomParams":{"A":{"a":1,"b":4},"B":{"a":4,"b":1},"C":{"a":2,"b":8},"D":{"a":8,"b":2}},"conditions":["nonSeqFull","nonSeqPartial","seqNoFeedback","seqFeedback"],"classroomPairings":[["A","B"],["C","D"]],"coinWeights":[0.2,0.5,0.8],"subjectId":"A3I40B0FATY8VH","assignmentId":"3RYC5T2D74F2225U9D2NOPR550GRPQ","hitId":"3E9VAUV7BW02QFDK7N7IH7ZKACRYAN","url":"https://gershmanlab.com/experiments/alicia/teaching/experiment/?hitId=3E9VAUV7BW02QFDK7N7IH7ZKACRYAN&workerId=A3I40B0FATY8VH&assignmentId=3RYC5T2D74F2225U9D2NOPR550GRPQ&a=D5YR9&tp_a=D5YR9&b=3RYC5T2D74F2225U9D2NOPR550GRPQ&tp_b=3RYC5T2D74F2225U9D2NOPR550GRPQ&c=365799&tp_c=365799"},{"rt":9883,"response":{"heads":"10","tails":"20"},"type":"response","condition":"seqFeedback","trueTheta":0.2,"classrooms":["C","D"],"studentTrueClassroom":"D","exampleSet":"second","trial_type":"survey-html-form","trial_index":61,"time_elapsed":566407,"internal_node_id":"0.0-60.0-0.0","params":{"nStudents":24,"maxFlips":30,"completionMinutes":45,"basePay":8,"maxBonus":9,"perTrialBonus":0.5,"perTrialBonusThreshold":0.05,"exampleCost":0.01},"classroomParams":{"A":{"a":1,"b":4},"B":{"a":4,"b":1},"C":{"a":2,"b":8},"D":{"a":8,"b":2}},"conditions":["nonSeqFull","nonSeqPartial","seqNoFeedback","seqFeedback"],"classroomPairings":[["A","B"],["C","D"]],"coinWeights":[0.2,0.5,0.8],"subjectId":"A3I40B0FATY8VH","assignmentId":"3RYC5T2D74F2225U9D2NOPR550GRPQ","hitId":"3E9VAUV7BW02QFDK7N7IH7ZKACRYAN","url":"https://gershmanlab.com/experiments/alicia/teaching/experiment/?hitId=3E9VAUV7BW02QFDK7N7IH7ZKACRYAN&workerId=A3I40B0FATY8VH&assignmentId=3RYC5T2D74F2225U9D2NOPR550GRPQ&a=D5YR9&tp_a=D5YR9&b=3RYC5T2D74F2225U9D2NOPR550GRPQ&tp_b=3RYC5T2D74F2225U9D2NOPR550GRPQ&c=365799&tp_c=365799","firstResponseHeads":0,"firstResponseTails":15,"secondResponseHeads":10,"secondResponseTails":20,"totalHeads":10,"totalTails":35,"studentIndex":6,"studentTrueHypers":{"a":8,"b":2},"studentGuess":0.32727272727272727,"delta":0.12727272727272726,"bonus":0,"bonusSoFar":0,"totalExamples":45},{"rt":null,"stimulus":"Sending examples to student... ","response":null,"trial_type":"html-keyboard-response","trial_index":62,"time_elapsed":568159,"internal_node_id":"0.0-61.0","params":{"nStudents":24,"maxFlips":30,"completionMinutes":45,"basePay":8,"maxBonus":9,"perTrialBonus":0.5,"perTrialBonusThreshold":0.05,"exampleCost":0.01},"classroomParams":{"A":{"a":1,"b":4},"B":{"a":4,"b":1},"C":{"a":2,"b":8},"D":{"a":8,"b":2}},"conditions":["nonSeqFull","nonSeqPartial","seqNoFeedback","seqFeedback"],"classroomPairings":[["A","B"],["C","D"]],"coinWeights":[0.2,0.5,0.8],"subjectId":"A3I40B0FATY8VH","assignmentId":"3RYC5T2D74F2225U9D2NOPR550GRPQ","hitId":"3E9VAUV7BW02QFDK7N7IH7ZKACRYAN","url":"https://gershmanlab.com/experiments/alicia/teaching/experiment/?hitId=3E9VAUV7BW02QFDK7N7IH7ZKACRYAN&workerId=A3I40B0FATY8VH&assignmentId=3RYC5T2D74F2225U9D2NOPR550GRPQ&a=D5YR9&tp_a=D5YR9&b=3RYC5T2D74F2225U9D2NOPR550GRPQ&tp_b=3RYC5T2D74F2225U9D2NOPR550GRPQ&c=365799&tp_c=365799"},{"rt":null,"stimulus":"Examples sent to student! Waiting for student...","response":null,"trial_type":"html-keyboard-response","trial_index":63,"time_elapsed":573160,"internal_node_id":"0.0-62.0","params":{"nStudents":24,"maxFlips":30,"completionMinutes":45,"basePay":8,"maxBonus":9,"perTrialBonus":0.5,"perTrialBonusThreshold":0.05,"exampleCost":0.01},"classroomParams":{"A":{"a":1,"b":4},"B":{"a":4,"b":1},"C":{"a":2,"b":8},"D":{"a":8,"b":2}},"conditions":["nonSeqFull","nonSeqPartial","seqNoFeedback","seqFeedback"],"classroomPairings":[["A","B"],["C","D"]],"coinWeights":[0.2,0.5,0.8],"subjectId":"A3I40B0FATY8VH","assignmentId":"3RYC5T2D74F2225U9D2NOPR550GRPQ","hitId":"3E9VAUV7BW02QFDK7N7IH7ZKACRYAN","url":"https://gershmanlab.com/experiments/alicia/teaching/experiment/?hitId=3E9VAUV7BW02QFDK7N7IH7ZKACRYAN&workerId=A3I40B0FATY8VH&assignmentId=3RYC5T2D74F2225U9D2NOPR550GRPQ&a=D5YR9&tp_a=D5YR9&b=3RYC5T2D74F2225U9D2NOPR550GRPQ&tp_b=3RYC5T2D74F2225U9D2NOPR550GRPQ&c=365799&tp_c=365799"},{"rt":9536,"stimulus":"\n                <p>Student 7's first guess for coin weight: <b style=\"color:Tomato\";>0.32</b></p>\n                <p>Student 7's second guess for coin weight: <b style=\"color:Tomato\";>0.33</b></p>\n                <p>You received a bonus of <b>$0.00</b> based on the student's second guess.</p>\n                <p>Total bonus so far: <b>$0.00</b></p>\n                <p>Press any key to continue.</p>\n                ","response":"5","trial_type":"html-keyboard-response","trial_index":64,"time_elapsed":582697,"internal_node_id":"0.0-63.0","params":{"nStudents":24,"maxFlips":30,"completionMinutes":45,"basePay":8,"maxBonus":9,"perTrialBonus":0.5,"perTrialBonusThreshold":0.05,"exampleCost":0.01},"classroomParams":{"A":{"a":1,"b":4},"B":{"a":4,"b":1},"C":{"a":2,"b":8},"D":{"a":8,"b":2}},"conditions":["nonSeqFull","nonSeqPartial","seqNoFeedback","seqFeedback"],"classroomPairings":[["A","B"],["C","D"]],"coinWeights":[0.2,0.5,0.8],"subjectId":"A3I40B0FATY8VH","assignmentId":"3RYC5T2D74F2225U9D2NOPR550GRPQ","hitId":"3E9VAUV7BW02QFDK7N7IH7ZKACRYAN","url":"https://gershmanlab.com/experiments/alicia/teaching/experiment/?hitId=3E9VAUV7BW02QFDK7N7IH7ZKACRYAN&workerId=A3I40B0FATY8VH&assignmentId=3RYC5T2D74F2225U9D2NOPR550GRPQ&a=D5YR9&tp_a=D5YR9&b=3RYC5T2D74F2225U9D2NOPR550GRPQ&tp_b=3RYC5T2D74F2225U9D2NOPR550GRPQ&c=365799&tp_c=365799"},{"rt":null,"stimulus":"<div style=\"font-size:60px;\">Next student</div>","response":null,"trial_type":"html-keyboard-response","trial_index":65,"time_elapsed":584698,"internal_node_id":"0.0-64.0-0.0","params":{"nStudents":24,"maxFlips":30,"completionMinutes":45,"basePay":8,"maxBonus":9,"perTrialBonus":0.5,"perTrialBonusThreshold":0.05,"exampleCost":0.01},"classroomParams":{"A":{"a":1,"b":4},"B":{"a":4,"b":1},"C":{"a":2,"b":8},"D":{"a":8,"b":2}},"conditions":["nonSeqFull","nonSeqPartial","seqNoFeedback","seqFeedback"],"classroomPairings":[["A","B"],["C","D"]],"coinWeights":[0.2,0.5,0.8],"subjectId":"A3I40B0FATY8VH","assignmentId":"3RYC5T2D74F2225U9D2NOPR550GRPQ","hitId":"3E9VAUV7BW02QFDK7N7IH7ZKACRYAN","url":"https://gershmanlab.com/experiments/alicia/teaching/experiment/?hitId=3E9VAUV7BW02QFDK7N7IH7ZKACRYAN&workerId=A3I40B0FATY8VH&assignmentId=3RYC5T2D74F2225U9D2NOPR550GRPQ&a=D5YR9&tp_a=D5YR9&b=3RYC5T2D74F2225U9D2NOPR550GRPQ&tp_b=3RYC5T2D74F2225U9D2NOPR550GRPQ&c=365799&tp_c=365799"},{"rt":5651,"stimulus":"\n            <h4 style=\"color:Orange;\">Student 8</h4>\n            <h2>The weight of your coin is <b style=\"color:Tomato;\">0.5</b>.</h2>\n            <p>In this block, you will be giving <b>two</b> sets of examples to Student 8.</p>\n                <p>You will see the student's guess after the first set of examples. You will also receive feedback at the end of the block.</p>\n            <p>To earn the highest bonus, you will have to <b>take into consideration the student's guess</b> when you choose your second set of examples.</p>","response":0,"trial_type":"html-button-response","trial_index":66,"time_elapsed":590350,"internal_node_id":"0.0-65.0","params":{"nStudents":24,"maxFlips":30,"completionMinutes":45,"basePay":8,"maxBonus":9,"perTrialBonus":0.5,"perTrialBonusThreshold":0.05,"exampleCost":0.01},"classroomParams":{"A":{"a":1,"b":4},"B":{"a":4,"b":1},"C":{"a":2,"b":8},"D":{"a":8,"b":2}},"conditions":["nonSeqFull","nonSeqPartial","seqNoFeedback","seqFeedback"],"classroomPairings":[["A","B"],["C","D"]],"coinWeights":[0.2,0.5,0.8],"subjectId":"A3I40B0FATY8VH","assignmentId":"3RYC5T2D74F2225U9D2NOPR550GRPQ","hitId":"3E9VAUV7BW02QFDK7N7IH7ZKACRYAN","url":"https://gershmanlab.com/experiments/alicia/teaching/experiment/?hitId=3E9VAUV7BW02QFDK7N7IH7ZKACRYAN&workerId=A3I40B0FATY8VH&assignmentId=3RYC5T2D74F2225U9D2NOPR550GRPQ&a=D5YR9&tp_a=D5YR9&b=3RYC5T2D74F2225U9D2NOPR550GRPQ&tp_b=3RYC5T2D74F2225U9D2NOPR550GRPQ&c=365799&tp_c=365799"},{"rt":5648,"response":{"heads":"10","tails":"10"},"type":"response","condition":"seqFeedback","trueTheta":0.5,"classrooms":["A","B"],"studentTrueClassroom":"A","exampleSet":"first","trial_type":"survey-html-form","trial_index":67,"time_elapsed":595998,"internal_node_id":"0.0-66.0-0.0","params":{"nStudents":24,"maxFlips":30,"completionMinutes":45,"basePay":8,"maxBonus":9,"perTrialBonus":0.5,"perTrialBonusThreshold":0.05,"exampleCost":0.01},"classroomParams":{"A":{"a":1,"b":4},"B":{"a":4,"b":1},"C":{"a":2,"b":8},"D":{"a":8,"b":2}},"conditions":["nonSeqFull","nonSeqPartial","seqNoFeedback","seqFeedback"],"classroomPairings":[["A","B"],["C","D"]],"coinWeights":[0.2,0.5,0.8],"subjectId":"A3I40B0FATY8VH","assignmentId":"3RYC5T2D74F2225U9D2NOPR550GRPQ","hitId":"3E9VAUV7BW02QFDK7N7IH7ZKACRYAN","url":"https://gershmanlab.com/experiments/alicia/teaching/experiment/?hitId=3E9VAUV7BW02QFDK7N7IH7ZKACRYAN&workerId=A3I40B0FATY8VH&assignmentId=3RYC5T2D74F2225U9D2NOPR550GRPQ&a=D5YR9&tp_a=D5YR9&b=3RYC5T2D74F2225U9D2NOPR550GRPQ&tp_b=3RYC5T2D74F2225U9D2NOPR550GRPQ&c=365799&tp_c=365799","heads":10,"tails":10,"studentIndex":7,"studentTrueHypers":{"a":1,"b":4},"studentGuess":0.44,"delta":0.06,"totalExamples":20,"bonusSoFar":0},{"rt":null,"stimulus":"Sending examples to student... ","response":null,"trial_type":"html-keyboard-response","trial_index":68,"time_elapsed":597999,"internal_node_id":"0.0-67.0","params":{"nStudents":24,"maxFlips":30,"completionMinutes":45,"basePay":8,"maxBonus":9,"perTrialBonus":0.5,"perTrialBonusThreshold":0.05,"exampleCost":0.01},"classroomParams":{"A":{"a":1,"b":4},"B":{"a":4,"b":1},"C":{"a":2,"b":8},"D":{"a":8,"b":2}},"conditions":["nonSeqFull","nonSeqPartial","seqNoFeedback","seqFeedback"],"classroomPairings":[["A","B"],["C","D"]],"coinWeights":[0.2,0.5,0.8],"subjectId":"A3I40B0FATY8VH","assignmentId":"3RYC5T2D74F2225U9D2NOPR550GRPQ","hitId":"3E9VAUV7BW02QFDK7N7IH7ZKACRYAN","url":"https://gershmanlab.com/experiments/alicia/teaching/experiment/?hitId=3E9VAUV7BW02QFDK7N7IH7ZKACRYAN&workerId=A3I40B0FATY8VH&assignmentId=3RYC5T2D74F2225U9D2NOPR550GRPQ&a=D5YR9&tp_a=D5YR9&b=3RYC5T2D74F2225U9D2NOPR550GRPQ&tp_b=3RYC5T2D74F2225U9D2NOPR550GRPQ&c=365799&tp_c=365799"},{"rt":null,"stimulus":"Examples sent to student! Waiting for student...","response":null,"trial_type":"html-keyboard-response","trial_index":69,"time_elapsed":603001,"internal_node_id":"0.0-68.0","params":{"nStudents":24,"maxFlips":30,"completionMinutes":45,"basePay":8,"maxBonus":9,"perTrialBonus":0.5,"perTrialBonusThreshold":0.05,"exampleCost":0.01},"classroomParams":{"A":{"a":1,"b":4},"B":{"a":4,"b":1},"C":{"a":2,"b":8},"D":{"a":8,"b":2}},"conditions":["nonSeqFull","nonSeqPartial","seqNoFeedback","seqFeedback"],"classroomPairings":[["A","B"],["C","D"]],"coinWeights":[0.2,0.5,0.8],"subjectId":"A3I40B0FATY8VH","assignmentId":"3RYC5T2D74F2225U9D2NOPR550GRPQ","hitId":"3E9VAUV7BW02QFDK7N7IH7ZKACRYAN","url":"https://gershmanlab.com/experiments/alicia/teaching/experiment/?hitId=3E9VAUV7BW02QFDK7N7IH7ZKACRYAN&workerId=A3I40B0FATY8VH&assignmentId=3RYC5T2D74F2225U9D2NOPR550GRPQ&a=D5YR9&tp_a=D5YR9&b=3RYC5T2D74F2225U9D2NOPR550GRPQ&tp_b=3RYC5T2D74F2225U9D2NOPR550GRPQ&c=365799&tp_c=365799"},{"rt":4510,"stimulus":"\n                <p>Student's guess for coin weight: <b style=\"color:Tomato;\">0.44</b></p>\n                <p></b></p>\n                <p>You will now send another set of examples to your student. <b>Remember to take your student's guess into consideration so that you can earn the highest bonus possible!</b> </p>\n                <p>Press any key to continue.</p>\n                ","response":"5","trial_type":"html-keyboard-response","trial_index":70,"time_elapsed":607512,"internal_node_id":"0.0-69.0","params":{"nStudents":24,"maxFlips":30,"completionMinutes":45,"basePay":8,"maxBonus":9,"perTrialBonus":0.5,"perTrialBonusThreshold":0.05,"exampleCost":0.01},"classroomParams":{"A":{"a":1,"b":4},"B":{"a":4,"b":1},"C":{"a":2,"b":8},"D":{"a":8,"b":2}},"conditions":["nonSeqFull","nonSeqPartial","seqNoFeedback","seqFeedback"],"classroomPairings":[["A","B"],["C","D"]],"coinWeights":[0.2,0.5,0.8],"subjectId":"A3I40B0FATY8VH","assignmentId":"3RYC5T2D74F2225U9D2NOPR550GRPQ","hitId":"3E9VAUV7BW02QFDK7N7IH7ZKACRYAN","url":"https://gershmanlab.com/experiments/alicia/teaching/experiment/?hitId=3E9VAUV7BW02QFDK7N7IH7ZKACRYAN&workerId=A3I40B0FATY8VH&assignmentId=3RYC5T2D74F2225U9D2NOPR550GRPQ&a=D5YR9&tp_a=D5YR9&b=3RYC5T2D74F2225U9D2NOPR550GRPQ&tp_b=3RYC5T2D74F2225U9D2NOPR550GRPQ&c=365799&tp_c=365799"},{"rt":6931,"response":{"heads":"12","tails":"12"},"type":"response","condition":"seqFeedback","trueTheta":0.5,"classrooms":["A","B"],"studentTrueClassroom":"A","exampleSet":"second","trial_type":"survey-html-form","trial_index":71,"time_elapsed":614444,"internal_node_id":"0.0-70.0-0.0","params":{"nStudents":24,"maxFlips":30,"completionMinutes":45,"basePay":8,"maxBonus":9,"perTrialBonus":0.5,"perTrialBonusThreshold":0.05,"exampleCost":0.01},"classroomParams":{"A":{"a":1,"b":4},"B":{"a":4,"b":1},"C":{"a":2,"b":8},"D":{"a":8,"b":2}},"conditions":["nonSeqFull","nonSeqPartial","seqNoFeedback","seqFeedback"],"classroomPairings":[["A","B"],["C","D"]],"coinWeights":[0.2,0.5,0.8],"subjectId":"A3I40B0FATY8VH","assignmentId":"3RYC5T2D74F2225U9D2NOPR550GRPQ","hitId":"3E9VAUV7BW02QFDK7N7IH7ZKACRYAN","url":"https://gershmanlab.com/experiments/alicia/teaching/experiment/?hitId=3E9VAUV7BW02QFDK7N7IH7ZKACRYAN&workerId=A3I40B0FATY8VH&assignmentId=3RYC5T2D74F2225U9D2NOPR550GRPQ&a=D5YR9&tp_a=D5YR9&b=3RYC5T2D74F2225U9D2NOPR550GRPQ&tp_b=3RYC5T2D74F2225U9D2NOPR550GRPQ&c=365799&tp_c=365799","firstResponseHeads":10,"firstResponseTails":10,"secondResponseHeads":12,"secondResponseTails":12,"totalHeads":22,"totalTails":22,"studentIndex":7,"studentTrueHypers":{"a":1,"b":4},"studentGuess":0.46938775510204084,"delta":0.030612244897959162,"bonus":0.06,"bonusSoFar":0.06,"totalExamples":44},{"rt":null,"stimulus":"Sending examples to student... ","response":null,"trial_type":"html-keyboard-response","trial_index":72,"time_elapsed":615945,"internal_node_id":"0.0-71.0","params":{"nStudents":24,"maxFlips":30,"completionMinutes":45,"basePay":8,"maxBonus":9,"perTrialBonus":0.5,"perTrialBonusThreshold":0.05,"exampleCost":0.01},"classroomParams":{"A":{"a":1,"b":4},"B":{"a":4,"b":1},"C":{"a":2,"b":8},"D":{"a":8,"b":2}},"conditions":["nonSeqFull","nonSeqPartial","seqNoFeedback","seqFeedback"],"classroomPairings":[["A","B"],["C","D"]],"coinWeights":[0.2,0.5,0.8],"subjectId":"A3I40B0FATY8VH","assignmentId":"3RYC5T2D74F2225U9D2NOPR550GRPQ","hitId":"3E9VAUV7BW02QFDK7N7IH7ZKACRYAN","url":"https://gershmanlab.com/experiments/alicia/teaching/experiment/?hitId=3E9VAUV7BW02QFDK7N7IH7ZKACRYAN&workerId=A3I40B0FATY8VH&assignmentId=3RYC5T2D74F2225U9D2NOPR550GRPQ&a=D5YR9&tp_a=D5YR9&b=3RYC5T2D74F2225U9D2NOPR550GRPQ&tp_b=3RYC5T2D74F2225U9D2NOPR550GRPQ&c=365799&tp_c=365799"},{"rt":null,"stimulus":"Examples sent to student! Waiting for student...","response":null,"trial_type":"html-keyboard-response","trial_index":73,"time_elapsed":619946,"internal_node_id":"0.0-72.0","params":{"nStudents":24,"maxFlips":30,"completionMinutes":45,"basePay":8,"maxBonus":9,"perTrialBonus":0.5,"perTrialBonusThreshold":0.05,"exampleCost":0.01},"classroomParams":{"A":{"a":1,"b":4},"B":{"a":4,"b":1},"C":{"a":2,"b":8},"D":{"a":8,"b":2}},"conditions":["nonSeqFull","nonSeqPartial","seqNoFeedback","seqFeedback"],"classroomPairings":[["A","B"],["C","D"]],"coinWeights":[0.2,0.5,0.8],"subjectId":"A3I40B0FATY8VH","assignmentId":"3RYC5T2D74F2225U9D2NOPR550GRPQ","hitId":"3E9VAUV7BW02QFDK7N7IH7ZKACRYAN","url":"https://gershmanlab.com/experiments/alicia/teaching/experiment/?hitId=3E9VAUV7BW02QFDK7N7IH7ZKACRYAN&workerId=A3I40B0FATY8VH&assignmentId=3RYC5T2D74F2225U9D2NOPR550GRPQ&a=D5YR9&tp_a=D5YR9&b=3RYC5T2D74F2225U9D2NOPR550GRPQ&tp_b=3RYC5T2D74F2225U9D2NOPR550GRPQ&c=365799&tp_c=365799"},{"rt":4923,"stimulus":"\n                <p>Student 8's first guess for coin weight: <b style=\"color:Tomato\";>0.44</b></p>\n                <p>Student 8's second guess for coin weight: <b style=\"color:Tomato\";>0.47</b></p>\n                <p>You received a bonus of <b>$0.06</b> based on the student's second guess.</p>\n                <p>Total bonus so far: <b>$0.06</b></p>\n                <p>Press any key to continue.</p>\n                ","response":"5","trial_type":"html-keyboard-response","trial_index":74,"time_elapsed":624870,"internal_node_id":"0.0-73.0","params":{"nStudents":24,"maxFlips":30,"completionMinutes":45,"basePay":8,"maxBonus":9,"perTrialBonus":0.5,"perTrialBonusThreshold":0.05,"exampleCost":0.01},"classroomParams":{"A":{"a":1,"b":4},"B":{"a":4,"b":1},"C":{"a":2,"b":8},"D":{"a":8,"b":2}},"conditions":["nonSeqFull","nonSeqPartial","seqNoFeedback","seqFeedback"],"classroomPairings":[["A","B"],["C","D"]],"coinWeights":[0.2,0.5,0.8],"subjectId":"A3I40B0FATY8VH","assignmentId":"3RYC5T2D74F2225U9D2NOPR550GRPQ","hitId":"3E9VAUV7BW02QFDK7N7IH7ZKACRYAN","url":"https://gershmanlab.com/experiments/alicia/teaching/experiment/?hitId=3E9VAUV7BW02QFDK7N7IH7ZKACRYAN&workerId=A3I40B0FATY8VH&assignmentId=3RYC5T2D74F2225U9D2NOPR550GRPQ&a=D5YR9&tp_a=D5YR9&b=3RYC5T2D74F2225U9D2NOPR550GRPQ&tp_b=3RYC5T2D74F2225U9D2NOPR550GRPQ&c=365799&tp_c=365799"},{"rt":null,"stimulus":"<div style=\"font-size:60px;\">Next student</div>","response":null,"trial_type":"html-keyboard-response","trial_index":75,"time_elapsed":627371,"internal_node_id":"0.0-74.0-0.0","params":{"nStudents":24,"maxFlips":30,"completionMinutes":45,"basePay":8,"maxBonus":9,"perTrialBonus":0.5,"perTrialBonusThreshold":0.05,"exampleCost":0.01},"classroomParams":{"A":{"a":1,"b":4},"B":{"a":4,"b":1},"C":{"a":2,"b":8},"D":{"a":8,"b":2}},"conditions":["nonSeqFull","nonSeqPartial","seqNoFeedback","seqFeedback"],"classroomPairings":[["A","B"],["C","D"]],"coinWeights":[0.2,0.5,0.8],"subjectId":"A3I40B0FATY8VH","assignmentId":"3RYC5T2D74F2225U9D2NOPR550GRPQ","hitId":"3E9VAUV7BW02QFDK7N7IH7ZKACRYAN","url":"https://gershmanlab.com/experiments/alicia/teaching/experiment/?hitId=3E9VAUV7BW02QFDK7N7IH7ZKACRYAN&workerId=A3I40B0FATY8VH&assignmentId=3RYC5T2D74F2225U9D2NOPR550GRPQ&a=D5YR9&tp_a=D5YR9&b=3RYC5T2D74F2225U9D2NOPR550GRPQ&tp_b=3RYC5T2D74F2225U9D2NOPR550GRPQ&c=365799&tp_c=365799"},{"rt":2720,"stimulus":"\n            <h4 style=\"color:Orange;\">Student 9</h4>\n            <h2>The weight of your coin is <b style=\"color:Tomato;\">0.5</b>.</h2>\n            <p>In this block, you will be giving <b>one</b> set of examples to Student 9.</p>\n                <p>You will receive feedback at the end of the block.</p>\n            <p></p>","response":0,"trial_type":"html-button-response","trial_index":76,"time_elapsed":630092,"internal_node_id":"0.0-75.0","params":{"nStudents":24,"maxFlips":30,"completionMinutes":45,"basePay":8,"maxBonus":9,"perTrialBonus":0.5,"perTrialBonusThreshold":0.05,"exampleCost":0.01},"classroomParams":{"A":{"a":1,"b":4},"B":{"a":4,"b":1},"C":{"a":2,"b":8},"D":{"a":8,"b":2}},"conditions":["nonSeqFull","nonSeqPartial","seqNoFeedback","seqFeedback"],"classroomPairings":[["A","B"],["C","D"]],"coinWeights":[0.2,0.5,0.8],"subjectId":"A3I40B0FATY8VH","assignmentId":"3RYC5T2D74F2225U9D2NOPR550GRPQ","hitId":"3E9VAUV7BW02QFDK7N7IH7ZKACRYAN","url":"https://gershmanlab.com/experiments/alicia/teaching/experiment/?hitId=3E9VAUV7BW02QFDK7N7IH7ZKACRYAN&workerId=A3I40B0FATY8VH&assignmentId=3RYC5T2D74F2225U9D2NOPR550GRPQ&a=D5YR9&tp_a=D5YR9&b=3RYC5T2D74F2225U9D2NOPR550GRPQ&tp_b=3RYC5T2D74F2225U9D2NOPR550GRPQ&c=365799&tp_c=365799"},{"rt":3896,"response":{"heads":"12","tails":"12"},"type":"response","condition":"nonSeqPartial","trueTheta":0.5,"classrooms":["A","B"],"studentTrueClassroom":"B","exampleSet":"first","trial_type":"survey-html-form","trial_index":77,"time_elapsed":633989,"internal_node_id":"0.0-76.0-0.0","params":{"nStudents":24,"maxFlips":30,"completionMinutes":45,"basePay":8,"maxBonus":9,"perTrialBonus":0.5,"perTrialBonusThreshold":0.05,"exampleCost":0.01},"classroomParams":{"A":{"a":1,"b":4},"B":{"a":4,"b":1},"C":{"a":2,"b":8},"D":{"a":8,"b":2}},"conditions":["nonSeqFull","nonSeqPartial","seqNoFeedback","seqFeedback"],"classroomPairings":[["A","B"],["C","D"]],"coinWeights":[0.2,0.5,0.8],"subjectId":"A3I40B0FATY8VH","assignmentId":"3RYC5T2D74F2225U9D2NOPR550GRPQ","hitId":"3E9VAUV7BW02QFDK7N7IH7ZKACRYAN","url":"https://gershmanlab.com/experiments/alicia/teaching/experiment/?hitId=3E9VAUV7BW02QFDK7N7IH7ZKACRYAN&workerId=A3I40B0FATY8VH&assignmentId=3RYC5T2D74F2225U9D2NOPR550GRPQ&a=D5YR9&tp_a=D5YR9&b=3RYC5T2D74F2225U9D2NOPR550GRPQ&tp_b=3RYC5T2D74F2225U9D2NOPR550GRPQ&c=365799&tp_c=365799","heads":12,"tails":12,"studentIndex":8,"studentTrueHypers":{"a":4,"b":1},"studentGuess":0.5517241379310345,"delta":0.051724137931034475,"totalExamples":24,"bonus":0,"bonusSoFar":0.06},{"rt":null,"stimulus":"Sending examples to student... ","response":null,"trial_type":"html-keyboard-response","trial_index":78,"time_elapsed":635240,"internal_node_id":"0.0-77.0","params":{"nStudents":24,"maxFlips":30,"completionMinutes":45,"basePay":8,"maxBonus":9,"perTrialBonus":0.5,"perTrialBonusThreshold":0.05,"exampleCost":0.01},"classroomParams":{"A":{"a":1,"b":4},"B":{"a":4,"b":1},"C":{"a":2,"b":8},"D":{"a":8,"b":2}},"conditions":["nonSeqFull","nonSeqPartial","seqNoFeedback","seqFeedback"],"classroomPairings":[["A","B"],["C","D"]],"coinWeights":[0.2,0.5,0.8],"subjectId":"A3I40B0FATY8VH","assignmentId":"3RYC5T2D74F2225U9D2NOPR550GRPQ","hitId":"3E9VAUV7BW02QFDK7N7IH7ZKACRYAN","url":"https://gershmanlab.com/experiments/alicia/teaching/experiment/?hitId=3E9VAUV7BW02QFDK7N7IH7ZKACRYAN&workerId=A3I40B0FATY8VH&assignmentId=3RYC5T2D74F2225U9D2NOPR550GRPQ&a=D5YR9&tp_a=D5YR9&b=3RYC5T2D74F2225U9D2NOPR550GRPQ&tp_b=3RYC5T2D74F2225U9D2NOPR550GRPQ&c=365799&tp_c=365799"},{"rt":null,"stimulus":"Examples sent to student! Waiting for student...","response":null,"trial_type":"html-keyboard-response","trial_index":79,"time_elapsed":640241,"internal_node_id":"0.0-78.0","params":{"nStudents":24,"maxFlips":30,"completionMinutes":45,"basePay":8,"maxBonus":9,"perTrialBonus":0.5,"perTrialBonusThreshold":0.05,"exampleCost":0.01},"classroomParams":{"A":{"a":1,"b":4},"B":{"a":4,"b":1},"C":{"a":2,"b":8},"D":{"a":8,"b":2}},"conditions":["nonSeqFull","nonSeqPartial","seqNoFeedback","seqFeedback"],"classroomPairings":[["A","B"],["C","D"]],"coinWeights":[0.2,0.5,0.8],"subjectId":"A3I40B0FATY8VH","assignmentId":"3RYC5T2D74F2225U9D2NOPR550GRPQ","hitId":"3E9VAUV7BW02QFDK7N7IH7ZKACRYAN","url":"https://gershmanlab.com/experiments/alicia/teaching/experiment/?hitId=3E9VAUV7BW02QFDK7N7IH7ZKACRYAN&workerId=A3I40B0FATY8VH&assignmentId=3RYC5T2D74F2225U9D2NOPR550GRPQ&a=D5YR9&tp_a=D5YR9&b=3RYC5T2D74F2225U9D2NOPR550GRPQ&tp_b=3RYC5T2D74F2225U9D2NOPR550GRPQ&c=365799&tp_c=365799"},{"rt":5098,"stimulus":"\n                <p>Student's guess for coin weight: <b style=\"color:Tomato;\">0.55</b></p>\n                <p>You received a bonus of <b>$0</b>. Total bonus so far: <b>$0.06</b></b></p>\n                <p></p>\n                <p>Press any key to continue.</p>\n                ","response":"5","trial_type":"html-keyboard-response","trial_index":80,"time_elapsed":645339,"internal_node_id":"0.0-79.0","params":{"nStudents":24,"maxFlips":30,"completionMinutes":45,"basePay":8,"maxBonus":9,"perTrialBonus":0.5,"perTrialBonusThreshold":0.05,"exampleCost":0.01},"classroomParams":{"A":{"a":1,"b":4},"B":{"a":4,"b":1},"C":{"a":2,"b":8},"D":{"a":8,"b":2}},"conditions":["nonSeqFull","nonSeqPartial","seqNoFeedback","seqFeedback"],"classroomPairings":[["A","B"],["C","D"]],"coinWeights":[0.2,0.5,0.8],"subjectId":"A3I40B0FATY8VH","assignmentId":"3RYC5T2D74F2225U9D2NOPR550GRPQ","hitId":"3E9VAUV7BW02QFDK7N7IH7ZKACRYAN","url":"https://gershmanlab.com/experiments/alicia/teaching/experiment/?hitId=3E9VAUV7BW02QFDK7N7IH7ZKACRYAN&workerId=A3I40B0FATY8VH&assignmentId=3RYC5T2D74F2225U9D2NOPR550GRPQ&a=D5YR9&tp_a=D5YR9&b=3RYC5T2D74F2225U9D2NOPR550GRPQ&tp_b=3RYC5T2D74F2225U9D2NOPR550GRPQ&c=365799&tp_c=365799"},{"rt":null,"stimulus":"<div style=\"font-size:60px;\">Next student</div>","response":null,"trial_type":"html-keyboard-response","trial_index":81,"time_elapsed":648341,"internal_node_id":"0.0-80.0-0.0","params":{"nStudents":24,"maxFlips":30,"completionMinutes":45,"basePay":8,"maxBonus":9,"perTrialBonus":0.5,"perTrialBonusThreshold":0.05,"exampleCost":0.01},"classroomParams":{"A":{"a":1,"b":4},"B":{"a":4,"b":1},"C":{"a":2,"b":8},"D":{"a":8,"b":2}},"conditions":["nonSeqFull","nonSeqPartial","seqNoFeedback","seqFeedback"],"classroomPairings":[["A","B"],["C","D"]],"coinWeights":[0.2,0.5,0.8],"subjectId":"A3I40B0FATY8VH","assignmentId":"3RYC5T2D74F2225U9D2NOPR550GRPQ","hitId":"3E9VAUV7BW02QFDK7N7IH7ZKACRYAN","url":"https://gershmanlab.com/experiments/alicia/teaching/experiment/?hitId=3E9VAUV7BW02QFDK7N7IH7ZKACRYAN&workerId=A3I40B0FATY8VH&assignmentId=3RYC5T2D74F2225U9D2NOPR550GRPQ&a=D5YR9&tp_a=D5YR9&b=3RYC5T2D74F2225U9D2NOPR550GRPQ&tp_b=3RYC5T2D74F2225U9D2NOPR550GRPQ&c=365799&tp_c=365799"},{"rt":2987,"stimulus":"\n            <h4 style=\"color:Orange;\">Student 10</h4>\n            <h2>The weight of your coin is <b style=\"color:Tomato;\">0.2</b>.</h2>\n            <p>In this block, you will be giving <b>two</b> sets of examples to Student 10.</p>\n                <p>You will see the student's guess after the first set of examples. You will also receive feedback at the end of the block.</p>\n            <p>To earn the highest bonus, you will have to <b>take into consideration the student's guess</b> when you choose your second set of examples.</p>","response":0,"trial_type":"html-button-response","trial_index":82,"time_elapsed":651329,"internal_node_id":"0.0-81.0","params":{"nStudents":24,"maxFlips":30,"completionMinutes":45,"basePay":8,"maxBonus":9,"perTrialBonus":0.5,"perTrialBonusThreshold":0.05,"exampleCost":0.01},"classroomParams":{"A":{"a":1,"b":4},"B":{"a":4,"b":1},"C":{"a":2,"b":8},"D":{"a":8,"b":2}},"conditions":["nonSeqFull","nonSeqPartial","seqNoFeedback","seqFeedback"],"classroomPairings":[["A","B"],["C","D"]],"coinWeights":[0.2,0.5,0.8],"subjectId":"A3I40B0FATY8VH","assignmentId":"3RYC5T2D74F2225U9D2NOPR550GRPQ","hitId":"3E9VAUV7BW02QFDK7N7IH7ZKACRYAN","url":"https://gershmanlab.com/experiments/alicia/teaching/experiment/?hitId=3E9VAUV7BW02QFDK7N7IH7ZKACRYAN&workerId=A3I40B0FATY8VH&assignmentId=3RYC5T2D74F2225U9D2NOPR550GRPQ&a=D5YR9&tp_a=D5YR9&b=3RYC5T2D74F2225U9D2NOPR550GRPQ&tp_b=3RYC5T2D74F2225U9D2NOPR550GRPQ&c=365799&tp_c=365799"},{"rt":11937,"response":{"heads":"0","tails":"10"},"type":"response","condition":"seqFeedback","trueTheta":0.2,"classrooms":["A","B"],"studentTrueClassroom":"A","exampleSet":"first","trial_type":"survey-html-form","trial_index":83,"time_elapsed":663267,"internal_node_id":"0.0-82.0-0.0","params":{"nStudents":24,"maxFlips":30,"completionMinutes":45,"basePay":8,"maxBonus":9,"perTrialBonus":0.5,"perTrialBonusThreshold":0.05,"exampleCost":0.01},"classroomParams":{"A":{"a":1,"b":4},"B":{"a":4,"b":1},"C":{"a":2,"b":8},"D":{"a":8,"b":2}},"conditions":["nonSeqFull","nonSeqPartial","seqNoFeedback","seqFeedback"],"classroomPairings":[["A","B"],["C","D"]],"coinWeights":[0.2,0.5,0.8],"subjectId":"A3I40B0FATY8VH","assignmentId":"3RYC5T2D74F2225U9D2NOPR550GRPQ","hitId":"3E9VAUV7BW02QFDK7N7IH7ZKACRYAN","url":"https://gershmanlab.com/experiments/alicia/teaching/experiment/?hitId=3E9VAUV7BW02QFDK7N7IH7ZKACRYAN&workerId=A3I40B0FATY8VH&assignmentId=3RYC5T2D74F2225U9D2NOPR550GRPQ&a=D5YR9&tp_a=D5YR9&b=3RYC5T2D74F2225U9D2NOPR550GRPQ&tp_b=3RYC5T2D74F2225U9D2NOPR550GRPQ&c=365799&tp_c=365799","heads":0,"tails":10,"studentIndex":9,"studentTrueHypers":{"a":1,"b":4},"studentGuess":0.06666666666666667,"delta":0.13333333333333336,"totalExamples":10,"bonusSoFar":0.06},{"rt":null,"stimulus":"Sending examples to student... ","response":null,"trial_type":"html-keyboard-response","trial_index":84,"time_elapsed":664768,"internal_node_id":"0.0-83.0","params":{"nStudents":24,"maxFlips":30,"completionMinutes":45,"basePay":8,"maxBonus":9,"perTrialBonus":0.5,"perTrialBonusThreshold":0.05,"exampleCost":0.01},"classroomParams":{"A":{"a":1,"b":4},"B":{"a":4,"b":1},"C":{"a":2,"b":8},"D":{"a":8,"b":2}},"conditions":["nonSeqFull","nonSeqPartial","seqNoFeedback","seqFeedback"],"classroomPairings":[["A","B"],["C","D"]],"coinWeights":[0.2,0.5,0.8],"subjectId":"A3I40B0FATY8VH","assignmentId":"3RYC5T2D74F2225U9D2NOPR550GRPQ","hitId":"3E9VAUV7BW02QFDK7N7IH7ZKACRYAN","url":"https://gershmanlab.com/experiments/alicia/teaching/experiment/?hitId=3E9VAUV7BW02QFDK7N7IH7ZKACRYAN&workerId=A3I40