[{"rt":2343,"stimulus":"Welcome to the experiment. Press any key to begin.","response":"n","trial_type":"html-keyboard-response","trial_index":0,"time_elapsed":2363,"internal_node_id":"0.0-0.0","params":{"nStudents":24,"maxFlips":30,"completionMinutes":45,"basePay":8,"maxBonus":9,"perTrialBonus":0.5,"perTrialBonusThreshold":0.05,"exampleCost":0.01},"classroomParams":{"A":{"a":1,"b":4},"B":{"a":4,"b":1},"C":{"a":2,"b":8},"D":{"a":8,"b":2}},"conditions":["nonSeqFull","nonSeqPartial","seqNoFeedback","seqFeedback"],"classroomPairings":[["A","B"],["C","D"]],"coinWeights":[0.2,0.5,0.8],"subjectId":"A3JUITX7YOAIRQ","assignmentId":"3LPW2N6LKUOQPKFSTSOEVU98LZJU5B","hitId":"3AQN9REUTF20OMGWRXYK787QVFOYDP","url":"https://gershmanlab.com/experiments/alicia/teaching/experiment/?hitId=3AQN9REUTF20OMGWRXYK787QVFOYDP&workerId=A3JUITX7YOAIRQ&assignmentId=3LPW2N6LKUOQPKFSTSOEVU98LZJU5B&a=L2PL9&tp_a=L2PL9&b=3LPW2N6LKUOQPKFSTSOEVU98LZJU5B&tp_b=3LPW2N6LKUOQPKFSTSOEVU98LZJU5B&c=365799&tp_c=365799"},{"rt":6210,"stimulus":"\n        <h3>Please read this consent agreement carefully before deciding whether to participate in this experiment.</h3>\n        <p><b>Purpose of the research:</b> To examine how people teach effectively.</p>\n        <p><b>What you will do in this research:</b> You will teach students the weights of different coins.</p>\n        <p><b>Time required:</b> This experiment will take 45 minutes to complete.</p>\n        <p><b>Risks:</b> There are no anticipated risks associated with participating in this study.             The effects of participating should be comparable to those you would experience from viewing a computer monitor             and using a mouse and keyboard for the duration of the experiment.</p>\n        <p><b>Benefits:</b> The study provides important information about the nature of teaching.</p>\n        <p><b>Compensation:</b> You will receive <b>$8</b> for completing the experiment and a performance bonus of up to <b>$9</b>.</p>\n        <p><b>Confidentiality:</b> Your participation in this study will remain confidential.             No personally identifiable information will be associated with your data.             Your de-identified data may be shared with other researchers and used in future projects.</p>\n        <p><b>Participation and withdrawal:</b> Your participation in this study is completely voluntary and             you may refuse to participate or you may choose to withdraw at any time without penalty or loss of\n            benefits to which you are otherwise entitled.</p>\n        <p><b>How to contact the researcher:</b> If you have questions or concerns about your participation            or payment, or want to request a summary of research findings, please contact\n            Alicia Chen, aliciachen@college.harvard.edu.</p>\n        <p><b>Whom to contact about your rights in this research:</b> For questions, concerns, suggestions,             or complaints that have not been or cannot be addressed by the researcher, or to report             research-related harm, please contact the Committee on the Use of Human Subjects in Research at Harvard University,             1414 Massachusetts Avenue, Second Floor, Cambridge, MA 02138. Phone: 617-496-2847. Email: cuhs@fas.harvard.edu.</p>\n        ","response":0,"trial_type":"html-button-response","trial_index":1,"time_elapsed":8577,"internal_node_id":"0.0-1.0","params":{"nStudents":24,"maxFlips":30,"completionMinutes":45,"basePay":8,"maxBonus":9,"perTrialBonus":0.5,"perTrialBonusThreshold":0.05,"exampleCost":0.01},"classroomParams":{"A":{"a":1,"b":4},"B":{"a":4,"b":1},"C":{"a":2,"b":8},"D":{"a":8,"b":2}},"conditions":["nonSeqFull","nonSeqPartial","seqNoFeedback","seqFeedback"],"classroomPairings":[["A","B"],["C","D"]],"coinWeights":[0.2,0.5,0.8],"subjectId":"A3JUITX7YOAIRQ","assignmentId":"3LPW2N6LKUOQPKFSTSOEVU98LZJU5B","hitId":"3AQN9REUTF20OMGWRXYK787QVFOYDP","url":"https://gershmanlab.com/experiments/alicia/teaching/experiment/?hitId=3AQN9REUTF20OMGWRXYK787QVFOYDP&workerId=A3JUITX7YOAIRQ&assignmentId=3LPW2N6LKUOQPKFSTSOEVU98LZJU5B&a=L2PL9&tp_a=L2PL9&b=3LPW2N6LKUOQPKFSTSOEVU98LZJU5B&tp_b=3LPW2N6LKUOQPKFSTSOEVU98LZJU5B&c=365799&tp_c=365799"},{"view_history":[{"page_index":0,"viewing_time":18841},{"page_index":1,"viewing_time":4243},{"page_index":2,"viewing_time":29154},{"page_index":3,"viewing_time":22006},{"page_index":4,"viewing_time":42749},{"page_index":5,"viewing_time":18648},{"page_index":6,"viewing_time":2324},{"page_index":5,"viewing_time":2794},{"page_index":6,"viewing_time":41172}],"rt":181932,"trial_type":"instructions","trial_index":2,"time_elapsed":190511,"internal_node_id":"0.0-2.0-0.0","params":{"nStudents":24,"maxFlips":30,"completionMinutes":45,"basePay":8,"maxBonus":9,"perTrialBonus":0.5,"perTrialBonusThreshold":0.05,"exampleCost":0.01},"classroomParams":{"A":{"a":1,"b":4},"B":{"a":4,"b":1},"C":{"a":2,"b":8},"D":{"a":8,"b":2}},"conditions":["nonSeqFull","nonSeqPartial","seqNoFeedback","seqFeedback"],"classroomPairings":[["A","B"],["C","D"]],"coinWeights":[0.2,0.5,0.8],"subjectId":"A3JUITX7YOAIRQ","assignmentId":"3LPW2N6LKUOQPKFSTSOEVU98LZJU5B","hitId":"3AQN9REUTF20OMGWRXYK787QVFOYDP","url":"https://gershmanlab.com/experiments/alicia/teaching/experiment/?hitId=3AQN9REUTF20OMGWRXYK787QVFOYDP&workerId=A3JUITX7YOAIRQ&assignmentId=3LPW2N6LKUOQPKFSTSOEVU98LZJU5B&a=L2PL9&tp_a=L2PL9&b=3LPW2N6LKUOQPKFSTSOEVU98LZJU5B&tp_b=3LPW2N6LKUOQPKFSTSOEVU98LZJU5B&c=365799&tp_c=365799"},{"rt":73783,"response":{"Q0":"Students in different classrooms have seen a different proportion of fair and unfair coins before seeing the examples you select for them.","Q1":"By <b>considering the student's classroom information</b> so that I can teach efficiently and accurately/helpfully at the same time (because each example I give to the student costs money!).","Q2":"The coin lands heads 90% of the time.","Q3":"No, I will teach a <b>new</b> student each time.","Q4":"The students are also on the same alien planet as you, where coins can be unfair.","Q5":"Based on the student's second (and final) guess."},"question_order":[5,4,2,0,1,3],"trial_type":"survey-multi-choice","trial_index":3,"time_elapsed":264296,"internal_node_id":"0.0-2.0-1.0","params":{"nStudents":24,"maxFlips":30,"completionMinutes":45,"basePay":8,"maxBonus":9,"perTrialBonus":0.5,"perTrialBonusThreshold":0.05,"exampleCost":0.01},"classroomParams":{"A":{"a":1,"b":4},"B":{"a":4,"b":1},"C":{"a":2,"b":8},"D":{"a":8,"b":2}},"conditions":["nonSeqFull","nonSeqPartial","seqNoFeedback","seqFeedback"],"classroomPairings":[["A","B"],["C","D"]],"coinWeights":[0.2,0.5,0.8],"subjectId":"A3JUITX7YOAIRQ","assignmentId":"3LPW2N6LKUOQPKFSTSOEVU98LZJU5B","hitId":"3AQN9REUTF20OMGWRXYK787QVFOYDP","url":"https://gershmanlab.com/experiments/alicia/teaching/experiment/?hitId=3AQN9REUTF20OMGWRXYK787QVFOYDP&workerId=A3JUITX7YOAIRQ&assignmentId=3LPW2N6LKUOQPKFSTSOEVU98LZJU5B&a=L2PL9&tp_a=L2PL9&b=3LPW2N6LKUOQPKFSTSOEVU98LZJU5B&tp_b=3LPW2N6LKUOQPKFSTSOEVU98LZJU5B&c=365799&tp_c=365799","pass":false},{"rt":2757,"stimulus":"Oops, you have missed question(s) on the comprehension check! We'll show you the instructions again.","response":0,"trial_type":"html-button-response","trial_index":4,"time_elapsed":267057,"internal_node_id":"0.0-2.0-2.0-0.0","params":{"nStudents":24,"maxFlips":30,"completionMinutes":45,"basePay":8,"maxBonus":9,"perTrialBonus":0.5,"perTrialBonusThreshold":0.05,"exampleCost":0.01},"classroomParams":{"A":{"a":1,"b":4},"B":{"a":4,"b":1},"C":{"a":2,"b":8},"D":{"a":8,"b":2}},"conditions":["nonSeqFull","nonSeqPartial","seqNoFeedback","seqFeedback"],"classroomPairings":[["A","B"],["C","D"]],"coinWeights":[0.2,0.5,0.8],"subjectId":"A3JUITX7YOAIRQ","assignmentId":"3LPW2N6LKUOQPKFSTSOEVU98LZJU5B","hitId":"3AQN9REUTF20OMGWRXYK787QVFOYDP","url":"https://gershmanlab.com/experiments/alicia/teaching/experiment/?hitId=3AQN9REUTF20OMGWRXYK787QVFOYDP&workerId=A3JUITX7YOAIRQ&assignmentId=3LPW2N6LKUOQPKFSTSOEVU98LZJU5B&a=L2PL9&tp_a=L2PL9&b=3LPW2N6LKUOQPKFSTSOEVU98LZJU5B&tp_b=3LPW2N6LKUOQPKFSTSOEVU98LZJU5B&c=365799&tp_c=365799"},{"view_history":[{"page_index":0,"viewing_time":3850},{"page_index":1,"viewing_time":2867},{"page_index":2,"viewing_time":13128},{"page_index":3,"viewing_time":11111},{"page_index":4,"viewing_time":16611},{"page_index":5,"viewing_time":19624},{"page_index":6,"viewing_time":8950}],"rt":76141,"trial_type":"instructions","trial_index":5,"time_elapsed":343200,"internal_node_id":"0.0-2.1-0.1","params":{"nStudents":24,"maxFlips":30,"completionMinutes":45,"basePay":8,"maxBonus":9,"perTrialBonus":0.5,"perTrialBonusThreshold":0.05,"exampleCost":0.01},"classroomParams":{"A":{"a":1,"b":4},"B":{"a":4,"b":1},"C":{"a":2,"b":8},"D":{"a":8,"b":2}},"conditions":["nonSeqFull","nonSeqPartial","seqNoFeedback","seqFeedback"],"classroomPairings":[["A","B"],["C","D"]],"coinWeights":[0.2,0.5,0.8],"subjectId":"A3JUITX7YOAIRQ","assignmentId":"3LPW2N6LKUOQPKFSTSOEVU98LZJU5B","hitId":"3AQN9REUTF20OMGWRXYK787QVFOYDP","url":"https://gershmanlab.com/experiments/alicia/teaching/experiment/?hitId=3AQN9REUTF20OMGWRXYK787QVFOYDP&workerId=A3JUITX7YOAIRQ&assignmentId=3LPW2N6LKUOQPKFSTSOEVU98LZJU5B&a=L2PL9&tp_a=L2PL9&b=3LPW2N6LKUOQPKFSTSOEVU98LZJU5B&tp_b=3LPW2N6LKUOQPKFSTSOEVU98LZJU5B&c=365799&tp_c=365799"},{"rt":36017,"response":{"Q0":"Students in different classrooms will have seen a different number of heads and tails before seeing the examples you select for them.","Q1":"By <b>considering the student's classroom information</b> so that I can teach efficiently and accurately/helpfully at the same time (because each example I give to the student costs money!).","Q2":"The coin lands heads 90% of the time.","Q3":"Yes, I might encounter the same student twice.","Q4":"The students are also on the same alien planet as you, where coins can be unfair.","Q5":"Based on the student's second (and final) guess."},"question_order":[3,1,5,0,4,2],"trial_type":"survey-multi-choice","trial_index":6,"time_elapsed":379218,"internal_node_id":"0.0-2.1-1.1","params":{"nStudents":24,"maxFlips":30,"completionMinutes":45,"basePay":8,"maxBonus":9,"perTrialBonus":0.5,"perTrialBonusThreshold":0.05,"exampleCost":0.01},"classroomParams":{"A":{"a":1,"b":4},"B":{"a":4,"b":1},"C":{"a":2,"b":8},"D":{"a":8,"b":2}},"conditions":["nonSeqFull","nonSeqPartial","seqNoFeedback","seqFeedback"],"classroomPairings":[["A","B"],["C","D"]],"coinWeights":[0.2,0.5,0.8],"subjectId":"A3JUITX7YOAIRQ","assignmentId":"3LPW2N6LKUOQPKFSTSOEVU98LZJU5B","hitId":"3AQN9REUTF20OMGWRXYK787QVFOYDP","url":"https://gershmanlab.com/experiments/alicia/teaching/experiment/?hitId=3AQN9REUTF20OMGWRXYK787QVFOYDP&workerId=A3JUITX7YOAIRQ&assignmentId=3LPW2N6LKUOQPKFSTSOEVU98LZJU5B&a=L2PL9&tp_a=L2PL9&b=3LPW2N6LKUOQPKFSTSOEVU98LZJU5B&tp_b=3LPW2N6LKUOQPKFSTSOEVU98LZJU5B&c=365799&tp_c=365799","pass":false},{"rt":2310,"stimulus":"Oops, you have missed question(s) on the comprehension check! We'll show you the instructions again.","response":0,"trial_type":"html-button-response","trial_index":7,"time_elapsed":381533,"internal_node_id":"0.0-2.1-2.1-0.1","params":{"nStudents":24,"maxFlips":30,"completionMinutes":45,"basePay":8,"maxBonus":9,"perTrialBonus":0.5,"perTrialBonusThreshold":0.05,"exampleCost":0.01},"classroomParams":{"A":{"a":1,"b":4},"B":{"a":4,"b":1},"C":{"a":2,"b":8},"D":{"a":8,"b":2}},"conditions":["nonSeqFull","nonSeqPartial","seqNoFeedback","seqFeedback"],"classroomPairings":[["A","B"],["C","D"]],"coinWeights":[0.2,0.5,0.8],"subjectId":"A3JUITX7YOAIRQ","assignmentId":"3LPW2N6LKUOQPKFSTSOEVU98LZJU5B","hitId":"3AQN9REUTF20OMGWRXYK787QVFOYDP","url":"https://gershmanlab.com/experiments/alicia/teaching/experiment/?hitId=3AQN9REUTF20OMGWRXYK787QVFOYDP&workerId=A3JUITX7YOAIRQ&assignmentId=3LPW2N6LKUOQPKFSTSOEVU98LZJU5B&a=L2PL9&tp_a=L2PL9&b=3LPW2N6LKUOQPKFSTSOEVU98LZJU5B&tp_b=3LPW2N6LKUOQPKFSTSOEVU98LZJU5B&c=365799&tp_c=365799"},{"view_history":[{"page_index":0,"viewing_time":33232},{"page_index":1,"viewing_time":2471},{"page_index":2,"viewing_time":8392},{"page_index":3,"viewing_time":16845},{"page_index":4,"viewing_time":9812},{"page_index":5,"viewing_time":11634},{"page_index":6,"viewing_time":8801}],"rt":91189,"trial_type":"instructions","trial_index":8,"time_elapsed":472724,"internal_node_id":"0.0-2.2-0.2","params":{"nStudents":24,"maxFlips":30,"completionMinutes":45,"basePay":8,"maxBonus":9,"perTrialBonus":0.5,"perTrialBonusThreshold":0.05,"exampleCost":0.01},"classroomParams":{"A":{"a":1,"b":4},"B":{"a":4,"b":1},"C":{"a":2,"b":8},"D":{"a":8,"b":2}},"conditions":["nonSeqFull","nonSeqPartial","seqNoFeedback","seqFeedback"],"classroomPairings":[["A","B"],["C","D"]],"coinWeights":[0.2,0.5,0.8],"subjectId":"A3JUITX7YOAIRQ","assignmentId":"3LPW2N6LKUOQPKFSTSOEVU98LZJU5B","hitId":"3AQN9REUTF20OMGWRXYK787QVFOYDP","url":"https://gershmanlab.com/experiments/alicia/teaching/experiment/?hitId=3AQN9REUTF20OMGWRXYK787QVFOYDP&workerId=A3JUITX7YOAIRQ&assignmentId=3LPW2N6LKUOQPKFSTSOEVU98LZJU5B&a=L2PL9&tp_a=L2PL9&b=3LPW2N6LKUOQPKFSTSOEVU98LZJU5B&tp_b=3LPW2N6LKUOQPKFSTSOEVU98LZJU5B&c=365799&tp_c=365799"},{"rt":46959,"response":{"Q0":"Students in different classrooms will have seen a different number of heads and tails before seeing the examples you select for them.","Q1":"By <b>considering the student's classroom information</b> so that I can teach efficiently and accurately/helpfully at the same time (because each example I give to the student costs money!).","Q2":"The coin lands heads 90% of the time.","Q3":"No, I will teach a <b>new</b> student each time.","Q4":"The students are also on the same alien planet as you, where coins can be unfair.","Q5":"Based on the student's second (and final) guess."},"question_order":[3,4,2,1,5,0],"trial_type":"survey-multi-choice","trial_index":9,"time_elapsed":519686,"internal_node_id":"0.0-2.2-1.2","params":{"nStudents":24,"maxFlips":30,"completionMinutes":45,"basePay":8,"maxBonus":9,"perTrialBonus":0.5,"perTrialBonusThreshold":0.05,"exampleCost":0.01},"classroomParams":{"A":{"a":1,"b":4},"B":{"a":4,"b":1},"C":{"a":2,"b":8},"D":{"a":8,"b":2}},"conditions":["nonSeqFull","nonSeqPartial","seqNoFeedback","seqFeedback"],"classroomPairings":[["A","B"],["C","D"]],"coinWeights":[0.2,0.5,0.8],"subjectId":"A3JUITX7YOAIRQ","assignmentId":"3LPW2N6LKUOQPKFSTSOEVU98LZJU5B","hitId":"3AQN9REUTF20OMGWRXYK787QVFOYDP","url":"https://gershmanlab.com/experiments/alicia/teaching/experiment/?hitId=3AQN9REUTF20OMGWRXYK787QVFOYDP&workerId=A3JUITX7YOAIRQ&assignmentId=3LPW2N6LKUOQPKFSTSOEVU98LZJU5B&a=L2PL9&tp_a=L2PL9&b=3LPW2N6LKUOQPKFSTSOEVU98LZJU5B&tp_b=3LPW2N6LKUOQPKFSTSOEVU98LZJU5B&c=365799&tp_c=365799","pass":true},{"rt":null,"stimulus":"<div style=\"font-size:30px;\">Congrats on passing the comprehension quiz! The experiment will begin in a few seconds.</div>","response":null,"trial_type":"html-keyboard-response","trial_index":10,"time_elapsed":522701,"internal_node_id":"0.0-3.0","params":{"nStudents":24,"maxFlips":30,"completionMinutes":45,"basePay":8,"maxBonus":9,"perTrialBonus":0.5,"perTrialBonusThreshold":0.05,"exampleCost":0.01},"classroomParams":{"A":{"a":1,"b":4},"B":{"a":4,"b":1},"C":{"a":2,"b":8},"D":{"a":8,"b":2}},"conditions":["nonSeqFull","nonSeqPartial","seqNoFeedback","seqFeedback"],"classroomPairings":[["A","B"],["C","D"]],"coinWeights":[0.2,0.5,0.8],"subjectId":"A3JUITX7YOAIRQ","assignmentId":"3LPW2N6LKUOQPKFSTSOEVU98LZJU5B","hitId":"3AQN9REUTF20OMGWRXYK787QVFOYDP","url":"https://gershmanlab.com/experiments/alicia/teaching/experiment/?hitId=3AQN9REUTF20OMGWRXYK787QVFOYDP&workerId=A3JUITX7YOAIRQ&assignmentId=3LPW2N6LKUOQPKFSTSOEVU98LZJU5B&a=L2PL9&tp_a=L2PL9&b=3LPW2N6LKUOQPKFSTSOEVU98LZJU5B&tp_b=3LPW2N6LKUOQPKFSTSOEVU98LZJU5B&c=365799&tp_c=365799"},{"rt":null,"stimulus":"<div style=\"font-size:50px;\">First student</div>","response":null,"trial_type":"html-keyboard-response","trial_index":11,"time_elapsed":525713,"internal_node_id":"0.0-4.0","params":{"nStudents":24,"maxFlips":30,"completionMinutes":45,"basePay":8,"maxBonus":9,"perTrialBonus":0.5,"perTrialBonusThreshold":0.05,"exampleCost":0.01},"classroomParams":{"A":{"a":1,"b":4},"B":{"a":4,"b":1},"C":{"a":2,"b":8},"D":{"a":8,"b":2}},"conditions":["nonSeqFull","nonSeqPartial","seqNoFeedback","seqFeedback"],"classroomPairings":[["A","B"],["C","D"]],"coinWeights":[0.2,0.5,0.8],"subjectId":"A3JUITX7YOAIRQ","assignmentId":"3LPW2N6LKUOQPKFSTSOEVU98LZJU5B","hitId":"3AQN9REUTF20OMGWRXYK787QVFOYDP","url":"https://gershmanlab.com/experiments/alicia/teaching/experiment/?hitId=3AQN9REUTF20OMGWRXYK787QVFOYDP&workerId=A3JUITX7YOAIRQ&assignmentId=3LPW2N6LKUOQPKFSTSOEVU98LZJU5B&a=L2PL9&tp_a=L2PL9&b=3LPW2N6LKUOQPKFSTSOEVU98LZJU5B&tp_b=3LPW2N6LKUOQPKFSTSOEVU98LZJU5B&c=365799&tp_c=365799"},{"rt":24286,"stimulus":"\n            <h4 style=\"color:Orange;\">Student 1</h4>\n            <h2>The weight of your coin is <b style=\"color:Tomato;\">0.8</b>.</h2>\n            <p>In this block, you will be giving <b>one</b> set of examples to Student 1.</p>\n                <p>You will receive feedback at the end of the block.</p>\n            <p></p>","response":0,"trial_type":"html-button-response","trial_index":12,"time_elapsed":550001,"internal_node_id":"0.0-5.0","params":{"nStudents":24,"maxFlips":30,"completionMinutes":45,"basePay":8,"maxBonus":9,"perTrialBonus":0.5,"perTrialBonusThreshold":0.05,"exampleCost":0.01},"classroomParams":{"A":{"a":1,"b":4},"B":{"a":4,"b":1},"C":{"a":2,"b":8},"D":{"a":8,"b":2}},"conditions":["nonSeqFull","nonSeqPartial","seqNoFeedback","seqFeedback"],"classroomPairings":[["A","B"],["C","D"]],"coinWeights":[0.2,0.5,0.8],"subjectId":"A3JUITX7YOAIRQ","assignmentId":"3LPW2N6LKUOQPKFSTSOEVU98LZJU5B","hitId":"3AQN9REUTF20OMGWRXYK787QVFOYDP","url":"https://gershmanlab.com/experiments/alicia/teaching/experiment/?hitId=3AQN9REUTF20OMGWRXYK787QVFOYDP&workerId=A3JUITX7YOAIRQ&assignmentId=3LPW2N6LKUOQPKFSTSOEVU98LZJU5B&a=L2PL9&tp_a=L2PL9&b=3LPW2N6LKUOQPKFSTSOEVU98LZJU5B&tp_b=3LPW2N6LKUOQPKFSTSOEVU98LZJU5B&c=365799&tp_c=365799"},{"rt":30879,"response":{"heads":"8","tails":"2"},"type":"response","condition":"nonSeqPartial","trueTheta":0.8,"classrooms":["C","D"],"studentTrueClassroom":"C","exampleSet":"first","trial_type":"survey-html-form","trial_index":13,"time_elapsed":580882,"internal_node_id":"0.0-6.0-0.0","params":{"nStudents":24,"maxFlips":30,"completionMinutes":45,"basePay":8,"maxBonus":9,"perTrialBonus":0.5,"perTrialBonusThreshold":0.05,"exampleCost":0.01},"classroomParams":{"A":{"a":1,"b":4},"B":{"a":4,"b":1},"C":{"a":2,"b":8},"D":{"a":8,"b":2}},"conditions":["nonSeqFull","nonSeqPartial","seqNoFeedback","seqFeedback"],"classroomPairings":[["A","B"],["C","D"]],"coinWeights":[0.2,0.5,0.8],"subjectId":"A3JUITX7YOAIRQ","assignmentId":"3LPW2N6LKUOQPKFSTSOEVU98LZJU5B","hitId":"3AQN9REUTF20OMGWRXYK787QVFOYDP","url":"https://gershmanlab.com/experiments/alicia/teaching/experiment/?hitId=3AQN9REUTF20OMGWRXYK787QVFOYDP&workerId=A3JUITX7YOAIRQ&assignmentId=3LPW2N6LKUOQPKFSTSOEVU98LZJU5B&a=L2PL9&tp_a=L2PL9&b=3LPW2N6LKUOQPKFSTSOEVU98LZJU5B&tp_b=3LPW2N6LKUOQPKFSTSOEVU98LZJU5B&c=365799&tp_c=365799","heads":8,"tails":2,"studentIndex":0,"studentTrueHypers":{"a":2,"b":8},"studentGuess":0.5,"delta":0.30000000000000004,"totalExamples":10,"bonus":0,"bonusSoFar":0},{"rt":null,"stimulus":"Sending examples to student... ","response":null,"trial_type":"html-keyboard-response","trial_index":14,"time_elapsed":582895,"internal_node_id":"0.0-7.0","params":{"nStudents":24,"maxFlips":30,"completionMinutes":45,"basePay":8,"maxBonus":9,"perTrialBonus":0.5,"perTrialBonusThreshold":0.05,"exampleCost":0.01},"classroomParams":{"A":{"a":1,"b":4},"B":{"a":4,"b":1},"C":{"a":2,"b":8},"D":{"a":8,"b":2}},"conditions":["nonSeqFull","nonSeqPartial","seqNoFeedback","seqFeedback"],"classroomPairings":[["A","B"],["C","D"]],"coinWeights":[0.2,0.5,0.8],"subjectId":"A3JUITX7YOAIRQ","assignmentId":"3LPW2N6LKUOQPKFSTSOEVU98LZJU5B","hitId":"3AQN9REUTF20OMGWRXYK787QVFOYDP","url":"https://gershmanlab.com/experiments/alicia/teaching/experiment/?hitId=3AQN9REUTF20OMGWRXYK787QVFOYDP&workerId=A3JUITX7YOAIRQ&assignmentId=3LPW2N6LKUOQPKFSTSOEVU98LZJU5B&a=L2PL9&tp_a=L2PL9&b=3LPW2N6LKUOQPKFSTSOEVU98LZJU5B&tp_b=3LPW2N6LKUOQPKFSTSOEVU98LZJU5B&c=365799&tp_c=365799"},{"rt":null,"stimulus":"Examples sent to student! Waiting for student...","response":null,"trial_type":"html-keyboard-response","trial_index":15,"time_elapsed":586897,"internal_node_id":"0.0-8.0","params":{"nStudents":24,"maxFlips":30,"completionMinutes":45,"basePay":8,"maxBonus":9,"perTrialBonus":0.5,"perTrialBonusThreshold":0.05,"exampleCost":0.01},"classroomParams":{"A":{"a":1,"b":4},"B":{"a":4,"b":1},"C":{"a":2,"b":8},"D":{"a":8,"b":2}},"conditions":["nonSeqFull","nonSeqPartial","seqNoFeedback","seqFeedback"],"classroomPairings":[["A","B"],["C","D"]],"coinWeights":[0.2,0.5,0.8],"subjectId":"A3JUITX7YOAIRQ","assignmentId":"3LPW2N6LKUOQPKFSTSOEVU98LZJU5B","hitId":"3AQN9REUTF20OMGWRXYK787QVFOYDP","url":"https://gershmanlab.com/experiments/alicia/teaching/experiment/?hitId=3AQN9REUTF20OMGWRXYK787QVFOYDP&workerId=A3JUITX7YOAIRQ&assignmentId=3LPW2N6LKUOQPKFSTSOEVU98LZJU5B&a=L2PL9&tp_a=L2PL9&b=3LPW2N6LKUOQPKFSTSOEVU98LZJU5B&tp_b=3LPW2N6LKUOQPKFSTSOEVU98LZJU5B&c=365799&tp_c=365799"},{"rt":4653,"stimulus":"\n                <p>Student's guess for coin weight: <b style=\"color:Tomato;\">0.50</b></p>\n                <p>You received a bonus of <b>$0</b>. Total bonus so far: <b>$0.00</b></b></p>\n                <p></p>\n                <p>Press any key to continue.</p>\n                ","response":" ","trial_type":"html-keyboard-response","trial_index":16,"time_elapsed":591551,"internal_node_id":"0.0-9.0","params":{"nStudents":24,"maxFlips":30,"completionMinutes":45,"basePay":8,"maxBonus":9,"perTrialBonus":0.5,"perTrialBonusThreshold":0.05,"exampleCost":0.01},"classroomParams":{"A":{"a":1,"b":4},"B":{"a":4,"b":1},"C":{"a":2,"b":8},"D":{"a":8,"b":2}},"conditions":["nonSeqFull","nonSeqPartial","seqNoFeedback","seqFeedback"],"classroomPairings":[["A","B"],["C","D"]],"coinWeights":[0.2,0.5,0.8],"subjectId":"A3JUITX7YOAIRQ","assignmentId":"3LPW2N6LKUOQPKFSTSOEVU98LZJU5B","hitId":"3AQN9REUTF20OMGWRXYK787QVFOYDP","url":"https://gershmanlab.com/experiments/alicia/teaching/experiment/?hitId=3AQN9REUTF20OMGWRXYK787QVFOYDP&workerId=A3JUITX7YOAIRQ&assignmentId=3LPW2N6LKUOQPKFSTSOEVU98LZJU5B&a=L2PL9&tp_a=L2PL9&b=3LPW2N6LKUOQPKFSTSOEVU98LZJU5B&tp_b=3LPW2N6LKUOQPKFSTSOEVU98LZJU5B&c=365799&tp_c=365799"},{"rt":null,"stimulus":"<div style=\"font-size:60px;\">Next student</div>","response":null,"trial_type":"html-keyboard-response","trial_index":17,"time_elapsed":594556,"internal_node_id":"0.0-10.0-0.0","params":{"nStudents":24,"maxFlips":30,"completionMinutes":45,"basePay":8,"maxBonus":9,"perTrialBonus":0.5,"perTrialBonusThreshold":0.05,"exampleCost":0.01},"classroomParams":{"A":{"a":1,"b":4},"B":{"a":4,"b":1},"C":{"a":2,"b":8},"D":{"a":8,"b":2}},"conditions":["nonSeqFull","nonSeqPartial","seqNoFeedback","seqFeedback"],"classroomPairings":[["A","B"],["C","D"]],"coinWeights":[0.2,0.5,0.8],"subjectId":"A3JUITX7YOAIRQ","assignmentId":"3LPW2N6LKUOQPKFSTSOEVU98LZJU5B","hitId":"3AQN9REUTF20OMGWRXYK787QVFOYDP","url":"https://gershmanlab.com/experiments/alicia/teaching/experiment/?hitId=3AQN9REUTF20OMGWRXYK787QVFOYDP&workerId=A3JUITX7YOAIRQ&assignmentId=3LPW2N6LKUOQPKFSTSOEVU98LZJU5B&a=L2PL9&tp_a=L2PL9&b=3LPW2N6LKUOQPKFSTSOEVU98LZJU5B&tp_b=3LPW2N6LKUOQPKFSTSOEVU98LZJU5B&c=365799&tp_c=365799"},{"rt":1597,"stimulus":"\n            <h4 style=\"color:Orange;\">Student 2</h4>\n            <h2>The weight of your coin is <b style=\"color:Tomato;\">0.5</b>.</h2>\n            <p>In this block, you will be giving <b>one</b> set of examples to Student 2.</p>\n                <p>You will receive feedback at the end of the block.</p>\n            <p></p>","response":0,"trial_type":"html-button-response","trial_index":18,"time_elapsed":596154,"internal_node_id":"0.0-11.0","params":{"nStudents":24,"maxFlips":30,"completionMinutes":45,"basePay":8,"maxBonus":9,"perTrialBonus":0.5,"perTrialBonusThreshold":0.05,"exampleCost":0.01},"classroomParams":{"A":{"a":1,"b":4},"B":{"a":4,"b":1},"C":{"a":2,"b":8},"D":{"a":8,"b":2}},"conditions":["nonSeqFull","nonSeqPartial","seqNoFeedback","seqFeedback"],"classroomPairings":[["A","B"],["C","D"]],"coinWeights":[0.2,0.5,0.8],"subjectId":"A3JUITX7YOAIRQ","assignmentId":"3LPW2N6LKUOQPKFSTSOEVU98LZJU5B","hitId":"3AQN9REUTF20OMGWRXYK787QVFOYDP","url":"https://gershmanlab.com/experiments/alicia/teaching/experiment/?hitId=3AQN9REUTF20OMGWRXYK787QVFOYDP&workerId=A3JUITX7YOAIRQ&assignmentId=3LPW2N6LKUOQPKFSTSOEVU98LZJU5B&a=L2PL9&tp_a=L2PL9&b=3LPW2N6LKUOQPKFSTSOEVU98LZJU5B&tp_b=3LPW2N6LKUOQPKFSTSOEVU98LZJU5B&c=365799&tp_c=365799"},{"rt":17037,"response":{"heads":"2","tails":"2"},"type":"response","condition":"nonSeqPartial","trueTheta":0.5,"classrooms":["A","B"],"studentTrueClassroom":"B","exampleSet":"first","trial_type":"survey-html-form","trial_index":19,"time_elapsed":613194,"internal_node_id":"0.0-12.0-0.0","params":{"nStudents":24,"maxFlips":30,"completionMinutes":45,"basePay":8,"maxBonus":9,"perTrialBonus":0.5,"perTrialBonusThreshold":0.05,"exampleCost":0.01},"classroomParams":{"A":{"a":1,"b":4},"B":{"a":4,"b":1},"C":{"a":2,"b":8},"D":{"a":8,"b":2}},"conditions":["nonSeqFull","nonSeqPartial","seqNoFeedback","seqFeedback"],"classroomPairings":[["A","B"],["C","D"]],"coinWeights":[0.2,0.5,0.8],"subjectId":"A3JUITX7YOAIRQ","assignmentId":"3LPW2N6LKUOQPKFSTSOEVU98LZJU5B","hitId":"3AQN9REUTF20OMGWRXYK787QVFOYDP","url":"https://gershmanlab.com/experiments/alicia/teaching/experiment/?hitId=3AQN9REUTF20OMGWRXYK787QVFOYDP&workerId=A3JUITX7YOAIRQ&assignmentId=3LPW2N6LKUOQPKFSTSOEVU98LZJU5B&a=L2PL9&tp_a=L2PL9&b=3LPW2N6LKUOQPKFSTSOEVU98LZJU5B&tp_b=3LPW2N6LKUOQPKFSTSOEVU98LZJU5B&c=365799&tp_c=365799","heads":2,"tails":2,"studentIndex":1,"studentTrueHypers":{"a":4,"b":1},"studentGuess":0.6666666666666666,"delta":0.16666666666666663,"totalExamples":4,"bonus":0,"bonusSoFar":0},{"rt":null,"stimulus":"Sending examples to student... ","response":null,"trial_type":"html-keyboard-response","trial_index":20,"time_elapsed":614461,"internal_node_id":"0.0-13.0","params":{"nStudents":24,"maxFlips":30,"completionMinutes":45,"basePay":8,"maxBonus":9,"perTrialBonus":0.5,"perTrialBonusThreshold":0.05,"exampleCost":0.01},"classroomParams":{"A":{"a":1,"b":4},"B":{"a":4,"b":1},"C":{"a":2,"b":8},"D":{"a":8,"b":2}},"conditions":["nonSeqFull","nonSeqPartial","seqNoFeedback","seqFeedback"],"classroomPairings":[["A","B"],["C","D"]],"coinWeights":[0.2,0.5,0.8],"subjectId":"A3JUITX7YOAIRQ","assignmentId":"3LPW2N6LKUOQPKFSTSOEVU98LZJU5B","hitId":"3AQN9REUTF20OMGWRXYK787QVFOYDP","url":"https://gershmanlab.com/experiments/alicia/teaching/experiment/?hitId=3AQN9REUTF20OMGWRXYK787QVFOYDP&workerId=A3JUITX7YOAIRQ&assignmentId=3LPW2N6LKUOQPKFSTSOEVU98LZJU5B&a=L2PL9&tp_a=L2PL9&b=3LPW2N6LKUOQPKFSTSOEVU98LZJU5B&tp_b=3LPW2N6LKUOQPKFSTSOEVU98LZJU5B&c=365799&tp_c=365799"},{"rt":null,"stimulus":"Examples sent to student! Waiting for student...","response":null,"trial_type":"html-keyboard-response","trial_index":21,"time_elapsed":618966,"internal_node_id":"0.0-14.0","params":{"nStudents":24,"maxFlips":30,"completionMinutes":45,"basePay":8,"maxBonus":9,"perTrialBonus":0.5,"perTrialBonusThreshold":0.05,"exampleCost":0.01},"classroomParams":{"A":{"a":1,"b":4},"B":{"a":4,"b":1},"C":{"a":2,"b":8},"D":{"a":8,"b":2}},"conditions":["nonSeqFull","nonSeqPartial","seqNoFeedback","seqFeedback"],"classroomPairings":[["A","B"],["C","D"]],"coinWeights":[0.2,0.5,0.8],"subjectId":"A3JUITX7YOAIRQ","assignmentId":"3LPW2N6LKUOQPKFSTSOEVU98LZJU5B","hitId":"3AQN9REUTF20OMGWRXYK787QVFOYDP","url":"https://gershmanlab.com/experiments/alicia/teaching/experiment/?hitId=3AQN9REUTF20OMGWRXYK787QVFOYDP&workerId=A3JUITX7YOAIRQ&assignmentId=3LPW2N6LKUOQPKFSTSOEVU98LZJU5B&a=L2PL9&tp_a=L2PL9&b=3LPW2N6LKUOQPKFSTSOEVU98LZJU5B&tp_b=3LPW2N6LKUOQPKFSTSOEVU98LZJU5B&c=365799&tp_c=365799"},{"rt":3166,"stimulus":"\n                <p>Student's guess for coin weight: <b style=\"color:Tomato;\">0.67</b></p>\n                <p>You received a bonus of <b>$0</b>. Total bonus so far: <b>$0.00</b></b></p>\n                <p></p>\n                <p>Press any key to continue.</p>\n                ","response":" ","trial_type":"html-keyboard-response","trial_index":22,"time_elapsed":622134,"internal_node_id":"0.0-15.0","params":{"nStudents":24,"maxFlips":30,"completionMinutes":45,"basePay":8,"maxBonus":9,"perTrialBonus":0.5,"perTrialBonusThreshold":0.05,"exampleCost":0.01},"classroomParams":{"A":{"a":1,"b":4},"B":{"a":4,"b":1},"C":{"a":2,"b":8},"D":{"a":8,"b":2}},"conditions":["nonSeqFull","nonSeqPartial","seqNoFeedback","seqFeedback"],"classroomPairings":[["A","B"],["C","D"]],"coinWeights":[0.2,0.5,0.8],"subjectId":"A3JUITX7YOAIRQ","assignmentId":"3LPW2N6LKUOQPKFSTSOEVU98LZJU5B","hitId":"3AQN9REUTF20OMGWRXYK787QVFOYDP","url":"https://gershmanlab.com/experiments/alicia/teaching/experiment/?hitId=3AQN9REUTF20OMGWRXYK787QVFOYDP&workerId=A3JUITX7YOAIRQ&assignmentId=3LPW2N6LKUOQPKFSTSOEVU98LZJU5B&a=L2PL9&tp_a=L2PL9&b=3LPW2N6LKUOQPKFSTSOEVU98LZJU5B&tp_b=3LPW2N6LKUOQPKFSTSOEVU98LZJU5B&c=365799&tp_c=365799"},{"rt":null,"stimulus":"<div style=\"font-size:60px;\">Next student</div>","response":null,"trial_type":"html-keyboard-response","trial_index":23,"time_elapsed":624144,"internal_node_id":"0.0-16.0-0.0","params":{"nStudents":24,"maxFlips":30,"completionMinutes":45,"basePay":8,"maxBonus":9,"perTrialBonus":0.5,"perTrialBonusThreshold":0.05,"exampleCost":0.01},"classroomParams":{"A":{"a":1,"b":4},"B":{"a":4,"b":1},"C":{"a":2,"b":8},"D":{"a":8,"b":2}},"conditions":["nonSeqFull","nonSeqPartial","seqNoFeedback","seqFeedback"],"classroomPairings":[["A","B"],["C","D"]],"coinWeights":[0.2,0.5,0.8],"subjectId":"A3JUITX7YOAIRQ","assignmentId":"3LPW2N6LKUOQPKFSTSOEVU98LZJU5B","hitId":"3AQN9REUTF20OMGWRXYK787QVFOYDP","url":"https://gershmanlab.com/experiments/alicia/teaching/experiment/?hitId=3AQN9REUTF20OMGWRXYK787QVFOYDP&workerId=A3JUITX7YOAIRQ&assignmentId=3LPW2N6LKUOQPKFSTSOEVU98LZJU5B&a=L2PL9&tp_a=L2PL9&b=3LPW2N6LKUOQPKFSTSOEVU98LZJU5B&tp_b=3LPW2N6LKUOQPKFSTSOEVU98LZJU5B&c=365799&tp_c=365799"},{"rt":1705,"stimulus":"\n            <h4 style=\"color:Orange;\">Student 3</h4>\n            <h2>The weight of your coin is <b style=\"color:Tomato;\">0.2</b>.</h2>\n            <p>In this block, you will be giving <b>one</b> set of examples to Student 3.</p>\n                <p>You will receive feedback at the end of the block.</p>\n            <p></p>","response":0,"trial_type":"html-button-response","trial_index":24,"time_elapsed":625852,"internal_node_id":"0.0-17.0","params":{"nStudents":24,"maxFlips":30,"completionMinutes":45,"basePay":8,"maxBonus":9,"perTrialBonus":0.5,"perTrialBonusThreshold":0.05,"exampleCost":0.01},"classroomParams":{"A":{"a":1,"b":4},"B":{"a":4,"b":1},"C":{"a":2,"b":8},"D":{"a":8,"b":2}},"conditions":["nonSeqFull","nonSeqPartial","seqNoFeedback","seqFeedback"],"classroomPairings":[["A","B"],["C","D"]],"coinWeights":[0.2,0.5,0.8],"subjectId":"A3JUITX7YOAIRQ","assignmentId":"3LPW2N6LKUOQPKFSTSOEVU98LZJU5B","hitId":"3AQN9REUTF20OMGWRXYK787QVFOYDP","url":"https://gershmanlab.com/experiments/alicia/teaching/experiment/?hitId=3AQN9REUTF20OMGWRXYK787QVFOYDP&workerId=A3JUITX7YOAIRQ&assignmentId=3LPW2N6LKUOQPKFSTSOEVU98LZJU5B&a=L2PL9&tp_a=L2PL9&b=3LPW2N6LKUOQPKFSTSOEVU98LZJU5B&tp_b=3LPW2N6LKUOQPKFSTSOEVU98LZJU5B&c=365799&tp_c=365799"},{"rt":10300,"response":{"heads":"0","tails":"0"},"type":"response","condition":"nonSeqPartial","trueTheta":0.2,"classrooms":["C","D"],"studentTrueClassroom":"D","exampleSet":"first","trial_type":"survey-html-form","trial_index":25,"time_elapsed":636154,"internal_node_id":"0.0-18.0-0.0","params":{"nStudents":24,"maxFlips":30,"completionMinutes":45,"basePay":8,"maxBonus":9,"perTrialBonus":0.5,"perTrialBonusThreshold":0.05,"exampleCost":0.01},"classroomParams":{"A":{"a":1,"b":4},"B":{"a":4,"b":1},"C":{"a":2,"b":8},"D":{"a":8,"b":2}},"conditions":["nonSeqFull","nonSeqPartial","seqNoFeedback","seqFeedback"],"classroomPairings":[["A","B"],["C","D"]],"coinWeights":[0.2,0.5,0.8],"subjectId":"A3JUITX7YOAIRQ","assignmentId":"3LPW2N6LKUOQPKFSTSOEVU98LZJU5B","hitId":"3AQN9REUTF20OMGWRXYK787QVFOYDP","url":"https://gershmanlab.com/experiments/alicia/teaching/experiment/?hitId=3AQN9REUTF20OMGWRXYK787QVFOYDP&workerId=A3JUITX7YOAIRQ&assignmentId=3LPW2N6LKUOQPKFSTSOEVU98LZJU5B&a=L2PL9&tp_a=L2PL9&b=3LPW2N6LKUOQPKFSTSOEVU98LZJU5B&tp_b=3LPW2N6LKUOQPKFSTSOEVU98LZJU5B&c=365799&tp_c=365799","heads":0,"tails":0,"studentIndex":2,"studentTrueHypers":{"a":8,"b":2},"studentGuess":0.8,"delta":0.6000000000000001,"totalExamples":0,"bonus":0,"bonusSoFar":0},{"rt":1857,"response":{"heads":"0","tails":"0"},"type":"response","condition":"nonSeqPartial","trueTheta":0.2,"classrooms":["C","D"],"studentTrueClassroom":"D","exampleSet":"first","trial_type":"survey-html-form","trial_index":26,"time_elapsed":638014,"internal_node_id":"0.0-18.1-0.1","params":{"nStudents":24,"maxFlips":30,"completionMinutes":45,"basePay":8,"maxBonus":9,"perTrialBonus":0.5,"perTrialBonusThreshold":0.05,"exampleCost":0.01},"classroomParams":{"A":{"a":1,"b":4},"B":{"a":4,"b":1},"C":{"a":2,"b":8},"D":{"a":8,"b":2}},"conditions":["nonSeqFull","nonSeqPartial","seqNoFeedback","seqFeedback"],"classroomPairings":[["A","B"],["C","D"]],"coinWeights":[0.2,0.5,0.8],"subjectId":"A3JUITX7YOAIRQ","assignmentId":"3LPW2N6LKUOQPKFSTSOEVU98LZJU5B","hitId":"3AQN9REUTF20OMGWRXYK787QVFOYDP","url":"https://gershmanlab.com/experiments/alicia/teaching/experiment/?hitId=3AQN9REUTF20OMGWRXYK787QVFOYDP&workerId=A3JUITX7YOAIRQ&assignmentId=3LPW2N6LKUOQPKFSTSOEVU98LZJU5B&a=L2PL9&tp_a=L2PL9&b=3LPW2N6LKUOQPKFSTSOEVU98LZJU5B&tp_b=3LPW2N6LKUOQPKFSTSOEVU98LZJU5B&c=365799&tp_c=365799","heads":0,"tails":0,"studentIndex":2,"studentTrueHypers":{"a":8,"b":2},"studentGuess":0.8,"delta":0.6000000000000001,"totalExamples":0,"bonus":0,"bonusSoFar":0},{"rt":8821,"response":{"heads":"1","tails":"1"},"type":"response","condition":"nonSeqPartial","trueTheta":0.2,"classrooms":["C","D"],"studentTrueClassroom":"D","exampleSet":"first","trial_type":"survey-html-form","trial_index":27,"time_elapsed":646838,"internal_node_id":"0.0-18.2-0.2","params":{"nStudents":24,"maxFlips":30,"completionMinutes":45,"basePay":8,"maxBonus":9,"perTrialBonus":0.5,"perTrialBonusThreshold":0.05,"exampleCost":0.01},"classroomParams":{"A":{"a":1,"b":4},"B":{"a":4,"b":1},"C":{"a":2,"b":8},"D":{"a":8,"b":2}},"conditions":["nonSeqFull","nonSeqPartial","seqNoFeedback","seqFeedback"],"classroomPairings":[["A","B"],["C","D"]],"coinWeights":[0.2,0.5,0.8],"subjectId":"A3JUITX7YOAIRQ","assignmentId":"3LPW2N6LKUOQPKFSTSOEVU98LZJU5B","hitId":"3AQN9REUTF20OMGWRXYK787QVFOYDP","url":"https://gershmanlab.com/experiments/alicia/teaching/experiment/?hitId=3AQN9REUTF20OMGWRXYK787QVFOYDP&workerId=A3JUITX7YOAIRQ&assignmentId=3LPW2N6LKUOQPKFSTSOEVU98LZJU5B&a=L2PL9&tp_a=L2PL9&b=3LPW2N6LKUOQPKFSTSOEVU98LZJU5B&tp_b=3LPW2N6LKUOQPKFSTSOEVU98LZJU5B&c=365799&tp_c=365799","heads":1,"tails":1,"studentIndex":2,"studentTrueHypers":{"a":8,"b":2},"studentGuess":0.75,"delta":0.55,"totalExamples":2,"bonus":0,"bonusSoFar":0},{"rt":null,"stimulus":"Sending examples to student... ","response":null,"trial_type":"html-keyboard-response","trial_index":28,"time_elapsed":648601,"internal_node_id":"0.0-19.0","params":{"nStudents":24,"maxFlips":30,"completionMinutes":45,"basePay":8,"maxBonus":9,"perTrialBonus":0.5,"perTrialBonusThreshold":0.05,"exampleCost":0.01},"classroomParams":{"A":{"a":1,"b":4},"B":{"a":4,"b":1},"C":{"a":2,"b":8},"D":{"a":8,"b":2}},"conditions":["nonSeqFull","nonSeqPartial","seqNoFeedback","seqFeedback"],"classroomPairings":[["A","B"],["C","D"]],"coinWeights":[0.2,0.5,0.8],"subjectId":"A3JUITX7YOAIRQ","assignmentId":"3LPW2N6LKUOQPKFSTSOEVU98LZJU5B","hitId":"3AQN9REUTF20OMGWRXYK787QVFOYDP","url":"https://gershmanlab.com/experiments/alicia/teaching/experiment/?hitId=3AQN9REUTF20OMGWRXYK787QVFOYDP&workerId=A3JUITX7YOAIRQ&assignmentId=3LPW2N6LKUOQPKFSTSOEVU98LZJU5B&a=L2PL9&tp_a=L2PL9&b=3LPW2N6LKUOQPKFSTSOEVU98LZJU5B&tp_b=3LPW2N6LKUOQPKFSTSOEVU98LZJU5B&c=365799&tp_c=365799"},{"rt":null,"stimulus":"Examples sent to student! Waiting for student...","response":null,"trial_type":"html-keyboard-response","trial_index":29,"time_elapsed":653107,"internal_node_id":"0.0-20.0","params":{"nStudents":24,"maxFlips":30,"completionMinutes":45,"basePay":8,"maxBonus":9,"perTrialBonus":0.5,"perTrialBonusThreshold":0.05,"exampleCost":0.01},"classroomParams":{"A":{"a":1,"b":4},"B":{"a":4,"b":1},"C":{"a":2,"b":8},"D":{"a":8,"b":2}},"conditions":["nonSeqFull","nonSeqPartial","seqNoFeedback","seqFeedback"],"classroomPairings":[["A","B"],["C","D"]],"coinWeights":[0.2,0.5,0.8],"subjectId":"A3JUITX7YOAIRQ","assignmentId":"3LPW2N6LKUOQPKFSTSOEVU98LZJU5B","hitId":"3AQN9REUTF20OMGWRXYK787QVFOYDP","url":"https://gershmanlab.com/experiments/alicia/teaching/experiment/?hitId=3AQN9REUTF20OMGWRXYK787QVFOYDP&workerId=A3JUITX7YOAIRQ&assignmentId=3LPW2N6LKUOQPKFSTSOEVU98LZJU5B&a=L2PL9&tp_a=L2PL9&b=3LPW2N6LKUOQPKFSTSOEVU98LZJU5B&tp_b=3LPW2N6LKUOQPKFSTSOEVU98LZJU5B&c=365799&tp_c=365799"},{"rt":3192,"stimulus":"\n                <p>Student's guess for coin weight: <b style=\"color:Tomato;\">0.80</b></p>\n                <p>You received a bonus of <b>$0</b>. Total bonus so far: <b>$0.00</b></b></p>\n                <p></p>\n                <p>Press any key to continue.</p>\n                ","response":" ","trial_type":"html-keyboard-response","trial_index":30,"time_elapsed":656300,"internal_node_id":"0.0-21.0","params":{"nStudents":24,"maxFlips":30,"completionMinutes":45,"basePay":8,"maxBonus":9,"perTrialBonus":0.5,"perTrialBonusThreshold":0.05,"exampleCost":0.01},"classroomParams":{"A":{"a":1,"b":4},"B":{"a":4,"b":1},"C":{"a":2,"b":8},"D":{"a":8,"b":2}},"conditions":["nonSeqFull","nonSeqPartial","seqNoFeedback","seqFeedback"],"classroomPairings":[["A","B"],["C","D"]],"coinWeights":[0.2,0.5,0.8],"subjectId":"A3JUITX7YOAIRQ","assignmentId":"3LPW2N6LKUOQPKFSTSOEVU98LZJU5B","hitId":"3AQN9REUTF20OMGWRXYK787QVFOYDP","url":"https://gershmanlab.com/experiments/alicia/teaching/experiment/?hitId=3AQN9REUTF20OMGWRXYK787QVFOYDP&workerId=A3JUITX7YOAIRQ&assignmentId=3LPW2N6LKUOQPKFSTSOEVU98LZJU5B&a=L2PL9&tp_a=L2PL9&b=3LPW2N6LKUOQPKFSTSOEVU98LZJU5B&tp_b=3LPW2N6LKUOQPKFSTSOEVU98LZJU5B&c=365799&tp_c=365799"},{"rt":null,"stimulus":"<div style=\"font-size:60px;\">Next student</div>","response":null,"trial_type":"html-keyboard-response","trial_index":31,"time_elapsed":658551,"internal_node_id":"0.0-22.0-0.0","params":{"nStudents":24,"maxFlips":30,"completionMinutes":45,"basePay":8,"maxBonus":9,"perTrialBonus":0.5,"perTrialBonusThreshold":0.05,"exampleCost":0.01},"classroomParams":{"A":{"a":1,"b":4},"B":{"a":4,"b":1},"C":{"a":2,"b":8},"D":{"a":8,"b":2}},"conditions":["nonSeqFull","nonSeqPartial","seqNoFeedback","seqFeedback"],"classroomPairings":[["A","B"],["C","D"]],"coinWeights":[0.2,0.5,0.8],"subjectId":"A3JUITX7YOAIRQ","assignmentId":"3LPW2N6LKUOQPKFSTSOEVU98LZJU5B","hitId":"3AQN9REUTF20OMGWRXYK787QVFOYDP","url":"https://gershmanlab.com/experiments/alicia/teaching/experiment/?hitId=3AQN9REUTF20OMGWRXYK787QVFOYDP&workerId=A3JUITX7YOAIRQ&assignmentId=3LPW2N6LKUOQPKFSTSOEVU98LZJU5B&a=L2PL9&tp_a=L2PL9&b=3LPW2N6LKUOQPKFSTSOEVU98LZJU5B&tp_b=3LPW2N6LKUOQPKFSTSOEVU98LZJU5B&c=365799&tp_c=365799"},{"rt":1606,"stimulus":"\n            <h4 style=\"color:Orange;\">Student 4</h4>\n            <h2>The weight of your coin is <b style=\"color:Tomato;\">0.8</b>.</h2>\n            <p>In this block, you will be giving <b>one</b> set of examples to Student 4.</p>\n                <p>You will receive feedback at the end of the block.</p>\n            <p></p>","response":0,"trial_type":"html-button-response","trial_index":32,"time_elapsed":660159,"internal_node_id":"0.0-23.0","params":{"nStudents":24,"maxFlips":30,"completionMinutes":45,"basePay":8,"maxBonus":9,"perTrialBonus":0.5,"perTrialBonusThreshold":0.05,"exampleCost":0.01},"classroomParams":{"A":{"a":1,"b":4},"B":{"a":4,"b":1},"C":{"a":2,"b":8},"D":{"a":8,"b":2}},"conditions":["nonSeqFull","nonSeqPartial","seqNoFeedback","seqFeedback"],"classroomPairings":[["A","B"],["C","D"]],"coinWeights":[0.2,0.5,0.8],"subjectId":"A3JUITX7YOAIRQ","assignmentId":"3LPW2N6LKUOQPKFSTSOEVU98LZJU5B","hitId":"3AQN9REUTF20OMGWRXYK787QVFOYDP","url":"https://gershmanlab.com/experiments/alicia/teaching/experiment/?hitId=3AQN9REUTF20OMGWRXYK787QVFOYDP&workerId=A3JUITX7YOAIRQ&assignmentId=3LPW2N6LKUOQPKFSTSOEVU98LZJU5B&a=L2PL9&tp_a=L2PL9&b=3LPW2N6LKUOQPKFSTSOEVU98LZJU5B&tp_b=3LPW2N6LKUOQPKFSTSOEVU98LZJU5B&c=365799&tp_c=365799"},{"rt":32889,"response":{"heads":"30","tails":"0"},"type":"response","condition":"nonSeqFull","trueTheta":0.8,"classrooms":["C","D"],"studentTrueClassroom":"C","exampleSet":"first","trial_type":"survey-html-form","trial_index":33,"time_elapsed":693050,"internal_node_id":"0.0-24.0-0.0","params":{"nStudents":24,"maxFlips":30,"completionMinutes":45,"basePay":8,"maxBonus":9,"perTrialBonus":0.5,"perTrialBonusThreshold":0.05,"exampleCost":0.01},"classroomParams":{"A":{"a":1,"b":4},"B":{"a":4,"b":1},"C":{"a":2,"b":8},"D":{"a":8,"b":2}},"conditions":["nonSeqFull","nonSeqPartial","seqNoFeedback","seqFeedback"],"classroomPairings":[["A","B"],["C","D"]],"coinWeights":[0.2,0.5,0.8],"subjectId":"A3JUITX7YOAIRQ","assignmentId":"3LPW2N6LKUOQPKFSTSOEVU98LZJU5B","hitId":"3AQN9REUTF20OMGWRXYK787QVFOYDP","url":"https://gershmanlab.com/experiments/alicia/teaching/experiment/?hitId=3AQN9REUTF20OMGWRXYK787QVFOYDP&workerId=A3JUITX7YOAIRQ&assignmentId=3LPW2N6LKUOQPKFSTSOEVU98LZJU5B&a=L2PL9&tp_a=L2PL9&b=3LPW2N6LKUOQPKFSTSOEVU98LZJU5B&tp_b=3LPW2N6LKUOQPKFSTSOEVU98LZJU5B&c=365799&tp_c=365799","heads":30,"tails":0,"studentIndex":3,"studentTrueHypers":{"a":2,"b":8},"studentGuess":0.8,"delta":0,"totalExamples":30,"bonus":0.2,"bonusSoFar":0.2},{"rt":null,"stimulus":"Sending examples to student... ","response":null,"trial_type":"html-keyboard-response","trial_index":34,"time_elapsed":694312,"internal_node_id":"0.0-25.0","params":{"nStudents":24,"maxFlips":30,"completionMinutes":45,"basePay":8,"maxBonus":9,"perTrialBonus":0.5,"perTrialBonusThreshold":0.05,"exampleCost":0.01},"classroomParams":{"A":{"a":1,"b":4},"B":{"a":4,"b":1},"C":{"a":2,"b":8},"D":{"a":8,"b":2}},"conditions":["nonSeqFull","nonSeqPartial","seqNoFeedback","seqFeedback"],"classroomPairings":[["A","B"],["C","D"]],"coinWeights":[0.2,0.5,0.8],"subjectId":"A3JUITX7YOAIRQ","assignmentId":"3LPW2N6LKUOQPKFSTSOEVU98LZJU5B","hitId":"3AQN9REUTF20OMGWRXYK787QVFOYDP","url":"https://gershmanlab.com/experiments/alicia/teaching/experiment/?hitId=3AQN9REUTF20OMGWRXYK787QVFOYDP&workerId=A3JUITX7YOAIRQ&assignmentId=3LPW2N6LKUOQPKFSTSOEVU98LZJU5B&a=L2PL9&tp_a=L2PL9&b=3LPW2N6LKUOQPKFSTSOEVU98LZJU5B&tp_b=3LPW2N6LKUOQPKFSTSOEVU98LZJU5B&c=365799&tp_c=365799"},{"rt":null,"stimulus":"Examples sent to student! Waiting for student...","response":null,"trial_type":"html-keyboard-response","trial_index":35,"time_elapsed":698328,"internal_node_id":"0.0-26.0","params":{"nStudents":24,"maxFlips":30,"completionMinutes":45,"basePay":8,"maxBonus":9,"perTrialBonus":0.5,"perTrialBonusThreshold":0.05,"exampleCost":0.01},"classroomParams":{"A":{"a":1,"b":4},"B":{"a":4,"b":1},"C":{"a":2,"b":8},"D":{"a":8,"b":2}},"conditions":["nonSeqFull","nonSeqPartial","seqNoFeedback","seqFeedback"],"classroomPairings":[["A","B"],["C","D"]],"coinWeights":[0.2,0.5,0.8],"subjectId":"A3JUITX7YOAIRQ","assignmentId":"3LPW2N6LKUOQPKFSTSOEVU98LZJU5B","hitId":"3AQN9REUTF20OMGWRXYK787QVFOYDP","url":"https://gershmanlab.com/experiments/alicia/teaching/experiment/?hitId=3AQN9REUTF20OMGWRXYK787QVFOYDP&workerId=A3JUITX7YOAIRQ&assignmentId=3LPW2N6LKUOQPKFSTSOEVU98LZJU5B&a=L2PL9&tp_a=L2PL9&b=3LPW2N6LKUOQPKFSTSOEVU98LZJU5B&tp_b=3LPW2N6LKUOQPKFSTSOEVU98LZJU5B&c=365799&tp_c=365799"},{"rt":3456,"stimulus":"\n                <p>Student's guess for coin weight: <b style=\"color:Tomato;\">0.80</b></p>\n                <p>You received a bonus of <b>$0.2</b>. Total bonus so far: <b>$0.20</b></b></p>\n                <p></p>\n                <p>Press any key to continue.</p>\n                ","response":" ","trial_type":"html-keyboard-response","trial_index":36,"time_elapsed":701785,"internal_node_id":"0.0-27.0","params":{"nStudents":24,"maxFlips":30,"completionMinutes":45,"basePay":8,"maxBonus":9,"perTrialBonus":0.5,"perTrialBonusThreshold":0.05,"exampleCost":0.01},"classroomParams":{"A":{"a":1,"b":4},"B":{"a":4,"b":1},"C":{"a":2,"b":8},"D":{"a":8,"b":2}},"conditions":["nonSeqFull","nonSeqPartial","seqNoFeedback","seqFeedback"],"classroomPairings":[["A","B"],["C","D"]],"coinWeights":[0.2,0.5,0.8],"subjectId":"A3JUITX7YOAIRQ","assignmentId":"3LPW2N6LKUOQPKFSTSOEVU98LZJU5B","hitId":"3AQN9REUTF20OMGWRXYK787QVFOYDP","url":"https://gershmanlab.com/experiments/alicia/teaching/experiment/?hitId=3AQN9REUTF20OMGWRXYK787QVFOYDP&workerId=A3JUITX7YOAIRQ&assignmentId=3LPW2N6LKUOQPKFSTSOEVU98LZJU5B&a=L2PL9&tp_a=L2PL9&b=3LPW2N6LKUOQPKFSTSOEVU98LZJU5B&tp_b=3LPW2N6LKUOQPKFSTSOEVU98LZJU5B&c=365799&tp_c=365799"},{"rt":null,"stimulus":"<div style=\"font-size:60px;\">Next student</div>","response":null,"trial_type":"html-keyboard-response","trial_index":37,"time_elapsed":703797,"internal_node_id":"0.0-28.0-0.0","params":{"nStudents":24,"maxFlips":30,"completionMinutes":45,"basePay":8,"maxBonus":9,"perTrialBonus":0.5,"perTrialBonusThreshold":0.05,"exampleCost":0.01},"classroomParams":{"A":{"a":1,"b":4},"B":{"a":4,"b":1},"C":{"a":2,"b":8},"D":{"a":8,"b":2}},"conditions":["nonSeqFull","nonSeqPartial","seqNoFeedback","seqFeedback"],"classroomPairings":[["A","B"],["C","D"]],"coinWeights":[0.2,0.5,0.8],"subjectId":"A3JUITX7YOAIRQ","assignmentId":"3LPW2N6LKUOQPKFSTSOEVU98LZJU5B","hitId":"3AQN9REUTF20OMGWRXYK787QVFOYDP","url":"https://gershmanlab.com/experiments/alicia/teaching/experiment/?hitId=3AQN9REUTF20OMGWRXYK787QVFOYDP&workerId=A3JUITX7YOAIRQ&assignmentId=3LPW2N6LKUOQPKFSTSOEVU98LZJU5B&a=L2PL9&tp_a=L2PL9&b=3LPW2N6LKUOQPKFSTSOEVU98LZJU5B&tp_b=3LPW2N6LKUOQPKFSTSOEVU98LZJU5B&c=365799&tp_c=365799"},{"rt":1748,"stimulus":"\n            <h4 style=\"color:Orange;\">Student 5</h4>\n            <h2>The weight of your coin is <b style=\"color:Tomato;\">0.8</b>.</h2>\n            <p>In this block, you will be giving <b>two</b> sets of examples to Student 5.</p>\n                <p>You will receive feedback at the end of the block.</p>\n            <p></p>","response":0,"trial_type":"html-button-response","trial_index":38,"time_elapsed":705546,"internal_node_id":"0.0-29.0","params":{"nStudents":24,"maxFlips":30,"completionMinutes":45,"basePay":8,"maxBonus":9,"perTrialBonus":0.5,"perTrialBonusThreshold":0.05,"exampleCost":0.01},"classroomParams":{"A":{"a":1,"b":4},"B":{"a":4,"b":1},"C":{"a":2,"b":8},"D":{"a":8,"b":2}},"conditions":["nonSeqFull","nonSeqPartial","seqNoFeedback","seqFeedback"],"classroomPairings":[["A","B"],["C","D"]],"coinWeights":[0.2,0.5,0.8],"subjectId":"A3JUITX7YOAIRQ","assignmentId":"3LPW2N6LKUOQPKFSTSOEVU98LZJU5B","hitId":"3AQN9REUTF20OMGWRXYK787QVFOYDP","url":"https://gershmanlab.com/experiments/alicia/teaching/experiment/?hitId=3AQN9REUTF20OMGWRXYK787QVFOYDP&workerId=A3JUITX7YOAIRQ&assignmentId=3LPW2N6LKUOQPKFSTSOEVU98LZJU5B&a=L2PL9&tp_a=L2PL9&b=3LPW2N6LKUOQPKFSTSOEVU98LZJU5B&tp_b=3LPW2N6LKUOQPKFSTSOEVU98LZJU5B&c=365799&tp_c=365799"},{"rt":16539,"response":{"heads":"1","tails":"0"},"type":"response","condition":"seqNoFeedback","trueTheta":0.8,"classrooms":["C","D"],"studentTrueClassroom":"C","exampleSet":"first","trial_type":"survey-html-form","trial_index":39,"time_elapsed":722086,"internal_node_id":"0.0-30.0-0.0","params":{"nStudents":24,"maxFlips":30,"completionMinutes":45,"basePay":8,"maxBonus":9,"perTrialBonus":0.5,"perTrialBonusThreshold":0.05,"exampleCost":0.01},"classroomParams":{"A":{"a":1,"b":4},"B":{"a":4,"b":1},"C":{"a":2,"b":8},"D":{"a":8,"b":2}},"conditions":["nonSeqFull","nonSeqPartial","seqNoFeedback","seqFeedback"],"classroomPairings":[["A","B"],["C","D"]],"coinWeights":[0.2,0.5,0.8],"subjectId":"A3JUITX7YOAIRQ","assignmentId":"3LPW2N6LKUOQPKFSTSOEVU98LZJU5B","hitId":"3AQN9REUTF20OMGWRXYK787QVFOYDP","url":"https://gershmanlab.com/experiments/alicia/teaching/experiment/?hitId=3AQN9REUTF20OMGWRXYK787QVFOYDP&workerId=A3JUITX7YOAIRQ&assignmentId=3LPW2N6LKUOQPKFSTSOEVU98LZJU5B&a=L2PL9&tp_a=L2PL9&b=3LPW2N6LKUOQPKFSTSOEVU98LZJU5B&tp_b=3LPW2N6LKUOQPKFSTSOEVU98LZJU5B&c=365799&tp_c=365799","heads":1,"tails":0,"studentIndex":4,"studentTrueHypers":{"a":2,"b":8},"studentGuess":0.2727272727272727,"delta":0.5272727272727273,"totalExamples":1,"bonusSoFar":0.2},{"rt":null,"stimulus":"Sending examples to student... ","response":null,"trial_type":"html-keyboard-response","trial_index":40,"time_elapsed":723602,"internal_node_id":"0.0-31.0","params":{"nStudents":24,"maxFlips":30,"completionMinutes":45,"basePay":8,"maxBonus":9,"perTrialBonus":0.5,"perTrialBonusThreshold":0.05,"exampleCost":0.01},"classroomParams":{"A":{"a":1,"b":4},"B":{"a":4,"b":1},"C":{"a":2,"b":8},"D":{"a":8,"b":2}},"conditions":["nonSeqFull","nonSeqPartial","seqNoFeedback","seqFeedback"],"classroomPairings":[["A","B"],["C","D"]],"coinWeights":[0.2,0.5,0.8],"subjectId":"A3JUITX7YOAIRQ","assignmentId":"3LPW2N6LKUOQPKFSTSOEVU98LZJU5B","hitId":"3AQN9REUTF20OMGWRXYK787QVFOYDP","url":"https://gershmanlab.com/experiments/alicia/teaching/experiment/?hitId=3AQN9REUTF20OMGWRXYK787QVFOYDP&workerId=A3JUITX7YOAIRQ&assignmentId=3LPW2N6LKUOQPKFSTSOEVU98LZJU5B&a=L2PL9&tp_a=L2PL9&b=3LPW2N6LKUOQPKFSTSOEVU98LZJU5B&tp_b=3LPW2N6LKUOQPKFSTSOEVU98LZJU5B&c=365799&tp_c=365799"},{"rt":null,"stimulus":"Examples sent to student! Waiting for student...","response":null,"trial_type":"html-keyboard-response","trial_index":41,"time_elapsed":727613,"internal_node_id":"0.0-32.0","params":{"nStudents":24,"maxFlips":30,"completionMinutes":45,"basePay":8,"maxBonus":9,"perTrialBonus":0.5,"perTrialBonusThreshold":0.05,"exampleCost":0.01},"classroomParams":{"A":{"a":1,"b":4},"B":{"a":4,"b":1},"C":{"a":2,"b":8},"D":{"a":8,"b":2}},"conditions":["nonSeqFull","nonSeqPartial","seqNoFeedback","seqFeedback"],"classroomPairings":[["A","B"],["C","D"]],"coinWeights":[0.2,0.5,0.8],"subjectId":"A3JUITX7YOAIRQ","assignmentId":"3LPW2N6LKUOQPKFSTSOEVU98LZJU5B","hitId":"3AQN9REUTF20OMGWRXYK787QVFOYDP","url":"https://gershmanlab.com/experiments/alicia/teaching/experiment/?hitId=3AQN9REUTF20OMGWRXYK787QVFOYDP&workerId=A3JUITX7YOAIRQ&assignmentId=3LPW2N6LKUOQPKFSTSOEVU98LZJU5B&a=L2PL9&tp_a=L2PL9&b=3LPW2N6LKUOQPKFSTSOEVU98LZJU5B&tp_b=3LPW2N6LKUOQPKFSTSOEVU98LZJU5B&c=365799&tp_c=365799"},{"rt":20999,"response":{"heads":"4","tails":"1"},"type":"response","condition":"seqNoFeedback","trueTheta":0.8,"classrooms":["C","D"],"studentTrueClassroom":"C","exampleSet":"second","trial_type":"survey-html-form","trial_index":42,"time_elapsed":748614,"internal_node_id":"0.0-33.0-0.0","params":{"nStudents":24,"maxFlips":30,"completionMinutes":45,"basePay":8,"maxBonus":9,"perTrialBonus":0.5,"perTrialBonusThreshold":0.05,"exampleCost":0.01},"classroomParams":{"A":{"a":1,"b":4},"B":{"a":4,"b":1},"C":{"a":2,"b":8},"D":{"a":8,"b":2}},"conditions":["nonSeqFull","nonSeqPartial","seqNoFeedback","seqFeedback"],"classroomPairings":[["A","B"],["C","D"]],"coinWeights":[0.2,0.5,0.8],"subjectId":"A3JUITX7YOAIRQ","assignmentId":"3LPW2N6LKUOQPKFSTSOEVU98LZJU5B","hitId":"3AQN9REUTF20OMGWRXYK787QVFOYDP","url":"https://gershmanlab.com/experiments/alicia/teaching/experiment/?hitId=3AQN9REUTF20OMGWRXYK787QVFOYDP&workerId=A3JUITX7YOAIRQ&assignmentId=3LPW2N6LKUOQPKFSTSOEVU98LZJU5B&a=L2PL9&tp_a=L2PL9&b=3LPW2N6LKUOQPKFSTSOEVU98LZJU5B&tp_b=3LPW2N6LKUOQPKFSTSOEVU98LZJU5B&c=365799&tp_c=365799","firstResponseHeads":1,"firstResponseTails":0,"secondResponseHeads":4,"secondResponseTails":1,"totalHeads":5,"totalTails":1,"studentIndex":4,"studentTrueHypers":{"a":2,"b":8},"studentGuess":0.4375,"delta":0.36250000000000004,"bonus":0,"bonusSoFar":0.2,"totalExamples":6},{"rt":null,"stimulus":"Sending examples to student... ","response":null,"trial_type":"html-keyboard-response","trial_index":43,"time_elapsed":750380,"internal_node_id":"0.0-34.0","params":{"nStudents":24,"maxFlips":30,"completionMinutes":45,"basePay":8,"maxBonus":9,"perTrialBonus":0.5,"perTrialBonusThreshold":0.05,"exampleCost":0.01},"classroomParams":{"A":{"a":1,"b":4},"B":{"a":4,"b":1},"C":{"a":2,"b":8},"D":{"a":8,"b":2}},"conditions":["nonSeqFull","nonSeqPartial","seqNoFeedback","seqFeedback"],"classroomPairings":[["A","B"],["C","D"]],"coinWeights":[0.2,0.5,0.8],"subjectId":"A3JUITX7YOAIRQ","assignmentId":"3LPW2N6LKUOQPKFSTSOEVU98LZJU5B","hitId":"3AQN9REUTF20OMGWRXYK787QVFOYDP","url":"https://gershmanlab.com/experiments/alicia/teaching/experiment/?hitId=3AQN9REUTF20OMGWRXYK787QVFOYDP&workerId=A3JUITX7YOAIRQ&assignmentId=3LPW2N6LKUOQPKFSTSOEVU98LZJU5B&a=L2PL9&tp_a=L2PL9&b=3LPW2N6LKUOQPKFSTSOEVU98LZJU5B&tp_b=3LPW2N6LKUOQPKFSTSOEVU98LZJU5B&c=365799&tp_c=365799"},{"rt":null,"stimulus":"Examples sent to student! Waiting for student...","response":null,"trial_type":"html-keyboard-response","trial_index":44,"time_elapsed":755388,"internal_node_id":"0.0-35.0","params":{"nStudents":24,"maxFlips":30,"completionMinutes":45,"basePay":8,"maxBonus":9,"perTrialBonus":0.5,"perTrialBonusThreshold":0.05,"exampleCost":0.01},"classroomParams":{"A":{"a":1,"b":4},"B":{"a":4,"b":1},"C":{"a":2,"b":8},"D":{"a":8,"b":2}},"conditions":["nonSeqFull","nonSeqPartial","seqNoFeedback","seqFeedback"],"classroomPairings":[["A","B"],["C","D"]],"coinWeights":[0.2,0.5,0.8],"subjectId":"A3JUITX7YOAIRQ","assignmentId":"3LPW2N6LKUOQPKFSTSOEVU98LZJU5B","hitId":"3AQN9REUTF20OMGWRXYK787QVFOYDP","url":"https://gershmanlab.com/experiments/alicia/teaching/experiment/?hitId=3AQN9REUTF20OMGWRXYK787QVFOYDP&workerId=A3JUITX7YOAIRQ&assignmentId=3LPW2N6LKUOQPKFSTSOEVU98LZJU5B&a=L2PL9&tp_a=L2PL9&b=3LPW2N6LKUOQPKFSTSOEVU98LZJU5B&tp_b=3LPW2N6LKUOQPKFSTSOEVU98LZJU5B&c=365799&tp_c=365799"},{"rt":4561,"stimulus":"\n                <p>Student 5's first guess for coin weight: <b style=\"color:Tomato\";>0.27</b></p>\n                <p>Student 5's second guess for coin weight: <b style=\"color:Tomato\";>0.44</b></p>\n                <p>You received a bonus of <b>$0.00</b> based on the student's second guess.</p>\n                <p>Total bonus so far: <b>$0.20</b></p>\n                <p>Press any key to continue.</p>\n                ","response":" ","trial_type":"html-keyboard-response","trial_index":45,"time_elapsed":759951,"internal_node_id":"0.0-36.0","params":{"nStudents":24,"maxFlips":30,"completionMinutes":45,"basePay":8,"maxBonus":9,"perTrialBonus":0.5,"perTrialBonusThreshold":0.05,"exampleCost":0.01},"classroomParams":{"A":{"a":1,"b":4},"B":{"a":4,"b":1},"C":{"a":2,"b":8},"D":{"a":8,"b":2}},"conditions":["nonSeqFull","nonSeqPartial","seqNoFeedback","seqFeedback"],"classroomPairings":[["A","B"],["C","D"]],"coinWeights":[0.2,0.5,0.8],"subjectId":"A3JUITX7YOAIRQ","assignmentId":"3LPW2N6LKUOQPKFSTSOEVU98LZJU5B","hitId":"3AQN9REUTF20OMGWRXYK787QVFOYDP","url":"https://gershmanlab.com/experiments/alicia/teaching/experiment/?hitId=3AQN9REUTF20OMGWRXYK787QVFOYDP&workerId=A3JUITX7YOAIRQ&assignmentId=3LPW2N6LKUOQPKFSTSOEVU98LZJU5B&a=L2PL9&tp_a=L2PL9&b=3LPW2N6LKUOQPKFSTSOEVU98LZJU5B&tp_b=3LPW2N6LKUOQPKFSTSOEVU98LZJU5B&c=365799&tp_c=365799"},{"rt":null,"stimulus":"<div style=\"font-size:60px;\">Next student</div>","response":null,"trial_type":"html-keyboard-response","trial_index":46,"time_elapsed":762467,"internal_node_id":"0.0-37.0-0.0","params":{"nStudents":24,"maxFlips":30,"completionMinutes":45,"basePay":8,"maxBonus":9,"perTrialBonus":0.5,"perTrialBonusThreshold":0.05,"exampleCost":0.01},"classroomParams":{"A":{"a":1,"b":4},"B":{"a":4,"b":1},"C":{"a":2,"b":8},"D":{"a":8,"b":2}},"conditions":["nonSeqFull","nonSeqPartial","seqNoFeedback","seqFeedback"],"classroomPairings":[["A","B"],["C","D"]],"coinWeights":[0.2,0.5,0.8],"subjectId":"A3JUITX7YOAIRQ","assignmentId":"3LPW2N6LKUOQPKFSTSOEVU98LZJU5B","hitId":"3AQN9REUTF20OMGWRXYK787QVFOYDP","url":"https://gershmanlab.com/experiments/alicia/teaching/experiment/?hitId=3AQN9REUTF20OMGWRXYK787QVFOYDP&workerId=A3JUITX7YOAIRQ&assignmentId=3LPW2N6LKUOQPKFSTSOEVU98LZJU5B&a=L2PL9&tp_a=L2PL9&b=3LPW2N6LKUOQPKFSTSOEVU98LZJU5B&tp_b=3LPW2N6LKUOQPKFSTSOEVU98LZJU5B&c=365799&tp_c=365799"},{"rt":2420,"stimulus":"\n            <h4 style=\"color:Orange;\">Student 6</h4>\n            <h2>The weight of your coin is <b style=\"color:Tomato;\">0.8</b>.</h2>\n            <p>In this block, you will be giving <b>one</b> set of examples to Student 6.</p>\n                <p>You will receive feedback at the end of the block.</p>\n            <p></p>","response":0,"trial_type":"html-button-response","trial_index":47,"time_elapsed":764888,"internal_node_id":"0.0-38.0","params":{"nStudents":24,"maxFlips":30,"completionMinutes":45,"basePay":8,"maxBonus":9,"perTrialBonus":0.5,"perTrialBonusThreshold":0.05,"exampleCost":0.01},"classroomParams":{"A":{"a":1,"b":4},"B":{"a":4,"b":1},"C":{"a":2,"b":8},"D":{"a":8,"b":2}},"conditions":["nonSeqFull","nonSeqPartial","seqNoFeedback","seqFeedback"],"classroomPairings":[["A","B"],["C","D"]],"coinWeights":[0.2,0.5,0.8],"subjectId":"A3JUITX7YOAIRQ","assignmentId":"3LPW2N6LKUOQPKFSTSOEVU98LZJU5B","hitId":"3AQN9REUTF20OMGWRXYK787QVFOYDP","url":"https://gershmanlab.com/experiments/alicia/teaching/experiment/?hitId=3AQN9REUTF20OMGWRXYK787QVFOYDP&workerId=A3JUITX7YOAIRQ&assignmentId=3LPW2N6LKUOQPKFSTSOEVU98LZJU5B&a=L2PL9&tp_a=L2PL9&b=3LPW2N6LKUOQPKFSTSOEVU98LZJU5B&tp_b=3LPW2N6LKUOQPKFSTSOEVU98LZJU5B&c=365799&tp_c=365799"},{"rt":5714,"response":{"heads":"0","tails":"0"},"type":"response","condition":"nonSeqPartial","trueTheta":0.8,"classrooms":["A","B"],"studentTrueClassroom":"B","exampleSet":"first","trial_type":"survey-html-form","trial_index":48,"time_elapsed":770604,"internal_node_id":"0.0-39.0-0.0","params":{"nStudents":24,"maxFlips":30,"completionMinutes":45,"basePay":8,"maxBonus":9,"perTrialBonus":0.5,"perTrialBonusThreshold":0.05,"exampleCost":0.01},"classroomParams":{"A":{"a":1,"b":4},"B":{"a":4,"b":1},"C":{"a":2,"b":8},"D":{"a":8,"b":2}},"conditions":["nonSeqFull","nonSeqPartial","seqNoFeedback","seqFeedback"],"classroomPairings":[["A","B"],["C","D"]],"coinWeights":[0.2,0.5,0.8],"subjectId":"A3JUITX7YOAIRQ","assignmentId":"3LPW2N6LKUOQPKFSTSOEVU98LZJU5B","hitId":"3AQN9REUTF20OMGWRXYK787QVFOYDP","url":"https://gershmanlab.com/experiments/alicia/teaching/experiment/?hitId=3AQN9REUTF20OMGWRXYK787QVFOYDP&workerId=A3JUITX7YOAIRQ&assignmentId=3LPW2N6LKUOQPKFSTSOEVU98LZJU5B&a=L2PL9&tp_a=L2PL9&b=3LPW2N6LKUOQPKFSTSOEVU98LZJU5B&tp_b=3LPW2N6LKUOQPKFSTSOEVU98LZJU5B&c=365799&tp_c=365799","heads":0,"tails":0,"studentIndex":5,"studentTrueHypers":{"a":4,"b":1},"studentGuess":0.8,"delta":0,"totalExamples":0,"bonus":0.5,"bonusSoFar":0.7},{"rt":12705,"response":{"heads":"4","tails":"1"},"type":"response","condition":"nonSeqPartial","trueTheta":0.8,"classrooms":["A","B"],"studentTrueClassroom":"B","exampleSet":"first","trial_type":"survey-html-form","trial_index":49,"time_elapsed":783310,"internal_node_id":"0.0-39.1-0.1","params":{"nStudents":24,"maxFlips":30,"completionMinutes":45,"basePay":8,"maxBonus":9,"perTrialBonus":0.5,"perTrialBonusThreshold":0.05,"exampleCost":0.01},"classroomParams":{"A":{"a":1,"b":4},"B":{"a":4,"b":1},"C":{"a":2,"b":8},"D":{"a":8,"b":2}},"conditions":["nonSeqFull","nonSeqPartial","seqNoFeedback","seqFeedback"],"classroomPairings":[["A","B"],["C","D"]],"coinWeights":[0.2,0.5,0.8],"subjectId":"A3JUITX7YOAIRQ","assignmentId":"3LPW2N6LKUOQPKFSTSOEVU98LZJU5B","hitId":"3AQN9REUTF20OMGWRXYK787QVFOYDP","url":"https://gershmanlab.com/experiments/alicia/teaching/experiment/?hitId=3AQN9REUTF20OMGWRXYK787QVFOYDP&workerId=A3JUITX7YOAIRQ&assignmentId=3LPW2N6LKUOQPKFSTSOEVU98LZJU5B&a=L2PL9&tp_a=L2PL9&b=3LPW2N6LKUOQPKFSTSOEVU98LZJU5B&tp_b=3LPW2N6LKUOQPKFSTSOEVU98LZJU5B&c=365799&tp_c=365799","heads":4,"tails":1,"studentIndex":5,"studentTrueHypers":{"a":4,"b":1},"studentGuess":0.8,"delta":0,"totalExamples":5,"bonus":0.45,"bonusSoFar":1.15},{"rt":null,"stimulus":"Sending examples to student... ","response":null,"trial_type":"html-keyboard-response","trial_index":50,"time_elapsed":785067,"internal_node_id":"0.0-40.0","params":{"nStudents":24,"maxFlips":30,"completionMinutes":45,"basePay":8,"maxBonus":9,"perTrialBonus":0.5,"perTrialBonusThreshold":0.05,"exampleCost":0.01},"classroomParams":{"A":{"a":1,"b":4},"B":{"a":4,"b":1},"C":{"a":2,"b":8},"D":{"a":8,"b":2}},"conditions":["nonSeqFull","nonSeqPartial","seqNoFeedback","seqFeedback"],"classroomPairings":[["A","B"],["C","D"]],"coinWeights":[0.2,0.5,0.8],"subjectId":"A3JUITX7YOAIRQ","assignmentId":"3LPW2N6LKUOQPKFSTSOEVU98LZJU5B","hitId":"3AQN9REUTF20OMGWRXYK787QVFOYDP","url":"https://gershmanlab.com/experiments/alicia/teaching/experiment/?hitId=3AQN9REUTF20OMGWRXYK787QVFOYDP&workerId=A3JUITX7YOAIRQ&assignmentId=3LPW2N6LKUOQPKFSTSOEVU98LZJU5B&a=L2PL9&tp_a=L2PL9&b=3LPW2N6LKUOQPKFSTSOEVU98LZJU5B&tp_b=3LPW2N6LKUOQPKFSTSOEVU98LZJU5B&c=365799&tp_c=365799"},{"rt":null,"stimulus":"Examples sent to student! Waiting for student...","response":null,"trial_type":"html-keyboard-response","trial_index":51,"time_elapsed":791075,"internal_node_id":"0.0-41.0","params":{"nStudents":24,"maxFlips":30,"completionMinutes":45,"basePay":8,"maxBonus":9,"perTrialBonus":0.5,"perTrialBonusThreshold":0.05,"exampleCost":0.01},"classroomParams":{"A":{"a":1,"b":4},"B":{"a":4,"b":1},"C":{"a":2,"b":8},"D":{"a":8,"b":2}},"conditions":["nonSeqFull","nonSeqPartial","seqNoFeedback","seqFeedback"],"classroomPairings":[["A","B"],["C","D"]],"coinWeights":[0.2,0.5,0.8],"subjectId":"A3JUITX7YOAIRQ","assignmentId":"3LPW2N6LKUOQPKFSTSOEVU98LZJU5B","hitId":"3AQN9REUTF20OMGWRXYK787QVFOYDP","url":"https://gershmanlab.com/experiments/alicia/teaching/experiment/?hitId=3AQN9REUTF20OMGWRXYK787QVFOYDP&workerId=A3JUITX7YOAIRQ&assignmentId=3LPW2N6LKUOQPKFSTSOEVU98LZJU5B&a=L2PL9&tp_a=L2PL9&b=3LPW2N6LKUOQPKFSTSOEVU98LZJU5B&tp_b=3LPW2N6LKUOQPKFSTSOEVU98LZJU5B&c=365799&tp_c=365799"},{"rt":1618,"stimulus":"\n                <p>Student's guess for coin weight: <b style=\"color:Tomato;\">0.80</b></p>\n                <p>You received a bonus of <b>$0.5</b>. Total bonus so far: <b>$1.15</b></b></p>\n                <p></p>\n                <p>Press any key to continue.</p>\n                ","response":" ","trial_type":"html-keyboard-response","trial_index":52,"time_elapsed":792693,"internal_node_id":"0.0-42.0","params":{"nStudents":24,"maxFlips":30,"completionMinutes":45,"basePay":8,"maxBonus":9,"perTrialBonus":0.5,"perTrialBonusThreshold":0.05,"exampleCost":0.01},"classroomParams":{"A":{"a":1,"b":4},"B":{"a":4,"b":1},"C":{"a":2,"b":8},"D":{"a":8,"b":2}},"conditions":["nonSeqFull","nonSeqPartial","seqNoFeedback","seqFeedback"],"classroomPairings":[["A","B"],["C","D"]],"coinWeights":[0.2,0.5,0.8],"subjectId":"A3JUITX7YOAIRQ","assignmentId":"3LPW2N6LKUOQPKFSTSOEVU98LZJU5B","hitId":"3AQN9REUTF20OMGWRXYK787QVFOYDP","url":"https://gershmanlab.com/experiments/alicia/teaching/experiment/?hitId=3AQN9REUTF20OMGWRXYK787QVFOYDP&workerId=A3JUITX7YOAIRQ&assignmentId=3LPW2N6LKUOQPKFSTSOEVU98LZJU5B&a=L2PL9&tp_a=L2PL9&b=3LPW2N6LKUOQPKFSTSOEVU98LZJU5B&tp_b=3LPW2N6LKUOQPKFSTSOEVU98LZJU5B&c=365799&tp_c=365799"},{"rt":null,"stimulus":"<div style=\"font-size:60px;\">Next student</div>","response":null,"trial_type":"html-keyboard-response","trial_index":53,"time_elapsed":795698,"internal_node_id":"0.0-43.0-0.0","params":{"nStudents":24,"maxFlips":30,"completionMinutes":45,"basePay":8,"maxBonus":9,"perTrialBonus":0.5,"perTrialBonusThreshold":0.05,"exampleCost":0.01},"classroomParams":{"A":{"a":1,"b":4},"B":{"a":4,"b":1},"C":{"a":2,"b":8},"D":{"a":8,"b":2}},"conditions":["nonSeqFull","nonSeqPartial","seqNoFeedback","seqFeedback"],"classroomPairings":[["A","B"],["C","D"]],"coinWeights":[0.2,0.5,0.8],"subjectId":"A3JUITX7YOAIRQ","assignmentId":"3LPW2N6LKUOQPKFSTSOEVU98LZJU5B","hitId":"3AQN9REUTF20OMGWRXYK787QVFOYDP","url":"https://gershmanlab.com/experiments/alicia/teaching/experiment/?hitId=3AQN9REUTF20OMGWRXYK787QVFOYDP&workerId=A3JUITX7YOAIRQ&assignmentId=3LPW2N6LKUOQPKFSTSOEVU98LZJU5B&a=L2PL9&tp_a=L2PL9&b=3LPW2N6LKUOQPKFSTSOEVU98LZJU5B&tp_b=3LPW2N6LKUOQPKFSTSOEVU98LZJU5B&c=365799&tp_c=365799"},{"rt":3937,"stimulus":"\n            <h4 style=\"color:Orange;\">Student 7</h4>\n            <h2>The weight of your coin is <b style=\"color:Tomato;\">0.2</b>.</h2>\n            <p>In this block, you will be giving <b>two</b> sets of examples to Student 7.</p>\n                <p>You will see the student's guess after the first set of examples. You will also receive feedback at the end of the block.</p>\n            <p>To earn the highest bonus, you will have to <b>take into consideration the student's guess</b> when you choose your second set of examples.</p>","response":0,"trial_type":"html-button-response","trial_index":54,"time_elapsed":799637,"internal_node_id":"0.0-44.0","params":{"nStudents":24,"maxFlips":30,"completionMinutes":45,"basePay":8,"maxBonus":9,"perTrialBonus":0.5,"perTrialBonusThreshold":0.05,"exampleCost":0.01},"classroomParams":{"A":{"a":1,"b":4},"B":{"a":4,"b":1},"C":{"a":2,"b":8},"D":{"a":8,"b":2}},"conditions":["nonSeqFull","nonSeqPartial","seqNoFeedback","seqFeedback"],"classroomPairings":[["A","B"],["C","D"]],"coinWeights":[0.2,0.5,0.8],"subjectId":"A3JUITX7YOAIRQ","assignmentId":"3LPW2N6LKUOQPKFSTSOEVU98LZJU5B","hitId":"3AQN9REUTF20OMGWRXYK787QVFOYDP","url":"https://gershmanlab.com/experiments/alicia/teaching/experiment/?hitId=3AQN9REUTF20OMGWRXYK787QVFOYDP&workerId=A3JUITX7YOAIRQ&assignmentId=3LPW2N6LKUOQPKFSTSOEVU98LZJU5B&a=L2PL9&tp_a=L2PL9&b=3LPW2N6LKUOQPKFSTSOEVU98LZJU5B&tp_b=3LPW2N6LKUOQPKFSTSOEVU98LZJU5B&c=365799&tp_c=365799"},{"rt":18762,"response":{"heads":"0","tails":"4"},"type":"response","condition":"seqFeedback","trueTheta":0.2,"classrooms":["A","B"],"studentTrueClassroom":"B","exampleSet":"first","trial_type":"survey-html-form","trial_index":55,"time_elapsed":818401,"internal_node_id":"0.0-45.0-0.0","params":{"nStudents":24,"maxFlips":30,"completionMinutes":45,"basePay":8,"maxBonus":9,"perTrialBonus":0.5,"perTrialBonusThreshold":0.05,"exampleCost":0.01},"classroomParams":{"A":{"a":1,"b":4},"B":{"a":4,"b":1},"C":{"a":2,"b":8},"D":{"a":8,"b":2}},"conditions":["nonSeqFull","nonSeqPartial","seqNoFeedback","seqFeedback"],"classroomPairings":[["A","B"],["C","D"]],"coinWeights":[0.2,0.5,0.8],"subjectId":"A3JUITX7YOAIRQ","assignmentId":"3LPW2N6LKUOQPKFSTSOEVU98LZJU5B","hitId":"3AQN9REUTF20OMGWRXYK787QVFOYDP","url":"https://gershmanlab.com/experiments/alicia/teaching/experiment/?hitId=3AQN9REUTF20OMGWRXYK787QVFOYDP&workerId=A3JUITX7YOAIRQ&assignmentId=3LPW2N6LKUOQPKFSTSOEVU98LZJU5B&a=L2PL9&tp_a=L2PL9&b=3LPW2N6LKUOQPKFSTSOEVU98LZJU5B&tp_b=3LPW2N6LKUOQPKFSTSOEVU98LZJU5B&c=365799&tp_c=365799","heads":0,"tails":4,"studentIndex":6,"studentTrueHypers":{"a":4,"b":1},"studentGuess":0.4444444444444444,"delta":0.2444444444444444,"totalExamples":4,"bonusSoFar":1.15},{"rt":null,"stimulus":"Sending examples to student... ","response":null,"trial_type":"html-keyboard-response","trial_index":56,"time_elapsed":819665,"internal_node_id":"0.0-46.0","params":{"nStudents":24,"maxFlips":30,"completionMinutes":45,"basePay":8,"maxBonus":9,"perTrialBonus":0.5,"perTrialBonusThreshold":0.05,"exampleCost":0.01},"classroomParams":{"A":{"a":1,"b":4},"B":{"a":4,"b":1},"C":{"a":2,"b":8},"D":{"a":8,"b":2}},"conditions":["nonSeqFull","nonSeqPartial","seqNoFeedback","seqFeedback"],"classroomPairings":[["A","B"],["C","D"]],"coinWeights":[0.2,0.5,0.8],"subjectId":"A3JUITX7YOAIRQ","assignmentId":"3LPW2N6LKUOQPKFSTSOEVU98LZJU5B","hitId":"3AQN9REUTF20OMGWRXYK787QVFOYDP","url":"https://gershmanlab.com/experiments/alicia/teaching/experiment/?hitId=3AQN9REUTF20OMGWRXYK787QVFOYDP&workerId=A3JUITX7YOAIRQ&assignmentId=3LPW2N6LKUOQPKFSTSOEVU98LZJU5B&a=L2PL9&tp_a=L2PL9&b=3LPW2N6LKUOQPKFSTSOEVU98LZJU5B&tp_b=3LPW2N6LKUOQPKFSTSOEVU98LZJU5B&c=365799&tp_c=365799"},{"rt":null,"stimulus":"Examples sent to student! Waiting for student...","response":null,"trial_type":"html-keyboard-response","trial_index":57,"time_elapsed":825171,"internal_node_id":"0.0-47.0","params":{"nStudents":24,"maxFlips":30,"completionMinutes":45,"basePay":8,"maxBonus":9,"perTrialBonus":0.5,"perTrialBonusThreshold":0.05,"exampleCost":0.01},"classroomParams":{"A":{"a":1,"b":4},"B":{"a":4,"b":1},"C":{"a":2,"b":8},"D":{"a":8,"b":2}},"conditions":["nonSeqFull","nonSeqPartial","seqNoFeedback","seqFeedback"],"classroomPairings":[["A","B"],["C","D"]],"coinWeights":[0.2,0.5,0.8],"subjectId":"A3JUITX7YOAIRQ","assignmentId":"3LPW2N6LKUOQPKFSTSOEVU98LZJU5B","hitId":"3AQN9REUTF20OMGWRXYK787QVFOYDP","url":"https://gershmanlab.com/experiments/alicia/teaching/experiment/?hitId=3AQN9REUTF20OMGWRXYK787QVFOYDP&workerId=A3JUITX7YOAIRQ&assignmentId=3LPW2N6LKUOQPKFSTSOEVU98LZJU5B&a=L2PL9&tp_a=L2PL9&b=3LPW2N6LKUOQPKFSTSOEVU98LZJU5B&tp_b=3LPW2N6LKUOQPKFSTSOEVU98LZJU5B&c=365799&tp_c=365799"},{"rt":3308,"stimulus":"\n                <p>Student's guess for coin weight: <b style=\"color:Tomato;\">0.44</b></p>\n                <p></b></p>\n                <p>You will now send another set of examples to your student. <b>Remember to take your student's guess into consideration so that you can earn the highest bonus possible!</b> </p>\n                <p>Press any key to continue.</p>\n                ","response":" ","trial_type":"html-keyboard-response","trial_index":58,"time_elapsed":828479,"internal_node_id":"0.0-48.0","params":{"nStudents":24,"maxFlips":30,"completionMinutes":45,"basePay":8,"maxBonus":9,"perTrialBonus":0.5,"perTrialBonusThreshold":0.05,"exampleCost":0.01},"classroomParams":{"A":{"a":1,"b":4},"B":{"a":4,"b":1},"C":{"a":2,"b":8},"D":{"a":8,"b":2}},"conditions":["nonSeqFull","nonSeqPartial","seqNoFeedback","seqFeedback"],"classroomPairings":[["A","B"],["C","D"]],"coinWeights":[0.2,0.5,0.8],"subjectId":"A3JUITX7YOAIRQ","assignmentId":"3LPW2N6LKUOQPKFSTSOEVU98LZJU5B","hitId":"3AQN9REUTF20OMGWRXYK787QVFOYDP","url":"https://gershmanlab.com/experiments/alicia/teaching/experiment/?hitId=3AQN9REUTF20OMGWRXYK787QVFOYDP&workerId=A3JUITX7YOAIRQ&assignmentId=3LPW2N6LKUOQPKFSTSOEVU98LZJU5B&a=L2PL9&tp_a=L2PL9&b=3LPW2N6LKUOQPKFSTSOEVU98LZJU5B&tp_b=3LPW2N6LKUOQPKFSTSOEVU98LZJU5B&c=365799&tp_c=365799"},{"rt":9934,"response":{"heads":"1","tails":"4"},"type":"response","condition":"seqFeedback","trueTheta":0.2,"classrooms":["A","B"],"studentTrueClassroom":"B","exampleSet":"second","trial_type":"survey-html-form","trial_index":59,"time_elapsed":838415,"internal_node_id":"0.0-49.0-0.0","params":{"nStudents":24,"maxFlips":30,"completionMinutes":45,"basePay":8,"maxBonus":9,"perTrialBonus":0.5,"perTrialBonusThreshold":0.05,"exampleCost":0.01},"classroomParams":{"A":{"a":1,"b":4},"B":{"a":4,"b":1},"C":{"a":2,"b":8},"D":{"a":8,"b":2}},"conditions":["nonSeqFull","nonSeqPartial","seqNoFeedback","seqFeedback"],"classroomPairings":[["A","B"],["C","D"]],"coinWeights":[0.2,0.5,0.8],"subjectId":"A3JUITX7YOAIRQ","assignmentId":"3LPW2N6LKUOQPKFSTSOEVU98LZJU5B","hitId":"3AQN9REUTF20OMGWRXYK787QVFOYDP","url":"https://gershmanlab.com/experiments/alicia/teaching/experiment/?hitId=3AQN9REUTF20OMGWRXYK787QVFOYDP&workerId=A3JUITX7YOAIRQ&assignmentId=3LPW2N6LKUOQPKFSTSOEVU98LZJU5B&a=L2PL9&tp_a=L2PL9&b=3LPW2N6LKUOQPKFSTSOEVU98LZJU5B&tp_b=3LPW2N6LKUOQPKFSTSOEVU98LZJU5B&c=365799&tp_c=365799","firstResponseHeads":0,"firstResponseTails":4,"secondResponseHeads":1,"secondResponseTails":4,"totalHeads":1,"totalTails":8,"studentIndex":6,"studentTrueHypers":{"a":4,"b":1},"studentGuess":0.35714285714285715,"delta":0.15714285714285714,"bonus":0,"bonusSoFar":1.15,"totalExamples":9},{"rt":null,"stimulus":"Sending examples to student... ","response":null,"trial_type":"html-keyboard-response","trial_index":60,"time_elapsed":840171,"internal_node_id":"0.0-50.0","params":{"nStudents":24,"maxFlips":30,"completionMinutes":45,"basePay":8,"maxBonus":9,"perTrialBonus":0.5,"perTrialBonusThreshold":0.05,"exampleCost":0.01},"classroomParams":{"A":{"a":1,"b":4},"B":{"a":4,"b":1},"C":{"a":2,"b":8},"D":{"a":8,"b":2}},"conditions":["nonSeqFull","nonSeqPartial","seqNoFeedback","seqFeedback"],"classroomPairings":[["A","B"],["C","D"]],"coinWeights":[0.2,0.5,0.8],"subjectId":"A3JUITX7YOAIRQ","assignmentId":"3LPW2N6LKUOQPKFSTSOEVU98LZJU5B","hitId":"3AQN9REUTF20OMGWRXYK787QVFOYDP","url":"https://gershmanlab.com/experiments/alicia/teaching/experiment/?hitId=3AQN9REUTF20OMGWRXYK787QVFOYDP&workerId=A3JUITX7YOAIRQ&assignmentId=3LPW2N6LKUOQPKFSTSOEVU98LZJU5B&a=L2PL9&tp_a=L2PL9&b=3LPW2N6LKUOQPKFSTSOEVU98LZJU5B&tp_b=3LPW2N6LKUOQPKFSTSOEVU98LZJU5B&c=365799&tp_c=365799"},{"rt":null,"stimulus":"Examples sent to student! Waiting for student...","response":null,"trial_type":"html-keyboard-response","trial_index":61,"time_elapsed":845679,"internal_node_id":"0.0-51.0","params":{"nStudents":24,"maxFlips":30,"completionMinutes":45,"basePay":8,"maxBonus":9,"perTrialBonus":0.5,"perTrialBonusThreshold":0.05,"exampleCost":0.01},"classroomParams":{"A":{"a":1,"b":4},"B":{"a":4,"b":1},"C":{"a":2,"b":8},"D":{"a":8,"b":2}},"conditions":["nonSeqFull","nonSeqPartial","seqNoFeedback","seqFeedback"],"classroomPairings":[["A","B"],["C","D"]],"coinWeights":[0.2,0.5,0.8],"subjectId":"A3JUITX7YOAIRQ","assignmentId":"3LPW2N6LKUOQPKFSTSOEVU98LZJU5B","hitId":"3AQN9REUTF20OMGWRXYK787QVFOYDP","url":"https://gershmanlab.com/experiments/alicia/teaching/experiment/?hitId=3AQN9REUTF20OMGWRXYK787QVFOYDP&workerId=A3JUITX7YOAIRQ&assignmentId=3LPW2N6LKUOQPKFSTSOEVU98LZJU5B&a=L2PL9&tp_a=L2PL9&b=3LPW2N6LKUOQPKFSTSOEVU98LZJU5B&tp_b=3LPW2N6LKUOQPKFSTSOEVU98LZJU5B&c=365799&tp_c=365799"},{"rt":3056,"stimulus":"\n                <p>Student 7's first guess for coin weight: <b style=\"color:Tomato\";>0.44</b></p>\n                <p>Student 7's second guess for coin weight: <b style=\"color:Tomato\";>0.36</b></p>\n                <p>You received a bonus of <b>$0.00</b> based on the student's second guess.</p>\n                <p>Total bonus so far: <b>$1.15</b></p>\n                <p>Press any key to continue.</p>\n                ","response":" ","trial_type":"html-keyboard-response","trial_index":62,"time_elapsed":848736,"internal_node_id":"0.0-52.0","params":{"nStudents":24,"maxFlips":30,"completionMinutes":45,"basePay":8,"maxBonus":9,"perTrialBonus":0.5,"perTrialBonusThreshold":0.05,"exampleCost":0.01},"classroomParams":{"A":{"a":1,"b":4},"B":{"a":4,"b":1},"C":{"a":2,"b":8},"D":{"a":8,"b":2}},"conditions":["nonSeqFull","nonSeqPartial","seqNoFeedback","seqFeedback"],"classroomPairings":[["A","B"],["C","D"]],"coinWeights":[0.2,0.5,0.8],"subjectId":"A3JUITX7YOAIRQ","assignmentId":"3LPW2N6LKUOQPKFSTSOEVU98LZJU5B","hitId":"3AQN9REUTF20OMGWRXYK787QVFOYDP","url":"https://gershmanlab.com/experiments/alicia/teaching/experiment/?hitId=3AQN9REUTF20OMGWRXYK787QVFOYDP&workerId=A3JUITX7YOAIRQ&assignmentId=3LPW2N6LKUOQPKFSTSOEVU98LZJU5B&a=L2PL9&tp_a=L2PL9&b=3LPW2N6LKUOQPKFSTSOEVU98LZJU5B&tp_b=3LPW2N6LKUOQPKFSTSOEVU98LZJU5B&c=365799&tp_c=365799"},{"rt":null,"stimulus":"<div style=\"font-size:60px;\">Next student</div>","response":null,"trial_type":"html-keyboard-response","trial_index":63,"time_elapsed":851745,"internal_node_id":"0.0-53.0-0.0","params":{"nStudents":24,"maxFlips":30,"completionMinutes":45,"basePay":8,"maxBonus":9,"perTrialBonus":0.5,"perTrialBonusThreshold":0.05,"exampleCost":0.01},"classroomParams":{"A":{"a":1,"b":4},"B":{"a":4,"b":1},"C":{"a":2,"b":8},"D":{"a":8,"b":2}},"conditions":["nonSeqFull","nonSeqPartial","seqNoFeedback","seqFeedback"],"classroomPairings":[["A","B"],["C","D"]],"coinWeights":[0.2,0.5,0.8],"subjectId":"A3JUITX7YOAIRQ","assignmentId":"3LPW2N6LKUOQPKFSTSOEVU98LZJU5B","hitId":"3AQN9REUTF20OMGWRXYK787QVFOYDP","url":"https://gershmanlab.com/experiments/alicia/teaching/experiment/?hitId=3AQN9REUTF20OMGWRXYK787QVFOYDP&workerId=A3JUITX7YOAIRQ&assignmentId=3LPW2N6LKUOQPKFSTSOEVU98LZJU5B&a=L2PL9&tp_a=L2PL9&b=3LPW2N6LKUOQPKFSTSOEVU98LZJU5B&tp_b=3LPW2N6LKUOQPKFSTSOEVU98LZJU5B&c=365799&tp_c=365799"},{"rt":1688,"stimulus":"\n            <h4 style=\"color:Orange;\">Student 8</h4>\n            <h2>The weight of your coin is <b style=\"color:Tomato;\">0.5</b>.</h2>\n            <p>In this block, you will be giving <b>one</b> set of examples to Student 8.</p>\n                <p>You will receive feedback at the end of the block.</p>\n            <p></p>","response":0,"trial_type":"html-button-response","trial_index":64,"time_elapsed":853435,"internal_node_id":"0.0-54.0","params":{"nStudents":24,"maxFlips":30,"completionMinutes":45,"basePay":8,"maxBonus":9,"perTrialBonus":0.5,"perTrialBonusThreshold":0.05,"exampleCost":0.01},"classroomParams":{"A":{"a":1,"b":4},"B":{"a":4,"b":1},"C":{"a":2,"b":8},"D":{"a":8,"b":2}},"conditions":["nonSeqFull","nonSeqPartial","seqNoFeedback","seqFeedback"],"classroomPairings":[["A","B"],["C","D"]],"coinWeights":[0.2,0.5,0.8],"subjectId":"A3JUITX7YOAIRQ","assignmentId":"3LPW2N6LKUOQPKFSTSOEVU98LZJU5B","hitId":"3AQN9REUTF20OMGWRXYK787QVFOYDP","url":"https://gershmanlab.com/experiments/alicia/teaching/experiment/?hitId=3AQN9REUTF20OMGWRXYK787QVFOYDP&workerId=A3JUITX7YOAIRQ&assignmentId=3LPW2N6LKUOQPKFSTSOEVU98LZJU5B&a=L2PL9&tp_a=L2PL9&b=3LPW2N6LKUOQPKFSTSOEVU98LZJU5B&tp_b=3LPW2N6LKUOQPKFSTSOEVU98LZJU5B&c=365799&tp_c=365799"},{"rt":10996,"response":{"heads":"6","tails":"0"},"type":"response","condition":"nonSeqPartial","trueTheta":0.5,"classrooms":["C","D"],"studentTrueClassroom":"D","exampleSet":"first","trial_type":"survey-html-form","trial_index":65,"time_elapsed":864434,"internal_node_id":"0.0-55.0-0.0","params":{"nStudents":24,"maxFlips":30,"completionMinutes":45,"basePay":8,"maxBonus":9,"perTrialBonus":0.5,"perTrialBonusThreshold":0.05,"exampleCost":0.01},"classroomParams":{"A":{"a":1,"b":4},"B":{"a":4,"b":1},"C":{"a":2,"b":8},"D":{"a":8,"b":2}},"conditions":["nonSeqFull","nonSeqPartial","seqNoFeedback","seqFeedback"],"classroomPairings":[["A","B"],["C","D"]],"coinWeights":[0.2,0.5,0.8],"subjectId":"A3JUITX7YOAIRQ","assignmentId":"3LPW2N6LKUOQPKFSTSOEVU98LZJU5B","hitId":"3AQN9REUTF20OMGWRXYK787QVFOYDP","url":"https://gershmanlab.com/experiments/alicia/teaching/experiment/?hitId=3AQN9REUTF20OMGWRXYK787QVFOYDP&workerId=A3JUITX7YOAIRQ&assignmentId=3LPW2N6LKUOQPKFSTSOEVU98LZJU5B&a=L2PL9&tp_a=L2PL9&b=3LPW2N6LKUOQPKFSTSOEVU98LZJU5B&tp_b=3LPW2N6LKUOQPKFSTSOEVU98LZJU5B&c=365799&tp_c=365799","heads":6,"tails":0,"studentIndex":7,"studentTrueHypers":{"a":8,"b":2},"studentGuess":0.875,"delta":0.375,"totalExamples":6,"bonus":0,"bonusSoFar":1.15},{"rt":null,"stimulus":"Sending examples to student... ","response":null,"trial_type":"html-keyboard-response","trial_index":66,"time_elapsed":866439,"internal_node_id":"0.0-56.0","params":{"nStudents":24,"maxFlips":30,"completionMinutes":45,"basePay":8,"maxBonus":9,"perTrialBonus":0.5,"perTrialBonusThreshold":0.05,"exampleCost":0.01},"classroomParams":{"A":{"a":1,"b":4},"B":{"a":4,"b":1},"C":{"a":2,"b":8},"D":{"a":8,"b":2}},"conditions":["nonSeqFull","nonSeqPartial","seqNoFeedback","seqFeedback"],"classroomPairings":[["A","B"],["C","D"]],"coinWeights":[0.2,0.5,0.8],"subjectId":"A3JUITX7YOAIRQ","assignmentId":"3LPW2N6LKUOQPKFSTSOEVU98LZJU5B","hitId":"3AQN9REUTF20OMGWRXYK787QVFOYDP","url":"https://gershmanlab.com/experiments/alicia/teaching/experiment/?hitId=3AQN9REUTF20OMGWRXYK787QVFOYDP&workerId=A3JUITX7YOAIRQ&assignmentId=3LPW2N6LKUOQPKFSTSOEVU98LZJU5B&a=L2PL9&tp_a=L2PL9&b=3LPW2N6LKUOQPKFSTSOEVU98LZJU5B&tp_b=3LPW2N6LKUOQPKFSTSOEVU98LZJU5B&c=365799&tp_c=365799"},{"rt":null,"stimulus":"Examples sent to student! Waiting for student...","response":null,"trial_type":"html-keyboard-response","trial_index":67,"time_elapsed":871954,"internal_node_id":"0.0-57.0","params":{"nStudents":24,"maxFlips":30,"completionMinutes":45,"basePay":8,"maxBonus":9,"perTrialBonus":0.5,"perTrialBonusThreshold":0.05,"exampleCost":0.01},"classroomParams":{"A":{"a":1,"b":4},"B":{"a":4,"b":1},"C":{"a":2,"b":8},"D":{"a":8,"b":2}},"conditions":["nonSeqFull","nonSeqPartial","seqNoFeedback","seqFeedback"],"classroomPairings":[["A","B"],["C","D"]],"coinWeights":[0.2,0.5,0.8],"subjectId":"A3JUITX7YOAIRQ","assignmentId":"3LPW2N6LKUOQPKFSTSOEVU98LZJU5B","hitId":"3AQN9REUTF20OMGWRXYK787QVFOYDP","url":"https://gershmanlab.com/experiments/alicia/teaching/experiment/?hitId=3AQN9REUTF20OMGWRXYK787QVFOYDP&workerId=A3JUITX7YOAIRQ&assignmentId=3LPW2N6LKUOQPKFSTSOEVU98LZJU5B&a=L2PL9&tp_a=L2PL9&b=3LPW2N6LKUOQPKFSTSOEVU98LZJU5B&tp_b=3LPW2N6LKUOQPKFSTSOEVU98LZJU5B&c=365799&tp_c=365799"},{"rt":2870,"stimulus":"\n                <p>Student's guess for coin weight: <b style=\"color:Tomato;\">0.88</b></p>\n                <p>You received a bonus of <b>$0</b>. Total bonus so far: <b>$1.15</b></b></p>\n                <p></p>\n                <p>Press any key to continue.</p>\n                ","response":" ","trial_type":"html-keyboard-response","trial_index":68,"time_elapsed":874824,"internal_node_id":"0.0-58.0","params":{"nStudents":24,"maxFlips":30,"completionMinutes":45,"basePay":8,"maxBonus":9,"perTrialBonus":0.5,"perTrialBonusThreshold":0.05,"exampleCost":0.01},"classroomParams":{"A":{"a":1,"b":4},"B":{"a":4,"b":1},"C":{"a":2,"b":8},"D":{"a":8,"b":2}},"conditions":["nonSeqFull","nonSeqPartial","seqNoFeedback","seqFeedback"],"classroomPairings":[["A","B"],["C","D"]],"coinWeights":[0.2,0.5,0.8],"subjectId":"A3JUITX7YOAIRQ","assignmentId":"3LPW2N6LKUOQPKFSTSOEVU98LZJU5B","hitId":"3AQN9REUTF20OMGWRXYK787QVFOYDP","url":"https://gershmanlab.com/experiments/alicia/teaching/experiment/?hitId=3AQN9REUTF20OMGWRXYK787QVFOYDP&workerId=A3JUITX7YOAIRQ&assignmentId=3LPW2N6LKUOQPKFSTSOEVU98LZJU5B&a=L2PL9&tp_a=L2PL9&b=3LPW2N6LKUOQPKFSTSOEVU98LZJU5B&tp_b=3LPW2N6LKUOQPKFSTSOEVU98LZJU5B&c=365799&tp_c=365799"},{"rt":null,"stimulus":"<div style=\"font-size:60px;\">Next student</div>","response":null,"trial_type":"html-keyboard-response","trial_index":69,"time_elapsed":877088,"internal_node_id":"0.0-59.0-0.0","params":{"nStudents":24,"maxFlips":30,"completionMinutes":45,"basePay":8,"maxBonus":9,"perTrialBonus":0.5,"perTrialBonusThreshold":0.05,"exampleCost":0.01},"classroomParams":{"A":{"a":1,"b":4},"B":{"a":4,"b":1},"C":{"a":2,"b":8},"D":{"a":8,"b":2}},"conditions":["nonSeqFull","nonSeqPartial","seqNoFeedback","seqFeedback"],"classroomPairings":[["A","B"],["C","D"]],"coinWeights":[0.2,0.5,0.8],"subjectId":"A3JUITX7YOAIRQ","assignmentId":"3LPW2N6LKUOQPKFSTSOEVU98LZJU5B","hitId":"3AQN9REUTF20OMGWRXYK787QVFOYDP","url":"https://gershmanlab.com/experiments/alicia/teaching/experiment/?hitId=3AQN9REUTF20OMGWRXYK787QVFOYDP&workerId=A3JUITX7YOAIRQ&assignmentId=3LPW2N6LKUOQPKFSTSOEVU98LZJU5B&a=L2PL9&tp_a=L2PL9&b=3LPW2N6LKUOQPKFSTSOEVU98LZJU5B&tp_b=3LPW2N6LKUOQPKFSTSOEVU98LZJU5B&c=365799&tp_c=365799"},{"rt":1629,"stimulus":"\n            <h4 style=\"color:Orange;\">Student 9</h4>\n            <h2>The weight of your coin is <b style=\"color:Tomato;\">0.5</b>.</h2>\n            <p>In this block, you will be giving <b>one</b> set of examples to Student 9.</p>\n                <p>You will receive feedback at the end of the block.</p>\n            <p></p>","response":0,"trial_type":"html-button-response","trial_index":70,"time_elapsed":878719,"internal_node_id":"0.0-60.0","params":{"nStudents":24,"maxFlips":30,"completionMinutes":45,"basePay":8,"maxBonus":9,"perTrialBonus":0.5,"perTrialBonusThreshold":0.05,"exampleCost":0.01},"classroomParams":{"A":{"a":1,"b":4},"B":{"a":4,"b":1},"C":{"a":2,"b":8},"D":{"a":8,"b":2}},"conditions":["nonSeqFull","nonSeqPartial","seqNoFeedback","seqFeedback"],"classroomPairings":[["A","B"],["C","D"]],"coinWeights":[0.2,0.5,0.8],"subjectId":"A3JUITX7YOAIRQ","assignmentId":"3LPW2N6LKUOQPKFSTSOEVU98LZJU5B","hitId":"3AQN9REUTF20OMGWRXYK787QVFOYDP","url":"https://gershmanlab.com/experiments/alicia/teaching/experiment/?hitId=3AQN9REUTF20OMGWRXYK787QVFOYDP&workerId=A3JUITX7YOAIRQ&assignmentId=3LPW2N6LKUOQPKFSTSOEVU98LZJU5B&a=L2PL9&tp_a=L2PL9&b=3LPW2N6LKUOQPKFSTSOEVU98LZJU5B&tp_b=3LPW2N6LKUOQPKFSTSOEVU98LZJU5B&c=365799&tp_c=365799"},{"rt":12010,"response":{"heads":"0","tails":"6"},"type":"response","condition":"nonSeqFull","trueTheta":0.5,"classrooms":["C","D"],"studentTrueClassroom":"D","exampleSet":"first","trial_type":"survey-html-form","trial_index":71,"time_elapsed":890731,"internal_node_id":"0.0-61.0-0.0","params":{"nStudents":24,"maxFlips":30,"completionMinutes":45,"basePay":8,"maxBonus":9,"perTrialBonus":0.5,"perTrialBonusThreshold":0.05,"exampleCost":0.01},"classroomParams":{"A":{"a":1,"b":4},"B":{"a":4,"b":1},"C":{"a":2,"b":8},"D":{"a":8,"b":2}},"conditions":["nonSeqFull","nonSeqPartial","seqNoFeedback","seqFeedback"],"classroomPairings":[["A","B"],["C","D"]],"coinWeights":[0.2,0.5,0.8],"subjectId":"A3JUITX7YOAIRQ","assignmentId":"3LPW2N6LKUOQPKFSTSOEVU98LZJU5B","hitId":"3AQN9REUTF20OMGWRXYK787QVFOYDP","url":"https://gershmanlab.com/experiments/alicia/teaching/experiment/?hitId=3AQN9REUTF20OMGWRXYK787QVFOYDP&workerId=A3JUITX7YOAIRQ&assignmentId=3LPW2N6LKUOQPKFSTSOEVU98LZJU5B&a=L2PL9&tp_a=L2PL9&b=3LPW2N6LKUOQPKFSTSOEVU98LZJU5B&tp_b=3LPW2N6LKUOQPKFSTSOEVU98LZJU5B&c=365799&tp_c=365799","heads":0,"tails":6,"studentIndex":8,"studentTrueHypers":{"a":8,"b":2},"studentGuess":0.5,"delta":0,"totalExamples":6,"bonus":0.44,"bonusSoFar":1.59},{"rt":null,"stimulus":"Sending examples to student... ","response":null,"trial_type":"html-keyboard-response","trial_index":72,"time_elapsed":891998,"internal_node_id":"0.0-62.0","params":{"nStudents":24,"maxFlips":30,"completionMinutes":45,"basePay":8,"maxBonus":9,"perTrialBonus":0.5,"perTrialBonusThreshold":0.05,"exampleCost":0.01},"classroomParams":{"A":{"a":1,"b":4},"B":{"a":4,"b":1},"C":{"a":2,"b":8},"D":{"a":8,"b":2}},"conditions":["nonSeqFull","nonSeqPartial","seqNoFeedback","seqFeedback"],"classroomPairings":[["A","B"],["C","D"]],"coinWeights":[0.2,0.5,0.8],"subjectId":"A3JUITX7YOAIRQ","assignmentId":"3LPW2N6LKUOQPKFSTSOEVU98LZJU5B","hitId":"3AQN9REUTF20OMGWRXYK787QVFOYDP","url":"https://gershmanlab.com/experiments/alicia/teaching/experiment/?hitId=3AQN9REUTF20OMGWRXYK787QVFOYDP&workerId=A3JUITX7YOAIRQ&assignmentId=3LPW2N6LKUOQPKFSTSOEVU98LZJU5B&a=L2PL9&tp_a=L2PL9&b=3LPW2N6LKUOQPKFSTSOEVU98LZJU5B&tp_b=3LPW2N6LKUOQPKFSTSOEVU98LZJU5B&c=365799&tp_c=365799"},{"rt":null,"stimulus":"Examples sent to student! Waiting for student...","response":null,"trial_type":"html-keyboard-response","trial_index":73,"time_elapsed":897503,"internal_node_id":"0.0-63.0","params":{"nStudents":24,"maxFlips":30,"completionMinutes":45,"basePay":8,"maxBonus":9,"perTrialBonus":0.5,"perTrialBonusThreshold":0.05,"exampleCost":0.01},"classroomParams":{"A":{"a":1,"b":4},"B":{"a":4,"b":1},"C":{"a":2,"b":8},"D":{"a":8,"b":2}},"conditions":["nonSeqFull","nonSeqPartial","seqNoFeedback","seqFeedback"],"classroomPairings":[["A","B"],["C","D"]],"coinWeights":[0.2,0.5,0.8],"subjectId":"A3JUITX7YOAIRQ","assignmentId":"3LPW2N6LKUOQPKFSTSOEVU98LZJU5B","hitId":"3AQN9REUTF20OMGWRXYK787QVFOYDP","url":"https://gershmanlab.com/experiments/alicia/teaching/experiment/?hitId=3AQN9REUTF20OMGWRXYK787QVFOYDP&workerId=A3JUITX7YOAIRQ&assignmentId=3LPW2N6LKUOQPKFSTSOEVU98LZJU5B&a=L2PL9&tp_a=L2PL9&b=3LPW2N6LKUOQPKFSTSOEVU98LZJU5B&tp_b=3LPW2N6LKUOQPKFSTSOEVU98LZJU5B&c=365799&tp_c=365799"},{"rt":2554,"stimulus":"\n                <p>Student's guess for coin weight: <b style=\"color:Tomato;\">0.50</b></p>\n                <p>You received a bonus of <b>$0.44</b>. Total bonus so far: <b>$1.59</b></b></p>\n                <p></p>\n                <p>Press any key to continue.</p>\n                ","response":" ","trial_type":"html-keyboard-response","trial_index":74,"time_elapsed":900058,"internal_node_id":"0.0-64.0","params":{"nStudents":24,"maxFlips":30,"completionMinutes":45,"basePay":8,"maxBonus":9,"perTrialBonus":0.5,"perTrialBonusThreshold":0.05,"exampleCost":0.01},"classroomParams":{"A":{"a":1,"b":4},"B":{"a":4,"b":1},"C":{"a":2,"b":8},"D":{"a":8,"b":2}},"conditions":["nonSeqFull","nonSeqPartial","seqNoFeedback","seqFeedback"],"classroomPairings":[["A","B"],["C","D"]],"coinWeights":[0.2,0.5,0.8],"subjectId":"A3JUITX7YOAIRQ","assignmentId":"3LPW2N6LKUOQPKFSTSOEVU98LZJU5B","hitId":"3AQN9REUTF20OMGWRXYK787QVFOYDP","url":"https://gershmanlab.com/experiments/alicia/teaching/experiment/?hitId=3AQN9REUTF20OMGWRXYK787QVFOYDP&workerId=A3JUITX7YOAIRQ&assignmentId=3LPW2N6LKUOQPKFSTSOEVU98LZJU5B&a=L2PL9&tp_a=L2PL9&b=3LPW2N6LKUOQPKFSTSOEVU98LZJU5B&tp_b=3LPW2N6LKUOQPKFSTSOEVU98LZJU5B&c=365799&tp_c=365799"},{"rt":null,"stimulus":"<div style=\"font-size:60px;\">Next student</div>","response":null,"trial_type":"html-keyboard-response","trial_index":75,"time_elapsed":902322,"internal_node_id":"0.0-65.0-0.0","params":{"nStudents":24,"maxFlips":30,"completionMinutes":45,"basePay":8,"maxBonus":9,"perTrialBonus":0.5,"perTrialBonusThreshold":0.05,"exampleCost":0.01},"classroomParams":{"A":{"a":1,"b":4},"B":{"a":4,"b":1},"C":{"a":2,"b":8},"D":{"a":8,"b":2}},"conditions":["nonSeqFull","nonSeqPartial","seqNoFeedback","seqFeedback"],"classroomPairings":[["A","B"],["C","D"]],"coinWeights":[0.2,0.5,0.8],"subjectId":"A3JUITX7YOAIRQ","assignmentId":"3LPW2N6LKUOQPKFSTSOEVU98LZJU5B","hitId":"3AQN9REUTF20OMGWRXYK787QVFOYDP","url":"https://gershmanlab.com/experiments/alicia/teaching/experiment/?hitId=3AQN9REUTF20OMGWRXYK787QVFOYDP&workerId=A3JUITX7YOAIRQ&assignmentId=3LPW2N6LKUOQPKFSTSOEVU98LZJU5B&a=L2PL9&tp_a=L2PL9&b=3LPW2N6LKUOQPKFSTSOEVU98LZJU5B&tp_b=3LPW2N6LKUOQPKFSTSOEVU98LZJU5B&c=365799&tp_c=365799"},{"rt":1639,"stimulus":"\n            <h4 style=\"color:Orange;\">Student 10</h4>\n            <h2>The weight of your coin is <b style=\"color:Tomato;\">0.8</b>.</h2>\n            <p>In this block, you will be giving <b>two</b> sets of examples to Student 10.</p>\n                <p>You will see the student's guess after the first set of examples. You will also receive feedback at the end of the block.</p>\n            <p>To earn the highest bonus, you will have to <b>take into consideration the student's guess</b> when you choose your second set of examples.</p>","response":0,"trial_type":"html-button-response","trial_index":76,"time_elapsed":903961,"internal_node_id":"0.0-66.0","params":{"nStudents":24,"maxFlips":30,"completionMinutes":45,"basePay":8,"maxBonus":9,"perTrialBonus":0.5,"perTrialBonusThreshold":0.05,"exampleCost":0.01},"classroomParams":{"A":{"a":1,"b":4},"B":{"a":4,"b":1},"C":{"a":2,"b":8},"D":{"a":8,"b":2}},"conditions":["nonSeqFull","nonSeqPartial","seqNoFeedback","seqFeedback"],"classroomPairings":[["A","B"],["C","D"]],"coinWeights":[0.2,0.5,0.8],"subjectId":"A3JUITX7YOAIRQ","assignmentId":"3LPW2N6LKUOQPKFSTSOEVU98LZJU5B","hitId":"3AQN9REUTF20OMGWRXYK787QVFOYDP","url":"https://gershmanlab.com/experiments/alicia/teaching/experiment/?hitId=3AQN9REUTF20OMGWRXYK787QVFOYDP&workerId=A3JUITX7YOAIRQ&assignmentId=3LPW2N6LKUOQPKFSTSOEVU98LZJU5B&a=L2PL9&tp_a=L2PL9&b=3LPW2N6LKUOQPKFSTSOEVU98LZJU5B&tp_b=3LPW2N6LKUOQPKFSTSOEVU98LZJU5B&c=365799&tp_c=365799"},{"rt":6026,"response":{"heads":"6","tails":"0"},"type":"response","condition":"seqFeedback","trueTheta":0.8,"classrooms":["C","D"],"studentTrueClassroom":"C","exampleSet":"first","trial_type":"survey-html-form","trial_index":77,"time_elapsed":909988,"internal_node_id":"0.0-67.0-0.0","params":{"nStudents":24,"maxFlips":30,"completionMinutes":45,"basePay":8,"maxBonus":9,"perTrialBonus":0.5,"perTrialBonusThreshold":0.05,"exampleCost":0.01},"classroomParams":{"A":{"a":1,"b":4},"B":{"a":4,"b":1},"C":{"a":2,"b":8},"D":{"a":8,"b":2}},"conditions":["nonSeqFull","nonSeqPartial","seqNoFeedback","seqFeedback"],"classroomPairings":[["A","B"],["C","D"]],"coinWeights":[0.2,0.5,0.8],"subjectId":"A3JUITX7YOAIRQ","assignmentId":"3LPW2N6LKUOQPKFSTSOEVU98LZJU5B","hitId":"3AQN9REUTF20OMGWRXYK787QVFOYDP","url":"https://gershmanlab.com/experiments/alicia/teaching/experiment/?hitId=3AQN9REUTF20OMGWRXYK787QVFOYDP&workerId=A3JUITX7YOAIRQ&assignmentId=3LPW2N6LKUOQPKFSTSOEVU98LZJU5B&a=L2PL9&tp_a=L2PL9&b=3LPW2N6LKUOQPKFSTSOEVU98LZJU5B&tp_b=3LPW2N6LKUOQPKFSTSOEVU98LZJU5B&c=365799&tp_c=365799","heads":6,"tails":0,"studentIndex":9,"studentTrueHypers":{"a":2,"b":8},"studentGuess":0.5,"delta":0.30000000000000004,"totalExamples":6,"bonusSoFar":1.59},{"rt":null,"stimulus":"Sending examples to student... ","response":null,"trial_type":"html-keyboard-response","trial_index":78,"time_elapsed":912000,"internal_node_id":"0.0-68.0","params":{"nStudents":24,"maxFlips":30,"completionMinutes":45,"basePay":8,"maxBonus":9,"perTrialBonus":0.5,"perTrialBonusThreshold":0.05,"exampleCost":0.01},"classroomParams":{"A":{"a":1,"b":4},"B":{"a":4,"b":1},"C":{"a":2,"b":8},"D":{"a":8,"b":2}},"conditions":["nonSeqFull","nonSeqPartial","seqNoFeedback","seqFeedback"],"classroomPairings":[["A","B"],["C","D"]],"coinWeights":[0.2,0.5,0.8],"subjectId":"A3JUITX7YOAIRQ","assignmentId":"3LPW2N6LKUOQPKFSTSOEVU98LZJU5B","hitId":"3AQN9REUTF20OMGWRXYK787QVFOYDP","url":"https://gershmanlab.com/experiments/alicia/teaching/experiment/?hitId=3AQN9REUTF20OMGWRXYK787QVFOYDP&workerId=A3JUITX7YOAIRQ&assignmentId=3LPW2N6LKUOQPKFSTSOEVU98LZJU5B&a=L2PL9&tp_a=L2PL9&b=3LPW2N6LKUOQPKFSTSOEVU98LZJU5B&tp_b=3LPW2N6LKUOQPKFSTSOEVU98LZJU5B&c=365799&tp_c=365799"},{"rt":null,"stimulus":"Examples sent to student! Waiting for student...","response":null,"trial_type":"html-keyboard-response","trial_index":79,"time_elapsed":917005,"internal_node_id":"0.0-69.0","params":{"nStudents":24,"maxFlips":30,"completionMinutes":45,"basePay":8,"maxBonus":9,"perTrialBonus":0.5,"perTrialBonusThreshold":0.05,"exampleCost":0.01},"classroomParams":{"A":{"a":1,"b":4},"B":{"a":4,"b":1},"C":{"a":2,"b":8},"D":{"a":8,"b":2}},"conditions":["nonSeqFull","nonSeqPartial","seqNoFeedback","seqFeedback"],"classroomPairings":[["A","B"],["C","D"]],"coinWeights":[0.2,0.5,0.8],"subjectId":"A3JUITX7YOAIRQ","assignmentId":"3LPW2N6LKUOQPKFSTSOEVU98LZJU5B","hitId":"3AQN9REUTF20OMGWRXYK787QVFOYDP","url":"https://gershmanlab.com/experiments/alicia/teaching/experiment/?hitId=3AQN9REUTF20OMGWRXYK787QVFOYDP&workerId=A3JUITX7YOAIRQ&assignmentId=3LPW2N6LKUOQPKFSTSOEVU98LZJU5B&a=L2PL9&tp_a=L2PL9&b=3LPW2N6LKUOQPKFSTSOEVU98LZJU5B&tp_b=3LPW2N6LKUOQPKFSTSOEVU98LZJU5B&c=365799&tp_c=365799"},{"rt":2495,"stimulus":"\n                <p>Student's guess for coin weight: <b style=\"color:Tomato;\">0.50</b></p>\n                <p></b></p>\n                <p>You will now send another set of examples to your student. <b>Remember to take your student's guess into consideration so that you can earn the highest bonus possible!</b> </p>\n                <p>Press any key to continue.</p>\n                ","response":" ","trial_type":"html-keyboard-response","trial_index":80,"time_elapsed":919501,"internal_node_id":"0.0-70.0","params":{"nStudents":24,"maxFlips":30,"completionMinutes":45,"basePay":8,"maxBonus":9,"perTrialBonus":0.5,"perTrialBonusThreshold":0.05,"exampleCost":0.01},"classroomParams":{"A":{"a":1,"b":4},"B":{"a":4,"b":1},"C":{"a":2,"b":8},"D":{"a":8,"b":2}},"conditions":["nonSeqFull","nonSeqPartial","seqNoFeedback","seqFeedback"],"classroomPairings":[["A","B"],["C","D"]],"coinWeights":[0.2,0.5,0.8],"subjectId":"A3JUITX7YOAIRQ","assignmentId":"3LPW2N6LKUOQPKFSTSOEVU98LZJU5B","hitId":"3AQN9REUTF20OMGWRXYK787QVFOYDP","url":"https://gershmanlab.com/experiments/alicia/teaching/experiment/?hitId=3AQN9REUTF20OMGWRXYK787QVFOYDP&workerId=A3JUITX7YOAIRQ&assignmentId=3LPW2N6LKUOQPKFSTSOEVU98LZJU5B&a=L2PL9&tp_a=L2PL9&b=3LPW2N6LKUOQPKFSTSOEVU98LZJU5B&tp_b=3LPW2N6LKUOQPKFSTSOEVU98LZJU5B&c=365799&tp_c=365799"},{"rt":20374,"response":{"heads":"24","tails":"0"},"type":"response","condition":"seqFeedback","trueTheta":0.8,"classrooms":["C","D"],"studentTrueClassroom":"C","exampleSet":"second","trial_type":"survey-html-form","trial_index":81,"time_elapsed":939877,"internal_node_id":"0.0-71.0-0.0","params":{"nStudents":24,"maxFlips":30,"completionMinutes":45,"basePay":8,"maxBonus":9,"perTrialBonus":0.5,"perTrialBonusThreshold":0.05,"exampleCost":0.01},"classroomParams":{"A":{"a":1,"b":4},"B":{"a":4,"b":1},"C":{"a":2,"b":8},"D":{"a":8,"b":2}},"conditions":["nonSeqFull","nonSeqPartial","seqNoFeedback","seqFeedback"],"classroomPairings":[["A","B"],["C","D"]],"coinWeights":[0.2,0.5,0.8],"subjectId":"A3JUITX7YOAIRQ","assignmentId":"3LPW2N6LKUOQPKFSTSOEVU98LZJU5B","hitId":"3AQN9REUTF20OMGWRXYK787QVFOYDP","url":"https://gershmanlab.com/experiments/alicia/teaching/experiment/?hitId=3AQN9REUTF20OMGWRXYK787QVFOYDP&workerId=A3JUITX7YOAIRQ&assignmentId=3LPW2N6LKUOQPKFSTSOEVU98LZJU5B&a=L2PL9&tp_a=L2PL9&b=3LPW2N6LKUOQPKFSTSOEVU98LZJU5B&tp_b=3LPW2N6LKUOQPKFSTSOEVU98LZJU5B&c=365799&tp_c=365799","firstResponseHeads":6,"firstResponseTails":0,"secondResponseHeads":24,"secondResponseTails":0,"totalHeads":30,"totalTails":0,"studentIndex":9,"studentTrueHypers":{"a":2,"b":8},"studentGuess":0.8,"delta":0,"bonus":0.2,"bonusSoFar":1.79,"totalExamples":30},{"rt":null,"stimulus":"Sending examples to student... ","response":null,"trial_type":"html-keyboard-response","trial_index":82,"time_elapsed":941392,"internal_node_id":"0.0-72.0","params":{"nStudents":24,"maxFlips":30,"completionMinutes":45,"basePay":8,"maxBonus":9,"perTrialBonus":0.5,"perTrialBonusThreshold":0.05,"exampleCost":0.01},"classroomParams":{"A":{"a":1,"b":4},"B":{"a":4,"b":1},"C":{"a":2,"b":8},"D":{"a":8,"b":2}},"conditions":["nonSeqFull","nonSeqPartial","seqNoFeedback","seqFeedback"],"classroomPairings":[["A","B"],["C","D"]],"coinWeights":[0.2,0.5,0.8],"subjectId":"A3JUITX7YOAIRQ","assignmentId":"3LPW2N6LKUOQPKFSTSOEVU98LZJU5B","hitId":"3AQN9REUTF20OMGWRXYK787QVFOYDP","url":"https://gershmanlab.com/experiments/alicia/teaching/experiment/?hitId=3AQN9REUTF20OMGWRXYK787QVFOYDP&workerId=A3JUITX7YOAIRQ&assignmentId=3LPW2N6LKUOQPKFSTSOEVU98LZJU5B&a=L2PL9&tp_a=L2PL9&b=3LPW2N6LKUOQPKFSTSOEVU98LZJU5B&tp_b=3LPW2N6LKUOQPKFSTSOEVU98LZJU5B&c=365799&tp_c=365799"},{"rt":null,"stimulus":"Examples sent to student! Waiting for student...","response":null,"trial_type":"html-keyboard-response","trial_index":83,"time_elapsed":945393,"internal_node_id":"0.0-73.0","params":{"nStudents":24,"maxFlips":30,"completionMinutes":45,"basePay":8,"maxBonus":9,"perTrialBonus":0.5,"perTrialBonusThreshold":0.05,"exampleCost":0.01},"classroomParams":{"A":{"a":1,"b":4},"B":{"a":4,"b":1},"C":{"a":2,"b":8},"D":{"a":8,"b":2}},"conditions":["nonSeqFull","nonSeqPartial","seqNoFeedback","seqFeedback"],"classroomPairings":[["A","B"],["C","D"]],"coinWeights":[0.2,0.5,0.8],"subjectId":"A3JUITX7YOAIRQ","assignmentId":"3LPW2N6LKUOQPKFSTSOEVU98LZJU5B","hitId":"3AQN9REUTF20OMGWRXYK787QVFOYDP","url":"https://gershmanlab.com/experiments/alicia/teaching/experiment/?hitId=3AQN9REUTF20OMGWRXYK787QVFOYDP&workerId=A3JUITX7YOAIRQ&assignmentId=3LPW2N6LKUOQPKFSTSOEVU98LZJU5B&a=L2PL9&tp_a=L2PL9&b=3LPW2N6LKUOQPKFSTSOEVU98LZJU5B&tp_b=3LPW2N6LKUOQPKFSTSOEVU98LZJU5B&c=365799&tp_c=365799"},{"rt":7883,"stimulus":"\n                <p>Student 10's first guess for coin weight: <b style=\"color:Tomato\";>0.50</b></p>\n                <p>Student 10's second guess for coin weight: <b style=\"color:Tomato\";>0.80</b></p>\n                <p>You received a bonus of <b>$0.20</b> based on the student's second guess.</p>\n                <p>Total bonus so far: <b>$1.79</b></p>\n                <p>Press any key to continue.</p>\n                ","response":" ","trial_type":"html-keyboard-response","trial_index":84,"time_elapsed":953277,"internal_node_id":"0.0-74.0","params":{"nStudents":24,"maxFlips":30,"completionMinutes":45,"basePay":8,"maxBonus":9,"perTrialBonus":0.5,"perTrialBonusThreshold":0.05,"exampleCost":0.01},"classroomParams":{"A":{"a":1,"b":4},"B":{"a":4,"b":1},"C":{"a":2,"b":8},"D":{"a":8,"b":2}},"conditions":["nonSeqFull","nonSeqPartial","seqNoFeedback","seqFeedback"],"classroomPairings":[["A","B"],["C","D"]],"coinWeights":[0.2,0.5,0.8],"subjectId":"A3JUITX7YOAIRQ","assignmentId":"3LPW2N6LKUOQPKFSTSOEVU98LZJU5B","hitId":"3AQN9REUTF20OMGWRXYK787QVFOYDP","url":"https://gershmanlab.com/experiments/alicia/teaching/experiment/?hitId=3AQN9REUTF20OMGWRXYK787QVFOYDP&workerId=A3JUITX7YOAIRQ&assignmentId=3LPW2N6LKUOQPKFSTSOEVU98LZJU5B&a=L2PL9&tp_a=L2PL9&b=3LPW2N6LKUOQPKFSTSOEVU98LZJU5B&tp_b=3LPW2N6LKUOQPKFSTSOEVU98LZJU5B&