[{"rt":12673,"stimulus":"Welcome to the experiment. Press any key to begin.","response":" ","trial_type":"html-keyboard-response","trial_index":0,"time_elapsed":12820,"internal_node_id":"0.0-0.0","params":{"nStudents":24,"maxFlips":30,"completionMinutes":45,"basePay":8,"maxBonus":9,"perTrialBonus":0.5,"perTrialBonusThreshold":0.05,"exampleCost":0.01},"classroomParams":{"A":{"a":1,"b":4},"B":{"a":4,"b":1},"C":{"a":2,"b":8},"D":{"a":8,"b":2}},"conditions":["nonSeqFull","nonSeqPartial","seqNoFeedback","seqFeedback"],"classroomPairings":[["A","B"],["C","D"]],"coinWeights":[0.2,0.5,0.8],"subjectId":"A3KACB3ERCT0DG","assignmentId":"3HL8HNGX46NK7PKE1T6WLAD7X8NF9O","hitId":"32TZXEA1OL6QYKM0MXQIQH2ABHN14I","url":"https://gershmanlab.com/experiments/alicia/teaching/experiment/?hitId=32TZXEA1OL6QYKM0MXQIQH2ABHN14I&workerId=A3KACB3ERCT0DG&assignmentId=3HL8HNGX46NK7PKE1T6WLAD7X8NF9O&a=XHLH9&tp_a=XHLH9&b=3HL8HNGX46NK7PKE1T6WLAD7X8NF9O&tp_b=3HL8HNGX46NK7PKE1T6WLAD7X8NF9O&c=365799&tp_c=365799"},{"rt":3107,"stimulus":"\n        <h3>Please read this consent agreement carefully before deciding whether to participate in this experiment.</h3>\n        <p><b>Purpose of the research:</b> To examine how people teach effectively.</p>\n        <p><b>What you will do in this research:</b> You will teach students the weights of different coins.</p>\n        <p><b>Time required:</b> This experiment will take 45 minutes to complete.</p>\n        <p><b>Risks:</b> There are no anticipated risks associated with participating in this study.             The effects of participating should be comparable to those you would experience from viewing a computer monitor             and using a mouse and keyboard for the duration of the experiment.</p>\n        <p><b>Benefits:</b> The study provides important information about the nature of teaching.</p>\n        <p><b>Compensation:</b> You will receive <b>$8</b> for completing the experiment and a performance bonus of up to <b>$9</b>.</p>\n        <p><b>Confidentiality:</b> Your participation in this study will remain confidential.             No personally identifiable information will be associated with your data.             Your de-identified data may be shared with other researchers and used in future projects.</p>\n        <p><b>Participation and withdrawal:</b> Your participation in this study is completely voluntary and             you may refuse to participate or you may choose to withdraw at any time without penalty or loss of\n            benefits to which you are otherwise entitled.</p>\n        <p><b>How to contact the researcher:</b> If you have questions or concerns about your participation            or payment, or want to request a summary of research findings, please contact\n            Alicia Chen, aliciachen@college.harvard.edu.</p>\n        <p><b>Whom to contact about your rights in this research:</b> For questions, concerns, suggestions,             or complaints that have not been or cannot be addressed by the researcher, or to report             research-related harm, please contact the Committee on the Use of Human Subjects in Research at Harvard University,             1414 Massachusetts Avenue, Second Floor, Cambridge, MA 02138. Phone: 617-496-2847. Email: cuhs@fas.harvard.edu.</p>\n        ","response":0,"trial_type":"html-button-response","trial_index":1,"time_elapsed":15932,"internal_node_id":"0.0-1.0","params":{"nStudents":24,"maxFlips":30,"completionMinutes":45,"basePay":8,"maxBonus":9,"perTrialBonus":0.5,"perTrialBonusThreshold":0.05,"exampleCost":0.01},"classroomParams":{"A":{"a":1,"b":4},"B":{"a":4,"b":1},"C":{"a":2,"b":8},"D":{"a":8,"b":2}},"conditions":["nonSeqFull","nonSeqPartial","seqNoFeedback","seqFeedback"],"classroomPairings":[["A","B"],["C","D"]],"coinWeights":[0.2,0.5,0.8],"subjectId":"A3KACB3ERCT0DG","assignmentId":"3HL8HNGX46NK7PKE1T6WLAD7X8NF9O","hitId":"32TZXEA1OL6QYKM0MXQIQH2ABHN14I","url":"https://gershmanlab.com/experiments/alicia/teaching/experiment/?hitId=32TZXEA1OL6QYKM0MXQIQH2ABHN14I&workerId=A3KACB3ERCT0DG&assignmentId=3HL8HNGX46NK7PKE1T6WLAD7X8NF9O&a=XHLH9&tp_a=XHLH9&b=3HL8HNGX46NK7PKE1T6WLAD7X8NF9O&tp_b=3HL8HNGX46NK7PKE1T6WLAD7X8NF9O&c=365799&tp_c=365799"},{"view_history":[{"page_index":0,"viewing_time":3025},{"page_index":1,"viewing_time":3009},{"page_index":2,"viewing_time":18921},{"page_index":3,"viewing_time":26638},{"page_index":4,"viewing_time":11512},{"page_index":5,"viewing_time":23335},{"page_index":6,"viewing_time":22255}],"rt":108696,"trial_type":"instructions","trial_index":2,"time_elapsed":124633,"internal_node_id":"0.0-2.0-0.0","params":{"nStudents":24,"maxFlips":30,"completionMinutes":45,"basePay":8,"maxBonus":9,"perTrialBonus":0.5,"perTrialBonusThreshold":0.05,"exampleCost":0.01},"classroomParams":{"A":{"a":1,"b":4},"B":{"a":4,"b":1},"C":{"a":2,"b":8},"D":{"a":8,"b":2}},"conditions":["nonSeqFull","nonSeqPartial","seqNoFeedback","seqFeedback"],"classroomPairings":[["A","B"],["C","D"]],"coinWeights":[0.2,0.5,0.8],"subjectId":"A3KACB3ERCT0DG","assignmentId":"3HL8HNGX46NK7PKE1T6WLAD7X8NF9O","hitId":"32TZXEA1OL6QYKM0MXQIQH2ABHN14I","url":"https://gershmanlab.com/experiments/alicia/teaching/experiment/?hitId=32TZXEA1OL6QYKM0MXQIQH2ABHN14I&workerId=A3KACB3ERCT0DG&assignmentId=3HL8HNGX46NK7PKE1T6WLAD7X8NF9O&a=XHLH9&tp_a=XHLH9&b=3HL8HNGX46NK7PKE1T6WLAD7X8NF9O&tp_b=3HL8HNGX46NK7PKE1T6WLAD7X8NF9O&c=365799&tp_c=365799"},{"rt":23869,"response":{"Q0":"Students in different classrooms will have seen a different number of heads and tails before seeing the examples you select for them.","Q1":"By <b>considering the student's classroom information</b> so that I can teach efficiently and accurately/helpfully at the same time (because each example I give to the student costs money!).","Q2":"The coin lands heads 90% of the time.","Q3":"Yes, I might encounter the same student twice.","Q4":"The students are also on the same alien planet as you, where coins can be unfair.","Q5":"Based on the student's second (and final) guess."},"question_order":[1,3,5,0,4,2],"trial_type":"survey-multi-choice","trial_index":3,"time_elapsed":148510,"internal_node_id":"0.0-2.0-1.0","params":{"nStudents":24,"maxFlips":30,"completionMinutes":45,"basePay":8,"maxBonus":9,"perTrialBonus":0.5,"perTrialBonusThreshold":0.05,"exampleCost":0.01},"classroomParams":{"A":{"a":1,"b":4},"B":{"a":4,"b":1},"C":{"a":2,"b":8},"D":{"a":8,"b":2}},"conditions":["nonSeqFull","nonSeqPartial","seqNoFeedback","seqFeedback"],"classroomPairings":[["A","B"],["C","D"]],"coinWeights":[0.2,0.5,0.8],"subjectId":"A3KACB3ERCT0DG","assignmentId":"3HL8HNGX46NK7PKE1T6WLAD7X8NF9O","hitId":"32TZXEA1OL6QYKM0MXQIQH2ABHN14I","url":"https://gershmanlab.com/experiments/alicia/teaching/experiment/?hitId=32TZXEA1OL6QYKM0MXQIQH2ABHN14I&workerId=A3KACB3ERCT0DG&assignmentId=3HL8HNGX46NK7PKE1T6WLAD7X8NF9O&a=XHLH9&tp_a=XHLH9&b=3HL8HNGX46NK7PKE1T6WLAD7X8NF9O&tp_b=3HL8HNGX46NK7PKE1T6WLAD7X8NF9O&c=365799&tp_c=365799","pass":false},{"rt":2411,"stimulus":"Oops, you have missed question(s) on the comprehension check! We'll show you the instructions again.","response":0,"trial_type":"html-button-response","trial_index":4,"time_elapsed":150947,"internal_node_id":"0.0-2.0-2.0-0.0","params":{"nStudents":24,"maxFlips":30,"completionMinutes":45,"basePay":8,"maxBonus":9,"perTrialBonus":0.5,"perTrialBonusThreshold":0.05,"exampleCost":0.01},"classroomParams":{"A":{"a":1,"b":4},"B":{"a":4,"b":1},"C":{"a":2,"b":8},"D":{"a":8,"b":2}},"conditions":["nonSeqFull","nonSeqPartial","seqNoFeedback","seqFeedback"],"classroomPairings":[["A","B"],["C","D"]],"coinWeights":[0.2,0.5,0.8],"subjectId":"A3KACB3ERCT0DG","assignmentId":"3HL8HNGX46NK7PKE1T6WLAD7X8NF9O","hitId":"32TZXEA1OL6QYKM0MXQIQH2ABHN14I","url":"https://gershmanlab.com/experiments/alicia/teaching/experiment/?hitId=32TZXEA1OL6QYKM0MXQIQH2ABHN14I&workerId=A3KACB3ERCT0DG&assignmentId=3HL8HNGX46NK7PKE1T6WLAD7X8NF9O&a=XHLH9&tp_a=XHLH9&b=3HL8HNGX46NK7PKE1T6WLAD7X8NF9O&tp_b=3HL8HNGX46NK7PKE1T6WLAD7X8NF9O&c=365799&tp_c=365799"},{"view_history":[{"page_index":0,"viewing_time":2154},{"page_index":1,"viewing_time":3186},{"page_index":2,"viewing_time":6607},{"page_index":3,"viewing_time":14625},{"page_index":4,"viewing_time":16927},{"page_index":5,"viewing_time":20251},{"page_index":6,"viewing_time":17805},{"page_index":5,"viewing_time":5776},{"page_index":4,"viewing_time":7944},{"page_index":5,"viewing_time":1136},{"page_index":6,"viewing_time":7256}],"rt":103669,"trial_type":"instructions","trial_index":5,"time_elapsed":254620,"internal_node_id":"0.0-2.1-0.1","params":{"nStudents":24,"maxFlips":30,"completionMinutes":45,"basePay":8,"maxBonus":9,"perTrialBonus":0.5,"perTrialBonusThreshold":0.05,"exampleCost":0.01},"classroomParams":{"A":{"a":1,"b":4},"B":{"a":4,"b":1},"C":{"a":2,"b":8},"D":{"a":8,"b":2}},"conditions":["nonSeqFull","nonSeqPartial","seqNoFeedback","seqFeedback"],"classroomPairings":[["A","B"],["C","D"]],"coinWeights":[0.2,0.5,0.8],"subjectId":"A3KACB3ERCT0DG","assignmentId":"3HL8HNGX46NK7PKE1T6WLAD7X8NF9O","hitId":"32TZXEA1OL6QYKM0MXQIQH2ABHN14I","url":"https://gershmanlab.com/experiments/alicia/teaching/experiment/?hitId=32TZXEA1OL6QYKM0MXQIQH2ABHN14I&workerId=A3KACB3ERCT0DG&assignmentId=3HL8HNGX46NK7PKE1T6WLAD7X8NF9O&a=XHLH9&tp_a=XHLH9&b=3HL8HNGX46NK7PKE1T6WLAD7X8NF9O&tp_b=3HL8HNGX46NK7PKE1T6WLAD7X8NF9O&c=365799&tp_c=365799"},{"rt":24708,"response":{"Q0":"Students in different classrooms will have seen a different number of heads and tails before seeing the examples you select for them.","Q1":"By giving 30 examples (the maximum) on each trial so I can make sure that the students' guesses are as accurate as possible.","Q2":"The coin lands heads 90% of the time.","Q3":"Yes, I might encounter the same student twice.","Q4":"The students are also on the same alien planet as you, where coins can be unfair.","Q5":"Based on the student's second (and final) guess."},"question_order":[2,1,0,5,3,4],"trial_type":"survey-multi-choice","trial_index":6,"time_elapsed":279334,"internal_node_id":"0.0-2.1-1.1","params":{"nStudents":24,"maxFlips":30,"completionMinutes":45,"basePay":8,"maxBonus":9,"perTrialBonus":0.5,"perTrialBonusThreshold":0.05,"exampleCost":0.01},"classroomParams":{"A":{"a":1,"b":4},"B":{"a":4,"b":1},"C":{"a":2,"b":8},"D":{"a":8,"b":2}},"conditions":["nonSeqFull","nonSeqPartial","seqNoFeedback","seqFeedback"],"classroomPairings":[["A","B"],["C","D"]],"coinWeights":[0.2,0.5,0.8],"subjectId":"A3KACB3ERCT0DG","assignmentId":"3HL8HNGX46NK7PKE1T6WLAD7X8NF9O","hitId":"32TZXEA1OL6QYKM0MXQIQH2ABHN14I","url":"https://gershmanlab.com/experiments/alicia/teaching/experiment/?hitId=32TZXEA1OL6QYKM0MXQIQH2ABHN14I&workerId=A3KACB3ERCT0DG&assignmentId=3HL8HNGX46NK7PKE1T6WLAD7X8NF9O&a=XHLH9&tp_a=XHLH9&b=3HL8HNGX46NK7PKE1T6WLAD7X8NF9O&tp_b=3HL8HNGX46NK7PKE1T6WLAD7X8NF9O&c=365799&tp_c=365799","pass":false},{"rt":1572,"stimulus":"Oops, you have missed question(s) on the comprehension check! We'll show you the instructions again.","response":0,"trial_type":"html-button-response","trial_index":7,"time_elapsed":280933,"internal_node_id":"0.0-2.1-2.1-0.1","params":{"nStudents":24,"maxFlips":30,"completionMinutes":45,"basePay":8,"maxBonus":9,"perTrialBonus":0.5,"perTrialBonusThreshold":0.05,"exampleCost":0.01},"classroomParams":{"A":{"a":1,"b":4},"B":{"a":4,"b":1},"C":{"a":2,"b":8},"D":{"a":8,"b":2}},"conditions":["nonSeqFull","nonSeqPartial","seqNoFeedback","seqFeedback"],"classroomPairings":[["A","B"],["C","D"]],"coinWeights":[0.2,0.5,0.8],"subjectId":"A3KACB3ERCT0DG","assignmentId":"3HL8HNGX46NK7PKE1T6WLAD7X8NF9O","hitId":"32TZXEA1OL6QYKM0MXQIQH2ABHN14I","url":"https://gershmanlab.com/experiments/alicia/teaching/experiment/?hitId=32TZXEA1OL6QYKM0MXQIQH2ABHN14I&workerId=A3KACB3ERCT0DG&assignmentId=3HL8HNGX46NK7PKE1T6WLAD7X8NF9O&a=XHLH9&tp_a=XHLH9&b=3HL8HNGX46NK7PKE1T6WLAD7X8NF9O&tp_b=3HL8HNGX46NK7PKE1T6WLAD7X8NF9O&c=365799&tp_c=365799"},{"view_history":[{"page_index":0,"viewing_time":1930},{"page_index":1,"viewing_time":842},{"page_index":2,"viewing_time":14054},{"page_index":3,"viewing_time":1120},{"page_index":4,"viewing_time":1608},{"page_index":5,"viewing_time":1392},{"page_index":6,"viewing_time":1616}],"rt":22564,"trial_type":"instructions","trial_index":8,"time_elapsed":303498,"internal_node_id":"0.0-2.2-0.2","params":{"nStudents":24,"maxFlips":30,"completionMinutes":45,"basePay":8,"maxBonus":9,"perTrialBonus":0.5,"perTrialBonusThreshold":0.05,"exampleCost":0.01},"classroomParams":{"A":{"a":1,"b":4},"B":{"a":4,"b":1},"C":{"a":2,"b":8},"D":{"a":8,"b":2}},"conditions":["nonSeqFull","nonSeqPartial","seqNoFeedback","seqFeedback"],"classroomPairings":[["A","B"],["C","D"]],"coinWeights":[0.2,0.5,0.8],"subjectId":"A3KACB3ERCT0DG","assignmentId":"3HL8HNGX46NK7PKE1T6WLAD7X8NF9O","hitId":"32TZXEA1OL6QYKM0MXQIQH2ABHN14I","url":"https://gershmanlab.com/experiments/alicia/teaching/experiment/?hitId=32TZXEA1OL6QYKM0MXQIQH2ABHN14I&workerId=A3KACB3ERCT0DG&assignmentId=3HL8HNGX46NK7PKE1T6WLAD7X8NF9O&a=XHLH9&tp_a=XHLH9&b=3HL8HNGX46NK7PKE1T6WLAD7X8NF9O&tp_b=3HL8HNGX46NK7PKE1T6WLAD7X8NF9O&c=365799&tp_c=365799"},{"rt":22413,"response":{"Q0":"Students in different classrooms have seen a different proportion of fair and unfair coins before seeing the examples you select for them.","Q1":"By <b>considering the student's classroom information</b> so that I can teach efficiently and accurately/helpfully at the same time (because each example I give to the student costs money!).","Q2":"The coin lands heads 90% of the time.","Q3":"Yes, I might encounter the same student twice.","Q4":"The students are also on the same alien planet as you, where coins can be unfair.","Q5":"Based on the student's second (and final) guess."},"question_order":[2,5,0,3,1,4],"trial_type":"survey-multi-choice","trial_index":9,"time_elapsed":325916,"internal_node_id":"0.0-2.2-1.2","params":{"nStudents":24,"maxFlips":30,"completionMinutes":45,"basePay":8,"maxBonus":9,"perTrialBonus":0.5,"perTrialBonusThreshold":0.05,"exampleCost":0.01},"classroomParams":{"A":{"a":1,"b":4},"B":{"a":4,"b":1},"C":{"a":2,"b":8},"D":{"a":8,"b":2}},"conditions":["nonSeqFull","nonSeqPartial","seqNoFeedback","seqFeedback"],"classroomPairings":[["A","B"],["C","D"]],"coinWeights":[0.2,0.5,0.8],"subjectId":"A3KACB3ERCT0DG","assignmentId":"3HL8HNGX46NK7PKE1T6WLAD7X8NF9O","hitId":"32TZXEA1OL6QYKM0MXQIQH2ABHN14I","url":"https://gershmanlab.com/experiments/alicia/teaching/experiment/?hitId=32TZXEA1OL6QYKM0MXQIQH2ABHN14I&workerId=A3KACB3ERCT0DG&assignmentId=3HL8HNGX46NK7PKE1T6WLAD7X8NF9O&a=XHLH9&tp_a=XHLH9&b=3HL8HNGX46NK7PKE1T6WLAD7X8NF9O&tp_b=3HL8HNGX46NK7PKE1T6WLAD7X8NF9O&c=365799&tp_c=365799","pass":false},{"rt":1132,"stimulus":"Oops, you have missed question(s) on the comprehension check! We'll show you the instructions again.","response":0,"trial_type":"html-button-response","trial_index":10,"time_elapsed":327073,"internal_node_id":"0.0-2.2-2.2-0.2","params":{"nStudents":24,"maxFlips":30,"completionMinutes":45,"basePay":8,"maxBonus":9,"perTrialBonus":0.5,"perTrialBonusThreshold":0.05,"exampleCost":0.01},"classroomParams":{"A":{"a":1,"b":4},"B":{"a":4,"b":1},"C":{"a":2,"b":8},"D":{"a":8,"b":2}},"conditions":["nonSeqFull","nonSeqPartial","seqNoFeedback","seqFeedback"],"classroomPairings":[["A","B"],["C","D"]],"coinWeights":[0.2,0.5,0.8],"subjectId":"A3KACB3ERCT0DG","assignmentId":"3HL8HNGX46NK7PKE1T6WLAD7X8NF9O","hitId":"32TZXEA1OL6QYKM0MXQIQH2ABHN14I","url":"https://gershmanlab.com/experiments/alicia/teaching/experiment/?hitId=32TZXEA1OL6QYKM0MXQIQH2ABHN14I&workerId=A3KACB3ERCT0DG&assignmentId=3HL8HNGX46NK7PKE1T6WLAD7X8NF9O&a=XHLH9&tp_a=XHLH9&b=3HL8HNGX46NK7PKE1T6WLAD7X8NF9O&tp_b=3HL8HNGX46NK7PKE1T6WLAD7X8NF9O&c=365799&tp_c=365799"},{"view_history":[{"page_index":0,"viewing_time":1085},{"page_index":1,"viewing_time":736},{"page_index":2,"viewing_time":1584},{"page_index":3,"viewing_time":4480},{"page_index":4,"viewing_time":1872},{"page_index":5,"viewing_time":10488},{"page_index":6,"viewing_time":273336},{"page_index":5,"viewing_time":15504},{"page_index":4,"viewing_time":12346},{"page_index":3,"viewing_time":5146},{"page_index":2,"viewing_time":1446},{"page_index":1,"viewing_time":1570},{"page_index":2,"viewing_time":1265},{"page_index":3,"viewing_time":828},{"page_index":4,"viewing_time":1647},{"page_index":5,"viewing_time":3344},{"page_index":6,"viewing_time":3264}],"rt":339943,"trial_type":"instructions","trial_index":11,"time_elapsed":667019,"internal_node_id":"0.0-2.3-0.3","params":{"nStudents":24,"maxFlips":30,"completionMinutes":45,"basePay":8,"maxBonus":9,"perTrialBonus":0.5,"perTrialBonusThreshold":0.05,"exampleCost":0.01},"classroomParams":{"A":{"a":1,"b":4},"B":{"a":4,"b":1},"C":{"a":2,"b":8},"D":{"a":8,"b":2}},"conditions":["nonSeqFull","nonSeqPartial","seqNoFeedback","seqFeedback"],"classroomPairings":[["A","B"],["C","D"]],"coinWeights":[0.2,0.5,0.8],"subjectId":"A3KACB3ERCT0DG","assignmentId":"3HL8HNGX46NK7PKE1T6WLAD7X8NF9O","hitId":"32TZXEA1OL6QYKM0MXQIQH2ABHN14I","url":"https://gershmanlab.com/experiments/alicia/teaching/experiment/?hitId=32TZXEA1OL6QYKM0MXQIQH2ABHN14I&workerId=A3KACB3ERCT0DG&assignmentId=3HL8HNGX46NK7PKE1T6WLAD7X8NF9O&a=XHLH9&tp_a=XHLH9&b=3HL8HNGX46NK7PKE1T6WLAD7X8NF9O&tp_b=3HL8HNGX46NK7PKE1T6WLAD7X8NF9O&c=365799&tp_c=365799"},{"rt":42404,"response":{"Q0":"Students in different classrooms will have seen a different number of heads and tails before seeing the examples you select for them.","Q1":"By giving as few examples as possible.","Q2":"The coin lands heads 90% of the time.","Q3":"Yes, I might encounter the same student twice.","Q4":"The students are also on the same alien planet as you, where coins can be unfair.","Q5":"Based on the student's second (and final) guess."},"question_order":[2,0,3,4,5,1],"trial_type":"survey-multi-choice","trial_index":12,"time_elapsed":709429,"internal_node_id":"0.0-2.3-1.3","params":{"nStudents":24,"maxFlips":30,"completionMinutes":45,"basePay":8,"maxBonus":9,"perTrialBonus":0.5,"perTrialBonusThreshold":0.05,"exampleCost":0.01},"classroomParams":{"A":{"a":1,"b":4},"B":{"a":4,"b":1},"C":{"a":2,"b":8},"D":{"a":8,"b":2}},"conditions":["nonSeqFull","nonSeqPartial","seqNoFeedback","seqFeedback"],"classroomPairings":[["A","B"],["C","D"]],"coinWeights":[0.2,0.5,0.8],"subjectId":"A3KACB3ERCT0DG","assignmentId":"3HL8HNGX46NK7PKE1T6WLAD7X8NF9O","hitId":"32TZXEA1OL6QYKM0MXQIQH2ABHN14I","url":"https://gershmanlab.com/experiments/alicia/teaching/experiment/?hitId=32TZXEA1OL6QYKM0MXQIQH2ABHN14I&workerId=A3KACB3ERCT0DG&assignmentId=3HL8HNGX46NK7PKE1T6WLAD7X8NF9O&a=XHLH9&tp_a=XHLH9&b=3HL8HNGX46NK7PKE1T6WLAD7X8NF9O&tp_b=3HL8HNGX46NK7PKE1T6WLAD7X8NF9O&c=365799&tp_c=365799","pass":false},{"rt":2142,"stimulus":"Oops, you have missed question(s) on the comprehension check! We'll show you the instructions again.","response":0,"trial_type":"html-button-response","trial_index":13,"time_elapsed":711594,"internal_node_id":"0.0-2.3-2.3-0.3","params":{"nStudents":24,"maxFlips":30,"completionMinutes":45,"basePay":8,"maxBonus":9,"perTrialBonus":0.5,"perTrialBonusThreshold":0.05,"exampleCost":0.01},"classroomParams":{"A":{"a":1,"b":4},"B":{"a":4,"b":1},"C":{"a":2,"b":8},"D":{"a":8,"b":2}},"conditions":["nonSeqFull","nonSeqPartial","seqNoFeedback","seqFeedback"],"classroomPairings":[["A","B"],["C","D"]],"coinWeights":[0.2,0.5,0.8],"subjectId":"A3KACB3ERCT0DG","assignmentId":"3HL8HNGX46NK7PKE1T6WLAD7X8NF9O","hitId":"32TZXEA1OL6QYKM0MXQIQH2ABHN14I","url":"https://gershmanlab.com/experiments/alicia/teaching/experiment/?hitId=32TZXEA1OL6QYKM0MXQIQH2ABHN14I&workerId=A3KACB3ERCT0DG&assignmentId=3HL8HNGX46NK7PKE1T6WLAD7X8NF9O&a=XHLH9&tp_a=XHLH9&b=3HL8HNGX46NK7PKE1T6WLAD7X8NF9O&tp_b=3HL8HNGX46NK7PKE1T6WLAD7X8NF9O&c=365799&tp_c=365799"},{"view_history":[{"page_index":0,"viewing_time":1190},{"page_index":1,"viewing_time":598},{"page_index":2,"viewing_time":50720},{"page_index":3,"viewing_time":23091},{"page_index":4,"viewing_time":5357},{"page_index":5,"viewing_time":35416},{"page_index":6,"viewing_time":9883}],"rt":126256,"trial_type":"instructions","trial_index":14,"time_elapsed":837852,"internal_node_id":"0.0-2.4-0.4","params":{"nStudents":24,"maxFlips":30,"completionMinutes":45,"basePay":8,"maxBonus":9,"perTrialBonus":0.5,"perTrialBonusThreshold":0.05,"exampleCost":0.01},"classroomParams":{"A":{"a":1,"b":4},"B":{"a":4,"b":1},"C":{"a":2,"b":8},"D":{"a":8,"b":2}},"conditions":["nonSeqFull","nonSeqPartial","seqNoFeedback","seqFeedback"],"classroomPairings":[["A","B"],["C","D"]],"coinWeights":[0.2,0.5,0.8],"subjectId":"A3KACB3ERCT0DG","assignmentId":"3HL8HNGX46NK7PKE1T6WLAD7X8NF9O","hitId":"32TZXEA1OL6QYKM0MXQIQH2ABHN14I","url":"https://gershmanlab.com/experiments/alicia/teaching/experiment/?hitId=32TZXEA1OL6QYKM0MXQIQH2ABHN14I&workerId=A3KACB3ERCT0DG&assignmentId=3HL8HNGX46NK7PKE1T6WLAD7X8NF9O&a=XHLH9&tp_a=XHLH9&b=3HL8HNGX46NK7PKE1T6WLAD7X8NF9O&tp_b=3HL8HNGX46NK7PKE1T6WLAD7X8NF9O&c=365799&tp_c=365799"},{"rt":14123,"response":{"Q0":"Students in different classrooms will have seen a different number of heads and tails before seeing the examples you select for them.","Q1":"By <b>considering the student's classroom information</b> so that I can teach efficiently and accurately/helpfully at the same time (because each example I give to the student costs money!).","Q2":"The coin lands heads 90% of the time.","Q3":"No, I will teach a <b>new</b> student each time.","Q4":"The students are also on the same alien planet as you, where coins can be unfair.","Q5":"Based on the student's second (and final) guess."},"question_order":[3,1,2,5,4,0],"trial_type":"survey-multi-choice","trial_index":15,"time_elapsed":851980,"internal_node_id":"0.0-2.4-1.4","params":{"nStudents":24,"maxFlips":30,"completionMinutes":45,"basePay":8,"maxBonus":9,"perTrialBonus":0.5,"perTrialBonusThreshold":0.05,"exampleCost":0.01},"classroomParams":{"A":{"a":1,"b":4},"B":{"a":4,"b":1},"C":{"a":2,"b":8},"D":{"a":8,"b":2}},"conditions":["nonSeqFull","nonSeqPartial","seqNoFeedback","seqFeedback"],"classroomPairings":[["A","B"],["C","D"]],"coinWeights":[0.2,0.5,0.8],"subjectId":"A3KACB3ERCT0DG","assignmentId":"3HL8HNGX46NK7PKE1T6WLAD7X8NF9O","hitId":"32TZXEA1OL6QYKM0MXQIQH2ABHN14I","url":"https://gershmanlab.com/experiments/alicia/teaching/experiment/?hitId=32TZXEA1OL6QYKM0MXQIQH2ABHN14I&workerId=A3KACB3ERCT0DG&assignmentId=3HL8HNGX46NK7PKE1T6WLAD7X8NF9O&a=XHLH9&tp_a=XHLH9&b=3HL8HNGX46NK7PKE1T6WLAD7X8NF9O&tp_b=3HL8HNGX46NK7PKE1T6WLAD7X8NF9O&c=365799&tp_c=365799","pass":true},{"rt":null,"stimulus":"<div style=\"font-size:30px;\">Congrats on passing the comprehension quiz! The experiment will begin in a few seconds.</div>","response":null,"trial_type":"html-keyboard-response","trial_index":16,"time_elapsed":855008,"internal_node_id":"0.0-3.0","params":{"nStudents":24,"maxFlips":30,"completionMinutes":45,"basePay":8,"maxBonus":9,"perTrialBonus":0.5,"perTrialBonusThreshold":0.05,"exampleCost":0.01},"classroomParams":{"A":{"a":1,"b":4},"B":{"a":4,"b":1},"C":{"a":2,"b":8},"D":{"a":8,"b":2}},"conditions":["nonSeqFull","nonSeqPartial","seqNoFeedback","seqFeedback"],"classroomPairings":[["A","B"],["C","D"]],"coinWeights":[0.2,0.5,0.8],"subjectId":"A3KACB3ERCT0DG","assignmentId":"3HL8HNGX46NK7PKE1T6WLAD7X8NF9O","hitId":"32TZXEA1OL6QYKM0MXQIQH2ABHN14I","url":"https://gershmanlab.com/experiments/alicia/teaching/experiment/?hitId=32TZXEA1OL6QYKM0MXQIQH2ABHN14I&workerId=A3KACB3ERCT0DG&assignmentId=3HL8HNGX46NK7PKE1T6WLAD7X8NF9O&a=XHLH9&tp_a=XHLH9&b=3HL8HNGX46NK7PKE1T6WLAD7X8NF9O&tp_b=3HL8HNGX46NK7PKE1T6WLAD7X8NF9O&c=365799&tp_c=365799"},{"rt":null,"stimulus":"<div style=\"font-size:50px;\">First student</div>","response":null,"trial_type":"html-keyboard-response","trial_index":17,"time_elapsed":858013,"internal_node_id":"0.0-4.0","params":{"nStudents":24,"maxFlips":30,"completionMinutes":45,"basePay":8,"maxBonus":9,"perTrialBonus":0.5,"perTrialBonusThreshold":0.05,"exampleCost":0.01},"classroomParams":{"A":{"a":1,"b":4},"B":{"a":4,"b":1},"C":{"a":2,"b":8},"D":{"a":8,"b":2}},"conditions":["nonSeqFull","nonSeqPartial","seqNoFeedback","seqFeedback"],"classroomPairings":[["A","B"],["C","D"]],"coinWeights":[0.2,0.5,0.8],"subjectId":"A3KACB3ERCT0DG","assignmentId":"3HL8HNGX46NK7PKE1T6WLAD7X8NF9O","hitId":"32TZXEA1OL6QYKM0MXQIQH2ABHN14I","url":"https://gershmanlab.com/experiments/alicia/teaching/experiment/?hitId=32TZXEA1OL6QYKM0MXQIQH2ABHN14I&workerId=A3KACB3ERCT0DG&assignmentId=3HL8HNGX46NK7PKE1T6WLAD7X8NF9O&a=XHLH9&tp_a=XHLH9&b=3HL8HNGX46NK7PKE1T6WLAD7X8NF9O&tp_b=3HL8HNGX46NK7PKE1T6WLAD7X8NF9O&c=365799&tp_c=365799"},{"rt":15746,"stimulus":"\n            <h4 style=\"color:Orange;\">Student 1</h4>\n            <h2>The weight of your coin is <b style=\"color:Tomato;\">0.8</b>.</h2>\n            <p>In this block, you will be giving <b>one</b> set of examples to Student 1.</p>\n                <p>You will receive feedback at the end of the block.</p>\n            <p></p>","response":0,"trial_type":"html-button-response","trial_index":18,"time_elapsed":873762,"internal_node_id":"0.0-5.0","params":{"nStudents":24,"maxFlips":30,"completionMinutes":45,"basePay":8,"maxBonus":9,"perTrialBonus":0.5,"perTrialBonusThreshold":0.05,"exampleCost":0.01},"classroomParams":{"A":{"a":1,"b":4},"B":{"a":4,"b":1},"C":{"a":2,"b":8},"D":{"a":8,"b":2}},"conditions":["nonSeqFull","nonSeqPartial","seqNoFeedback","seqFeedback"],"classroomPairings":[["A","B"],["C","D"]],"coinWeights":[0.2,0.5,0.8],"subjectId":"A3KACB3ERCT0DG","assignmentId":"3HL8HNGX46NK7PKE1T6WLAD7X8NF9O","hitId":"32TZXEA1OL6QYKM0MXQIQH2ABHN14I","url":"https://gershmanlab.com/experiments/alicia/teaching/experiment/?hitId=32TZXEA1OL6QYKM0MXQIQH2ABHN14I&workerId=A3KACB3ERCT0DG&assignmentId=3HL8HNGX46NK7PKE1T6WLAD7X8NF9O&a=XHLH9&tp_a=XHLH9&b=3HL8HNGX46NK7PKE1T6WLAD7X8NF9O&tp_b=3HL8HNGX46NK7PKE1T6WLAD7X8NF9O&c=365799&tp_c=365799"},{"rt":37074,"response":{"heads":"8","tails":"2"},"type":"response","condition":"nonSeqPartial","trueTheta":0.8,"classrooms":["C","D"],"studentTrueClassroom":"D","exampleSet":"first","trial_type":"survey-html-form","trial_index":19,"time_elapsed":910842,"internal_node_id":"0.0-6.0-0.0","params":{"nStudents":24,"maxFlips":30,"completionMinutes":45,"basePay":8,"maxBonus":9,"perTrialBonus":0.5,"perTrialBonusThreshold":0.05,"exampleCost":0.01},"classroomParams":{"A":{"a":1,"b":4},"B":{"a":4,"b":1},"C":{"a":2,"b":8},"D":{"a":8,"b":2}},"conditions":["nonSeqFull","nonSeqPartial","seqNoFeedback","seqFeedback"],"classroomPairings":[["A","B"],["C","D"]],"coinWeights":[0.2,0.5,0.8],"subjectId":"A3KACB3ERCT0DG","assignmentId":"3HL8HNGX46NK7PKE1T6WLAD7X8NF9O","hitId":"32TZXEA1OL6QYKM0MXQIQH2ABHN14I","url":"https://gershmanlab.com/experiments/alicia/teaching/experiment/?hitId=32TZXEA1OL6QYKM0MXQIQH2ABHN14I&workerId=A3KACB3ERCT0DG&assignmentId=3HL8HNGX46NK7PKE1T6WLAD7X8NF9O&a=XHLH9&tp_a=XHLH9&b=3HL8HNGX46NK7PKE1T6WLAD7X8NF9O&tp_b=3HL8HNGX46NK7PKE1T6WLAD7X8NF9O&c=365799&tp_c=365799","heads":8,"tails":2,"studentIndex":0,"studentTrueHypers":{"a":8,"b":2},"studentGuess":0.8,"delta":0,"totalExamples":10,"bonus":0.4,"bonusSoFar":0.4},{"rt":null,"stimulus":"Sending examples to student... ","response":null,"trial_type":"html-keyboard-response","trial_index":20,"time_elapsed":912598,"internal_node_id":"0.0-7.0","params":{"nStudents":24,"maxFlips":30,"completionMinutes":45,"basePay":8,"maxBonus":9,"perTrialBonus":0.5,"perTrialBonusThreshold":0.05,"exampleCost":0.01},"classroomParams":{"A":{"a":1,"b":4},"B":{"a":4,"b":1},"C":{"a":2,"b":8},"D":{"a":8,"b":2}},"conditions":["nonSeqFull","nonSeqPartial","seqNoFeedback","seqFeedback"],"classroomPairings":[["A","B"],["C","D"]],"coinWeights":[0.2,0.5,0.8],"subjectId":"A3KACB3ERCT0DG","assignmentId":"3HL8HNGX46NK7PKE1T6WLAD7X8NF9O","hitId":"32TZXEA1OL6QYKM0MXQIQH2ABHN14I","url":"https://gershmanlab.com/experiments/alicia/teaching/experiment/?hitId=32TZXEA1OL6QYKM0MXQIQH2ABHN14I&workerId=A3KACB3ERCT0DG&assignmentId=3HL8HNGX46NK7PKE1T6WLAD7X8NF9O&a=XHLH9&tp_a=XHLH9&b=3HL8HNGX46NK7PKE1T6WLAD7X8NF9O&tp_b=3HL8HNGX46NK7PKE1T6WLAD7X8NF9O&c=365799&tp_c=365799"},{"rt":null,"stimulus":"Examples sent to student! Waiting for student...","response":null,"trial_type":"html-keyboard-response","trial_index":21,"time_elapsed":917106,"internal_node_id":"0.0-8.0","params":{"nStudents":24,"maxFlips":30,"completionMinutes":45,"basePay":8,"maxBonus":9,"perTrialBonus":0.5,"perTrialBonusThreshold":0.05,"exampleCost":0.01},"classroomParams":{"A":{"a":1,"b":4},"B":{"a":4,"b":1},"C":{"a":2,"b":8},"D":{"a":8,"b":2}},"conditions":["nonSeqFull","nonSeqPartial","seqNoFeedback","seqFeedback"],"classroomPairings":[["A","B"],["C","D"]],"coinWeights":[0.2,0.5,0.8],"subjectId":"A3KACB3ERCT0DG","assignmentId":"3HL8HNGX46NK7PKE1T6WLAD7X8NF9O","hitId":"32TZXEA1OL6QYKM0MXQIQH2ABHN14I","url":"https://gershmanlab.com/experiments/alicia/teaching/experiment/?hitId=32TZXEA1OL6QYKM0MXQIQH2ABHN14I&workerId=A3KACB3ERCT0DG&assignmentId=3HL8HNGX46NK7PKE1T6WLAD7X8NF9O&a=XHLH9&tp_a=XHLH9&b=3HL8HNGX46NK7PKE1T6WLAD7X8NF9O&tp_b=3HL8HNGX46NK7PKE1T6WLAD7X8NF9O&c=365799&tp_c=365799"},{"rt":4125,"stimulus":"\n                <p>Student's guess for coin weight: <b style=\"color:Tomato;\">0.80</b></p>\n                <p>You received a bonus of <b>$0.4</b>. Total bonus so far: <b>$0.40</b></b></p>\n                <p></p>\n                <p>Press any key to continue.</p>\n                ","response":" ","trial_type":"html-keyboard-response","trial_index":22,"time_elapsed":921235,"internal_node_id":"0.0-9.0","params":{"nStudents":24,"maxFlips":30,"completionMinutes":45,"basePay":8,"maxBonus":9,"perTrialBonus":0.5,"perTrialBonusThreshold":0.05,"exampleCost":0.01},"classroomParams":{"A":{"a":1,"b":4},"B":{"a":4,"b":1},"C":{"a":2,"b":8},"D":{"a":8,"b":2}},"conditions":["nonSeqFull","nonSeqPartial","seqNoFeedback","seqFeedback"],"classroomPairings":[["A","B"],["C","D"]],"coinWeights":[0.2,0.5,0.8],"subjectId":"A3KACB3ERCT0DG","assignmentId":"3HL8HNGX46NK7PKE1T6WLAD7X8NF9O","hitId":"32TZXEA1OL6QYKM0MXQIQH2ABHN14I","url":"https://gershmanlab.com/experiments/alicia/teaching/experiment/?hitId=32TZXEA1OL6QYKM0MXQIQH2ABHN14I&workerId=A3KACB3ERCT0DG&assignmentId=3HL8HNGX46NK7PKE1T6WLAD7X8NF9O&a=XHLH9&tp_a=XHLH9&b=3HL8HNGX46NK7PKE1T6WLAD7X8NF9O&tp_b=3HL8HNGX46NK7PKE1T6WLAD7X8NF9O&c=365799&tp_c=365799"},{"rt":null,"stimulus":"<div style=\"font-size:60px;\">Next student</div>","response":null,"trial_type":"html-keyboard-response","trial_index":23,"time_elapsed":923245,"internal_node_id":"0.0-10.0-0.0","params":{"nStudents":24,"maxFlips":30,"completionMinutes":45,"basePay":8,"maxBonus":9,"perTrialBonus":0.5,"perTrialBonusThreshold":0.05,"exampleCost":0.01},"classroomParams":{"A":{"a":1,"b":4},"B":{"a":4,"b":1},"C":{"a":2,"b":8},"D":{"a":8,"b":2}},"conditions":["nonSeqFull","nonSeqPartial","seqNoFeedback","seqFeedback"],"classroomPairings":[["A","B"],["C","D"]],"coinWeights":[0.2,0.5,0.8],"subjectId":"A3KACB3ERCT0DG","assignmentId":"3HL8HNGX46NK7PKE1T6WLAD7X8NF9O","hitId":"32TZXEA1OL6QYKM0MXQIQH2ABHN14I","url":"https://gershmanlab.com/experiments/alicia/teaching/experiment/?hitId=32TZXEA1OL6QYKM0MXQIQH2ABHN14I&workerId=A3KACB3ERCT0DG&assignmentId=3HL8HNGX46NK7PKE1T6WLAD7X8NF9O&a=XHLH9&tp_a=XHLH9&b=3HL8HNGX46NK7PKE1T6WLAD7X8NF9O&tp_b=3HL8HNGX46NK7PKE1T6WLAD7X8NF9O&c=365799&tp_c=365799"},{"rt":4079,"stimulus":"\n            <h4 style=\"color:Orange;\">Student 2</h4>\n            <h2>The weight of your coin is <b style=\"color:Tomato;\">0.5</b>.</h2>\n            <p>In this block, you will be giving <b>one</b> set of examples to Student 2.</p>\n                <p>You will receive feedback at the end of the block.</p>\n            <p></p>","response":0,"trial_type":"html-button-response","trial_index":24,"time_elapsed":927330,"internal_node_id":"0.0-11.0","params":{"nStudents":24,"maxFlips":30,"completionMinutes":45,"basePay":8,"maxBonus":9,"perTrialBonus":0.5,"perTrialBonusThreshold":0.05,"exampleCost":0.01},"classroomParams":{"A":{"a":1,"b":4},"B":{"a":4,"b":1},"C":{"a":2,"b":8},"D":{"a":8,"b":2}},"conditions":["nonSeqFull","nonSeqPartial","seqNoFeedback","seqFeedback"],"classroomPairings":[["A","B"],["C","D"]],"coinWeights":[0.2,0.5,0.8],"subjectId":"A3KACB3ERCT0DG","assignmentId":"3HL8HNGX46NK7PKE1T6WLAD7X8NF9O","hitId":"32TZXEA1OL6QYKM0MXQIQH2ABHN14I","url":"https://gershmanlab.com/experiments/alicia/teaching/experiment/?hitId=32TZXEA1OL6QYKM0MXQIQH2ABHN14I&workerId=A3KACB3ERCT0DG&assignmentId=3HL8HNGX46NK7PKE1T6WLAD7X8NF9O&a=XHLH9&tp_a=XHLH9&b=3HL8HNGX46NK7PKE1T6WLAD7X8NF9O&tp_b=3HL8HNGX46NK7PKE1T6WLAD7X8NF9O&c=365799&tp_c=365799"},{"rt":12604,"response":{"heads":"5","tails":"5"},"type":"response","condition":"nonSeqPartial","trueTheta":0.5,"classrooms":["A","B"],"studentTrueClassroom":"B","exampleSet":"first","trial_type":"survey-html-form","trial_index":25,"time_elapsed":939938,"internal_node_id":"0.0-12.0-0.0","params":{"nStudents":24,"maxFlips":30,"completionMinutes":45,"basePay":8,"maxBonus":9,"perTrialBonus":0.5,"perTrialBonusThreshold":0.05,"exampleCost":0.01},"classroomParams":{"A":{"a":1,"b":4},"B":{"a":4,"b":1},"C":{"a":2,"b":8},"D":{"a":8,"b":2}},"conditions":["nonSeqFull","nonSeqPartial","seqNoFeedback","seqFeedback"],"classroomPairings":[["A","B"],["C","D"]],"coinWeights":[0.2,0.5,0.8],"subjectId":"A3KACB3ERCT0DG","assignmentId":"3HL8HNGX46NK7PKE1T6WLAD7X8NF9O","hitId":"32TZXEA1OL6QYKM0MXQIQH2ABHN14I","url":"https://gershmanlab.com/experiments/alicia/teaching/experiment/?hitId=32TZXEA1OL6QYKM0MXQIQH2ABHN14I&workerId=A3KACB3ERCT0DG&assignmentId=3HL8HNGX46NK7PKE1T6WLAD7X8NF9O&a=XHLH9&tp_a=XHLH9&b=3HL8HNGX46NK7PKE1T6WLAD7X8NF9O&tp_b=3HL8HNGX46NK7PKE1T6WLAD7X8NF9O&c=365799&tp_c=365799","heads":5,"tails":5,"studentIndex":1,"studentTrueHypers":{"a":4,"b":1},"studentGuess":0.6,"delta":0.09999999999999998,"totalExamples":10,"bonus":0,"bonusSoFar":0.4},{"rt":null,"stimulus":"Sending examples to student... ","response":null,"trial_type":"html-keyboard-response","trial_index":26,"time_elapsed":941711,"internal_node_id":"0.0-13.0","params":{"nStudents":24,"maxFlips":30,"completionMinutes":45,"basePay":8,"maxBonus":9,"perTrialBonus":0.5,"perTrialBonusThreshold":0.05,"exampleCost":0.01},"classroomParams":{"A":{"a":1,"b":4},"B":{"a":4,"b":1},"C":{"a":2,"b":8},"D":{"a":8,"b":2}},"conditions":["nonSeqFull","nonSeqPartial","seqNoFeedback","seqFeedback"],"classroomPairings":[["A","B"],["C","D"]],"coinWeights":[0.2,0.5,0.8],"subjectId":"A3KACB3ERCT0DG","assignmentId":"3HL8HNGX46NK7PKE1T6WLAD7X8NF9O","hitId":"32TZXEA1OL6QYKM0MXQIQH2ABHN14I","url":"https://gershmanlab.com/experiments/alicia/teaching/experiment/?hitId=32TZXEA1OL6QYKM0MXQIQH2ABHN14I&workerId=A3KACB3ERCT0DG&assignmentId=3HL8HNGX46NK7PKE1T6WLAD7X8NF9O&a=XHLH9&tp_a=XHLH9&b=3HL8HNGX46NK7PKE1T6WLAD7X8NF9O&tp_b=3HL8HNGX46NK7PKE1T6WLAD7X8NF9O&c=365799&tp_c=365799"},{"rt":null,"stimulus":"Examples sent to student! Waiting for student...","response":null,"trial_type":"html-keyboard-response","trial_index":27,"time_elapsed":945725,"internal_node_id":"0.0-14.0","params":{"nStudents":24,"maxFlips":30,"completionMinutes":45,"basePay":8,"maxBonus":9,"perTrialBonus":0.5,"perTrialBonusThreshold":0.05,"exampleCost":0.01},"classroomParams":{"A":{"a":1,"b":4},"B":{"a":4,"b":1},"C":{"a":2,"b":8},"D":{"a":8,"b":2}},"conditions":["nonSeqFull","nonSeqPartial","seqNoFeedback","seqFeedback"],"classroomPairings":[["A","B"],["C","D"]],"coinWeights":[0.2,0.5,0.8],"subjectId":"A3KACB3ERCT0DG","assignmentId":"3HL8HNGX46NK7PKE1T6WLAD7X8NF9O","hitId":"32TZXEA1OL6QYKM0MXQIQH2ABHN14I","url":"https://gershmanlab.com/experiments/alicia/teaching/experiment/?hitId=32TZXEA1OL6QYKM0MXQIQH2ABHN14I&workerId=A3KACB3ERCT0DG&assignmentId=3HL8HNGX46NK7PKE1T6WLAD7X8NF9O&a=XHLH9&tp_a=XHLH9&b=3HL8HNGX46NK7PKE1T6WLAD7X8NF9O&tp_b=3HL8HNGX46NK7PKE1T6WLAD7X8NF9O&c=365799&tp_c=365799"},{"rt":2813,"stimulus":"\n                <p>Student's guess for coin weight: <b style=\"color:Tomato;\">0.60</b></p>\n                <p>You received a bonus of <b>$0</b>. Total bonus so far: <b>$0.40</b></b></p>\n                <p></p>\n                <p>Press any key to continue.</p>\n                ","response":" ","trial_type":"html-keyboard-response","trial_index":28,"time_elapsed":948540,"internal_node_id":"0.0-15.0","params":{"nStudents":24,"maxFlips":30,"completionMinutes":45,"basePay":8,"maxBonus":9,"perTrialBonus":0.5,"perTrialBonusThreshold":0.05,"exampleCost":0.01},"classroomParams":{"A":{"a":1,"b":4},"B":{"a":4,"b":1},"C":{"a":2,"b":8},"D":{"a":8,"b":2}},"conditions":["nonSeqFull","nonSeqPartial","seqNoFeedback","seqFeedback"],"classroomPairings":[["A","B"],["C","D"]],"coinWeights":[0.2,0.5,0.8],"subjectId":"A3KACB3ERCT0DG","assignmentId":"3HL8HNGX46NK7PKE1T6WLAD7X8NF9O","hitId":"32TZXEA1OL6QYKM0MXQIQH2ABHN14I","url":"https://gershmanlab.com/experiments/alicia/teaching/experiment/?hitId=32TZXEA1OL6QYKM0MXQIQH2ABHN14I&workerId=A3KACB3ERCT0DG&assignmentId=3HL8HNGX46NK7PKE1T6WLAD7X8NF9O&a=XHLH9&tp_a=XHLH9&b=3HL8HNGX46NK7PKE1T6WLAD7X8NF9O&tp_b=3HL8HNGX46NK7PKE1T6WLAD7X8NF9O&c=365799&tp_c=365799"},{"rt":null,"stimulus":"<div style=\"font-size:60px;\">Next student</div>","response":null,"trial_type":"html-keyboard-response","trial_index":29,"time_elapsed":950552,"internal_node_id":"0.0-16.0-0.0","params":{"nStudents":24,"maxFlips":30,"completionMinutes":45,"basePay":8,"maxBonus":9,"perTrialBonus":0.5,"perTrialBonusThreshold":0.05,"exampleCost":0.01},"classroomParams":{"A":{"a":1,"b":4},"B":{"a":4,"b":1},"C":{"a":2,"b":8},"D":{"a":8,"b":2}},"conditions":["nonSeqFull","nonSeqPartial","seqNoFeedback","seqFeedback"],"classroomPairings":[["A","B"],["C","D"]],"coinWeights":[0.2,0.5,0.8],"subjectId":"A3KACB3ERCT0DG","assignmentId":"3HL8HNGX46NK7PKE1T6WLAD7X8NF9O","hitId":"32TZXEA1OL6QYKM0MXQIQH2ABHN14I","url":"https://gershmanlab.com/experiments/alicia/teaching/experiment/?hitId=32TZXEA1OL6QYKM0MXQIQH2ABHN14I&workerId=A3KACB3ERCT0DG&assignmentId=3HL8HNGX46NK7PKE1T6WLAD7X8NF9O&a=XHLH9&tp_a=XHLH9&b=3HL8HNGX46NK7PKE1T6WLAD7X8NF9O&tp_b=3HL8HNGX46NK7PKE1T6WLAD7X8NF9O&c=365799&tp_c=365799"},{"rt":13130,"stimulus":"\n            <h4 style=\"color:Orange;\">Student 3</h4>\n            <h2>The weight of your coin is <b style=\"color:Tomato;\">0.2</b>.</h2>\n            <p>In this block, you will be giving <b>two</b> sets of examples to Student 3.</p>\n                <p>You will see the student's guess after the first set of examples. You will also receive feedback at the end of the block.</p>\n            <p>To earn the highest bonus, you will have to <b>take into consideration the student's guess</b> when you choose your second set of examples.</p>","response":0,"trial_type":"html-button-response","trial_index":30,"time_elapsed":963686,"internal_node_id":"0.0-17.0","params":{"nStudents":24,"maxFlips":30,"completionMinutes":45,"basePay":8,"maxBonus":9,"perTrialBonus":0.5,"perTrialBonusThreshold":0.05,"exampleCost":0.01},"classroomParams":{"A":{"a":1,"b":4},"B":{"a":4,"b":1},"C":{"a":2,"b":8},"D":{"a":8,"b":2}},"conditions":["nonSeqFull","nonSeqPartial","seqNoFeedback","seqFeedback"],"classroomPairings":[["A","B"],["C","D"]],"coinWeights":[0.2,0.5,0.8],"subjectId":"A3KACB3ERCT0DG","assignmentId":"3HL8HNGX46NK7PKE1T6WLAD7X8NF9O","hitId":"32TZXEA1OL6QYKM0MXQIQH2ABHN14I","url":"https://gershmanlab.com/experiments/alicia/teaching/experiment/?hitId=32TZXEA1OL6QYKM0MXQIQH2ABHN14I&workerId=A3KACB3ERCT0DG&assignmentId=3HL8HNGX46NK7PKE1T6WLAD7X8NF9O&a=XHLH9&tp_a=XHLH9&b=3HL8HNGX46NK7PKE1T6WLAD7X8NF9O&tp_b=3HL8HNGX46NK7PKE1T6WLAD7X8NF9O&c=365799&tp_c=365799"},{"rt":14932,"response":{"heads":"8","tails":"2"},"type":"response","condition":"seqFeedback","trueTheta":0.2,"classrooms":["A","B"],"studentTrueClassroom":"B","exampleSet":"first","trial_type":"survey-html-form","trial_index":31,"time_elapsed":978622,"internal_node_id":"0.0-18.0-0.0","params":{"nStudents":24,"maxFlips":30,"completionMinutes":45,"basePay":8,"maxBonus":9,"perTrialBonus":0.5,"perTrialBonusThreshold":0.05,"exampleCost":0.01},"classroomParams":{"A":{"a":1,"b":4},"B":{"a":4,"b":1},"C":{"a":2,"b":8},"D":{"a":8,"b":2}},"conditions":["nonSeqFull","nonSeqPartial","seqNoFeedback","seqFeedback"],"classroomPairings":[["A","B"],["C","D"]],"coinWeights":[0.2,0.5,0.8],"subjectId":"A3KACB3ERCT0DG","assignmentId":"3HL8HNGX46NK7PKE1T6WLAD7X8NF9O","hitId":"32TZXEA1OL6QYKM0MXQIQH2ABHN14I","url":"https://gershmanlab.com/experiments/alicia/teaching/experiment/?hitId=32TZXEA1OL6QYKM0MXQIQH2ABHN14I&workerId=A3KACB3ERCT0DG&assignmentId=3HL8HNGX46NK7PKE1T6WLAD7X8NF9O&a=XHLH9&tp_a=XHLH9&b=3HL8HNGX46NK7PKE1T6WLAD7X8NF9O&tp_b=3HL8HNGX46NK7PKE1T6WLAD7X8NF9O&c=365799&tp_c=365799","heads":8,"tails":2,"studentIndex":2,"studentTrueHypers":{"a":4,"b":1},"studentGuess":0.8,"delta":0.6000000000000001,"totalExamples":10,"bonusSoFar":0.4},{"rt":null,"stimulus":"Sending examples to student... ","response":null,"trial_type":"html-keyboard-response","trial_index":32,"time_elapsed":980640,"internal_node_id":"0.0-19.0","params":{"nStudents":24,"maxFlips":30,"completionMinutes":45,"basePay":8,"maxBonus":9,"perTrialBonus":0.5,"perTrialBonusThreshold":0.05,"exampleCost":0.01},"classroomParams":{"A":{"a":1,"b":4},"B":{"a":4,"b":1},"C":{"a":2,"b":8},"D":{"a":8,"b":2}},"conditions":["nonSeqFull","nonSeqPartial","seqNoFeedback","seqFeedback"],"classroomPairings":[["A","B"],["C","D"]],"coinWeights":[0.2,0.5,0.8],"subjectId":"A3KACB3ERCT0DG","assignmentId":"3HL8HNGX46NK7PKE1T6WLAD7X8NF9O","hitId":"32TZXEA1OL6QYKM0MXQIQH2ABHN14I","url":"https://gershmanlab.com/experiments/alicia/teaching/experiment/?hitId=32TZXEA1OL6QYKM0MXQIQH2ABHN14I&workerId=A3KACB3ERCT0DG&assignmentId=3HL8HNGX46NK7PKE1T6WLAD7X8NF9O&a=XHLH9&tp_a=XHLH9&b=3HL8HNGX46NK7PKE1T6WLAD7X8NF9O&tp_b=3HL8HNGX46NK7PKE1T6WLAD7X8NF9O&c=365799&tp_c=365799"},{"rt":null,"stimulus":"Examples sent to student! Waiting for student...","response":null,"trial_type":"html-keyboard-response","trial_index":33,"time_elapsed":984649,"internal_node_id":"0.0-20.0","params":{"nStudents":24,"maxFlips":30,"completionMinutes":45,"basePay":8,"maxBonus":9,"perTrialBonus":0.5,"perTrialBonusThreshold":0.05,"exampleCost":0.01},"classroomParams":{"A":{"a":1,"b":4},"B":{"a":4,"b":1},"C":{"a":2,"b":8},"D":{"a":8,"b":2}},"conditions":["nonSeqFull","nonSeqPartial","seqNoFeedback","seqFeedback"],"classroomPairings":[["A","B"],["C","D"]],"coinWeights":[0.2,0.5,0.8],"subjectId":"A3KACB3ERCT0DG","assignmentId":"3HL8HNGX46NK7PKE1T6WLAD7X8NF9O","hitId":"32TZXEA1OL6QYKM0MXQIQH2ABHN14I","url":"https://gershmanlab.com/experiments/alicia/teaching/experiment/?hitId=32TZXEA1OL6QYKM0MXQIQH2ABHN14I&workerId=A3KACB3ERCT0DG&assignmentId=3HL8HNGX46NK7PKE1T6WLAD7X8NF9O&a=XHLH9&tp_a=XHLH9&b=3HL8HNGX46NK7PKE1T6WLAD7X8NF9O&tp_b=3HL8HNGX46NK7PKE1T6WLAD7X8NF9O&c=365799&tp_c=365799"},{"rt":12967,"stimulus":"\n                <p>Student's guess for coin weight: <b style=\"color:Tomato;\">0.80</b></p>\n                <p></b></p>\n                <p>You will now send another set of examples to your student. <b>Remember to take your student's guess into consideration so that you can earn the highest bonus possible!</b> </p>\n                <p>Press any key to continue.</p>\n                ","response":" ","trial_type":"html-keyboard-response","trial_index":34,"time_elapsed":997618,"internal_node_id":"0.0-21.0","params":{"nStudents":24,"maxFlips":30,"completionMinutes":45,"basePay":8,"maxBonus":9,"perTrialBonus":0.5,"perTrialBonusThreshold":0.05,"exampleCost":0.01},"classroomParams":{"A":{"a":1,"b":4},"B":{"a":4,"b":1},"C":{"a":2,"b":8},"D":{"a":8,"b":2}},"conditions":["nonSeqFull","nonSeqPartial","seqNoFeedback","seqFeedback"],"classroomPairings":[["A","B"],["C","D"]],"coinWeights":[0.2,0.5,0.8],"subjectId":"A3KACB3ERCT0DG","assignmentId":"3HL8HNGX46NK7PKE1T6WLAD7X8NF9O","hitId":"32TZXEA1OL6QYKM0MXQIQH2ABHN14I","url":"https://gershmanlab.com/experiments/alicia/teaching/experiment/?hitId=32TZXEA1OL6QYKM0MXQIQH2ABHN14I&workerId=A3KACB3ERCT0DG&assignmentId=3HL8HNGX46NK7PKE1T6WLAD7X8NF9O&a=XHLH9&tp_a=XHLH9&b=3HL8HNGX46NK7PKE1T6WLAD7X8NF9O&tp_b=3HL8HNGX46NK7PKE1T6WLAD7X8NF9O&c=365799&tp_c=365799"},{"rt":39430,"response":{"heads":"8","tails":"2"},"type":"response","condition":"seqFeedback","trueTheta":0.2,"classrooms":["A","B"],"studentTrueClassroom":"B","exampleSet":"second","trial_type":"survey-html-form","trial_index":35,"time_elapsed":1037051,"internal_node_id":"0.0-22.0-0.0","params":{"nStudents":24,"maxFlips":30,"completionMinutes":45,"basePay":8,"maxBonus":9,"perTrialBonus":0.5,"perTrialBonusThreshold":0.05,"exampleCost":0.01},"classroomParams":{"A":{"a":1,"b":4},"B":{"a":4,"b":1},"C":{"a":2,"b":8},"D":{"a":8,"b":2}},"conditions":["nonSeqFull","nonSeqPartial","seqNoFeedback","seqFeedback"],"classroomPairings":[["A","B"],["C","D"]],"coinWeights":[0.2,0.5,0.8],"subjectId":"A3KACB3ERCT0DG","assignmentId":"3HL8HNGX46NK7PKE1T6WLAD7X8NF9O","hitId":"32TZXEA1OL6QYKM0MXQIQH2ABHN14I","url":"https://gershmanlab.com/experiments/alicia/teaching/experiment/?hitId=32TZXEA1OL6QYKM0MXQIQH2ABHN14I&workerId=A3KACB3ERCT0DG&assignmentId=3HL8HNGX46NK7PKE1T6WLAD7X8NF9O&a=XHLH9&tp_a=XHLH9&b=3HL8HNGX46NK7PKE1T6WLAD7X8NF9O&tp_b=3HL8HNGX46NK7PKE1T6WLAD7X8NF9O&c=365799&tp_c=365799","firstResponseHeads":8,"firstResponseTails":2,"secondResponseHeads":8,"secondResponseTails":2,"totalHeads":16,"totalTails":4,"studentIndex":2,"studentTrueHypers":{"a":4,"b":1},"studentGuess":0.8,"delta":0.6000000000000001,"bonus":0,"bonusSoFar":0.4,"totalExamples":20},{"rt":null,"stimulus":"Sending examples to student... ","response":null,"trial_type":"html-keyboard-response","trial_index":36,"time_elapsed":1039066,"internal_node_id":"0.0-23.0","params":{"nStudents":24,"maxFlips":30,"completionMinutes":45,"basePay":8,"maxBonus":9,"perTrialBonus":0.5,"perTrialBonusThreshold":0.05,"exampleCost":0.01},"classroomParams":{"A":{"a":1,"b":4},"B":{"a":4,"b":1},"C":{"a":2,"b":8},"D":{"a":8,"b":2}},"conditions":["nonSeqFull","nonSeqPartial","seqNoFeedback","seqFeedback"],"classroomPairings":[["A","B"],["C","D"]],"coinWeights":[0.2,0.5,0.8],"subjectId":"A3KACB3ERCT0DG","assignmentId":"3HL8HNGX46NK7PKE1T6WLAD7X8NF9O","hitId":"32TZXEA1OL6QYKM0MXQIQH2ABHN14I","url":"https://gershmanlab.com/experiments/alicia/teaching/experiment/?hitId=32TZXEA1OL6QYKM0MXQIQH2ABHN14I&workerId=A3KACB3ERCT0DG&assignmentId=3HL8HNGX46NK7PKE1T6WLAD7X8NF9O&a=XHLH9&tp_a=XHLH9&b=3HL8HNGX46NK7PKE1T6WLAD7X8NF9O&tp_b=3HL8HNGX46NK7PKE1T6WLAD7X8NF9O&c=365799&tp_c=365799"},{"rt":null,"stimulus":"Examples sent to student! Waiting for student...","response":null,"trial_type":"html-keyboard-response","trial_index":37,"time_elapsed":1044582,"internal_node_id":"0.0-24.0","params":{"nStudents":24,"maxFlips":30,"completionMinutes":45,"basePay":8,"maxBonus":9,"perTrialBonus":0.5,"perTrialBonusThreshold":0.05,"exampleCost":0.01},"classroomParams":{"A":{"a":1,"b":4},"B":{"a":4,"b":1},"C":{"a":2,"b":8},"D":{"a":8,"b":2}},"conditions":["nonSeqFull","nonSeqPartial","seqNoFeedback","seqFeedback"],"classroomPairings":[["A","B"],["C","D"]],"coinWeights":[0.2,0.5,0.8],"subjectId":"A3KACB3ERCT0DG","assignmentId":"3HL8HNGX46NK7PKE1T6WLAD7X8NF9O","hitId":"32TZXEA1OL6QYKM0MXQIQH2ABHN14I","url":"https://gershmanlab.com/experiments/alicia/teaching/experiment/?hitId=32TZXEA1OL6QYKM0MXQIQH2ABHN14I&workerId=A3KACB3ERCT0DG&assignmentId=3HL8HNGX46NK7PKE1T6WLAD7X8NF9O&a=XHLH9&tp_a=XHLH9&b=3HL8HNGX46NK7PKE1T6WLAD7X8NF9O&tp_b=3HL8HNGX46NK7PKE1T6WLAD7X8NF9O&c=365799&tp_c=365799"},{"rt":7957,"stimulus":"\n                <p>Student 3's first guess for coin weight: <b style=\"color:Tomato\";>0.80</b></p>\n                <p>Student 3's second guess for coin weight: <b style=\"color:Tomato\";>0.80</b></p>\n                <p>You received a bonus of <b>$0.00</b> based on the student's second guess.</p>\n                <p>Total bonus so far: <b>$0.40</b></p>\n                <p>Press any key to continue.</p>\n                ","response":" ","trial_type":"html-keyboard-response","trial_index":38,"time_elapsed":1052542,"internal_node_id":"0.0-25.0","params":{"nStudents":24,"maxFlips":30,"completionMinutes":45,"basePay":8,"maxBonus":9,"perTrialBonus":0.5,"perTrialBonusThreshold":0.05,"exampleCost":0.01},"classroomParams":{"A":{"a":1,"b":4},"B":{"a":4,"b":1},"C":{"a":2,"b":8},"D":{"a":8,"b":2}},"conditions":["nonSeqFull","nonSeqPartial","seqNoFeedback","seqFeedback"],"classroomPairings":[["A","B"],["C","D"]],"coinWeights":[0.2,0.5,0.8],"subjectId":"A3KACB3ERCT0DG","assignmentId":"3HL8HNGX46NK7PKE1T6WLAD7X8NF9O","hitId":"32TZXEA1OL6QYKM0MXQIQH2ABHN14I","url":"https://gershmanlab.com/experiments/alicia/teaching/experiment/?hitId=32TZXEA1OL6QYKM0MXQIQH2ABHN14I&workerId=A3KACB3ERCT0DG&assignmentId=3HL8HNGX46NK7PKE1T6WLAD7X8NF9O&a=XHLH9&tp_a=XHLH9&b=3HL8HNGX46NK7PKE1T6WLAD7X8NF9O&tp_b=3HL8HNGX46NK7PKE1T6WLAD7X8NF9O&c=365799&tp_c=365799"},{"rt":null,"stimulus":"<div style=\"font-size:60px;\">Next student</div>","response":null,"trial_type":"html-keyboard-response","trial_index":39,"time_elapsed":1055547,"internal_node_id":"0.0-26.0-0.0","params":{"nStudents":24,"maxFlips":30,"completionMinutes":45,"basePay":8,"maxBonus":9,"perTrialBonus":0.5,"perTrialBonusThreshold":0.05,"exampleCost":0.01},"classroomParams":{"A":{"a":1,"b":4},"B":{"a":4,"b":1},"C":{"a":2,"b":8},"D":{"a":8,"b":2}},"conditions":["nonSeqFull","nonSeqPartial","seqNoFeedback","seqFeedback"],"classroomPairings":[["A","B"],["C","D"]],"coinWeights":[0.2,0.5,0.8],"subjectId":"A3KACB3ERCT0DG","assignmentId":"3HL8HNGX46NK7PKE1T6WLAD7X8NF9O","hitId":"32TZXEA1OL6QYKM0MXQIQH2ABHN14I","url":"https://gershmanlab.com/experiments/alicia/teaching/experiment/?hitId=32TZXEA1OL6QYKM0MXQIQH2ABHN14I&workerId=A3KACB3ERCT0DG&assignmentId=3HL8HNGX46NK7PKE1T6WLAD7X8NF9O&a=XHLH9&tp_a=XHLH9&b=3HL8HNGX46NK7PKE1T6WLAD7X8NF9O&tp_b=3HL8HNGX46NK7PKE1T6WLAD7X8NF9O&c=365799&tp_c=365799"},{"rt":9447,"stimulus":"\n            <h4 style=\"color:Orange;\">Student 4</h4>\n            <h2>The weight of your coin is <b style=\"color:Tomato;\">0.5</b>.</h2>\n            <p>In this block, you will be giving <b>one</b> set of examples to Student 4.</p>\n                <p>You will receive feedback at the end of the block.</p>\n            <p></p>","response":0,"trial_type":"html-button-response","trial_index":40,"time_elapsed":1064999,"internal_node_id":"0.0-27.0","params":{"nStudents":24,"maxFlips":30,"completionMinutes":45,"basePay":8,"maxBonus":9,"perTrialBonus":0.5,"perTrialBonusThreshold":0.05,"exampleCost":0.01},"classroomParams":{"A":{"a":1,"b":4},"B":{"a":4,"b":1},"C":{"a":2,"b":8},"D":{"a":8,"b":2}},"conditions":["nonSeqFull","nonSeqPartial","seqNoFeedback","seqFeedback"],"classroomPairings":[["A","B"],["C","D"]],"coinWeights":[0.2,0.5,0.8],"subjectId":"A3KACB3ERCT0DG","assignmentId":"3HL8HNGX46NK7PKE1T6WLAD7X8NF9O","hitId":"32TZXEA1OL6QYKM0MXQIQH2ABHN14I","url":"https://gershmanlab.com/experiments/alicia/teaching/experiment/?hitId=32TZXEA1OL6QYKM0MXQIQH2ABHN14I&workerId=A3KACB3ERCT0DG&assignmentId=3HL8HNGX46NK7PKE1T6WLAD7X8NF9O&a=XHLH9&tp_a=XHLH9&b=3HL8HNGX46NK7PKE1T6WLAD7X8NF9O&tp_b=3HL8HNGX46NK7PKE1T6WLAD7X8NF9O&c=365799&tp_c=365799"},{"rt":14607,"response":{"heads":"5","tails":"5"},"type":"response","condition":"nonSeqFull","trueTheta":0.5,"classrooms":["C","D"],"studentTrueClassroom":"D","exampleSet":"first","trial_type":"survey-html-form","trial_index":41,"time_elapsed":1079612,"internal_node_id":"0.0-28.0-0.0","params":{"nStudents":24,"maxFlips":30,"completionMinutes":45,"basePay":8,"maxBonus":9,"perTrialBonus":0.5,"perTrialBonusThreshold":0.05,"exampleCost":0.01},"classroomParams":{"A":{"a":1,"b":4},"B":{"a":4,"b":1},"C":{"a":2,"b":8},"D":{"a":8,"b":2}},"conditions":["nonSeqFull","nonSeqPartial","seqNoFeedback","seqFeedback"],"classroomPairings":[["A","B"],["C","D"]],"coinWeights":[0.2,0.5,0.8],"subjectId":"A3KACB3ERCT0DG","assignmentId":"3HL8HNGX46NK7PKE1T6WLAD7X8NF9O","hitId":"32TZXEA1OL6QYKM0MXQIQH2ABHN14I","url":"https://gershmanlab.com/experiments/alicia/teaching/experiment/?hitId=32TZXEA1OL6QYKM0MXQIQH2ABHN14I&workerId=A3KACB3ERCT0DG&assignmentId=3HL8HNGX46NK7PKE1T6WLAD7X8NF9O&a=XHLH9&tp_a=XHLH9&b=3HL8HNGX46NK7PKE1T6WLAD7X8NF9O&tp_b=3HL8HNGX46NK7PKE1T6WLAD7X8NF9O&c=365799&tp_c=365799","heads":5,"tails":5,"studentIndex":3,"studentTrueHypers":{"a":8,"b":2},"studentGuess":0.65,"delta":0.15000000000000002,"totalExamples":10,"bonus":0,"bonusSoFar":0.4},{"rt":null,"stimulus":"Sending examples to student... ","response":null,"trial_type":"html-keyboard-response","trial_index":42,"time_elapsed":1081627,"internal_node_id":"0.0-29.0","params":{"nStudents":24,"maxFlips":30,"completionMinutes":45,"basePay":8,"maxBonus":9,"perTrialBonus":0.5,"perTrialBonusThreshold":0.05,"exampleCost":0.01},"classroomParams":{"A":{"a":1,"b":4},"B":{"a":4,"b":1},"C":{"a":2,"b":8},"D":{"a":8,"b":2}},"conditions":["nonSeqFull","nonSeqPartial","seqNoFeedback","seqFeedback"],"classroomPairings":[["A","B"],["C","D"]],"coinWeights":[0.2,0.5,0.8],"subjectId":"A3KACB3ERCT0DG","assignmentId":"3HL8HNGX46NK7PKE1T6WLAD7X8NF9O","hitId":"32TZXEA1OL6QYKM0MXQIQH2ABHN14I","url":"https://gershmanlab.com/experiments/alicia/teaching/experiment/?hitId=32TZXEA1OL6QYKM0MXQIQH2ABHN14I&workerId=A3KACB3ERCT0DG&assignmentId=3HL8HNGX46NK7PKE1T6WLAD7X8NF9O&a=XHLH9&tp_a=XHLH9&b=3HL8HNGX46NK7PKE1T6WLAD7X8NF9O&tp_b=3HL8HNGX46NK7PKE1T6WLAD7X8NF9O&c=365799&tp_c=365799"},{"rt":null,"stimulus":"Examples sent to student! Waiting for student...","response":null,"trial_type":"html-keyboard-response","trial_index":43,"time_elapsed":1086637,"internal_node_id":"0.0-30.0","params":{"nStudents":24,"maxFlips":30,"completionMinutes":45,"basePay":8,"maxBonus":9,"perTrialBonus":0.5,"perTrialBonusThreshold":0.05,"exampleCost":0.01},"classroomParams":{"A":{"a":1,"b":4},"B":{"a":4,"b":1},"C":{"a":2,"b":8},"D":{"a":8,"b":2}},"conditions":["nonSeqFull","nonSeqPartial","seqNoFeedback","seqFeedback"],"classroomPairings":[["A","B"],["C","D"]],"coinWeights":[0.2,0.5,0.8],"subjectId":"A3KACB3ERCT0DG","assignmentId":"3HL8HNGX46NK7PKE1T6WLAD7X8NF9O","hitId":"32TZXEA1OL6QYKM0MXQIQH2ABHN14I","url":"https://gershmanlab.com/experiments/alicia/teaching/experiment/?hitId=32TZXEA1OL6QYKM0MXQIQH2ABHN14I&workerId=A3KACB3ERCT0DG&assignmentId=3HL8HNGX46NK7PKE1T6WLAD7X8NF9O&a=XHLH9&tp_a=XHLH9&b=3HL8HNGX46NK7PKE1T6WLAD7X8NF9O&tp_b=3HL8HNGX46NK7PKE1T6WLAD7X8NF9O&c=365799&tp_c=365799"},{"rt":4101,"stimulus":"\n                <p>Student's guess for coin weight: <b style=\"color:Tomato;\">0.65</b></p>\n                <p>You received a bonus of <b>$0</b>. Total bonus so far: <b>$0.40</b></b></p>\n                <p></p>\n                <p>Press any key to continue.</p>\n                ","response":" ","trial_type":"html-keyboard-response","trial_index":44,"time_elapsed":1090741,"internal_node_id":"0.0-31.0","params":{"nStudents":24,"maxFlips":30,"completionMinutes":45,"basePay":8,"maxBonus":9,"perTrialBonus":0.5,"perTrialBonusThreshold":0.05,"exampleCost":0.01},"classroomParams":{"A":{"a":1,"b":4},"B":{"a":4,"b":1},"C":{"a":2,"b":8},"D":{"a":8,"b":2}},"conditions":["nonSeqFull","nonSeqPartial","seqNoFeedback","seqFeedback"],"classroomPairings":[["A","B"],["C","D"]],"coinWeights":[0.2,0.5,0.8],"subjectId":"A3KACB3ERCT0DG","assignmentId":"3HL8HNGX46NK7PKE1T6WLAD7X8NF9O","hitId":"32TZXEA1OL6QYKM0MXQIQH2ABHN14I","url":"https://gershmanlab.com/experiments/alicia/teaching/experiment/?hitId=32TZXEA1OL6QYKM0MXQIQH2ABHN14I&workerId=A3KACB3ERCT0DG&assignmentId=3HL8HNGX46NK7PKE1T6WLAD7X8NF9O&a=XHLH9&tp_a=XHLH9&b=3HL8HNGX46NK7PKE1T6WLAD7X8NF9O&tp_b=3HL8HNGX46NK7PKE1T6WLAD7X8NF9O&c=365799&tp_c=365799"},{"rt":null,"stimulus":"<div style=\"font-size:60px;\">Next student</div>","response":null,"trial_type":"html-keyboard-response","trial_index":45,"time_elapsed":1093259,"internal_node_id":"0.0-32.0-0.0","params":{"nStudents":24,"maxFlips":30,"completionMinutes":45,"basePay":8,"maxBonus":9,"perTrialBonus":0.5,"perTrialBonusThreshold":0.05,"exampleCost":0.01},"classroomParams":{"A":{"a":1,"b":4},"B":{"a":4,"b":1},"C":{"a":2,"b":8},"D":{"a":8,"b":2}},"conditions":["nonSeqFull","nonSeqPartial","seqNoFeedback","seqFeedback"],"classroomPairings":[["A","B"],["C","D"]],"coinWeights":[0.2,0.5,0.8],"subjectId":"A3KACB3ERCT0DG","assignmentId":"3HL8HNGX46NK7PKE1T6WLAD7X8NF9O","hitId":"32TZXEA1OL6QYKM0MXQIQH2ABHN14I","url":"https://gershmanlab.com/experiments/alicia/teaching/experiment/?hitId=32TZXEA1OL6QYKM0MXQIQH2ABHN14I&workerId=A3KACB3ERCT0DG&assignmentId=3HL8HNGX46NK7PKE1T6WLAD7X8NF9O&a=XHLH9&tp_a=XHLH9&b=3HL8HNGX46NK7PKE1T6WLAD7X8NF9O&tp_b=3HL8HNGX46NK7PKE1T6WLAD7X8NF9O&c=365799&tp_c=365799"},{"rt":2613,"stimulus":"\n            <h4 style=\"color:Orange;\">Student 5</h4>\n            <h2>The weight of your coin is <b style=\"color:Tomato;\">0.5</b>.</h2>\n            <p>In this block, you will be giving <b>one</b> set of examples to Student 5.</p>\n                <p>You will receive feedback at the end of the block.</p>\n            <p></p>","response":0,"trial_type":"html-button-response","trial_index":46,"time_elapsed":1095878,"internal_node_id":"0.0-33.0","params":{"nStudents":24,"maxFlips":30,"completionMinutes":45,"basePay":8,"maxBonus":9,"perTrialBonus":0.5,"perTrialBonusThreshold":0.05,"exampleCost":0.01},"classroomParams":{"A":{"a":1,"b":4},"B":{"a":4,"b":1},"C":{"a":2,"b":8},"D":{"a":8,"b":2}},"conditions":["nonSeqFull","nonSeqPartial","seqNoFeedback","seqFeedback"],"classroomPairings":[["A","B"],["C","D"]],"coinWeights":[0.2,0.5,0.8],"subjectId":"A3KACB3ERCT0DG","assignmentId":"3HL8HNGX46NK7PKE1T6WLAD7X8NF9O","hitId":"32TZXEA1OL6QYKM0MXQIQH2ABHN14I","url":"https://gershmanlab.com/experiments/alicia/teaching/experiment/?hitId=32TZXEA1OL6QYKM0MXQIQH2ABHN14I&workerId=A3KACB3ERCT0DG&assignmentId=3HL8HNGX46NK7PKE1T6WLAD7X8NF9O&a=XHLH9&tp_a=XHLH9&b=3HL8HNGX46NK7PKE1T6WLAD7X8NF9O&tp_b=3HL8HNGX46NK7PKE1T6WLAD7X8NF9O&c=365799&tp_c=365799"},{"rt":31377,"response":{"heads":"1","tails":"4"},"type":"response","condition":"nonSeqFull","trueTheta":0.5,"classrooms":["A","B"],"studentTrueClassroom":"B","exampleSet":"first","trial_type":"survey-html-form","trial_index":47,"time_elapsed":1127258,"internal_node_id":"0.0-34.0-0.0","params":{"nStudents":24,"maxFlips":30,"completionMinutes":45,"basePay":8,"maxBonus":9,"perTrialBonus":0.5,"perTrialBonusThreshold":0.05,"exampleCost":0.01},"classroomParams":{"A":{"a":1,"b":4},"B":{"a":4,"b":1},"C":{"a":2,"b":8},"D":{"a":8,"b":2}},"conditions":["nonSeqFull","nonSeqPartial","seqNoFeedback","seqFeedback"],"classroomPairings":[["A","B"],["C","D"]],"coinWeights":[0.2,0.5,0.8],"subjectId":"A3KACB3ERCT0DG","assignmentId":"3HL8HNGX46NK7PKE1T6WLAD7X8NF9O","hitId":"32TZXEA1OL6QYKM0MXQIQH2ABHN14I","url":"https://gershmanlab.com/experiments/alicia/teaching/experiment/?hitId=32TZXEA1OL6QYKM0MXQIQH2ABHN14I&workerId=A3KACB3ERCT0DG&assignmentId=3HL8HNGX46NK7PKE1T6WLAD7X8NF9O&a=XHLH9&tp_a=XHLH9&b=3HL8HNGX46NK7PKE1T6WLAD7X8NF9O&tp_b=3HL8HNGX46NK7PKE1T6WLAD7X8NF9O&c=365799&tp_c=365799","heads":1,"tails":4,"studentIndex":4,"studentTrueHypers":{"a":4,"b":1},"studentGuess":0.5,"delta":0,"totalExamples":5,"bonus":0.45,"bonusSoFar":0.85},{"rt":null,"stimulus":"Sending examples to student... ","response":null,"trial_type":"html-keyboard-response","trial_index":48,"time_elapsed":1128777,"internal_node_id":"0.0-35.0","params":{"nStudents":24,"maxFlips":30,"completionMinutes":45,"basePay":8,"maxBonus":9,"perTrialBonus":0.5,"perTrialBonusThreshold":0.05,"exampleCost":0.01},"classroomParams":{"A":{"a":1,"b":4},"B":{"a":4,"b":1},"C":{"a":2,"b":8},"D":{"a":8,"b":2}},"conditions":["nonSeqFull","nonSeqPartial","seqNoFeedback","seqFeedback"],"classroomPairings":[["A","B"],["C","D"]],"coinWeights":[0.2,0.5,0.8],"subjectId":"A3KACB3ERCT0DG","assignmentId":"3HL8HNGX46NK7PKE1T6WLAD7X8NF9O","hitId":"32TZXEA1OL6QYKM0MXQIQH2ABHN14I","url":"https://gershmanlab.com/experiments/alicia/teaching/experiment/?hitId=32TZXEA1OL6QYKM0MXQIQH2ABHN14I&workerId=A3KACB3ERCT0DG&assignmentId=3HL8HNGX46NK7PKE1T6WLAD7X8NF9O&a=XHLH9&tp_a=XHLH9&b=3HL8HNGX46NK7PKE1T6WLAD7X8NF9O&tp_b=3HL8HNGX46NK7PKE1T6WLAD7X8NF9O&c=365799&tp_c=365799"},{"rt":null,"stimulus":"Examples sent to student! Waiting for student...","response":null,"trial_type":"html-keyboard-response","trial_index":49,"time_elapsed":1134782,"internal_node_id":"0.0-36.0","params":{"nStudents":24,"maxFlips":30,"completionMinutes":45,"basePay":8,"maxBonus":9,"perTrialBonus":0.5,"perTrialBonusThreshold":0.05,"exampleCost":0.01},"classroomParams":{"A":{"a":1,"b":4},"B":{"a":4,"b":1},"C":{"a":2,"b":8},"D":{"a":8,"b":2}},"conditions":["nonSeqFull","nonSeqPartial","seqNoFeedback","seqFeedback"],"classroomPairings":[["A","B"],["C","D"]],"coinWeights":[0.2,0.5,0.8],"subjectId":"A3KACB3ERCT0DG","assignmentId":"3HL8HNGX46NK7PKE1T6WLAD7X8NF9O","hitId":"32TZXEA1OL6QYKM0MXQIQH2ABHN14I","url":"https://gershmanlab.com/experiments/alicia/teaching/experiment/?hitId=32TZXEA1OL6QYKM0MXQIQH2ABHN14I&workerId=A3KACB3ERCT0DG&assignmentId=3HL8HNGX46NK7PKE1T6WLAD7X8NF9O&a=XHLH9&tp_a=XHLH9&b=3HL8HNGX46NK7PKE1T6WLAD7X8NF9O&tp_b=3HL8HNGX46NK7PKE1T6WLAD7X8NF9O&c=365799&tp_c=365799"},{"rt":2868,"stimulus":"\n                <p>Student's guess for coin weight: <b style=\"color:Tomato;\">0.50</b></p>\n                <p>You received a bonus of <b>$0.45</b>. Total bonus so far: <b>$0.85</b></b></p>\n                <p></p>\n                <p>Press any key to continue.</p>\n                ","response":" ","trial_type":"html-keyboard-response","trial_index":50,"time_elapsed":1137651,"internal_node_id":"0.0-37.0","params":{"nStudents":24,"maxFlips":30,"completionMinutes":45,"basePay":8,"maxBonus":9,"perTrialBonus":0.5,"perTrialBonusThreshold":0.05,"exampleCost":0.01},"classroomParams":{"A":{"a":1,"b":4},"B":{"a":4,"b":1},"C":{"a":2,"b":8},"D":{"a":8,"b":2}},"conditions":["nonSeqFull","nonSeqPartial","seqNoFeedback","seqFeedback"],"classroomPairings":[["A","B"],["C","D"]],"coinWeights":[0.2,0.5,0.8],"subjectId":"A3KACB3ERCT0DG","assignmentId":"3HL8HNGX46NK7PKE1T6WLAD7X8NF9O","hitId":"32TZXEA1OL6QYKM0MXQIQH2ABHN14I","url":"https://gershmanlab.com/experiments/alicia/teaching/experiment/?hitId=32TZXEA1OL6QYKM0MXQIQH2ABHN14I&workerId=A3KACB3ERCT0DG&assignmentId=3HL8HNGX46NK7PKE1T6WLAD7X8NF9O&a=XHLH9&tp_a=XHLH9&b=3HL8HNGX46NK7PKE1T6WLAD7X8NF9O&tp_b=3HL8HNGX46NK7PKE1T6WLAD7X8NF9O&c=365799&tp_c=365799"},{"rt":null,"stimulus":"<div style=\"font-size:60px;\">Next student</div>","response":null,"trial_type":"html-keyboard-response","trial_index":51,"time_elapsed":1140158,"internal_node_id":"0.0-38.0-0.0","params":{"nStudents":24,"maxFlips":30,"completionMinutes":45,"basePay":8,"maxBonus":9,"perTrialBonus":0.5,"perTrialBonusThreshold":0.05,"exampleCost":0.01},"classroomParams":{"A":{"a":1,"b":4},"B":{"a":4,"b":1},"C":{"a":2,"b":8},"D":{"a":8,"b":2}},"conditions":["nonSeqFull","nonSeqPartial","seqNoFeedback","seqFeedback"],"classroomPairings":[["A","B"],["C","D"]],"coinWeights":[0.2,0.5,0.8],"subjectId":"A3KACB3ERCT0DG","assignmentId":"3HL8HNGX46NK7PKE1T6WLAD7X8NF9O","hitId":"32TZXEA1OL6QYKM0MXQIQH2ABHN14I","url":"https://gershmanlab.com/experiments/alicia/teaching/experiment/?hitId=32TZXEA1OL6QYKM0MXQIQH2ABHN14I&workerId=A3KACB3ERCT0DG&assignmentId=3HL8HNGX46NK7PKE1T6WLAD7X8NF9O&a=XHLH9&tp_a=XHLH9&b=3HL8HNGX46NK7PKE1T6WLAD7X8NF9O&tp_b=3HL8HNGX46NK7PKE1T6WLAD7X8NF9O&c=365799&tp_c=365799"},{"rt":4009,"stimulus":"\n            <h4 style=\"color:Orange;\">Student 6</h4>\n            <h2>The weight of your coin is <b style=\"color:Tomato;\">0.2</b>.</h2>\n            <p>In this block, you will be giving <b>one</b> set of examples to Student 6.</p>\n                <p>You will receive feedback at the end of the block.</p>\n            <p></p>","response":0,"trial_type":"html-button-response","trial_index":52,"time_elapsed":1144170,"internal_node_id":"0.0-39.0","params":{"nStudents":24,"maxFlips":30,"completionMinutes":45,"basePay":8,"maxBonus":9,"perTrialBonus":0.5,"perTrialBonusThreshold":0.05,"exampleCost":0.01},"classroomParams":{"A":{"a":1,"b":4},"B":{"a":4,"b":1},"C":{"a":2,"b":8},"D":{"a":8,"b":2}},"conditions":["nonSeqFull","nonSeqPartial","seqNoFeedback","seqFeedback"],"classroomPairings":[["A","B"],["C","D"]],"coinWeights":[0.2,0.5,0.8],"subjectId":"A3KACB3ERCT0DG","assignmentId":"3HL8HNGX46NK7PKE1T6WLAD7X8NF9O","hitId":"32TZXEA1OL6QYKM0MXQIQH2ABHN14I","url":"https://gershmanlab.com/experiments/alicia/teaching/experiment/?hitId=32TZXEA1OL6QYKM0MXQIQH2ABHN14I&workerId=A3KACB3ERCT0DG&assignmentId=3HL8HNGX46NK7PKE1T6WLAD7X8NF9O&a=XHLH9&tp_a=XHLH9&b=3HL8HNGX46NK7PKE1T6WLAD7X8NF9O&tp_b=3HL8HNGX46NK7PKE1T6WLAD7X8NF9O&c=365799&tp_c=365799"},{"rt":24783,"response":{"heads":"8","tails":"2"},"type":"response","condition":"nonSeqPartial","trueTheta":0.2,"classrooms":["A","B"],"studentTrueClassroom":"A","exampleSet":"first","trial_type":"survey-html-form","trial_index":53,"time_elapsed":1168958,"internal_node_id":"0.0-40.0-0.0","params":{"nStudents":24,"maxFlips":30,"completionMinutes":45,"basePay":8,"maxBonus":9,"perTrialBonus":0.5,"perTrialBonusThreshold":0.05,"exampleCost":0.01},"classroomParams":{"A":{"a":1,"b":4},"B":{"a":4,"b":1},"C":{"a":2,"b":8},"D":{"a":8,"b":2}},"conditions":["nonSeqFull","nonSeqPartial","seqNoFeedback","seqFeedback"],"classroomPairings":[["A","B"],["C","D"]],"coinWeights":[0.2,0.5,0.8],"subjectId":"A3KACB3ERCT0DG","assignmentId":"3HL8HNGX46NK7PKE1T6WLAD7X8NF9O","hitId":"32TZXEA1OL6QYKM0MXQIQH2ABHN14I","url":"https://gershmanlab.com/experiments/alicia/teaching/experiment/?hitId=32TZXEA1OL6QYKM0MXQIQH2ABHN14I&workerId=A3KACB3ERCT0DG&assignmentId=3HL8HNGX46NK7PKE1T6WLAD7X8NF9O&a=XHLH9&tp_a=XHLH9&b=3HL8HNGX46NK7PKE1T6WLAD7X8NF9O&tp_b=3HL8HNGX46NK7PKE1T6WLAD7X8NF9O&c=365799&tp_c=365799","heads":8,"tails":2,"studentIndex":5,"studentTrueHypers":{"a":1,"b":4},"studentGuess":0.6,"delta":0.39999999999999997,"totalExamples":10,"bonus":0,"bonusSoFar":0.85},{"rt":null,"stimulus":"Sending examples to student... ","response":null,"trial_type":"html-keyboard-response","trial_index":54,"time_elapsed":1170467,"internal_node_id":"0.0-41.0","params":{"nStudents":24,"maxFlips":30,"completionMinutes":45,"basePay":8,"maxBonus":9,"perTrialBonus":0.5,"perTrialBonusThreshold":0.05,"exampleCost":0.01},"classroomParams":{"A":{"a":1,"b":4},"B":{"a":4,"b":1},"C":{"a":2,"b":8},"D":{"a":8,"b":2}},"conditions":["nonSeqFull","nonSeqPartial","seqNoFeedback","seqFeedback"],"classroomPairings":[["A","B"],["C","D"]],"coinWeights":[0.2,0.5,0.8],"subjectId":"A3KACB3ERCT0DG","assignmentId":"3HL8HNGX46NK7PKE1T6WLAD7X8NF9O","hitId":"32TZXEA1OL6QYKM0MXQIQH2ABHN14I","url":"https://gershmanlab.com/experiments/alicia/teaching/experiment/?hitId=32TZXEA1OL6QYKM0MXQIQH2ABHN14I&workerId=A3KACB3ERCT0DG&assignmentId=3HL8HNGX46NK7PKE1T6WLAD7X8NF9O&a=XHLH9&tp_a=XHLH9&b=3HL8HNGX46NK7PKE1T6WLAD7X8NF9O&tp_b=3HL8HNGX46NK7PKE1T6WLAD7X8NF9O&c=365799&tp_c=365799"},{"rt":null,"stimulus":"Examples sent to student! Waiting for student...","response":null,"trial_type":"html-keyboard-response","trial_index":55,"time_elapsed":1175977,"internal_node_id":"0.0-42.0","params":{"nStudents":24,"maxFlips":30,"completionMinutes":45,"basePay":8,"maxBonus":9,"perTrialBonus":0.5,"perTrialBonusThreshold":0.05,"exampleCost":0.01},"classroomParams":{"A":{"a":1,"b":4},"B":{"a":4,"b":1},"C":{"a":2,"b":8},"D":{"a":8,"b":2}},"conditions":["nonSeqFull","nonSeqPartial","seqNoFeedback","seqFeedback"],"classroomPairings":[["A","B"],["C","D"]],"coinWeights":[0.2,0.5,0.8],"subjectId":"A3KACB3ERCT0DG","assignmentId":"3HL8HNGX46NK7PKE1T6WLAD7X8NF9O","hitId":"32TZXEA1OL6QYKM0MXQIQH2ABHN14I","url":"https://gershmanlab.com/experiments/alicia/teaching/experiment/?hitId=32TZXEA1OL6QYKM0MXQIQH2ABHN14I&workerId=A3KACB3ERCT0DG&assignmentId=3HL8HNGX46NK7PKE1T6WLAD7X8NF9O&a=XHLH9&tp_a=XHLH9&b=3HL8HNGX46NK7PKE1T6WLAD7X8NF9O&tp_b=3HL8HNGX46NK7PKE1T6WLAD7X8NF9O&c=365799&tp_c=365799"},{"rt":7758,"stimulus":"\n                <p>Student's guess for coin weight: <b style=\"color:Tomato;\">0.60</b></p>\n                <p>You received a bonus of <b>$0</b>. Total bonus so far: <b>$0.85</b></b></p>\n                <p></p>\n                <p>Press any key to continue.</p>\n                ","response":" ","trial_type":"html-keyboard-response","trial_index":56,"time_elapsed":1183737,"internal_node_id":"0.0-43.0","params":{"nStudents":24,"maxFlips":30,"completionMinutes":45,"basePay":8,"maxBonus":9,"perTrialBonus":0.5,"perTrialBonusThreshold":0.05,"exampleCost":0.01},"classroomParams":{"A":{"a":1,"b":4},"B":{"a":4,"b":1},"C":{"a":2,"b":8},"D":{"a":8,"b":2}},"conditions":["nonSeqFull","nonSeqPartial","seqNoFeedback","seqFeedback"],"classroomPairings":[["A","B"],["C","D"]],"coinWeights":[0.2,0.5,0.8],"subjectId":"A3KACB3ERCT0DG","assignmentId":"3HL8HNGX46NK7PKE1T6WLAD7X8NF9O","hitId":"32TZXEA1OL6QYKM0MXQIQH2ABHN14I","url":"https://gershmanlab.com/experiments/alicia/teaching/experiment/?hitId=32TZXEA1OL6QYKM0MXQIQH2ABHN14I&workerId=A3KACB3ERCT0DG&assignmentId=3HL8HNGX46NK7PKE1T6WLAD7X8NF9O&a=XHLH9&tp_a=XHLH9&b=3HL8HNGX46NK7PKE1T6WLAD7X8NF9O&tp_b=3HL8HNGX46NK7PKE1T6WLAD7X8NF9O&c=365799&tp_c=365799"},{"rt":null,"stimulus":"<div style=\"font-size:60px;\">Next student</div>","response":null,"trial_type":"html-keyboard-response","trial_index":57,"time_elapsed":1186748,"internal_node_id":"0.0-44.0-0.0","params":{"nStudents":24,"maxFlips":30,"completionMinutes":45,"basePay":8,"maxBonus":9,"perTrialBonus":0.5,"perTrialBonusThreshold":0.05,"exampleCost":0.01},"classroomParams":{"A":{"a":1,"b":4},"B":{"a":4,"b":1},"C":{"a":2,"b":8},"D":{"a":8,"b":2}},"conditions":["nonSeqFull","nonSeqPartial","seqNoFeedback","seqFeedback"],"classroomPairings":[["A","B"],["C","D"]],"coinWeights":[0.2,0.5,0.8],"subjectId":"A3KACB3ERCT0DG","assignmentId":"3HL8HNGX46NK7PKE1T6WLAD7X8NF9O","hitId":"32TZXEA1OL6QYKM0MXQIQH2ABHN14I","url":"https://gershmanlab.com/experiments/alicia/teaching/experiment/?hitId=32TZXEA1OL6QYKM0MXQIQH2ABHN14I&workerId=A3KACB3ERCT0DG&assignmentId=3HL8HNGX46NK7PKE1T6WLAD7X8NF9O&a=XHLH9&tp_a=XHLH9&b=3HL8HNGX46NK7PKE1T6WLAD7X8NF9O&tp_b=3HL8HNGX46NK7PKE1T6WLAD7X8NF9O&c=365799&tp_c=365799"},{"rt":3517,"stimulus":"\n            <h4 style=\"color:Orange;\">Student 7</h4>\n            <h2>The weight of your coin is <b style=\"color:Tomato;\">0.2</b>.</h2>\n            <p>In this block, you will be giving <b>two</b> sets of examples to Student 7.</p>\n                <p>You will receive feedback at the end of the block.</p>\n            <p></p>","response":0,"trial_type":"html-button-response","trial_index":58,"time_elapsed":1190269,"internal_node_id":"0.0-45.0","params":{"nStudents":24,"maxFlips":30,"completionMinutes":45,"basePay":8,"maxBonus":9,"perTrialBonus":0.5,"perTrialBonusThreshold":0.05,"exampleCost":0.01},"classroomParams":{"A":{"a":1,"b":4},"B":{"a":4,"b":1},"C":{"a":2,"b":8},"D":{"a":8,"b":2}},"conditions":["nonSeqFull","nonSeqPartial","seqNoFeedback","seqFeedback"],"classroomPairings":[["A","B"],["C","D"]],"coinWeights":[0.2,0.5,0.8],"subjectId":"A3KACB3ERCT0DG","assignmentId":"3HL8HNGX46NK7PKE1T6WLAD7X8NF9O","hitId":"32TZXEA1OL6QYKM0MXQIQH2ABHN14I","url":"https://gershmanlab.com/experiments/alicia/teaching/experiment/?hitId=32TZXEA1OL6QYKM0MXQIQH2ABHN14I&workerId=A3KACB3ERCT0DG&assignmentId=3HL8HNGX46NK7PKE1T6WLAD7X8NF9O&a=XHLH9&tp_a=XHLH9&b=3HL8HNGX46NK7PKE1T6WLAD7X8NF9O&tp_b=3HL8HNGX46NK7PKE1T6WLAD7X8NF9O&c=365799&tp_c=365799"},{"rt":14561,"response":{"heads":"2","tails":"8"},"type":"response","condition":"seqNoFeedback","trueTheta":0.2,"classrooms":["A","B"],"studentTrueClassroom":"A","exampleSet":"first","trial_type":"survey-html-form","trial_index":59,"time_elapsed":1204833,"internal_node_id":"0.0-46.0-0.0","params":{"nStudents":24,"maxFlips":30,"completionMinutes":45,"basePay":8,"maxBonus":9,"perTrialBonus":0.5,"perTrialBonusThreshold":0.05,"exampleCost":0.01},"classroomParams":{"A":{"a":1,"b":4},"B":{"a":4,"b":1},"C":{"a":2,"b":8},"D":{"a":8,"b":2}},"conditions":["nonSeqFull","nonSeqPartial","seqNoFeedback","seqFeedback"],"classroomPairings":[["A","B"],["C","D"]],"coinWeights":[0.2,0.5,0.8],"subjectId":"A3KACB3ERCT0DG","assignmentId":"3HL8HNGX46NK7PKE1T6WLAD7X8NF9O","hitId":"32TZXEA1OL6QYKM0MXQIQH2ABHN14I","url":"https://gershmanlab.com/experiments/alicia/teaching/experiment/?hitId=32TZXEA1OL6QYKM0MXQIQH2ABHN14I&workerId=A3KACB3ERCT0DG&assignmentId=3HL8HNGX46NK7PKE1T6WLAD7X8NF9O&a=XHLH9&tp_a=XHLH9&b=3HL8HNGX46NK7PKE1T6WLAD7X8NF9O&tp_b=3HL8HNGX46NK7PKE1T6WLAD7X8NF9O&c=365799&tp_c=365799","heads":2,"tails":8,"studentIndex":6,"studentTrueHypers":{"a":1,"b":4},"studentGuess":0.2,"delta":0,"totalExamples":10,"bonusSoFar":0.85},{"rt":null,"stimulus":"Sending examples to student... ","response":null,"trial_type":"html-keyboard-response","trial_index":60,"time_elapsed":1206595,"internal_node_id":"0.0-47.0","params":{"nStudents":24,"maxFlips":30,"completionMinutes":45,"basePay":8,"maxBonus":9,"perTrialBonus":0.5,"perTrialBonusThreshold":0.05,"exampleCost":0.01},"classroomParams":{"A":{"a":1,"b":4},"B":{"a":4,"b":1},"C":{"a":2,"b":8},"D":{"a":8,"b":2}},"conditions":["nonSeqFull","nonSeqPartial","seqNoFeedback","seqFeedback"],"classroomPairings":[["A","B"],["C","D"]],"coinWeights":[0.2,0.5,0.8],"subjectId":"A3KACB3ERCT0DG","assignmentId":"3HL8HNGX46NK7PKE1T6WLAD7X8NF9O","hitId":"32TZXEA1OL6QYKM0MXQIQH2ABHN14I","url":"https://gershmanlab.com/experiments/alicia/teaching/experiment/?hitId=32TZXEA1OL6QYKM0MXQIQH2ABHN14I&workerId=A3KACB3ERCT0DG&assignmentId=3HL8HNGX46NK7PKE1T6WLAD7X8NF9O&a=XHLH9&tp_a=XHLH9&b=3HL8HNGX46NK7PKE1T6WLAD7X8NF9O&tp_b=3HL8HNGX46NK7PKE1T6WLAD7X8NF9O&c=365799&tp_c=365799"},{"rt":null,"stimulus":"Examples sent to student! Waiting for student...","response":null,"trial_type":"html-keyboard-response","trial_index":61,"time_elapsed":1211600,"internal_node_id":"0.0-48.0","params":{"nStudents":24,"maxFlips":30,"completionMinutes":45,"basePay":8,"maxBonus":9,"perTrialBonus":0.5,"perTrialBonusThreshold":0.05,"exampleCost":0.01},"classroomParams":{"A":{"a":1,"b":4},"B":{"a":4,"b":1},"C":{"a":2,"b":8},"D":{"a":8,"b":2}},"conditions":["nonSeqFull","nonSeqPartial","seqNoFeedback","seqFeedback"],"classroomPairings":[["A","B"],["C","D"]],"coinWeights":[0.2,0.5,0.8],"subjectId":"A3KACB3ERCT0DG","assignmentId":"3HL8HNGX46NK7PKE1T6WLAD7X8NF9O","hitId":"32TZXEA1OL6QYKM0MXQIQH2ABHN14I","url":"https://gershmanlab.com/experiments/alicia/teaching/experiment/?hitId=32TZXEA1OL6QYKM0MXQIQH2ABHN14I&workerId=A3KACB3ERCT0DG&assignmentId=3HL8HNGX46NK7PKE1T6WLAD7X8NF9O&a=XHLH9&tp_a=XHLH9&b=3HL8HNGX46NK7PKE1T6WLAD7X8NF9O&tp_b=3HL8HNGX46NK7PKE1T6WLAD7X8NF9O&c=365799&tp_c=365799"},{"rt":49457,"response":{"heads":"1","tails":"5"},"type":"response","condition":"seqNoFeedback","trueTheta":0.2,"classrooms":["A","B"],"studentTrueClassroom":"A","exampleSet":"second","trial_type":"survey-html-form","trial_index":62,"time_elapsed":1261062,"internal_node_id":"0.0-49.0-0.0","params":{"nStudents":24,"maxFlips":30,"completionMinutes":45,"basePay":8,"maxBonus":9,"perTrialBonus":0.5,"perTrialBonusThreshold":0.05,"exampleCost":0.01},"classroomParams":{"A":{"a":1,"b":4},"B":{"a":4,"b":1},"C":{"a":2,"b":8},"D":{"a":8,"b":2}},"conditions":["nonSeqFull","nonSeqPartial","seqNoFeedback","seqFeedback"],"classroomPairings":[["A","B"],["C","D"]],"coinWeights":[0.2,0.5,0.8],"subjectId":"A3KACB3ERCT0DG","assignmentId":"3HL8HNGX46NK7PKE1T6WLAD7X8NF9O","hitId":"32TZXEA1OL6QYKM0MXQIQH2ABHN14I","url":"https://gershmanlab.com/experiments/alicia/teaching/experiment/?hitId=32TZXEA1OL6QYKM0MXQIQH2ABHN14I&workerId=A3KACB3ERCT0DG&assignmentId=3HL8HNGX46NK7PKE1T6WLAD7X8NF9O&a=XHLH9&tp_a=XHLH9&b=3HL8HNGX46NK7PKE1T6WLAD7X8NF9O&tp_b=3HL8HNGX46NK7PKE1T6WLAD7X8NF9O&c=365799&tp_c=365799","firstResponseHeads":2,"firstResponseTails":8,"secondResponseHeads":1,"secondResponseTails":5,"totalHeads":3,"totalTails":13,"studentIndex":6,"studentTrueHypers":{"a":1,"b":4},"studentGuess":0.19047619047619047,"delta":0.009523809523809545,"bonus":0.34,"bonusSoFar":1.19,"totalExamples":16},{"rt":null,"stimulus":"Sending examples to student... ","response":null,"trial_type":"html-keyboard-response","trial_index":63,"time_elapsed":1262829,"internal_node_id":"0.0-50.0","params":{"nStudents":24,"maxFlips":30,"completionMinutes":45,"basePay":8,"maxBonus":9,"perTrialBonus":0.5,"perTrialBonusThreshold":0.05,"exampleCost":0.01},"classroomParams":{"A":{"a":1,"b":4},"B":{"a":4,"b":1},"C":{"a":2,"b":8},"D":{"a":8,"b":2}},"conditions":["nonSeqFull","nonSeqPartial","seqNoFeedback","seqFeedback"],"classroomPairings":[["A","B"],["C","D"]],"coinWeights":[0.2,0.5,0.8],"subjectId":"A3KACB3ERCT0DG","assignmentId":"3HL8HNGX46NK7PKE1T6WLAD7X8NF9O","hitId":"32TZXEA1OL6QYKM0MXQIQH2ABHN14I","url":"https://gershmanlab.com/experiments/alicia/teaching/experiment/?hitId=32TZXEA1OL6QYKM0MXQIQH2ABHN14I&workerId=A3KACB3ERCT0DG&assignmentId=3HL8HNGX46NK7PKE1T6WLAD7X8NF9O&a=XHLH9&tp_a=XHLH9&b=3HL8HNGX46NK7PKE1T6WLAD7X8NF9O&tp_b=3HL8HNGX46NK7PKE1T6WLAD7X8NF9O&c=365799&tp_c=365799"},{"rt":null,"stimulus":"Examples sent to student! Waiting for student...","response":null,"trial_type":"html-keyboard-response","trial_index":64,"time_elapsed":1266834,"internal_node_id":"0.0-51.0","params":{"nStudents":24,"maxFlips":30,"completionMinutes":45,"basePay":8,"maxBonus":9,"perTrialBonus":0.5,"perTrialBonusThreshold":0.05,"exampleCost":0.01},"classroomParams":{"A":{"a":1,"b":4},"B":{"a":4,"b":1},"C":{"a":2,"b":8},"D":{"a":8,"b":2}},"conditions":["nonSeqFull","nonSeqPartial","seqNoFeedback","seqFeedback"],"classroomPairings":[["A","B"],["C","D"]],"coinWeights":[0.2,0.5,0.8],"subjectId":"A3KACB3ERCT0DG","assignmentId":"3HL8HNGX46NK7PKE1T6WLAD7X8NF9O","hitId":"32TZXEA1OL6QYKM0MXQIQH2ABHN14I","url":"https://gershmanlab.com/experiments/alicia/teaching/experiment/?hitId=32TZXEA1OL6QYKM0MXQIQH2ABHN14I&workerId=A3KACB3ERCT0DG&assignmentId=3HL8HNGX46NK7PKE1T6WLAD7X8NF9O&a=XHLH9&tp_a=XHLH9&b=3HL8HNGX46NK7PKE1T6WLAD7X8NF9O&tp_b=3HL8HNGX46NK7PKE1T6WLAD7X8NF9O&c=365799&tp_c=365799"},{"rt":7927,"stimulus":"\n                <p>Student 7's first guess for coin weight: <b style=\"color:Tomato\";>0.20</b></p>\n                <p>Student 7's second guess for coin weight: <b style=\"color:Tomato\";>0.19</b></p>\n                <p>You received a bonus of <b>$0.34</b> based on the student's second guess.</p>\n                <p>Total bonus so far: <b>$1.19</b></p>\n                <p>Press any key to continue.</p>\n                ","response":" ","trial_type":"html-keyboard-response","trial_index":65,"time_elapsed":1274764,"internal_node_id":"0.0-52.0","params":{"nStudents":24,"maxFlips":30,"completionMinutes":45,"basePay":8,"maxBonus":9,"perTrialBonus":0.5,"perTrialBonusThreshold":0.05,"exampleCost":0.01},"classroomParams":{"A":{"a":1,"b":4},"B":{"a":4,"b":1},"C":{"a":2,"b":8},"D":{"a":8,"b":2}},"conditions":["nonSeqFull","nonSeqPartial","seqNoFeedback","seqFeedback"],"classroomPairings":[["A","B"],["C","D"]],"coinWeights":[0.2,0.5,0.8],"subjectId":"A3KACB3ERCT0DG","assignmentId":"3HL8HNGX46NK7PKE1T6WLAD7X8NF9O","hitId":"32TZXEA1OL6QYKM0MXQIQH2ABHN14I","url":"https://gershmanlab.com/experiments/alicia/teaching/experiment/?hitId=32TZXEA1OL6QYKM0MXQIQH2ABHN14I&workerId=A3KACB3ERCT0DG&assignmentId=3HL8HNGX46NK7PKE1T6WLAD7X8NF9O&a=XHLH9&tp_a=XHLH9&b=3HL8HNGX46NK7PKE1T6WLAD7X8NF9O&tp_b=3HL8HNGX46NK7PKE1T6WLAD7X8NF9O&c=365799&tp_c=365799"},{"rt":null,"stimulus":"<div style=\"font-size:60px;\">Next student</div>","response":null,"trial_type":"html-keyboard-response","trial_index":66,"time_elapsed":1277770,"internal_node_id":"0.0-53.0-0.0","params":{"nStudents":24,"maxFlips":30,"completionMinutes":45,"basePay":8,"maxBonus":9,"perTrialBonus":0.5,"perTrialBonusThreshold":0.05,"exampleCost":0.01},"classroomParams":{"A":{"a":1,"b":4},"B":{"a":4,"b":1},"C":{"a":2,"b":8},"D":{"a":8,"b":2}},"conditions":["nonSeqFull","nonSeqPartial","seqNoFeedback","seqFeedback"],"classroomPairings":[["A","B"],["C","D"]],"coinWeights":[0.2,0.5,0.8],"subjectId":"A3KACB3ERCT0DG","assignmentId":"3HL8HNGX46NK7PKE1T6WLAD7X8NF9O","hitId":"32TZXEA1OL6QYKM0MXQIQH2ABHN14I","url":"https://gershmanlab.com/experiments/alicia/teaching/experiment/?hitId=32TZXEA1OL6QYKM0MXQIQH2ABHN14I&workerId=A3KACB3ERCT0DG&assignmentId=3HL8HNGX46NK7PKE1T6WLAD7X8NF9O&a=XHLH9&tp_a=XHLH9&b=3HL8HNGX46NK7PKE1T6WLAD7X8NF9O&tp_b=3HL8HNGX46NK7PKE1T6WLAD7X8NF9O&c=365799&tp_c=365799"},{"rt":8331,"stimulus":"\n            <h4 style=\"color:Orange;\">Student 8</h4>\n            <h2>The weight of your coin is <b style=\"color:Tomato;\">0.8</b>.</h2>\n            <p>In this block, you will be giving <b>two</b> sets of examples to Student 8.</p>\n                <p>You will see the student's guess after the first set of examples. You will also receive feedback at the end of the block.</p>\n            <p>To earn the highest bonus, you will have to <b>take into consideration the student's guess</b> when you choose your second set of examples.</p>","response":0,"trial_type":"html-button-response","trial_index":67,"time_elapsed":1286105,"internal_node_id":"0.0-54.0","params":{"nStudents":24,"maxFlips":30,"completionMinutes":45,"basePay":8,"maxBonus":9,"perTrialBonus":0.5,"perTrialBonusThreshold":0.05,"exampleCost":0.01},"classroomParams":{"A":{"a":1,"b":4},"B":{"a":4,"b":1},"C":{"a":2,"b":8},"D":{"a":8,"b":2}},"conditions":["nonSeqFull","nonSeqPartial","seqNoFeedback","seqFeedback"],"classroomPairings":[["A","B"],["C","D"]],"coinWeights":[0.2,0.5,0.8],"subjectId":"A3KACB3ERCT0DG","assignmentId":"3HL8HNGX46NK7PKE1T6WLAD7X8NF9O","hitId":"32TZXEA1OL6QYKM0MXQIQH2ABHN14I","url":"https://gershmanlab.com/experiments/alicia/teaching/experiment/?hitId=32TZXEA1OL6QYKM0MXQIQH2ABHN14I&workerId=A3KACB3ERCT0DG&assignmentId=3HL8HNGX46NK7PKE1T6WLAD7X8NF9O&a=XHLH9&tp_a=XHLH9&b=3HL8HNGX46NK7PKE1T6WLAD7X8NF9O&tp_b=3HL8HNGX46NK7PKE1T6WLAD7X8NF9O&c=365799&tp_c=365799"},{"rt":24048,"response":{"heads":"4","tails":"1"},"type":"response","condition":"seqFeedback","trueTheta":0.8,"classrooms":["C","D"],"studentTrueClassroom":"C","exampleSet":"first","trial_type":"survey-html-form","trial_index":68,"time_elapsed":1310157,"internal_node_id":"0.0-55.0-0.0","params":{"nStudents":24,"maxFlips":30,"completionMinutes":45,"basePay":8,"maxBonus":9,"perTrialBonus":0.5,"perTrialBonusThreshold":0.05,"exampleCost":0.01},"classroomParams":{"A":{"a":1,"b":4},"B":{"a":4,"b":1},"C":{"a":2,"b":8},"D":{"a":8,"b":2}},"conditions":["nonSeqFull","nonSeqPartial","seqNoFeedback","seqFeedback"],"classroomPairings":[["A","B"],["C","D"]],"coinWeights":[0.2,0.5,0.8],"subjectId":"A3KACB3ERCT0DG","assignmentId":"3HL8HNGX46NK7PKE1T6WLAD7X8NF9O","hitId":"32TZXEA1OL6QYKM0MXQIQH2ABHN14I","url":"https://gershmanlab.com/experiments/alicia/teaching/experiment/?hitId=32TZXEA1OL6QYKM0MXQIQH2ABHN14I&workerId=A3KACB3ERCT0DG&assignmentId=3HL8HNGX46NK7PKE1T6WLAD7X8NF9O&a=XHLH9&tp_a=XHLH9&b=3HL8HNGX46NK7PKE1T6WLAD7X8NF9O&tp_b=3HL8HNGX46NK7PKE1T6WLAD7X8NF9O&c=365799&tp_c=365799","heads":4,"tails":1,"studentIndex":7,"studentTrueHypers":{"a":2,"b":8},"studentGuess":0.4,"delta":0.4,"totalExamples":5,"bonusSoFar":1.19},{"rt":null,"stimulus":"Sending examples to student... ","response":null,"trial_type":"html-keyboard-response","trial_index":69,"time_elapsed":1312172,"internal_node_id":"0.0-56.0","params":{"nStudents":24,"maxFlips":30,"completionMinutes":45,"basePay":8,"maxBonus":9,"perTrialBonus":0.5,"perTrialBonusThreshold":0.05,"exampleCost":0.01},"classroomParams":{"A":{"a":1,"b":4},"B":{"a":4,"b":1},"C":{"a":2,"b":8},"D":{"a":8,"b":2}},"conditions":["nonSeqFull","nonSeqPartial","seqNoFeedback","seqFeedback"],"classroomPairings":[["A","B"],["C","D"]],"coinWeights":[0.2,0.5,0.8],"subjectId":"A3KACB3ERCT0DG","assignmentId":"3HL8HNGX46NK7PKE1T6WLAD7X8NF9O","hitId":"32TZXEA1OL6QYKM0MXQIQH2ABHN14I","url":"https://gershmanlab.com/experiments/alicia/teaching/experiment/?hitId=32TZXEA1OL6QYKM0MXQIQH2ABHN14I&workerId=A3KACB3ERCT0DG&assignmentId=3HL8HNGX46NK7PKE1T6WLAD7X8NF9O&a=XHLH9&tp_a=XHLH9&b=3HL8HNGX46NK7PKE1T6WLAD7X8NF9O&tp_b=3HL8HNGX46NK7PKE1T6WLAD7X8NF9O&c=365799&tp_c=365799"},{"rt":null,"stimulus":"Examples sent to student! Waiting for student...","response":null,"trial_type":"html-keyboard-response","trial_index":70,"time_elapsed":1316183,"internal_node_id":"0.0-57.0","params":{"nStudents":24,"maxFlips":30,"completionMinutes":45,"basePay":8,"maxBonus":9,"perTrialBonus":0.5,"perTrialBonusThreshold":0.05,"exampleCost":0.01},"classroomParams":{"A":{"a":1,"b":4},"B":{"a":4,"b":1},"C":{"a":2,"b":8},"D":{"a":8,"b":2}},"conditions":["nonSeqFull","nonSeqPartial","seqNoFeedback","seqFeedback"],"classroomPairings":[["A","B"],["C","D"]],"coinWeights":[0.2,0.5,0.8],"subjectId":"A3KACB3ERCT0DG","assignmentId":"3HL8HNGX46NK7PKE1T6WLAD7X8NF9O","hitId":"32TZXEA1OL6QYKM0MXQIQH2ABHN14I","url":"https://gershmanlab.com/experiments/alicia/teaching/experiment/?hitId=32TZXEA1OL6QYKM0MXQIQH2ABHN14I&workerId=A3KACB3ERCT0DG&assignmentId=3HL8HNGX46NK7PKE1T6WLAD7X8NF9O&a=XHLH9&tp_a=XHLH9&b=3HL8HNGX46NK7PKE1T6WLAD7X8NF9O&tp_b=3HL8HNGX46NK7PKE1T6WLAD7X8NF9O&c=365799&tp_c=365799"},{"rt":9945,"stimulus":"\n                <p>Student's guess for coin weight: <b style=\"color:Tomato;\">0.40</b></p>\n                <p></b></p>\n                <p>You will now send another set of examples to your student. <b>Remember to take your student's guess into consideration so that you can earn the highest bonus possible!</b> </p>\n                <p>Press any key to continue.</p>\n                ","response":" ","trial_type":"html-keyboard-response","trial_index":71,"time_elapsed":1326130,"internal_node_id":"0.0-58.0","params":{"nStudents":24,"maxFlips":30,"completionMinutes":45,"basePay":8,"maxBonus":9,"perTrialBonus":0.5,"perTrialBonusThreshold":0.05,"exampleCost":0.01},"classroomParams":{"A":{"a":1,"b":4},"B":{"a":4,"b":1},"C":{"a":2,"b":8},"D":{"a":8,"b":2}},"conditions":["nonSeqFull","nonSeqPartial","seqNoFeedback","seqFeedback"],"classroomPairings":[["A","B"],["C","D"]],"coinWeights":[0.2,0.5,0.8],"subjectId":"A3KACB3ERCT0DG","assignmentId":"3HL8HNGX46NK7PKE1T6WLAD7X8NF9O","hitId":"32TZXEA1OL6QYKM0MXQIQH2ABHN14I","url":"https://gershmanlab.com/experiments/alicia/teaching/experiment/?hitId=32TZXEA1OL6QYKM0MXQIQH2ABHN14I&workerId=A3KACB3ERCT0DG&assignmentId=3HL8HNGX46NK7PKE1T6WLAD7X8NF9O&a=XHLH9&tp_a=XHLH9&b=3HL8HNGX46NK7PKE1T6WLAD7X8NF9O&tp_b=3HL8HNGX46NK7PKE1T6WLAD7X8NF9O&c=365799&tp_c=365799"},{"rt":18645,"response":{"heads":"8","tails":"2"},"type":"response","condition":"seqFeedback","trueTheta":0.8,"classrooms":["C","D"],"studentTrueClassroom":"C","exampleSet":"second","trial_type":"survey-html-form","trial_index":72,"time_elapsed":1344778,"internal_node_id":"0.0-59.0-0.0","params":{"nStudents":24,"maxFlips":30,"completionMinutes":45,"basePay":8,"maxBonus":9,"perTrialBonus":0.5,"perTrialBonusThreshold":0.05,"exampleCost":0.01},"classroomParams":{"A":{"a":1,"b":4},"B":{"a":4,"b":1},"C":{"a":2,"b":8},"D":{"a":8,"b":2}},"conditions":["nonSeqFull","nonSeqPartial","seqNoFeedback","seqFeedback"],"classroomPairings":[["A","B"],["C","D"]],"coinWeights":[0.2,0.5,0.8],"subjectId":"A3KACB3ERCT0DG","assignmentId":"3HL8HNGX46NK7PKE1T6WLAD7X8NF9O","hitId":"32TZXEA1OL6QYKM0MXQIQH2ABHN14I","url":"https://gershmanlab.com/experiments/alicia/teaching/experiment/?hitId=32TZXEA1OL6QYKM0MXQIQH2ABHN14I&workerId=A3KACB3ERCT0DG&assignmentId=3HL8HNGX46NK7PKE1T6WLAD7X8NF9O&a=XHLH9&tp_a=XHLH9&b=3HL8HNGX46NK7PKE1T6WLAD7X8NF9O&tp_b=3HL8HNGX46NK7PKE1T6WLAD7X8NF9O&c=365799&tp_c=365799","firstResponseHeads":4,"firstResponseTails":1,"secondResponseHeads":8,"secondResponseTails":2,"totalHeads":12,"totalTails":3,"studentIndex":7,"studentTrueHypers":{"a":2,"b":8},"studentGuess":0.56,"delta":0.24,"bonus":0,"bonusSoFar":1.19,"totalExamples":15},{"rt":null,"stimulus":"Sending examples to student... ","response":null,"trial_type":"html-keyboard-response","trial_index":73,"time_elapsed":1346542,"internal_node_id":"0.0-60.0","params":{"nStudents":24,"maxFlips":30,"completionMinutes":45,"basePay":8,"maxBonus":9,"perTrialBonus":0.5,"perTrialBonusThreshold":0.05,"exampleCost":0.01},"classroomParams":{"A":{"a":1,"b":4},"B":{"a":4,"b":1},"C":{"a":2,"b":8},"D":{"a":8,"b":2}},"conditions":["nonSeqFull","nonSeqPartial","seqNoFeedback","seqFeedback"],"classroomPairings":[["A","B"],["C","D"]],"coinWeights":[0.2,0.5,0.8],"subjectId":"A3KACB3ERCT0DG","assignmentId":"3HL8HNGX46NK7PKE1T6WLAD7X8NF9O","hitId":"32TZXEA1OL6QYKM0MXQIQH2ABHN14I","url":"https://gershmanlab.com/experiments/alicia/teaching/experiment/?hitId=32TZXEA1OL6QYKM0MXQIQH2ABHN14I&workerId=A3KACB3ERCT0DG&assignmentId=3HL8HNGX46NK7PKE1T6WLAD7X8NF9O&a=XHLH9&tp_a=XHLH9&b=3HL8HNGX46NK7PKE1T6WLAD7X8NF9O&tp_b=3HL8HNGX46NK7PKE1T6WLAD7X8NF9O&c=365799&tp_c=365799"},{"rt":null,"stimulus":"Examples sent to student! Waiting for student...","response":null,"trial_type":"html-keyboard-response","trial_index":74,"time_elapsed":1351558,"internal_node_id":"0.0-61.0","params":{"nStudents":24,"maxFlips":30,"completionMinutes":45,"basePay":8,"maxBonus":9,"perTrialBonus":0.5,"perTrialBonusThreshold":0.05,"exampleCost":0.01},"classroomParams":{"A":{"a":1,"b":4},"B":{"a":4,"b":1},"C":{"a":2,"b":8},"D":{"a":8,"b":2}},"conditions":["nonSeqFull","nonSeqPartial","seqNoFeedback","seqFeedback"],"classroomPairings":[["A","B"],["C","D"]],"coinWeights":[0.2,0.5,0.8],"subjectId":"A3KACB3ERCT0DG","assignmentId":"3HL8HNGX46NK7PKE1T6WLAD7X8NF9O","hitId":"32TZXEA1OL6QYKM0MXQIQH2ABHN14I","url":"https://gershmanlab.com/experiments/alicia/teaching/experiment/?hitId=32TZXEA1OL6QYKM0MXQIQH2ABHN14I&workerId=A3KACB3ERCT0DG&assignmentId=3HL8HNGX46NK7PKE1T6WLAD7X8NF9O&a=XHLH9&tp_a=XHLH9&b=3HL8HNGX46NK7PKE1T6WLAD7X8NF9O&tp_b=3HL8HNGX46NK7PKE1T6WLAD7X8NF9O&c=365799&tp_c=365799"},{"rt":6733,"stimulus":"\n                <p>Student 8's first guess for coin weight: <b style=\"color:Tomato\";>0.40</b></p>\n                <p>Student 8's second guess for coin weight: <b style=\"color:Tomato\";>0.56</b></p>\n                <p>You received a bonus of <b>$0.00</b> based on the student's second guess.</p>\n                <p>Total bonus so far: <b>$1.19</b></p>\n                <p>Press any key to continue.</p>\n                ","response":" ","trial_type":"html-keyboard-response","trial_index":75,"time_elapsed":1358293,"internal_node_id":"0.0-62.0","params":{"nStudents":24,"maxFlips":30,"completionMinutes":45,"basePay":8,"maxBonus":9,"perTrialBonus":0.5,"perTrialBonusThreshold":0.05,"exampleCost":0.01},"classroomParams":{"A":{"a":1,"b":4},"B":{"a":4,"b":1},"C":{"a":2,"b":8},"D":{"a":8,"b":2}},"conditions":["nonSeqFull","nonSeqPartial","seqNoFeedback","seqFeedback"],"classroomPairings":[["A","B"],["C","D"]],"coinWeights":[0.2,0.5,0.8],"subjectId":"A3KACB3ERCT0DG","assignmentId":"3HL8HNGX46NK7PKE1T6WLAD7X8NF9O","hitId":"32TZXEA1OL6QYKM0MXQIQH2ABHN14I","url":"https://gershmanlab.com/experiments/alicia/teaching/experiment/?hitId=32TZXEA1OL6QYKM0MXQIQH2ABHN14I&workerId=A3KACB3ERCT0DG&assignmentId=3HL8HNGX46NK7PKE1T6WLAD7X8NF9O&a=XHLH9&tp_a=XHLH9&b=3HL8HNGX46NK7PKE1T6WLAD7X8NF9O&tp_b=3HL8HNGX46NK7PKE1T6WLAD7X8NF9O&c=365799&tp_c=365799"},{"rt":null,"stimulus":"<div style=\"font-size:60px;\">Next student</div>","response":null,"trial_type":"html-keyboard-response","trial_index":76,"time_elapsed":1360301,"internal_node_id":"0.0-63.0-0.0","params":{"nStudents":24,"maxFlips":30,"completionMinutes":45,"basePay":8,"maxBonus":9,"perTrialBonus":0.5,"perTrialBonusThreshold":0.05,"exampleCost":0.01},"classroomParams":{"A":{"a":1,"b":4},"B":{"a":4,"b":1},"C":{"a":2,"b":8},"D":{"a":8,"b":2}},"conditions":["nonSeqFull","nonSeqPartial","seqNoFeedback","seqFeedback"],"classroomPairings":[["A","B"],["C","D"]],"coinWeights":[0.2,0.5,0.8],"subjectId":"A3KACB3ERCT0DG","assignmentId":"3HL8HNGX46NK7PKE1T6WLAD7X8NF9O","hitId":"32TZXEA1OL6QYKM0MXQIQH2ABHN14I","url":"https://gershmanlab.com/experiments/alicia/teaching/experiment/?hitId=32TZXEA1OL6QYKM0MXQIQH2ABHN14I&workerId=A3KACB3ERCT0DG&assignmentId=3HL8HNGX46NK7PKE1T6WLAD7X8NF9O&a=XHLH9&tp_a=XHLH9&b=3HL8HNGX46NK7PKE1T6WLAD7X8NF9O&tp_b=3HL8HNGX46NK7PKE1T6WLAD7X8NF9O&c=365799&tp_c=365799"},{"rt":2760,"stimulus":"\n            <h4 style=\"color:Orange;\">Student 9</h4>\n            <h2>The weight of your coin is <b style=\"color:Tomato;\">0.8</b>.</h2>\n            <p>In this block, you will be giving <b>one</b> set of examples to Student 9.</p>\n                <p>You will receive feedback at the end of the block.</p>\n            <p></p>","response":0,"trial_type":"html-button-response","trial_index":77,"time_elapsed":1363065,"internal_node_id":"0.0-64.0","params":{"nStudents":24,"maxFlips":30,"completionMinutes":45,"basePay":8,"maxBonus":9,"perTrialBonus":0.5,"perTrialBonusThreshold":0.05,"exampleCost":0.01},"classroomParams":{"A":{"a":1,"b":4},"B":{"a":4,"b":1},"C":{"a":2,"b":8},"D":{"a":8,"b":2}},"conditions":["nonSeqFull","nonSeqPartial","seqNoFeedback","seqFeedback"],"classroomPairings":[["A","B"],["C","D"]],"coinWeights":[0.2,0.5,0.8],"subjectId":"A3KACB3ERCT0DG","assignmentId":"3HL8HNGX46NK7PKE1T6WLAD7X8NF9O","hitId":"32TZXEA1OL6QYKM0MXQIQH2ABHN14I","url":"https://gershmanlab.com/experiments/alicia/teaching/experiment/?hitId=32TZXEA1OL6QYKM0MXQIQH2ABHN14I&workerId=A3KACB3ERCT0DG&assignmentId=3HL8HNGX46NK7PKE1T6WLAD7X8NF9O&a=XHLH9&tp_a=XHLH9&b=3HL8HNGX46NK7PKE1T6WLAD7X8NF9O&tp_b=3HL8HNGX46NK7PKE1T6WLAD7X8NF9O&c=365799&tp_c=365799"},{"rt":93646,"response":{"heads":"10","tails":"2"},"type":"response","condition":"nonSeqFull","trueTheta":0.8,"classrooms":["C","D"],"studentTrueClassroom":"C","exampleSet":"first","trial_type":"survey-html-form","trial_index":78,"time_elapsed":1456715,"internal_node_id":"0.0-65.0-0.0","params":{"nStudents":24,"maxFlips":30,"completionMinutes":45,"basePay":8,"maxBonus":9,"perTrialBonus":0.5,"perTrialBonusThreshold":0.05,"exampleCost":0.01},"classroomParams":{"A":{"a":1,"b":4},"B":{"a":4,"b":1},"C":{"a":2,"b":8},"D":{"a":8,"b":2}},"conditions":["nonSeqFull","nonSeqPartial","seqNoFeedback","seqFeedback"],"classroomPairings":[["A","B"],["C","D"]],"coinWeights":[0.2,0.5,0.8],"subjectId":"A3KACB3ERCT0DG","assignmentId":"3HL8HNGX46NK7PKE1T6WLAD7X8NF9O","hitId":"32TZXEA1OL6QYKM0MXQIQH2ABHN14I","url":"https://gershmanlab.com/experiments/alicia/teaching/experiment/?hitId=32TZXEA1OL6QYKM0MXQIQH2ABHN14I&workerId=A3KACB3ERCT0DG&assignmentId=3HL8HNGX46NK7PKE1T6WLAD7X8NF9O&a=XHLH9&tp_a=XHLH9&b=3HL8HNGX46NK7PKE1T6WLAD7X8NF9O&tp_b=3HL8HNGX46NK7PKE1T6WLAD7X8NF9O&c=365799&tp_c=365799","heads":10,"tails":2,"studentIndex":8,"studentTrueHypers":{"a":2,"b":8},"studentGuess":0.5454545454545454,"delta":0.25454545454545463,"totalExamples":12,"bonus":0,"bonusSoFar":1.19},{"rt":null,"stimulus":"Sending examples to student... ","response":null,"trial_type":"html-keyboard-response","trial_index":79,"time_elapsed":1458736,"internal_node_id":"0.0-66.0","params":{"nStudents":24,"maxFlips":30,"completionMinutes":45,"basePay":8,"maxBonus":9,"perTrialBonus":0.5,"perTrialBonusThreshold":0.05,"exampleCost":0.01},"classroomParams":{"A":{"a":1,"b":4},"B":{"a":4,"b":1},"C":{"a":2,"b":8},"D":{"a":8,"b":2}},"conditions":["nonSeqFull","nonSeqPartial","seqNoFeedback","seqFeedback"],"classroomPairings":[["A","B"],["C","D"]],"coinWeights":[0.2,0.5,0.8],"subjectId":"A3KACB3ERCT0DG","assignmentId":"3HL8HNGX46NK7PKE1T6WLAD7X8NF9O","hitId":"32TZXEA1OL6QYKM0MXQIQH2ABHN14I","url":"https://gershmanlab.com/experiments/alicia/teaching/experiment/?hitId=32TZXEA1OL6QYKM0MXQIQH2ABHN14I&workerId=A3KACB3ERCT0DG&assignmentId=3HL8HNGX46NK7PKE1T6WLAD7X8NF9O&a=XHLH9&tp_a=XHLH9&b=3HL8HNGX46NK7PKE1T6WLAD7X8NF9O&tp_b=3HL8HNGX46NK7PKE1T6WLAD7X8NF9O&c=365799&tp_c=365799"},{"rt":null,"stimulus":"Examples sent to student! Waiting for student...","response":null,"trial_type":"html-keyboard-response","trial_index":80,"time_elapsed":1463249,"internal_node_id":"0.0-67.0","params":{"nStudents":24,"maxFlips":30,"completionMinutes":45,"basePay":8,"maxBonus":9,"perTrialBonus":0.5,"perTrialBonusThreshold":0.05,"exampleCost":0.01},"classroomParams":{"A":{"a":1,"b":4},"B":{"a":4,"b":1},"C":{"a":2,"b":8},"D":{"a":8,"b":2}},"conditions":["nonSeqFull","nonSeqPartial","seqNoFeedback","seqFeedback"],"classroomPairings":[["A","B"],["C","D"]],"coinWeights":[0.2,0.5,0.8],"subjectId":"A3KACB3ERCT0DG","assignmentId":"3HL8HNGX46NK7PKE1T6WLAD7X8NF9O","hitId":"32TZXEA1OL6QYKM0MXQIQH2ABHN14I","url":"https://gershmanlab.com/experiments/alicia/teaching/experiment/?hitId=32TZXEA1OL6QYKM0MXQIQH2ABHN14I&workerId=A3KACB3ERCT0DG&assignmentId=3HL8HNGX46NK7PKE1T6WLAD7X8NF9O&a=XHLH9&tp_a=XHLH9&b=3HL8HNGX46NK7PKE1T6WLAD7X8NF9O&tp_b=3HL8HNGX46NK7PKE1T6WLAD7X8NF9O&c=365799&tp_c=365799"},{"rt":10570,"stimulus":"\n                <p>Student's guess for coin weight: <b style=\"color:Tomato;\">0.55</b></p>\n                <p>You received a bonus of <b>$0</b>. Total bonus so far: <b>$1.19</b></b></p>\n                <p></p>\n                <p>Press any key to continue.</p>\n                ","response":" ","trial_type":"html-keyboard-response","trial_index":81,"time_elapsed":1473823,"internal_node_id":"0.0-68.0","params":{"nStudents":24,"maxFlips":30,"completionMinutes":45,"basePay":8,"maxBonus":9,"perTrialBonus":0.5,"perTrialBonusThreshold":0.05,"exampleCost":0.01},"classroomParams":{"A":{"a":1,"b":4},"B":{"a":4,"b":1},"C":{"a":2,"b":8},"D":{"a":8,"b":2}},"conditions":["nonSeqFull","nonSeqPartial","seqNoFeedback","seqFeedback"],"classroomPairings":[["A","B"],["C","D"]],"coinWeights":[0.2,0.5,0.8],"subjectId":"A3KACB3ERCT0DG","assignmentId":"3HL8HNGX46NK7PKE1T6WLAD7X8NF9O","hitId":"32TZXEA1OL6QYKM0MXQIQH2ABHN14I","url":"https://gershmanlab.com/experiments/alicia/teaching/experiment/?hitId=32TZXEA1OL6QYKM0MXQIQH2ABHN14I&workerId=A3KACB3ERCT0DG&assignmentId=3HL8HNGX46NK7PKE1T6WLAD7X8NF9O&a=XHLH9&tp_a=XHLH9&b=3HL8HNGX46NK7PKE1T6WLAD7X8NF9O&tp_b=3HL8HNGX46NK7PKE1T6WLAD7X8NF9O&c=365799&tp_c=365799"},{"rt":null,"stimulus":"<div style=\"font-size:60px;\">Next student</div>","response":null,"trial_type":"html-keyboard-response","trial_index":82,"time_elapsed":1476342,"internal_node_id":"0.0-69.0-0.0","params":{"nStudents":24,"maxFlips":30,"completionMinutes":45,"basePay":8,"maxBonus":9,"perTrialBonus":0.5,"perTrialBonusThreshold":0.05,"exampleCost":0.01},"classroomParams":{"A":{"a":1,"b":4},"B":{"a":4,"b":1},"C":{"a":2,"b":8},"D":{"a":8,"b":2}},"conditions":["nonSeqFull","nonSeqPartial","seqNoFeedback","seqFeedback"],"classroomPairings":[["A","B"],["C","D"]],"coinWeights":[0.2,0.5,0.8],"subjectId":"A3KACB3ERCT0DG","assignmentId":"3HL8HNGX46NK7PKE1T6WLAD7X8NF9O","hitId":"32TZXEA1OL6QYKM0MXQIQH2ABHN14I","url":"https://gershmanlab.com/experiments/alicia/teaching/experiment/?hitId=32TZXEA1OL6QYKM0MXQIQH2ABHN14I&workerId=A3KACB3ERCT0DG&assignmentId=3HL8HNGX46NK7PKE1T6WLAD7X8NF9O&a=XHLH9&tp_a=XHLH9&b=3HL8HNGX46NK7PKE1T6WLAD7X8NF9O&tp_b=3HL8HNGX46NK7PKE1T6WLAD7X8NF9O&c=365799&tp_c=365799"},{"rt":8959,"stimulus":"\n            <h4 style=\"color:Orange;\">Student 10</h4>\n            <h2>The weight of your coin is <b style=\"color:Tomato;\">0.5</b>.</h2>\n            <p>In this block, you will be giving <b>one</b> set of examples to Student 10.</p>\n                <p>You will receive feedback at the end of the block.</p>\n            <p></p>","response":0,"trial_type":"html-button-response","trial_index":83,"time_elapsed":1485304,"internal_node_id":"0.0-70.0","params":{"nStudents":24,"maxFlips":30,"completionMinutes":45,"basePay":8,"maxBonus":9,"perTrialBonus":0.5,"perTrialBonusThreshold":0.05,"exampleCost":0.01},"classroomParams":{"A":{"a":1,"b":4},"B":{"a":4,"b":1},"C":{"a":2,"b":8},"D":{"a":8,"b":2}},"conditions":["nonSeqFull","nonSeqPartial","seqNoFeedback","seqFeedback"],"classroomPairings":[["A","B"],["C","D"]],"coinWeights":[0.2,0.5,0.8],"subjectId":"A3KACB3ERCT0DG","assignmentId":"3HL8HNGX46NK7PKE1T6WLAD7X8NF9O","hitId":"32TZXEA1OL6QYKM0MXQIQH2ABHN14I","url":"https://gershmanlab.com/experiments/alicia/teaching/experiment/?hitId=32TZXEA1OL6QYKM0MXQIQH2ABHN14I&workerId=A3KACB3ERCT0DG&assignmentId=3HL8HNGX46NK7PKE1T6WLAD7X8NF9O&a=XHLH9&tp_a=XHLH9&b=3HL8HNGX46NK7PKE1T6WLAD7X8NF9O&tp_b=3HL8HNGX46NK7PKE1T6WLAD7X8NF9O&c=365799&tp_c=365799"},{"rt":39388,"response":{"heads":"20","tails":"0"},"type":"response","condition":"nonSeqPartial","trueTheta":0.5,"classrooms":["C","D"],"studentTrueClassroom":"D","exampleSet":"first","trial_type":"survey-html-form","trial_index":84,"time_elapsed":1524697,"internal_node_id":"0.0-71.0-0.0",