[{"rt":2312,"stimulus":"Welcome to the experiment. Press any key to begin.","response":" ","trial_type":"html-keyboard-response","trial_index":0,"time_elapsed":2335,"internal_node_id":"0.0-0.0","params":{"nStudents":24,"maxFlips":30,"completionMinutes":45,"basePay":8,"maxBonus":9,"perTrialBonus":0.5,"perTrialBonusThreshold":0.05,"exampleCost":0.01},"classroomParams":{"A":{"a":1,"b":4},"B":{"a":4,"b":1},"C":{"a":2,"b":8},"D":{"a":8,"b":2}},"conditions":["nonSeqFull","nonSeqPartial","seqNoFeedback","seqFeedback"],"classroomPairings":[["A","B"],["C","D"]],"coinWeights":[0.2,0.5,0.8],"subjectId":"A3T3KEK5G6JYTZ","assignmentId":"3CPLWGV3MPLWVHXVZHP9TFMGZZA9NQ","hitId":"3SD15I2WD2G0NA4TSPXGB81L5S7630","url":"https://gershmanlab.com/experiments/alicia/teaching/experiment/?hitId=3SD15I2WD2G0NA4TSPXGB81L5S7630&workerId=A3T3KEK5G6JYTZ&assignmentId=3CPLWGV3MPLWVHXVZHP9TFMGZZA9NQ&a=3WPC9&tp_a=3WPC9&b=3CPLWGV3MPLWVHXVZHP9TFMGZZA9NQ&tp_b=3CPLWGV3MPLWVHXVZHP9TFMGZZA9NQ&c=365799&tp_c=365799"},{"rt":13236,"stimulus":"\n        <h3>Please read this consent agreement carefully before deciding whether to participate in this experiment.</h3>\n        <p><b>Purpose of the research:</b> To examine how people teach effectively.</p>\n        <p><b>What you will do in this research:</b> You will teach students the weights of different coins.</p>\n        <p><b>Time required:</b> This experiment will take 45 minutes to complete.</p>\n        <p><b>Risks:</b> There are no anticipated risks associated with participating in this study.             The effects of participating should be comparable to those you would experience from viewing a computer monitor             and using a mouse and keyboard for the duration of the experiment.</p>\n        <p><b>Benefits:</b> The study provides important information about the nature of teaching.</p>\n        <p><b>Compensation:</b> You will receive <b>$8</b> for completing the experiment and a performance bonus of up to <b>$9</b>.</p>\n        <p><b>Confidentiality:</b> Your participation in this study will remain confidential.             No personally identifiable information will be associated with your data.             Your de-identified data may be shared with other researchers and used in future projects.</p>\n        <p><b>Participation and withdrawal:</b> Your participation in this study is completely voluntary and             you may refuse to participate or you may choose to withdraw at any time without penalty or loss of\n            benefits to which you are otherwise entitled.</p>\n        <p><b>How to contact the researcher:</b> If you have questions or concerns about your participation            or payment, or want to request a summary of research findings, please contact\n            Alicia Chen, aliciachen@college.harvard.edu.</p>\n        <p><b>Whom to contact about your rights in this research:</b> For questions, concerns, suggestions,             or complaints that have not been or cannot be addressed by the researcher, or to report             research-related harm, please contact the Committee on the Use of Human Subjects in Research at Harvard University,             1414 Massachusetts Avenue, Second Floor, Cambridge, MA 02138. Phone: 617-496-2847. Email: cuhs@fas.harvard.edu.</p>\n        ","response":0,"trial_type":"html-button-response","trial_index":1,"time_elapsed":15575,"internal_node_id":"0.0-1.0","params":{"nStudents":24,"maxFlips":30,"completionMinutes":45,"basePay":8,"maxBonus":9,"perTrialBonus":0.5,"perTrialBonusThreshold":0.05,"exampleCost":0.01},"classroomParams":{"A":{"a":1,"b":4},"B":{"a":4,"b":1},"C":{"a":2,"b":8},"D":{"a":8,"b":2}},"conditions":["nonSeqFull","nonSeqPartial","seqNoFeedback","seqFeedback"],"classroomPairings":[["A","B"],["C","D"]],"coinWeights":[0.2,0.5,0.8],"subjectId":"A3T3KEK5G6JYTZ","assignmentId":"3CPLWGV3MPLWVHXVZHP9TFMGZZA9NQ","hitId":"3SD15I2WD2G0NA4TSPXGB81L5S7630","url":"https://gershmanlab.com/experiments/alicia/teaching/experiment/?hitId=3SD15I2WD2G0NA4TSPXGB81L5S7630&workerId=A3T3KEK5G6JYTZ&assignmentId=3CPLWGV3MPLWVHXVZHP9TFMGZZA9NQ&a=3WPC9&tp_a=3WPC9&b=3CPLWGV3MPLWVHXVZHP9TFMGZZA9NQ&tp_b=3CPLWGV3MPLWVHXVZHP9TFMGZZA9NQ&c=365799&tp_c=365799"},{"view_history":[{"page_index":0,"viewing_time":3171},{"page_index":1,"viewing_time":4520},{"page_index":2,"viewing_time":15026},{"page_index":3,"viewing_time":8474},{"page_index":4,"viewing_time":1502},{"page_index":3,"viewing_time":4584},{"page_index":4,"viewing_time":9047},{"page_index":5,"viewing_time":9687},{"page_index":6,"viewing_time":18380}],"rt":74391,"trial_type":"instructions","trial_index":2,"time_elapsed":89966,"internal_node_id":"0.0-2.0-0.0","params":{"nStudents":24,"maxFlips":30,"completionMinutes":45,"basePay":8,"maxBonus":9,"perTrialBonus":0.5,"perTrialBonusThreshold":0.05,"exampleCost":0.01},"classroomParams":{"A":{"a":1,"b":4},"B":{"a":4,"b":1},"C":{"a":2,"b":8},"D":{"a":8,"b":2}},"conditions":["nonSeqFull","nonSeqPartial","seqNoFeedback","seqFeedback"],"classroomPairings":[["A","B"],["C","D"]],"coinWeights":[0.2,0.5,0.8],"subjectId":"A3T3KEK5G6JYTZ","assignmentId":"3CPLWGV3MPLWVHXVZHP9TFMGZZA9NQ","hitId":"3SD15I2WD2G0NA4TSPXGB81L5S7630","url":"https://gershmanlab.com/experiments/alicia/teaching/experiment/?hitId=3SD15I2WD2G0NA4TSPXGB81L5S7630&workerId=A3T3KEK5G6JYTZ&assignmentId=3CPLWGV3MPLWVHXVZHP9TFMGZZA9NQ&a=3WPC9&tp_a=3WPC9&b=3CPLWGV3MPLWVHXVZHP9TFMGZZA9NQ&tp_b=3CPLWGV3MPLWVHXVZHP9TFMGZZA9NQ&c=365799&tp_c=365799"},{"rt":43512,"response":{"Q0":"Students in different classrooms will have seen a different number of heads and tails before seeing the examples you select for them.","Q1":"By <b>considering the student's classroom information</b> so that I can teach efficiently and accurately/helpfully at the same time (because each example I give to the student costs money!).","Q2":"The coin lands heads 90% of the time.","Q3":"Yes, I might encounter the same student twice.","Q4":"The students are also on the same alien planet as you, where coins can be unfair.","Q5":"Based on both guesses."},"question_order":[1,4,2,3,0,5],"trial_type":"survey-multi-choice","trial_index":3,"time_elapsed":133481,"internal_node_id":"0.0-2.0-1.0","params":{"nStudents":24,"maxFlips":30,"completionMinutes":45,"basePay":8,"maxBonus":9,"perTrialBonus":0.5,"perTrialBonusThreshold":0.05,"exampleCost":0.01},"classroomParams":{"A":{"a":1,"b":4},"B":{"a":4,"b":1},"C":{"a":2,"b":8},"D":{"a":8,"b":2}},"conditions":["nonSeqFull","nonSeqPartial","seqNoFeedback","seqFeedback"],"classroomPairings":[["A","B"],["C","D"]],"coinWeights":[0.2,0.5,0.8],"subjectId":"A3T3KEK5G6JYTZ","assignmentId":"3CPLWGV3MPLWVHXVZHP9TFMGZZA9NQ","hitId":"3SD15I2WD2G0NA4TSPXGB81L5S7630","url":"https://gershmanlab.com/experiments/alicia/teaching/experiment/?hitId=3SD15I2WD2G0NA4TSPXGB81L5S7630&workerId=A3T3KEK5G6JYTZ&assignmentId=3CPLWGV3MPLWVHXVZHP9TFMGZZA9NQ&a=3WPC9&tp_a=3WPC9&b=3CPLWGV3MPLWVHXVZHP9TFMGZZA9NQ&tp_b=3CPLWGV3MPLWVHXVZHP9TFMGZZA9NQ&c=365799&tp_c=365799","pass":false},{"rt":1644,"stimulus":"Oops, you have missed question(s) on the comprehension check! We'll show you the instructions again.","response":0,"trial_type":"html-button-response","trial_index":4,"time_elapsed":135137,"internal_node_id":"0.0-2.0-2.0-0.0","params":{"nStudents":24,"maxFlips":30,"completionMinutes":45,"basePay":8,"maxBonus":9,"perTrialBonus":0.5,"perTrialBonusThreshold":0.05,"exampleCost":0.01},"classroomParams":{"A":{"a":1,"b":4},"B":{"a":4,"b":1},"C":{"a":2,"b":8},"D":{"a":8,"b":2}},"conditions":["nonSeqFull","nonSeqPartial","seqNoFeedback","seqFeedback"],"classroomPairings":[["A","B"],["C","D"]],"coinWeights":[0.2,0.5,0.8],"subjectId":"A3T3KEK5G6JYTZ","assignmentId":"3CPLWGV3MPLWVHXVZHP9TFMGZZA9NQ","hitId":"3SD15I2WD2G0NA4TSPXGB81L5S7630","url":"https://gershmanlab.com/experiments/alicia/teaching/experiment/?hitId=3SD15I2WD2G0NA4TSPXGB81L5S7630&workerId=A3T3KEK5G6JYTZ&assignmentId=3CPLWGV3MPLWVHXVZHP9TFMGZZA9NQ&a=3WPC9&tp_a=3WPC9&b=3CPLWGV3MPLWVHXVZHP9TFMGZZA9NQ&tp_b=3CPLWGV3MPLWVHXVZHP9TFMGZZA9NQ&c=365799&tp_c=365799"},{"view_history":[{"page_index":0,"viewing_time":1665},{"page_index":1,"viewing_time":887},{"page_index":2,"viewing_time":9950},{"page_index":3,"viewing_time":6737},{"page_index":4,"viewing_time":11760},{"page_index":5,"viewing_time":8385},{"page_index":6,"viewing_time":10575}],"rt":49959,"trial_type":"instructions","trial_index":5,"time_elapsed":185097,"internal_node_id":"0.0-2.1-0.1","params":{"nStudents":24,"maxFlips":30,"completionMinutes":45,"basePay":8,"maxBonus":9,"perTrialBonus":0.5,"perTrialBonusThreshold":0.05,"exampleCost":0.01},"classroomParams":{"A":{"a":1,"b":4},"B":{"a":4,"b":1},"C":{"a":2,"b":8},"D":{"a":8,"b":2}},"conditions":["nonSeqFull","nonSeqPartial","seqNoFeedback","seqFeedback"],"classroomPairings":[["A","B"],["C","D"]],"coinWeights":[0.2,0.5,0.8],"subjectId":"A3T3KEK5G6JYTZ","assignmentId":"3CPLWGV3MPLWVHXVZHP9TFMGZZA9NQ","hitId":"3SD15I2WD2G0NA4TSPXGB81L5S7630","url":"https://gershmanlab.com/experiments/alicia/teaching/experiment/?hitId=3SD15I2WD2G0NA4TSPXGB81L5S7630&workerId=A3T3KEK5G6JYTZ&assignmentId=3CPLWGV3MPLWVHXVZHP9TFMGZZA9NQ&a=3WPC9&tp_a=3WPC9&b=3CPLWGV3MPLWVHXVZHP9TFMGZZA9NQ&tp_b=3CPLWGV3MPLWVHXVZHP9TFMGZZA9NQ&c=365799&tp_c=365799"},{"rt":29960,"response":{"Q0":"Students in different classrooms will have seen a different number of heads and tails before seeing the examples you select for them.","Q1":"By <b>considering the student's classroom information</b> so that I can teach efficiently and accurately/helpfully at the same time (because each example I give to the student costs money!).","Q2":"The coin lands heads 90% of the time.","Q3":"Yes, I might encounter the same student twice.","Q4":"The students are also on the same alien planet as you, where coins can be unfair.","Q5":"Based on the student's second (and final) guess."},"question_order":[0,4,5,2,3,1],"trial_type":"survey-multi-choice","trial_index":6,"time_elapsed":215059,"internal_node_id":"0.0-2.1-1.1","params":{"nStudents":24,"maxFlips":30,"completionMinutes":45,"basePay":8,"maxBonus":9,"perTrialBonus":0.5,"perTrialBonusThreshold":0.05,"exampleCost":0.01},"classroomParams":{"A":{"a":1,"b":4},"B":{"a":4,"b":1},"C":{"a":2,"b":8},"D":{"a":8,"b":2}},"conditions":["nonSeqFull","nonSeqPartial","seqNoFeedback","seqFeedback"],"classroomPairings":[["A","B"],["C","D"]],"coinWeights":[0.2,0.5,0.8],"subjectId":"A3T3KEK5G6JYTZ","assignmentId":"3CPLWGV3MPLWVHXVZHP9TFMGZZA9NQ","hitId":"3SD15I2WD2G0NA4TSPXGB81L5S7630","url":"https://gershmanlab.com/experiments/alicia/teaching/experiment/?hitId=3SD15I2WD2G0NA4TSPXGB81L5S7630&workerId=A3T3KEK5G6JYTZ&assignmentId=3CPLWGV3MPLWVHXVZHP9TFMGZZA9NQ&a=3WPC9&tp_a=3WPC9&b=3CPLWGV3MPLWVHXVZHP9TFMGZZA9NQ&tp_b=3CPLWGV3MPLWVHXVZHP9TFMGZZA9NQ&c=365799&tp_c=365799","pass":false},{"rt":1442,"stimulus":"Oops, you have missed question(s) on the comprehension check! We'll show you the instructions again.","response":0,"trial_type":"html-button-response","trial_index":7,"time_elapsed":216505,"internal_node_id":"0.0-2.1-2.1-0.1","params":{"nStudents":24,"maxFlips":30,"completionMinutes":45,"basePay":8,"maxBonus":9,"perTrialBonus":0.5,"perTrialBonusThreshold":0.05,"exampleCost":0.01},"classroomParams":{"A":{"a":1,"b":4},"B":{"a":4,"b":1},"C":{"a":2,"b":8},"D":{"a":8,"b":2}},"conditions":["nonSeqFull","nonSeqPartial","seqNoFeedback","seqFeedback"],"classroomPairings":[["A","B"],["C","D"]],"coinWeights":[0.2,0.5,0.8],"subjectId":"A3T3KEK5G6JYTZ","assignmentId":"3CPLWGV3MPLWVHXVZHP9TFMGZZA9NQ","hitId":"3SD15I2WD2G0NA4TSPXGB81L5S7630","url":"https://gershmanlab.com/experiments/alicia/teaching/experiment/?hitId=3SD15I2WD2G0NA4TSPXGB81L5S7630&workerId=A3T3KEK5G6JYTZ&assignmentId=3CPLWGV3MPLWVHXVZHP9TFMGZZA9NQ&a=3WPC9&tp_a=3WPC9&b=3CPLWGV3MPLWVHXVZHP9TFMGZZA9NQ&tp_b=3CPLWGV3MPLWVHXVZHP9TFMGZZA9NQ&c=365799&tp_c=365799"},{"view_history":[{"page_index":0,"viewing_time":1522},{"page_index":1,"viewing_time":1518},{"page_index":2,"viewing_time":14804},{"page_index":1,"viewing_time":1650},{"page_index":0,"viewing_time":1572},{"page_index":1,"viewing_time":1604},{"page_index":2,"viewing_time":27282},{"page_index":3,"viewing_time":13880},{"page_index":4,"viewing_time":25256},{"page_index":5,"viewing_time":30258},{"page_index":6,"viewing_time":8008}],"rt":127355,"trial_type":"instructions","trial_index":8,"time_elapsed":343859,"internal_node_id":"0.0-2.2-0.2","params":{"nStudents":24,"maxFlips":30,"completionMinutes":45,"basePay":8,"maxBonus":9,"perTrialBonus":0.5,"perTrialBonusThreshold":0.05,"exampleCost":0.01},"classroomParams":{"A":{"a":1,"b":4},"B":{"a":4,"b":1},"C":{"a":2,"b":8},"D":{"a":8,"b":2}},"conditions":["nonSeqFull","nonSeqPartial","seqNoFeedback","seqFeedback"],"classroomPairings":[["A","B"],["C","D"]],"coinWeights":[0.2,0.5,0.8],"subjectId":"A3T3KEK5G6JYTZ","assignmentId":"3CPLWGV3MPLWVHXVZHP9TFMGZZA9NQ","hitId":"3SD15I2WD2G0NA4TSPXGB81L5S7630","url":"https://gershmanlab.com/experiments/alicia/teaching/experiment/?hitId=3SD15I2WD2G0NA4TSPXGB81L5S7630&workerId=A3T3KEK5G6JYTZ&assignmentId=3CPLWGV3MPLWVHXVZHP9TFMGZZA9NQ&a=3WPC9&tp_a=3WPC9&b=3CPLWGV3MPLWVHXVZHP9TFMGZZA9NQ&tp_b=3CPLWGV3MPLWVHXVZHP9TFMGZZA9NQ&c=365799&tp_c=365799"},{"rt":54380,"response":{"Q0":"Students in different classrooms will have seen a different number of heads and tails before seeing the examples you select for them.","Q1":"By <b>considering the student's classroom information</b> so that I can teach efficiently and accurately/helpfully at the same time (because each example I give to the student costs money!).","Q2":"The coin lands heads 90% of the time.","Q3":"Yes, I might encounter the same student twice.","Q4":"The students are also on the same alien planet as you, where coins can be unfair.","Q5":"Based on the student's second (and final) guess."},"question_order":[1,5,2,0,4,3],"trial_type":"survey-multi-choice","trial_index":9,"time_elapsed":398240,"internal_node_id":"0.0-2.2-1.2","params":{"nStudents":24,"maxFlips":30,"completionMinutes":45,"basePay":8,"maxBonus":9,"perTrialBonus":0.5,"perTrialBonusThreshold":0.05,"exampleCost":0.01},"classroomParams":{"A":{"a":1,"b":4},"B":{"a":4,"b":1},"C":{"a":2,"b":8},"D":{"a":8,"b":2}},"conditions":["nonSeqFull","nonSeqPartial","seqNoFeedback","seqFeedback"],"classroomPairings":[["A","B"],["C","D"]],"coinWeights":[0.2,0.5,0.8],"subjectId":"A3T3KEK5G6JYTZ","assignmentId":"3CPLWGV3MPLWVHXVZHP9TFMGZZA9NQ","hitId":"3SD15I2WD2G0NA4TSPXGB81L5S7630","url":"https://gershmanlab.com/experiments/alicia/teaching/experiment/?hitId=3SD15I2WD2G0NA4TSPXGB81L5S7630&workerId=A3T3KEK5G6JYTZ&assignmentId=3CPLWGV3MPLWVHXVZHP9TFMGZZA9NQ&a=3WPC9&tp_a=3WPC9&b=3CPLWGV3MPLWVHXVZHP9TFMGZZA9NQ&tp_b=3CPLWGV3MPLWVHXVZHP9TFMGZZA9NQ&c=365799&tp_c=365799","pass":false},{"rt":1544,"stimulus":"Oops, you have missed question(s) on the comprehension check! We'll show you the instructions again.","response":0,"trial_type":"html-button-response","trial_index":10,"time_elapsed":399788,"internal_node_id":"0.0-2.2-2.2-0.2","params":{"nStudents":24,"maxFlips":30,"completionMinutes":45,"basePay":8,"maxBonus":9,"perTrialBonus":0.5,"perTrialBonusThreshold":0.05,"exampleCost":0.01},"classroomParams":{"A":{"a":1,"b":4},"B":{"a":4,"b":1},"C":{"a":2,"b":8},"D":{"a":8,"b":2}},"conditions":["nonSeqFull","nonSeqPartial","seqNoFeedback","seqFeedback"],"classroomPairings":[["A","B"],["C","D"]],"coinWeights":[0.2,0.5,0.8],"subjectId":"A3T3KEK5G6JYTZ","assignmentId":"3CPLWGV3MPLWVHXVZHP9TFMGZZA9NQ","hitId":"3SD15I2WD2G0NA4TSPXGB81L5S7630","url":"https://gershmanlab.com/experiments/alicia/teaching/experiment/?hitId=3SD15I2WD2G0NA4TSPXGB81L5S7630&workerId=A3T3KEK5G6JYTZ&assignmentId=3CPLWGV3MPLWVHXVZHP9TFMGZZA9NQ&a=3WPC9&tp_a=3WPC9&b=3CPLWGV3MPLWVHXVZHP9TFMGZZA9NQ&tp_b=3CPLWGV3MPLWVHXVZHP9TFMGZZA9NQ&c=365799&tp_c=365799"},{"view_history":[{"page_index":0,"viewing_time":949},{"page_index":1,"viewing_time":244},{"page_index":2,"viewing_time":1046},{"page_index":3,"viewing_time":588},{"page_index":4,"viewing_time":835},{"page_index":5,"viewing_time":950},{"page_index":6,"viewing_time":1054}],"rt":5665,"trial_type":"instructions","trial_index":11,"time_elapsed":405454,"internal_node_id":"0.0-2.3-0.3","params":{"nStudents":24,"maxFlips":30,"completionMinutes":45,"basePay":8,"maxBonus":9,"perTrialBonus":0.5,"perTrialBonusThreshold":0.05,"exampleCost":0.01},"classroomParams":{"A":{"a":1,"b":4},"B":{"a":4,"b":1},"C":{"a":2,"b":8},"D":{"a":8,"b":2}},"conditions":["nonSeqFull","nonSeqPartial","seqNoFeedback","seqFeedback"],"classroomPairings":[["A","B"],["C","D"]],"coinWeights":[0.2,0.5,0.8],"subjectId":"A3T3KEK5G6JYTZ","assignmentId":"3CPLWGV3MPLWVHXVZHP9TFMGZZA9NQ","hitId":"3SD15I2WD2G0NA4TSPXGB81L5S7630","url":"https://gershmanlab.com/experiments/alicia/teaching/experiment/?hitId=3SD15I2WD2G0NA4TSPXGB81L5S7630&workerId=A3T3KEK5G6JYTZ&assignmentId=3CPLWGV3MPLWVHXVZHP9TFMGZZA9NQ&a=3WPC9&tp_a=3WPC9&b=3CPLWGV3MPLWVHXVZHP9TFMGZZA9NQ&tp_b=3CPLWGV3MPLWVHXVZHP9TFMGZZA9NQ&c=365799&tp_c=365799"},{"rt":21452,"response":{"Q0":"Students in different classrooms will have seen a different number of heads and tails before seeing the examples you select for them.","Q1":"By <b>considering the student's classroom information</b> so that I can teach efficiently and accurately/helpfully at the same time (because each example I give to the student costs money!).","Q2":"The coin lands heads 90% of the time.","Q3":"Yes, I might encounter the same student twice.","Q4":"The students are also on the same alien planet as you, where coins can be unfair.","Q5":"Based on the student's second (and final) guess."},"question_order":[4,1,0,5,2,3],"trial_type":"survey-multi-choice","trial_index":12,"time_elapsed":426907,"internal_node_id":"0.0-2.3-1.3","params":{"nStudents":24,"maxFlips":30,"completionMinutes":45,"basePay":8,"maxBonus":9,"perTrialBonus":0.5,"perTrialBonusThreshold":0.05,"exampleCost":0.01},"classroomParams":{"A":{"a":1,"b":4},"B":{"a":4,"b":1},"C":{"a":2,"b":8},"D":{"a":8,"b":2}},"conditions":["nonSeqFull","nonSeqPartial","seqNoFeedback","seqFeedback"],"classroomPairings":[["A","B"],["C","D"]],"coinWeights":[0.2,0.5,0.8],"subjectId":"A3T3KEK5G6JYTZ","assignmentId":"3CPLWGV3MPLWVHXVZHP9TFMGZZA9NQ","hitId":"3SD15I2WD2G0NA4TSPXGB81L5S7630","url":"https://gershmanlab.com/experiments/alicia/teaching/experiment/?hitId=3SD15I2WD2G0NA4TSPXGB81L5S7630&workerId=A3T3KEK5G6JYTZ&assignmentId=3CPLWGV3MPLWVHXVZHP9TFMGZZA9NQ&a=3WPC9&tp_a=3WPC9&b=3CPLWGV3MPLWVHXVZHP9TFMGZZA9NQ&tp_b=3CPLWGV3MPLWVHXVZHP9TFMGZZA9NQ&c=365799&tp_c=365799","pass":false},{"rt":892,"stimulus":"Oops, you have missed question(s) on the comprehension check! We'll show you the instructions again.","response":0,"trial_type":"html-button-response","trial_index":13,"time_elapsed":427803,"internal_node_id":"0.0-2.3-2.3-0.3","params":{"nStudents":24,"maxFlips":30,"completionMinutes":45,"basePay":8,"maxBonus":9,"perTrialBonus":0.5,"perTrialBonusThreshold":0.05,"exampleCost":0.01},"classroomParams":{"A":{"a":1,"b":4},"B":{"a":4,"b":1},"C":{"a":2,"b":8},"D":{"a":8,"b":2}},"conditions":["nonSeqFull","nonSeqPartial","seqNoFeedback","seqFeedback"],"classroomPairings":[["A","B"],["C","D"]],"coinWeights":[0.2,0.5,0.8],"subjectId":"A3T3KEK5G6JYTZ","assignmentId":"3CPLWGV3MPLWVHXVZHP9TFMGZZA9NQ","hitId":"3SD15I2WD2G0NA4TSPXGB81L5S7630","url":"https://gershmanlab.com/experiments/alicia/teaching/experiment/?hitId=3SD15I2WD2G0NA4TSPXGB81L5S7630&workerId=A3T3KEK5G6JYTZ&assignmentId=3CPLWGV3MPLWVHXVZHP9TFMGZZA9NQ&a=3WPC9&tp_a=3WPC9&b=3CPLWGV3MPLWVHXVZHP9TFMGZZA9NQ&tp_b=3CPLWGV3MPLWVHXVZHP9TFMGZZA9NQ&c=365799&tp_c=365799"},{"view_history":[{"page_index":0,"viewing_time":855},{"page_index":1,"viewing_time":411},{"page_index":2,"viewing_time":1186},{"page_index":3,"viewing_time":378},{"page_index":4,"viewing_time":872},{"page_index":5,"viewing_time":1108},{"page_index":6,"viewing_time":1382}],"rt":6192,"trial_type":"instructions","trial_index":14,"time_elapsed":433995,"internal_node_id":"0.0-2.4-0.4","params":{"nStudents":24,"maxFlips":30,"completionMinutes":45,"basePay":8,"maxBonus":9,"perTrialBonus":0.5,"perTrialBonusThreshold":0.05,"exampleCost":0.01},"classroomParams":{"A":{"a":1,"b":4},"B":{"a":4,"b":1},"C":{"a":2,"b":8},"D":{"a":8,"b":2}},"conditions":["nonSeqFull","nonSeqPartial","seqNoFeedback","seqFeedback"],"classroomPairings":[["A","B"],["C","D"]],"coinWeights":[0.2,0.5,0.8],"subjectId":"A3T3KEK5G6JYTZ","assignmentId":"3CPLWGV3MPLWVHXVZHP9TFMGZZA9NQ","hitId":"3SD15I2WD2G0NA4TSPXGB81L5S7630","url":"https://gershmanlab.com/experiments/alicia/teaching/experiment/?hitId=3SD15I2WD2G0NA4TSPXGB81L5S7630&workerId=A3T3KEK5G6JYTZ&assignmentId=3CPLWGV3MPLWVHXVZHP9TFMGZZA9NQ&a=3WPC9&tp_a=3WPC9&b=3CPLWGV3MPLWVHXVZHP9TFMGZZA9NQ&tp_b=3CPLWGV3MPLWVHXVZHP9TFMGZZA9NQ&c=365799&tp_c=365799"},{"rt":39022,"response":{"Q0":"Students in different classrooms will have seen a different number of heads and tails before seeing the examples you select for them.","Q1":"By giving as few examples as possible.","Q2":"The coin lands heads 90% of the time.","Q3":"No, I will teach a <b>new</b> student each time.","Q4":"The students are also on the same alien planet as you, where coins can be unfair.","Q5":"Based on the student's second (and final) guess."},"question_order":[3,2,5,0,4,1],"trial_type":"survey-multi-choice","trial_index":15,"time_elapsed":473018,"internal_node_id":"0.0-2.4-1.4","params":{"nStudents":24,"maxFlips":30,"completionMinutes":45,"basePay":8,"maxBonus":9,"perTrialBonus":0.5,"perTrialBonusThreshold":0.05,"exampleCost":0.01},"classroomParams":{"A":{"a":1,"b":4},"B":{"a":4,"b":1},"C":{"a":2,"b":8},"D":{"a":8,"b":2}},"conditions":["nonSeqFull","nonSeqPartial","seqNoFeedback","seqFeedback"],"classroomPairings":[["A","B"],["C","D"]],"coinWeights":[0.2,0.5,0.8],"subjectId":"A3T3KEK5G6JYTZ","assignmentId":"3CPLWGV3MPLWVHXVZHP9TFMGZZA9NQ","hitId":"3SD15I2WD2G0NA4TSPXGB81L5S7630","url":"https://gershmanlab.com/experiments/alicia/teaching/experiment/?hitId=3SD15I2WD2G0NA4TSPXGB81L5S7630&workerId=A3T3KEK5G6JYTZ&assignmentId=3CPLWGV3MPLWVHXVZHP9TFMGZZA9NQ&a=3WPC9&tp_a=3WPC9&b=3CPLWGV3MPLWVHXVZHP9TFMGZZA9NQ&tp_b=3CPLWGV3MPLWVHXVZHP9TFMGZZA9NQ&c=365799&tp_c=365799","pass":false},{"rt":1253,"stimulus":"Oops, you have missed question(s) on the comprehension check! We'll show you the instructions again.","response":0,"trial_type":"html-button-response","trial_index":16,"time_elapsed":474275,"internal_node_id":"0.0-2.4-2.4-0.4","params":{"nStudents":24,"maxFlips":30,"completionMinutes":45,"basePay":8,"maxBonus":9,"perTrialBonus":0.5,"perTrialBonusThreshold":0.05,"exampleCost":0.01},"classroomParams":{"A":{"a":1,"b":4},"B":{"a":4,"b":1},"C":{"a":2,"b":8},"D":{"a":8,"b":2}},"conditions":["nonSeqFull","nonSeqPartial","seqNoFeedback","seqFeedback"],"classroomPairings":[["A","B"],["C","D"]],"coinWeights":[0.2,0.5,0.8],"subjectId":"A3T3KEK5G6JYTZ","assignmentId":"3CPLWGV3MPLWVHXVZHP9TFMGZZA9NQ","hitId":"3SD15I2WD2G0NA4TSPXGB81L5S7630","url":"https://gershmanlab.com/experiments/alicia/teaching/experiment/?hitId=3SD15I2WD2G0NA4TSPXGB81L5S7630&workerId=A3T3KEK5G6JYTZ&assignmentId=3CPLWGV3MPLWVHXVZHP9TFMGZZA9NQ&a=3WPC9&tp_a=3WPC9&b=3CPLWGV3MPLWVHXVZHP9TFMGZZA9NQ&tp_b=3CPLWGV3MPLWVHXVZHP9TFMGZZA9NQ&c=365799&tp_c=365799"},{"view_history":[{"page_index":0,"viewing_time":833},{"page_index":1,"viewing_time":220},{"page_index":2,"viewing_time":974},{"page_index":3,"viewing_time":636},{"page_index":4,"viewing_time":1148},{"page_index":5,"viewing_time":942},{"page_index":6,"viewing_time":1392}],"rt":6145,"trial_type":"instructions","trial_index":17,"time_elapsed":480421,"internal_node_id":"0.0-2.5-0.5","params":{"nStudents":24,"maxFlips":30,"completionMinutes":45,"basePay":8,"maxBonus":9,"perTrialBonus":0.5,"perTrialBonusThreshold":0.05,"exampleCost":0.01},"classroomParams":{"A":{"a":1,"b":4},"B":{"a":4,"b":1},"C":{"a":2,"b":8},"D":{"a":8,"b":2}},"conditions":["nonSeqFull","nonSeqPartial","seqNoFeedback","seqFeedback"],"classroomPairings":[["A","B"],["C","D"]],"coinWeights":[0.2,0.5,0.8],"subjectId":"A3T3KEK5G6JYTZ","assignmentId":"3CPLWGV3MPLWVHXVZHP9TFMGZZA9NQ","hitId":"3SD15I2WD2G0NA4TSPXGB81L5S7630","url":"https://gershmanlab.com/experiments/alicia/teaching/experiment/?hitId=3SD15I2WD2G0NA4TSPXGB81L5S7630&workerId=A3T3KEK5G6JYTZ&assignmentId=3CPLWGV3MPLWVHXVZHP9TFMGZZA9NQ&a=3WPC9&tp_a=3WPC9&b=3CPLWGV3MPLWVHXVZHP9TFMGZZA9NQ&tp_b=3CPLWGV3MPLWVHXVZHP9TFMGZZA9NQ&c=365799&tp_c=365799"},{"rt":19941,"response":{"Q0":"Students in different classrooms will have seen a different number of heads and tails before seeing the examples you select for them.","Q1":"By giving as few examples as possible.","Q2":"The coin lands heads 90% of the time.","Q3":"Yes, I might encounter the same student twice.","Q4":"The students are also on the same alien planet as you, where coins can be unfair.","Q5":"Based on the student's second (and final) guess."},"question_order":[4,3,5,2,1,0],"trial_type":"survey-multi-choice","trial_index":18,"time_elapsed":500363,"internal_node_id":"0.0-2.5-1.5","params":{"nStudents":24,"maxFlips":30,"completionMinutes":45,"basePay":8,"maxBonus":9,"perTrialBonus":0.5,"perTrialBonusThreshold":0.05,"exampleCost":0.01},"classroomParams":{"A":{"a":1,"b":4},"B":{"a":4,"b":1},"C":{"a":2,"b":8},"D":{"a":8,"b":2}},"conditions":["nonSeqFull","nonSeqPartial","seqNoFeedback","seqFeedback"],"classroomPairings":[["A","B"],["C","D"]],"coinWeights":[0.2,0.5,0.8],"subjectId":"A3T3KEK5G6JYTZ","assignmentId":"3CPLWGV3MPLWVHXVZHP9TFMGZZA9NQ","hitId":"3SD15I2WD2G0NA4TSPXGB81L5S7630","url":"https://gershmanlab.com/experiments/alicia/teaching/experiment/?hitId=3SD15I2WD2G0NA4TSPXGB81L5S7630&workerId=A3T3KEK5G6JYTZ&assignmentId=3CPLWGV3MPLWVHXVZHP9TFMGZZA9NQ&a=3WPC9&tp_a=3WPC9&b=3CPLWGV3MPLWVHXVZHP9TFMGZZA9NQ&tp_b=3CPLWGV3MPLWVHXVZHP9TFMGZZA9NQ&c=365799&tp_c=365799","pass":false},{"rt":1119,"stimulus":"Oops, you have missed question(s) on the comprehension check! We'll show you the instructions again.","response":0,"trial_type":"html-button-response","trial_index":19,"time_elapsed":501486,"internal_node_id":"0.0-2.5-2.5-0.5","params":{"nStudents":24,"maxFlips":30,"completionMinutes":45,"basePay":8,"maxBonus":9,"perTrialBonus":0.5,"perTrialBonusThreshold":0.05,"exampleCost":0.01},"classroomParams":{"A":{"a":1,"b":4},"B":{"a":4,"b":1},"C":{"a":2,"b":8},"D":{"a":8,"b":2}},"conditions":["nonSeqFull","nonSeqPartial","seqNoFeedback","seqFeedback"],"classroomPairings":[["A","B"],["C","D"]],"coinWeights":[0.2,0.5,0.8],"subjectId":"A3T3KEK5G6JYTZ","assignmentId":"3CPLWGV3MPLWVHXVZHP9TFMGZZA9NQ","hitId":"3SD15I2WD2G0NA4TSPXGB81L5S7630","url":"https://gershmanlab.com/experiments/alicia/teaching/experiment/?hitId=3SD15I2WD2G0NA4TSPXGB81L5S7630&workerId=A3T3KEK5G6JYTZ&assignmentId=3CPLWGV3MPLWVHXVZHP9TFMGZZA9NQ&a=3WPC9&tp_a=3WPC9&b=3CPLWGV3MPLWVHXVZHP9TFMGZZA9NQ&tp_b=3CPLWGV3MPLWVHXVZHP9TFMGZZA9NQ&c=365799&tp_c=365799"},{"view_history":[{"page_index":0,"viewing_time":973},{"page_index":1,"viewing_time":213},{"page_index":2,"viewing_time":896},{"page_index":3,"viewing_time":440},{"page_index":4,"viewing_time":778},{"page_index":5,"viewing_time":864},{"page_index":6,"viewing_time":1392}],"rt":5556,"trial_type":"instructions","trial_index":20,"time_elapsed":507042,"internal_node_id":"0.0-2.6-0.6","params":{"nStudents":24,"maxFlips":30,"completionMinutes":45,"basePay":8,"maxBonus":9,"perTrialBonus":0.5,"perTrialBonusThreshold":0.05,"exampleCost":0.01},"classroomParams":{"A":{"a":1,"b":4},"B":{"a":4,"b":1},"C":{"a":2,"b":8},"D":{"a":8,"b":2}},"conditions":["nonSeqFull","nonSeqPartial","seqNoFeedback","seqFeedback"],"classroomPairings":[["A","B"],["C","D"]],"coinWeights":[0.2,0.5,0.8],"subjectId":"A3T3KEK5G6JYTZ","assignmentId":"3CPLWGV3MPLWVHXVZHP9TFMGZZA9NQ","hitId":"3SD15I2WD2G0NA4TSPXGB81L5S7630","url":"https://gershmanlab.com/experiments/alicia/teaching/experiment/?hitId=3SD15I2WD2G0NA4TSPXGB81L5S7630&workerId=A3T3KEK5G6JYTZ&assignmentId=3CPLWGV3MPLWVHXVZHP9TFMGZZA9NQ&a=3WPC9&tp_a=3WPC9&b=3CPLWGV3MPLWVHXVZHP9TFMGZZA9NQ&tp_b=3CPLWGV3MPLWVHXVZHP9TFMGZZA9NQ&c=365799&tp_c=365799"},{"rt":40926,"response":{"Q0":"Students in different classrooms will have seen a different number of heads and tails before seeing the examples you select for them.","Q1":"By giving as few examples as possible.","Q2":"The coin lands heads 90% of the time.","Q3":"Yes, I might encounter the same student twice.","Q4":"The students are also on the same alien planet as you, where coins can be unfair.","Q5":"Based on the student's second (and final) guess."},"question_order":[2,4,5,3,1,0],"trial_type":"survey-multi-choice","trial_index":21,"time_elapsed":547970,"internal_node_id":"0.0-2.6-1.6","params":{"nStudents":24,"maxFlips":30,"completionMinutes":45,"basePay":8,"maxBonus":9,"perTrialBonus":0.5,"perTrialBonusThreshold":0.05,"exampleCost":0.01},"classroomParams":{"A":{"a":1,"b":4},"B":{"a":4,"b":1},"C":{"a":2,"b":8},"D":{"a":8,"b":2}},"conditions":["nonSeqFull","nonSeqPartial","seqNoFeedback","seqFeedback"],"classroomPairings":[["A","B"],["C","D"]],"coinWeights":[0.2,0.5,0.8],"subjectId":"A3T3KEK5G6JYTZ","assignmentId":"3CPLWGV3MPLWVHXVZHP9TFMGZZA9NQ","hitId":"3SD15I2WD2G0NA4TSPXGB81L5S7630","url":"https://gershmanlab.com/experiments/alicia/teaching/experiment/?hitId=3SD15I2WD2G0NA4TSPXGB81L5S7630&workerId=A3T3KEK5G6JYTZ&assignmentId=3CPLWGV3MPLWVHXVZHP9TFMGZZA9NQ&a=3WPC9&tp_a=3WPC9&b=3CPLWGV3MPLWVHXVZHP9TFMGZZA9NQ&tp_b=3CPLWGV3MPLWVHXVZHP9TFMGZZA9NQ&c=365799&tp_c=365799","pass":false},{"rt":1087,"stimulus":"Oops, you have missed question(s) on the comprehension check! We'll show you the instructions again.","response":0,"trial_type":"html-button-response","trial_index":22,"time_elapsed":549061,"internal_node_id":"0.0-2.6-2.6-0.6","params":{"nStudents":24,"maxFlips":30,"completionMinutes":45,"basePay":8,"maxBonus":9,"perTrialBonus":0.5,"perTrialBonusThreshold":0.05,"exampleCost":0.01},"classroomParams":{"A":{"a":1,"b":4},"B":{"a":4,"b":1},"C":{"a":2,"b":8},"D":{"a":8,"b":2}},"conditions":["nonSeqFull","nonSeqPartial","seqNoFeedback","seqFeedback"],"classroomPairings":[["A","B"],["C","D"]],"coinWeights":[0.2,0.5,0.8],"subjectId":"A3T3KEK5G6JYTZ","assignmentId":"3CPLWGV3MPLWVHXVZHP9TFMGZZA9NQ","hitId":"3SD15I2WD2G0NA4TSPXGB81L5S7630","url":"https://gershmanlab.com/experiments/alicia/teaching/experiment/?hitId=3SD15I2WD2G0NA4TSPXGB81L5S7630&workerId=A3T3KEK5G6JYTZ&assignmentId=3CPLWGV3MPLWVHXVZHP9TFMGZZA9NQ&a=3WPC9&tp_a=3WPC9&b=3CPLWGV3MPLWVHXVZHP9TFMGZZA9NQ&tp_b=3CPLWGV3MPLWVHXVZHP9TFMGZZA9NQ&c=365799&tp_c=365799"},{"view_history":[{"page_index":0,"viewing_time":888},{"page_index":1,"viewing_time":722},{"page_index":2,"viewing_time":936},{"page_index":3,"viewing_time":518},{"page_index":4,"viewing_time":872},{"page_index":5,"viewing_time":755},{"page_index":6,"viewing_time":1092}],"rt":5783,"trial_type":"instructions","trial_index":23,"time_elapsed":554844,"internal_node_id":"0.0-2.7-0.7","params":{"nStudents":24,"maxFlips":30,"completionMinutes":45,"basePay":8,"maxBonus":9,"perTrialBonus":0.5,"perTrialBonusThreshold":0.05,"exampleCost":0.01},"classroomParams":{"A":{"a":1,"b":4},"B":{"a":4,"b":1},"C":{"a":2,"b":8},"D":{"a":8,"b":2}},"conditions":["nonSeqFull","nonSeqPartial","seqNoFeedback","seqFeedback"],"classroomPairings":[["A","B"],["C","D"]],"coinWeights":[0.2,0.5,0.8],"subjectId":"A3T3KEK5G6JYTZ","assignmentId":"3CPLWGV3MPLWVHXVZHP9TFMGZZA9NQ","hitId":"3SD15I2WD2G0NA4TSPXGB81L5S7630","url":"https://gershmanlab.com/experiments/alicia/teaching/experiment/?hitId=3SD15I2WD2G0NA4TSPXGB81L5S7630&workerId=A3T3KEK5G6JYTZ&assignmentId=3CPLWGV3MPLWVHXVZHP9TFMGZZA9NQ&a=3WPC9&tp_a=3WPC9&b=3CPLWGV3MPLWVHXVZHP9TFMGZZA9NQ&tp_b=3CPLWGV3MPLWVHXVZHP9TFMGZZA9NQ&c=365799&tp_c=365799"},{"rt":49585,"response":{"Q0":"Students in different classrooms will have seen a different number of heads and tails before seeing the examples you select for them.","Q1":"By <b>considering the student's classroom information</b> so that I can teach efficiently and accurately/helpfully at the same time (because each example I give to the student costs money!).","Q2":"The coin lands heads 90% of the time.","Q3":"No, I will teach a <b>new</b> student each time.","Q4":"The students are also on the same alien planet as you, where coins can be unfair.","Q5":"Based on the student's second (and final) guess."},"question_order":[1,4,3,5,0,2],"trial_type":"survey-multi-choice","trial_index":24,"time_elapsed":604430,"internal_node_id":"0.0-2.7-1.7","params":{"nStudents":24,"maxFlips":30,"completionMinutes":45,"basePay":8,"maxBonus":9,"perTrialBonus":0.5,"perTrialBonusThreshold":0.05,"exampleCost":0.01},"classroomParams":{"A":{"a":1,"b":4},"B":{"a":4,"b":1},"C":{"a":2,"b":8},"D":{"a":8,"b":2}},"conditions":["nonSeqFull","nonSeqPartial","seqNoFeedback","seqFeedback"],"classroomPairings":[["A","B"],["C","D"]],"coinWeights":[0.2,0.5,0.8],"subjectId":"A3T3KEK5G6JYTZ","assignmentId":"3CPLWGV3MPLWVHXVZHP9TFMGZZA9NQ","hitId":"3SD15I2WD2G0NA4TSPXGB81L5S7630","url":"https://gershmanlab.com/experiments/alicia/teaching/experiment/?hitId=3SD15I2WD2G0NA4TSPXGB81L5S7630&workerId=A3T3KEK5G6JYTZ&assignmentId=3CPLWGV3MPLWVHXVZHP9TFMGZZA9NQ&a=3WPC9&tp_a=3WPC9&b=3CPLWGV3MPLWVHXVZHP9TFMGZZA9NQ&tp_b=3CPLWGV3MPLWVHXVZHP9TFMGZZA9NQ&c=365799&tp_c=365799","pass":true},{"rt":null,"stimulus":"<div style=\"font-size:30px;\">Congrats on passing the comprehension quiz! The experiment will begin in a few seconds.</div>","response":null,"trial_type":"html-keyboard-response","trial_index":25,"time_elapsed":607440,"internal_node_id":"0.0-3.0","params":{"nStudents":24,"maxFlips":30,"completionMinutes":45,"basePay":8,"maxBonus":9,"perTrialBonus":0.5,"perTrialBonusThreshold":0.05,"exampleCost":0.01},"classroomParams":{"A":{"a":1,"b":4},"B":{"a":4,"b":1},"C":{"a":2,"b":8},"D":{"a":8,"b":2}},"conditions":["nonSeqFull","nonSeqPartial","seqNoFeedback","seqFeedback"],"classroomPairings":[["A","B"],["C","D"]],"coinWeights":[0.2,0.5,0.8],"subjectId":"A3T3KEK5G6JYTZ","assignmentId":"3CPLWGV3MPLWVHXVZHP9TFMGZZA9NQ","hitId":"3SD15I2WD2G0NA4TSPXGB81L5S7630","url":"https://gershmanlab.com/experiments/alicia/teaching/experiment/?hitId=3SD15I2WD2G0NA4TSPXGB81L5S7630&workerId=A3T3KEK5G6JYTZ&assignmentId=3CPLWGV3MPLWVHXVZHP9TFMGZZA9NQ&a=3WPC9&tp_a=3WPC9&b=3CPLWGV3MPLWVHXVZHP9TFMGZZA9NQ&tp_b=3CPLWGV3MPLWVHXVZHP9TFMGZZA9NQ&c=365799&tp_c=365799"},{"rt":null,"stimulus":"<div style=\"font-size:50px;\">First student</div>","response":null,"trial_type":"html-keyboard-response","trial_index":26,"time_elapsed":610441,"internal_node_id":"0.0-4.0","params":{"nStudents":24,"maxFlips":30,"completionMinutes":45,"basePay":8,"maxBonus":9,"perTrialBonus":0.5,"perTrialBonusThreshold":0.05,"exampleCost":0.01},"classroomParams":{"A":{"a":1,"b":4},"B":{"a":4,"b":1},"C":{"a":2,"b":8},"D":{"a":8,"b":2}},"conditions":["nonSeqFull","nonSeqPartial","seqNoFeedback","seqFeedback"],"classroomPairings":[["A","B"],["C","D"]],"coinWeights":[0.2,0.5,0.8],"subjectId":"A3T3KEK5G6JYTZ","assignmentId":"3CPLWGV3MPLWVHXVZHP9TFMGZZA9NQ","hitId":"3SD15I2WD2G0NA4TSPXGB81L5S7630","url":"https://gershmanlab.com/experiments/alicia/teaching/experiment/?hitId=3SD15I2WD2G0NA4TSPXGB81L5S7630&workerId=A3T3KEK5G6JYTZ&assignmentId=3CPLWGV3MPLWVHXVZHP9TFMGZZA9NQ&a=3WPC9&tp_a=3WPC9&b=3CPLWGV3MPLWVHXVZHP9TFMGZZA9NQ&tp_b=3CPLWGV3MPLWVHXVZHP9TFMGZZA9NQ&c=365799&tp_c=365799"},{"rt":6716,"stimulus":"\n            <h4 style=\"color:Orange;\">Student 1</h4>\n            <h2>The weight of your coin is <b style=\"color:Tomato;\">0.8</b>.</h2>\n            <p>In this block, you will be giving <b>two</b> sets of examples to Student 1.</p>\n                <p>You will see the student's guess after the first set of examples. You will also receive feedback at the end of the block.</p>\n            <p>To earn the highest bonus, you will have to <b>take into consideration the student's guess</b> when you choose your second set of examples.</p>","response":0,"trial_type":"html-button-response","trial_index":27,"time_elapsed":617158,"internal_node_id":"0.0-5.0","params":{"nStudents":24,"maxFlips":30,"completionMinutes":45,"basePay":8,"maxBonus":9,"perTrialBonus":0.5,"perTrialBonusThreshold":0.05,"exampleCost":0.01},"classroomParams":{"A":{"a":1,"b":4},"B":{"a":4,"b":1},"C":{"a":2,"b":8},"D":{"a":8,"b":2}},"conditions":["nonSeqFull","nonSeqPartial","seqNoFeedback","seqFeedback"],"classroomPairings":[["A","B"],["C","D"]],"coinWeights":[0.2,0.5,0.8],"subjectId":"A3T3KEK5G6JYTZ","assignmentId":"3CPLWGV3MPLWVHXVZHP9TFMGZZA9NQ","hitId":"3SD15I2WD2G0NA4TSPXGB81L5S7630","url":"https://gershmanlab.com/experiments/alicia/teaching/experiment/?hitId=3SD15I2WD2G0NA4TSPXGB81L5S7630&workerId=A3T3KEK5G6JYTZ&assignmentId=3CPLWGV3MPLWVHXVZHP9TFMGZZA9NQ&a=3WPC9&tp_a=3WPC9&b=3CPLWGV3MPLWVHXVZHP9TFMGZZA9NQ&tp_b=3CPLWGV3MPLWVHXVZHP9TFMGZZA9NQ&c=365799&tp_c=365799"},{"rt":26967,"response":{"heads":"4","tails":"1"},"type":"response","condition":"seqFeedback","trueTheta":0.8,"classrooms":["C","D"],"studentTrueClassroom":"C","exampleSet":"first","trial_type":"survey-html-form","trial_index":28,"time_elapsed":644127,"internal_node_id":"0.0-6.0-0.0","params":{"nStudents":24,"maxFlips":30,"completionMinutes":45,"basePay":8,"maxBonus":9,"perTrialBonus":0.5,"perTrialBonusThreshold":0.05,"exampleCost":0.01},"classroomParams":{"A":{"a":1,"b":4},"B":{"a":4,"b":1},"C":{"a":2,"b":8},"D":{"a":8,"b":2}},"conditions":["nonSeqFull","nonSeqPartial","seqNoFeedback","seqFeedback"],"classroomPairings":[["A","B"],["C","D"]],"coinWeights":[0.2,0.5,0.8],"subjectId":"A3T3KEK5G6JYTZ","assignmentId":"3CPLWGV3MPLWVHXVZHP9TFMGZZA9NQ","hitId":"3SD15I2WD2G0NA4TSPXGB81L5S7630","url":"https://gershmanlab.com/experiments/alicia/teaching/experiment/?hitId=3SD15I2WD2G0NA4TSPXGB81L5S7630&workerId=A3T3KEK5G6JYTZ&assignmentId=3CPLWGV3MPLWVHXVZHP9TFMGZZA9NQ&a=3WPC9&tp_a=3WPC9&b=3CPLWGV3MPLWVHXVZHP9TFMGZZA9NQ&tp_b=3CPLWGV3MPLWVHXVZHP9TFMGZZA9NQ&c=365799&tp_c=365799","heads":4,"tails":1,"studentIndex":0,"studentTrueHypers":{"a":2,"b":8},"studentGuess":0.4,"delta":0.4,"totalExamples":5,"bonusSoFar":0},{"rt":null,"stimulus":"Sending examples to student... ","response":null,"trial_type":"html-keyboard-response","trial_index":29,"time_elapsed":645630,"internal_node_id":"0.0-7.0","params":{"nStudents":24,"maxFlips":30,"completionMinutes":45,"basePay":8,"maxBonus":9,"perTrialBonus":0.5,"perTrialBonusThreshold":0.05,"exampleCost":0.01},"classroomParams":{"A":{"a":1,"b":4},"B":{"a":4,"b":1},"C":{"a":2,"b":8},"D":{"a":8,"b":2}},"conditions":["nonSeqFull","nonSeqPartial","seqNoFeedback","seqFeedback"],"classroomPairings":[["A","B"],["C","D"]],"coinWeights":[0.2,0.5,0.8],"subjectId":"A3T3KEK5G6JYTZ","assignmentId":"3CPLWGV3MPLWVHXVZHP9TFMGZZA9NQ","hitId":"3SD15I2WD2G0NA4TSPXGB81L5S7630","url":"https://gershmanlab.com/experiments/alicia/teaching/experiment/?hitId=3SD15I2WD2G0NA4TSPXGB81L5S7630&workerId=A3T3KEK5G6JYTZ&assignmentId=3CPLWGV3MPLWVHXVZHP9TFMGZZA9NQ&a=3WPC9&tp_a=3WPC9&b=3CPLWGV3MPLWVHXVZHP9TFMGZZA9NQ&tp_b=3CPLWGV3MPLWVHXVZHP9TFMGZZA9NQ&c=365799&tp_c=365799"},{"rt":null,"stimulus":"Examples sent to student! Waiting for student...","response":null,"trial_type":"html-keyboard-response","trial_index":30,"time_elapsed":651134,"internal_node_id":"0.0-8.0","params":{"nStudents":24,"maxFlips":30,"completionMinutes":45,"basePay":8,"maxBonus":9,"perTrialBonus":0.5,"perTrialBonusThreshold":0.05,"exampleCost":0.01},"classroomParams":{"A":{"a":1,"b":4},"B":{"a":4,"b":1},"C":{"a":2,"b":8},"D":{"a":8,"b":2}},"conditions":["nonSeqFull","nonSeqPartial","seqNoFeedback","seqFeedback"],"classroomPairings":[["A","B"],["C","D"]],"coinWeights":[0.2,0.5,0.8],"subjectId":"A3T3KEK5G6JYTZ","assignmentId":"3CPLWGV3MPLWVHXVZHP9TFMGZZA9NQ","hitId":"3SD15I2WD2G0NA4TSPXGB81L5S7630","url":"https://gershmanlab.com/experiments/alicia/teaching/experiment/?hitId=3SD15I2WD2G0NA4TSPXGB81L5S7630&workerId=A3T3KEK5G6JYTZ&assignmentId=3CPLWGV3MPLWVHXVZHP9TFMGZZA9NQ&a=3WPC9&tp_a=3WPC9&b=3CPLWGV3MPLWVHXVZHP9TFMGZZA9NQ&tp_b=3CPLWGV3MPLWVHXVZHP9TFMGZZA9NQ&c=365799&tp_c=365799"},{"rt":5839,"stimulus":"\n                <p>Student's guess for coin weight: <b style=\"color:Tomato;\">0.40</b></p>\n                <p></b></p>\n                <p>You will now send another set of examples to your student. <b>Remember to take your student's guess into consideration so that you can earn the highest bonus possible!</b> </p>\n                <p>Press any key to continue.</p>\n                ","response":" ","trial_type":"html-keyboard-response","trial_index":31,"time_elapsed":656974,"internal_node_id":"0.0-9.0","params":{"nStudents":24,"maxFlips":30,"completionMinutes":45,"basePay":8,"maxBonus":9,"perTrialBonus":0.5,"perTrialBonusThreshold":0.05,"exampleCost":0.01},"classroomParams":{"A":{"a":1,"b":4},"B":{"a":4,"b":1},"C":{"a":2,"b":8},"D":{"a":8,"b":2}},"conditions":["nonSeqFull","nonSeqPartial","seqNoFeedback","seqFeedback"],"classroomPairings":[["A","B"],["C","D"]],"coinWeights":[0.2,0.5,0.8],"subjectId":"A3T3KEK5G6JYTZ","assignmentId":"3CPLWGV3MPLWVHXVZHP9TFMGZZA9NQ","hitId":"3SD15I2WD2G0NA4TSPXGB81L5S7630","url":"https://gershmanlab.com/experiments/alicia/teaching/experiment/?hitId=3SD15I2WD2G0NA4TSPXGB81L5S7630&workerId=A3T3KEK5G6JYTZ&assignmentId=3CPLWGV3MPLWVHXVZHP9TFMGZZA9NQ&a=3WPC9&tp_a=3WPC9&b=3CPLWGV3MPLWVHXVZHP9TFMGZZA9NQ&tp_b=3CPLWGV3MPLWVHXVZHP9TFMGZZA9NQ&c=365799&tp_c=365799"},{"rt":21224,"response":{"heads":"8","tails":"2"},"type":"response","condition":"seqFeedback","trueTheta":0.8,"classrooms":["C","D"],"studentTrueClassroom":"C","exampleSet":"second","trial_type":"survey-html-form","trial_index":32,"time_elapsed":678199,"internal_node_id":"0.0-10.0-0.0","params":{"nStudents":24,"maxFlips":30,"completionMinutes":45,"basePay":8,"maxBonus":9,"perTrialBonus":0.5,"perTrialBonusThreshold":0.05,"exampleCost":0.01},"classroomParams":{"A":{"a":1,"b":4},"B":{"a":4,"b":1},"C":{"a":2,"b":8},"D":{"a":8,"b":2}},"conditions":["nonSeqFull","nonSeqPartial","seqNoFeedback","seqFeedback"],"classroomPairings":[["A","B"],["C","D"]],"coinWeights":[0.2,0.5,0.8],"subjectId":"A3T3KEK5G6JYTZ","assignmentId":"3CPLWGV3MPLWVHXVZHP9TFMGZZA9NQ","hitId":"3SD15I2WD2G0NA4TSPXGB81L5S7630","url":"https://gershmanlab.com/experiments/alicia/teaching/experiment/?hitId=3SD15I2WD2G0NA4TSPXGB81L5S7630&workerId=A3T3KEK5G6JYTZ&assignmentId=3CPLWGV3MPLWVHXVZHP9TFMGZZA9NQ&a=3WPC9&tp_a=3WPC9&b=3CPLWGV3MPLWVHXVZHP9TFMGZZA9NQ&tp_b=3CPLWGV3MPLWVHXVZHP9TFMGZZA9NQ&c=365799&tp_c=365799","firstResponseHeads":4,"firstResponseTails":1,"secondResponseHeads":8,"secondResponseTails":2,"totalHeads":12,"totalTails":3,"studentIndex":0,"studentTrueHypers":{"a":2,"b":8},"studentGuess":0.56,"delta":0.24,"bonus":0,"bonusSoFar":0,"totalExamples":15},{"rt":null,"stimulus":"Sending examples to student... ","response":null,"trial_type":"html-keyboard-response","trial_index":33,"time_elapsed":679456,"internal_node_id":"0.0-11.0","params":{"nStudents":24,"maxFlips":30,"completionMinutes":45,"basePay":8,"maxBonus":9,"perTrialBonus":0.5,"perTrialBonusThreshold":0.05,"exampleCost":0.01},"classroomParams":{"A":{"a":1,"b":4},"B":{"a":4,"b":1},"C":{"a":2,"b":8},"D":{"a":8,"b":2}},"conditions":["nonSeqFull","nonSeqPartial","seqNoFeedback","seqFeedback"],"classroomPairings":[["A","B"],["C","D"]],"coinWeights":[0.2,0.5,0.8],"subjectId":"A3T3KEK5G6JYTZ","assignmentId":"3CPLWGV3MPLWVHXVZHP9TFMGZZA9NQ","hitId":"3SD15I2WD2G0NA4TSPXGB81L5S7630","url":"https://gershmanlab.com/experiments/alicia/teaching/experiment/?hitId=3SD15I2WD2G0NA4TSPXGB81L5S7630&workerId=A3T3KEK5G6JYTZ&assignmentId=3CPLWGV3MPLWVHXVZHP9TFMGZZA9NQ&a=3WPC9&tp_a=3WPC9&b=3CPLWGV3MPLWVHXVZHP9TFMGZZA9NQ&tp_b=3CPLWGV3MPLWVHXVZHP9TFMGZZA9NQ&c=365799&tp_c=365799"},{"rt":null,"stimulus":"Examples sent to student! Waiting for student...","response":null,"trial_type":"html-keyboard-response","trial_index":34,"time_elapsed":684460,"internal_node_id":"0.0-12.0","params":{"nStudents":24,"maxFlips":30,"completionMinutes":45,"basePay":8,"maxBonus":9,"perTrialBonus":0.5,"perTrialBonusThreshold":0.05,"exampleCost":0.01},"classroomParams":{"A":{"a":1,"b":4},"B":{"a":4,"b":1},"C":{"a":2,"b":8},"D":{"a":8,"b":2}},"conditions":["nonSeqFull","nonSeqPartial","seqNoFeedback","seqFeedback"],"classroomPairings":[["A","B"],["C","D"]],"coinWeights":[0.2,0.5,0.8],"subjectId":"A3T3KEK5G6JYTZ","assignmentId":"3CPLWGV3MPLWVHXVZHP9TFMGZZA9NQ","hitId":"3SD15I2WD2G0NA4TSPXGB81L5S7630","url":"https://gershmanlab.com/experiments/alicia/teaching/experiment/?hitId=3SD15I2WD2G0NA4TSPXGB81L5S7630&workerId=A3T3KEK5G6JYTZ&assignmentId=3CPLWGV3MPLWVHXVZHP9TFMGZZA9NQ&a=3WPC9&tp_a=3WPC9&b=3CPLWGV3MPLWVHXVZHP9TFMGZZA9NQ&tp_b=3CPLWGV3MPLWVHXVZHP9TFMGZZA9NQ&c=365799&tp_c=365799"},{"rt":4812,"stimulus":"\n                <p>Student 1's first guess for coin weight: <b style=\"color:Tomato\";>0.40</b></p>\n                <p>Student 1's second guess for coin weight: <b style=\"color:Tomato\";>0.56</b></p>\n                <p>You received a bonus of <b>$0.00</b> based on the student's second guess.</p>\n                <p>Total bonus so far: <b>$0.00</b></p>\n                <p>Press any key to continue.</p>\n                ","response":" ","trial_type":"html-keyboard-response","trial_index":35,"time_elapsed":689273,"internal_node_id":"0.0-13.0","params":{"nStudents":24,"maxFlips":30,"completionMinutes":45,"basePay":8,"maxBonus":9,"perTrialBonus":0.5,"perTrialBonusThreshold":0.05,"exampleCost":0.01},"classroomParams":{"A":{"a":1,"b":4},"B":{"a":4,"b":1},"C":{"a":2,"b":8},"D":{"a":8,"b":2}},"conditions":["nonSeqFull","nonSeqPartial","seqNoFeedback","seqFeedback"],"classroomPairings":[["A","B"],["C","D"]],"coinWeights":[0.2,0.5,0.8],"subjectId":"A3T3KEK5G6JYTZ","assignmentId":"3CPLWGV3MPLWVHXVZHP9TFMGZZA9NQ","hitId":"3SD15I2WD2G0NA4TSPXGB81L5S7630","url":"https://gershmanlab.com/experiments/alicia/teaching/experiment/?hitId=3SD15I2WD2G0NA4TSPXGB81L5S7630&workerId=A3T3KEK5G6JYTZ&assignmentId=3CPLWGV3MPLWVHXVZHP9TFMGZZA9NQ&a=3WPC9&tp_a=3WPC9&b=3CPLWGV3MPLWVHXVZHP9TFMGZZA9NQ&tp_b=3CPLWGV3MPLWVHXVZHP9TFMGZZA9NQ&c=365799&tp_c=365799"},{"rt":null,"stimulus":"<div style=\"font-size:60px;\">Next student</div>","response":null,"trial_type":"html-keyboard-response","trial_index":36,"time_elapsed":691779,"internal_node_id":"0.0-14.0-0.0","params":{"nStudents":24,"maxFlips":30,"completionMinutes":45,"basePay":8,"maxBonus":9,"perTrialBonus":0.5,"perTrialBonusThreshold":0.05,"exampleCost":0.01},"classroomParams":{"A":{"a":1,"b":4},"B":{"a":4,"b":1},"C":{"a":2,"b":8},"D":{"a":8,"b":2}},"conditions":["nonSeqFull","nonSeqPartial","seqNoFeedback","seqFeedback"],"classroomPairings":[["A","B"],["C","D"]],"coinWeights":[0.2,0.5,0.8],"subjectId":"A3T3KEK5G6JYTZ","assignmentId":"3CPLWGV3MPLWVHXVZHP9TFMGZZA9NQ","hitId":"3SD15I2WD2G0NA4TSPXGB81L5S7630","url":"https://gershmanlab.com/experiments/alicia/teaching/experiment/?hitId=3SD15I2WD2G0NA4TSPXGB81L5S7630&workerId=A3T3KEK5G6JYTZ&assignmentId=3CPLWGV3MPLWVHXVZHP9TFMGZZA9NQ&a=3WPC9&tp_a=3WPC9&b=3CPLWGV3MPLWVHXVZHP9TFMGZZA9NQ&tp_b=3CPLWGV3MPLWVHXVZHP9TFMGZZA9NQ&c=365799&tp_c=365799"},{"rt":2617,"stimulus":"\n            <h4 style=\"color:Orange;\">Student 2</h4>\n            <h2>The weight of your coin is <b style=\"color:Tomato;\">0.8</b>.</h2>\n            <p>In this block, you will be giving <b>one</b> set of examples to Student 2.</p>\n                <p>You will receive feedback at the end of the block.</p>\n            <p></p>","response":0,"trial_type":"html-button-response","trial_index":37,"time_elapsed":694398,"internal_node_id":"0.0-15.0","params":{"nStudents":24,"maxFlips":30,"completionMinutes":45,"basePay":8,"maxBonus":9,"perTrialBonus":0.5,"perTrialBonusThreshold":0.05,"exampleCost":0.01},"classroomParams":{"A":{"a":1,"b":4},"B":{"a":4,"b":1},"C":{"a":2,"b":8},"D":{"a":8,"b":2}},"conditions":["nonSeqFull","nonSeqPartial","seqNoFeedback","seqFeedback"],"classroomPairings":[["A","B"],["C","D"]],"coinWeights":[0.2,0.5,0.8],"subjectId":"A3T3KEK5G6JYTZ","assignmentId":"3CPLWGV3MPLWVHXVZHP9TFMGZZA9NQ","hitId":"3SD15I2WD2G0NA4TSPXGB81L5S7630","url":"https://gershmanlab.com/experiments/alicia/teaching/experiment/?hitId=3SD15I2WD2G0NA4TSPXGB81L5S7630&workerId=A3T3KEK5G6JYTZ&assignmentId=3CPLWGV3MPLWVHXVZHP9TFMGZZA9NQ&a=3WPC9&tp_a=3WPC9&b=3CPLWGV3MPLWVHXVZHP9TFMGZZA9NQ&tp_b=3CPLWGV3MPLWVHXVZHP9TFMGZZA9NQ&c=365799&tp_c=365799"},{"rt":9877,"response":{"heads":"4","tails":"1"},"type":"response","condition":"nonSeqFull","trueTheta":0.8,"classrooms":["A","B"],"studentTrueClassroom":"B","exampleSet":"first","trial_type":"survey-html-form","trial_index":38,"time_elapsed":704277,"internal_node_id":"0.0-16.0-0.0","params":{"nStudents":24,"maxFlips":30,"completionMinutes":45,"basePay":8,"maxBonus":9,"perTrialBonus":0.5,"perTrialBonusThreshold":0.05,"exampleCost":0.01},"classroomParams":{"A":{"a":1,"b":4},"B":{"a":4,"b":1},"C":{"a":2,"b":8},"D":{"a":8,"b":2}},"conditions":["nonSeqFull","nonSeqPartial","seqNoFeedback","seqFeedback"],"classroomPairings":[["A","B"],["C","D"]],"coinWeights":[0.2,0.5,0.8],"subjectId":"A3T3KEK5G6JYTZ","assignmentId":"3CPLWGV3MPLWVHXVZHP9TFMGZZA9NQ","hitId":"3SD15I2WD2G0NA4TSPXGB81L5S7630","url":"https://gershmanlab.com/experiments/alicia/teaching/experiment/?hitId=3SD15I2WD2G0NA4TSPXGB81L5S7630&workerId=A3T3KEK5G6JYTZ&assignmentId=3CPLWGV3MPLWVHXVZHP9TFMGZZA9NQ&a=3WPC9&tp_a=3WPC9&b=3CPLWGV3MPLWVHXVZHP9TFMGZZA9NQ&tp_b=3CPLWGV3MPLWVHXVZHP9TFMGZZA9NQ&c=365799&tp_c=365799","heads":4,"tails":1,"studentIndex":1,"studentTrueHypers":{"a":4,"b":1},"studentGuess":0.8,"delta":0,"totalExamples":5,"bonus":0.45,"bonusSoFar":0.45},{"rt":null,"stimulus":"Sending examples to student... ","response":null,"trial_type":"html-keyboard-response","trial_index":39,"time_elapsed":706280,"internal_node_id":"0.0-17.0","params":{"nStudents":24,"maxFlips":30,"completionMinutes":45,"basePay":8,"maxBonus":9,"perTrialBonus":0.5,"perTrialBonusThreshold":0.05,"exampleCost":0.01},"classroomParams":{"A":{"a":1,"b":4},"B":{"a":4,"b":1},"C":{"a":2,"b":8},"D":{"a":8,"b":2}},"conditions":["nonSeqFull","nonSeqPartial","seqNoFeedback","seqFeedback"],"classroomPairings":[["A","B"],["C","D"]],"coinWeights":[0.2,0.5,0.8],"subjectId":"A3T3KEK5G6JYTZ","assignmentId":"3CPLWGV3MPLWVHXVZHP9TFMGZZA9NQ","hitId":"3SD15I2WD2G0NA4TSPXGB81L5S7630","url":"https://gershmanlab.com/experiments/alicia/teaching/experiment/?hitId=3SD15I2WD2G0NA4TSPXGB81L5S7630&workerId=A3T3KEK5G6JYTZ&assignmentId=3CPLWGV3MPLWVHXVZHP9TFMGZZA9NQ&a=3WPC9&tp_a=3WPC9&b=3CPLWGV3MPLWVHXVZHP9TFMGZZA9NQ&tp_b=3CPLWGV3MPLWVHXVZHP9TFMGZZA9NQ&c=365799&tp_c=365799"},{"rt":null,"stimulus":"Examples sent to student! Waiting for student...","response":null,"trial_type":"html-keyboard-response","trial_index":40,"time_elapsed":710785,"internal_node_id":"0.0-18.0","params":{"nStudents":24,"maxFlips":30,"completionMinutes":45,"basePay":8,"maxBonus":9,"perTrialBonus":0.5,"perTrialBonusThreshold":0.05,"exampleCost":0.01},"classroomParams":{"A":{"a":1,"b":4},"B":{"a":4,"b":1},"C":{"a":2,"b":8},"D":{"a":8,"b":2}},"conditions":["nonSeqFull","nonSeqPartial","seqNoFeedback","seqFeedback"],"classroomPairings":[["A","B"],["C","D"]],"coinWeights":[0.2,0.5,0.8],"subjectId":"A3T3KEK5G6JYTZ","assignmentId":"3CPLWGV3MPLWVHXVZHP9TFMGZZA9NQ","hitId":"3SD15I2WD2G0NA4TSPXGB81L5S7630","url":"https://gershmanlab.com/experiments/alicia/teaching/experiment/?hitId=3SD15I2WD2G0NA4TSPXGB81L5S7630&workerId=A3T3KEK5G6JYTZ&assignmentId=3CPLWGV3MPLWVHXVZHP9TFMGZZA9NQ&a=3WPC9&tp_a=3WPC9&b=3CPLWGV3MPLWVHXVZHP9TFMGZZA9NQ&tp_b=3CPLWGV3MPLWVHXVZHP9TFMGZZA9NQ&c=365799&tp_c=365799"},{"rt":2856,"stimulus":"\n                <p>Student's guess for coin weight: <b style=\"color:Tomato;\">0.80</b></p>\n                <p>You received a bonus of <b>$0.45</b>. Total bonus so far: <b>$0.45</b></b></p>\n                <p></p>\n                <p>Press any key to continue.</p>\n                ","response":" ","trial_type":"html-keyboard-response","trial_index":41,"time_elapsed":713642,"internal_node_id":"0.0-19.0","params":{"nStudents":24,"maxFlips":30,"completionMinutes":45,"basePay":8,"maxBonus":9,"perTrialBonus":0.5,"perTrialBonusThreshold":0.05,"exampleCost":0.01},"classroomParams":{"A":{"a":1,"b":4},"B":{"a":4,"b":1},"C":{"a":2,"b":8},"D":{"a":8,"b":2}},"conditions":["nonSeqFull","nonSeqPartial","seqNoFeedback","seqFeedback"],"classroomPairings":[["A","B"],["C","D"]],"coinWeights":[0.2,0.5,0.8],"subjectId":"A3T3KEK5G6JYTZ","assignmentId":"3CPLWGV3MPLWVHXVZHP9TFMGZZA9NQ","hitId":"3SD15I2WD2G0NA4TSPXGB81L5S7630","url":"https://gershmanlab.com/experiments/alicia/teaching/experiment/?hitId=3SD15I2WD2G0NA4TSPXGB81L5S7630&workerId=A3T3KEK5G6JYTZ&assignmentId=3CPLWGV3MPLWVHXVZHP9TFMGZZA9NQ&a=3WPC9&tp_a=3WPC9&b=3CPLWGV3MPLWVHXVZHP9TFMGZZA9NQ&tp_b=3CPLWGV3MPLWVHXVZHP9TFMGZZA9NQ&c=365799&tp_c=365799"},{"rt":null,"stimulus":"<div style=\"font-size:60px;\">Next student</div>","response":null,"trial_type":"html-keyboard-response","trial_index":42,"time_elapsed":716148,"internal_node_id":"0.0-20.0-0.0","params":{"nStudents":24,"maxFlips":30,"completionMinutes":45,"basePay":8,"maxBonus":9,"perTrialBonus":0.5,"perTrialBonusThreshold":0.05,"exampleCost":0.01},"classroomParams":{"A":{"a":1,"b":4},"B":{"a":4,"b":1},"C":{"a":2,"b":8},"D":{"a":8,"b":2}},"conditions":["nonSeqFull","nonSeqPartial","seqNoFeedback","seqFeedback"],"classroomPairings":[["A","B"],["C","D"]],"coinWeights":[0.2,0.5,0.8],"subjectId":"A3T3KEK5G6JYTZ","assignmentId":"3CPLWGV3MPLWVHXVZHP9TFMGZZA9NQ","hitId":"3SD15I2WD2G0NA4TSPXGB81L5S7630","url":"https://gershmanlab.com/experiments/alicia/teaching/experiment/?hitId=3SD15I2WD2G0NA4TSPXGB81L5S7630&workerId=A3T3KEK5G6JYTZ&assignmentId=3CPLWGV3MPLWVHXVZHP9TFMGZZA9NQ&a=3WPC9&tp_a=3WPC9&b=3CPLWGV3MPLWVHXVZHP9TFMGZZA9NQ&tp_b=3CPLWGV3MPLWVHXVZHP9TFMGZZA9NQ&c=365799&tp_c=365799"},{"rt":2050,"stimulus":"\n            <h4 style=\"color:Orange;\">Student 3</h4>\n            <h2>The weight of your coin is <b style=\"color:Tomato;\">0.8</b>.</h2>\n            <p>In this block, you will be giving <b>one</b> set of examples to Student 3.</p>\n                <p>You will receive feedback at the end of the block.</p>\n            <p></p>","response":0,"trial_type":"html-button-response","trial_index":43,"time_elapsed":718200,"internal_node_id":"0.0-21.0","params":{"nStudents":24,"maxFlips":30,"completionMinutes":45,"basePay":8,"maxBonus":9,"perTrialBonus":0.5,"perTrialBonusThreshold":0.05,"exampleCost":0.01},"classroomParams":{"A":{"a":1,"b":4},"B":{"a":4,"b":1},"C":{"a":2,"b":8},"D":{"a":8,"b":2}},"conditions":["nonSeqFull","nonSeqPartial","seqNoFeedback","seqFeedback"],"classroomPairings":[["A","B"],["C","D"]],"coinWeights":[0.2,0.5,0.8],"subjectId":"A3T3KEK5G6JYTZ","assignmentId":"3CPLWGV3MPLWVHXVZHP9TFMGZZA9NQ","hitId":"3SD15I2WD2G0NA4TSPXGB81L5S7630","url":"https://gershmanlab.com/experiments/alicia/teaching/experiment/?hitId=3SD15I2WD2G0NA4TSPXGB81L5S7630&workerId=A3T3KEK5G6JYTZ&assignmentId=3CPLWGV3MPLWVHXVZHP9TFMGZZA9NQ&a=3WPC9&tp_a=3WPC9&b=3CPLWGV3MPLWVHXVZHP9TFMGZZA9NQ&tp_b=3CPLWGV3MPLWVHXVZHP9TFMGZZA9NQ&c=365799&tp_c=365799"},{"rt":14486,"response":{"heads":"4","tails":"1"},"type":"response","condition":"nonSeqFull","trueTheta":0.8,"classrooms":["C","D"],"studentTrueClassroom":"D","exampleSet":"first","trial_type":"survey-html-form","trial_index":44,"time_elapsed":732687,"internal_node_id":"0.0-22.0-0.0","params":{"nStudents":24,"maxFlips":30,"completionMinutes":45,"basePay":8,"maxBonus":9,"perTrialBonus":0.5,"perTrialBonusThreshold":0.05,"exampleCost":0.01},"classroomParams":{"A":{"a":1,"b":4},"B":{"a":4,"b":1},"C":{"a":2,"b":8},"D":{"a":8,"b":2}},"conditions":["nonSeqFull","nonSeqPartial","seqNoFeedback","seqFeedback"],"classroomPairings":[["A","B"],["C","D"]],"coinWeights":[0.2,0.5,0.8],"subjectId":"A3T3KEK5G6JYTZ","assignmentId":"3CPLWGV3MPLWVHXVZHP9TFMGZZA9NQ","hitId":"3SD15I2WD2G0NA4TSPXGB81L5S7630","url":"https://gershmanlab.com/experiments/alicia/teaching/experiment/?hitId=3SD15I2WD2G0NA4TSPXGB81L5S7630&workerId=A3T3KEK5G6JYTZ&assignmentId=3CPLWGV3MPLWVHXVZHP9TFMGZZA9NQ&a=3WPC9&tp_a=3WPC9&b=3CPLWGV3MPLWVHXVZHP9TFMGZZA9NQ&tp_b=3CPLWGV3MPLWVHXVZHP9TFMGZZA9NQ&c=365799&tp_c=365799","heads":4,"tails":1,"studentIndex":2,"studentTrueHypers":{"a":8,"b":2},"studentGuess":0.8,"delta":0,"totalExamples":5,"bonus":0.45,"bonusSoFar":0.9},{"rt":null,"stimulus":"Sending examples to student... ","response":null,"trial_type":"html-keyboard-response","trial_index":45,"time_elapsed":734689,"internal_node_id":"0.0-23.0","params":{"nStudents":24,"maxFlips":30,"completionMinutes":45,"basePay":8,"maxBonus":9,"perTrialBonus":0.5,"perTrialBonusThreshold":0.05,"exampleCost":0.01},"classroomParams":{"A":{"a":1,"b":4},"B":{"a":4,"b":1},"C":{"a":2,"b":8},"D":{"a":8,"b":2}},"conditions":["nonSeqFull","nonSeqPartial","seqNoFeedback","seqFeedback"],"classroomPairings":[["A","B"],["C","D"]],"coinWeights":[0.2,0.5,0.8],"subjectId":"A3T3KEK5G6JYTZ","assignmentId":"3CPLWGV3MPLWVHXVZHP9TFMGZZA9NQ","hitId":"3SD15I2WD2G0NA4TSPXGB81L5S7630","url":"https://gershmanlab.com/experiments/alicia/teaching/experiment/?hitId=3SD15I2WD2G0NA4TSPXGB81L5S7630&workerId=A3T3KEK5G6JYTZ&assignmentId=3CPLWGV3MPLWVHXVZHP9TFMGZZA9NQ&a=3WPC9&tp_a=3WPC9&b=3CPLWGV3MPLWVHXVZHP9TFMGZZA9NQ&tp_b=3CPLWGV3MPLWVHXVZHP9TFMGZZA9NQ&c=365799&tp_c=365799"},{"rt":null,"stimulus":"Examples sent to student! Waiting for student...","response":null,"trial_type":"html-keyboard-response","trial_index":46,"time_elapsed":739193,"internal_node_id":"0.0-24.0","params":{"nStudents":24,"maxFlips":30,"completionMinutes":45,"basePay":8,"maxBonus":9,"perTrialBonus":0.5,"perTrialBonusThreshold":0.05,"exampleCost":0.01},"classroomParams":{"A":{"a":1,"b":4},"B":{"a":4,"b":1},"C":{"a":2,"b":8},"D":{"a":8,"b":2}},"conditions":["nonSeqFull","nonSeqPartial","seqNoFeedback","seqFeedback"],"classroomPairings":[["A","B"],["C","D"]],"coinWeights":[0.2,0.5,0.8],"subjectId":"A3T3KEK5G6JYTZ","assignmentId":"3CPLWGV3MPLWVHXVZHP9TFMGZZA9NQ","hitId":"3SD15I2WD2G0NA4TSPXGB81L5S7630","url":"https://gershmanlab.com/experiments/alicia/teaching/experiment/?hitId=3SD15I2WD2G0NA4TSPXGB81L5S7630&workerId=A3T3KEK5G6JYTZ&assignmentId=3CPLWGV3MPLWVHXVZHP9TFMGZZA9NQ&a=3WPC9&tp_a=3WPC9&b=3CPLWGV3MPLWVHXVZHP9TFMGZZA9NQ&tp_b=3CPLWGV3MPLWVHXVZHP9TFMGZZA9NQ&c=365799&tp_c=365799"},{"rt":2617,"stimulus":"\n                <p>Student's guess for coin weight: <b style=\"color:Tomato;\">0.80</b></p>\n                <p>You received a bonus of <b>$0.45</b>. Total bonus so far: <b>$0.90</b></b></p>\n                <p></p>\n                <p>Press any key to continue.</p>\n                ","response":" ","trial_type":"html-keyboard-response","trial_index":47,"time_elapsed":741811,"internal_node_id":"0.0-25.0","params":{"nStudents":24,"maxFlips":30,"completionMinutes":45,"basePay":8,"maxBonus":9,"perTrialBonus":0.5,"perTrialBonusThreshold":0.05,"exampleCost":0.01},"classroomParams":{"A":{"a":1,"b":4},"B":{"a":4,"b":1},"C":{"a":2,"b":8},"D":{"a":8,"b":2}},"conditions":["nonSeqFull","nonSeqPartial","seqNoFeedback","seqFeedback"],"classroomPairings":[["A","B"],["C","D"]],"coinWeights":[0.2,0.5,0.8],"subjectId":"A3T3KEK5G6JYTZ","assignmentId":"3CPLWGV3MPLWVHXVZHP9TFMGZZA9NQ","hitId":"3SD15I2WD2G0NA4TSPXGB81L5S7630","url":"https://gershmanlab.com/experiments/alicia/teaching/experiment/?hitId=3SD15I2WD2G0NA4TSPXGB81L5S7630&workerId=A3T3KEK5G6JYTZ&assignmentId=3CPLWGV3MPLWVHXVZHP9TFMGZZA9NQ&a=3WPC9&tp_a=3WPC9&b=3CPLWGV3MPLWVHXVZHP9TFMGZZA9NQ&tp_b=3CPLWGV3MPLWVHXVZHP9TFMGZZA9NQ&c=365799&tp_c=365799"},{"rt":null,"stimulus":"<div style=\"font-size:60px;\">Next student</div>","response":null,"trial_type":"html-keyboard-response","trial_index":48,"time_elapsed":744064,"internal_node_id":"0.0-26.0-0.0","params":{"nStudents":24,"maxFlips":30,"completionMinutes":45,"basePay":8,"maxBonus":9,"perTrialBonus":0.5,"perTrialBonusThreshold":0.05,"exampleCost":0.01},"classroomParams":{"A":{"a":1,"b":4},"B":{"a":4,"b":1},"C":{"a":2,"b":8},"D":{"a":8,"b":2}},"conditions":["nonSeqFull","nonSeqPartial","seqNoFeedback","seqFeedback"],"classroomPairings":[["A","B"],["C","D"]],"coinWeights":[0.2,0.5,0.8],"subjectId":"A3T3KEK5G6JYTZ","assignmentId":"3CPLWGV3MPLWVHXVZHP9TFMGZZA9NQ","hitId":"3SD15I2WD2G0NA4TSPXGB81L5S7630","url":"https://gershmanlab.com/experiments/alicia/teaching/experiment/?hitId=3SD15I2WD2G0NA4TSPXGB81L5S7630&workerId=A3T3KEK5G6JYTZ&assignmentId=3CPLWGV3MPLWVHXVZHP9TFMGZZA9NQ&a=3WPC9&tp_a=3WPC9&b=3CPLWGV3MPLWVHXVZHP9TFMGZZA9NQ&tp_b=3CPLWGV3MPLWVHXVZHP9TFMGZZA9NQ&c=365799&tp_c=365799"},{"rt":3464,"stimulus":"\n            <h4 style=\"color:Orange;\">Student 4</h4>\n            <h2>The weight of your coin is <b style=\"color:Tomato;\">0.5</b>.</h2>\n            <p>In this block, you will be giving <b>one</b> set of examples to Student 4.</p>\n                <p>You will receive feedback at the end of the block.</p>\n            <p></p>","response":0,"trial_type":"html-button-response","trial_index":49,"time_elapsed":747529,"internal_node_id":"0.0-27.0","params":{"nStudents":24,"maxFlips":30,"completionMinutes":45,"basePay":8,"maxBonus":9,"perTrialBonus":0.5,"perTrialBonusThreshold":0.05,"exampleCost":0.01},"classroomParams":{"A":{"a":1,"b":4},"B":{"a":4,"b":1},"C":{"a":2,"b":8},"D":{"a":8,"b":2}},"conditions":["nonSeqFull","nonSeqPartial","seqNoFeedback","seqFeedback"],"classroomPairings":[["A","B"],["C","D"]],"coinWeights":[0.2,0.5,0.8],"subjectId":"A3T3KEK5G6JYTZ","assignmentId":"3CPLWGV3MPLWVHXVZHP9TFMGZZA9NQ","hitId":"3SD15I2WD2G0NA4TSPXGB81L5S7630","url":"https://gershmanlab.com/experiments/alicia/teaching/experiment/?hitId=3SD15I2WD2G0NA4TSPXGB81L5S7630&workerId=A3T3KEK5G6JYTZ&assignmentId=3CPLWGV3MPLWVHXVZHP9TFMGZZA9NQ&a=3WPC9&tp_a=3WPC9&b=3CPLWGV3MPLWVHXVZHP9TFMGZZA9NQ&tp_b=3CPLWGV3MPLWVHXVZHP9TFMGZZA9NQ&c=365799&tp_c=365799"},{"rt":17543,"response":{"heads":"15","tails":"15"},"type":"response","condition":"nonSeqPartial","trueTheta":0.5,"classrooms":["A","B"],"studentTrueClassroom":"A","exampleSet":"first","trial_type":"survey-html-form","trial_index":50,"time_elapsed":765073,"internal_node_id":"0.0-28.0-0.0","params":{"nStudents":24,"maxFlips":30,"completionMinutes":45,"basePay":8,"maxBonus":9,"perTrialBonus":0.5,"perTrialBonusThreshold":0.05,"exampleCost":0.01},"classroomParams":{"A":{"a":1,"b":4},"B":{"a":4,"b":1},"C":{"a":2,"b":8},"D":{"a":8,"b":2}},"conditions":["nonSeqFull","nonSeqPartial","seqNoFeedback","seqFeedback"],"classroomPairings":[["A","B"],["C","D"]],"coinWeights":[0.2,0.5,0.8],"subjectId":"A3T3KEK5G6JYTZ","assignmentId":"3CPLWGV3MPLWVHXVZHP9TFMGZZA9NQ","hitId":"3SD15I2WD2G0NA4TSPXGB81L5S7630","url":"https://gershmanlab.com/experiments/alicia/teaching/experiment/?hitId=3SD15I2WD2G0NA4TSPXGB81L5S7630&workerId=A3T3KEK5G6JYTZ&assignmentId=3CPLWGV3MPLWVHXVZHP9TFMGZZA9NQ&a=3WPC9&tp_a=3WPC9&b=3CPLWGV3MPLWVHXVZHP9TFMGZZA9NQ&tp_b=3CPLWGV3MPLWVHXVZHP9TFMGZZA9NQ&c=365799&tp_c=365799","heads":15,"tails":15,"studentIndex":3,"studentTrueHypers":{"a":1,"b":4},"studentGuess":0.45714285714285713,"delta":0.04285714285714287,"totalExamples":30,"bonus":0.2,"bonusSoFar":1.1},{"rt":null,"stimulus":"Sending examples to student... ","response":null,"trial_type":"html-keyboard-response","trial_index":51,"time_elapsed":766825,"internal_node_id":"0.0-29.0","params":{"nStudents":24,"maxFlips":30,"completionMinutes":45,"basePay":8,"maxBonus":9,"perTrialBonus":0.5,"perTrialBonusThreshold":0.05,"exampleCost":0.01},"classroomParams":{"A":{"a":1,"b":4},"B":{"a":4,"b":1},"C":{"a":2,"b":8},"D":{"a":8,"b":2}},"conditions":["nonSeqFull","nonSeqPartial","seqNoFeedback","seqFeedback"],"classroomPairings":[["A","B"],["C","D"]],"coinWeights":[0.2,0.5,0.8],"subjectId":"A3T3KEK5G6JYTZ","assignmentId":"3CPLWGV3MPLWVHXVZHP9TFMGZZA9NQ","hitId":"3SD15I2WD2G0NA4TSPXGB81L5S7630","url":"https://gershmanlab.com/experiments/alicia/teaching/experiment/?hitId=3SD15I2WD2G0NA4TSPXGB81L5S7630&workerId=A3T3KEK5G6JYTZ&assignmentId=3CPLWGV3MPLWVHXVZHP9TFMGZZA9NQ&a=3WPC9&tp_a=3WPC9&b=3CPLWGV3MPLWVHXVZHP9TFMGZZA9NQ&tp_b=3CPLWGV3MPLWVHXVZHP9TFMGZZA9NQ&c=365799&tp_c=365799"},{"rt":null,"stimulus":"Examples sent to student! Waiting for student...","response":null,"trial_type":"html-keyboard-response","trial_index":52,"time_elapsed":772827,"internal_node_id":"0.0-30.0","params":{"nStudents":24,"maxFlips":30,"completionMinutes":45,"basePay":8,"maxBonus":9,"perTrialBonus":0.5,"perTrialBonusThreshold":0.05,"exampleCost":0.01},"classroomParams":{"A":{"a":1,"b":4},"B":{"a":4,"b":1},"C":{"a":2,"b":8},"D":{"a":8,"b":2}},"conditions":["nonSeqFull","nonSeqPartial","seqNoFeedback","seqFeedback"],"classroomPairings":[["A","B"],["C","D"]],"coinWeights":[0.2,0.5,0.8],"subjectId":"A3T3KEK5G6JYTZ","assignmentId":"3CPLWGV3MPLWVHXVZHP9TFMGZZA9NQ","hitId":"3SD15I2WD2G0NA4TSPXGB81L5S7630","url":"https://gershmanlab.com/experiments/alicia/teaching/experiment/?hitId=3SD15I2WD2G0NA4TSPXGB81L5S7630&workerId=A3T3KEK5G6JYTZ&assignmentId=3CPLWGV3MPLWVHXVZHP9TFMGZZA9NQ&a=3WPC9&tp_a=3WPC9&b=3CPLWGV3MPLWVHXVZHP9TFMGZZA9NQ&tp_b=3CPLWGV3MPLWVHXVZHP9TFMGZZA9NQ&c=365799&tp_c=365799"},{"rt":3341,"stimulus":"\n                <p>Student's guess for coin weight: <b style=\"color:Tomato;\">0.46</b></p>\n                <p>You received a bonus of <b>$0.2</b>. Total bonus so far: <b>$1.10</b></b></p>\n                <p></p>\n                <p>Press any key to continue.</p>\n                ","response":" ","trial_type":"html-keyboard-response","trial_index":53,"time_elapsed":776169,"internal_node_id":"0.0-31.0","params":{"nStudents":24,"maxFlips":30,"completionMinutes":45,"basePay":8,"maxBonus":9,"perTrialBonus":0.5,"perTrialBonusThreshold":0.05,"exampleCost":0.01},"classroomParams":{"A":{"a":1,"b":4},"B":{"a":4,"b":1},"C":{"a":2,"b":8},"D":{"a":8,"b":2}},"conditions":["nonSeqFull","nonSeqPartial","seqNoFeedback","seqFeedback"],"classroomPairings":[["A","B"],["C","D"]],"coinWeights":[0.2,0.5,0.8],"subjectId":"A3T3KEK5G6JYTZ","assignmentId":"3CPLWGV3MPLWVHXVZHP9TFMGZZA9NQ","hitId":"3SD15I2WD2G0NA4TSPXGB81L5S7630","url":"https://gershmanlab.com/experiments/alicia/teaching/experiment/?hitId=3SD15I2WD2G0NA4TSPXGB81L5S7630&workerId=A3T3KEK5G6JYTZ&assignmentId=3CPLWGV3MPLWVHXVZHP9TFMGZZA9NQ&a=3WPC9&tp_a=3WPC9&b=3CPLWGV3MPLWVHXVZHP9TFMGZZA9NQ&tp_b=3CPLWGV3MPLWVHXVZHP9TFMGZZA9NQ&c=365799&tp_c=365799"},{"rt":null,"stimulus":"<div style=\"font-size:60px;\">Next student</div>","response":null,"trial_type":"html-keyboard-response","trial_index":54,"time_elapsed":779172,"internal_node_id":"0.0-32.0-0.0","params":{"nStudents":24,"maxFlips":30,"completionMinutes":45,"basePay":8,"maxBonus":9,"perTrialBonus":0.5,"perTrialBonusThreshold":0.05,"exampleCost":0.01},"classroomParams":{"A":{"a":1,"b":4},"B":{"a":4,"b":1},"C":{"a":2,"b":8},"D":{"a":8,"b":2}},"conditions":["nonSeqFull","nonSeqPartial","seqNoFeedback","seqFeedback"],"classroomPairings":[["A","B"],["C","D"]],"coinWeights":[0.2,0.5,0.8],"subjectId":"A3T3KEK5G6JYTZ","assignmentId":"3CPLWGV3MPLWVHXVZHP9TFMGZZA9NQ","hitId":"3SD15I2WD2G0NA4TSPXGB81L5S7630","url":"https://gershmanlab.com/experiments/alicia/teaching/experiment/?hitId=3SD15I2WD2G0NA4TSPXGB81L5S7630&workerId=A3T3KEK5G6JYTZ&assignmentId=3CPLWGV3MPLWVHXVZHP9TFMGZZA9NQ&a=3WPC9&tp_a=3WPC9&b=3CPLWGV3MPLWVHXVZHP9TFMGZZA9NQ&tp_b=3CPLWGV3MPLWVHXVZHP9TFMGZZA9NQ&c=365799&tp_c=365799"},{"rt":3808,"stimulus":"\n            <h4 style=\"color:Orange;\">Student 5</h4>\n            <h2>The weight of your coin is <b style=\"color:Tomato;\">0.2</b>.</h2>\n            <p>In this block, you will be giving <b>two</b> sets of examples to Student 5.</p>\n                <p>You will receive feedback at the end of the block.</p>\n            <p></p>","response":0,"trial_type":"html-button-response","trial_index":55,"time_elapsed":782981,"internal_node_id":"0.0-33.0","params":{"nStudents":24,"maxFlips":30,"completionMinutes":45,"basePay":8,"maxBonus":9,"perTrialBonus":0.5,"perTrialBonusThreshold":0.05,"exampleCost":0.01},"classroomParams":{"A":{"a":1,"b":4},"B":{"a":4,"b":1},"C":{"a":2,"b":8},"D":{"a":8,"b":2}},"conditions":["nonSeqFull","nonSeqPartial","seqNoFeedback","seqFeedback"],"classroomPairings":[["A","B"],["C","D"]],"coinWeights":[0.2,0.5,0.8],"subjectId":"A3T3KEK5G6JYTZ","assignmentId":"3CPLWGV3MPLWVHXVZHP9TFMGZZA9NQ","hitId":"3SD15I2WD2G0NA4TSPXGB81L5S7630","url":"https://gershmanlab.com/experiments/alicia/teaching/experiment/?hitId=3SD15I2WD2G0NA4TSPXGB81L5S7630&workerId=A3T3KEK5G6JYTZ&assignmentId=3CPLWGV3MPLWVHXVZHP9TFMGZZA9NQ&a=3WPC9&tp_a=3WPC9&b=3CPLWGV3MPLWVHXVZHP9TFMGZZA9NQ&tp_b=3CPLWGV3MPLWVHXVZHP9TFMGZZA9NQ&c=365799&tp_c=365799"},{"rt":28421,"response":{"heads":"1","tails":"4"},"type":"response","condition":"seqNoFeedback","trueTheta":0.2,"classrooms":["A","B"],"studentTrueClassroom":"B","exampleSet":"first","trial_type":"survey-html-form","trial_index":56,"time_elapsed":811403,"internal_node_id":"0.0-34.0-0.0","params":{"nStudents":24,"maxFlips":30,"completionMinutes":45,"basePay":8,"maxBonus":9,"perTrialBonus":0.5,"perTrialBonusThreshold":0.05,"exampleCost":0.01},"classroomParams":{"A":{"a":1,"b":4},"B":{"a":4,"b":1},"C":{"a":2,"b":8},"D":{"a":8,"b":2}},"conditions":["nonSeqFull","nonSeqPartial","seqNoFeedback","seqFeedback"],"classroomPairings":[["A","B"],["C","D"]],"coinWeights":[0.2,0.5,0.8],"subjectId":"A3T3KEK5G6JYTZ","assignmentId":"3CPLWGV3MPLWVHXVZHP9TFMGZZA9NQ","hitId":"3SD15I2WD2G0NA4TSPXGB81L5S7630","url":"https://gershmanlab.com/experiments/alicia/teaching/experiment/?hitId=3SD15I2WD2G0NA4TSPXGB81L5S7630&workerId=A3T3KEK5G6JYTZ&assignmentId=3CPLWGV3MPLWVHXVZHP9TFMGZZA9NQ&a=3WPC9&tp_a=3WPC9&b=3CPLWGV3MPLWVHXVZHP9TFMGZZA9NQ&tp_b=3CPLWGV3MPLWVHXVZHP9TFMGZZA9NQ&c=365799&tp_c=365799","heads":1,"tails":4,"studentIndex":4,"studentTrueHypers":{"a":4,"b":1},"studentGuess":0.5,"delta":0.3,"totalExamples":5,"bonusSoFar":1.1},{"rt":null,"stimulus":"Sending examples to student... ","response":null,"trial_type":"html-keyboard-response","trial_index":57,"time_elapsed":813159,"internal_node_id":"0.0-35.0","params":{"nStudents":24,"maxFlips":30,"completionMinutes":45,"basePay":8,"maxBonus":9,"perTrialBonus":0.5,"perTrialBonusThreshold":0.05,"exampleCost":0.01},"classroomParams":{"A":{"a":1,"b":4},"B":{"a":4,"b":1},"C":{"a":2,"b":8},"D":{"a":8,"b":2}},"conditions":["nonSeqFull","nonSeqPartial","seqNoFeedback","seqFeedback"],"classroomPairings":[["A","B"],["C","D"]],"coinWeights":[0.2,0.5,0.8],"subjectId":"A3T3KEK5G6JYTZ","assignmentId":"3CPLWGV3MPLWVHXVZHP9TFMGZZA9NQ","hitId":"3SD15I2WD2G0NA4TSPXGB81L5S7630","url":"https://gershmanlab.com/experiments/alicia/teaching/experiment/?hitId=3SD15I2WD2G0NA4TSPXGB81L5S7630&workerId=A3T3KEK5G6JYTZ&assignmentId=3CPLWGV3MPLWVHXVZHP9TFMGZZA9NQ&a=3WPC9&tp_a=3WPC9&b=3CPLWGV3MPLWVHXVZHP9TFMGZZA9NQ&tp_b=3CPLWGV3MPLWVHXVZHP9TFMGZZA9NQ&c=365799&tp_c=365799"},{"rt":null,"stimulus":"Examples sent to student! Waiting for student...","response":null,"trial_type":"html-keyboard-response","trial_index":58,"time_elapsed":818663,"internal_node_id":"0.0-36.0","params":{"nStudents":24,"maxFlips":30,"completionMinutes":45,"basePay":8,"maxBonus":9,"perTrialBonus":0.5,"perTrialBonusThreshold":0.05,"exampleCost":0.01},"classroomParams":{"A":{"a":1,"b":4},"B":{"a":4,"b":1},"C":{"a":2,"b":8},"D":{"a":8,"b":2}},"conditions":["nonSeqFull","nonSeqPartial","seqNoFeedback","seqFeedback"],"classroomPairings":[["A","B"],["C","D"]],"coinWeights":[0.2,0.5,0.8],"subjectId":"A3T3KEK5G6JYTZ","assignmentId":"3CPLWGV3MPLWVHXVZHP9TFMGZZA9NQ","hitId":"3SD15I2WD2G0NA4TSPXGB81L5S7630","url":"https://gershmanlab.com/experiments/alicia/teaching/experiment/?hitId=3SD15I2WD2G0NA4TSPXGB81L5S7630&workerId=A3T3KEK5G6JYTZ&assignmentId=3CPLWGV3MPLWVHXVZHP9TFMGZZA9NQ&a=3WPC9&tp_a=3WPC9&b=3CPLWGV3MPLWVHXVZHP9TFMGZZA9NQ&tp_b=3CPLWGV3MPLWVHXVZHP9TFMGZZA9NQ&c=365799&tp_c=365799"},{"rt":20916,"response":{"heads":"4","tails":"16"},"type":"response","condition":"seqNoFeedback","trueTheta":0.2,"classrooms":["A","B"],"studentTrueClassroom":"B","exampleSet":"second","trial_type":"survey-html-form","trial_index":59,"time_elapsed":839581,"internal_node_id":"0.0-37.0-0.0","params":{"nStudents":24,"maxFlips":30,"completionMinutes":45,"basePay":8,"maxBonus":9,"perTrialBonus":0.5,"perTrialBonusThreshold":0.05,"exampleCost":0.01},"classroomParams":{"A":{"a":1,"b":4},"B":{"a":4,"b":1},"C":{"a":2,"b":8},"D":{"a":8,"b":2}},"conditions":["nonSeqFull","nonSeqPartial","seqNoFeedback","seqFeedback"],"classroomPairings":[["A","B"],["C","D"]],"coinWeights":[0.2,0.5,0.8],"subjectId":"A3T3KEK5G6JYTZ","assignmentId":"3CPLWGV3MPLWVHXVZHP9TFMGZZA9NQ","hitId":"3SD15I2WD2G0NA4TSPXGB81L5S7630","url":"https://gershmanlab.com/experiments/alicia/teaching/experiment/?hitId=3SD15I2WD2G0NA4TSPXGB81L5S7630&workerId=A3T3KEK5G6JYTZ&assignmentId=3CPLWGV3MPLWVHXVZHP9TFMGZZA9NQ&a=3WPC9&tp_a=3WPC9&b=3CPLWGV3MPLWVHXVZHP9TFMGZZA9NQ&tp_b=3CPLWGV3MPLWVHXVZHP9TFMGZZA9NQ&c=365799&tp_c=365799","firstResponseHeads":1,"firstResponseTails":4,"secondResponseHeads":4,"secondResponseTails":16,"totalHeads":5,"totalTails":20,"studentIndex":4,"studentTrueHypers":{"a":4,"b":1},"studentGuess":0.3,"delta":0.09999999999999998,"bonus":0,"bonusSoFar":1.1,"totalExamples":25},{"rt":null,"stimulus":"Sending examples to student... ","response":null,"trial_type":"html-keyboard-response","trial_index":60,"time_elapsed":841337,"internal_node_id":"0.0-38.0","params":{"nStudents":24,"maxFlips":30,"completionMinutes":45,"basePay":8,"maxBonus":9,"perTrialBonus":0.5,"perTrialBonusThreshold":0.05,"exampleCost":0.01},"classroomParams":{"A":{"a":1,"b":4},"B":{"a":4,"b":1},"C":{"a":2,"b":8},"D":{"a":8,"b":2}},"conditions":["nonSeqFull","nonSeqPartial","seqNoFeedback","seqFeedback"],"classroomPairings":[["A","B"],["C","D"]],"coinWeights":[0.2,0.5,0.8],"subjectId":"A3T3KEK5G6JYTZ","assignmentId":"3CPLWGV3MPLWVHXVZHP9TFMGZZA9NQ","hitId":"3SD15I2WD2G0NA4TSPXGB81L5S7630","url":"https://gershmanlab.com/experiments/alicia/teaching/experiment/?hitId=3SD15I2WD2G0NA4TSPXGB81L5S7630&workerId=A3T3KEK5G6JYTZ&assignmentId=3CPLWGV3MPLWVHXVZHP9TFMGZZA9NQ&a=3WPC9&tp_a=3WPC9&b=3CPLWGV3MPLWVHXVZHP9TFMGZZA9NQ&tp_b=3CPLWGV3MPLWVHXVZHP9TFMGZZA9NQ&c=365799&tp_c=365799"},{"rt":null,"stimulus":"Examples sent to student! Waiting for student...","response":null,"trial_type":"html-keyboard-response","trial_index":61,"time_elapsed":846341,"internal_node_id":"0.0-39.0","params":{"nStudents":24,"maxFlips":30,"completionMinutes":45,"basePay":8,"maxBonus":9,"perTrialBonus":0.5,"perTrialBonusThreshold":0.05,"exampleCost":0.01},"classroomParams":{"A":{"a":1,"b":4},"B":{"a":4,"b":1},"C":{"a":2,"b":8},"D":{"a":8,"b":2}},"conditions":["nonSeqFull","nonSeqPartial","seqNoFeedback","seqFeedback"],"classroomPairings":[["A","B"],["C","D"]],"coinWeights":[0.2,0.5,0.8],"subjectId":"A3T3KEK5G6JYTZ","assignmentId":"3CPLWGV3MPLWVHXVZHP9TFMGZZA9NQ","hitId":"3SD15I2WD2G0NA4TSPXGB81L5S7630","url":"https://gershmanlab.com/experiments/alicia/teaching/experiment/?hitId=3SD15I2WD2G0NA4TSPXGB81L5S7630&workerId=A3T3KEK5G6JYTZ&assignmentId=3CPLWGV3MPLWVHXVZHP9TFMGZZA9NQ&a=3WPC9&tp_a=3WPC9&b=3CPLWGV3MPLWVHXVZHP9TFMGZZA9NQ&tp_b=3CPLWGV3MPLWVHXVZHP9TFMGZZA9NQ&c=365799&tp_c=365799"},{"rt":6218,"stimulus":"\n                <p>Student 5's first guess for coin weight: <b style=\"color:Tomato\";>0.50</b></p>\n                <p>Student 5's second guess for coin weight: <b style=\"color:Tomato\";>0.30</b></p>\n                <p>You received a bonus of <b>$0.00</b> based on the student's second guess.</p>\n                <p>Total bonus so far: <b>$1.10</b></p>\n                <p>Press any key to continue.</p>\n                ","response":" ","trial_type":"html-keyboard-response","trial_index":62,"time_elapsed":852561,"internal_node_id":"0.0-40.0","params":{"nStudents":24,"maxFlips":30,"completionMinutes":45,"basePay":8,"maxBonus":9,"perTrialBonus":0.5,"perTrialBonusThreshold":0.05,"exampleCost":0.01},"classroomParams":{"A":{"a":1,"b":4},"B":{"a":4,"b":1},"C":{"a":2,"b":8},"D":{"a":8,"b":2}},"conditions":["nonSeqFull","nonSeqPartial","seqNoFeedback","seqFeedback"],"classroomPairings":[["A","B"],["C","D"]],"coinWeights":[0.2,0.5,0.8],"subjectId":"A3T3KEK5G6JYTZ","assignmentId":"3CPLWGV3MPLWVHXVZHP9TFMGZZA9NQ","hitId":"3SD15I2WD2G0NA4TSPXGB81L5S7630","url":"https://gershmanlab.com/experiments/alicia/teaching/experiment/?hitId=3SD15I2WD2G0NA4TSPXGB81L5S7630&workerId=A3T3KEK5G6JYTZ&assignmentId=3CPLWGV3MPLWVHXVZHP9TFMGZZA9NQ&a=3WPC9&tp_a=3WPC9&b=3CPLWGV3MPLWVHXVZHP9TFMGZZA9NQ&tp_b=3CPLWGV3MPLWVHXVZHP9TFMGZZA9NQ&c=365799&tp_c=365799"},{"rt":null,"stimulus":"<div style=\"font-size:60px;\">Next student</div>","response":null,"trial_type":"html-keyboard-response","trial_index":63,"time_elapsed":855565,"internal_node_id":"0.0-41.0-0.0","params":{"nStudents":24,"maxFlips":30,"completionMinutes":45,"basePay":8,"maxBonus":9,"perTrialBonus":0.5,"perTrialBonusThreshold":0.05,"exampleCost":0.01},"classroomParams":{"A":{"a":1,"b":4},"B":{"a":4,"b":1},"C":{"a":2,"b":8},"D":{"a":8,"b":2}},"conditions":["nonSeqFull","nonSeqPartial","seqNoFeedback","seqFeedback"],"classroomPairings":[["A","B"],["C","D"]],"coinWeights":[0.2,0.5,0.8],"subjectId":"A3T3KEK5G6JYTZ","assignmentId":"3CPLWGV3MPLWVHXVZHP9TFMGZZA9NQ","hitId":"3SD15I2WD2G0NA4TSPXGB81L5S7630","url":"https://gershmanlab.com/experiments/alicia/teaching/experiment/?hitId=3SD15I2WD2G0NA4TSPXGB81L5S7630&workerId=A3T3KEK5G6JYTZ&assignmentId=3CPLWGV3MPLWVHXVZHP9TFMGZZA9NQ&a=3WPC9&tp_a=3WPC9&b=3CPLWGV3MPLWVHXVZHP9TFMGZZA9NQ&tp_b=3CPLWGV3MPLWVHXVZHP9TFMGZZA9NQ&c=365799&tp_c=365799"},{"rt":2543,"stimulus":"\n            <h4 style=\"color:Orange;\">Student 6</h4>\n            <h2>The weight of your coin is <b style=\"color:Tomato;\">0.5</b>.</h2>\n            <p>In this block, you will be giving <b>two</b> sets of examples to Student 6.</p>\n                <p>You will receive feedback at the end of the block.</p>\n            <p></p>","response":0,"trial_type":"html-button-response","trial_index":64,"time_elapsed":858109,"internal_node_id":"0.0-42.0","params":{"nStudents":24,"maxFlips":30,"completionMinutes":45,"basePay":8,"maxBonus":9,"perTrialBonus":0.5,"perTrialBonusThreshold":0.05,"exampleCost":0.01},"classroomParams":{"A":{"a":1,"b":4},"B":{"a":4,"b":1},"C":{"a":2,"b":8},"D":{"a":8,"b":2}},"conditions":["nonSeqFull","nonSeqPartial","seqNoFeedback","seqFeedback"],"classroomPairings":[["A","B"],["C","D"]],"coinWeights":[0.2,0.5,0.8],"subjectId":"A3T3KEK5G6JYTZ","assignmentId":"3CPLWGV3MPLWVHXVZHP9TFMGZZA9NQ","hitId":"3SD15I2WD2G0NA4TSPXGB81L5S7630","url":"https://gershmanlab.com/experiments/alicia/teaching/experiment/?hitId=3SD15I2WD2G0NA4TSPXGB81L5S7630&workerId=A3T3KEK5G6JYTZ&assignmentId=3CPLWGV3MPLWVHXVZHP9TFMGZZA9NQ&a=3WPC9&tp_a=3WPC9&b=3CPLWGV3MPLWVHXVZHP9TFMGZZA9NQ&tp_b=3CPLWGV3MPLWVHXVZHP9TFMGZZA9NQ&c=365799&tp_c=365799"},{"rt":9792,"response":{"heads":"15","tails":"15"},"type":"response","condition":"seqNoFeedback","trueTheta":0.5,"classrooms":["C","D"],"studentTrueClassroom":"C","exampleSet":"first","trial_type":"survey-html-form","trial_index":65,"time_elapsed":867902,"internal_node_id":"0.0-43.0-0.0","params":{"nStudents":24,"maxFlips":30,"completionMinutes":45,"basePay":8,"maxBonus":9,"perTrialBonus":0.5,"perTrialBonusThreshold":0.05,"exampleCost":0.01},"classroomParams":{"A":{"a":1,"b":4},"B":{"a":4,"b":1},"C":{"a":2,"b":8},"D":{"a":8,"b":2}},"conditions":["nonSeqFull","nonSeqPartial","seqNoFeedback","seqFeedback"],"classroomPairings":[["A","B"],["C","D"]],"coinWeights":[0.2,0.5,0.8],"subjectId":"A3T3KEK5G6JYTZ","assignmentId":"3CPLWGV3MPLWVHXVZHP9TFMGZZA9NQ","hitId":"3SD15I2WD2G0NA4TSPXGB81L5S7630","url":"https://gershmanlab.com/experiments/alicia/teaching/experiment/?hitId=3SD15I2WD2G0NA4TSPXGB81L5S7630&workerId=A3T3KEK5G6JYTZ&assignmentId=3CPLWGV3MPLWVHXVZHP9TFMGZZA9NQ&a=3WPC9&tp_a=3WPC9&b=3CPLWGV3MPLWVHXVZHP9TFMGZZA9NQ&tp_b=3CPLWGV3MPLWVHXVZHP9TFMGZZA9NQ&c=365799&tp_c=365799","heads":15,"tails":15,"studentIndex":5,"studentTrueHypers":{"a":2,"b":8},"studentGuess":0.425,"delta":0.07500000000000001,"totalExamples":30,"bonusSoFar":1.1},{"rt":null,"stimulus":"Sending examples to student... ","response":null,"trial_type":"html-keyboard-response","trial_index":66,"time_elapsed":869907,"internal_node_id":"0.0-44.0","params":{"nStudents":24,"maxFlips":30,"completionMinutes":45,"basePay":8,"maxBonus":9,"perTrialBonus":0.5,"perTrialBonusThreshold":0.05,"exampleCost":0.01},"classroomParams":{"A":{"a":1,"b":4},"B":{"a":4,"b":1},"C":{"a":2,"b":8},"D":{"a":8,"b":2}},"conditions":["nonSeqFull","nonSeqPartial","seqNoFeedback","seqFeedback"],"classroomPairings":[["A","B"],["C","D"]],"coinWeights":[0.2,0.5,0.8],"subjectId":"A3T3KEK5G6JYTZ","assignmentId":"3CPLWGV3MPLWVHXVZHP9TFMGZZA9NQ","hitId":"3SD15I2WD2G0NA4TSPXGB81L5S7630","url":"https://gershmanlab.com/experiments/alicia/teaching/experiment/?hitId=3SD15I2WD2G0NA4TSPXGB81L5S7630&workerId=A3T3KEK5G6JYTZ&assignmentId=3CPLWGV3MPLWVHXVZHP9TFMGZZA9NQ&a=3WPC9&tp_a=3WPC9&b=3CPLWGV3MPLWVHXVZHP9TFMGZZA9NQ&tp_b=3CPLWGV3MPLWVHXVZHP9TFMGZZA9NQ&c=365799&tp_c=365799"},{"rt":null,"stimulus":"Examples sent to student! Waiting for student...","response":null,"trial_type":"html-keyboard-response","trial_index":67,"time_elapsed":875412,"internal_node_id":"0.0-45.0","params":{"nStudents":24,"maxFlips":30,"completionMinutes":45,"basePay":8,"maxBonus":9,"perTrialBonus":0.5,"perTrialBonusThreshold":0.05,"exampleCost":0.01},"classroomParams":{"A":{"a":1,"b":4},"B":{"a":4,"b":1},"C":{"a":2,"b":8},"D":{"a":8,"b":2}},"conditions":["nonSeqFull","nonSeqPartial","seqNoFeedback","seqFeedback"],"classroomPairings":[["A","B"],["C","D"]],"coinWeights":[0.2,0.5,0.8],"subjectId":"A3T3KEK5G6JYTZ","assignmentId":"3CPLWGV3MPLWVHXVZHP9TFMGZZA9NQ","hitId":"3SD15I2WD2G0NA4TSPXGB81L5S7630","url":"https://gershmanlab.com/experiments/alicia/teaching/experiment/?hitId=3SD15I2WD2G0NA4TSPXGB81L5S7630&workerId=A3T3KEK5G6JYTZ&assignmentId=3CPLWGV3MPLWVHXVZHP9TFMGZZA9NQ&a=3WPC9&tp_a=3WPC9&b=3CPLWGV3MPLWVHXVZHP9TFMGZZA9NQ&tp_b=3CPLWGV3MPLWVHXVZHP9TFMGZZA9NQ&c=365799&tp_c=365799"},{"rt":5503,"response":{"heads":"15","tails":"15"},"type":"response","condition":"seqNoFeedback","trueTheta":0.5,"classrooms":["C","D"],"studentTrueClassroom":"C","exampleSet":"second","trial_type":"survey-html-form","trial_index":68,"time_elapsed":880916,"internal_node_id":"0.0-46.0-0.0","params":{"nStudents":24,"maxFlips":30,"completionMinutes":45,"basePay":8,"maxBonus":9,"perTrialBonus":0.5,"perTrialBonusThreshold":0.05,"exampleCost":0.01},"classroomParams":{"A":{"a":1,"b":4},"B":{"a":4,"b":1},"C":{"a":2,"b":8},"D":{"a":8,"b":2}},"conditions":["nonSeqFull","nonSeqPartial","seqNoFeedback","seqFeedback"],"classroomPairings":[["A","B"],["C","D"]],"coinWeights":[0.2,0.5,0.8],"subjectId":"A3T3KEK5G6JYTZ","assignmentId":"3CPLWGV3MPLWVHXVZHP9TFMGZZA9NQ","hitId":"3SD15I2WD2G0NA4TSPXGB81L5S7630","url":"https://gershmanlab.com/experiments/alicia/teaching/experiment/?hitId=3SD15I2WD2G0NA4TSPXGB81L5S7630&workerId=A3T3KEK5G6JYTZ&assignmentId=3CPLWGV3MPLWVHXVZHP9TFMGZZA9NQ&a=3WPC9&tp_a=3WPC9&b=3CPLWGV3MPLWVHXVZHP9TFMGZZA9NQ&tp_b=3CPLWGV3MPLWVHXVZHP9TFMGZZA9NQ&c=365799&tp_c=365799","firstResponseHeads":15,"firstResponseTails":15,"secondResponseHeads":15,"secondResponseTails":15,"totalHeads":30,"totalTails":30,"studentIndex":5,"studentTrueHypers":{"a":2,"b":8},"studentGuess":0.45714285714285713,"delta":0.04285714285714287,"bonus":0,"bonusSoFar":1.1,"totalExamples":60},{"rt":null,"stimulus":"Sending examples to student... ","response":null,"trial_type":"html-keyboard-response","trial_index":69,"time_elapsed":882918,"internal_node_id":"0.0-47.0","params":{"nStudents":24,"maxFlips":30,"completionMinutes":45,"basePay":8,"maxBonus":9,"perTrialBonus":0.5,"perTrialBonusThreshold":0.05,"exampleCost":0.01},"classroomParams":{"A":{"a":1,"b":4},"B":{"a":4,"b":1},"C":{"a":2,"b":8},"D":{"a":8,"b":2}},"conditions":["nonSeqFull","nonSeqPartial","seqNoFeedback","seqFeedback"],"classroomPairings":[["A","B"],["C","D"]],"coinWeights":[0.2,0.5,0.8],"subjectId":"A3T3KEK5G6JYTZ","assignmentId":"3CPLWGV3MPLWVHXVZHP9TFMGZZA9NQ","hitId":"3SD15I2WD2G0NA4TSPXGB81L5S7630","url":"https://gershmanlab.com/experiments/alicia/teaching/experiment/?hitId=3SD15I2WD2G0NA4TSPXGB81L5S7630&workerId=A3T3KEK5G6JYTZ&assignmentId=3CPLWGV3MPLWVHXVZHP9TFMGZZA9NQ&a=3WPC9&tp_a=3WPC9&b=3CPLWGV3MPLWVHXVZHP9TFMGZZA9NQ&tp_b=3CPLWGV3MPLWVHXVZHP9TFMGZZA9NQ&c=365799&tp_c=365799"},{"rt":null,"stimulus":"Examples sent to student! Waiting for student...","response":null,"trial_type":"html-keyboard-response","trial_index":70,"time_elapsed":887423,"internal_node_id":"0.0-48.0","params":{"nStudents":24,"maxFlips":30,"completionMinutes":45,"basePay":8,"maxBonus":9,"perTrialBonus":0.5,"perTrialBonusThreshold":0.05,"exampleCost":0.01},"classroomParams":{"A":{"a":1,"b":4},"B":{"a":4,"b":1},"C":{"a":2,"b":8},"D":{"a":8,"b":2}},"conditions":["nonSeqFull","nonSeqPartial","seqNoFeedback","seqFeedback"],"classroomPairings":[["A","B"],["C","D"]],"coinWeights":[0.2,0.5,0.8],"subjectId":"A3T3KEK5G6JYTZ","assignmentId":"3CPLWGV3MPLWVHXVZHP9TFMGZZA9NQ","hitId":"3SD15I2WD2G0NA4TSPXGB81L5S7630","url":"https://gershmanlab.com/experiments/alicia/teaching/experiment/?hitId=3SD15I2WD2G0NA4TSPXGB81L5S7630&workerId=A3T3KEK5G6JYTZ&assignmentId=3CPLWGV3MPLWVHXVZHP9TFMGZZA9NQ&a=3WPC9&tp_a=3WPC9&b=3CPLWGV3MPLWVHXVZHP9TFMGZZA9NQ&tp_b=3CPLWGV3MPLWVHXVZHP9TFMGZZA9NQ&c=365799&tp_c=365799"},{"rt":6125,"stimulus":"\n                <p>Student 6's first guess for coin weight: <b style=\"color:Tomato\";>0.42</b></p>\n                <p>Student 6's second guess for coin weight: <b style=\"color:Tomato\";>0.46</b></p>\n                <p>You received a bonus of <b>$0.00</b> based on the student's second guess.</p>\n                <p>Total bonus so far: <b>$1.10</b></p>\n                <p>Press any key to continue.</p>\n                ","response":" ","trial_type":"html-keyboard-response","trial_index":71,"time_elapsed":893549,"internal_node_id":"0.0-49.0","params":{"nStudents":24,"maxFlips":30,"completionMinutes":45,"basePay":8,"maxBonus":9,"perTrialBonus":0.5,"perTrialBonusThreshold":0.05,"exampleCost":0.01},"classroomParams":{"A":{"a":1,"b":4},"B":{"a":4,"b":1},"C":{"a":2,"b":8},"D":{"a":8,"b":2}},"conditions":["nonSeqFull","nonSeqPartial","seqNoFeedback","seqFeedback"],"classroomPairings":[["A","B"],["C","D"]],"coinWeights":[0.2,0.5,0.8],"subjectId":"A3T3KEK5G6JYTZ","assignmentId":"3CPLWGV3MPLWVHXVZHP9TFMGZZA9NQ","hitId":"3SD15I2WD2G0NA4TSPXGB81L5S7630","url":"https://gershmanlab.com/experiments/alicia/teaching/experiment/?hitId=3SD15I2WD2G0NA4TSPXGB81L5S7630&workerId=A3T3KEK5G6JYTZ&assignmentId=3CPLWGV3MPLWVHXVZHP9TFMGZZA9NQ&a=3WPC9&tp_a=3WPC9&b=3CPLWGV3MPLWVHXVZHP9TFMGZZA9NQ&tp_b=3CPLWGV3MPLWVHXVZHP9TFMGZZA9NQ&c=365799&tp_c=365799"},{"rt":null,"stimulus":"<div style=\"font-size:60px;\">Next student</div>","response":null,"trial_type":"html-keyboard-response","trial_index":72,"time_elapsed":896554,"internal_node_id":"0.0-50.0-0.0","params":{"nStudents":24,"maxFlips":30,"completionMinutes":45,"basePay":8,"maxBonus":9,"perTrialBonus":0.5,"perTrialBonusThreshold":0.05,"exampleCost":0.01},"classroomParams":{"A":{"a":1,"b":4},"B":{"a":4,"b":1},"C":{"a":2,"b":8},"D":{"a":8,"b":2}},"conditions":["nonSeqFull","nonSeqPartial","seqNoFeedback","seqFeedback"],"classroomPairings":[["A","B"],["C","D"]],"coinWeights":[0.2,0.5,0.8],"subjectId":"A3T3KEK5G6JYTZ","assignmentId":"3CPLWGV3MPLWVHXVZHP9TFMGZZA9NQ","hitId":"3SD15I2WD2G0NA4TSPXGB81L5S7630","url":"https://gershmanlab.com/experiments/alicia/teaching/experiment/?hitId=3SD15I2WD2G0NA4TSPXGB81L5S7630&workerId=A3T3KEK5G6JYTZ&assignmentId=3CPLWGV3MPLWVHXVZHP9TFMGZZA9NQ&a=3WPC9&tp_a=3WPC9&b=3CPLWGV3MPLWVHXVZHP9TFMGZZA9NQ&tp_b=3CPLWGV3MPLWVHXVZHP9TFMGZZA9NQ&c=365799&tp_c=365799"},{"rt":2622,"stimulus":"\n            <h4 style=\"color:Orange;\">Student 7</h4>\n            <h2>The weight of your coin is <b style=\"color:Tomato;\">0.2</b>.</h2>\n            <p>In this block, you will be giving <b>one</b> set of examples to Student 7.</p>\n                <p>You will receive feedback at the end of the block.</p>\n            <p></p>","response":0,"trial_type":"html-button-response","trial_index":73,"time_elapsed":899177,"internal_node_id":"0.0-51.0","params":{"nStudents":24,"maxFlips":30,"completionMinutes":45,"basePay":8,"maxBonus":9,"perTrialBonus":0.5,"perTrialBonusThreshold":0.05,"exampleCost":0.01},"classroomParams":{"A":{"a":1,"b":4},"B":{"a":4,"b":1},"C":{"a":2,"b":8},"D":{"a":8,"b":2}},"conditions":["nonSeqFull","nonSeqPartial","seqNoFeedback","seqFeedback"],"classroomPairings":[["A","B"],["C","D"]],"coinWeights":[0.2,0.5,0.8],"subjectId":"A3T3KEK5G6JYTZ","assignmentId":"3CPLWGV3MPLWVHXVZHP9TFMGZZA9NQ","hitId":"3SD15I2WD2G0NA4TSPXGB81L5S7630","url":"https://gershmanlab.com/experiments/alicia/teaching/experiment/?hitId=3SD15I2WD2G0NA4TSPXGB81L5S7630&workerId=A3T3KEK5G6JYTZ&assignmentId=3CPLWGV3MPLWVHXVZHP9TFMGZZA9NQ&a=3WPC9&tp_a=3WPC9&b=3CPLWGV3MPLWVHXVZHP9TFMGZZA9NQ&tp_b=3CPLWGV3MPLWVHXVZHP9TFMGZZA9NQ&c=365799&tp_c=365799"},{"rt":16067,"response":{"heads":"0","tails":"30"},"type":"response","condition":"nonSeqFull","trueTheta":0.2,"classrooms":["C","D"],"studentTrueClassroom":"D","exampleSet":"first","trial_type":"survey-html-form","trial_index":74,"time_elapsed":915246,"internal_node_id":"0.0-52.0-0.0","params":{"nStudents":24,"maxFlips":30,"completionMinutes":45,"basePay":8,"maxBonus":9,"perTrialBonus":0.5,"perTrialBonusThreshold":0.05,"exampleCost":0.01},"classroomParams":{"A":{"a":1,"b":4},"B":{"a":4,"b":1},"C":{"a":2,"b":8},"D":{"a":8,"b":2}},"conditions":["nonSeqFull","nonSeqPartial","seqNoFeedback","seqFeedback"],"classroomPairings":[["A","B"],["C","D"]],"coinWeights":[0.2,0.5,0.8],"subjectId":"A3T3KEK5G6JYTZ","assignmentId":"3CPLWGV3MPLWVHXVZHP9TFMGZZA9NQ","hitId":"3SD15I2WD2G0NA4TSPXGB81L5S7630","url":"https://gershmanlab.com/experiments/alicia/teaching/experiment/?hitId=3SD15I2WD2G0NA4TSPXGB81L5S7630&workerId=A3T3KEK5G6JYTZ&assignmentId=3CPLWGV3MPLWVHXVZHP9TFMGZZA9NQ&a=3WPC9&tp_a=3WPC9&b=3CPLWGV3MPLWVHXVZHP9TFMGZZA9NQ&tp_b=3CPLWGV3MPLWVHXVZHP9TFMGZZA9NQ&c=365799&tp_c=365799","heads":0,"tails":30,"studentIndex":6,"studentTrueHypers":{"a":8,"b":2},"studentGuess":0.2,"delta":0,"totalExamples":30,"bonus":0.2,"bonusSoFar":1.3},{"rt":null,"stimulus":"Sending examples to student... ","response":null,"trial_type":"html-keyboard-response","trial_index":75,"time_elapsed":916749,"internal_node_id":"0.0-53.0","params":{"nStudents":24,"maxFlips":30,"completionMinutes":45,"basePay":8,"maxBonus":9,"perTrialBonus":0.5,"perTrialBonusThreshold":0.05,"exampleCost":0.01},"classroomParams":{"A":{"a":1,"b":4},"B":{"a":4,"b":1},"C":{"a":2,"b":8},"D":{"a":8,"b":2}},"conditions":["nonSeqFull","nonSeqPartial","seqNoFeedback","seqFeedback"],"classroomPairings":[["A","B"],["C","D"]],"coinWeights":[0.2,0.5,0.8],"subjectId":"A3T3KEK5G6JYTZ","assignmentId":"3CPLWGV3MPLWVHXVZHP9TFMGZZA9NQ","hitId":"3SD15I2WD2G0NA4TSPXGB81L5S7630","url":"https://gershmanlab.com/experiments/alicia/teaching/experiment/?hitId=3SD15I2WD2G0NA4TSPXGB81L5S7630&workerId=A3T3KEK5G6JYTZ&assignmentId=3CPLWGV3MPLWVHXVZHP9TFMGZZA9NQ&a=3WPC9&tp_a=3WPC9&b=3CPLWGV3MPLWVHXVZHP9TFMGZZA9NQ&tp_b=3CPLWGV3MPLWVHXVZHP9TFMGZZA9NQ&c=365799&tp_c=365799"},{"rt":null,"stimulus":"Examples sent to student! Waiting for student...","response":null,"trial_type":"html-keyboard-response","trial_index":76,"time_elapsed":921253,"internal_node_id":"0.0-54.0","params":{"nStudents":24,"maxFlips":30,"completionMinutes":45,"basePay":8,"maxBonus":9,"perTrialBonus":0.5,"perTrialBonusThreshold":0.05,"exampleCost":0.01},"classroomParams":{"A":{"a":1,"b":4},"B":{"a":4,"b":1},"C":{"a":2,"b":8},"D":{"a":8,"b":2}},"conditions":["nonSeqFull","nonSeqPartial","seqNoFeedback","seqFeedback"],"classroomPairings":[["A","B"],["C","D"]],"coinWeights":[0.2,0.5,0.8],"subjectId":"A3T3KEK5G6JYTZ","assignmentId":"3CPLWGV3MPLWVHXVZHP9TFMGZZA9NQ","hitId":"3SD15I2WD2G0NA4TSPXGB81L5S7630","url":"https://gershmanlab.com/experiments/alicia/teaching/experiment/?hitId=3SD15I2WD2G0NA4TSPXGB81L5S7630&workerId=A3T3KEK5G6JYTZ&assignmentId=3CPLWGV3MPLWVHXVZHP9TFMGZZA9NQ&a=3WPC9&tp_a=3WPC9&b=3CPLWGV3MPLWVHXVZHP9TFMGZZA9NQ&tp_b=3CPLWGV3MPLWVHXVZHP9TFMGZZA9NQ&c=365799&tp_c=365799"},{"rt":2310,"stimulus":"\n                <p>Student's guess for coin weight: <b style=\"color:Tomato;\">0.20</b></p>\n                <p>You received a bonus of <b>$0.2</b>. Total bonus so far: <b>$1.30</b></b></p>\n                <p></p>\n                <p>Press any key to continue.</p>\n                ","response":" ","trial_type":"html-keyboard-response","trial_index":77,"time_elapsed":923565,"internal_node_id":"0.0-55.0","params":{"nStudents":24,"maxFlips":30,"completionMinutes":45,"basePay":8,"maxBonus":9,"perTrialBonus":0.5,"perTrialBonusThreshold":0.05,"exampleCost":0.01},"classroomParams":{"A":{"a":1,"b":4},"B":{"a":4,"b":1},"C":{"a":2,"b":8},"D":{"a":8,"b":2}},"conditions":["nonSeqFull","nonSeqPartial","seqNoFeedback","seqFeedback"],"classroomPairings":[["A","B"],["C","D"]],"coinWeights":[0.2,0.5,0.8],"subjectId":"A3T3KEK5G6JYTZ","assignmentId":"3CPLWGV3MPLWVHXVZHP9TFMGZZA9NQ","hitId":"3SD15I2WD2G0NA4TSPXGB81L5S7630","url":"https://gershmanlab.com/experiments/alicia/teaching/experiment/?hitId=3SD15I2WD2G0NA4TSPXGB81L5S7630&workerId=A3T3KEK5G6JYTZ&assignmentId=3CPLWGV3MPLWVHXVZHP9TFMGZZA9NQ&a=3WPC9&tp_a=3WPC9&b=3CPLWGV3MPLWVHXVZHP9TFMGZZA9NQ&tp_b=3CPLWGV3MPLWVHXVZHP9TFMGZZA9NQ&c=365799&tp_c=365799"},{"rt":null,"stimulus":"<div style=\"font-size:60px;\">Next student</div>","response":null,"trial_type":"html-keyboard-response","trial_index":78,"time_elapsed":925816,"internal_node_id":"0.0-56.0-0.0","params":{"nStudents":24,"maxFlips":30,"completionMinutes":45,"basePay":8,"maxBonus":9,"perTrialBonus":0.5,"perTrialBonusThreshold":0.05,"exampleCost":0.01},"classroomParams":{"A":{"a":1,"b":4},"B":{"a":4,"b":1},"C":{"a":2,"b":8},"D":{"a":8,"b":2}},"conditions":["nonSeqFull","nonSeqPartial","seqNoFeedback","seqFeedback"],"classroomPairings":[["A","B"],["C","D"]],"coinWeights":[0.2,0.5,0.8],"subjectId":"A3T3KEK5G6JYTZ","assignmentId":"3CPLWGV3MPLWVHXVZHP9TFMGZZA9NQ","hitId":"3SD15I2WD2G0NA4TSPXGB81L5S7630","url":"https://gershmanlab.com/experiments/alicia/teaching/experiment/?hitId=3SD15I2WD2G0NA4TSPXGB81L5S7630&workerId=A3T3KEK5G6JYTZ&assignmentId=3CPLWGV3MPLWVHXVZHP9TFMGZZA9NQ&a=3WPC9&tp_a=3WPC9&b=3CPLWGV3MPLWVHXVZHP9TFMGZZA9NQ&tp_b=3CPLWGV3MPLWVHXVZHP9TFMGZZA9NQ&c=365799&tp_c=365799"},{"rt":5999,"stimulus":"\n            <h4 style=\"color:Orange;\">Student 8</h4>\n            <h2>The weight of your coin is <b style=\"color:Tomato;\">0.5</b>.</h2>\n            <p>In this block, you will be giving <b>two</b> sets of examples to Student 8.</p>\n                <p>You will receive feedback at the end of the block.</p>\n            <p></p>","response":0,"trial_type":"html-button-response","trial_index":79,"time_elapsed":931817,"internal_node_id":"0.0-57.0","params":{"nStudents":24,"maxFlips":30,"completionMinutes":45,"basePay":8,"maxBonus":9,"perTrialBonus":0.5,"perTrialBonusThreshold":0.05,"exampleCost":0.01},"classroomParams":{"A":{"a":1,"b":4},"B":{"a":4,"b":1},"C":{"a":2,"b":8},"D":{"a":8,"b":2}},"conditions":["nonSeqFull","nonSeqPartial","seqNoFeedback","seqFeedback"],"classroomPairings":[["A","B"],["C","D"]],"coinWeights":[0.2,0.5,0.8],"subjectId":"A3T3KEK5G6JYTZ","assignmentId":"3CPLWGV3MPLWVHXVZHP9TFMGZZA9NQ","hitId":"3SD15I2WD2G0NA4TSPXGB81L5S7630","url":"https://gershmanlab.com/experiments/alicia/teaching/experiment/?hitId=3SD15I2WD2G0NA4TSPXGB81L5S7630&workerId=A3T3KEK5G6JYTZ&assignmentId=3CPLWGV3MPLWVHXVZHP9TFMGZZA9NQ&a=3WPC9&tp_a=3WPC9&b=3CPLWGV3MPLWVHXVZHP9TFMGZZA9NQ&tp_b=3CPLWGV3MPLWVHXVZHP9TFMGZZA9NQ&c=365799&tp_c=365799"},{"rt":9995,"response":{"heads":"15","tails":"15"},"type":"response","condition":"seqNoFeedback","trueTheta":0.5,"classrooms":["A","B"],"studentTrueClassroom":"B","exampleSet":"first","trial_type":"survey-html-form","trial_index":80,"time_elapsed":941813,"internal_node_id":"0.0-58.0-0.0","params":{"nStudents":24,"maxFlips":30,"completionMinutes":45,"basePay":8,"maxBonus":9,"perTrialBonus":0.5,"perTrialBonusThreshold":0.05,"exampleCost":0.01},"classroomParams":{"A":{"a":1,"b":4},"B":{"a":4,"b":1},"C":{"a":2,"b":8},"D":{"a":8,"b":2}},"conditions":["nonSeqFull","nonSeqPartial","seqNoFeedback","seqFeedback"],"classroomPairings":[["A","B"],["C","D"]],"coinWeights":[0.2,0.5,0.8],"subjectId":"A3T3KEK5G6JYTZ","assignmentId":"3CPLWGV3MPLWVHXVZHP9TFMGZZA9NQ","hitId":"3SD15I2WD2G0NA4TSPXGB81L5S7630","url":"https://gershmanlab.com/experiments/alicia/teaching/experiment/?hitId=3SD15I2WD2G0NA4TSPXGB81L5S7630&workerId=A3T3KEK5G6JYTZ&assignmentId=3CPLWGV3MPLWVHXVZHP9TFMGZZA9NQ&a=3WPC9&tp_a=3WPC9&b=3CPLWGV3MPLWVHXVZHP9TFMGZZA9NQ&tp_b=3CPLWGV3MPLWVHXVZHP9TFMGZZA9NQ&c=365799&tp_c=365799","heads":15,"tails":15,"studentIndex":7,"studentTrueHypers":{"a":4,"b":1},"studentGuess":0.5428571428571428,"delta":0.042857142857142816,"totalExamples":30,"bonusSoFar":1.3},{"rt":null,"stimulus":"Sending examples to student... ","response":null,"trial_type":"html-keyboard-response","trial_index":81,"time_elapsed":943069,"internal_node_id":"0.0-59.0","params":{"nStudents":24,"maxFlips":30,"completionMinutes":45,"basePay":8,"maxBonus":9,"perTrialBonus":0.5,"perTrialBonusThreshold":0.05,"exampleCost":0.01},"classroomParams":{"A":{"a":1,"b":4},"B":{"a":4,"b":1},"C":{"a":2,"b":8},"D":{"a":8,"b":2}},"conditions":["nonSeqFull","nonSeqPartial","seqNoFeedback","seqFeedback"],"classroomPairings":[["A","B"],["C","D"]],"coinWeights":[0.2,0.5,0.8],"subjectId":"A3T3KEK5G6JYTZ","assignmentId":"3CPLWGV3MPLWVHXVZHP9TFMGZZA9NQ","hitId":"3SD15I2WD2G0NA4TSPXGB81L5S7630","url":"https://gershmanlab.com/experiments/alicia/teaching/experiment/?hitId=3SD15I2WD2G0NA4TSPXGB81L5S7630&workerId=A3T3KEK5G6JYTZ&assignmentId=3CPLWGV3MPLWVHXVZHP9TFMGZZA9NQ&a=3WPC9&tp_a=3WPC9&b=3CPLWGV3MPLWVHXVZHP9TFMGZZA9NQ&tp_b=3CPLWGV3MPLWVHXVZHP9TFMGZZA9NQ&c=365799&tp_c=365799"},{"rt":null,"stimulus":"Examples sent to student! Waiting for student...","response":null,"trial_type":"html-keyboard-response","trial_index":82,"time_elapsed":948572,"internal_node_id":"0.0-60.0","params":{"nStudents":24,"maxFlips":30,"completionMinutes":45,"basePay":8,"maxBonus":9,"perTrialBonus":0.5,"perTrialBonusThreshold":0.05,"exampleCost":0.01},"classroomParams":{"A":{"a":1,"b":4},"B":{"a":4,"b":1},"C":{"a":2,"b":8},"D":{"a":8,"b":2}},"conditions":["nonSeqFull","nonSeqPartial","seqNoFeedback","seqFeedback"],"classroomPairings":[["A","B"],["C","D"]],"coinWeights":[0.2,0.5,0.8],"subjectId":"A3T3KEK5G6JYTZ","assignmentId":"3CPLWGV3MPLWVHXVZHP9TFMGZZA9NQ","hitId":"3SD15I2WD2G0NA4TSPXGB81L5S7630","url":"https://gershmanlab.com/experiments/alicia/teaching/experiment/?hitId=3SD15I2WD2G0NA4TSPXGB81L5S7630&workerId=A3T3KEK5G6JYTZ&assignmentId=3CPLWGV3MPLWVHXVZHP9TFMGZZA9NQ&a=3WPC9&tp_a=3WPC9&b=3CPLWGV3MPLWVHXVZHP9TFMGZZA9NQ&tp_b=3CPLWGV3MPLWVHXVZHP9TFMGZZA9NQ&c=365799&tp_c=365799"},{"rt":3786,"response":{"heads":"15","tails":"15"},"type":"response","condition":"seqNoFeedback","trueTheta":0.5,"classrooms":["A","B"],"studentTrueClassroom":"B","exampleSet":"second","trial_type":"survey-html-form","trial_index":83,"time_elapsed":952359,"internal_node_id":"0.0-61.0-0.0","params":{"nStudents":24,"maxFlips":30,"completionMinutes":45,"basePay":8,"maxBonus":9,"perTrialBonus":0.5,"perTrialBonusThreshold":0.05,"exampleCost":0.01},"classroomParams":{"A":{"a":1,"b":4},"B":{"a":4,"b":1},"C":{"a":2,"b":8},"D":{"a":8,"b":2}},"conditions":["nonSeqFull","nonSeqPartial","seqNoFeedback","seqFeedback"],"classroomPairings":[["A","B"],["C","D"]],"coinWeights":[0.2,0.5,0.8],"subjectId":"A3T3KEK5G6JYTZ","assignmentId":"3CPLWGV3MPLWVHXVZHP9TFMGZZA9NQ","hitId":"3SD15I2WD2G0NA4TSPXGB81L5S7630","url":"https://gershmanlab.com/experiments/alicia/teaching/experiment/?hitId=3SD15I2WD2G0NA4TSPXGB81L5S7630&workerId=A3T3KEK5G6JYTZ&assignmentId=3CPLWGV3MPLWVHXVZHP9TFMGZZA9NQ&a=3WPC9&tp_a=3WPC9&b=3CPLWGV3MPLWVHXVZHP9TFMGZZA9NQ&tp_b=3CPLWGV3MPLWVHXVZHP9TFMGZZA9NQ&c=365799&tp_c=365799","firstResponseHeads":15,"firstResponseTails":15,"secondResponseHeads":15,"secondResponseTails":15,"totalHeads":30,"totalTails":30,"studentIndex":7,"studentTrueHypers":{"a":4,"b":1},"studentGuess":0.5230769230769231,"delta":0.023076923076923106,