[{"rt":2740,"stimulus":"Welcome to the experiment. Press any key to begin.","response":" ","trial_type":"html-keyboard-response","trial_index":0,"time_elapsed":2744,"internal_node_id":"0.0-0.0","params":{"nStudents":24,"maxFlips":30,"completionMinutes":45,"basePay":8,"maxBonus":9,"perTrialBonus":0.5,"perTrialBonusThreshold":0.05,"exampleCost":0.01},"classroomParams":{"A":{"a":1,"b":4},"B":{"a":4,"b":1},"C":{"a":2,"b":8},"D":{"a":8,"b":2}},"conditions":["nonSeqFull","nonSeqPartial","seqNoFeedback","seqFeedback"],"classroomPairings":[["A","B"],["C","D"]],"coinWeights":[0.2,0.5,0.8],"subjectId":"A3TBG0S2IEBVHU","assignmentId":"3COPXFW7XCYGFYSZJTTQND5RA8MKPQ","hitId":"3UDTAB6HH6LRO17U79I9TKUGSHV90J","url":"https://gershmanlab.com/experiments/alicia/teaching/experiment/?hitId=3UDTAB6HH6LRO17U79I9TKUGSHV90J&workerId=A3TBG0S2IEBVHU&assignmentId=3COPXFW7XCYGFYSZJTTQND5RA8MKPQ&a=7XOC9&tp_a=7XOC9&b=3COPXFW7XCYGFYSZJTTQND5RA8MKPQ&tp_b=3COPXFW7XCYGFYSZJTTQND5RA8MKPQ&c=365799&tp_c=365799"},{"rt":3176,"stimulus":"\n        <h3>Please read this consent agreement carefully before deciding whether to participate in this experiment.</h3>\n        <p><b>Purpose of the research:</b> To examine how people teach effectively.</p>\n        <p><b>What you will do in this research:</b> You will teach students the weights of different coins.</p>\n        <p><b>Time required:</b> This experiment will take 45 minutes to complete.</p>\n        <p><b>Risks:</b> There are no anticipated risks associated with participating in this study.             The effects of participating should be comparable to those you would experience from viewing a computer monitor             and using a mouse and keyboard for the duration of the experiment.</p>\n        <p><b>Benefits:</b> The study provides important information about the nature of teaching.</p>\n        <p><b>Compensation:</b> You will receive <b>$8</b> for completing the experiment and a performance bonus of up to <b>$9</b>.</p>\n        <p><b>Confidentiality:</b> Your participation in this study will remain confidential.             No personally identifiable information will be associated with your data.             Your de-identified data may be shared with other researchers and used in future projects.</p>\n        <p><b>Participation and withdrawal:</b> Your participation in this study is completely voluntary and             you may refuse to participate or you may choose to withdraw at any time without penalty or loss of\n            benefits to which you are otherwise entitled.</p>\n        <p><b>How to contact the researcher:</b> If you have questions or concerns about your participation            or payment, or want to request a summary of research findings, please contact\n            Alicia Chen, aliciachen@college.harvard.edu.</p>\n        <p><b>Whom to contact about your rights in this research:</b> For questions, concerns, suggestions,             or complaints that have not been or cannot be addressed by the researcher, or to report             research-related harm, please contact the Committee on the Use of Human Subjects in Research at Harvard University,             1414 Massachusetts Avenue, Second Floor, Cambridge, MA 02138. Phone: 617-496-2847. Email: cuhs@fas.harvard.edu.</p>\n        ","response":0,"trial_type":"html-button-response","trial_index":1,"time_elapsed":5921,"internal_node_id":"0.0-1.0","params":{"nStudents":24,"maxFlips":30,"completionMinutes":45,"basePay":8,"maxBonus":9,"perTrialBonus":0.5,"perTrialBonusThreshold":0.05,"exampleCost":0.01},"classroomParams":{"A":{"a":1,"b":4},"B":{"a":4,"b":1},"C":{"a":2,"b":8},"D":{"a":8,"b":2}},"conditions":["nonSeqFull","nonSeqPartial","seqNoFeedback","seqFeedback"],"classroomPairings":[["A","B"],["C","D"]],"coinWeights":[0.2,0.5,0.8],"subjectId":"A3TBG0S2IEBVHU","assignmentId":"3COPXFW7XCYGFYSZJTTQND5RA8MKPQ","hitId":"3UDTAB6HH6LRO17U79I9TKUGSHV90J","url":"https://gershmanlab.com/experiments/alicia/teaching/experiment/?hitId=3UDTAB6HH6LRO17U79I9TKUGSHV90J&workerId=A3TBG0S2IEBVHU&assignmentId=3COPXFW7XCYGFYSZJTTQND5RA8MKPQ&a=7XOC9&tp_a=7XOC9&b=3COPXFW7XCYGFYSZJTTQND5RA8MKPQ&tp_b=3COPXFW7XCYGFYSZJTTQND5RA8MKPQ&c=365799&tp_c=365799"},{"view_history":[{"page_index":0,"viewing_time":5800},{"page_index":1,"viewing_time":11409},{"page_index":2,"viewing_time":23011},{"page_index":3,"viewing_time":18986},{"page_index":4,"viewing_time":7033},{"page_index":5,"viewing_time":26891},{"page_index":6,"viewing_time":17642}],"rt":110771,"trial_type":"instructions","trial_index":2,"time_elapsed":116693,"internal_node_id":"0.0-2.0-0.0","params":{"nStudents":24,"maxFlips":30,"completionMinutes":45,"basePay":8,"maxBonus":9,"perTrialBonus":0.5,"perTrialBonusThreshold":0.05,"exampleCost":0.01},"classroomParams":{"A":{"a":1,"b":4},"B":{"a":4,"b":1},"C":{"a":2,"b":8},"D":{"a":8,"b":2}},"conditions":["nonSeqFull","nonSeqPartial","seqNoFeedback","seqFeedback"],"classroomPairings":[["A","B"],["C","D"]],"coinWeights":[0.2,0.5,0.8],"subjectId":"A3TBG0S2IEBVHU","assignmentId":"3COPXFW7XCYGFYSZJTTQND5RA8MKPQ","hitId":"3UDTAB6HH6LRO17U79I9TKUGSHV90J","url":"https://gershmanlab.com/experiments/alicia/teaching/experiment/?hitId=3UDTAB6HH6LRO17U79I9TKUGSHV90J&workerId=A3TBG0S2IEBVHU&assignmentId=3COPXFW7XCYGFYSZJTTQND5RA8MKPQ&a=7XOC9&tp_a=7XOC9&b=3COPXFW7XCYGFYSZJTTQND5RA8MKPQ&tp_b=3COPXFW7XCYGFYSZJTTQND5RA8MKPQ&c=365799&tp_c=365799"},{"rt":130549,"response":{"Q0":"Students in different classrooms will have seen a different number of heads and tails before seeing the examples you select for them.","Q1":"By <b>considering the student's classroom information</b> so that I can teach efficiently and accurately/helpfully at the same time (because each example I give to the student costs money!).","Q2":"The coin lands heads 90% of the time.","Q3":"Yes, I might encounter the same student twice.","Q4":"The students are also on the same alien planet as you, where coins can be unfair.","Q5":"Based on the student's second (and final) guess."},"question_order":[5,1,2,3,0,4],"trial_type":"survey-multi-choice","trial_index":3,"time_elapsed":247243,"internal_node_id":"0.0-2.0-1.0","params":{"nStudents":24,"maxFlips":30,"completionMinutes":45,"basePay":8,"maxBonus":9,"perTrialBonus":0.5,"perTrialBonusThreshold":0.05,"exampleCost":0.01},"classroomParams":{"A":{"a":1,"b":4},"B":{"a":4,"b":1},"C":{"a":2,"b":8},"D":{"a":8,"b":2}},"conditions":["nonSeqFull","nonSeqPartial","seqNoFeedback","seqFeedback"],"classroomPairings":[["A","B"],["C","D"]],"coinWeights":[0.2,0.5,0.8],"subjectId":"A3TBG0S2IEBVHU","assignmentId":"3COPXFW7XCYGFYSZJTTQND5RA8MKPQ","hitId":"3UDTAB6HH6LRO17U79I9TKUGSHV90J","url":"https://gershmanlab.com/experiments/alicia/teaching/experiment/?hitId=3UDTAB6HH6LRO17U79I9TKUGSHV90J&workerId=A3TBG0S2IEBVHU&assignmentId=3COPXFW7XCYGFYSZJTTQND5RA8MKPQ&a=7XOC9&tp_a=7XOC9&b=3COPXFW7XCYGFYSZJTTQND5RA8MKPQ&tp_b=3COPXFW7XCYGFYSZJTTQND5RA8MKPQ&c=365799&tp_c=365799","pass":false},{"rt":2317,"stimulus":"Oops, you have missed question(s) on the comprehension check! We'll show you the instructions again.","response":0,"trial_type":"html-button-response","trial_index":4,"time_elapsed":249563,"internal_node_id":"0.0-2.0-2.0-0.0","params":{"nStudents":24,"maxFlips":30,"completionMinutes":45,"basePay":8,"maxBonus":9,"perTrialBonus":0.5,"perTrialBonusThreshold":0.05,"exampleCost":0.01},"classroomParams":{"A":{"a":1,"b":4},"B":{"a":4,"b":1},"C":{"a":2,"b":8},"D":{"a":8,"b":2}},"conditions":["nonSeqFull","nonSeqPartial","seqNoFeedback","seqFeedback"],"classroomPairings":[["A","B"],["C","D"]],"coinWeights":[0.2,0.5,0.8],"subjectId":"A3TBG0S2IEBVHU","assignmentId":"3COPXFW7XCYGFYSZJTTQND5RA8MKPQ","hitId":"3UDTAB6HH6LRO17U79I9TKUGSHV90J","url":"https://gershmanlab.com/experiments/alicia/teaching/experiment/?hitId=3UDTAB6HH6LRO17U79I9TKUGSHV90J&workerId=A3TBG0S2IEBVHU&assignmentId=3COPXFW7XCYGFYSZJTTQND5RA8MKPQ&a=7XOC9&tp_a=7XOC9&b=3COPXFW7XCYGFYSZJTTQND5RA8MKPQ&tp_b=3COPXFW7XCYGFYSZJTTQND5RA8MKPQ&c=365799&tp_c=365799"},{"view_history":[{"page_index":0,"viewing_time":2808},{"page_index":1,"viewing_time":1640},{"page_index":2,"viewing_time":8625},{"page_index":3,"viewing_time":7193},{"page_index":4,"viewing_time":5641},{"page_index":5,"viewing_time":13698},{"page_index":6,"viewing_time":7361}],"rt":46965,"trial_type":"instructions","trial_index":5,"time_elapsed":296528,"internal_node_id":"0.0-2.1-0.1","params":{"nStudents":24,"maxFlips":30,"completionMinutes":45,"basePay":8,"maxBonus":9,"perTrialBonus":0.5,"perTrialBonusThreshold":0.05,"exampleCost":0.01},"classroomParams":{"A":{"a":1,"b":4},"B":{"a":4,"b":1},"C":{"a":2,"b":8},"D":{"a":8,"b":2}},"conditions":["nonSeqFull","nonSeqPartial","seqNoFeedback","seqFeedback"],"classroomPairings":[["A","B"],["C","D"]],"coinWeights":[0.2,0.5,0.8],"subjectId":"A3TBG0S2IEBVHU","assignmentId":"3COPXFW7XCYGFYSZJTTQND5RA8MKPQ","hitId":"3UDTAB6HH6LRO17U79I9TKUGSHV90J","url":"https://gershmanlab.com/experiments/alicia/teaching/experiment/?hitId=3UDTAB6HH6LRO17U79I9TKUGSHV90J&workerId=A3TBG0S2IEBVHU&assignmentId=3COPXFW7XCYGFYSZJTTQND5RA8MKPQ&a=7XOC9&tp_a=7XOC9&b=3COPXFW7XCYGFYSZJTTQND5RA8MKPQ&tp_b=3COPXFW7XCYGFYSZJTTQND5RA8MKPQ&c=365799&tp_c=365799"},{"rt":127165,"response":{"Q0":"Students in different classrooms will have seen a different number of heads and tails before seeing the examples you select for them.","Q1":"By <b>considering the student's classroom information</b> so that I can teach efficiently and accurately/helpfully at the same time (because each example I give to the student costs money!).","Q2":"The coin lands heads 90% of the time.","Q3":"No, I will teach a <b>new</b> student each time.","Q4":"The students are also on the same alien planet as you, where coins can be unfair.","Q5":"Based on the student's second (and final) guess."},"question_order":[0,3,1,2,5,4],"trial_type":"survey-multi-choice","trial_index":6,"time_elapsed":423694,"internal_node_id":"0.0-2.1-1.1","params":{"nStudents":24,"maxFlips":30,"completionMinutes":45,"basePay":8,"maxBonus":9,"perTrialBonus":0.5,"perTrialBonusThreshold":0.05,"exampleCost":0.01},"classroomParams":{"A":{"a":1,"b":4},"B":{"a":4,"b":1},"C":{"a":2,"b":8},"D":{"a":8,"b":2}},"conditions":["nonSeqFull","nonSeqPartial","seqNoFeedback","seqFeedback"],"classroomPairings":[["A","B"],["C","D"]],"coinWeights":[0.2,0.5,0.8],"subjectId":"A3TBG0S2IEBVHU","assignmentId":"3COPXFW7XCYGFYSZJTTQND5RA8MKPQ","hitId":"3UDTAB6HH6LRO17U79I9TKUGSHV90J","url":"https://gershmanlab.com/experiments/alicia/teaching/experiment/?hitId=3UDTAB6HH6LRO17U79I9TKUGSHV90J&workerId=A3TBG0S2IEBVHU&assignmentId=3COPXFW7XCYGFYSZJTTQND5RA8MKPQ&a=7XOC9&tp_a=7XOC9&b=3COPXFW7XCYGFYSZJTTQND5RA8MKPQ&tp_b=3COPXFW7XCYGFYSZJTTQND5RA8MKPQ&c=365799&tp_c=365799","pass":true},{"rt":null,"stimulus":"<div style=\"font-size:30px;\">Congrats on passing the comprehension quiz! The experiment will begin in a few seconds.</div>","response":null,"trial_type":"html-keyboard-response","trial_index":7,"time_elapsed":426698,"internal_node_id":"0.0-3.0","params":{"nStudents":24,"maxFlips":30,"completionMinutes":45,"basePay":8,"maxBonus":9,"perTrialBonus":0.5,"perTrialBonusThreshold":0.05,"exampleCost":0.01},"classroomParams":{"A":{"a":1,"b":4},"B":{"a":4,"b":1},"C":{"a":2,"b":8},"D":{"a":8,"b":2}},"conditions":["nonSeqFull","nonSeqPartial","seqNoFeedback","seqFeedback"],"classroomPairings":[["A","B"],["C","D"]],"coinWeights":[0.2,0.5,0.8],"subjectId":"A3TBG0S2IEBVHU","assignmentId":"3COPXFW7XCYGFYSZJTTQND5RA8MKPQ","hitId":"3UDTAB6HH6LRO17U79I9TKUGSHV90J","url":"https://gershmanlab.com/experiments/alicia/teaching/experiment/?hitId=3UDTAB6HH6LRO17U79I9TKUGSHV90J&workerId=A3TBG0S2IEBVHU&assignmentId=3COPXFW7XCYGFYSZJTTQND5RA8MKPQ&a=7XOC9&tp_a=7XOC9&b=3COPXFW7XCYGFYSZJTTQND5RA8MKPQ&tp_b=3COPXFW7XCYGFYSZJTTQND5RA8MKPQ&c=365799&tp_c=365799"},{"rt":null,"stimulus":"<div style=\"font-size:50px;\">First student</div>","response":null,"trial_type":"html-keyboard-response","trial_index":8,"time_elapsed":429698,"internal_node_id":"0.0-4.0","params":{"nStudents":24,"maxFlips":30,"completionMinutes":45,"basePay":8,"maxBonus":9,"perTrialBonus":0.5,"perTrialBonusThreshold":0.05,"exampleCost":0.01},"classroomParams":{"A":{"a":1,"b":4},"B":{"a":4,"b":1},"C":{"a":2,"b":8},"D":{"a":8,"b":2}},"conditions":["nonSeqFull","nonSeqPartial","seqNoFeedback","seqFeedback"],"classroomPairings":[["A","B"],["C","D"]],"coinWeights":[0.2,0.5,0.8],"subjectId":"A3TBG0S2IEBVHU","assignmentId":"3COPXFW7XCYGFYSZJTTQND5RA8MKPQ","hitId":"3UDTAB6HH6LRO17U79I9TKUGSHV90J","url":"https://gershmanlab.com/experiments/alicia/teaching/experiment/?hitId=3UDTAB6HH6LRO17U79I9TKUGSHV90J&workerId=A3TBG0S2IEBVHU&assignmentId=3COPXFW7XCYGFYSZJTTQND5RA8MKPQ&a=7XOC9&tp_a=7XOC9&b=3COPXFW7XCYGFYSZJTTQND5RA8MKPQ&tp_b=3COPXFW7XCYGFYSZJTTQND5RA8MKPQ&c=365799&tp_c=365799"},{"rt":49304,"stimulus":"\n            <h4 style=\"color:Orange;\">Student 1</h4>\n            <h2>The weight of your coin is <b style=\"color:Tomato;\">0.8</b>.</h2>\n            <p>In this block, you will be giving <b>one</b> set of examples to Student 1.</p>\n                <p>You will receive feedback at the end of the block.</p>\n            <p></p>","response":0,"trial_type":"html-button-response","trial_index":9,"time_elapsed":479004,"internal_node_id":"0.0-5.0","params":{"nStudents":24,"maxFlips":30,"completionMinutes":45,"basePay":8,"maxBonus":9,"perTrialBonus":0.5,"perTrialBonusThreshold":0.05,"exampleCost":0.01},"classroomParams":{"A":{"a":1,"b":4},"B":{"a":4,"b":1},"C":{"a":2,"b":8},"D":{"a":8,"b":2}},"conditions":["nonSeqFull","nonSeqPartial","seqNoFeedback","seqFeedback"],"classroomPairings":[["A","B"],["C","D"]],"coinWeights":[0.2,0.5,0.8],"subjectId":"A3TBG0S2IEBVHU","assignmentId":"3COPXFW7XCYGFYSZJTTQND5RA8MKPQ","hitId":"3UDTAB6HH6LRO17U79I9TKUGSHV90J","url":"https://gershmanlab.com/experiments/alicia/teaching/experiment/?hitId=3UDTAB6HH6LRO17U79I9TKUGSHV90J&workerId=A3TBG0S2IEBVHU&assignmentId=3COPXFW7XCYGFYSZJTTQND5RA8MKPQ&a=7XOC9&tp_a=7XOC9&b=3COPXFW7XCYGFYSZJTTQND5RA8MKPQ&tp_b=3COPXFW7XCYGFYSZJTTQND5RA8MKPQ&c=365799&tp_c=365799"},{"rt":19833,"response":{"heads":"4","tails":"1"},"type":"response","condition":"nonSeqPartial","trueTheta":0.8,"classrooms":["A","B"],"studentTrueClassroom":"B","exampleSet":"first","trial_type":"survey-html-form","trial_index":10,"time_elapsed":498839,"internal_node_id":"0.0-6.0-0.0","params":{"nStudents":24,"maxFlips":30,"completionMinutes":45,"basePay":8,"maxBonus":9,"perTrialBonus":0.5,"perTrialBonusThreshold":0.05,"exampleCost":0.01},"classroomParams":{"A":{"a":1,"b":4},"B":{"a":4,"b":1},"C":{"a":2,"b":8},"D":{"a":8,"b":2}},"conditions":["nonSeqFull","nonSeqPartial","seqNoFeedback","seqFeedback"],"classroomPairings":[["A","B"],["C","D"]],"coinWeights":[0.2,0.5,0.8],"subjectId":"A3TBG0S2IEBVHU","assignmentId":"3COPXFW7XCYGFYSZJTTQND5RA8MKPQ","hitId":"3UDTAB6HH6LRO17U79I9TKUGSHV90J","url":"https://gershmanlab.com/experiments/alicia/teaching/experiment/?hitId=3UDTAB6HH6LRO17U79I9TKUGSHV90J&workerId=A3TBG0S2IEBVHU&assignmentId=3COPXFW7XCYGFYSZJTTQND5RA8MKPQ&a=7XOC9&tp_a=7XOC9&b=3COPXFW7XCYGFYSZJTTQND5RA8MKPQ&tp_b=3COPXFW7XCYGFYSZJTTQND5RA8MKPQ&c=365799&tp_c=365799","heads":4,"tails":1,"studentIndex":0,"studentTrueHypers":{"a":4,"b":1},"studentGuess":0.8,"delta":0,"totalExamples":5,"bonus":0.45,"bonusSoFar":0.45},{"rt":null,"stimulus":"Sending examples to student... ","response":null,"trial_type":"html-keyboard-response","trial_index":11,"time_elapsed":500605,"internal_node_id":"0.0-7.0","params":{"nStudents":24,"maxFlips":30,"completionMinutes":45,"basePay":8,"maxBonus":9,"perTrialBonus":0.5,"perTrialBonusThreshold":0.05,"exampleCost":0.01},"classroomParams":{"A":{"a":1,"b":4},"B":{"a":4,"b":1},"C":{"a":2,"b":8},"D":{"a":8,"b":2}},"conditions":["nonSeqFull","nonSeqPartial","seqNoFeedback","seqFeedback"],"classroomPairings":[["A","B"],["C","D"]],"coinWeights":[0.2,0.5,0.8],"subjectId":"A3TBG0S2IEBVHU","assignmentId":"3COPXFW7XCYGFYSZJTTQND5RA8MKPQ","hitId":"3UDTAB6HH6LRO17U79I9TKUGSHV90J","url":"https://gershmanlab.com/experiments/alicia/teaching/experiment/?hitId=3UDTAB6HH6LRO17U79I9TKUGSHV90J&workerId=A3TBG0S2IEBVHU&assignmentId=3COPXFW7XCYGFYSZJTTQND5RA8MKPQ&a=7XOC9&tp_a=7XOC9&b=3COPXFW7XCYGFYSZJTTQND5RA8MKPQ&tp_b=3COPXFW7XCYGFYSZJTTQND5RA8MKPQ&c=365799&tp_c=365799"},{"rt":null,"stimulus":"Examples sent to student! Waiting for student...","response":null,"trial_type":"html-keyboard-response","trial_index":12,"time_elapsed":504620,"internal_node_id":"0.0-8.0","params":{"nStudents":24,"maxFlips":30,"completionMinutes":45,"basePay":8,"maxBonus":9,"perTrialBonus":0.5,"perTrialBonusThreshold":0.05,"exampleCost":0.01},"classroomParams":{"A":{"a":1,"b":4},"B":{"a":4,"b":1},"C":{"a":2,"b":8},"D":{"a":8,"b":2}},"conditions":["nonSeqFull","nonSeqPartial","seqNoFeedback","seqFeedback"],"classroomPairings":[["A","B"],["C","D"]],"coinWeights":[0.2,0.5,0.8],"subjectId":"A3TBG0S2IEBVHU","assignmentId":"3COPXFW7XCYGFYSZJTTQND5RA8MKPQ","hitId":"3UDTAB6HH6LRO17U79I9TKUGSHV90J","url":"https://gershmanlab.com/experiments/alicia/teaching/experiment/?hitId=3UDTAB6HH6LRO17U79I9TKUGSHV90J&workerId=A3TBG0S2IEBVHU&assignmentId=3COPXFW7XCYGFYSZJTTQND5RA8MKPQ&a=7XOC9&tp_a=7XOC9&b=3COPXFW7XCYGFYSZJTTQND5RA8MKPQ&tp_b=3COPXFW7XCYGFYSZJTTQND5RA8MKPQ&c=365799&tp_c=365799"},{"rt":5642,"stimulus":"\n                <p>Student's guess for coin weight: <b style=\"color:Tomato;\">0.80</b></p>\n                <p>You received a bonus of <b>$0.45</b>. Total bonus so far: <b>$0.45</b></b></p>\n                <p></p>\n                <p>Press any key to continue.</p>\n                ","response":" ","trial_type":"html-keyboard-response","trial_index":13,"time_elapsed":510263,"internal_node_id":"0.0-9.0","params":{"nStudents":24,"maxFlips":30,"completionMinutes":45,"basePay":8,"maxBonus":9,"perTrialBonus":0.5,"perTrialBonusThreshold":0.05,"exampleCost":0.01},"classroomParams":{"A":{"a":1,"b":4},"B":{"a":4,"b":1},"C":{"a":2,"b":8},"D":{"a":8,"b":2}},"conditions":["nonSeqFull","nonSeqPartial","seqNoFeedback","seqFeedback"],"classroomPairings":[["A","B"],["C","D"]],"coinWeights":[0.2,0.5,0.8],"subjectId":"A3TBG0S2IEBVHU","assignmentId":"3COPXFW7XCYGFYSZJTTQND5RA8MKPQ","hitId":"3UDTAB6HH6LRO17U79I9TKUGSHV90J","url":"https://gershmanlab.com/experiments/alicia/teaching/experiment/?hitId=3UDTAB6HH6LRO17U79I9TKUGSHV90J&workerId=A3TBG0S2IEBVHU&assignmentId=3COPXFW7XCYGFYSZJTTQND5RA8MKPQ&a=7XOC9&tp_a=7XOC9&b=3COPXFW7XCYGFYSZJTTQND5RA8MKPQ&tp_b=3COPXFW7XCYGFYSZJTTQND5RA8MKPQ&c=365799&tp_c=365799"},{"rt":null,"stimulus":"<div style=\"font-size:60px;\">Next student</div>","response":null,"trial_type":"html-keyboard-response","trial_index":14,"time_elapsed":513280,"internal_node_id":"0.0-10.0-0.0","params":{"nStudents":24,"maxFlips":30,"completionMinutes":45,"basePay":8,"maxBonus":9,"perTrialBonus":0.5,"perTrialBonusThreshold":0.05,"exampleCost":0.01},"classroomParams":{"A":{"a":1,"b":4},"B":{"a":4,"b":1},"C":{"a":2,"b":8},"D":{"a":8,"b":2}},"conditions":["nonSeqFull","nonSeqPartial","seqNoFeedback","seqFeedback"],"classroomPairings":[["A","B"],["C","D"]],"coinWeights":[0.2,0.5,0.8],"subjectId":"A3TBG0S2IEBVHU","assignmentId":"3COPXFW7XCYGFYSZJTTQND5RA8MKPQ","hitId":"3UDTAB6HH6LRO17U79I9TKUGSHV90J","url":"https://gershmanlab.com/experiments/alicia/teaching/experiment/?hitId=3UDTAB6HH6LRO17U79I9TKUGSHV90J&workerId=A3TBG0S2IEBVHU&assignmentId=3COPXFW7XCYGFYSZJTTQND5RA8MKPQ&a=7XOC9&tp_a=7XOC9&b=3COPXFW7XCYGFYSZJTTQND5RA8MKPQ&tp_b=3COPXFW7XCYGFYSZJTTQND5RA8MKPQ&c=365799&tp_c=365799"},{"rt":4112,"stimulus":"\n            <h4 style=\"color:Orange;\">Student 2</h4>\n            <h2>The weight of your coin is <b style=\"color:Tomato;\">0.5</b>.</h2>\n            <p>In this block, you will be giving <b>two</b> sets of examples to Student 2.</p>\n                <p>You will receive feedback at the end of the block.</p>\n            <p></p>","response":0,"trial_type":"html-button-response","trial_index":15,"time_elapsed":517393,"internal_node_id":"0.0-11.0","params":{"nStudents":24,"maxFlips":30,"completionMinutes":45,"basePay":8,"maxBonus":9,"perTrialBonus":0.5,"perTrialBonusThreshold":0.05,"exampleCost":0.01},"classroomParams":{"A":{"a":1,"b":4},"B":{"a":4,"b":1},"C":{"a":2,"b":8},"D":{"a":8,"b":2}},"conditions":["nonSeqFull","nonSeqPartial","seqNoFeedback","seqFeedback"],"classroomPairings":[["A","B"],["C","D"]],"coinWeights":[0.2,0.5,0.8],"subjectId":"A3TBG0S2IEBVHU","assignmentId":"3COPXFW7XCYGFYSZJTTQND5RA8MKPQ","hitId":"3UDTAB6HH6LRO17U79I9TKUGSHV90J","url":"https://gershmanlab.com/experiments/alicia/teaching/experiment/?hitId=3UDTAB6HH6LRO17U79I9TKUGSHV90J&workerId=A3TBG0S2IEBVHU&assignmentId=3COPXFW7XCYGFYSZJTTQND5RA8MKPQ&a=7XOC9&tp_a=7XOC9&b=3COPXFW7XCYGFYSZJTTQND5RA8MKPQ&tp_b=3COPXFW7XCYGFYSZJTTQND5RA8MKPQ&c=365799&tp_c=365799"},{"rt":30347,"response":{"heads":"5","tails":"5"},"type":"response","condition":"seqNoFeedback","trueTheta":0.5,"classrooms":["A","B"],"studentTrueClassroom":"A","exampleSet":"first","trial_type":"survey-html-form","trial_index":16,"time_elapsed":547740,"internal_node_id":"0.0-12.0-0.0","params":{"nStudents":24,"maxFlips":30,"completionMinutes":45,"basePay":8,"maxBonus":9,"perTrialBonus":0.5,"perTrialBonusThreshold":0.05,"exampleCost":0.01},"classroomParams":{"A":{"a":1,"b":4},"B":{"a":4,"b":1},"C":{"a":2,"b":8},"D":{"a":8,"b":2}},"conditions":["nonSeqFull","nonSeqPartial","seqNoFeedback","seqFeedback"],"classroomPairings":[["A","B"],["C","D"]],"coinWeights":[0.2,0.5,0.8],"subjectId":"A3TBG0S2IEBVHU","assignmentId":"3COPXFW7XCYGFYSZJTTQND5RA8MKPQ","hitId":"3UDTAB6HH6LRO17U79I9TKUGSHV90J","url":"https://gershmanlab.com/experiments/alicia/teaching/experiment/?hitId=3UDTAB6HH6LRO17U79I9TKUGSHV90J&workerId=A3TBG0S2IEBVHU&assignmentId=3COPXFW7XCYGFYSZJTTQND5RA8MKPQ&a=7XOC9&tp_a=7XOC9&b=3COPXFW7XCYGFYSZJTTQND5RA8MKPQ&tp_b=3COPXFW7XCYGFYSZJTTQND5RA8MKPQ&c=365799&tp_c=365799","heads":5,"tails":5,"studentIndex":1,"studentTrueHypers":{"a":1,"b":4},"studentGuess":0.4,"delta":0.09999999999999998,"totalExamples":10,"bonusSoFar":0.45},{"rt":null,"stimulus":"Sending examples to student... ","response":null,"trial_type":"html-keyboard-response","trial_index":17,"time_elapsed":549003,"internal_node_id":"0.0-13.0","params":{"nStudents":24,"maxFlips":30,"completionMinutes":45,"basePay":8,"maxBonus":9,"perTrialBonus":0.5,"perTrialBonusThreshold":0.05,"exampleCost":0.01},"classroomParams":{"A":{"a":1,"b":4},"B":{"a":4,"b":1},"C":{"a":2,"b":8},"D":{"a":8,"b":2}},"conditions":["nonSeqFull","nonSeqPartial","seqNoFeedback","seqFeedback"],"classroomPairings":[["A","B"],["C","D"]],"coinWeights":[0.2,0.5,0.8],"subjectId":"A3TBG0S2IEBVHU","assignmentId":"3COPXFW7XCYGFYSZJTTQND5RA8MKPQ","hitId":"3UDTAB6HH6LRO17U79I9TKUGSHV90J","url":"https://gershmanlab.com/experiments/alicia/teaching/experiment/?hitId=3UDTAB6HH6LRO17U79I9TKUGSHV90J&workerId=A3TBG0S2IEBVHU&assignmentId=3COPXFW7XCYGFYSZJTTQND5RA8MKPQ&a=7XOC9&tp_a=7XOC9&b=3COPXFW7XCYGFYSZJTTQND5RA8MKPQ&tp_b=3COPXFW7XCYGFYSZJTTQND5RA8MKPQ&c=365799&tp_c=365799"},{"rt":null,"stimulus":"Examples sent to student! Waiting for student...","response":null,"trial_type":"html-keyboard-response","trial_index":18,"time_elapsed":553518,"internal_node_id":"0.0-14.0","params":{"nStudents":24,"maxFlips":30,"completionMinutes":45,"basePay":8,"maxBonus":9,"perTrialBonus":0.5,"perTrialBonusThreshold":0.05,"exampleCost":0.01},"classroomParams":{"A":{"a":1,"b":4},"B":{"a":4,"b":1},"C":{"a":2,"b":8},"D":{"a":8,"b":2}},"conditions":["nonSeqFull","nonSeqPartial","seqNoFeedback","seqFeedback"],"classroomPairings":[["A","B"],["C","D"]],"coinWeights":[0.2,0.5,0.8],"subjectId":"A3TBG0S2IEBVHU","assignmentId":"3COPXFW7XCYGFYSZJTTQND5RA8MKPQ","hitId":"3UDTAB6HH6LRO17U79I9TKUGSHV90J","url":"https://gershmanlab.com/experiments/alicia/teaching/experiment/?hitId=3UDTAB6HH6LRO17U79I9TKUGSHV90J&workerId=A3TBG0S2IEBVHU&assignmentId=3COPXFW7XCYGFYSZJTTQND5RA8MKPQ&a=7XOC9&tp_a=7XOC9&b=3COPXFW7XCYGFYSZJTTQND5RA8MKPQ&tp_b=3COPXFW7XCYGFYSZJTTQND5RA8MKPQ&c=365799&tp_c=365799"},{"rt":8766,"response":{"heads":"5","tails":"5"},"type":"response","condition":"seqNoFeedback","trueTheta":0.5,"classrooms":["A","B"],"studentTrueClassroom":"A","exampleSet":"second","trial_type":"survey-html-form","trial_index":19,"time_elapsed":562285,"internal_node_id":"0.0-15.0-0.0","params":{"nStudents":24,"maxFlips":30,"completionMinutes":45,"basePay":8,"maxBonus":9,"perTrialBonus":0.5,"perTrialBonusThreshold":0.05,"exampleCost":0.01},"classroomParams":{"A":{"a":1,"b":4},"B":{"a":4,"b":1},"C":{"a":2,"b":8},"D":{"a":8,"b":2}},"conditions":["nonSeqFull","nonSeqPartial","seqNoFeedback","seqFeedback"],"classroomPairings":[["A","B"],["C","D"]],"coinWeights":[0.2,0.5,0.8],"subjectId":"A3TBG0S2IEBVHU","assignmentId":"3COPXFW7XCYGFYSZJTTQND5RA8MKPQ","hitId":"3UDTAB6HH6LRO17U79I9TKUGSHV90J","url":"https://gershmanlab.com/experiments/alicia/teaching/experiment/?hitId=3UDTAB6HH6LRO17U79I9TKUGSHV90J&workerId=A3TBG0S2IEBVHU&assignmentId=3COPXFW7XCYGFYSZJTTQND5RA8MKPQ&a=7XOC9&tp_a=7XOC9&b=3COPXFW7XCYGFYSZJTTQND5RA8MKPQ&tp_b=3COPXFW7XCYGFYSZJTTQND5RA8MKPQ&c=365799&tp_c=365799","firstResponseHeads":5,"firstResponseTails":5,"secondResponseHeads":5,"secondResponseTails":5,"totalHeads":10,"totalTails":10,"studentIndex":1,"studentTrueHypers":{"a":1,"b":4},"studentGuess":0.44,"delta":0.06,"bonus":0,"bonusSoFar":0.45,"totalExamples":20},{"rt":null,"stimulus":"Sending examples to student... ","response":null,"trial_type":"html-keyboard-response","trial_index":20,"time_elapsed":563541,"internal_node_id":"0.0-16.0","params":{"nStudents":24,"maxFlips":30,"completionMinutes":45,"basePay":8,"maxBonus":9,"perTrialBonus":0.5,"perTrialBonusThreshold":0.05,"exampleCost":0.01},"classroomParams":{"A":{"a":1,"b":4},"B":{"a":4,"b":1},"C":{"a":2,"b":8},"D":{"a":8,"b":2}},"conditions":["nonSeqFull","nonSeqPartial","seqNoFeedback","seqFeedback"],"classroomPairings":[["A","B"],["C","D"]],"coinWeights":[0.2,0.5,0.8],"subjectId":"A3TBG0S2IEBVHU","assignmentId":"3COPXFW7XCYGFYSZJTTQND5RA8MKPQ","hitId":"3UDTAB6HH6LRO17U79I9TKUGSHV90J","url":"https://gershmanlab.com/experiments/alicia/teaching/experiment/?hitId=3UDTAB6HH6LRO17U79I9TKUGSHV90J&workerId=A3TBG0S2IEBVHU&assignmentId=3COPXFW7XCYGFYSZJTTQND5RA8MKPQ&a=7XOC9&tp_a=7XOC9&b=3COPXFW7XCYGFYSZJTTQND5RA8MKPQ&tp_b=3COPXFW7XCYGFYSZJTTQND5RA8MKPQ&c=365799&tp_c=365799"},{"rt":null,"stimulus":"Examples sent to student! Waiting for student...","response":null,"trial_type":"html-keyboard-response","trial_index":21,"time_elapsed":568555,"internal_node_id":"0.0-17.0","params":{"nStudents":24,"maxFlips":30,"completionMinutes":45,"basePay":8,"maxBonus":9,"perTrialBonus":0.5,"perTrialBonusThreshold":0.05,"exampleCost":0.01},"classroomParams":{"A":{"a":1,"b":4},"B":{"a":4,"b":1},"C":{"a":2,"b":8},"D":{"a":8,"b":2}},"conditions":["nonSeqFull","nonSeqPartial","seqNoFeedback","seqFeedback"],"classroomPairings":[["A","B"],["C","D"]],"coinWeights":[0.2,0.5,0.8],"subjectId":"A3TBG0S2IEBVHU","assignmentId":"3COPXFW7XCYGFYSZJTTQND5RA8MKPQ","hitId":"3UDTAB6HH6LRO17U79I9TKUGSHV90J","url":"https://gershmanlab.com/experiments/alicia/teaching/experiment/?hitId=3UDTAB6HH6LRO17U79I9TKUGSHV90J&workerId=A3TBG0S2IEBVHU&assignmentId=3COPXFW7XCYGFYSZJTTQND5RA8MKPQ&a=7XOC9&tp_a=7XOC9&b=3COPXFW7XCYGFYSZJTTQND5RA8MKPQ&tp_b=3COPXFW7XCYGFYSZJTTQND5RA8MKPQ&c=365799&tp_c=365799"},{"rt":4586,"stimulus":"\n                <p>Student 2's first guess for coin weight: <b style=\"color:Tomato\";>0.40</b></p>\n                <p>Student 2's second guess for coin weight: <b style=\"color:Tomato\";>0.44</b></p>\n                <p>You received a bonus of <b>$0.00</b> based on the student's second guess.</p>\n                <p>Total bonus so far: <b>$0.45</b></p>\n                <p>Press any key to continue.</p>\n                ","response":"enter","trial_type":"html-keyboard-response","trial_index":22,"time_elapsed":573142,"internal_node_id":"0.0-18.0","params":{"nStudents":24,"maxFlips":30,"completionMinutes":45,"basePay":8,"maxBonus":9,"perTrialBonus":0.5,"perTrialBonusThreshold":0.05,"exampleCost":0.01},"classroomParams":{"A":{"a":1,"b":4},"B":{"a":4,"b":1},"C":{"a":2,"b":8},"D":{"a":8,"b":2}},"conditions":["nonSeqFull","nonSeqPartial","seqNoFeedback","seqFeedback"],"classroomPairings":[["A","B"],["C","D"]],"coinWeights":[0.2,0.5,0.8],"subjectId":"A3TBG0S2IEBVHU","assignmentId":"3COPXFW7XCYGFYSZJTTQND5RA8MKPQ","hitId":"3UDTAB6HH6LRO17U79I9TKUGSHV90J","url":"https://gershmanlab.com/experiments/alicia/teaching/experiment/?hitId=3UDTAB6HH6LRO17U79I9TKUGSHV90J&workerId=A3TBG0S2IEBVHU&assignmentId=3COPXFW7XCYGFYSZJTTQND5RA8MKPQ&a=7XOC9&tp_a=7XOC9&b=3COPXFW7XCYGFYSZJTTQND5RA8MKPQ&tp_b=3COPXFW7XCYGFYSZJTTQND5RA8MKPQ&c=365799&tp_c=365799"},{"rt":null,"stimulus":"<div style=\"font-size:60px;\">Next student</div>","response":null,"trial_type":"html-keyboard-response","trial_index":23,"time_elapsed":575145,"internal_node_id":"0.0-19.0-0.0","params":{"nStudents":24,"maxFlips":30,"completionMinutes":45,"basePay":8,"maxBonus":9,"perTrialBonus":0.5,"perTrialBonusThreshold":0.05,"exampleCost":0.01},"classroomParams":{"A":{"a":1,"b":4},"B":{"a":4,"b":1},"C":{"a":2,"b":8},"D":{"a":8,"b":2}},"conditions":["nonSeqFull","nonSeqPartial","seqNoFeedback","seqFeedback"],"classroomPairings":[["A","B"],["C","D"]],"coinWeights":[0.2,0.5,0.8],"subjectId":"A3TBG0S2IEBVHU","assignmentId":"3COPXFW7XCYGFYSZJTTQND5RA8MKPQ","hitId":"3UDTAB6HH6LRO17U79I9TKUGSHV90J","url":"https://gershmanlab.com/experiments/alicia/teaching/experiment/?hitId=3UDTAB6HH6LRO17U79I9TKUGSHV90J&workerId=A3TBG0S2IEBVHU&assignmentId=3COPXFW7XCYGFYSZJTTQND5RA8MKPQ&a=7XOC9&tp_a=7XOC9&b=3COPXFW7XCYGFYSZJTTQND5RA8MKPQ&tp_b=3COPXFW7XCYGFYSZJTTQND5RA8MKPQ&c=365799&tp_c=365799"},{"rt":2150,"stimulus":"\n            <h4 style=\"color:Orange;\">Student 3</h4>\n            <h2>The weight of your coin is <b style=\"color:Tomato;\">0.8</b>.</h2>\n            <p>In this block, you will be giving <b>two</b> sets of examples to Student 3.</p>\n                <p>You will see the student's guess after the first set of examples. You will also receive feedback at the end of the block.</p>\n            <p>To earn the highest bonus, you will have to <b>take into consideration the student's guess</b> when you choose your second set of examples.</p>","response":0,"trial_type":"html-button-response","trial_index":24,"time_elapsed":577295,"internal_node_id":"0.0-20.0","params":{"nStudents":24,"maxFlips":30,"completionMinutes":45,"basePay":8,"maxBonus":9,"perTrialBonus":0.5,"perTrialBonusThreshold":0.05,"exampleCost":0.01},"classroomParams":{"A":{"a":1,"b":4},"B":{"a":4,"b":1},"C":{"a":2,"b":8},"D":{"a":8,"b":2}},"conditions":["nonSeqFull","nonSeqPartial","seqNoFeedback","seqFeedback"],"classroomPairings":[["A","B"],["C","D"]],"coinWeights":[0.2,0.5,0.8],"subjectId":"A3TBG0S2IEBVHU","assignmentId":"3COPXFW7XCYGFYSZJTTQND5RA8MKPQ","hitId":"3UDTAB6HH6LRO17U79I9TKUGSHV90J","url":"https://gershmanlab.com/experiments/alicia/teaching/experiment/?hitId=3UDTAB6HH6LRO17U79I9TKUGSHV90J&workerId=A3TBG0S2IEBVHU&assignmentId=3COPXFW7XCYGFYSZJTTQND5RA8MKPQ&a=7XOC9&tp_a=7XOC9&b=3COPXFW7XCYGFYSZJTTQND5RA8MKPQ&tp_b=3COPXFW7XCYGFYSZJTTQND5RA8MKPQ&c=365799&tp_c=365799"},{"rt":8496,"response":{"heads":"8","tails":"2"},"type":"response","condition":"seqFeedback","trueTheta":0.8,"classrooms":["C","D"],"studentTrueClassroom":"C","exampleSet":"first","trial_type":"survey-html-form","trial_index":25,"time_elapsed":585792,"internal_node_id":"0.0-21.0-0.0","params":{"nStudents":24,"maxFlips":30,"completionMinutes":45,"basePay":8,"maxBonus":9,"perTrialBonus":0.5,"perTrialBonusThreshold":0.05,"exampleCost":0.01},"classroomParams":{"A":{"a":1,"b":4},"B":{"a":4,"b":1},"C":{"a":2,"b":8},"D":{"a":8,"b":2}},"conditions":["nonSeqFull","nonSeqPartial","seqNoFeedback","seqFeedback"],"classroomPairings":[["A","B"],["C","D"]],"coinWeights":[0.2,0.5,0.8],"subjectId":"A3TBG0S2IEBVHU","assignmentId":"3COPXFW7XCYGFYSZJTTQND5RA8MKPQ","hitId":"3UDTAB6HH6LRO17U79I9TKUGSHV90J","url":"https://gershmanlab.com/experiments/alicia/teaching/experiment/?hitId=3UDTAB6HH6LRO17U79I9TKUGSHV90J&workerId=A3TBG0S2IEBVHU&assignmentId=3COPXFW7XCYGFYSZJTTQND5RA8MKPQ&a=7XOC9&tp_a=7XOC9&b=3COPXFW7XCYGFYSZJTTQND5RA8MKPQ&tp_b=3COPXFW7XCYGFYSZJTTQND5RA8MKPQ&c=365799&tp_c=365799","heads":8,"tails":2,"studentIndex":2,"studentTrueHypers":{"a":2,"b":8},"studentGuess":0.5,"delta":0.30000000000000004,"totalExamples":10,"bonusSoFar":0.45},{"rt":null,"stimulus":"Sending examples to student... ","response":null,"trial_type":"html-keyboard-response","trial_index":26,"time_elapsed":587046,"internal_node_id":"0.0-22.0","params":{"nStudents":24,"maxFlips":30,"completionMinutes":45,"basePay":8,"maxBonus":9,"perTrialBonus":0.5,"perTrialBonusThreshold":0.05,"exampleCost":0.01},"classroomParams":{"A":{"a":1,"b":4},"B":{"a":4,"b":1},"C":{"a":2,"b":8},"D":{"a":8,"b":2}},"conditions":["nonSeqFull","nonSeqPartial","seqNoFeedback","seqFeedback"],"classroomPairings":[["A","B"],["C","D"]],"coinWeights":[0.2,0.5,0.8],"subjectId":"A3TBG0S2IEBVHU","assignmentId":"3COPXFW7XCYGFYSZJTTQND5RA8MKPQ","hitId":"3UDTAB6HH6LRO17U79I9TKUGSHV90J","url":"https://gershmanlab.com/experiments/alicia/teaching/experiment/?hitId=3UDTAB6HH6LRO17U79I9TKUGSHV90J&workerId=A3TBG0S2IEBVHU&assignmentId=3COPXFW7XCYGFYSZJTTQND5RA8MKPQ&a=7XOC9&tp_a=7XOC9&b=3COPXFW7XCYGFYSZJTTQND5RA8MKPQ&tp_b=3COPXFW7XCYGFYSZJTTQND5RA8MKPQ&c=365799&tp_c=365799"},{"rt":null,"stimulus":"Examples sent to student! Waiting for student...","response":null,"trial_type":"html-keyboard-response","trial_index":27,"time_elapsed":592062,"internal_node_id":"0.0-23.0","params":{"nStudents":24,"maxFlips":30,"completionMinutes":45,"basePay":8,"maxBonus":9,"perTrialBonus":0.5,"perTrialBonusThreshold":0.05,"exampleCost":0.01},"classroomParams":{"A":{"a":1,"b":4},"B":{"a":4,"b":1},"C":{"a":2,"b":8},"D":{"a":8,"b":2}},"conditions":["nonSeqFull","nonSeqPartial","seqNoFeedback","seqFeedback"],"classroomPairings":[["A","B"],["C","D"]],"coinWeights":[0.2,0.5,0.8],"subjectId":"A3TBG0S2IEBVHU","assignmentId":"3COPXFW7XCYGFYSZJTTQND5RA8MKPQ","hitId":"3UDTAB6HH6LRO17U79I9TKUGSHV90J","url":"https://gershmanlab.com/experiments/alicia/teaching/experiment/?hitId=3UDTAB6HH6LRO17U79I9TKUGSHV90J&workerId=A3TBG0S2IEBVHU&assignmentId=3COPXFW7XCYGFYSZJTTQND5RA8MKPQ&a=7XOC9&tp_a=7XOC9&b=3COPXFW7XCYGFYSZJTTQND5RA8MKPQ&tp_b=3COPXFW7XCYGFYSZJTTQND5RA8MKPQ&c=365799&tp_c=365799"},{"rt":4802,"stimulus":"\n                <p>Student's guess for coin weight: <b style=\"color:Tomato;\">0.50</b></p>\n                <p></b></p>\n                <p>You will now send another set of examples to your student. <b>Remember to take your student's guess into consideration so that you can earn the highest bonus possible!</b> </p>\n                <p>Press any key to continue.</p>\n                ","response":"enter","trial_type":"html-keyboard-response","trial_index":28,"time_elapsed":596865,"internal_node_id":"0.0-24.0","params":{"nStudents":24,"maxFlips":30,"completionMinutes":45,"basePay":8,"maxBonus":9,"perTrialBonus":0.5,"perTrialBonusThreshold":0.05,"exampleCost":0.01},"classroomParams":{"A":{"a":1,"b":4},"B":{"a":4,"b":1},"C":{"a":2,"b":8},"D":{"a":8,"b":2}},"conditions":["nonSeqFull","nonSeqPartial","seqNoFeedback","seqFeedback"],"classroomPairings":[["A","B"],["C","D"]],"coinWeights":[0.2,0.5,0.8],"subjectId":"A3TBG0S2IEBVHU","assignmentId":"3COPXFW7XCYGFYSZJTTQND5RA8MKPQ","hitId":"3UDTAB6HH6LRO17U79I9TKUGSHV90J","url":"https://gershmanlab.com/experiments/alicia/teaching/experiment/?hitId=3UDTAB6HH6LRO17U79I9TKUGSHV90J&workerId=A3TBG0S2IEBVHU&assignmentId=3COPXFW7XCYGFYSZJTTQND5RA8MKPQ&a=7XOC9&tp_a=7XOC9&b=3COPXFW7XCYGFYSZJTTQND5RA8MKPQ&tp_b=3COPXFW7XCYGFYSZJTTQND5RA8MKPQ&c=365799&tp_c=365799"},{"rt":13449,"response":{"heads":"10","tails":"0"},"type":"response","condition":"seqFeedback","trueTheta":0.8,"classrooms":["C","D"],"studentTrueClassroom":"C","exampleSet":"second","trial_type":"survey-html-form","trial_index":29,"time_elapsed":610315,"internal_node_id":"0.0-25.0-0.0","params":{"nStudents":24,"maxFlips":30,"completionMinutes":45,"basePay":8,"maxBonus":9,"perTrialBonus":0.5,"perTrialBonusThreshold":0.05,"exampleCost":0.01},"classroomParams":{"A":{"a":1,"b":4},"B":{"a":4,"b":1},"C":{"a":2,"b":8},"D":{"a":8,"b":2}},"conditions":["nonSeqFull","nonSeqPartial","seqNoFeedback","seqFeedback"],"classroomPairings":[["A","B"],["C","D"]],"coinWeights":[0.2,0.5,0.8],"subjectId":"A3TBG0S2IEBVHU","assignmentId":"3COPXFW7XCYGFYSZJTTQND5RA8MKPQ","hitId":"3UDTAB6HH6LRO17U79I9TKUGSHV90J","url":"https://gershmanlab.com/experiments/alicia/teaching/experiment/?hitId=3UDTAB6HH6LRO17U79I9TKUGSHV90J&workerId=A3TBG0S2IEBVHU&assignmentId=3COPXFW7XCYGFYSZJTTQND5RA8MKPQ&a=7XOC9&tp_a=7XOC9&b=3COPXFW7XCYGFYSZJTTQND5RA8MKPQ&tp_b=3COPXFW7XCYGFYSZJTTQND5RA8MKPQ&c=365799&tp_c=365799","firstResponseHeads":8,"firstResponseTails":2,"secondResponseHeads":10,"secondResponseTails":0,"totalHeads":18,"totalTails":2,"studentIndex":2,"studentTrueHypers":{"a":2,"b":8},"studentGuess":0.6666666666666666,"delta":0.13333333333333341,"bonus":0,"bonusSoFar":0.45,"totalExamples":20},{"rt":null,"stimulus":"Sending examples to student... ","response":null,"trial_type":"html-keyboard-response","trial_index":30,"time_elapsed":611816,"internal_node_id":"0.0-26.0","params":{"nStudents":24,"maxFlips":30,"completionMinutes":45,"basePay":8,"maxBonus":9,"perTrialBonus":0.5,"perTrialBonusThreshold":0.05,"exampleCost":0.01},"classroomParams":{"A":{"a":1,"b":4},"B":{"a":4,"b":1},"C":{"a":2,"b":8},"D":{"a":8,"b":2}},"conditions":["nonSeqFull","nonSeqPartial","seqNoFeedback","seqFeedback"],"classroomPairings":[["A","B"],["C","D"]],"coinWeights":[0.2,0.5,0.8],"subjectId":"A3TBG0S2IEBVHU","assignmentId":"3COPXFW7XCYGFYSZJTTQND5RA8MKPQ","hitId":"3UDTAB6HH6LRO17U79I9TKUGSHV90J","url":"https://gershmanlab.com/experiments/alicia/teaching/experiment/?hitId=3UDTAB6HH6LRO17U79I9TKUGSHV90J&workerId=A3TBG0S2IEBVHU&assignmentId=3COPXFW7XCYGFYSZJTTQND5RA8MKPQ&a=7XOC9&tp_a=7XOC9&b=3COPXFW7XCYGFYSZJTTQND5RA8MKPQ&tp_b=3COPXFW7XCYGFYSZJTTQND5RA8MKPQ&c=365799&tp_c=365799"},{"rt":null,"stimulus":"Examples sent to student! Waiting for student...","response":null,"trial_type":"html-keyboard-response","trial_index":31,"time_elapsed":616831,"internal_node_id":"0.0-27.0","params":{"nStudents":24,"maxFlips":30,"completionMinutes":45,"basePay":8,"maxBonus":9,"perTrialBonus":0.5,"perTrialBonusThreshold":0.05,"exampleCost":0.01},"classroomParams":{"A":{"a":1,"b":4},"B":{"a":4,"b":1},"C":{"a":2,"b":8},"D":{"a":8,"b":2}},"conditions":["nonSeqFull","nonSeqPartial","seqNoFeedback","seqFeedback"],"classroomPairings":[["A","B"],["C","D"]],"coinWeights":[0.2,0.5,0.8],"subjectId":"A3TBG0S2IEBVHU","assignmentId":"3COPXFW7XCYGFYSZJTTQND5RA8MKPQ","hitId":"3UDTAB6HH6LRO17U79I9TKUGSHV90J","url":"https://gershmanlab.com/experiments/alicia/teaching/experiment/?hitId=3UDTAB6HH6LRO17U79I9TKUGSHV90J&workerId=A3TBG0S2IEBVHU&assignmentId=3COPXFW7XCYGFYSZJTTQND5RA8MKPQ&a=7XOC9&tp_a=7XOC9&b=3COPXFW7XCYGFYSZJTTQND5RA8MKPQ&tp_b=3COPXFW7XCYGFYSZJTTQND5RA8MKPQ&c=365799&tp_c=365799"},{"rt":4748,"stimulus":"\n                <p>Student 3's first guess for coin weight: <b style=\"color:Tomato\";>0.50</b></p>\n                <p>Student 3's second guess for coin weight: <b style=\"color:Tomato\";>0.67</b></p>\n                <p>You received a bonus of <b>$0.00</b> based on the student's second guess.</p>\n                <p>Total bonus so far: <b>$0.45</b></p>\n                <p>Press any key to continue.</p>\n                ","response":"enter","trial_type":"html-keyboard-response","trial_index":32,"time_elapsed":621579,"internal_node_id":"0.0-28.0","params":{"nStudents":24,"maxFlips":30,"completionMinutes":45,"basePay":8,"maxBonus":9,"perTrialBonus":0.5,"perTrialBonusThreshold":0.05,"exampleCost":0.01},"classroomParams":{"A":{"a":1,"b":4},"B":{"a":4,"b":1},"C":{"a":2,"b":8},"D":{"a":8,"b":2}},"conditions":["nonSeqFull","nonSeqPartial","seqNoFeedback","seqFeedback"],"classroomPairings":[["A","B"],["C","D"]],"coinWeights":[0.2,0.5,0.8],"subjectId":"A3TBG0S2IEBVHU","assignmentId":"3COPXFW7XCYGFYSZJTTQND5RA8MKPQ","hitId":"3UDTAB6HH6LRO17U79I9TKUGSHV90J","url":"https://gershmanlab.com/experiments/alicia/teaching/experiment/?hitId=3UDTAB6HH6LRO17U79I9TKUGSHV90J&workerId=A3TBG0S2IEBVHU&assignmentId=3COPXFW7XCYGFYSZJTTQND5RA8MKPQ&a=7XOC9&tp_a=7XOC9&b=3COPXFW7XCYGFYSZJTTQND5RA8MKPQ&tp_b=3COPXFW7XCYGFYSZJTTQND5RA8MKPQ&c=365799&tp_c=365799"},{"rt":null,"stimulus":"<div style=\"font-size:60px;\">Next student</div>","response":null,"trial_type":"html-keyboard-response","trial_index":33,"time_elapsed":623841,"internal_node_id":"0.0-29.0-0.0","params":{"nStudents":24,"maxFlips":30,"completionMinutes":45,"basePay":8,"maxBonus":9,"perTrialBonus":0.5,"perTrialBonusThreshold":0.05,"exampleCost":0.01},"classroomParams":{"A":{"a":1,"b":4},"B":{"a":4,"b":1},"C":{"a":2,"b":8},"D":{"a":8,"b":2}},"conditions":["nonSeqFull","nonSeqPartial","seqNoFeedback","seqFeedback"],"classroomPairings":[["A","B"],["C","D"]],"coinWeights":[0.2,0.5,0.8],"subjectId":"A3TBG0S2IEBVHU","assignmentId":"3COPXFW7XCYGFYSZJTTQND5RA8MKPQ","hitId":"3UDTAB6HH6LRO17U79I9TKUGSHV90J","url":"https://gershmanlab.com/experiments/alicia/teaching/experiment/?hitId=3UDTAB6HH6LRO17U79I9TKUGSHV90J&workerId=A3TBG0S2IEBVHU&assignmentId=3COPXFW7XCYGFYSZJTTQND5RA8MKPQ&a=7XOC9&tp_a=7XOC9&b=3COPXFW7XCYGFYSZJTTQND5RA8MKPQ&tp_b=3COPXFW7XCYGFYSZJTTQND5RA8MKPQ&c=365799&tp_c=365799"},{"rt":2914,"stimulus":"\n            <h4 style=\"color:Orange;\">Student 4</h4>\n            <h2>The weight of your coin is <b style=\"color:Tomato;\">0.8</b>.</h2>\n            <p>In this block, you will be giving <b>two</b> sets of examples to Student 4.</p>\n                <p>You will receive feedback at the end of the block.</p>\n            <p></p>","response":0,"trial_type":"html-button-response","trial_index":34,"time_elapsed":626756,"internal_node_id":"0.0-30.0","params":{"nStudents":24,"maxFlips":30,"completionMinutes":45,"basePay":8,"maxBonus":9,"perTrialBonus":0.5,"perTrialBonusThreshold":0.05,"exampleCost":0.01},"classroomParams":{"A":{"a":1,"b":4},"B":{"a":4,"b":1},"C":{"a":2,"b":8},"D":{"a":8,"b":2}},"conditions":["nonSeqFull","nonSeqPartial","seqNoFeedback","seqFeedback"],"classroomPairings":[["A","B"],["C","D"]],"coinWeights":[0.2,0.5,0.8],"subjectId":"A3TBG0S2IEBVHU","assignmentId":"3COPXFW7XCYGFYSZJTTQND5RA8MKPQ","hitId":"3UDTAB6HH6LRO17U79I9TKUGSHV90J","url":"https://gershmanlab.com/experiments/alicia/teaching/experiment/?hitId=3UDTAB6HH6LRO17U79I9TKUGSHV90J&workerId=A3TBG0S2IEBVHU&assignmentId=3COPXFW7XCYGFYSZJTTQND5RA8MKPQ&a=7XOC9&tp_a=7XOC9&b=3COPXFW7XCYGFYSZJTTQND5RA8MKPQ&tp_b=3COPXFW7XCYGFYSZJTTQND5RA8MKPQ&c=365799&tp_c=365799"},{"rt":5576,"response":{"heads":"10","tails":"0"},"type":"response","condition":"seqNoFeedback","trueTheta":0.8,"classrooms":["C","D"],"studentTrueClassroom":"C","exampleSet":"first","trial_type":"survey-html-form","trial_index":35,"time_elapsed":632333,"internal_node_id":"0.0-31.0-0.0","params":{"nStudents":24,"maxFlips":30,"completionMinutes":45,"basePay":8,"maxBonus":9,"perTrialBonus":0.5,"perTrialBonusThreshold":0.05,"exampleCost":0.01},"classroomParams":{"A":{"a":1,"b":4},"B":{"a":4,"b":1},"C":{"a":2,"b":8},"D":{"a":8,"b":2}},"conditions":["nonSeqFull","nonSeqPartial","seqNoFeedback","seqFeedback"],"classroomPairings":[["A","B"],["C","D"]],"coinWeights":[0.2,0.5,0.8],"subjectId":"A3TBG0S2IEBVHU","assignmentId":"3COPXFW7XCYGFYSZJTTQND5RA8MKPQ","hitId":"3UDTAB6HH6LRO17U79I9TKUGSHV90J","url":"https://gershmanlab.com/experiments/alicia/teaching/experiment/?hitId=3UDTAB6HH6LRO17U79I9TKUGSHV90J&workerId=A3TBG0S2IEBVHU&assignmentId=3COPXFW7XCYGFYSZJTTQND5RA8MKPQ&a=7XOC9&tp_a=7XOC9&b=3COPXFW7XCYGFYSZJTTQND5RA8MKPQ&tp_b=3COPXFW7XCYGFYSZJTTQND5RA8MKPQ&c=365799&tp_c=365799","heads":10,"tails":0,"studentIndex":3,"studentTrueHypers":{"a":2,"b":8},"studentGuess":0.6,"delta":0.20000000000000007,"totalExamples":10,"bonusSoFar":0.45},{"rt":null,"stimulus":"Sending examples to student... ","response":null,"trial_type":"html-keyboard-response","trial_index":36,"time_elapsed":634098,"internal_node_id":"0.0-32.0","params":{"nStudents":24,"maxFlips":30,"completionMinutes":45,"basePay":8,"maxBonus":9,"perTrialBonus":0.5,"perTrialBonusThreshold":0.05,"exampleCost":0.01},"classroomParams":{"A":{"a":1,"b":4},"B":{"a":4,"b":1},"C":{"a":2,"b":8},"D":{"a":8,"b":2}},"conditions":["nonSeqFull","nonSeqPartial","seqNoFeedback","seqFeedback"],"classroomPairings":[["A","B"],["C","D"]],"coinWeights":[0.2,0.5,0.8],"subjectId":"A3TBG0S2IEBVHU","assignmentId":"3COPXFW7XCYGFYSZJTTQND5RA8MKPQ","hitId":"3UDTAB6HH6LRO17U79I9TKUGSHV90J","url":"https://gershmanlab.com/experiments/alicia/teaching/experiment/?hitId=3UDTAB6HH6LRO17U79I9TKUGSHV90J&workerId=A3TBG0S2IEBVHU&assignmentId=3COPXFW7XCYGFYSZJTTQND5RA8MKPQ&a=7XOC9&tp_a=7XOC9&b=3COPXFW7XCYGFYSZJTTQND5RA8MKPQ&tp_b=3COPXFW7XCYGFYSZJTTQND5RA8MKPQ&c=365799&tp_c=365799"},{"rt":null,"stimulus":"Examples sent to student! Waiting for student...","response":null,"trial_type":"html-keyboard-response","trial_index":37,"time_elapsed":639604,"internal_node_id":"0.0-33.0","params":{"nStudents":24,"maxFlips":30,"completionMinutes":45,"basePay":8,"maxBonus":9,"perTrialBonus":0.5,"perTrialBonusThreshold":0.05,"exampleCost":0.01},"classroomParams":{"A":{"a":1,"b":4},"B":{"a":4,"b":1},"C":{"a":2,"b":8},"D":{"a":8,"b":2}},"conditions":["nonSeqFull","nonSeqPartial","seqNoFeedback","seqFeedback"],"classroomPairings":[["A","B"],["C","D"]],"coinWeights":[0.2,0.5,0.8],"subjectId":"A3TBG0S2IEBVHU","assignmentId":"3COPXFW7XCYGFYSZJTTQND5RA8MKPQ","hitId":"3UDTAB6HH6LRO17U79I9TKUGSHV90J","url":"https://gershmanlab.com/experiments/alicia/teaching/experiment/?hitId=3UDTAB6HH6LRO17U79I9TKUGSHV90J&workerId=A3TBG0S2IEBVHU&assignmentId=3COPXFW7XCYGFYSZJTTQND5RA8MKPQ&a=7XOC9&tp_a=7XOC9&b=3COPXFW7XCYGFYSZJTTQND5RA8MKPQ&tp_b=3COPXFW7XCYGFYSZJTTQND5RA8MKPQ&c=365799&tp_c=365799"},{"rt":9642,"response":{"heads":"10","tails":"0"},"type":"response","condition":"seqNoFeedback","trueTheta":0.8,"classrooms":["C","D"],"studentTrueClassroom":"C","exampleSet":"second","trial_type":"survey-html-form","trial_index":38,"time_elapsed":649247,"internal_node_id":"0.0-34.0-0.0","params":{"nStudents":24,"maxFlips":30,"completionMinutes":45,"basePay":8,"maxBonus":9,"perTrialBonus":0.5,"perTrialBonusThreshold":0.05,"exampleCost":0.01},"classroomParams":{"A":{"a":1,"b":4},"B":{"a":4,"b":1},"C":{"a":2,"b":8},"D":{"a":8,"b":2}},"conditions":["nonSeqFull","nonSeqPartial","seqNoFeedback","seqFeedback"],"classroomPairings":[["A","B"],["C","D"]],"coinWeights":[0.2,0.5,0.8],"subjectId":"A3TBG0S2IEBVHU","assignmentId":"3COPXFW7XCYGFYSZJTTQND5RA8MKPQ","hitId":"3UDTAB6HH6LRO17U79I9TKUGSHV90J","url":"https://gershmanlab.com/experiments/alicia/teaching/experiment/?hitId=3UDTAB6HH6LRO17U79I9TKUGSHV90J&workerId=A3TBG0S2IEBVHU&assignmentId=3COPXFW7XCYGFYSZJTTQND5RA8MKPQ&a=7XOC9&tp_a=7XOC9&b=3COPXFW7XCYGFYSZJTTQND5RA8MKPQ&tp_b=3COPXFW7XCYGFYSZJTTQND5RA8MKPQ&c=365799&tp_c=365799","firstResponseHeads":10,"firstResponseTails":0,"secondResponseHeads":10,"secondResponseTails":0,"totalHeads":20,"totalTails":0,"studentIndex":3,"studentTrueHypers":{"a":2,"b":8},"studentGuess":0.7333333333333333,"delta":0.06666666666666676,"bonus":0,"bonusSoFar":0.45,"totalExamples":20},{"rt":null,"stimulus":"Sending examples to student... ","response":null,"trial_type":"html-keyboard-response","trial_index":39,"time_elapsed":651249,"internal_node_id":"0.0-35.0","params":{"nStudents":24,"maxFlips":30,"completionMinutes":45,"basePay":8,"maxBonus":9,"perTrialBonus":0.5,"perTrialBonusThreshold":0.05,"exampleCost":0.01},"classroomParams":{"A":{"a":1,"b":4},"B":{"a":4,"b":1},"C":{"a":2,"b":8},"D":{"a":8,"b":2}},"conditions":["nonSeqFull","nonSeqPartial","seqNoFeedback","seqFeedback"],"classroomPairings":[["A","B"],["C","D"]],"coinWeights":[0.2,0.5,0.8],"subjectId":"A3TBG0S2IEBVHU","assignmentId":"3COPXFW7XCYGFYSZJTTQND5RA8MKPQ","hitId":"3UDTAB6HH6LRO17U79I9TKUGSHV90J","url":"https://gershmanlab.com/experiments/alicia/teaching/experiment/?hitId=3UDTAB6HH6LRO17U79I9TKUGSHV90J&workerId=A3TBG0S2IEBVHU&assignmentId=3COPXFW7XCYGFYSZJTTQND5RA8MKPQ&a=7XOC9&tp_a=7XOC9&b=3COPXFW7XCYGFYSZJTTQND5RA8MKPQ&tp_b=3COPXFW7XCYGFYSZJTTQND5RA8MKPQ&c=365799&tp_c=365799"},{"rt":null,"stimulus":"Examples sent to student! Waiting for student...","response":null,"trial_type":"html-keyboard-response","trial_index":40,"time_elapsed":655765,"internal_node_id":"0.0-36.0","params":{"nStudents":24,"maxFlips":30,"completionMinutes":45,"basePay":8,"maxBonus":9,"perTrialBonus":0.5,"perTrialBonusThreshold":0.05,"exampleCost":0.01},"classroomParams":{"A":{"a":1,"b":4},"B":{"a":4,"b":1},"C":{"a":2,"b":8},"D":{"a":8,"b":2}},"conditions":["nonSeqFull","nonSeqPartial","seqNoFeedback","seqFeedback"],"classroomPairings":[["A","B"],["C","D"]],"coinWeights":[0.2,0.5,0.8],"subjectId":"A3TBG0S2IEBVHU","assignmentId":"3COPXFW7XCYGFYSZJTTQND5RA8MKPQ","hitId":"3UDTAB6HH6LRO17U79I9TKUGSHV90J","url":"https://gershmanlab.com/experiments/alicia/teaching/experiment/?hitId=3UDTAB6HH6LRO17U79I9TKUGSHV90J&workerId=A3TBG0S2IEBVHU&assignmentId=3COPXFW7XCYGFYSZJTTQND5RA8MKPQ&a=7XOC9&tp_a=7XOC9&b=3COPXFW7XCYGFYSZJTTQND5RA8MKPQ&tp_b=3COPXFW7XCYGFYSZJTTQND5RA8MKPQ&c=365799&tp_c=365799"},{"rt":5602,"stimulus":"\n                <p>Student 4's first guess for coin weight: <b style=\"color:Tomato\";>0.60</b></p>\n                <p>Student 4's second guess for coin weight: <b style=\"color:Tomato\";>0.73</b></p>\n                <p>You received a bonus of <b>$0.00</b> based on the student's second guess.</p>\n                <p>Total bonus so far: <b>$0.45</b></p>\n                <p>Press any key to continue.</p>\n                ","response":"enter","trial_type":"html-keyboard-response","trial_index":41,"time_elapsed":661368,"internal_node_id":"0.0-37.0","params":{"nStudents":24,"maxFlips":30,"completionMinutes":45,"basePay":8,"maxBonus":9,"perTrialBonus":0.5,"perTrialBonusThreshold":0.05,"exampleCost":0.01},"classroomParams":{"A":{"a":1,"b":4},"B":{"a":4,"b":1},"C":{"a":2,"b":8},"D":{"a":8,"b":2}},"conditions":["nonSeqFull","nonSeqPartial","seqNoFeedback","seqFeedback"],"classroomPairings":[["A","B"],["C","D"]],"coinWeights":[0.2,0.5,0.8],"subjectId":"A3TBG0S2IEBVHU","assignmentId":"3COPXFW7XCYGFYSZJTTQND5RA8MKPQ","hitId":"3UDTAB6HH6LRO17U79I9TKUGSHV90J","url":"https://gershmanlab.com/experiments/alicia/teaching/experiment/?hitId=3UDTAB6HH6LRO17U79I9TKUGSHV90J&workerId=A3TBG0S2IEBVHU&assignmentId=3COPXFW7XCYGFYSZJTTQND5RA8MKPQ&a=7XOC9&tp_a=7XOC9&b=3COPXFW7XCYGFYSZJTTQND5RA8MKPQ&tp_b=3COPXFW7XCYGFYSZJTTQND5RA8MKPQ&c=365799&tp_c=365799"},{"rt":null,"stimulus":"<div style=\"font-size:60px;\">Next student</div>","response":null,"trial_type":"html-keyboard-response","trial_index":42,"time_elapsed":663375,"internal_node_id":"0.0-38.0-0.0","params":{"nStudents":24,"maxFlips":30,"completionMinutes":45,"basePay":8,"maxBonus":9,"perTrialBonus":0.5,"perTrialBonusThreshold":0.05,"exampleCost":0.01},"classroomParams":{"A":{"a":1,"b":4},"B":{"a":4,"b":1},"C":{"a":2,"b":8},"D":{"a":8,"b":2}},"conditions":["nonSeqFull","nonSeqPartial","seqNoFeedback","seqFeedback"],"classroomPairings":[["A","B"],["C","D"]],"coinWeights":[0.2,0.5,0.8],"subjectId":"A3TBG0S2IEBVHU","assignmentId":"3COPXFW7XCYGFYSZJTTQND5RA8MKPQ","hitId":"3UDTAB6HH6LRO17U79I9TKUGSHV90J","url":"https://gershmanlab.com/experiments/alicia/teaching/experiment/?hitId=3UDTAB6HH6LRO17U79I9TKUGSHV90J&workerId=A3TBG0S2IEBVHU&assignmentId=3COPXFW7XCYGFYSZJTTQND5RA8MKPQ&a=7XOC9&tp_a=7XOC9&b=3COPXFW7XCYGFYSZJTTQND5RA8MKPQ&tp_b=3COPXFW7XCYGFYSZJTTQND5RA8MKPQ&c=365799&tp_c=365799"},{"rt":3409,"stimulus":"\n            <h4 style=\"color:Orange;\">Student 5</h4>\n            <h2>The weight of your coin is <b style=\"color:Tomato;\">0.5</b>.</h2>\n            <p>In this block, you will be giving <b>two</b> sets of examples to Student 5.</p>\n                <p>You will receive feedback at the end of the block.</p>\n            <p></p>","response":0,"trial_type":"html-button-response","trial_index":43,"time_elapsed":666785,"internal_node_id":"0.0-39.0","params":{"nStudents":24,"maxFlips":30,"completionMinutes":45,"basePay":8,"maxBonus":9,"perTrialBonus":0.5,"perTrialBonusThreshold":0.05,"exampleCost":0.01},"classroomParams":{"A":{"a":1,"b":4},"B":{"a":4,"b":1},"C":{"a":2,"b":8},"D":{"a":8,"b":2}},"conditions":["nonSeqFull","nonSeqPartial","seqNoFeedback","seqFeedback"],"classroomPairings":[["A","B"],["C","D"]],"coinWeights":[0.2,0.5,0.8],"subjectId":"A3TBG0S2IEBVHU","assignmentId":"3COPXFW7XCYGFYSZJTTQND5RA8MKPQ","hitId":"3UDTAB6HH6LRO17U79I9TKUGSHV90J","url":"https://gershmanlab.com/experiments/alicia/teaching/experiment/?hitId=3UDTAB6HH6LRO17U79I9TKUGSHV90J&workerId=A3TBG0S2IEBVHU&assignmentId=3COPXFW7XCYGFYSZJTTQND5RA8MKPQ&a=7XOC9&tp_a=7XOC9&b=3COPXFW7XCYGFYSZJTTQND5RA8MKPQ&tp_b=3COPXFW7XCYGFYSZJTTQND5RA8MKPQ&c=365799&tp_c=365799"},{"rt":18305,"response":{"heads":"6","tails":"4"},"type":"response","condition":"seqNoFeedback","trueTheta":0.5,"classrooms":["C","D"],"studentTrueClassroom":"D","exampleSet":"first","trial_type":"survey-html-form","trial_index":44,"time_elapsed":685091,"internal_node_id":"0.0-40.0-0.0","params":{"nStudents":24,"maxFlips":30,"completionMinutes":45,"basePay":8,"maxBonus":9,"perTrialBonus":0.5,"perTrialBonusThreshold":0.05,"exampleCost":0.01},"classroomParams":{"A":{"a":1,"b":4},"B":{"a":4,"b":1},"C":{"a":2,"b":8},"D":{"a":8,"b":2}},"conditions":["nonSeqFull","nonSeqPartial","seqNoFeedback","seqFeedback"],"classroomPairings":[["A","B"],["C","D"]],"coinWeights":[0.2,0.5,0.8],"subjectId":"A3TBG0S2IEBVHU","assignmentId":"3COPXFW7XCYGFYSZJTTQND5RA8MKPQ","hitId":"3UDTAB6HH6LRO17U79I9TKUGSHV90J","url":"https://gershmanlab.com/experiments/alicia/teaching/experiment/?hitId=3UDTAB6HH6LRO17U79I9TKUGSHV90J&workerId=A3TBG0S2IEBVHU&assignmentId=3COPXFW7XCYGFYSZJTTQND5RA8MKPQ&a=7XOC9&tp_a=7XOC9&b=3COPXFW7XCYGFYSZJTTQND5RA8MKPQ&tp_b=3COPXFW7XCYGFYSZJTTQND5RA8MKPQ&c=365799&tp_c=365799","heads":6,"tails":4,"studentIndex":4,"studentTrueHypers":{"a":8,"b":2},"studentGuess":0.7,"delta":0.19999999999999996,"totalExamples":10,"bonusSoFar":0.45},{"rt":null,"stimulus":"Sending examples to student... ","response":null,"trial_type":"html-keyboard-response","trial_index":45,"time_elapsed":686354,"internal_node_id":"0.0-41.0","params":{"nStudents":24,"maxFlips":30,"completionMinutes":45,"basePay":8,"maxBonus":9,"perTrialBonus":0.5,"perTrialBonusThreshold":0.05,"exampleCost":0.01},"classroomParams":{"A":{"a":1,"b":4},"B":{"a":4,"b":1},"C":{"a":2,"b":8},"D":{"a":8,"b":2}},"conditions":["nonSeqFull","nonSeqPartial","seqNoFeedback","seqFeedback"],"classroomPairings":[["A","B"],["C","D"]],"coinWeights":[0.2,0.5,0.8],"subjectId":"A3TBG0S2IEBVHU","assignmentId":"3COPXFW7XCYGFYSZJTTQND5RA8MKPQ","hitId":"3UDTAB6HH6LRO17U79I9TKUGSHV90J","url":"https://gershmanlab.com/experiments/alicia/teaching/experiment/?hitId=3UDTAB6HH6LRO17U79I9TKUGSHV90J&workerId=A3TBG0S2IEBVHU&assignmentId=3COPXFW7XCYGFYSZJTTQND5RA8MKPQ&a=7XOC9&tp_a=7XOC9&b=3COPXFW7XCYGFYSZJTTQND5RA8MKPQ&tp_b=3COPXFW7XCYGFYSZJTTQND5RA8MKPQ&c=365799&tp_c=365799"},{"rt":null,"stimulus":"Examples sent to student! Waiting for student...","response":null,"trial_type":"html-keyboard-response","trial_index":46,"time_elapsed":691870,"internal_node_id":"0.0-42.0","params":{"nStudents":24,"maxFlips":30,"completionMinutes":45,"basePay":8,"maxBonus":9,"perTrialBonus":0.5,"perTrialBonusThreshold":0.05,"exampleCost":0.01},"classroomParams":{"A":{"a":1,"b":4},"B":{"a":4,"b":1},"C":{"a":2,"b":8},"D":{"a":8,"b":2}},"conditions":["nonSeqFull","nonSeqPartial","seqNoFeedback","seqFeedback"],"classroomPairings":[["A","B"],["C","D"]],"coinWeights":[0.2,0.5,0.8],"subjectId":"A3TBG0S2IEBVHU","assignmentId":"3COPXFW7XCYGFYSZJTTQND5RA8MKPQ","hitId":"3UDTAB6HH6LRO17U79I9TKUGSHV90J","url":"https://gershmanlab.com/experiments/alicia/teaching/experiment/?hitId=3UDTAB6HH6LRO17U79I9TKUGSHV90J&workerId=A3TBG0S2IEBVHU&assignmentId=3COPXFW7XCYGFYSZJTTQND5RA8MKPQ&a=7XOC9&tp_a=7XOC9&b=3COPXFW7XCYGFYSZJTTQND5RA8MKPQ&tp_b=3COPXFW7XCYGFYSZJTTQND5RA8MKPQ&c=365799&tp_c=365799"},{"rt":3132,"response":{"heads":"4","tails":"6"},"type":"response","condition":"seqNoFeedback","trueTheta":0.5,"classrooms":["C","D"],"studentTrueClassroom":"D","exampleSet":"second","trial_type":"survey-html-form","trial_index":47,"time_elapsed":695004,"internal_node_id":"0.0-43.0-0.0","params":{"nStudents":24,"maxFlips":30,"completionMinutes":45,"basePay":8,"maxBonus":9,"perTrialBonus":0.5,"perTrialBonusThreshold":0.05,"exampleCost":0.01},"classroomParams":{"A":{"a":1,"b":4},"B":{"a":4,"b":1},"C":{"a":2,"b":8},"D":{"a":8,"b":2}},"conditions":["nonSeqFull","nonSeqPartial","seqNoFeedback","seqFeedback"],"classroomPairings":[["A","B"],["C","D"]],"coinWeights":[0.2,0.5,0.8],"subjectId":"A3TBG0S2IEBVHU","assignmentId":"3COPXFW7XCYGFYSZJTTQND5RA8MKPQ","hitId":"3UDTAB6HH6LRO17U79I9TKUGSHV90J","url":"https://gershmanlab.com/experiments/alicia/teaching/experiment/?hitId=3UDTAB6HH6LRO17U79I9TKUGSHV90J&workerId=A3TBG0S2IEBVHU&assignmentId=3COPXFW7XCYGFYSZJTTQND5RA8MKPQ&a=7XOC9&tp_a=7XOC9&b=3COPXFW7XCYGFYSZJTTQND5RA8MKPQ&tp_b=3COPXFW7XCYGFYSZJTTQND5RA8MKPQ&c=365799&tp_c=365799","firstResponseHeads":6,"firstResponseTails":4,"secondResponseHeads":4,"secondResponseTails":6,"totalHeads":10,"totalTails":10,"studentIndex":4,"studentTrueHypers":{"a":8,"b":2},"studentGuess":0.6,"delta":0.09999999999999998,"bonus":0,"bonusSoFar":0.45,"totalExamples":20},{"rt":null,"stimulus":"Sending examples to student... ","response":null,"trial_type":"html-keyboard-response","trial_index":48,"time_elapsed":696256,"internal_node_id":"0.0-44.0","params":{"nStudents":24,"maxFlips":30,"completionMinutes":45,"basePay":8,"maxBonus":9,"perTrialBonus":0.5,"perTrialBonusThreshold":0.05,"exampleCost":0.01},"classroomParams":{"A":{"a":1,"b":4},"B":{"a":4,"b":1},"C":{"a":2,"b":8},"D":{"a":8,"b":2}},"conditions":["nonSeqFull","nonSeqPartial","seqNoFeedback","seqFeedback"],"classroomPairings":[["A","B"],["C","D"]],"coinWeights":[0.2,0.5,0.8],"subjectId":"A3TBG0S2IEBVHU","assignmentId":"3COPXFW7XCYGFYSZJTTQND5RA8MKPQ","hitId":"3UDTAB6HH6LRO17U79I9TKUGSHV90J","url":"https://gershmanlab.com/experiments/alicia/teaching/experiment/?hitId=3UDTAB6HH6LRO17U79I9TKUGSHV90J&workerId=A3TBG0S2IEBVHU&assignmentId=3COPXFW7XCYGFYSZJTTQND5RA8MKPQ&a=7XOC9&tp_a=7XOC9&b=3COPXFW7XCYGFYSZJTTQND5RA8MKPQ&tp_b=3COPXFW7XCYGFYSZJTTQND5RA8MKPQ&c=365799&tp_c=365799"},{"rt":null,"stimulus":"Examples sent to student! Waiting for student...","response":null,"trial_type":"html-keyboard-response","trial_index":49,"time_elapsed":700757,"internal_node_id":"0.0-45.0","params":{"nStudents":24,"maxFlips":30,"completionMinutes":45,"basePay":8,"maxBonus":9,"perTrialBonus":0.5,"perTrialBonusThreshold":0.05,"exampleCost":0.01},"classroomParams":{"A":{"a":1,"b":4},"B":{"a":4,"b":1},"C":{"a":2,"b":8},"D":{"a":8,"b":2}},"conditions":["nonSeqFull","nonSeqPartial","seqNoFeedback","seqFeedback"],"classroomPairings":[["A","B"],["C","D"]],"coinWeights":[0.2,0.5,0.8],"subjectId":"A3TBG0S2IEBVHU","assignmentId":"3COPXFW7XCYGFYSZJTTQND5RA8MKPQ","hitId":"3UDTAB6HH6LRO17U79I9TKUGSHV90J","url":"https://gershmanlab.com/experiments/alicia/teaching/experiment/?hitId=3UDTAB6HH6LRO17U79I9TKUGSHV90J&workerId=A3TBG0S2IEBVHU&assignmentId=3COPXFW7XCYGFYSZJTTQND5RA8MKPQ&a=7XOC9&tp_a=7XOC9&b=3COPXFW7XCYGFYSZJTTQND5RA8MKPQ&tp_b=3COPXFW7XCYGFYSZJTTQND5RA8MKPQ&c=365799&tp_c=365799"},{"rt":2606,"stimulus":"\n                <p>Student 5's first guess for coin weight: <b style=\"color:Tomato\";>0.70</b></p>\n                <p>Student 5's second guess for coin weight: <b style=\"color:Tomato\";>0.60</b></p>\n                <p>You received a bonus of <b>$0.00</b> based on the student's second guess.</p>\n                <p>Total bonus so far: <b>$0.45</b></p>\n                <p>Press any key to continue.</p>\n                ","response":"enter","trial_type":"html-keyboard-response","trial_index":50,"time_elapsed":703364,"internal_node_id":"0.0-46.0","params":{"nStudents":24,"maxFlips":30,"completionMinutes":45,"basePay":8,"maxBonus":9,"perTrialBonus":0.5,"perTrialBonusThreshold":0.05,"exampleCost":0.01},"classroomParams":{"A":{"a":1,"b":4},"B":{"a":4,"b":1},"C":{"a":2,"b":8},"D":{"a":8,"b":2}},"conditions":["nonSeqFull","nonSeqPartial","seqNoFeedback","seqFeedback"],"classroomPairings":[["A","B"],["C","D"]],"coinWeights":[0.2,0.5,0.8],"subjectId":"A3TBG0S2IEBVHU","assignmentId":"3COPXFW7XCYGFYSZJTTQND5RA8MKPQ","hitId":"3UDTAB6HH6LRO17U79I9TKUGSHV90J","url":"https://gershmanlab.com/experiments/alicia/teaching/experiment/?hitId=3UDTAB6HH6LRO17U79I9TKUGSHV90J&workerId=A3TBG0S2IEBVHU&assignmentId=3COPXFW7XCYGFYSZJTTQND5RA8MKPQ&a=7XOC9&tp_a=7XOC9&b=3COPXFW7XCYGFYSZJTTQND5RA8MKPQ&tp_b=3COPXFW7XCYGFYSZJTTQND5RA8MKPQ&c=365799&tp_c=365799"},{"rt":null,"stimulus":"<div style=\"font-size:60px;\">Next student</div>","response":null,"trial_type":"html-keyboard-response","trial_index":51,"time_elapsed":705369,"internal_node_id":"0.0-47.0-0.0","params":{"nStudents":24,"maxFlips":30,"completionMinutes":45,"basePay":8,"maxBonus":9,"perTrialBonus":0.5,"perTrialBonusThreshold":0.05,"exampleCost":0.01},"classroomParams":{"A":{"a":1,"b":4},"B":{"a":4,"b":1},"C":{"a":2,"b":8},"D":{"a":8,"b":2}},"conditions":["nonSeqFull","nonSeqPartial","seqNoFeedback","seqFeedback"],"classroomPairings":[["A","B"],["C","D"]],"coinWeights":[0.2,0.5,0.8],"subjectId":"A3TBG0S2IEBVHU","assignmentId":"3COPXFW7XCYGFYSZJTTQND5RA8MKPQ","hitId":"3UDTAB6HH6LRO17U79I9TKUGSHV90J","url":"https://gershmanlab.com/experiments/alicia/teaching/experiment/?hitId=3UDTAB6HH6LRO17U79I9TKUGSHV90J&workerId=A3TBG0S2IEBVHU&assignmentId=3COPXFW7XCYGFYSZJTTQND5RA8MKPQ&a=7XOC9&tp_a=7XOC9&b=3COPXFW7XCYGFYSZJTTQND5RA8MKPQ&tp_b=3COPXFW7XCYGFYSZJTTQND5RA8MKPQ&c=365799&tp_c=365799"},{"rt":2252,"stimulus":"\n            <h4 style=\"color:Orange;\">Student 6</h4>\n            <h2>The weight of your coin is <b style=\"color:Tomato;\">0.5</b>.</h2>\n            <p>In this block, you will be giving <b>one</b> set of examples to Student 6.</p>\n                <p>You will receive feedback at the end of the block.</p>\n            <p></p>","response":0,"trial_type":"html-button-response","trial_index":52,"time_elapsed":707621,"internal_node_id":"0.0-48.0","params":{"nStudents":24,"maxFlips":30,"completionMinutes":45,"basePay":8,"maxBonus":9,"perTrialBonus":0.5,"perTrialBonusThreshold":0.05,"exampleCost":0.01},"classroomParams":{"A":{"a":1,"b":4},"B":{"a":4,"b":1},"C":{"a":2,"b":8},"D":{"a":8,"b":2}},"conditions":["nonSeqFull","nonSeqPartial","seqNoFeedback","seqFeedback"],"classroomPairings":[["A","B"],["C","D"]],"coinWeights":[0.2,0.5,0.8],"subjectId":"A3TBG0S2IEBVHU","assignmentId":"3COPXFW7XCYGFYSZJTTQND5RA8MKPQ","hitId":"3UDTAB6HH6LRO17U79I9TKUGSHV90J","url":"https://gershmanlab.com/experiments/alicia/teaching/experiment/?hitId=3UDTAB6HH6LRO17U79I9TKUGSHV90J&workerId=A3TBG0S2IEBVHU&assignmentId=3COPXFW7XCYGFYSZJTTQND5RA8MKPQ&a=7XOC9&tp_a=7XOC9&b=3COPXFW7XCYGFYSZJTTQND5RA8MKPQ&tp_b=3COPXFW7XCYGFYSZJTTQND5RA8MKPQ&c=365799&tp_c=365799"},{"rt":3912,"response":{"heads":"5","tails":"5"},"type":"response","condition":"nonSeqFull","trueTheta":0.5,"classrooms":["A","B"],"studentTrueClassroom":"B","exampleSet":"first","trial_type":"survey-html-form","trial_index":53,"time_elapsed":711533,"internal_node_id":"0.0-49.0-0.0","params":{"nStudents":24,"maxFlips":30,"completionMinutes":45,"basePay":8,"maxBonus":9,"perTrialBonus":0.5,"perTrialBonusThreshold":0.05,"exampleCost":0.01},"classroomParams":{"A":{"a":1,"b":4},"B":{"a":4,"b":1},"C":{"a":2,"b":8},"D":{"a":8,"b":2}},"conditions":["nonSeqFull","nonSeqPartial","seqNoFeedback","seqFeedback"],"classroomPairings":[["A","B"],["C","D"]],"coinWeights":[0.2,0.5,0.8],"subjectId":"A3TBG0S2IEBVHU","assignmentId":"3COPXFW7XCYGFYSZJTTQND5RA8MKPQ","hitId":"3UDTAB6HH6LRO17U79I9TKUGSHV90J","url":"https://gershmanlab.com/experiments/alicia/teaching/experiment/?hitId=3UDTAB6HH6LRO17U79I9TKUGSHV90J&workerId=A3TBG0S2IEBVHU&assignmentId=3COPXFW7XCYGFYSZJTTQND5RA8MKPQ&a=7XOC9&tp_a=7XOC9&b=3COPXFW7XCYGFYSZJTTQND5RA8MKPQ&tp_b=3COPXFW7XCYGFYSZJTTQND5RA8MKPQ&c=365799&tp_c=365799","heads":5,"tails":5,"studentIndex":5,"studentTrueHypers":{"a":4,"b":1},"studentGuess":0.6,"delta":0.09999999999999998,"totalExamples":10,"bonus":0,"bonusSoFar":0.45},{"rt":null,"stimulus":"Sending examples to student... ","response":null,"trial_type":"html-keyboard-response","trial_index":54,"time_elapsed":713290,"internal_node_id":"0.0-50.0","params":{"nStudents":24,"maxFlips":30,"completionMinutes":45,"basePay":8,"maxBonus":9,"perTrialBonus":0.5,"perTrialBonusThreshold":0.05,"exampleCost":0.01},"classroomParams":{"A":{"a":1,"b":4},"B":{"a":4,"b":1},"C":{"a":2,"b":8},"D":{"a":8,"b":2}},"conditions":["nonSeqFull","nonSeqPartial","seqNoFeedback","seqFeedback"],"classroomPairings":[["A","B"],["C","D"]],"coinWeights":[0.2,0.5,0.8],"subjectId":"A3TBG0S2IEBVHU","assignmentId":"3COPXFW7XCYGFYSZJTTQND5RA8MKPQ","hitId":"3UDTAB6HH6LRO17U79I9TKUGSHV90J","url":"https://gershmanlab.com/experiments/alicia/teaching/experiment/?hitId=3UDTAB6HH6LRO17U79I9TKUGSHV90J&workerId=A3TBG0S2IEBVHU&assignmentId=3COPXFW7XCYGFYSZJTTQND5RA8MKPQ&a=7XOC9&tp_a=7XOC9&b=3COPXFW7XCYGFYSZJTTQND5RA8MKPQ&tp_b=3COPXFW7XCYGFYSZJTTQND5RA8MKPQ&c=365799&tp_c=365799"},{"rt":null,"stimulus":"Examples sent to student! Waiting for student...","response":null,"trial_type":"html-keyboard-response","trial_index":55,"time_elapsed":718299,"internal_node_id":"0.0-51.0","params":{"nStudents":24,"maxFlips":30,"completionMinutes":45,"basePay":8,"maxBonus":9,"perTrialBonus":0.5,"perTrialBonusThreshold":0.05,"exampleCost":0.01},"classroomParams":{"A":{"a":1,"b":4},"B":{"a":4,"b":1},"C":{"a":2,"b":8},"D":{"a":8,"b":2}},"conditions":["nonSeqFull","nonSeqPartial","seqNoFeedback","seqFeedback"],"classroomPairings":[["A","B"],["C","D"]],"coinWeights":[0.2,0.5,0.8],"subjectId":"A3TBG0S2IEBVHU","assignmentId":"3COPXFW7XCYGFYSZJTTQND5RA8MKPQ","hitId":"3UDTAB6HH6LRO17U79I9TKUGSHV90J","url":"https://gershmanlab.com/experiments/alicia/teaching/experiment/?hitId=3UDTAB6HH6LRO17U79I9TKUGSHV90J&workerId=A3TBG0S2IEBVHU&assignmentId=3COPXFW7XCYGFYSZJTTQND5RA8MKPQ&a=7XOC9&tp_a=7XOC9&b=3COPXFW7XCYGFYSZJTTQND5RA8MKPQ&tp_b=3COPXFW7XCYGFYSZJTTQND5RA8MKPQ&c=365799&tp_c=365799"},{"rt":3738,"stimulus":"\n                <p>Student's guess for coin weight: <b style=\"color:Tomato;\">0.60</b></p>\n                <p>You received a bonus of <b>$0</b>. Total bonus so far: <b>$0.45</b></b></p>\n                <p></p>\n                <p>Press any key to continue.</p>\n                ","response":"enter","trial_type":"html-keyboard-response","trial_index":56,"time_elapsed":722038,"internal_node_id":"0.0-52.0","params":{"nStudents":24,"maxFlips":30,"completionMinutes":45,"basePay":8,"maxBonus":9,"perTrialBonus":0.5,"perTrialBonusThreshold":0.05,"exampleCost":0.01},"classroomParams":{"A":{"a":1,"b":4},"B":{"a":4,"b":1},"C":{"a":2,"b":8},"D":{"a":8,"b":2}},"conditions":["nonSeqFull","nonSeqPartial","seqNoFeedback","seqFeedback"],"classroomPairings":[["A","B"],["C","D"]],"coinWeights":[0.2,0.5,0.8],"subjectId":"A3TBG0S2IEBVHU","assignmentId":"3COPXFW7XCYGFYSZJTTQND5RA8MKPQ","hitId":"3UDTAB6HH6LRO17U79I9TKUGSHV90J","url":"https://gershmanlab.com/experiments/alicia/teaching/experiment/?hitId=3UDTAB6HH6LRO17U79I9TKUGSHV90J&workerId=A3TBG0S2IEBVHU&assignmentId=3COPXFW7XCYGFYSZJTTQND5RA8MKPQ&a=7XOC9&tp_a=7XOC9&b=3COPXFW7XCYGFYSZJTTQND5RA8MKPQ&tp_b=3COPXFW7XCYGFYSZJTTQND5RA8MKPQ&c=365799&tp_c=365799"},{"rt":null,"stimulus":"<div style=\"font-size:60px;\">Next student</div>","response":null,"trial_type":"html-keyboard-response","trial_index":57,"time_elapsed":724293,"internal_node_id":"0.0-53.0-0.0","params":{"nStudents":24,"maxFlips":30,"completionMinutes":45,"basePay":8,"maxBonus":9,"perTrialBonus":0.5,"perTrialBonusThreshold":0.05,"exampleCost":0.01},"classroomParams":{"A":{"a":1,"b":4},"B":{"a":4,"b":1},"C":{"a":2,"b":8},"D":{"a":8,"b":2}},"conditions":["nonSeqFull","nonSeqPartial","seqNoFeedback","seqFeedback"],"classroomPairings":[["A","B"],["C","D"]],"coinWeights":[0.2,0.5,0.8],"subjectId":"A3TBG0S2IEBVHU","assignmentId":"3COPXFW7XCYGFYSZJTTQND5RA8MKPQ","hitId":"3UDTAB6HH6LRO17U79I9TKUGSHV90J","url":"https://gershmanlab.com/experiments/alicia/teaching/experiment/?hitId=3UDTAB6HH6LRO17U79I9TKUGSHV90J&workerId=A3TBG0S2IEBVHU&assignmentId=3COPXFW7XCYGFYSZJTTQND5RA8MKPQ&a=7XOC9&tp_a=7XOC9&b=3COPXFW7XCYGFYSZJTTQND5RA8MKPQ&tp_b=3COPXFW7XCYGFYSZJTTQND5RA8MKPQ&c=365799&tp_c=365799"},{"rt":1417,"stimulus":"\n            <h4 style=\"color:Orange;\">Student 7</h4>\n            <h2>The weight of your coin is <b style=\"color:Tomato;\">0.5</b>.</h2>\n            <p>In this block, you will be giving <b>one</b> set of examples to Student 7.</p>\n                <p>You will receive feedback at the end of the block.</p>\n            <p></p>","response":0,"trial_type":"html-button-response","trial_index":58,"time_elapsed":725711,"internal_node_id":"0.0-54.0","params":{"nStudents":24,"maxFlips":30,"completionMinutes":45,"basePay":8,"maxBonus":9,"perTrialBonus":0.5,"perTrialBonusThreshold":0.05,"exampleCost":0.01},"classroomParams":{"A":{"a":1,"b":4},"B":{"a":4,"b":1},"C":{"a":2,"b":8},"D":{"a":8,"b":2}},"conditions":["nonSeqFull","nonSeqPartial","seqNoFeedback","seqFeedback"],"classroomPairings":[["A","B"],["C","D"]],"coinWeights":[0.2,0.5,0.8],"subjectId":"A3TBG0S2IEBVHU","assignmentId":"3COPXFW7XCYGFYSZJTTQND5RA8MKPQ","hitId":"3UDTAB6HH6LRO17U79I9TKUGSHV90J","url":"https://gershmanlab.com/experiments/alicia/teaching/experiment/?hitId=3UDTAB6HH6LRO17U79I9TKUGSHV90J&workerId=A3TBG0S2IEBVHU&assignmentId=3COPXFW7XCYGFYSZJTTQND5RA8MKPQ&a=7XOC9&tp_a=7XOC9&b=3COPXFW7XCYGFYSZJTTQND5RA8MKPQ&tp_b=3COPXFW7XCYGFYSZJTTQND5RA8MKPQ&c=365799&tp_c=365799"},{"rt":7848,"response":{"heads":"5","tails":"5"},"type":"response","condition":"nonSeqPartial","trueTheta":0.5,"classrooms":["A","B"],"studentTrueClassroom":"B","exampleSet":"first","trial_type":"survey-html-form","trial_index":59,"time_elapsed":733560,"internal_node_id":"0.0-55.0-0.0","params":{"nStudents":24,"maxFlips":30,"completionMinutes":45,"basePay":8,"maxBonus":9,"perTrialBonus":0.5,"perTrialBonusThreshold":0.05,"exampleCost":0.01},"classroomParams":{"A":{"a":1,"b":4},"B":{"a":4,"b":1},"C":{"a":2,"b":8},"D":{"a":8,"b":2}},"conditions":["nonSeqFull","nonSeqPartial","seqNoFeedback","seqFeedback"],"classroomPairings":[["A","B"],["C","D"]],"coinWeights":[0.2,0.5,0.8],"subjectId":"A3TBG0S2IEBVHU","assignmentId":"3COPXFW7XCYGFYSZJTTQND5RA8MKPQ","hitId":"3UDTAB6HH6LRO17U79I9TKUGSHV90J","url":"https://gershmanlab.com/experiments/alicia/teaching/experiment/?hitId=3UDTAB6HH6LRO17U79I9TKUGSHV90J&workerId=A3TBG0S2IEBVHU&assignmentId=3COPXFW7XCYGFYSZJTTQND5RA8MKPQ&a=7XOC9&tp_a=7XOC9&b=3COPXFW7XCYGFYSZJTTQND5RA8MKPQ&tp_b=3COPXFW7XCYGFYSZJTTQND5RA8MKPQ&c=365799&tp_c=365799","heads":5,"tails":5,"studentIndex":6,"studentTrueHypers":{"a":4,"b":1},"studentGuess":0.6,"delta":0.09999999999999998,"totalExamples":10,"bonus":0,"bonusSoFar":0.45},{"rt":null,"stimulus":"Sending examples to student... ","response":null,"trial_type":"html-keyboard-response","trial_index":60,"time_elapsed":735312,"internal_node_id":"0.0-56.0","params":{"nStudents":24,"maxFlips":30,"completionMinutes":45,"basePay":8,"maxBonus":9,"perTrialBonus":0.5,"perTrialBonusThreshold":0.05,"exampleCost":0.01},"classroomParams":{"A":{"a":1,"b":4},"B":{"a":4,"b":1},"C":{"a":2,"b":8},"D":{"a":8,"b":2}},"conditions":["nonSeqFull","nonSeqPartial","seqNoFeedback","seqFeedback"],"classroomPairings":[["A","B"],["C","D"]],"coinWeights":[0.2,0.5,0.8],"subjectId":"A3TBG0S2IEBVHU","assignmentId":"3COPXFW7XCYGFYSZJTTQND5RA8MKPQ","hitId":"3UDTAB6HH6LRO17U79I9TKUGSHV90J","url":"https://gershmanlab.com/experiments/alicia/teaching/experiment/?hitId=3UDTAB6HH6LRO17U79I9TKUGSHV90J&workerId=A3TBG0S2IEBVHU&assignmentId=3COPXFW7XCYGFYSZJTTQND5RA8MKPQ&a=7XOC9&tp_a=7XOC9&b=3COPXFW7XCYGFYSZJTTQND5RA8MKPQ&tp_b=3COPXFW7XCYGFYSZJTTQND5RA8MKPQ&c=365799&tp_c=365799"},{"rt":null,"stimulus":"Examples sent to student! Waiting for student...","response":null,"trial_type":"html-keyboard-response","trial_index":61,"time_elapsed":739320,"internal_node_id":"0.0-57.0","params":{"nStudents":24,"maxFlips":30,"completionMinutes":45,"basePay":8,"maxBonus":9,"perTrialBonus":0.5,"perTrialBonusThreshold":0.05,"exampleCost":0.01},"classroomParams":{"A":{"a":1,"b":4},"B":{"a":4,"b":1},"C":{"a":2,"b":8},"D":{"a":8,"b":2}},"conditions":["nonSeqFull","nonSeqPartial","seqNoFeedback","seqFeedback"],"classroomPairings":[["A","B"],["C","D"]],"coinWeights":[0.2,0.5,0.8],"subjectId":"A3TBG0S2IEBVHU","assignmentId":"3COPXFW7XCYGFYSZJTTQND5RA8MKPQ","hitId":"3UDTAB6HH6LRO17U79I9TKUGSHV90J","url":"https://gershmanlab.com/experiments/alicia/teaching/experiment/?hitId=3UDTAB6HH6LRO17U79I9TKUGSHV90J&workerId=A3TBG0S2IEBVHU&assignmentId=3COPXFW7XCYGFYSZJTTQND5RA8MKPQ&a=7XOC9&tp_a=7XOC9&b=3COPXFW7XCYGFYSZJTTQND5RA8MKPQ&tp_b=3COPXFW7XCYGFYSZJTTQND5RA8MKPQ&c=365799&tp_c=365799"},{"rt":1575,"stimulus":"\n                <p>Student's guess for coin weight: <b style=\"color:Tomato;\">0.60</b></p>\n                <p>You received a bonus of <b>$0</b>. Total bonus so far: <b>$0.45</b></b></p>\n                <p></p>\n                <p>Press any key to continue.</p>\n                ","response":" ","trial_type":"html-keyboard-response","trial_index":62,"time_elapsed":740896,"internal_node_id":"0.0-58.0","params":{"nStudents":24,"maxFlips":30,"completionMinutes":45,"basePay":8,"maxBonus":9,"perTrialBonus":0.5,"perTrialBonusThreshold":0.05,"exampleCost":0.01},"classroomParams":{"A":{"a":1,"b":4},"B":{"a":4,"b":1},"C":{"a":2,"b":8},"D":{"a":8,"b":2}},"conditions":["nonSeqFull","nonSeqPartial","seqNoFeedback","seqFeedback"],"classroomPairings":[["A","B"],["C","D"]],"coinWeights":[0.2,0.5,0.8],"subjectId":"A3TBG0S2IEBVHU","assignmentId":"3COPXFW7XCYGFYSZJTTQND5RA8MKPQ","hitId":"3UDTAB6HH6LRO17U79I9TKUGSHV90J","url":"https://gershmanlab.com/experiments/alicia/teaching/experiment/?hitId=3UDTAB6HH6LRO17U79I9TKUGSHV90J&workerId=A3TBG0S2IEBVHU&assignmentId=3COPXFW7XCYGFYSZJTTQND5RA8MKPQ&a=7XOC9&tp_a=7XOC9&b=3COPXFW7XCYGFYSZJTTQND5RA8MKPQ&tp_b=3COPXFW7XCYGFYSZJTTQND5RA8MKPQ&c=365799&tp_c=365799"},{"rt":null,"stimulus":"<div style=\"font-size:60px;\">Next student</div>","response":null,"trial_type":"html-keyboard-response","trial_index":63,"time_elapsed":742906,"internal_node_id":"0.0-59.0-0.0","params":{"nStudents":24,"maxFlips":30,"completionMinutes":45,"basePay":8,"maxBonus":9,"perTrialBonus":0.5,"perTrialBonusThreshold":0.05,"exampleCost":0.01},"classroomParams":{"A":{"a":1,"b":4},"B":{"a":4,"b":1},"C":{"a":2,"b":8},"D":{"a":8,"b":2}},"conditions":["nonSeqFull","nonSeqPartial","seqNoFeedback","seqFeedback"],"classroomPairings":[["A","B"],["C","D"]],"coinWeights":[0.2,0.5,0.8],"subjectId":"A3TBG0S2IEBVHU","assignmentId":"3COPXFW7XCYGFYSZJTTQND5RA8MKPQ","hitId":"3UDTAB6HH6LRO17U79I9TKUGSHV90J","url":"https://gershmanlab.com/experiments/alicia/teaching/experiment/?hitId=3UDTAB6HH6LRO17U79I9TKUGSHV90J&workerId=A3TBG0S2IEBVHU&assignmentId=3COPXFW7XCYGFYSZJTTQND5RA8MKPQ&a=7XOC9&tp_a=7XOC9&b=3COPXFW7XCYGFYSZJTTQND5RA8MKPQ&tp_b=3COPXFW7XCYGFYSZJTTQND5RA8MKPQ&c=365799&tp_c=365799"},{"rt":1262,"stimulus":"\n            <h4 style=\"color:Orange;\">Student 8</h4>\n            <h2>The weight of your coin is <b style=\"color:Tomato;\">0.2</b>.</h2>\n            <p>In this block, you will be giving <b>two</b> sets of examples to Student 8.</p>\n                <p>You will see the student's guess after the first set of examples. You will also receive feedback at the end of the block.</p>\n            <p>To earn the highest bonus, you will have to <b>take into consideration the student's guess</b> when you choose your second set of examples.</p>","response":0,"trial_type":"html-button-response","trial_index":64,"time_elapsed":744169,"internal_node_id":"0.0-60.0","params":{"nStudents":24,"maxFlips":30,"completionMinutes":45,"basePay":8,"maxBonus":9,"perTrialBonus":0.5,"perTrialBonusThreshold":0.05,"exampleCost":0.01},"classroomParams":{"A":{"a":1,"b":4},"B":{"a":4,"b":1},"C":{"a":2,"b":8},"D":{"a":8,"b":2}},"conditions":["nonSeqFull","nonSeqPartial","seqNoFeedback","seqFeedback"],"classroomPairings":[["A","B"],["C","D"]],"coinWeights":[0.2,0.5,0.8],"subjectId":"A3TBG0S2IEBVHU","assignmentId":"3COPXFW7XCYGFYSZJTTQND5RA8MKPQ","hitId":"3UDTAB6HH6LRO17U79I9TKUGSHV90J","url":"https://gershmanlab.com/experiments/alicia/teaching/experiment/?hitId=3UDTAB6HH6LRO17U79I9TKUGSHV90J&workerId=A3TBG0S2IEBVHU&assignmentId=3COPXFW7XCYGFYSZJTTQND5RA8MKPQ&a=7XOC9&tp_a=7XOC9&b=3COPXFW7XCYGFYSZJTTQND5RA8MKPQ&tp_b=3COPXFW7XCYGFYSZJTTQND5RA8MKPQ&c=365799&tp_c=365799"},{"rt":3496,"response":{"heads":"2","tails":"8"},"type":"response","condition":"seqFeedback","trueTheta":0.2,"classrooms":["C","D"],"studentTrueClassroom":"C","exampleSet":"first","trial_type":"survey-html-form","trial_index":65,"time_elapsed":747665,"internal_node_id":"0.0-61.0-0.0","params":{"nStudents":24,"maxFlips":30,"completionMinutes":45,"basePay":8,"maxBonus":9,"perTrialBonus":0.5,"perTrialBonusThreshold":0.05,"exampleCost":0.01},"classroomParams":{"A":{"a":1,"b":4},"B":{"a":4,"b":1},"C":{"a":2,"b":8},"D":{"a":8,"b":2}},"conditions":["nonSeqFull","nonSeqPartial","seqNoFeedback","seqFeedback"],"classroomPairings":[["A","B"],["C","D"]],"coinWeights":[0.2,0.5,0.8],"subjectId":"A3TBG0S2IEBVHU","assignmentId":"3COPXFW7XCYGFYSZJTTQND5RA8MKPQ","hitId":"3UDTAB6HH6LRO17U79I9TKUGSHV90J","url":"https://gershmanlab.com/experiments/alicia/teaching/experiment/?hitId=3UDTAB6HH6LRO17U79I9TKUGSHV90J&workerId=A3TBG0S2IEBVHU&assignmentId=3COPXFW7XCYGFYSZJTTQND5RA8MKPQ&a=7XOC9&tp_a=7XOC9&b=3COPXFW7XCYGFYSZJTTQND5RA8MKPQ&tp_b=3COPXFW7XCYGFYSZJTTQND5RA8MKPQ&c=365799&tp_c=365799","heads":2,"tails":8,"studentIndex":7,"studentTrueHypers":{"a":2,"b":8},"studentGuess":0.2,"delta":0,"totalExamples":10,"bonusSoFar":0.45},{"rt":null,"stimulus":"Sending examples to student... ","response":null,"trial_type":"html-keyboard-response","trial_index":66,"time_elapsed":749416,"internal_node_id":"0.0-62.0","params":{"nStudents":24,"maxFlips":30,"completionMinutes":45,"basePay":8,"maxBonus":9,"perTrialBonus":0.5,"perTrialBonusThreshold":0.05,"exampleCost":0.01},"classroomParams":{"A":{"a":1,"b":4},"B":{"a":4,"b":1},"C":{"a":2,"b":8},"D":{"a":8,"b":2}},"conditions":["nonSeqFull","nonSeqPartial","seqNoFeedback","seqFeedback"],"classroomPairings":[["A","B"],["C","D"]],"coinWeights":[0.2,0.5,0.8],"subjectId":"A3TBG0S2IEBVHU","assignmentId":"3COPXFW7XCYGFYSZJTTQND5RA8MKPQ","hitId":"3UDTAB6HH6LRO17U79I9TKUGSHV90J","url":"https://gershmanlab.com/experiments/alicia/teaching/experiment/?hitId=3UDTAB6HH6LRO17U79I9TKUGSHV90J&workerId=A3TBG0S2IEBVHU&assignmentId=3COPXFW7XCYGFYSZJTTQND5RA8MKPQ&a=7XOC9&tp_a=7XOC9&b=3COPXFW7XCYGFYSZJTTQND5RA8MKPQ&tp_b=3COPXFW7XCYGFYSZJTTQND5RA8MKPQ&c=365799&tp_c=365799"},{"rt":null,"stimulus":"Examples sent to student! Waiting for student...","response":null,"trial_type":"html-keyboard-response","trial_index":67,"time_elapsed":753429,"internal_node_id":"0.0-63.0","params":{"nStudents":24,"maxFlips":30,"completionMinutes":45,"basePay":8,"maxBonus":9,"perTrialBonus":0.5,"perTrialBonusThreshold":0.05,"exampleCost":0.01},"classroomParams":{"A":{"a":1,"b":4},"B":{"a":4,"b":1},"C":{"a":2,"b":8},"D":{"a":8,"b":2}},"conditions":["nonSeqFull","nonSeqPartial","seqNoFeedback","seqFeedback"],"classroomPairings":[["A","B"],["C","D"]],"coinWeights":[0.2,0.5,0.8],"subjectId":"A3TBG0S2IEBVHU","assignmentId":"3COPXFW7XCYGFYSZJTTQND5RA8MKPQ","hitId":"3UDTAB6HH6LRO17U79I9TKUGSHV90J","url":"https://gershmanlab.com/experiments/alicia/teaching/experiment/?hitId=3UDTAB6HH6LRO17U79I9TKUGSHV90J&workerId=A3TBG0S2IEBVHU&assignmentId=3COPXFW7XCYGFYSZJTTQND5RA8MKPQ&a=7XOC9&tp_a=7XOC9&b=3COPXFW7XCYGFYSZJTTQND5RA8MKPQ&tp_b=3COPXFW7XCYGFYSZJTTQND5RA8MKPQ&c=365799&tp_c=365799"},{"rt":2204,"stimulus":"\n                <p>Student's guess for coin weight: <b style=\"color:Tomato;\">0.20</b></p>\n                <p></b></p>\n                <p>You will now send another set of examples to your student. <b>Remember to take your student's guess into consideration so that you can earn the highest bonus possible!</b> </p>\n                <p>Press any key to continue.</p>\n                ","response":"enter","trial_type":"html-keyboard-response","trial_index":68,"time_elapsed":755634,"internal_node_id":"0.0-64.0","params":{"nStudents":24,"maxFlips":30,"completionMinutes":45,"basePay":8,"maxBonus":9,"perTrialBonus":0.5,"perTrialBonusThreshold":0.05,"exampleCost":0.01},"classroomParams":{"A":{"a":1,"b":4},"B":{"a":4,"b":1},"C":{"a":2,"b":8},"D":{"a":8,"b":2}},"conditions":["nonSeqFull","nonSeqPartial","seqNoFeedback","seqFeedback"],"classroomPairings":[["A","B"],["C","D"]],"coinWeights":[0.2,0.5,0.8],"subjectId":"A3TBG0S2IEBVHU","assignmentId":"3COPXFW7XCYGFYSZJTTQND5RA8MKPQ","hitId":"3UDTAB6HH6LRO17U79I9TKUGSHV90J","url":"https://gershmanlab.com/experiments/alicia/teaching/experiment/?hitId=3UDTAB6HH6LRO17U79I9TKUGSHV90J&workerId=A3TBG0S2IEBVHU&assignmentId=3COPXFW7XCYGFYSZJTTQND5RA8MKPQ&a=7XOC9&tp_a=7XOC9&b=3COPXFW7XCYGFYSZJTTQND5RA8MKPQ&tp_b=3COPXFW7XCYGFYSZJTTQND5RA8MKPQ&c=365799&tp_c=365799"},{"rt":2552,"response":{"heads":"2","tails":"8"},"type":"response","condition":"seqFeedback","trueTheta":0.2,"classrooms":["C","D"],"studentTrueClassroom":"C","exampleSet":"second","trial_type":"survey-html-form","trial_index":69,"time_elapsed":758186,"internal_node_id":"0.0-65.0-0.0","params":{"nStudents":24,"maxFlips":30,"completionMinutes":45,"basePay":8,"maxBonus":9,"perTrialBonus":0.5,"perTrialBonusThreshold":0.05,"exampleCost":0.01},"classroomParams":{"A":{"a":1,"b":4},"B":{"a":4,"b":1},"C":{"a":2,"b":8},"D":{"a":8,"b":2}},"conditions":["nonSeqFull","nonSeqPartial","seqNoFeedback","seqFeedback"],"classroomPairings":[["A","B"],["C","D"]],"coinWeights":[0.2,0.5,0.8],"subjectId":"A3TBG0S2IEBVHU","assignmentId":"3COPXFW7XCYGFYSZJTTQND5RA8MKPQ","hitId":"3UDTAB6HH6LRO17U79I9TKUGSHV90J","url":"https://gershmanlab.com/experiments/alicia/teaching/experiment/?hitId=3UDTAB6HH6LRO17U79I9TKUGSHV90J&workerId=A3TBG0S2IEBVHU&assignmentId=3COPXFW7XCYGFYSZJTTQND5RA8MKPQ&a=7XOC9&tp_a=7XOC9&b=3COPXFW7XCYGFYSZJTTQND5RA8MKPQ&tp_b=3COPXFW7XCYGFYSZJTTQND5RA8MKPQ&c=365799&tp_c=365799","firstResponseHeads":2,"firstResponseTails":8,"secondResponseHeads":2,"secondResponseTails":8,"totalHeads":4,"totalTails":16,"studentIndex":7,"studentTrueHypers":{"a":2,"b":8},"studentGuess":0.2,"delta":0,"bonus":0.3,"bonusSoFar":0.75,"totalExamples":20},{"rt":null,"stimulus":"Sending examples to student... ","response":null,"trial_type":"html-keyboard-response","trial_index":70,"time_elapsed":759941,"internal_node_id":"0.0-66.0","params":{"nStudents":24,"maxFlips":30,"completionMinutes":45,"basePay":8,"maxBonus":9,"perTrialBonus":0.5,"perTrialBonusThreshold":0.05,"exampleCost":0.01},"classroomParams":{"A":{"a":1,"b":4},"B":{"a":4,"b":1},"C":{"a":2,"b":8},"D":{"a":8,"b":2}},"conditions":["nonSeqFull","nonSeqPartial","seqNoFeedback","seqFeedback"],"classroomPairings":[["A","B"],["C","D"]],"coinWeights":[0.2,0.5,0.8],"subjectId":"A3TBG0S2IEBVHU","assignmentId":"3COPXFW7XCYGFYSZJTTQND5RA8MKPQ","hitId":"3UDTAB6HH6LRO17U79I9TKUGSHV90J","url":"https://gershmanlab.com/experiments/alicia/teaching/experiment/?hitId=3UDTAB6HH6LRO17U79I9TKUGSHV90J&workerId=A3TBG0S2IEBVHU&assignmentId=3COPXFW7XCYGFYSZJTTQND5RA8MKPQ&a=7XOC9&tp_a=7XOC9&b=3COPXFW7XCYGFYSZJTTQND5RA8MKPQ&tp_b=3COPXFW7XCYGFYSZJTTQND5RA8MKPQ&c=365799&tp_c=365799"},{"rt":null,"stimulus":"Examples sent to student! Waiting for student...","response":null,"trial_type":"html-keyboard-response","trial_index":71,"time_elapsed":765950,"internal_node_id":"0.0-67.0","params":{"nStudents":24,"maxFlips":30,"completionMinutes":45,"basePay":8,"maxBonus":9,"perTrialBonus":0.5,"perTrialBonusThreshold":0.05,"exampleCost":0.01},"classroomParams":{"A":{"a":1,"b":4},"B":{"a":4,"b":1},"C":{"a":2,"b":8},"D":{"a":8,"b":2}},"conditions":["nonSeqFull","nonSeqPartial","seqNoFeedback","seqFeedback"],"classroomPairings":[["A","B"],["C","D"]],"coinWeights":[0.2,0.5,0.8],"subjectId":"A3TBG0S2IEBVHU","assignmentId":"3COPXFW7XCYGFYSZJTTQND5RA8MKPQ","hitId":"3UDTAB6HH6LRO17U79I9TKUGSHV90J","url":"https://gershmanlab.com/experiments/alicia/teaching/experiment/?hitId=3UDTAB6HH6LRO17U79I9TKUGSHV90J&workerId=A3TBG0S2IEBVHU&assignmentId=3COPXFW7XCYGFYSZJTTQND5RA8MKPQ&a=7XOC9&tp_a=7XOC9&b=3COPXFW7XCYGFYSZJTTQND5RA8MKPQ&tp_b=3COPXFW7XCYGFYSZJTTQND5RA8MKPQ&c=365799&tp_c=365799"},{"rt":1476,"stimulus":"\n                <p>Student 8's first guess for coin weight: <b style=\"color:Tomato\";>0.20</b></p>\n                <p>Student 8's second guess for coin weight: <b style=\"color:Tomato\";>0.20</b></p>\n                <p>You received a bonus of <b>$0.30</b> based on the student's second guess.</p>\n                <p>Total bonus so far: <b>$0.75</b></p>\n                <p>Press any key to continue.</p>\n                ","response":"enter","trial_type":"html-keyboard-response","trial_index":72,"time_elapsed":767427,"internal_node_id":"0.0-68.0","params":{"nStudents":24,"maxFlips":30,"completionMinutes":45,"basePay":8,"maxBonus":9,"perTrialBonus":0.5,"perTrialBonusThreshold":0.05,"exampleCost":0.01},"classroomParams":{"A":{"a":1,"b":4},"B":{"a":4,"b":1},"C":{"a":2,"b":8},"D":{"a":8,"b":2}},"conditions":["nonSeqFull","nonSeqPartial","seqNoFeedback","seqFeedback"],"classroomPairings":[["A","B"],["C","D"]],"coinWeights":[0.2,0.5,0.8],"subjectId":"A3TBG0S2IEBVHU","assignmentId":"3COPXFW7XCYGFYSZJTTQND5RA8MKPQ","hitId":"3UDTAB6HH6LRO17U79I9TKUGSHV90J","url":"https://gershmanlab.com/experiments/alicia/teaching/experiment/?hitId=3UDTAB6HH6LRO17U79I9TKUGSHV90J&workerId=A3TBG0S2IEBVHU&assignmentId=3COPXFW7XCYGFYSZJTTQND5RA8MKPQ&a=7XOC9&tp_a=7XOC9&b=3COPXFW7XCYGFYSZJTTQND5RA8MKPQ&tp_b=3COPXFW7XCYGFYSZJTTQND5RA8MKPQ&c=365799&tp_c=365799"},{"rt":null,"stimulus":"<div style=\"font-size:60px;\">Next student</div>","response":null,"trial_type":"html-keyboard-response","trial_index":73,"time_elapsed":769943,"internal_node_id":"0.0-69.0-0.0","params":{"nStudents":24,"maxFlips":30,"completionMinutes":45,"basePay":8,"maxBonus":9,"perTrialBonus":0.5,"perTrialBonusThreshold":0.05,"exampleCost":0.01},"classroomParams":{"A":{"a":1,"b":4},"B":{"a":4,"b":1},"C":{"a":2,"b":8},"D":{"a":8,"b":2}},"conditions":["nonSeqFull","nonSeqPartial","seqNoFeedback","seqFeedback"],"classroomPairings":[["A","B"],["C","D"]],"coinWeights":[0.2,0.5,0.8],"subjectId":"A3TBG0S2IEBVHU","assignmentId":"3COPXFW7XCYGFYSZJTTQND5RA8MKPQ","hitId":"3UDTAB6HH6LRO17U79I9TKUGSHV90J","url":"https://gershmanlab.com/experiments/alicia/teaching/experiment/?hitId=3UDTAB6HH6LRO17U79I9TKUGSHV90J&workerId=A3TBG0S2IEBVHU&assignmentId=3COPXFW7XCYGFYSZJTTQND5RA8MKPQ&a=7XOC9&tp_a=7XOC9&b=3COPXFW7XCYGFYSZJTTQND5RA8MKPQ&tp_b=3COPXFW7XCYGFYSZJTTQND5RA8MKPQ&c=365799&tp_c=365799"},{"rt":1628,"stimulus":"\n            <h4 style=\"color:Orange;\">Student 9</h4>\n            <h2>The weight of your coin is <b style=\"color:Tomato;\">0.8</b>.</h2>\n            <p>In this block, you will be giving <b>one</b> set of examples to Student 9.</p>\n                <p>You will receive feedback at the end of the block.</p>\n            <p></p>","response":0,"trial_type":"html-button-response","trial_index":74,"time_elapsed":771572,"internal_node_id":"0.0-70.0","params":{"nStudents":24,"maxFlips":30,"completionMinutes":45,"basePay":8,"maxBonus":9,"perTrialBonus":0.5,"perTrialBonusThreshold":0.05,"exampleCost":0.01},"classroomParams":{"A":{"a":1,"b":4},"B":{"a":4,"b":1},"C":{"a":2,"b":8},"D":{"a":8,"b":2}},"conditions":["nonSeqFull","nonSeqPartial","seqNoFeedback","seqFeedback"],"classroomPairings":[["A","B"],["C","D"]],"coinWeights":[0.2,0.5,0.8],"subjectId":"A3TBG0S2IEBVHU","assignmentId":"3COPXFW7XCYGFYSZJTTQND5RA8MKPQ","hitId":"3UDTAB6HH6LRO17U79I9TKUGSHV90J","url":"https://gershmanlab.com/experiments/alicia/teaching/experiment/?hitId=3UDTAB6HH6LRO17U79I9TKUGSHV90J&workerId=A3TBG0S2IEBVHU&assignmentId=3COPXFW7XCYGFYSZJTTQND5RA8MKPQ&a=7XOC9&tp_a=7XOC9&b=3COPXFW7XCYGFYSZJTTQND5RA8MKPQ&tp_b=3COPXFW7XCYGFYSZJTTQND5RA8MKPQ&c=365799&tp_c=365799"},{"rt":1327,"response":{"heads":"8","tails":"2"},"type":"response","condition":"nonSeqPartial","trueTheta":0.8,"classrooms":["C","D"],"studentTrueClassroom":"C","exampleSet":"first","trial_type":"survey-html-form","trial_index":75,"time_elapsed":772900,"internal_node_id":"0.0-71.0-0.0","params":{"nStudents":24,"maxFlips":30,"completionMinutes":45,"basePay":8,"maxBonus":9,"perTrialBonus":0.5,"perTrialBonusThreshold":0.05,"exampleCost":0.01},"classroomParams":{"A":{"a":1,"b":4},"B":{"a":4,"b":1},"C":{"a":2,"b":8},"D":{"a":8,"b":2}},"conditions":["nonSeqFull","nonSeqPartial","seqNoFeedback","seqFeedback"],"classroomPairings":[["A","B"],["C","D"]],"coinWeights":[0.2,0.5,0.8],"subjectId":"A3TBG0S2IEBVHU","assignmentId":"3COPXFW7XCYGFYSZJTTQND5RA8MKPQ","hitId":"3UDTAB6HH6LRO17U79I9TKUGSHV90J","url":"https://gershmanlab.com/experiments/alicia/teaching/experiment/?hitId=3UDTAB6HH6LRO17U79I9TKUGSHV90J&workerId=A3TBG0S2IEBVHU&assignmentId=3COPXFW7XCYGFYSZJTTQND5RA8MKPQ&a=7XOC9&tp_a=7XOC9&b=3COPXFW7XCYGFYSZJTTQND5RA8MKPQ&tp_b=3COPXFW7XCYGFYSZJTTQND5RA8MKPQ&c=365799&tp_c=365799","heads":8,"tails":2,"studentIndex":8,"studentTrueHypers":{"a":2,"b":8},"studentGuess":0.5,"delta":0.30000000000000004,"totalExamples":10,"bonus":0,"bonusSoFar":0.75},{"rt":null,"stimulus":"Sending examples to student... ","response":null,"trial_type":"html-keyboard-response","trial_index":76,"time_elapsed":774904,"internal_node_id":"0.0-72.0","params":{"nStudents":24,"maxFlips":30,"completionMinutes":45,"basePay":8,"maxBonus":9,"perTrialBonus":0.5,"perTrialBonusThreshold":0.05,"exampleCost":0.01},"classroomParams":{"A":{"a":1,"b":4},"B":{"a":4,"b":1},"C":{"a":2,"b":8},"D":{"a":8,"b":2}},"conditions":["nonSeqFull","nonSeqPartial","seqNoFeedback","seqFeedback"],"classroomPairings":[["A","B"],["C","D"]],"coinWeights":[0.2,0.5,0.8],"subjectId":"A3TBG0S2IEBVHU","assignmentId":"3COPXFW7XCYGFYSZJTTQND5RA8MKPQ","hitId":"3UDTAB6HH6LRO17U79I9TKUGSHV90J","url":"https://gershmanlab.com/experiments/alicia/teaching/experiment/?hitId=3UDTAB6HH6LRO17U79I9TKUGSHV90J&workerId=A3TBG0S2IEBVHU&assignmentId=3COPXFW7XCYGFYSZJTTQND5RA8MKPQ&a=7XOC9&tp_a=7XOC9&b=3COPXFW7XCYGFYSZJTTQND5RA8MKPQ&tp_b=3COPXFW7XCYGFYSZJTTQND5RA8MKPQ&c=365799&tp_c=365799"},{"rt":null,"stimulus":"Examples sent to student! Waiting for student...","response":null,"trial_type":"html-keyboard-response","trial_index":77,"time_elapsed":779415,"internal_node_id":"0.0-73.0","params":{"nStudents":24,"maxFlips":30,"completionMinutes":45,"basePay":8,"maxBonus":9,"perTrialBonus":0.5,"perTrialBonusThreshold":0.05,"exampleCost":0.01},"classroomParams":{"A":{"a":1,"b":4},"B":{"a":4,"b":1},"C":{"a":2,"b":8},"D":{"a":8,"b":2}},"conditions":["nonSeqFull","nonSeqPartial","seqNoFeedback","seqFeedback"],"classroomPairings":[["A","B"],["C","D"]],"coinWeights":[0.2,0.5,0.8],"subjectId":"A3TBG0S2IEBVHU","assignmentId":"3COPXFW7XCYGFYSZJTTQND5RA8MKPQ","hitId":"3UDTAB6HH6LRO17U79I9TKUGSHV90J","url":"https://gershmanlab.com/experiments/alicia/teaching/experiment/?hitId=3UDTAB6HH6LRO17U79I9TKUGSHV90J&workerId=A3TBG0S2IEBVHU&assignmentId=3COPXFW7XCYGFYSZJTTQND5RA8MKPQ&a=7XOC9&tp_a=7XOC9&b=3COPXFW7XCYGFYSZJTTQND5RA8MKPQ&tp_b=3COPXFW7XCYGFYSZJTTQND5RA8MKPQ&c=365799&tp_c=365799"},{"rt":1341,"stimulus":"\n                <p>Student's guess for coin weight: <b style=\"color:Tomato;\">0.50</b></p>\n                <p>You received a bonus of <b>$0</b>. Total bonus so far: <b>$0.75</b></b></p>\n                <p></p>\n                <p>Press any key to continue.</p>\n                ","response":"enter","trial_type":"html-keyboard-response","trial_index":78,"time_elapsed":780757,"internal_node_id":"0.0-74.0","params":{"nStudents":24,"maxFlips":30,"completionMinutes":45,"basePay":8,"maxBonus":9,"perTrialBonus":0.5,"perTrialBonusThreshold":0.05,"exampleCost":0.01},"classroomParams":{"A":{"a":1,"b":4},"B":{"a":4,"b":1},"C":{"a":2,"b":8},"D":{"a":8,"b":2}},"conditions":["nonSeqFull","nonSeqPartial","seqNoFeedback","seqFeedback"],"classroomPairings":[["A","B"],["C","D"]],"coinWeights":[0.2,0.5,0.8],"subjectId":"A3TBG0S2IEBVHU","assignmentId":"3COPXFW7XCYGFYSZJTTQND5RA8MKPQ","hitId":"3UDTAB6HH6LRO17U79I9TKUGSHV90J","url":"https://gershmanlab.com/experiments/alicia/teaching/experiment/?hitId=3UDTAB6HH6LRO17U79I9TKUGSHV90J&workerId=A3TBG0S2IEBVHU&assignmentId=3COPXFW7XCYGFYSZJTTQND5RA8MKPQ&a=7XOC9&tp_a=7XOC9&b=3COPXFW7XCYGFYSZJTTQND5RA8MKPQ&tp_b=3COPXFW7XCYGFYSZJTTQND5RA8MKPQ&c=365799&tp_c=365799"},{"rt":null,"stimulus":"<div style=\"font-size:60px;\">Next student</div>","response":null,"trial_type":"html-keyboard-response","trial_index":79,"time_elapsed":782759,"internal_node_id":"0.0-75.0-0.0","params":{"nStudents":24,"maxFlips":30,"completionMinutes":45,"basePay":8,"maxBonus":9,"perTrialBonus":0.5,"perTrialBonusThreshold":0.05,"exampleCost":0.01},"classroomParams":{"A":{"a":1,"b":4},"B":{"a":4,"b":1},"C":{"a":2,"b":8},"D":{"a":8,"b":2}},"conditions":["nonSeqFull","nonSeqPartial","seqNoFeedback","seqFeedback"],"classroomPairings":[["A","B"],["C","D"]],"coinWeights":[0.2,0.5,0.8],"subjectId":"A3TBG0S2IEBVHU","assignmentId":"3COPXFW7XCYGFYSZJTTQND5RA8MKPQ","hitId":"3UDTAB6HH6LRO17U79I9TKUGSHV90J","url":"https://gershmanlab.com/experiments/alicia/teaching/experiment/?hitId=3UDTAB6HH6LRO17U79I9TKUGSHV90J&workerId=A3TBG0S2IEBVHU&assignmentId=3COPXFW7XCYGFYSZJTTQND5RA8MKPQ&a=7XOC9&tp_a=7XOC9&b=3COPXFW7XCYGFYSZJTTQND5RA8MKPQ&tp_b=3COPXFW7XCYGFYSZJTTQND5RA8MKPQ&c=365799&tp_c=365799"},{"rt":4661,"stimulus":"\n            <h4 style=\"color:Orange;\">Student 10</h4>\n            <h2>The weight of your coin is <b style=\"color:Tomato;\">0.8</b>.</h2>\n            <p>In this block, you will be giving <b>one</b> set of examples to Student 10.</p>\n                <p>You will receive feedback at the end of the block.</p>\n            <p></p>","response":0,"trial_type":"html-button-response","trial_index":80,"time_elapsed":787421,"internal_node_id":"0.0-76.0","params":{"nStudents":24,"maxFlips":30,"completionMinutes":45,"basePay":8,"maxBonus":9,"perTrialBonus":0.5,"perTrialBonusThreshold":0.05,"exampleCost":0.01},"classroomParams":{"A":{"a":1,"b":4},"B":{"a":4,"b":1},"C":{"a":2,"b":8},"D":{"a":8,"b":2}},"conditions":["nonSeqFull","nonSeqPartial","seqNoFeedback","seqFeedback"],"classroomPairings":[["A","B"],["C","D"]],"coinWeights":[0.2,0.5,0.8],"subjectId":"A3TBG0S2IEBVHU","assignmentId":"3COPXFW7XCYGFYSZJTTQND5RA8MKPQ","hitId":"3UDTAB6HH6LRO17U79I9TKUGSHV90J","url":"https://gershmanlab.com/experiments/alicia/teaching/experiment/?hitId=3UDTAB6HH6LRO17U79I9TKUGSHV90J&workerId=A3TBG0S2IEBVHU&assignmentId=3COPXFW7XCYGFYSZJTTQND5RA8MKPQ&a=7XOC9&tp_a=7XOC9&b=3COPXFW7XCYGFYSZJTTQND5RA8MKPQ&tp_b=3COPXFW7XCYGFYSZJTTQND5RA8MKPQ&c=365799&tp_c=365799"},{"rt":1832,"response":{"heads":"8","tails":"2"},"type":"response","condition":"nonSeqFull","trueTheta":0.8,"classrooms":["A","B"],"studentTrueClassroom":"B","exampleSet":"first","trial_type":"survey-html-form","trial_index":81,"time_elapsed":789254,"internal_node_id":"0.0-77.0-0.0","params":{"nStudents":24,"maxFlips":30,"completionMinutes":45,"basePay":8,"maxBonus":9,"perTrialBonus":0.5,"perTrialBonusThreshold":0.05,"exampleCost":0.01},"classroomParams":{"A":{"a":1,"b":4},"B":{"a":4,"b":1},"C":{"a":2,"b":8},"D":{"a":8,"b":2}},"conditions":["nonSeqFull","nonSeqPartial","seqNoFeedback","seqFeedback"],"classroomPairings":[["A","B"],["C","D"]],"coinWeights":[0.2,0.5,0.8],"subjectId":"A3TBG0S2IEBVHU","assignmentId":"3COPXFW7XCYGFYSZJTTQND5RA8MKPQ","hitId":"3UDTAB6HH6LRO17U79I9TKUGSHV90J","url":"https://gershmanlab.com/experiments/alicia/teaching/experiment/?hitId=3UDTAB6HH6LRO17U79I9TKUGSHV90J&workerId=A3TBG0S2IEBVHU&assignmentId=3COPXFW7XCYGFYSZJTTQND5RA8MKPQ&a=7XOC9&tp_a=7XOC9&b=3COPXFW7XCYGFYSZJTTQND5RA8MKPQ&tp_b=3COPXFW7XCYGFYSZJTTQND5RA8MKPQ&c=365799&tp_c=365799","heads":8,"tails":2,"studentIndex":9,"studentTrueHypers":{"a":4,"b":1},"studentGuess":0.8,"delta":0,"totalExamples":10,"bonus":0.4,"bonusSoFar":1.15},{"rt":null,"stimulus":"Sending examples to student... ","response":null,"trial_type":"html-keyboard-response","trial_index":82,"time_elapsed":790505,"internal_node_id":"0.0-78.0","params":{"nStudents":24,"maxFlips":30,"completionMinutes":45,"basePay":8,"maxBonus":9,"perTrialBonus":0.5,"perTrialBonusThreshold":0.05,"exampleCost":0.01},"classroomParams":{"A":{"a":1,"b":4},"B":{"a":4,"b":1},"C":{"a":2,"b":8},"D":{"a":8,"b":2}},"conditions":["nonSeqFull","nonSeqPartial","seqNoFeedback","seqFeedback"],"classroomPairings":[["A","B"],["C","D"]],"coinWeights":[0.2,0.5,0.8],"subjectId":"A3TBG0S2IEBVHU","assignmentId":"3COPXFW7XCYGFYSZJTTQND5RA8MKPQ","hitId":"3UDTAB6HH6LRO17U79I9TKUGSHV90J","url":"https://gershmanlab.com/experiments/alicia/teaching/experiment/?hitId=3UDTAB6HH6LRO17U79I9TKUGSHV90J&workerId=A3TBG0S2IEBVHU&assignmentId=3COPXFW7XCYGFYSZJTTQND5RA8MKPQ&a=7XOC9&tp_a=7XOC9&b=3COPXFW7XCYGFYSZJTTQND5RA8MKPQ&tp_b=3COPXFW7XCYGFYSZJTTQND5RA8MKPQ&c=365799&tp_c=365799"},{"rt":null,"stimulus":"Examples sent to student! Waiting for student...","response":null,"trial_type":"html-keyboard-response","trial_index":83,"time_elapsed":796513,"internal_node_id":"0.0-79.0","params":{"nStudents":24,"maxFlips":30,"completionMinutes":45,"basePay":8,"maxBonus":9,"perTrialBonus":0.5,"perTrialBonusThreshold":0.05,"exampleCost":0.01},"classroomParams":{"A":{"a":1,"b":4},"B":{"a":4,"b":1},"C":{"a":2,"b":8},"D":{"a":8,"b":2}},"conditions":["nonSeqFull","nonSeqPartial","seqNoFeedback","seqFeedback"],"classroomPairings":[["A","B"],["C","D"]],"coinWeights":[0.2,0.5,0.8],"subjectId":"A3TBG0S2IEBVHU","assignmentId":"3COPXFW7XCYGFYSZJTTQND5RA8MKPQ","hitId":"3UDTAB6HH6LRO17U79I9TKUGSHV90J","url":"https://gershmanlab.com/experiments/alicia/teaching/experiment/?hitId=3UDTAB6HH6LRO17U79I9TKUGSHV90J&workerId=A3TBG0S2IEBVHU&assignmentId=3COPXFW7XCYGFYSZJTTQND5RA8MKPQ&a=7XOC9&tp_a=7XOC9&b=3COPXFW7XCYGFYSZJTTQND5RA8MKPQ&tp_b=3COPXFW7XCYGFYSZJTTQND5RA8MKPQ&c=365799&tp_c=365799"},{"rt":12389,"stimulus":"\n                <p>Student's guess for coin weight: <b style=\"color:Tomato;\">0.80</b></p>\n                <p>You received a bonus of <b>$0.4</b>. Total bonus so far: <b>$1.15</b></b></p>\n                <p></p>\n                <p>Press any key to continue.</p>\n                ","response":"enter","trial_type":"html-keyboard-response","trial_index":84,"time_elapsed":808903,"internal_node_id":"0.0-80.0","params":{"nStudents":24,"maxFlips":30,"completionMinutes":45,"basePay":8,"maxBonus":9,"perTrialBonus":0.5,"perTrialBonusThreshold":0.05,"exampleCost":0.01},"classroomParams":{"A":{"a":1,"b":4},"B":{"a":4,"b":1},"C":{"a":2,"b":8},"D":{"a":8,"b":2}},"conditions":["nonSeqFull","nonSeqPartial","seqNoFeedback","seqFeedback"],"classroomPairings":[["A","B"],["C","D"]],"coinWeights":[0.2,0.5,0.8],"subjectId":"A3TBG0S2IEBVHU","assignmentId":"3COPXFW7XCYGFYSZJTTQND5RA8MKPQ","hitId":"3UDTAB6HH6LRO17U79I9TKUGSHV90J","url":"https://gershmanlab.com/experiments/alicia/teaching/experiment/?hitId=3UDTAB6HH6LRO17U79I9TKUGSHV90J&workerId=A3TBG0S2IEBVHU&assignmentId=3COPXFW7XCYGFYSZJTTQND5RA8MKPQ&a=7XOC9&tp_a=7XOC9&b=3COPXFW7XCYGFYSZJTTQND5RA8MKPQ&tp_b=3COPXFW7XCYGFYSZJTTQND5RA8MKPQ&c=365799&tp_c=365799"},{"rt":null,"stimulus":"<div style=\"font-size:60px;\">Next student</div>","response":null,"trial_type":"html-keyboard-response","trial_index":85,"time_elapsed":811915,"internal_node_id":"0.0-81.0-0.0","params":{"nStudents":24,"maxFlips":30,"completionMinutes":45,"basePay":8,"maxBonus":9,"perTrialBonus":0.5,"perTrialBonusThreshold":0.05,"exampleCost":0.01},"classroomParams":{"A":{"a":1,"b":4},"B":{"a":4,"b":1},"C":{"a":2,"b":8},"D":{"a":8,"b":2}},"conditions":["nonSeqFull","nonSeqPartial","seqNoFeedback","seqFeedback"],"classroomPairings":[["A","B"],["C","D"]],"coinWeights":[0.2,0.5,0.8],"subjectId":"A3TBG0S2I