[{"rt":3454,"stimulus":"Welcome to the experiment. Press any key to begin.","response":"h","trial_type":"html-keyboard-response","trial_index":0,"time_elapsed":3485,"internal_node_id":"0.0-0.0","params":{"nStudents":24,"maxFlips":30,"completionMinutes":45,"basePay":8,"maxBonus":9,"perTrialBonus":0.5,"perTrialBonusThreshold":0.05,"exampleCost":0.01},"classroomParams":{"A":{"a":1,"b":4},"B":{"a":4,"b":1},"C":{"a":2,"b":8},"D":{"a":8,"b":2}},"conditions":["nonSeqFull","nonSeqPartial","seqNoFeedback","seqFeedback"],"classroomPairings":[["A","B"],["C","D"]],"coinWeights":[0.2,0.5,0.8],"subjectId":"A3UQ5DF8VVD975","assignmentId":"3Y9N9SS8LZX1U3H2TEAW6X70L3XD3U","hitId":"3AQN9REUTF20OMGWRXYK787QVFOYDP","url":"https://gershmanlab.com/experiments/alicia/teaching/experiment/?hitId=3AQN9REUTF20OMGWRXYK787QVFOYDP&workerId=A3UQ5DF8VVD975&assignmentId=3Y9N9SS8LZX1U3H2TEAW6X70L3XD3U&a=899Y9&tp_a=899Y9&b=3Y9N9SS8LZX1U3H2TEAW6X70L3XD3U&tp_b=3Y9N9SS8LZX1U3H2TEAW6X70L3XD3U&c=365799&tp_c=365799"},{"rt":15350,"stimulus":"\n        <h3>Please read this consent agreement carefully before deciding whether to participate in this experiment.</h3>\n        <p><b>Purpose of the research:</b> To examine how people teach effectively.</p>\n        <p><b>What you will do in this research:</b> You will teach students the weights of different coins.</p>\n        <p><b>Time required:</b> This experiment will take 45 minutes to complete.</p>\n        <p><b>Risks:</b> There are no anticipated risks associated with participating in this study.             The effects of participating should be comparable to those you would experience from viewing a computer monitor             and using a mouse and keyboard for the duration of the experiment.</p>\n        <p><b>Benefits:</b> The study provides important information about the nature of teaching.</p>\n        <p><b>Compensation:</b> You will receive <b>$8</b> for completing the experiment and a performance bonus of up to <b>$9</b>.</p>\n        <p><b>Confidentiality:</b> Your participation in this study will remain confidential.             No personally identifiable information will be associated with your data.             Your de-identified data may be shared with other researchers and used in future projects.</p>\n        <p><b>Participation and withdrawal:</b> Your participation in this study is completely voluntary and             you may refuse to participate or you may choose to withdraw at any time without penalty or loss of\n            benefits to which you are otherwise entitled.</p>\n        <p><b>How to contact the researcher:</b> If you have questions or concerns about your participation            or payment, or want to request a summary of research findings, please contact\n            Alicia Chen, aliciachen@college.harvard.edu.</p>\n        <p><b>Whom to contact about your rights in this research:</b> For questions, concerns, suggestions,             or complaints that have not been or cannot be addressed by the researcher, or to report             research-related harm, please contact the Committee on the Use of Human Subjects in Research at Harvard University,             1414 Massachusetts Avenue, Second Floor, Cambridge, MA 02138. Phone: 617-496-2847. Email: cuhs@fas.harvard.edu.</p>\n        ","response":0,"trial_type":"html-button-response","trial_index":1,"time_elapsed":18840,"internal_node_id":"0.0-1.0","params":{"nStudents":24,"maxFlips":30,"completionMinutes":45,"basePay":8,"maxBonus":9,"perTrialBonus":0.5,"perTrialBonusThreshold":0.05,"exampleCost":0.01},"classroomParams":{"A":{"a":1,"b":4},"B":{"a":4,"b":1},"C":{"a":2,"b":8},"D":{"a":8,"b":2}},"conditions":["nonSeqFull","nonSeqPartial","seqNoFeedback","seqFeedback"],"classroomPairings":[["A","B"],["C","D"]],"coinWeights":[0.2,0.5,0.8],"subjectId":"A3UQ5DF8VVD975","assignmentId":"3Y9N9SS8LZX1U3H2TEAW6X70L3XD3U","hitId":"3AQN9REUTF20OMGWRXYK787QVFOYDP","url":"https://gershmanlab.com/experiments/alicia/teaching/experiment/?hitId=3AQN9REUTF20OMGWRXYK787QVFOYDP&workerId=A3UQ5DF8VVD975&assignmentId=3Y9N9SS8LZX1U3H2TEAW6X70L3XD3U&a=899Y9&tp_a=899Y9&b=3Y9N9SS8LZX1U3H2TEAW6X70L3XD3U&tp_b=3Y9N9SS8LZX1U3H2TEAW6X70L3XD3U&c=365799&tp_c=365799"},{"view_history":[{"page_index":0,"viewing_time":5475},{"page_index":1,"viewing_time":2687},{"page_index":2,"viewing_time":31893},{"page_index":3,"viewing_time":25748},{"page_index":4,"viewing_time":8995},{"page_index":5,"viewing_time":28082},{"page_index":6,"viewing_time":42703}],"rt":145585,"trial_type":"instructions","trial_index":2,"time_elapsed":164430,"internal_node_id":"0.0-2.0-0.0","params":{"nStudents":24,"maxFlips":30,"completionMinutes":45,"basePay":8,"maxBonus":9,"perTrialBonus":0.5,"perTrialBonusThreshold":0.05,"exampleCost":0.01},"classroomParams":{"A":{"a":1,"b":4},"B":{"a":4,"b":1},"C":{"a":2,"b":8},"D":{"a":8,"b":2}},"conditions":["nonSeqFull","nonSeqPartial","seqNoFeedback","seqFeedback"],"classroomPairings":[["A","B"],["C","D"]],"coinWeights":[0.2,0.5,0.8],"subjectId":"A3UQ5DF8VVD975","assignmentId":"3Y9N9SS8LZX1U3H2TEAW6X70L3XD3U","hitId":"3AQN9REUTF20OMGWRXYK787QVFOYDP","url":"https://gershmanlab.com/experiments/alicia/teaching/experiment/?hitId=3AQN9REUTF20OMGWRXYK787QVFOYDP&workerId=A3UQ5DF8VVD975&assignmentId=3Y9N9SS8LZX1U3H2TEAW6X70L3XD3U&a=899Y9&tp_a=899Y9&b=3Y9N9SS8LZX1U3H2TEAW6X70L3XD3U&tp_b=3Y9N9SS8LZX1U3H2TEAW6X70L3XD3U&c=365799&tp_c=365799"},{"rt":47722,"response":{"Q0":"Students in different classrooms will have seen a different number of heads and tails before seeing the examples you select for them.","Q1":"By <b>considering the student's classroom information</b> so that I can teach efficiently and accurately/helpfully at the same time (because each example I give to the student costs money!).","Q2":"The coin lands heads 90% of the time.","Q3":"Yes, I might encounter the same student twice.","Q4":"The students are also on the same alien planet as you, where coins can be unfair.","Q5":"Based on the student's second (and final) guess."},"question_order":[3,1,2,5,0,4],"trial_type":"survey-multi-choice","trial_index":3,"time_elapsed":212164,"internal_node_id":"0.0-2.0-1.0","params":{"nStudents":24,"maxFlips":30,"completionMinutes":45,"basePay":8,"maxBonus":9,"perTrialBonus":0.5,"perTrialBonusThreshold":0.05,"exampleCost":0.01},"classroomParams":{"A":{"a":1,"b":4},"B":{"a":4,"b":1},"C":{"a":2,"b":8},"D":{"a":8,"b":2}},"conditions":["nonSeqFull","nonSeqPartial","seqNoFeedback","seqFeedback"],"classroomPairings":[["A","B"],["C","D"]],"coinWeights":[0.2,0.5,0.8],"subjectId":"A3UQ5DF8VVD975","assignmentId":"3Y9N9SS8LZX1U3H2TEAW6X70L3XD3U","hitId":"3AQN9REUTF20OMGWRXYK787QVFOYDP","url":"https://gershmanlab.com/experiments/alicia/teaching/experiment/?hitId=3AQN9REUTF20OMGWRXYK787QVFOYDP&workerId=A3UQ5DF8VVD975&assignmentId=3Y9N9SS8LZX1U3H2TEAW6X70L3XD3U&a=899Y9&tp_a=899Y9&b=3Y9N9SS8LZX1U3H2TEAW6X70L3XD3U&tp_b=3Y9N9SS8LZX1U3H2TEAW6X70L3XD3U&c=365799&tp_c=365799","pass":false},{"rt":3275,"stimulus":"Oops, you have missed question(s) on the comprehension check! We'll show you the instructions again.","response":0,"trial_type":"html-button-response","trial_index":4,"time_elapsed":215455,"internal_node_id":"0.0-2.0-2.0-0.0","params":{"nStudents":24,"maxFlips":30,"completionMinutes":45,"basePay":8,"maxBonus":9,"perTrialBonus":0.5,"perTrialBonusThreshold":0.05,"exampleCost":0.01},"classroomParams":{"A":{"a":1,"b":4},"B":{"a":4,"b":1},"C":{"a":2,"b":8},"D":{"a":8,"b":2}},"conditions":["nonSeqFull","nonSeqPartial","seqNoFeedback","seqFeedback"],"classroomPairings":[["A","B"],["C","D"]],"coinWeights":[0.2,0.5,0.8],"subjectId":"A3UQ5DF8VVD975","assignmentId":"3Y9N9SS8LZX1U3H2TEAW6X70L3XD3U","hitId":"3AQN9REUTF20OMGWRXYK787QVFOYDP","url":"https://gershmanlab.com/experiments/alicia/teaching/experiment/?hitId=3AQN9REUTF20OMGWRXYK787QVFOYDP&workerId=A3UQ5DF8VVD975&assignmentId=3Y9N9SS8LZX1U3H2TEAW6X70L3XD3U&a=899Y9&tp_a=899Y9&b=3Y9N9SS8LZX1U3H2TEAW6X70L3XD3U&tp_b=3Y9N9SS8LZX1U3H2TEAW6X70L3XD3U&c=365799&tp_c=365799"},{"view_history":[{"page_index":0,"viewing_time":2177},{"page_index":1,"viewing_time":1786},{"page_index":2,"viewing_time":6376},{"page_index":3,"viewing_time":6012},{"page_index":4,"viewing_time":6505},{"page_index":5,"viewing_time":7140},{"page_index":6,"viewing_time":3025}],"rt":33021,"trial_type":"instructions","trial_index":5,"time_elapsed":248479,"internal_node_id":"0.0-2.1-0.1","params":{"nStudents":24,"maxFlips":30,"completionMinutes":45,"basePay":8,"maxBonus":9,"perTrialBonus":0.5,"perTrialBonusThreshold":0.05,"exampleCost":0.01},"classroomParams":{"A":{"a":1,"b":4},"B":{"a":4,"b":1},"C":{"a":2,"b":8},"D":{"a":8,"b":2}},"conditions":["nonSeqFull","nonSeqPartial","seqNoFeedback","seqFeedback"],"classroomPairings":[["A","B"],["C","D"]],"coinWeights":[0.2,0.5,0.8],"subjectId":"A3UQ5DF8VVD975","assignmentId":"3Y9N9SS8LZX1U3H2TEAW6X70L3XD3U","hitId":"3AQN9REUTF20OMGWRXYK787QVFOYDP","url":"https://gershmanlab.com/experiments/alicia/teaching/experiment/?hitId=3AQN9REUTF20OMGWRXYK787QVFOYDP&workerId=A3UQ5DF8VVD975&assignmentId=3Y9N9SS8LZX1U3H2TEAW6X70L3XD3U&a=899Y9&tp_a=899Y9&b=3Y9N9SS8LZX1U3H2TEAW6X70L3XD3U&tp_b=3Y9N9SS8LZX1U3H2TEAW6X70L3XD3U&c=365799&tp_c=365799"},{"rt":31911,"response":{"Q0":"Students in different classrooms will have seen a different number of heads and tails before seeing the examples you select for them.","Q1":"By <b>considering the student's classroom information</b> so that I can teach efficiently and accurately/helpfully at the same time (because each example I give to the student costs money!).","Q2":"The coin lands heads 90% of the time.","Q3":"No, I will teach a <b>new</b> student each time.","Q4":"The students are also on the same alien planet as you, where coins can be unfair.","Q5":"Based on the student's second (and final) guess."},"question_order":[0,3,1,5,4,2],"trial_type":"survey-multi-choice","trial_index":6,"time_elapsed":280396,"internal_node_id":"0.0-2.1-1.1","params":{"nStudents":24,"maxFlips":30,"completionMinutes":45,"basePay":8,"maxBonus":9,"perTrialBonus":0.5,"perTrialBonusThreshold":0.05,"exampleCost":0.01},"classroomParams":{"A":{"a":1,"b":4},"B":{"a":4,"b":1},"C":{"a":2,"b":8},"D":{"a":8,"b":2}},"conditions":["nonSeqFull","nonSeqPartial","seqNoFeedback","seqFeedback"],"classroomPairings":[["A","B"],["C","D"]],"coinWeights":[0.2,0.5,0.8],"subjectId":"A3UQ5DF8VVD975","assignmentId":"3Y9N9SS8LZX1U3H2TEAW6X70L3XD3U","hitId":"3AQN9REUTF20OMGWRXYK787QVFOYDP","url":"https://gershmanlab.com/experiments/alicia/teaching/experiment/?hitId=3AQN9REUTF20OMGWRXYK787QVFOYDP&workerId=A3UQ5DF8VVD975&assignmentId=3Y9N9SS8LZX1U3H2TEAW6X70L3XD3U&a=899Y9&tp_a=899Y9&b=3Y9N9SS8LZX1U3H2TEAW6X70L3XD3U&tp_b=3Y9N9SS8LZX1U3H2TEAW6X70L3XD3U&c=365799&tp_c=365799","pass":true},{"rt":null,"stimulus":"<div style=\"font-size:30px;\">Congrats on passing the comprehension quiz! The experiment will begin in a few seconds.</div>","response":null,"trial_type":"html-keyboard-response","trial_index":7,"time_elapsed":283412,"internal_node_id":"0.0-3.0","params":{"nStudents":24,"maxFlips":30,"completionMinutes":45,"basePay":8,"maxBonus":9,"perTrialBonus":0.5,"perTrialBonusThreshold":0.05,"exampleCost":0.01},"classroomParams":{"A":{"a":1,"b":4},"B":{"a":4,"b":1},"C":{"a":2,"b":8},"D":{"a":8,"b":2}},"conditions":["nonSeqFull","nonSeqPartial","seqNoFeedback","seqFeedback"],"classroomPairings":[["A","B"],["C","D"]],"coinWeights":[0.2,0.5,0.8],"subjectId":"A3UQ5DF8VVD975","assignmentId":"3Y9N9SS8LZX1U3H2TEAW6X70L3XD3U","hitId":"3AQN9REUTF20OMGWRXYK787QVFOYDP","url":"https://gershmanlab.com/experiments/alicia/teaching/experiment/?hitId=3AQN9REUTF20OMGWRXYK787QVFOYDP&workerId=A3UQ5DF8VVD975&assignmentId=3Y9N9SS8LZX1U3H2TEAW6X70L3XD3U&a=899Y9&tp_a=899Y9&b=3Y9N9SS8LZX1U3H2TEAW6X70L3XD3U&tp_b=3Y9N9SS8LZX1U3H2TEAW6X70L3XD3U&c=365799&tp_c=365799"},{"rt":null,"stimulus":"<div style=\"font-size:50px;\">First student</div>","response":null,"trial_type":"html-keyboard-response","trial_index":8,"time_elapsed":286419,"internal_node_id":"0.0-4.0","params":{"nStudents":24,"maxFlips":30,"completionMinutes":45,"basePay":8,"maxBonus":9,"perTrialBonus":0.5,"perTrialBonusThreshold":0.05,"exampleCost":0.01},"classroomParams":{"A":{"a":1,"b":4},"B":{"a":4,"b":1},"C":{"a":2,"b":8},"D":{"a":8,"b":2}},"conditions":["nonSeqFull","nonSeqPartial","seqNoFeedback","seqFeedback"],"classroomPairings":[["A","B"],["C","D"]],"coinWeights":[0.2,0.5,0.8],"subjectId":"A3UQ5DF8VVD975","assignmentId":"3Y9N9SS8LZX1U3H2TEAW6X70L3XD3U","hitId":"3AQN9REUTF20OMGWRXYK787QVFOYDP","url":"https://gershmanlab.com/experiments/alicia/teaching/experiment/?hitId=3AQN9REUTF20OMGWRXYK787QVFOYDP&workerId=A3UQ5DF8VVD975&assignmentId=3Y9N9SS8LZX1U3H2TEAW6X70L3XD3U&a=899Y9&tp_a=899Y9&b=3Y9N9SS8LZX1U3H2TEAW6X70L3XD3U&tp_b=3Y9N9SS8LZX1U3H2TEAW6X70L3XD3U&c=365799&tp_c=365799"},{"rt":8778,"stimulus":"\n            <h4 style=\"color:Orange;\">Student 1</h4>\n            <h2>The weight of your coin is <b style=\"color:Tomato;\">0.2</b>.</h2>\n            <p>In this block, you will be giving <b>two</b> sets of examples to Student 1.</p>\n                <p>You will receive feedback at the end of the block.</p>\n            <p></p>","response":0,"trial_type":"html-button-response","trial_index":9,"time_elapsed":295199,"internal_node_id":"0.0-5.0","params":{"nStudents":24,"maxFlips":30,"completionMinutes":45,"basePay":8,"maxBonus":9,"perTrialBonus":0.5,"perTrialBonusThreshold":0.05,"exampleCost":0.01},"classroomParams":{"A":{"a":1,"b":4},"B":{"a":4,"b":1},"C":{"a":2,"b":8},"D":{"a":8,"b":2}},"conditions":["nonSeqFull","nonSeqPartial","seqNoFeedback","seqFeedback"],"classroomPairings":[["A","B"],["C","D"]],"coinWeights":[0.2,0.5,0.8],"subjectId":"A3UQ5DF8VVD975","assignmentId":"3Y9N9SS8LZX1U3H2TEAW6X70L3XD3U","hitId":"3AQN9REUTF20OMGWRXYK787QVFOYDP","url":"https://gershmanlab.com/experiments/alicia/teaching/experiment/?hitId=3AQN9REUTF20OMGWRXYK787QVFOYDP&workerId=A3UQ5DF8VVD975&assignmentId=3Y9N9SS8LZX1U3H2TEAW6X70L3XD3U&a=899Y9&tp_a=899Y9&b=3Y9N9SS8LZX1U3H2TEAW6X70L3XD3U&tp_b=3Y9N9SS8LZX1U3H2TEAW6X70L3XD3U&c=365799&tp_c=365799"},{"rt":41552,"response":{"heads":"1","tails":"4"},"type":"response","condition":"seqNoFeedback","trueTheta":0.2,"classrooms":["A","B"],"studentTrueClassroom":"A","exampleSet":"first","trial_type":"survey-html-form","trial_index":10,"time_elapsed":336755,"internal_node_id":"0.0-6.0-0.0","params":{"nStudents":24,"maxFlips":30,"completionMinutes":45,"basePay":8,"maxBonus":9,"perTrialBonus":0.5,"perTrialBonusThreshold":0.05,"exampleCost":0.01},"classroomParams":{"A":{"a":1,"b":4},"B":{"a":4,"b":1},"C":{"a":2,"b":8},"D":{"a":8,"b":2}},"conditions":["nonSeqFull","nonSeqPartial","seqNoFeedback","seqFeedback"],"classroomPairings":[["A","B"],["C","D"]],"coinWeights":[0.2,0.5,0.8],"subjectId":"A3UQ5DF8VVD975","assignmentId":"3Y9N9SS8LZX1U3H2TEAW6X70L3XD3U","hitId":"3AQN9REUTF20OMGWRXYK787QVFOYDP","url":"https://gershmanlab.com/experiments/alicia/teaching/experiment/?hitId=3AQN9REUTF20OMGWRXYK787QVFOYDP&workerId=A3UQ5DF8VVD975&assignmentId=3Y9N9SS8LZX1U3H2TEAW6X70L3XD3U&a=899Y9&tp_a=899Y9&b=3Y9N9SS8LZX1U3H2TEAW6X70L3XD3U&tp_b=3Y9N9SS8LZX1U3H2TEAW6X70L3XD3U&c=365799&tp_c=365799","heads":1,"tails":4,"studentIndex":0,"studentTrueHypers":{"a":1,"b":4},"studentGuess":0.2,"delta":0,"totalExamples":5,"bonusSoFar":0},{"rt":null,"stimulus":"Sending examples to student... ","response":null,"trial_type":"html-keyboard-response","trial_index":11,"time_elapsed":338772,"internal_node_id":"0.0-7.0","params":{"nStudents":24,"maxFlips":30,"completionMinutes":45,"basePay":8,"maxBonus":9,"perTrialBonus":0.5,"perTrialBonusThreshold":0.05,"exampleCost":0.01},"classroomParams":{"A":{"a":1,"b":4},"B":{"a":4,"b":1},"C":{"a":2,"b":8},"D":{"a":8,"b":2}},"conditions":["nonSeqFull","nonSeqPartial","seqNoFeedback","seqFeedback"],"classroomPairings":[["A","B"],["C","D"]],"coinWeights":[0.2,0.5,0.8],"subjectId":"A3UQ5DF8VVD975","assignmentId":"3Y9N9SS8LZX1U3H2TEAW6X70L3XD3U","hitId":"3AQN9REUTF20OMGWRXYK787QVFOYDP","url":"https://gershmanlab.com/experiments/alicia/teaching/experiment/?hitId=3AQN9REUTF20OMGWRXYK787QVFOYDP&workerId=A3UQ5DF8VVD975&assignmentId=3Y9N9SS8LZX1U3H2TEAW6X70L3XD3U&a=899Y9&tp_a=899Y9&b=3Y9N9SS8LZX1U3H2TEAW6X70L3XD3U&tp_b=3Y9N9SS8LZX1U3H2TEAW6X70L3XD3U&c=365799&tp_c=365799"},{"rt":null,"stimulus":"Examples sent to student! Waiting for student...","response":null,"trial_type":"html-keyboard-response","trial_index":12,"time_elapsed":343274,"internal_node_id":"0.0-8.0","params":{"nStudents":24,"maxFlips":30,"completionMinutes":45,"basePay":8,"maxBonus":9,"perTrialBonus":0.5,"perTrialBonusThreshold":0.05,"exampleCost":0.01},"classroomParams":{"A":{"a":1,"b":4},"B":{"a":4,"b":1},"C":{"a":2,"b":8},"D":{"a":8,"b":2}},"conditions":["nonSeqFull","nonSeqPartial","seqNoFeedback","seqFeedback"],"classroomPairings":[["A","B"],["C","D"]],"coinWeights":[0.2,0.5,0.8],"subjectId":"A3UQ5DF8VVD975","assignmentId":"3Y9N9SS8LZX1U3H2TEAW6X70L3XD3U","hitId":"3AQN9REUTF20OMGWRXYK787QVFOYDP","url":"https://gershmanlab.com/experiments/alicia/teaching/experiment/?hitId=3AQN9REUTF20OMGWRXYK787QVFOYDP&workerId=A3UQ5DF8VVD975&assignmentId=3Y9N9SS8LZX1U3H2TEAW6X70L3XD3U&a=899Y9&tp_a=899Y9&b=3Y9N9SS8LZX1U3H2TEAW6X70L3XD3U&tp_b=3Y9N9SS8LZX1U3H2TEAW6X70L3XD3U&c=365799&tp_c=365799"},{"rt":18943,"response":{"heads":"2","tails":"8"},"type":"response","condition":"seqNoFeedback","trueTheta":0.2,"classrooms":["A","B"],"studentTrueClassroom":"A","exampleSet":"second","trial_type":"survey-html-form","trial_index":13,"time_elapsed":362220,"internal_node_id":"0.0-9.0-0.0","params":{"nStudents":24,"maxFlips":30,"completionMinutes":45,"basePay":8,"maxBonus":9,"perTrialBonus":0.5,"perTrialBonusThreshold":0.05,"exampleCost":0.01},"classroomParams":{"A":{"a":1,"b":4},"B":{"a":4,"b":1},"C":{"a":2,"b":8},"D":{"a":8,"b":2}},"conditions":["nonSeqFull","nonSeqPartial","seqNoFeedback","seqFeedback"],"classroomPairings":[["A","B"],["C","D"]],"coinWeights":[0.2,0.5,0.8],"subjectId":"A3UQ5DF8VVD975","assignmentId":"3Y9N9SS8LZX1U3H2TEAW6X70L3XD3U","hitId":"3AQN9REUTF20OMGWRXYK787QVFOYDP","url":"https://gershmanlab.com/experiments/alicia/teaching/experiment/?hitId=3AQN9REUTF20OMGWRXYK787QVFOYDP&workerId=A3UQ5DF8VVD975&assignmentId=3Y9N9SS8LZX1U3H2TEAW6X70L3XD3U&a=899Y9&tp_a=899Y9&b=3Y9N9SS8LZX1U3H2TEAW6X70L3XD3U&tp_b=3Y9N9SS8LZX1U3H2TEAW6X70L3XD3U&c=365799&tp_c=365799","firstResponseHeads":1,"firstResponseTails":4,"secondResponseHeads":2,"secondResponseTails":8,"totalHeads":3,"totalTails":12,"studentIndex":0,"studentTrueHypers":{"a":1,"b":4},"studentGuess":0.2,"delta":0,"bonus":0.35,"bonusSoFar":0.35,"totalExamples":15},{"rt":null,"stimulus":"Sending examples to student... ","response":null,"trial_type":"html-keyboard-response","trial_index":14,"time_elapsed":364230,"internal_node_id":"0.0-10.0","params":{"nStudents":24,"maxFlips":30,"completionMinutes":45,"basePay":8,"maxBonus":9,"perTrialBonus":0.5,"perTrialBonusThreshold":0.05,"exampleCost":0.01},"classroomParams":{"A":{"a":1,"b":4},"B":{"a":4,"b":1},"C":{"a":2,"b":8},"D":{"a":8,"b":2}},"conditions":["nonSeqFull","nonSeqPartial","seqNoFeedback","seqFeedback"],"classroomPairings":[["A","B"],["C","D"]],"coinWeights":[0.2,0.5,0.8],"subjectId":"A3UQ5DF8VVD975","assignmentId":"3Y9N9SS8LZX1U3H2TEAW6X70L3XD3U","hitId":"3AQN9REUTF20OMGWRXYK787QVFOYDP","url":"https://gershmanlab.com/experiments/alicia/teaching/experiment/?hitId=3AQN9REUTF20OMGWRXYK787QVFOYDP&workerId=A3UQ5DF8VVD975&assignmentId=3Y9N9SS8LZX1U3H2TEAW6X70L3XD3U&a=899Y9&tp_a=899Y9&b=3Y9N9SS8LZX1U3H2TEAW6X70L3XD3U&tp_b=3Y9N9SS8LZX1U3H2TEAW6X70L3XD3U&c=365799&tp_c=365799"},{"rt":null,"stimulus":"Examples sent to student! Waiting for student...","response":null,"trial_type":"html-keyboard-response","trial_index":15,"time_elapsed":368745,"internal_node_id":"0.0-11.0","params":{"nStudents":24,"maxFlips":30,"completionMinutes":45,"basePay":8,"maxBonus":9,"perTrialBonus":0.5,"perTrialBonusThreshold":0.05,"exampleCost":0.01},"classroomParams":{"A":{"a":1,"b":4},"B":{"a":4,"b":1},"C":{"a":2,"b":8},"D":{"a":8,"b":2}},"conditions":["nonSeqFull","nonSeqPartial","seqNoFeedback","seqFeedback"],"classroomPairings":[["A","B"],["C","D"]],"coinWeights":[0.2,0.5,0.8],"subjectId":"A3UQ5DF8VVD975","assignmentId":"3Y9N9SS8LZX1U3H2TEAW6X70L3XD3U","hitId":"3AQN9REUTF20OMGWRXYK787QVFOYDP","url":"https://gershmanlab.com/experiments/alicia/teaching/experiment/?hitId=3AQN9REUTF20OMGWRXYK787QVFOYDP&workerId=A3UQ5DF8VVD975&assignmentId=3Y9N9SS8LZX1U3H2TEAW6X70L3XD3U&a=899Y9&tp_a=899Y9&b=3Y9N9SS8LZX1U3H2TEAW6X70L3XD3U&tp_b=3Y9N9SS8LZX1U3H2TEAW6X70L3XD3U&c=365799&tp_c=365799"},{"rt":10250,"stimulus":"\n                <p>Student 1's first guess for coin weight: <b style=\"color:Tomato\";>0.20</b></p>\n                <p>Student 1's second guess for coin weight: <b style=\"color:Tomato\";>0.20</b></p>\n                <p>You received a bonus of <b>$0.35</b> based on the student's second guess.</p>\n                <p>Total bonus so far: <b>$0.35</b></p>\n                <p>Press any key to continue.</p>\n                ","response":"j","trial_type":"html-keyboard-response","trial_index":16,"time_elapsed":378998,"internal_node_id":"0.0-12.0","params":{"nStudents":24,"maxFlips":30,"completionMinutes":45,"basePay":8,"maxBonus":9,"perTrialBonus":0.5,"perTrialBonusThreshold":0.05,"exampleCost":0.01},"classroomParams":{"A":{"a":1,"b":4},"B":{"a":4,"b":1},"C":{"a":2,"b":8},"D":{"a":8,"b":2}},"conditions":["nonSeqFull","nonSeqPartial","seqNoFeedback","seqFeedback"],"classroomPairings":[["A","B"],["C","D"]],"coinWeights":[0.2,0.5,0.8],"subjectId":"A3UQ5DF8VVD975","assignmentId":"3Y9N9SS8LZX1U3H2TEAW6X70L3XD3U","hitId":"3AQN9REUTF20OMGWRXYK787QVFOYDP","url":"https://gershmanlab.com/experiments/alicia/teaching/experiment/?hitId=3AQN9REUTF20OMGWRXYK787QVFOYDP&workerId=A3UQ5DF8VVD975&assignmentId=3Y9N9SS8LZX1U3H2TEAW6X70L3XD3U&a=899Y9&tp_a=899Y9&b=3Y9N9SS8LZX1U3H2TEAW6X70L3XD3U&tp_b=3Y9N9SS8LZX1U3H2TEAW6X70L3XD3U&c=365799&tp_c=365799"},{"rt":null,"stimulus":"<div style=\"font-size:60px;\">Next student</div>","response":null,"trial_type":"html-keyboard-response","trial_index":17,"time_elapsed":381003,"internal_node_id":"0.0-13.0-0.0","params":{"nStudents":24,"maxFlips":30,"completionMinutes":45,"basePay":8,"maxBonus":9,"perTrialBonus":0.5,"perTrialBonusThreshold":0.05,"exampleCost":0.01},"classroomParams":{"A":{"a":1,"b":4},"B":{"a":4,"b":1},"C":{"a":2,"b":8},"D":{"a":8,"b":2}},"conditions":["nonSeqFull","nonSeqPartial","seqNoFeedback","seqFeedback"],"classroomPairings":[["A","B"],["C","D"]],"coinWeights":[0.2,0.5,0.8],"subjectId":"A3UQ5DF8VVD975","assignmentId":"3Y9N9SS8LZX1U3H2TEAW6X70L3XD3U","hitId":"3AQN9REUTF20OMGWRXYK787QVFOYDP","url":"https://gershmanlab.com/experiments/alicia/teaching/experiment/?hitId=3AQN9REUTF20OMGWRXYK787QVFOYDP&workerId=A3UQ5DF8VVD975&assignmentId=3Y9N9SS8LZX1U3H2TEAW6X70L3XD3U&a=899Y9&tp_a=899Y9&b=3Y9N9SS8LZX1U3H2TEAW6X70L3XD3U&tp_b=3Y9N9SS8LZX1U3H2TEAW6X70L3XD3U&c=365799&tp_c=365799"},{"rt":9496,"stimulus":"\n            <h4 style=\"color:Orange;\">Student 2</h4>\n            <h2>The weight of your coin is <b style=\"color:Tomato;\">0.5</b>.</h2>\n            <p>In this block, you will be giving <b>two</b> sets of examples to Student 2.</p>\n                <p>You will receive feedback at the end of the block.</p>\n            <p></p>","response":0,"trial_type":"html-button-response","trial_index":18,"time_elapsed":390502,"internal_node_id":"0.0-14.0","params":{"nStudents":24,"maxFlips":30,"completionMinutes":45,"basePay":8,"maxBonus":9,"perTrialBonus":0.5,"perTrialBonusThreshold":0.05,"exampleCost":0.01},"classroomParams":{"A":{"a":1,"b":4},"B":{"a":4,"b":1},"C":{"a":2,"b":8},"D":{"a":8,"b":2}},"conditions":["nonSeqFull","nonSeqPartial","seqNoFeedback","seqFeedback"],"classroomPairings":[["A","B"],["C","D"]],"coinWeights":[0.2,0.5,0.8],"subjectId":"A3UQ5DF8VVD975","assignmentId":"3Y9N9SS8LZX1U3H2TEAW6X70L3XD3U","hitId":"3AQN9REUTF20OMGWRXYK787QVFOYDP","url":"https://gershmanlab.com/experiments/alicia/teaching/experiment/?hitId=3AQN9REUTF20OMGWRXYK787QVFOYDP&workerId=A3UQ5DF8VVD975&assignmentId=3Y9N9SS8LZX1U3H2TEAW6X70L3XD3U&a=899Y9&tp_a=899Y9&b=3Y9N9SS8LZX1U3H2TEAW6X70L3XD3U&tp_b=3Y9N9SS8LZX1U3H2TEAW6X70L3XD3U&c=365799&tp_c=365799"},{"rt":22244,"response":{"heads":"5","tails":"5"},"type":"response","condition":"seqNoFeedback","trueTheta":0.5,"classrooms":["C","D"],"studentTrueClassroom":"C","exampleSet":"first","trial_type":"survey-html-form","trial_index":19,"time_elapsed":412749,"internal_node_id":"0.0-15.0-0.0","params":{"nStudents":24,"maxFlips":30,"completionMinutes":45,"basePay":8,"maxBonus":9,"perTrialBonus":0.5,"perTrialBonusThreshold":0.05,"exampleCost":0.01},"classroomParams":{"A":{"a":1,"b":4},"B":{"a":4,"b":1},"C":{"a":2,"b":8},"D":{"a":8,"b":2}},"conditions":["nonSeqFull","nonSeqPartial","seqNoFeedback","seqFeedback"],"classroomPairings":[["A","B"],["C","D"]],"coinWeights":[0.2,0.5,0.8],"subjectId":"A3UQ5DF8VVD975","assignmentId":"3Y9N9SS8LZX1U3H2TEAW6X70L3XD3U","hitId":"3AQN9REUTF20OMGWRXYK787QVFOYDP","url":"https://gershmanlab.com/experiments/alicia/teaching/experiment/?hitId=3AQN9REUTF20OMGWRXYK787QVFOYDP&workerId=A3UQ5DF8VVD975&assignmentId=3Y9N9SS8LZX1U3H2TEAW6X70L3XD3U&a=899Y9&tp_a=899Y9&b=3Y9N9SS8LZX1U3H2TEAW6X70L3XD3U&tp_b=3Y9N9SS8LZX1U3H2TEAW6X70L3XD3U&c=365799&tp_c=365799","heads":5,"tails":5,"studentIndex":1,"studentTrueHypers":{"a":2,"b":8},"studentGuess":0.35,"delta":0.15000000000000002,"totalExamples":10,"bonusSoFar":0.35},{"rt":null,"stimulus":"Sending examples to student... ","response":null,"trial_type":"html-keyboard-response","trial_index":20,"time_elapsed":414518,"internal_node_id":"0.0-16.0","params":{"nStudents":24,"maxFlips":30,"completionMinutes":45,"basePay":8,"maxBonus":9,"perTrialBonus":0.5,"perTrialBonusThreshold":0.05,"exampleCost":0.01},"classroomParams":{"A":{"a":1,"b":4},"B":{"a":4,"b":1},"C":{"a":2,"b":8},"D":{"a":8,"b":2}},"conditions":["nonSeqFull","nonSeqPartial","seqNoFeedback","seqFeedback"],"classroomPairings":[["A","B"],["C","D"]],"coinWeights":[0.2,0.5,0.8],"subjectId":"A3UQ5DF8VVD975","assignmentId":"3Y9N9SS8LZX1U3H2TEAW6X70L3XD3U","hitId":"3AQN9REUTF20OMGWRXYK787QVFOYDP","url":"https://gershmanlab.com/experiments/alicia/teaching/experiment/?hitId=3AQN9REUTF20OMGWRXYK787QVFOYDP&workerId=A3UQ5DF8VVD975&assignmentId=3Y9N9SS8LZX1U3H2TEAW6X70L3XD3U&a=899Y9&tp_a=899Y9&b=3Y9N9SS8LZX1U3H2TEAW6X70L3XD3U&tp_b=3Y9N9SS8LZX1U3H2TEAW6X70L3XD3U&c=365799&tp_c=365799"},{"rt":null,"stimulus":"Examples sent to student! Waiting for student...","response":null,"trial_type":"html-keyboard-response","trial_index":21,"time_elapsed":420021,"internal_node_id":"0.0-17.0","params":{"nStudents":24,"maxFlips":30,"completionMinutes":45,"basePay":8,"maxBonus":9,"perTrialBonus":0.5,"perTrialBonusThreshold":0.05,"exampleCost":0.01},"classroomParams":{"A":{"a":1,"b":4},"B":{"a":4,"b":1},"C":{"a":2,"b":8},"D":{"a":8,"b":2}},"conditions":["nonSeqFull","nonSeqPartial","seqNoFeedback","seqFeedback"],"classroomPairings":[["A","B"],["C","D"]],"coinWeights":[0.2,0.5,0.8],"subjectId":"A3UQ5DF8VVD975","assignmentId":"3Y9N9SS8LZX1U3H2TEAW6X70L3XD3U","hitId":"3AQN9REUTF20OMGWRXYK787QVFOYDP","url":"https://gershmanlab.com/experiments/alicia/teaching/experiment/?hitId=3AQN9REUTF20OMGWRXYK787QVFOYDP&workerId=A3UQ5DF8VVD975&assignmentId=3Y9N9SS8LZX1U3H2TEAW6X70L3XD3U&a=899Y9&tp_a=899Y9&b=3Y9N9SS8LZX1U3H2TEAW6X70L3XD3U&tp_b=3Y9N9SS8LZX1U3H2TEAW6X70L3XD3U&c=365799&tp_c=365799"},{"rt":8996,"response":{"heads":"2","tails":"2"},"type":"response","condition":"seqNoFeedback","trueTheta":0.5,"classrooms":["C","D"],"studentTrueClassroom":"C","exampleSet":"second","trial_type":"survey-html-form","trial_index":22,"time_elapsed":429019,"internal_node_id":"0.0-18.0-0.0","params":{"nStudents":24,"maxFlips":30,"completionMinutes":45,"basePay":8,"maxBonus":9,"perTrialBonus":0.5,"perTrialBonusThreshold":0.05,"exampleCost":0.01},"classroomParams":{"A":{"a":1,"b":4},"B":{"a":4,"b":1},"C":{"a":2,"b":8},"D":{"a":8,"b":2}},"conditions":["nonSeqFull","nonSeqPartial","seqNoFeedback","seqFeedback"],"classroomPairings":[["A","B"],["C","D"]],"coinWeights":[0.2,0.5,0.8],"subjectId":"A3UQ5DF8VVD975","assignmentId":"3Y9N9SS8LZX1U3H2TEAW6X70L3XD3U","hitId":"3AQN9REUTF20OMGWRXYK787QVFOYDP","url":"https://gershmanlab.com/experiments/alicia/teaching/experiment/?hitId=3AQN9REUTF20OMGWRXYK787QVFOYDP&workerId=A3UQ5DF8VVD975&assignmentId=3Y9N9SS8LZX1U3H2TEAW6X70L3XD3U&a=899Y9&tp_a=899Y9&b=3Y9N9SS8LZX1U3H2TEAW6X70L3XD3U&tp_b=3Y9N9SS8LZX1U3H2TEAW6X70L3XD3U&c=365799&tp_c=365799","firstResponseHeads":5,"firstResponseTails":5,"secondResponseHeads":2,"secondResponseTails":2,"totalHeads":7,"totalTails":7,"studentIndex":1,"studentTrueHypers":{"a":2,"b":8},"studentGuess":0.375,"delta":0.125,"bonus":0,"bonusSoFar":0.35,"totalExamples":14},{"rt":null,"stimulus":"Sending examples to student... ","response":null,"trial_type":"html-keyboard-response","trial_index":23,"time_elapsed":431033,"internal_node_id":"0.0-19.0","params":{"nStudents":24,"maxFlips":30,"completionMinutes":45,"basePay":8,"maxBonus":9,"perTrialBonus":0.5,"perTrialBonusThreshold":0.05,"exampleCost":0.01},"classroomParams":{"A":{"a":1,"b":4},"B":{"a":4,"b":1},"C":{"a":2,"b":8},"D":{"a":8,"b":2}},"conditions":["nonSeqFull","nonSeqPartial","seqNoFeedback","seqFeedback"],"classroomPairings":[["A","B"],["C","D"]],"coinWeights":[0.2,0.5,0.8],"subjectId":"A3UQ5DF8VVD975","assignmentId":"3Y9N9SS8LZX1U3H2TEAW6X70L3XD3U","hitId":"3AQN9REUTF20OMGWRXYK787QVFOYDP","url":"https://gershmanlab.com/experiments/alicia/teaching/experiment/?hitId=3AQN9REUTF20OMGWRXYK787QVFOYDP&workerId=A3UQ5DF8VVD975&assignmentId=3Y9N9SS8LZX1U3H2TEAW6X70L3XD3U&a=899Y9&tp_a=899Y9&b=3Y9N9SS8LZX1U3H2TEAW6X70L3XD3U&tp_b=3Y9N9SS8LZX1U3H2TEAW6X70L3XD3U&c=365799&tp_c=365799"},{"rt":null,"stimulus":"Examples sent to student! Waiting for student...","response":null,"trial_type":"html-keyboard-response","trial_index":24,"time_elapsed":435036,"internal_node_id":"0.0-20.0","params":{"nStudents":24,"maxFlips":30,"completionMinutes":45,"basePay":8,"maxBonus":9,"perTrialBonus":0.5,"perTrialBonusThreshold":0.05,"exampleCost":0.01},"classroomParams":{"A":{"a":1,"b":4},"B":{"a":4,"b":1},"C":{"a":2,"b":8},"D":{"a":8,"b":2}},"conditions":["nonSeqFull","nonSeqPartial","seqNoFeedback","seqFeedback"],"classroomPairings":[["A","B"],["C","D"]],"coinWeights":[0.2,0.5,0.8],"subjectId":"A3UQ5DF8VVD975","assignmentId":"3Y9N9SS8LZX1U3H2TEAW6X70L3XD3U","hitId":"3AQN9REUTF20OMGWRXYK787QVFOYDP","url":"https://gershmanlab.com/experiments/alicia/teaching/experiment/?hitId=3AQN9REUTF20OMGWRXYK787QVFOYDP&workerId=A3UQ5DF8VVD975&assignmentId=3Y9N9SS8LZX1U3H2TEAW6X70L3XD3U&a=899Y9&tp_a=899Y9&b=3Y9N9SS8LZX1U3H2TEAW6X70L3XD3U&tp_b=3Y9N9SS8LZX1U3H2TEAW6X70L3XD3U&c=365799&tp_c=365799"},{"rt":7373,"stimulus":"\n                <p>Student 2's first guess for coin weight: <b style=\"color:Tomato\";>0.35</b></p>\n                <p>Student 2's second guess for coin weight: <b style=\"color:Tomato\";>0.38</b></p>\n                <p>You received a bonus of <b>$0.00</b> based on the student's second guess.</p>\n                <p>Total bonus so far: <b>$0.35</b></p>\n                <p>Press any key to continue.</p>\n                ","response":"k","trial_type":"html-keyboard-response","trial_index":25,"time_elapsed":442412,"internal_node_id":"0.0-21.0","params":{"nStudents":24,"maxFlips":30,"completionMinutes":45,"basePay":8,"maxBonus":9,"perTrialBonus":0.5,"perTrialBonusThreshold":0.05,"exampleCost":0.01},"classroomParams":{"A":{"a":1,"b":4},"B":{"a":4,"b":1},"C":{"a":2,"b":8},"D":{"a":8,"b":2}},"conditions":["nonSeqFull","nonSeqPartial","seqNoFeedback","seqFeedback"],"classroomPairings":[["A","B"],["C","D"]],"coinWeights":[0.2,0.5,0.8],"subjectId":"A3UQ5DF8VVD975","assignmentId":"3Y9N9SS8LZX1U3H2TEAW6X70L3XD3U","hitId":"3AQN9REUTF20OMGWRXYK787QVFOYDP","url":"https://gershmanlab.com/experiments/alicia/teaching/experiment/?hitId=3AQN9REUTF20OMGWRXYK787QVFOYDP&workerId=A3UQ5DF8VVD975&assignmentId=3Y9N9SS8LZX1U3H2TEAW6X70L3XD3U&a=899Y9&tp_a=899Y9&b=3Y9N9SS8LZX1U3H2TEAW6X70L3XD3U&tp_b=3Y9N9SS8LZX1U3H2TEAW6X70L3XD3U&c=365799&tp_c=365799"},{"rt":null,"stimulus":"<div style=\"font-size:60px;\">Next student</div>","response":null,"trial_type":"html-keyboard-response","trial_index":26,"time_elapsed":445426,"internal_node_id":"0.0-22.0-0.0","params":{"nStudents":24,"maxFlips":30,"completionMinutes":45,"basePay":8,"maxBonus":9,"perTrialBonus":0.5,"perTrialBonusThreshold":0.05,"exampleCost":0.01},"classroomParams":{"A":{"a":1,"b":4},"B":{"a":4,"b":1},"C":{"a":2,"b":8},"D":{"a":8,"b":2}},"conditions":["nonSeqFull","nonSeqPartial","seqNoFeedback","seqFeedback"],"classroomPairings":[["A","B"],["C","D"]],"coinWeights":[0.2,0.5,0.8],"subjectId":"A3UQ5DF8VVD975","assignmentId":"3Y9N9SS8LZX1U3H2TEAW6X70L3XD3U","hitId":"3AQN9REUTF20OMGWRXYK787QVFOYDP","url":"https://gershmanlab.com/experiments/alicia/teaching/experiment/?hitId=3AQN9REUTF20OMGWRXYK787QVFOYDP&workerId=A3UQ5DF8VVD975&assignmentId=3Y9N9SS8LZX1U3H2TEAW6X70L3XD3U&a=899Y9&tp_a=899Y9&b=3Y9N9SS8LZX1U3H2TEAW6X70L3XD3U&tp_b=3Y9N9SS8LZX1U3H2TEAW6X70L3XD3U&c=365799&tp_c=365799"},{"rt":14050,"stimulus":"\n            <h4 style=\"color:Orange;\">Student 3</h4>\n            <h2>The weight of your coin is <b style=\"color:Tomato;\">0.5</b>.</h2>\n            <p>In this block, you will be giving <b>two</b> sets of examples to Student 3.</p>\n                <p>You will see the student's guess after the first set of examples. You will also receive feedback at the end of the block.</p>\n            <p>To earn the highest bonus, you will have to <b>take into consideration the student's guess</b> when you choose your second set of examples.</p>","response":0,"trial_type":"html-button-response","trial_index":27,"time_elapsed":459480,"internal_node_id":"0.0-23.0","params":{"nStudents":24,"maxFlips":30,"completionMinutes":45,"basePay":8,"maxBonus":9,"perTrialBonus":0.5,"perTrialBonusThreshold":0.05,"exampleCost":0.01},"classroomParams":{"A":{"a":1,"b":4},"B":{"a":4,"b":1},"C":{"a":2,"b":8},"D":{"a":8,"b":2}},"conditions":["nonSeqFull","nonSeqPartial","seqNoFeedback","seqFeedback"],"classroomPairings":[["A","B"],["C","D"]],"coinWeights":[0.2,0.5,0.8],"subjectId":"A3UQ5DF8VVD975","assignmentId":"3Y9N9SS8LZX1U3H2TEAW6X70L3XD3U","hitId":"3AQN9REUTF20OMGWRXYK787QVFOYDP","url":"https://gershmanlab.com/experiments/alicia/teaching/experiment/?hitId=3AQN9REUTF20OMGWRXYK787QVFOYDP&workerId=A3UQ5DF8VVD975&assignmentId=3Y9N9SS8LZX1U3H2TEAW6X70L3XD3U&a=899Y9&tp_a=899Y9&b=3Y9N9SS8LZX1U3H2TEAW6X70L3XD3U&tp_b=3Y9N9SS8LZX1U3H2TEAW6X70L3XD3U&c=365799&tp_c=365799"},{"rt":18624,"response":{"heads":"5","tails":"5"},"type":"response","condition":"seqFeedback","trueTheta":0.5,"classrooms":["C","D"],"studentTrueClassroom":"C","exampleSet":"first","trial_type":"survey-html-form","trial_index":28,"time_elapsed":478107,"internal_node_id":"0.0-24.0-0.0","params":{"nStudents":24,"maxFlips":30,"completionMinutes":45,"basePay":8,"maxBonus":9,"perTrialBonus":0.5,"perTrialBonusThreshold":0.05,"exampleCost":0.01},"classroomParams":{"A":{"a":1,"b":4},"B":{"a":4,"b":1},"C":{"a":2,"b":8},"D":{"a":8,"b":2}},"conditions":["nonSeqFull","nonSeqPartial","seqNoFeedback","seqFeedback"],"classroomPairings":[["A","B"],["C","D"]],"coinWeights":[0.2,0.5,0.8],"subjectId":"A3UQ5DF8VVD975","assignmentId":"3Y9N9SS8LZX1U3H2TEAW6X70L3XD3U","hitId":"3AQN9REUTF20OMGWRXYK787QVFOYDP","url":"https://gershmanlab.com/experiments/alicia/teaching/experiment/?hitId=3AQN9REUTF20OMGWRXYK787QVFOYDP&workerId=A3UQ5DF8VVD975&assignmentId=3Y9N9SS8LZX1U3H2TEAW6X70L3XD3U&a=899Y9&tp_a=899Y9&b=3Y9N9SS8LZX1U3H2TEAW6X70L3XD3U&tp_b=3Y9N9SS8LZX1U3H2TEAW6X70L3XD3U&c=365799&tp_c=365799","heads":5,"tails":5,"studentIndex":2,"studentTrueHypers":{"a":2,"b":8},"studentGuess":0.35,"delta":0.15000000000000002,"totalExamples":10,"bonusSoFar":0.35},{"rt":null,"stimulus":"Sending examples to student... ","response":null,"trial_type":"html-keyboard-response","trial_index":29,"time_elapsed":480117,"internal_node_id":"0.0-25.0","params":{"nStudents":24,"maxFlips":30,"completionMinutes":45,"basePay":8,"maxBonus":9,"perTrialBonus":0.5,"perTrialBonusThreshold":0.05,"exampleCost":0.01},"classroomParams":{"A":{"a":1,"b":4},"B":{"a":4,"b":1},"C":{"a":2,"b":8},"D":{"a":8,"b":2}},"conditions":["nonSeqFull","nonSeqPartial","seqNoFeedback","seqFeedback"],"classroomPairings":[["A","B"],["C","D"]],"coinWeights":[0.2,0.5,0.8],"subjectId":"A3UQ5DF8VVD975","assignmentId":"3Y9N9SS8LZX1U3H2TEAW6X70L3XD3U","hitId":"3AQN9REUTF20OMGWRXYK787QVFOYDP","url":"https://gershmanlab.com/experiments/alicia/teaching/experiment/?hitId=3AQN9REUTF20OMGWRXYK787QVFOYDP&workerId=A3UQ5DF8VVD975&assignmentId=3Y9N9SS8LZX1U3H2TEAW6X70L3XD3U&a=899Y9&tp_a=899Y9&b=3Y9N9SS8LZX1U3H2TEAW6X70L3XD3U&tp_b=3Y9N9SS8LZX1U3H2TEAW6X70L3XD3U&c=365799&tp_c=365799"},{"rt":null,"stimulus":"Examples sent to student! Waiting for student...","response":null,"trial_type":"html-keyboard-response","trial_index":30,"time_elapsed":485619,"internal_node_id":"0.0-26.0","params":{"nStudents":24,"maxFlips":30,"completionMinutes":45,"basePay":8,"maxBonus":9,"perTrialBonus":0.5,"perTrialBonusThreshold":0.05,"exampleCost":0.01},"classroomParams":{"A":{"a":1,"b":4},"B":{"a":4,"b":1},"C":{"a":2,"b":8},"D":{"a":8,"b":2}},"conditions":["nonSeqFull","nonSeqPartial","seqNoFeedback","seqFeedback"],"classroomPairings":[["A","B"],["C","D"]],"coinWeights":[0.2,0.5,0.8],"subjectId":"A3UQ5DF8VVD975","assignmentId":"3Y9N9SS8LZX1U3H2TEAW6X70L3XD3U","hitId":"3AQN9REUTF20OMGWRXYK787QVFOYDP","url":"https://gershmanlab.com/experiments/alicia/teaching/experiment/?hitId=3AQN9REUTF20OMGWRXYK787QVFOYDP&workerId=A3UQ5DF8VVD975&assignmentId=3Y9N9SS8LZX1U3H2TEAW6X70L3XD3U&a=899Y9&tp_a=899Y9&b=3Y9N9SS8LZX1U3H2TEAW6X70L3XD3U&tp_b=3Y9N9SS8LZX1U3H2TEAW6X70L3XD3U&c=365799&tp_c=365799"},{"rt":11703,"stimulus":"\n                <p>Student's guess for coin weight: <b style=\"color:Tomato;\">0.35</b></p>\n                <p></b></p>\n                <p>You will now send another set of examples to your student. <b>Remember to take your student's guess into consideration so that you can earn the highest bonus possible!</b> </p>\n                <p>Press any key to continue.</p>\n                ","response":"l","trial_type":"html-keyboard-response","trial_index":31,"time_elapsed":497325,"internal_node_id":"0.0-27.0","params":{"nStudents":24,"maxFlips":30,"completionMinutes":45,"basePay":8,"maxBonus":9,"perTrialBonus":0.5,"perTrialBonusThreshold":0.05,"exampleCost":0.01},"classroomParams":{"A":{"a":1,"b":4},"B":{"a":4,"b":1},"C":{"a":2,"b":8},"D":{"a":8,"b":2}},"conditions":["nonSeqFull","nonSeqPartial","seqNoFeedback","seqFeedback"],"classroomPairings":[["A","B"],["C","D"]],"coinWeights":[0.2,0.5,0.8],"subjectId":"A3UQ5DF8VVD975","assignmentId":"3Y9N9SS8LZX1U3H2TEAW6X70L3XD3U","hitId":"3AQN9REUTF20OMGWRXYK787QVFOYDP","url":"https://gershmanlab.com/experiments/alicia/teaching/experiment/?hitId=3AQN9REUTF20OMGWRXYK787QVFOYDP&workerId=A3UQ5DF8VVD975&assignmentId=3Y9N9SS8LZX1U3H2TEAW6X70L3XD3U&a=899Y9&tp_a=899Y9&b=3Y9N9SS8LZX1U3H2TEAW6X70L3XD3U&tp_b=3Y9N9SS8LZX1U3H2TEAW6X70L3XD3U&c=365799&tp_c=365799"},{"rt":13068,"response":{"heads":"6","tails":"4"},"type":"response","condition":"seqFeedback","trueTheta":0.5,"classrooms":["C","D"],"studentTrueClassroom":"C","exampleSet":"second","trial_type":"survey-html-form","trial_index":32,"time_elapsed":510396,"internal_node_id":"0.0-28.0-0.0","params":{"nStudents":24,"maxFlips":30,"completionMinutes":45,"basePay":8,"maxBonus":9,"perTrialBonus":0.5,"perTrialBonusThreshold":0.05,"exampleCost":0.01},"classroomParams":{"A":{"a":1,"b":4},"B":{"a":4,"b":1},"C":{"a":2,"b":8},"D":{"a":8,"b":2}},"conditions":["nonSeqFull","nonSeqPartial","seqNoFeedback","seqFeedback"],"classroomPairings":[["A","B"],["C","D"]],"coinWeights":[0.2,0.5,0.8],"subjectId":"A3UQ5DF8VVD975","assignmentId":"3Y9N9SS8LZX1U3H2TEAW6X70L3XD3U","hitId":"3AQN9REUTF20OMGWRXYK787QVFOYDP","url":"https://gershmanlab.com/experiments/alicia/teaching/experiment/?hitId=3AQN9REUTF20OMGWRXYK787QVFOYDP&workerId=A3UQ5DF8VVD975&assignmentId=3Y9N9SS8LZX1U3H2TEAW6X70L3XD3U&a=899Y9&tp_a=899Y9&b=3Y9N9SS8LZX1U3H2TEAW6X70L3XD3U&tp_b=3Y9N9SS8LZX1U3H2TEAW6X70L3XD3U&c=365799&tp_c=365799","firstResponseHeads":5,"firstResponseTails":5,"secondResponseHeads":6,"secondResponseTails":4,"totalHeads":11,"totalTails":9,"studentIndex":2,"studentTrueHypers":{"a":2,"b":8},"studentGuess":0.43333333333333335,"delta":0.06666666666666665,"bonus":0,"bonusSoFar":0.35,"totalExamples":20},{"rt":null,"stimulus":"Sending examples to student... ","response":null,"trial_type":"html-keyboard-response","trial_index":33,"time_elapsed":512153,"internal_node_id":"0.0-29.0","params":{"nStudents":24,"maxFlips":30,"completionMinutes":45,"basePay":8,"maxBonus":9,"perTrialBonus":0.5,"perTrialBonusThreshold":0.05,"exampleCost":0.01},"classroomParams":{"A":{"a":1,"b":4},"B":{"a":4,"b":1},"C":{"a":2,"b":8},"D":{"a":8,"b":2}},"conditions":["nonSeqFull","nonSeqPartial","seqNoFeedback","seqFeedback"],"classroomPairings":[["A","B"],["C","D"]],"coinWeights":[0.2,0.5,0.8],"subjectId":"A3UQ5DF8VVD975","assignmentId":"3Y9N9SS8LZX1U3H2TEAW6X70L3XD3U","hitId":"3AQN9REUTF20OMGWRXYK787QVFOYDP","url":"https://gershmanlab.com/experiments/alicia/teaching/experiment/?hitId=3AQN9REUTF20OMGWRXYK787QVFOYDP&workerId=A3UQ5DF8VVD975&assignmentId=3Y9N9SS8LZX1U3H2TEAW6X70L3XD3U&a=899Y9&tp_a=899Y9&b=3Y9N9SS8LZX1U3H2TEAW6X70L3XD3U&tp_b=3Y9N9SS8LZX1U3H2TEAW6X70L3XD3U&c=365799&tp_c=365799"},{"rt":null,"stimulus":"Examples sent to student! Waiting for student...","response":null,"trial_type":"html-keyboard-response","trial_index":34,"time_elapsed":516657,"internal_node_id":"0.0-30.0","params":{"nStudents":24,"maxFlips":30,"completionMinutes":45,"basePay":8,"maxBonus":9,"perTrialBonus":0.5,"perTrialBonusThreshold":0.05,"exampleCost":0.01},"classroomParams":{"A":{"a":1,"b":4},"B":{"a":4,"b":1},"C":{"a":2,"b":8},"D":{"a":8,"b":2}},"conditions":["nonSeqFull","nonSeqPartial","seqNoFeedback","seqFeedback"],"classroomPairings":[["A","B"],["C","D"]],"coinWeights":[0.2,0.5,0.8],"subjectId":"A3UQ5DF8VVD975","assignmentId":"3Y9N9SS8LZX1U3H2TEAW6X70L3XD3U","hitId":"3AQN9REUTF20OMGWRXYK787QVFOYDP","url":"https://gershmanlab.com/experiments/alicia/teaching/experiment/?hitId=3AQN9REUTF20OMGWRXYK787QVFOYDP&workerId=A3UQ5DF8VVD975&assignmentId=3Y9N9SS8LZX1U3H2TEAW6X70L3XD3U&a=899Y9&tp_a=899Y9&b=3Y9N9SS8LZX1U3H2TEAW6X70L3XD3U&tp_b=3Y9N9SS8LZX1U3H2TEAW6X70L3XD3U&c=365799&tp_c=365799"},{"rt":5235,"stimulus":"\n                <p>Student 3's first guess for coin weight: <b style=\"color:Tomato\";>0.35</b></p>\n                <p>Student 3's second guess for coin weight: <b style=\"color:Tomato\";>0.43</b></p>\n                <p>You received a bonus of <b>$0.00</b> based on the student's second guess.</p>\n                <p>Total bonus so far: <b>$0.35</b></p>\n                <p>Press any key to continue.</p>\n                ","response":"b","trial_type":"html-keyboard-response","trial_index":35,"time_elapsed":521894,"internal_node_id":"0.0-31.0","params":{"nStudents":24,"maxFlips":30,"completionMinutes":45,"basePay":8,"maxBonus":9,"perTrialBonus":0.5,"perTrialBonusThreshold":0.05,"exampleCost":0.01},"classroomParams":{"A":{"a":1,"b":4},"B":{"a":4,"b":1},"C":{"a":2,"b":8},"D":{"a":8,"b":2}},"conditions":["nonSeqFull","nonSeqPartial","seqNoFeedback","seqFeedback"],"classroomPairings":[["A","B"],["C","D"]],"coinWeights":[0.2,0.5,0.8],"subjectId":"A3UQ5DF8VVD975","assignmentId":"3Y9N9SS8LZX1U3H2TEAW6X70L3XD3U","hitId":"3AQN9REUTF20OMGWRXYK787QVFOYDP","url":"https://gershmanlab.com/experiments/alicia/teaching/experiment/?hitId=3AQN9REUTF20OMGWRXYK787QVFOYDP&workerId=A3UQ5DF8VVD975&assignmentId=3Y9N9SS8LZX1U3H2TEAW6X70L3XD3U&a=899Y9&tp_a=899Y9&b=3Y9N9SS8LZX1U3H2TEAW6X70L3XD3U&tp_b=3Y9N9SS8LZX1U3H2TEAW6X70L3XD3U&c=365799&tp_c=365799"},{"rt":null,"stimulus":"<div style=\"font-size:60px;\">Next student</div>","response":null,"trial_type":"html-keyboard-response","trial_index":36,"time_elapsed":524899,"internal_node_id":"0.0-32.0-0.0","params":{"nStudents":24,"maxFlips":30,"completionMinutes":45,"basePay":8,"maxBonus":9,"perTrialBonus":0.5,"perTrialBonusThreshold":0.05,"exampleCost":0.01},"classroomParams":{"A":{"a":1,"b":4},"B":{"a":4,"b":1},"C":{"a":2,"b":8},"D":{"a":8,"b":2}},"conditions":["nonSeqFull","nonSeqPartial","seqNoFeedback","seqFeedback"],"classroomPairings":[["A","B"],["C","D"]],"coinWeights":[0.2,0.5,0.8],"subjectId":"A3UQ5DF8VVD975","assignmentId":"3Y9N9SS8LZX1U3H2TEAW6X70L3XD3U","hitId":"3AQN9REUTF20OMGWRXYK787QVFOYDP","url":"https://gershmanlab.com/experiments/alicia/teaching/experiment/?hitId=3AQN9REUTF20OMGWRXYK787QVFOYDP&workerId=A3UQ5DF8VVD975&assignmentId=3Y9N9SS8LZX1U3H2TEAW6X70L3XD3U&a=899Y9&tp_a=899Y9&b=3Y9N9SS8LZX1U3H2TEAW6X70L3XD3U&tp_b=3Y9N9SS8LZX1U3H2TEAW6X70L3XD3U&c=365799&tp_c=365799"},{"rt":5958,"stimulus":"\n            <h4 style=\"color:Orange;\">Student 4</h4>\n            <h2>The weight of your coin is <b style=\"color:Tomato;\">0.5</b>.</h2>\n            <p>In this block, you will be giving <b>one</b> set of examples to Student 4.</p>\n                <p>You will receive feedback at the end of the block.</p>\n            <p></p>","response":0,"trial_type":"html-button-response","trial_index":37,"time_elapsed":530859,"internal_node_id":"0.0-33.0","params":{"nStudents":24,"maxFlips":30,"completionMinutes":45,"basePay":8,"maxBonus":9,"perTrialBonus":0.5,"perTrialBonusThreshold":0.05,"exampleCost":0.01},"classroomParams":{"A":{"a":1,"b":4},"B":{"a":4,"b":1},"C":{"a":2,"b":8},"D":{"a":8,"b":2}},"conditions":["nonSeqFull","nonSeqPartial","seqNoFeedback","seqFeedback"],"classroomPairings":[["A","B"],["C","D"]],"coinWeights":[0.2,0.5,0.8],"subjectId":"A3UQ5DF8VVD975","assignmentId":"3Y9N9SS8LZX1U3H2TEAW6X70L3XD3U","hitId":"3AQN9REUTF20OMGWRXYK787QVFOYDP","url":"https://gershmanlab.com/experiments/alicia/teaching/experiment/?hitId=3AQN9REUTF20OMGWRXYK787QVFOYDP&workerId=A3UQ5DF8VVD975&assignmentId=3Y9N9SS8LZX1U3H2TEAW6X70L3XD3U&a=899Y9&tp_a=899Y9&b=3Y9N9SS8LZX1U3H2TEAW6X70L3XD3U&tp_b=3Y9N9SS8LZX1U3H2TEAW6X70L3XD3U&c=365799&tp_c=365799"},{"rt":17851,"response":{"heads":"5","tails":"5"},"type":"response","condition":"nonSeqPartial","trueTheta":0.5,"classrooms":["A","B"],"studentTrueClassroom":"A","exampleSet":"first","trial_type":"survey-html-form","trial_index":38,"time_elapsed":548713,"internal_node_id":"0.0-34.0-0.0","params":{"nStudents":24,"maxFlips":30,"completionMinutes":45,"basePay":8,"maxBonus":9,"perTrialBonus":0.5,"perTrialBonusThreshold":0.05,"exampleCost":0.01},"classroomParams":{"A":{"a":1,"b":4},"B":{"a":4,"b":1},"C":{"a":2,"b":8},"D":{"a":8,"b":2}},"conditions":["nonSeqFull","nonSeqPartial","seqNoFeedback","seqFeedback"],"classroomPairings":[["A","B"],["C","D"]],"coinWeights":[0.2,0.5,0.8],"subjectId":"A3UQ5DF8VVD975","assignmentId":"3Y9N9SS8LZX1U3H2TEAW6X70L3XD3U","hitId":"3AQN9REUTF20OMGWRXYK787QVFOYDP","url":"https://gershmanlab.com/experiments/alicia/teaching/experiment/?hitId=3AQN9REUTF20OMGWRXYK787QVFOYDP&workerId=A3UQ5DF8VVD975&assignmentId=3Y9N9SS8LZX1U3H2TEAW6X70L3XD3U&a=899Y9&tp_a=899Y9&b=3Y9N9SS8LZX1U3H2TEAW6X70L3XD3U&tp_b=3Y9N9SS8LZX1U3H2TEAW6X70L3XD3U&c=365799&tp_c=365799","heads":5,"tails":5,"studentIndex":3,"studentTrueHypers":{"a":1,"b":4},"studentGuess":0.4,"delta":0.09999999999999998,"totalExamples":10,"bonus":0,"bonusSoFar":0.35},{"rt":null,"stimulus":"Sending examples to student... ","response":null,"trial_type":"html-keyboard-response","trial_index":39,"time_elapsed":550480,"internal_node_id":"0.0-35.0","params":{"nStudents":24,"maxFlips":30,"completionMinutes":45,"basePay":8,"maxBonus":9,"perTrialBonus":0.5,"perTrialBonusThreshold":0.05,"exampleCost":0.01},"classroomParams":{"A":{"a":1,"b":4},"B":{"a":4,"b":1},"C":{"a":2,"b":8},"D":{"a":8,"b":2}},"conditions":["nonSeqFull","nonSeqPartial","seqNoFeedback","seqFeedback"],"classroomPairings":[["A","B"],["C","D"]],"coinWeights":[0.2,0.5,0.8],"subjectId":"A3UQ5DF8VVD975","assignmentId":"3Y9N9SS8LZX1U3H2TEAW6X70L3XD3U","hitId":"3AQN9REUTF20OMGWRXYK787QVFOYDP","url":"https://gershmanlab.com/experiments/alicia/teaching/experiment/?hitId=3AQN9REUTF20OMGWRXYK787QVFOYDP&workerId=A3UQ5DF8VVD975&assignmentId=3Y9N9SS8LZX1U3H2TEAW6X70L3XD3U&a=899Y9&tp_a=899Y9&b=3Y9N9SS8LZX1U3H2TEAW6X70L3XD3U&tp_b=3Y9N9SS8LZX1U3H2TEAW6X70L3XD3U&c=365799&tp_c=365799"},{"rt":null,"stimulus":"Examples sent to student! Waiting for student...","response":null,"trial_type":"html-keyboard-response","trial_index":40,"time_elapsed":555984,"internal_node_id":"0.0-36.0","params":{"nStudents":24,"maxFlips":30,"completionMinutes":45,"basePay":8,"maxBonus":9,"perTrialBonus":0.5,"perTrialBonusThreshold":0.05,"exampleCost":0.01},"classroomParams":{"A":{"a":1,"b":4},"B":{"a":4,"b":1},"C":{"a":2,"b":8},"D":{"a":8,"b":2}},"conditions":["nonSeqFull","nonSeqPartial","seqNoFeedback","seqFeedback"],"classroomPairings":[["A","B"],["C","D"]],"coinWeights":[0.2,0.5,0.8],"subjectId":"A3UQ5DF8VVD975","assignmentId":"3Y9N9SS8LZX1U3H2TEAW6X70L3XD3U","hitId":"3AQN9REUTF20OMGWRXYK787QVFOYDP","url":"https://gershmanlab.com/experiments/alicia/teaching/experiment/?hitId=3AQN9REUTF20OMGWRXYK787QVFOYDP&workerId=A3UQ5DF8VVD975&assignmentId=3Y9N9SS8LZX1U3H2TEAW6X70L3XD3U&a=899Y9&tp_a=899Y9&b=3Y9N9SS8LZX1U3H2TEAW6X70L3XD3U&tp_b=3Y9N9SS8LZX1U3H2TEAW6X70L3XD3U&c=365799&tp_c=365799"},{"rt":3247,"stimulus":"\n                <p>Student's guess for coin weight: <b style=\"color:Tomato;\">0.40</b></p>\n                <p>You received a bonus of <b>$0</b>. Total bonus so far: <b>$0.35</b></b></p>\n                <p></p>\n                <p>Press any key to continue.</p>\n                ","response":"p","trial_type":"html-keyboard-response","trial_index":41,"time_elapsed":559232,"internal_node_id":"0.0-37.0","params":{"nStudents":24,"maxFlips":30,"completionMinutes":45,"basePay":8,"maxBonus":9,"perTrialBonus":0.5,"perTrialBonusThreshold":0.05,"exampleCost":0.01},"classroomParams":{"A":{"a":1,"b":4},"B":{"a":4,"b":1},"C":{"a":2,"b":8},"D":{"a":8,"b":2}},"conditions":["nonSeqFull","nonSeqPartial","seqNoFeedback","seqFeedback"],"classroomPairings":[["A","B"],["C","D"]],"coinWeights":[0.2,0.5,0.8],"subjectId":"A3UQ5DF8VVD975","assignmentId":"3Y9N9SS8LZX1U3H2TEAW6X70L3XD3U","hitId":"3AQN9REUTF20OMGWRXYK787QVFOYDP","url":"https://gershmanlab.com/experiments/alicia/teaching/experiment/?hitId=3AQN9REUTF20OMGWRXYK787QVFOYDP&workerId=A3UQ5DF8VVD975&assignmentId=3Y9N9SS8LZX1U3H2TEAW6X70L3XD3U&a=899Y9&tp_a=899Y9&b=3Y9N9SS8LZX1U3H2TEAW6X70L3XD3U&tp_b=3Y9N9SS8LZX1U3H2TEAW6X70L3XD3U&c=365799&tp_c=365799"},{"rt":null,"stimulus":"<div style=\"font-size:60px;\">Next student</div>","response":null,"trial_type":"html-keyboard-response","trial_index":42,"time_elapsed":561244,"internal_node_id":"0.0-38.0-0.0","params":{"nStudents":24,"maxFlips":30,"completionMinutes":45,"basePay":8,"maxBonus":9,"perTrialBonus":0.5,"perTrialBonusThreshold":0.05,"exampleCost":0.01},"classroomParams":{"A":{"a":1,"b":4},"B":{"a":4,"b":1},"C":{"a":2,"b":8},"D":{"a":8,"b":2}},"conditions":["nonSeqFull","nonSeqPartial","seqNoFeedback","seqFeedback"],"classroomPairings":[["A","B"],["C","D"]],"coinWeights":[0.2,0.5,0.8],"subjectId":"A3UQ5DF8VVD975","assignmentId":"3Y9N9SS8LZX1U3H2TEAW6X70L3XD3U","hitId":"3AQN9REUTF20OMGWRXYK787QVFOYDP","url":"https://gershmanlab.com/experiments/alicia/teaching/experiment/?hitId=3AQN9REUTF20OMGWRXYK787QVFOYDP&workerId=A3UQ5DF8VVD975&assignmentId=3Y9N9SS8LZX1U3H2TEAW6X70L3XD3U&a=899Y9&tp_a=899Y9&b=3Y9N9SS8LZX1U3H2TEAW6X70L3XD3U&tp_b=3Y9N9SS8LZX1U3H2TEAW6X70L3XD3U&c=365799&tp_c=365799"},{"rt":3614,"stimulus":"\n            <h4 style=\"color:Orange;\">Student 5</h4>\n            <h2>The weight of your coin is <b style=\"color:Tomato;\">0.2</b>.</h2>\n            <p>In this block, you will be giving <b>one</b> set of examples to Student 5.</p>\n                <p>You will receive feedback at the end of the block.</p>\n            <p></p>","response":0,"trial_type":"html-button-response","trial_index":43,"time_elapsed":564861,"internal_node_id":"0.0-39.0","params":{"nStudents":24,"maxFlips":30,"completionMinutes":45,"basePay":8,"maxBonus":9,"perTrialBonus":0.5,"perTrialBonusThreshold":0.05,"exampleCost":0.01},"classroomParams":{"A":{"a":1,"b":4},"B":{"a":4,"b":1},"C":{"a":2,"b":8},"D":{"a":8,"b":2}},"conditions":["nonSeqFull","nonSeqPartial","seqNoFeedback","seqFeedback"],"classroomPairings":[["A","B"],["C","D"]],"coinWeights":[0.2,0.5,0.8],"subjectId":"A3UQ5DF8VVD975","assignmentId":"3Y9N9SS8LZX1U3H2TEAW6X70L3XD3U","hitId":"3AQN9REUTF20OMGWRXYK787QVFOYDP","url":"https://gershmanlab.com/experiments/alicia/teaching/experiment/?hitId=3AQN9REUTF20OMGWRXYK787QVFOYDP&workerId=A3UQ5DF8VVD975&assignmentId=3Y9N9SS8LZX1U3H2TEAW6X70L3XD3U&a=899Y9&tp_a=899Y9&b=3Y9N9SS8LZX1U3H2TEAW6X70L3XD3U&tp_b=3Y9N9SS8LZX1U3H2TEAW6X70L3XD3U&c=365799&tp_c=365799"},{"rt":12427,"response":{"heads":"1","tails":"4"},"type":"response","condition":"nonSeqFull","trueTheta":0.2,"classrooms":["C","D"],"studentTrueClassroom":"C","exampleSet":"first","trial_type":"survey-html-form","trial_index":44,"time_elapsed":577291,"internal_node_id":"0.0-40.0-0.0","params":{"nStudents":24,"maxFlips":30,"completionMinutes":45,"basePay":8,"maxBonus":9,"perTrialBonus":0.5,"perTrialBonusThreshold":0.05,"exampleCost":0.01},"classroomParams":{"A":{"a":1,"b":4},"B":{"a":4,"b":1},"C":{"a":2,"b":8},"D":{"a":8,"b":2}},"conditions":["nonSeqFull","nonSeqPartial","seqNoFeedback","seqFeedback"],"classroomPairings":[["A","B"],["C","D"]],"coinWeights":[0.2,0.5,0.8],"subjectId":"A3UQ5DF8VVD975","assignmentId":"3Y9N9SS8LZX1U3H2TEAW6X70L3XD3U","hitId":"3AQN9REUTF20OMGWRXYK787QVFOYDP","url":"https://gershmanlab.com/experiments/alicia/teaching/experiment/?hitId=3AQN9REUTF20OMGWRXYK787QVFOYDP&workerId=A3UQ5DF8VVD975&assignmentId=3Y9N9SS8LZX1U3H2TEAW6X70L3XD3U&a=899Y9&tp_a=899Y9&b=3Y9N9SS8LZX1U3H2TEAW6X70L3XD3U&tp_b=3Y9N9SS8LZX1U3H2TEAW6X70L3XD3U&c=365799&tp_c=365799","heads":1,"tails":4,"studentIndex":4,"studentTrueHypers":{"a":2,"b":8},"studentGuess":0.2,"delta":0,"totalExamples":5,"bonus":0.45,"bonusSoFar":0.8},{"rt":null,"stimulus":"Sending examples to student... ","response":null,"trial_type":"html-keyboard-response","trial_index":45,"time_elapsed":578807,"internal_node_id":"0.0-41.0","params":{"nStudents":24,"maxFlips":30,"completionMinutes":45,"basePay":8,"maxBonus":9,"perTrialBonus":0.5,"perTrialBonusThreshold":0.05,"exampleCost":0.01},"classroomParams":{"A":{"a":1,"b":4},"B":{"a":4,"b":1},"C":{"a":2,"b":8},"D":{"a":8,"b":2}},"conditions":["nonSeqFull","nonSeqPartial","seqNoFeedback","seqFeedback"],"classroomPairings":[["A","B"],["C","D"]],"coinWeights":[0.2,0.5,0.8],"subjectId":"A3UQ5DF8VVD975","assignmentId":"3Y9N9SS8LZX1U3H2TEAW6X70L3XD3U","hitId":"3AQN9REUTF20OMGWRXYK787QVFOYDP","url":"https://gershmanlab.com/experiments/alicia/teaching/experiment/?hitId=3AQN9REUTF20OMGWRXYK787QVFOYDP&workerId=A3UQ5DF8VVD975&assignmentId=3Y9N9SS8LZX1U3H2TEAW6X70L3XD3U&a=899Y9&tp_a=899Y9&b=3Y9N9SS8LZX1U3H2TEAW6X70L3XD3U&tp_b=3Y9N9SS8LZX1U3H2TEAW6X70L3XD3U&c=365799&tp_c=365799"},{"rt":null,"stimulus":"Examples sent to student! Waiting for student...","response":null,"trial_type":"html-keyboard-response","trial_index":46,"time_elapsed":583816,"internal_node_id":"0.0-42.0","params":{"nStudents":24,"maxFlips":30,"completionMinutes":45,"basePay":8,"maxBonus":9,"perTrialBonus":0.5,"perTrialBonusThreshold":0.05,"exampleCost":0.01},"classroomParams":{"A":{"a":1,"b":4},"B":{"a":4,"b":1},"C":{"a":2,"b":8},"D":{"a":8,"b":2}},"conditions":["nonSeqFull","nonSeqPartial","seqNoFeedback","seqFeedback"],"classroomPairings":[["A","B"],["C","D"]],"coinWeights":[0.2,0.5,0.8],"subjectId":"A3UQ5DF8VVD975","assignmentId":"3Y9N9SS8LZX1U3H2TEAW6X70L3XD3U","hitId":"3AQN9REUTF20OMGWRXYK787QVFOYDP","url":"https://gershmanlab.com/experiments/alicia/teaching/experiment/?hitId=3AQN9REUTF20OMGWRXYK787QVFOYDP&workerId=A3UQ5DF8VVD975&assignmentId=3Y9N9SS8LZX1U3H2TEAW6X70L3XD3U&a=899Y9&tp_a=899Y9&b=3Y9N9SS8LZX1U3H2TEAW6X70L3XD3U&tp_b=3Y9N9SS8LZX1U3H2TEAW6X70L3XD3U&c=365799&tp_c=365799"},{"rt":10650,"stimulus":"\n                <p>Student's guess for coin weight: <b style=\"color:Tomato;\">0.20</b></p>\n                <p>You received a bonus of <b>$0.45</b>. Total bonus so far: <b>$0.80</b></b></p>\n                <p></p>\n                <p>Press any key to continue.</p>\n                ","response":"f","trial_type":"html-keyboard-response","trial_index":47,"time_elapsed":594469,"internal_node_id":"0.0-43.0","params":{"nStudents":24,"maxFlips":30,"completionMinutes":45,"basePay":8,"maxBonus":9,"perTrialBonus":0.5,"perTrialBonusThreshold":0.05,"exampleCost":0.01},"classroomParams":{"A":{"a":1,"b":4},"B":{"a":4,"b":1},"C":{"a":2,"b":8},"D":{"a":8,"b":2}},"conditions":["nonSeqFull","nonSeqPartial","seqNoFeedback","seqFeedback"],"classroomPairings":[["A","B"],["C","D"]],"coinWeights":[0.2,0.5,0.8],"subjectId":"A3UQ5DF8VVD975","assignmentId":"3Y9N9SS8LZX1U3H2TEAW6X70L3XD3U","hitId":"3AQN9REUTF20OMGWRXYK787QVFOYDP","url":"https://gershmanlab.com/experiments/alicia/teaching/experiment/?hitId=3AQN9REUTF20OMGWRXYK787QVFOYDP&workerId=A3UQ5DF8VVD975&assignmentId=3Y9N9SS8LZX1U3H2TEAW6X70L3XD3U&a=899Y9&tp_a=899Y9&b=3Y9N9SS8LZX1U3H2TEAW6X70L3XD3U&tp_b=3Y9N9SS8LZX1U3H2TEAW6X70L3XD3U&c=365799&tp_c=365799"},{"rt":null,"stimulus":"<div style=\"font-size:60px;\">Next student</div>","response":null,"trial_type":"html-keyboard-response","trial_index":48,"time_elapsed":596738,"internal_node_id":"0.0-44.0-0.0","params":{"nStudents":24,"maxFlips":30,"completionMinutes":45,"basePay":8,"maxBonus":9,"perTrialBonus":0.5,"perTrialBonusThreshold":0.05,"exampleCost":0.01},"classroomParams":{"A":{"a":1,"b":4},"B":{"a":4,"b":1},"C":{"a":2,"b":8},"D":{"a":8,"b":2}},"conditions":["nonSeqFull","nonSeqPartial","seqNoFeedback","seqFeedback"],"classroomPairings":[["A","B"],["C","D"]],"coinWeights":[0.2,0.5,0.8],"subjectId":"A3UQ5DF8VVD975","assignmentId":"3Y9N9SS8LZX1U3H2TEAW6X70L3XD3U","hitId":"3AQN9REUTF20OMGWRXYK787QVFOYDP","url":"https://gershmanlab.com/experiments/alicia/teaching/experiment/?hitId=3AQN9REUTF20OMGWRXYK787QVFOYDP&workerId=A3UQ5DF8VVD975&assignmentId=3Y9N9SS8LZX1U3H2TEAW6X70L3XD3U&a=899Y9&tp_a=899Y9&b=3Y9N9SS8LZX1U3H2TEAW6X70L3XD3U&tp_b=3Y9N9SS8LZX1U3H2TEAW6X70L3XD3U&c=365799&tp_c=365799"},{"rt":12529,"stimulus":"\n            <h4 style=\"color:Orange;\">Student 6</h4>\n            <h2>The weight of your coin is <b style=\"color:Tomato;\">0.8</b>.</h2>\n            <p>In this block, you will be giving <b>two</b> sets of examples to Student 6.</p>\n                <p>You will see the student's guess after the first set of examples. You will also receive feedback at the end of the block.</p>\n            <p>To earn the highest bonus, you will have to <b>take into consideration the student's guess</b> when you choose your second set of examples.</p>","response":0,"trial_type":"html-button-response","trial_index":49,"time_elapsed":609270,"internal_node_id":"0.0-45.0","params":{"nStudents":24,"maxFlips":30,"completionMinutes":45,"basePay":8,"maxBonus":9,"perTrialBonus":0.5,"perTrialBonusThreshold":0.05,"exampleCost":0.01},"classroomParams":{"A":{"a":1,"b":4},"B":{"a":4,"b":1},"C":{"a":2,"b":8},"D":{"a":8,"b":2}},"conditions":["nonSeqFull","nonSeqPartial","seqNoFeedback","seqFeedback"],"classroomPairings":[["A","B"],["C","D"]],"coinWeights":[0.2,0.5,0.8],"subjectId":"A3UQ5DF8VVD975","assignmentId":"3Y9N9SS8LZX1U3H2TEAW6X70L3XD3U","hitId":"3AQN9REUTF20OMGWRXYK787QVFOYDP","url":"https://gershmanlab.com/experiments/alicia/teaching/experiment/?hitId=3AQN9REUTF20OMGWRXYK787QVFOYDP&workerId=A3UQ5DF8VVD975&assignmentId=3Y9N9SS8LZX1U3H2TEAW6X70L3XD3U&a=899Y9&tp_a=899Y9&b=3Y9N9SS8LZX1U3H2TEAW6X70L3XD3U&tp_b=3Y9N9SS8LZX1U3H2TEAW6X70L3XD3U&c=365799&tp_c=365799"},{"rt":13766,"response":{"heads":"4","tails":"1"},"type":"response","condition":"seqFeedback","trueTheta":0.8,"classrooms":["A","B"],"studentTrueClassroom":"A","exampleSet":"first","trial_type":"survey-html-form","trial_index":50,"time_elapsed":623039,"internal_node_id":"0.0-46.0-0.0","params":{"nStudents":24,"maxFlips":30,"completionMinutes":45,"basePay":8,"maxBonus":9,"perTrialBonus":0.5,"perTrialBonusThreshold":0.05,"exampleCost":0.01},"classroomParams":{"A":{"a":1,"b":4},"B":{"a":4,"b":1},"C":{"a":2,"b":8},"D":{"a":8,"b":2}},"conditions":["nonSeqFull","nonSeqPartial","seqNoFeedback","seqFeedback"],"classroomPairings":[["A","B"],["C","D"]],"coinWeights":[0.2,0.5,0.8],"subjectId":"A3UQ5DF8VVD975","assignmentId":"3Y9N9SS8LZX1U3H2TEAW6X70L3XD3U","hitId":"3AQN9REUTF20OMGWRXYK787QVFOYDP","url":"https://gershmanlab.com/experiments/alicia/teaching/experiment/?hitId=3AQN9REUTF20OMGWRXYK787QVFOYDP&workerId=A3UQ5DF8VVD975&assignmentId=3Y9N9SS8LZX1U3H2TEAW6X70L3XD3U&a=899Y9&tp_a=899Y9&b=3Y9N9SS8LZX1U3H2TEAW6X70L3XD3U&tp_b=3Y9N9SS8LZX1U3H2TEAW6X70L3XD3U&c=365799&tp_c=365799","heads":4,"tails":1,"studentIndex":5,"studentTrueHypers":{"a":1,"b":4},"studentGuess":0.5,"delta":0.30000000000000004,"totalExamples":5,"bonusSoFar":0.8},{"rt":null,"stimulus":"Sending examples to student... ","response":null,"trial_type":"html-keyboard-response","trial_index":51,"time_elapsed":624798,"internal_node_id":"0.0-47.0","params":{"nStudents":24,"maxFlips":30,"completionMinutes":45,"basePay":8,"maxBonus":9,"perTrialBonus":0.5,"perTrialBonusThreshold":0.05,"exampleCost":0.01},"classroomParams":{"A":{"a":1,"b":4},"B":{"a":4,"b":1},"C":{"a":2,"b":8},"D":{"a":8,"b":2}},"conditions":["nonSeqFull","nonSeqPartial","seqNoFeedback","seqFeedback"],"classroomPairings":[["A","B"],["C","D"]],"coinWeights":[0.2,0.5,0.8],"subjectId":"A3UQ5DF8VVD975","assignmentId":"3Y9N9SS8LZX1U3H2TEAW6X70L3XD3U","hitId":"3AQN9REUTF20OMGWRXYK787QVFOYDP","url":"https://gershmanlab.com/experiments/alicia/teaching/experiment/?hitId=3AQN9REUTF20OMGWRXYK787QVFOYDP&workerId=A3UQ5DF8VVD975&assignmentId=3Y9N9SS8LZX1U3H2TEAW6X70L3XD3U&a=899Y9&tp_a=899Y9&b=3Y9N9SS8LZX1U3H2TEAW6X70L3XD3U&tp_b=3Y9N9SS8LZX1U3H2TEAW6X70L3XD3U&c=365799&tp_c=365799"},{"rt":null,"stimulus":"Examples sent to student! Waiting for student...","response":null,"trial_type":"html-keyboard-response","trial_index":52,"time_elapsed":629309,"internal_node_id":"0.0-48.0","params":{"nStudents":24,"maxFlips":30,"completionMinutes":45,"basePay":8,"maxBonus":9,"perTrialBonus":0.5,"perTrialBonusThreshold":0.05,"exampleCost":0.01},"classroomParams":{"A":{"a":1,"b":4},"B":{"a":4,"b":1},"C":{"a":2,"b":8},"D":{"a":8,"b":2}},"conditions":["nonSeqFull","nonSeqPartial","seqNoFeedback","seqFeedback"],"classroomPairings":[["A","B"],["C","D"]],"coinWeights":[0.2,0.5,0.8],"subjectId":"A3UQ5DF8VVD975","assignmentId":"3Y9N9SS8LZX1U3H2TEAW6X70L3XD3U","hitId":"3AQN9REUTF20OMGWRXYK787QVFOYDP","url":"https://gershmanlab.com/experiments/alicia/teaching/experiment/?hitId=3AQN9REUTF20OMGWRXYK787QVFOYDP&workerId=A3UQ5DF8VVD975&assignmentId=3Y9N9SS8LZX1U3H2TEAW6X70L3XD3U&a=899Y9&tp_a=899Y9&b=3Y9N9SS8LZX1U3H2TEAW6X70L3XD3U&tp_b=3Y9N9SS8LZX1U3H2TEAW6X70L3XD3U&c=365799&tp_c=365799"},{"rt":8792,"stimulus":"\n                <p>Student's guess for coin weight: <b style=\"color:Tomato;\">0.50</b></p>\n                <p></b></p>\n                <p>You will now send another set of examples to your student. <b>Remember to take your student's guess into consideration so that you can earn the highest bonus possible!</b> </p>\n                <p>Press any key to continue.</p>\n                ","response":"d","trial_type":"html-keyboard-response","trial_index":53,"time_elapsed":638103,"internal_node_id":"0.0-49.0","params":{"nStudents":24,"maxFlips":30,"completionMinutes":45,"basePay":8,"maxBonus":9,"perTrialBonus":0.5,"perTrialBonusThreshold":0.05,"exampleCost":0.01},"classroomParams":{"A":{"a":1,"b":4},"B":{"a":4,"b":1},"C":{"a":2,"b":8},"D":{"a":8,"b":2}},"conditions":["nonSeqFull","nonSeqPartial","seqNoFeedback","seqFeedback"],"classroomPairings":[["A","B"],["C","D"]],"coinWeights":[0.2,0.5,0.8],"subjectId":"A3UQ5DF8VVD975","assignmentId":"3Y9N9SS8LZX1U3H2TEAW6X70L3XD3U","hitId":"3AQN9REUTF20OMGWRXYK787QVFOYDP","url":"https://gershmanlab.com/experiments/alicia/teaching/experiment/?hitId=3AQN9REUTF20OMGWRXYK787QVFOYDP&workerId=A3UQ5DF8VVD975&assignmentId=3Y9N9SS8LZX1U3H2TEAW6X70L3XD3U&a=899Y9&tp_a=899Y9&b=3Y9N9SS8LZX1U3H2TEAW6X70L3XD3U&tp_b=3Y9N9SS8LZX1U3H2TEAW6X70L3XD3U&c=365799&tp_c=365799"},{"rt":10611,"response":{"heads":"9","tails":"1"},"type":"response","condition":"seqFeedback","trueTheta":0.8,"classrooms":["A","B"],"studentTrueClassroom":"A","exampleSet":"second","trial_type":"survey-html-form","trial_index":54,"time_elapsed":648716,"internal_node_id":"0.0-50.0-0.0","params":{"nStudents":24,"maxFlips":30,"completionMinutes":45,"basePay":8,"maxBonus":9,"perTrialBonus":0.5,"perTrialBonusThreshold":0.05,"exampleCost":0.01},"classroomParams":{"A":{"a":1,"b":4},"B":{"a":4,"b":1},"C":{"a":2,"b":8},"D":{"a":8,"b":2}},"conditions":["nonSeqFull","nonSeqPartial","seqNoFeedback","seqFeedback"],"classroomPairings":[["A","B"],["C","D"]],"coinWeights":[0.2,0.5,0.8],"subjectId":"A3UQ5DF8VVD975","assignmentId":"3Y9N9SS8LZX1U3H2TEAW6X70L3XD3U","hitId":"3AQN9REUTF20OMGWRXYK787QVFOYDP","url":"https://gershmanlab.com/experiments/alicia/teaching/experiment/?hitId=3AQN9REUTF20OMGWRXYK787QVFOYDP&workerId=A3UQ5DF8VVD975&assignmentId=3Y9N9SS8LZX1U3H2TEAW6X70L3XD3U&a=899Y9&tp_a=899Y9&b=3Y9N9SS8LZX1U3H2TEAW6X70L3XD3U&tp_b=3Y9N9SS8LZX1U3H2TEAW6X70L3XD3U&c=365799&tp_c=365799","firstResponseHeads":4,"firstResponseTails":1,"secondResponseHeads":9,"secondResponseTails":1,"totalHeads":13,"totalTails":2,"studentIndex":5,"studentTrueHypers":{"a":1,"b":4},"studentGuess":0.7,"delta":0.10000000000000009,"bonus":0,"bonusSoFar":0.8,"totalExamples":15},{"rt":null,"stimulus":"Sending examples to student... ","response":null,"trial_type":"html-keyboard-response","trial_index":55,"time_elapsed":650222,"internal_node_id":"0.0-51.0","params":{"nStudents":24,"maxFlips":30,"completionMinutes":45,"basePay":8,"maxBonus":9,"perTrialBonus":0.5,"perTrialBonusThreshold":0.05,"exampleCost":0.01},"classroomParams":{"A":{"a":1,"b":4},"B":{"a":4,"b":1},"C":{"a":2,"b":8},"D":{"a":8,"b":2}},"conditions":["nonSeqFull","nonSeqPartial","seqNoFeedback","seqFeedback"],"classroomPairings":[["A","B"],["C","D"]],"coinWeights":[0.2,0.5,0.8],"subjectId":"A3UQ5DF8VVD975","assignmentId":"3Y9N9SS8LZX1U3H2TEAW6X70L3XD3U","hitId":"3AQN9REUTF20OMGWRXYK787QVFOYDP","url":"https://gershmanlab.com/experiments/alicia/teaching/experiment/?hitId=3AQN9REUTF20OMGWRXYK787QVFOYDP&workerId=A3UQ5DF8VVD975&assignmentId=3Y9N9SS8LZX1U3H2TEAW6X70L3XD3U&a=899Y9&tp_a=899Y9&b=3Y9N9SS8LZX1U3H2TEAW6X70L3XD3U&tp_b=3Y9N9SS8LZX1U3H2TEAW6X70L3XD3U&c=365799&tp_c=365799"},{"rt":null,"stimulus":"Examples sent to student! Waiting for student...","response":null,"trial_type":"html-keyboard-response","trial_index":56,"time_elapsed":654226,"internal_node_id":"0.0-52.0","params":{"nStudents":24,"maxFlips":30,"completionMinutes":45,"basePay":8,"maxBonus":9,"perTrialBonus":0.5,"perTrialBonusThreshold":0.05,"exampleCost":0.01},"classroomParams":{"A":{"a":1,"b":4},"B":{"a":4,"b":1},"C":{"a":2,"b":8},"D":{"a":8,"b":2}},"conditions":["nonSeqFull","nonSeqPartial","seqNoFeedback","seqFeedback"],"classroomPairings":[["A","B"],["C","D"]],"coinWeights":[0.2,0.5,0.8],"subjectId":"A3UQ5DF8VVD975","assignmentId":"3Y9N9SS8LZX1U3H2TEAW6X70L3XD3U","hitId":"3AQN9REUTF20OMGWRXYK787QVFOYDP","url":"https://gershmanlab.com/experiments/alicia/teaching/experiment/?hitId=3AQN9REUTF20OMGWRXYK787QVFOYDP&workerId=A3UQ5DF8VVD975&assignmentId=3Y9N9SS8LZX1U3H2TEAW6X70L3XD3U&a=899Y9&tp_a=899Y9&b=3Y9N9SS8LZX1U3H2TEAW6X70L3XD3U&tp_b=3Y9N9SS8LZX1U3H2TEAW6X70L3XD3U&c=365799&tp_c=365799"},{"rt":6149,"stimulus":"\n                <p>Student 6's first guess for coin weight: <b style=\"color:Tomato\";>0.50</b></p>\n                <p>Student 6's second guess for coin weight: <b style=\"color:Tomato\";>0.70</b></p>\n                <p>You received a bonus of <b>$0.00</b> based on the student's second guess.</p>\n                <p>Total bonus so far: <b>$0.80</b></p>\n                <p>Press any key to continue.</p>\n                ","response":"a","trial_type":"html-keyboard-response","trial_index":57,"time_elapsed":660376,"internal_node_id":"0.0-53.0","params":{"nStudents":24,"maxFlips":30,"completionMinutes":45,"basePay":8,"maxBonus":9,"perTrialBonus":0.5,"perTrialBonusThreshold":0.05,"exampleCost":0.01},"classroomParams":{"A":{"a":1,"b":4},"B":{"a":4,"b":1},"C":{"a":2,"b":8},"D":{"a":8,"b":2}},"conditions":["nonSeqFull","nonSeqPartial","seqNoFeedback","seqFeedback"],"classroomPairings":[["A","B"],["C","D"]],"coinWeights":[0.2,0.5,0.8],"subjectId":"A3UQ5DF8VVD975","assignmentId":"3Y9N9SS8LZX1U3H2TEAW6X70L3XD3U","hitId":"3AQN9REUTF20OMGWRXYK787QVFOYDP","url":"https://gershmanlab.com/experiments/alicia/teaching/experiment/?hitId=3AQN9REUTF20OMGWRXYK787QVFOYDP&workerId=A3UQ5DF8VVD975&assignmentId=3Y9N9SS8LZX1U3H2TEAW6X70L3XD3U&a=899Y9&tp_a=899Y9&b=3Y9N9SS8LZX1U3H2TEAW6X70L3XD3U&tp_b=3Y9N9SS8LZX1U3H2TEAW6X70L3XD3U&c=365799&tp_c=365799"},{"rt":null,"stimulus":"<div style=\"font-size:60px;\">Next student</div>","response":null,"trial_type":"html-keyboard-response","trial_index":58,"time_elapsed":662891,"internal_node_id":"0.0-54.0-0.0","params":{"nStudents":24,"maxFlips":30,"completionMinutes":45,"basePay":8,"maxBonus":9,"perTrialBonus":0.5,"perTrialBonusThreshold":0.05,"exampleCost":0.01},"classroomParams":{"A":{"a":1,"b":4},"B":{"a":4,"b":1},"C":{"a":2,"b":8},"D":{"a":8,"b":2}},"conditions":["nonSeqFull","nonSeqPartial","seqNoFeedback","seqFeedback"],"classroomPairings":[["A","B"],["C","D"]],"coinWeights":[0.2,0.5,0.8],"subjectId":"A3UQ5DF8VVD975","assignmentId":"3Y9N9SS8LZX1U3H2TEAW6X70L3XD3U","hitId":"3AQN9REUTF20OMGWRXYK787QVFOYDP","url":"https://gershmanlab.com/experiments/alicia/teaching/experiment/?hitId=3AQN9REUTF20OMGWRXYK787QVFOYDP&workerId=A3UQ5DF8VVD975&assignmentId=3Y9N9SS8LZX1U3H2TEAW6X70L3XD3U&a=899Y9&tp_a=899Y9&b=3Y9N9SS8LZX1U3H2TEAW6X70L3XD3U&tp_b=3Y9N9SS8LZX1U3H2TEAW6X70L3XD3U&c=365799&tp_c=365799"},{"rt":7387,"stimulus":"\n            <h4 style=\"color:Orange;\">Student 7</h4>\n            <h2>The weight of your coin is <b style=\"color:Tomato;\">0.8</b>.</h2>\n            <p>In this block, you will be giving <b>one</b> set of examples to Student 7.</p>\n                <p>You will receive feedback at the end of the block.</p>\n            <p></p>","response":0,"trial_type":"html-button-response","trial_index":59,"time_elapsed":670280,"internal_node_id":"0.0-55.0","params":{"nStudents":24,"maxFlips":30,"completionMinutes":45,"basePay":8,"maxBonus":9,"perTrialBonus":0.5,"perTrialBonusThreshold":0.05,"exampleCost":0.01},"classroomParams":{"A":{"a":1,"b":4},"B":{"a":4,"b":1},"C":{"a":2,"b":8},"D":{"a":8,"b":2}},"conditions":["nonSeqFull","nonSeqPartial","seqNoFeedback","seqFeedback"],"classroomPairings":[["A","B"],["C","D"]],"coinWeights":[0.2,0.5,0.8],"subjectId":"A3UQ5DF8VVD975","assignmentId":"3Y9N9SS8LZX1U3H2TEAW6X70L3XD3U","hitId":"3AQN9REUTF20OMGWRXYK787QVFOYDP","url":"https://gershmanlab.com/experiments/alicia/teaching/experiment/?hitId=3AQN9REUTF20OMGWRXYK787QVFOYDP&workerId=A3UQ5DF8VVD975&assignmentId=3Y9N9SS8LZX1U3H2TEAW6X70L3XD3U&a=899Y9&tp_a=899Y9&b=3Y9N9SS8LZX1U3H2TEAW6X70L3XD3U&tp_b=3Y9N9SS8LZX1U3H2TEAW6X70L3XD3U&c=365799&tp_c=365799"},{"rt":13415,"response":{"heads":"19","tails":"1"},"type":"response","condition":"nonSeqFull","trueTheta":0.8,"classrooms":["A","B"],"studentTrueClassroom":"A","exampleSet":"first","trial_type":"survey-html-form","trial_index":60,"time_elapsed":683697,"internal_node_id":"0.0-56.0-0.0","params":{"nStudents":24,"maxFlips":30,"completionMinutes":45,"basePay":8,"maxBonus":9,"perTrialBonus":0.5,"perTrialBonusThreshold":0.05,"exampleCost":0.01},"classroomParams":{"A":{"a":1,"b":4},"B":{"a":4,"b":1},"C":{"a":2,"b":8},"D":{"a":8,"b":2}},"conditions":["nonSeqFull","nonSeqPartial","seqNoFeedback","seqFeedback"],"classroomPairings":[["A","B"],["C","D"]],"coinWeights":[0.2,0.5,0.8],"subjectId":"A3UQ5DF8VVD975","assignmentId":"3Y9N9SS8LZX1U3H2TEAW6X70L3XD3U","hitId":"3AQN9REUTF20OMGWRXYK787QVFOYDP","url":"https://gershmanlab.com/experiments/alicia/teaching/experiment/?hitId=3AQN9REUTF20OMGWRXYK787QVFOYDP&workerId=A3UQ5DF8VVD975&assignmentId=3Y9N9SS8LZX1U3H2TEAW6X70L3XD3U&a=899Y9&tp_a=899Y9&b=3Y9N9SS8LZX1U3H2TEAW6X70L3XD3U&tp_b=3Y9N9SS8LZX1U3H2TEAW6X70L3XD3U&c=365799&tp_c=365799","heads":19,"tails":1,"studentIndex":6,"studentTrueHypers":{"a":1,"b":4},"studentGuess":0.8,"delta":0,"totalExamples":20,"bonus":0.3,"bonusSoFar":1.1},{"rt":null,"stimulus":"Sending examples to student... ","response":null,"trial_type":"html-keyboard-response","trial_index":61,"time_elapsed":685712,"internal_node_id":"0.0-57.0","params":{"nStudents":24,"maxFlips":30,"completionMinutes":45,"basePay":8,"maxBonus":9,"perTrialBonus":0.5,"perTrialBonusThreshold":0.05,"exampleCost":0.01},"classroomParams":{"A":{"a":1,"b":4},"B":{"a":4,"b":1},"C":{"a":2,"b":8},"D":{"a":8,"b":2}},"conditions":["nonSeqFull","nonSeqPartial","seqNoFeedback","seqFeedback"],"classroomPairings":[["A","B"],["C","D"]],"coinWeights":[0.2,0.5,0.8],"subjectId":"A3UQ5DF8VVD975","assignmentId":"3Y9N9SS8LZX1U3H2TEAW6X70L3XD3U","hitId":"3AQN9REUTF20OMGWRXYK787QVFOYDP","url":"https://gershmanlab.com/experiments/alicia/teaching/experiment/?hitId=3AQN9REUTF20OMGWRXYK787QVFOYDP&workerId=A3UQ5DF8VVD975&assignmentId=3Y9N9SS8LZX1U3H2TEAW6X70L3XD3U&a=899Y9&tp_a=899Y9&b=3Y9N9SS8LZX1U3H2TEAW6X70L3XD3U&tp_b=3Y9N9SS8LZX1U3H2TEAW6X70L3XD3U&c=365799&tp_c=365799"},{"rt":null,"stimulus":"Examples sent to student! Waiting for student...","response":null,"trial_type":"html-keyboard-response","trial_index":62,"time_elapsed":690722,"internal_node_id":"0.0-58.0","params":{"nStudents":24,"maxFlips":30,"completionMinutes":45,"basePay":8,"maxBonus":9,"perTrialBonus":0.5,"perTrialBonusThreshold":0.05,"exampleCost":0.01},"classroomParams":{"A":{"a":1,"b":4},"B":{"a":4,"b":1},"C":{"a":2,"b":8},"D":{"a":8,"b":2}},"conditions":["nonSeqFull","nonSeqPartial","seqNoFeedback","seqFeedback"],"classroomPairings":[["A","B"],["C","D"]],"coinWeights":[0.2,0.5,0.8],"subjectId":"A3UQ5DF8VVD975","assignmentId":"3Y9N9SS8LZX1U3H2TEAW6X70L3XD3U","hitId":"3AQN9REUTF20OMGWRXYK787QVFOYDP","url":"https://gershmanlab.com/experiments/alicia/teaching/experiment/?hitId=3AQN9REUTF20OMGWRXYK787QVFOYDP&workerId=A3UQ5DF8VVD975&assignmentId=3Y9N9SS8LZX1U3H2TEAW6X70L3XD3U&a=899Y9&tp_a=899Y9&b=3Y9N9SS8LZX1U3H2TEAW6X70L3XD3U&tp_b=3Y9N9SS8LZX1U3H2TEAW6X70L3XD3U&c=365799&tp_c=365799"},{"rt":6456,"stimulus":"\n                <p>Student's guess for coin weight: <b style=\"color:Tomato;\">0.80</b></p>\n                <p>You received a bonus of <b>$0.3</b>. Total bonus so far: <b>$1.10</b></b></p>\n                <p></p>\n                <p>Press any key to continue.</p>\n                ","response":"s","trial_type":"html-keyboard-response","trial_index":63,"time_elapsed":697180,"internal_node_id":"0.0-59.0","params":{"nStudents":24,"maxFlips":30,"completionMinutes":45,"basePay":8,"maxBonus":9,"perTrialBonus":0.5,"perTrialBonusThreshold":0.05,"exampleCost":0.01},"classroomParams":{"A":{"a":1,"b":4},"B":{"a":4,"b":1},"C":{"a":2,"b":8},"D":{"a":8,"b":2}},"conditions":["nonSeqFull","nonSeqPartial","seqNoFeedback","seqFeedback"],"classroomPairings":[["A","B"],["C","D"]],"coinWeights":[0.2,0.5,0.8],"subjectId":"A3UQ5DF8VVD975","assignmentId":"3Y9N9SS8LZX1U3H2TEAW6X70L3XD3U","hitId":"3AQN9REUTF20OMGWRXYK787QVFOYDP","url":"https://gershmanlab.com/experiments/alicia/teaching/experiment/?hitId=3AQN9REUTF20OMGWRXYK787QVFOYDP&workerId=A3UQ5DF8VVD975&assignmentId=3Y9N9SS8LZX1U3H2TEAW6X70L3XD3U&a=899Y9&tp_a=899Y9&b=3Y9N9SS8LZX1U3H2TEAW6X70L3XD3U&tp_b=3Y9N9SS8LZX1U3H2TEAW6X70L3XD3U&c=365799&tp_c=365799"},{"rt":null,"stimulus":"<div style=\"font-size:60px;\">Next student</div>","response":null,"trial_type":"html-keyboard-response","trial_index":64,"time_elapsed":699439,"internal_node_id":"0.0-60.0-0.0","params":{"nStudents":24,"maxFlips":30,"completionMinutes":45,"basePay":8,"maxBonus":9,"perTrialBonus":0.5,"perTrialBonusThreshold":0.05,"exampleCost":0.01},"classroomParams":{"A":{"a":1,"b":4},"B":{"a":4,"b":1},"C":{"a":2,"b":8},"D":{"a":8,"b":2}},"conditions":["nonSeqFull","nonSeqPartial","seqNoFeedback","seqFeedback"],"classroomPairings":[["A","B"],["C","D"]],"coinWeights":[0.2,0.5,0.8],"subjectId":"A3UQ5DF8VVD975","assignmentId":"3Y9N9SS8LZX1U3H2TEAW6X70L3XD3U","hitId":"3AQN9REUTF20OMGWRXYK787QVFOYDP","url":"https://gershmanlab.com/experiments/alicia/teaching/experiment/?hitId=3AQN9REUTF20OMGWRXYK787QVFOYDP&workerId=A3UQ5DF8VVD975&assignmentId=3Y9N9SS8LZX1U3H2TEAW6X70L3XD3U&a=899Y9&tp_a=899Y9&b=3Y9N9SS8LZX1U3H2TEAW6X70L3XD3U&tp_b=3Y9N9SS8LZX1U3H2TEAW6X70L3XD3U&c=365799&tp_c=365799"},{"rt":3289,"stimulus":"\n            <h4 style=\"color:Orange;\">Student 8</h4>\n            <h2>The weight of your coin is <b style=\"color:Tomato;\">0.2</b>.</h2>\n            <p>In this block, you will be giving <b>one</b> set of examples to Student 8.</p>\n                <p>You will receive feedback at the end of the block.</p>\n            <p></p>","response":0,"trial_type":"html-button-response","trial_index":65,"time_elapsed":702730,"internal_node_id":"0.0-61.0","params":{"nStudents":24,"maxFlips":30,"completionMinutes":45,"basePay":8,"maxBonus":9,"perTrialBonus":0.5,"perTrialBonusThreshold":0.05,"exampleCost":0.01},"classroomParams":{"A":{"a":1,"b":4},"B":{"a":4,"b":1},"C":{"a":2,"b":8},"D":{"a":8,"b":2}},"conditions":["nonSeqFull","nonSeqPartial","seqNoFeedback","seqFeedback"],"classroomPairings":[["A","B"],["C","D"]],"coinWeights":[0.2,0.5,0.8],"subjectId":"A3UQ5DF8VVD975","assignmentId":"3Y9N9SS8LZX1U3H2TEAW6X70L3XD3U","hitId":"3AQN9REUTF20OMGWRXYK787QVFOYDP","url":"https://gershmanlab.com/experiments/alicia/teaching/experiment/?hitId=3AQN9REUTF20OMGWRXYK787QVFOYDP&workerId=A3UQ5DF8VVD975&assignmentId=3Y9N9SS8LZX1U3H2TEAW6X70L3XD3U&a=899Y9&tp_a=899Y9&b=3Y9N9SS8LZX1U3H2TEAW6X70L3XD3U&tp_b=3Y9N9SS8LZX1U3H2TEAW6X70L3XD3U&c=365799&tp_c=365799"},{"rt":10502,"response":{"heads":"1","tails":"4"},"type":"response","condition":"nonSeqFull","trueTheta":0.2,"classrooms":["A","B"],"studentTrueClassroom":"A","exampleSet":"first","trial_type":"survey-html-form","trial_index":66,"time_elapsed":713234,"internal_node_id":"0.0-62.0-0.0","params":{"nStudents":24,"maxFlips":30,"completionMinutes":45,"basePay":8,"maxBonus":9,"perTrialBonus":0.5,"perTrialBonusThreshold":0.05,"exampleCost":0.01},"classroomParams":{"A":{"a":1,"b":4},"B":{"a":4,"b":1},"C":{"a":2,"b":8},"D":{"a":8,"b":2}},"conditions":["nonSeqFull","nonSeqPartial","seqNoFeedback","seqFeedback"],"classroomPairings":[["A","B"],["C","D"]],"coinWeights":[0.2,0.5,0.8],"subjectId":"A3UQ5DF8VVD975","assignmentId":"3Y9N9SS8LZX1U3H2TEAW6X70L3XD3U","hitId":"3AQN9REUTF20OMGWRXYK787QVFOYDP","url":"https://gershmanlab.com/experiments/alicia/teaching/experiment/?hitId=3AQN9REUTF20OMGWRXYK787QVFOYDP&workerId=A3UQ5DF8VVD975&assignmentId=3Y9N9SS8LZX1U3H2TEAW6X70L3XD3U&a=899Y9&tp_a=899Y9&b=3Y9N9SS8LZX1U3H2TEAW6X70L3XD3U&tp_b=3Y9N9SS8LZX1U3H2TEAW6X70L3XD3U&c=365799&tp_c=365799","heads":1,"tails":4,"studentIndex":7,"studentTrueHypers":{"a":1,"b":4},"studentGuess":0.2,"delta":0,"totalExamples":5,"bonus":0.45,"bonusSoFar":1.55},{"rt":null,"stimulus":"Sending examples to student... ","response":null,"trial_type":"html-keyboard-response","trial_index":67,"time_elapsed":714750,"internal_node_id":"0.0-63.0","params":{"nStudents":24,"maxFlips":30,"completionMinutes":45,"basePay":8,"maxBonus":9,"perTrialBonus":0.5,"perTrialBonusThreshold":0.05,"exampleCost":0.01},"classroomParams":{"A":{"a":1,"b":4},"B":{"a":4,"b":1},"C":{"a":2,"b":8},"D":{"a":8,"b":2}},"conditions":["nonSeqFull","nonSeqPartial","seqNoFeedback","seqFeedback"],"classroomPairings":[["A","B"],["C","D"]],"coinWeights":[0.2,0.5,0.8],"subjectId":"A3UQ5DF8VVD975","assignmentId":"3Y9N9SS8LZX1U3H2TEAW6X70L3XD3U","hitId":"3AQN9REUTF20OMGWRXYK787QVFOYDP","url":"https://gershmanlab.com/experiments/alicia/teaching/experiment/?hitId=3AQN9REUTF20OMGWRXYK787QVFOYDP&workerId=A3UQ5DF8VVD975&assignmentId=3Y9N9SS8LZX1U3H2TEAW6X70L3XD3U&a=899Y9&tp_a=899Y9&b=3Y9N9SS8LZX1U3H2TEAW6X70L3XD3U&tp_b=3Y9N9SS8LZX1U3H2TEAW6X70L3XD3U&c=365799&tp_c=365799"},{"rt":null,"stimulus":"Examples sent to student! Waiting for student...","response":null,"trial_type":"html-keyboard-response","trial_index":68,"time_elapsed":718759,"internal_node_id":"0.0-64.0","params":{"nStudents":24,"maxFlips":30,"completionMinutes":45,"basePay":8,"maxBonus":9,"perTrialBonus":0.5,"perTrialBonusThreshold":0.05,"exampleCost":0.01},"classroomParams":{"A":{"a":1,"b":4},"B":{"a":4,"b":1},"C":{"a":2,"b":8},"D":{"a":8,"b":2}},"conditions":["nonSeqFull","nonSeqPartial","seqNoFeedback","seqFeedback"],"classroomPairings":[["A","B"],["C","D"]],"coinWeights":[0.2,0.5,0.8],"subjectId":"A3UQ5DF8VVD975","assignmentId":"3Y9N9SS8LZX1U3H2TEAW6X70L3XD3U","hitId":"3AQN9REUTF20OMGWRXYK787QVFOYDP","url":"https://gershmanlab.com/experiments/alicia/teaching/experiment/?hitId=3AQN9REUTF20OMGWRXYK787QVFOYDP&workerId=A3UQ5DF8VVD975&assignmentId=3Y9N9SS8LZX1U3H2TEAW6X70L3XD3U&a=899Y9&tp_a=899Y9&b=3Y9N9SS8LZX1U3H2TEAW6X70L3XD3U&tp_b=3Y9N9SS8LZX1U3H2TEAW6X70L3XD3U&c=365799&tp_c=365799"},{"rt":4347,"stimulus":"\n                <p>Student's guess for coin weight: <b style=\"color:Tomato;\">0.20</b></p>\n                <p>You received a bonus of <b>$0.45</b>. Total bonus so far: <b>$1.55</b></b></p>\n                <p></p>\n                <p>Press any key to continue.</p>\n                ","response":"o","trial_type":"html-keyboard-response","trial_index":69,"time_elapsed":723107,"internal_node_id":"0.0-65.0","params":{"nStudents":24,"maxFlips":30,"completionMinutes":45,"basePay":8,"maxBonus":9,"perTrialBonus":0.5,"perTrialBonusThreshold":0.05,"exampleCost":0.01},"classroomParams":{"A":{"a":1,"b":4},"B":{"a":4,"b":1},"C":{"a":2,"b":8},"D":{"a":8,"b":2}},"conditions":["nonSeqFull","nonSeqPartial","seqNoFeedback","seqFeedback"],"classroomPairings":[["A","B"],["C","D"]],"coinWeights":[0.2,0.5,0.8],"subjectId":"A3UQ5DF8VVD975","assignmentId":"3Y9N9SS8LZX1U3H2TEAW6X70L3XD3U","hitId":"3AQN9REUTF20OMGWRXYK787QVFOYDP","url":"https://gershmanlab.com/experiments/alicia/teaching/experiment/?hitId=3AQN9REUTF20OMGWRXYK787QVFOYDP&workerId=A3UQ5DF8VVD975&assignmentId=3Y9N9SS8LZX1U3H2TEAW6X70L3XD3U&a=899Y9&tp_a=899Y9&b=3Y9N9SS8LZX1U3H2TEAW6X70L3XD3U&tp_b=3Y9N9SS8LZX1U3H2TEAW6X70L3XD3U&c=365799&tp_c=365799"},{"rt":null,"stimulus":"<div style=\"font-size:60px;\">Next student</div>","response":null,"trial_type":"html-keyboard-response","trial_index":70,"time_elapsed":725117,"internal_node_id":"0.0-66.0-0.0","params":{"nStudents":24,"maxFlips":30,"completionMinutes":45,"basePay":8,"maxBonus":9,"perTrialBonus":0.5,"perTrialBonusThreshold":0.05,"exampleCost":0.01},"classroomParams":{"A":{"a":1,"b":4},"B":{"a":4,"b":1},"C":{"a":2,"b":8},"D":{"a":8,"b":2}},"conditions":["nonSeqFull","nonSeqPartial","seqNoFeedback","seqFeedback"],"classroomPairings":[["A","B"],["C","D"]],"coinWeights":[0.2,0.5,0.8],"subjectId":"A3UQ5DF8VVD975","assignmentId":"3Y9N9SS8LZX1U3H2TEAW6X70L3XD3U","hitId":"3AQN9REUTF20OMGWRXYK787QVFOYDP","url":"https://gershmanlab.com/experiments/alicia/teaching/experiment/?hitId=3AQN9REUTF20OMGWRXYK787QVFOYDP&workerId=A3UQ5DF8VVD975&assignmentId=3Y9N9SS8LZX1U3H2TEAW6X70L3XD3U&a=899Y9&tp_a=899Y9&b=3Y9N9SS8LZX1U3H2TEAW6X70L3XD3U&tp_b=3Y9N9SS8LZX1U3H2TEAW6X70L3XD3U&c=365799&tp_c=365799"},{"rt":5454,"stimulus":"\n            <h4 style=\"color:Orange;\">Student 9</h4>\n            <h2>The weight of your coin is <b style=\"color:Tomato;\">0.5</b>.</h2>\n            <p>In this block, you will be giving <b>two</b> sets of examples to Student 9.</p>\n                <p>You will see the student's guess after the first set of examples. You will also receive feedback at the end of the block.</p>\n            <p>To earn the highest bonus, you will have to <b>take into consideration the student's guess</b> when you choose your second set of examples.</p>","response":0,"trial_type":"html-button-response","trial_index":71,"time_elapsed":730574,"internal_node_id":"0.0-67.0","params":{"nStudents":24,"maxFlips":30,"completionMinutes":45,"basePay":8,"maxBonus":9,"perTrialBonus":0.5,"perTrialBonusThreshold":0.05,"exampleCost":0.01},"classroomParams":{"A":{"a":1,"b":4},"B":{"a":4,"b":1},"C":{"a":2,"b":8},"D":{"a":8,"b":2}},"conditions":["nonSeqFull","nonSeqPartial","seqNoFeedback","seqFeedback"],"classroomPairings":[["A","B"],["C","D"]],"coinWeights":[0.2,0.5,0.8],"subjectId":"A3UQ5DF8VVD975","assignmentId":"3Y9N9SS8LZX1U3H2TEAW6X70L3XD3U","hitId":"3AQN9REUTF20OMGWRXYK787QVFOYDP","url":"https://gershmanlab.com/experiments/alicia/teaching/experiment/?hitId=3AQN9REUTF20OMGWRXYK787QVFOYDP&workerId=A3UQ5DF8VVD975&assignmentId=3Y9N9SS8LZX1U3H2TEAW6X70L3XD3U&a=899Y9&tp_a=899Y9&b=3Y9N9SS8LZX1U3H2TEAW6X70L3XD3U&tp_b=3Y9N9SS8LZX1U3H2TEAW6X70L3XD3U&c=365799&tp_c=365799"},{"rt":18017,"response":{"heads":"5","tails":"5"},"type":"response","condition":"seqFeedback","trueTheta":0.5,"classrooms":["A","B"],"studentTrueClassroom":"B","exampleSet":"first","trial_type":"survey-html-form","trial_index":72,"time_elapsed":748593,"internal_node_id":"0.0-68.0-0.0","params":{"nStudents":24,"maxFlips":30,"completionMinutes":45,"basePay":8,"maxBonus":9,"perTrialBonus":0.5,"perTrialBonusThreshold":0.05,"exampleCost":0.01},"classroomParams":{"A":{"a":1,"b":4},"B":{"a":4,"b":1},"C":{"a":2,"b":8},"D":{"a":8,"b":2}},"conditions":["nonSeqFull","nonSeqPartial","seqNoFeedback","seqFeedback"],"classroomPairings":[["A","B"],["C","D"]],"coinWeights":[0.2,0.5,0.8],"subjectId":"A3UQ5DF8VVD975","assignmentId":"3Y9N9SS8LZX1U3H2TEAW6X70L3XD3U","hitId":"3AQN9REUTF20OMGWRXYK787QVFOYDP","url":"https://gershmanlab.com/experiments/alicia/teaching/experiment/?hitId=3AQN9REUTF20OMGWRXYK787QVFOYDP&workerId=A3UQ5DF8VVD975&assignmentId=3Y9N9SS8LZX1U3H2TEAW6X70L3XD3U&a=899Y9&tp_a=899Y9&b=3Y9N9SS8LZX1U3H2TEAW6X70L3XD3U&tp_b=3Y9N9SS8LZX1U3H2TEAW6X70L3XD3U&c=365799&tp_c=365799","heads":5,"tails":5,"studentIndex":8,"studentTrueHypers":{"a":4,"b":1},"studentGuess":0.6,"delta":0.09999999999999998,"totalExamples":10,"bonusSoFar":1.55},{"rt":null,"stimulus":"Sending examples to student... ","response":null,"trial_type":"html-keyboard-response","trial_index":73,"time_elapsed":750357,"internal_node_id":"0.0-69.0","params":{"nStudents":24,"maxFlips":30,"completionMinutes":45,"basePay":8,"maxBonus":9,"perTrialBonus":0.5,"perTrialBonusThreshold":0.05,"exampleCost":0.01},"classroomParams":{"A":{"a":1,"b":4},"B":{"a":4,"b":1},"C":{"a":2,"b":8},"D":{"a":8,"b":2}},"conditions":["nonSeqFull","nonSeqPartial","seqNoFeedback","seqFeedback"],"classroomPairings":[["A","B"],["C","D"]],"coinWeights":[0.2,0.5,0.8],"subjectId":"A3UQ5DF8VVD975","assignmentId":"3Y9N9SS8LZX1U3H2TEAW6X70L3XD3U","hitId":"3AQN9REUTF20OMGWRXYK787QVFOYDP","url":"https://gershmanlab.com/experiments/alicia/teaching/experiment/?hitId=3AQN9REUTF20OMGWRXYK787QVFOYDP&workerId=A3UQ5DF8VVD975&assignmentId=3Y9N9SS8LZX1U3H2TEAW6X70L3XD3U&a=899Y9&tp_a=899Y9&b=3Y9N9SS8LZX1U3H2TEAW6X70L3XD3U&tp_b=3Y9N9SS8LZX1U3H2TEAW6X70L3XD3U&c=365799&tp_c=365799"},{"rt":null,"stimulus":"Examples sent to student! Waiting for student...","response":null,"trial_type":"html-keyboard-response","trial_index":74,"time_elapsed":754367,"internal_node_id":"0.0-70.0","params":{"nStudents":24,"maxFlips":30,"completionMinutes":45,"basePay":8,"maxBonus":9,"perTrialBonus":0.5,"perTrialBonusThreshold":0.05,"exampleCost":0.01},"classroomParams":{"A":{"a":1,"b":4},"B":{"a":4,"b":1},"C":{"a":2,"b":8},"D":{"a":8,"b":2}},"conditions":["nonSeqFull","nonSeqPartial","seqNoFeedback","seqFeedback"],"classroomPairings":[["A","B"],["C","D"]],"coinWeights":[0.2,0.5,0.8],"subjectId":"A3UQ5DF8VVD975","assignmentId":"3Y9N9SS8LZX1U3H2TEAW6X70L3XD3U","hitId":"3AQN9REUTF20OMGWRXYK787QVFOYDP","url":"https://gershmanlab.com/experiments/alicia/teaching/experiment/?hitId=3AQN9REUTF20OMGWRXYK787QVFOYDP&workerId=A3UQ5DF8VVD975&assignmentId=3Y9N9SS8LZX1U3H2TEAW6X70L3XD3U&a=899Y9&tp_a=899Y9&b=3Y9N9SS8LZX1U3H2TEAW6X70L3XD3U&tp_b=3Y9N9SS8LZX1U3H2TEAW6X70L3XD3U&c=365799&tp_c=365799"},{"rt":7173,"stimulus":"\n                <p>Student's guess for coin weight: <b style=\"color:Tomato;\">0.60</b></p>\n                <p></b></p>\n                <p>You will now send another set of examples to your student. <b>Remember to take your student's guess into consideration so that you can earn the highest bonus possible!</b> </p>\n                <p>Press any key to continue.</p>\n                ","response":"g","trial_type":"html-keyboard-response","trial_index":75,"time_elapsed":761542,"internal_node_id":"0.0-71.0","params":{"nStudents":24,"maxFlips":30,"completionMinutes":45,"basePay":8,"maxBonus":9,"perTrialBonus":0.5,"perTrialBonusThreshold":0.05,"exampleCost":0.01},"classroomParams":{"A":{"a":1,"b":4},"B":{"a":4,"b":1},"C":{"a":2,"b":8},"D":{"a":8,"b":2}},"conditions":["nonSeqFull","nonSeqPartial","seqNoFeedback","seqFeedback"],"classroomPairings":[["A","B"],["C","D"]],"coinWeights":[0.2,0.5,0.8],"subjectId":"A3UQ5DF8VVD975","assignmentId":"3Y9N9SS8LZX1U3H2TEAW6X70L3XD3U","hitId":"3AQN9REUTF20OMGWRXYK787QVFOYDP","url":"https://gershmanlab.com/experiments/alicia/teaching/experiment/?hitId=3AQN9REUTF20OMGWRXYK787QVFOYDP&workerId=A3UQ5DF8VVD975&assignmentId=3Y9N9SS8LZX1U3H2TEAW6X70L3XD3U&a=899Y9&tp_a=899Y9&b=3Y9N9SS8LZX1U3H2TEAW6X70L3XD3U&tp_b=3Y9N9SS8LZX1U3H2TEAW6X70L3XD3U&c=365799&tp_c=365799"},{"rt":17906,"response":{"heads":"4","tails":"6"},"type":"response","condition":"seqFeedback","trueTheta":0.5,"classrooms":["A","B"],"studentTrueClassroom":"B","exampleSet":"second","trial_type":"survey-html-form","trial_index":76,"time_elapsed":779450,"internal_node_id":"0.0-72.0-0.0","params":{"nStudents":24,"maxFlips":30,"completionMinutes":45,"basePay":8,"maxBonus":9,"perTrialBonus":0.5,"perTrialBonusThreshold":0.05,"exampleCost":0.01},"classroomParams":{"A":{"a":1,"b":4},"B":{"a":4,"b":1},"C":{"a":2,"b":8},"D":{"a":8,"b":2}},"conditions":["nonSeqFull","nonSeqPartial","seqNoFeedback","seqFeedback"],"classroomPairings":[["A","B"],["C","D"]],"coinWeights":[0.2,0.5,0.8],"subjectId":"A3UQ5DF8VVD975","assignmentId":"3Y9N9SS8LZX1U3H2TEAW6X70L3XD3U","hitId":"3AQN9REUTF20OMGWRXYK787QVFOYDP","url":"https://gershmanlab.com/experiments/alicia/teaching/experiment/?hitId=3AQN9REUTF20OMGWRXYK787QVFOYDP&workerId=A3UQ5DF8VVD975&assignmentId=3Y9N9SS8LZX1U3H2TEAW6X70L3XD3U&a=899Y9&tp_a=899Y9&b=3Y9N9SS8LZX1U3H2TEAW6X70L3XD3U&tp_b=3Y9N9SS8LZX1U3H2TEAW6X70L3XD3U&c=365799&tp_c=365799","firstResponseHeads":5,"firstResponseTails":5,"secondResponseHeads":4,"secondResponseTails":6,"totalHeads":9,"totalTails":11,"studentIndex":8,"studentTrueHypers":{"a":4,"b":1},"studentGuess":0.52,"delta":0.020000000000000018,"bonus":0.3,"bonusSoFar":1.85,"totalExamples":20},{"rt":null,"stimulus":"Sending examples to student... ","response":null,"trial_type":"html-keyboard-response","trial_index":77,"time_elapsed":781203,"internal_node_id":"0.0-73.0","params":{"nStudents":24,"maxFlips":30,"completionMinutes":45,"basePay":8,"maxBonus":9,"perTrialBonus":0.5,"perTrialBonusThreshold":0.05,"exampleCost":0.01},"classroomParams":{"A":{"a":1,"b":4},"B":{"a":4,"b":1},"C":{"a":2,"b":8},"D":{"a":8,"b":2}},"conditions":["nonSeqFull","nonSeqPartial","seqNoFeedback","seqFeedback"],"classroomPairings":[["A","B"],["C","D"]],"coinWeights":[0.2,0.5,0.8],"subjectId":"A3UQ5DF8VVD975","assignmentId":"3Y9N9SS8LZX1U3H2TEAW6X70L3XD3U","hitId":"3AQN9REUTF20OMGWRXYK787QVFOYDP","url":"https://gershmanlab.com/experiments/alicia/teaching/experiment/?hitId=3AQN9REUTF20OMGWRXYK787QVFOYDP&workerId=A3UQ5DF8VVD975&assignmentId=3Y9N9SS8LZX1U3H2TEAW6X70L3XD3U&a=899Y9&tp_a=899Y9&b=3Y9N9SS8LZX1U3H2TEAW6X70L3XD3U&tp_b=3Y9N9SS8LZX1U3H2TEAW6X70L3XD3U&c=365799&tp_c=365799"},{"rt":null,"stimulus":"Examples sent to student! Waiting for student...","response":null,"trial_type":"html-keyboard-response","trial_index":78,"time_elapsed":785718,"internal_node_id":"0.0-74.0","params":{"nStudents":24,"maxFlips":30,"completionMinutes":45,"basePay":8,"maxBonus":9,"perTrialBonus":0.5,"perTrialBonusThreshold":0.05,"exampleCost":0.01},"classroomParams":{"A":{"a":1,"b":4},"B":{"a":4,"b":1},"C":{"a":2,"b":8},"D":{"a":8,"b":2}},"conditions":["nonSeqFull","nonSeqPartial","seqNoFeedback","seqFeedback"],"classroomPairings":[["A","B"],["C","D"]],"coinWeights":[0.2,0.5,0.8],"subjectId":"A3UQ5DF8VVD975","assignmentId":"3Y9N9SS8LZX1U3H2TEAW6X70L3XD3U","hitId":"3AQN9REUTF20OMGWRXYK787QVFOYDP","url":"https://gershmanlab.com/experiments/alicia/teaching/experiment/?hitId=3AQN9REUTF20OMGWRXYK787QVFOYDP&workerId=A3UQ5DF8VVD975&assignmentId=3Y9N9SS8LZX1U3H2TEAW6X70L3XD3U&a=899Y9&tp_a=899Y9&b=3Y9N9SS8LZX1U3H2TEAW6X70L3XD3U&tp_b=3Y9N9SS8LZX1U3H2TEAW6X70L3XD3U&c=365799&tp_c=365799"},{"rt":4537,"stimulus":"\n                <p>Student 9's first guess for coin weight: <b style=\"color:Tomato\";>0.60</b></p>\n                <p>Student 9's second guess for coin weight: <b style=\"color:Tomato\";>0.52</b></p>\n                <p>You received a bonus of <b>$0.30</b> based on the student's second guess.</p>\n                <p>Total bonus so far: <b>$1.85</b></p>\n                <p>Press any key to continue.</p>\n                ","response":"p","trial_type":"html-keyboard-response","trial_index":79,"time_elapsed":790257,"internal_node_id":"0.0-75.0","params":{"nStudents":24,"maxFlips":30,"completionMinutes":45,"basePay":8,"maxBonus":9,"perTrialBonus":0.5,"perTrialBonusThreshold":0.05,"exampleCost":0.01},"classroomParams":{"A":{"a":1,"b":4},"B":{"a":4,"b":1},"C":{"a":2,"b":8},"D":{"a":8,"b":2}},"conditions":["nonSeqFull","nonSeqPartial","seqNoFeedback","seqFeedback"],"classroomPairings":[["A","B"],["C","D"]],"coinWeights":[0.2,0.5,0.8],"subjectId":"A3UQ5DF8VVD975","assignmentId":"3Y9N9SS8LZX1U3H2TEAW6X70L3XD3U","hitId":"3AQN9REUTF20OMGWRXYK787QVFOYDP","url":"https://gershmanlab.com/experiments/alicia/teaching/experiment/?hitId=3AQN9REUTF20OMGWRXYK787QVFOYDP&workerId=A3UQ5DF8VVD975&assignmentId=3Y9N9SS8LZX1U3H2TEAW6X70L3XD3U&a=899Y9&tp_a=899Y9&b=3Y9N9SS8LZX1U3H2TEAW6X70L3XD3U&tp_b=3Y9N9SS8LZX1U3H2TEAW6X70L3XD3U&c=365799&tp_c=365799"},{"rt":null,"stimulus":"<div style=\"font-size:60px;\">Next student</div>","response":null,"trial_type":"html-keyboard-response","trial_index":80,"time_elapsed":792284,"internal_node_id":"0.0-76.0-0.0","params":{"nStudents":24,"maxFlips":30,"completionMinutes":45,"basePay":8,"maxBonus":9,"perTrialBonus":0.5,"perTrialBonusThreshold":0.05,"exampleCost":0.01},"classroomParams":{"A":{"a":1,"b":4},"B":{"a":4,"b":1},"C":{"a":2,"b":8},"D":{"a":8,"b":2}},"conditions":["nonSeqFull","nonSeqPartial","seqNoFeedback","seqFeedback"],"classroomPairings":[["A","B"],["C","D"]],"coinWeights":[0.2,0.5,0.8],"subjectId":"A3UQ5DF8VVD975","assignmentId":"3Y9N9SS8LZX1U3H2TEAW6X70L3XD3U","hitId":"3AQN9REUTF20OMGWRXYK787QVFOYDP","url":"https://gershmanlab.com/experiments/alicia/teaching/experiment/?hitId=3AQN9REUTF20OMGWRXYK787QVFOYDP&workerId=A3UQ5DF8VVD975&assignmentId=3Y9N9SS8LZX1U3H2TEAW6X70L3XD3U&a=899Y9&tp_a=899Y9&b=3Y9N9SS8LZX1U3H2TEAW6X70L3XD3U&tp_b=3Y9N9SS8LZX1U3H2TEAW6X70L3XD3U&c=365799&tp_c=365799"},{"rt":9086,"stimulus":"\n            <h4 style=\"color:Orange;\">Student 10</h4>\n            <h2>The weight of your coin is <b style=\"color:Tomato;\">0.2</b>.</h2>\n            <p>In this block, you will be giving <b>one</b> set of examples to Student 10.</p>\n                <p>You will receive feedback at the end of the block.</p>\n            <p></p>","response":0,"trial_type":"html-button-response","trial_index":81,"time_elapsed":801372,"internal_node_id":"0.0-77.0","params":{"nStudents":24,"maxFlips":30,"completionMinutes":45,"basePay":8,"maxBonus":9,"perTrialBonus":0.5,"perTrialBonusThreshold":0.05,"exampleCost":0.01},"classroomParams":{"A":{"a":1,"b":4},"B":{"a":4,"b":1},"C":{"a":2,"b":8},"D":{"a":8,"b":2}},"conditions":["nonSeqFull","nonSeqPartial","seqNoFeedback","seqFeedback"],"classroomPairings":[["A","B"],["C","D"]],"coinWeights":[0.2,0.5,0.8],"subjectId":"A3UQ5DF8VVD975","assignmentId":"3Y9N9SS8LZX1U3H2TEAW6X70L3XD3U","hitId":"3AQN9REUTF20OMGWRXYK787QVFOYDP","url":"https://gershmanlab.com/experiments/alicia/teaching/experiment/?hitId=3AQN9REUTF20OMGWRXYK787QVFOYDP&workerId=A3UQ5DF8VVD975&assignmentId=3Y9N9SS8LZX1U3H2TEAW6X70L3XD3U&a=899Y9&tp_a=899Y9&b=3Y9N9SS8LZX1U3H2TEAW6X70L3XD3U&tp_b=3Y9N9SS8LZX1U3H2TEAW6X70L3XD3U&c=365799&tp_c=365799"},{"rt":20445,"response":{"heads":"1","tails":"9"},"type":"response","condition":"nonSeqPartial","trueTheta":0.2,"classrooms":["C","D"],"studentTrueClassroom":"D","exampleSet":"first","trial_type":"survey-html-form","trial_index":82,"time_elapsed":821820,"internal_node_id":"0.0-78.0-0.0","params":{"nStudents":24,"maxFlips":30,"completionMinutes":45,"basePay":8,"maxBonus":9,"perTrialBonus":0.5,"perTrialBonusThreshold":0.05,"exampleCost":0.01},"classroomParams":{"A":{"a":1,"b":4},"B":{"a":4,"b":1},"C":{"a":2,"b":8},"D":{"a":8,"b":2}},"conditions":["nonSeqFull","nonSeqPartial","seqNoFeedback","seqFeedback"],"classroomPairings":[["A","B"],["C","D"]],"coinWeights":[0.2,0.5,0.8],"subjectId":"A3UQ5DF8VVD975","assignmentId":"3Y9N9SS8LZX1U3H2TEAW6X70L3XD3U","hitId":"3AQN9REUTF20OMGWRXYK787QVFOYDP","url":"https://gershmanlab.com/experiments/alicia/teaching/experiment/?hitId=3AQN9REUTF20OMGWRXYK787QVFOYDP&workerId=A3UQ5DF8VVD975&assignmentId=3Y9N9SS8LZX1U3H2TEAW6X70L3XD3U&a=899Y9&tp_a=899Y9&b=3Y9N9SS8LZX1U3H2TEAW6X70L3XD3U&tp_b=3Y9N9SS8LZX1U3H2TEAW6X70L3XD3U&c=365799&tp_c=365799","heads":1,"tails":9,"studentIndex":9,"studentTrueHypers":{"a":8,"b":2},"studentGuess":0.45,"delta":0.25,"totalExamples":10,"bonus":0,"bonusSoFar":1.85},{"rt":null,"stimulus":"Sending examples to student... ","response":null,"trial_type":"html-keyboard-response","trial_index":83,"time_elapsed":823334,"internal_node_id":"0.0-79.0","params":{"nStudents":24,"maxFlips":30,"completionMinutes":45,"basePay":8,"maxBonus":9,"perTrialBonus":0.5,"perTrialBonusThreshold":0.05,"exampleCost":0.01},"classroomParams":{"A":{"a":1,"b":4},"B":{"a":4,"b":1},"C":{"a":2,"b":8},"D":{"a":8,"b":2}},"conditions":["nonSeqFull","nonSeqPartial","seqNoFeedback","seqFeedback"],"classroomPairings":[["A","B"],["C","D"]],"coinWeights":[0.2,0.5,0.8],"subjectId":"A3UQ5DF8VVD975","assignmentId":"3Y9N9SS8LZX1U3H2TEAW6X70L3XD3U","hitId":"3AQN9REUTF20OMGWRXYK787QVFOYDP","url":"https://gershmanlab.com/experiments/alicia/teaching/experiment/?hitId=3AQN9REUTF20OMGWRXYK787QVFOYDP&workerId=A3UQ5DF8VVD975&assignmentId=3Y9N9SS8LZX1U3H2TEAW6X70L3XD3U&a=899Y9&tp_a=899Y9&b=3Y9N9SS8LZX1U3H2TEAW6X70L3XD3U&tp_b=3Y9N9SS8LZX1U3H2TEAW6X70L3XD3U&c=365799&tp_c=365799"},{"rt":null,"stimulus":"Examples sent to student! Waiting for student...","response":null,"trial_type":"html-keyboard-response","trial_index":84,"time_elapsed":827343,"internal_node_id":"0.0-80.0","params":{"nStudents":24,"maxFlips":30,"completionMinutes":45,"basePay":8,"maxBonus":9,"perTrialBonus":0.5,"perTrialBonusThreshold":0.05,"exampleCost":0.01},"classroomParams":{"A":{"a":1,"b":4},"B":{"a":4,"b":1},"C":{"a":2,"b":8},"D":{"a":8,"b":2}},"conditions":["nonSeqFull","nonSeqPartial","seqNoFeedback","seqFeedback"],"classroomPairings":[["A","B"],["C","D"]],"coinWeights":[0.2,0.5,0.8],"subjectId":"A3UQ5DF8VVD975","assignmentId":"3Y9N9SS8LZX1U3H2TEAW6X70L3XD3U","hitId":"3AQN9REUTF20OMGWRXYK787QVFOYDP","url":"https://gershmanlab.com/experiments/alicia/teaching/experiment/?hitId=3AQN9REUTF20OMGWRXYK787QVFOYDP&workerId=A3UQ5DF8VVD975&assignmentId=3Y9N9SS8LZX1U3H2TEAW6X70L3XD3U&a=899Y9&tp_a=899Y9&b=3Y9N9SS8LZX1U3H2TEAW6X70L3XD3U&tp_b=3Y9N9SS8LZX1U3H2TEAW6X70L3XD3U&c=365799&tp_c=365799"},{"rt":3502,"stimulus":"\n                <p>Student's guess for coin weight: <b style=\"color:Tomato;\">0.45</b></p>\n                <p>You received a bonus of <b>$0</b>. Total bonus so far: <b>$1.85</b></b></p>\n                <p></p>\n                <p>Press any key to continue.</p>\n                ","response":"d","trial_type":"html-keyboard-response","trial_index":85,"time_el