[{"rt":4060,"stimulus":"Welcome to the experiment. Press any key to begin.","response":" ","trial_type":"html-keyboard-response","trial_index":0,"time_elapsed":4104,"internal_node_id":"0.0-0.0","params":{"nStudents":24,"maxFlips":30,"completionMinutes":45,"basePay":8,"maxBonus":9,"perTrialBonus":0.5,"perTrialBonusThreshold":0.05,"exampleCost":0.01},"classroomParams":{"A":{"a":1,"b":4},"B":{"a":4,"b":1},"C":{"a":2,"b":8},"D":{"a":8,"b":2}},"conditions":["nonSeqFull","nonSeqPartial","seqNoFeedback","seqFeedback"],"classroomPairings":[["A","B"],["C","D"]],"coinWeights":[0.2,0.5,0.8],"subjectId":"ABW8U1U74P8MI","assignmentId":"3X0H8UUIT2A4NQ280OGN6T4XKYHSWN","hitId":"3ZG552ORAMQWHINBPXRJ4QCSG7OV2V","url":"https://gershmanlab.com/experiments/alicia/teaching/experiment/?hitId=3ZG552ORAMQWHINBPXRJ4QCSG7OV2V&workerId=ABW8U1U74P8MI&assignmentId=3X0H8UUIT2A4NQ280OGN6T4XKYHSWN&a=I80X7&tp_a=I80X7&b=3X0H8UUIT2A4NQ280OGN6T4XKYHSWN&tp_b=3X0H8UUIT2A4NQ280OGN6T4XKYHSWN&c=365717&tp_c=365717"},{"rt":4919,"stimulus":"\n        <h3>Please read this consent agreement carefully before deciding whether to participate in this experiment.</h3>\n        <p><b>Purpose of the research:</b> To examine how people teach effectively.</p>\n        <p><b>What you will do in this research:</b> You will teach students the weights of different coins.</p>\n        <p><b>Time required:</b> This experiment will take 45 minutes to complete.</p>\n        <p><b>Risks:</b> There are no anticipated risks associated with participating in this study.             The effects of participating should be comparable to those you would experience from viewing a computer monitor             and using a mouse and keyboard for the duration of the experiment.</p>\n        <p><b>Benefits:</b> The study provides important information about the nature of teaching.</p>\n        <p><b>Compensation:</b> You will receive <b>$8</b> for completing the experiment and a performance bonus of up to <b>$9</b>.</p>\n        <p><b>Confidentiality:</b> Your participation in this study will remain confidential.             No personally identifiable information will be associated with your data.             Your de-identified data may be shared with other researchers and used in future projects.</p>\n        <p><b>Participation and withdrawal:</b> Your participation in this study is completely voluntary and             you may refuse to participate or you may choose to withdraw at any time without penalty or loss of\n            benefits to which you are otherwise entitled.</p>\n        <p><b>How to contact the researcher:</b> If you have questions or concerns about your participation            or payment, or want to request a summary of research findings, please contact\n            Alicia Chen, aliciachen@college.harvard.edu.</p>\n        <p><b>Whom to contact about your rights in this research:</b> For questions, concerns, suggestions,             or complaints that have not been or cannot be addressed by the researcher, or to report             research-related harm, please contact the Committee on the Use of Human Subjects in Research at Harvard University,             1414 Massachusetts Avenue, Second Floor, Cambridge, MA 02138. Phone: 617-496-2847. Email: cuhs@fas.harvard.edu.</p>\n        ","response":0,"trial_type":"html-button-response","trial_index":1,"time_elapsed":9027,"internal_node_id":"0.0-1.0","params":{"nStudents":24,"maxFlips":30,"completionMinutes":45,"basePay":8,"maxBonus":9,"perTrialBonus":0.5,"perTrialBonusThreshold":0.05,"exampleCost":0.01},"classroomParams":{"A":{"a":1,"b":4},"B":{"a":4,"b":1},"C":{"a":2,"b":8},"D":{"a":8,"b":2}},"conditions":["nonSeqFull","nonSeqPartial","seqNoFeedback","seqFeedback"],"classroomPairings":[["A","B"],["C","D"]],"coinWeights":[0.2,0.5,0.8],"subjectId":"ABW8U1U74P8MI","assignmentId":"3X0H8UUIT2A4NQ280OGN6T4XKYHSWN","hitId":"3ZG552ORAMQWHINBPXRJ4QCSG7OV2V","url":"https://gershmanlab.com/experiments/alicia/teaching/experiment/?hitId=3ZG552ORAMQWHINBPXRJ4QCSG7OV2V&workerId=ABW8U1U74P8MI&assignmentId=3X0H8UUIT2A4NQ280OGN6T4XKYHSWN&a=I80X7&tp_a=I80X7&b=3X0H8UUIT2A4NQ280OGN6T4XKYHSWN&tp_b=3X0H8UUIT2A4NQ280OGN6T4XKYHSWN&c=365717&tp_c=365717"},{"view_history":[{"page_index":0,"viewing_time":5892},{"page_index":1,"viewing_time":5200},{"page_index":2,"viewing_time":511923},{"page_index":3,"viewing_time":24958},{"page_index":4,"viewing_time":18581},{"page_index":5,"viewing_time":17113},{"page_index":6,"viewing_time":83912}],"rt":667580,"trial_type":"instructions","trial_index":2,"time_elapsed":676609,"internal_node_id":"0.0-2.0-0.0","params":{"nStudents":24,"maxFlips":30,"completionMinutes":45,"basePay":8,"maxBonus":9,"perTrialBonus":0.5,"perTrialBonusThreshold":0.05,"exampleCost":0.01},"classroomParams":{"A":{"a":1,"b":4},"B":{"a":4,"b":1},"C":{"a":2,"b":8},"D":{"a":8,"b":2}},"conditions":["nonSeqFull","nonSeqPartial","seqNoFeedback","seqFeedback"],"classroomPairings":[["A","B"],["C","D"]],"coinWeights":[0.2,0.5,0.8],"subjectId":"ABW8U1U74P8MI","assignmentId":"3X0H8UUIT2A4NQ280OGN6T4XKYHSWN","hitId":"3ZG552ORAMQWHINBPXRJ4QCSG7OV2V","url":"https://gershmanlab.com/experiments/alicia/teaching/experiment/?hitId=3ZG552ORAMQWHINBPXRJ4QCSG7OV2V&workerId=ABW8U1U74P8MI&assignmentId=3X0H8UUIT2A4NQ280OGN6T4XKYHSWN&a=I80X7&tp_a=I80X7&b=3X0H8UUIT2A4NQ280OGN6T4XKYHSWN&tp_b=3X0H8UUIT2A4NQ280OGN6T4XKYHSWN&c=365717&tp_c=365717"},{"rt":101138,"response":{"Q0":"Students in different classrooms will have seen a different number of heads and tails before seeing the examples you select for them.","Q1":"By <b>considering the student's classroom information</b> so that I can teach efficiently and accurately/helpfully at the same time (because each example I give to the student costs money!).","Q2":"The coin lands heads 90% of the time.","Q3":"No, I will teach a <b>new</b> student each time.","Q4":"The students are all on planet Earth, where they tend to believe the vast majority of coins will be fair.","Q5":"Based on both guesses."},"question_order":[5,0,3,1,2,4],"trial_type":"survey-multi-choice","trial_index":3,"time_elapsed":777756,"internal_node_id":"0.0-2.0-1.0","params":{"nStudents":24,"maxFlips":30,"completionMinutes":45,"basePay":8,"maxBonus":9,"perTrialBonus":0.5,"perTrialBonusThreshold":0.05,"exampleCost":0.01},"classroomParams":{"A":{"a":1,"b":4},"B":{"a":4,"b":1},"C":{"a":2,"b":8},"D":{"a":8,"b":2}},"conditions":["nonSeqFull","nonSeqPartial","seqNoFeedback","seqFeedback"],"classroomPairings":[["A","B"],["C","D"]],"coinWeights":[0.2,0.5,0.8],"subjectId":"ABW8U1U74P8MI","assignmentId":"3X0H8UUIT2A4NQ280OGN6T4XKYHSWN","hitId":"3ZG552ORAMQWHINBPXRJ4QCSG7OV2V","url":"https://gershmanlab.com/experiments/alicia/teaching/experiment/?hitId=3ZG552ORAMQWHINBPXRJ4QCSG7OV2V&workerId=ABW8U1U74P8MI&assignmentId=3X0H8UUIT2A4NQ280OGN6T4XKYHSWN&a=I80X7&tp_a=I80X7&b=3X0H8UUIT2A4NQ280OGN6T4XKYHSWN&tp_b=3X0H8UUIT2A4NQ280OGN6T4XKYHSWN&c=365717&tp_c=365717","pass":false},{"rt":3869,"stimulus":"Oops, you have missed question(s) on the comprehension check! We'll show you the instructions again.","response":0,"trial_type":"html-button-response","trial_index":4,"time_elapsed":781646,"internal_node_id":"0.0-2.0-2.0-0.0","params":{"nStudents":24,"maxFlips":30,"completionMinutes":45,"basePay":8,"maxBonus":9,"perTrialBonus":0.5,"perTrialBonusThreshold":0.05,"exampleCost":0.01},"classroomParams":{"A":{"a":1,"b":4},"B":{"a":4,"b":1},"C":{"a":2,"b":8},"D":{"a":8,"b":2}},"conditions":["nonSeqFull","nonSeqPartial","seqNoFeedback","seqFeedback"],"classroomPairings":[["A","B"],["C","D"]],"coinWeights":[0.2,0.5,0.8],"subjectId":"ABW8U1U74P8MI","assignmentId":"3X0H8UUIT2A4NQ280OGN6T4XKYHSWN","hitId":"3ZG552ORAMQWHINBPXRJ4QCSG7OV2V","url":"https://gershmanlab.com/experiments/alicia/teaching/experiment/?hitId=3ZG552ORAMQWHINBPXRJ4QCSG7OV2V&workerId=ABW8U1U74P8MI&assignmentId=3X0H8UUIT2A4NQ280OGN6T4XKYHSWN&a=I80X7&tp_a=I80X7&b=3X0H8UUIT2A4NQ280OGN6T4XKYHSWN&tp_b=3X0H8UUIT2A4NQ280OGN6T4XKYHSWN&c=365717&tp_c=365717"},{"view_history":[{"page_index":0,"viewing_time":2983},{"page_index":1,"viewing_time":3794},{"page_index":2,"viewing_time":20639},{"page_index":3,"viewing_time":1677},{"page_index":2,"viewing_time":3255},{"page_index":3,"viewing_time":8999},{"page_index":4,"viewing_time":18777},{"page_index":5,"viewing_time":33979},{"page_index":6,"viewing_time":5877}],"rt":99981,"trial_type":"instructions","trial_index":5,"time_elapsed":881629,"internal_node_id":"0.0-2.1-0.1","params":{"nStudents":24,"maxFlips":30,"completionMinutes":45,"basePay":8,"maxBonus":9,"perTrialBonus":0.5,"perTrialBonusThreshold":0.05,"exampleCost":0.01},"classroomParams":{"A":{"a":1,"b":4},"B":{"a":4,"b":1},"C":{"a":2,"b":8},"D":{"a":8,"b":2}},"conditions":["nonSeqFull","nonSeqPartial","seqNoFeedback","seqFeedback"],"classroomPairings":[["A","B"],["C","D"]],"coinWeights":[0.2,0.5,0.8],"subjectId":"ABW8U1U74P8MI","assignmentId":"3X0H8UUIT2A4NQ280OGN6T4XKYHSWN","hitId":"3ZG552ORAMQWHINBPXRJ4QCSG7OV2V","url":"https://gershmanlab.com/experiments/alicia/teaching/experiment/?hitId=3ZG552ORAMQWHINBPXRJ4QCSG7OV2V&workerId=ABW8U1U74P8MI&assignmentId=3X0H8UUIT2A4NQ280OGN6T4XKYHSWN&a=I80X7&tp_a=I80X7&b=3X0H8UUIT2A4NQ280OGN6T4XKYHSWN&tp_b=3X0H8UUIT2A4NQ280OGN6T4XKYHSWN&c=365717&tp_c=365717"},{"rt":63091,"response":{"Q0":"Students in different classrooms have seen a different proportion of fair and unfair coins before seeing the examples you select for them.","Q1":"By <b>considering the student's classroom information</b> so that I can teach efficiently and accurately/helpfully at the same time (because each example I give to the student costs money!).","Q2":"The coin lands heads 90% of the time.","Q3":"No, I will teach a <b>new</b> student each time.","Q4":"The students are also on the same alien planet as you, where coins can be unfair.","Q5":"Based on the student's second (and final) guess."},"question_order":[1,2,3,0,4,5],"trial_type":"survey-multi-choice","trial_index":6,"time_elapsed":944726,"internal_node_id":"0.0-2.1-1.1","params":{"nStudents":24,"maxFlips":30,"completionMinutes":45,"basePay":8,"maxBonus":9,"perTrialBonus":0.5,"perTrialBonusThreshold":0.05,"exampleCost":0.01},"classroomParams":{"A":{"a":1,"b":4},"B":{"a":4,"b":1},"C":{"a":2,"b":8},"D":{"a":8,"b":2}},"conditions":["nonSeqFull","nonSeqPartial","seqNoFeedback","seqFeedback"],"classroomPairings":[["A","B"],["C","D"]],"coinWeights":[0.2,0.5,0.8],"subjectId":"ABW8U1U74P8MI","assignmentId":"3X0H8UUIT2A4NQ280OGN6T4XKYHSWN","hitId":"3ZG552ORAMQWHINBPXRJ4QCSG7OV2V","url":"https://gershmanlab.com/experiments/alicia/teaching/experiment/?hitId=3ZG552ORAMQWHINBPXRJ4QCSG7OV2V&workerId=ABW8U1U74P8MI&assignmentId=3X0H8UUIT2A4NQ280OGN6T4XKYHSWN&a=I80X7&tp_a=I80X7&b=3X0H8UUIT2A4NQ280OGN6T4XKYHSWN&tp_b=3X0H8UUIT2A4NQ280OGN6T4XKYHSWN&c=365717&tp_c=365717","pass":false},{"rt":2795,"stimulus":"Oops, you have missed question(s) on the comprehension check! We'll show you the instructions again.","response":0,"trial_type":"html-button-response","trial_index":7,"time_elapsed":947539,"internal_node_id":"0.0-2.1-2.1-0.1","params":{"nStudents":24,"maxFlips":30,"completionMinutes":45,"basePay":8,"maxBonus":9,"perTrialBonus":0.5,"perTrialBonusThreshold":0.05,"exampleCost":0.01},"classroomParams":{"A":{"a":1,"b":4},"B":{"a":4,"b":1},"C":{"a":2,"b":8},"D":{"a":8,"b":2}},"conditions":["nonSeqFull","nonSeqPartial","seqNoFeedback","seqFeedback"],"classroomPairings":[["A","B"],["C","D"]],"coinWeights":[0.2,0.5,0.8],"subjectId":"ABW8U1U74P8MI","assignmentId":"3X0H8UUIT2A4NQ280OGN6T4XKYHSWN","hitId":"3ZG552ORAMQWHINBPXRJ4QCSG7OV2V","url":"https://gershmanlab.com/experiments/alicia/teaching/experiment/?hitId=3ZG552ORAMQWHINBPXRJ4QCSG7OV2V&workerId=ABW8U1U74P8MI&assignmentId=3X0H8UUIT2A4NQ280OGN6T4XKYHSWN&a=I80X7&tp_a=I80X7&b=3X0H8UUIT2A4NQ280OGN6T4XKYHSWN&tp_b=3X0H8UUIT2A4NQ280OGN6T4XKYHSWN&c=365717&tp_c=365717"},{"view_history":[{"page_index":0,"viewing_time":2163},{"page_index":1,"viewing_time":3133},{"page_index":2,"viewing_time":7195},{"page_index":3,"viewing_time":15458},{"page_index":4,"viewing_time":19571},{"page_index":5,"viewing_time":13304},{"page_index":6,"viewing_time":10034}],"rt":70861,"trial_type":"instructions","trial_index":8,"time_elapsed":1018402,"internal_node_id":"0.0-2.2-0.2","params":{"nStudents":24,"maxFlips":30,"completionMinutes":45,"basePay":8,"maxBonus":9,"perTrialBonus":0.5,"perTrialBonusThreshold":0.05,"exampleCost":0.01},"classroomParams":{"A":{"a":1,"b":4},"B":{"a":4,"b":1},"C":{"a":2,"b":8},"D":{"a":8,"b":2}},"conditions":["nonSeqFull","nonSeqPartial","seqNoFeedback","seqFeedback"],"classroomPairings":[["A","B"],["C","D"]],"coinWeights":[0.2,0.5,0.8],"subjectId":"ABW8U1U74P8MI","assignmentId":"3X0H8UUIT2A4NQ280OGN6T4XKYHSWN","hitId":"3ZG552ORAMQWHINBPXRJ4QCSG7OV2V","url":"https://gershmanlab.com/experiments/alicia/teaching/experiment/?hitId=3ZG552ORAMQWHINBPXRJ4QCSG7OV2V&workerId=ABW8U1U74P8MI&assignmentId=3X0H8UUIT2A4NQ280OGN6T4XKYHSWN&a=I80X7&tp_a=I80X7&b=3X0H8UUIT2A4NQ280OGN6T4XKYHSWN&tp_b=3X0H8UUIT2A4NQ280OGN6T4XKYHSWN&c=365717&tp_c=365717"},{"rt":40018,"response":{"Q0":"Students in different classrooms will have seen a different number of heads and tails before seeing the examples you select for them.","Q1":"By <b>considering the student's classroom information</b> so that I can teach efficiently and accurately/helpfully at the same time (because each example I give to the student costs money!).","Q2":"The coin lands heads 90% of the time.","Q3":"Yes, I might encounter the same student twice.","Q4":"The students are also on the same alien planet as you, where coins can be unfair.","Q5":"Based on the student's second (and final) guess."},"question_order":[0,1,2,4,3,5],"trial_type":"survey-multi-choice","trial_index":9,"time_elapsed":1058424,"internal_node_id":"0.0-2.2-1.2","params":{"nStudents":24,"maxFlips":30,"completionMinutes":45,"basePay":8,"maxBonus":9,"perTrialBonus":0.5,"perTrialBonusThreshold":0.05,"exampleCost":0.01},"classroomParams":{"A":{"a":1,"b":4},"B":{"a":4,"b":1},"C":{"a":2,"b":8},"D":{"a":8,"b":2}},"conditions":["nonSeqFull","nonSeqPartial","seqNoFeedback","seqFeedback"],"classroomPairings":[["A","B"],["C","D"]],"coinWeights":[0.2,0.5,0.8],"subjectId":"ABW8U1U74P8MI","assignmentId":"3X0H8UUIT2A4NQ280OGN6T4XKYHSWN","hitId":"3ZG552ORAMQWHINBPXRJ4QCSG7OV2V","url":"https://gershmanlab.com/experiments/alicia/teaching/experiment/?hitId=3ZG552ORAMQWHINBPXRJ4QCSG7OV2V&workerId=ABW8U1U74P8MI&assignmentId=3X0H8UUIT2A4NQ280OGN6T4XKYHSWN&a=I80X7&tp_a=I80X7&b=3X0H8UUIT2A4NQ280OGN6T4XKYHSWN&tp_b=3X0H8UUIT2A4NQ280OGN6T4XKYHSWN&c=365717&tp_c=365717","pass":false},{"rt":1668,"stimulus":"Oops, you have missed question(s) on the comprehension check! We'll show you the instructions again.","response":0,"trial_type":"html-button-response","trial_index":10,"time_elapsed":1060111,"internal_node_id":"0.0-2.2-2.2-0.2","params":{"nStudents":24,"maxFlips":30,"completionMinutes":45,"basePay":8,"maxBonus":9,"perTrialBonus":0.5,"perTrialBonusThreshold":0.05,"exampleCost":0.01},"classroomParams":{"A":{"a":1,"b":4},"B":{"a":4,"b":1},"C":{"a":2,"b":8},"D":{"a":8,"b":2}},"conditions":["nonSeqFull","nonSeqPartial","seqNoFeedback","seqFeedback"],"classroomPairings":[["A","B"],["C","D"]],"coinWeights":[0.2,0.5,0.8],"subjectId":"ABW8U1U74P8MI","assignmentId":"3X0H8UUIT2A4NQ280OGN6T4XKYHSWN","hitId":"3ZG552ORAMQWHINBPXRJ4QCSG7OV2V","url":"https://gershmanlab.com/experiments/alicia/teaching/experiment/?hitId=3ZG552ORAMQWHINBPXRJ4QCSG7OV2V&workerId=ABW8U1U74P8MI&assignmentId=3X0H8UUIT2A4NQ280OGN6T4XKYHSWN&a=I80X7&tp_a=I80X7&b=3X0H8UUIT2A4NQ280OGN6T4XKYHSWN&tp_b=3X0H8UUIT2A4NQ280OGN6T4XKYHSWN&c=365717&tp_c=365717"},{"view_history":[{"page_index":0,"viewing_time":2285},{"page_index":1,"viewing_time":1983},{"page_index":2,"viewing_time":1678},{"page_index":3,"viewing_time":869},{"page_index":4,"viewing_time":1187},{"page_index":5,"viewing_time":1860},{"page_index":6,"viewing_time":6978}],"rt":16840,"trial_type":"instructions","trial_index":11,"time_elapsed":1076952,"internal_node_id":"0.0-2.3-0.3","params":{"nStudents":24,"maxFlips":30,"completionMinutes":45,"basePay":8,"maxBonus":9,"perTrialBonus":0.5,"perTrialBonusThreshold":0.05,"exampleCost":0.01},"classroomParams":{"A":{"a":1,"b":4},"B":{"a":4,"b":1},"C":{"a":2,"b":8},"D":{"a":8,"b":2}},"conditions":["nonSeqFull","nonSeqPartial","seqNoFeedback","seqFeedback"],"classroomPairings":[["A","B"],["C","D"]],"coinWeights":[0.2,0.5,0.8],"subjectId":"ABW8U1U74P8MI","assignmentId":"3X0H8UUIT2A4NQ280OGN6T4XKYHSWN","hitId":"3ZG552ORAMQWHINBPXRJ4QCSG7OV2V","url":"https://gershmanlab.com/experiments/alicia/teaching/experiment/?hitId=3ZG552ORAMQWHINBPXRJ4QCSG7OV2V&workerId=ABW8U1U74P8MI&assignmentId=3X0H8UUIT2A4NQ280OGN6T4XKYHSWN&a=I80X7&tp_a=I80X7&b=3X0H8UUIT2A4NQ280OGN6T4XKYHSWN&tp_b=3X0H8UUIT2A4NQ280OGN6T4XKYHSWN&c=365717&tp_c=365717"},{"rt":23498,"response":{"Q0":"Students in different classrooms have seen a different proportion of fair and unfair coins before seeing the examples you select for them.","Q1":"By <b>considering the student's classroom information</b> so that I can teach efficiently and accurately/helpfully at the same time (because each example I give to the student costs money!).","Q2":"The coin lands heads 90% of the time.","Q3":"Yes, I might encounter the same student twice.","Q4":"The students are also on the same alien planet as you, where coins can be unfair.","Q5":"Based on the student's second (and final) guess."},"question_order":[5,2,0,1,4,3],"trial_type":"survey-multi-choice","trial_index":12,"time_elapsed":1100454,"internal_node_id":"0.0-2.3-1.3","params":{"nStudents":24,"maxFlips":30,"completionMinutes":45,"basePay":8,"maxBonus":9,"perTrialBonus":0.5,"perTrialBonusThreshold":0.05,"exampleCost":0.01},"classroomParams":{"A":{"a":1,"b":4},"B":{"a":4,"b":1},"C":{"a":2,"b":8},"D":{"a":8,"b":2}},"conditions":["nonSeqFull","nonSeqPartial","seqNoFeedback","seqFeedback"],"classroomPairings":[["A","B"],["C","D"]],"coinWeights":[0.2,0.5,0.8],"subjectId":"ABW8U1U74P8MI","assignmentId":"3X0H8UUIT2A4NQ280OGN6T4XKYHSWN","hitId":"3ZG552ORAMQWHINBPXRJ4QCSG7OV2V","url":"https://gershmanlab.com/experiments/alicia/teaching/experiment/?hitId=3ZG552ORAMQWHINBPXRJ4QCSG7OV2V&workerId=ABW8U1U74P8MI&assignmentId=3X0H8UUIT2A4NQ280OGN6T4XKYHSWN&a=I80X7&tp_a=I80X7&b=3X0H8UUIT2A4NQ280OGN6T4XKYHSWN&tp_b=3X0H8UUIT2A4NQ280OGN6T4XKYHSWN&c=365717&tp_c=365717","pass":false},{"rt":1840,"stimulus":"Oops, you have missed question(s) on the comprehension check! We'll show you the instructions again.","response":0,"trial_type":"html-button-response","trial_index":13,"time_elapsed":1102313,"internal_node_id":"0.0-2.3-2.3-0.3","params":{"nStudents":24,"maxFlips":30,"completionMinutes":45,"basePay":8,"maxBonus":9,"perTrialBonus":0.5,"perTrialBonusThreshold":0.05,"exampleCost":0.01},"classroomParams":{"A":{"a":1,"b":4},"B":{"a":4,"b":1},"C":{"a":2,"b":8},"D":{"a":8,"b":2}},"conditions":["nonSeqFull","nonSeqPartial","seqNoFeedback","seqFeedback"],"classroomPairings":[["A","B"],["C","D"]],"coinWeights":[0.2,0.5,0.8],"subjectId":"ABW8U1U74P8MI","assignmentId":"3X0H8UUIT2A4NQ280OGN6T4XKYHSWN","hitId":"3ZG552ORAMQWHINBPXRJ4QCSG7OV2V","url":"https://gershmanlab.com/experiments/alicia/teaching/experiment/?hitId=3ZG552ORAMQWHINBPXRJ4QCSG7OV2V&workerId=ABW8U1U74P8MI&assignmentId=3X0H8UUIT2A4NQ280OGN6T4XKYHSWN&a=I80X7&tp_a=I80X7&b=3X0H8UUIT2A4NQ280OGN6T4XKYHSWN&tp_b=3X0H8UUIT2A4NQ280OGN6T4XKYHSWN&c=365717&tp_c=365717"},{"view_history":[{"page_index":0,"viewing_time":2421},{"page_index":1,"viewing_time":1041},{"page_index":2,"viewing_time":12704},{"page_index":3,"viewing_time":11726},{"page_index":4,"viewing_time":18871},{"page_index":5,"viewing_time":8420},{"page_index":6,"viewing_time":2718}],"rt":57901,"trial_type":"instructions","trial_index":14,"time_elapsed":1160215,"internal_node_id":"0.0-2.4-0.4","params":{"nStudents":24,"maxFlips":30,"completionMinutes":45,"basePay":8,"maxBonus":9,"perTrialBonus":0.5,"perTrialBonusThreshold":0.05,"exampleCost":0.01},"classroomParams":{"A":{"a":1,"b":4},"B":{"a":4,"b":1},"C":{"a":2,"b":8},"D":{"a":8,"b":2}},"conditions":["nonSeqFull","nonSeqPartial","seqNoFeedback","seqFeedback"],"classroomPairings":[["A","B"],["C","D"]],"coinWeights":[0.2,0.5,0.8],"subjectId":"ABW8U1U74P8MI","assignmentId":"3X0H8UUIT2A4NQ280OGN6T4XKYHSWN","hitId":"3ZG552ORAMQWHINBPXRJ4QCSG7OV2V","url":"https://gershmanlab.com/experiments/alicia/teaching/experiment/?hitId=3ZG552ORAMQWHINBPXRJ4QCSG7OV2V&workerId=ABW8U1U74P8MI&assignmentId=3X0H8UUIT2A4NQ280OGN6T4XKYHSWN&a=I80X7&tp_a=I80X7&b=3X0H8UUIT2A4NQ280OGN6T4XKYHSWN&tp_b=3X0H8UUIT2A4NQ280OGN6T4XKYHSWN&c=365717&tp_c=365717"},{"rt":55331,"response":{"Q0":"Students in different classrooms will have seen a different number of heads and tails before seeing the examples you select for them.","Q1":"By <b>considering the student's classroom information</b> so that I can teach efficiently and accurately/helpfully at the same time (because each example I give to the student costs money!).","Q2":"The coin lands heads 90% of the time.","Q3":"No, I will teach a <b>new</b> student each time.","Q4":"The students are also on the same alien planet as you, where coins can be unfair.","Q5":"Based on the student's second (and final) guess."},"question_order":[4,2,0,3,5,1],"trial_type":"survey-multi-choice","trial_index":15,"time_elapsed":1215551,"internal_node_id":"0.0-2.4-1.4","params":{"nStudents":24,"maxFlips":30,"completionMinutes":45,"basePay":8,"maxBonus":9,"perTrialBonus":0.5,"perTrialBonusThreshold":0.05,"exampleCost":0.01},"classroomParams":{"A":{"a":1,"b":4},"B":{"a":4,"b":1},"C":{"a":2,"b":8},"D":{"a":8,"b":2}},"conditions":["nonSeqFull","nonSeqPartial","seqNoFeedback","seqFeedback"],"classroomPairings":[["A","B"],["C","D"]],"coinWeights":[0.2,0.5,0.8],"subjectId":"ABW8U1U74P8MI","assignmentId":"3X0H8UUIT2A4NQ280OGN6T4XKYHSWN","hitId":"3ZG552ORAMQWHINBPXRJ4QCSG7OV2V","url":"https://gershmanlab.com/experiments/alicia/teaching/experiment/?hitId=3ZG552ORAMQWHINBPXRJ4QCSG7OV2V&workerId=ABW8U1U74P8MI&assignmentId=3X0H8UUIT2A4NQ280OGN6T4XKYHSWN&a=I80X7&tp_a=I80X7&b=3X0H8UUIT2A4NQ280OGN6T4XKYHSWN&tp_b=3X0H8UUIT2A4NQ280OGN6T4XKYHSWN&c=365717&tp_c=365717","pass":true},{"rt":null,"stimulus":"<div style=\"font-size:30px;\">Congrats on passing the comprehension quiz! The experiment will begin in a few seconds.</div>","response":null,"trial_type":"html-keyboard-response","trial_index":16,"time_elapsed":1218577,"internal_node_id":"0.0-3.0","params":{"nStudents":24,"maxFlips":30,"completionMinutes":45,"basePay":8,"maxBonus":9,"perTrialBonus":0.5,"perTrialBonusThreshold":0.05,"exampleCost":0.01},"classroomParams":{"A":{"a":1,"b":4},"B":{"a":4,"b":1},"C":{"a":2,"b":8},"D":{"a":8,"b":2}},"conditions":["nonSeqFull","nonSeqPartial","seqNoFeedback","seqFeedback"],"classroomPairings":[["A","B"],["C","D"]],"coinWeights":[0.2,0.5,0.8],"subjectId":"ABW8U1U74P8MI","assignmentId":"3X0H8UUIT2A4NQ280OGN6T4XKYHSWN","hitId":"3ZG552ORAMQWHINBPXRJ4QCSG7OV2V","url":"https://gershmanlab.com/experiments/alicia/teaching/experiment/?hitId=3ZG552ORAMQWHINBPXRJ4QCSG7OV2V&workerId=ABW8U1U74P8MI&assignmentId=3X0H8UUIT2A4NQ280OGN6T4XKYHSWN&a=I80X7&tp_a=I80X7&b=3X0H8UUIT2A4NQ280OGN6T4XKYHSWN&tp_b=3X0H8UUIT2A4NQ280OGN6T4XKYHSWN&c=365717&tp_c=365717"},{"rt":null,"stimulus":"<div style=\"font-size:50px;\">First student</div>","response":null,"trial_type":"html-keyboard-response","trial_index":17,"time_elapsed":1221581,"internal_node_id":"0.0-4.0","params":{"nStudents":24,"maxFlips":30,"completionMinutes":45,"basePay":8,"maxBonus":9,"perTrialBonus":0.5,"perTrialBonusThreshold":0.05,"exampleCost":0.01},"classroomParams":{"A":{"a":1,"b":4},"B":{"a":4,"b":1},"C":{"a":2,"b":8},"D":{"a":8,"b":2}},"conditions":["nonSeqFull","nonSeqPartial","seqNoFeedback","seqFeedback"],"classroomPairings":[["A","B"],["C","D"]],"coinWeights":[0.2,0.5,0.8],"subjectId":"ABW8U1U74P8MI","assignmentId":"3X0H8UUIT2A4NQ280OGN6T4XKYHSWN","hitId":"3ZG552ORAMQWHINBPXRJ4QCSG7OV2V","url":"https://gershmanlab.com/experiments/alicia/teaching/experiment/?hitId=3ZG552ORAMQWHINBPXRJ4QCSG7OV2V&workerId=ABW8U1U74P8MI&assignmentId=3X0H8UUIT2A4NQ280OGN6T4XKYHSWN&a=I80X7&tp_a=I80X7&b=3X0H8UUIT2A4NQ280OGN6T4XKYHSWN&tp_b=3X0H8UUIT2A4NQ280OGN6T4XKYHSWN&c=365717&tp_c=365717"},{"rt":14001,"stimulus":"\n            <h4 style=\"color:Orange;\">Student 1</h4>\n            <h2>The weight of your coin is <b style=\"color:Tomato;\">0.8</b>.</h2>\n            <p>In this block, you will be giving <b>two</b> sets of examples to Student 1.</p>\n                <p>You will receive feedback at the end of the block.</p>\n            <p></p>","response":0,"trial_type":"html-button-response","trial_index":18,"time_elapsed":1235585,"internal_node_id":"0.0-5.0","params":{"nStudents":24,"maxFlips":30,"completionMinutes":45,"basePay":8,"maxBonus":9,"perTrialBonus":0.5,"perTrialBonusThreshold":0.05,"exampleCost":0.01},"classroomParams":{"A":{"a":1,"b":4},"B":{"a":4,"b":1},"C":{"a":2,"b":8},"D":{"a":8,"b":2}},"conditions":["nonSeqFull","nonSeqPartial","seqNoFeedback","seqFeedback"],"classroomPairings":[["A","B"],["C","D"]],"coinWeights":[0.2,0.5,0.8],"subjectId":"ABW8U1U74P8MI","assignmentId":"3X0H8UUIT2A4NQ280OGN6T4XKYHSWN","hitId":"3ZG552ORAMQWHINBPXRJ4QCSG7OV2V","url":"https://gershmanlab.com/experiments/alicia/teaching/experiment/?hitId=3ZG552ORAMQWHINBPXRJ4QCSG7OV2V&workerId=ABW8U1U74P8MI&assignmentId=3X0H8UUIT2A4NQ280OGN6T4XKYHSWN&a=I80X7&tp_a=I80X7&b=3X0H8UUIT2A4NQ280OGN6T4XKYHSWN&tp_b=3X0H8UUIT2A4NQ280OGN6T4XKYHSWN&c=365717&tp_c=365717"},{"rt":58819,"response":{"heads":"3","tails":"3"},"type":"response","condition":"seqNoFeedback","trueTheta":0.8,"classrooms":["A","B"],"studentTrueClassroom":"A","exampleSet":"first","trial_type":"survey-html-form","trial_index":19,"time_elapsed":1294408,"internal_node_id":"0.0-6.0-0.0","params":{"nStudents":24,"maxFlips":30,"completionMinutes":45,"basePay":8,"maxBonus":9,"perTrialBonus":0.5,"perTrialBonusThreshold":0.05,"exampleCost":0.01},"classroomParams":{"A":{"a":1,"b":4},"B":{"a":4,"b":1},"C":{"a":2,"b":8},"D":{"a":8,"b":2}},"conditions":["nonSeqFull","nonSeqPartial","seqNoFeedback","seqFeedback"],"classroomPairings":[["A","B"],["C","D"]],"coinWeights":[0.2,0.5,0.8],"subjectId":"ABW8U1U74P8MI","assignmentId":"3X0H8UUIT2A4NQ280OGN6T4XKYHSWN","hitId":"3ZG552ORAMQWHINBPXRJ4QCSG7OV2V","url":"https://gershmanlab.com/experiments/alicia/teaching/experiment/?hitId=3ZG552ORAMQWHINBPXRJ4QCSG7OV2V&workerId=ABW8U1U74P8MI&assignmentId=3X0H8UUIT2A4NQ280OGN6T4XKYHSWN&a=I80X7&tp_a=I80X7&b=3X0H8UUIT2A4NQ280OGN6T4XKYHSWN&tp_b=3X0H8UUIT2A4NQ280OGN6T4XKYHSWN&c=365717&tp_c=365717","heads":3,"tails":3,"studentIndex":0,"studentTrueHypers":{"a":1,"b":4},"studentGuess":0.36363636363636365,"delta":0.4363636363636364,"totalExamples":6,"bonusSoFar":0},{"rt":null,"stimulus":"Sending examples to student... ","response":null,"trial_type":"html-keyboard-response","trial_index":20,"time_elapsed":1296426,"internal_node_id":"0.0-7.0","params":{"nStudents":24,"maxFlips":30,"completionMinutes":45,"basePay":8,"maxBonus":9,"perTrialBonus":0.5,"perTrialBonusThreshold":0.05,"exampleCost":0.01},"classroomParams":{"A":{"a":1,"b":4},"B":{"a":4,"b":1},"C":{"a":2,"b":8},"D":{"a":8,"b":2}},"conditions":["nonSeqFull","nonSeqPartial","seqNoFeedback","seqFeedback"],"classroomPairings":[["A","B"],["C","D"]],"coinWeights":[0.2,0.5,0.8],"subjectId":"ABW8U1U74P8MI","assignmentId":"3X0H8UUIT2A4NQ280OGN6T4XKYHSWN","hitId":"3ZG552ORAMQWHINBPXRJ4QCSG7OV2V","url":"https://gershmanlab.com/experiments/alicia/teaching/experiment/?hitId=3ZG552ORAMQWHINBPXRJ4QCSG7OV2V&workerId=ABW8U1U74P8MI&assignmentId=3X0H8UUIT2A4NQ280OGN6T4XKYHSWN&a=I80X7&tp_a=I80X7&b=3X0H8UUIT2A4NQ280OGN6T4XKYHSWN&tp_b=3X0H8UUIT2A4NQ280OGN6T4XKYHSWN&c=365717&tp_c=365717"},{"rt":null,"stimulus":"Examples sent to student! Waiting for student...","response":null,"trial_type":"html-keyboard-response","trial_index":21,"time_elapsed":1300432,"internal_node_id":"0.0-8.0","params":{"nStudents":24,"maxFlips":30,"completionMinutes":45,"basePay":8,"maxBonus":9,"perTrialBonus":0.5,"perTrialBonusThreshold":0.05,"exampleCost":0.01},"classroomParams":{"A":{"a":1,"b":4},"B":{"a":4,"b":1},"C":{"a":2,"b":8},"D":{"a":8,"b":2}},"conditions":["nonSeqFull","nonSeqPartial","seqNoFeedback","seqFeedback"],"classroomPairings":[["A","B"],["C","D"]],"coinWeights":[0.2,0.5,0.8],"subjectId":"ABW8U1U74P8MI","assignmentId":"3X0H8UUIT2A4NQ280OGN6T4XKYHSWN","hitId":"3ZG552ORAMQWHINBPXRJ4QCSG7OV2V","url":"https://gershmanlab.com/experiments/alicia/teaching/experiment/?hitId=3ZG552ORAMQWHINBPXRJ4QCSG7OV2V&workerId=ABW8U1U74P8MI&assignmentId=3X0H8UUIT2A4NQ280OGN6T4XKYHSWN&a=I80X7&tp_a=I80X7&b=3X0H8UUIT2A4NQ280OGN6T4XKYHSWN&tp_b=3X0H8UUIT2A4NQ280OGN6T4XKYHSWN&c=365717&tp_c=365717"},{"rt":18863,"response":{"heads":"3","tails":"3"},"type":"response","condition":"seqNoFeedback","trueTheta":0.8,"classrooms":["A","B"],"studentTrueClassroom":"A","exampleSet":"second","trial_type":"survey-html-form","trial_index":22,"time_elapsed":1319298,"internal_node_id":"0.0-9.0-0.0","params":{"nStudents":24,"maxFlips":30,"completionMinutes":45,"basePay":8,"maxBonus":9,"perTrialBonus":0.5,"perTrialBonusThreshold":0.05,"exampleCost":0.01},"classroomParams":{"A":{"a":1,"b":4},"B":{"a":4,"b":1},"C":{"a":2,"b":8},"D":{"a":8,"b":2}},"conditions":["nonSeqFull","nonSeqPartial","seqNoFeedback","seqFeedback"],"classroomPairings":[["A","B"],["C","D"]],"coinWeights":[0.2,0.5,0.8],"subjectId":"ABW8U1U74P8MI","assignmentId":"3X0H8UUIT2A4NQ280OGN6T4XKYHSWN","hitId":"3ZG552ORAMQWHINBPXRJ4QCSG7OV2V","url":"https://gershmanlab.com/experiments/alicia/teaching/experiment/?hitId=3ZG552ORAMQWHINBPXRJ4QCSG7OV2V&workerId=ABW8U1U74P8MI&assignmentId=3X0H8UUIT2A4NQ280OGN6T4XKYHSWN&a=I80X7&tp_a=I80X7&b=3X0H8UUIT2A4NQ280OGN6T4XKYHSWN&tp_b=3X0H8UUIT2A4NQ280OGN6T4XKYHSWN&c=365717&tp_c=365717","firstResponseHeads":3,"firstResponseTails":3,"secondResponseHeads":3,"secondResponseTails":3,"totalHeads":6,"totalTails":6,"studentIndex":0,"studentTrueHypers":{"a":1,"b":4},"studentGuess":0.4117647058823529,"delta":0.3882352941176471,"bonus":0,"bonusSoFar":0,"totalExamples":12},{"rt":null,"stimulus":"Sending examples to student... ","response":null,"trial_type":"html-keyboard-response","trial_index":23,"time_elapsed":1321060,"internal_node_id":"0.0-10.0","params":{"nStudents":24,"maxFlips":30,"completionMinutes":45,"basePay":8,"maxBonus":9,"perTrialBonus":0.5,"perTrialBonusThreshold":0.05,"exampleCost":0.01},"classroomParams":{"A":{"a":1,"b":4},"B":{"a":4,"b":1},"C":{"a":2,"b":8},"D":{"a":8,"b":2}},"conditions":["nonSeqFull","nonSeqPartial","seqNoFeedback","seqFeedback"],"classroomPairings":[["A","B"],["C","D"]],"coinWeights":[0.2,0.5,0.8],"subjectId":"ABW8U1U74P8MI","assignmentId":"3X0H8UUIT2A4NQ280OGN6T4XKYHSWN","hitId":"3ZG552ORAMQWHINBPXRJ4QCSG7OV2V","url":"https://gershmanlab.com/experiments/alicia/teaching/experiment/?hitId=3ZG552ORAMQWHINBPXRJ4QCSG7OV2V&workerId=ABW8U1U74P8MI&assignmentId=3X0H8UUIT2A4NQ280OGN6T4XKYHSWN&a=I80X7&tp_a=I80X7&b=3X0H8UUIT2A4NQ280OGN6T4XKYHSWN&tp_b=3X0H8UUIT2A4NQ280OGN6T4XKYHSWN&c=365717&tp_c=365717"},{"rt":null,"stimulus":"Examples sent to student! Waiting for student...","response":null,"trial_type":"html-keyboard-response","trial_index":24,"time_elapsed":1325074,"internal_node_id":"0.0-11.0","params":{"nStudents":24,"maxFlips":30,"completionMinutes":45,"basePay":8,"maxBonus":9,"perTrialBonus":0.5,"perTrialBonusThreshold":0.05,"exampleCost":0.01},"classroomParams":{"A":{"a":1,"b":4},"B":{"a":4,"b":1},"C":{"a":2,"b":8},"D":{"a":8,"b":2}},"conditions":["nonSeqFull","nonSeqPartial","seqNoFeedback","seqFeedback"],"classroomPairings":[["A","B"],["C","D"]],"coinWeights":[0.2,0.5,0.8],"subjectId":"ABW8U1U74P8MI","assignmentId":"3X0H8UUIT2A4NQ280OGN6T4XKYHSWN","hitId":"3ZG552ORAMQWHINBPXRJ4QCSG7OV2V","url":"https://gershmanlab.com/experiments/alicia/teaching/experiment/?hitId=3ZG552ORAMQWHINBPXRJ4QCSG7OV2V&workerId=ABW8U1U74P8MI&assignmentId=3X0H8UUIT2A4NQ280OGN6T4XKYHSWN&a=I80X7&tp_a=I80X7&b=3X0H8UUIT2A4NQ280OGN6T4XKYHSWN&tp_b=3X0H8UUIT2A4NQ280OGN6T4XKYHSWN&c=365717&tp_c=365717"},{"rt":8853,"stimulus":"\n                <p>Student 1's first guess for coin weight: <b style=\"color:Tomato\";>0.36</b></p>\n                <p>Student 1's second guess for coin weight: <b style=\"color:Tomato\";>0.41</b></p>\n                <p>You received a bonus of <b>$0.00</b> based on the student's second guess.</p>\n                <p>Total bonus so far: <b>$0.00</b></p>\n                <p>Press any key to continue.</p>\n                ","response":" ","trial_type":"html-keyboard-response","trial_index":25,"time_elapsed":1333931,"internal_node_id":"0.0-12.0","params":{"nStudents":24,"maxFlips":30,"completionMinutes":45,"basePay":8,"maxBonus":9,"perTrialBonus":0.5,"perTrialBonusThreshold":0.05,"exampleCost":0.01},"classroomParams":{"A":{"a":1,"b":4},"B":{"a":4,"b":1},"C":{"a":2,"b":8},"D":{"a":8,"b":2}},"conditions":["nonSeqFull","nonSeqPartial","seqNoFeedback","seqFeedback"],"classroomPairings":[["A","B"],["C","D"]],"coinWeights":[0.2,0.5,0.8],"subjectId":"ABW8U1U74P8MI","assignmentId":"3X0H8UUIT2A4NQ280OGN6T4XKYHSWN","hitId":"3ZG552ORAMQWHINBPXRJ4QCSG7OV2V","url":"https://gershmanlab.com/experiments/alicia/teaching/experiment/?hitId=3ZG552ORAMQWHINBPXRJ4QCSG7OV2V&workerId=ABW8U1U74P8MI&assignmentId=3X0H8UUIT2A4NQ280OGN6T4XKYHSWN&a=I80X7&tp_a=I80X7&b=3X0H8UUIT2A4NQ280OGN6T4XKYHSWN&tp_b=3X0H8UUIT2A4NQ280OGN6T4XKYHSWN&c=365717&tp_c=365717"},{"rt":null,"stimulus":"<div style=\"font-size:60px;\">Next student</div>","response":null,"trial_type":"html-keyboard-response","trial_index":26,"time_elapsed":1336438,"internal_node_id":"0.0-13.0-0.0","params":{"nStudents":24,"maxFlips":30,"completionMinutes":45,"basePay":8,"maxBonus":9,"perTrialBonus":0.5,"perTrialBonusThreshold":0.05,"exampleCost":0.01},"classroomParams":{"A":{"a":1,"b":4},"B":{"a":4,"b":1},"C":{"a":2,"b":8},"D":{"a":8,"b":2}},"conditions":["nonSeqFull","nonSeqPartial","seqNoFeedback","seqFeedback"],"classroomPairings":[["A","B"],["C","D"]],"coinWeights":[0.2,0.5,0.8],"subjectId":"ABW8U1U74P8MI","assignmentId":"3X0H8UUIT2A4NQ280OGN6T4XKYHSWN","hitId":"3ZG552ORAMQWHINBPXRJ4QCSG7OV2V","url":"https://gershmanlab.com/experiments/alicia/teaching/experiment/?hitId=3ZG552ORAMQWHINBPXRJ4QCSG7OV2V&workerId=ABW8U1U74P8MI&assignmentId=3X0H8UUIT2A4NQ280OGN6T4XKYHSWN&a=I80X7&tp_a=I80X7&b=3X0H8UUIT2A4NQ280OGN6T4XKYHSWN&tp_b=3X0H8UUIT2A4NQ280OGN6T4XKYHSWN&c=365717&tp_c=365717"},{"rt":6853,"stimulus":"\n            <h4 style=\"color:Orange;\">Student 2</h4>\n            <h2>The weight of your coin is <b style=\"color:Tomato;\">0.5</b>.</h2>\n            <p>In this block, you will be giving <b>two</b> sets of examples to Student 2.</p>\n                <p>You will receive feedback at the end of the block.</p>\n            <p></p>","response":0,"trial_type":"html-button-response","trial_index":27,"time_elapsed":1343295,"internal_node_id":"0.0-14.0","params":{"nStudents":24,"maxFlips":30,"completionMinutes":45,"basePay":8,"maxBonus":9,"perTrialBonus":0.5,"perTrialBonusThreshold":0.05,"exampleCost":0.01},"classroomParams":{"A":{"a":1,"b":4},"B":{"a":4,"b":1},"C":{"a":2,"b":8},"D":{"a":8,"b":2}},"conditions":["nonSeqFull","nonSeqPartial","seqNoFeedback","seqFeedback"],"classroomPairings":[["A","B"],["C","D"]],"coinWeights":[0.2,0.5,0.8],"subjectId":"ABW8U1U74P8MI","assignmentId":"3X0H8UUIT2A4NQ280OGN6T4XKYHSWN","hitId":"3ZG552ORAMQWHINBPXRJ4QCSG7OV2V","url":"https://gershmanlab.com/experiments/alicia/teaching/experiment/?hitId=3ZG552ORAMQWHINBPXRJ4QCSG7OV2V&workerId=ABW8U1U74P8MI&assignmentId=3X0H8UUIT2A4NQ280OGN6T4XKYHSWN&a=I80X7&tp_a=I80X7&b=3X0H8UUIT2A4NQ280OGN6T4XKYHSWN&tp_b=3X0H8UUIT2A4NQ280OGN6T4XKYHSWN&c=365717&tp_c=365717"},{"rt":8611,"response":{"heads":"0","tails":"0"},"type":"response","condition":"seqNoFeedback","trueTheta":0.5,"classrooms":["A","B"],"studentTrueClassroom":"B","exampleSet":"first","trial_type":"survey-html-form","trial_index":28,"time_elapsed":1351909,"internal_node_id":"0.0-15.0-0.0","params":{"nStudents":24,"maxFlips":30,"completionMinutes":45,"basePay":8,"maxBonus":9,"perTrialBonus":0.5,"perTrialBonusThreshold":0.05,"exampleCost":0.01},"classroomParams":{"A":{"a":1,"b":4},"B":{"a":4,"b":1},"C":{"a":2,"b":8},"D":{"a":8,"b":2}},"conditions":["nonSeqFull","nonSeqPartial","seqNoFeedback","seqFeedback"],"classroomPairings":[["A","B"],["C","D"]],"coinWeights":[0.2,0.5,0.8],"subjectId":"ABW8U1U74P8MI","assignmentId":"3X0H8UUIT2A4NQ280OGN6T4XKYHSWN","hitId":"3ZG552ORAMQWHINBPXRJ4QCSG7OV2V","url":"https://gershmanlab.com/experiments/alicia/teaching/experiment/?hitId=3ZG552ORAMQWHINBPXRJ4QCSG7OV2V&workerId=ABW8U1U74P8MI&assignmentId=3X0H8UUIT2A4NQ280OGN6T4XKYHSWN&a=I80X7&tp_a=I80X7&b=3X0H8UUIT2A4NQ280OGN6T4XKYHSWN&tp_b=3X0H8UUIT2A4NQ280OGN6T4XKYHSWN&c=365717&tp_c=365717","heads":0,"tails":0,"studentIndex":1,"studentTrueHypers":{"a":4,"b":1},"studentGuess":0.8,"delta":0.30000000000000004,"totalExamples":0,"bonusSoFar":0},{"rt":8966,"response":{"heads":"4","tails":"0"},"type":"response","condition":"seqNoFeedback","trueTheta":0.5,"classrooms":["A","B"],"studentTrueClassroom":"B","exampleSet":"first","trial_type":"survey-html-form","trial_index":29,"time_elapsed":1360878,"internal_node_id":"0.0-15.1-0.1","params":{"nStudents":24,"maxFlips":30,"completionMinutes":45,"basePay":8,"maxBonus":9,"perTrialBonus":0.5,"perTrialBonusThreshold":0.05,"exampleCost":0.01},"classroomParams":{"A":{"a":1,"b":4},"B":{"a":4,"b":1},"C":{"a":2,"b":8},"D":{"a":8,"b":2}},"conditions":["nonSeqFull","nonSeqPartial","seqNoFeedback","seqFeedback"],"classroomPairings":[["A","B"],["C","D"]],"coinWeights":[0.2,0.5,0.8],"subjectId":"ABW8U1U74P8MI","assignmentId":"3X0H8UUIT2A4NQ280OGN6T4XKYHSWN","hitId":"3ZG552ORAMQWHINBPXRJ4QCSG7OV2V","url":"https://gershmanlab.com/experiments/alicia/teaching/experiment/?hitId=3ZG552ORAMQWHINBPXRJ4QCSG7OV2V&workerId=ABW8U1U74P8MI&assignmentId=3X0H8UUIT2A4NQ280OGN6T4XKYHSWN&a=I80X7&tp_a=I80X7&b=3X0H8UUIT2A4NQ280OGN6T4XKYHSWN&tp_b=3X0H8UUIT2A4NQ280OGN6T4XKYHSWN&c=365717&tp_c=365717","heads":4,"tails":0,"studentIndex":1,"studentTrueHypers":{"a":4,"b":1},"studentGuess":0.8888888888888888,"delta":0.38888888888888884,"totalExamples":4,"bonusSoFar":0},{"rt":null,"stimulus":"Sending examples to student... ","response":null,"trial_type":"html-keyboard-response","trial_index":30,"time_elapsed":1362895,"internal_node_id":"0.0-16.0","params":{"nStudents":24,"maxFlips":30,"completionMinutes":45,"basePay":8,"maxBonus":9,"perTrialBonus":0.5,"perTrialBonusThreshold":0.05,"exampleCost":0.01},"classroomParams":{"A":{"a":1,"b":4},"B":{"a":4,"b":1},"C":{"a":2,"b":8},"D":{"a":8,"b":2}},"conditions":["nonSeqFull","nonSeqPartial","seqNoFeedback","seqFeedback"],"classroomPairings":[["A","B"],["C","D"]],"coinWeights":[0.2,0.5,0.8],"subjectId":"ABW8U1U74P8MI","assignmentId":"3X0H8UUIT2A4NQ280OGN6T4XKYHSWN","hitId":"3ZG552ORAMQWHINBPXRJ4QCSG7OV2V","url":"https://gershmanlab.com/experiments/alicia/teaching/experiment/?hitId=3ZG552ORAMQWHINBPXRJ4QCSG7OV2V&workerId=ABW8U1U74P8MI&assignmentId=3X0H8UUIT2A4NQ280OGN6T4XKYHSWN&a=I80X7&tp_a=I80X7&b=3X0H8UUIT2A4NQ280OGN6T4XKYHSWN&tp_b=3X0H8UUIT2A4NQ280OGN6T4XKYHSWN&c=365717&tp_c=365717"},{"rt":null,"stimulus":"Examples sent to student! Waiting for student...","response":null,"trial_type":"html-keyboard-response","trial_index":31,"time_elapsed":1367901,"internal_node_id":"0.0-17.0","params":{"nStudents":24,"maxFlips":30,"completionMinutes":45,"basePay":8,"maxBonus":9,"perTrialBonus":0.5,"perTrialBonusThreshold":0.05,"exampleCost":0.01},"classroomParams":{"A":{"a":1,"b":4},"B":{"a":4,"b":1},"C":{"a":2,"b":8},"D":{"a":8,"b":2}},"conditions":["nonSeqFull","nonSeqPartial","seqNoFeedback","seqFeedback"],"classroomPairings":[["A","B"],["C","D"]],"coinWeights":[0.2,0.5,0.8],"subjectId":"ABW8U1U74P8MI","assignmentId":"3X0H8UUIT2A4NQ280OGN6T4XKYHSWN","hitId":"3ZG552ORAMQWHINBPXRJ4QCSG7OV2V","url":"https://gershmanlab.com/experiments/alicia/teaching/experiment/?hitId=3ZG552ORAMQWHINBPXRJ4QCSG7OV2V&workerId=ABW8U1U74P8MI&assignmentId=3X0H8UUIT2A4NQ280OGN6T4XKYHSWN&a=I80X7&tp_a=I80X7&b=3X0H8UUIT2A4NQ280OGN6T4XKYHSWN&tp_b=3X0H8UUIT2A4NQ280OGN6T4XKYHSWN&c=365717&tp_c=365717"},{"rt":5064,"response":{"heads":"0","tails":"4"},"type":"response","condition":"seqNoFeedback","trueTheta":0.5,"classrooms":["A","B"],"studentTrueClassroom":"B","exampleSet":"second","trial_type":"survey-html-form","trial_index":32,"time_elapsed":1372967,"internal_node_id":"0.0-18.0-0.0","params":{"nStudents":24,"maxFlips":30,"completionMinutes":45,"basePay":8,"maxBonus":9,"perTrialBonus":0.5,"perTrialBonusThreshold":0.05,"exampleCost":0.01},"classroomParams":{"A":{"a":1,"b":4},"B":{"a":4,"b":1},"C":{"a":2,"b":8},"D":{"a":8,"b":2}},"conditions":["nonSeqFull","nonSeqPartial","seqNoFeedback","seqFeedback"],"classroomPairings":[["A","B"],["C","D"]],"coinWeights":[0.2,0.5,0.8],"subjectId":"ABW8U1U74P8MI","assignmentId":"3X0H8UUIT2A4NQ280OGN6T4XKYHSWN","hitId":"3ZG552ORAMQWHINBPXRJ4QCSG7OV2V","url":"https://gershmanlab.com/experiments/alicia/teaching/experiment/?hitId=3ZG552ORAMQWHINBPXRJ4QCSG7OV2V&workerId=ABW8U1U74P8MI&assignmentId=3X0H8UUIT2A4NQ280OGN6T4XKYHSWN&a=I80X7&tp_a=I80X7&b=3X0H8UUIT2A4NQ280OGN6T4XKYHSWN&tp_b=3X0H8UUIT2A4NQ280OGN6T4XKYHSWN&c=365717&tp_c=365717","firstResponseHeads":0,"firstResponseTails":0,"secondResponseHeads":0,"secondResponseTails":4,"totalHeads":0,"totalTails":4,"studentIndex":1,"studentTrueHypers":{"a":4,"b":1},"studentGuess":0.4444444444444444,"delta":0.05555555555555558,"bonus":0,"bonusSoFar":0,"totalExamples":4},{"rt":null,"stimulus":"Sending examples to student... ","response":null,"trial_type":"html-keyboard-response","trial_index":33,"time_elapsed":1374226,"internal_node_id":"0.0-19.0","params":{"nStudents":24,"maxFlips":30,"completionMinutes":45,"basePay":8,"maxBonus":9,"perTrialBonus":0.5,"perTrialBonusThreshold":0.05,"exampleCost":0.01},"classroomParams":{"A":{"a":1,"b":4},"B":{"a":4,"b":1},"C":{"a":2,"b":8},"D":{"a":8,"b":2}},"conditions":["nonSeqFull","nonSeqPartial","seqNoFeedback","seqFeedback"],"classroomPairings":[["A","B"],["C","D"]],"coinWeights":[0.2,0.5,0.8],"subjectId":"ABW8U1U74P8MI","assignmentId":"3X0H8UUIT2A4NQ280OGN6T4XKYHSWN","hitId":"3ZG552ORAMQWHINBPXRJ4QCSG7OV2V","url":"https://gershmanlab.com/experiments/alicia/teaching/experiment/?hitId=3ZG552ORAMQWHINBPXRJ4QCSG7OV2V&workerId=ABW8U1U74P8MI&assignmentId=3X0H8UUIT2A4NQ280OGN6T4XKYHSWN&a=I80X7&tp_a=I80X7&b=3X0H8UUIT2A4NQ280OGN6T4XKYHSWN&tp_b=3X0H8UUIT2A4NQ280OGN6T4XKYHSWN&c=365717&tp_c=365717"},{"rt":null,"stimulus":"Examples sent to student! Waiting for student...","response":null,"trial_type":"html-keyboard-response","trial_index":34,"time_elapsed":1378228,"internal_node_id":"0.0-20.0","params":{"nStudents":24,"maxFlips":30,"completionMinutes":45,"basePay":8,"maxBonus":9,"perTrialBonus":0.5,"perTrialBonusThreshold":0.05,"exampleCost":0.01},"classroomParams":{"A":{"a":1,"b":4},"B":{"a":4,"b":1},"C":{"a":2,"b":8},"D":{"a":8,"b":2}},"conditions":["nonSeqFull","nonSeqPartial","seqNoFeedback","seqFeedback"],"classroomPairings":[["A","B"],["C","D"]],"coinWeights":[0.2,0.5,0.8],"subjectId":"ABW8U1U74P8MI","assignmentId":"3X0H8UUIT2A4NQ280OGN6T4XKYHSWN","hitId":"3ZG552ORAMQWHINBPXRJ4QCSG7OV2V","url":"https://gershmanlab.com/experiments/alicia/teaching/experiment/?hitId=3ZG552ORAMQWHINBPXRJ4QCSG7OV2V&workerId=ABW8U1U74P8MI&assignmentId=3X0H8UUIT2A4NQ280OGN6T4XKYHSWN&a=I80X7&tp_a=I80X7&b=3X0H8UUIT2A4NQ280OGN6T4XKYHSWN&tp_b=3X0H8UUIT2A4NQ280OGN6T4XKYHSWN&c=365717&tp_c=365717"},{"rt":12852,"stimulus":"\n                <p>Student 2's first guess for coin weight: <b style=\"color:Tomato\";>0.80</b></p>\n                <p>Student 2's second guess for coin weight: <b style=\"color:Tomato\";>0.44</b></p>\n                <p>You received a bonus of <b>$0.00</b> based on the student's second guess.</p>\n                <p>Total bonus so far: <b>$0.00</b></p>\n                <p>Press any key to continue.</p>\n                ","response":" ","trial_type":"html-keyboard-response","trial_index":35,"time_elapsed":1391081,"internal_node_id":"0.0-21.0","params":{"nStudents":24,"maxFlips":30,"completionMinutes":45,"basePay":8,"maxBonus":9,"perTrialBonus":0.5,"perTrialBonusThreshold":0.05,"exampleCost":0.01},"classroomParams":{"A":{"a":1,"b":4},"B":{"a":4,"b":1},"C":{"a":2,"b":8},"D":{"a":8,"b":2}},"conditions":["nonSeqFull","nonSeqPartial","seqNoFeedback","seqFeedback"],"classroomPairings":[["A","B"],["C","D"]],"coinWeights":[0.2,0.5,0.8],"subjectId":"ABW8U1U74P8MI","assignmentId":"3X0H8UUIT2A4NQ280OGN6T4XKYHSWN","hitId":"3ZG552ORAMQWHINBPXRJ4QCSG7OV2V","url":"https://gershmanlab.com/experiments/alicia/teaching/experiment/?hitId=3ZG552ORAMQWHINBPXRJ4QCSG7OV2V&workerId=ABW8U1U74P8MI&assignmentId=3X0H8UUIT2A4NQ280OGN6T4XKYHSWN&a=I80X7&tp_a=I80X7&b=3X0H8UUIT2A4NQ280OGN6T4XKYHSWN&tp_b=3X0H8UUIT2A4NQ280OGN6T4XKYHSWN&c=365717&tp_c=365717"},{"rt":null,"stimulus":"<div style=\"font-size:60px;\">Next student</div>","response":null,"trial_type":"html-keyboard-response","trial_index":36,"time_elapsed":1393092,"internal_node_id":"0.0-22.0-0.0","params":{"nStudents":24,"maxFlips":30,"completionMinutes":45,"basePay":8,"maxBonus":9,"perTrialBonus":0.5,"perTrialBonusThreshold":0.05,"exampleCost":0.01},"classroomParams":{"A":{"a":1,"b":4},"B":{"a":4,"b":1},"C":{"a":2,"b":8},"D":{"a":8,"b":2}},"conditions":["nonSeqFull","nonSeqPartial","seqNoFeedback","seqFeedback"],"classroomPairings":[["A","B"],["C","D"]],"coinWeights":[0.2,0.5,0.8],"subjectId":"ABW8U1U74P8MI","assignmentId":"3X0H8UUIT2A4NQ280OGN6T4XKYHSWN","hitId":"3ZG552ORAMQWHINBPXRJ4QCSG7OV2V","url":"https://gershmanlab.com/experiments/alicia/teaching/experiment/?hitId=3ZG552ORAMQWHINBPXRJ4QCSG7OV2V&workerId=ABW8U1U74P8MI&assignmentId=3X0H8UUIT2A4NQ280OGN6T4XKYHSWN&a=I80X7&tp_a=I80X7&b=3X0H8UUIT2A4NQ280OGN6T4XKYHSWN&tp_b=3X0H8UUIT2A4NQ280OGN6T4XKYHSWN&c=365717&tp_c=365717"},{"rt":3171,"stimulus":"\n            <h4 style=\"color:Orange;\">Student 3</h4>\n            <h2>The weight of your coin is <b style=\"color:Tomato;\">0.5</b>.</h2>\n            <p>In this block, you will be giving <b>one</b> set of examples to Student 3.</p>\n                <p>You will receive feedback at the end of the block.</p>\n            <p></p>","response":0,"trial_type":"html-button-response","trial_index":37,"time_elapsed":1396265,"internal_node_id":"0.0-23.0","params":{"nStudents":24,"maxFlips":30,"completionMinutes":45,"basePay":8,"maxBonus":9,"perTrialBonus":0.5,"perTrialBonusThreshold":0.05,"exampleCost":0.01},"classroomParams":{"A":{"a":1,"b":4},"B":{"a":4,"b":1},"C":{"a":2,"b":8},"D":{"a":8,"b":2}},"conditions":["nonSeqFull","nonSeqPartial","seqNoFeedback","seqFeedback"],"classroomPairings":[["A","B"],["C","D"]],"coinWeights":[0.2,0.5,0.8],"subjectId":"ABW8U1U74P8MI","assignmentId":"3X0H8UUIT2A4NQ280OGN6T4XKYHSWN","hitId":"3ZG552ORAMQWHINBPXRJ4QCSG7OV2V","url":"https://gershmanlab.com/experiments/alicia/teaching/experiment/?hitId=3ZG552ORAMQWHINBPXRJ4QCSG7OV2V&workerId=ABW8U1U74P8MI&assignmentId=3X0H8UUIT2A4NQ280OGN6T4XKYHSWN&a=I80X7&tp_a=I80X7&b=3X0H8UUIT2A4NQ280OGN6T4XKYHSWN&tp_b=3X0H8UUIT2A4NQ280OGN6T4XKYHSWN&c=365717&tp_c=365717"},{"rt":17021,"response":{"heads":"0","tails":"5"},"type":"response","condition":"nonSeqFull","trueTheta":0.5,"classrooms":["A","B"],"studentTrueClassroom":"A","exampleSet":"first","trial_type":"survey-html-form","trial_index":38,"time_elapsed":1413289,"internal_node_id":"0.0-24.0-0.0","params":{"nStudents":24,"maxFlips":30,"completionMinutes":45,"basePay":8,"maxBonus":9,"perTrialBonus":0.5,"perTrialBonusThreshold":0.05,"exampleCost":0.01},"classroomParams":{"A":{"a":1,"b":4},"B":{"a":4,"b":1},"C":{"a":2,"b":8},"D":{"a":8,"b":2}},"conditions":["nonSeqFull","nonSeqPartial","seqNoFeedback","seqFeedback"],"classroomPairings":[["A","B"],["C","D"]],"coinWeights":[0.2,0.5,0.8],"subjectId":"ABW8U1U74P8MI","assignmentId":"3X0H8UUIT2A4NQ280OGN6T4XKYHSWN","hitId":"3ZG552ORAMQWHINBPXRJ4QCSG7OV2V","url":"https://gershmanlab.com/experiments/alicia/teaching/experiment/?hitId=3ZG552ORAMQWHINBPXRJ4QCSG7OV2V&workerId=ABW8U1U74P8MI&assignmentId=3X0H8UUIT2A4NQ280OGN6T4XKYHSWN&a=I80X7&tp_a=I80X7&b=3X0H8UUIT2A4NQ280OGN6T4XKYHSWN&tp_b=3X0H8UUIT2A4NQ280OGN6T4XKYHSWN&c=365717&tp_c=365717","heads":0,"tails":5,"studentIndex":2,"studentTrueHypers":{"a":1,"b":4},"studentGuess":0.1,"delta":0.4,"totalExamples":5,"bonus":0,"bonusSoFar":0},{"rt":null,"stimulus":"Sending examples to student... ","response":null,"trial_type":"html-keyboard-response","trial_index":39,"time_elapsed":1414793,"internal_node_id":"0.0-25.0","params":{"nStudents":24,"maxFlips":30,"completionMinutes":45,"basePay":8,"maxBonus":9,"perTrialBonus":0.5,"perTrialBonusThreshold":0.05,"exampleCost":0.01},"classroomParams":{"A":{"a":1,"b":4},"B":{"a":4,"b":1},"C":{"a":2,"b":8},"D":{"a":8,"b":2}},"conditions":["nonSeqFull","nonSeqPartial","seqNoFeedback","seqFeedback"],"classroomPairings":[["A","B"],["C","D"]],"coinWeights":[0.2,0.5,0.8],"subjectId":"ABW8U1U74P8MI","assignmentId":"3X0H8UUIT2A4NQ280OGN6T4XKYHSWN","hitId":"3ZG552ORAMQWHINBPXRJ4QCSG7OV2V","url":"https://gershmanlab.com/experiments/alicia/teaching/experiment/?hitId=3ZG552ORAMQWHINBPXRJ4QCSG7OV2V&workerId=ABW8U1U74P8MI&assignmentId=3X0H8UUIT2A4NQ280OGN6T4XKYHSWN&a=I80X7&tp_a=I80X7&b=3X0H8UUIT2A4NQ280OGN6T4XKYHSWN&tp_b=3X0H8UUIT2A4NQ280OGN6T4XKYHSWN&c=365717&tp_c=365717"},{"rt":null,"stimulus":"Examples sent to student! Waiting for student...","response":null,"trial_type":"html-keyboard-response","trial_index":40,"time_elapsed":1420304,"internal_node_id":"0.0-26.0","params":{"nStudents":24,"maxFlips":30,"completionMinutes":45,"basePay":8,"maxBonus":9,"perTrialBonus":0.5,"perTrialBonusThreshold":0.05,"exampleCost":0.01},"classroomParams":{"A":{"a":1,"b":4},"B":{"a":4,"b":1},"C":{"a":2,"b":8},"D":{"a":8,"b":2}},"conditions":["nonSeqFull","nonSeqPartial","seqNoFeedback","seqFeedback"],"classroomPairings":[["A","B"],["C","D"]],"coinWeights":[0.2,0.5,0.8],"subjectId":"ABW8U1U74P8MI","assignmentId":"3X0H8UUIT2A4NQ280OGN6T4XKYHSWN","hitId":"3ZG552ORAMQWHINBPXRJ4QCSG7OV2V","url":"https://gershmanlab.com/experiments/alicia/teaching/experiment/?hitId=3ZG552ORAMQWHINBPXRJ4QCSG7OV2V&workerId=ABW8U1U74P8MI&assignmentId=3X0H8UUIT2A4NQ280OGN6T4XKYHSWN&a=I80X7&tp_a=I80X7&b=3X0H8UUIT2A4NQ280OGN6T4XKYHSWN&tp_b=3X0H8UUIT2A4NQ280OGN6T4XKYHSWN&c=365717&tp_c=365717"},{"rt":8089,"stimulus":"\n                <p>Student's guess for coin weight: <b style=\"color:Tomato;\">0.10</b></p>\n                <p>You received a bonus of <b>$0</b>. Total bonus so far: <b>$0.00</b></b></p>\n                <p></p>\n                <p>Press any key to continue.</p>\n                ","response":" ","trial_type":"html-keyboard-response","trial_index":41,"time_elapsed":1428396,"internal_node_id":"0.0-27.0","params":{"nStudents":24,"maxFlips":30,"completionMinutes":45,"basePay":8,"maxBonus":9,"perTrialBonus":0.5,"perTrialBonusThreshold":0.05,"exampleCost":0.01},"classroomParams":{"A":{"a":1,"b":4},"B":{"a":4,"b":1},"C":{"a":2,"b":8},"D":{"a":8,"b":2}},"conditions":["nonSeqFull","nonSeqPartial","seqNoFeedback","seqFeedback"],"classroomPairings":[["A","B"],["C","D"]],"coinWeights":[0.2,0.5,0.8],"subjectId":"ABW8U1U74P8MI","assignmentId":"3X0H8UUIT2A4NQ280OGN6T4XKYHSWN","hitId":"3ZG552ORAMQWHINBPXRJ4QCSG7OV2V","url":"https://gershmanlab.com/experiments/alicia/teaching/experiment/?hitId=3ZG552ORAMQWHINBPXRJ4QCSG7OV2V&workerId=ABW8U1U74P8MI&assignmentId=3X0H8UUIT2A4NQ280OGN6T4XKYHSWN&a=I80X7&tp_a=I80X7&b=3X0H8UUIT2A4NQ280OGN6T4XKYHSWN&tp_b=3X0H8UUIT2A4NQ280OGN6T4XKYHSWN&c=365717&tp_c=365717"},{"rt":null,"stimulus":"<div style=\"font-size:60px;\">Next student</div>","response":null,"trial_type":"html-keyboard-response","trial_index":42,"time_elapsed":1430660,"internal_node_id":"0.0-28.0-0.0","params":{"nStudents":24,"maxFlips":30,"completionMinutes":45,"basePay":8,"maxBonus":9,"perTrialBonus":0.5,"perTrialBonusThreshold":0.05,"exampleCost":0.01},"classroomParams":{"A":{"a":1,"b":4},"B":{"a":4,"b":1},"C":{"a":2,"b":8},"D":{"a":8,"b":2}},"conditions":["nonSeqFull","nonSeqPartial","seqNoFeedback","seqFeedback"],"classroomPairings":[["A","B"],["C","D"]],"coinWeights":[0.2,0.5,0.8],"subjectId":"ABW8U1U74P8MI","assignmentId":"3X0H8UUIT2A4NQ280OGN6T4XKYHSWN","hitId":"3ZG552ORAMQWHINBPXRJ4QCSG7OV2V","url":"https://gershmanlab.com/experiments/alicia/teaching/experiment/?hitId=3ZG552ORAMQWHINBPXRJ4QCSG7OV2V&workerId=ABW8U1U74P8MI&assignmentId=3X0H8UUIT2A4NQ280OGN6T4XKYHSWN&a=I80X7&tp_a=I80X7&b=3X0H8UUIT2A4NQ280OGN6T4XKYHSWN&tp_b=3X0H8UUIT2A4NQ280OGN6T4XKYHSWN&c=365717&tp_c=365717"},{"rt":1910,"stimulus":"\n            <h4 style=\"color:Orange;\">Student 4</h4>\n            <h2>The weight of your coin is <b style=\"color:Tomato;\">0.8</b>.</h2>\n            <p>In this block, you will be giving <b>two</b> sets of examples to Student 4.</p>\n                <p>You will see the student's guess after the first set of examples. You will also receive feedback at the end of the block.</p>\n            <p>To earn the highest bonus, you will have to <b>take into consideration the student's guess</b> when you choose your second set of examples.</p>","response":0,"trial_type":"html-button-response","trial_index":43,"time_elapsed":1432572,"internal_node_id":"0.0-29.0","params":{"nStudents":24,"maxFlips":30,"completionMinutes":45,"basePay":8,"maxBonus":9,"perTrialBonus":0.5,"perTrialBonusThreshold":0.05,"exampleCost":0.01},"classroomParams":{"A":{"a":1,"b":4},"B":{"a":4,"b":1},"C":{"a":2,"b":8},"D":{"a":8,"b":2}},"conditions":["nonSeqFull","nonSeqPartial","seqNoFeedback","seqFeedback"],"classroomPairings":[["A","B"],["C","D"]],"coinWeights":[0.2,0.5,0.8],"subjectId":"ABW8U1U74P8MI","assignmentId":"3X0H8UUIT2A4NQ280OGN6T4XKYHSWN","hitId":"3ZG552ORAMQWHINBPXRJ4QCSG7OV2V","url":"https://gershmanlab.com/experiments/alicia/teaching/experiment/?hitId=3ZG552ORAMQWHINBPXRJ4QCSG7OV2V&workerId=ABW8U1U74P8MI&assignmentId=3X0H8UUIT2A4NQ280OGN6T4XKYHSWN&a=I80X7&tp_a=I80X7&b=3X0H8UUIT2A4NQ280OGN6T4XKYHSWN&tp_b=3X0H8UUIT2A4NQ280OGN6T4XKYHSWN&c=365717&tp_c=365717"},{"rt":9820,"response":{"heads":"10","tails":"0"},"type":"response","condition":"seqFeedback","trueTheta":0.8,"classrooms":["C","D"],"studentTrueClassroom":"D","exampleSet":"first","trial_type":"survey-html-form","trial_index":44,"time_elapsed":1442395,"internal_node_id":"0.0-30.0-0.0","params":{"nStudents":24,"maxFlips":30,"completionMinutes":45,"basePay":8,"maxBonus":9,"perTrialBonus":0.5,"perTrialBonusThreshold":0.05,"exampleCost":0.01},"classroomParams":{"A":{"a":1,"b":4},"B":{"a":4,"b":1},"C":{"a":2,"b":8},"D":{"a":8,"b":2}},"conditions":["nonSeqFull","nonSeqPartial","seqNoFeedback","seqFeedback"],"classroomPairings":[["A","B"],["C","D"]],"coinWeights":[0.2,0.5,0.8],"subjectId":"ABW8U1U74P8MI","assignmentId":"3X0H8UUIT2A4NQ280OGN6T4XKYHSWN","hitId":"3ZG552ORAMQWHINBPXRJ4QCSG7OV2V","url":"https://gershmanlab.com/experiments/alicia/teaching/experiment/?hitId=3ZG552ORAMQWHINBPXRJ4QCSG7OV2V&workerId=ABW8U1U74P8MI&assignmentId=3X0H8UUIT2A4NQ280OGN6T4XKYHSWN&a=I80X7&tp_a=I80X7&b=3X0H8UUIT2A4NQ280OGN6T4XKYHSWN&tp_b=3X0H8UUIT2A4NQ280OGN6T4XKYHSWN&c=365717&tp_c=365717","heads":10,"tails":0,"studentIndex":3,"studentTrueHypers":{"a":8,"b":2},"studentGuess":0.9,"delta":0.09999999999999998,"totalExamples":10,"bonusSoFar":0},{"rt":null,"stimulus":"Sending examples to student... ","response":null,"trial_type":"html-keyboard-response","trial_index":45,"time_elapsed":1444409,"internal_node_id":"0.0-31.0","params":{"nStudents":24,"maxFlips":30,"completionMinutes":45,"basePay":8,"maxBonus":9,"perTrialBonus":0.5,"perTrialBonusThreshold":0.05,"exampleCost":0.01},"classroomParams":{"A":{"a":1,"b":4},"B":{"a":4,"b":1},"C":{"a":2,"b":8},"D":{"a":8,"b":2}},"conditions":["nonSeqFull","nonSeqPartial","seqNoFeedback","seqFeedback"],"classroomPairings":[["A","B"],["C","D"]],"coinWeights":[0.2,0.5,0.8],"subjectId":"ABW8U1U74P8MI","assignmentId":"3X0H8UUIT2A4NQ280OGN6T4XKYHSWN","hitId":"3ZG552ORAMQWHINBPXRJ4QCSG7OV2V","url":"https://gershmanlab.com/experiments/alicia/teaching/experiment/?hitId=3ZG552ORAMQWHINBPXRJ4QCSG7OV2V&workerId=ABW8U1U74P8MI&assignmentId=3X0H8UUIT2A4NQ280OGN6T4XKYHSWN&a=I80X7&tp_a=I80X7&b=3X0H8UUIT2A4NQ280OGN6T4XKYHSWN&tp_b=3X0H8UUIT2A4NQ280OGN6T4XKYHSWN&c=365717&tp_c=365717"},{"rt":null,"stimulus":"Examples sent to student! Waiting for student...","response":null,"trial_type":"html-keyboard-response","trial_index":46,"time_elapsed":1449418,"internal_node_id":"0.0-32.0","params":{"nStudents":24,"maxFlips":30,"completionMinutes":45,"basePay":8,"maxBonus":9,"perTrialBonus":0.5,"perTrialBonusThreshold":0.05,"exampleCost":0.01},"classroomParams":{"A":{"a":1,"b":4},"B":{"a":4,"b":1},"C":{"a":2,"b":8},"D":{"a":8,"b":2}},"conditions":["nonSeqFull","nonSeqPartial","seqNoFeedback","seqFeedback"],"classroomPairings":[["A","B"],["C","D"]],"coinWeights":[0.2,0.5,0.8],"subjectId":"ABW8U1U74P8MI","assignmentId":"3X0H8UUIT2A4NQ280OGN6T4XKYHSWN","hitId":"3ZG552ORAMQWHINBPXRJ4QCSG7OV2V","url":"https://gershmanlab.com/experiments/alicia/teaching/experiment/?hitId=3ZG552ORAMQWHINBPXRJ4QCSG7OV2V&workerId=ABW8U1U74P8MI&assignmentId=3X0H8UUIT2A4NQ280OGN6T4XKYHSWN&a=I80X7&tp_a=I80X7&b=3X0H8UUIT2A4NQ280OGN6T4XKYHSWN&tp_b=3X0H8UUIT2A4NQ280OGN6T4XKYHSWN&c=365717&tp_c=365717"},{"rt":13711,"stimulus":"\n                <p>Student's guess for coin weight: <b style=\"color:Tomato;\">0.90</b></p>\n                <p></b></p>\n                <p>You will now send another set of examples to your student. <b>Remember to take your student's guess into consideration so that you can earn the highest bonus possible!</b> </p>\n                <p>Press any key to continue.</p>\n                ","response":" ","trial_type":"html-keyboard-response","trial_index":47,"time_elapsed":1463132,"internal_node_id":"0.0-33.0","params":{"nStudents":24,"maxFlips":30,"completionMinutes":45,"basePay":8,"maxBonus":9,"perTrialBonus":0.5,"perTrialBonusThreshold":0.05,"exampleCost":0.01},"classroomParams":{"A":{"a":1,"b":4},"B":{"a":4,"b":1},"C":{"a":2,"b":8},"D":{"a":8,"b":2}},"conditions":["nonSeqFull","nonSeqPartial","seqNoFeedback","seqFeedback"],"classroomPairings":[["A","B"],["C","D"]],"coinWeights":[0.2,0.5,0.8],"subjectId":"ABW8U1U74P8MI","assignmentId":"3X0H8UUIT2A4NQ280OGN6T4XKYHSWN","hitId":"3ZG552ORAMQWHINBPXRJ4QCSG7OV2V","url":"https://gershmanlab.com/experiments/alicia/teaching/experiment/?hitId=3ZG552ORAMQWHINBPXRJ4QCSG7OV2V&workerId=ABW8U1U74P8MI&assignmentId=3X0H8UUIT2A4NQ280OGN6T4XKYHSWN&a=I80X7&tp_a=I80X7&b=3X0H8UUIT2A4NQ280OGN6T4XKYHSWN&tp_b=3X0H8UUIT2A4NQ280OGN6T4XKYHSWN&c=365717&tp_c=365717"},{"rt":13113,"response":{"heads":"8","tails":"4"},"type":"response","condition":"seqFeedback","trueTheta":0.8,"classrooms":["C","D"],"studentTrueClassroom":"D","exampleSet":"second","trial_type":"survey-html-form","trial_index":48,"time_elapsed":1476247,"internal_node_id":"0.0-34.0-0.0","params":{"nStudents":24,"maxFlips":30,"completionMinutes":45,"basePay":8,"maxBonus":9,"perTrialBonus":0.5,"perTrialBonusThreshold":0.05,"exampleCost":0.01},"classroomParams":{"A":{"a":1,"b":4},"B":{"a":4,"b":1},"C":{"a":2,"b":8},"D":{"a":8,"b":2}},"conditions":["nonSeqFull","nonSeqPartial","seqNoFeedback","seqFeedback"],"classroomPairings":[["A","B"],["C","D"]],"coinWeights":[0.2,0.5,0.8],"subjectId":"ABW8U1U74P8MI","assignmentId":"3X0H8UUIT2A4NQ280OGN6T4XKYHSWN","hitId":"3ZG552ORAMQWHINBPXRJ4QCSG7OV2V","url":"https://gershmanlab.com/experiments/alicia/teaching/experiment/?hitId=3ZG552ORAMQWHINBPXRJ4QCSG7OV2V&workerId=ABW8U1U74P8MI&assignmentId=3X0H8UUIT2A4NQ280OGN6T4XKYHSWN&a=I80X7&tp_a=I80X7&b=3X0H8UUIT2A4NQ280OGN6T4XKYHSWN&tp_b=3X0H8UUIT2A4NQ280OGN6T4XKYHSWN&c=365717&tp_c=365717","firstResponseHeads":10,"firstResponseTails":0,"secondResponseHeads":8,"secondResponseTails":4,"totalHeads":18,"totalTails":4,"studentIndex":3,"studentTrueHypers":{"a":8,"b":2},"studentGuess":0.8125,"delta":0.012499999999999956,"bonus":0.28,"bonusSoFar":0.28,"totalExamples":22},{"rt":null,"stimulus":"Sending examples to student... ","response":null,"trial_type":"html-keyboard-response","trial_index":49,"time_elapsed":1477508,"internal_node_id":"0.0-35.0","params":{"nStudents":24,"maxFlips":30,"completionMinutes":45,"basePay":8,"maxBonus":9,"perTrialBonus":0.5,"perTrialBonusThreshold":0.05,"exampleCost":0.01},"classroomParams":{"A":{"a":1,"b":4},"B":{"a":4,"b":1},"C":{"a":2,"b":8},"D":{"a":8,"b":2}},"conditions":["nonSeqFull","nonSeqPartial","seqNoFeedback","seqFeedback"],"classroomPairings":[["A","B"],["C","D"]],"coinWeights":[0.2,0.5,0.8],"subjectId":"ABW8U1U74P8MI","assignmentId":"3X0H8UUIT2A4NQ280OGN6T4XKYHSWN","hitId":"3ZG552ORAMQWHINBPXRJ4QCSG7OV2V","url":"https://gershmanlab.com/experiments/alicia/teaching/experiment/?hitId=3ZG552ORAMQWHINBPXRJ4QCSG7OV2V&workerId=ABW8U1U74P8MI&assignmentId=3X0H8UUIT2A4NQ280OGN6T4XKYHSWN&a=I80X7&tp_a=I80X7&b=3X0H8UUIT2A4NQ280OGN6T4XKYHSWN&tp_b=3X0H8UUIT2A4NQ280OGN6T4XKYHSWN&c=365717&tp_c=365717"},{"rt":null,"stimulus":"Examples sent to student! Waiting for student...","response":null,"trial_type":"html-keyboard-response","trial_index":50,"time_elapsed":1483520,"internal_node_id":"0.0-36.0","params":{"nStudents":24,"maxFlips":30,"completionMinutes":45,"basePay":8,"maxBonus":9,"perTrialBonus":0.5,"perTrialBonusThreshold":0.05,"exampleCost":0.01},"classroomParams":{"A":{"a":1,"b":4},"B":{"a":4,"b":1},"C":{"a":2,"b":8},"D":{"a":8,"b":2}},"conditions":["nonSeqFull","nonSeqPartial","seqNoFeedback","seqFeedback"],"classroomPairings":[["A","B"],["C","D"]],"coinWeights":[0.2,0.5,0.8],"subjectId":"ABW8U1U74P8MI","assignmentId":"3X0H8UUIT2A4NQ280OGN6T4XKYHSWN","hitId":"3ZG552ORAMQWHINBPXRJ4QCSG7OV2V","url":"https://gershmanlab.com/experiments/alicia/teaching/experiment/?hitId=3ZG552ORAMQWHINBPXRJ4QCSG7OV2V&workerId=ABW8U1U74P8MI&assignmentId=3X0H8UUIT2A4NQ280OGN6T4XKYHSWN&a=I80X7&tp_a=I80X7&b=3X0H8UUIT2A4NQ280OGN6T4XKYHSWN&tp_b=3X0H8UUIT2A4NQ280OGN6T4XKYHSWN&c=365717&tp_c=365717"},{"rt":3823,"stimulus":"\n                <p>Student 4's first guess for coin weight: <b style=\"color:Tomato\";>0.90</b></p>\n                <p>Student 4's second guess for coin weight: <b style=\"color:Tomato\";>0.81</b></p>\n                <p>You received a bonus of <b>$0.28</b> based on the student's second guess.</p>\n                <p>Total bonus so far: <b>$0.28</b></p>\n                <p>Press any key to continue.</p>\n                ","response":" ","trial_type":"html-keyboard-response","trial_index":51,"time_elapsed":1487346,"internal_node_id":"0.0-37.0","params":{"nStudents":24,"maxFlips":30,"completionMinutes":45,"basePay":8,"maxBonus":9,"perTrialBonus":0.5,"perTrialBonusThreshold":0.05,"exampleCost":0.01},"classroomParams":{"A":{"a":1,"b":4},"B":{"a":4,"b":1},"C":{"a":2,"b":8},"D":{"a":8,"b":2}},"conditions":["nonSeqFull","nonSeqPartial","seqNoFeedback","seqFeedback"],"classroomPairings":[["A","B"],["C","D"]],"coinWeights":[0.2,0.5,0.8],"subjectId":"ABW8U1U74P8MI","assignmentId":"3X0H8UUIT2A4NQ280OGN6T4XKYHSWN","hitId":"3ZG552ORAMQWHINBPXRJ4QCSG7OV2V","url":"https://gershmanlab.com/experiments/alicia/teaching/experiment/?hitId=3ZG552ORAMQWHINBPXRJ4QCSG7OV2V&workerId=ABW8U1U74P8MI&assignmentId=3X0H8UUIT2A4NQ280OGN6T4XKYHSWN&a=I80X7&tp_a=I80X7&b=3X0H8UUIT2A4NQ280OGN6T4XKYHSWN&tp_b=3X0H8UUIT2A4NQ280OGN6T4XKYHSWN&c=365717&tp_c=365717"},{"rt":null,"stimulus":"<div style=\"font-size:60px;\">Next student</div>","response":null,"trial_type":"html-keyboard-response","trial_index":52,"time_elapsed":1490348,"internal_node_id":"0.0-38.0-0.0","params":{"nStudents":24,"maxFlips":30,"completionMinutes":45,"basePay":8,"maxBonus":9,"perTrialBonus":0.5,"perTrialBonusThreshold":0.05,"exampleCost":0.01},"classroomParams":{"A":{"a":1,"b":4},"B":{"a":4,"b":1},"C":{"a":2,"b":8},"D":{"a":8,"b":2}},"conditions":["nonSeqFull","nonSeqPartial","seqNoFeedback","seqFeedback"],"classroomPairings":[["A","B"],["C","D"]],"coinWeights":[0.2,0.5,0.8],"subjectId":"ABW8U1U74P8MI","assignmentId":"3X0H8UUIT2A4NQ280OGN6T4XKYHSWN","hitId":"3ZG552ORAMQWHINBPXRJ4QCSG7OV2V","url":"https://gershmanlab.com/experiments/alicia/teaching/experiment/?hitId=3ZG552ORAMQWHINBPXRJ4QCSG7OV2V&workerId=ABW8U1U74P8MI&assignmentId=3X0H8UUIT2A4NQ280OGN6T4XKYHSWN&a=I80X7&tp_a=I80X7&b=3X0H8UUIT2A4NQ280OGN6T4XKYHSWN&tp_b=3X0H8UUIT2A4NQ280OGN6T4XKYHSWN&c=365717&tp_c=365717"},{"rt":1964,"stimulus":"\n            <h4 style=\"color:Orange;\">Student 5</h4>\n            <h2>The weight of your coin is <b style=\"color:Tomato;\">0.8</b>.</h2>\n            <p>In this block, you will be giving <b>one</b> set of examples to Student 5.</p>\n                <p>You will receive feedback at the end of the block.</p>\n            <p></p>","response":0,"trial_type":"html-button-response","trial_index":53,"time_elapsed":1492314,"internal_node_id":"0.0-39.0","params":{"nStudents":24,"maxFlips":30,"completionMinutes":45,"basePay":8,"maxBonus":9,"perTrialBonus":0.5,"perTrialBonusThreshold":0.05,"exampleCost":0.01},"classroomParams":{"A":{"a":1,"b":4},"B":{"a":4,"b":1},"C":{"a":2,"b":8},"D":{"a":8,"b":2}},"conditions":["nonSeqFull","nonSeqPartial","seqNoFeedback","seqFeedback"],"classroomPairings":[["A","B"],["C","D"]],"coinWeights":[0.2,0.5,0.8],"subjectId":"ABW8U1U74P8MI","assignmentId":"3X0H8UUIT2A4NQ280OGN6T4XKYHSWN","hitId":"3ZG552ORAMQWHINBPXRJ4QCSG7OV2V","url":"https://gershmanlab.com/experiments/alicia/teaching/experiment/?hitId=3ZG552ORAMQWHINBPXRJ4QCSG7OV2V&workerId=ABW8U1U74P8MI&assignmentId=3X0H8UUIT2A4NQ280OGN6T4XKYHSWN&a=I80X7&tp_a=I80X7&b=3X0H8UUIT2A4NQ280OGN6T4XKYHSWN&tp_b=3X0H8UUIT2A4NQ280OGN6T4XKYHSWN&c=365717&tp_c=365717"},{"rt":13226,"response":{"heads":"5","tails":"0"},"type":"response","condition":"nonSeqFull","trueTheta":0.8,"classrooms":["A","B"],"studentTrueClassroom":"B","exampleSet":"first","trial_type":"survey-html-form","trial_index":54,"time_elapsed":1505543,"internal_node_id":"0.0-40.0-0.0","params":{"nStudents":24,"maxFlips":30,"completionMinutes":45,"basePay":8,"maxBonus":9,"perTrialBonus":0.5,"perTrialBonusThreshold":0.05,"exampleCost":0.01},"classroomParams":{"A":{"a":1,"b":4},"B":{"a":4,"b":1},"C":{"a":2,"b":8},"D":{"a":8,"b":2}},"conditions":["nonSeqFull","nonSeqPartial","seqNoFeedback","seqFeedback"],"classroomPairings":[["A","B"],["C","D"]],"coinWeights":[0.2,0.5,0.8],"subjectId":"ABW8U1U74P8MI","assignmentId":"3X0H8UUIT2A4NQ280OGN6T4XKYHSWN","hitId":"3ZG552ORAMQWHINBPXRJ4QCSG7OV2V","url":"https://gershmanlab.com/experiments/alicia/teaching/experiment/?hitId=3ZG552ORAMQWHINBPXRJ4QCSG7OV2V&workerId=ABW8U1U74P8MI&assignmentId=3X0H8UUIT2A4NQ280OGN6T4XKYHSWN&a=I80X7&tp_a=I80X7&b=3X0H8UUIT2A4NQ280OGN6T4XKYHSWN&tp_b=3X0H8UUIT2A4NQ280OGN6T4XKYHSWN&c=365717&tp_c=365717","heads":5,"tails":0,"studentIndex":4,"studentTrueHypers":{"a":4,"b":1},"studentGuess":0.9,"delta":0.09999999999999998,"totalExamples":5,"bonus":0,"bonusSoFar":0.28},{"rt":null,"stimulus":"Sending examples to student... ","response":null,"trial_type":"html-keyboard-response","trial_index":55,"time_elapsed":1507300,"internal_node_id":"0.0-41.0","params":{"nStudents":24,"maxFlips":30,"completionMinutes":45,"basePay":8,"maxBonus":9,"perTrialBonus":0.5,"perTrialBonusThreshold":0.05,"exampleCost":0.01},"classroomParams":{"A":{"a":1,"b":4},"B":{"a":4,"b":1},"C":{"a":2,"b":8},"D":{"a":8,"b":2}},"conditions":["nonSeqFull","nonSeqPartial","seqNoFeedback","seqFeedback"],"classroomPairings":[["A","B"],["C","D"]],"coinWeights":[0.2,0.5,0.8],"subjectId":"ABW8U1U74P8MI","assignmentId":"3X0H8UUIT2A4NQ280OGN6T4XKYHSWN","hitId":"3ZG552ORAMQWHINBPXRJ4QCSG7OV2V","url":"https://gershmanlab.com/experiments/alicia/teaching/experiment/?hitId=3ZG552ORAMQWHINBPXRJ4QCSG7OV2V&workerId=ABW8U1U74P8MI&assignmentId=3X0H8UUIT2A4NQ280OGN6T4XKYHSWN&a=I80X7&tp_a=I80X7&b=3X0H8UUIT2A4NQ280OGN6T4XKYHSWN&tp_b=3X0H8UUIT2A4NQ280OGN6T4XKYHSWN&c=365717&tp_c=365717"},{"rt":null,"stimulus":"Examples sent to student! Waiting for student...","response":null,"trial_type":"html-keyboard-response","trial_index":56,"time_elapsed":1513316,"internal_node_id":"0.0-42.0","params":{"nStudents":24,"maxFlips":30,"completionMinutes":45,"basePay":8,"maxBonus":9,"perTrialBonus":0.5,"perTrialBonusThreshold":0.05,"exampleCost":0.01},"classroomParams":{"A":{"a":1,"b":4},"B":{"a":4,"b":1},"C":{"a":2,"b":8},"D":{"a":8,"b":2}},"conditions":["nonSeqFull","nonSeqPartial","seqNoFeedback","seqFeedback"],"classroomPairings":[["A","B"],["C","D"]],"coinWeights":[0.2,0.5,0.8],"subjectId":"ABW8U1U74P8MI","assignmentId":"3X0H8UUIT2A4NQ280OGN6T4XKYHSWN","hitId":"3ZG552ORAMQWHINBPXRJ4QCSG7OV2V","url":"https://gershmanlab.com/experiments/alicia/teaching/experiment/?hitId=3ZG552ORAMQWHINBPXRJ4QCSG7OV2V&workerId=ABW8U1U74P8MI&assignmentId=3X0H8UUIT2A4NQ280OGN6T4XKYHSWN&a=I80X7&tp_a=I80X7&b=3X0H8UUIT2A4NQ280OGN6T4XKYHSWN&tp_b=3X0H8UUIT2A4NQ280OGN6T4XKYHSWN&c=365717&tp_c=365717"},{"rt":5397,"stimulus":"\n                <p>Student's guess for coin weight: <b style=\"color:Tomato;\">0.90</b></p>\n                <p>You received a bonus of <b>$0</b>. Total bonus so far: <b>$0.28</b></b></p>\n                <p></p>\n                <p>Press any key to continue.</p>\n                ","response":" ","trial_type":"html-keyboard-response","trial_index":57,"time_elapsed":1518715,"internal_node_id":"0.0-43.0","params":{"nStudents":24,"maxFlips":30,"completionMinutes":45,"basePay":8,"maxBonus":9,"perTrialBonus":0.5,"perTrialBonusThreshold":0.05,"exampleCost":0.01},"classroomParams":{"A":{"a":1,"b":4},"B":{"a":4,"b":1},"C":{"a":2,"b":8},"D":{"a":8,"b":2}},"conditions":["nonSeqFull","nonSeqPartial","seqNoFeedback","seqFeedback"],"classroomPairings":[["A","B"],["C","D"]],"coinWeights":[0.2,0.5,0.8],"subjectId":"ABW8U1U74P8MI","assignmentId":"3X0H8UUIT2A4NQ280OGN6T4XKYHSWN","hitId":"3ZG552ORAMQWHINBPXRJ4QCSG7OV2V","url":"https://gershmanlab.com/experiments/alicia/teaching/experiment/?hitId=3ZG552ORAMQWHINBPXRJ4QCSG7OV2V&workerId=ABW8U1U74P8MI&assignmentId=3X0H8UUIT2A4NQ280OGN6T4XKYHSWN&a=I80X7&tp_a=I80X7&b=3X0H8UUIT2A4NQ280OGN6T4XKYHSWN&tp_b=3X0H8UUIT2A4NQ280OGN6T4XKYHSWN&c=365717&tp_c=365717"},{"rt":null,"stimulus":"<div style=\"font-size:60px;\">Next student</div>","response":null,"trial_type":"html-keyboard-response","trial_index":58,"time_elapsed":1520979,"internal_node_id":"0.0-44.0-0.0","params":{"nStudents":24,"maxFlips":30,"completionMinutes":45,"basePay":8,"maxBonus":9,"perTrialBonus":0.5,"perTrialBonusThreshold":0.05,"exampleCost":0.01},"classroomParams":{"A":{"a":1,"b":4},"B":{"a":4,"b":1},"C":{"a":2,"b":8},"D":{"a":8,"b":2}},"conditions":["nonSeqFull","nonSeqPartial","seqNoFeedback","seqFeedback"],"classroomPairings":[["A","B"],["C","D"]],"coinWeights":[0.2,0.5,0.8],"subjectId":"ABW8U1U74P8MI","assignmentId":"3X0H8UUIT2A4NQ280OGN6T4XKYHSWN","hitId":"3ZG552ORAMQWHINBPXRJ4QCSG7OV2V","url":"https://gershmanlab.com/experiments/alicia/teaching/experiment/?hitId=3ZG552ORAMQWHINBPXRJ4QCSG7OV2V&workerId=ABW8U1U74P8MI&assignmentId=3X0H8UUIT2A4NQ280OGN6T4XKYHSWN&a=I80X7&tp_a=I80X7&b=3X0H8UUIT2A4NQ280OGN6T4XKYHSWN&tp_b=3X0H8UUIT2A4NQ280OGN6T4XKYHSWN&c=365717&tp_c=365717"},{"rt":3725,"stimulus":"\n            <h4 style=\"color:Orange;\">Student 6</h4>\n            <h2>The weight of your coin is <b style=\"color:Tomato;\">0.5</b>.</h2>\n            <p>In this block, you will be giving <b>two</b> sets of examples to Student 6.</p>\n                <p>You will see the student's guess after the first set of examples. You will also receive feedback at the end of the block.</p>\n            <p>To earn the highest bonus, you will have to <b>take into consideration the student's guess</b> when you choose your second set of examples.</p>","response":0,"trial_type":"html-button-response","trial_index":59,"time_elapsed":1524708,"internal_node_id":"0.0-45.0","params":{"nStudents":24,"maxFlips":30,"completionMinutes":45,"basePay":8,"maxBonus":9,"perTrialBonus":0.5,"perTrialBonusThreshold":0.05,"exampleCost":0.01},"classroomParams":{"A":{"a":1,"b":4},"B":{"a":4,"b":1},"C":{"a":2,"b":8},"D":{"a":8,"b":2}},"conditions":["nonSeqFull","nonSeqPartial","seqNoFeedback","seqFeedback"],"classroomPairings":[["A","B"],["C","D"]],"coinWeights":[0.2,0.5,0.8],"subjectId":"ABW8U1U74P8MI","assignmentId":"3X0H8UUIT2A4NQ280OGN6T4XKYHSWN","hitId":"3ZG552ORAMQWHINBPXRJ4QCSG7OV2V","url":"https://gershmanlab.com/experiments/alicia/teaching/experiment/?hitId=3ZG552ORAMQWHINBPXRJ4QCSG7OV2V&workerId=ABW8U1U74P8MI&assignmentId=3X0H8UUIT2A4NQ280OGN6T4XKYHSWN&a=I80X7&tp_a=I80X7&b=3X0H8UUIT2A4NQ280OGN6T4XKYHSWN&tp_b=3X0H8UUIT2A4NQ280OGN6T4XKYHSWN&c=365717&tp_c=365717"},{"rt":7597,"response":{"heads":"5","tails":"5"},"type":"response","condition":"seqFeedback","trueTheta":0.5,"classrooms":["C","D"],"studentTrueClassroom":"C","exampleSet":"first","trial_type":"survey-html-form","trial_index":60,"time_elapsed":1532307,"internal_node_id":"0.0-46.0-0.0","params":{"nStudents":24,"maxFlips":30,"completionMinutes":45,"basePay":8,"maxBonus":9,"perTrialBonus":0.5,"perTrialBonusThreshold":0.05,"exampleCost":0.01},"classroomParams":{"A":{"a":1,"b":4},"B":{"a":4,"b":1},"C":{"a":2,"b":8},"D":{"a":8,"b":2}},"conditions":["nonSeqFull","nonSeqPartial","seqNoFeedback","seqFeedback"],"classroomPairings":[["A","B"],["C","D"]],"coinWeights":[0.2,0.5,0.8],"subjectId":"ABW8U1U74P8MI","assignmentId":"3X0H8UUIT2A4NQ280OGN6T4XKYHSWN","hitId":"3ZG552ORAMQWHINBPXRJ4QCSG7OV2V","url":"https://gershmanlab.com/experiments/alicia/teaching/experiment/?hitId=3ZG552ORAMQWHINBPXRJ4QCSG7OV2V&workerId=ABW8U1U74P8MI&assignmentId=3X0H8UUIT2A4NQ280OGN6T4XKYHSWN&a=I80X7&tp_a=I80X7&b=3X0H8UUIT2A4NQ280OGN6T4XKYHSWN&tp_b=3X0H8UUIT2A4NQ280OGN6T4XKYHSWN&c=365717&tp_c=365717","heads":5,"tails":5,"studentIndex":5,"studentTrueHypers":{"a":2,"b":8},"studentGuess":0.35,"delta":0.15000000000000002,"totalExamples":10,"bonusSoFar":0.28},{"rt":null,"stimulus":"Sending examples to student... ","response":null,"trial_type":"html-keyboard-response","trial_index":61,"time_elapsed":1534066,"internal_node_id":"0.0-47.0","params":{"nStudents":24,"maxFlips":30,"completionMinutes":45,"basePay":8,"maxBonus":9,"perTrialBonus":0.5,"perTrialBonusThreshold":0.05,"exampleCost":0.01},"classroomParams":{"A":{"a":1,"b":4},"B":{"a":4,"b":1},"C":{"a":2,"b":8},"D":{"a":8,"b":2}},"conditions":["nonSeqFull","nonSeqPartial","seqNoFeedback","seqFeedback"],"classroomPairings":[["A","B"],["C","D"]],"coinWeights":[0.2,0.5,0.8],"subjectId":"ABW8U1U74P8MI","assignmentId":"3X0H8UUIT2A4NQ280OGN6T4XKYHSWN","hitId":"3ZG552ORAMQWHINBPXRJ4QCSG7OV2V","url":"https://gershmanlab.com/experiments/alicia/teaching/experiment/?hitId=3ZG552ORAMQWHINBPXRJ4QCSG7OV2V&workerId=ABW8U1U74P8MI&assignmentId=3X0H8UUIT2A4NQ280OGN6T4XKYHSWN&a=I80X7&tp_a=I80X7&b=3X0H8UUIT2A4NQ280OGN6T4XKYHSWN&tp_b=3X0H8UUIT2A4NQ280OGN6T4XKYHSWN&c=365717&tp_c=365717"},{"rt":null,"stimulus":"Examples sent to student! Waiting for student...","response":null,"trial_type":"html-keyboard-response","trial_index":62,"time_elapsed":1539571,"internal_node_id":"0.0-48.0","params":{"nStudents":24,"maxFlips":30,"completionMinutes":45,"basePay":8,"maxBonus":9,"perTrialBonus":0.5,"perTrialBonusThreshold":0.05,"exampleCost":0.01},"classroomParams":{"A":{"a":1,"b":4},"B":{"a":4,"b":1},"C":{"a":2,"b":8},"D":{"a":8,"b":2}},"conditions":["nonSeqFull","nonSeqPartial","seqNoFeedback","seqFeedback"],"classroomPairings":[["A","B"],["C","D"]],"coinWeights":[0.2,0.5,0.8],"subjectId":"ABW8U1U74P8MI","assignmentId":"3X0H8UUIT2A4NQ280OGN6T4XKYHSWN","hitId":"3ZG552ORAMQWHINBPXRJ4QCSG7OV2V","url":"https://gershmanlab.com/experiments/alicia/teaching/experiment/?hitId=3ZG552ORAMQWHINBPXRJ4QCSG7OV2V&workerId=ABW8U1U74P8MI&assignmentId=3X0H8UUIT2A4NQ280OGN6T4XKYHSWN&a=I80X7&tp_a=I80X7&b=3X0H8UUIT2A4NQ280OGN6T4XKYHSWN&tp_b=3X0H8UUIT2A4NQ280OGN6T4XKYHSWN&c=365717&tp_c=365717"},{"rt":3896,"stimulus":"\n                <p>Student's guess for coin weight: <b style=\"color:Tomato;\">0.35</b></p>\n                <p></b></p>\n                <p>You will now send another set of examples to your student. <b>Remember to take your student's guess into consideration so that you can earn the highest bonus possible!</b> </p>\n                <p>Press any key to continue.</p>\n                ","response":" ","trial_type":"html-keyboard-response","trial_index":63,"time_elapsed":1543469,"internal_node_id":"0.0-49.0","params":{"nStudents":24,"maxFlips":30,"completionMinutes":45,"basePay":8,"maxBonus":9,"perTrialBonus":0.5,"perTrialBonusThreshold":0.05,"exampleCost":0.01},"classroomParams":{"A":{"a":1,"b":4},"B":{"a":4,"b":1},"C":{"a":2,"b":8},"D":{"a":8,"b":2}},"conditions":["nonSeqFull","nonSeqPartial","seqNoFeedback","seqFeedback"],"classroomPairings":[["A","B"],["C","D"]],"coinWeights":[0.2,0.5,0.8],"subjectId":"ABW8U1U74P8MI","assignmentId":"3X0H8UUIT2A4NQ280OGN6T4XKYHSWN","hitId":"3ZG552ORAMQWHINBPXRJ4QCSG7OV2V","url":"https://gershmanlab.com/experiments/alicia/teaching/experiment/?hitId=3ZG552ORAMQWHINBPXRJ4QCSG7OV2V&workerId=ABW8U1U74P8MI&assignmentId=3X0H8UUIT2A4NQ280OGN6T4XKYHSWN&a=I80X7&tp_a=I80X7&b=3X0H8UUIT2A4NQ280OGN6T4XKYHSWN&tp_b=3X0H8UUIT2A4NQ280OGN6T4XKYHSWN&c=365717&tp_c=365717"},{"rt":20540,"response":{"heads":"8","tails":"0"},"type":"response","condition":"seqFeedback","trueTheta":0.5,"classrooms":["C","D"],"studentTrueClassroom":"C","exampleSet":"second","trial_type":"survey-html-form","trial_index":64,"time_elapsed":1564013,"internal_node_id":"0.0-50.0-0.0","params":{"nStudents":24,"maxFlips":30,"completionMinutes":45,"basePay":8,"maxBonus":9,"perTrialBonus":0.5,"perTrialBonusThreshold":0.05,"exampleCost":0.01},"classroomParams":{"A":{"a":1,"b":4},"B":{"a":4,"b":1},"C":{"a":2,"b":8},"D":{"a":8,"b":2}},"conditions":["nonSeqFull","nonSeqPartial","seqNoFeedback","seqFeedback"],"classroomPairings":[["A","B"],["C","D"]],"coinWeights":[0.2,0.5,0.8],"subjectId":"ABW8U1U74P8MI","assignmentId":"3X0H8UUIT2A4NQ280OGN6T4XKYHSWN","hitId":"3ZG552ORAMQWHINBPXRJ4QCSG7OV2V","url":"https://gershmanlab.com/experiments/alicia/teaching/experiment/?hitId=3ZG552ORAMQWHINBPXRJ4QCSG7OV2V&workerId=ABW8U1U74P8MI&assignmentId=3X0H8UUIT2A4NQ280OGN6T4XKYHSWN&a=I80X7&tp_a=I80X7&b=3X0H8UUIT2A4NQ280OGN6T4XKYHSWN&tp_b=3X0H8UUIT2A4NQ280OGN6T4XKYHSWN&c=365717&tp_c=365717","firstResponseHeads":5,"firstResponseTails":5,"secondResponseHeads":8,"secondResponseTails":0,"totalHeads":13,"totalTails":5,"studentIndex":5,"studentTrueHypers":{"a":2,"b":8},"studentGuess":0.5357142857142857,"delta":0.0357142857142857,"bonus":0.32,"bonusSoFar":0.6,"totalExamples":18},{"rt":null,"stimulus":"Sending examples to student... ","response":null,"trial_type":"html-keyboard-response","trial_index":65,"time_elapsed":1565776,"internal_node_id":"0.0-51.0","params":{"nStudents":24,"maxFlips":30,"completionMinutes":45,"basePay":8,"maxBonus":9,"perTrialBonus":0.5,"perTrialBonusThreshold":0.05,"exampleCost":0.01},"classroomParams":{"A":{"a":1,"b":4},"B":{"a":4,"b":1},"C":{"a":2,"b":8},"D":{"a":8,"b":2}},"conditions":["nonSeqFull","nonSeqPartial","seqNoFeedback","seqFeedback"],"classroomPairings":[["A","B"],["C","D"]],"coinWeights":[0.2,0.5,0.8],"subjectId":"ABW8U1U74P8MI","assignmentId":"3X0H8UUIT2A4NQ280OGN6T4XKYHSWN","hitId":"3ZG552ORAMQWHINBPXRJ4QCSG7OV2V","url":"https://gershmanlab.com/experiments/alicia/teaching/experiment/?hitId=3ZG552ORAMQWHINBPXRJ4QCSG7OV2V&workerId=ABW8U1U74P8MI&assignmentId=3X0H8UUIT2A4NQ280OGN6T4XKYHSWN&a=I80X7&tp_a=I80X7&b=3X0H8UUIT2A4NQ280OGN6T4XKYHSWN&tp_b=3X0H8UUIT2A4NQ280OGN6T4XKYHSWN&c=365717&tp_c=365717"},{"rt":null,"stimulus":"Examples sent to student! Waiting for student...","response":null,"trial_type":"html-keyboard-response","trial_index":66,"time_elapsed":1570292,"internal_node_id":"0.0-52.0","params":{"nStudents":24,"maxFlips":30,"completionMinutes":45,"basePay":8,"maxBonus":9,"perTrialBonus":0.5,"perTrialBonusThreshold":0.05,"exampleCost":0.01},"classroomParams":{"A":{"a":1,"b":4},"B":{"a":4,"b":1},"C":{"a":2,"b":8},"D":{"a":8,"b":2}},"conditions":["nonSeqFull","nonSeqPartial","seqNoFeedback","seqFeedback"],"classroomPairings":[["A","B"],["C","D"]],"coinWeights":[0.2,0.5,0.8],"subjectId":"ABW8U1U74P8MI","assignmentId":"3X0H8UUIT2A4NQ280OGN6T4XKYHSWN","hitId":"3ZG552ORAMQWHINBPXRJ4QCSG7OV2V","url":"https://gershmanlab.com/experiments/alicia/teaching/experiment/?hitId=3ZG552ORAMQWHINBPXRJ4QCSG7OV2V&workerId=ABW8U1U74P8MI&assignmentId=3X0H8UUIT2A4NQ280OGN6T4XKYHSWN&a=I80X7&tp_a=I80X7&b=3X0H8UUIT2A4NQ280OGN6T4XKYHSWN&tp_b=3X0H8UUIT2A4NQ280OGN6T4XKYHSWN&c=365717&tp_c=365717"},{"rt":2751,"stimulus":"\n                <p>Student 6's first guess for coin weight: <b style=\"color:Tomato\";>0.35</b></p>\n                <p>Student 6's second guess for coin weight: <b style=\"color:Tomato\";>0.54</b></p>\n                <p>You received a bonus of <b>$0.32</b> based on the student's second guess.</p>\n                <p>Total bonus so far: <b>$0.60</b></p>\n                <p>Press any key to continue.</p>\n                ","response":" ","trial_type":"html-keyboard-response","trial_index":67,"time_elapsed":1573045,"internal_node_id":"0.0-53.0","params":{"nStudents":24,"maxFlips":30,"completionMinutes":45,"basePay":8,"maxBonus":9,"perTrialBonus":0.5,"perTrialBonusThreshold":0.05,"exampleCost":0.01},"classroomParams":{"A":{"a":1,"b":4},"B":{"a":4,"b":1},"C":{"a":2,"b":8},"D":{"a":8,"b":2}},"conditions":["nonSeqFull","nonSeqPartial","seqNoFeedback","seqFeedback"],"classroomPairings":[["A","B"],["C","D"]],"coinWeights":[0.2,0.5,0.8],"subjectId":"ABW8U1U74P8MI","assignmentId":"3X0H8UUIT2A4NQ280OGN6T4XKYHSWN","hitId":"3ZG552ORAMQWHINBPXRJ4QCSG7OV2V","url":"https://gershmanlab.com/experiments/alicia/teaching/experiment/?hitId=3ZG552ORAMQWHINBPXRJ4QCSG7OV2V&workerId=ABW8U1U74P8MI&assignmentId=3X0H8UUIT2A4NQ280OGN6T4XKYHSWN&a=I80X7&tp_a=I80X7&b=3X0H8UUIT2A4NQ280OGN6T4XKYHSWN&tp_b=3X0H8UUIT2A4NQ280OGN6T4XKYHSWN&c=365717&tp_c=365717"},{"rt":null,"stimulus":"<div style=\"font-size:60px;\">Next student</div>","response":null,"trial_type":"html-keyboard-response","trial_index":68,"time_elapsed":1575548,"internal_node_id":"0.0-54.0-0.0","params":{"nStudents":24,"maxFlips":30,"completionMinutes":45,"basePay":8,"maxBonus":9,"perTrialBonus":0.5,"perTrialBonusThreshold":0.05,"exampleCost":0.01},"classroomParams":{"A":{"a":1,"b":4},"B":{"a":4,"b":1},"C":{"a":2,"b":8},"D":{"a":8,"b":2}},"conditions":["nonSeqFull","nonSeqPartial","seqNoFeedback","seqFeedback"],"classroomPairings":[["A","B"],["C","D"]],"coinWeights":[0.2,0.5,0.8],"subjectId":"ABW8U1U74P8MI","assignmentId":"3X0H8UUIT2A4NQ280OGN6T4XKYHSWN","hitId":"3ZG552ORAMQWHINBPXRJ4QCSG7OV2V","url":"https://gershmanlab.com/experiments/alicia/teaching/experiment/?hitId=3ZG552ORAMQWHINBPXRJ4QCSG7OV2V&workerId=ABW8U1U74P8MI&assignmentId=3X0H8UUIT2A4NQ280OGN6T4XKYHSWN&a=I80X7&tp_a=I80X7&b=3X0H8UUIT2A4NQ280OGN6T4XKYHSWN&tp_b=3X0H8UUIT2A4NQ280OGN6T4XKYHSWN&c=365717&tp_c=365717"},{"rt":3980,"stimulus":"\n            <h4 style=\"color:Orange;\">Student 7</h4>\n            <h2>The weight of your coin is <b style=\"color:Tomato;\">0.5</b>.</h2>\n            <p>In this block, you will be giving <b>one</b> set of examples to Student 7.</p>\n                <p>You will receive feedback at the end of the block.</p>\n            <p></p>","response":0,"trial_type":"html-button-response","trial_index":69,"time_elapsed":1579530,"internal_node_id":"0.0-55.0","params":{"nStudents":24,"maxFlips":30,"completionMinutes":45,"basePay":8,"maxBonus":9,"perTrialBonus":0.5,"perTrialBonusThreshold":0.05,"exampleCost":0.01},"classroomParams":{"A":{"a":1,"b":4},"B":{"a":4,"b":1},"C":{"a":2,"b":8},"D":{"a":8,"b":2}},"conditions":["nonSeqFull","nonSeqPartial","seqNoFeedback","seqFeedback"],"classroomPairings":[["A","B"],["C","D"]],"coinWeights":[0.2,0.5,0.8],"subjectId":"ABW8U1U74P8MI","assignmentId":"3X0H8UUIT2A4NQ280OGN6T4XKYHSWN","hitId":"3ZG552ORAMQWHINBPXRJ4QCSG7OV2V","url":"https://gershmanlab.com/experiments/alicia/teaching/experiment/?hitId=3ZG552ORAMQWHINBPXRJ4QCSG7OV2V&workerId=ABW8U1U74P8MI&assignmentId=3X0H8UUIT2A4NQ280OGN6T4XKYHSWN&a=I80X7&tp_a=I80X7&b=3X0H8UUIT2A4NQ280OGN6T4XKYHSWN&tp_b=3X0H8UUIT2A4NQ280OGN6T4XKYHSWN&c=365717&tp_c=365717"},{"rt":12160,"response":{"heads":"7","tails":"0"},"type":"response","condition":"nonSeqFull","trueTheta":0.5,"classrooms":["C","D"],"studentTrueClassroom":"C","exampleSet":"first","trial_type":"survey-html-form","trial_index":70,"time_elapsed":1591693,"internal_node_id":"0.0-56.0-0.0","params":{"nStudents":24,"maxFlips":30,"completionMinutes":45,"basePay":8,"maxBonus":9,"perTrialBonus":0.5,"perTrialBonusThreshold":0.05,"exampleCost":0.01},"classroomParams":{"A":{"a":1,"b":4},"B":{"a":4,"b":1},"C":{"a":2,"b":8},"D":{"a":8,"b":2}},"conditions":["nonSeqFull","nonSeqPartial","seqNoFeedback","seqFeedback"],"classroomPairings":[["A","B"],["C","D"]],"coinWeights":[0.2,0.5,0.8],"subjectId":"ABW8U1U74P8MI","assignmentId":"3X0H8UUIT2A4NQ280OGN6T4XKYHSWN","hitId":"3ZG552ORAMQWHINBPXRJ4QCSG7OV2V","url":"https://gershmanlab.com/experiments/alicia/teaching/experiment/?hitId=3ZG552ORAMQWHINBPXRJ4QCSG7OV2V&workerId=ABW8U1U74P8MI&assignmentId=3X0H8UUIT2A4NQ280OGN6T4XKYHSWN&a=I80X7&tp_a=I80X7&b=3X0H8UUIT2A4NQ280OGN6T4XKYHSWN&tp_b=3X0H8UUIT2A4NQ280OGN6T4XKYHSWN&c=365717&tp_c=365717","heads":7,"tails":0,"studentIndex":6,"studentTrueHypers":{"a":2,"b":8},"studentGuess":0.5294117647058824,"delta":0.02941176470588236,"totalExamples":7,"bonus":0.43,"bonusSoFar":1.03},{"rt":null,"stimulus":"Sending examples to student... ","response":null,"trial_type":"html-keyboard-response","trial_index":71,"time_elapsed":1593210,"internal_node_id":"0.0-57.0","params":{"nStudents":24,"maxFlips":30,"completionMinutes":45,"basePay":8,"maxBonus":9,"perTrialBonus":0.5,"perTrialBonusThreshold":0.05,"exampleCost":0.01},"classroomParams":{"A":{"a":1,"b":4},"B":{"a":4,"b":1},"C":{"a":2,"b":8},"D":{"a":8,"b":2}},"conditions":["nonSeqFull","nonSeqPartial","seqNoFeedback","seqFeedback"],"classroomPairings":[["A","B"],["C","D"]],"coinWeights":[0.2,0.5,0.8],"subjectId":"ABW8U1U74P8MI","assignmentId":"3X0H8UUIT2A4NQ280OGN6T4XKYHSWN","hitId":"3ZG552ORAMQWHINBPXRJ4QCSG7OV2V","url":"https://gershmanlab.com/experiments/alicia/teaching/experiment/?hitId=3ZG552ORAMQWHINBPXRJ4QCSG7OV2V&workerId=ABW8U1U74P8MI&assignmentId=3X0H8UUIT2A4NQ280OGN6T4XKYHSWN&a=I80X7&tp_a=I80X7&b=3X0H8UUIT2A4NQ280OGN6T4XKYHSWN&tp_b=3X0H8UUIT2A4NQ280OGN6T4XKYHSWN&c=365717&tp_c=365717"},{"rt":null,"stimulus":"Examples sent to student! Waiting for student...","response":null,"trial_type":"html-keyboard-response","trial_index":72,"time_elapsed":1599221,"internal_node_id":"0.0-58.0","params":{"nStudents":24,"maxFlips":30,"completionMinutes":45,"basePay":8,"maxBonus":9,"perTrialBonus":0.5,"perTrialBonusThreshold":0.05,"exampleCost":0.01},"classroomParams":{"A":{"a":1,"b":4},"B":{"a":4,"b":1},"C":{"a":2,"b":8},"D":{"a":8,"b":2}},"conditions":["nonSeqFull","nonSeqPartial","seqNoFeedback","seqFeedback"],"classroomPairings":[["A","B"],["C","D"]],"coinWeights":[0.2,0.5,0.8],"subjectId":"ABW8U1U74P8MI","assignmentId":"3X0H8UUIT2A4NQ280OGN6T4XKYHSWN","hitId":"3ZG552ORAMQWHINBPXRJ4QCSG7OV2V","url":"https://gershmanlab.com/experiments/alicia/teaching/experiment/?hitId=3ZG552ORAMQWHINBPXRJ4QCSG7OV2V&workerId=ABW8U1U74P8MI&assignmentId=3X0H8UUIT2A4NQ280OGN6T4XKYHSWN&a=I80X7&tp_a=I80X7&b=3X0H8UUIT2A4NQ280OGN6T4XKYHSWN&tp_b=3X0H8UUIT2A4NQ280OGN6T4XKYHSWN&c=365717&tp_c=365717"},{"rt":3142,"stimulus":"\n                <p>Student's guess for coin weight: <b style=\"color:Tomato;\">0.53</b></p>\n                <p>You received a bonus of <b>$0.43</b>. Total bonus so far: <b>$1.03</b></b></p>\n                <p></p>\n                <p>Press any key to continue.</p>\n                ","response":" ","trial_type":"html-keyboard-response","trial_index":73,"time_elapsed":1602365,"internal_node_id":"0.0-59.0","params":{"nStudents":24,"maxFlips":30,"completionMinutes":45,"basePay":8,"maxBonus":9,"perTrialBonus":0.5,"perTrialBonusThreshold":0.05,"exampleCost":0.01},"classroomParams":{"A":{"a":1,"b":4},"B":{"a":4,"b":1},"C":{"a":2,"b":8},"D":{"a":8,"b":2}},"conditions":["nonSeqFull","nonSeqPartial","seqNoFeedback","seqFeedback"],"classroomPairings":[["A","B"],["C","D"]],"coinWeights":[0.2,0.5,0.8],"subjectId":"ABW8U1U74P8MI","assignmentId":"3X0H8UUIT2A4NQ280OGN6T4XKYHSWN","hitId":"3ZG552ORAMQWHINBPXRJ4QCSG7OV2V","url":"https://gershmanlab.com/experiments/alicia/teaching/experiment/?hitId=3ZG552ORAMQWHINBPXRJ4QCSG7OV2V&workerId=ABW8U1U74P8MI&assignmentId=3X0H8UUIT2A4NQ280OGN6T4XKYHSWN&a=I80X7&tp_a=I80X7&b=3X0H8UUIT2A4NQ280OGN6T4XKYHSWN&tp_b=3X0H8UUIT2A4NQ280OGN6T4XKYHSWN&c=365717&tp_c=365717"},{"rt":null,"stimulus":"<div style=\"font-size:60px;\">Next student</div>","response":null,"trial_type":"html-keyboard-response","trial_index":74,"time_elapsed":1605380,"internal_node_id":"0.0-60.0-0.0","params":{"nStudents":24,"maxFlips":30,"completionMinutes":45,"basePay":8,"maxBonus":9,"perTrialBonus":0.5,"perTrialBonusThreshold":0.05,"exampleCost":0.01},"classroomParams":{"A":{"a":1,"b":4},"B":{"a":4,"b":1},"C":{"a":2,"b":8},"D":{"a":8,"b":2}},"conditions":["nonSeqFull","nonSeqPartial","seqNoFeedback","seqFeedback"],"classroomPairings":[["A","B"],["C","D"]],"coinWeights":[0.2,0.5,0.8],"subjectId":"ABW8U1U74P8MI","assignmentId":"3X0H8UUIT2A4NQ280OGN6T4XKYHSWN","hitId":"3ZG552ORAMQWHINBPXRJ4QCSG7OV2V","url":"https://gershmanlab.com/experiments/alicia/teaching/experiment/?hitId=3ZG552ORAMQWHINBPXRJ4QCSG7OV2V&workerId=ABW8U1U74P8MI&assignmentId=3X0H8UUIT2A4NQ280OGN6T4XKYHSWN&a=I80X7&tp_a=I80X7&b=3X0H8UUIT2A4NQ280OGN6T4XKYHSWN&tp_b=3X0H8UUIT2A4NQ280OGN6T4XKYHSWN&c=365717&tp_c=365717"},{"rt":1436,"stimulus":"\n            <h4 style=\"color:Orange;\">Student 8</h4>\n            <h2>The weight of your coin is <b style=\"color:Tomato;\">0.8</b>.</h2>\n            <p>In this block, you will be giving <b>one</b> set of examples to Student 8.</p>\n                <p>You will receive feedback at the end of the block.</p>\n            <p></p>","response":0,"trial_type":"html-button-response","trial_index":75,"time_elapsed":1606818,"internal_node_id":"0.0-61.0","params":{"nStudents":24,"maxFlips":30,"completionMinutes":45,"basePay":8,"maxBonus":9,"perTrialBonus":0.5,"perTrialBonusThreshold":0.05,"exampleCost":0.01},"classroomParams":{"A":{"a":1,"b":4},"B":{"a":4,"b":1},"C":{"a":2,"b":8},"D":{"a":8,"b":2}},"conditions":["nonSeqFull","nonSeqPartial","seqNoFeedback","seqFeedback"],"classroomPairings":[["A","B"],["C","D"]],"coinWeights":[0.2,0.5,0.8],"subjectId":"ABW8U1U74P8MI","assignmentId":"3X0H8UUIT2A4NQ280OGN6T4XKYHSWN","hitId":"3ZG552ORAMQWHINBPXRJ4QCSG7OV2V","url":"https://gershmanlab.com/experiments/alicia/teaching/experiment/?hitId=3ZG552ORAMQWHINBPXRJ4QCSG7OV2V&workerId=ABW8U1U74P8MI&assignmentId=3X0H8UUIT2A4NQ280OGN6T4XKYHSWN&a=I80X7&tp_a=I80X7&b=3X0H8UUIT2A4NQ280OGN6T4XKYHSWN&tp_b=3X0H8UUIT2A4NQ280OGN6T4XKYHSWN&c=365717&tp_c=365717"},{"rt":14925,"response":{"heads":"8","tails":"8"},"type":"response","condition":"nonSeqPartial","trueTheta":0.8,"classrooms":["A","B"],"studentTrueClassroom":"A","exampleSet":"first","trial_type":"survey-html-form","trial_index":76,"time_elapsed":1621745,"internal_node_id":"0.0-62.0-0.0","params":{"nStudents":24,"maxFlips":30,"completionMinutes":45,"basePay":8,"maxBonus":9,"perTrialBonus":0.5,"perTrialBonusThreshold":0.05,"exampleCost":0.01},"classroomParams":{"A":{"a":1,"b":4},"B":{"a":4,"b":1},"C":{"a":2,"b":8},"D":{"a":8,"b":2}},"conditions":["nonSeqFull","nonSeqPartial","seqNoFeedback","seqFeedback"],"classroomPairings":[["A","B"],["C","D"]],"coinWeights":[0.2,0.5,0.8],"subjectId":"ABW8U1U74P8MI","assignmentId":"3X0H8UUIT2A4NQ280OGN6T4XKYHSWN","hitId":"3ZG552ORAMQWHINBPXRJ4QCSG7OV2V","url":"https://gershmanlab.com/experiments/alicia/teaching/experiment/?hitId=3ZG552ORAMQWHINBPXRJ4QCSG7OV2V&workerId=ABW8U1U74P8MI&assignmentId=3X0H8UUIT2A4NQ280OGN6T4XKYHSWN&a=I80X7&tp_a=I80X7&b=3X0H8UUIT2A4NQ280OGN6T4XKYHSWN&tp_b=3X0H8UUIT2A4NQ280OGN6T4XKYHSWN&c=365717&tp_c=365717","heads":8,"tails":8,"studentIndex":7,"studentTrueHypers":{"a":1,"b":4},"studentGuess":0.42857142857142855,"delta":0.3714285714285715,"totalExamples":16,"bonus":0,"bonusSoFar":1.03},{"rt":null,"stimulus":"Sending examples to student... ","response":null,"trial_type":"html-keyboard-response","trial_index":77,"time_elapsed":1623001,"internal_node_id":"0.0-63.0","params":{"nStudents":24,"maxFlips":30,"completionMinutes":45,"basePay":8,"maxBonus":9,"perTrialBonus":0.5,"perTrialBonusThreshold":0.05,"exampleCost":0.01},"classroomParams":{"A":{"a":1,"b":4},"B":{"a":4,"b":1},"C":{"a":2,"b":8},"D":{"a":8,"b":2}},"conditions":["nonSeqFull","nonSeqPartial","seqNoFeedback","seqFeedback"],"classroomPairings":[["A","B"],["C","D"]],"coinWeights":[0.2,0.5,0.8],"subjectId":"ABW8U1U74P8MI","assignmentId":"3X0H8UUIT2A4NQ280OGN6T4XKYHSWN","hitId":"3ZG552ORAMQWHINBPXRJ4QCSG7OV2V","url":"https://gershmanlab.com/experiments/alicia/teaching/experiment/?hitId=3ZG552ORAMQWHINBPXRJ4QCSG7OV2V&workerId=ABW8U1U74P8MI&assignmentId=3X0H8UUIT2A4NQ280OGN6T4XKYHSWN&a=I80X7&tp_a=I80X7&b=3X0H8UUIT2A4NQ280OGN6T4XKYHSWN&tp_b=3X0H8UUIT2A4NQ280OGN6T4XKYHSWN&c=365717&tp_c=365717"},{"rt":null,"stimulus":"Examples sent to student! Waiting for student...","response":null,"trial_type":"html-keyboard-response","trial_index":78,"time_elapsed":1629005,"internal_node_id":"0.0-64.0","params":{"nStudents":24,"maxFlips":30,"completionMinutes":45,"basePay":8,"maxBonus":9,"perTrialBonus":0.5,"perTrialBonusThreshold":0.05,"exampleCost":0.01},"classroomParams":{"A":{"a":1,"b":4},"B":{"a":4,"b":1},"C":{"a":2,"b":8},"D":{"a":8,"b":2}},"conditions":["nonSeqFull","nonSeqPartial","seqNoFeedback","seqFeedback"],"classroomPairings":[["A","B"],["C","D"]],"coinWeights":[0.2,0.5,0.8],"subjectId":"ABW8U1U74P8MI","assignmentId":"3X0H8UUIT2A4NQ280OGN6T4XKYHSWN","hitId":"3ZG552ORAMQWHINBPXRJ4QCSG7OV2V","url":"https://gershmanlab.com/experiments/alicia/teaching/experiment/?hitId=3ZG552ORAMQWHINBPXRJ4QCSG7OV2V&workerId=ABW8U1U74P8MI&assignmentId=3X0H8UUIT2A4NQ280OGN6T4XKYHSWN&a=I80X7&tp_a=I80X7&b=3X0H8UUIT2A4NQ280OGN6T4XKYHSWN&tp_b=3X0H8UUIT2A4NQ280OGN6T4XKYHSWN&c=365717&tp_c=365717"},{"rt":2263,"stimulus":"\n                <p>Student's guess for coin weight: <b style=\"color:Tomato;\">0.43</b></p>\n                <p>You received a bonus of <b>$0</b>. Total bonus so far: <b>$1.03</b></b></p>\n                <p></p>\n                <p>Press any key to continue.</p>\n                ","response":" ","trial_type":"html-keyboard-response","trial_index":79,"time_elapsed":1631270,"internal_node_id":"0.0-65.0","params":{"nStudents":24,"maxFlips":30,"completionMinutes":45,"basePay":8,"maxBonus":9,"perTrialBonus":0.5,"perTrialBonusThreshold":0.05,"exampleCost":0.01},"classroomParams":{"A":{"a":1,"b":4},"B":{"a":4,"b":1},"C":{"a":2,"b":8},"D":{"a":8,"b":2}},"conditions":["nonSeqFull","nonSeqPartial","seqNoFeedback","seqFeedback"],"classroomPairings":[["A","B"],["C","D"]],"coinWeights":[0.2,0.5,0.8],"subjectId":"ABW8U1U74P8MI","assignmentId":"3X0H8UUIT2A4NQ280OGN6T4XKYHSWN","hitId":"3ZG552ORAMQWHINBPXRJ4QCSG7OV2V","url":"https://gershmanlab.com/experiments/alicia/teaching/experiment/?hitId=3ZG552ORAMQWHINBPXRJ4QCSG7OV2V&workerId=ABW8U1U74P8MI&assignmentId=3X0H8UUIT2A4NQ280OGN6T4XKYHSWN&a=I80X7&tp_a=I80X7&b=3X0H8UUIT2A4NQ280OGN6T4XKYHSWN&tp_b=3X0H8UUIT2A4NQ280OGN6T4XKYHSWN&c=365717&tp_c=365717"},{"rt":null,"stimulus":"<div style=\"font-size:60px;\">Next student</div>","response":null,"trial_type":"html-keyboard-response","trial_index":80,"time_elapsed":1633529,"internal_node_id":"0.0-66.0-0.0","params":{"nStudents":24,"maxFlips":30,"completionMinutes":45,"basePay":8,"maxBonus":9,"perTrialBonus":0.5,"perTrialBonusThreshold":0.05,"exampleCost":0.01},"classroomParams":{"A":{"a":1,"b":4},"B":{"a":4,"b":1},"C":{"a":2,"b":8},"D":{"a":8,"b":2}},"conditions":["nonSeqFull","nonSeqPartial","seqNoFeedback","seqFeedback"],"classroomPairings":[["A","B"],["C","D"]],"coinWeights":[0.2,0.5,0.8],"subjectId":"ABW8U1U74P8MI","assignmentId":"3X0H8UUIT2A4NQ280OGN6T4XKYHSWN","hitId":"3ZG552ORAMQWHINBPXRJ4QCSG7OV2V","url":"https://gershmanlab.com/experiments/alicia/teaching/experiment/?hitId=3ZG552ORAMQWHINBPXRJ4QCSG7OV2V&workerId=ABW8U1U74P8MI&assignmentId=3X0H8UUIT2A4NQ280OGN6T4XKYHSWN&a=I80X7&tp_a=I80X7&b=3X0H8UUIT2A4NQ280OGN6T4XKYHSWN&tp_b=3X0H8UUIT2A4NQ280OGN6T4XKYHSWN&c=365717&tp_c=365717"},{"rt":2480,"stimulus":"\n            <h4 style=\"color:Orange;\">Student 9</h4>\n            <h2>The weight of your coin is <b style=\"color:Tomato;\">0.8</b>.</h2>\n            <p>In this block, you will be giving <b>two</b> sets of examples to Student 9.</p>\n                <p>You will receive feedback at the end of the block.</p>\n            <p></p>","response":0,"trial_type":"html-button-response","trial_index":81,"time_elapsed":1636011,"internal_node_id":"0.0-67.0","params":{"nStudents":24,"maxFlips":30,"completionMinutes":45,"basePay":8,"maxBonus":9,"perTrialBonus":0.5,"perTrialBonusThreshold":0.05,"exampleCost":0.01},"classroomParams":{"A":{"a":1,"b":4},"B":{"a":4,"b":1},"C":{"a":2,"b":8},"D":{"a":8,"b":2}},"conditions":["nonSeqFull","nonSeqPartial","seqNoFeedback","seqFeedback"],"classroomPairings":[["A","B"],["C","D"]],"coinWeights":[0.2,0.5,0.8],"subjectId":"ABW8U1U74P8MI","assignmentId":"3X0H8UUIT2A4NQ280OGN6T4XKYHSWN","hitId":"3ZG552ORAMQWHINBPXRJ4QCSG7OV2V","url":"https://gershmanlab.com/experiments/alicia/teaching/experiment/?hitId=3ZG552ORAMQWHINBPXRJ4QCSG7OV2V&workerId=ABW8U1U74P8MI&assignmentId=3X0H8UUIT2A4NQ280OGN6T4XKYHSWN&a=I80X7&tp_a=I80X7&b=3X0H8UUIT2A4NQ280OGN6T4XKYHSWN&tp_b=3X0H8UUIT2A4NQ280OGN6T4XKYHSWN&c=365717&tp_c=365717"},{"rt":10864,"response":{"heads":"8","tails":"0"},"type":"response","condition":"seqNoFeedback","trueTheta":0.8,"classrooms":["C","D"],"studentTrueClassroom":"C","exampleSet":"first","trial_type":"survey-html-form","trial_index":82,"time_elapsed":1646877,"internal_node_id":"0.0-68.0-0.0","params":{"nStudents":24,"maxFlips":30,"completionMinutes":45,"basePay":8,"maxBonus":9,"perTrialBonus":0.5,"perTrialBonusThreshold":0.05,"exampleCost":0.01},"classroomParams":{"A":{"a":1,"b":4},"B":{"a":4,"b":1},"C":{"a":2,"b":8},"D":{"a":8,"b":2}},"conditions":["nonSeqFull","nonSeqPartial","seqNoFeedback","seqFeedback"],"classroomPairings":[["A","B"],["C","D"]],"coinWeights":[0.2,0.5,0.8],"subjectId":"ABW8U1U74P8MI","assignmentId":"3X0H8UUIT2A4NQ280OGN6T4XKYHSWN","hitId":"3ZG552ORAMQWHINBPXRJ4QCSG7OV2V","url":"https://gershmanlab.com/experiments/alicia/teaching/experiment/?hitId=3ZG552ORAMQWHINBPXRJ4QCSG7OV2V&workerId=ABW8U1U74P8MI&assignmentId=3X0H8UUIT2A4NQ280OGN6T4XKYHSWN&a=I80X7&tp_a=I80X7&b=3X0H8UUIT2A4NQ280OGN6T4XKYHSWN&tp_b=3X0H8UUIT2A4NQ280OGN6T4XKYHSWN&c=365717&tp_c=365717","heads":8,"tails":0,"studentIndex":8,"studentTrueHypers":{"a":2,"b":8},"studentGuess":0.5555555555555556,"delta":0.24444444444444446,"totalExamples":8,"bonusSoFar":1.03},{"rt":null,"stimulus":"Sending examples to student... ","response":null,"trial_type":"html-keyboard-response","trial_index":83,"time_elapsed":1648143,"internal_node_id":"0.0-69.0","params":{"nStudents":24,"maxFlips":30,"completionMinutes":45,"basePay":8,"maxBonus":9,"perTrialBonus":0.5,"perTrialBonusThreshold":0.05,"exampleCost":0.01},"classroomParams":{"A":{"a":1,"b":4},"B":{"a":4,"b":1},"C":{"a":2,"b":8},"D":{"a":8,"b":2}},"conditions":["nonSeqFull","nonSeqPartial","seqNoFeedback","seqFeedback"],"classroomPairings":[["A","B"],["C","D"]],"coinWeights":[0.2,0.5,0.8],"subjectId":"ABW8U1U74P8MI","assignmentId":"3X0H8UUIT2A4NQ280OGN6T4XKYHSWN","hitId":"3ZG552ORAMQWHINBPXRJ4QCSG7OV2V","url":"https://gershmanlab.com/experiments/alicia/teaching/experiment/?hitId=3ZG552ORAMQWHINBPXRJ4QCSG7OV2V&workerId=ABW8U1U74P8MI&assignmentId=3X0H8UUIT2A4NQ280OGN6T4XKYHSWN&a=I80X7&tp_a=I80X7&b=3X0H8UUIT2A4NQ280OGN6T4XKYHSWN&tp_b=3X0H8UUIT2A4NQ280OGN6T4XKYHSWN&c=365717&tp_c=365717"},{"rt":null,"stimulus":"Examples sent to student! Waiting for student...","response":null,"trial_type":"html-keyboard-response","trial_index":84,"time_elapsed":1654157,"internal_node_id":"0.0-70.0","params":{"nStudents":24,"maxFlips":30,"completionMinutes":45,"basePay":8,"maxBonus":9,"perTrialBonus":0.5,"perTrialBonusThreshold