[{"rt":null,"stimulus":"Welcome to the experiment. Press any key to begin.","response":null,"trial_type":"html-keyboard-response","trial_index":0,"time_elapsed":30015,"internal_node_id":"0.0-0.0","params":{"nStudents":24,"maxFlips":30,"completionMinutes":45,"basePay":8,"maxBonus":9,"perTrialBonus":0.5,"perTrialBonusThreshold":0.05,"exampleCost":0.01},"classroomParams":{"A":{"a":1,"b":4},"B":{"a":4,"b":1},"C":{"a":2,"b":8},"D":{"a":8,"b":2}},"conditions":["nonSeqFull","nonSeqPartial","seqNoFeedback","seqFeedback"],"classroomPairings":[["A","B"],["C","D"]],"coinWeights":[0.2,0.5,0.8],"subjectId":"ACKG8OU1KHKO2","assignmentId":"30H4UDGLT34B5MS245662QXVZDHMPX","hitId":"3UDTAB6HH6LRO17U79I9TKUGSHV90J","url":"https://gershmanlab.com/experiments/alicia/teaching/experiment/?hitId=3UDTAB6HH6LRO17U79I9TKUGSHV90J&workerId=ACKG8OU1KHKO2&assignmentId=30H4UDGLT34B5MS245662QXVZDHMPX&a=LUH09&tp_a=LUH09&b=30H4UDGLT34B5MS245662QXVZDHMPX&tp_b=30H4UDGLT34B5MS245662QXVZDHMPX&c=365799&tp_c=365799"},{"rt":242908,"stimulus":"\n        <h3>Please read this consent agreement carefully before deciding whether to participate in this experiment.</h3>\n        <p><b>Purpose of the research:</b> To examine how people teach effectively.</p>\n        <p><b>What you will do in this research:</b> You will teach students the weights of different coins.</p>\n        <p><b>Time required:</b> This experiment will take 45 minutes to complete.</p>\n        <p><b>Risks:</b> There are no anticipated risks associated with participating in this study.             The effects of participating should be comparable to those you would experience from viewing a computer monitor             and using a mouse and keyboard for the duration of the experiment.</p>\n        <p><b>Benefits:</b> The study provides important information about the nature of teaching.</p>\n        <p><b>Compensation:</b> You will receive <b>$8</b> for completing the experiment and a performance bonus of up to <b>$9</b>.</p>\n        <p><b>Confidentiality:</b> Your participation in this study will remain confidential.             No personally identifiable information will be associated with your data.             Your de-identified data may be shared with other researchers and used in future projects.</p>\n        <p><b>Participation and withdrawal:</b> Your participation in this study is completely voluntary and             you may refuse to participate or you may choose to withdraw at any time without penalty or loss of\n            benefits to which you are otherwise entitled.</p>\n        <p><b>How to contact the researcher:</b> If you have questions or concerns about your participation            or payment, or want to request a summary of research findings, please contact\n            Alicia Chen, aliciachen@college.harvard.edu.</p>\n        <p><b>Whom to contact about your rights in this research:</b> For questions, concerns, suggestions,             or complaints that have not been or cannot be addressed by the researcher, or to report             research-related harm, please contact the Committee on the Use of Human Subjects in Research at Harvard University,             1414 Massachusetts Avenue, Second Floor, Cambridge, MA 02138. Phone: 617-496-2847. Email: cuhs@fas.harvard.edu.</p>\n        ","response":0,"trial_type":"html-button-response","trial_index":1,"time_elapsed":272916,"internal_node_id":"0.0-1.0","params":{"nStudents":24,"maxFlips":30,"completionMinutes":45,"basePay":8,"maxBonus":9,"perTrialBonus":0.5,"perTrialBonusThreshold":0.05,"exampleCost":0.01},"classroomParams":{"A":{"a":1,"b":4},"B":{"a":4,"b":1},"C":{"a":2,"b":8},"D":{"a":8,"b":2}},"conditions":["nonSeqFull","nonSeqPartial","seqNoFeedback","seqFeedback"],"classroomPairings":[["A","B"],["C","D"]],"coinWeights":[0.2,0.5,0.8],"subjectId":"ACKG8OU1KHKO2","assignmentId":"30H4UDGLT34B5MS245662QXVZDHMPX","hitId":"3UDTAB6HH6LRO17U79I9TKUGSHV90J","url":"https://gershmanlab.com/experiments/alicia/teaching/experiment/?hitId=3UDTAB6HH6LRO17U79I9TKUGSHV90J&workerId=ACKG8OU1KHKO2&assignmentId=30H4UDGLT34B5MS245662QXVZDHMPX&a=LUH09&tp_a=LUH09&b=30H4UDGLT34B5MS245662QXVZDHMPX&tp_b=30H4UDGLT34B5MS245662QXVZDHMPX&c=365799&tp_c=365799"},{"view_history":[{"page_index":0,"viewing_time":3078},{"page_index":1,"viewing_time":6914},{"page_index":2,"viewing_time":4404},{"page_index":3,"viewing_time":3252},{"page_index":4,"viewing_time":2907},{"page_index":5,"viewing_time":3689},{"page_index":6,"viewing_time":5816}],"rt":30060,"trial_type":"instructions","trial_index":2,"time_elapsed":302975,"internal_node_id":"0.0-2.0-0.0","params":{"nStudents":24,"maxFlips":30,"completionMinutes":45,"basePay":8,"maxBonus":9,"perTrialBonus":0.5,"perTrialBonusThreshold":0.05,"exampleCost":0.01},"classroomParams":{"A":{"a":1,"b":4},"B":{"a":4,"b":1},"C":{"a":2,"b":8},"D":{"a":8,"b":2}},"conditions":["nonSeqFull","nonSeqPartial","seqNoFeedback","seqFeedback"],"classroomPairings":[["A","B"],["C","D"]],"coinWeights":[0.2,0.5,0.8],"subjectId":"ACKG8OU1KHKO2","assignmentId":"30H4UDGLT34B5MS245662QXVZDHMPX","hitId":"3UDTAB6HH6LRO17U79I9TKUGSHV90J","url":"https://gershmanlab.com/experiments/alicia/teaching/experiment/?hitId=3UDTAB6HH6LRO17U79I9TKUGSHV90J&workerId=ACKG8OU1KHKO2&assignmentId=30H4UDGLT34B5MS245662QXVZDHMPX&a=LUH09&tp_a=LUH09&b=30H4UDGLT34B5MS245662QXVZDHMPX&tp_b=30H4UDGLT34B5MS245662QXVZDHMPX&c=365799&tp_c=365799"},{"rt":266696,"response":{"Q0":"Students in different classrooms have seen a different proportion of fair and unfair coins before seeing the examples you select for them.","Q1":"By <b>considering the student's classroom information</b> so that I can teach efficiently and accurately/helpfully at the same time (because each example I give to the student costs money!).","Q2":"The coin lands heads 90% of the time.","Q3":"No, I will teach a <b>new</b> student each time.","Q4":"The students are also on the same alien planet as you, where coins can be unfair.","Q5":"Based on the student's second (and final) guess."},"question_order":[4,5,2,3,1,0],"trial_type":"survey-multi-choice","trial_index":3,"time_elapsed":569663,"internal_node_id":"0.0-2.0-1.0","params":{"nStudents":24,"maxFlips":30,"completionMinutes":45,"basePay":8,"maxBonus":9,"perTrialBonus":0.5,"perTrialBonusThreshold":0.05,"exampleCost":0.01},"classroomParams":{"A":{"a":1,"b":4},"B":{"a":4,"b":1},"C":{"a":2,"b":8},"D":{"a":8,"b":2}},"conditions":["nonSeqFull","nonSeqPartial","seqNoFeedback","seqFeedback"],"classroomPairings":[["A","B"],["C","D"]],"coinWeights":[0.2,0.5,0.8],"subjectId":"ACKG8OU1KHKO2","assignmentId":"30H4UDGLT34B5MS245662QXVZDHMPX","hitId":"3UDTAB6HH6LRO17U79I9TKUGSHV90J","url":"https://gershmanlab.com/experiments/alicia/teaching/experiment/?hitId=3UDTAB6HH6LRO17U79I9TKUGSHV90J&workerId=ACKG8OU1KHKO2&assignmentId=30H4UDGLT34B5MS245662QXVZDHMPX&a=LUH09&tp_a=LUH09&b=30H4UDGLT34B5MS245662QXVZDHMPX&tp_b=30H4UDGLT34B5MS245662QXVZDHMPX&c=365799&tp_c=365799","pass":false},{"rt":1769,"stimulus":"Oops, you have missed question(s) on the comprehension check! We'll show you the instructions again.","response":0,"trial_type":"html-button-response","trial_index":4,"time_elapsed":571435,"internal_node_id":"0.0-2.0-2.0-0.0","params":{"nStudents":24,"maxFlips":30,"completionMinutes":45,"basePay":8,"maxBonus":9,"perTrialBonus":0.5,"perTrialBonusThreshold":0.05,"exampleCost":0.01},"classroomParams":{"A":{"a":1,"b":4},"B":{"a":4,"b":1},"C":{"a":2,"b":8},"D":{"a":8,"b":2}},"conditions":["nonSeqFull","nonSeqPartial","seqNoFeedback","seqFeedback"],"classroomPairings":[["A","B"],["C","D"]],"coinWeights":[0.2,0.5,0.8],"subjectId":"ACKG8OU1KHKO2","assignmentId":"30H4UDGLT34B5MS245662QXVZDHMPX","hitId":"3UDTAB6HH6LRO17U79I9TKUGSHV90J","url":"https://gershmanlab.com/experiments/alicia/teaching/experiment/?hitId=3UDTAB6HH6LRO17U79I9TKUGSHV90J&workerId=ACKG8OU1KHKO2&assignmentId=30H4UDGLT34B5MS245662QXVZDHMPX&a=LUH09&tp_a=LUH09&b=30H4UDGLT34B5MS245662QXVZDHMPX&tp_b=30H4UDGLT34B5MS245662QXVZDHMPX&c=365799&tp_c=365799"},{"view_history":[{"page_index":0,"viewing_time":852},{"page_index":1,"viewing_time":401},{"page_index":2,"viewing_time":1005},{"page_index":3,"viewing_time":244},{"page_index":4,"viewing_time":788},{"page_index":5,"viewing_time":9470},{"page_index":4,"viewing_time":995},{"page_index":5,"viewing_time":5707},{"page_index":6,"viewing_time":1591}],"rt":21054,"trial_type":"instructions","trial_index":5,"time_elapsed":592489,"internal_node_id":"0.0-2.1-0.1","params":{"nStudents":24,"maxFlips":30,"completionMinutes":45,"basePay":8,"maxBonus":9,"perTrialBonus":0.5,"perTrialBonusThreshold":0.05,"exampleCost":0.01},"classroomParams":{"A":{"a":1,"b":4},"B":{"a":4,"b":1},"C":{"a":2,"b":8},"D":{"a":8,"b":2}},"conditions":["nonSeqFull","nonSeqPartial","seqNoFeedback","seqFeedback"],"classroomPairings":[["A","B"],["C","D"]],"coinWeights":[0.2,0.5,0.8],"subjectId":"ACKG8OU1KHKO2","assignmentId":"30H4UDGLT34B5MS245662QXVZDHMPX","hitId":"3UDTAB6HH6LRO17U79I9TKUGSHV90J","url":"https://gershmanlab.com/experiments/alicia/teaching/experiment/?hitId=3UDTAB6HH6LRO17U79I9TKUGSHV90J&workerId=ACKG8OU1KHKO2&assignmentId=30H4UDGLT34B5MS245662QXVZDHMPX&a=LUH09&tp_a=LUH09&b=30H4UDGLT34B5MS245662QXVZDHMPX&tp_b=30H4UDGLT34B5MS245662QXVZDHMPX&c=365799&tp_c=365799"},{"rt":55866,"response":{"Q0":"Students in different classrooms have seen a different proportion of fair and unfair coins before seeing the examples you select for them.","Q1":"By <b>considering the student's classroom information</b> so that I can teach efficiently and accurately/helpfully at the same time (because each example I give to the student costs money!).","Q2":"The coin lands heads 90% of the time.","Q3":"No, I will teach a <b>new</b> student each time.","Q4":"The students are also on the same alien planet as you, where coins can be unfair.","Q5":"Based on the student's second (and final) guess."},"question_order":[5,0,2,1,4,3],"trial_type":"survey-multi-choice","trial_index":6,"time_elapsed":648354,"internal_node_id":"0.0-2.1-1.1","params":{"nStudents":24,"maxFlips":30,"completionMinutes":45,"basePay":8,"maxBonus":9,"perTrialBonus":0.5,"perTrialBonusThreshold":0.05,"exampleCost":0.01},"classroomParams":{"A":{"a":1,"b":4},"B":{"a":4,"b":1},"C":{"a":2,"b":8},"D":{"a":8,"b":2}},"conditions":["nonSeqFull","nonSeqPartial","seqNoFeedback","seqFeedback"],"classroomPairings":[["A","B"],["C","D"]],"coinWeights":[0.2,0.5,0.8],"subjectId":"ACKG8OU1KHKO2","assignmentId":"30H4UDGLT34B5MS245662QXVZDHMPX","hitId":"3UDTAB6HH6LRO17U79I9TKUGSHV90J","url":"https://gershmanlab.com/experiments/alicia/teaching/experiment/?hitId=3UDTAB6HH6LRO17U79I9TKUGSHV90J&workerId=ACKG8OU1KHKO2&assignmentId=30H4UDGLT34B5MS245662QXVZDHMPX&a=LUH09&tp_a=LUH09&b=30H4UDGLT34B5MS245662QXVZDHMPX&tp_b=30H4UDGLT34B5MS245662QXVZDHMPX&c=365799&tp_c=365799","pass":false},{"rt":1324,"stimulus":"Oops, you have missed question(s) on the comprehension check! We'll show you the instructions again.","response":0,"trial_type":"html-button-response","trial_index":7,"time_elapsed":649680,"internal_node_id":"0.0-2.1-2.1-0.1","params":{"nStudents":24,"maxFlips":30,"completionMinutes":45,"basePay":8,"maxBonus":9,"perTrialBonus":0.5,"perTrialBonusThreshold":0.05,"exampleCost":0.01},"classroomParams":{"A":{"a":1,"b":4},"B":{"a":4,"b":1},"C":{"a":2,"b":8},"D":{"a":8,"b":2}},"conditions":["nonSeqFull","nonSeqPartial","seqNoFeedback","seqFeedback"],"classroomPairings":[["A","B"],["C","D"]],"coinWeights":[0.2,0.5,0.8],"subjectId":"ACKG8OU1KHKO2","assignmentId":"30H4UDGLT34B5MS245662QXVZDHMPX","hitId":"3UDTAB6HH6LRO17U79I9TKUGSHV90J","url":"https://gershmanlab.com/experiments/alicia/teaching/experiment/?hitId=3UDTAB6HH6LRO17U79I9TKUGSHV90J&workerId=ACKG8OU1KHKO2&assignmentId=30H4UDGLT34B5MS245662QXVZDHMPX&a=LUH09&tp_a=LUH09&b=30H4UDGLT34B5MS245662QXVZDHMPX&tp_b=30H4UDGLT34B5MS245662QXVZDHMPX&c=365799&tp_c=365799"},{"view_history":[{"page_index":0,"viewing_time":727},{"page_index":1,"viewing_time":191},{"page_index":2,"viewing_time":868},{"page_index":3,"viewing_time":322},{"page_index":4,"viewing_time":932},{"page_index":5,"viewing_time":1475},{"page_index":6,"viewing_time":2548}],"rt":7064,"trial_type":"instructions","trial_index":8,"time_elapsed":656744,"internal_node_id":"0.0-2.2-0.2","params":{"nStudents":24,"maxFlips":30,"completionMinutes":45,"basePay":8,"maxBonus":9,"perTrialBonus":0.5,"perTrialBonusThreshold":0.05,"exampleCost":0.01},"classroomParams":{"A":{"a":1,"b":4},"B":{"a":4,"b":1},"C":{"a":2,"b":8},"D":{"a":8,"b":2}},"conditions":["nonSeqFull","nonSeqPartial","seqNoFeedback","seqFeedback"],"classroomPairings":[["A","B"],["C","D"]],"coinWeights":[0.2,0.5,0.8],"subjectId":"ACKG8OU1KHKO2","assignmentId":"30H4UDGLT34B5MS245662QXVZDHMPX","hitId":"3UDTAB6HH6LRO17U79I9TKUGSHV90J","url":"https://gershmanlab.com/experiments/alicia/teaching/experiment/?hitId=3UDTAB6HH6LRO17U79I9TKUGSHV90J&workerId=ACKG8OU1KHKO2&assignmentId=30H4UDGLT34B5MS245662QXVZDHMPX&a=LUH09&tp_a=LUH09&b=30H4UDGLT34B5MS245662QXVZDHMPX&tp_b=30H4UDGLT34B5MS245662QXVZDHMPX&c=365799&tp_c=365799"},{"rt":46311,"response":{"Q0":"Students in different classrooms will have seen a different number of heads and tails before seeing the examples you select for them.","Q1":"By giving 30 examples (the maximum) on each trial so I can make sure that the students' guesses are as accurate as possible.","Q2":"The coin lands heads 90% of the time.","Q3":"No, I will teach a <b>new</b> student each time.","Q4":"The students are also on the same alien planet as you, where coins can be unfair.","Q5":"Based on the student's second (and final) guess."},"question_order":[1,0,5,2,3,4],"trial_type":"survey-multi-choice","trial_index":9,"time_elapsed":703055,"internal_node_id":"0.0-2.2-1.2","params":{"nStudents":24,"maxFlips":30,"completionMinutes":45,"basePay":8,"maxBonus":9,"perTrialBonus":0.5,"perTrialBonusThreshold":0.05,"exampleCost":0.01},"classroomParams":{"A":{"a":1,"b":4},"B":{"a":4,"b":1},"C":{"a":2,"b":8},"D":{"a":8,"b":2}},"conditions":["nonSeqFull","nonSeqPartial","seqNoFeedback","seqFeedback"],"classroomPairings":[["A","B"],["C","D"]],"coinWeights":[0.2,0.5,0.8],"subjectId":"ACKG8OU1KHKO2","assignmentId":"30H4UDGLT34B5MS245662QXVZDHMPX","hitId":"3UDTAB6HH6LRO17U79I9TKUGSHV90J","url":"https://gershmanlab.com/experiments/alicia/teaching/experiment/?hitId=3UDTAB6HH6LRO17U79I9TKUGSHV90J&workerId=ACKG8OU1KHKO2&assignmentId=30H4UDGLT34B5MS245662QXVZDHMPX&a=LUH09&tp_a=LUH09&b=30H4UDGLT34B5MS245662QXVZDHMPX&tp_b=30H4UDGLT34B5MS245662QXVZDHMPX&c=365799&tp_c=365799","pass":false},{"rt":1158,"stimulus":"Oops, you have missed question(s) on the comprehension check! We'll show you the instructions again.","response":0,"trial_type":"html-button-response","trial_index":10,"time_elapsed":704215,"internal_node_id":"0.0-2.2-2.2-0.2","params":{"nStudents":24,"maxFlips":30,"completionMinutes":45,"basePay":8,"maxBonus":9,"perTrialBonus":0.5,"perTrialBonusThreshold":0.05,"exampleCost":0.01},"classroomParams":{"A":{"a":1,"b":4},"B":{"a":4,"b":1},"C":{"a":2,"b":8},"D":{"a":8,"b":2}},"conditions":["nonSeqFull","nonSeqPartial","seqNoFeedback","seqFeedback"],"classroomPairings":[["A","B"],["C","D"]],"coinWeights":[0.2,0.5,0.8],"subjectId":"ACKG8OU1KHKO2","assignmentId":"30H4UDGLT34B5MS245662QXVZDHMPX","hitId":"3UDTAB6HH6LRO17U79I9TKUGSHV90J","url":"https://gershmanlab.com/experiments/alicia/teaching/experiment/?hitId=3UDTAB6HH6LRO17U79I9TKUGSHV90J&workerId=ACKG8OU1KHKO2&assignmentId=30H4UDGLT34B5MS245662QXVZDHMPX&a=LUH09&tp_a=LUH09&b=30H4UDGLT34B5MS245662QXVZDHMPX&tp_b=30H4UDGLT34B5MS245662QXVZDHMPX&c=365799&tp_c=365799"},{"view_history":[{"page_index":0,"viewing_time":750},{"page_index":1,"viewing_time":756},{"page_index":2,"viewing_time":2019},{"page_index":3,"viewing_time":1205},{"page_index":4,"viewing_time":2427},{"page_index":5,"viewing_time":3894},{"page_index":6,"viewing_time":2265}],"rt":13317,"trial_type":"instructions","trial_index":11,"time_elapsed":717532,"internal_node_id":"0.0-2.3-0.3","params":{"nStudents":24,"maxFlips":30,"completionMinutes":45,"basePay":8,"maxBonus":9,"perTrialBonus":0.5,"perTrialBonusThreshold":0.05,"exampleCost":0.01},"classroomParams":{"A":{"a":1,"b":4},"B":{"a":4,"b":1},"C":{"a":2,"b":8},"D":{"a":8,"b":2}},"conditions":["nonSeqFull","nonSeqPartial","seqNoFeedback","seqFeedback"],"classroomPairings":[["A","B"],["C","D"]],"coinWeights":[0.2,0.5,0.8],"subjectId":"ACKG8OU1KHKO2","assignmentId":"30H4UDGLT34B5MS245662QXVZDHMPX","hitId":"3UDTAB6HH6LRO17U79I9TKUGSHV90J","url":"https://gershmanlab.com/experiments/alicia/teaching/experiment/?hitId=3UDTAB6HH6LRO17U79I9TKUGSHV90J&workerId=ACKG8OU1KHKO2&assignmentId=30H4UDGLT34B5MS245662QXVZDHMPX&a=LUH09&tp_a=LUH09&b=30H4UDGLT34B5MS245662QXVZDHMPX&tp_b=30H4UDGLT34B5MS245662QXVZDHMPX&c=365799&tp_c=365799"},{"rt":55909,"response":{"Q0":"The classrooms are all the same and aren't helpful for deciding how to teach.","Q1":"By giving as few examples as possible.","Q2":"The coin lands heads 90% of the time.","Q3":"No, I will teach a <b>new</b> student each time.","Q4":"The students are also on the same alien planet as you, where coins can be unfair.","Q5":"Based on the student's second (and final) guess."},"question_order":[0,4,5,1,2,3],"trial_type":"survey-multi-choice","trial_index":12,"time_elapsed":773440,"internal_node_id":"0.0-2.3-1.3","params":{"nStudents":24,"maxFlips":30,"completionMinutes":45,"basePay":8,"maxBonus":9,"perTrialBonus":0.5,"perTrialBonusThreshold":0.05,"exampleCost":0.01},"classroomParams":{"A":{"a":1,"b":4},"B":{"a":4,"b":1},"C":{"a":2,"b":8},"D":{"a":8,"b":2}},"conditions":["nonSeqFull","nonSeqPartial","seqNoFeedback","seqFeedback"],"classroomPairings":[["A","B"],["C","D"]],"coinWeights":[0.2,0.5,0.8],"subjectId":"ACKG8OU1KHKO2","assignmentId":"30H4UDGLT34B5MS245662QXVZDHMPX","hitId":"3UDTAB6HH6LRO17U79I9TKUGSHV90J","url":"https://gershmanlab.com/experiments/alicia/teaching/experiment/?hitId=3UDTAB6HH6LRO17U79I9TKUGSHV90J&workerId=ACKG8OU1KHKO2&assignmentId=30H4UDGLT34B5MS245662QXVZDHMPX&a=LUH09&tp_a=LUH09&b=30H4UDGLT34B5MS245662QXVZDHMPX&tp_b=30H4UDGLT34B5MS245662QXVZDHMPX&c=365799&tp_c=365799","pass":false},{"rt":1378,"stimulus":"Oops, you have missed question(s) on the comprehension check! We'll show you the instructions again.","response":0,"trial_type":"html-button-response","trial_index":13,"time_elapsed":774821,"internal_node_id":"0.0-2.3-2.3-0.3","params":{"nStudents":24,"maxFlips":30,"completionMinutes":45,"basePay":8,"maxBonus":9,"perTrialBonus":0.5,"perTrialBonusThreshold":0.05,"exampleCost":0.01},"classroomParams":{"A":{"a":1,"b":4},"B":{"a":4,"b":1},"C":{"a":2,"b":8},"D":{"a":8,"b":2}},"conditions":["nonSeqFull","nonSeqPartial","seqNoFeedback","seqFeedback"],"classroomPairings":[["A","B"],["C","D"]],"coinWeights":[0.2,0.5,0.8],"subjectId":"ACKG8OU1KHKO2","assignmentId":"30H4UDGLT34B5MS245662QXVZDHMPX","hitId":"3UDTAB6HH6LRO17U79I9TKUGSHV90J","url":"https://gershmanlab.com/experiments/alicia/teaching/experiment/?hitId=3UDTAB6HH6LRO17U79I9TKUGSHV90J&workerId=ACKG8OU1KHKO2&assignmentId=30H4UDGLT34B5MS245662QXVZDHMPX&a=LUH09&tp_a=LUH09&b=30H4UDGLT34B5MS245662QXVZDHMPX&tp_b=30H4UDGLT34B5MS245662QXVZDHMPX&c=365799&tp_c=365799"},{"view_history":[{"page_index":0,"viewing_time":633},{"page_index":1,"viewing_time":174},{"page_index":2,"viewing_time":1156},{"page_index":3,"viewing_time":861},{"page_index":4,"viewing_time":906},{"page_index":3,"viewing_time":783},{"page_index":2,"viewing_time":158},{"page_index":1,"viewing_time":971},{"page_index":0,"viewing_time":1438},{"page_index":1,"viewing_time":1885},{"page_index":2,"viewing_time":4030},{"page_index":3,"viewing_time":9824},{"page_index":4,"viewing_time":5481},{"page_index":5,"viewing_time":11494},{"page_index":6,"viewing_time":15987}],"rt":55782,"trial_type":"instructions","trial_index":14,"time_elapsed":830621,"internal_node_id":"0.0-2.4-0.4","params":{"nStudents":24,"maxFlips":30,"completionMinutes":45,"basePay":8,"maxBonus":9,"perTrialBonus":0.5,"perTrialBonusThreshold":0.05,"exampleCost":0.01},"classroomParams":{"A":{"a":1,"b":4},"B":{"a":4,"b":1},"C":{"a":2,"b":8},"D":{"a":8,"b":2}},"conditions":["nonSeqFull","nonSeqPartial","seqNoFeedback","seqFeedback"],"classroomPairings":[["A","B"],["C","D"]],"coinWeights":[0.2,0.5,0.8],"subjectId":"ACKG8OU1KHKO2","assignmentId":"30H4UDGLT34B5MS245662QXVZDHMPX","hitId":"3UDTAB6HH6LRO17U79I9TKUGSHV90J","url":"https://gershmanlab.com/experiments/alicia/teaching/experiment/?hitId=3UDTAB6HH6LRO17U79I9TKUGSHV90J&workerId=ACKG8OU1KHKO2&assignmentId=30H4UDGLT34B5MS245662QXVZDHMPX&a=LUH09&tp_a=LUH09&b=30H4UDGLT34B5MS245662QXVZDHMPX&tp_b=30H4UDGLT34B5MS245662QXVZDHMPX&c=365799&tp_c=365799"},{"rt":23103,"response":{"Q0":"The classrooms are all the same and aren't helpful for deciding how to teach.","Q1":"By <b>considering the student's classroom information</b> so that I can teach efficiently and accurately/helpfully at the same time (because each example I give to the student costs money!).","Q2":"The coin lands heads 90% of the time.","Q3":"Yes, I might encounter the same student twice.","Q4":"The students are also on the same alien planet as you, where coins can be unfair.","Q5":"Based on the student's second (and final) guess."},"question_order":[2,1,4,0,5,3],"trial_type":"survey-multi-choice","trial_index":15,"time_elapsed":853738,"internal_node_id":"0.0-2.4-1.4","params":{"nStudents":24,"maxFlips":30,"completionMinutes":45,"basePay":8,"maxBonus":9,"perTrialBonus":0.5,"perTrialBonusThreshold":0.05,"exampleCost":0.01},"classroomParams":{"A":{"a":1,"b":4},"B":{"a":4,"b":1},"C":{"a":2,"b":8},"D":{"a":8,"b":2}},"conditions":["nonSeqFull","nonSeqPartial","seqNoFeedback","seqFeedback"],"classroomPairings":[["A","B"],["C","D"]],"coinWeights":[0.2,0.5,0.8],"subjectId":"ACKG8OU1KHKO2","assignmentId":"30H4UDGLT34B5MS245662QXVZDHMPX","hitId":"3UDTAB6HH6LRO17U79I9TKUGSHV90J","url":"https://gershmanlab.com/experiments/alicia/teaching/experiment/?hitId=3UDTAB6HH6LRO17U79I9TKUGSHV90J&workerId=ACKG8OU1KHKO2&assignmentId=30H4UDGLT34B5MS245662QXVZDHMPX&a=LUH09&tp_a=LUH09&b=30H4UDGLT34B5MS245662QXVZDHMPX&tp_b=30H4UDGLT34B5MS245662QXVZDHMPX&c=365799&tp_c=365799","pass":false},{"rt":1975,"stimulus":"Oops, you have missed question(s) on the comprehension check! We'll show you the instructions again.","response":0,"trial_type":"html-button-response","trial_index":16,"time_elapsed":855716,"internal_node_id":"0.0-2.4-2.4-0.4","params":{"nStudents":24,"maxFlips":30,"completionMinutes":45,"basePay":8,"maxBonus":9,"perTrialBonus":0.5,"perTrialBonusThreshold":0.05,"exampleCost":0.01},"classroomParams":{"A":{"a":1,"b":4},"B":{"a":4,"b":1},"C":{"a":2,"b":8},"D":{"a":8,"b":2}},"conditions":["nonSeqFull","nonSeqPartial","seqNoFeedback","seqFeedback"],"classroomPairings":[["A","B"],["C","D"]],"coinWeights":[0.2,0.5,0.8],"subjectId":"ACKG8OU1KHKO2","assignmentId":"30H4UDGLT34B5MS245662QXVZDHMPX","hitId":"3UDTAB6HH6LRO17U79I9TKUGSHV90J","url":"https://gershmanlab.com/experiments/alicia/teaching/experiment/?hitId=3UDTAB6HH6LRO17U79I9TKUGSHV90J&workerId=ACKG8OU1KHKO2&assignmentId=30H4UDGLT34B5MS245662QXVZDHMPX&a=LUH09&tp_a=LUH09&b=30H4UDGLT34B5MS245662QXVZDHMPX&tp_b=30H4UDGLT34B5MS245662QXVZDHMPX&c=365799&tp_c=365799"},{"view_history":[{"page_index":0,"viewing_time":937},{"page_index":1,"viewing_time":195},{"page_index":2,"viewing_time":1118},{"page_index":3,"viewing_time":160},{"page_index":4,"viewing_time":919},{"page_index":5,"viewing_time":580},{"page_index":6,"viewing_time":878}],"rt":4787,"trial_type":"instructions","trial_index":17,"time_elapsed":860504,"internal_node_id":"0.0-2.5-0.5","params":{"nStudents":24,"maxFlips":30,"completionMinutes":45,"basePay":8,"maxBonus":9,"perTrialBonus":0.5,"perTrialBonusThreshold":0.05,"exampleCost":0.01},"classroomParams":{"A":{"a":1,"b":4},"B":{"a":4,"b":1},"C":{"a":2,"b":8},"D":{"a":8,"b":2}},"conditions":["nonSeqFull","nonSeqPartial","seqNoFeedback","seqFeedback"],"classroomPairings":[["A","B"],["C","D"]],"coinWeights":[0.2,0.5,0.8],"subjectId":"ACKG8OU1KHKO2","assignmentId":"30H4UDGLT34B5MS245662QXVZDHMPX","hitId":"3UDTAB6HH6LRO17U79I9TKUGSHV90J","url":"https://gershmanlab.com/experiments/alicia/teaching/experiment/?hitId=3UDTAB6HH6LRO17U79I9TKUGSHV90J&workerId=ACKG8OU1KHKO2&assignmentId=30H4UDGLT34B5MS245662QXVZDHMPX&a=LUH09&tp_a=LUH09&b=30H4UDGLT34B5MS245662QXVZDHMPX&tp_b=30H4UDGLT34B5MS245662QXVZDHMPX&c=365799&tp_c=365799"},{"rt":33138,"response":{"Q0":"Students in different classrooms will have seen a different number of heads and tails before seeing the examples you select for them.","Q1":"By giving as few examples as possible.","Q2":"The coin lands heads 90% of the time.","Q3":"Yes, I might encounter the same student twice.","Q4":"The students are also on the same alien planet as you, where coins can be unfair.","Q5":"Based on the student's second (and final) guess."},"question_order":[2,1,3,5,4,0],"trial_type":"survey-multi-choice","trial_index":18,"time_elapsed":893644,"internal_node_id":"0.0-2.5-1.5","params":{"nStudents":24,"maxFlips":30,"completionMinutes":45,"basePay":8,"maxBonus":9,"perTrialBonus":0.5,"perTrialBonusThreshold":0.05,"exampleCost":0.01},"classroomParams":{"A":{"a":1,"b":4},"B":{"a":4,"b":1},"C":{"a":2,"b":8},"D":{"a":8,"b":2}},"conditions":["nonSeqFull","nonSeqPartial","seqNoFeedback","seqFeedback"],"classroomPairings":[["A","B"],["C","D"]],"coinWeights":[0.2,0.5,0.8],"subjectId":"ACKG8OU1KHKO2","assignmentId":"30H4UDGLT34B5MS245662QXVZDHMPX","hitId":"3UDTAB6HH6LRO17U79I9TKUGSHV90J","url":"https://gershmanlab.com/experiments/alicia/teaching/experiment/?hitId=3UDTAB6HH6LRO17U79I9TKUGSHV90J&workerId=ACKG8OU1KHKO2&assignmentId=30H4UDGLT34B5MS245662QXVZDHMPX&a=LUH09&tp_a=LUH09&b=30H4UDGLT34B5MS245662QXVZDHMPX&tp_b=30H4UDGLT34B5MS245662QXVZDHMPX&c=365799&tp_c=365799","pass":false},{"rt":988,"stimulus":"Oops, you have missed question(s) on the comprehension check! We'll show you the instructions again.","response":0,"trial_type":"html-button-response","trial_index":19,"time_elapsed":894635,"internal_node_id":"0.0-2.5-2.5-0.5","params":{"nStudents":24,"maxFlips":30,"completionMinutes":45,"basePay":8,"maxBonus":9,"perTrialBonus":0.5,"perTrialBonusThreshold":0.05,"exampleCost":0.01},"classroomParams":{"A":{"a":1,"b":4},"B":{"a":4,"b":1},"C":{"a":2,"b":8},"D":{"a":8,"b":2}},"conditions":["nonSeqFull","nonSeqPartial","seqNoFeedback","seqFeedback"],"classroomPairings":[["A","B"],["C","D"]],"coinWeights":[0.2,0.5,0.8],"subjectId":"ACKG8OU1KHKO2","assignmentId":"30H4UDGLT34B5MS245662QXVZDHMPX","hitId":"3UDTAB6HH6LRO17U79I9TKUGSHV90J","url":"https://gershmanlab.com/experiments/alicia/teaching/experiment/?hitId=3UDTAB6HH6LRO17U79I9TKUGSHV90J&workerId=ACKG8OU1KHKO2&assignmentId=30H4UDGLT34B5MS245662QXVZDHMPX&a=LUH09&tp_a=LUH09&b=30H4UDGLT34B5MS245662QXVZDHMPX&tp_b=30H4UDGLT34B5MS245662QXVZDHMPX&c=365799&tp_c=365799"},{"view_history":[{"page_index":0,"viewing_time":594},{"page_index":1,"viewing_time":192},{"page_index":2,"viewing_time":834},{"page_index":3,"viewing_time":184},{"page_index":4,"viewing_time":1266},{"page_index":5,"viewing_time":916},{"page_index":6,"viewing_time":995}],"rt":4981,"trial_type":"instructions","trial_index":20,"time_elapsed":899616,"internal_node_id":"0.0-2.6-0.6","params":{"nStudents":24,"maxFlips":30,"completionMinutes":45,"basePay":8,"maxBonus":9,"perTrialBonus":0.5,"perTrialBonusThreshold":0.05,"exampleCost":0.01},"classroomParams":{"A":{"a":1,"b":4},"B":{"a":4,"b":1},"C":{"a":2,"b":8},"D":{"a":8,"b":2}},"conditions":["nonSeqFull","nonSeqPartial","seqNoFeedback","seqFeedback"],"classroomPairings":[["A","B"],["C","D"]],"coinWeights":[0.2,0.5,0.8],"subjectId":"ACKG8OU1KHKO2","assignmentId":"30H4UDGLT34B5MS245662QXVZDHMPX","hitId":"3UDTAB6HH6LRO17U79I9TKUGSHV90J","url":"https://gershmanlab.com/experiments/alicia/teaching/experiment/?hitId=3UDTAB6HH6LRO17U79I9TKUGSHV90J&workerId=ACKG8OU1KHKO2&assignmentId=30H4UDGLT34B5MS245662QXVZDHMPX&a=LUH09&tp_a=LUH09&b=30H4UDGLT34B5MS245662QXVZDHMPX&tp_b=30H4UDGLT34B5MS245662QXVZDHMPX&c=365799&tp_c=365799"},{"rt":109300,"response":{"Q0":"Students in different classrooms have seen a different proportion of fair and unfair coins before seeing the examples you select for them.","Q1":"By <b>considering the student's classroom information</b> so that I can teach efficiently and accurately/helpfully at the same time (because each example I give to the student costs money!).","Q2":"The coin lands heads 90% of the time.","Q3":"No, I will teach a <b>new</b> student each time.","Q4":"The students are also on the same alien planet as you, where coins can be unfair.","Q5":"Based on the student's second (and final) guess."},"question_order":[0,2,1,5,3,4],"trial_type":"survey-multi-choice","trial_index":21,"time_elapsed":1008915,"internal_node_id":"0.0-2.6-1.6","params":{"nStudents":24,"maxFlips":30,"completionMinutes":45,"basePay":8,"maxBonus":9,"perTrialBonus":0.5,"perTrialBonusThreshold":0.05,"exampleCost":0.01},"classroomParams":{"A":{"a":1,"b":4},"B":{"a":4,"b":1},"C":{"a":2,"b":8},"D":{"a":8,"b":2}},"conditions":["nonSeqFull","nonSeqPartial","seqNoFeedback","seqFeedback"],"classroomPairings":[["A","B"],["C","D"]],"coinWeights":[0.2,0.5,0.8],"subjectId":"ACKG8OU1KHKO2","assignmentId":"30H4UDGLT34B5MS245662QXVZDHMPX","hitId":"3UDTAB6HH6LRO17U79I9TKUGSHV90J","url":"https://gershmanlab.com/experiments/alicia/teaching/experiment/?hitId=3UDTAB6HH6LRO17U79I9TKUGSHV90J&workerId=ACKG8OU1KHKO2&assignmentId=30H4UDGLT34B5MS245662QXVZDHMPX&a=LUH09&tp_a=LUH09&b=30H4UDGLT34B5MS245662QXVZDHMPX&tp_b=30H4UDGLT34B5MS245662QXVZDHMPX&c=365799&tp_c=365799","pass":false},{"rt":1269,"stimulus":"Oops, you have missed question(s) on the comprehension check! We'll show you the instructions again.","response":0,"trial_type":"html-button-response","trial_index":22,"time_elapsed":1010186,"internal_node_id":"0.0-2.6-2.6-0.6","params":{"nStudents":24,"maxFlips":30,"completionMinutes":45,"basePay":8,"maxBonus":9,"perTrialBonus":0.5,"perTrialBonusThreshold":0.05,"exampleCost":0.01},"classroomParams":{"A":{"a":1,"b":4},"B":{"a":4,"b":1},"C":{"a":2,"b":8},"D":{"a":8,"b":2}},"conditions":["nonSeqFull","nonSeqPartial","seqNoFeedback","seqFeedback"],"classroomPairings":[["A","B"],["C","D"]],"coinWeights":[0.2,0.5,0.8],"subjectId":"ACKG8OU1KHKO2","assignmentId":"30H4UDGLT34B5MS245662QXVZDHMPX","hitId":"3UDTAB6HH6LRO17U79I9TKUGSHV90J","url":"https://gershmanlab.com/experiments/alicia/teaching/experiment/?hitId=3UDTAB6HH6LRO17U79I9TKUGSHV90J&workerId=ACKG8OU1KHKO2&assignmentId=30H4UDGLT34B5MS245662QXVZDHMPX&a=LUH09&tp_a=LUH09&b=30H4UDGLT34B5MS245662QXVZDHMPX&tp_b=30H4UDGLT34B5MS245662QXVZDHMPX&c=365799&tp_c=365799"},{"view_history":[{"page_index":0,"viewing_time":597},{"page_index":1,"viewing_time":351},{"page_index":2,"viewing_time":613},{"page_index":3,"viewing_time":200},{"page_index":4,"viewing_time":650},{"page_index":5,"viewing_time":859},{"page_index":6,"viewing_time":878}],"rt":4148,"trial_type":"instructions","trial_index":23,"time_elapsed":1014335,"internal_node_id":"0.0-2.7-0.7","params":{"nStudents":24,"maxFlips":30,"completionMinutes":45,"basePay":8,"maxBonus":9,"perTrialBonus":0.5,"perTrialBonusThreshold":0.05,"exampleCost":0.01},"classroomParams":{"A":{"a":1,"b":4},"B":{"a":4,"b":1},"C":{"a":2,"b":8},"D":{"a":8,"b":2}},"conditions":["nonSeqFull","nonSeqPartial","seqNoFeedback","seqFeedback"],"classroomPairings":[["A","B"],["C","D"]],"coinWeights":[0.2,0.5,0.8],"subjectId":"ACKG8OU1KHKO2","assignmentId":"30H4UDGLT34B5MS245662QXVZDHMPX","hitId":"3UDTAB6HH6LRO17U79I9TKUGSHV90J","url":"https://gershmanlab.com/experiments/alicia/teaching/experiment/?hitId=3UDTAB6HH6LRO17U79I9TKUGSHV90J&workerId=ACKG8OU1KHKO2&assignmentId=30H4UDGLT34B5MS245662QXVZDHMPX&a=LUH09&tp_a=LUH09&b=30H4UDGLT34B5MS245662QXVZDHMPX&tp_b=30H4UDGLT34B5MS245662QXVZDHMPX&c=365799&tp_c=365799"},{"rt":57957,"response":{"Q0":"Students in different classrooms have seen a different proportion of fair and unfair coins before seeing the examples you select for them.","Q1":"By <b>considering the student's classroom information</b> so that I can teach efficiently and accurately/helpfully at the same time (because each example I give to the student costs money!).","Q2":"The coin lands heads 90% of the time.","Q3":"Yes, I might encounter the same student twice.","Q4":"The students are also on the same alien planet as you, where coins can be unfair.","Q5":"Based on the student's second (and final) guess."},"question_order":[4,1,5,3,0,2],"trial_type":"survey-multi-choice","trial_index":24,"time_elapsed":1072291,"internal_node_id":"0.0-2.7-1.7","params":{"nStudents":24,"maxFlips":30,"completionMinutes":45,"basePay":8,"maxBonus":9,"perTrialBonus":0.5,"perTrialBonusThreshold":0.05,"exampleCost":0.01},"classroomParams":{"A":{"a":1,"b":4},"B":{"a":4,"b":1},"C":{"a":2,"b":8},"D":{"a":8,"b":2}},"conditions":["nonSeqFull","nonSeqPartial","seqNoFeedback","seqFeedback"],"classroomPairings":[["A","B"],["C","D"]],"coinWeights":[0.2,0.5,0.8],"subjectId":"ACKG8OU1KHKO2","assignmentId":"30H4UDGLT34B5MS245662QXVZDHMPX","hitId":"3UDTAB6HH6LRO17U79I9TKUGSHV90J","url":"https://gershmanlab.com/experiments/alicia/teaching/experiment/?hitId=3UDTAB6HH6LRO17U79I9TKUGSHV90J&workerId=ACKG8OU1KHKO2&assignmentId=30H4UDGLT34B5MS245662QXVZDHMPX&a=LUH09&tp_a=LUH09&b=30H4UDGLT34B5MS245662QXVZDHMPX&tp_b=30H4UDGLT34B5MS245662QXVZDHMPX&c=365799&tp_c=365799","pass":false},{"rt":934,"stimulus":"Oops, you have missed question(s) on the comprehension check! We'll show you the instructions again.","response":0,"trial_type":"html-button-response","trial_index":25,"time_elapsed":1073227,"internal_node_id":"0.0-2.7-2.7-0.7","params":{"nStudents":24,"maxFlips":30,"completionMinutes":45,"basePay":8,"maxBonus":9,"perTrialBonus":0.5,"perTrialBonusThreshold":0.05,"exampleCost":0.01},"classroomParams":{"A":{"a":1,"b":4},"B":{"a":4,"b":1},"C":{"a":2,"b":8},"D":{"a":8,"b":2}},"conditions":["nonSeqFull","nonSeqPartial","seqNoFeedback","seqFeedback"],"classroomPairings":[["A","B"],["C","D"]],"coinWeights":[0.2,0.5,0.8],"subjectId":"ACKG8OU1KHKO2","assignmentId":"30H4UDGLT34B5MS245662QXVZDHMPX","hitId":"3UDTAB6HH6LRO17U79I9TKUGSHV90J","url":"https://gershmanlab.com/experiments/alicia/teaching/experiment/?hitId=3UDTAB6HH6LRO17U79I9TKUGSHV90J&workerId=ACKG8OU1KHKO2&assignmentId=30H4UDGLT34B5MS245662QXVZDHMPX&a=LUH09&tp_a=LUH09&b=30H4UDGLT34B5MS245662QXVZDHMPX&tp_b=30H4UDGLT34B5MS245662QXVZDHMPX&c=365799&tp_c=365799"},{"view_history":[{"page_index":0,"viewing_time":941},{"page_index":1,"viewing_time":168},{"page_index":2,"viewing_time":783},{"page_index":3,"viewing_time":164},{"page_index":4,"viewing_time":1153},{"page_index":5,"viewing_time":567},{"page_index":6,"viewing_time":1043},{"page_index":5,"viewing_time":771},{"page_index":4,"viewing_time":622},{"page_index":3,"viewing_time":564},{"page_index":2,"viewing_time":412},{"page_index":1,"viewing_time":972},{"page_index":0,"viewing_time":31131},{"page_index":1,"viewing_time":1951},{"page_index":2,"viewing_time":10438},{"page_index":3,"viewing_time":11748},{"page_index":4,"viewing_time":4993},{"page_index":5,"viewing_time":9811},{"page_index":6,"viewing_time":6959}],"rt":85192,"trial_type":"instructions","trial_index":26,"time_elapsed":1158417,"internal_node_id":"0.0-2.8-0.8","params":{"nStudents":24,"maxFlips":30,"completionMinutes":45,"basePay":8,"maxBonus":9,"perTrialBonus":0.5,"perTrialBonusThreshold":0.05,"exampleCost":0.01},"classroomParams":{"A":{"a":1,"b":4},"B":{"a":4,"b":1},"C":{"a":2,"b":8},"D":{"a":8,"b":2}},"conditions":["nonSeqFull","nonSeqPartial","seqNoFeedback","seqFeedback"],"classroomPairings":[["A","B"],["C","D"]],"coinWeights":[0.2,0.5,0.8],"subjectId":"ACKG8OU1KHKO2","assignmentId":"30H4UDGLT34B5MS245662QXVZDHMPX","hitId":"3UDTAB6HH6LRO17U79I9TKUGSHV90J","url":"https://gershmanlab.com/experiments/alicia/teaching/experiment/?hitId=3UDTAB6HH6LRO17U79I9TKUGSHV90J&workerId=ACKG8OU1KHKO2&assignmentId=30H4UDGLT34B5MS245662QXVZDHMPX&a=LUH09&tp_a=LUH09&b=30H4UDGLT34B5MS245662QXVZDHMPX&tp_b=30H4UDGLT34B5MS245662QXVZDHMPX&c=365799&tp_c=365799"},{"rt":65431,"response":{"Q0":"Students in different classrooms have seen a different proportion of fair and unfair coins before seeing the examples you select for them.","Q1":"By <b>considering the student's classroom information</b> so that I can teach efficiently and accurately/helpfully at the same time (because each example I give to the student costs money!).","Q2":"The coin lands heads 90% of the time.","Q3":"Yes, I might encounter the same student twice.","Q4":"The students are also on the same alien planet as you, where coins can be unfair.","Q5":"Based on the student's second (and final) guess."},"question_order":[0,5,1,3,2,4],"trial_type":"survey-multi-choice","trial_index":27,"time_elapsed":1223848,"internal_node_id":"0.0-2.8-1.8","params":{"nStudents":24,"maxFlips":30,"completionMinutes":45,"basePay":8,"maxBonus":9,"perTrialBonus":0.5,"perTrialBonusThreshold":0.05,"exampleCost":0.01},"classroomParams":{"A":{"a":1,"b":4},"B":{"a":4,"b":1},"C":{"a":2,"b":8},"D":{"a":8,"b":2}},"conditions":["nonSeqFull","nonSeqPartial","seqNoFeedback","seqFeedback"],"classroomPairings":[["A","B"],["C","D"]],"coinWeights":[0.2,0.5,0.8],"subjectId":"ACKG8OU1KHKO2","assignmentId":"30H4UDGLT34B5MS245662QXVZDHMPX","hitId":"3UDTAB6HH6LRO17U79I9TKUGSHV90J","url":"https://gershmanlab.com/experiments/alicia/teaching/experiment/?hitId=3UDTAB6HH6LRO17U79I9TKUGSHV90J&workerId=ACKG8OU1KHKO2&assignmentId=30H4UDGLT34B5MS245662QXVZDHMPX&a=LUH09&tp_a=LUH09&b=30H4UDGLT34B5MS245662QXVZDHMPX&tp_b=30H4UDGLT34B5MS245662QXVZDHMPX&c=365799&tp_c=365799","pass":false},{"rt":1018,"stimulus":"Oops, you have missed question(s) on the comprehension check! We'll show you the instructions again.","response":0,"trial_type":"html-button-response","trial_index":28,"time_elapsed":1224868,"internal_node_id":"0.0-2.8-2.8-0.8","params":{"nStudents":24,"maxFlips":30,"completionMinutes":45,"basePay":8,"maxBonus":9,"perTrialBonus":0.5,"perTrialBonusThreshold":0.05,"exampleCost":0.01},"classroomParams":{"A":{"a":1,"b":4},"B":{"a":4,"b":1},"C":{"a":2,"b":8},"D":{"a":8,"b":2}},"conditions":["nonSeqFull","nonSeqPartial","seqNoFeedback","seqFeedback"],"classroomPairings":[["A","B"],["C","D"]],"coinWeights":[0.2,0.5,0.8],"subjectId":"ACKG8OU1KHKO2","assignmentId":"30H4UDGLT34B5MS245662QXVZDHMPX","hitId":"3UDTAB6HH6LRO17U79I9TKUGSHV90J","url":"https://gershmanlab.com/experiments/alicia/teaching/experiment/?hitId=3UDTAB6HH6LRO17U79I9TKUGSHV90J&workerId=ACKG8OU1KHKO2&assignmentId=30H4UDGLT34B5MS245662QXVZDHMPX&a=LUH09&tp_a=LUH09&b=30H4UDGLT34B5MS245662QXVZDHMPX&tp_b=30H4UDGLT34B5MS245662QXVZDHMPX&c=365799&tp_c=365799"},{"view_history":[{"page_index":0,"viewing_time":724},{"page_index":1,"viewing_time":195},{"page_index":2,"viewing_time":632},{"page_index":3,"viewing_time":171},{"page_index":4,"viewing_time":797},{"page_index":5,"viewing_time":2070},{"page_index":6,"viewing_time":22665}],"rt":27254,"trial_type":"instructions","trial_index":29,"time_elapsed":1252122,"internal_node_id":"0.0-2.9-0.9","params":{"nStudents":24,"maxFlips":30,"completionMinutes":45,"basePay":8,"maxBonus":9,"perTrialBonus":0.5,"perTrialBonusThreshold":0.05,"exampleCost":0.01},"classroomParams":{"A":{"a":1,"b":4},"B":{"a":4,"b":1},"C":{"a":2,"b":8},"D":{"a":8,"b":2}},"conditions":["nonSeqFull","nonSeqPartial","seqNoFeedback","seqFeedback"],"classroomPairings":[["A","B"],["C","D"]],"coinWeights":[0.2,0.5,0.8],"subjectId":"ACKG8OU1KHKO2","assignmentId":"30H4UDGLT34B5MS245662QXVZDHMPX","hitId":"3UDTAB6HH6LRO17U79I9TKUGSHV90J","url":"https://gershmanlab.com/experiments/alicia/teaching/experiment/?hitId=3UDTAB6HH6LRO17U79I9TKUGSHV90J&workerId=ACKG8OU1KHKO2&assignmentId=30H4UDGLT34B5MS245662QXVZDHMPX&a=LUH09&tp_a=LUH09&b=30H4UDGLT34B5MS245662QXVZDHMPX&tp_b=30H4UDGLT34B5MS245662QXVZDHMPX&c=365799&tp_c=365799"},{"rt":19544,"response":{"Q0":"Students in different classrooms will have seen a different number of heads and tails before seeing the examples you select for them.","Q1":"By <b>considering the student's classroom information</b> so that I can teach efficiently and accurately/helpfully at the same time (because each example I give to the student costs money!).","Q2":"The coin lands heads 90% of the time.","Q3":"Yes, I might encounter the same student twice.","Q4":"The students are also on the same alien planet as you, where coins can be unfair.","Q5":"Based on the student's second (and final) guess."},"question_order":[3,0,4,5,2,1],"trial_type":"survey-multi-choice","trial_index":30,"time_elapsed":1271667,"internal_node_id":"0.0-2.9-1.9","params":{"nStudents":24,"maxFlips":30,"completionMinutes":45,"basePay":8,"maxBonus":9,"perTrialBonus":0.5,"perTrialBonusThreshold":0.05,"exampleCost":0.01},"classroomParams":{"A":{"a":1,"b":4},"B":{"a":4,"b":1},"C":{"a":2,"b":8},"D":{"a":8,"b":2}},"conditions":["nonSeqFull","nonSeqPartial","seqNoFeedback","seqFeedback"],"classroomPairings":[["A","B"],["C","D"]],"coinWeights":[0.2,0.5,0.8],"subjectId":"ACKG8OU1KHKO2","assignmentId":"30H4UDGLT34B5MS245662QXVZDHMPX","hitId":"3UDTAB6HH6LRO17U79I9TKUGSHV90J","url":"https://gershmanlab.com/experiments/alicia/teaching/experiment/?hitId=3UDTAB6HH6LRO17U79I9TKUGSHV90J&workerId=ACKG8OU1KHKO2&assignmentId=30H4UDGLT34B5MS245662QXVZDHMPX&a=LUH09&tp_a=LUH09&b=30H4UDGLT34B5MS245662QXVZDHMPX&tp_b=30H4UDGLT34B5MS245662QXVZDHMPX&c=365799&tp_c=365799","pass":false},{"rt":1054,"stimulus":"Oops, you have missed question(s) on the comprehension check! We'll show you the instructions again.","response":0,"trial_type":"html-button-response","trial_index":31,"time_elapsed":1272723,"internal_node_id":"0.0-2.9-2.9-0.9","params":{"nStudents":24,"maxFlips":30,"completionMinutes":45,"basePay":8,"maxBonus":9,"perTrialBonus":0.5,"perTrialBonusThreshold":0.05,"exampleCost":0.01},"classroomParams":{"A":{"a":1,"b":4},"B":{"a":4,"b":1},"C":{"a":2,"b":8},"D":{"a":8,"b":2}},"conditions":["nonSeqFull","nonSeqPartial","seqNoFeedback","seqFeedback"],"classroomPairings":[["A","B"],["C","D"]],"coinWeights":[0.2,0.5,0.8],"subjectId":"ACKG8OU1KHKO2","assignmentId":"30H4UDGLT34B5MS245662QXVZDHMPX","hitId":"3UDTAB6HH6LRO17U79I9TKUGSHV90J","url":"https://gershmanlab.com/experiments/alicia/teaching/experiment/?hitId=3UDTAB6HH6LRO17U79I9TKUGSHV90J&workerId=ACKG8OU1KHKO2&assignmentId=30H4UDGLT34B5MS245662QXVZDHMPX&a=LUH09&tp_a=LUH09&b=30H4UDGLT34B5MS245662QXVZDHMPX&tp_b=30H4UDGLT34B5MS245662QXVZDHMPX&c=365799&tp_c=365799"},{"view_history":[{"page_index":0,"viewing_time":533},{"page_index":1,"viewing_time":163},{"page_index":2,"viewing_time":587},{"page_index":3,"viewing_time":168},{"page_index":4,"viewing_time":811},{"page_index":5,"viewing_time":503},{"page_index":6,"viewing_time":666}],"rt":3432,"trial_type":"instructions","trial_index":32,"time_elapsed":1276155,"internal_node_id":"0.0-2.10-0.10","params":{"nStudents":24,"maxFlips":30,"completionMinutes":45,"basePay":8,"maxBonus":9,"perTrialBonus":0.5,"perTrialBonusThreshold":0.05,"exampleCost":0.01},"classroomParams":{"A":{"a":1,"b":4},"B":{"a":4,"b":1},"C":{"a":2,"b":8},"D":{"a":8,"b":2}},"conditions":["nonSeqFull","nonSeqPartial","seqNoFeedback","seqFeedback"],"classroomPairings":[["A","B"],["C","D"]],"coinWeights":[0.2,0.5,0.8],"subjectId":"ACKG8OU1KHKO2","assignmentId":"30H4UDGLT34B5MS245662QXVZDHMPX","hitId":"3UDTAB6HH6LRO17U79I9TKUGSHV90J","url":"https://gershmanlab.com/experiments/alicia/teaching/experiment/?hitId=3UDTAB6HH6LRO17U79I9TKUGSHV90J&workerId=ACKG8OU1KHKO2&assignmentId=30H4UDGLT34B5MS245662QXVZDHMPX&a=LUH09&tp_a=LUH09&b=30H4UDGLT34B5MS245662QXVZDHMPX&tp_b=30H4UDGLT34B5MS245662QXVZDHMPX&c=365799&tp_c=365799"},{"rt":12556,"response":{"Q0":"The classrooms are all the same and aren't helpful for deciding how to teach.","Q1":"By <b>considering the student's classroom information</b> so that I can teach efficiently and accurately/helpfully at the same time (because each example I give to the student costs money!).","Q2":"The coin lands heads 90% of the time.","Q3":"Yes, I might encounter the same student twice.","Q4":"The students are also on the same alien planet as you, where coins can be unfair.","Q5":"Based on the student's second (and final) guess."},"question_order":[5,4,2,3,1,0],"trial_type":"survey-multi-choice","trial_index":33,"time_elapsed":1288711,"internal_node_id":"0.0-2.10-1.10","params":{"nStudents":24,"maxFlips":30,"completionMinutes":45,"basePay":8,"maxBonus":9,"perTrialBonus":0.5,"perTrialBonusThreshold":0.05,"exampleCost":0.01},"classroomParams":{"A":{"a":1,"b":4},"B":{"a":4,"b":1},"C":{"a":2,"b":8},"D":{"a":8,"b":2}},"conditions":["nonSeqFull","nonSeqPartial","seqNoFeedback","seqFeedback"],"classroomPairings":[["A","B"],["C","D"]],"coinWeights":[0.2,0.5,0.8],"subjectId":"ACKG8OU1KHKO2","assignmentId":"30H4UDGLT34B5MS245662QXVZDHMPX","hitId":"3UDTAB6HH6LRO17U79I9TKUGSHV90J","url":"https://gershmanlab.com/experiments/alicia/teaching/experiment/?hitId=3UDTAB6HH6LRO17U79I9TKUGSHV90J&workerId=ACKG8OU1KHKO2&assignmentId=30H4UDGLT34B5MS245662QXVZDHMPX&a=LUH09&tp_a=LUH09&b=30H4UDGLT34B5MS245662QXVZDHMPX&tp_b=30H4UDGLT34B5MS245662QXVZDHMPX&c=365799&tp_c=365799","pass":false},{"rt":930,"stimulus":"Oops, you have missed question(s) on the comprehension check! We'll show you the instructions again.","response":0,"trial_type":"html-button-response","trial_index":34,"time_elapsed":1289643,"internal_node_id":"0.0-2.10-2.10-0.10","params":{"nStudents":24,"maxFlips":30,"completionMinutes":45,"basePay":8,"maxBonus":9,"perTrialBonus":0.5,"perTrialBonusThreshold":0.05,"exampleCost":0.01},"classroomParams":{"A":{"a":1,"b":4},"B":{"a":4,"b":1},"C":{"a":2,"b":8},"D":{"a":8,"b":2}},"conditions":["nonSeqFull","nonSeqPartial","seqNoFeedback","seqFeedback"],"classroomPairings":[["A","B"],["C","D"]],"coinWeights":[0.2,0.5,0.8],"subjectId":"ACKG8OU1KHKO2","assignmentId":"30H4UDGLT34B5MS245662QXVZDHMPX","hitId":"3UDTAB6HH6LRO17U79I9TKUGSHV90J","url":"https://gershmanlab.com/experiments/alicia/teaching/experiment/?hitId=3UDTAB6HH6LRO17U79I9TKUGSHV90J&workerId=ACKG8OU1KHKO2&assignmentId=30H4UDGLT34B5MS245662QXVZDHMPX&a=LUH09&tp_a=LUH09&b=30H4UDGLT34B5MS245662QXVZDHMPX&tp_b=30H4UDGLT34B5MS245662QXVZDHMPX&c=365799&tp_c=365799"},{"view_history":[{"page_index":0,"viewing_time":1161},{"page_index":1,"viewing_time":188},{"page_index":2,"viewing_time":1090},{"page_index":3,"viewing_time":159},{"page_index":4,"viewing_time":608},{"page_index":5,"viewing_time":579},{"page_index":6,"viewing_time":620}],"rt":4406,"trial_type":"instructions","trial_index":35,"time_elapsed":1294050,"internal_node_id":"0.0-2.11-0.11","params":{"nStudents":24,"maxFlips":30,"completionMinutes":45,"basePay":8,"maxBonus":9,"perTrialBonus":0.5,"perTrialBonusThreshold":0.05,"exampleCost":0.01},"classroomParams":{"A":{"a":1,"b":4},"B":{"a":4,"b":1},"C":{"a":2,"b":8},"D":{"a":8,"b":2}},"conditions":["nonSeqFull","nonSeqPartial","seqNoFeedback","seqFeedback"],"classroomPairings":[["A","B"],["C","D"]],"coinWeights":[0.2,0.5,0.8],"subjectId":"ACKG8OU1KHKO2","assignmentId":"30H4UDGLT34B5MS245662QXVZDHMPX","hitId":"3UDTAB6HH6LRO17U79I9TKUGSHV90J","url":"https://gershmanlab.com/experiments/alicia/teaching/experiment/?hitId=3UDTAB6HH6LRO17U79I9TKUGSHV90J&workerId=ACKG8OU1KHKO2&assignmentId=30H4UDGLT34B5MS245662QXVZDHMPX&a=LUH09&tp_a=LUH09&b=30H4UDGLT34B5MS245662QXVZDHMPX&tp_b=30H4UDGLT34B5MS245662QXVZDHMPX&c=365799&tp_c=365799"},{"rt":27595,"response":{"Q0":"Students in different classrooms have seen a different proportion of fair and unfair coins before seeing the examples you select for them.","Q1":"By giving as few examples as possible.","Q2":"The coin lands heads 90% of the time.","Q3":"Yes, I might encounter the same student twice.","Q4":"The students are also on the same alien planet as you, where coins can be unfair.","Q5":"Based on the student's second (and final) guess."},"question_order":[4,5,3,2,1,0],"trial_type":"survey-multi-choice","trial_index":36,"time_elapsed":1321645,"internal_node_id":"0.0-2.11-1.11","params":{"nStudents":24,"maxFlips":30,"completionMinutes":45,"basePay":8,"maxBonus":9,"perTrialBonus":0.5,"perTrialBonusThreshold":0.05,"exampleCost":0.01},"classroomParams":{"A":{"a":1,"b":4},"B":{"a":4,"b":1},"C":{"a":2,"b":8},"D":{"a":8,"b":2}},"conditions":["nonSeqFull","nonSeqPartial","seqNoFeedback","seqFeedback"],"classroomPairings":[["A","B"],["C","D"]],"coinWeights":[0.2,0.5,0.8],"subjectId":"ACKG8OU1KHKO2","assignmentId":"30H4UDGLT34B5MS245662QXVZDHMPX","hitId":"3UDTAB6HH6LRO17U79I9TKUGSHV90J","url":"https://gershmanlab.com/experiments/alicia/teaching/experiment/?hitId=3UDTAB6HH6LRO17U79I9TKUGSHV90J&workerId=ACKG8OU1KHKO2&assignmentId=30H4UDGLT34B5MS245662QXVZDHMPX&a=LUH09&tp_a=LUH09&b=30H4UDGLT34B5MS245662QXVZDHMPX&tp_b=30H4UDGLT34B5MS245662QXVZDHMPX&c=365799&tp_c=365799","pass":false},{"rt":859,"stimulus":"Oops, you have missed question(s) on the comprehension check! We'll show you the instructions again.","response":0,"trial_type":"html-button-response","trial_index":37,"time_elapsed":1322507,"internal_node_id":"0.0-2.11-2.11-0.11","params":{"nStudents":24,"maxFlips":30,"completionMinutes":45,"basePay":8,"maxBonus":9,"perTrialBonus":0.5,"perTrialBonusThreshold":0.05,"exampleCost":0.01},"classroomParams":{"A":{"a":1,"b":4},"B":{"a":4,"b":1},"C":{"a":2,"b":8},"D":{"a":8,"b":2}},"conditions":["nonSeqFull","nonSeqPartial","seqNoFeedback","seqFeedback"],"classroomPairings":[["A","B"],["C","D"]],"coinWeights":[0.2,0.5,0.8],"subjectId":"ACKG8OU1KHKO2","assignmentId":"30H4UDGLT34B5MS245662QXVZDHMPX","hitId":"3UDTAB6HH6LRO17U79I9TKUGSHV90J","url":"https://gershmanlab.com/experiments/alicia/teaching/experiment/?hitId=3UDTAB6HH6LRO17U79I9TKUGSHV90J&workerId=ACKG8OU1KHKO2&assignmentId=30H4UDGLT34B5MS245662QXVZDHMPX&a=LUH09&tp_a=LUH09&b=30H4UDGLT34B5MS245662QXVZDHMPX&tp_b=30H4UDGLT34B5MS245662QXVZDHMPX&c=365799&tp_c=365799"},{"view_history":[{"page_index":0,"viewing_time":740},{"page_index":1,"viewing_time":171},{"page_index":2,"viewing_time":592},{"page_index":3,"viewing_time":171},{"page_index":4,"viewing_time":840},{"page_index":5,"viewing_time":503},{"page_index":6,"viewing_time":667}],"rt":3685,"trial_type":"instructions","trial_index":38,"time_elapsed":1326192,"internal_node_id":"0.0-2.12-0.12","params":{"nStudents":24,"maxFlips":30,"completionMinutes":45,"basePay":8,"maxBonus":9,"perTrialBonus":0.5,"perTrialBonusThreshold":0.05,"exampleCost":0.01},"classroomParams":{"A":{"a":1,"b":4},"B":{"a":4,"b":1},"C":{"a":2,"b":8},"D":{"a":8,"b":2}},"conditions":["nonSeqFull","nonSeqPartial","seqNoFeedback","seqFeedback"],"classroomPairings":[["A","B"],["C","D"]],"coinWeights":[0.2,0.5,0.8],"subjectId":"ACKG8OU1KHKO2","assignmentId":"30H4UDGLT34B5MS245662QXVZDHMPX","hitId":"3UDTAB6HH6LRO17U79I9TKUGSHV90J","url":"https://gershmanlab.com/experiments/alicia/teaching/experiment/?hitId=3UDTAB6HH6LRO17U79I9TKUGSHV90J&workerId=ACKG8OU1KHKO2&assignmentId=30H4UDGLT34B5MS245662QXVZDHMPX&a=LUH09&tp_a=LUH09&b=30H4UDGLT34B5MS245662QXVZDHMPX&tp_b=30H4UDGLT34B5MS245662QXVZDHMPX&c=365799&tp_c=365799"},{"rt":8503,"response":{"Q0":"Students in different classrooms have seen a different proportion of fair and unfair coins before seeing the examples you select for them.","Q1":"By giving 30 examples (the maximum) on each trial so I can make sure that the students' guesses are as accurate as possible.","Q2":"The coin lands heads 90% of the time.","Q3":"Yes, I might encounter the same student twice.","Q4":"The students are also on the same alien planet as you, where coins can be unfair.","Q5":"Based on the student's second (and final) guess."},"question_order":[5,2,3,4,0,1],"trial_type":"survey-multi-choice","trial_index":39,"time_elapsed":1334695,"internal_node_id":"0.0-2.12-1.12","params":{"nStudents":24,"maxFlips":30,"completionMinutes":45,"basePay":8,"maxBonus":9,"perTrialBonus":0.5,"perTrialBonusThreshold":0.05,"exampleCost":0.01},"classroomParams":{"A":{"a":1,"b":4},"B":{"a":4,"b":1},"C":{"a":2,"b":8},"D":{"a":8,"b":2}},"conditions":["nonSeqFull","nonSeqPartial","seqNoFeedback","seqFeedback"],"classroomPairings":[["A","B"],["C","D"]],"coinWeights":[0.2,0.5,0.8],"subjectId":"ACKG8OU1KHKO2","assignmentId":"30H4UDGLT34B5MS245662QXVZDHMPX","hitId":"3UDTAB6HH6LRO17U79I9TKUGSHV90J","url":"https://gershmanlab.com/experiments/alicia/teaching/experiment/?hitId=3UDTAB6HH6LRO17U79I9TKUGSHV90J&workerId=ACKG8OU1KHKO2&assignmentId=30H4UDGLT34B5MS245662QXVZDHMPX&a=LUH09&tp_a=LUH09&b=30H4UDGLT34B5MS245662QXVZDHMPX&tp_b=30H4UDGLT34B5MS245662QXVZDHMPX&c=365799&tp_c=365799","pass":false},{"rt":1062,"stimulus":"Oops, you have missed question(s) on the comprehension check! We'll show you the instructions again.","response":0,"trial_type":"html-button-response","trial_index":40,"time_elapsed":1335759,"internal_node_id":"0.0-2.12-2.12-0.12","params":{"nStudents":24,"maxFlips":30,"completionMinutes":45,"basePay":8,"maxBonus":9,"perTrialBonus":0.5,"perTrialBonusThreshold":0.05,"exampleCost":0.01},"classroomParams":{"A":{"a":1,"b":4},"B":{"a":4,"b":1},"C":{"a":2,"b":8},"D":{"a":8,"b":2}},"conditions":["nonSeqFull","nonSeqPartial","seqNoFeedback","seqFeedback"],"classroomPairings":[["A","B"],["C","D"]],"coinWeights":[0.2,0.5,0.8],"subjectId":"ACKG8OU1KHKO2","assignmentId":"30H4UDGLT34B5MS245662QXVZDHMPX","hitId":"3UDTAB6HH6LRO17U79I9TKUGSHV90J","url":"https://gershmanlab.com/experiments/alicia/teaching/experiment/?hitId=3UDTAB6HH6LRO17U79I9TKUGSHV90J&workerId=ACKG8OU1KHKO2&assignmentId=30H4UDGLT34B5MS245662QXVZDHMPX&a=LUH09&tp_a=LUH09&b=30H4UDGLT34B5MS245662QXVZDHMPX&tp_b=30H4UDGLT34B5MS245662QXVZDHMPX&c=365799&tp_c=365799"},{"view_history":[{"page_index":0,"viewing_time":472},{"page_index":1,"viewing_time":183},{"page_index":2,"viewing_time":864},{"page_index":3,"viewing_time":144},{"page_index":4,"viewing_time":730},{"page_index":5,"viewing_time":515},{"page_index":6,"viewing_time":770}],"rt":3678,"trial_type":"instructions","trial_index":41,"time_elapsed":1339438,"internal_node_id":"0.0-2.13-0.13","params":{"nStudents":24,"maxFlips":30,"completionMinutes":45,"basePay":8,"maxBonus":9,"perTrialBonus":0.5,"perTrialBonusThreshold":0.05,"exampleCost":0.01},"classroomParams":{"A":{"a":1,"b":4},"B":{"a":4,"b":1},"C":{"a":2,"b":8},"D":{"a":8,"b":2}},"conditions":["nonSeqFull","nonSeqPartial","seqNoFeedback","seqFeedback"],"classroomPairings":[["A","B"],["C","D"]],"coinWeights":[0.2,0.5,0.8],"subjectId":"ACKG8OU1KHKO2","assignmentId":"30H4UDGLT34B5MS245662QXVZDHMPX","hitId":"3UDTAB6HH6LRO17U79I9TKUGSHV90J","url":"https://gershmanlab.com/experiments/alicia/teaching/experiment/?hitId=3UDTAB6HH6LRO17U79I9TKUGSHV90J&workerId=ACKG8OU1KHKO2&assignmentId=30H4UDGLT34B5MS245662QXVZDHMPX&a=LUH09&tp_a=LUH09&b=30H4UDGLT34B5MS245662QXVZDHMPX&tp_b=30H4UDGLT34B5MS245662QXVZDHMPX&c=365799&tp_c=365799"},{"rt":53251,"response":{"Q0":"Students in different classrooms have seen a different proportion of fair and unfair coins before seeing the examples you select for them.","Q1":"By <b>considering the student's classroom information</b> so that I can teach efficiently and accurately/helpfully at the same time (because each example I give to the student costs money!).","Q2":"The coin lands heads 90% of the time.","Q3":"Yes, I might encounter the same student twice.","Q4":"The students are also on the same alien planet as you, where coins can be unfair.","Q5":"Based on the student's second (and final) guess."},"question_order":[4,1,5,3,0,2],"trial_type":"survey-multi-choice","trial_index":42,"time_elapsed":1392688,"internal_node_id":"0.0-2.13-1.13","params":{"nStudents":24,"maxFlips":30,"completionMinutes":45,"basePay":8,"maxBonus":9,"perTrialBonus":0.5,"perTrialBonusThreshold":0.05,"exampleCost":0.01},"classroomParams":{"A":{"a":1,"b":4},"B":{"a":4,"b":1},"C":{"a":2,"b":8},"D":{"a":8,"b":2}},"conditions":["nonSeqFull","nonSeqPartial","seqNoFeedback","seqFeedback"],"classroomPairings":[["A","B"],["C","D"]],"coinWeights":[0.2,0.5,0.8],"subjectId":"ACKG8OU1KHKO2","assignmentId":"30H4UDGLT34B5MS245662QXVZDHMPX","hitId":"3UDTAB6HH6LRO17U79I9TKUGSHV90J","url":"https://gershmanlab.com/experiments/alicia/teaching/experiment/?hitId=3UDTAB6HH6LRO17U79I9TKUGSHV90J&workerId=ACKG8OU1KHKO2&assignmentId=30H4UDGLT34B5MS245662QXVZDHMPX&a=LUH09&tp_a=LUH09&b=30H4UDGLT34B5MS245662QXVZDHMPX&tp_b=30H4UDGLT34B5MS245662QXVZDHMPX&c=365799&tp_c=365799","pass":false},{"rt":1025,"stimulus":"Oops, you have missed question(s) on the comprehension check! We'll show you the instructions again.","response":0,"trial_type":"html-button-response","trial_index":43,"time_elapsed":1393715,"internal_node_id":"0.0-2.13-2.13-0.13","params":{"nStudents":24,"maxFlips":30,"completionMinutes":45,"basePay":8,"maxBonus":9,"perTrialBonus":0.5,"perTrialBonusThreshold":0.05,"exampleCost":0.01},"classroomParams":{"A":{"a":1,"b":4},"B":{"a":4,"b":1},"C":{"a":2,"b":8},"D":{"a":8,"b":2}},"conditions":["nonSeqFull","nonSeqPartial","seqNoFeedback","seqFeedback"],"classroomPairings":[["A","B"],["C","D"]],"coinWeights":[0.2,0.5,0.8],"subjectId":"ACKG8OU1KHKO2","assignmentId":"30H4UDGLT34B5MS245662QXVZDHMPX","hitId":"3UDTAB6HH6LRO17U79I9TKUGSHV90J","url":"https://gershmanlab.com/experiments/alicia/teaching/experiment/?hitId=3UDTAB6HH6LRO17U79I9TKUGSHV90J&workerId=ACKG8OU1KHKO2&assignmentId=30H4UDGLT34B5MS245662QXVZDHMPX&a=LUH09&tp_a=LUH09&b=30H4UDGLT34B5MS245662QXVZDHMPX&tp_b=30H4UDGLT34B5MS245662QXVZDHMPX&c=365799&tp_c=365799"},{"view_history":[{"page_index":0,"viewing_time":1642},{"page_index":1,"viewing_time":2290},{"page_index":2,"viewing_time":7869},{"page_index":3,"viewing_time":8951},{"page_index":4,"viewing_time":2109},{"page_index":5,"viewing_time":3287},{"page_index":6,"viewing_time":2888}],"rt":29036,"trial_type":"instructions","trial_index":44,"time_elapsed":1422750,"internal_node_id":"0.0-2.14-0.14","params":{"nStudents":24,"maxFlips":30,"completionMinutes":45,"basePay":8,"maxBonus":9,"perTrialBonus":0.5,"perTrialBonusThreshold":0.05,"exampleCost":0.01},"classroomParams":{"A":{"a":1,"b":4},"B":{"a":4,"b":1},"C":{"a":2,"b":8},"D":{"a":8,"b":2}},"conditions":["nonSeqFull","nonSeqPartial","seqNoFeedback","seqFeedback"],"classroomPairings":[["A","B"],["C","D"]],"coinWeights":[0.2,0.5,0.8],"subjectId":"ACKG8OU1KHKO2","assignmentId":"30H4UDGLT34B5MS245662QXVZDHMPX","hitId":"3UDTAB6HH6LRO17U79I9TKUGSHV90J","url":"https://gershmanlab.com/experiments/alicia/teaching/experiment/?hitId=3UDTAB6HH6LRO17U79I9TKUGSHV90J&workerId=ACKG8OU1KHKO2&assignmentId=30H4UDGLT34B5MS245662QXVZDHMPX&a=LUH09&tp_a=LUH09&b=30H4UDGLT34B5MS245662QXVZDHMPX&tp_b=30H4UDGLT34B5MS245662QXVZDHMPX&c=365799&tp_c=365799"},{"rt":25895,"response":{"Q0":"Students in different classrooms have seen a different proportion of fair and unfair coins before seeing the examples you select for them.","Q1":"By <b>considering the student's classroom information</b> so that I can teach efficiently and accurately/helpfully at the same time (because each example I give to the student costs money!).","Q2":"The coin lands heads 90% of the time.","Q3":"No, I will teach a <b>new</b> student each time.","Q4":"The students are also on the same alien planet as you, where coins can be unfair.","Q5":"Based on the student's second (and final) guess."},"question_order":[5,4,3,2,0,1],"trial_type":"survey-multi-choice","trial_index":45,"time_elapsed":1448645,"internal_node_id":"0.0-2.14-1.14","params":{"nStudents":24,"maxFlips":30,"completionMinutes":45,"basePay":8,"maxBonus":9,"perTrialBonus":0.5,"perTrialBonusThreshold":0.05,"exampleCost":0.01},"classroomParams":{"A":{"a":1,"b":4},"B":{"a":4,"b":1},"C":{"a":2,"b":8},"D":{"a":8,"b":2}},"conditions":["nonSeqFull","nonSeqPartial","seqNoFeedback","seqFeedback"],"classroomPairings":[["A","B"],["C","D"]],"coinWeights":[0.2,0.5,0.8],"subjectId":"ACKG8OU1KHKO2","assignmentId":"30H4UDGLT34B5MS245662QXVZDHMPX","hitId":"3UDTAB6HH6LRO17U79I9TKUGSHV90J","url":"https://gershmanlab.com/experiments/alicia/teaching/experiment/?hitId=3UDTAB6HH6LRO17U79I9TKUGSHV90J&workerId=ACKG8OU1KHKO2&assignmentId=30H4UDGLT34B5MS245662QXVZDHMPX&a=LUH09&tp_a=LUH09&b=30H4UDGLT34B5MS245662QXVZDHMPX&tp_b=30H4UDGLT34B5MS245662QXVZDHMPX&c=365799&tp_c=365799","pass":false},{"rt":878,"stimulus":"Oops, you have missed question(s) on the comprehension check! We'll show you the instructions again.","response":0,"trial_type":"html-button-response","trial_index":46,"time_elapsed":1449525,"internal_node_id":"0.0-2.14-2.14-0.14","params":{"nStudents":24,"maxFlips":30,"completionMinutes":45,"basePay":8,"maxBonus":9,"perTrialBonus":0.5,"perTrialBonusThreshold":0.05,"exampleCost":0.01},"classroomParams":{"A":{"a":1,"b":4},"B":{"a":4,"b":1},"C":{"a":2,"b":8},"D":{"a":8,"b":2}},"conditions":["nonSeqFull","nonSeqPartial","seqNoFeedback","seqFeedback"],"classroomPairings":[["A","B"],["C","D"]],"coinWeights":[0.2,0.5,0.8],"subjectId":"ACKG8OU1KHKO2","assignmentId":"30H4UDGLT34B5MS245662QXVZDHMPX","hitId":"3UDTAB6HH6LRO17U79I9TKUGSHV90J","url":"https://gershmanlab.com/experiments/alicia/teaching/experiment/?hitId=3UDTAB6HH6LRO17U79I9TKUGSHV90J&workerId=ACKG8OU1KHKO2&assignmentId=30H4UDGLT34B5MS245662QXVZDHMPX&a=LUH09&tp_a=LUH09&b=30H4UDGLT34B5MS245662QXVZDHMPX&tp_b=30H4UDGLT34B5MS245662QXVZDHMPX&c=365799&tp_c=365799"},{"view_history":[{"page_index":0,"viewing_time":730},{"page_index":1,"viewing_time":169},{"page_index":2,"viewing_time":693},{"page_index":3,"viewing_time":159},{"page_index":4,"viewing_time":1115},{"page_index":5,"viewing_time":706},{"page_index":6,"viewing_time":578}],"rt":4151,"trial_type":"instructions","trial_index":47,"time_elapsed":1453676,"internal_node_id":"0.0-2.15-0.15","params":{"nStudents":24,"maxFlips":30,"completionMinutes":45,"basePay":8,"maxBonus":9,"perTrialBonus":0.5,"perTrialBonusThreshold":0.05,"exampleCost":0.01},"classroomParams":{"A":{"a":1,"b":4},"B":{"a":4,"b":1},"C":{"a":2,"b":8},"D":{"a":8,"b":2}},"conditions":["nonSeqFull","nonSeqPartial","seqNoFeedback","seqFeedback"],"classroomPairings":[["A","B"],["C","D"]],"coinWeights":[0.2,0.5,0.8],"subjectId":"ACKG8OU1KHKO2","assignmentId":"30H4UDGLT34B5MS245662QXVZDHMPX","hitId":"3UDTAB6HH6LRO17U79I9TKUGSHV90J","url":"https://gershmanlab.com/experiments/alicia/teaching/experiment/?hitId=3UDTAB6HH6LRO17U79I9TKUGSHV90J&workerId=ACKG8OU1KHKO2&assignmentId=30H4UDGLT34B5MS245662QXVZDHMPX&a=LUH09&tp_a=LUH09&b=30H4UDGLT34B5MS245662QXVZDHMPX&tp_b=30H4UDGLT34B5MS245662QXVZDHMPX&c=365799&tp_c=365799"},{"rt":13733,"response":{"Q0":"Students in different classrooms will have seen a different number of heads and tails before seeing the examples you select for them.","Q1":"By <b>considering the student's classroom information</b> so that I can teach efficiently and accurately/helpfully at the same time (because each example I give to the student costs money!).","Q2":"The coin lands heads 90% of the time.","Q3":"Yes, I might encounter the same student twice.","Q4":"The students are also on the same alien planet as you, where coins can be unfair.","Q5":"Based on the student's second (and final) guess."},"question_order":[2,0,3,5,1,4],"trial_type":"survey-multi-choice","trial_index":48,"time_elapsed":1467410,"internal_node_id":"0.0-2.15-1.15","params":{"nStudents":24,"maxFlips":30,"completionMinutes":45,"basePay":8,"maxBonus":9,"perTrialBonus":0.5,"perTrialBonusThreshold":0.05,"exampleCost":0.01},"classroomParams":{"A":{"a":1,"b":4},"B":{"a":4,"b":1},"C":{"a":2,"b":8},"D":{"a":8,"b":2}},"conditions":["nonSeqFull","nonSeqPartial","seqNoFeedback","seqFeedback"],"classroomPairings":[["A","B"],["C","D"]],"coinWeights":[0.2,0.5,0.8],"subjectId":"ACKG8OU1KHKO2","assignmentId":"30H4UDGLT34B5MS245662QXVZDHMPX","hitId":"3UDTAB6HH6LRO17U79I9TKUGSHV90J","url":"https://gershmanlab.com/experiments/alicia/teaching/experiment/?hitId=3UDTAB6HH6LRO17U79I9TKUGSHV90J&workerId=ACKG8OU1KHKO2&assignmentId=30H4UDGLT34B5MS245662QXVZDHMPX&a=LUH09&tp_a=LUH09&b=30H4UDGLT34B5MS245662QXVZDHMPX&tp_b=30H4UDGLT34B5MS245662QXVZDHMPX&c=365799&tp_c=365799","pass":false},{"rt":911,"stimulus":"Oops, you have missed question(s) on the comprehension check! We'll show you the instructions again.","response":0,"trial_type":"html-button-response","trial_index":49,"time_elapsed":1468324,"internal_node_id":"0.0-2.15-2.15-0.15","params":{"nStudents":24,"maxFlips":30,"completionMinutes":45,"basePay":8,"maxBonus":9,"perTrialBonus":0.5,"perTrialBonusThreshold":0.05,"exampleCost":0.01},"classroomParams":{"A":{"a":1,"b":4},"B":{"a":4,"b":1},"C":{"a":2,"b":8},"D":{"a":8,"b":2}},"conditions":["nonSeqFull","nonSeqPartial","seqNoFeedback","seqFeedback"],"classroomPairings":[["A","B"],["C","D"]],"coinWeights":[0.2,0.5,0.8],"subjectId":"ACKG8OU1KHKO2","assignmentId":"30H4UDGLT34B5MS245662QXVZDHMPX","hitId":"3UDTAB6HH6LRO17U79I9TKUGSHV90J","url":"https://gershmanlab.com/experiments/alicia/teaching/experiment/?hitId=3UDTAB6HH6LRO17U79I9TKUGSHV90J&workerId=ACKG8OU1KHKO2&assignmentId=30H4UDGLT34B5MS245662QXVZDHMPX&a=LUH09&tp_a=LUH09&b=30H4UDGLT34B5MS245662QXVZDHMPX&tp_b=30H4UDGLT34B5MS245662QXVZDHMPX&c=365799&tp_c=365799"},{"view_history":[{"page_index":0,"viewing_time":627},{"page_index":1,"viewing_time":161},{"page_index":2,"viewing_time":757},{"page_index":3,"viewing_time":196},{"page_index":4,"viewing_time":902},{"page_index":5,"viewing_time":617},{"page_index":6,"viewing_time":627}],"rt":3887,"trial_type":"instructions","trial_index":50,"time_elapsed":1472212,"internal_node_id":"0.0-2.16-0.16","params":{"nStudents":24,"maxFlips":30,"completionMinutes":45,"basePay":8,"maxBonus":9,"perTrialBonus":0.5,"perTrialBonusThreshold":0.05,"exampleCost":0.01},"classroomParams":{"A":{"a":1,"b":4},"B":{"a":4,"b":1},"C":{"a":2,"b":8},"D":{"a":8,"b":2}},"conditions":["nonSeqFull","nonSeqPartial","seqNoFeedback","seqFeedback"],"classroomPairings":[["A","B"],["C","D"]],"coinWeights":[0.2,0.5,0.8],"subjectId":"ACKG8OU1KHKO2","assignmentId":"30H4UDGLT34B5MS245662QXVZDHMPX","hitId":"3UDTAB6HH6LRO17U79I9TKUGSHV90J","url":"https://gershmanlab.com/experiments/alicia/teaching/experiment/?hitId=3UDTAB6HH6LRO17U79I9TKUGSHV90J&workerId=ACKG8OU1KHKO2&assignmentId=30H4UDGLT34B5MS245662QXVZDHMPX&a=LUH09&tp_a=LUH09&b=30H4UDGLT34B5MS245662QXVZDHMPX&tp_b=30H4UDGLT34B5MS245662QXVZDHMPX&c=365799&tp_c=365799"},{"rt":17672,"response":{"Q0":"The classrooms are all the same and aren't helpful for deciding how to teach.","Q1":"By <b>considering the student's classroom information</b> so that I can teach efficiently and accurately/helpfully at the same time (because each example I give to the student costs money!).","Q2":"The coin lands heads 90% of the time.","Q3":"Yes, I might encounter the same student twice.","Q4":"The students are also on the same alien planet as you, where coins can be unfair.","Q5":"Based on the student's second (and final) guess."},"question_order":[3,2,4,1,0,5],"trial_type":"survey-multi-choice","trial_index":51,"time_elapsed":1489884,"internal_node_id":"0.0-2.16-1.16","params":{"nStudents":24,"maxFlips":30,"completionMinutes":45,"basePay":8,"maxBonus":9,"perTrialBonus":0.5,"perTrialBonusThreshold":0.05,"exampleCost":0.01},"classroomParams":{"A":{"a":1,"b":4},"B":{"a":4,"b":1},"C":{"a":2,"b":8},"D":{"a":8,"b":2}},"conditions":["nonSeqFull","nonSeqPartial","seqNoFeedback","seqFeedback"],"classroomPairings":[["A","B"],["C","D"]],"coinWeights":[0.2,0.5,0.8],"subjectId":"ACKG8OU1KHKO2","assignmentId":"30H4UDGLT34B5MS245662QXVZDHMPX","hitId":"3UDTAB6HH6LRO17U79I9TKUGSHV90J","url":"https://gershmanlab.com/experiments/alicia/teaching/experiment/?hitId=3UDTAB6HH6LRO17U79I9TKUGSHV90J&workerId=ACKG8OU1KHKO2&assignmentId=30H4UDGLT34B5MS245662QXVZDHMPX&a=LUH09&tp_a=LUH09&b=30H4UDGLT34B5MS245662QXVZDHMPX&tp_b=30H4UDGLT34B5MS245662QXVZDHMPX&c=365799&tp_c=365799","pass":false},{"rt":1051,"stimulus":"Oops, you have missed question(s) on the comprehension check! We'll show you the instructions again.","response":0,"trial_type":"html-button-response","trial_index":52,"time_elapsed":1490937,"internal_node_id":"0.0-2.16-2.16-0.16","params":{"nStudents":24,"maxFlips":30,"completionMinutes":45,"basePay":8,"maxBonus":9,"perTrialBonus":0.5,"perTrialBonusThreshold":0.05,"exampleCost":0.01},"classroomParams":{"A":{"a":1,"b":4},"B":{"a":4,"b":1},"C":{"a":2,"b":8},"D":{"a":8,"b":2}},"conditions":["nonSeqFull","nonSeqPartial","seqNoFeedback","seqFeedback"],"classroomPairings":[["A","B"],["C","D"]],"coinWeights":[0.2,0.5,0.8],"subjectId":"ACKG8OU1KHKO2","assignmentId":"30H4UDGLT34B5MS245662QXVZDHMPX","hitId":"3UDTAB6HH6LRO17U79I9TKUGSHV90J","url":"https://gershmanlab.com/experiments/alicia/teaching/experiment/?hitId=3UDTAB6HH6LRO17U79I9TKUGSHV90J&workerId=ACKG8OU1KHKO2&assignmentId=30H4UDGLT34B5MS245662QXVZDHMPX&a=LUH09&tp_a=LUH09&b=30H4UDGLT34B5MS245662QXVZDHMPX&tp_b=30H4UDGLT34B5MS245662QXVZDHMPX&c=365799&tp_c=365799"},{"view_history":[{"page_index":0,"viewing_time":1401},{"page_index":1,"viewing_time":787},{"page_index":2,"viewing_time":1957},{"page_index":3,"viewing_time":1955},{"page_index":4,"viewing_time":7388},{"page_index":5,"viewing_time":2960},{"page_index":6,"viewing_time":3629}],"rt":20077,"trial_type":"instructions","trial_index":53,"time_elapsed":1511014,"internal_node_id":"0.0-2.17-0.17","params":{"nStudents":24,"maxFlips":30,"completionMinutes":45,"basePay":8,"maxBonus":9,"perTrialBonus":0.5,"perTrialBonusThreshold":0.05,"exampleCost":0.01},"classroomParams":{"A":{"a":1,"b":4},"B":{"a":4,"b":1},"C":{"a":2,"b":8},"D":{"a":8,"b":2}},"conditions":["nonSeqFull","nonSeqPartial","seqNoFeedback","seqFeedback"],"classroomPairings":[["A","B"],["C","D"]],"coinWeights":[0.2,0.5,0.8],"subjectId":"ACKG8OU1KHKO2","assignmentId":"30H4UDGLT34B5MS245662QXVZDHMPX","hitId":"3UDTAB6HH6LRO17U79I9TKUGSHV90J","url":"https://gershmanlab.com/experiments/alicia/teaching/experiment/?hitId=3UDTAB6HH6LRO17U79I9TKUGSHV90J&workerId=ACKG8OU1KHKO2&assignmentId=30H4UDGLT34B5MS245662QXVZDHMPX&a=LUH09&tp_a=LUH09&b=30H4UDGLT34B5MS245662QXVZDHMPX&tp_b=30H4UDGLT34B5MS245662QXVZDHMPX&c=365799&tp_c=365799"},{"rt":14545,"response":{"Q0":"Students in different classrooms have seen a different proportion of fair and unfair coins before seeing the examples you select for them.","Q1":"By giving 30 examples (the maximum) on each trial so I can make sure that the students' guesses are as accurate as possible.","Q2":"The coin lands heads 90% of the time.","Q3":"Yes, I might encounter the same student twice.","Q4":"The students are also on the same alien planet as you, where coins can be unfair.","Q5":"Based on the student's second (and final) guess."},"question_order":[1,2,3,5,0,4],"trial_type":"survey-multi-choice","trial_index":54,"time_elapsed":1525559,"internal_node_id":"0.0-2.17-1.17","params":{"nStudents":24,"maxFlips":30,"completionMinutes":45,"basePay":8,"maxBonus":9,"perTrialBonus":0.5,"perTrialBonusThreshold":0.05,"exampleCost":0.01},"classroomParams":{"A":{"a":1,"b":4},"B":{"a":4,"b":1},"C":{"a":2,"b":8},"D":{"a":8,"b":2}},"conditions":["nonSeqFull","nonSeqPartial","seqNoFeedback","seqFeedback"],"classroomPairings":[["A","B"],["C","D"]],"coinWeights":[0.2,0.5,0.8],"subjectId":"ACKG8OU1KHKO2","assignmentId":"30H4UDGLT34B5MS245662QXVZDHMPX","hitId":"3UDTAB6HH6LRO17U79I9TKUGSHV90J","url":"https://gershmanlab.com/experiments/alicia/teaching/experiment/?hitId=3UDTAB6HH6LRO17U79I9TKUGSHV90J&workerId=ACKG8OU1KHKO2&assignmentId=30H4UDGLT34B5MS245662QXVZDHMPX&a=LUH09&tp_a=LUH09&b=30H4UDGLT34B5MS245662QXVZDHMPX&tp_b=30H4UDGLT34B5MS245662QXVZDHMPX&c=365799&tp_c=365799","pass":false},{"rt":776,"stimulus":"Oops, you have missed question(s) on the comprehension check! We'll show you the instructions again.","response":0,"trial_type":"html-button-response","trial_index":55,"time_elapsed":1526337,"internal_node_id":"0.0-2.17-2.17-0.17","params":{"nStudents":24,"maxFlips":30,"completionMinutes":45,"basePay":8,"maxBonus":9,"perTrialBonus":0.5,"perTrialBonusThreshold":0.05,"exampleCost":0.01},"classroomParams":{"A":{"a":1,"b":4},"B":{"a":4,"b":1},"C":{"a":2,"b":8},"D":{"a":8,"b":2}},"conditions":["nonSeqFull","nonSeqPartial","seqNoFeedback","seqFeedback"],"classroomPairings":[["A","B"],["C","D"]],"coinWeights":[0.2,0.5,0.8],"subjectId":"ACKG8OU1KHKO2","assignmentId":"30H4UDGLT34B5MS245662QXVZDHMPX","hitId":"3UDTAB6HH6LRO17U79I9TKUGSHV90J","url":"https://gershmanlab.com/experiments/alicia/teaching/experiment/?hitId=3UDTAB6HH6LRO17U79I9TKUGSHV90J&workerId=ACKG8OU1KHKO2&assignmentId=30H4UDGLT34B5MS245662QXVZDHMPX&a=LUH09&tp_a=LUH09&b=30H4UDGLT34B5MS245662QXVZDHMPX&tp_b=30H4UDGLT34B5MS245662QXVZDHMPX&c=365799&tp_c=365799"},{"view_history":[{"page_index":0,"viewing_time":515},{"page_index":1,"viewing_time":193},{"page_index":2,"viewing_time":565},{"page_index":3,"viewing_time":165},{"page_index":4,"viewing_time":630},{"page_index":5,"viewing_time":574},{"page_index":6,"viewing_time":952}],"rt":3595,"trial_type":"instructions","trial_index":56,"time_elapsed":1529932,"internal_node_id":"0.0-2.18-0.18","params":{"nStudents":24,"maxFlips":30,"completionMinutes":45,"basePay":8,"maxBonus":9,"perTrialBonus":0.5,"perTrialBonusThreshold":0.05,"exampleCost":0.01},"classroomParams":{"A":{"a":1,"b":4},"B":{"a":4,"b":1},"C":{"a":2,"b":8},"D":{"a":8,"b":2}},"conditions":["nonSeqFull","nonSeqPartial","seqNoFeedback","seqFeedback"],"classroomPairings":[["A","B"],["C","D"]],"coinWeights":[0.2,0.5,0.8],"subjectId":"ACKG8OU1KHKO2","assignmentId":"30H4UDGLT34B5MS245662QXVZDHMPX","hitId":"3UDTAB6HH6LRO17U79I9TKUGSHV90J","url":"https://gershmanlab.com/experiments/alicia/teaching/experiment/?hitId=3UDTAB6HH6LRO17U79I9TKUGSHV90J&workerId=ACKG8OU1KHKO2&assignmentId=30H4UDGLT34B5MS245662QXVZDHMPX&a=LUH09&tp_a=LUH09&b=30H4UDGLT34B5MS245662QXVZDHMPX&tp_b=30H4UDGLT34B5MS245662QXVZDHMPX&c=365799&tp_c=365799"},{"rt":27804,"response":{"Q0":"Students in different classrooms will have seen a different number of heads and tails before seeing the examples you select for them.","Q1":"By <b>considering the student's classroom information</b> so that I can teach efficiently and accurately/helpfully at the same time (because each example I give to the student costs money!).","Q2":"The coin lands heads 90% of the time.","Q3":"Yes, I might encounter the same student twice.","Q4":"The students are also on the same alien planet as you, where coins can be unfair.","Q5":"Based on the student's second (and final) guess."},"question_order":[3,2,0,1,4,5],"trial_type":"survey-multi-choice","trial_index":57,"time_elapsed":1557737,"internal_node_id":"0.0-2.18-1.18","params":{"nStudents":24,"maxFlips":30,"completionMinutes":45,"basePay":8,"maxBonus":9,"perTrialBonus":0.5,"perTrialBonusThreshold":0.05,"exampleCost":0.01},"classroomParams":{"A":{"a":1,"b":4},"B":{"a":4,"b":1},"C":{"a":2,"b":8},"D":{"a":8,"b":2}},"conditions":["nonSeqFull","nonSeqPartial","seqNoFeedback","seqFeedback"],"classroomPairings":[["A","B"],["C","D"]],"coinWeights":[0.2,0.5,0.8],"subjectId":"ACKG8OU1KHKO2","assignmentId":"30H4UDGLT34B5MS245662QXVZDHMPX","hitId":"3UDTAB6HH6LRO17U79I9TKUGSHV90J","url":"https://gershmanlab.com/experiments/alicia/teaching/experiment/?hitId=3UDTAB6HH6LRO17U79I9TKUGSHV90J&workerId=ACKG8OU1KHKO2&assignmentId=30H4UDGLT34B5MS245662QXVZDHMPX&a=LUH09&tp_a=LUH09&b=30H4UDGLT34B5MS245662QXVZDHMPX&tp_b=30H4UDGLT34B5MS245662QXVZDHMPX&c=365799&tp_c=365799","pass":false},{"rt":736,"stimulus":"Oops, you have missed question(s) on the comprehension check! We'll show you the instructions again.","response":0,"trial_type":"html-button-response","trial_index":58,"time_elapsed":1558476,"internal_node_id":"0.0-2.18-2.18-0.18","params":{"nStudents":24,"maxFlips":30,"completionMinutes":45,"basePay":8,"maxBonus":9,"perTrialBonus":0.5,"perTrialBonusThreshold":0.05,"exampleCost":0.01},"classroomParams":{"A":{"a":1,"b":4},"B":{"a":4,"b":1},"C":{"a":2,"b":8},"D":{"a":8,"b":2}},"conditions":["nonSeqFull","nonSeqPartial","seqNoFeedback","seqFeedback"],"classroomPairings":[["A","B"],["C","D"]],"coinWeights":[0.2,0.5,0.8],"subjectId":"ACKG8OU1KHKO2","assignmentId":"30H4UDGLT34B5MS245662QXVZDHMPX","hitId":"3UDTAB6HH6LRO17U79I9TKUGSHV90J","url":"https://gershmanlab.com/experiments/alicia/teaching/experiment/?hitId=3UDTAB6HH6LRO17U79I9TKUGSHV90J&workerId=ACKG8OU1KHKO2&assignmentId=30H4UDGLT34B5MS245662QXVZDHMPX&a=LUH09&tp_a=LUH09&b=30H4UDGLT34B5MS245662QXVZDHMPX&tp_b=30H4UDGLT34B5MS245662QXVZDHMPX&c=365799&tp_c=365799"},{"view_history":[{"page_index":0,"viewing_time":3580},{"page_index":1,"viewing_time":2188},{"page_index":2,"viewing_time":9869},{"page_index":3,"viewing_time":24725},{"page_index":4,"viewing_time":12859},{"page_index":5,"viewing_time":23729},{"page_index":6,"viewing_time":22503}],"rt":99454,"trial_type":"instructions","trial_index":59,"time_elapsed":1657927,"internal_node_id":"0.0-2.19-0.19","params":{"nStudents":24,"maxFlips":30,"completionMinutes":45,"basePay":8,"maxBonus":9,"perTrialBonus":0.5,"perTrialBonusThreshold":0.05,"exampleCost":0.01},"classroomParams":{"A":{"a":1,"b":4},"B":{"a":4,"b":1},"C":{"a":2,"b":8},"D":{"a":8,"b":2}},"conditions":["nonSeqFull","nonSeqPartial","seqNoFeedback","seqFeedback"],"classroomPairings":[["A","B"],["C","D"]],"coinWeights":[0.2,0.5,0.8],"subjectId":"ACKG8OU1KHKO2","assignmentId":"30H4UDGLT34B5MS245662QXVZDHMPX","hitId":"3UDTAB6HH6LRO17U79I9TKUGSHV90J","url":"https://gershmanlab.com/experiments/alicia/teaching/experiment/?hitId=3UDTAB6HH6LRO17U79I9TKUGSHV90J&workerId=ACKG8OU1KHKO2&assignmentId=30H4UDGLT34B5MS245662QXVZDHMPX&a=LUH09&tp_a=LUH09&b=30H4UDGLT34B5MS245662QXVZDHMPX&tp_b=30H4UDGLT34B5MS245662QXVZDHMPX&c=365799&tp_c=365799"},{"rt":23643,"response":{"Q0":"Students in different classrooms have seen a different proportion of fair and unfair coins before seeing the examples you select for them.","Q1":"By giving as few examples as possible.","Q2":"The coin lands heads 90% of the time.","Q3":"Yes, I might encounter the same student twice.","Q4":"The students are also on the same alien planet as you, where coins can be unfair.","Q5":"Based on the student's second (and final) guess."},"question_order":[1,4,3,0,5,2],"trial_type":"survey-multi-choice","trial_index":60,"time_elapsed":1681571,"internal_node_id":"0.0-2.19-1.19","params":{"nStudents":24,"maxFlips":30,"completionMinutes":45,"basePay":8,"maxBonus":9,"perTrialBonus":0.5,"perTrialBonusThreshold":0.05,"exampleCost":0.01},"classroomParams":{"A":{"a":1,"b":4},"B":{"a":4,"b":1},"C":{"a":2,"b":8},"D":{"a":8,"b":2}},"conditions":["nonSeqFull","nonSeqPartial","seqNoFeedback","seqFeedback"],"classroomPairings":[["A","B"],["C","D"]],"coinWeights":[0.2,0.5,0.8],"subjectId":"ACKG8OU1KHKO2","assignmentId":"30H4UDGLT34B5MS245662QXVZDHMPX","hitId":"3UDTAB6HH6LRO17U79I9TKUGSHV90J","url":"https://gershmanlab.com/experiments/alicia/teaching/experiment/?hitId=3UDTAB6HH6LRO17U79I9TKUGSHV90J&workerId=ACKG8OU1KHKO2&assignmentId=30H4UDGLT34B5MS245662QXVZDHMPX&a=LUH09&tp_a=LUH09&b=30H4UDGLT34B5MS245662QXVZDHMPX&tp_b=30H4UDGLT34B5MS245662QXVZDHMPX&c=365799&tp_c=365799","pass":false},{"rt":1244,"stimulus":"Oops, you have missed question(s) on the comprehension check! We'll show you the instructions again.","response":0,"trial_type":"html-button-response","trial_index":61,"time_elapsed":1682817,"internal_node_id":"0.0-2.19-2.19-0.19","params":{"nStudents":24,"maxFlips":30,"completionMinutes":45,"basePay":8,"maxBonus":9,"perTrialBonus":0.5,"perTrialBonusThreshold":0.05,"exampleCost":0.01},"classroomParams":{"A":{"a":1,"b":4},"B":{"a":4,"b":1},"C":{"a":2,"b":8},"D":{"a":8,"b":2}},"conditions":["nonSeqFull","nonSeqPartial","seqNoFeedback","seqFeedback"],"classroomPairings":[["A","B"],["C","D"]],"coinWeights":[0.2,0.5,0.8],"subjectId":"ACKG8OU1KHKO2","assignmentId":"30H4UDGLT34B5MS245662QXVZDHMPX","hitId":"3UDTAB6HH6LRO17U79I9TKUGSHV90J","url":"https://gershmanlab.com/experiments/alicia/teaching/experiment/?hitId=3UDTAB6HH6LRO17U79I9TKUGSHV90J&workerId=ACKG8OU1KHKO2&assignmentId=30H4UDGLT34B5MS245662QXVZDHMPX&a=LUH09&tp_a=LUH09&b=30H4UDGLT34B5MS245662QXVZDHMPX&tp_b=30H4UDGLT34B5MS245662QXVZDHMPX&c=365799&tp_c=365799"},{"view_history":[{"page_index":0,"viewing_time":3130},{"page_index":1,"viewing_time":762},{"page_index":2,"viewing_time":1334},{"page_index":3,"viewing_time":6798},{"page_index":4,"viewing_time":1521},{"page_index":5,"viewing_time":2611},{"page_index":6,"viewing_time":827},{"page_index":5,"viewing_time":5072},{"page_index":6,"viewing_time":884}],"rt":22939,"trial_type":"instructions","trial_index":62,"time_elapsed":1705756,"internal_node_id":"0.0-2.20-0.20","params":{"nStudents":24,"maxFlips":30,"completionMinutes":45,"basePay":8,"maxBonus":9,"perTrialBonus":0.5,"perTrialBonusThreshold":0.05,"exampleCost":0.01},"classroomParams":{"A":{"a":1,"b":4},"B":{"a":4,"b":1},"C":{"a":2,"b":8},"D":{"a":8,"b":2}},"conditions":["nonSeqFull","nonSeqPartial","seqNoFeedback","seqFeedback"],"classroomPairings":[["A","B"],["C","D"]],"coinWeights":[0.2,0.5,0.8],"subjectId":"ACKG8OU1KHKO2","assignmentId":"30H4UDGLT34B5MS245662QXVZDHMPX","hitId":"3UDTAB6HH6LRO17U79I9TKUGSHV90J","url":"https://gershmanlab.com/experiments/alicia/teaching/experiment/?hitId=3UDTAB6HH6LRO17U79I9TKUGSHV90J&workerId=ACKG8OU1KHKO2&assignmentId=30H4UDGLT34B5MS245662QXVZDHMPX&a=LUH09&tp_a=LUH09&b=30H4UDGLT34B5MS245662QXVZDHMPX&tp_b=30H4UDGLT34B5MS245662QXVZDHMPX&c=365799&tp_c=365799"},{"rt":14710,"response":{"Q0":"Students in different classrooms will have seen a different number of heads and tails before seeing the examples you select for them.","Q1":"By <b>considering the student's classroom information</b> so that I can teach efficiently and accurately/helpfully at the same time (because each example I give to the student costs money!).","Q2":"The coin lands heads 90% of the time.","Q3":"Yes, I might encounter the same student twice.","Q4":"The students are also on the same alien planet as you, where coins can be unfair.","Q5":"Based on the student's second (and final) guess."},"question_order":[5,1,0,3,2,4],"trial_type":"survey-multi-choice","trial_index":63,"time_elapsed":1720466,"internal_node_id":"0.0-2.20-1.20","params":{"nStudents":24,"maxFlips":30,"completionMinutes":45,"basePay":8,"maxBonus":9,"perTrialBonus":0.5,"perTrialBonusThreshold":0.05,"exampleCost":0.01},"classroomParams":{"A":{"a":1,"b":4},"B":{"a":4,"b":1},"C":{"a":2,"b":8},"D":{"a":8,"b":2}},"conditions":["nonSeqFull","nonSeqPartial","seqNoFeedback","seqFeedback"],"classroomPairings":[["A","B"],["C","D"]],"coinWeights":[0.2,0.5,0.8],"subjectId":"ACKG8OU1KHKO2","assignmentId":"30H4UDGLT34B5MS245662QXVZDHMPX","hitId":"3UDTAB6HH6LRO17U79I9TKUGSHV90J","url":"https://gershmanlab.com/experiments/alicia/teaching/experiment/?hitId=3UDTAB6HH6LRO17U79I9TKUGSHV90J&workerId=ACKG8OU1KHKO2&assignmentId=30H4UDGLT34B5MS245662QXVZDHMPX&a=LUH09&tp_a=LUH09&b=30H4UDGLT34B5MS245662QXVZDHMPX&tp_b=30H4UDGLT34B5MS245662QXVZDHMPX&c=365799&tp_c=365799","pass":false},{"rt":775,"stimulus":"Oops, you have missed question(s) on the comprehension check! We'll show you the instructions again.","response":0,"trial_type":"html-button-response","trial_index":64,"time_elapsed":1721243,"internal_node_id":"0.0-2.20-2.20-0.20","params":{"nStudents":24,"maxFlips":30,"completionMinutes":45,"basePay":8,"maxBonus":9,"perTrialBonus":0.5,"perTrialBonusThreshold":0.05,"exampleCost":0.01},"classroomParams":{"A":{"a":1,"b":4},"B":{"a":4,"b":1},"C":{"a":2,"b":8},"D":{"a":8,"b":2}},"conditions":["nonSeqFull","nonSeqPartial","seqNoFeedback","seqFeedback"],"classroomPairings":[["A","B"],["C","D"]],"coinWeights":[0.2,0.5,0.8],"subjectId":"ACKG8OU1KHKO2","assignmentId":"30H4UDGLT34B5MS245662QXVZDHMPX","hitId":"3UDTAB6HH6LRO17U79I9TKUGSHV90J","url":"https://gershmanlab.com/experiments/alicia/teaching/experiment/?hitId=3UDTAB6HH6LRO17U79I9TKUGSHV90J&workerId=ACKG8OU1KHKO2&assignmentId=30H4UDGLT34B5MS245662QXVZDHMPX&a=LUH09&tp_a=LUH09&b=30H4UDGLT34B5MS245662QXVZDHMPX&tp_b=30H4UDGLT34B5MS245662QXVZDHMPX&c=365799&tp_c=365799"},{"view_history":[{"page_index":0,"viewing_time":667},{"page_index":1,"viewing_time":192},{"page_index":2,"viewing_time":600},{"page_index":3,"viewing_time":169},{"page_index":4,"viewing_time":875},{"page_index":5,"viewing_time":690},{"page_index":6,"viewing_time":874}],"rt":4068,"trial_type":"instructions","trial_index":65,"time_elapsed":1725311,"internal_node_id":"0.0-2.21-0.21","params":{"nStudents":24,"maxFlips":30,"completionMinutes":45,"basePay":8,"maxBonus":9,"perTrialBonus":0.5,"perTrialBonusThreshold":0.05,"exampleCost":0.01},"classroomParams":{"A":{"a":1,"b":4},"B":{"a":4,"b":1},"C":{"a":2,"b":8},"D":{"a":8,"b":2}},"conditions":["nonSeqFull","nonSeqPartial","seqNoFeedback","seqFeedback"],"classroomPairings":[["A","B"],["C","D"]],"coinWeights":[0.2,0.5,0.8],"subjectId":"ACKG8OU1KHKO2","assignmentId":"30H4UDGLT34B5MS245662QXVZDHMPX","hitId":"3UDTAB6HH6LRO17U79I9TKUGSHV90J","url":"https://gershmanlab.com/experiments/alicia/teaching/experiment/?hitId=3UDTAB6HH6LRO17U79I9TKUGSHV90J&workerId=ACKG8OU1KHKO2&assignmentId=30H4UDGLT34B5MS245662QXVZDHMPX&a=LUH09&tp_a=LUH09&b=30H4UDGLT34B5MS245662QXVZDHMPX&tp_b=30H4UDGLT34B5MS245662QXVZDHMPX&c=365799&tp_c=365799"},{"rt":17610,"response":{"Q0":"Students in different classrooms have seen a different proportion of fair and unfair coins before seeing the examples you select for them.","Q1":"By <b>considering the student's classroom information</b> so that I can teach efficiently and accurately/helpfully at the same time (because each example I give to the student costs money!).","Q2":"The coin lands heads 90% of the time.","Q3":"No, I will teach a <b>new</b> student each time.","Q4":"The students are all on planet Earth, where they tend to believe the vast majority of coins will be fair.","Q5":"Based on the student's second (and final) guess."},"question_order":[2,4,3,0,5,1],"trial_type":"survey-multi-choice","trial_index":66,"time_elapsed":1742923,"internal_node_id":"0.0-2.21-1.21","params":{"nStudents":24,"maxFlips":30,"completionMinutes":45,"basePay":8,"maxBonus":9,"perTrialBonus":0.5,"perTrialBonusThreshold":0.05,"exampleCost":0.01},"classroomParams":{"A":{"a":1,"b":4},"B":{"a":4,"b":1},"C":{"a":2,"b":8},"D":{"a":8,"b":2}},"conditions":["nonSeqFull","nonSeqPartial","seqNoFeedback","seqFeedback"],"classroomPairings":[["A","B"],["C","D"]],"coinWeights":[0.2,0.5,0.8],"subjectId":"ACKG8OU1KHKO2","assignmentId":"30H4UDGLT34B5MS245662QXVZDHMPX","hitId":"3UDTAB6HH6LRO17U79I9TKUGSHV90J","url":"https://gershmanlab.com/experiments/alicia/teaching/experiment/?hitId=3UDTAB6HH6LRO17U79I9TKUGSHV90J&workerId=ACKG8OU1KHKO2&assignmentId=30H4UDGLT34B5MS245662QXVZDHMPX&a=LUH09&tp_a=LUH09&b=30H4UDGLT34B5MS245662QXVZDHMPX&tp_b=30H4UDGLT34B5MS245662QXVZDHMPX&c=365799&tp_c=365799","pass":false},{"rt":925,"stimulus":"Oops, you have missed question(s) on the comprehension check! We'll show you the instructions again.","response":0,"trial_type":"html-button-response","trial_index":67,"time_elapsed":1743850,"internal_node_id":"0.0-2.21-2.21-0.21","params":{"nStudents":24,"maxFlips":30,"completionMinutes":45,"basePay":8,"maxBonus":9,"perTrialBonus":0.5,"perTrialBonusThreshold":0.05,"exampleCost":0.01},"classroomParams":{"A":{"a":1,"b":4},"B":{"a":4,"b":1},"C":{"a":2,"b":8},"D":{"a":8,"b":2}},"conditions":["nonSeqFull","nonSeqPartial","seqNoFeedback","seqFeedback"],"classroomPairings":[["A","B"],["C","D"]],"coinWeights":[0.2,0.5,0.8],"subjectId":"ACKG8OU1KHKO2","assignmentId":"30H4UDGLT34B5MS245662QXVZDHMPX","hitId":"3UDTAB6HH6LRO17U79I9TKUGSHV90J","url":"https://gershmanlab.com/experiments/alicia/teaching/experiment/?hitId=3UDTAB6HH6LRO17U79I9TKUGSHV90J&workerId=ACKG8OU1KHKO2&assignmentId=30H4UDGLT34B5MS245662QXVZDHMPX&a=LUH09&tp_a=LUH09&b=30H4UDGLT34B5MS245662QXVZDHMPX&tp_b=30H4UDGLT34B5MS245662QXVZDHMPX&c=365799&tp_c=365799"},{"view_history":[{"page_index":0,"viewing_time":925},{"page_index":1,"viewing_time":180},{"page_index":2,"viewing_time":1257},{"page_index":3,"viewing_time":172},{"page_index":4,"viewing_time":834},{"page_index":5,"viewing_time":897},{"page_index":6,"viewing_time":980}],"rt":5245,"trial_type":"instructions","trial_index":68,"time_elapsed":1749095,"internal_node_id":"0.0-2.22-0.22","params":{"nStudents":24,"maxFlips":30,"completionMinutes":45,"basePay":8,"maxBonus":9,"perTrialBonus":0.5,"perTrialBonusThreshold":0.05,"exampleCost":0.01},"classroomParams":{"A":{"a":1,"b":4},"B":{"a":4,"b":1},"C":{"a":2,"b":8},"D":{"a":8,"b":2}},"conditions":["nonSeqFull","nonSeqPartial","seqNoFeedback","seqFeedback"],"classroomPairings":[["A","B"],["C","D"]],"coinWeights":[0.2,0.5,0.8],"subjectId":"ACKG8OU1KHKO2","assignmentId":"30H4UDGLT34B5MS245662QXVZDHMPX","hitId":"3UDTAB6HH6LRO17U79I9TKUGSHV90J","url":"https://gershmanlab.com/experiments/alicia/teaching/experiment/?hitId=3UDTAB6HH6LRO17U79I9TKUGSHV90J&workerId=ACKG8OU1KHKO2&assignmentId=30H4UDGLT34B5MS245662QXVZDHMPX&a=LUH09&tp_a=LUH09&b=30H4UDGLT34B5MS245662QXVZDHMPX&tp_b=30H4UDGLT34B5MS245662QXVZDHMPX&c=365799&tp_c=365799"},{"rt":66637,"response":{"Q0":"The classrooms are all the same and aren't helpful for deciding how to teach.","Q1":"By <b>considering the student's classroom information</b> so that I can teach efficiently and accurately/helpfully at the same time (because each example I give to the student costs money!).","Q2":"The coin lands heads 90% of the time.","Q3":"Yes, I might encounter the same student twice.","Q4":"The students are all on planet Earth, where they tend to believe the vast majority of coins will be fair.","Q5":"Based on the student's second (and final) guess."},"question_order":[1,5,2,4,3,0],"trial_type":"survey-multi-choice","trial_index":69,"time_elapsed":1815731,"internal_node_id":"0.0-2.22-1.22","params":{"nStudents":24,"maxFlips":30,"completionMinutes":45,"basePay":8,"maxBonus":9,"perTrialBonus":0.5,"perTrialBonusThreshold":0.05,"exampleCost":0.01},"classroomParams":{"A":{"a":1,"b":4},"B":{"a":4,"b":1},"C":{"a":2,"b":8},"D":{"a":8,"b":2}},"conditions":["nonSeqFull","nonSeqPartial","seqNoFeedback","seqFeedback"],"classroomPairings":[["A","B"],["C","D"]],"coinWeights":[0.2,0.5,0.8],"subjectId":"ACKG8OU1KHKO2","assignmentId":"30H4UDGLT34B5MS245662QXVZDHMPX","hitId":"3UDTAB6HH6LRO17U79I9TKUGSHV90J","url":"https://gershmanlab.com/experiments/alicia/teaching/experiment/?hitId=3UDTAB6HH6LRO17U79I9TKUGSHV90J&workerId=ACKG8OU1KHKO2&assignmentId=30H4UDGLT34B5MS245662QXVZDHMPX&a=LUH09&tp_a=LUH09&b=30H4UDGLT34B5MS245662QXVZDHMPX&tp_b=30H4UDGLT34B5MS245662QXVZDHMPX&c=365799&tp_c=365799","pass":false},{"rt":976,"stimulus":"Oops, you have missed question(s) on the comprehension check! We'll show you the instructions again.","response":0,"trial_type":"html-button-response","trial_index":70,"time_elapsed":1816709,"internal_node_id":"0.0-2.22-2.22-0.22","params":{"nStudents":24,"maxFlips":30,"completionMinutes":45,"basePay":8,"maxBonus":9,"perTrialBonus":0.5,"perTrialBonusThreshold":0.05,"exampleCost":0.01},"classroomParams":{"A":{"a":1,"b":4},"B":{"a":4,"b":1},"C":{"a":2,"b":8},"D":{"a":8,"b":2}},"conditions":["nonSeqFull","nonSeqPartial","seqNoFeedback","seqFeedback"],"classroomPairings":[["A","B"],["C","D"]],"coinWeights":[0.2,0.5,0.8],"subjectId":"ACKG8OU1KHKO2","assignmentId":"30H4UDGLT34B5MS245662QXVZDHMPX","hitId":"3UDTAB6HH6LRO17U79I9TKUGSHV90J","url":"https://gershmanlab.com/experiments/alicia/teaching/experiment/?hitId=3UDTAB6HH6LRO17U79I9TKUGSHV90J&workerId=ACKG8OU1KHKO2&assignmentId=30H4UDGLT34B5MS245662QXVZDHMPX&a=LUH09&tp_a=LUH09&b=30H4UDGLT34B5MS245662QXVZDHMPX&tp_b=30H4UDGLT34B5MS245662QXVZDHMPX&c=365799&tp_c=365799"},{"view_history":[{"page_index":0,"viewing_time":738},{"page_index":1,"viewing_time":177},{"page_index":2,"viewing_time":645},{"page_index":3,"viewing_time":178},{"page_index":4,"viewing_time":705},{"page_index":5,"viewing_time":968},{"page_index":6,"viewing_time":972}],"rt":4383,"trial_type":"instructions","trial_index":71,"time_elapsed":1821093,"internal_node_id":"0.0-2.23-0.23","params":{"nStudents":24,"maxFlips":30,"completionMinutes":45,"basePay":8,"maxBonus":9,"perTrialBonus":0.5,"perTrialBonusThreshold":0.05,"exampleCost":0.01},"classroomParams":{"A":{"a":1,"b":4},"B":{"a":4,"b":1},"C":{"a":2,"b":8},"D":{"a":8,"b":2}},"conditions":["nonSeqFull","nonSeqPartial","seqNoFeedback","seqFeedback"],"classroomPairings":[["A","B"],["C","D"]],"coinWeights":[0.2,0.5,0.8],"subjectId":"ACKG8OU1KHKO2","assignmentId":"30H4UDGLT34B5MS245662QXVZDHMPX","hitId":"3UDTAB6HH6LRO17U79I9TKUGSHV90J","url":"https://gershmanlab.com/experiments/alicia/teaching/experiment/?hitId=3UDTAB6HH6LRO17U79I9TKUGSHV90J&workerId=ACKG8OU1KHKO2&assignmentId=30H4UDGLT34B5MS245662QXVZDHMPX&a=LUH09&tp_a=LUH09&b=30H4UDGLT34B5MS245662QXVZDHMPX&tp_b=30H4UDGLT34B5MS245662QXVZDHMPX&c=365799&tp_c=365799"},{"rt":67626,"response":{"Q0":"The classrooms are all the same and aren't helpful for deciding how to teach.","Q1":"By <b>considering the student's classroom information</b> so that I can teach efficiently and accurately/helpfully at the same time (because each example I give to the student costs money!).","Q2":"The coin lands heads 90% of the time.","Q3":"Yes, I might encounter the same student twice.","Q4":"The students are also on the same alien planet as you, where coins can be unfair.","Q5":"Based on the student's second (and final) guess."},"question_order":[3,5,1,0,2,4],"trial_type":"survey-multi-choice","trial_index":72,"time_elapsed":1888718,"internal_node_id":"0.0-2.23-1.23","params":{"nStudents":24,"maxFlips":30,"completionMinutes":45,"basePay":8,"maxBonus":9,"perTrialBonus":0.5,"perTrialBonusThreshold":0.05,"exampleCost":0.01},"classroomParams":{"A":{"a":1,"b":4},"B":{"a":4,"b":1},"C":{"a":2,"b":8},"D":{"a":8,"b":2}},"conditions":["nonSeqFull","nonSeqPartial","seqNoFeedback","seqFeedback"],"classroomPairings":[["A","B"],["C","D"]],"coinWeights":[0.2,0.5,0.8],"subjectId":"ACKG8OU1KHKO2","assignmentId":"30H4UDGLT34B5MS245662QXVZDHMPX","hitId":"3UDTAB6HH6LRO17U79I9TKUGSHV90J","url":"https://gershmanlab.com/experiments/alicia/teaching/experiment/?hitId=3UDTAB6HH6LRO17U79I9TKUGSHV90J&workerId=ACKG8OU1KHKO2&assignmentId=30H4UDGLT34B5MS245662QXVZDHMPX&a=LUH09&tp_a=LUH09&b=30H4UDGLT34B5MS245662QXVZDHMPX&tp_b=30H4UDGLT34B5MS245662QXVZDHMPX&c=365799&tp_c=365799","pass":false},{"rt":801,"stimulus":"Oops, you have missed question(s) on the comprehension check! We'll show you the instructions again.","response":0,"trial_type":"html-button-response","trial_index":73,"time_elapsed":1889522,"internal_node_id":"0.0-2.23-2.23-0.23","params":{"nStudents":24,"maxFlips":30,"completionMinutes":45,"basePay":8,"maxBonus":9,"perTrialBonus":0.5,"perTrialBonusThreshold":0.05,"exampleCost":0.01},"classroomParams":{"A":{"a":1,"b":4},"B":{"a":4,"b":1},"C":{"a":2,"b":8},"D":{"a":8,"b":2}},"conditions":["nonSeqFull","nonSeqPartial","seqNoFeedback","seqFeedback"],"classroomPairings":[["A","B"],["C","D"]],"coinWeights":[0.2,0.5,0.8],"subjectId":"ACKG8OU1KHKO2","assignmentId":"30H4UDGLT34B5MS245662QXVZDHMPX","hitId":"3UDTAB6HH6LRO17U79I9TKUGSHV90J","url":"https://gershmanlab.com/experiments/alicia/teaching/experiment/?hitId=3UDTAB6HH6LRO17U79I9TKUGSHV90J&workerId=ACKG8OU1KHKO2&assignmentId=30H4UDGLT34B5MS245662QXVZDHMPX&a=LUH09&tp_a=LUH09&b=30H4UDGLT34B5MS245662QXVZDHMPX&tp_b=30H4UDGLT34B5MS245662QXVZDHMPX&c=365799&tp_c=365799"},{"view_history":[{"page_index":0,"viewing_time":639},{"page_index":1,"viewing_time":197},{"page_index":2,"viewing_time":728},{"page_index":3,"viewing_time":171},{"page_index":4,"viewing_time":653},{"page_index":5,"viewing_time":598},{"page_index":6,"viewing_time":699}],"rt":3686,"trial_type":"instructions","trial_index":74,"time_elapsed":1893208,"internal_node_id":"0.0-2.24-0.24","params":{"nStudents":24,"maxFlips":30,"completionMinutes":45,"basePay":8,"maxBonus":9,"perTrialBonus":0.5,"perTrialBonusThreshold":0.05,"exampleCost":0.01},"classroomParams":{"A":{"a":1,"b":4},"B":{"a":4,"b":1},"C":{"a":2,"b":8},"D":{"a":8,"b":2}},"conditions":["nonSeqFull","nonSeqPartial","seqNoFeedback","seqFeedback"],"classroomPairings":[["A","B"],["C","D"]],"coinWeights":[0.2,0.5,0.8],"subjectId":"ACKG8OU1KHKO2","assignmentId":"30H4UDGLT34B5MS245662QXVZDHMPX","hitId":"3UDTAB6HH6LRO17U79I9TKUGSHV90J","url":"https://gershmanlab.com/experiments/alicia/teaching/experiment/?hitId=3UDTAB6HH6LRO17U79I9TKUGSHV90J&workerId=ACKG8OU1KHKO2&assignmentId=30H4UDGLT34B5MS245662QXVZDHMPX&a=LUH09&tp_a=LUH09&b=30H4UDGLT34B5MS245662QXVZDHMPX&tp_b=30H4UDGLT34B5MS245662QXVZDHMPX&c=365799&tp_c=365799"},{"rt":7217,"response":{"Q0":"The classrooms are all the same and aren't helpful for deciding how to teach.","Q1":"By <b>considering the student's classroom information</b> so that I can teach efficiently and accurately/helpfully at the same time (because each example I give to the student costs money!).","Q2":"The coin lands heads 90% of the time.","Q3":"No, I will teach a <b>new</b> student each time.","Q4":"The students are also on the same alien planet as you, where coins can be unfair.","Q5":"Based on both guesses."},"question_order":[1,4,3,2,0,5],"trial_type":"survey-multi-choice","trial_index":75,"time_elapsed":1900426,"internal_node_id":"0.0-2.24-1.24","params":{"nStudents":24,"maxFlips":30,"completionMinutes":45,"basePay":8,"maxBonus":9,"perTrialBonus":0.5,"perTrialBonusThreshold":0.05,"exampleCost":0.01},"classroomParams":{"A":{"a":1,"b":4},"B":{"a":4,"b":1},"C":{"a":2,"b":8},"D":{"a":8,"b":2}},"conditions":["nonSeqFull","nonSeqPartial","seqNoFeedback","seqFeedback"],"classroomPairings":[["A","B"],["C","D"]],"coinWeights":[0.2,0.5,0.8],"subjectId":"ACKG8OU1KHKO2","assignmentId":"30H4UDGLT34B5MS245662QXVZDHMPX","hitId":"3UDTAB6HH6LRO17U79I9TKUGSHV90J","url":"https://gershmanlab.com/experiments/alicia/teaching/experiment/?hitId=3UDTAB6HH6LRO17U79I9TKUGSHV90J&workerId=ACKG8OU1KHKO2&assignmentId=30H4UDGLT34B5MS245662QXVZDHMPX&a=LUH09&tp_a=LUH09&b=30H4UDGLT34B5MS245662QXVZDHMPX&tp_b=30H4UDGLT34B5MS245662QXVZDHMPX&c=365799&tp_c=365799","pass":false},{"rt":679,"stimulus":"Oops, you have missed question(s) on the comprehension check! We'll show you the instructions again.","response":0,"trial_type":"html-button-response","trial_index":76,"time_elapsed":1901108,"internal_node_id":"0.0-2.24-2.24-0.24","params":{"nStudents":24,"maxFlips":30,"completionMinutes":45,"basePay":8,"maxBonus":9,"perTrialBonus":0.5,"perTrialBonusThreshold":0.05,"exampleCost":0.01},"classroomParams":{"A":{"a":1,"b":4},"B":{"a":4,"b":1},"C":{"a":2,"b":8},"D":{"a":8,"b":2}},"conditions":["nonSeqFull","nonSeqPartial","seqNoFeedback","seqFeedback"],"classroomPairings":[["A","B"],["C","D"]],"coinWeights":[0.2,0.5,0.8],"subjectId":"ACKG8OU1KHKO2","assignmentId":"30H4UDGLT34B5MS245662QXVZDHMPX","hitId":"3UDTAB6HH6LRO17U79I9TKUGSHV90J","url":"https://gershmanlab.com/experiments/alicia/teaching/experiment/?hitId=3UDTAB6HH6LRO17U79I9TKUGSHV90J&workerId=ACKG8OU1KHKO2&assignmentId=30H4UDGLT34B5MS245662QXVZDHMPX&a=LUH09&tp_a=LUH09&b=30H4UDGLT34B5MS245662QXVZDHMPX&tp_b=30H4UDGLT34B5MS245662QXVZDHMPX&c=365799&tp_c=365799"},{"view_history":[{"page_index":0,"viewing_time":1867},{"page_index":1,"viewing_time":801},{"page_index":2,"viewing_time":29930},{"page_index":3,"viewing_time":395},{"page_index":4,"viewing_time":919},{"page_index":5,"viewing_time":879},{"page_index":6,"viewing_time":848}],"rt":35640,"trial_type":"instructions","trial_index":77,"time_elapsed":1936747,"internal_node_id":"0.0-2.25-0.25","params":{"nStudents":24,"maxFlips":30,"completionMinutes":45,"basePay":8,"maxBonus":9,"perTrialBonus":0.5,"perTrialBonusThreshold":0.05,"exampleCost":0.01},"classroomParams":{"A":{"a":1,"b":4},"B":{"a":4,"b":1},"C":{"a":2,"b":8},"D":{"a":8,"b":2}},"conditions":["nonSeqFull","nonSeqPartial","seqNoFeedback","seqFeedback"],"classroomPairings":[["A","B"],["C","D"]],"coinWeights":[0.2,0.5,0.8],"subjectId":"ACKG8OU1KHKO2","assignmentId":"30H4UDGLT34B5MS245662QXVZDHMPX","hitId":"3UDTAB6HH6LRO17U79I9TKUGSHV90J","url":"https://gershmanlab.com/experiments/alicia/teaching/experiment/?hitId=3UDTAB6HH6LRO17U79I9TKUGSHV90J&workerId=ACKG8OU1KHKO2&assignmentId=30H4UDGLT34B5MS245662QXVZDHMPX&a=LUH09&tp_a=LUH09&b=30H4UDGLT34B5MS245662QXVZDHMPX&tp_b=30H4UDGLT34B5MS245662QXVZDHMPX&c=365799&tp_c=365799"},{"rt":86093,"response":{"Q0":"The classrooms are all the same and aren't helpful for deciding how to teach.","Q1":"By <b>considering the student's classroom information</b> so that I can teach effic