[{"rt":5142,"stimulus":"Welcome to the experiment. Press any key to begin.","response":"h","trial_type":"html-keyboard-response","trial_index":0,"time_elapsed":5158,"internal_node_id":"0.0-0.0","params":{"nStudents":24,"maxFlips":30,"completionMinutes":45,"basePay":8,"maxBonus":9,"perTrialBonus":0.5,"perTrialBonusThreshold":0.05,"exampleCost":0.01},"classroomParams":{"A":{"a":1,"b":4},"B":{"a":4,"b":1},"C":{"a":2,"b":8},"D":{"a":8,"b":2}},"conditions":["nonSeqFull","nonSeqPartial","seqNoFeedback","seqFeedback"],"classroomPairings":[["A","B"],["C","D"]],"coinWeights":[0.2,0.5,0.8],"subjectId":"AFM65NU0UXIGP","assignmentId":"3D8YOU6S9F6M8OF6YBYJN0N8HUUU6R","hitId":"3SD15I2WD2G0NA4TSPXGB81L5S7630","url":"https://gershmanlab.com/experiments/alicia/teaching/experiment/?hitId=3SD15I2WD2G0NA4TSPXGB81L5S7630&workerId=AFM65NU0UXIGP&assignmentId=3D8YOU6S9F6M8OF6YBYJN0N8HUUU6R&a=SO8D9&tp_a=SO8D9&b=3D8YOU6S9F6M8OF6YBYJN0N8HUUU6R&tp_b=3D8YOU6S9F6M8OF6YBYJN0N8HUUU6R&c=365799&tp_c=365799"},{"rt":20481,"stimulus":"\n        <h3>Please read this consent agreement carefully before deciding whether to participate in this experiment.</h3>\n        <p><b>Purpose of the research:</b> To examine how people teach effectively.</p>\n        <p><b>What you will do in this research:</b> You will teach students the weights of different coins.</p>\n        <p><b>Time required:</b> This experiment will take 45 minutes to complete.</p>\n        <p><b>Risks:</b> There are no anticipated risks associated with participating in this study.             The effects of participating should be comparable to those you would experience from viewing a computer monitor             and using a mouse and keyboard for the duration of the experiment.</p>\n        <p><b>Benefits:</b> The study provides important information about the nature of teaching.</p>\n        <p><b>Compensation:</b> You will receive <b>$8</b> for completing the experiment and a performance bonus of up to <b>$9</b>.</p>\n        <p><b>Confidentiality:</b> Your participation in this study will remain confidential.             No personally identifiable information will be associated with your data.             Your de-identified data may be shared with other researchers and used in future projects.</p>\n        <p><b>Participation and withdrawal:</b> Your participation in this study is completely voluntary and             you may refuse to participate or you may choose to withdraw at any time without penalty or loss of\n            benefits to which you are otherwise entitled.</p>\n        <p><b>How to contact the researcher:</b> If you have questions or concerns about your participation            or payment, or want to request a summary of research findings, please contact\n            Alicia Chen, aliciachen@college.harvard.edu.</p>\n        <p><b>Whom to contact about your rights in this research:</b> For questions, concerns, suggestions,             or complaints that have not been or cannot be addressed by the researcher, or to report             research-related harm, please contact the Committee on the Use of Human Subjects in Research at Harvard University,             1414 Massachusetts Avenue, Second Floor, Cambridge, MA 02138. Phone: 617-496-2847. Email: cuhs@fas.harvard.edu.</p>\n        ","response":0,"trial_type":"html-button-response","trial_index":1,"time_elapsed":25640,"internal_node_id":"0.0-1.0","params":{"nStudents":24,"maxFlips":30,"completionMinutes":45,"basePay":8,"maxBonus":9,"perTrialBonus":0.5,"perTrialBonusThreshold":0.05,"exampleCost":0.01},"classroomParams":{"A":{"a":1,"b":4},"B":{"a":4,"b":1},"C":{"a":2,"b":8},"D":{"a":8,"b":2}},"conditions":["nonSeqFull","nonSeqPartial","seqNoFeedback","seqFeedback"],"classroomPairings":[["A","B"],["C","D"]],"coinWeights":[0.2,0.5,0.8],"subjectId":"AFM65NU0UXIGP","assignmentId":"3D8YOU6S9F6M8OF6YBYJN0N8HUUU6R","hitId":"3SD15I2WD2G0NA4TSPXGB81L5S7630","url":"https://gershmanlab.com/experiments/alicia/teaching/experiment/?hitId=3SD15I2WD2G0NA4TSPXGB81L5S7630&workerId=AFM65NU0UXIGP&assignmentId=3D8YOU6S9F6M8OF6YBYJN0N8HUUU6R&a=SO8D9&tp_a=SO8D9&b=3D8YOU6S9F6M8OF6YBYJN0N8HUUU6R&tp_b=3D8YOU6S9F6M8OF6YBYJN0N8HUUU6R&c=365799&tp_c=365799"},{"view_history":[{"page_index":0,"viewing_time":4609},{"page_index":1,"viewing_time":2951},{"page_index":2,"viewing_time":103934},{"page_index":3,"viewing_time":14352},{"page_index":4,"viewing_time":9424},{"page_index":5,"viewing_time":18342},{"page_index":6,"viewing_time":56282}],"rt":209894,"trial_type":"instructions","trial_index":2,"time_elapsed":235536,"internal_node_id":"0.0-2.0-0.0","params":{"nStudents":24,"maxFlips":30,"completionMinutes":45,"basePay":8,"maxBonus":9,"perTrialBonus":0.5,"perTrialBonusThreshold":0.05,"exampleCost":0.01},"classroomParams":{"A":{"a":1,"b":4},"B":{"a":4,"b":1},"C":{"a":2,"b":8},"D":{"a":8,"b":2}},"conditions":["nonSeqFull","nonSeqPartial","seqNoFeedback","seqFeedback"],"classroomPairings":[["A","B"],["C","D"]],"coinWeights":[0.2,0.5,0.8],"subjectId":"AFM65NU0UXIGP","assignmentId":"3D8YOU6S9F6M8OF6YBYJN0N8HUUU6R","hitId":"3SD15I2WD2G0NA4TSPXGB81L5S7630","url":"https://gershmanlab.com/experiments/alicia/teaching/experiment/?hitId=3SD15I2WD2G0NA4TSPXGB81L5S7630&workerId=AFM65NU0UXIGP&assignmentId=3D8YOU6S9F6M8OF6YBYJN0N8HUUU6R&a=SO8D9&tp_a=SO8D9&b=3D8YOU6S9F6M8OF6YBYJN0N8HUUU6R&tp_b=3D8YOU6S9F6M8OF6YBYJN0N8HUUU6R&c=365799&tp_c=365799"},{"rt":46496,"response":{"Q0":"Students in different classrooms will have seen a different number of heads and tails before seeing the examples you select for them.","Q1":"By <b>considering the student's classroom information</b> so that I can teach efficiently and accurately/helpfully at the same time (because each example I give to the student costs money!).","Q2":"The coin lands heads 90% of the time.","Q3":"Yes, I might encounter the same student twice.","Q4":"The students are also on the same alien planet as you, where coins can be unfair.","Q5":"Based on the student's second (and final) guess."},"question_order":[0,2,3,1,4,5],"trial_type":"survey-multi-choice","trial_index":3,"time_elapsed":282035,"internal_node_id":"0.0-2.0-1.0","params":{"nStudents":24,"maxFlips":30,"completionMinutes":45,"basePay":8,"maxBonus":9,"perTrialBonus":0.5,"perTrialBonusThreshold":0.05,"exampleCost":0.01},"classroomParams":{"A":{"a":1,"b":4},"B":{"a":4,"b":1},"C":{"a":2,"b":8},"D":{"a":8,"b":2}},"conditions":["nonSeqFull","nonSeqPartial","seqNoFeedback","seqFeedback"],"classroomPairings":[["A","B"],["C","D"]],"coinWeights":[0.2,0.5,0.8],"subjectId":"AFM65NU0UXIGP","assignmentId":"3D8YOU6S9F6M8OF6YBYJN0N8HUUU6R","hitId":"3SD15I2WD2G0NA4TSPXGB81L5S7630","url":"https://gershmanlab.com/experiments/alicia/teaching/experiment/?hitId=3SD15I2WD2G0NA4TSPXGB81L5S7630&workerId=AFM65NU0UXIGP&assignmentId=3D8YOU6S9F6M8OF6YBYJN0N8HUUU6R&a=SO8D9&tp_a=SO8D9&b=3D8YOU6S9F6M8OF6YBYJN0N8HUUU6R&tp_b=3D8YOU6S9F6M8OF6YBYJN0N8HUUU6R&c=365799&tp_c=365799","pass":false},{"rt":1921,"stimulus":"Oops, you have missed question(s) on the comprehension check! We'll show you the instructions again.","response":0,"trial_type":"html-button-response","trial_index":4,"time_elapsed":283960,"internal_node_id":"0.0-2.0-2.0-0.0","params":{"nStudents":24,"maxFlips":30,"completionMinutes":45,"basePay":8,"maxBonus":9,"perTrialBonus":0.5,"perTrialBonusThreshold":0.05,"exampleCost":0.01},"classroomParams":{"A":{"a":1,"b":4},"B":{"a":4,"b":1},"C":{"a":2,"b":8},"D":{"a":8,"b":2}},"conditions":["nonSeqFull","nonSeqPartial","seqNoFeedback","seqFeedback"],"classroomPairings":[["A","B"],["C","D"]],"coinWeights":[0.2,0.5,0.8],"subjectId":"AFM65NU0UXIGP","assignmentId":"3D8YOU6S9F6M8OF6YBYJN0N8HUUU6R","hitId":"3SD15I2WD2G0NA4TSPXGB81L5S7630","url":"https://gershmanlab.com/experiments/alicia/teaching/experiment/?hitId=3SD15I2WD2G0NA4TSPXGB81L5S7630&workerId=AFM65NU0UXIGP&assignmentId=3D8YOU6S9F6M8OF6YBYJN0N8HUUU6R&a=SO8D9&tp_a=SO8D9&b=3D8YOU6S9F6M8OF6YBYJN0N8HUUU6R&tp_b=3D8YOU6S9F6M8OF6YBYJN0N8HUUU6R&c=365799&tp_c=365799"},{"view_history":[{"page_index":0,"viewing_time":2886},{"page_index":1,"viewing_time":2849},{"page_index":2,"viewing_time":10850},{"page_index":3,"viewing_time":12653},{"page_index":4,"viewing_time":8545},{"page_index":5,"viewing_time":11125},{"page_index":6,"viewing_time":1218}],"rt":50127,"trial_type":"instructions","trial_index":5,"time_elapsed":334088,"internal_node_id":"0.0-2.1-0.1","params":{"nStudents":24,"maxFlips":30,"completionMinutes":45,"basePay":8,"maxBonus":9,"perTrialBonus":0.5,"perTrialBonusThreshold":0.05,"exampleCost":0.01},"classroomParams":{"A":{"a":1,"b":4},"B":{"a":4,"b":1},"C":{"a":2,"b":8},"D":{"a":8,"b":2}},"conditions":["nonSeqFull","nonSeqPartial","seqNoFeedback","seqFeedback"],"classroomPairings":[["A","B"],["C","D"]],"coinWeights":[0.2,0.5,0.8],"subjectId":"AFM65NU0UXIGP","assignmentId":"3D8YOU6S9F6M8OF6YBYJN0N8HUUU6R","hitId":"3SD15I2WD2G0NA4TSPXGB81L5S7630","url":"https://gershmanlab.com/experiments/alicia/teaching/experiment/?hitId=3SD15I2WD2G0NA4TSPXGB81L5S7630&workerId=AFM65NU0UXIGP&assignmentId=3D8YOU6S9F6M8OF6YBYJN0N8HUUU6R&a=SO8D9&tp_a=SO8D9&b=3D8YOU6S9F6M8OF6YBYJN0N8HUUU6R&tp_b=3D8YOU6S9F6M8OF6YBYJN0N8HUUU6R&c=365799&tp_c=365799"},{"rt":57395,"response":{"Q0":"Students in different classrooms have seen a different proportion of fair and unfair coins before seeing the examples you select for them.","Q1":"By <b>considering the student's classroom information</b> so that I can teach efficiently and accurately/helpfully at the same time (because each example I give to the student costs money!).","Q2":"The coin lands heads 90% of the time.","Q3":"No, I will teach a <b>new</b> student each time.","Q4":"The students are also on the same alien planet as you, where coins can be unfair.","Q5":"Based on the student's second (and final) guess."},"question_order":[3,0,4,2,5,1],"trial_type":"survey-multi-choice","trial_index":6,"time_elapsed":391485,"internal_node_id":"0.0-2.1-1.1","params":{"nStudents":24,"maxFlips":30,"completionMinutes":45,"basePay":8,"maxBonus":9,"perTrialBonus":0.5,"perTrialBonusThreshold":0.05,"exampleCost":0.01},"classroomParams":{"A":{"a":1,"b":4},"B":{"a":4,"b":1},"C":{"a":2,"b":8},"D":{"a":8,"b":2}},"conditions":["nonSeqFull","nonSeqPartial","seqNoFeedback","seqFeedback"],"classroomPairings":[["A","B"],["C","D"]],"coinWeights":[0.2,0.5,0.8],"subjectId":"AFM65NU0UXIGP","assignmentId":"3D8YOU6S9F6M8OF6YBYJN0N8HUUU6R","hitId":"3SD15I2WD2G0NA4TSPXGB81L5S7630","url":"https://gershmanlab.com/experiments/alicia/teaching/experiment/?hitId=3SD15I2WD2G0NA4TSPXGB81L5S7630&workerId=AFM65NU0UXIGP&assignmentId=3D8YOU6S9F6M8OF6YBYJN0N8HUUU6R&a=SO8D9&tp_a=SO8D9&b=3D8YOU6S9F6M8OF6YBYJN0N8HUUU6R&tp_b=3D8YOU6S9F6M8OF6YBYJN0N8HUUU6R&c=365799&tp_c=365799","pass":false},{"rt":2188,"stimulus":"Oops, you have missed question(s) on the comprehension check! We'll show you the instructions again.","response":0,"trial_type":"html-button-response","trial_index":7,"time_elapsed":393676,"internal_node_id":"0.0-2.1-2.1-0.1","params":{"nStudents":24,"maxFlips":30,"completionMinutes":45,"basePay":8,"maxBonus":9,"perTrialBonus":0.5,"perTrialBonusThreshold":0.05,"exampleCost":0.01},"classroomParams":{"A":{"a":1,"b":4},"B":{"a":4,"b":1},"C":{"a":2,"b":8},"D":{"a":8,"b":2}},"conditions":["nonSeqFull","nonSeqPartial","seqNoFeedback","seqFeedback"],"classroomPairings":[["A","B"],["C","D"]],"coinWeights":[0.2,0.5,0.8],"subjectId":"AFM65NU0UXIGP","assignmentId":"3D8YOU6S9F6M8OF6YBYJN0N8HUUU6R","hitId":"3SD15I2WD2G0NA4TSPXGB81L5S7630","url":"https://gershmanlab.com/experiments/alicia/teaching/experiment/?hitId=3SD15I2WD2G0NA4TSPXGB81L5S7630&workerId=AFM65NU0UXIGP&assignmentId=3D8YOU6S9F6M8OF6YBYJN0N8HUUU6R&a=SO8D9&tp_a=SO8D9&b=3D8YOU6S9F6M8OF6YBYJN0N8HUUU6R&tp_b=3D8YOU6S9F6M8OF6YBYJN0N8HUUU6R&c=365799&tp_c=365799"},{"view_history":[{"page_index":0,"viewing_time":850},{"page_index":1,"viewing_time":269},{"page_index":2,"viewing_time":947},{"page_index":3,"viewing_time":625},{"page_index":4,"viewing_time":852},{"page_index":5,"viewing_time":1201},{"page_index":6,"viewing_time":1037}],"rt":5781,"trial_type":"instructions","trial_index":8,"time_elapsed":399458,"internal_node_id":"0.0-2.2-0.2","params":{"nStudents":24,"maxFlips":30,"completionMinutes":45,"basePay":8,"maxBonus":9,"perTrialBonus":0.5,"perTrialBonusThreshold":0.05,"exampleCost":0.01},"classroomParams":{"A":{"a":1,"b":4},"B":{"a":4,"b":1},"C":{"a":2,"b":8},"D":{"a":8,"b":2}},"conditions":["nonSeqFull","nonSeqPartial","seqNoFeedback","seqFeedback"],"classroomPairings":[["A","B"],["C","D"]],"coinWeights":[0.2,0.5,0.8],"subjectId":"AFM65NU0UXIGP","assignmentId":"3D8YOU6S9F6M8OF6YBYJN0N8HUUU6R","hitId":"3SD15I2WD2G0NA4TSPXGB81L5S7630","url":"https://gershmanlab.com/experiments/alicia/teaching/experiment/?hitId=3SD15I2WD2G0NA4TSPXGB81L5S7630&workerId=AFM65NU0UXIGP&assignmentId=3D8YOU6S9F6M8OF6YBYJN0N8HUUU6R&a=SO8D9&tp_a=SO8D9&b=3D8YOU6S9F6M8OF6YBYJN0N8HUUU6R&tp_b=3D8YOU6S9F6M8OF6YBYJN0N8HUUU6R&c=365799&tp_c=365799"},{"rt":15014,"response":{"Q0":"Students in different classrooms will have seen a different number of heads and tails before seeing the examples you select for them.","Q1":"By <b>considering the student's classroom information</b> so that I can teach efficiently and accurately/helpfully at the same time (because each example I give to the student costs money!).","Q2":"The coin lands heads 90% of the time.","Q3":"No, I will teach a <b>new</b> student each time.","Q4":"The students are also on the same alien planet as you, where coins can be unfair.","Q5":"Based on the student's second (and final) guess."},"question_order":[4,0,3,1,5,2],"trial_type":"survey-multi-choice","trial_index":9,"time_elapsed":414473,"internal_node_id":"0.0-2.2-1.2","params":{"nStudents":24,"maxFlips":30,"completionMinutes":45,"basePay":8,"maxBonus":9,"perTrialBonus":0.5,"perTrialBonusThreshold":0.05,"exampleCost":0.01},"classroomParams":{"A":{"a":1,"b":4},"B":{"a":4,"b":1},"C":{"a":2,"b":8},"D":{"a":8,"b":2}},"conditions":["nonSeqFull","nonSeqPartial","seqNoFeedback","seqFeedback"],"classroomPairings":[["A","B"],["C","D"]],"coinWeights":[0.2,0.5,0.8],"subjectId":"AFM65NU0UXIGP","assignmentId":"3D8YOU6S9F6M8OF6YBYJN0N8HUUU6R","hitId":"3SD15I2WD2G0NA4TSPXGB81L5S7630","url":"https://gershmanlab.com/experiments/alicia/teaching/experiment/?hitId=3SD15I2WD2G0NA4TSPXGB81L5S7630&workerId=AFM65NU0UXIGP&assignmentId=3D8YOU6S9F6M8OF6YBYJN0N8HUUU6R&a=SO8D9&tp_a=SO8D9&b=3D8YOU6S9F6M8OF6YBYJN0N8HUUU6R&tp_b=3D8YOU6S9F6M8OF6YBYJN0N8HUUU6R&c=365799&tp_c=365799","pass":true},{"rt":null,"stimulus":"<div style=\"font-size:30px;\">Congrats on passing the comprehension quiz! The experiment will begin in a few seconds.</div>","response":null,"trial_type":"html-keyboard-response","trial_index":10,"time_elapsed":417479,"internal_node_id":"0.0-3.0","params":{"nStudents":24,"maxFlips":30,"completionMinutes":45,"basePay":8,"maxBonus":9,"perTrialBonus":0.5,"perTrialBonusThreshold":0.05,"exampleCost":0.01},"classroomParams":{"A":{"a":1,"b":4},"B":{"a":4,"b":1},"C":{"a":2,"b":8},"D":{"a":8,"b":2}},"conditions":["nonSeqFull","nonSeqPartial","seqNoFeedback","seqFeedback"],"classroomPairings":[["A","B"],["C","D"]],"coinWeights":[0.2,0.5,0.8],"subjectId":"AFM65NU0UXIGP","assignmentId":"3D8YOU6S9F6M8OF6YBYJN0N8HUUU6R","hitId":"3SD15I2WD2G0NA4TSPXGB81L5S7630","url":"https://gershmanlab.com/experiments/alicia/teaching/experiment/?hitId=3SD15I2WD2G0NA4TSPXGB81L5S7630&workerId=AFM65NU0UXIGP&assignmentId=3D8YOU6S9F6M8OF6YBYJN0N8HUUU6R&a=SO8D9&tp_a=SO8D9&b=3D8YOU6S9F6M8OF6YBYJN0N8HUUU6R&tp_b=3D8YOU6S9F6M8OF6YBYJN0N8HUUU6R&c=365799&tp_c=365799"},{"rt":null,"stimulus":"<div style=\"font-size:50px;\">First student</div>","response":null,"trial_type":"html-keyboard-response","trial_index":11,"time_elapsed":420480,"internal_node_id":"0.0-4.0","params":{"nStudents":24,"maxFlips":30,"completionMinutes":45,"basePay":8,"maxBonus":9,"perTrialBonus":0.5,"perTrialBonusThreshold":0.05,"exampleCost":0.01},"classroomParams":{"A":{"a":1,"b":4},"B":{"a":4,"b":1},"C":{"a":2,"b":8},"D":{"a":8,"b":2}},"conditions":["nonSeqFull","nonSeqPartial","seqNoFeedback","seqFeedback"],"classroomPairings":[["A","B"],["C","D"]],"coinWeights":[0.2,0.5,0.8],"subjectId":"AFM65NU0UXIGP","assignmentId":"3D8YOU6S9F6M8OF6YBYJN0N8HUUU6R","hitId":"3SD15I2WD2G0NA4TSPXGB81L5S7630","url":"https://gershmanlab.com/experiments/alicia/teaching/experiment/?hitId=3SD15I2WD2G0NA4TSPXGB81L5S7630&workerId=AFM65NU0UXIGP&assignmentId=3D8YOU6S9F6M8OF6YBYJN0N8HUUU6R&a=SO8D9&tp_a=SO8D9&b=3D8YOU6S9F6M8OF6YBYJN0N8HUUU6R&tp_b=3D8YOU6S9F6M8OF6YBYJN0N8HUUU6R&c=365799&tp_c=365799"},{"rt":5572,"stimulus":"\n            <h4 style=\"color:Orange;\">Student 1</h4>\n            <h2>The weight of your coin is <b style=\"color:Tomato;\">0.2</b>.</h2>\n            <p>In this block, you will be giving <b>two</b> sets of examples to Student 1.</p>\n                <p>You will receive feedback at the end of the block.</p>\n            <p></p>","response":0,"trial_type":"html-button-response","trial_index":12,"time_elapsed":426053,"internal_node_id":"0.0-5.0","params":{"nStudents":24,"maxFlips":30,"completionMinutes":45,"basePay":8,"maxBonus":9,"perTrialBonus":0.5,"perTrialBonusThreshold":0.05,"exampleCost":0.01},"classroomParams":{"A":{"a":1,"b":4},"B":{"a":4,"b":1},"C":{"a":2,"b":8},"D":{"a":8,"b":2}},"conditions":["nonSeqFull","nonSeqPartial","seqNoFeedback","seqFeedback"],"classroomPairings":[["A","B"],["C","D"]],"coinWeights":[0.2,0.5,0.8],"subjectId":"AFM65NU0UXIGP","assignmentId":"3D8YOU6S9F6M8OF6YBYJN0N8HUUU6R","hitId":"3SD15I2WD2G0NA4TSPXGB81L5S7630","url":"https://gershmanlab.com/experiments/alicia/teaching/experiment/?hitId=3SD15I2WD2G0NA4TSPXGB81L5S7630&workerId=AFM65NU0UXIGP&assignmentId=3D8YOU6S9F6M8OF6YBYJN0N8HUUU6R&a=SO8D9&tp_a=SO8D9&b=3D8YOU6S9F6M8OF6YBYJN0N8HUUU6R&tp_b=3D8YOU6S9F6M8OF6YBYJN0N8HUUU6R&c=365799&tp_c=365799"},{"rt":24927,"response":{"heads":"1","tails":"4"},"type":"response","condition":"seqNoFeedback","trueTheta":0.2,"classrooms":["A","B"],"studentTrueClassroom":"B","exampleSet":"first","trial_type":"survey-html-form","trial_index":13,"time_elapsed":450982,"internal_node_id":"0.0-6.0-0.0","params":{"nStudents":24,"maxFlips":30,"completionMinutes":45,"basePay":8,"maxBonus":9,"perTrialBonus":0.5,"perTrialBonusThreshold":0.05,"exampleCost":0.01},"classroomParams":{"A":{"a":1,"b":4},"B":{"a":4,"b":1},"C":{"a":2,"b":8},"D":{"a":8,"b":2}},"conditions":["nonSeqFull","nonSeqPartial","seqNoFeedback","seqFeedback"],"classroomPairings":[["A","B"],["C","D"]],"coinWeights":[0.2,0.5,0.8],"subjectId":"AFM65NU0UXIGP","assignmentId":"3D8YOU6S9F6M8OF6YBYJN0N8HUUU6R","hitId":"3SD15I2WD2G0NA4TSPXGB81L5S7630","url":"https://gershmanlab.com/experiments/alicia/teaching/experiment/?hitId=3SD15I2WD2G0NA4TSPXGB81L5S7630&workerId=AFM65NU0UXIGP&assignmentId=3D8YOU6S9F6M8OF6YBYJN0N8HUUU6R&a=SO8D9&tp_a=SO8D9&b=3D8YOU6S9F6M8OF6YBYJN0N8HUUU6R&tp_b=3D8YOU6S9F6M8OF6YBYJN0N8HUUU6R&c=365799&tp_c=365799","heads":1,"tails":4,"studentIndex":0,"studentTrueHypers":{"a":4,"b":1},"studentGuess":0.5,"delta":0.3,"totalExamples":5,"bonusSoFar":0},{"rt":null,"stimulus":"Sending examples to student... ","response":null,"trial_type":"html-keyboard-response","trial_index":14,"time_elapsed":452238,"internal_node_id":"0.0-7.0","params":{"nStudents":24,"maxFlips":30,"completionMinutes":45,"basePay":8,"maxBonus":9,"perTrialBonus":0.5,"perTrialBonusThreshold":0.05,"exampleCost":0.01},"classroomParams":{"A":{"a":1,"b":4},"B":{"a":4,"b":1},"C":{"a":2,"b":8},"D":{"a":8,"b":2}},"conditions":["nonSeqFull","nonSeqPartial","seqNoFeedback","seqFeedback"],"classroomPairings":[["A","B"],["C","D"]],"coinWeights":[0.2,0.5,0.8],"subjectId":"AFM65NU0UXIGP","assignmentId":"3D8YOU6S9F6M8OF6YBYJN0N8HUUU6R","hitId":"3SD15I2WD2G0NA4TSPXGB81L5S7630","url":"https://gershmanlab.com/experiments/alicia/teaching/experiment/?hitId=3SD15I2WD2G0NA4TSPXGB81L5S7630&workerId=AFM65NU0UXIGP&assignmentId=3D8YOU6S9F6M8OF6YBYJN0N8HUUU6R&a=SO8D9&tp_a=SO8D9&b=3D8YOU6S9F6M8OF6YBYJN0N8HUUU6R&tp_b=3D8YOU6S9F6M8OF6YBYJN0N8HUUU6R&c=365799&tp_c=365799"},{"rt":null,"stimulus":"Examples sent to student! Waiting for student...","response":null,"trial_type":"html-keyboard-response","trial_index":15,"time_elapsed":456740,"internal_node_id":"0.0-8.0","params":{"nStudents":24,"maxFlips":30,"completionMinutes":45,"basePay":8,"maxBonus":9,"perTrialBonus":0.5,"perTrialBonusThreshold":0.05,"exampleCost":0.01},"classroomParams":{"A":{"a":1,"b":4},"B":{"a":4,"b":1},"C":{"a":2,"b":8},"D":{"a":8,"b":2}},"conditions":["nonSeqFull","nonSeqPartial","seqNoFeedback","seqFeedback"],"classroomPairings":[["A","B"],["C","D"]],"coinWeights":[0.2,0.5,0.8],"subjectId":"AFM65NU0UXIGP","assignmentId":"3D8YOU6S9F6M8OF6YBYJN0N8HUUU6R","hitId":"3SD15I2WD2G0NA4TSPXGB81L5S7630","url":"https://gershmanlab.com/experiments/alicia/teaching/experiment/?hitId=3SD15I2WD2G0NA4TSPXGB81L5S7630&workerId=AFM65NU0UXIGP&assignmentId=3D8YOU6S9F6M8OF6YBYJN0N8HUUU6R&a=SO8D9&tp_a=SO8D9&b=3D8YOU6S9F6M8OF6YBYJN0N8HUUU6R&tp_b=3D8YOU6S9F6M8OF6YBYJN0N8HUUU6R&c=365799&tp_c=365799"},{"rt":9656,"response":{"heads":"1","tails":"4"},"type":"response","condition":"seqNoFeedback","trueTheta":0.2,"classrooms":["A","B"],"studentTrueClassroom":"B","exampleSet":"second","trial_type":"survey-html-form","trial_index":16,"time_elapsed":466398,"internal_node_id":"0.0-9.0-0.0","params":{"nStudents":24,"maxFlips":30,"completionMinutes":45,"basePay":8,"maxBonus":9,"perTrialBonus":0.5,"perTrialBonusThreshold":0.05,"exampleCost":0.01},"classroomParams":{"A":{"a":1,"b":4},"B":{"a":4,"b":1},"C":{"a":2,"b":8},"D":{"a":8,"b":2}},"conditions":["nonSeqFull","nonSeqPartial","seqNoFeedback","seqFeedback"],"classroomPairings":[["A","B"],["C","D"]],"coinWeights":[0.2,0.5,0.8],"subjectId":"AFM65NU0UXIGP","assignmentId":"3D8YOU6S9F6M8OF6YBYJN0N8HUUU6R","hitId":"3SD15I2WD2G0NA4TSPXGB81L5S7630","url":"https://gershmanlab.com/experiments/alicia/teaching/experiment/?hitId=3SD15I2WD2G0NA4TSPXGB81L5S7630&workerId=AFM65NU0UXIGP&assignmentId=3D8YOU6S9F6M8OF6YBYJN0N8HUUU6R&a=SO8D9&tp_a=SO8D9&b=3D8YOU6S9F6M8OF6YBYJN0N8HUUU6R&tp_b=3D8YOU6S9F6M8OF6YBYJN0N8HUUU6R&c=365799&tp_c=365799","firstResponseHeads":1,"firstResponseTails":4,"secondResponseHeads":1,"secondResponseTails":4,"totalHeads":2,"totalTails":8,"studentIndex":0,"studentTrueHypers":{"a":4,"b":1},"studentGuess":0.4,"delta":0.2,"bonus":0,"bonusSoFar":0,"totalExamples":10},{"rt":null,"stimulus":"Sending examples to student... ","response":null,"trial_type":"html-keyboard-response","trial_index":17,"time_elapsed":468400,"internal_node_id":"0.0-10.0","params":{"nStudents":24,"maxFlips":30,"completionMinutes":45,"basePay":8,"maxBonus":9,"perTrialBonus":0.5,"perTrialBonusThreshold":0.05,"exampleCost":0.01},"classroomParams":{"A":{"a":1,"b":4},"B":{"a":4,"b":1},"C":{"a":2,"b":8},"D":{"a":8,"b":2}},"conditions":["nonSeqFull","nonSeqPartial","seqNoFeedback","seqFeedback"],"classroomPairings":[["A","B"],["C","D"]],"coinWeights":[0.2,0.5,0.8],"subjectId":"AFM65NU0UXIGP","assignmentId":"3D8YOU6S9F6M8OF6YBYJN0N8HUUU6R","hitId":"3SD15I2WD2G0NA4TSPXGB81L5S7630","url":"https://gershmanlab.com/experiments/alicia/teaching/experiment/?hitId=3SD15I2WD2G0NA4TSPXGB81L5S7630&workerId=AFM65NU0UXIGP&assignmentId=3D8YOU6S9F6M8OF6YBYJN0N8HUUU6R&a=SO8D9&tp_a=SO8D9&b=3D8YOU6S9F6M8OF6YBYJN0N8HUUU6R&tp_b=3D8YOU6S9F6M8OF6YBYJN0N8HUUU6R&c=365799&tp_c=365799"},{"rt":null,"stimulus":"Examples sent to student! Waiting for student...","response":null,"trial_type":"html-keyboard-response","trial_index":18,"time_elapsed":473402,"internal_node_id":"0.0-11.0","params":{"nStudents":24,"maxFlips":30,"completionMinutes":45,"basePay":8,"maxBonus":9,"perTrialBonus":0.5,"perTrialBonusThreshold":0.05,"exampleCost":0.01},"classroomParams":{"A":{"a":1,"b":4},"B":{"a":4,"b":1},"C":{"a":2,"b":8},"D":{"a":8,"b":2}},"conditions":["nonSeqFull","nonSeqPartial","seqNoFeedback","seqFeedback"],"classroomPairings":[["A","B"],["C","D"]],"coinWeights":[0.2,0.5,0.8],"subjectId":"AFM65NU0UXIGP","assignmentId":"3D8YOU6S9F6M8OF6YBYJN0N8HUUU6R","hitId":"3SD15I2WD2G0NA4TSPXGB81L5S7630","url":"https://gershmanlab.com/experiments/alicia/teaching/experiment/?hitId=3SD15I2WD2G0NA4TSPXGB81L5S7630&workerId=AFM65NU0UXIGP&assignmentId=3D8YOU6S9F6M8OF6YBYJN0N8HUUU6R&a=SO8D9&tp_a=SO8D9&b=3D8YOU6S9F6M8OF6YBYJN0N8HUUU6R&tp_b=3D8YOU6S9F6M8OF6YBYJN0N8HUUU6R&c=365799&tp_c=365799"},{"rt":5659,"stimulus":"\n                <p>Student 1's first guess for coin weight: <b style=\"color:Tomato\";>0.50</b></p>\n                <p>Student 1's second guess for coin weight: <b style=\"color:Tomato\";>0.40</b></p>\n                <p>You received a bonus of <b>$0.00</b> based on the student's second guess.</p>\n                <p>Total bonus so far: <b>$0.00</b></p>\n                <p>Press any key to continue.</p>\n                ","response":"h","trial_type":"html-keyboard-response","trial_index":19,"time_elapsed":479062,"internal_node_id":"0.0-12.0","params":{"nStudents":24,"maxFlips":30,"completionMinutes":45,"basePay":8,"maxBonus":9,"perTrialBonus":0.5,"perTrialBonusThreshold":0.05,"exampleCost":0.01},"classroomParams":{"A":{"a":1,"b":4},"B":{"a":4,"b":1},"C":{"a":2,"b":8},"D":{"a":8,"b":2}},"conditions":["nonSeqFull","nonSeqPartial","seqNoFeedback","seqFeedback"],"classroomPairings":[["A","B"],["C","D"]],"coinWeights":[0.2,0.5,0.8],"subjectId":"AFM65NU0UXIGP","assignmentId":"3D8YOU6S9F6M8OF6YBYJN0N8HUUU6R","hitId":"3SD15I2WD2G0NA4TSPXGB81L5S7630","url":"https://gershmanlab.com/experiments/alicia/teaching/experiment/?hitId=3SD15I2WD2G0NA4TSPXGB81L5S7630&workerId=AFM65NU0UXIGP&assignmentId=3D8YOU6S9F6M8OF6YBYJN0N8HUUU6R&a=SO8D9&tp_a=SO8D9&b=3D8YOU6S9F6M8OF6YBYJN0N8HUUU6R&tp_b=3D8YOU6S9F6M8OF6YBYJN0N8HUUU6R&c=365799&tp_c=365799"},{"rt":null,"stimulus":"<div style=\"font-size:60px;\">Next student</div>","response":null,"trial_type":"html-keyboard-response","trial_index":20,"time_elapsed":481579,"internal_node_id":"0.0-13.0-0.0","params":{"nStudents":24,"maxFlips":30,"completionMinutes":45,"basePay":8,"maxBonus":9,"perTrialBonus":0.5,"perTrialBonusThreshold":0.05,"exampleCost":0.01},"classroomParams":{"A":{"a":1,"b":4},"B":{"a":4,"b":1},"C":{"a":2,"b":8},"D":{"a":8,"b":2}},"conditions":["nonSeqFull","nonSeqPartial","seqNoFeedback","seqFeedback"],"classroomPairings":[["A","B"],["C","D"]],"coinWeights":[0.2,0.5,0.8],"subjectId":"AFM65NU0UXIGP","assignmentId":"3D8YOU6S9F6M8OF6YBYJN0N8HUUU6R","hitId":"3SD15I2WD2G0NA4TSPXGB81L5S7630","url":"https://gershmanlab.com/experiments/alicia/teaching/experiment/?hitId=3SD15I2WD2G0NA4TSPXGB81L5S7630&workerId=AFM65NU0UXIGP&assignmentId=3D8YOU6S9F6M8OF6YBYJN0N8HUUU6R&a=SO8D9&tp_a=SO8D9&b=3D8YOU6S9F6M8OF6YBYJN0N8HUUU6R&tp_b=3D8YOU6S9F6M8OF6YBYJN0N8HUUU6R&c=365799&tp_c=365799"},{"rt":17347,"stimulus":"\n            <h4 style=\"color:Orange;\">Student 2</h4>\n            <h2>The weight of your coin is <b style=\"color:Tomato;\">0.5</b>.</h2>\n            <p>In this block, you will be giving <b>two</b> sets of examples to Student 2.</p>\n                <p>You will see the student's guess after the first set of examples. You will also receive feedback at the end of the block.</p>\n            <p>To earn the highest bonus, you will have to <b>take into consideration the student's guess</b> when you choose your second set of examples.</p>","response":0,"trial_type":"html-button-response","trial_index":21,"time_elapsed":498927,"internal_node_id":"0.0-14.0","params":{"nStudents":24,"maxFlips":30,"completionMinutes":45,"basePay":8,"maxBonus":9,"perTrialBonus":0.5,"perTrialBonusThreshold":0.05,"exampleCost":0.01},"classroomParams":{"A":{"a":1,"b":4},"B":{"a":4,"b":1},"C":{"a":2,"b":8},"D":{"a":8,"b":2}},"conditions":["nonSeqFull","nonSeqPartial","seqNoFeedback","seqFeedback"],"classroomPairings":[["A","B"],["C","D"]],"coinWeights":[0.2,0.5,0.8],"subjectId":"AFM65NU0UXIGP","assignmentId":"3D8YOU6S9F6M8OF6YBYJN0N8HUUU6R","hitId":"3SD15I2WD2G0NA4TSPXGB81L5S7630","url":"https://gershmanlab.com/experiments/alicia/teaching/experiment/?hitId=3SD15I2WD2G0NA4TSPXGB81L5S7630&workerId=AFM65NU0UXIGP&assignmentId=3D8YOU6S9F6M8OF6YBYJN0N8HUUU6R&a=SO8D9&tp_a=SO8D9&b=3D8YOU6S9F6M8OF6YBYJN0N8HUUU6R&tp_b=3D8YOU6S9F6M8OF6YBYJN0N8HUUU6R&c=365799&tp_c=365799"},{"rt":7743,"response":{"heads":"1","tails":"1"},"type":"response","condition":"seqFeedback","trueTheta":0.5,"classrooms":["C","D"],"studentTrueClassroom":"D","exampleSet":"first","trial_type":"survey-html-form","trial_index":22,"time_elapsed":506671,"internal_node_id":"0.0-15.0-0.0","params":{"nStudents":24,"maxFlips":30,"completionMinutes":45,"basePay":8,"maxBonus":9,"perTrialBonus":0.5,"perTrialBonusThreshold":0.05,"exampleCost":0.01},"classroomParams":{"A":{"a":1,"b":4},"B":{"a":4,"b":1},"C":{"a":2,"b":8},"D":{"a":8,"b":2}},"conditions":["nonSeqFull","nonSeqPartial","seqNoFeedback","seqFeedback"],"classroomPairings":[["A","B"],["C","D"]],"coinWeights":[0.2,0.5,0.8],"subjectId":"AFM65NU0UXIGP","assignmentId":"3D8YOU6S9F6M8OF6YBYJN0N8HUUU6R","hitId":"3SD15I2WD2G0NA4TSPXGB81L5S7630","url":"https://gershmanlab.com/experiments/alicia/teaching/experiment/?hitId=3SD15I2WD2G0NA4TSPXGB81L5S7630&workerId=AFM65NU0UXIGP&assignmentId=3D8YOU6S9F6M8OF6YBYJN0N8HUUU6R&a=SO8D9&tp_a=SO8D9&b=3D8YOU6S9F6M8OF6YBYJN0N8HUUU6R&tp_b=3D8YOU6S9F6M8OF6YBYJN0N8HUUU6R&c=365799&tp_c=365799","heads":1,"tails":1,"studentIndex":1,"studentTrueHypers":{"a":8,"b":2},"studentGuess":0.75,"delta":0.25,"totalExamples":2,"bonusSoFar":0},{"rt":null,"stimulus":"Sending examples to student... ","response":null,"trial_type":"html-keyboard-response","trial_index":23,"time_elapsed":508423,"internal_node_id":"0.0-16.0","params":{"nStudents":24,"maxFlips":30,"completionMinutes":45,"basePay":8,"maxBonus":9,"perTrialBonus":0.5,"perTrialBonusThreshold":0.05,"exampleCost":0.01},"classroomParams":{"A":{"a":1,"b":4},"B":{"a":4,"b":1},"C":{"a":2,"b":8},"D":{"a":8,"b":2}},"conditions":["nonSeqFull","nonSeqPartial","seqNoFeedback","seqFeedback"],"classroomPairings":[["A","B"],["C","D"]],"coinWeights":[0.2,0.5,0.8],"subjectId":"AFM65NU0UXIGP","assignmentId":"3D8YOU6S9F6M8OF6YBYJN0N8HUUU6R","hitId":"3SD15I2WD2G0NA4TSPXGB81L5S7630","url":"https://gershmanlab.com/experiments/alicia/teaching/experiment/?hitId=3SD15I2WD2G0NA4TSPXGB81L5S7630&workerId=AFM65NU0UXIGP&assignmentId=3D8YOU6S9F6M8OF6YBYJN0N8HUUU6R&a=SO8D9&tp_a=SO8D9&b=3D8YOU6S9F6M8OF6YBYJN0N8HUUU6R&tp_b=3D8YOU6S9F6M8OF6YBYJN0N8HUUU6R&c=365799&tp_c=365799"},{"rt":null,"stimulus":"Examples sent to student! Waiting for student...","response":null,"trial_type":"html-keyboard-response","trial_index":24,"time_elapsed":512425,"internal_node_id":"0.0-17.0","params":{"nStudents":24,"maxFlips":30,"completionMinutes":45,"basePay":8,"maxBonus":9,"perTrialBonus":0.5,"perTrialBonusThreshold":0.05,"exampleCost":0.01},"classroomParams":{"A":{"a":1,"b":4},"B":{"a":4,"b":1},"C":{"a":2,"b":8},"D":{"a":8,"b":2}},"conditions":["nonSeqFull","nonSeqPartial","seqNoFeedback","seqFeedback"],"classroomPairings":[["A","B"],["C","D"]],"coinWeights":[0.2,0.5,0.8],"subjectId":"AFM65NU0UXIGP","assignmentId":"3D8YOU6S9F6M8OF6YBYJN0N8HUUU6R","hitId":"3SD15I2WD2G0NA4TSPXGB81L5S7630","url":"https://gershmanlab.com/experiments/alicia/teaching/experiment/?hitId=3SD15I2WD2G0NA4TSPXGB81L5S7630&workerId=AFM65NU0UXIGP&assignmentId=3D8YOU6S9F6M8OF6YBYJN0N8HUUU6R&a=SO8D9&tp_a=SO8D9&b=3D8YOU6S9F6M8OF6YBYJN0N8HUUU6R&tp_b=3D8YOU6S9F6M8OF6YBYJN0N8HUUU6R&c=365799&tp_c=365799"},{"rt":4724,"stimulus":"\n                <p>Student's guess for coin weight: <b style=\"color:Tomato;\">0.75</b></p>\n                <p></b></p>\n                <p>You will now send another set of examples to your student. <b>Remember to take your student's guess into consideration so that you can earn the highest bonus possible!</b> </p>\n                <p>Press any key to continue.</p>\n                ","response":"e","trial_type":"html-keyboard-response","trial_index":25,"time_elapsed":517150,"internal_node_id":"0.0-18.0","params":{"nStudents":24,"maxFlips":30,"completionMinutes":45,"basePay":8,"maxBonus":9,"perTrialBonus":0.5,"perTrialBonusThreshold":0.05,"exampleCost":0.01},"classroomParams":{"A":{"a":1,"b":4},"B":{"a":4,"b":1},"C":{"a":2,"b":8},"D":{"a":8,"b":2}},"conditions":["nonSeqFull","nonSeqPartial","seqNoFeedback","seqFeedback"],"classroomPairings":[["A","B"],["C","D"]],"coinWeights":[0.2,0.5,0.8],"subjectId":"AFM65NU0UXIGP","assignmentId":"3D8YOU6S9F6M8OF6YBYJN0N8HUUU6R","hitId":"3SD15I2WD2G0NA4TSPXGB81L5S7630","url":"https://gershmanlab.com/experiments/alicia/teaching/experiment/?hitId=3SD15I2WD2G0NA4TSPXGB81L5S7630&workerId=AFM65NU0UXIGP&assignmentId=3D8YOU6S9F6M8OF6YBYJN0N8HUUU6R&a=SO8D9&tp_a=SO8D9&b=3D8YOU6S9F6M8OF6YBYJN0N8HUUU6R&tp_b=3D8YOU6S9F6M8OF6YBYJN0N8HUUU6R&c=365799&tp_c=365799"},{"rt":14629,"response":{"heads":"2","tails":"8"},"type":"response","condition":"seqFeedback","trueTheta":0.5,"classrooms":["C","D"],"studentTrueClassroom":"D","exampleSet":"second","trial_type":"survey-html-form","trial_index":26,"time_elapsed":531780,"internal_node_id":"0.0-19.0-0.0","params":{"nStudents":24,"maxFlips":30,"completionMinutes":45,"basePay":8,"maxBonus":9,"perTrialBonus":0.5,"perTrialBonusThreshold":0.05,"exampleCost":0.01},"classroomParams":{"A":{"a":1,"b":4},"B":{"a":4,"b":1},"C":{"a":2,"b":8},"D":{"a":8,"b":2}},"conditions":["nonSeqFull","nonSeqPartial","seqNoFeedback","seqFeedback"],"classroomPairings":[["A","B"],["C","D"]],"coinWeights":[0.2,0.5,0.8],"subjectId":"AFM65NU0UXIGP","assignmentId":"3D8YOU6S9F6M8OF6YBYJN0N8HUUU6R","hitId":"3SD15I2WD2G0NA4TSPXGB81L5S7630","url":"https://gershmanlab.com/experiments/alicia/teaching/experiment/?hitId=3SD15I2WD2G0NA4TSPXGB81L5S7630&workerId=AFM65NU0UXIGP&assignmentId=3D8YOU6S9F6M8OF6YBYJN0N8HUUU6R&a=SO8D9&tp_a=SO8D9&b=3D8YOU6S9F6M8OF6YBYJN0N8HUUU6R&tp_b=3D8YOU6S9F6M8OF6YBYJN0N8HUUU6R&c=365799&tp_c=365799","firstResponseHeads":1,"firstResponseTails":1,"secondResponseHeads":2,"secondResponseTails":8,"totalHeads":3,"totalTails":9,"studentIndex":1,"studentTrueHypers":{"a":8,"b":2},"studentGuess":0.5,"delta":0,"bonus":0.38,"bonusSoFar":0.38,"totalExamples":12},{"rt":null,"stimulus":"Sending examples to student... ","response":null,"trial_type":"html-keyboard-response","trial_index":27,"time_elapsed":533531,"internal_node_id":"0.0-20.0","params":{"nStudents":24,"maxFlips":30,"completionMinutes":45,"basePay":8,"maxBonus":9,"perTrialBonus":0.5,"perTrialBonusThreshold":0.05,"exampleCost":0.01},"classroomParams":{"A":{"a":1,"b":4},"B":{"a":4,"b":1},"C":{"a":2,"b":8},"D":{"a":8,"b":2}},"conditions":["nonSeqFull","nonSeqPartial","seqNoFeedback","seqFeedback"],"classroomPairings":[["A","B"],["C","D"]],"coinWeights":[0.2,0.5,0.8],"subjectId":"AFM65NU0UXIGP","assignmentId":"3D8YOU6S9F6M8OF6YBYJN0N8HUUU6R","hitId":"3SD15I2WD2G0NA4TSPXGB81L5S7630","url":"https://gershmanlab.com/experiments/alicia/teaching/experiment/?hitId=3SD15I2WD2G0NA4TSPXGB81L5S7630&workerId=AFM65NU0UXIGP&assignmentId=3D8YOU6S9F6M8OF6YBYJN0N8HUUU6R&a=SO8D9&tp_a=SO8D9&b=3D8YOU6S9F6M8OF6YBYJN0N8HUUU6R&tp_b=3D8YOU6S9F6M8OF6YBYJN0N8HUUU6R&c=365799&tp_c=365799"},{"rt":null,"stimulus":"Examples sent to student! Waiting for student...","response":null,"trial_type":"html-keyboard-response","trial_index":28,"time_elapsed":539548,"internal_node_id":"0.0-21.0","params":{"nStudents":24,"maxFlips":30,"completionMinutes":45,"basePay":8,"maxBonus":9,"perTrialBonus":0.5,"perTrialBonusThreshold":0.05,"exampleCost":0.01},"classroomParams":{"A":{"a":1,"b":4},"B":{"a":4,"b":1},"C":{"a":2,"b":8},"D":{"a":8,"b":2}},"conditions":["nonSeqFull","nonSeqPartial","seqNoFeedback","seqFeedback"],"classroomPairings":[["A","B"],["C","D"]],"coinWeights":[0.2,0.5,0.8],"subjectId":"AFM65NU0UXIGP","assignmentId":"3D8YOU6S9F6M8OF6YBYJN0N8HUUU6R","hitId":"3SD15I2WD2G0NA4TSPXGB81L5S7630","url":"https://gershmanlab.com/experiments/alicia/teaching/experiment/?hitId=3SD15I2WD2G0NA4TSPXGB81L5S7630&workerId=AFM65NU0UXIGP&assignmentId=3D8YOU6S9F6M8OF6YBYJN0N8HUUU6R&a=SO8D9&tp_a=SO8D9&b=3D8YOU6S9F6M8OF6YBYJN0N8HUUU6R&tp_b=3D8YOU6S9F6M8OF6YBYJN0N8HUUU6R&c=365799&tp_c=365799"},{"rt":6128,"stimulus":"\n                <p>Student 2's first guess for coin weight: <b style=\"color:Tomato\";>0.75</b></p>\n                <p>Student 2's second guess for coin weight: <b style=\"color:Tomato\";>0.50</b></p>\n                <p>You received a bonus of <b>$0.38</b> based on the student's second guess.</p>\n                <p>Total bonus so far: <b>$0.38</b></p>\n                <p>Press any key to continue.</p>\n                ","response":"g","trial_type":"html-keyboard-response","trial_index":29,"time_elapsed":545677,"internal_node_id":"0.0-22.0","params":{"nStudents":24,"maxFlips":30,"completionMinutes":45,"basePay":8,"maxBonus":9,"perTrialBonus":0.5,"perTrialBonusThreshold":0.05,"exampleCost":0.01},"classroomParams":{"A":{"a":1,"b":4},"B":{"a":4,"b":1},"C":{"a":2,"b":8},"D":{"a":8,"b":2}},"conditions":["nonSeqFull","nonSeqPartial","seqNoFeedback","seqFeedback"],"classroomPairings":[["A","B"],["C","D"]],"coinWeights":[0.2,0.5,0.8],"subjectId":"AFM65NU0UXIGP","assignmentId":"3D8YOU6S9F6M8OF6YBYJN0N8HUUU6R","hitId":"3SD15I2WD2G0NA4TSPXGB81L5S7630","url":"https://gershmanlab.com/experiments/alicia/teaching/experiment/?hitId=3SD15I2WD2G0NA4TSPXGB81L5S7630&workerId=AFM65NU0UXIGP&assignmentId=3D8YOU6S9F6M8OF6YBYJN0N8HUUU6R&a=SO8D9&tp_a=SO8D9&b=3D8YOU6S9F6M8OF6YBYJN0N8HUUU6R&tp_b=3D8YOU6S9F6M8OF6YBYJN0N8HUUU6R&c=365799&tp_c=365799"},{"rt":null,"stimulus":"<div style=\"font-size:60px;\">Next student</div>","response":null,"trial_type":"html-keyboard-response","trial_index":30,"time_elapsed":548679,"internal_node_id":"0.0-23.0-0.0","params":{"nStudents":24,"maxFlips":30,"completionMinutes":45,"basePay":8,"maxBonus":9,"perTrialBonus":0.5,"perTrialBonusThreshold":0.05,"exampleCost":0.01},"classroomParams":{"A":{"a":1,"b":4},"B":{"a":4,"b":1},"C":{"a":2,"b":8},"D":{"a":8,"b":2}},"conditions":["nonSeqFull","nonSeqPartial","seqNoFeedback","seqFeedback"],"classroomPairings":[["A","B"],["C","D"]],"coinWeights":[0.2,0.5,0.8],"subjectId":"AFM65NU0UXIGP","assignmentId":"3D8YOU6S9F6M8OF6YBYJN0N8HUUU6R","hitId":"3SD15I2WD2G0NA4TSPXGB81L5S7630","url":"https://gershmanlab.com/experiments/alicia/teaching/experiment/?hitId=3SD15I2WD2G0NA4TSPXGB81L5S7630&workerId=AFM65NU0UXIGP&assignmentId=3D8YOU6S9F6M8OF6YBYJN0N8HUUU6R&a=SO8D9&tp_a=SO8D9&b=3D8YOU6S9F6M8OF6YBYJN0N8HUUU6R&tp_b=3D8YOU6S9F6M8OF6YBYJN0N8HUUU6R&c=365799&tp_c=365799"},{"rt":3789,"stimulus":"\n            <h4 style=\"color:Orange;\">Student 3</h4>\n            <h2>The weight of your coin is <b style=\"color:Tomato;\">0.5</b>.</h2>\n            <p>In this block, you will be giving <b>one</b> set of examples to Student 3.</p>\n                <p>You will receive feedback at the end of the block.</p>\n            <p></p>","response":0,"trial_type":"html-button-response","trial_index":31,"time_elapsed":552469,"internal_node_id":"0.0-24.0","params":{"nStudents":24,"maxFlips":30,"completionMinutes":45,"basePay":8,"maxBonus":9,"perTrialBonus":0.5,"perTrialBonusThreshold":0.05,"exampleCost":0.01},"classroomParams":{"A":{"a":1,"b":4},"B":{"a":4,"b":1},"C":{"a":2,"b":8},"D":{"a":8,"b":2}},"conditions":["nonSeqFull","nonSeqPartial","seqNoFeedback","seqFeedback"],"classroomPairings":[["A","B"],["C","D"]],"coinWeights":[0.2,0.5,0.8],"subjectId":"AFM65NU0UXIGP","assignmentId":"3D8YOU6S9F6M8OF6YBYJN0N8HUUU6R","hitId":"3SD15I2WD2G0NA4TSPXGB81L5S7630","url":"https://gershmanlab.com/experiments/alicia/teaching/experiment/?hitId=3SD15I2WD2G0NA4TSPXGB81L5S7630&workerId=AFM65NU0UXIGP&assignmentId=3D8YOU6S9F6M8OF6YBYJN0N8HUUU6R&a=SO8D9&tp_a=SO8D9&b=3D8YOU6S9F6M8OF6YBYJN0N8HUUU6R&tp_b=3D8YOU6S9F6M8OF6YBYJN0N8HUUU6R&c=365799&tp_c=365799"},{"rt":12522,"response":{"heads":"1","tails":"4"},"type":"response","condition":"nonSeqFull","trueTheta":0.5,"classrooms":["A","B"],"studentTrueClassroom":"B","exampleSet":"first","trial_type":"survey-html-form","trial_index":32,"time_elapsed":564992,"internal_node_id":"0.0-25.0-0.0","params":{"nStudents":24,"maxFlips":30,"completionMinutes":45,"basePay":8,"maxBonus":9,"perTrialBonus":0.5,"perTrialBonusThreshold":0.05,"exampleCost":0.01},"classroomParams":{"A":{"a":1,"b":4},"B":{"a":4,"b":1},"C":{"a":2,"b":8},"D":{"a":8,"b":2}},"conditions":["nonSeqFull","nonSeqPartial","seqNoFeedback","seqFeedback"],"classroomPairings":[["A","B"],["C","D"]],"coinWeights":[0.2,0.5,0.8],"subjectId":"AFM65NU0UXIGP","assignmentId":"3D8YOU6S9F6M8OF6YBYJN0N8HUUU6R","hitId":"3SD15I2WD2G0NA4TSPXGB81L5S7630","url":"https://gershmanlab.com/experiments/alicia/teaching/experiment/?hitId=3SD15I2WD2G0NA4TSPXGB81L5S7630&workerId=AFM65NU0UXIGP&assignmentId=3D8YOU6S9F6M8OF6YBYJN0N8HUUU6R&a=SO8D9&tp_a=SO8D9&b=3D8YOU6S9F6M8OF6YBYJN0N8HUUU6R&tp_b=3D8YOU6S9F6M8OF6YBYJN0N8HUUU6R&c=365799&tp_c=365799","heads":1,"tails":4,"studentIndex":2,"studentTrueHypers":{"a":4,"b":1},"studentGuess":0.5,"delta":0,"totalExamples":5,"bonus":0.45,"bonusSoFar":0.83},{"rt":null,"stimulus":"Sending examples to student... ","response":null,"trial_type":"html-keyboard-response","trial_index":33,"time_elapsed":567003,"internal_node_id":"0.0-26.0","params":{"nStudents":24,"maxFlips":30,"completionMinutes":45,"basePay":8,"maxBonus":9,"perTrialBonus":0.5,"perTrialBonusThreshold":0.05,"exampleCost":0.01},"classroomParams":{"A":{"a":1,"b":4},"B":{"a":4,"b":1},"C":{"a":2,"b":8},"D":{"a":8,"b":2}},"conditions":["nonSeqFull","nonSeqPartial","seqNoFeedback","seqFeedback"],"classroomPairings":[["A","B"],["C","D"]],"coinWeights":[0.2,0.5,0.8],"subjectId":"AFM65NU0UXIGP","assignmentId":"3D8YOU6S9F6M8OF6YBYJN0N8HUUU6R","hitId":"3SD15I2WD2G0NA4TSPXGB81L5S7630","url":"https://gershmanlab.com/experiments/alicia/teaching/experiment/?hitId=3SD15I2WD2G0NA4TSPXGB81L5S7630&workerId=AFM65NU0UXIGP&assignmentId=3D8YOU6S9F6M8OF6YBYJN0N8HUUU6R&a=SO8D9&tp_a=SO8D9&b=3D8YOU6S9F6M8OF6YBYJN0N8HUUU6R&tp_b=3D8YOU6S9F6M8OF6YBYJN0N8HUUU6R&c=365799&tp_c=365799"},{"rt":null,"stimulus":"Examples sent to student! Waiting for student...","response":null,"trial_type":"html-keyboard-response","trial_index":34,"time_elapsed":571504,"internal_node_id":"0.0-27.0","params":{"nStudents":24,"maxFlips":30,"completionMinutes":45,"basePay":8,"maxBonus":9,"perTrialBonus":0.5,"perTrialBonusThreshold":0.05,"exampleCost":0.01},"classroomParams":{"A":{"a":1,"b":4},"B":{"a":4,"b":1},"C":{"a":2,"b":8},"D":{"a":8,"b":2}},"conditions":["nonSeqFull","nonSeqPartial","seqNoFeedback","seqFeedback"],"classroomPairings":[["A","B"],["C","D"]],"coinWeights":[0.2,0.5,0.8],"subjectId":"AFM65NU0UXIGP","assignmentId":"3D8YOU6S9F6M8OF6YBYJN0N8HUUU6R","hitId":"3SD15I2WD2G0NA4TSPXGB81L5S7630","url":"https://gershmanlab.com/experiments/alicia/teaching/experiment/?hitId=3SD15I2WD2G0NA4TSPXGB81L5S7630&workerId=AFM65NU0UXIGP&assignmentId=3D8YOU6S9F6M8OF6YBYJN0N8HUUU6R&a=SO8D9&tp_a=SO8D9&b=3D8YOU6S9F6M8OF6YBYJN0N8HUUU6R&tp_b=3D8YOU6S9F6M8OF6YBYJN0N8HUUU6R&c=365799&tp_c=365799"},{"rt":1308,"stimulus":"\n                <p>Student's guess for coin weight: <b style=\"color:Tomato;\">0.50</b></p>\n                <p>You received a bonus of <b>$0.45</b>. Total bonus so far: <b>$0.83</b></b></p>\n                <p></p>\n                <p>Press any key to continue.</p>\n                ","response":"g","trial_type":"html-keyboard-response","trial_index":35,"time_elapsed":572813,"internal_node_id":"0.0-28.0","params":{"nStudents":24,"maxFlips":30,"completionMinutes":45,"basePay":8,"maxBonus":9,"perTrialBonus":0.5,"perTrialBonusThreshold":0.05,"exampleCost":0.01},"classroomParams":{"A":{"a":1,"b":4},"B":{"a":4,"b":1},"C":{"a":2,"b":8},"D":{"a":8,"b":2}},"conditions":["nonSeqFull","nonSeqPartial","seqNoFeedback","seqFeedback"],"classroomPairings":[["A","B"],["C","D"]],"coinWeights":[0.2,0.5,0.8],"subjectId":"AFM65NU0UXIGP","assignmentId":"3D8YOU6S9F6M8OF6YBYJN0N8HUUU6R","hitId":"3SD15I2WD2G0NA4TSPXGB81L5S7630","url":"https://gershmanlab.com/experiments/alicia/teaching/experiment/?hitId=3SD15I2WD2G0NA4TSPXGB81L5S7630&workerId=AFM65NU0UXIGP&assignmentId=3D8YOU6S9F6M8OF6YBYJN0N8HUUU6R&a=SO8D9&tp_a=SO8D9&b=3D8YOU6S9F6M8OF6YBYJN0N8HUUU6R&tp_b=3D8YOU6S9F6M8OF6YBYJN0N8HUUU6R&c=365799&tp_c=365799"},{"rt":null,"stimulus":"<div style=\"font-size:60px;\">Next student</div>","response":null,"trial_type":"html-keyboard-response","trial_index":36,"time_elapsed":574825,"internal_node_id":"0.0-29.0-0.0","params":{"nStudents":24,"maxFlips":30,"completionMinutes":45,"basePay":8,"maxBonus":9,"perTrialBonus":0.5,"perTrialBonusThreshold":0.05,"exampleCost":0.01},"classroomParams":{"A":{"a":1,"b":4},"B":{"a":4,"b":1},"C":{"a":2,"b":8},"D":{"a":8,"b":2}},"conditions":["nonSeqFull","nonSeqPartial","seqNoFeedback","seqFeedback"],"classroomPairings":[["A","B"],["C","D"]],"coinWeights":[0.2,0.5,0.8],"subjectId":"AFM65NU0UXIGP","assignmentId":"3D8YOU6S9F6M8OF6YBYJN0N8HUUU6R","hitId":"3SD15I2WD2G0NA4TSPXGB81L5S7630","url":"https://gershmanlab.com/experiments/alicia/teaching/experiment/?hitId=3SD15I2WD2G0NA4TSPXGB81L5S7630&workerId=AFM65NU0UXIGP&assignmentId=3D8YOU6S9F6M8OF6YBYJN0N8HUUU6R&a=SO8D9&tp_a=SO8D9&b=3D8YOU6S9F6M8OF6YBYJN0N8HUUU6R&tp_b=3D8YOU6S9F6M8OF6YBYJN0N8HUUU6R&c=365799&tp_c=365799"},{"rt":2837,"stimulus":"\n            <h4 style=\"color:Orange;\">Student 4</h4>\n            <h2>The weight of your coin is <b style=\"color:Tomato;\">0.2</b>.</h2>\n            <p>In this block, you will be giving <b>two</b> sets of examples to Student 4.</p>\n                <p>You will receive feedback at the end of the block.</p>\n            <p></p>","response":0,"trial_type":"html-button-response","trial_index":37,"time_elapsed":577663,"internal_node_id":"0.0-30.0","params":{"nStudents":24,"maxFlips":30,"completionMinutes":45,"basePay":8,"maxBonus":9,"perTrialBonus":0.5,"perTrialBonusThreshold":0.05,"exampleCost":0.01},"classroomParams":{"A":{"a":1,"b":4},"B":{"a":4,"b":1},"C":{"a":2,"b":8},"D":{"a":8,"b":2}},"conditions":["nonSeqFull","nonSeqPartial","seqNoFeedback","seqFeedback"],"classroomPairings":[["A","B"],["C","D"]],"coinWeights":[0.2,0.5,0.8],"subjectId":"AFM65NU0UXIGP","assignmentId":"3D8YOU6S9F6M8OF6YBYJN0N8HUUU6R","hitId":"3SD15I2WD2G0NA4TSPXGB81L5S7630","url":"https://gershmanlab.com/experiments/alicia/teaching/experiment/?hitId=3SD15I2WD2G0NA4TSPXGB81L5S7630&workerId=AFM65NU0UXIGP&assignmentId=3D8YOU6S9F6M8OF6YBYJN0N8HUUU6R&a=SO8D9&tp_a=SO8D9&b=3D8YOU6S9F6M8OF6YBYJN0N8HUUU6R&tp_b=3D8YOU6S9F6M8OF6YBYJN0N8HUUU6R&c=365799&tp_c=365799"},{"rt":23542,"response":{"heads":"1","tails":"4"},"type":"response","condition":"seqNoFeedback","trueTheta":0.2,"classrooms":["C","D"],"studentTrueClassroom":"D","exampleSet":"first","trial_type":"survey-html-form","trial_index":38,"time_elapsed":601206,"internal_node_id":"0.0-31.0-0.0","params":{"nStudents":24,"maxFlips":30,"completionMinutes":45,"basePay":8,"maxBonus":9,"perTrialBonus":0.5,"perTrialBonusThreshold":0.05,"exampleCost":0.01},"classroomParams":{"A":{"a":1,"b":4},"B":{"a":4,"b":1},"C":{"a":2,"b":8},"D":{"a":8,"b":2}},"conditions":["nonSeqFull","nonSeqPartial","seqNoFeedback","seqFeedback"],"classroomPairings":[["A","B"],["C","D"]],"coinWeights":[0.2,0.5,0.8],"subjectId":"AFM65NU0UXIGP","assignmentId":"3D8YOU6S9F6M8OF6YBYJN0N8HUUU6R","hitId":"3SD15I2WD2G0NA4TSPXGB81L5S7630","url":"https://gershmanlab.com/experiments/alicia/teaching/experiment/?hitId=3SD15I2WD2G0NA4TSPXGB81L5S7630&workerId=AFM65NU0UXIGP&assignmentId=3D8YOU6S9F6M8OF6YBYJN0N8HUUU6R&a=SO8D9&tp_a=SO8D9&b=3D8YOU6S9F6M8OF6YBYJN0N8HUUU6R&tp_b=3D8YOU6S9F6M8OF6YBYJN0N8HUUU6R&c=365799&tp_c=365799","heads":1,"tails":4,"studentIndex":3,"studentTrueHypers":{"a":8,"b":2},"studentGuess":0.6,"delta":0.39999999999999997,"totalExamples":5,"bonusSoFar":0.83},{"rt":null,"stimulus":"Sending examples to student... ","response":null,"trial_type":"html-keyboard-response","trial_index":39,"time_elapsed":602457,"internal_node_id":"0.0-32.0","params":{"nStudents":24,"maxFlips":30,"completionMinutes":45,"basePay":8,"maxBonus":9,"perTrialBonus":0.5,"perTrialBonusThreshold":0.05,"exampleCost":0.01},"classroomParams":{"A":{"a":1,"b":4},"B":{"a":4,"b":1},"C":{"a":2,"b":8},"D":{"a":8,"b":2}},"conditions":["nonSeqFull","nonSeqPartial","seqNoFeedback","seqFeedback"],"classroomPairings":[["A","B"],["C","D"]],"coinWeights":[0.2,0.5,0.8],"subjectId":"AFM65NU0UXIGP","assignmentId":"3D8YOU6S9F6M8OF6YBYJN0N8HUUU6R","hitId":"3SD15I2WD2G0NA4TSPXGB81L5S7630","url":"https://gershmanlab.com/experiments/alicia/teaching/experiment/?hitId=3SD15I2WD2G0NA4TSPXGB81L5S7630&workerId=AFM65NU0UXIGP&assignmentId=3D8YOU6S9F6M8OF6YBYJN0N8HUUU6R&a=SO8D9&tp_a=SO8D9&b=3D8YOU6S9F6M8OF6YBYJN0N8HUUU6R&tp_b=3D8YOU6S9F6M8OF6YBYJN0N8HUUU6R&c=365799&tp_c=365799"},{"rt":null,"stimulus":"Examples sent to student! Waiting for student...","response":null,"trial_type":"html-keyboard-response","trial_index":40,"time_elapsed":606458,"internal_node_id":"0.0-33.0","params":{"nStudents":24,"maxFlips":30,"completionMinutes":45,"basePay":8,"maxBonus":9,"perTrialBonus":0.5,"perTrialBonusThreshold":0.05,"exampleCost":0.01},"classroomParams":{"A":{"a":1,"b":4},"B":{"a":4,"b":1},"C":{"a":2,"b":8},"D":{"a":8,"b":2}},"conditions":["nonSeqFull","nonSeqPartial","seqNoFeedback","seqFeedback"],"classroomPairings":[["A","B"],["C","D"]],"coinWeights":[0.2,0.5,0.8],"subjectId":"AFM65NU0UXIGP","assignmentId":"3D8YOU6S9F6M8OF6YBYJN0N8HUUU6R","hitId":"3SD15I2WD2G0NA4TSPXGB81L5S7630","url":"https://gershmanlab.com/experiments/alicia/teaching/experiment/?hitId=3SD15I2WD2G0NA4TSPXGB81L5S7630&workerId=AFM65NU0UXIGP&assignmentId=3D8YOU6S9F6M8OF6YBYJN0N8HUUU6R&a=SO8D9&tp_a=SO8D9&b=3D8YOU6S9F6M8OF6YBYJN0N8HUUU6R&tp_b=3D8YOU6S9F6M8OF6YBYJN0N8HUUU6R&c=365799&tp_c=365799"},{"rt":9292,"response":{"heads":"1","tails":"4"},"type":"response","condition":"seqNoFeedback","trueTheta":0.2,"classrooms":["C","D"],"studentTrueClassroom":"D","exampleSet":"second","trial_type":"survey-html-form","trial_index":41,"time_elapsed":615751,"internal_node_id":"0.0-34.0-0.0","params":{"nStudents":24,"maxFlips":30,"completionMinutes":45,"basePay":8,"maxBonus":9,"perTrialBonus":0.5,"perTrialBonusThreshold":0.05,"exampleCost":0.01},"classroomParams":{"A":{"a":1,"b":4},"B":{"a":4,"b":1},"C":{"a":2,"b":8},"D":{"a":8,"b":2}},"conditions":["nonSeqFull","nonSeqPartial","seqNoFeedback","seqFeedback"],"classroomPairings":[["A","B"],["C","D"]],"coinWeights":[0.2,0.5,0.8],"subjectId":"AFM65NU0UXIGP","assignmentId":"3D8YOU6S9F6M8OF6YBYJN0N8HUUU6R","hitId":"3SD15I2WD2G0NA4TSPXGB81L5S7630","url":"https://gershmanlab.com/experiments/alicia/teaching/experiment/?hitId=3SD15I2WD2G0NA4TSPXGB81L5S7630&workerId=AFM65NU0UXIGP&assignmentId=3D8YOU6S9F6M8OF6YBYJN0N8HUUU6R&a=SO8D9&tp_a=SO8D9&b=3D8YOU6S9F6M8OF6YBYJN0N8HUUU6R&tp_b=3D8YOU6S9F6M8OF6YBYJN0N8HUUU6R&c=365799&tp_c=365799","firstResponseHeads":1,"firstResponseTails":4,"secondResponseHeads":1,"secondResponseTails":4,"totalHeads":2,"totalTails":8,"studentIndex":3,"studentTrueHypers":{"a":8,"b":2},"studentGuess":0.5,"delta":0.3,"bonus":0,"bonusSoFar":0.83,"totalExamples":10},{"rt":null,"stimulus":"Sending examples to student... ","response":null,"trial_type":"html-keyboard-response","trial_index":42,"time_elapsed":617265,"internal_node_id":"0.0-35.0","params":{"nStudents":24,"maxFlips":30,"completionMinutes":45,"basePay":8,"maxBonus":9,"perTrialBonus":0.5,"perTrialBonusThreshold":0.05,"exampleCost":0.01},"classroomParams":{"A":{"a":1,"b":4},"B":{"a":4,"b":1},"C":{"a":2,"b":8},"D":{"a":8,"b":2}},"conditions":["nonSeqFull","nonSeqPartial","seqNoFeedback","seqFeedback"],"classroomPairings":[["A","B"],["C","D"]],"coinWeights":[0.2,0.5,0.8],"subjectId":"AFM65NU0UXIGP","assignmentId":"3D8YOU6S9F6M8OF6YBYJN0N8HUUU6R","hitId":"3SD15I2WD2G0NA4TSPXGB81L5S7630","url":"https://gershmanlab.com/experiments/alicia/teaching/experiment/?hitId=3SD15I2WD2G0NA4TSPXGB81L5S7630&workerId=AFM65NU0UXIGP&assignmentId=3D8YOU6S9F6M8OF6YBYJN0N8HUUU6R&a=SO8D9&tp_a=SO8D9&b=3D8YOU6S9F6M8OF6YBYJN0N8HUUU6R&tp_b=3D8YOU6S9F6M8OF6YBYJN0N8HUUU6R&c=365799&tp_c=365799"},{"rt":null,"stimulus":"Examples sent to student! Waiting for student...","response":null,"trial_type":"html-keyboard-response","trial_index":43,"time_elapsed":622268,"internal_node_id":"0.0-36.0","params":{"nStudents":24,"maxFlips":30,"completionMinutes":45,"basePay":8,"maxBonus":9,"perTrialBonus":0.5,"perTrialBonusThreshold":0.05,"exampleCost":0.01},"classroomParams":{"A":{"a":1,"b":4},"B":{"a":4,"b":1},"C":{"a":2,"b":8},"D":{"a":8,"b":2}},"conditions":["nonSeqFull","nonSeqPartial","seqNoFeedback","seqFeedback"],"classroomPairings":[["A","B"],["C","D"]],"coinWeights":[0.2,0.5,0.8],"subjectId":"AFM65NU0UXIGP","assignmentId":"3D8YOU6S9F6M8OF6YBYJN0N8HUUU6R","hitId":"3SD15I2WD2G0NA4TSPXGB81L5S7630","url":"https://gershmanlab.com/experiments/alicia/teaching/experiment/?hitId=3SD15I2WD2G0NA4TSPXGB81L5S7630&workerId=AFM65NU0UXIGP&assignmentId=3D8YOU6S9F6M8OF6YBYJN0N8HUUU6R&a=SO8D9&tp_a=SO8D9&b=3D8YOU6S9F6M8OF6YBYJN0N8HUUU6R&tp_b=3D8YOU6S9F6M8OF6YBYJN0N8HUUU6R&c=365799&tp_c=365799"},{"rt":6241,"stimulus":"\n                <p>Student 4's first guess for coin weight: <b style=\"color:Tomato\";>0.60</b></p>\n                <p>Student 4's second guess for coin weight: <b style=\"color:Tomato\";>0.50</b></p>\n                <p>You received a bonus of <b>$0.00</b> based on the student's second guess.</p>\n                <p>Total bonus so far: <b>$0.83</b></p>\n                <p>Press any key to continue.</p>\n                ","response":"f","trial_type":"html-keyboard-response","trial_index":44,"time_elapsed":628509,"internal_node_id":"0.0-37.0","params":{"nStudents":24,"maxFlips":30,"completionMinutes":45,"basePay":8,"maxBonus":9,"perTrialBonus":0.5,"perTrialBonusThreshold":0.05,"exampleCost":0.01},"classroomParams":{"A":{"a":1,"b":4},"B":{"a":4,"b":1},"C":{"a":2,"b":8},"D":{"a":8,"b":2}},"conditions":["nonSeqFull","nonSeqPartial","seqNoFeedback","seqFeedback"],"classroomPairings":[["A","B"],["C","D"]],"coinWeights":[0.2,0.5,0.8],"subjectId":"AFM65NU0UXIGP","assignmentId":"3D8YOU6S9F6M8OF6YBYJN0N8HUUU6R","hitId":"3SD15I2WD2G0NA4TSPXGB81L5S7630","url":"https://gershmanlab.com/experiments/alicia/teaching/experiment/?hitId=3SD15I2WD2G0NA4TSPXGB81L5S7630&workerId=AFM65NU0UXIGP&assignmentId=3D8YOU6S9F6M8OF6YBYJN0N8HUUU6R&a=SO8D9&tp_a=SO8D9&b=3D8YOU6S9F6M8OF6YBYJN0N8HUUU6R&tp_b=3D8YOU6S9F6M8OF6YBYJN0N8HUUU6R&c=365799&tp_c=365799"},{"rt":null,"stimulus":"<div style=\"font-size:60px;\">Next student</div>","response":null,"trial_type":"html-keyboard-response","trial_index":45,"time_elapsed":631022,"internal_node_id":"0.0-38.0-0.0","params":{"nStudents":24,"maxFlips":30,"completionMinutes":45,"basePay":8,"maxBonus":9,"perTrialBonus":0.5,"perTrialBonusThreshold":0.05,"exampleCost":0.01},"classroomParams":{"A":{"a":1,"b":4},"B":{"a":4,"b":1},"C":{"a":2,"b":8},"D":{"a":8,"b":2}},"conditions":["nonSeqFull","nonSeqPartial","seqNoFeedback","seqFeedback"],"classroomPairings":[["A","B"],["C","D"]],"coinWeights":[0.2,0.5,0.8],"subjectId":"AFM65NU0UXIGP","assignmentId":"3D8YOU6S9F6M8OF6YBYJN0N8HUUU6R","hitId":"3SD15I2WD2G0NA4TSPXGB81L5S7630","url":"https://gershmanlab.com/experiments/alicia/teaching/experiment/?hitId=3SD15I2WD2G0NA4TSPXGB81L5S7630&workerId=AFM65NU0UXIGP&assignmentId=3D8YOU6S9F6M8OF6YBYJN0N8HUUU6R&a=SO8D9&tp_a=SO8D9&b=3D8YOU6S9F6M8OF6YBYJN0N8HUUU6R&tp_b=3D8YOU6S9F6M8OF6YBYJN0N8HUUU6R&c=365799&tp_c=365799"},{"rt":3371,"stimulus":"\n            <h4 style=\"color:Orange;\">Student 5</h4>\n            <h2>The weight of your coin is <b style=\"color:Tomato;\">0.8</b>.</h2>\n            <p>In this block, you will be giving <b>one</b> set of examples to Student 5.</p>\n                <p>You will receive feedback at the end of the block.</p>\n            <p></p>","response":0,"trial_type":"html-button-response","trial_index":46,"time_elapsed":634395,"internal_node_id":"0.0-39.0","params":{"nStudents":24,"maxFlips":30,"completionMinutes":45,"basePay":8,"maxBonus":9,"perTrialBonus":0.5,"perTrialBonusThreshold":0.05,"exampleCost":0.01},"classroomParams":{"A":{"a":1,"b":4},"B":{"a":4,"b":1},"C":{"a":2,"b":8},"D":{"a":8,"b":2}},"conditions":["nonSeqFull","nonSeqPartial","seqNoFeedback","seqFeedback"],"classroomPairings":[["A","B"],["C","D"]],"coinWeights":[0.2,0.5,0.8],"subjectId":"AFM65NU0UXIGP","assignmentId":"3D8YOU6S9F6M8OF6YBYJN0N8HUUU6R","hitId":"3SD15I2WD2G0NA4TSPXGB81L5S7630","url":"https://gershmanlab.com/experiments/alicia/teaching/experiment/?hitId=3SD15I2WD2G0NA4TSPXGB81L5S7630&workerId=AFM65NU0UXIGP&assignmentId=3D8YOU6S9F6M8OF6YBYJN0N8HUUU6R&a=SO8D9&tp_a=SO8D9&b=3D8YOU6S9F6M8OF6YBYJN0N8HUUU6R&tp_b=3D8YOU6S9F6M8OF6YBYJN0N8HUUU6R&c=365799&tp_c=365799"},{"rt":7021,"response":{"heads":"4","tails":"1"},"type":"response","condition":"nonSeqFull","trueTheta":0.8,"classrooms":["C","D"],"studentTrueClassroom":"D","exampleSet":"first","trial_type":"survey-html-form","trial_index":47,"time_elapsed":641417,"internal_node_id":"0.0-40.0-0.0","params":{"nStudents":24,"maxFlips":30,"completionMinutes":45,"basePay":8,"maxBonus":9,"perTrialBonus":0.5,"perTrialBonusThreshold":0.05,"exampleCost":0.01},"classroomParams":{"A":{"a":1,"b":4},"B":{"a":4,"b":1},"C":{"a":2,"b":8},"D":{"a":8,"b":2}},"conditions":["nonSeqFull","nonSeqPartial","seqNoFeedback","seqFeedback"],"classroomPairings":[["A","B"],["C","D"]],"coinWeights":[0.2,0.5,0.8],"subjectId":"AFM65NU0UXIGP","assignmentId":"3D8YOU6S9F6M8OF6YBYJN0N8HUUU6R","hitId":"3SD15I2WD2G0NA4TSPXGB81L5S7630","url":"https://gershmanlab.com/experiments/alicia/teaching/experiment/?hitId=3SD15I2WD2G0NA4TSPXGB81L5S7630&workerId=AFM65NU0UXIGP&assignmentId=3D8YOU6S9F6M8OF6YBYJN0N8HUUU6R&a=SO8D9&tp_a=SO8D9&b=3D8YOU6S9F6M8OF6YBYJN0N8HUUU6R&tp_b=3D8YOU6S9F6M8OF6YBYJN0N8HUUU6R&c=365799&tp_c=365799","heads":4,"tails":1,"studentIndex":4,"studentTrueHypers":{"a":8,"b":2},"studentGuess":0.8,"delta":0,"totalExamples":5,"bonus":0.45,"bonusSoFar":1.28},{"rt":null,"stimulus":"Sending examples to student... ","response":null,"trial_type":"html-keyboard-response","trial_index":48,"time_elapsed":643171,"internal_node_id":"0.0-41.0","params":{"nStudents":24,"maxFlips":30,"completionMinutes":45,"basePay":8,"maxBonus":9,"perTrialBonus":0.5,"perTrialBonusThreshold":0.05,"exampleCost":0.01},"classroomParams":{"A":{"a":1,"b":4},"B":{"a":4,"b":1},"C":{"a":2,"b":8},"D":{"a":8,"b":2}},"conditions":["nonSeqFull","nonSeqPartial","seqNoFeedback","seqFeedback"],"classroomPairings":[["A","B"],["C","D"]],"coinWeights":[0.2,0.5,0.8],"subjectId":"AFM65NU0UXIGP","assignmentId":"3D8YOU6S9F6M8OF6YBYJN0N8HUUU6R","hitId":"3SD15I2WD2G0NA4TSPXGB81L5S7630","url":"https://gershmanlab.com/experiments/alicia/teaching/experiment/?hitId=3SD15I2WD2G0NA4TSPXGB81L5S7630&workerId=AFM65NU0UXIGP&assignmentId=3D8YOU6S9F6M8OF6YBYJN0N8HUUU6R&a=SO8D9&tp_a=SO8D9&b=3D8YOU6S9F6M8OF6YBYJN0N8HUUU6R&tp_b=3D8YOU6S9F6M8OF6YBYJN0N8HUUU6R&c=365799&tp_c=365799"},{"rt":null,"stimulus":"Examples sent to student! Waiting for student...","response":null,"trial_type":"html-keyboard-response","trial_index":49,"time_elapsed":647172,"internal_node_id":"0.0-42.0","params":{"nStudents":24,"maxFlips":30,"completionMinutes":45,"basePay":8,"maxBonus":9,"perTrialBonus":0.5,"perTrialBonusThreshold":0.05,"exampleCost":0.01},"classroomParams":{"A":{"a":1,"b":4},"B":{"a":4,"b":1},"C":{"a":2,"b":8},"D":{"a":8,"b":2}},"conditions":["nonSeqFull","nonSeqPartial","seqNoFeedback","seqFeedback"],"classroomPairings":[["A","B"],["C","D"]],"coinWeights":[0.2,0.5,0.8],"subjectId":"AFM65NU0UXIGP","assignmentId":"3D8YOU6S9F6M8OF6YBYJN0N8HUUU6R","hitId":"3SD15I2WD2G0NA4TSPXGB81L5S7630","url":"https://gershmanlab.com/experiments/alicia/teaching/experiment/?hitId=3SD15I2WD2G0NA4TSPXGB81L5S7630&workerId=AFM65NU0UXIGP&assignmentId=3D8YOU6S9F6M8OF6YBYJN0N8HUUU6R&a=SO8D9&tp_a=SO8D9&b=3D8YOU6S9F6M8OF6YBYJN0N8HUUU6R&tp_b=3D8YOU6S9F6M8OF6YBYJN0N8HUUU6R&c=365799&tp_c=365799"},{"rt":1608,"stimulus":"\n                <p>Student's guess for coin weight: <b style=\"color:Tomato;\">0.80</b></p>\n                <p>You received a bonus of <b>$0.45</b>. Total bonus so far: <b>$1.28</b></b></p>\n                <p></p>\n                <p>Press any key to continue.</p>\n                ","response":"f","trial_type":"html-keyboard-response","trial_index":50,"time_elapsed":648781,"internal_node_id":"0.0-43.0","params":{"nStudents":24,"maxFlips":30,"completionMinutes":45,"basePay":8,"maxBonus":9,"perTrialBonus":0.5,"perTrialBonusThreshold":0.05,"exampleCost":0.01},"classroomParams":{"A":{"a":1,"b":4},"B":{"a":4,"b":1},"C":{"a":2,"b":8},"D":{"a":8,"b":2}},"conditions":["nonSeqFull","nonSeqPartial","seqNoFeedback","seqFeedback"],"classroomPairings":[["A","B"],["C","D"]],"coinWeights":[0.2,0.5,0.8],"subjectId":"AFM65NU0UXIGP","assignmentId":"3D8YOU6S9F6M8OF6YBYJN0N8HUUU6R","hitId":"3SD15I2WD2G0NA4TSPXGB81L5S7630","url":"https://gershmanlab.com/experiments/alicia/teaching/experiment/?hitId=3SD15I2WD2G0NA4TSPXGB81L5S7630&workerId=AFM65NU0UXIGP&assignmentId=3D8YOU6S9F6M8OF6YBYJN0N8HUUU6R&a=SO8D9&tp_a=SO8D9&b=3D8YOU6S9F6M8OF6YBYJN0N8HUUU6R&tp_b=3D8YOU6S9F6M8OF6YBYJN0N8HUUU6R&c=365799&tp_c=365799"},{"rt":null,"stimulus":"<div style=\"font-size:60px;\">Next student</div>","response":null,"trial_type":"html-keyboard-response","trial_index":51,"time_elapsed":651038,"internal_node_id":"0.0-44.0-0.0","params":{"nStudents":24,"maxFlips":30,"completionMinutes":45,"basePay":8,"maxBonus":9,"perTrialBonus":0.5,"perTrialBonusThreshold":0.05,"exampleCost":0.01},"classroomParams":{"A":{"a":1,"b":4},"B":{"a":4,"b":1},"C":{"a":2,"b":8},"D":{"a":8,"b":2}},"conditions":["nonSeqFull","nonSeqPartial","seqNoFeedback","seqFeedback"],"classroomPairings":[["A","B"],["C","D"]],"coinWeights":[0.2,0.5,0.8],"subjectId":"AFM65NU0UXIGP","assignmentId":"3D8YOU6S9F6M8OF6YBYJN0N8HUUU6R","hitId":"3SD15I2WD2G0NA4TSPXGB81L5S7630","url":"https://gershmanlab.com/experiments/alicia/teaching/experiment/?hitId=3SD15I2WD2G0NA4TSPXGB81L5S7630&workerId=AFM65NU0UXIGP&assignmentId=3D8YOU6S9F6M8OF6YBYJN0N8HUUU6R&a=SO8D9&tp_a=SO8D9&b=3D8YOU6S9F6M8OF6YBYJN0N8HUUU6R&tp_b=3D8YOU6S9F6M8OF6YBYJN0N8HUUU6R&c=365799&tp_c=365799"},{"rt":2684,"stimulus":"\n            <h4 style=\"color:Orange;\">Student 6</h4>\n            <h2>The weight of your coin is <b style=\"color:Tomato;\">0.2</b>.</h2>\n            <p>In this block, you will be giving <b>one</b> set of examples to Student 6.</p>\n                <p>You will receive feedback at the end of the block.</p>\n            <p></p>","response":0,"trial_type":"html-button-response","trial_index":52,"time_elapsed":653723,"internal_node_id":"0.0-45.0","params":{"nStudents":24,"maxFlips":30,"completionMinutes":45,"basePay":8,"maxBonus":9,"perTrialBonus":0.5,"perTrialBonusThreshold":0.05,"exampleCost":0.01},"classroomParams":{"A":{"a":1,"b":4},"B":{"a":4,"b":1},"C":{"a":2,"b":8},"D":{"a":8,"b":2}},"conditions":["nonSeqFull","nonSeqPartial","seqNoFeedback","seqFeedback"],"classroomPairings":[["A","B"],["C","D"]],"coinWeights":[0.2,0.5,0.8],"subjectId":"AFM65NU0UXIGP","assignmentId":"3D8YOU6S9F6M8OF6YBYJN0N8HUUU6R","hitId":"3SD15I2WD2G0NA4TSPXGB81L5S7630","url":"https://gershmanlab.com/experiments/alicia/teaching/experiment/?hitId=3SD15I2WD2G0NA4TSPXGB81L5S7630&workerId=AFM65NU0UXIGP&assignmentId=3D8YOU6S9F6M8OF6YBYJN0N8HUUU6R&a=SO8D9&tp_a=SO8D9&b=3D8YOU6S9F6M8OF6YBYJN0N8HUUU6R&tp_b=3D8YOU6S9F6M8OF6YBYJN0N8HUUU6R&c=365799&tp_c=365799"},{"rt":19295,"response":{"heads":"1","tails":"4"},"type":"response","condition":"nonSeqPartial","trueTheta":0.2,"classrooms":["C","D"],"studentTrueClassroom":"C","exampleSet":"first","trial_type":"survey-html-form","trial_index":53,"time_elapsed":673019,"internal_node_id":"0.0-46.0-0.0","params":{"nStudents":24,"maxFlips":30,"completionMinutes":45,"basePay":8,"maxBonus":9,"perTrialBonus":0.5,"perTrialBonusThreshold":0.05,"exampleCost":0.01},"classroomParams":{"A":{"a":1,"b":4},"B":{"a":4,"b":1},"C":{"a":2,"b":8},"D":{"a":8,"b":2}},"conditions":["nonSeqFull","nonSeqPartial","seqNoFeedback","seqFeedback"],"classroomPairings":[["A","B"],["C","D"]],"coinWeights":[0.2,0.5,0.8],"subjectId":"AFM65NU0UXIGP","assignmentId":"3D8YOU6S9F6M8OF6YBYJN0N8HUUU6R","hitId":"3SD15I2WD2G0NA4TSPXGB81L5S7630","url":"https://gershmanlab.com/experiments/alicia/teaching/experiment/?hitId=3SD15I2WD2G0NA4TSPXGB81L5S7630&workerId=AFM65NU0UXIGP&assignmentId=3D8YOU6S9F6M8OF6YBYJN0N8HUUU6R&a=SO8D9&tp_a=SO8D9&b=3D8YOU6S9F6M8OF6YBYJN0N8HUUU6R&tp_b=3D8YOU6S9F6M8OF6YBYJN0N8HUUU6R&c=365799&tp_c=365799","heads":1,"tails":4,"studentIndex":5,"studentTrueHypers":{"a":2,"b":8},"studentGuess":0.2,"delta":0,"totalExamples":5,"bonus":0.45,"bonusSoFar":1.73},{"rt":null,"stimulus":"Sending examples to student... ","response":null,"trial_type":"html-keyboard-response","trial_index":54,"time_elapsed":674520,"internal_node_id":"0.0-47.0","params":{"nStudents":24,"maxFlips":30,"completionMinutes":45,"basePay":8,"maxBonus":9,"perTrialBonus":0.5,"perTrialBonusThreshold":0.05,"exampleCost":0.01},"classroomParams":{"A":{"a":1,"b":4},"B":{"a":4,"b":1},"C":{"a":2,"b":8},"D":{"a":8,"b":2}},"conditions":["nonSeqFull","nonSeqPartial","seqNoFeedback","seqFeedback"],"classroomPairings":[["A","B"],["C","D"]],"coinWeights":[0.2,0.5,0.8],"subjectId":"AFM65NU0UXIGP","assignmentId":"3D8YOU6S9F6M8OF6YBYJN0N8HUUU6R","hitId":"3SD15I2WD2G0NA4TSPXGB81L5S7630","url":"https://gershmanlab.com/experiments/alicia/teaching/experiment/?hitId=3SD15I2WD2G0NA4TSPXGB81L5S7630&workerId=AFM65NU0UXIGP&assignmentId=3D8YOU6S9F6M8OF6YBYJN0N8HUUU6R&a=SO8D9&tp_a=SO8D9&b=3D8YOU6S9F6M8OF6YBYJN0N8HUUU6R&tp_b=3D8YOU6S9F6M8OF6YBYJN0N8HUUU6R&c=365799&tp_c=365799"},{"rt":null,"stimulus":"Examples sent to student! Waiting for student...","response":null,"trial_type":"html-keyboard-response","trial_index":55,"time_elapsed":680022,"internal_node_id":"0.0-48.0","params":{"nStudents":24,"maxFlips":30,"completionMinutes":45,"basePay":8,"maxBonus":9,"perTrialBonus":0.5,"perTrialBonusThreshold":0.05,"exampleCost":0.01},"classroomParams":{"A":{"a":1,"b":4},"B":{"a":4,"b":1},"C":{"a":2,"b":8},"D":{"a":8,"b":2}},"conditions":["nonSeqFull","nonSeqPartial","seqNoFeedback","seqFeedback"],"classroomPairings":[["A","B"],["C","D"]],"coinWeights":[0.2,0.5,0.8],"subjectId":"AFM65NU0UXIGP","assignmentId":"3D8YOU6S9F6M8OF6YBYJN0N8HUUU6R","hitId":"3SD15I2WD2G0NA4TSPXGB81L5S7630","url":"https://gershmanlab.com/experiments/alicia/teaching/experiment/?hitId=3SD15I2WD2G0NA4TSPXGB81L5S7630&workerId=AFM65NU0UXIGP&assignmentId=3D8YOU6S9F6M8OF6YBYJN0N8HUUU6R&a=SO8D9&tp_a=SO8D9&b=3D8YOU6S9F6M8OF6YBYJN0N8HUUU6R&tp_b=3D8YOU6S9F6M8OF6YBYJN0N8HUUU6R&c=365799&tp_c=365799"},{"rt":2630,"stimulus":"\n                <p>Student's guess for coin weight: <b style=\"color:Tomato;\">0.20</b></p>\n                <p>You received a bonus of <b>$0.45</b>. Total bonus so far: <b>$1.73</b></b></p>\n                <p></p>\n                <p>Press any key to continue.</p>\n                ","response":" ","trial_type":"html-keyboard-response","trial_index":56,"time_elapsed":682653,"internal_node_id":"0.0-49.0","params":{"nStudents":24,"maxFlips":30,"completionMinutes":45,"basePay":8,"maxBonus":9,"perTrialBonus":0.5,"perTrialBonusThreshold":0.05,"exampleCost":0.01},"classroomParams":{"A":{"a":1,"b":4},"B":{"a":4,"b":1},"C":{"a":2,"b":8},"D":{"a":8,"b":2}},"conditions":["nonSeqFull","nonSeqPartial","seqNoFeedback","seqFeedback"],"classroomPairings":[["A","B"],["C","D"]],"coinWeights":[0.2,0.5,0.8],"subjectId":"AFM65NU0UXIGP","assignmentId":"3D8YOU6S9F6M8OF6YBYJN0N8HUUU6R","hitId":"3SD15I2WD2G0NA4TSPXGB81L5S7630","url":"https://gershmanlab.com/experiments/alicia/teaching/experiment/?hitId=3SD15I2WD2G0NA4TSPXGB81L5S7630&workerId=AFM65NU0UXIGP&assignmentId=3D8YOU6S9F6M8OF6YBYJN0N8HUUU6R&a=SO8D9&tp_a=SO8D9&b=3D8YOU6S9F6M8OF6YBYJN0N8HUUU6R&tp_b=3D8YOU6S9F6M8OF6YBYJN0N8HUUU6R&c=365799&tp_c=365799"},{"rt":null,"stimulus":"<div style=\"font-size:60px;\">Next student</div>","response":null,"trial_type":"html-keyboard-response","trial_index":57,"time_elapsed":685154,"internal_node_id":"0.0-50.0-0.0","params":{"nStudents":24,"maxFlips":30,"completionMinutes":45,"basePay":8,"maxBonus":9,"perTrialBonus":0.5,"perTrialBonusThreshold":0.05,"exampleCost":0.01},"classroomParams":{"A":{"a":1,"b":4},"B":{"a":4,"b":1},"C":{"a":2,"b":8},"D":{"a":8,"b":2}},"conditions":["nonSeqFull","nonSeqPartial","seqNoFeedback","seqFeedback"],"classroomPairings":[["A","B"],["C","D"]],"coinWeights":[0.2,0.5,0.8],"subjectId":"AFM65NU0UXIGP","assignmentId":"3D8YOU6S9F6M8OF6YBYJN0N8HUUU6R","hitId":"3SD15I2WD2G0NA4TSPXGB81L5S7630","url":"https://gershmanlab.com/experiments/alicia/teaching/experiment/?hitId=3SD15I2WD2G0NA4TSPXGB81L5S7630&workerId=AFM65NU0UXIGP&assignmentId=3D8YOU6S9F6M8OF6YBYJN0N8HUUU6R&a=SO8D9&tp_a=SO8D9&b=3D8YOU6S9F6M8OF6YBYJN0N8HUUU6R&tp_b=3D8YOU6S9F6M8OF6YBYJN0N8HUUU6R&c=365799&tp_c=365799"},{"rt":6004,"stimulus":"\n            <h4 style=\"color:Orange;\">Student 7</h4>\n            <h2>The weight of your coin is <b style=\"color:Tomato;\">0.5</b>.</h2>\n            <p>In this block, you will be giving <b>two</b> sets of examples to Student 7.</p>\n                <p>You will see the student's guess after the first set of examples. You will also receive feedback at the end of the block.</p>\n            <p>To earn the highest bonus, you will have to <b>take into consideration the student's guess</b> when you choose your second set of examples.</p>","response":0,"trial_type":"html-button-response","trial_index":58,"time_elapsed":691160,"internal_node_id":"0.0-51.0","params":{"nStudents":24,"maxFlips":30,"completionMinutes":45,"basePay":8,"maxBonus":9,"perTrialBonus":0.5,"perTrialBonusThreshold":0.05,"exampleCost":0.01},"classroomParams":{"A":{"a":1,"b":4},"B":{"a":4,"b":1},"C":{"a":2,"b":8},"D":{"a":8,"b":2}},"conditions":["nonSeqFull","nonSeqPartial","seqNoFeedback","seqFeedback"],"classroomPairings":[["A","B"],["C","D"]],"coinWeights":[0.2,0.5,0.8],"subjectId":"AFM65NU0UXIGP","assignmentId":"3D8YOU6S9F6M8OF6YBYJN0N8HUUU6R","hitId":"3SD15I2WD2G0NA4TSPXGB81L5S7630","url":"https://gershmanlab.com/experiments/alicia/teaching/experiment/?hitId=3SD15I2WD2G0NA4TSPXGB81L5S7630&workerId=AFM65NU0UXIGP&assignmentId=3D8YOU6S9F6M8OF6YBYJN0N8HUUU6R&a=SO8D9&tp_a=SO8D9&b=3D8YOU6S9F6M8OF6YBYJN0N8HUUU6R&tp_b=3D8YOU6S9F6M8OF6YBYJN0N8HUUU6R&c=365799&tp_c=365799"},{"rt":27399,"response":{"heads":"1","tails":"4"},"type":"response","condition":"seqFeedback","trueTheta":0.5,"classrooms":["A","B"],"studentTrueClassroom":"A","exampleSet":"first","trial_type":"survey-html-form","trial_index":59,"time_elapsed":718560,"internal_node_id":"0.0-52.0-0.0","params":{"nStudents":24,"maxFlips":30,"completionMinutes":45,"basePay":8,"maxBonus":9,"perTrialBonus":0.5,"perTrialBonusThreshold":0.05,"exampleCost":0.01},"classroomParams":{"A":{"a":1,"b":4},"B":{"a":4,"b":1},"C":{"a":2,"b":8},"D":{"a":8,"b":2}},"conditions":["nonSeqFull","nonSeqPartial","seqNoFeedback","seqFeedback"],"classroomPairings":[["A","B"],["C","D"]],"coinWeights":[0.2,0.5,0.8],"subjectId":"AFM65NU0UXIGP","assignmentId":"3D8YOU6S9F6M8OF6YBYJN0N8HUUU6R","hitId":"3SD15I2WD2G0NA4TSPXGB81L5S7630","url":"https://gershmanlab.com/experiments/alicia/teaching/experiment/?hitId=3SD15I2WD2G0NA4TSPXGB81L5S7630&workerId=AFM65NU0UXIGP&assignmentId=3D8YOU6S9F6M8OF6YBYJN0N8HUUU6R&a=SO8D9&tp_a=SO8D9&b=3D8YOU6S9F6M8OF6YBYJN0N8HUUU6R&tp_b=3D8YOU6S9F6M8OF6YBYJN0N8HUUU6R&c=365799&tp_c=365799","heads":1,"tails":4,"studentIndex":6,"studentTrueHypers":{"a":1,"b":4},"studentGuess":0.2,"delta":0.3,"totalExamples":5,"bonusSoFar":1.73},{"rt":null,"stimulus":"Sending examples to student... ","response":null,"trial_type":"html-keyboard-response","trial_index":60,"time_elapsed":719812,"internal_node_id":"0.0-53.0","params":{"nStudents":24,"maxFlips":30,"completionMinutes":45,"basePay":8,"maxBonus":9,"perTrialBonus":0.5,"perTrialBonusThreshold":0.05,"exampleCost":0.01},"classroomParams":{"A":{"a":1,"b":4},"B":{"a":4,"b":1},"C":{"a":2,"b":8},"D":{"a":8,"b":2}},"conditions":["nonSeqFull","nonSeqPartial","seqNoFeedback","seqFeedback"],"classroomPairings":[["A","B"],["C","D"]],"coinWeights":[0.2,0.5,0.8],"subjectId":"AFM65NU0UXIGP","assignmentId":"3D8YOU6S9F6M8OF6YBYJN0N8HUUU6R","hitId":"3SD15I2WD2G0NA4TSPXGB81L5S7630","url":"https://gershmanlab.com/experiments/alicia/teaching/experiment/?hitId=3SD15I2WD2G0NA4TSPXGB81L5S7630&workerId=AFM65NU0UXIGP&assignmentId=3D8YOU6S9F6M8OF6YBYJN0N8HUUU6R&a=SO8D9&tp_a=SO8D9&b=3D8YOU6S9F6M8OF6YBYJN0N8HUUU6R&tp_b=3D8YOU6S9F6M8OF6YBYJN0N8HUUU6R&c=365799&tp_c=365799"},{"rt":null,"stimulus":"Examples sent to student! Waiting for student...","response":null,"trial_type":"html-keyboard-response","trial_index":61,"time_elapsed":723814,"internal_node_id":"0.0-54.0","params":{"nStudents":24,"maxFlips":30,"completionMinutes":45,"basePay":8,"maxBonus":9,"perTrialBonus":0.5,"perTrialBonusThreshold":0.05,"exampleCost":0.01},"classroomParams":{"A":{"a":1,"b":4},"B":{"a":4,"b":1},"C":{"a":2,"b":8},"D":{"a":8,"b":2}},"conditions":["nonSeqFull","nonSeqPartial","seqNoFeedback","seqFeedback"],"classroomPairings":[["A","B"],["C","D"]],"coinWeights":[0.2,0.5,0.8],"subjectId":"AFM65NU0UXIGP","assignmentId":"3D8YOU6S9F6M8OF6YBYJN0N8HUUU6R","hitId":"3SD15I2WD2G0NA4TSPXGB81L5S7630","url":"https://gershmanlab.com/experiments/alicia/teaching/experiment/?hitId=3SD15I2WD2G0NA4TSPXGB81L5S7630&workerId=AFM65NU0UXIGP&assignmentId=3D8YOU6S9F6M8OF6YBYJN0N8HUUU6R&a=SO8D9&tp_a=SO8D9&b=3D8YOU6S9F6M8OF6YBYJN0N8HUUU6R&tp_b=3D8YOU6S9F6M8OF6YBYJN0N8HUUU6R&c=365799&tp_c=365799"},{"rt":4606,"stimulus":"\n                <p>Student's guess for coin weight: <b style=\"color:Tomato;\">0.20</b></p>\n                <p></b></p>\n                <p>You will now send another set of examples to your student. <b>Remember to take your student's guess into consideration so that you can earn the highest bonus possible!</b> </p>\n                <p>Press any key to continue.</p>\n                ","response":"1","trial_type":"html-keyboard-response","trial_index":62,"time_elapsed":728421,"internal_node_id":"0.0-55.0","params":{"nStudents":24,"maxFlips":30,"completionMinutes":45,"basePay":8,"maxBonus":9,"perTrialBonus":0.5,"perTrialBonusThreshold":0.05,"exampleCost":0.01},"classroomParams":{"A":{"a":1,"b":4},"B":{"a":4,"b":1},"C":{"a":2,"b":8},"D":{"a":8,"b":2}},"conditions":["nonSeqFull","nonSeqPartial","seqNoFeedback","seqFeedback"],"classroomPairings":[["A","B"],["C","D"]],"coinWeights":[0.2,0.5,0.8],"subjectId":"AFM65NU0UXIGP","assignmentId":"3D8YOU6S9F6M8OF6YBYJN0N8HUUU6R","hitId":"3SD15I2WD2G0NA4TSPXGB81L5S7630","url":"https://gershmanlab.com/experiments/alicia/teaching/experiment/?hitId=3SD15I2WD2G0NA4TSPXGB81L5S7630&workerId=AFM65NU0UXIGP&assignmentId=3D8YOU6S9F6M8OF6YBYJN0N8HUUU6R&a=SO8D9&tp_a=SO8D9&b=3D8YOU6S9F6M8OF6YBYJN0N8HUUU6R&tp_b=3D8YOU6S9F6M8OF6YBYJN0N8HUUU6R&c=365799&tp_c=365799"},{"rt":13168,"response":{"heads":"8","tails":"2"},"type":"response","condition":"seqFeedback","trueTheta":0.5,"classrooms":["A","B"],"studentTrueClassroom":"A","exampleSet":"second","trial_type":"survey-html-form","trial_index":63,"time_elapsed":741590,"internal_node_id":"0.0-56.0-0.0","params":{"nStudents":24,"maxFlips":30,"completionMinutes":45,"basePay":8,"maxBonus":9,"perTrialBonus":0.5,"perTrialBonusThreshold":0.05,"exampleCost":0.01},"classroomParams":{"A":{"a":1,"b":4},"B":{"a":4,"b":1},"C":{"a":2,"b":8},"D":{"a":8,"b":2}},"conditions":["nonSeqFull","nonSeqPartial","seqNoFeedback","seqFeedback"],"classroomPairings":[["A","B"],["C","D"]],"coinWeights":[0.2,0.5,0.8],"subjectId":"AFM65NU0UXIGP","assignmentId":"3D8YOU6S9F6M8OF6YBYJN0N8HUUU6R","hitId":"3SD15I2WD2G0NA4TSPXGB81L5S7630","url":"https://gershmanlab.com/experiments/alicia/teaching/experiment/?hitId=3SD15I2WD2G0NA4TSPXGB81L5S7630&workerId=AFM65NU0UXIGP&assignmentId=3D8YOU6S9F6M8OF6YBYJN0N8HUUU6R&a=SO8D9&tp_a=SO8D9&b=3D8YOU6S9F6M8OF6YBYJN0N8HUUU6R&tp_b=3D8YOU6S9F6M8OF6YBYJN0N8HUUU6R&c=365799&tp_c=365799","firstResponseHeads":1,"firstResponseTails":4,"secondResponseHeads":8,"secondResponseTails":2,"totalHeads":9,"totalTails":6,"studentIndex":6,"studentTrueHypers":{"a":1,"b":4},"studentGuess":0.5,"delta":0,"bonus":0.35,"bonusSoFar":2.08,"totalExamples":15},{"rt":null,"stimulus":"Sending examples to student... ","response":null,"trial_type":"html-keyboard-response","trial_index":64,"time_elapsed":743095,"internal_node_id":"0.0-57.0","params":{"nStudents":24,"maxFlips":30,"completionMinutes":45,"basePay":8,"maxBonus":9,"perTrialBonus":0.5,"perTrialBonusThreshold":0.05,"exampleCost":0.01},"classroomParams":{"A":{"a":1,"b":4},"B":{"a":4,"b":1},"C":{"a":2,"b":8},"D":{"a":8,"b":2}},"conditions":["nonSeqFull","nonSeqPartial","seqNoFeedback","seqFeedback"],"classroomPairings":[["A","B"],["C","D"]],"coinWeights":[0.2,0.5,0.8],"subjectId":"AFM65NU0UXIGP","assignmentId":"3D8YOU6S9F6M8OF6YBYJN0N8HUUU6R","hitId":"3SD15I2WD2G0NA4TSPXGB81L5S7630","url":"https://gershmanlab.com/experiments/alicia/teaching/experiment/?hitId=3SD15I2WD2G0NA4TSPXGB81L5S7630&workerId=AFM65NU0UXIGP&assignmentId=3D8YOU6S9F6M8OF6YBYJN0N8HUUU6R&a=SO8D9&tp_a=SO8D9&b=3D8YOU6S9F6M8OF6YBYJN0N8HUUU6R&tp_b=3D8YOU6S9F6M8OF6YBYJN0N8HUUU6R&c=365799&tp_c=365799"},{"rt":null,"stimulus":"Examples sent to student! Waiting for student...","response":null,"trial_type":"html-keyboard-response","trial_index":65,"time_elapsed":748096,"internal_node_id":"0.0-58.0","params":{"nStudents":24,"maxFlips":30,"completionMinutes":45,"basePay":8,"maxBonus":9,"perTrialBonus":0.5,"perTrialBonusThreshold":0.05,"exampleCost":0.01},"classroomParams":{"A":{"a":1,"b":4},"B":{"a":4,"b":1},"C":{"a":2,"b":8},"D":{"a":8,"b":2}},"conditions":["nonSeqFull","nonSeqPartial","seqNoFeedback","seqFeedback"],"classroomPairings":[["A","B"],["C","D"]],"coinWeights":[0.2,0.5,0.8],"subjectId":"AFM65NU0UXIGP","assignmentId":"3D8YOU6S9F6M8OF6YBYJN0N8HUUU6R","hitId":"3SD15I2WD2G0NA4TSPXGB81L5S7630","url":"https://gershmanlab.com/experiments/alicia/teaching/experiment/?hitId=3SD15I2WD2G0NA4TSPXGB81L5S7630&workerId=AFM65NU0UXIGP&assignmentId=3D8YOU6S9F6M8OF6YBYJN0N8HUUU6R&a=SO8D9&tp_a=SO8D9&b=3D8YOU6S9F6M8OF6YBYJN0N8HUUU6R&tp_b=3D8YOU6S9F6M8OF6YBYJN0N8HUUU6R&c=365799&tp_c=365799"},{"rt":2932,"stimulus":"\n                <p>Student 7's first guess for coin weight: <b style=\"color:Tomato\";>0.20</b></p>\n                <p>Student 7's second guess for coin weight: <b style=\"color:Tomato\";>0.50</b></p>\n                <p>You received a bonus of <b>$0.35</b> based on the student's second guess.</p>\n                <p>Total bonus so far: <b>$2.08</b></p>\n                <p>Press any key to continue.</p>\n                ","response":"g","trial_type":"html-keyboard-response","trial_index":66,"time_elapsed":751029,"internal_node_id":"0.0-59.0","params":{"nStudents":24,"maxFlips":30,"completionMinutes":45,"basePay":8,"maxBonus":9,"perTrialBonus":0.5,"perTrialBonusThreshold":0.05,"exampleCost":0.01},"classroomParams":{"A":{"a":1,"b":4},"B":{"a":4,"b":1},"C":{"a":2,"b":8},"D":{"a":8,"b":2}},"conditions":["nonSeqFull","nonSeqPartial","seqNoFeedback","seqFeedback"],"classroomPairings":[["A","B"],["C","D"]],"coinWeights":[0.2,0.5,0.8],"subjectId":"AFM65NU0UXIGP","assignmentId":"3D8YOU6S9F6M8OF6YBYJN0N8HUUU6R","hitId":"3SD15I2WD2G0NA4TSPXGB81L5S7630","url":"https://gershmanlab.com/experiments/alicia/teaching/experiment/?hitId=3SD15I2WD2G0NA4TSPXGB81L5S7630&workerId=AFM65NU0UXIGP&assignmentId=3D8YOU6S9F6M8OF6YBYJN0N8HUUU6R&a=SO8D9&tp_a=SO8D9&b=3D8YOU6S9F6M8OF6YBYJN0N8HUUU6R&tp_b=3D8YOU6S9F6M8OF6YBYJN0N8HUUU6R&c=365799&tp_c=365799"},{"rt":null,"stimulus":"<div style=\"font-size:60px;\">Next student</div>","response":null,"trial_type":"html-keyboard-response","trial_index":67,"time_elapsed":753041,"internal_node_id":"0.0-60.0-0.0","params":{"nStudents":24,"maxFlips":30,"completionMinutes":45,"basePay":8,"maxBonus":9,"perTrialBonus":0.5,"perTrialBonusThreshold":0.05,"exampleCost":0.01},"classroomParams":{"A":{"a":1,"b":4},"B":{"a":4,"b":1},"C":{"a":2,"b":8},"D":{"a":8,"b":2}},"conditions":["nonSeqFull","nonSeqPartial","seqNoFeedback","seqFeedback"],"classroomPairings":[["A","B"],["C","D"]],"coinWeights":[0.2,0.5,0.8],"subjectId":"AFM65NU0UXIGP","assignmentId":"3D8YOU6S9F6M8OF6YBYJN0N8HUUU6R","hitId":"3SD15I2WD2G0NA4TSPXGB81L5S7630","url":"https://gershmanlab.com/experiments/alicia/teaching/experiment/?hitId=3SD15I2WD2G0NA4TSPXGB81L5S7630&workerId=AFM65NU0UXIGP&assignmentId=3D8YOU6S9F6M8OF6YBYJN0N8HUUU6R&a=SO8D9&tp_a=SO8D9&b=3D8YOU6S9F6M8OF6YBYJN0N8HUUU6R&tp_b=3D8YOU6S9F6M8OF6YBYJN0N8HUUU6R&c=365799&tp_c=365799"},{"rt":7278,"stimulus":"\n            <h4 style=\"color:Orange;\">Student 8</h4>\n            <h2>The weight of your coin is <b style=\"color:Tomato;\">0.2</b>.</h2>\n            <p>In this block, you will be giving <b>one</b> set of examples to Student 8.</p>\n                <p>You will receive feedback at the end of the block.</p>\n            <p></p>","response":0,"trial_type":"html-button-response","trial_index":68,"time_elapsed":760320,"internal_node_id":"0.0-61.0","params":{"nStudents":24,"maxFlips":30,"completionMinutes":45,"basePay":8,"maxBonus":9,"perTrialBonus":0.5,"perTrialBonusThreshold":0.05,"exampleCost":0.01},"classroomParams":{"A":{"a":1,"b":4},"B":{"a":4,"b":1},"C":{"a":2,"b":8},"D":{"a":8,"b":2}},"conditions":["nonSeqFull","nonSeqPartial","seqNoFeedback","seqFeedback"],"classroomPairings":[["A","B"],["C","D"]],"coinWeights":[0.2,0.5,0.8],"subjectId":"AFM65NU0UXIGP","assignmentId":"3D8YOU6S9F6M8OF6YBYJN0N8HUUU6R","hitId":"3SD15I2WD2G0NA4TSPXGB81L5S7630","url":"https://gershmanlab.com/experiments/alicia/teaching/experiment/?hitId=3SD15I2WD2G0NA4TSPXGB81L5S7630&workerId=AFM65NU0UXIGP&assignmentId=3D8YOU6S9F6M8OF6YBYJN0N8HUUU6R&a=SO8D9&tp_a=SO8D9&b=3D8YOU6S9F6M8OF6YBYJN0N8HUUU6R&tp_b=3D8YOU6S9F6M8OF6YBYJN0N8HUUU6R&c=365799&tp_c=365799"},{"rt":29624,"response":{"heads":"2","tails":"8"},"type":"response","condition":"nonSeqFull","trueTheta":0.2,"classrooms":["A","B"],"studentTrueClassroom":"B","exampleSet":"first","trial_type":"survey-html-form","trial_index":69,"time_elapsed":789945,"internal_node_id":"0.0-62.0-0.0","params":{"nStudents":24,"maxFlips":30,"completionMinutes":45,"basePay":8,"maxBonus":9,"perTrialBonus":0.5,"perTrialBonusThreshold":0.05,"exampleCost":0.01},"classroomParams":{"A":{"a":1,"b":4},"B":{"a":4,"b":1},"C":{"a":2,"b":8},"D":{"a":8,"b":2}},"conditions":["nonSeqFull","nonSeqPartial","seqNoFeedback","seqFeedback"],"classroomPairings":[["A","B"],["C","D"]],"coinWeights":[0.2,0.5,0.8],"subjectId":"AFM65NU0UXIGP","assignmentId":"3D8YOU6S9F6M8OF6YBYJN0N8HUUU6R","hitId":"3SD15I2WD2G0NA4TSPXGB81L5S7630","url":"https://gershmanlab.com/experiments/alicia/teaching/experiment/?hitId=3SD15I2WD2G0NA4TSPXGB81L5S7630&workerId=AFM65NU0UXIGP&assignmentId=3D8YOU6S9F6M8OF6YBYJN0N8HUUU6R&a=SO8D9&tp_a=SO8D9&b=3D8YOU6S9F6M8OF6YBYJN0N8HUUU6R&tp_b=3D8YOU6S9F6M8OF6YBYJN0N8HUUU6R&c=365799&tp_c=365799","heads":2,"tails":8,"studentIndex":7,"studentTrueHypers":{"a":4,"b":1},"studentGuess":0.4,"delta":0.2,"totalExamples":10,"bonus":0,"bonusSoFar":2.08},{"rt":null,"stimulus":"Sending examples to student... ","response":null,"trial_type":"html-keyboard-response","trial_index":70,"time_elapsed":791199,"internal_node_id":"0.0-63.0","params":{"nStudents":24,"maxFlips":30,"completionMinutes":45,"basePay":8,"maxBonus":9,"perTrialBonus":0.5,"perTrialBonusThreshold":0.05,"exampleCost":0.01},"classroomParams":{"A":{"a":1,"b":4},"B":{"a":4,"b":1},"C":{"a":2,"b":8},"D":{"a":8,"b":2}},"conditions":["nonSeqFull","nonSeqPartial","seqNoFeedback","seqFeedback"],"classroomPairings":[["A","B"],["C","D"]],"coinWeights":[0.2,0.5,0.8],"subjectId":"AFM65NU0UXIGP","assignmentId":"3D8YOU6S9F6M8OF6YBYJN0N8HUUU6R","hitId":"3SD15I2WD2G0NA4TSPXGB81L5S7630","url":"https://gershmanlab.com/experiments/alicia/teaching/experiment/?hitId=3SD15I2WD2G0NA4TSPXGB81L5S7630&workerId=AFM65NU0UXIGP&assignmentId=3D8YOU6S9F6M8OF6YBYJN0N8HUUU6R&a=SO8D9&tp_a=SO8D9&b=3D8YOU6S9F6M8OF6YBYJN0N8HUUU6R&tp_b=3D8YOU6S9F6M8OF6YBYJN0N8HUUU6R&c=365799&tp_c=365799"},{"rt":null,"stimulus":"Examples sent to student! Waiting for student...","response":null,"trial_type":"html-keyboard-response","trial_index":71,"time_elapsed":797201,"internal_node_id":"0.0-64.0","params":{"nStudents":24,"maxFlips":30,"completionMinutes":45,"basePay":8,"maxBonus":9,"perTrialBonus":0.5,"perTrialBonusThreshold":0.05,"exampleCost":0.01},"classroomParams":{"A":{"a":1,"b":4},"B":{"a":4,"b":1},"C":{"a":2,"b":8},"D":{"a":8,"b":2}},"conditions":["nonSeqFull","nonSeqPartial","seqNoFeedback","seqFeedback"],"classroomPairings":[["A","B"],["C","D"]],"coinWeights":[0.2,0.5,0.8],"subjectId":"AFM65NU0UXIGP","assignmentId":"3D8YOU6S9F6M8OF6YBYJN0N8HUUU6R","hitId":"3SD15I2WD2G0NA4TSPXGB81L5S7630","url":"https://gershmanlab.com/experiments/alicia/teaching/experiment/?hitId=3SD15I2WD2G0NA4TSPXGB81L5S7630&workerId=AFM65NU0UXIGP&assignmentId=3D8YOU6S9F6M8OF6YBYJN0N8HUUU6R&a=SO8D9&tp_a=SO8D9&b=3D8YOU6S9F6M8OF6YBYJN0N8HUUU6R&tp_b=3D8YOU6S9F6M8OF6YBYJN0N8HUUU6R&c=365799&tp_c=365799"},{"rt":1196,"stimulus":"\n                <p>Student's guess for coin weight: <b style=\"color:Tomato;\">0.40</b></p>\n                <p>You received a bonus of <b>$0</b>. Total bonus so far: <b>$2.08</b></b></p>\n                <p></p>\n                <p>Press any key to continue.</p>\n                ","response":"f","trial_type":"html-keyboard-response","trial_index":72,"time_elapsed":798397,"internal_node_id":"0.0-65.0","params":{"nStudents":24,"maxFlips":30,"completionMinutes":45,"basePay":8,"maxBonus":9,"perTrialBonus":0.5,"perTrialBonusThreshold":0.05,"exampleCost":0.01},"classroomParams":{"A":{"a":1,"b":4},"B":{"a":4,"b":1},"C":{"a":2,"b":8},"D":{"a":8,"b":2}},"conditions":["nonSeqFull","nonSeqPartial","seqNoFeedback","seqFeedback"],"classroomPairings":[["A","B"],["C","D"]],"coinWeights":[0.2,0.5,0.8],"subjectId":"AFM65NU0UXIGP","assignmentId":"3D8YOU6S9F6M8OF6YBYJN0N8HUUU6R","hitId":"3SD15I2WD2G0NA4TSPXGB81L5S7630","url":"https://gershmanlab.com/experiments/alicia/teaching/experiment/?hitId=3SD15I2WD2G0NA4TSPXGB81L5S7630&workerId=AFM65NU0UXIGP&assignmentId=3D8YOU6S9F6M8OF6YBYJN0N8HUUU6R&a=SO8D9&tp_a=SO8D9&b=3D8YOU6S9F6M8OF6YBYJN0N8HUUU6R&tp_b=3D8YOU6S9F6M8OF6YBYJN0N8HUUU6R&c=365799&tp_c=365799"},{"rt":null,"stimulus":"<div style=\"font-size:60px;\">Next student</div>","response":null,"trial_type":"html-keyboard-response","trial_index":73,"time_elapsed":800899,"internal_node_id":"0.0-66.0-0.0","params":{"nStudents":24,"maxFlips":30,"completionMinutes":45,"basePay":8,"maxBonus":9,"perTrialBonus":0.5,"perTrialBonusThreshold":0.05,"exampleCost":0.01},"classroomParams":{"A":{"a":1,"b":4},"B":{"a":4,"b":1},"C":{"a":2,"b":8},"D":{"a":8,"b":2}},"conditions":["nonSeqFull","nonSeqPartial","seqNoFeedback","seqFeedback"],"classroomPairings":[["A","B"],["C","D"]],"coinWeights":[0.2,0.5,0.8],"subjectId":"AFM65NU0UXIGP","assignmentId":"3D8YOU6S9F6M8OF6YBYJN0N8HUUU6R","hitId":"3SD15I2WD2G0NA4TSPXGB81L5S7630","url":"https://gershmanlab.com/experiments/alicia/teaching/experiment/?hitId=3SD15I2WD2G0NA4TSPXGB81L5S7630&workerId=AFM65NU0UXIGP&assignmentId=3D8YOU6S9F6M8OF6YBYJN0N8HUUU6R&a=SO8D9&tp_a=SO8D9&b=3D8YOU6S9F6M8OF6YBYJN0N8HUUU6R&tp_b=3D8YOU6S9F6M8OF6YBYJN0N8HUUU6R&c=365799&tp_c=365799"},{"rt":4815,"stimulus":"\n            <h4 style=\"color:Orange;\">Student 9</h4>\n            <h2>The weight of your coin is <b style=\"color:Tomato;\">0.8</b>.</h2>\n            <p>In this block, you will be giving <b>one</b> set of examples to Student 9.</p>\n                <p>You will receive feedback at the end of the block.</p>\n            <p></p>","response":0,"trial_type":"html-button-response","trial_index":74,"time_elapsed":805715,"internal_node_id":"0.0-67.0","params":{"nStudents":24,"maxFlips":30,"completionMinutes":45,"basePay":8,"maxBonus":9,"perTrialBonus":0.5,"perTrialBonusThreshold":0.05,"exampleCost":0.01},"classroomParams":{"A":{"a":1,"b":4},"B":{"a":4,"b":1},"C":{"a":2,"b":8},"D":{"a":8,"b":2}},"conditions":["nonSeqFull","nonSeqPartial","seqNoFeedback","seqFeedback"],"classroomPairings":[["A","B"],["C","D"]],"coinWeights":[0.2,0.5,0.8],"subjectId":"AFM65NU0UXIGP","assignmentId":"3D8YOU6S9F6M8OF6YBYJN0N8HUUU6R","hitId":"3SD15I2WD2G0NA4TSPXGB81L5S7630","url":"https://gershmanlab.com/experiments/alicia/teaching/experiment/?hitId=3SD15I2WD2G0NA4TSPXGB81L5S7630&workerId=AFM65NU0UXIGP&assignmentId=3D8YOU6S9F6M8OF6YBYJN0N8HUUU6R&a=SO8D9&tp_a=SO8D9&b=3D8YOU6S9F6M8OF6YBYJN0N8HUUU6R&tp_b=3D8YOU6S9F6M8OF6YBYJN0N8HUUU6R&c=365799&tp_c=365799"},{"rt":11571,"response":{"heads":"4","tails":"1"},"type":"response","condition":"nonSeqPartial","trueTheta":0.8,"classrooms":["A","B"],"studentTrueClassroom":"A","exampleSet":"first","trial_type":"survey-html-form","trial_index":75,"time_elapsed":817287,"internal_node_id":"0.0-68.0-0.0","params":{"nStudents":24,"maxFlips":30,"completionMinutes":45,"basePay":8,"maxBonus":9,"perTrialBonus":0.5,"perTrialBonusThreshold":0.05,"exampleCost":0.01},"classroomParams":{"A":{"a":1,"b":4},"B":{"a":4,"b":1},"C":{"a":2,"b":8},"D":{"a":8,"b":2}},"conditions":["nonSeqFull","nonSeqPartial","seqNoFeedback","seqFeedback"],"classroomPairings":[["A","B"],["C","D"]],"coinWeights":[0.2,0.5,0.8],"subjectId":"AFM65NU0UXIGP","assignmentId":"3D8YOU6S9F6M8OF6YBYJN0N8HUUU6R","hitId":"3SD15I2WD2G0NA4TSPXGB81L5S7630","url":"https://gershmanlab.com/experiments/alicia/teaching/experiment/?hitId=3SD15I2WD2G0NA4TSPXGB81L5S7630&workerId=AFM65NU0UXIGP&assignmentId=3D8YOU6S9F6M8OF6YBYJN0N8HUUU6R&a=SO8D9&tp_a=SO8D9&b=3D8YOU6S9F6M8OF6YBYJN0N8HUUU6R&tp_b=3D8YOU6S9F6M8OF6YBYJN0N8HUUU6R&c=365799&tp_c=365799","heads":4,"tails":1,"studentIndex":8,"studentTrueHypers":{"a":1,"b":4},"studentGuess":0.5,"delta":0.30000000000000004,"totalExamples":5,"bonus":0,"bonusSoFar":2.08},{"rt":null,"stimulus":"Sending examples to student... ","response":null,"trial_type":"html-keyboard-response","trial_index":76,"time_elapsed":819039,"internal_node_id":"0.0-69.0","params":{"nStudents":24,"maxFlips":30,"completionMinutes":45,"basePay":8,"maxBonus":9,"perTrialBonus":0.5,"perTrialBonusThreshold":0.05,"exampleCost":0.01},"classroomParams":{"A":{"a":1,"b":4},"B":{"a":4,"b":1},"C":{"a":2,"b":8},"D":{"a":8,"b":2}},"conditions":["nonSeqFull","nonSeqPartial","seqNoFeedback","seqFeedback"],"classroomPairings":[["A","B"],["C","D"]],"coinWeights":[0.2,0.5,0.8],"subjectId":"AFM65NU0UXIGP","assignmentId":"3D8YOU6S9F6M8OF6YBYJN0N8HUUU6R","hitId":"3SD15I2WD2G0NA4TSPXGB81L5S7630","url":"https://gershmanlab.com/experiments/alicia/teaching/experiment/?hitId=3SD15I2WD2G0NA4TSPXGB81L5S7630&workerId=AFM65NU0UXIGP&assignmentId=3D8YOU6S9F6M8OF6YBYJN0N8HUUU6R&a=SO8D9&tp_a=SO8D9&b=3D8YOU6S9F6M8OF6YBYJN0N8HUUU6R&tp_b=3D8YOU6S9F6M8OF6YBYJN0N8HUUU6R&c=365799&tp_c=365799"},{"rt":null,"stimulus":"Examples sent to student! Waiting for student...","response":null,"trial_type":"html-keyboard-response","trial_index":77,"time_elapsed":825041,"internal_node_id":"0.0-70.0","params":{"nStudents":24,"maxFlips":30,"completionMinutes":45,"basePay":8,"maxBonus":9,"perTrialBonus":0.5,"perTrialBonusThreshold":0.05,"exampleCost":0.01},"classroomParams":{"A":{"a":1,"b":4},"B":{"a":4,"b":1},"C":{"a":2,"b":8},"D":{"a":8,"b":2}},"conditions":["nonSeqFull","nonSeqPartial","seqNoFeedback","seqFeedback"],"classroomPairings":[["A","B"],["C","D"]],"coinWeights":[0.2,0.5,0.8],"subjectId":"AFM65NU0UXIGP","assignmentId":"3D8YOU6S9F6M8OF6YBYJN0N8HUUU6R","hitId":"3SD15I2WD2G0NA4TSPXGB81L5S7630","url":"https://gershmanlab.com/experiments/alicia/teaching/experiment/?hitId=3SD15I2WD2G0NA4TSPXGB81L5S7630&workerId=AFM65NU0UXIGP&assignmentId=3D8YOU6S9F6M8OF6YBYJN0N8HUUU6R&a=SO8D9&tp_a=SO8D9&b=3D8YOU6S9F6M8OF6YBYJN0N8HUUU6R&tp_b=3D8YOU6S9F6M8OF6YBYJN0N8HUUU6R&c=365799&tp_c=365799"},{"rt":2602,"stimulus":"\n                <p>Student's guess for coin weight: <b style=\"color:Tomato;\">0.50</b></p>\n                <p>You received a bonus of <b>$0</b>. Total bonus so far: <b>$2.08</b></b></p>\n                <p></p>\n                <p>Press any key to continue.</p>\n                ","response":"f","trial_type":"html-keyboard-response","trial_index":78,"time_elapsed":827644,"internal_node_id":"0.0-71.0","params":{"nStudents":24,"maxFlips":30,"completionMinutes":45,"basePay":8,"maxBonus":9,"perTrialBonus":0.5,"perTrialBonusThreshold":0.05,"exampleCost":0.01},"classroomParams":{"A":{"a":1,"b":4},"B":{"a":4,"b":1},"C":{"a":2,"b":8},"D":{"a":8,"b":2}},"conditions":["nonSeqFull","nonSeqPartial","seqNoFeedback","seqFeedback"],"classroomPairings":[["A","B"],["C","D"]],"coinWeights":[0.2,0.5,0.8],"subjectId":"AFM65NU0UXIGP","assignmentId":"3D8YOU6S9F6M8OF6YBYJN0N8HUUU6R","hitId":"3SD15I2WD2G0NA4TSPXGB81L5S7630","url":"https://gershmanlab.com/experiments/alicia/teaching/experiment/?hitId=3SD15I2WD2G0NA4TSPXGB81L5S7630&workerId=AFM65NU0UXIGP&assignmentId=3D8YOU6S9F6M8OF6YBYJN0N8HUUU6R&a=SO8D9&tp_a=SO8D9&b=3D8YOU6S9F6M8OF6YBYJN0N8HUUU6R&tp_b=3D8YOU6S9F6M8OF6YBYJN0N8HUUU6R&c=365799&tp_c=365799"},{"rt":null,"stimulus":"<div style=\"font-size:60px;\">Next student</div>","response":null,"trial_type":"html-keyboard-response","trial_index":79,"time_elapsed":829904,"internal_node_id":"0.0-72.0-0.0","params":{"nStudents":24,"maxFlips":30,"completionMinutes":45,"basePay":8,"maxBonus":9,"perTrialBonus":0.5,"perTrialBonusThreshold":0.05,"exampleCost":0.01},"classroomParams":{"A":{"a":1,"b":4},"B":{"a":4,"b":1},"C":{"a":2,"b":8},"D":{"a":8,"b":2}},"conditions":["nonSeqFull","nonSeqPartial","seqNoFeedback","seqFeedback"],"classroomPairings":[["A","B"],["C","D"]],"coinWeights":[0.2,0.5,0.8],"subjectId":"AFM65NU0UXIGP","assignmentId":"3D8YOU6S9F6M8OF6YBYJN0N8HUUU6R","hitId":"3SD15I2WD2G0NA4TSPXGB81L5S7630","url":"https://gershmanlab.com/experiments/alicia/teaching/experiment/?hitId=3SD15I2WD2G0NA4TSPXGB81L5S7630&workerId=AFM65NU0UXIGP&assignmentId=3D8YOU6S9F6M8OF6YBYJN0N8HUUU6R&a=SO8D9&tp_a=SO8D9&b=3D8YOU6S9F6M8OF6YBYJN0N8HUUU6R&tp_b=3D8YOU6S9F6M8OF6YBYJN0N8HUUU6R&c=365799&tp_c=365799"},{"rt":6258,"stimulus":"\n            <h4 style=\"color:Orange;\">Student 10</h4>\n            <h2>The weight of your coin is <b style=\"color:Tomato;\">0.8</b>.</h2>\n            <p>In this block, you will be giving <b>two</b> sets of examples to Student 10.</p>\n                <p>You will receive feedback at the end of the block.</p>\n            <p></p>","response":0,"trial_type":"html-button-response","trial_index":80,"time_elapsed":836163,"internal_node_id":"0.0-73.0","params":{"nStudents":24,"maxFlips":30,"completionMinutes":45,"basePay":8,"maxBonus":9,"perTrialBonus":0.5,"perTrialBonusThreshold":0.05,"exampleCost":0.01},"classroomParams":{"A":{"a":1,"b":4},"B":{"a":4,"b":1},"C":{"a":2,"b":8},"D":{"a":8,"b":2}},"conditions":["nonSeqFull","nonSeqPartial","seqNoFeedback","seqFeedback"],"classroomPairings":[["A","B"],["C","D"]],"coinWeights":[0.2,0.5,0.8],"subjectId":"AFM65NU0UXIGP","assignmentId":"3D8YOU6S9F6M8OF6YBYJN0N8HUUU6R","hitId":"3SD15I2WD2G0NA4TSPXGB81L5S7630","url":"https://gershmanlab.com/experiments/alicia/teaching/experiment/?hitId=3SD15I2WD2G0NA4TSPXGB81L5S7630&workerId=AFM65NU0UXIGP&assignmentId=3D8YOU6S9F6M8OF6YBYJN0N8HUUU6R&a=SO8D9&tp_a=SO8D9&b=3D8YOU6S9F6M8OF6YBYJN0N8HUUU6R&tp_b=3D8YOU6S9F6M8OF6YBYJN0N8HUUU6R&c=365799&tp_c=365799"},{"rt":6016,"response":{"heads":"4","tails":"1"},"type":"response","condition":"seqNoFeedback","trueTheta":0.8,"classrooms":["C","D"],"studentTrueClassroom":"D","exampleSet":"first","trial_type":"survey-html-form","trial_index":81,"time_elapsed":842180,"internal_node_id":"0.0-74.0-0.0","params":{"nStudents":24,"maxFlips":30,"completionMinutes":45,"basePay":8,"maxBonus":9,"perTrialBonus":0.5,"perTrialBonusThreshold":0.05,"exampleCost":0.01},"classroomParams":{"A":{"a":1,"b":4},"B":{"a":4,"b":1},"C":{"a":2,"b":8},"D":{"a":8,"b":2}},"conditions":["nonSeqFull","nonSeqPartial","seqNoFeedback","seqFeedback"],"classroomPairings":[["A","B"],["C","D"]],"coinWeights":[0.2,0.5,0.8],"subjectId":"AFM65NU0UXIGP","assignmentId":"3D8YOU6S9F6M8OF6YBYJN0N8HUUU6R","hitId":"3SD15I2WD2G0NA4TSPXGB81L5S7630","url":"https://gershmanlab.com/experiments/alicia/teaching/experiment/?hitId=3SD15I2WD2G0NA4TSPXGB81L5S7630&workerId=AFM65NU0UXIGP&assignmentId=3D8YOU6S9F6M8OF6YBYJN0N8HUUU6R&a=SO8D9&tp_a=SO8D9&b=3D8YOU6S9F6M8OF6YBYJN0N8HUUU6R&tp_b=3D8YOU6S9F6M8OF6YBYJN0N8HUUU6R&c=365799&tp_c=365799","heads":4,"tails":1,"studentIndex":9,"studentTrueHypers":{"a":8,"b":2},"studentGuess":0.8,"delta":0,"totalExamples":5,"bonusSoFar":2.08},{"rt":null,"stimulus":"Sending examples to student... ","response":null,"trial_type":"html-keyboard-response","trial_index":82,"time_elapsed":844187,"internal_node_id":"0.0-75.0","params":{"nStudents":24,"maxFlips":30,"completionMinutes":45,"basePay":8,"maxBonus":9,"perTrialBonus":0.5,"perTrialBonusThreshold":0.05,"exampleCost":0.01},"classroomParams":{"A":{"a":1,"b":4},"B":{"a":4,"b":1},"C":{"a":2,"b":8},"D":{"a":8,"b":2}},"conditions":["nonSeqFull","nonSeqPartial","seqNoFeedback","seqFeedback"],"classroomPairings":[["A","B"],["C","D"]],"coinWeights":[0.2,0.5,0.8],"subjectId":"AFM65NU0UXIGP","assignmentId":"3D8YOU6S9F6M8OF6YBYJN0N8HUUU6R","hitId":"3SD15I2WD2G0NA4TSPXGB81L5S7630","url":"https://gershmanlab.com/experiments/alicia/teaching/experiment/?hitId=3SD15I2WD2G0NA4TSPXGB81L5S7630&workerId=AFM65NU0UXIGP&assignmentId=3D8YOU6S9F6M8OF6YBYJN0N8HUUU6R&a=SO8D9&tp_a=SO8D9&b=3D8YOU6S9F6M8OF6YBYJN0N8HUUU6R&tp_b=3D8YOU6S9F6M8OF6YBYJN0N8HUUU6R&c=365799&tp_c=365799"},{"rt":null,"stimulus":"Examples sent to student! Waiting for student...","response":null,"trial_type":"html-keyboard-response","trial_index":83,"time_elapsed":850188,"internal_node_id":"0.0-76.0","params":{"nStudents":24,"maxFlips":30,"completionMinutes":45,"basePay":8,"maxBonus":9,"perTrialBonus":0.5,"perTrialBonusThreshold":0.05,"exampleCost":0.01},"classroomParams":{"A":{"a":1,"b":4},"B":{"a":4,"b":1},"C":{"a":2,"b":8},"D":{"a":8,"b":2}},"conditions":["nonSeqFull","nonSeqPartial","seqNoFeedback","seqFeedback"],"classroomPairings":[["A","B"],["C","D"]],"coinWeights":[0.2,0.5,0.8],"subjectId":"AFM65NU0UXIGP","assignmentId":"3D8YOU6S9F6M8OF6YBYJN0N8HUUU6R","hitId":"3SD15I2WD2G0NA4TSPXGB81L5S7630","url":"https://gershmanlab.com/experiments/alicia/teaching/experiment/?hitId=3SD15I2WD2G0NA4TSPXGB81L5S7630&workerId=AFM65NU0UXIGP&assignmentId=3D8YOU6S9F6M8OF6YBYJN0N8HUUU6R&a=SO8D9&tp_a=SO8D9&b=3D8YOU6S9F6M8OF6YBYJN0N8HUUU6R&tp_b=3D8YOU6S9F6M8OF6YBYJN0N8HUUU6R&c=365799&tp_c=365799"},{"rt":4973,"response":{"heads":"4","tails":"1"},"type":"response","condition":"seqNoFeedback","trueTheta":0.8,"classrooms":["C","D"],"studentTrueClassroom":"D","exampleSet":"second","trial_type":"survey-html-form","trial_index":84,"time_elapsed":855162,"internal_node_id":"0.0-77.0-0.0","params":{"nStudents":24,"maxFlips":30,"completionMinutes":45,"basePay":8,"maxBonus":9,"perTrialBonus":0.5,"perTrialBonusThreshold":0.05,"exampleCost":0.01},"classroomParams":{"A":{"a":1,"b":4},"B":{"a":4,"b":1},"C":{"a":2,"b":8},"D":{"a":8,"b":2}},"conditions":["nonSeqFull","nonSeqPartial","seqNoFeedback","seqFeedback"],"classroomPairings":[["A","B"],["C","D"]],"coinWeights":[0.2,0.5,0.8],"subjectId":"AFM65NU0UXIGP","assignmentId":"3D8YOU6S9F6M8OF6YBYJN0N8HUUU6R","hitId":"3SD15I2WD2G0NA4TSPXGB81L5S7630","url":"https://gershmanlab.com/experiments/alicia/teaching/experiment/?hitId=3SD15I2WD2G0NA4TSPXGB81L5S7630&workerId=AFM65NU0UXIGP&assignmentId=3D8YOU6S9F6M8OF6YBYJN0N8HUUU6R&a=SO8D9&tp_a=SO8D9&b=3D8YOU6S9F6M8OF6YBYJN0N8HUUU6R&tp_b=3D8YOU6S9F6M8OF6YBYJN0N8HUUU6R&c=365799&tp_c=365799","firstResponseHeads":4,"firstResponseTails":1,"secondResponseHeads":4,"secondResponseTails":1,"totalHeads":8,"totalTails":2,"studentIndex":9,"studentTrueHypers":{"a":8,"b":2},"studentGuess":0.8,"delta":0,"bonus":0.4,"bonusSoFar":2.48,"totalExamples":10},{"rt":null,"stimulus":"Sending examples to student... ","response":null,"trial_type":"html-keyboard-response","trial_index":85,"time_elapsed":856914,"internal_node_id":"0.0-78.0","params":{"nStudents":24,"maxFlips":30,"completionMinutes":45,"basePay":8,"maxBonus":9,"perTrialBonus":0.5,"perTrialBonusThreshold":0.05,"exampleCost":0.01},"classroomParams":{"A":{"a":1,"b":4},"B":{"a":4,"b":1},"C":{"a":2,"b":8},"D":{"a":8,"b":2}},"conditions":["nonSeqFull","nonSeqPartial","seqNoFeedback","seqFeedback"],"classroomPairings":[["A","B"],["C","D"]],"coinWeight