[{"rt":5319,"stimulus":"Welcome to the experiment. Press any key to begin.","response":" ","trial_type":"html-keyboard-response","trial_index":0,"time_elapsed":5328,"internal_node_id":"0.0-0.0","params":{"nStudents":24,"maxFlips":30,"completionMinutes":45,"basePay":8,"maxBonus":9,"perTrialBonus":0.5,"perTrialBonusThreshold":0.05,"exampleCost":0.01},"classroomParams":{"A":{"a":1,"b":4},"B":{"a":4,"b":1},"C":{"a":2,"b":8},"D":{"a":8,"b":2}},"conditions":["nonSeqFull","nonSeqPartial","seqNoFeedback","seqFeedback"],"classroomPairings":[["A","B"],["C","D"]],"coinWeights":[0.2,0.5,0.8],"subjectId":"AGILQEFEPEK7N","assignmentId":"33L7PJKHCHKUCPJ5RL572IXX4AT8TE","hitId":"34KYK9TV2RUAD363EVFPUWVPB97SBP","url":"https://gershmanlab.com/experiments/alicia/teaching/experiment/?hitId=34KYK9TV2RUAD363EVFPUWVPB97SBP&workerId=AGILQEFEPEK7N&assignmentId=33L7PJKHCHKUCPJ5RL572IXX4AT8TE&a=HPL37&tp_a=HPL37&b=33L7PJKHCHKUCPJ5RL572IXX4AT8TE&tp_b=33L7PJKHCHKUCPJ5RL572IXX4AT8TE&c=365717&tp_c=365717"},{"rt":19858,"stimulus":"\n        <h3>Please read this consent agreement carefully before deciding whether to participate in this experiment.</h3>\n        <p><b>Purpose of the research:</b> To examine how people teach effectively.</p>\n        <p><b>What you will do in this research:</b> You will teach students the weights of different coins.</p>\n        <p><b>Time required:</b> This experiment will take 45 minutes to complete.</p>\n        <p><b>Risks:</b> There are no anticipated risks associated with participating in this study.             The effects of participating should be comparable to those you would experience from viewing a computer monitor             and using a mouse and keyboard for the duration of the experiment.</p>\n        <p><b>Benefits:</b> The study provides important information about the nature of teaching.</p>\n        <p><b>Compensation:</b> You will receive <b>$8</b> for completing the experiment and a performance bonus of up to <b>$9</b>.</p>\n        <p><b>Confidentiality:</b> Your participation in this study will remain confidential.             No personally identifiable information will be associated with your data.             Your de-identified data may be shared with other researchers and used in future projects.</p>\n        <p><b>Participation and withdrawal:</b> Your participation in this study is completely voluntary and             you may refuse to participate or you may choose to withdraw at any time without penalty or loss of\n            benefits to which you are otherwise entitled.</p>\n        <p><b>How to contact the researcher:</b> If you have questions or concerns about your participation            or payment, or want to request a summary of research findings, please contact\n            Alicia Chen, aliciachen@college.harvard.edu.</p>\n        <p><b>Whom to contact about your rights in this research:</b> For questions, concerns, suggestions,             or complaints that have not been or cannot be addressed by the researcher, or to report             research-related harm, please contact the Committee on the Use of Human Subjects in Research at Harvard University,             1414 Massachusetts Avenue, Second Floor, Cambridge, MA 02138. Phone: 617-496-2847. Email: cuhs@fas.harvard.edu.</p>\n        ","response":0,"trial_type":"html-button-response","trial_index":1,"time_elapsed":25190,"internal_node_id":"0.0-1.0","params":{"nStudents":24,"maxFlips":30,"completionMinutes":45,"basePay":8,"maxBonus":9,"perTrialBonus":0.5,"perTrialBonusThreshold":0.05,"exampleCost":0.01},"classroomParams":{"A":{"a":1,"b":4},"B":{"a":4,"b":1},"C":{"a":2,"b":8},"D":{"a":8,"b":2}},"conditions":["nonSeqFull","nonSeqPartial","seqNoFeedback","seqFeedback"],"classroomPairings":[["A","B"],["C","D"]],"coinWeights":[0.2,0.5,0.8],"subjectId":"AGILQEFEPEK7N","assignmentId":"33L7PJKHCHKUCPJ5RL572IXX4AT8TE","hitId":"34KYK9TV2RUAD363EVFPUWVPB97SBP","url":"https://gershmanlab.com/experiments/alicia/teaching/experiment/?hitId=34KYK9TV2RUAD363EVFPUWVPB97SBP&workerId=AGILQEFEPEK7N&assignmentId=33L7PJKHCHKUCPJ5RL572IXX4AT8TE&a=HPL37&tp_a=HPL37&b=33L7PJKHCHKUCPJ5RL572IXX4AT8TE&tp_b=33L7PJKHCHKUCPJ5RL572IXX4AT8TE&c=365717&tp_c=365717"},{"view_history":[{"page_index":0,"viewing_time":7015},{"page_index":1,"viewing_time":7050},{"page_index":2,"viewing_time":67156},{"page_index":3,"viewing_time":461270},{"page_index":4,"viewing_time":19186},{"page_index":5,"viewing_time":173657},{"page_index":6,"viewing_time":64073}],"rt":799408,"trial_type":"instructions","trial_index":2,"time_elapsed":824599,"internal_node_id":"0.0-2.0-0.0","params":{"nStudents":24,"maxFlips":30,"completionMinutes":45,"basePay":8,"maxBonus":9,"perTrialBonus":0.5,"perTrialBonusThreshold":0.05,"exampleCost":0.01},"classroomParams":{"A":{"a":1,"b":4},"B":{"a":4,"b":1},"C":{"a":2,"b":8},"D":{"a":8,"b":2}},"conditions":["nonSeqFull","nonSeqPartial","seqNoFeedback","seqFeedback"],"classroomPairings":[["A","B"],["C","D"]],"coinWeights":[0.2,0.5,0.8],"subjectId":"AGILQEFEPEK7N","assignmentId":"33L7PJKHCHKUCPJ5RL572IXX4AT8TE","hitId":"34KYK9TV2RUAD363EVFPUWVPB97SBP","url":"https://gershmanlab.com/experiments/alicia/teaching/experiment/?hitId=34KYK9TV2RUAD363EVFPUWVPB97SBP&workerId=AGILQEFEPEK7N&assignmentId=33L7PJKHCHKUCPJ5RL572IXX4AT8TE&a=HPL37&tp_a=HPL37&b=33L7PJKHCHKUCPJ5RL572IXX4AT8TE&tp_b=33L7PJKHCHKUCPJ5RL572IXX4AT8TE&c=365717&tp_c=365717"},{"rt":66290,"response":{"Q0":"Students in different classrooms will have seen a different number of heads and tails before seeing the examples you select for them.","Q1":"By <b>considering the student's classroom information</b> so that I can teach efficiently and accurately/helpfully at the same time (because each example I give to the student costs money!).","Q2":"The coin lands heads 90% of the time.","Q3":"No, I will teach a <b>new</b> student each time.","Q4":"The students are also on the same alien planet as you, where coins can be unfair.","Q5":"Based on the student's second (and final) guess."},"question_order":[3,2,1,0,4,5],"trial_type":"survey-multi-choice","trial_index":3,"time_elapsed":890892,"internal_node_id":"0.0-2.0-1.0","params":{"nStudents":24,"maxFlips":30,"completionMinutes":45,"basePay":8,"maxBonus":9,"perTrialBonus":0.5,"perTrialBonusThreshold":0.05,"exampleCost":0.01},"classroomParams":{"A":{"a":1,"b":4},"B":{"a":4,"b":1},"C":{"a":2,"b":8},"D":{"a":8,"b":2}},"conditions":["nonSeqFull","nonSeqPartial","seqNoFeedback","seqFeedback"],"classroomPairings":[["A","B"],["C","D"]],"coinWeights":[0.2,0.5,0.8],"subjectId":"AGILQEFEPEK7N","assignmentId":"33L7PJKHCHKUCPJ5RL572IXX4AT8TE","hitId":"34KYK9TV2RUAD363EVFPUWVPB97SBP","url":"https://gershmanlab.com/experiments/alicia/teaching/experiment/?hitId=34KYK9TV2RUAD363EVFPUWVPB97SBP&workerId=AGILQEFEPEK7N&assignmentId=33L7PJKHCHKUCPJ5RL572IXX4AT8TE&a=HPL37&tp_a=HPL37&b=33L7PJKHCHKUCPJ5RL572IXX4AT8TE&tp_b=33L7PJKHCHKUCPJ5RL572IXX4AT8TE&c=365717&tp_c=365717","pass":true},{"rt":null,"stimulus":"<div style=\"font-size:30px;\">Congrats on passing the comprehension quiz! The experiment will begin in a few seconds.</div>","response":null,"trial_type":"html-keyboard-response","trial_index":4,"time_elapsed":893900,"internal_node_id":"0.0-3.0","params":{"nStudents":24,"maxFlips":30,"completionMinutes":45,"basePay":8,"maxBonus":9,"perTrialBonus":0.5,"perTrialBonusThreshold":0.05,"exampleCost":0.01},"classroomParams":{"A":{"a":1,"b":4},"B":{"a":4,"b":1},"C":{"a":2,"b":8},"D":{"a":8,"b":2}},"conditions":["nonSeqFull","nonSeqPartial","seqNoFeedback","seqFeedback"],"classroomPairings":[["A","B"],["C","D"]],"coinWeights":[0.2,0.5,0.8],"subjectId":"AGILQEFEPEK7N","assignmentId":"33L7PJKHCHKUCPJ5RL572IXX4AT8TE","hitId":"34KYK9TV2RUAD363EVFPUWVPB97SBP","url":"https://gershmanlab.com/experiments/alicia/teaching/experiment/?hitId=34KYK9TV2RUAD363EVFPUWVPB97SBP&workerId=AGILQEFEPEK7N&assignmentId=33L7PJKHCHKUCPJ5RL572IXX4AT8TE&a=HPL37&tp_a=HPL37&b=33L7PJKHCHKUCPJ5RL572IXX4AT8TE&tp_b=33L7PJKHCHKUCPJ5RL572IXX4AT8TE&c=365717&tp_c=365717"},{"rt":null,"stimulus":"<div style=\"font-size:50px;\">First student</div>","response":null,"trial_type":"html-keyboard-response","trial_index":5,"time_elapsed":896909,"internal_node_id":"0.0-4.0","params":{"nStudents":24,"maxFlips":30,"completionMinutes":45,"basePay":8,"maxBonus":9,"perTrialBonus":0.5,"perTrialBonusThreshold":0.05,"exampleCost":0.01},"classroomParams":{"A":{"a":1,"b":4},"B":{"a":4,"b":1},"C":{"a":2,"b":8},"D":{"a":8,"b":2}},"conditions":["nonSeqFull","nonSeqPartial","seqNoFeedback","seqFeedback"],"classroomPairings":[["A","B"],["C","D"]],"coinWeights":[0.2,0.5,0.8],"subjectId":"AGILQEFEPEK7N","assignmentId":"33L7PJKHCHKUCPJ5RL572IXX4AT8TE","hitId":"34KYK9TV2RUAD363EVFPUWVPB97SBP","url":"https://gershmanlab.com/experiments/alicia/teaching/experiment/?hitId=34KYK9TV2RUAD363EVFPUWVPB97SBP&workerId=AGILQEFEPEK7N&assignmentId=33L7PJKHCHKUCPJ5RL572IXX4AT8TE&a=HPL37&tp_a=HPL37&b=33L7PJKHCHKUCPJ5RL572IXX4AT8TE&tp_b=33L7PJKHCHKUCPJ5RL572IXX4AT8TE&c=365717&tp_c=365717"},{"rt":16120,"stimulus":"\n            <h4 style=\"color:Orange;\">Student 1</h4>\n            <h2>The weight of your coin is <b style=\"color:Tomato;\">0.5</b>.</h2>\n            <p>In this block, you will be giving <b>one</b> set of examples to Student 1.</p>\n                <p>You will receive feedback at the end of the block.</p>\n            <p></p>","response":0,"trial_type":"html-button-response","trial_index":6,"time_elapsed":913031,"internal_node_id":"0.0-5.0","params":{"nStudents":24,"maxFlips":30,"completionMinutes":45,"basePay":8,"maxBonus":9,"perTrialBonus":0.5,"perTrialBonusThreshold":0.05,"exampleCost":0.01},"classroomParams":{"A":{"a":1,"b":4},"B":{"a":4,"b":1},"C":{"a":2,"b":8},"D":{"a":8,"b":2}},"conditions":["nonSeqFull","nonSeqPartial","seqNoFeedback","seqFeedback"],"classroomPairings":[["A","B"],["C","D"]],"coinWeights":[0.2,0.5,0.8],"subjectId":"AGILQEFEPEK7N","assignmentId":"33L7PJKHCHKUCPJ5RL572IXX4AT8TE","hitId":"34KYK9TV2RUAD363EVFPUWVPB97SBP","url":"https://gershmanlab.com/experiments/alicia/teaching/experiment/?hitId=34KYK9TV2RUAD363EVFPUWVPB97SBP&workerId=AGILQEFEPEK7N&assignmentId=33L7PJKHCHKUCPJ5RL572IXX4AT8TE&a=HPL37&tp_a=HPL37&b=33L7PJKHCHKUCPJ5RL572IXX4AT8TE&tp_b=33L7PJKHCHKUCPJ5RL572IXX4AT8TE&c=365717&tp_c=365717"},{"rt":43784,"response":{"heads":"1","tails":"1"},"type":"response","condition":"nonSeqPartial","trueTheta":0.5,"classrooms":["A","B"],"studentTrueClassroom":"B","exampleSet":"first","trial_type":"survey-html-form","trial_index":7,"time_elapsed":956816,"internal_node_id":"0.0-6.0-0.0","params":{"nStudents":24,"maxFlips":30,"completionMinutes":45,"basePay":8,"maxBonus":9,"perTrialBonus":0.5,"perTrialBonusThreshold":0.05,"exampleCost":0.01},"classroomParams":{"A":{"a":1,"b":4},"B":{"a":4,"b":1},"C":{"a":2,"b":8},"D":{"a":8,"b":2}},"conditions":["nonSeqFull","nonSeqPartial","seqNoFeedback","seqFeedback"],"classroomPairings":[["A","B"],["C","D"]],"coinWeights":[0.2,0.5,0.8],"subjectId":"AGILQEFEPEK7N","assignmentId":"33L7PJKHCHKUCPJ5RL572IXX4AT8TE","hitId":"34KYK9TV2RUAD363EVFPUWVPB97SBP","url":"https://gershmanlab.com/experiments/alicia/teaching/experiment/?hitId=34KYK9TV2RUAD363EVFPUWVPB97SBP&workerId=AGILQEFEPEK7N&assignmentId=33L7PJKHCHKUCPJ5RL572IXX4AT8TE&a=HPL37&tp_a=HPL37&b=33L7PJKHCHKUCPJ5RL572IXX4AT8TE&tp_b=33L7PJKHCHKUCPJ5RL572IXX4AT8TE&c=365717&tp_c=365717","heads":1,"tails":1,"studentIndex":0,"studentTrueHypers":{"a":4,"b":1},"studentGuess":0.7142857142857143,"delta":0.2142857142857143,"totalExamples":2,"bonus":0,"bonusSoFar":0},{"rt":null,"stimulus":"Sending examples to student... ","response":null,"trial_type":"html-keyboard-response","trial_index":8,"time_elapsed":958579,"internal_node_id":"0.0-7.0","params":{"nStudents":24,"maxFlips":30,"completionMinutes":45,"basePay":8,"maxBonus":9,"perTrialBonus":0.5,"perTrialBonusThreshold":0.05,"exampleCost":0.01},"classroomParams":{"A":{"a":1,"b":4},"B":{"a":4,"b":1},"C":{"a":2,"b":8},"D":{"a":8,"b":2}},"conditions":["nonSeqFull","nonSeqPartial","seqNoFeedback","seqFeedback"],"classroomPairings":[["A","B"],["C","D"]],"coinWeights":[0.2,0.5,0.8],"subjectId":"AGILQEFEPEK7N","assignmentId":"33L7PJKHCHKUCPJ5RL572IXX4AT8TE","hitId":"34KYK9TV2RUAD363EVFPUWVPB97SBP","url":"https://gershmanlab.com/experiments/alicia/teaching/experiment/?hitId=34KYK9TV2RUAD363EVFPUWVPB97SBP&workerId=AGILQEFEPEK7N&assignmentId=33L7PJKHCHKUCPJ5RL572IXX4AT8TE&a=HPL37&tp_a=HPL37&b=33L7PJKHCHKUCPJ5RL572IXX4AT8TE&tp_b=33L7PJKHCHKUCPJ5RL572IXX4AT8TE&c=365717&tp_c=365717"},{"rt":null,"stimulus":"Examples sent to student! Waiting for student...","response":null,"trial_type":"html-keyboard-response","trial_index":9,"time_elapsed":963595,"internal_node_id":"0.0-8.0","params":{"nStudents":24,"maxFlips":30,"completionMinutes":45,"basePay":8,"maxBonus":9,"perTrialBonus":0.5,"perTrialBonusThreshold":0.05,"exampleCost":0.01},"classroomParams":{"A":{"a":1,"b":4},"B":{"a":4,"b":1},"C":{"a":2,"b":8},"D":{"a":8,"b":2}},"conditions":["nonSeqFull","nonSeqPartial","seqNoFeedback","seqFeedback"],"classroomPairings":[["A","B"],["C","D"]],"coinWeights":[0.2,0.5,0.8],"subjectId":"AGILQEFEPEK7N","assignmentId":"33L7PJKHCHKUCPJ5RL572IXX4AT8TE","hitId":"34KYK9TV2RUAD363EVFPUWVPB97SBP","url":"https://gershmanlab.com/experiments/alicia/teaching/experiment/?hitId=34KYK9TV2RUAD363EVFPUWVPB97SBP&workerId=AGILQEFEPEK7N&assignmentId=33L7PJKHCHKUCPJ5RL572IXX4AT8TE&a=HPL37&tp_a=HPL37&b=33L7PJKHCHKUCPJ5RL572IXX4AT8TE&tp_b=33L7PJKHCHKUCPJ5RL572IXX4AT8TE&c=365717&tp_c=365717"},{"rt":13894,"stimulus":"\n                <p>Student's guess for coin weight: <b style=\"color:Tomato;\">0.71</b></p>\n                <p>You received a bonus of <b>$0</b>. Total bonus so far: <b>$0.00</b></b></p>\n                <p></p>\n                <p>Press any key to continue.</p>\n                ","response":" ","trial_type":"html-keyboard-response","trial_index":10,"time_elapsed":977492,"internal_node_id":"0.0-9.0","params":{"nStudents":24,"maxFlips":30,"completionMinutes":45,"basePay":8,"maxBonus":9,"perTrialBonus":0.5,"perTrialBonusThreshold":0.05,"exampleCost":0.01},"classroomParams":{"A":{"a":1,"b":4},"B":{"a":4,"b":1},"C":{"a":2,"b":8},"D":{"a":8,"b":2}},"conditions":["nonSeqFull","nonSeqPartial","seqNoFeedback","seqFeedback"],"classroomPairings":[["A","B"],["C","D"]],"coinWeights":[0.2,0.5,0.8],"subjectId":"AGILQEFEPEK7N","assignmentId":"33L7PJKHCHKUCPJ5RL572IXX4AT8TE","hitId":"34KYK9TV2RUAD363EVFPUWVPB97SBP","url":"https://gershmanlab.com/experiments/alicia/teaching/experiment/?hitId=34KYK9TV2RUAD363EVFPUWVPB97SBP&workerId=AGILQEFEPEK7N&assignmentId=33L7PJKHCHKUCPJ5RL572IXX4AT8TE&a=HPL37&tp_a=HPL37&b=33L7PJKHCHKUCPJ5RL572IXX4AT8TE&tp_b=33L7PJKHCHKUCPJ5RL572IXX4AT8TE&c=365717&tp_c=365717"},{"rt":null,"stimulus":"<div style=\"font-size:60px;\">Next student</div>","response":null,"trial_type":"html-keyboard-response","trial_index":11,"time_elapsed":980496,"internal_node_id":"0.0-10.0-0.0","params":{"nStudents":24,"maxFlips":30,"completionMinutes":45,"basePay":8,"maxBonus":9,"perTrialBonus":0.5,"perTrialBonusThreshold":0.05,"exampleCost":0.01},"classroomParams":{"A":{"a":1,"b":4},"B":{"a":4,"b":1},"C":{"a":2,"b":8},"D":{"a":8,"b":2}},"conditions":["nonSeqFull","nonSeqPartial","seqNoFeedback","seqFeedback"],"classroomPairings":[["A","B"],["C","D"]],"coinWeights":[0.2,0.5,0.8],"subjectId":"AGILQEFEPEK7N","assignmentId":"33L7PJKHCHKUCPJ5RL572IXX4AT8TE","hitId":"34KYK9TV2RUAD363EVFPUWVPB97SBP","url":"https://gershmanlab.com/experiments/alicia/teaching/experiment/?hitId=34KYK9TV2RUAD363EVFPUWVPB97SBP&workerId=AGILQEFEPEK7N&assignmentId=33L7PJKHCHKUCPJ5RL572IXX4AT8TE&a=HPL37&tp_a=HPL37&b=33L7PJKHCHKUCPJ5RL572IXX4AT8TE&tp_b=33L7PJKHCHKUCPJ5RL572IXX4AT8TE&c=365717&tp_c=365717"},{"rt":4325,"stimulus":"\n            <h4 style=\"color:Orange;\">Student 2</h4>\n            <h2>The weight of your coin is <b style=\"color:Tomato;\">0.2</b>.</h2>\n            <p>In this block, you will be giving <b>two</b> sets of examples to Student 2.</p>\n                <p>You will receive feedback at the end of the block.</p>\n            <p></p>","response":0,"trial_type":"html-button-response","trial_index":12,"time_elapsed":984823,"internal_node_id":"0.0-11.0","params":{"nStudents":24,"maxFlips":30,"completionMinutes":45,"basePay":8,"maxBonus":9,"perTrialBonus":0.5,"perTrialBonusThreshold":0.05,"exampleCost":0.01},"classroomParams":{"A":{"a":1,"b":4},"B":{"a":4,"b":1},"C":{"a":2,"b":8},"D":{"a":8,"b":2}},"conditions":["nonSeqFull","nonSeqPartial","seqNoFeedback","seqFeedback"],"classroomPairings":[["A","B"],["C","D"]],"coinWeights":[0.2,0.5,0.8],"subjectId":"AGILQEFEPEK7N","assignmentId":"33L7PJKHCHKUCPJ5RL572IXX4AT8TE","hitId":"34KYK9TV2RUAD363EVFPUWVPB97SBP","url":"https://gershmanlab.com/experiments/alicia/teaching/experiment/?hitId=34KYK9TV2RUAD363EVFPUWVPB97SBP&workerId=AGILQEFEPEK7N&assignmentId=33L7PJKHCHKUCPJ5RL572IXX4AT8TE&a=HPL37&tp_a=HPL37&b=33L7PJKHCHKUCPJ5RL572IXX4AT8TE&tp_b=33L7PJKHCHKUCPJ5RL572IXX4AT8TE&c=365717&tp_c=365717"},{"rt":25844,"response":{"heads":"2","tails":"8"},"type":"response","condition":"seqNoFeedback","trueTheta":0.2,"classrooms":["C","D"],"studentTrueClassroom":"D","exampleSet":"first","trial_type":"survey-html-form","trial_index":13,"time_elapsed":1010668,"internal_node_id":"0.0-12.0-0.0","params":{"nStudents":24,"maxFlips":30,"completionMinutes":45,"basePay":8,"maxBonus":9,"perTrialBonus":0.5,"perTrialBonusThreshold":0.05,"exampleCost":0.01},"classroomParams":{"A":{"a":1,"b":4},"B":{"a":4,"b":1},"C":{"a":2,"b":8},"D":{"a":8,"b":2}},"conditions":["nonSeqFull","nonSeqPartial","seqNoFeedback","seqFeedback"],"classroomPairings":[["A","B"],["C","D"]],"coinWeights":[0.2,0.5,0.8],"subjectId":"AGILQEFEPEK7N","assignmentId":"33L7PJKHCHKUCPJ5RL572IXX4AT8TE","hitId":"34KYK9TV2RUAD363EVFPUWVPB97SBP","url":"https://gershmanlab.com/experiments/alicia/teaching/experiment/?hitId=34KYK9TV2RUAD363EVFPUWVPB97SBP&workerId=AGILQEFEPEK7N&assignmentId=33L7PJKHCHKUCPJ5RL572IXX4AT8TE&a=HPL37&tp_a=HPL37&b=33L7PJKHCHKUCPJ5RL572IXX4AT8TE&tp_b=33L7PJKHCHKUCPJ5RL572IXX4AT8TE&c=365717&tp_c=365717","heads":2,"tails":8,"studentIndex":1,"studentTrueHypers":{"a":8,"b":2},"studentGuess":0.5,"delta":0.3,"totalExamples":10,"bonusSoFar":0},{"rt":null,"stimulus":"Sending examples to student... ","response":null,"trial_type":"html-keyboard-response","trial_index":14,"time_elapsed":1011920,"internal_node_id":"0.0-13.0","params":{"nStudents":24,"maxFlips":30,"completionMinutes":45,"basePay":8,"maxBonus":9,"perTrialBonus":0.5,"perTrialBonusThreshold":0.05,"exampleCost":0.01},"classroomParams":{"A":{"a":1,"b":4},"B":{"a":4,"b":1},"C":{"a":2,"b":8},"D":{"a":8,"b":2}},"conditions":["nonSeqFull","nonSeqPartial","seqNoFeedback","seqFeedback"],"classroomPairings":[["A","B"],["C","D"]],"coinWeights":[0.2,0.5,0.8],"subjectId":"AGILQEFEPEK7N","assignmentId":"33L7PJKHCHKUCPJ5RL572IXX4AT8TE","hitId":"34KYK9TV2RUAD363EVFPUWVPB97SBP","url":"https://gershmanlab.com/experiments/alicia/teaching/experiment/?hitId=34KYK9TV2RUAD363EVFPUWVPB97SBP&workerId=AGILQEFEPEK7N&assignmentId=33L7PJKHCHKUCPJ5RL572IXX4AT8TE&a=HPL37&tp_a=HPL37&b=33L7PJKHCHKUCPJ5RL572IXX4AT8TE&tp_b=33L7PJKHCHKUCPJ5RL572IXX4AT8TE&c=365717&tp_c=365717"},{"rt":null,"stimulus":"Examples sent to student! Waiting for student...","response":null,"trial_type":"html-keyboard-response","trial_index":15,"time_elapsed":1016433,"internal_node_id":"0.0-14.0","params":{"nStudents":24,"maxFlips":30,"completionMinutes":45,"basePay":8,"maxBonus":9,"perTrialBonus":0.5,"perTrialBonusThreshold":0.05,"exampleCost":0.01},"classroomParams":{"A":{"a":1,"b":4},"B":{"a":4,"b":1},"C":{"a":2,"b":8},"D":{"a":8,"b":2}},"conditions":["nonSeqFull","nonSeqPartial","seqNoFeedback","seqFeedback"],"classroomPairings":[["A","B"],["C","D"]],"coinWeights":[0.2,0.5,0.8],"subjectId":"AGILQEFEPEK7N","assignmentId":"33L7PJKHCHKUCPJ5RL572IXX4AT8TE","hitId":"34KYK9TV2RUAD363EVFPUWVPB97SBP","url":"https://gershmanlab.com/experiments/alicia/teaching/experiment/?hitId=34KYK9TV2RUAD363EVFPUWVPB97SBP&workerId=AGILQEFEPEK7N&assignmentId=33L7PJKHCHKUCPJ5RL572IXX4AT8TE&a=HPL37&tp_a=HPL37&b=33L7PJKHCHKUCPJ5RL572IXX4AT8TE&tp_b=33L7PJKHCHKUCPJ5RL572IXX4AT8TE&c=365717&tp_c=365717"},{"rt":19892,"response":{"heads":"2","tails":"8"},"type":"response","condition":"seqNoFeedback","trueTheta":0.2,"classrooms":["C","D"],"studentTrueClassroom":"D","exampleSet":"second","trial_type":"survey-html-form","trial_index":16,"time_elapsed":1036326,"internal_node_id":"0.0-15.0-0.0","params":{"nStudents":24,"maxFlips":30,"completionMinutes":45,"basePay":8,"maxBonus":9,"perTrialBonus":0.5,"perTrialBonusThreshold":0.05,"exampleCost":0.01},"classroomParams":{"A":{"a":1,"b":4},"B":{"a":4,"b":1},"C":{"a":2,"b":8},"D":{"a":8,"b":2}},"conditions":["nonSeqFull","nonSeqPartial","seqNoFeedback","seqFeedback"],"classroomPairings":[["A","B"],["C","D"]],"coinWeights":[0.2,0.5,0.8],"subjectId":"AGILQEFEPEK7N","assignmentId":"33L7PJKHCHKUCPJ5RL572IXX4AT8TE","hitId":"34KYK9TV2RUAD363EVFPUWVPB97SBP","url":"https://gershmanlab.com/experiments/alicia/teaching/experiment/?hitId=34KYK9TV2RUAD363EVFPUWVPB97SBP&workerId=AGILQEFEPEK7N&assignmentId=33L7PJKHCHKUCPJ5RL572IXX4AT8TE&a=HPL37&tp_a=HPL37&b=33L7PJKHCHKUCPJ5RL572IXX4AT8TE&tp_b=33L7PJKHCHKUCPJ5RL572IXX4AT8TE&c=365717&tp_c=365717","firstResponseHeads":2,"firstResponseTails":8,"secondResponseHeads":2,"secondResponseTails":8,"totalHeads":4,"totalTails":16,"studentIndex":1,"studentTrueHypers":{"a":8,"b":2},"studentGuess":0.4,"delta":0.2,"bonus":0,"bonusSoFar":0,"totalExamples":20},{"rt":null,"stimulus":"Sending examples to student... ","response":null,"trial_type":"html-keyboard-response","trial_index":17,"time_elapsed":1038341,"internal_node_id":"0.0-16.0","params":{"nStudents":24,"maxFlips":30,"completionMinutes":45,"basePay":8,"maxBonus":9,"perTrialBonus":0.5,"perTrialBonusThreshold":0.05,"exampleCost":0.01},"classroomParams":{"A":{"a":1,"b":4},"B":{"a":4,"b":1},"C":{"a":2,"b":8},"D":{"a":8,"b":2}},"conditions":["nonSeqFull","nonSeqPartial","seqNoFeedback","seqFeedback"],"classroomPairings":[["A","B"],["C","D"]],"coinWeights":[0.2,0.5,0.8],"subjectId":"AGILQEFEPEK7N","assignmentId":"33L7PJKHCHKUCPJ5RL572IXX4AT8TE","hitId":"34KYK9TV2RUAD363EVFPUWVPB97SBP","url":"https://gershmanlab.com/experiments/alicia/teaching/experiment/?hitId=34KYK9TV2RUAD363EVFPUWVPB97SBP&workerId=AGILQEFEPEK7N&assignmentId=33L7PJKHCHKUCPJ5RL572IXX4AT8TE&a=HPL37&tp_a=HPL37&b=33L7PJKHCHKUCPJ5RL572IXX4AT8TE&tp_b=33L7PJKHCHKUCPJ5RL572IXX4AT8TE&c=365717&tp_c=365717"},{"rt":null,"stimulus":"Examples sent to student! Waiting for student...","response":null,"trial_type":"html-keyboard-response","trial_index":18,"time_elapsed":1042856,"internal_node_id":"0.0-17.0","params":{"nStudents":24,"maxFlips":30,"completionMinutes":45,"basePay":8,"maxBonus":9,"perTrialBonus":0.5,"perTrialBonusThreshold":0.05,"exampleCost":0.01},"classroomParams":{"A":{"a":1,"b":4},"B":{"a":4,"b":1},"C":{"a":2,"b":8},"D":{"a":8,"b":2}},"conditions":["nonSeqFull","nonSeqPartial","seqNoFeedback","seqFeedback"],"classroomPairings":[["A","B"],["C","D"]],"coinWeights":[0.2,0.5,0.8],"subjectId":"AGILQEFEPEK7N","assignmentId":"33L7PJKHCHKUCPJ5RL572IXX4AT8TE","hitId":"34KYK9TV2RUAD363EVFPUWVPB97SBP","url":"https://gershmanlab.com/experiments/alicia/teaching/experiment/?hitId=34KYK9TV2RUAD363EVFPUWVPB97SBP&workerId=AGILQEFEPEK7N&assignmentId=33L7PJKHCHKUCPJ5RL572IXX4AT8TE&a=HPL37&tp_a=HPL37&b=33L7PJKHCHKUCPJ5RL572IXX4AT8TE&tp_b=33L7PJKHCHKUCPJ5RL572IXX4AT8TE&c=365717&tp_c=365717"},{"rt":7804,"stimulus":"\n                <p>Student 2's first guess for coin weight: <b style=\"color:Tomato\";>0.50</b></p>\n                <p>Student 2's second guess for coin weight: <b style=\"color:Tomato\";>0.40</b></p>\n                <p>You received a bonus of <b>$0.00</b> based on the student's second guess.</p>\n                <p>Total bonus so far: <b>$0.00</b></p>\n                <p>Press any key to continue.</p>\n                ","response":" ","trial_type":"html-keyboard-response","trial_index":19,"time_elapsed":1050661,"internal_node_id":"0.0-18.0","params":{"nStudents":24,"maxFlips":30,"completionMinutes":45,"basePay":8,"maxBonus":9,"perTrialBonus":0.5,"perTrialBonusThreshold":0.05,"exampleCost":0.01},"classroomParams":{"A":{"a":1,"b":4},"B":{"a":4,"b":1},"C":{"a":2,"b":8},"D":{"a":8,"b":2}},"conditions":["nonSeqFull","nonSeqPartial","seqNoFeedback","seqFeedback"],"classroomPairings":[["A","B"],["C","D"]],"coinWeights":[0.2,0.5,0.8],"subjectId":"AGILQEFEPEK7N","assignmentId":"33L7PJKHCHKUCPJ5RL572IXX4AT8TE","hitId":"34KYK9TV2RUAD363EVFPUWVPB97SBP","url":"https://gershmanlab.com/experiments/alicia/teaching/experiment/?hitId=34KYK9TV2RUAD363EVFPUWVPB97SBP&workerId=AGILQEFEPEK7N&assignmentId=33L7PJKHCHKUCPJ5RL572IXX4AT8TE&a=HPL37&tp_a=HPL37&b=33L7PJKHCHKUCPJ5RL572IXX4AT8TE&tp_b=33L7PJKHCHKUCPJ5RL572IXX4AT8TE&c=365717&tp_c=365717"},{"rt":null,"stimulus":"<div style=\"font-size:60px;\">Next student</div>","response":null,"trial_type":"html-keyboard-response","trial_index":20,"time_elapsed":1053678,"internal_node_id":"0.0-19.0-0.0","params":{"nStudents":24,"maxFlips":30,"completionMinutes":45,"basePay":8,"maxBonus":9,"perTrialBonus":0.5,"perTrialBonusThreshold":0.05,"exampleCost":0.01},"classroomParams":{"A":{"a":1,"b":4},"B":{"a":4,"b":1},"C":{"a":2,"b":8},"D":{"a":8,"b":2}},"conditions":["nonSeqFull","nonSeqPartial","seqNoFeedback","seqFeedback"],"classroomPairings":[["A","B"],["C","D"]],"coinWeights":[0.2,0.5,0.8],"subjectId":"AGILQEFEPEK7N","assignmentId":"33L7PJKHCHKUCPJ5RL572IXX4AT8TE","hitId":"34KYK9TV2RUAD363EVFPUWVPB97SBP","url":"https://gershmanlab.com/experiments/alicia/teaching/experiment/?hitId=34KYK9TV2RUAD363EVFPUWVPB97SBP&workerId=AGILQEFEPEK7N&assignmentId=33L7PJKHCHKUCPJ5RL572IXX4AT8TE&a=HPL37&tp_a=HPL37&b=33L7PJKHCHKUCPJ5RL572IXX4AT8TE&tp_b=33L7PJKHCHKUCPJ5RL572IXX4AT8TE&c=365717&tp_c=365717"},{"rt":8941,"stimulus":"\n            <h4 style=\"color:Orange;\">Student 3</h4>\n            <h2>The weight of your coin is <b style=\"color:Tomato;\">0.8</b>.</h2>\n            <p>In this block, you will be giving <b>one</b> set of examples to Student 3.</p>\n                <p>You will receive feedback at the end of the block.</p>\n            <p></p>","response":0,"trial_type":"html-button-response","trial_index":21,"time_elapsed":1062621,"internal_node_id":"0.0-20.0","params":{"nStudents":24,"maxFlips":30,"completionMinutes":45,"basePay":8,"maxBonus":9,"perTrialBonus":0.5,"perTrialBonusThreshold":0.05,"exampleCost":0.01},"classroomParams":{"A":{"a":1,"b":4},"B":{"a":4,"b":1},"C":{"a":2,"b":8},"D":{"a":8,"b":2}},"conditions":["nonSeqFull","nonSeqPartial","seqNoFeedback","seqFeedback"],"classroomPairings":[["A","B"],["C","D"]],"coinWeights":[0.2,0.5,0.8],"subjectId":"AGILQEFEPEK7N","assignmentId":"33L7PJKHCHKUCPJ5RL572IXX4AT8TE","hitId":"34KYK9TV2RUAD363EVFPUWVPB97SBP","url":"https://gershmanlab.com/experiments/alicia/teaching/experiment/?hitId=34KYK9TV2RUAD363EVFPUWVPB97SBP&workerId=AGILQEFEPEK7N&assignmentId=33L7PJKHCHKUCPJ5RL572IXX4AT8TE&a=HPL37&tp_a=HPL37&b=33L7PJKHCHKUCPJ5RL572IXX4AT8TE&tp_b=33L7PJKHCHKUCPJ5RL572IXX4AT8TE&c=365717&tp_c=365717"},{"rt":18620,"response":{"heads":"8","tails":"2"},"type":"response","condition":"nonSeqPartial","trueTheta":0.8,"classrooms":["C","D"],"studentTrueClassroom":"D","exampleSet":"first","trial_type":"survey-html-form","trial_index":22,"time_elapsed":1081243,"internal_node_id":"0.0-21.0-0.0","params":{"nStudents":24,"maxFlips":30,"completionMinutes":45,"basePay":8,"maxBonus":9,"perTrialBonus":0.5,"perTrialBonusThreshold":0.05,"exampleCost":0.01},"classroomParams":{"A":{"a":1,"b":4},"B":{"a":4,"b":1},"C":{"a":2,"b":8},"D":{"a":8,"b":2}},"conditions":["nonSeqFull","nonSeqPartial","seqNoFeedback","seqFeedback"],"classroomPairings":[["A","B"],["C","D"]],"coinWeights":[0.2,0.5,0.8],"subjectId":"AGILQEFEPEK7N","assignmentId":"33L7PJKHCHKUCPJ5RL572IXX4AT8TE","hitId":"34KYK9TV2RUAD363EVFPUWVPB97SBP","url":"https://gershmanlab.com/experiments/alicia/teaching/experiment/?hitId=34KYK9TV2RUAD363EVFPUWVPB97SBP&workerId=AGILQEFEPEK7N&assignmentId=33L7PJKHCHKUCPJ5RL572IXX4AT8TE&a=HPL37&tp_a=HPL37&b=33L7PJKHCHKUCPJ5RL572IXX4AT8TE&tp_b=33L7PJKHCHKUCPJ5RL572IXX4AT8TE&c=365717&tp_c=365717","heads":8,"tails":2,"studentIndex":2,"studentTrueHypers":{"a":8,"b":2},"studentGuess":0.8,"delta":0,"totalExamples":10,"bonus":0.4,"bonusSoFar":0.4},{"rt":null,"stimulus":"Sending examples to student... ","response":null,"trial_type":"html-keyboard-response","trial_index":23,"time_elapsed":1082745,"internal_node_id":"0.0-22.0","params":{"nStudents":24,"maxFlips":30,"completionMinutes":45,"basePay":8,"maxBonus":9,"perTrialBonus":0.5,"perTrialBonusThreshold":0.05,"exampleCost":0.01},"classroomParams":{"A":{"a":1,"b":4},"B":{"a":4,"b":1},"C":{"a":2,"b":8},"D":{"a":8,"b":2}},"conditions":["nonSeqFull","nonSeqPartial","seqNoFeedback","seqFeedback"],"classroomPairings":[["A","B"],["C","D"]],"coinWeights":[0.2,0.5,0.8],"subjectId":"AGILQEFEPEK7N","assignmentId":"33L7PJKHCHKUCPJ5RL572IXX4AT8TE","hitId":"34KYK9TV2RUAD363EVFPUWVPB97SBP","url":"https://gershmanlab.com/experiments/alicia/teaching/experiment/?hitId=34KYK9TV2RUAD363EVFPUWVPB97SBP&workerId=AGILQEFEPEK7N&assignmentId=33L7PJKHCHKUCPJ5RL572IXX4AT8TE&a=HPL37&tp_a=HPL37&b=33L7PJKHCHKUCPJ5RL572IXX4AT8TE&tp_b=33L7PJKHCHKUCPJ5RL572IXX4AT8TE&c=365717&tp_c=365717"},{"rt":null,"stimulus":"Examples sent to student! Waiting for student...","response":null,"trial_type":"html-keyboard-response","trial_index":24,"time_elapsed":1086757,"internal_node_id":"0.0-23.0","params":{"nStudents":24,"maxFlips":30,"completionMinutes":45,"basePay":8,"maxBonus":9,"perTrialBonus":0.5,"perTrialBonusThreshold":0.05,"exampleCost":0.01},"classroomParams":{"A":{"a":1,"b":4},"B":{"a":4,"b":1},"C":{"a":2,"b":8},"D":{"a":8,"b":2}},"conditions":["nonSeqFull","nonSeqPartial","seqNoFeedback","seqFeedback"],"classroomPairings":[["A","B"],["C","D"]],"coinWeights":[0.2,0.5,0.8],"subjectId":"AGILQEFEPEK7N","assignmentId":"33L7PJKHCHKUCPJ5RL572IXX4AT8TE","hitId":"34KYK9TV2RUAD363EVFPUWVPB97SBP","url":"https://gershmanlab.com/experiments/alicia/teaching/experiment/?hitId=34KYK9TV2RUAD363EVFPUWVPB97SBP&workerId=AGILQEFEPEK7N&assignmentId=33L7PJKHCHKUCPJ5RL572IXX4AT8TE&a=HPL37&tp_a=HPL37&b=33L7PJKHCHKUCPJ5RL572IXX4AT8TE&tp_b=33L7PJKHCHKUCPJ5RL572IXX4AT8TE&c=365717&tp_c=365717"},{"rt":8193,"stimulus":"\n                <p>Student's guess for coin weight: <b style=\"color:Tomato;\">0.80</b></p>\n                <p>You received a bonus of <b>$0.4</b>. Total bonus so far: <b>$0.40</b></b></p>\n                <p></p>\n                <p>Press any key to continue.</p>\n                ","response":" ","trial_type":"html-keyboard-response","trial_index":25,"time_elapsed":1094951,"internal_node_id":"0.0-24.0","params":{"nStudents":24,"maxFlips":30,"completionMinutes":45,"basePay":8,"maxBonus":9,"perTrialBonus":0.5,"perTrialBonusThreshold":0.05,"exampleCost":0.01},"classroomParams":{"A":{"a":1,"b":4},"B":{"a":4,"b":1},"C":{"a":2,"b":8},"D":{"a":8,"b":2}},"conditions":["nonSeqFull","nonSeqPartial","seqNoFeedback","seqFeedback"],"classroomPairings":[["A","B"],["C","D"]],"coinWeights":[0.2,0.5,0.8],"subjectId":"AGILQEFEPEK7N","assignmentId":"33L7PJKHCHKUCPJ5RL572IXX4AT8TE","hitId":"34KYK9TV2RUAD363EVFPUWVPB97SBP","url":"https://gershmanlab.com/experiments/alicia/teaching/experiment/?hitId=34KYK9TV2RUAD363EVFPUWVPB97SBP&workerId=AGILQEFEPEK7N&assignmentId=33L7PJKHCHKUCPJ5RL572IXX4AT8TE&a=HPL37&tp_a=HPL37&b=33L7PJKHCHKUCPJ5RL572IXX4AT8TE&tp_b=33L7PJKHCHKUCPJ5RL572IXX4AT8TE&c=365717&tp_c=365717"},{"rt":null,"stimulus":"<div style=\"font-size:60px;\">Next student</div>","response":null,"trial_type":"html-keyboard-response","trial_index":26,"time_elapsed":1096957,"internal_node_id":"0.0-25.0-0.0","params":{"nStudents":24,"maxFlips":30,"completionMinutes":45,"basePay":8,"maxBonus":9,"perTrialBonus":0.5,"perTrialBonusThreshold":0.05,"exampleCost":0.01},"classroomParams":{"A":{"a":1,"b":4},"B":{"a":4,"b":1},"C":{"a":2,"b":8},"D":{"a":8,"b":2}},"conditions":["nonSeqFull","nonSeqPartial","seqNoFeedback","seqFeedback"],"classroomPairings":[["A","B"],["C","D"]],"coinWeights":[0.2,0.5,0.8],"subjectId":"AGILQEFEPEK7N","assignmentId":"33L7PJKHCHKUCPJ5RL572IXX4AT8TE","hitId":"34KYK9TV2RUAD363EVFPUWVPB97SBP","url":"https://gershmanlab.com/experiments/alicia/teaching/experiment/?hitId=34KYK9TV2RUAD363EVFPUWVPB97SBP&workerId=AGILQEFEPEK7N&assignmentId=33L7PJKHCHKUCPJ5RL572IXX4AT8TE&a=HPL37&tp_a=HPL37&b=33L7PJKHCHKUCPJ5RL572IXX4AT8TE&tp_b=33L7PJKHCHKUCPJ5RL572IXX4AT8TE&c=365717&tp_c=365717"},{"rt":14133,"stimulus":"\n            <h4 style=\"color:Orange;\">Student 4</h4>\n            <h2>The weight of your coin is <b style=\"color:Tomato;\">0.2</b>.</h2>\n            <p>In this block, you will be giving <b>one</b> set of examples to Student 4.</p>\n                <p>You will receive feedback at the end of the block.</p>\n            <p></p>","response":0,"trial_type":"html-button-response","trial_index":27,"time_elapsed":1111093,"internal_node_id":"0.0-26.0","params":{"nStudents":24,"maxFlips":30,"completionMinutes":45,"basePay":8,"maxBonus":9,"perTrialBonus":0.5,"perTrialBonusThreshold":0.05,"exampleCost":0.01},"classroomParams":{"A":{"a":1,"b":4},"B":{"a":4,"b":1},"C":{"a":2,"b":8},"D":{"a":8,"b":2}},"conditions":["nonSeqFull","nonSeqPartial","seqNoFeedback","seqFeedback"],"classroomPairings":[["A","B"],["C","D"]],"coinWeights":[0.2,0.5,0.8],"subjectId":"AGILQEFEPEK7N","assignmentId":"33L7PJKHCHKUCPJ5RL572IXX4AT8TE","hitId":"34KYK9TV2RUAD363EVFPUWVPB97SBP","url":"https://gershmanlab.com/experiments/alicia/teaching/experiment/?hitId=34KYK9TV2RUAD363EVFPUWVPB97SBP&workerId=AGILQEFEPEK7N&assignmentId=33L7PJKHCHKUCPJ5RL572IXX4AT8TE&a=HPL37&tp_a=HPL37&b=33L7PJKHCHKUCPJ5RL572IXX4AT8TE&tp_b=33L7PJKHCHKUCPJ5RL572IXX4AT8TE&c=365717&tp_c=365717"},{"rt":11136,"response":{"heads":"2","tails":"8"},"type":"response","condition":"nonSeqFull","trueTheta":0.2,"classrooms":["A","B"],"studentTrueClassroom":"B","exampleSet":"first","trial_type":"survey-html-form","trial_index":28,"time_elapsed":1122231,"internal_node_id":"0.0-27.0-0.0","params":{"nStudents":24,"maxFlips":30,"completionMinutes":45,"basePay":8,"maxBonus":9,"perTrialBonus":0.5,"perTrialBonusThreshold":0.05,"exampleCost":0.01},"classroomParams":{"A":{"a":1,"b":4},"B":{"a":4,"b":1},"C":{"a":2,"b":8},"D":{"a":8,"b":2}},"conditions":["nonSeqFull","nonSeqPartial","seqNoFeedback","seqFeedback"],"classroomPairings":[["A","B"],["C","D"]],"coinWeights":[0.2,0.5,0.8],"subjectId":"AGILQEFEPEK7N","assignmentId":"33L7PJKHCHKUCPJ5RL572IXX4AT8TE","hitId":"34KYK9TV2RUAD363EVFPUWVPB97SBP","url":"https://gershmanlab.com/experiments/alicia/teaching/experiment/?hitId=34KYK9TV2RUAD363EVFPUWVPB97SBP&workerId=AGILQEFEPEK7N&assignmentId=33L7PJKHCHKUCPJ5RL572IXX4AT8TE&a=HPL37&tp_a=HPL37&b=33L7PJKHCHKUCPJ5RL572IXX4AT8TE&tp_b=33L7PJKHCHKUCPJ5RL572IXX4AT8TE&c=365717&tp_c=365717","heads":2,"tails":8,"studentIndex":3,"studentTrueHypers":{"a":4,"b":1},"studentGuess":0.4,"delta":0.2,"totalExamples":10,"bonus":0,"bonusSoFar":0.4},{"rt":null,"stimulus":"Sending examples to student... ","response":null,"trial_type":"html-keyboard-response","trial_index":29,"time_elapsed":1123991,"internal_node_id":"0.0-28.0","params":{"nStudents":24,"maxFlips":30,"completionMinutes":45,"basePay":8,"maxBonus":9,"perTrialBonus":0.5,"perTrialBonusThreshold":0.05,"exampleCost":0.01},"classroomParams":{"A":{"a":1,"b":4},"B":{"a":4,"b":1},"C":{"a":2,"b":8},"D":{"a":8,"b":2}},"conditions":["nonSeqFull","nonSeqPartial","seqNoFeedback","seqFeedback"],"classroomPairings":[["A","B"],["C","D"]],"coinWeights":[0.2,0.5,0.8],"subjectId":"AGILQEFEPEK7N","assignmentId":"33L7PJKHCHKUCPJ5RL572IXX4AT8TE","hitId":"34KYK9TV2RUAD363EVFPUWVPB97SBP","url":"https://gershmanlab.com/experiments/alicia/teaching/experiment/?hitId=34KYK9TV2RUAD363EVFPUWVPB97SBP&workerId=AGILQEFEPEK7N&assignmentId=33L7PJKHCHKUCPJ5RL572IXX4AT8TE&a=HPL37&tp_a=HPL37&b=33L7PJKHCHKUCPJ5RL572IXX4AT8TE&tp_b=33L7PJKHCHKUCPJ5RL572IXX4AT8TE&c=365717&tp_c=365717"},{"rt":null,"stimulus":"Examples sent to student! Waiting for student...","response":null,"trial_type":"html-keyboard-response","trial_index":30,"time_elapsed":1129504,"internal_node_id":"0.0-29.0","params":{"nStudents":24,"maxFlips":30,"completionMinutes":45,"basePay":8,"maxBonus":9,"perTrialBonus":0.5,"perTrialBonusThreshold":0.05,"exampleCost":0.01},"classroomParams":{"A":{"a":1,"b":4},"B":{"a":4,"b":1},"C":{"a":2,"b":8},"D":{"a":8,"b":2}},"conditions":["nonSeqFull","nonSeqPartial","seqNoFeedback","seqFeedback"],"classroomPairings":[["A","B"],["C","D"]],"coinWeights":[0.2,0.5,0.8],"subjectId":"AGILQEFEPEK7N","assignmentId":"33L7PJKHCHKUCPJ5RL572IXX4AT8TE","hitId":"34KYK9TV2RUAD363EVFPUWVPB97SBP","url":"https://gershmanlab.com/experiments/alicia/teaching/experiment/?hitId=34KYK9TV2RUAD363EVFPUWVPB97SBP&workerId=AGILQEFEPEK7N&assignmentId=33L7PJKHCHKUCPJ5RL572IXX4AT8TE&a=HPL37&tp_a=HPL37&b=33L7PJKHCHKUCPJ5RL572IXX4AT8TE&tp_b=33L7PJKHCHKUCPJ5RL572IXX4AT8TE&c=365717&tp_c=365717"},{"rt":3619,"stimulus":"\n                <p>Student's guess for coin weight: <b style=\"color:Tomato;\">0.40</b></p>\n                <p>You received a bonus of <b>$0</b>. Total bonus so far: <b>$0.40</b></b></p>\n                <p></p>\n                <p>Press any key to continue.</p>\n                ","response":" ","trial_type":"html-keyboard-response","trial_index":31,"time_elapsed":1133124,"internal_node_id":"0.0-30.0","params":{"nStudents":24,"maxFlips":30,"completionMinutes":45,"basePay":8,"maxBonus":9,"perTrialBonus":0.5,"perTrialBonusThreshold":0.05,"exampleCost":0.01},"classroomParams":{"A":{"a":1,"b":4},"B":{"a":4,"b":1},"C":{"a":2,"b":8},"D":{"a":8,"b":2}},"conditions":["nonSeqFull","nonSeqPartial","seqNoFeedback","seqFeedback"],"classroomPairings":[["A","B"],["C","D"]],"coinWeights":[0.2,0.5,0.8],"subjectId":"AGILQEFEPEK7N","assignmentId":"33L7PJKHCHKUCPJ5RL572IXX4AT8TE","hitId":"34KYK9TV2RUAD363EVFPUWVPB97SBP","url":"https://gershmanlab.com/experiments/alicia/teaching/experiment/?hitId=34KYK9TV2RUAD363EVFPUWVPB97SBP&workerId=AGILQEFEPEK7N&assignmentId=33L7PJKHCHKUCPJ5RL572IXX4AT8TE&a=HPL37&tp_a=HPL37&b=33L7PJKHCHKUCPJ5RL572IXX4AT8TE&tp_b=33L7PJKHCHKUCPJ5RL572IXX4AT8TE&c=365717&tp_c=365717"},{"rt":null,"stimulus":"<div style=\"font-size:60px;\">Next student</div>","response":null,"trial_type":"html-keyboard-response","trial_index":32,"time_elapsed":1135639,"internal_node_id":"0.0-31.0-0.0","params":{"nStudents":24,"maxFlips":30,"completionMinutes":45,"basePay":8,"maxBonus":9,"perTrialBonus":0.5,"perTrialBonusThreshold":0.05,"exampleCost":0.01},"classroomParams":{"A":{"a":1,"b":4},"B":{"a":4,"b":1},"C":{"a":2,"b":8},"D":{"a":8,"b":2}},"conditions":["nonSeqFull","nonSeqPartial","seqNoFeedback","seqFeedback"],"classroomPairings":[["A","B"],["C","D"]],"coinWeights":[0.2,0.5,0.8],"subjectId":"AGILQEFEPEK7N","assignmentId":"33L7PJKHCHKUCPJ5RL572IXX4AT8TE","hitId":"34KYK9TV2RUAD363EVFPUWVPB97SBP","url":"https://gershmanlab.com/experiments/alicia/teaching/experiment/?hitId=34KYK9TV2RUAD363EVFPUWVPB97SBP&workerId=AGILQEFEPEK7N&assignmentId=33L7PJKHCHKUCPJ5RL572IXX4AT8TE&a=HPL37&tp_a=HPL37&b=33L7PJKHCHKUCPJ5RL572IXX4AT8TE&tp_b=33L7PJKHCHKUCPJ5RL572IXX4AT8TE&c=365717&tp_c=365717"},{"rt":2543,"stimulus":"\n            <h4 style=\"color:Orange;\">Student 5</h4>\n            <h2>The weight of your coin is <b style=\"color:Tomato;\">0.5</b>.</h2>\n            <p>In this block, you will be giving <b>one</b> set of examples to Student 5.</p>\n                <p>You will receive feedback at the end of the block.</p>\n            <p></p>","response":0,"trial_type":"html-button-response","trial_index":33,"time_elapsed":1138184,"internal_node_id":"0.0-32.0","params":{"nStudents":24,"maxFlips":30,"completionMinutes":45,"basePay":8,"maxBonus":9,"perTrialBonus":0.5,"perTrialBonusThreshold":0.05,"exampleCost":0.01},"classroomParams":{"A":{"a":1,"b":4},"B":{"a":4,"b":1},"C":{"a":2,"b":8},"D":{"a":8,"b":2}},"conditions":["nonSeqFull","nonSeqPartial","seqNoFeedback","seqFeedback"],"classroomPairings":[["A","B"],["C","D"]],"coinWeights":[0.2,0.5,0.8],"subjectId":"AGILQEFEPEK7N","assignmentId":"33L7PJKHCHKUCPJ5RL572IXX4AT8TE","hitId":"34KYK9TV2RUAD363EVFPUWVPB97SBP","url":"https://gershmanlab.com/experiments/alicia/teaching/experiment/?hitId=34KYK9TV2RUAD363EVFPUWVPB97SBP&workerId=AGILQEFEPEK7N&assignmentId=33L7PJKHCHKUCPJ5RL572IXX4AT8TE&a=HPL37&tp_a=HPL37&b=33L7PJKHCHKUCPJ5RL572IXX4AT8TE&tp_b=33L7PJKHCHKUCPJ5RL572IXX4AT8TE&c=365717&tp_c=365717"},{"rt":17482,"response":{"heads":"4","tails":"1"},"type":"response","condition":"nonSeqFull","trueTheta":0.5,"classrooms":["A","B"],"studentTrueClassroom":"A","exampleSet":"first","trial_type":"survey-html-form","trial_index":34,"time_elapsed":1155667,"internal_node_id":"0.0-33.0-0.0","params":{"nStudents":24,"maxFlips":30,"completionMinutes":45,"basePay":8,"maxBonus":9,"perTrialBonus":0.5,"perTrialBonusThreshold":0.05,"exampleCost":0.01},"classroomParams":{"A":{"a":1,"b":4},"B":{"a":4,"b":1},"C":{"a":2,"b":8},"D":{"a":8,"b":2}},"conditions":["nonSeqFull","nonSeqPartial","seqNoFeedback","seqFeedback"],"classroomPairings":[["A","B"],["C","D"]],"coinWeights":[0.2,0.5,0.8],"subjectId":"AGILQEFEPEK7N","assignmentId":"33L7PJKHCHKUCPJ5RL572IXX4AT8TE","hitId":"34KYK9TV2RUAD363EVFPUWVPB97SBP","url":"https://gershmanlab.com/experiments/alicia/teaching/experiment/?hitId=34KYK9TV2RUAD363EVFPUWVPB97SBP&workerId=AGILQEFEPEK7N&assignmentId=33L7PJKHCHKUCPJ5RL572IXX4AT8TE&a=HPL37&tp_a=HPL37&b=33L7PJKHCHKUCPJ5RL572IXX4AT8TE&tp_b=33L7PJKHCHKUCPJ5RL572IXX4AT8TE&c=365717&tp_c=365717","heads":4,"tails":1,"studentIndex":4,"studentTrueHypers":{"a":1,"b":4},"studentGuess":0.5,"delta":0,"totalExamples":5,"bonus":0.45,"bonusSoFar":0.85},{"rt":null,"stimulus":"Sending examples to student... ","response":null,"trial_type":"html-keyboard-response","trial_index":35,"time_elapsed":1156928,"internal_node_id":"0.0-34.0","params":{"nStudents":24,"maxFlips":30,"completionMinutes":45,"basePay":8,"maxBonus":9,"perTrialBonus":0.5,"perTrialBonusThreshold":0.05,"exampleCost":0.01},"classroomParams":{"A":{"a":1,"b":4},"B":{"a":4,"b":1},"C":{"a":2,"b":8},"D":{"a":8,"b":2}},"conditions":["nonSeqFull","nonSeqPartial","seqNoFeedback","seqFeedback"],"classroomPairings":[["A","B"],["C","D"]],"coinWeights":[0.2,0.5,0.8],"subjectId":"AGILQEFEPEK7N","assignmentId":"33L7PJKHCHKUCPJ5RL572IXX4AT8TE","hitId":"34KYK9TV2RUAD363EVFPUWVPB97SBP","url":"https://gershmanlab.com/experiments/alicia/teaching/experiment/?hitId=34KYK9TV2RUAD363EVFPUWVPB97SBP&workerId=AGILQEFEPEK7N&assignmentId=33L7PJKHCHKUCPJ5RL572IXX4AT8TE&a=HPL37&tp_a=HPL37&b=33L7PJKHCHKUCPJ5RL572IXX4AT8TE&tp_b=33L7PJKHCHKUCPJ5RL572IXX4AT8TE&c=365717&tp_c=365717"},{"rt":null,"stimulus":"Examples sent to student! Waiting for student...","response":null,"trial_type":"html-keyboard-response","trial_index":36,"time_elapsed":1161937,"internal_node_id":"0.0-35.0","params":{"nStudents":24,"maxFlips":30,"completionMinutes":45,"basePay":8,"maxBonus":9,"perTrialBonus":0.5,"perTrialBonusThreshold":0.05,"exampleCost":0.01},"classroomParams":{"A":{"a":1,"b":4},"B":{"a":4,"b":1},"C":{"a":2,"b":8},"D":{"a":8,"b":2}},"conditions":["nonSeqFull","nonSeqPartial","seqNoFeedback","seqFeedback"],"classroomPairings":[["A","B"],["C","D"]],"coinWeights":[0.2,0.5,0.8],"subjectId":"AGILQEFEPEK7N","assignmentId":"33L7PJKHCHKUCPJ5RL572IXX4AT8TE","hitId":"34KYK9TV2RUAD363EVFPUWVPB97SBP","url":"https://gershmanlab.com/experiments/alicia/teaching/experiment/?hitId=34KYK9TV2RUAD363EVFPUWVPB97SBP&workerId=AGILQEFEPEK7N&assignmentId=33L7PJKHCHKUCPJ5RL572IXX4AT8TE&a=HPL37&tp_a=HPL37&b=33L7PJKHCHKUCPJ5RL572IXX4AT8TE&tp_b=33L7PJKHCHKUCPJ5RL572IXX4AT8TE&c=365717&tp_c=365717"},{"rt":3625,"stimulus":"\n                <p>Student's guess for coin weight: <b style=\"color:Tomato;\">0.50</b></p>\n                <p>You received a bonus of <b>$0.45</b>. Total bonus so far: <b>$0.85</b></b></p>\n                <p></p>\n                <p>Press any key to continue.</p>\n                ","response":" ","trial_type":"html-keyboard-response","trial_index":37,"time_elapsed":1165564,"internal_node_id":"0.0-36.0","params":{"nStudents":24,"maxFlips":30,"completionMinutes":45,"basePay":8,"maxBonus":9,"perTrialBonus":0.5,"perTrialBonusThreshold":0.05,"exampleCost":0.01},"classroomParams":{"A":{"a":1,"b":4},"B":{"a":4,"b":1},"C":{"a":2,"b":8},"D":{"a":8,"b":2}},"conditions":["nonSeqFull","nonSeqPartial","seqNoFeedback","seqFeedback"],"classroomPairings":[["A","B"],["C","D"]],"coinWeights":[0.2,0.5,0.8],"subjectId":"AGILQEFEPEK7N","assignmentId":"33L7PJKHCHKUCPJ5RL572IXX4AT8TE","hitId":"34KYK9TV2RUAD363EVFPUWVPB97SBP","url":"https://gershmanlab.com/experiments/alicia/teaching/experiment/?hitId=34KYK9TV2RUAD363EVFPUWVPB97SBP&workerId=AGILQEFEPEK7N&assignmentId=33L7PJKHCHKUCPJ5RL572IXX4AT8TE&a=HPL37&tp_a=HPL37&b=33L7PJKHCHKUCPJ5RL572IXX4AT8TE&tp_b=33L7PJKHCHKUCPJ5RL572IXX4AT8TE&c=365717&tp_c=365717"},{"rt":null,"stimulus":"<div style=\"font-size:60px;\">Next student</div>","response":null,"trial_type":"html-keyboard-response","trial_index":38,"time_elapsed":1167831,"internal_node_id":"0.0-37.0-0.0","params":{"nStudents":24,"maxFlips":30,"completionMinutes":45,"basePay":8,"maxBonus":9,"perTrialBonus":0.5,"perTrialBonusThreshold":0.05,"exampleCost":0.01},"classroomParams":{"A":{"a":1,"b":4},"B":{"a":4,"b":1},"C":{"a":2,"b":8},"D":{"a":8,"b":2}},"conditions":["nonSeqFull","nonSeqPartial","seqNoFeedback","seqFeedback"],"classroomPairings":[["A","B"],["C","D"]],"coinWeights":[0.2,0.5,0.8],"subjectId":"AGILQEFEPEK7N","assignmentId":"33L7PJKHCHKUCPJ5RL572IXX4AT8TE","hitId":"34KYK9TV2RUAD363EVFPUWVPB97SBP","url":"https://gershmanlab.com/experiments/alicia/teaching/experiment/?hitId=34KYK9TV2RUAD363EVFPUWVPB97SBP&workerId=AGILQEFEPEK7N&assignmentId=33L7PJKHCHKUCPJ5RL572IXX4AT8TE&a=HPL37&tp_a=HPL37&b=33L7PJKHCHKUCPJ5RL572IXX4AT8TE&tp_b=33L7PJKHCHKUCPJ5RL572IXX4AT8TE&c=365717&tp_c=365717"},{"rt":1724,"stimulus":"\n            <h4 style=\"color:Orange;\">Student 6</h4>\n            <h2>The weight of your coin is <b style=\"color:Tomato;\">0.8</b>.</h2>\n            <p>In this block, you will be giving <b>one</b> set of examples to Student 6.</p>\n                <p>You will receive feedback at the end of the block.</p>\n            <p></p>","response":0,"trial_type":"html-button-response","trial_index":39,"time_elapsed":1169556,"internal_node_id":"0.0-38.0","params":{"nStudents":24,"maxFlips":30,"completionMinutes":45,"basePay":8,"maxBonus":9,"perTrialBonus":0.5,"perTrialBonusThreshold":0.05,"exampleCost":0.01},"classroomParams":{"A":{"a":1,"b":4},"B":{"a":4,"b":1},"C":{"a":2,"b":8},"D":{"a":8,"b":2}},"conditions":["nonSeqFull","nonSeqPartial","seqNoFeedback","seqFeedback"],"classroomPairings":[["A","B"],["C","D"]],"coinWeights":[0.2,0.5,0.8],"subjectId":"AGILQEFEPEK7N","assignmentId":"33L7PJKHCHKUCPJ5RL572IXX4AT8TE","hitId":"34KYK9TV2RUAD363EVFPUWVPB97SBP","url":"https://gershmanlab.com/experiments/alicia/teaching/experiment/?hitId=34KYK9TV2RUAD363EVFPUWVPB97SBP&workerId=AGILQEFEPEK7N&assignmentId=33L7PJKHCHKUCPJ5RL572IXX4AT8TE&a=HPL37&tp_a=HPL37&b=33L7PJKHCHKUCPJ5RL572IXX4AT8TE&tp_b=33L7PJKHCHKUCPJ5RL572IXX4AT8TE&c=365717&tp_c=365717"},{"rt":16837,"response":{"heads":"2","tails":"1"},"type":"response","condition":"nonSeqFull","trueTheta":0.8,"classrooms":["A","B"],"studentTrueClassroom":"B","exampleSet":"first","trial_type":"survey-html-form","trial_index":40,"time_elapsed":1186394,"internal_node_id":"0.0-39.0-0.0","params":{"nStudents":24,"maxFlips":30,"completionMinutes":45,"basePay":8,"maxBonus":9,"perTrialBonus":0.5,"perTrialBonusThreshold":0.05,"exampleCost":0.01},"classroomParams":{"A":{"a":1,"b":4},"B":{"a":4,"b":1},"C":{"a":2,"b":8},"D":{"a":8,"b":2}},"conditions":["nonSeqFull","nonSeqPartial","seqNoFeedback","seqFeedback"],"classroomPairings":[["A","B"],["C","D"]],"coinWeights":[0.2,0.5,0.8],"subjectId":"AGILQEFEPEK7N","assignmentId":"33L7PJKHCHKUCPJ5RL572IXX4AT8TE","hitId":"34KYK9TV2RUAD363EVFPUWVPB97SBP","url":"https://gershmanlab.com/experiments/alicia/teaching/experiment/?hitId=34KYK9TV2RUAD363EVFPUWVPB97SBP&workerId=AGILQEFEPEK7N&assignmentId=33L7PJKHCHKUCPJ5RL572IXX4AT8TE&a=HPL37&tp_a=HPL37&b=33L7PJKHCHKUCPJ5RL572IXX4AT8TE&tp_b=33L7PJKHCHKUCPJ5RL572IXX4AT8TE&c=365717&tp_c=365717","heads":2,"tails":1,"studentIndex":5,"studentTrueHypers":{"a":4,"b":1},"studentGuess":0.75,"delta":0.050000000000000044,"totalExamples":3,"bonus":0,"bonusSoFar":0.85},{"rt":null,"stimulus":"Sending examples to student... ","response":null,"trial_type":"html-keyboard-response","trial_index":41,"time_elapsed":1187649,"internal_node_id":"0.0-40.0","params":{"nStudents":24,"maxFlips":30,"completionMinutes":45,"basePay":8,"maxBonus":9,"perTrialBonus":0.5,"perTrialBonusThreshold":0.05,"exampleCost":0.01},"classroomParams":{"A":{"a":1,"b":4},"B":{"a":4,"b":1},"C":{"a":2,"b":8},"D":{"a":8,"b":2}},"conditions":["nonSeqFull","nonSeqPartial","seqNoFeedback","seqFeedback"],"classroomPairings":[["A","B"],["C","D"]],"coinWeights":[0.2,0.5,0.8],"subjectId":"AGILQEFEPEK7N","assignmentId":"33L7PJKHCHKUCPJ5RL572IXX4AT8TE","hitId":"34KYK9TV2RUAD363EVFPUWVPB97SBP","url":"https://gershmanlab.com/experiments/alicia/teaching/experiment/?hitId=34KYK9TV2RUAD363EVFPUWVPB97SBP&workerId=AGILQEFEPEK7N&assignmentId=33L7PJKHCHKUCPJ5RL572IXX4AT8TE&a=HPL37&tp_a=HPL37&b=33L7PJKHCHKUCPJ5RL572IXX4AT8TE&tp_b=33L7PJKHCHKUCPJ5RL572IXX4AT8TE&c=365717&tp_c=365717"},{"rt":null,"stimulus":"Examples sent to student! Waiting for student...","response":null,"trial_type":"html-keyboard-response","trial_index":42,"time_elapsed":1193164,"internal_node_id":"0.0-41.0","params":{"nStudents":24,"maxFlips":30,"completionMinutes":45,"basePay":8,"maxBonus":9,"perTrialBonus":0.5,"perTrialBonusThreshold":0.05,"exampleCost":0.01},"classroomParams":{"A":{"a":1,"b":4},"B":{"a":4,"b":1},"C":{"a":2,"b":8},"D":{"a":8,"b":2}},"conditions":["nonSeqFull","nonSeqPartial","seqNoFeedback","seqFeedback"],"classroomPairings":[["A","B"],["C","D"]],"coinWeights":[0.2,0.5,0.8],"subjectId":"AGILQEFEPEK7N","assignmentId":"33L7PJKHCHKUCPJ5RL572IXX4AT8TE","hitId":"34KYK9TV2RUAD363EVFPUWVPB97SBP","url":"https://gershmanlab.com/experiments/alicia/teaching/experiment/?hitId=34KYK9TV2RUAD363EVFPUWVPB97SBP&workerId=AGILQEFEPEK7N&assignmentId=33L7PJKHCHKUCPJ5RL572IXX4AT8TE&a=HPL37&tp_a=HPL37&b=33L7PJKHCHKUCPJ5RL572IXX4AT8TE&tp_b=33L7PJKHCHKUCPJ5RL572IXX4AT8TE&c=365717&tp_c=365717"},{"rt":2221,"stimulus":"\n                <p>Student's guess for coin weight: <b style=\"color:Tomato;\">0.75</b></p>\n                <p>You received a bonus of <b>$0</b>. Total bonus so far: <b>$0.85</b></b></p>\n                <p></p>\n                <p>Press any key to continue.</p>\n                ","response":" ","trial_type":"html-keyboard-response","trial_index":43,"time_elapsed":1195386,"internal_node_id":"0.0-42.0","params":{"nStudents":24,"maxFlips":30,"completionMinutes":45,"basePay":8,"maxBonus":9,"perTrialBonus":0.5,"perTrialBonusThreshold":0.05,"exampleCost":0.01},"classroomParams":{"A":{"a":1,"b":4},"B":{"a":4,"b":1},"C":{"a":2,"b":8},"D":{"a":8,"b":2}},"conditions":["nonSeqFull","nonSeqPartial","seqNoFeedback","seqFeedback"],"classroomPairings":[["A","B"],["C","D"]],"coinWeights":[0.2,0.5,0.8],"subjectId":"AGILQEFEPEK7N","assignmentId":"33L7PJKHCHKUCPJ5RL572IXX4AT8TE","hitId":"34KYK9TV2RUAD363EVFPUWVPB97SBP","url":"https://gershmanlab.com/experiments/alicia/teaching/experiment/?hitId=34KYK9TV2RUAD363EVFPUWVPB97SBP&workerId=AGILQEFEPEK7N&assignmentId=33L7PJKHCHKUCPJ5RL572IXX4AT8TE&a=HPL37&tp_a=HPL37&b=33L7PJKHCHKUCPJ5RL572IXX4AT8TE&tp_b=33L7PJKHCHKUCPJ5RL572IXX4AT8TE&c=365717&tp_c=365717"},{"rt":null,"stimulus":"<div style=\"font-size:60px;\">Next student</div>","response":null,"trial_type":"html-keyboard-response","trial_index":44,"time_elapsed":1197388,"internal_node_id":"0.0-43.0-0.0","params":{"nStudents":24,"maxFlips":30,"completionMinutes":45,"basePay":8,"maxBonus":9,"perTrialBonus":0.5,"perTrialBonusThreshold":0.05,"exampleCost":0.01},"classroomParams":{"A":{"a":1,"b":4},"B":{"a":4,"b":1},"C":{"a":2,"b":8},"D":{"a":8,"b":2}},"conditions":["nonSeqFull","nonSeqPartial","seqNoFeedback","seqFeedback"],"classroomPairings":[["A","B"],["C","D"]],"coinWeights":[0.2,0.5,0.8],"subjectId":"AGILQEFEPEK7N","assignmentId":"33L7PJKHCHKUCPJ5RL572IXX4AT8TE","hitId":"34KYK9TV2RUAD363EVFPUWVPB97SBP","url":"https://gershmanlab.com/experiments/alicia/teaching/experiment/?hitId=34KYK9TV2RUAD363EVFPUWVPB97SBP&workerId=AGILQEFEPEK7N&assignmentId=33L7PJKHCHKUCPJ5RL572IXX4AT8TE&a=HPL37&tp_a=HPL37&b=33L7PJKHCHKUCPJ5RL572IXX4AT8TE&tp_b=33L7PJKHCHKUCPJ5RL572IXX4AT8TE&c=365717&tp_c=365717"},{"rt":11018,"stimulus":"\n            <h4 style=\"color:Orange;\">Student 7</h4>\n            <h2>The weight of your coin is <b style=\"color:Tomato;\">0.5</b>.</h2>\n            <p>In this block, you will be giving <b>two</b> sets of examples to Student 7.</p>\n                <p>You will see the student's guess after the first set of examples. You will also receive feedback at the end of the block.</p>\n            <p>To earn the highest bonus, you will have to <b>take into consideration the student's guess</b> when you choose your second set of examples.</p>","response":0,"trial_type":"html-button-response","trial_index":45,"time_elapsed":1208408,"internal_node_id":"0.0-44.0","params":{"nStudents":24,"maxFlips":30,"completionMinutes":45,"basePay":8,"maxBonus":9,"perTrialBonus":0.5,"perTrialBonusThreshold":0.05,"exampleCost":0.01},"classroomParams":{"A":{"a":1,"b":4},"B":{"a":4,"b":1},"C":{"a":2,"b":8},"D":{"a":8,"b":2}},"conditions":["nonSeqFull","nonSeqPartial","seqNoFeedback","seqFeedback"],"classroomPairings":[["A","B"],["C","D"]],"coinWeights":[0.2,0.5,0.8],"subjectId":"AGILQEFEPEK7N","assignmentId":"33L7PJKHCHKUCPJ5RL572IXX4AT8TE","hitId":"34KYK9TV2RUAD363EVFPUWVPB97SBP","url":"https://gershmanlab.com/experiments/alicia/teaching/experiment/?hitId=34KYK9TV2RUAD363EVFPUWVPB97SBP&workerId=AGILQEFEPEK7N&assignmentId=33L7PJKHCHKUCPJ5RL572IXX4AT8TE&a=HPL37&tp_a=HPL37&b=33L7PJKHCHKUCPJ5RL572IXX4AT8TE&tp_b=33L7PJKHCHKUCPJ5RL572IXX4AT8TE&c=365717&tp_c=365717"},{"rt":25867,"response":{"heads":"3","tails":"3"},"type":"response","condition":"seqFeedback","trueTheta":0.5,"classrooms":["C","D"],"studentTrueClassroom":"C","exampleSet":"first","trial_type":"survey-html-form","trial_index":46,"time_elapsed":1234277,"internal_node_id":"0.0-45.0-0.0","params":{"nStudents":24,"maxFlips":30,"completionMinutes":45,"basePay":8,"maxBonus":9,"perTrialBonus":0.5,"perTrialBonusThreshold":0.05,"exampleCost":0.01},"classroomParams":{"A":{"a":1,"b":4},"B":{"a":4,"b":1},"C":{"a":2,"b":8},"D":{"a":8,"b":2}},"conditions":["nonSeqFull","nonSeqPartial","seqNoFeedback","seqFeedback"],"classroomPairings":[["A","B"],["C","D"]],"coinWeights":[0.2,0.5,0.8],"subjectId":"AGILQEFEPEK7N","assignmentId":"33L7PJKHCHKUCPJ5RL572IXX4AT8TE","hitId":"34KYK9TV2RUAD363EVFPUWVPB97SBP","url":"https://gershmanlab.com/experiments/alicia/teaching/experiment/?hitId=34KYK9TV2RUAD363EVFPUWVPB97SBP&workerId=AGILQEFEPEK7N&assignmentId=33L7PJKHCHKUCPJ5RL572IXX4AT8TE&a=HPL37&tp_a=HPL37&b=33L7PJKHCHKUCPJ5RL572IXX4AT8TE&tp_b=33L7PJKHCHKUCPJ5RL572IXX4AT8TE&c=365717&tp_c=365717","heads":3,"tails":3,"studentIndex":6,"studentTrueHypers":{"a":2,"b":8},"studentGuess":0.3125,"delta":0.1875,"totalExamples":6,"bonusSoFar":0.85},{"rt":null,"stimulus":"Sending examples to student... ","response":null,"trial_type":"html-keyboard-response","trial_index":47,"time_elapsed":1235784,"internal_node_id":"0.0-46.0","params":{"nStudents":24,"maxFlips":30,"completionMinutes":45,"basePay":8,"maxBonus":9,"perTrialBonus":0.5,"perTrialBonusThreshold":0.05,"exampleCost":0.01},"classroomParams":{"A":{"a":1,"b":4},"B":{"a":4,"b":1},"C":{"a":2,"b":8},"D":{"a":8,"b":2}},"conditions":["nonSeqFull","nonSeqPartial","seqNoFeedback","seqFeedback"],"classroomPairings":[["A","B"],["C","D"]],"coinWeights":[0.2,0.5,0.8],"subjectId":"AGILQEFEPEK7N","assignmentId":"33L7PJKHCHKUCPJ5RL572IXX4AT8TE","hitId":"34KYK9TV2RUAD363EVFPUWVPB97SBP","url":"https://gershmanlab.com/experiments/alicia/teaching/experiment/?hitId=34KYK9TV2RUAD363EVFPUWVPB97SBP&workerId=AGILQEFEPEK7N&assignmentId=33L7PJKHCHKUCPJ5RL572IXX4AT8TE&a=HPL37&tp_a=HPL37&b=33L7PJKHCHKUCPJ5RL572IXX4AT8TE&tp_b=33L7PJKHCHKUCPJ5RL572IXX4AT8TE&c=365717&tp_c=365717"},{"rt":null,"stimulus":"Examples sent to student! Waiting for student...","response":null,"trial_type":"html-keyboard-response","trial_index":48,"time_elapsed":1241292,"internal_node_id":"0.0-47.0","params":{"nStudents":24,"maxFlips":30,"completionMinutes":45,"basePay":8,"maxBonus":9,"perTrialBonus":0.5,"perTrialBonusThreshold":0.05,"exampleCost":0.01},"classroomParams":{"A":{"a":1,"b":4},"B":{"a":4,"b":1},"C":{"a":2,"b":8},"D":{"a":8,"b":2}},"conditions":["nonSeqFull","nonSeqPartial","seqNoFeedback","seqFeedback"],"classroomPairings":[["A","B"],["C","D"]],"coinWeights":[0.2,0.5,0.8],"subjectId":"AGILQEFEPEK7N","assignmentId":"33L7PJKHCHKUCPJ5RL572IXX4AT8TE","hitId":"34KYK9TV2RUAD363EVFPUWVPB97SBP","url":"https://gershmanlab.com/experiments/alicia/teaching/experiment/?hitId=34KYK9TV2RUAD363EVFPUWVPB97SBP&workerId=AGILQEFEPEK7N&assignmentId=33L7PJKHCHKUCPJ5RL572IXX4AT8TE&a=HPL37&tp_a=HPL37&b=33L7PJKHCHKUCPJ5RL572IXX4AT8TE&tp_b=33L7PJKHCHKUCPJ5RL572IXX4AT8TE&c=365717&tp_c=365717"},{"rt":8725,"stimulus":"\n                <p>Student's guess for coin weight: <b style=\"color:Tomato;\">0.31</b></p>\n                <p></b></p>\n                <p>You will now send another set of examples to your student. <b>Remember to take your student's guess into consideration so that you can earn the highest bonus possible!</b> </p>\n                <p>Press any key to continue.</p>\n                ","response":" ","trial_type":"html-keyboard-response","trial_index":49,"time_elapsed":1250020,"internal_node_id":"0.0-48.0","params":{"nStudents":24,"maxFlips":30,"completionMinutes":45,"basePay":8,"maxBonus":9,"perTrialBonus":0.5,"perTrialBonusThreshold":0.05,"exampleCost":0.01},"classroomParams":{"A":{"a":1,"b":4},"B":{"a":4,"b":1},"C":{"a":2,"b":8},"D":{"a":8,"b":2}},"conditions":["nonSeqFull","nonSeqPartial","seqNoFeedback","seqFeedback"],"classroomPairings":[["A","B"],["C","D"]],"coinWeights":[0.2,0.5,0.8],"subjectId":"AGILQEFEPEK7N","assignmentId":"33L7PJKHCHKUCPJ5RL572IXX4AT8TE","hitId":"34KYK9TV2RUAD363EVFPUWVPB97SBP","url":"https://gershmanlab.com/experiments/alicia/teaching/experiment/?hitId=34KYK9TV2RUAD363EVFPUWVPB97SBP&workerId=AGILQEFEPEK7N&assignmentId=33L7PJKHCHKUCPJ5RL572IXX4AT8TE&a=HPL37&tp_a=HPL37&b=33L7PJKHCHKUCPJ5RL572IXX4AT8TE&tp_b=33L7PJKHCHKUCPJ5RL572IXX4AT8TE&c=365717&tp_c=365717"},{"rt":11509,"response":{"heads":"6","tails":"3"},"type":"response","condition":"seqFeedback","trueTheta":0.5,"classrooms":["C","D"],"studentTrueClassroom":"C","exampleSet":"second","trial_type":"survey-html-form","trial_index":50,"time_elapsed":1261530,"internal_node_id":"0.0-49.0-0.0","params":{"nStudents":24,"maxFlips":30,"completionMinutes":45,"basePay":8,"maxBonus":9,"perTrialBonus":0.5,"perTrialBonusThreshold":0.05,"exampleCost":0.01},"classroomParams":{"A":{"a":1,"b":4},"B":{"a":4,"b":1},"C":{"a":2,"b":8},"D":{"a":8,"b":2}},"conditions":["nonSeqFull","nonSeqPartial","seqNoFeedback","seqFeedback"],"classroomPairings":[["A","B"],["C","D"]],"coinWeights":[0.2,0.5,0.8],"subjectId":"AGILQEFEPEK7N","assignmentId":"33L7PJKHCHKUCPJ5RL572IXX4AT8TE","hitId":"34KYK9TV2RUAD363EVFPUWVPB97SBP","url":"https://gershmanlab.com/experiments/alicia/teaching/experiment/?hitId=34KYK9TV2RUAD363EVFPUWVPB97SBP&workerId=AGILQEFEPEK7N&assignmentId=33L7PJKHCHKUCPJ5RL572IXX4AT8TE&a=HPL37&tp_a=HPL37&b=33L7PJKHCHKUCPJ5RL572IXX4AT8TE&tp_b=33L7PJKHCHKUCPJ5RL572IXX4AT8TE&c=365717&tp_c=365717","firstResponseHeads":3,"firstResponseTails":3,"secondResponseHeads":6,"secondResponseTails":3,"totalHeads":9,"totalTails":6,"studentIndex":6,"studentTrueHypers":{"a":2,"b":8},"studentGuess":0.44,"delta":0.06,"bonus":0,"bonusSoFar":0.85,"totalExamples":15},{"rt":null,"stimulus":"Sending examples to student... ","response":null,"trial_type":"html-keyboard-response","trial_index":51,"time_elapsed":1263283,"internal_node_id":"0.0-50.0","params":{"nStudents":24,"maxFlips":30,"completionMinutes":45,"basePay":8,"maxBonus":9,"perTrialBonus":0.5,"perTrialBonusThreshold":0.05,"exampleCost":0.01},"classroomParams":{"A":{"a":1,"b":4},"B":{"a":4,"b":1},"C":{"a":2,"b":8},"D":{"a":8,"b":2}},"conditions":["nonSeqFull","nonSeqPartial","seqNoFeedback","seqFeedback"],"classroomPairings":[["A","B"],["C","D"]],"coinWeights":[0.2,0.5,0.8],"subjectId":"AGILQEFEPEK7N","assignmentId":"33L7PJKHCHKUCPJ5RL572IXX4AT8TE","hitId":"34KYK9TV2RUAD363EVFPUWVPB97SBP","url":"https://gershmanlab.com/experiments/alicia/teaching/experiment/?hitId=34KYK9TV2RUAD363EVFPUWVPB97SBP&workerId=AGILQEFEPEK7N&assignmentId=33L7PJKHCHKUCPJ5RL572IXX4AT8TE&a=HPL37&tp_a=HPL37&b=33L7PJKHCHKUCPJ5RL572IXX4AT8TE&tp_b=33L7PJKHCHKUCPJ5RL572IXX4AT8TE&c=365717&tp_c=365717"},{"rt":null,"stimulus":"Examples sent to student! Waiting for student...","response":null,"trial_type":"html-keyboard-response","trial_index":52,"time_elapsed":1269293,"internal_node_id":"0.0-51.0","params":{"nStudents":24,"maxFlips":30,"completionMinutes":45,"basePay":8,"maxBonus":9,"perTrialBonus":0.5,"perTrialBonusThreshold":0.05,"exampleCost":0.01},"classroomParams":{"A":{"a":1,"b":4},"B":{"a":4,"b":1},"C":{"a":2,"b":8},"D":{"a":8,"b":2}},"conditions":["nonSeqFull","nonSeqPartial","seqNoFeedback","seqFeedback"],"classroomPairings":[["A","B"],["C","D"]],"coinWeights":[0.2,0.5,0.8],"subjectId":"AGILQEFEPEK7N","assignmentId":"33L7PJKHCHKUCPJ5RL572IXX4AT8TE","hitId":"34KYK9TV2RUAD363EVFPUWVPB97SBP","url":"https://gershmanlab.com/experiments/alicia/teaching/experiment/?hitId=34KYK9TV2RUAD363EVFPUWVPB97SBP&workerId=AGILQEFEPEK7N&assignmentId=33L7PJKHCHKUCPJ5RL572IXX4AT8TE&a=HPL37&tp_a=HPL37&b=33L7PJKHCHKUCPJ5RL572IXX4AT8TE&tp_b=33L7PJKHCHKUCPJ5RL572IXX4AT8TE&c=365717&tp_c=365717"},{"rt":6083,"stimulus":"\n                <p>Student 7's first guess for coin weight: <b style=\"color:Tomato\";>0.31</b></p>\n                <p>Student 7's second guess for coin weight: <b style=\"color:Tomato\";>0.44</b></p>\n                <p>You received a bonus of <b>$0.00</b> based on the student's second guess.</p>\n                <p>Total bonus so far: <b>$0.85</b></p>\n                <p>Press any key to continue.</p>\n                ","response":" ","trial_type":"html-keyboard-response","trial_index":53,"time_elapsed":1275377,"internal_node_id":"0.0-52.0","params":{"nStudents":24,"maxFlips":30,"completionMinutes":45,"basePay":8,"maxBonus":9,"perTrialBonus":0.5,"perTrialBonusThreshold":0.05,"exampleCost":0.01},"classroomParams":{"A":{"a":1,"b":4},"B":{"a":4,"b":1},"C":{"a":2,"b":8},"D":{"a":8,"b":2}},"conditions":["nonSeqFull","nonSeqPartial","seqNoFeedback","seqFeedback"],"classroomPairings":[["A","B"],["C","D"]],"coinWeights":[0.2,0.5,0.8],"subjectId":"AGILQEFEPEK7N","assignmentId":"33L7PJKHCHKUCPJ5RL572IXX4AT8TE","hitId":"34KYK9TV2RUAD363EVFPUWVPB97SBP","url":"https://gershmanlab.com/experiments/alicia/teaching/experiment/?hitId=34KYK9TV2RUAD363EVFPUWVPB97SBP&workerId=AGILQEFEPEK7N&assignmentId=33L7PJKHCHKUCPJ5RL572IXX4AT8TE&a=HPL37&tp_a=HPL37&b=33L7PJKHCHKUCPJ5RL572IXX4AT8TE&tp_b=33L7PJKHCHKUCPJ5RL572IXX4AT8TE&c=365717&tp_c=365717"},{"rt":null,"stimulus":"<div style=\"font-size:60px;\">Next student</div>","response":null,"trial_type":"html-keyboard-response","trial_index":54,"time_elapsed":1277405,"internal_node_id":"0.0-53.0-0.0","params":{"nStudents":24,"maxFlips":30,"completionMinutes":45,"basePay":8,"maxBonus":9,"perTrialBonus":0.5,"perTrialBonusThreshold":0.05,"exampleCost":0.01},"classroomParams":{"A":{"a":1,"b":4},"B":{"a":4,"b":1},"C":{"a":2,"b":8},"D":{"a":8,"b":2}},"conditions":["nonSeqFull","nonSeqPartial","seqNoFeedback","seqFeedback"],"classroomPairings":[["A","B"],["C","D"]],"coinWeights":[0.2,0.5,0.8],"subjectId":"AGILQEFEPEK7N","assignmentId":"33L7PJKHCHKUCPJ5RL572IXX4AT8TE","hitId":"34KYK9TV2RUAD363EVFPUWVPB97SBP","url":"https://gershmanlab.com/experiments/alicia/teaching/experiment/?hitId=34KYK9TV2RUAD363EVFPUWVPB97SBP&workerId=AGILQEFEPEK7N&assignmentId=33L7PJKHCHKUCPJ5RL572IXX4AT8TE&a=HPL37&tp_a=HPL37&b=33L7PJKHCHKUCPJ5RL572IXX4AT8TE&tp_b=33L7PJKHCHKUCPJ5RL572IXX4AT8TE&c=365717&tp_c=365717"},{"rt":5573,"stimulus":"\n            <h4 style=\"color:Orange;\">Student 8</h4>\n            <h2>The weight of your coin is <b style=\"color:Tomato;\">0.2</b>.</h2>\n            <p>In this block, you will be giving <b>one</b> set of examples to Student 8.</p>\n                <p>You will receive feedback at the end of the block.</p>\n            <p></p>","response":0,"trial_type":"html-button-response","trial_index":55,"time_elapsed":1282981,"internal_node_id":"0.0-54.0","params":{"nStudents":24,"maxFlips":30,"completionMinutes":45,"basePay":8,"maxBonus":9,"perTrialBonus":0.5,"perTrialBonusThreshold":0.05,"exampleCost":0.01},"classroomParams":{"A":{"a":1,"b":4},"B":{"a":4,"b":1},"C":{"a":2,"b":8},"D":{"a":8,"b":2}},"conditions":["nonSeqFull","nonSeqPartial","seqNoFeedback","seqFeedback"],"classroomPairings":[["A","B"],["C","D"]],"coinWeights":[0.2,0.5,0.8],"subjectId":"AGILQEFEPEK7N","assignmentId":"33L7PJKHCHKUCPJ5RL572IXX4AT8TE","hitId":"34KYK9TV2RUAD363EVFPUWVPB97SBP","url":"https://gershmanlab.com/experiments/alicia/teaching/experiment/?hitId=34KYK9TV2RUAD363EVFPUWVPB97SBP&workerId=AGILQEFEPEK7N&assignmentId=33L7PJKHCHKUCPJ5RL572IXX4AT8TE&a=HPL37&tp_a=HPL37&b=33L7PJKHCHKUCPJ5RL572IXX4AT8TE&tp_b=33L7PJKHCHKUCPJ5RL572IXX4AT8TE&c=365717&tp_c=365717"},{"rt":17017,"response":{"heads":"2","tails":"12"},"type":"response","condition":"nonSeqPartial","trueTheta":0.2,"classrooms":["C","D"],"studentTrueClassroom":"D","exampleSet":"first","trial_type":"survey-html-form","trial_index":56,"time_elapsed":1299999,"internal_node_id":"0.0-55.0-0.0","params":{"nStudents":24,"maxFlips":30,"completionMinutes":45,"basePay":8,"maxBonus":9,"perTrialBonus":0.5,"perTrialBonusThreshold":0.05,"exampleCost":0.01},"classroomParams":{"A":{"a":1,"b":4},"B":{"a":4,"b":1},"C":{"a":2,"b":8},"D":{"a":8,"b":2}},"conditions":["nonSeqFull","nonSeqPartial","seqNoFeedback","seqFeedback"],"classroomPairings":[["A","B"],["C","D"]],"coinWeights":[0.2,0.5,0.8],"subjectId":"AGILQEFEPEK7N","assignmentId":"33L7PJKHCHKUCPJ5RL572IXX4AT8TE","hitId":"34KYK9TV2RUAD363EVFPUWVPB97SBP","url":"https://gershmanlab.com/experiments/alicia/teaching/experiment/?hitId=34KYK9TV2RUAD363EVFPUWVPB97SBP&workerId=AGILQEFEPEK7N&assignmentId=33L7PJKHCHKUCPJ5RL572IXX4AT8TE&a=HPL37&tp_a=HPL37&b=33L7PJKHCHKUCPJ5RL572IXX4AT8TE&tp_b=33L7PJKHCHKUCPJ5RL572IXX4AT8TE&c=365717&tp_c=365717","heads":2,"tails":12,"studentIndex":7,"studentTrueHypers":{"a":8,"b":2},"studentGuess":0.4166666666666667,"delta":0.21666666666666667,"totalExamples":14,"bonus":0,"bonusSoFar":0.85},{"rt":null,"stimulus":"Sending examples to student... ","response":null,"trial_type":"html-keyboard-response","trial_index":57,"time_elapsed":1301754,"internal_node_id":"0.0-56.0","params":{"nStudents":24,"maxFlips":30,"completionMinutes":45,"basePay":8,"maxBonus":9,"perTrialBonus":0.5,"perTrialBonusThreshold":0.05,"exampleCost":0.01},"classroomParams":{"A":{"a":1,"b":4},"B":{"a":4,"b":1},"C":{"a":2,"b":8},"D":{"a":8,"b":2}},"conditions":["nonSeqFull","nonSeqPartial","seqNoFeedback","seqFeedback"],"classroomPairings":[["A","B"],["C","D"]],"coinWeights":[0.2,0.5,0.8],"subjectId":"AGILQEFEPEK7N","assignmentId":"33L7PJKHCHKUCPJ5RL572IXX4AT8TE","hitId":"34KYK9TV2RUAD363EVFPUWVPB97SBP","url":"https://gershmanlab.com/experiments/alicia/teaching/experiment/?hitId=34KYK9TV2RUAD363EVFPUWVPB97SBP&workerId=AGILQEFEPEK7N&assignmentId=33L7PJKHCHKUCPJ5RL572IXX4AT8TE&a=HPL37&tp_a=HPL37&b=33L7PJKHCHKUCPJ5RL572IXX4AT8TE&tp_b=33L7PJKHCHKUCPJ5RL572IXX4AT8TE&c=365717&tp_c=365717"},{"rt":null,"stimulus":"Examples sent to student! Waiting for student...","response":null,"trial_type":"html-keyboard-response","trial_index":58,"time_elapsed":1306763,"internal_node_id":"0.0-57.0","params":{"nStudents":24,"maxFlips":30,"completionMinutes":45,"basePay":8,"maxBonus":9,"perTrialBonus":0.5,"perTrialBonusThreshold":0.05,"exampleCost":0.01},"classroomParams":{"A":{"a":1,"b":4},"B":{"a":4,"b":1},"C":{"a":2,"b":8},"D":{"a":8,"b":2}},"conditions":["nonSeqFull","nonSeqPartial","seqNoFeedback","seqFeedback"],"classroomPairings":[["A","B"],["C","D"]],"coinWeights":[0.2,0.5,0.8],"subjectId":"AGILQEFEPEK7N","assignmentId":"33L7PJKHCHKUCPJ5RL572IXX4AT8TE","hitId":"34KYK9TV2RUAD363EVFPUWVPB97SBP","url":"https://gershmanlab.com/experiments/alicia/teaching/experiment/?hitId=34KYK9TV2RUAD363EVFPUWVPB97SBP&workerId=AGILQEFEPEK7N&assignmentId=33L7PJKHCHKUCPJ5RL572IXX4AT8TE&a=HPL37&tp_a=HPL37&b=33L7PJKHCHKUCPJ5RL572IXX4AT8TE&tp_b=33L7PJKHCHKUCPJ5RL572IXX4AT8TE&c=365717&tp_c=365717"},{"rt":2034,"stimulus":"\n                <p>Student's guess for coin weight: <b style=\"color:Tomato;\">0.42</b></p>\n                <p>You received a bonus of <b>$0</b>. Total bonus so far: <b>$0.85</b></b></p>\n                <p></p>\n                <p>Press any key to continue.</p>\n                ","response":" ","trial_type":"html-keyboard-response","trial_index":59,"time_elapsed":1308799,"internal_node_id":"0.0-58.0","params":{"nStudents":24,"maxFlips":30,"completionMinutes":45,"basePay":8,"maxBonus":9,"perTrialBonus":0.5,"perTrialBonusThreshold":0.05,"exampleCost":0.01},"classroomParams":{"A":{"a":1,"b":4},"B":{"a":4,"b":1},"C":{"a":2,"b":8},"D":{"a":8,"b":2}},"conditions":["nonSeqFull","nonSeqPartial","seqNoFeedback","seqFeedback"],"classroomPairings":[["A","B"],["C","D"]],"coinWeights":[0.2,0.5,0.8],"subjectId":"AGILQEFEPEK7N","assignmentId":"33L7PJKHCHKUCPJ5RL572IXX4AT8TE","hitId":"34KYK9TV2RUAD363EVFPUWVPB97SBP","url":"https://gershmanlab.com/experiments/alicia/teaching/experiment/?hitId=34KYK9TV2RUAD363EVFPUWVPB97SBP&workerId=AGILQEFEPEK7N&assignmentId=33L7PJKHCHKUCPJ5RL572IXX4AT8TE&a=HPL37&tp_a=HPL37&b=33L7PJKHCHKUCPJ5RL572IXX4AT8TE&tp_b=33L7PJKHCHKUCPJ5RL572IXX4AT8TE&c=365717&tp_c=365717"},{"rt":null,"stimulus":"<div style=\"font-size:60px;\">Next student</div>","response":null,"trial_type":"html-keyboard-response","trial_index":60,"time_elapsed":1311065,"internal_node_id":"0.0-59.0-0.0","params":{"nStudents":24,"maxFlips":30,"completionMinutes":45,"basePay":8,"maxBonus":9,"perTrialBonus":0.5,"perTrialBonusThreshold":0.05,"exampleCost":0.01},"classroomParams":{"A":{"a":1,"b":4},"B":{"a":4,"b":1},"C":{"a":2,"b":8},"D":{"a":8,"b":2}},"conditions":["nonSeqFull","nonSeqPartial","seqNoFeedback","seqFeedback"],"classroomPairings":[["A","B"],["C","D"]],"coinWeights":[0.2,0.5,0.8],"subjectId":"AGILQEFEPEK7N","assignmentId":"33L7PJKHCHKUCPJ5RL572IXX4AT8TE","hitId":"34KYK9TV2RUAD363EVFPUWVPB97SBP","url":"https://gershmanlab.com/experiments/alicia/teaching/experiment/?hitId=34KYK9TV2RUAD363EVFPUWVPB97SBP&workerId=AGILQEFEPEK7N&assignmentId=33L7PJKHCHKUCPJ5RL572IXX4AT8TE&a=HPL37&tp_a=HPL37&b=33L7PJKHCHKUCPJ5RL572IXX4AT8TE&tp_b=33L7PJKHCHKUCPJ5RL572IXX4AT8TE&c=365717&tp_c=365717"},{"rt":2394,"stimulus":"\n            <h4 style=\"color:Orange;\">Student 9</h4>\n            <h2>The weight of your coin is <b style=\"color:Tomato;\">0.8</b>.</h2>\n            <p>In this block, you will be giving <b>two</b> sets of examples to Student 9.</p>\n                <p>You will see the student's guess after the first set of examples. You will also receive feedback at the end of the block.</p>\n            <p>To earn the highest bonus, you will have to <b>take into consideration the student's guess</b> when you choose your second set of examples.</p>","response":0,"trial_type":"html-button-response","trial_index":61,"time_elapsed":1313461,"internal_node_id":"0.0-60.0","params":{"nStudents":24,"maxFlips":30,"completionMinutes":45,"basePay":8,"maxBonus":9,"perTrialBonus":0.5,"perTrialBonusThreshold":0.05,"exampleCost":0.01},"classroomParams":{"A":{"a":1,"b":4},"B":{"a":4,"b":1},"C":{"a":2,"b":8},"D":{"a":8,"b":2}},"conditions":["nonSeqFull","nonSeqPartial","seqNoFeedback","seqFeedback"],"classroomPairings":[["A","B"],["C","D"]],"coinWeights":[0.2,0.5,0.8],"subjectId":"AGILQEFEPEK7N","assignmentId":"33L7PJKHCHKUCPJ5RL572IXX4AT8TE","hitId":"34KYK9TV2RUAD363EVFPUWVPB97SBP","url":"https://gershmanlab.com/experiments/alicia/teaching/experiment/?hitId=34KYK9TV2RUAD363EVFPUWVPB97SBP&workerId=AGILQEFEPEK7N&assignmentId=33L7PJKHCHKUCPJ5RL572IXX4AT8TE&a=HPL37&tp_a=HPL37&b=33L7PJKHCHKUCPJ5RL572IXX4AT8TE&tp_b=33L7PJKHCHKUCPJ5RL572IXX4AT8TE&c=365717&tp_c=365717"},{"rt":10768,"response":{"heads":"15","tails":"2"},"type":"response","condition":"seqFeedback","trueTheta":0.8,"classrooms":["A","B"],"studentTrueClassroom":"B","exampleSet":"first","trial_type":"survey-html-form","trial_index":62,"time_elapsed":1324231,"internal_node_id":"0.0-61.0-0.0","params":{"nStudents":24,"maxFlips":30,"completionMinutes":45,"basePay":8,"maxBonus":9,"perTrialBonus":0.5,"perTrialBonusThreshold":0.05,"exampleCost":0.01},"classroomParams":{"A":{"a":1,"b":4},"B":{"a":4,"b":1},"C":{"a":2,"b":8},"D":{"a":8,"b":2}},"conditions":["nonSeqFull","nonSeqPartial","seqNoFeedback","seqFeedback"],"classroomPairings":[["A","B"],["C","D"]],"coinWeights":[0.2,0.5,0.8],"subjectId":"AGILQEFEPEK7N","assignmentId":"33L7PJKHCHKUCPJ5RL572IXX4AT8TE","hitId":"34KYK9TV2RUAD363EVFPUWVPB97SBP","url":"https://gershmanlab.com/experiments/alicia/teaching/experiment/?hitId=34KYK9TV2RUAD363EVFPUWVPB97SBP&workerId=AGILQEFEPEK7N&assignmentId=33L7PJKHCHKUCPJ5RL572IXX4AT8TE&a=HPL37&tp_a=HPL37&b=33L7PJKHCHKUCPJ5RL572IXX4AT8TE&tp_b=33L7PJKHCHKUCPJ5RL572IXX4AT8TE&c=365717&tp_c=365717","heads":15,"tails":2,"studentIndex":8,"studentTrueHypers":{"a":4,"b":1},"studentGuess":0.8636363636363636,"delta":0.0636363636363636,"totalExamples":17,"bonusSoFar":0.85},{"rt":null,"stimulus":"Sending examples to student... ","response":null,"trial_type":"html-keyboard-response","trial_index":63,"time_elapsed":1325743,"internal_node_id":"0.0-62.0","params":{"nStudents":24,"maxFlips":30,"completionMinutes":45,"basePay":8,"maxBonus":9,"perTrialBonus":0.5,"perTrialBonusThreshold":0.05,"exampleCost":0.01},"classroomParams":{"A":{"a":1,"b":4},"B":{"a":4,"b":1},"C":{"a":2,"b":8},"D":{"a":8,"b":2}},"conditions":["nonSeqFull","nonSeqPartial","seqNoFeedback","seqFeedback"],"classroomPairings":[["A","B"],["C","D"]],"coinWeights":[0.2,0.5,0.8],"subjectId":"AGILQEFEPEK7N","assignmentId":"33L7PJKHCHKUCPJ5RL572IXX4AT8TE","hitId":"34KYK9TV2RUAD363EVFPUWVPB97SBP","url":"https://gershmanlab.com/experiments/alicia/teaching/experiment/?hitId=34KYK9TV2RUAD363EVFPUWVPB97SBP&workerId=AGILQEFEPEK7N&assignmentId=33L7PJKHCHKUCPJ5RL572IXX4AT8TE&a=HPL37&tp_a=HPL37&b=33L7PJKHCHKUCPJ5RL572IXX4AT8TE&tp_b=33L7PJKHCHKUCPJ5RL572IXX4AT8TE&c=365717&tp_c=365717"},{"rt":null,"stimulus":"Examples sent to student! Waiting for student...","response":null,"trial_type":"html-keyboard-response","trial_index":64,"time_elapsed":1331249,"internal_node_id":"0.0-63.0","params":{"nStudents":24,"maxFlips":30,"completionMinutes":45,"basePay":8,"maxBonus":9,"perTrialBonus":0.5,"perTrialBonusThreshold":0.05,"exampleCost":0.01},"classroomParams":{"A":{"a":1,"b":4},"B":{"a":4,"b":1},"C":{"a":2,"b":8},"D":{"a":8,"b":2}},"conditions":["nonSeqFull","nonSeqPartial","seqNoFeedback","seqFeedback"],"classroomPairings":[["A","B"],["C","D"]],"coinWeights":[0.2,0.5,0.8],"subjectId":"AGILQEFEPEK7N","assignmentId":"33L7PJKHCHKUCPJ5RL572IXX4AT8TE","hitId":"34KYK9TV2RUAD363EVFPUWVPB97SBP","url":"https://gershmanlab.com/experiments/alicia/teaching/experiment/?hitId=34KYK9TV2RUAD363EVFPUWVPB97SBP&workerId=AGILQEFEPEK7N&assignmentId=33L7PJKHCHKUCPJ5RL572IXX4AT8TE&a=HPL37&tp_a=HPL37&b=33L7PJKHCHKUCPJ5RL572IXX4AT8TE&tp_b=33L7PJKHCHKUCPJ5RL572IXX4AT8TE&c=365717&tp_c=365717"},{"rt":3049,"stimulus":"\n                <p>Student's guess for coin weight: <b style=\"color:Tomato;\">0.86</b></p>\n                <p></b></p>\n                <p>You will now send another set of examples to your student. <b>Remember to take your student's guess into consideration so that you can earn the highest bonus possible!</b> </p>\n                <p>Press any key to continue.</p>\n                ","response":" ","trial_type":"html-keyboard-response","trial_index":65,"time_elapsed":1334300,"internal_node_id":"0.0-64.0","params":{"nStudents":24,"maxFlips":30,"completionMinutes":45,"basePay":8,"maxBonus":9,"perTrialBonus":0.5,"perTrialBonusThreshold":0.05,"exampleCost":0.01},"classroomParams":{"A":{"a":1,"b":4},"B":{"a":4,"b":1},"C":{"a":2,"b":8},"D":{"a":8,"b":2}},"conditions":["nonSeqFull","nonSeqPartial","seqNoFeedback","seqFeedback"],"classroomPairings":[["A","B"],["C","D"]],"coinWeights":[0.2,0.5,0.8],"subjectId":"AGILQEFEPEK7N","assignmentId":"33L7PJKHCHKUCPJ5RL572IXX4AT8TE","hitId":"34KYK9TV2RUAD363EVFPUWVPB97SBP","url":"https://gershmanlab.com/experiments/alicia/teaching/experiment/?hitId=34KYK9TV2RUAD363EVFPUWVPB97SBP&workerId=AGILQEFEPEK7N&assignmentId=33L7PJKHCHKUCPJ5RL572IXX4AT8TE&a=HPL37&tp_a=HPL37&b=33L7PJKHCHKUCPJ5RL572IXX4AT8TE&tp_b=33L7PJKHCHKUCPJ5RL572IXX4AT8TE&c=365717&tp_c=365717"},{"rt":10690,"response":{"heads":"15","tails":"1"},"type":"response","condition":"seqFeedback","trueTheta":0.8,"classrooms":["A","B"],"studentTrueClassroom":"B","exampleSet":"second","trial_type":"survey-html-form","trial_index":66,"time_elapsed":1344991,"internal_node_id":"0.0-65.0-0.0","params":{"nStudents":24,"maxFlips":30,"completionMinutes":45,"basePay":8,"maxBonus":9,"perTrialBonus":0.5,"perTrialBonusThreshold":0.05,"exampleCost":0.01},"classroomParams":{"A":{"a":1,"b":4},"B":{"a":4,"b":1},"C":{"a":2,"b":8},"D":{"a":8,"b":2}},"conditions":["nonSeqFull","nonSeqPartial","seqNoFeedback","seqFeedback"],"classroomPairings":[["A","B"],["C","D"]],"coinWeights":[0.2,0.5,0.8],"subjectId":"AGILQEFEPEK7N","assignmentId":"33L7PJKHCHKUCPJ5RL572IXX4AT8TE","hitId":"34KYK9TV2RUAD363EVFPUWVPB97SBP","url":"https://gershmanlab.com/experiments/alicia/teaching/experiment/?hitId=34KYK9TV2RUAD363EVFPUWVPB97SBP&workerId=AGILQEFEPEK7N&assignmentId=33L7PJKHCHKUCPJ5RL572IXX4AT8TE&a=HPL37&tp_a=HPL37&b=33L7PJKHCHKUCPJ5RL572IXX4AT8TE&tp_b=33L7PJKHCHKUCPJ5RL572IXX4AT8TE&c=365717&tp_c=365717","firstResponseHeads":15,"firstResponseTails":2,"secondResponseHeads":15,"secondResponseTails":1,"totalHeads":30,"totalTails":3,"studentIndex":8,"studentTrueHypers":{"a":4,"b":1},"studentGuess":0.8947368421052632,"delta":0.09473684210526312,"bonus":0,"bonusSoFar":0.85,"totalExamples":33},{"rt":null,"stimulus":"Sending examples to student... ","response":null,"trial_type":"html-keyboard-response","trial_index":67,"time_elapsed":1346748,"internal_node_id":"0.0-66.0","params":{"nStudents":24,"maxFlips":30,"completionMinutes":45,"basePay":8,"maxBonus":9,"perTrialBonus":0.5,"perTrialBonusThreshold":0.05,"exampleCost":0.01},"classroomParams":{"A":{"a":1,"b":4},"B":{"a":4,"b":1},"C":{"a":2,"b":8},"D":{"a":8,"b":2}},"conditions":["nonSeqFull","nonSeqPartial","seqNoFeedback","seqFeedback"],"classroomPairings":[["A","B"],["C","D"]],"coinWeights":[0.2,0.5,0.8],"subjectId":"AGILQEFEPEK7N","assignmentId":"33L7PJKHCHKUCPJ5RL572IXX4AT8TE","hitId":"34KYK9TV2RUAD363EVFPUWVPB97SBP","url":"https://gershmanlab.com/experiments/alicia/teaching/experiment/?hitId=34KYK9TV2RUAD363EVFPUWVPB97SBP&workerId=AGILQEFEPEK7N&assignmentId=33L7PJKHCHKUCPJ5RL572IXX4AT8TE&a=HPL37&tp_a=HPL37&b=33L7PJKHCHKUCPJ5RL572IXX4AT8TE&tp_b=33L7PJKHCHKUCPJ5RL572IXX4AT8TE&c=365717&tp_c=365717"},{"rt":null,"stimulus":"Examples sent to student! Waiting for student...","response":null,"trial_type":"html-keyboard-response","trial_index":68,"time_elapsed":1351254,"internal_node_id":"0.0-67.0","params":{"nStudents":24,"maxFlips":30,"completionMinutes":45,"basePay":8,"maxBonus":9,"perTrialBonus":0.5,"perTrialBonusThreshold":0.05,"exampleCost":0.01},"classroomParams":{"A":{"a":1,"b":4},"B":{"a":4,"b":1},"C":{"a":2,"b":8},"D":{"a":8,"b":2}},"conditions":["nonSeqFull","nonSeqPartial","seqNoFeedback","seqFeedback"],"classroomPairings":[["A","B"],["C","D"]],"coinWeights":[0.2,0.5,0.8],"subjectId":"AGILQEFEPEK7N","assignmentId":"33L7PJKHCHKUCPJ5RL572IXX4AT8TE","hitId":"34KYK9TV2RUAD363EVFPUWVPB97SBP","url":"https://gershmanlab.com/experiments/alicia/teaching/experiment/?hitId=34KYK9TV2RUAD363EVFPUWVPB97SBP&workerId=AGILQEFEPEK7N&assignmentId=33L7PJKHCHKUCPJ5RL572IXX4AT8TE&a=HPL37&tp_a=HPL37&b=33L7PJKHCHKUCPJ5RL572IXX4AT8TE&tp_b=33L7PJKHCHKUCPJ5RL572IXX4AT8TE&c=365717&tp_c=365717"},{"rt":9286,"stimulus":"\n                <p>Student 9's first guess for coin weight: <b style=\"color:Tomato\";>0.86</b></p>\n                <p>Student 9's second guess for coin weight: <b style=\"color:Tomato\";>0.89</b></p>\n                <p>You received a bonus of <b>$0.00</b> based on the student's second guess.</p>\n                <p>Total bonus so far: <b>$0.85</b></p>\n                <p>Press any key to continue.</p>\n                ","response":"enter","trial_type":"html-keyboard-response","trial_index":69,"time_elapsed":1360542,"internal_node_id":"0.0-68.0","params":{"nStudents":24,"maxFlips":30,"completionMinutes":45,"basePay":8,"maxBonus":9,"perTrialBonus":0.5,"perTrialBonusThreshold":0.05,"exampleCost":0.01},"classroomParams":{"A":{"a":1,"b":4},"B":{"a":4,"b":1},"C":{"a":2,"b":8},"D":{"a":8,"b":2}},"conditions":["nonSeqFull","nonSeqPartial","seqNoFeedback","seqFeedback"],"classroomPairings":[["A","B"],["C","D"]],"coinWeights":[0.2,0.5,0.8],"subjectId":"AGILQEFEPEK7N","assignmentId":"33L7PJKHCHKUCPJ5RL572IXX4AT8TE","hitId":"34KYK9TV2RUAD363EVFPUWVPB97SBP","url":"https://gershmanlab.com/experiments/alicia/teaching/experiment/?hitId=34KYK9TV2RUAD363EVFPUWVPB97SBP&workerId=AGILQEFEPEK7N&assignmentId=33L7PJKHCHKUCPJ5RL572IXX4AT8TE&a=HPL37&tp_a=HPL37&b=33L7PJKHCHKUCPJ5RL572IXX4AT8TE&tp_b=33L7PJKHCHKUCPJ5RL572IXX4AT8TE&c=365717&tp_c=365717"},{"rt":null,"stimulus":"<div style=\"font-size:60px;\">Next student</div>","response":null,"trial_type":"html-keyboard-response","trial_index":70,"time_elapsed":1363545,"internal_node_id":"0.0-69.0-0.0","params":{"nStudents":24,"maxFlips":30,"completionMinutes":45,"basePay":8,"maxBonus":9,"perTrialBonus":0.5,"perTrialBonusThreshold":0.05,"exampleCost":0.01},"classroomParams":{"A":{"a":1,"b":4},"B":{"a":4,"b":1},"C":{"a":2,"b":8},"D":{"a":8,"b":2}},"conditions":["nonSeqFull","nonSeqPartial","seqNoFeedback","seqFeedback"],"classroomPairings":[["A","B"],["C","D"]],"coinWeights":[0.2,0.5,0.8],"subjectId":"AGILQEFEPEK7N","assignmentId":"33L7PJKHCHKUCPJ5RL572IXX4AT8TE","hitId":"34KYK9TV2RUAD363EVFPUWVPB97SBP","url":"https://gershmanlab.com/experiments/alicia/teaching/experiment/?hitId=34KYK9TV2RUAD363EVFPUWVPB97SBP&workerId=AGILQEFEPEK7N&assignmentId=33L7PJKHCHKUCPJ5RL572IXX4AT8TE&a=HPL37&tp_a=HPL37&b=33L7PJKHCHKUCPJ5RL572IXX4AT8TE&tp_b=33L7PJKHCHKUCPJ5RL572IXX4AT8TE&c=365717&tp_c=365717"},{"rt":3074,"stimulus":"\n            <h4 style=\"color:Orange;\">Student 10</h4>\n            <h2>The weight of your coin is <b style=\"color:Tomato;\">0.8</b>.</h2>\n            <p>In this block, you will be giving <b>one</b> set of examples to Student 10.</p>\n                <p>You will receive feedback at the end of the block.</p>\n            <p></p>","response":0,"trial_type":"html-button-response","trial_index":71,"time_elapsed":1366621,"internal_node_id":"0.0-70.0","params":{"nStudents":24,"maxFlips":30,"completionMinutes":45,"basePay":8,"maxBonus":9,"perTrialBonus":0.5,"perTrialBonusThreshold":0.05,"exampleCost":0.01},"classroomParams":{"A":{"a":1,"b":4},"B":{"a":4,"b":1},"C":{"a":2,"b":8},"D":{"a":8,"b":2}},"conditions":["nonSeqFull","nonSeqPartial","seqNoFeedback","seqFeedback"],"classroomPairings":[["A","B"],["C","D"]],"coinWeights":[0.2,0.5,0.8],"subjectId":"AGILQEFEPEK7N","assignmentId":"33L7PJKHCHKUCPJ5RL572IXX4AT8TE","hitId":"34KYK9TV2RUAD363EVFPUWVPB97SBP","url":"https://gershmanlab.com/experiments/alicia/teaching/experiment/?hitId=34KYK9TV2RUAD363EVFPUWVPB97SBP&workerId=AGILQEFEPEK7N&assignmentId=33L7PJKHCHKUCPJ5RL572IXX4AT8TE&a=HPL37&tp_a=HPL37&b=33L7PJKHCHKUCPJ5RL572IXX4AT8TE&tp_b=33L7PJKHCHKUCPJ5RL572IXX4AT8TE&c=365717&tp_c=365717"},{"rt":8977,"response":{"heads":"15","tails":"1"},"type":"response","condition":"nonSeqPartial","trueTheta":0.8,"classrooms":["A","B"],"studentTrueClassroom":"A","exampleSet":"first","trial_type":"survey-html-form","trial_index":72,"time_elapsed":1375599,"internal_node_id":"0.0-71.0-0.0","params":{"nStudents":24,"maxFlips":30,"completionMinutes":45,"basePay":8,"maxBonus":9,"perTrialBonus":0.5,"perTrialBonusThreshold":0.05,"exampleCost":0.01},"classroomParams":{"A":{"a":1,"b":4},"B":{"a":4,"b":1},"C":{"a":2,"b":8},"D":{"a":8,"b":2}},"conditions":["nonSeqFull","nonSeqPartial","seqNoFeedback","seqFeedback"],"classroomPairings":[["A","B"],["C","D"]],"coinWeights":[0.2,0.5,0.8],"subjectId":"AGILQEFEPEK7N","assignmentId":"33L7PJKHCHKUCPJ5RL572IXX4AT8TE","hitId":"34KYK9TV2RUAD363EVFPUWVPB97SBP","url":"https://gershmanlab.com/experiments/alicia/teaching/experiment/?hitId=34KYK9TV2RUAD363EVFPUWVPB97SBP&workerId=AGILQEFEPEK7N&assignmentId=33L7PJKHCHKUCPJ5RL572IXX4AT8TE&a=HPL37&tp_a=HPL37&b=33L7PJKHCHKUCPJ5RL572IXX4AT8TE&tp_b=33L7PJKHCHKUCPJ5RL572IXX4AT8TE&c=365717&tp_c=365717","heads":15,"tails":1,"studentIndex":9,"studentTrueHypers":{"a":1,"b":4},"studentGuess":0.7619047619047619,"delta":0.03809523809523818,"totalExamples":16,"bonus":0.34,"bonusSoFar":1.19},{"rt":null,"stimulus":"Sending examples to student... ","response":null,"trial_type":"html-keyboard-response","trial_index":73,"time_elapsed":1376860,"internal_node_id":"0.0-72.0","params":{"nStudents":24,"maxFlips":30,"completionMinutes":45,"basePay":8,"maxBonus":9,"perTrialBonus":0.5,"perTrialBonusThreshold":0.05,"exampleCost":0.01},"classroomParams":{"A":{"a":1,"b":4},"B":{"a":4,"b":1},"C":{"a":2,"b":8},"D":{"a":8,"b":2}},"conditions":["nonSeqFull","nonSeqPartial","seqNoFeedback","seqFeedback"],"classroomPairings":[["A","B"],["C","D"]],"coinWeights":[0.2,0.5,0.8],"subjectId":"AGILQEFEPEK7N","assignmentId":"33L7PJKHCHKUCPJ5RL572IXX4AT8TE","hitId":"34KYK9TV2RUAD363EVFPUWVPB97SBP","url":"https://gershmanlab.com/experiments/alicia/teaching/experiment/?hitId=34KYK9TV2RUAD363EVFPUWVPB97SBP&workerId=AGILQEFEPEK7N&assignmentId=33L7PJKHCHKUCPJ5RL572IXX4AT8TE&a=HPL37&tp_a=HPL37&b=33L7PJKHCHKUCPJ5RL572IXX4AT8TE&tp_b=33L7PJKHCHKUCPJ5RL572IXX4AT8TE&c=365717&tp_c=365717"},{"rt":null,"stimulus":"Examples sent to student! Waiting for student...","response":null,"trial_type":"html-keyboard-response","trial_index":74,"time_elapsed":1381863,"internal_node_id":"0.0-73.0","params":{"nStudents":24,"maxFlips":30,"completionMinutes":45,"basePay":8,"maxBonus":9,"perTrialBonus":0.5,"perTrialBonusThreshold":0.05,"exampleCost":0.01},"classroomParams":{"A":{"a":1,"b":4},"B":{"a":4,"b":1},"C":{"a":2,"b":8},"D":{"a":8,"b":2}},"conditions":["nonSeqFull","nonSeqPartial","seqNoFeedback","seqFeedback"],"classroomPairings":[["A","B"],["C","D"]],"coinWeights":[0.2,0.5,0.8],"subjectId":"AGILQEFEPEK7N","assignmentId":"33L7PJKHCHKUCPJ5RL572IXX4AT8TE","hitId":"34KYK9TV2RUAD363EVFPUWVPB97SBP","url":"https://gershmanlab.com/experiments/alicia/teaching/experiment/?hitId=34KYK9TV2RUAD363EVFPUWVPB97SBP&workerId=AGILQEFEPEK7N&assignmentId=33L7PJKHCHKUCPJ5RL572IXX4AT8TE&a=HPL37&tp_a=HPL37&b=33L7PJKHCHKUCPJ5RL572IXX4AT8TE&tp_b=33L7PJKHCHKUCPJ5RL572IXX4AT8TE&c=365717&tp_c=365717"},{"rt":6379,"stimulus":"\n                <p>Student's guess for coin weight: <b style=\"color:Tomato;\">0.76</b></p>\n                <p>You received a bonus of <b>$0.34</b>. Total bonus so far: <b>$1.19</b></b></p>\n                <p></p>\n                <p>Press any key to continue.</p>\n                ","response":" ","trial_type":"html-keyboard-response","trial_index":75,"time_elapsed":1388244,"internal_node_id":"0.0-74.0","params":{"nStudents":24,"maxFlips":30,"completionMinutes":45,"basePay":8,"maxBonus":9,"perTrialBonus":0.5,"perTrialBonusThreshold":0.05,"exampleCost":0.01},"classroomParams":{"A":{"a":1,"b":4},"B":{"a":4,"b":1},"C":{"a":2,"b":8},"D":{"a":8,"b":2}},"conditions":["nonSeqFull","nonSeqPartial","seqNoFeedback","seqFeedback"],"classroomPairings":[["A","B"],["C","D"]],"coinWeights":[0.2,0.5,0.8],"subjectId":"AGILQEFEPEK7N","assignmentId":"33L7PJKHCHKUCPJ5RL572IXX4AT8TE","hitId":"34KYK9TV2RUAD363EVFPUWVPB97SBP","url":"https://gershmanlab.com/experiments/alicia/teaching/experiment/?hitId=34KYK9TV2RUAD363EVFPUWVPB97SBP&workerId=AGILQEFEPEK7N&assignmentId=33L7PJKHCHKUCPJ5RL572IXX4AT8TE&a=HPL37&tp_a=HPL37&b=33L7PJKHCHKUCPJ5RL572IXX4AT8TE&tp_b=33L7PJKHCHKUCPJ5RL572IXX4AT8TE&c=365717&tp_c=365717"},{"rt":null,"stimulus":"<div style=\"font-size:60px;\">Next student</div>","response":null,"trial_type":"html-keyboard-response","trial_index":76,"time_elapsed":1391247,"internal_node_id":"0.0-75.0-0.0","params":{"nStudents":24,"maxFlips":30,"completionMinutes":45,"basePay":8,"maxBonus":9,"perTrialBonus":0.5,"perTrialBonusThreshold":0.05,"exampleCost":0.01},"classroomParams":{"A":{"a":1,"b":4},"B":{"a":4,"b":1},"C":{"a":2,"b":8},"D":{"a":8,"b":2}},"conditions":["nonSeqFull","nonSeqPartial","seqNoFeedback","seqFeedback"],"classroomPairings":[["A","B"],["C","D"]],"coinWeights":[0.2,0.5,0.8],"subjectId":"AGILQEFEPEK7N","assignmentId":"33L7PJKHCHKUCPJ5RL572IXX4AT8TE","hitId":"34KYK9TV2RUAD363EVFPUWVPB97SBP","url":"https://gershmanlab.com/experiments/alicia/teaching/experiment/?hitId=34KYK9TV2RUAD363EVFPUWVPB97SBP&workerId=AGILQEFEPEK7N&assignmentId=33L7PJKHCHKUCPJ5RL572IXX4AT8TE&a=HPL37&tp_a=HPL37&b=33L7PJKHCHKUCPJ5RL572IXX4AT8TE&tp_b=33L7PJKHCHKUCPJ5RL572IXX4AT8TE&c=365717&tp_c=365717"},{"rt":1532,"stimulus":"\n            <h4 style=\"color:Orange;\">Student 11</h4>\n            <h2>The weight of your coin is <b style=\"color:Tomato;\">0.8</b>.</h2>\n            <p>In this block, you will be giving <b>one</b> set of examples to Student 11.</p>\n                <p>You will receive feedback at the end of the block.</p>\n            <p></p>","response":0,"trial_type":"html-button-response","trial_index":77,"time_elapsed":1392780,"internal_node_id":"0.0-76.0","params":{"nStudents":24,"maxFlips":30,"completionMinutes":45,"basePay":8,"maxBonus":9,"perTrialBonus":0.5,"perTrialBonusThreshold":0.05,"exampleCost":0.01},"classroomParams":{"A":{"a":1,"b":4},"B":{"a":4,"b":1},"C":{"a":2,"b":8},"D":{"a":8,"b":2}},"conditions":["nonSeqFull","nonSeqPartial","seqNoFeedback","seqFeedback"],"classroomPairings":[["A","B"],["C","D"]],"coinWeights":[0.2,0.5,0.8],"subjectId":"AGILQEFEPEK7N","assignmentId":"33L7PJKHCHKUCPJ5RL572IXX4AT8TE","hitId":"34KYK9TV2RUAD363EVFPUWVPB97SBP","url":"https://gershmanlab.com/experiments/alicia/teaching/experiment/?hitId=34KYK9TV2RUAD363EVFPUWVPB97SBP&workerId=AGILQEFEPEK7N&assignmentId=33L7PJKHCHKUCPJ5RL572IXX4AT8TE&a=HPL37&tp_a=HPL37&b=33L7PJKHCHKUCPJ5RL572IXX4AT8TE&tp_b=33L7PJKHCHKUCPJ5RL572IXX4AT8TE&c=365717&tp_c=365717"},{"rt":7042,"response":{"heads":"15","tails":"1"},"type":"response","condition":"nonSeqFull","trueTheta":0.8,"classrooms":["C","D"],"studentTrueClassroom":"C","exampleSet":"first","trial_type":"survey-html-form","trial_index":78,"time_elapsed":1399823,"internal_node_id":"0.0-77.0-0.0","params":{"nStudents":24,"maxFlips":30,"completionMinutes":45,"basePay":8,"maxBonus":9,"perTrialBonus":0.5,"perTrialBonusThreshold":0.05,"exampleCost":0.01},"classroomParams":{"A":{"a":1,"b":4},"B":{"a":4,"b":1},"C":{"a":2,"b":8},"D":{"a":8,"b":2}},"conditions":["nonSeqFull","nonSeqPartial","seqNoFeedback","seqFeedback"],"classroomPairings":[["A","B"],["C","D"]],"coinWeights":[0.2,0.5,0.8],"subjectId":"AGILQEFEPEK7N","assignmentId":"33L7PJKHCHKUCPJ5RL572IXX4AT8TE","hitId":"34KYK9TV2RUAD363EVFPUWVPB97SBP","url":"https://gershmanlab.com/experiments/alicia/teaching/experiment/?hitId=34KYK9TV2RUAD363EVFPUWVPB97SBP&workerId=AGILQEFEPEK7N&assignmentId=33L7PJKHCHKUCPJ5RL572IXX4AT8TE&a=HPL37&tp_a=HPL37&b=33L7PJKHCHKUCPJ5RL572IXX4AT8TE&tp_b=33L7PJKHCHKUCPJ5RL572IXX4AT8TE&c=365717&tp_c=365717","heads":15,"tails":1,"studentIndex":10,"studentTrueHypers":{"a":2,"b":8},"studentGuess":0.6538461538461539,"delta":0.1461538461538462,"totalExamples":16,"bonus":0,"bonusSoFar":1.19},{"rt":null,"stimulus":"Sending examples to student... ","response":null,"trial_type":"html-keyboard-response","trial_index":79,"time_elapsed":1401580,"internal_node_id":"0.0-78.0","params":{"nStudents":24,"maxFlips":30,"completionMinutes":45,"basePay":8,"maxBonus":9,"perTrialBonus":0.5,"perTrialBonusThreshold":0.05,"exampleCost":0.01},"classroomParams":{"A":{"a":1,"b":4},"B":{"a":4,"b":1},"C":{"a":2,"b":8},"D":{"a":8,"b":2}},"conditions":["nonSeqFull","nonSeqPartial","seqNoFeedback","seqFeedback"],"classroomPairings":[["A","B"],["C","D"]],"coinWeights":[0.2,0.5,0.8],"subjectId":"AGILQEFEPEK7N","assignmentId":"33L7PJKHCHKUCPJ5RL572IXX4AT8TE","hitId":"34KYK9TV2RUAD363EVFPUWVPB97SBP","url":"https://gershmanlab.com/experiments/alicia/teaching/experiment/?hitId=34KYK9TV2RUAD363EVFPUWVPB97SBP&workerId=AGILQEFEPEK7N&assignmentId=33L7PJKHCHKUCPJ5RL572IXX4AT8TE&a=HPL37&tp_a=HPL37&b=33L7PJKHCHKUCPJ5RL572IXX4AT8TE&tp_b=33L7PJKHCHKUCPJ5RL572IXX4AT8TE&c=365717&tp_c=365717"},{"rt":null,"stimulus":"Examples sent to student! Waiting for student...","response":null,"trial_type":"html-keyboard-response","trial_index":80,"time_elapsed":1405594,"internal_node_id":"0.0-79.0","params":{"nStudents":24,"maxFlips":30,"completionMinutes":45,"basePay":8,"maxBonus":9,"perTrialBonus":0.5,"perTrialBonusThreshold":0.05,"exampleCost":0.01},"classroomParams":{"A":{"a":1,"b":4},"B":{"a":4,"b":1},"C":{"a":2,"b":8},"D":{"a":8,"b":2}},"conditions":["nonSeqFull","nonSeqPartial","seqNoFeedback","seqFeedback"],"classroomPairings":[["A","B"],["C","D"]],"coinWeights":[0.2,0.5,0.8],"subjectId":"AGILQEFEPEK7N","assignmentId":"33L7PJKHCHKUCPJ5RL572IXX4AT8TE","hitId":"34KYK9TV2RUAD363EVFPUWVPB97SBP","url":"https://gershmanlab.com/experiments/alicia/teaching/experiment/?hitId=34KYK9TV2RUAD363EVFPUWVPB97SBP&workerId=AGILQEFEPEK7N&assignmentId=33L7PJKHCHKUCPJ5RL572IXX4AT8TE&a=HPL37&tp_a=HPL37&b=33L7PJKHCHKUCPJ5RL572IXX4AT8TE&tp_b=33L7PJKHCHKUCPJ5RL572IXX4AT8TE&c=365717&tp_c=365717"},{"rt":2641,"stimulus":"\n                <p>Student's guess for coin weight: <b style=\"color:Tomato;\">0.65</b></p>\n                <p>You received a bonus of <b>$0</b>. Total bonus so far: <b>$1.19</b></b></p>\n                <p></p>\n                <p>Press any key to continue.</p>\n                ","response":" ","trial_type":"html-keyboard-response","trial_index":81,"time_elapsed":1408237,"internal_node_id":"0.0-80.0","params":{"nStudents":24,"maxFlips":30,"completionMinutes":45,"basePay":8,"maxBonus":9,"perTrialBonus":0.5,"perTrialBonusThreshold":0.05,"exampleCost":0.01},"classroomParams":{"A":{"a":1,"b":4},"B":{"a":4,"b":1},"C":{"a":2,"b":8},"D":{"a":8,"b":2}},"conditions":["nonSeqFull","nonSeqPartial","seqNoFeedback","seqFeedback"],"classroomPairings":[["A","B"],["C","D"]],"coinWeights":[0.2,0.5,0.8],"subjectId":"AGILQEFEPEK7N","assignmentId":"33L7PJKHCHKUCPJ5RL572IXX4AT8TE","hitId":"34KYK9TV2RUAD363EVFPUWVPB97SBP","url":"https://gershmanlab.com/experiments/alicia/teaching/experiment/?hitId=34KYK9TV2RUAD363EVFPUWVPB97SBP&workerId=AGILQEFEPEK7N&assignmentId=33L7PJKHCHKUCPJ5RL572IXX4AT8TE&a=HPL37&tp_a=HPL37&b=33L7PJKHCHKUCPJ5RL572IXX4AT8TE&tp_b=33L7PJKHCHKUCPJ5RL572IXX4AT8TE&c=365717&tp_c=365717"},{"rt":null,"stimulus":"<div style=\"font-size:60px;\">Next student</div>","response":null,"trial_type":"html-keyboard-response","trial_index":82,"time_elapsed":1410240,"internal_node_id":"0.0-81.0-0.0","params":{"nStudents":24,"maxFlips":30,"completionMinutes":45,"basePay":8,"maxBonus":9,"perTrialBonus":0.5,"perTrialBonusThreshold":0.05,"exampleCost":0.01},"classroomParams":{"A":{"a":1,"b":4},"B":{"a":4,"b":1},"C":{"a":2,"b":8},"D":{"a":8,"b":2}},"conditions":["nonSeqFull","nonSeqPartial","seqNoFeedback","seqFeedback"],"classroomPairings":[["A","B"],["C","D"]],"coinWeights":[0.2,0.5,0.8],"subjectId":"AGILQEFEPEK7N","assignmentId":"33L7PJKHCHKUCPJ5RL572IXX4AT8TE","hitId":"34KYK9TV2RUAD363EVFPUWVPB97SBP","url":"https://gershmanlab.com/experiments/alicia/teaching/experiment/?hitId=34KYK9TV2RUAD363EVFPUWVPB97SBP&workerId=AGILQEFEPEK7N&assignmentId=33L7PJKHCHKUCPJ5RL572IXX4AT8TE&a=HPL37&tp_a=HPL37&b=33L7PJKHCHKUCPJ5RL572IXX4AT8TE&tp_b=33L7PJKHCHKUCPJ5RL572IXX4AT8TE&c=365717&tp_c=365717"},{"rt":2430,"stimulus":"\n            <h4 style=\"color:Orange;\">Student 12</h4>\n            <h2>The weight of your coin is <b style=\"color:Tomato;\">0.5</b>.</h2>\n            <p>In this block, you will be giving <b>two</b> sets of examples to Student 12.</p>\n                <p>You will see the student's guess after the first set of examples. You will also receive feedback at the end of the block.</p>\n            <p>To earn the highest bonus, you will have to <b>take into consideration the student's guess</b> when you choose your second set of examples.</p>","response":0,"trial_type":"html-button-response","trial_index":83,"time_elapsed":1412671,"internal_node_id":"0.0-82.0","params":{"nStudents":24,"maxFlips":30,"completionMinutes":45,"basePay":8,"maxBonus":9,"perTrialBonus":0.5,"perTrialBonusThreshold":0.05,"exampleCost":0.01},"classroomParams":{"A":{"a":1,"b":4},"B":{"a":4,"b":1},"C":{"a":2,"b":8},"D":{"a":8,"b":2}},"conditions":["nonSeqFull","nonSeqPartial","seqNoFeedback","seqFeedback"],"classroomPairings":[["A","B"],["C","D"]],"coinWeights":[0.2,0.5,0.8],"subjectId":"AGILQEFEPEK7N","assignmentId":"33L7PJKHCHKUCPJ5RL572IXX4AT8TE","hitId":"34KYK9TV2RUAD363EVFPUWVPB97SBP","url":"https://gershmanlab.com/experiments/alicia/teaching/experiment/?hitId=34KYK9TV2RUAD363EVFPUWVPB97SBP&workerId=AGILQEFEPEK7N&assignmentId=33L7PJKHCHKUCPJ5RL572IXX4AT8TE&a=HPL37&tp_a=HPL37&b=33L7PJKHCHKUCPJ5RL572IXX4AT8TE&tp_b=33L7PJKHCHKUCPJ5RL572IXX4AT8TE&c=365717&tp_c=365717"},{"rt":10762,"response":{"heads":"10","tails":"10"},"type":"response","condition":"seqFeedback","trueTheta":0.5,"classrooms":["A","B"],"studentTrueClassroom":"A","exampleSet":"first","trial_type":"survey-html-form","trial_index":84,"time_elapsed":1423435,"internal_node_id":"0.0-83.0-0.0","params":{"nStudents":24,"maxFlips":30,"completionMinutes":45,"basePay":8,"maxBonus":9,"perTrialBonus":0.5,"perTrialBonusThreshold":0.05,"exampleCost":0.01},"classroomParams":{"A":{"a":1,"b":4},"B":{"a":4,"b":1},"C":{"a":2,"b":8},"D":{"a":8,"b":2}},"conditions":["nonSeqFull","nonSeqPartial","seqNoFeedback","seqFeedback"],"classroomPairings":[["A","B"],["C","D"]],"coinWeights":[0.2,0.5,0.8],"subjectId":"AGILQEFEPEK7N","assignmentId":"33L7PJKHCHKUCPJ5RL572IXX4AT8TE","hitId":"34KYK9TV2RUAD363EVFPUWVPB97SBP","url":"https://gershmanlab.com/experiments/alicia/teaching/experiment/?hitId=34KYK9TV2RUAD363EVFPUWVPB97SBP&workerId=AGILQEFEPEK7N&assignmentId=33L7PJKHCHKUCPJ5RL572IXX4AT8TE&a=HPL37&tp_a=HPL37&b=33L7PJKHCHKUCPJ5RL572IXX4AT8TE&tp_b=33L7PJKHCHKUCPJ5RL572IXX4AT8TE&c=365717&tp_c=365717","heads":10,"tails":10,"studentIndex":11,"studentTrueHypers":{"a":1,"b":4},"studentGuess":0.44,"delta":0.06,"totalExamples":20,"bonusSoFar":1.19},{"rt":null,"stimulus":"Sending examples to student... ","response":null,"trial_type":"html-keyboard-response","trial_index":85,"time_elapsed":1425437,"internal_node_id":"0.0-84.0","params":{"nStudents":24,"maxFlips":30,"completionMinutes":45,"basePay":8,"maxBonus":9,"perTrialBonus":0.5,"perTrialBonusThreshold":0.05,"exampleCost":0.01},"classroomParams":{"A":{"a":1,"b":4},"B":{"a":4,"b":1},"C":{"a":2,"b":8},"D":{"a":8,"b":2}},"conditions":["nonSeqFull","nonSeqPartial","seqNoFeedback","seqFeedback"],"classroomPairings":[["A","B"],["C","D"]],"coinWeights":[0.2,0.5,0.8],"subjectId":"AGILQEFEPEK7N","assignmentId":"33L7PJKHCHKUCPJ5RL572IXX4AT8TE","hitId":"34KYK9TV2RUAD363EVFPUWVPB97SBP","url":"https://gershmanlab.com/experiments/alicia/teaching/experiment/?hitId=34KYK9TV2RUAD363EVFPUWVPB97SBP&workerId=AGILQEFEPEK7N&assignmentId=33L7PJKHCHKUCPJ5RL572IXX4AT8TE&a=HPL37&tp_a=HPL37&b=33L7PJKHCHKUCPJ5RL572IXX4AT8TE&tp_b=33L7PJKHCHKUCPJ5RL572IXX4AT8TE&c=365717&tp_c=365717"},{"rt":null,"stimu