[{"rt":6653,"stimulus":"Welcome to the experiment. Press any key to begin.","response":" ","trial_type":"html-keyboard-response","trial_index":0,"time_elapsed":6679,"internal_node_id":"0.0-0.0","params":{"nStudents":24,"maxFlips":30,"completionMinutes":45,"basePay":8,"maxBonus":9,"perTrialBonus":0.5,"perTrialBonusThreshold":0.05,"exampleCost":0.01},"classroomParams":{"A":{"a":1,"b":4},"B":{"a":4,"b":1},"C":{"a":2,"b":8},"D":{"a":8,"b":2}},"conditions":["nonSeqFull","nonSeqPartial","seqNoFeedback","seqFeedback"],"classroomPairings":[["A","B"],["C","D"]],"coinWeights":[0.2,0.5,0.8],"subjectId":"AHYTT3T8W9Y9Y","assignmentId":"3I02618YA1SUIUXBD7XST0EPCZKPUS","hitId":"3J94SKDEKIB2MY6CGVTNWB9X0ALD5P","url":"https://gershmanlab.com/experiments/alicia/teaching/experiment/?hitId=3J94SKDEKIB2MY6CGVTNWB9X0ALD5P&workerId=AHYTT3T8W9Y9Y&assignmentId=3I02618YA1SUIUXBD7XST0EPCZKPUS&a=Y60I9&tp_a=Y60I9&b=3I02618YA1SUIUXBD7XST0EPCZKPUS&tp_b=3I02618YA1SUIUXBD7XST0EPCZKPUS&c=365799&tp_c=365799"},{"rt":11450,"stimulus":"\n        <h3>Please read this consent agreement carefully before deciding whether to participate in this experiment.</h3>\n        <p><b>Purpose of the research:</b> To examine how people teach effectively.</p>\n        <p><b>What you will do in this research:</b> You will teach students the weights of different coins.</p>\n        <p><b>Time required:</b> This experiment will take 45 minutes to complete.</p>\n        <p><b>Risks:</b> There are no anticipated risks associated with participating in this study.             The effects of participating should be comparable to those you would experience from viewing a computer monitor             and using a mouse and keyboard for the duration of the experiment.</p>\n        <p><b>Benefits:</b> The study provides important information about the nature of teaching.</p>\n        <p><b>Compensation:</b> You will receive <b>$8</b> for completing the experiment and a performance bonus of up to <b>$9</b>.</p>\n        <p><b>Confidentiality:</b> Your participation in this study will remain confidential.             No personally identifiable information will be associated with your data.             Your de-identified data may be shared with other researchers and used in future projects.</p>\n        <p><b>Participation and withdrawal:</b> Your participation in this study is completely voluntary and             you may refuse to participate or you may choose to withdraw at any time without penalty or loss of\n            benefits to which you are otherwise entitled.</p>\n        <p><b>How to contact the researcher:</b> If you have questions or concerns about your participation            or payment, or want to request a summary of research findings, please contact\n            Alicia Chen, aliciachen@college.harvard.edu.</p>\n        <p><b>Whom to contact about your rights in this research:</b> For questions, concerns, suggestions,             or complaints that have not been or cannot be addressed by the researcher, or to report             research-related harm, please contact the Committee on the Use of Human Subjects in Research at Harvard University,             1414 Massachusetts Avenue, Second Floor, Cambridge, MA 02138. Phone: 617-496-2847. Email: cuhs@fas.harvard.edu.</p>\n        ","response":0,"trial_type":"html-button-response","trial_index":1,"time_elapsed":18132,"internal_node_id":"0.0-1.0","params":{"nStudents":24,"maxFlips":30,"completionMinutes":45,"basePay":8,"maxBonus":9,"perTrialBonus":0.5,"perTrialBonusThreshold":0.05,"exampleCost":0.01},"classroomParams":{"A":{"a":1,"b":4},"B":{"a":4,"b":1},"C":{"a":2,"b":8},"D":{"a":8,"b":2}},"conditions":["nonSeqFull","nonSeqPartial","seqNoFeedback","seqFeedback"],"classroomPairings":[["A","B"],["C","D"]],"coinWeights":[0.2,0.5,0.8],"subjectId":"AHYTT3T8W9Y9Y","assignmentId":"3I02618YA1SUIUXBD7XST0EPCZKPUS","hitId":"3J94SKDEKIB2MY6CGVTNWB9X0ALD5P","url":"https://gershmanlab.com/experiments/alicia/teaching/experiment/?hitId=3J94SKDEKIB2MY6CGVTNWB9X0ALD5P&workerId=AHYTT3T8W9Y9Y&assignmentId=3I02618YA1SUIUXBD7XST0EPCZKPUS&a=Y60I9&tp_a=Y60I9&b=3I02618YA1SUIUXBD7XST0EPCZKPUS&tp_b=3I02618YA1SUIUXBD7XST0EPCZKPUS&c=365799&tp_c=365799"},{"view_history":[{"page_index":0,"viewing_time":7110},{"page_index":1,"viewing_time":4944},{"page_index":2,"viewing_time":32356},{"page_index":3,"viewing_time":18012},{"page_index":4,"viewing_time":12095},{"page_index":5,"viewing_time":24228},{"page_index":6,"viewing_time":23052}],"rt":121797,"trial_type":"instructions","trial_index":2,"time_elapsed":139931,"internal_node_id":"0.0-2.0-0.0","params":{"nStudents":24,"maxFlips":30,"completionMinutes":45,"basePay":8,"maxBonus":9,"perTrialBonus":0.5,"perTrialBonusThreshold":0.05,"exampleCost":0.01},"classroomParams":{"A":{"a":1,"b":4},"B":{"a":4,"b":1},"C":{"a":2,"b":8},"D":{"a":8,"b":2}},"conditions":["nonSeqFull","nonSeqPartial","seqNoFeedback","seqFeedback"],"classroomPairings":[["A","B"],["C","D"]],"coinWeights":[0.2,0.5,0.8],"subjectId":"AHYTT3T8W9Y9Y","assignmentId":"3I02618YA1SUIUXBD7XST0EPCZKPUS","hitId":"3J94SKDEKIB2MY6CGVTNWB9X0ALD5P","url":"https://gershmanlab.com/experiments/alicia/teaching/experiment/?hitId=3J94SKDEKIB2MY6CGVTNWB9X0ALD5P&workerId=AHYTT3T8W9Y9Y&assignmentId=3I02618YA1SUIUXBD7XST0EPCZKPUS&a=Y60I9&tp_a=Y60I9&b=3I02618YA1SUIUXBD7XST0EPCZKPUS&tp_b=3I02618YA1SUIUXBD7XST0EPCZKPUS&c=365799&tp_c=365799"},{"rt":115205,"response":{"Q0":"Students in different classrooms will have seen a different number of heads and tails before seeing the examples you select for them.","Q1":"By <b>considering the student's classroom information</b> so that I can teach efficiently and accurately/helpfully at the same time (because each example I give to the student costs money!).","Q2":"The coin lands heads 90% of the time.","Q3":"No, I will teach a <b>new</b> student each time.","Q4":"The students are also on the same alien planet as you, where coins can be unfair.","Q5":"Based on both guesses."},"question_order":[0,3,2,1,4,5],"trial_type":"survey-multi-choice","trial_index":3,"time_elapsed":255139,"internal_node_id":"0.0-2.0-1.0","params":{"nStudents":24,"maxFlips":30,"completionMinutes":45,"basePay":8,"maxBonus":9,"perTrialBonus":0.5,"perTrialBonusThreshold":0.05,"exampleCost":0.01},"classroomParams":{"A":{"a":1,"b":4},"B":{"a":4,"b":1},"C":{"a":2,"b":8},"D":{"a":8,"b":2}},"conditions":["nonSeqFull","nonSeqPartial","seqNoFeedback","seqFeedback"],"classroomPairings":[["A","B"],["C","D"]],"coinWeights":[0.2,0.5,0.8],"subjectId":"AHYTT3T8W9Y9Y","assignmentId":"3I02618YA1SUIUXBD7XST0EPCZKPUS","hitId":"3J94SKDEKIB2MY6CGVTNWB9X0ALD5P","url":"https://gershmanlab.com/experiments/alicia/teaching/experiment/?hitId=3J94SKDEKIB2MY6CGVTNWB9X0ALD5P&workerId=AHYTT3T8W9Y9Y&assignmentId=3I02618YA1SUIUXBD7XST0EPCZKPUS&a=Y60I9&tp_a=Y60I9&b=3I02618YA1SUIUXBD7XST0EPCZKPUS&tp_b=3I02618YA1SUIUXBD7XST0EPCZKPUS&c=365799&tp_c=365799","pass":false},{"rt":3130,"stimulus":"Oops, you have missed question(s) on the comprehension check! We'll show you the instructions again.","response":0,"trial_type":"html-button-response","trial_index":4,"time_elapsed":258275,"internal_node_id":"0.0-2.0-2.0-0.0","params":{"nStudents":24,"maxFlips":30,"completionMinutes":45,"basePay":8,"maxBonus":9,"perTrialBonus":0.5,"perTrialBonusThreshold":0.05,"exampleCost":0.01},"classroomParams":{"A":{"a":1,"b":4},"B":{"a":4,"b":1},"C":{"a":2,"b":8},"D":{"a":8,"b":2}},"conditions":["nonSeqFull","nonSeqPartial","seqNoFeedback","seqFeedback"],"classroomPairings":[["A","B"],["C","D"]],"coinWeights":[0.2,0.5,0.8],"subjectId":"AHYTT3T8W9Y9Y","assignmentId":"3I02618YA1SUIUXBD7XST0EPCZKPUS","hitId":"3J94SKDEKIB2MY6CGVTNWB9X0ALD5P","url":"https://gershmanlab.com/experiments/alicia/teaching/experiment/?hitId=3J94SKDEKIB2MY6CGVTNWB9X0ALD5P&workerId=AHYTT3T8W9Y9Y&assignmentId=3I02618YA1SUIUXBD7XST0EPCZKPUS&a=Y60I9&tp_a=Y60I9&b=3I02618YA1SUIUXBD7XST0EPCZKPUS&tp_b=3I02618YA1SUIUXBD7XST0EPCZKPUS&c=365799&tp_c=365799"},{"view_history":[{"page_index":0,"viewing_time":3309},{"page_index":1,"viewing_time":1393},{"page_index":2,"viewing_time":15570},{"page_index":3,"viewing_time":8816},{"page_index":4,"viewing_time":6970},{"page_index":3,"viewing_time":9337},{"page_index":4,"viewing_time":2024},{"page_index":5,"viewing_time":11250},{"page_index":6,"viewing_time":16386}],"rt":75055,"trial_type":"instructions","trial_index":5,"time_elapsed":333331,"internal_node_id":"0.0-2.1-0.1","params":{"nStudents":24,"maxFlips":30,"completionMinutes":45,"basePay":8,"maxBonus":9,"perTrialBonus":0.5,"perTrialBonusThreshold":0.05,"exampleCost":0.01},"classroomParams":{"A":{"a":1,"b":4},"B":{"a":4,"b":1},"C":{"a":2,"b":8},"D":{"a":8,"b":2}},"conditions":["nonSeqFull","nonSeqPartial","seqNoFeedback","seqFeedback"],"classroomPairings":[["A","B"],["C","D"]],"coinWeights":[0.2,0.5,0.8],"subjectId":"AHYTT3T8W9Y9Y","assignmentId":"3I02618YA1SUIUXBD7XST0EPCZKPUS","hitId":"3J94SKDEKIB2MY6CGVTNWB9X0ALD5P","url":"https://gershmanlab.com/experiments/alicia/teaching/experiment/?hitId=3J94SKDEKIB2MY6CGVTNWB9X0ALD5P&workerId=AHYTT3T8W9Y9Y&assignmentId=3I02618YA1SUIUXBD7XST0EPCZKPUS&a=Y60I9&tp_a=Y60I9&b=3I02618YA1SUIUXBD7XST0EPCZKPUS&tp_b=3I02618YA1SUIUXBD7XST0EPCZKPUS&c=365799&tp_c=365799"},{"rt":31805,"response":{"Q0":"Students in different classrooms will have seen a different number of heads and tails before seeing the examples you select for them.","Q1":"By <b>considering the student's classroom information</b> so that I can teach efficiently and accurately/helpfully at the same time (because each example I give to the student costs money!).","Q2":"The coin lands heads 90% of the time.","Q3":"Yes, I might encounter the same student twice.","Q4":"The students are also on the same alien planet as you, where coins can be unfair.","Q5":"Based on both guesses."},"question_order":[4,2,0,1,3,5],"trial_type":"survey-multi-choice","trial_index":6,"time_elapsed":365138,"internal_node_id":"0.0-2.1-1.1","params":{"nStudents":24,"maxFlips":30,"completionMinutes":45,"basePay":8,"maxBonus":9,"perTrialBonus":0.5,"perTrialBonusThreshold":0.05,"exampleCost":0.01},"classroomParams":{"A":{"a":1,"b":4},"B":{"a":4,"b":1},"C":{"a":2,"b":8},"D":{"a":8,"b":2}},"conditions":["nonSeqFull","nonSeqPartial","seqNoFeedback","seqFeedback"],"classroomPairings":[["A","B"],["C","D"]],"coinWeights":[0.2,0.5,0.8],"subjectId":"AHYTT3T8W9Y9Y","assignmentId":"3I02618YA1SUIUXBD7XST0EPCZKPUS","hitId":"3J94SKDEKIB2MY6CGVTNWB9X0ALD5P","url":"https://gershmanlab.com/experiments/alicia/teaching/experiment/?hitId=3J94SKDEKIB2MY6CGVTNWB9X0ALD5P&workerId=AHYTT3T8W9Y9Y&assignmentId=3I02618YA1SUIUXBD7XST0EPCZKPUS&a=Y60I9&tp_a=Y60I9&b=3I02618YA1SUIUXBD7XST0EPCZKPUS&tp_b=3I02618YA1SUIUXBD7XST0EPCZKPUS&c=365799&tp_c=365799","pass":false},{"rt":45605,"stimulus":"Oops, you have missed question(s) on the comprehension check! We'll show you the instructions again.","response":0,"trial_type":"html-button-response","trial_index":7,"time_elapsed":410749,"internal_node_id":"0.0-2.1-2.1-0.1","params":{"nStudents":24,"maxFlips":30,"completionMinutes":45,"basePay":8,"maxBonus":9,"perTrialBonus":0.5,"perTrialBonusThreshold":0.05,"exampleCost":0.01},"classroomParams":{"A":{"a":1,"b":4},"B":{"a":4,"b":1},"C":{"a":2,"b":8},"D":{"a":8,"b":2}},"conditions":["nonSeqFull","nonSeqPartial","seqNoFeedback","seqFeedback"],"classroomPairings":[["A","B"],["C","D"]],"coinWeights":[0.2,0.5,0.8],"subjectId":"AHYTT3T8W9Y9Y","assignmentId":"3I02618YA1SUIUXBD7XST0EPCZKPUS","hitId":"3J94SKDEKIB2MY6CGVTNWB9X0ALD5P","url":"https://gershmanlab.com/experiments/alicia/teaching/experiment/?hitId=3J94SKDEKIB2MY6CGVTNWB9X0ALD5P&workerId=AHYTT3T8W9Y9Y&assignmentId=3I02618YA1SUIUXBD7XST0EPCZKPUS&a=Y60I9&tp_a=Y60I9&b=3I02618YA1SUIUXBD7XST0EPCZKPUS&tp_b=3I02618YA1SUIUXBD7XST0EPCZKPUS&c=365799&tp_c=365799"},{"view_history":[{"page_index":0,"viewing_time":3622},{"page_index":1,"viewing_time":671},{"page_index":2,"viewing_time":17724},{"page_index":3,"viewing_time":600},{"page_index":4,"viewing_time":881},{"page_index":5,"viewing_time":1383},{"page_index":6,"viewing_time":3554}],"rt":28435,"trial_type":"instructions","trial_index":8,"time_elapsed":439185,"internal_node_id":"0.0-2.2-0.2","params":{"nStudents":24,"maxFlips":30,"completionMinutes":45,"basePay":8,"maxBonus":9,"perTrialBonus":0.5,"perTrialBonusThreshold":0.05,"exampleCost":0.01},"classroomParams":{"A":{"a":1,"b":4},"B":{"a":4,"b":1},"C":{"a":2,"b":8},"D":{"a":8,"b":2}},"conditions":["nonSeqFull","nonSeqPartial","seqNoFeedback","seqFeedback"],"classroomPairings":[["A","B"],["C","D"]],"coinWeights":[0.2,0.5,0.8],"subjectId":"AHYTT3T8W9Y9Y","assignmentId":"3I02618YA1SUIUXBD7XST0EPCZKPUS","hitId":"3J94SKDEKIB2MY6CGVTNWB9X0ALD5P","url":"https://gershmanlab.com/experiments/alicia/teaching/experiment/?hitId=3J94SKDEKIB2MY6CGVTNWB9X0ALD5P&workerId=AHYTT3T8W9Y9Y&assignmentId=3I02618YA1SUIUXBD7XST0EPCZKPUS&a=Y60I9&tp_a=Y60I9&b=3I02618YA1SUIUXBD7XST0EPCZKPUS&tp_b=3I02618YA1SUIUXBD7XST0EPCZKPUS&c=365799&tp_c=365799"},{"rt":60286,"response":{"Q0":"Students in different classrooms will have seen a different number of heads and tails before seeing the examples you select for them.","Q1":"By <b>considering the student's classroom information</b> so that I can teach efficiently and accurately/helpfully at the same time (because each example I give to the student costs money!).","Q2":"The coin lands heads 90% of the time.","Q3":"Yes, I might encounter the same student twice.","Q4":"The students are also on the same alien planet as you, where coins can be unfair.","Q5":"Based on the student's second (and final) guess."},"question_order":[5,2,3,4,1,0],"trial_type":"survey-multi-choice","trial_index":9,"time_elapsed":499474,"internal_node_id":"0.0-2.2-1.2","params":{"nStudents":24,"maxFlips":30,"completionMinutes":45,"basePay":8,"maxBonus":9,"perTrialBonus":0.5,"perTrialBonusThreshold":0.05,"exampleCost":0.01},"classroomParams":{"A":{"a":1,"b":4},"B":{"a":4,"b":1},"C":{"a":2,"b":8},"D":{"a":8,"b":2}},"conditions":["nonSeqFull","nonSeqPartial","seqNoFeedback","seqFeedback"],"classroomPairings":[["A","B"],["C","D"]],"coinWeights":[0.2,0.5,0.8],"subjectId":"AHYTT3T8W9Y9Y","assignmentId":"3I02618YA1SUIUXBD7XST0EPCZKPUS","hitId":"3J94SKDEKIB2MY6CGVTNWB9X0ALD5P","url":"https://gershmanlab.com/experiments/alicia/teaching/experiment/?hitId=3J94SKDEKIB2MY6CGVTNWB9X0ALD5P&workerId=AHYTT3T8W9Y9Y&assignmentId=3I02618YA1SUIUXBD7XST0EPCZKPUS&a=Y60I9&tp_a=Y60I9&b=3I02618YA1SUIUXBD7XST0EPCZKPUS&tp_b=3I02618YA1SUIUXBD7XST0EPCZKPUS&c=365799&tp_c=365799","pass":false},{"rt":4330,"stimulus":"Oops, you have missed question(s) on the comprehension check! We'll show you the instructions again.","response":0,"trial_type":"html-button-response","trial_index":10,"time_elapsed":503810,"internal_node_id":"0.0-2.2-2.2-0.2","params":{"nStudents":24,"maxFlips":30,"completionMinutes":45,"basePay":8,"maxBonus":9,"perTrialBonus":0.5,"perTrialBonusThreshold":0.05,"exampleCost":0.01},"classroomParams":{"A":{"a":1,"b":4},"B":{"a":4,"b":1},"C":{"a":2,"b":8},"D":{"a":8,"b":2}},"conditions":["nonSeqFull","nonSeqPartial","seqNoFeedback","seqFeedback"],"classroomPairings":[["A","B"],["C","D"]],"coinWeights":[0.2,0.5,0.8],"subjectId":"AHYTT3T8W9Y9Y","assignmentId":"3I02618YA1SUIUXBD7XST0EPCZKPUS","hitId":"3J94SKDEKIB2MY6CGVTNWB9X0ALD5P","url":"https://gershmanlab.com/experiments/alicia/teaching/experiment/?hitId=3J94SKDEKIB2MY6CGVTNWB9X0ALD5P&workerId=AHYTT3T8W9Y9Y&assignmentId=3I02618YA1SUIUXBD7XST0EPCZKPUS&a=Y60I9&tp_a=Y60I9&b=3I02618YA1SUIUXBD7XST0EPCZKPUS&tp_b=3I02618YA1SUIUXBD7XST0EPCZKPUS&c=365799&tp_c=365799"},{"view_history":[{"page_index":0,"viewing_time":1446},{"page_index":1,"viewing_time":1457},{"page_index":2,"viewing_time":5857},{"page_index":3,"viewing_time":655},{"page_index":4,"viewing_time":1152},{"page_index":5,"viewing_time":825},{"page_index":6,"viewing_time":1409}],"rt":12801,"trial_type":"instructions","trial_index":11,"time_elapsed":516611,"internal_node_id":"0.0-2.3-0.3","params":{"nStudents":24,"maxFlips":30,"completionMinutes":45,"basePay":8,"maxBonus":9,"perTrialBonus":0.5,"perTrialBonusThreshold":0.05,"exampleCost":0.01},"classroomParams":{"A":{"a":1,"b":4},"B":{"a":4,"b":1},"C":{"a":2,"b":8},"D":{"a":8,"b":2}},"conditions":["nonSeqFull","nonSeqPartial","seqNoFeedback","seqFeedback"],"classroomPairings":[["A","B"],["C","D"]],"coinWeights":[0.2,0.5,0.8],"subjectId":"AHYTT3T8W9Y9Y","assignmentId":"3I02618YA1SUIUXBD7XST0EPCZKPUS","hitId":"3J94SKDEKIB2MY6CGVTNWB9X0ALD5P","url":"https://gershmanlab.com/experiments/alicia/teaching/experiment/?hitId=3J94SKDEKIB2MY6CGVTNWB9X0ALD5P&workerId=AHYTT3T8W9Y9Y&assignmentId=3I02618YA1SUIUXBD7XST0EPCZKPUS&a=Y60I9&tp_a=Y60I9&b=3I02618YA1SUIUXBD7XST0EPCZKPUS&tp_b=3I02618YA1SUIUXBD7XST0EPCZKPUS&c=365799&tp_c=365799"},{"rt":54997,"response":{"Q0":"Students in different classrooms will have seen a different number of heads and tails before seeing the examples you select for them.","Q1":"By <b>considering the student's classroom information</b> so that I can teach efficiently and accurately/helpfully at the same time (because each example I give to the student costs money!).","Q2":"The coin lands heads 90% of the time.","Q3":"No, I will teach a <b>new</b> student each time.","Q4":"The students are also on the same alien planet as you, where coins can be unfair.","Q5":"Based on the student's second (and final) guess."},"question_order":[2,0,5,1,3,4],"trial_type":"survey-multi-choice","trial_index":12,"time_elapsed":571612,"internal_node_id":"0.0-2.3-1.3","params":{"nStudents":24,"maxFlips":30,"completionMinutes":45,"basePay":8,"maxBonus":9,"perTrialBonus":0.5,"perTrialBonusThreshold":0.05,"exampleCost":0.01},"classroomParams":{"A":{"a":1,"b":4},"B":{"a":4,"b":1},"C":{"a":2,"b":8},"D":{"a":8,"b":2}},"conditions":["nonSeqFull","nonSeqPartial","seqNoFeedback","seqFeedback"],"classroomPairings":[["A","B"],["C","D"]],"coinWeights":[0.2,0.5,0.8],"subjectId":"AHYTT3T8W9Y9Y","assignmentId":"3I02618YA1SUIUXBD7XST0EPCZKPUS","hitId":"3J94SKDEKIB2MY6CGVTNWB9X0ALD5P","url":"https://gershmanlab.com/experiments/alicia/teaching/experiment/?hitId=3J94SKDEKIB2MY6CGVTNWB9X0ALD5P&workerId=AHYTT3T8W9Y9Y&assignmentId=3I02618YA1SUIUXBD7XST0EPCZKPUS&a=Y60I9&tp_a=Y60I9&b=3I02618YA1SUIUXBD7XST0EPCZKPUS&tp_b=3I02618YA1SUIUXBD7XST0EPCZKPUS&c=365799&tp_c=365799","pass":true},{"rt":null,"stimulus":"<div style=\"font-size:30px;\">Congrats on passing the comprehension quiz! The experiment will begin in a few seconds.</div>","response":null,"trial_type":"html-keyboard-response","trial_index":13,"time_elapsed":574623,"internal_node_id":"0.0-3.0","params":{"nStudents":24,"maxFlips":30,"completionMinutes":45,"basePay":8,"maxBonus":9,"perTrialBonus":0.5,"perTrialBonusThreshold":0.05,"exampleCost":0.01},"classroomParams":{"A":{"a":1,"b":4},"B":{"a":4,"b":1},"C":{"a":2,"b":8},"D":{"a":8,"b":2}},"conditions":["nonSeqFull","nonSeqPartial","seqNoFeedback","seqFeedback"],"classroomPairings":[["A","B"],["C","D"]],"coinWeights":[0.2,0.5,0.8],"subjectId":"AHYTT3T8W9Y9Y","assignmentId":"3I02618YA1SUIUXBD7XST0EPCZKPUS","hitId":"3J94SKDEKIB2MY6CGVTNWB9X0ALD5P","url":"https://gershmanlab.com/experiments/alicia/teaching/experiment/?hitId=3J94SKDEKIB2MY6CGVTNWB9X0ALD5P&workerId=AHYTT3T8W9Y9Y&assignmentId=3I02618YA1SUIUXBD7XST0EPCZKPUS&a=Y60I9&tp_a=Y60I9&b=3I02618YA1SUIUXBD7XST0EPCZKPUS&tp_b=3I02618YA1SUIUXBD7XST0EPCZKPUS&c=365799&tp_c=365799"},{"rt":null,"stimulus":"<div style=\"font-size:50px;\">First student</div>","response":null,"trial_type":"html-keyboard-response","trial_index":14,"time_elapsed":577625,"internal_node_id":"0.0-4.0","params":{"nStudents":24,"maxFlips":30,"completionMinutes":45,"basePay":8,"maxBonus":9,"perTrialBonus":0.5,"perTrialBonusThreshold":0.05,"exampleCost":0.01},"classroomParams":{"A":{"a":1,"b":4},"B":{"a":4,"b":1},"C":{"a":2,"b":8},"D":{"a":8,"b":2}},"conditions":["nonSeqFull","nonSeqPartial","seqNoFeedback","seqFeedback"],"classroomPairings":[["A","B"],["C","D"]],"coinWeights":[0.2,0.5,0.8],"subjectId":"AHYTT3T8W9Y9Y","assignmentId":"3I02618YA1SUIUXBD7XST0EPCZKPUS","hitId":"3J94SKDEKIB2MY6CGVTNWB9X0ALD5P","url":"https://gershmanlab.com/experiments/alicia/teaching/experiment/?hitId=3J94SKDEKIB2MY6CGVTNWB9X0ALD5P&workerId=AHYTT3T8W9Y9Y&assignmentId=3I02618YA1SUIUXBD7XST0EPCZKPUS&a=Y60I9&tp_a=Y60I9&b=3I02618YA1SUIUXBD7XST0EPCZKPUS&tp_b=3I02618YA1SUIUXBD7XST0EPCZKPUS&c=365799&tp_c=365799"},{"rt":13275,"stimulus":"\n            <h4 style=\"color:Orange;\">Student 1</h4>\n            <h2>The weight of your coin is <b style=\"color:Tomato;\">0.8</b>.</h2>\n            <p>In this block, you will be giving <b>two</b> sets of examples to Student 1.</p>\n                <p>You will see the student's guess after the first set of examples. You will also receive feedback at the end of the block.</p>\n            <p>To earn the highest bonus, you will have to <b>take into consideration the student's guess</b> when you choose your second set of examples.</p>","response":0,"trial_type":"html-button-response","trial_index":15,"time_elapsed":590901,"internal_node_id":"0.0-5.0","params":{"nStudents":24,"maxFlips":30,"completionMinutes":45,"basePay":8,"maxBonus":9,"perTrialBonus":0.5,"perTrialBonusThreshold":0.05,"exampleCost":0.01},"classroomParams":{"A":{"a":1,"b":4},"B":{"a":4,"b":1},"C":{"a":2,"b":8},"D":{"a":8,"b":2}},"conditions":["nonSeqFull","nonSeqPartial","seqNoFeedback","seqFeedback"],"classroomPairings":[["A","B"],["C","D"]],"coinWeights":[0.2,0.5,0.8],"subjectId":"AHYTT3T8W9Y9Y","assignmentId":"3I02618YA1SUIUXBD7XST0EPCZKPUS","hitId":"3J94SKDEKIB2MY6CGVTNWB9X0ALD5P","url":"https://gershmanlab.com/experiments/alicia/teaching/experiment/?hitId=3J94SKDEKIB2MY6CGVTNWB9X0ALD5P&workerId=AHYTT3T8W9Y9Y&assignmentId=3I02618YA1SUIUXBD7XST0EPCZKPUS&a=Y60I9&tp_a=Y60I9&b=3I02618YA1SUIUXBD7XST0EPCZKPUS&tp_b=3I02618YA1SUIUXBD7XST0EPCZKPUS&c=365799&tp_c=365799"},{"rt":41058,"response":{"heads":"4","tails":"1"},"type":"response","condition":"seqFeedback","trueTheta":0.8,"classrooms":["A","B"],"studentTrueClassroom":"B","exampleSet":"first","trial_type":"survey-html-form","trial_index":16,"time_elapsed":631962,"internal_node_id":"0.0-6.0-0.0","params":{"nStudents":24,"maxFlips":30,"completionMinutes":45,"basePay":8,"maxBonus":9,"perTrialBonus":0.5,"perTrialBonusThreshold":0.05,"exampleCost":0.01},"classroomParams":{"A":{"a":1,"b":4},"B":{"a":4,"b":1},"C":{"a":2,"b":8},"D":{"a":8,"b":2}},"conditions":["nonSeqFull","nonSeqPartial","seqNoFeedback","seqFeedback"],"classroomPairings":[["A","B"],["C","D"]],"coinWeights":[0.2,0.5,0.8],"subjectId":"AHYTT3T8W9Y9Y","assignmentId":"3I02618YA1SUIUXBD7XST0EPCZKPUS","hitId":"3J94SKDEKIB2MY6CGVTNWB9X0ALD5P","url":"https://gershmanlab.com/experiments/alicia/teaching/experiment/?hitId=3J94SKDEKIB2MY6CGVTNWB9X0ALD5P&workerId=AHYTT3T8W9Y9Y&assignmentId=3I02618YA1SUIUXBD7XST0EPCZKPUS&a=Y60I9&tp_a=Y60I9&b=3I02618YA1SUIUXBD7XST0EPCZKPUS&tp_b=3I02618YA1SUIUXBD7XST0EPCZKPUS&c=365799&tp_c=365799","heads":4,"tails":1,"studentIndex":0,"studentTrueHypers":{"a":4,"b":1},"studentGuess":0.8,"delta":0,"totalExamples":5,"bonusSoFar":0},{"rt":null,"stimulus":"Sending examples to student... ","response":null,"trial_type":"html-keyboard-response","trial_index":17,"time_elapsed":633966,"internal_node_id":"0.0-7.0","params":{"nStudents":24,"maxFlips":30,"completionMinutes":45,"basePay":8,"maxBonus":9,"perTrialBonus":0.5,"perTrialBonusThreshold":0.05,"exampleCost":0.01},"classroomParams":{"A":{"a":1,"b":4},"B":{"a":4,"b":1},"C":{"a":2,"b":8},"D":{"a":8,"b":2}},"conditions":["nonSeqFull","nonSeqPartial","seqNoFeedback","seqFeedback"],"classroomPairings":[["A","B"],["C","D"]],"coinWeights":[0.2,0.5,0.8],"subjectId":"AHYTT3T8W9Y9Y","assignmentId":"3I02618YA1SUIUXBD7XST0EPCZKPUS","hitId":"3J94SKDEKIB2MY6CGVTNWB9X0ALD5P","url":"https://gershmanlab.com/experiments/alicia/teaching/experiment/?hitId=3J94SKDEKIB2MY6CGVTNWB9X0ALD5P&workerId=AHYTT3T8W9Y9Y&assignmentId=3I02618YA1SUIUXBD7XST0EPCZKPUS&a=Y60I9&tp_a=Y60I9&b=3I02618YA1SUIUXBD7XST0EPCZKPUS&tp_b=3I02618YA1SUIUXBD7XST0EPCZKPUS&c=365799&tp_c=365799"},{"rt":null,"stimulus":"Examples sent to student! Waiting for student...","response":null,"trial_type":"html-keyboard-response","trial_index":18,"time_elapsed":637968,"internal_node_id":"0.0-8.0","params":{"nStudents":24,"maxFlips":30,"completionMinutes":45,"basePay":8,"maxBonus":9,"perTrialBonus":0.5,"perTrialBonusThreshold":0.05,"exampleCost":0.01},"classroomParams":{"A":{"a":1,"b":4},"B":{"a":4,"b":1},"C":{"a":2,"b":8},"D":{"a":8,"b":2}},"conditions":["nonSeqFull","nonSeqPartial","seqNoFeedback","seqFeedback"],"classroomPairings":[["A","B"],["C","D"]],"coinWeights":[0.2,0.5,0.8],"subjectId":"AHYTT3T8W9Y9Y","assignmentId":"3I02618YA1SUIUXBD7XST0EPCZKPUS","hitId":"3J94SKDEKIB2MY6CGVTNWB9X0ALD5P","url":"https://gershmanlab.com/experiments/alicia/teaching/experiment/?hitId=3J94SKDEKIB2MY6CGVTNWB9X0ALD5P&workerId=AHYTT3T8W9Y9Y&assignmentId=3I02618YA1SUIUXBD7XST0EPCZKPUS&a=Y60I9&tp_a=Y60I9&b=3I02618YA1SUIUXBD7XST0EPCZKPUS&tp_b=3I02618YA1SUIUXBD7XST0EPCZKPUS&c=365799&tp_c=365799"},{"rt":10222,"stimulus":"\n                <p>Student's guess for coin weight: <b style=\"color:Tomato;\">0.80</b></p>\n                <p></b></p>\n                <p>You will now send another set of examples to your student. <b>Remember to take your student's guess into consideration so that you can earn the highest bonus possible!</b> </p>\n                <p>Press any key to continue.</p>\n                ","response":" ","trial_type":"html-keyboard-response","trial_index":19,"time_elapsed":648192,"internal_node_id":"0.0-9.0","params":{"nStudents":24,"maxFlips":30,"completionMinutes":45,"basePay":8,"maxBonus":9,"perTrialBonus":0.5,"perTrialBonusThreshold":0.05,"exampleCost":0.01},"classroomParams":{"A":{"a":1,"b":4},"B":{"a":4,"b":1},"C":{"a":2,"b":8},"D":{"a":8,"b":2}},"conditions":["nonSeqFull","nonSeqPartial","seqNoFeedback","seqFeedback"],"classroomPairings":[["A","B"],["C","D"]],"coinWeights":[0.2,0.5,0.8],"subjectId":"AHYTT3T8W9Y9Y","assignmentId":"3I02618YA1SUIUXBD7XST0EPCZKPUS","hitId":"3J94SKDEKIB2MY6CGVTNWB9X0ALD5P","url":"https://gershmanlab.com/experiments/alicia/teaching/experiment/?hitId=3J94SKDEKIB2MY6CGVTNWB9X0ALD5P&workerId=AHYTT3T8W9Y9Y&assignmentId=3I02618YA1SUIUXBD7XST0EPCZKPUS&a=Y60I9&tp_a=Y60I9&b=3I02618YA1SUIUXBD7XST0EPCZKPUS&tp_b=3I02618YA1SUIUXBD7XST0EPCZKPUS&c=365799&tp_c=365799"},{"rt":32127,"response":{"heads":"6","tails":"1"},"type":"response","condition":"seqFeedback","trueTheta":0.8,"classrooms":["A","B"],"studentTrueClassroom":"B","exampleSet":"second","trial_type":"survey-html-form","trial_index":20,"time_elapsed":680321,"internal_node_id":"0.0-10.0-0.0","params":{"nStudents":24,"maxFlips":30,"completionMinutes":45,"basePay":8,"maxBonus":9,"perTrialBonus":0.5,"perTrialBonusThreshold":0.05,"exampleCost":0.01},"classroomParams":{"A":{"a":1,"b":4},"B":{"a":4,"b":1},"C":{"a":2,"b":8},"D":{"a":8,"b":2}},"conditions":["nonSeqFull","nonSeqPartial","seqNoFeedback","seqFeedback"],"classroomPairings":[["A","B"],["C","D"]],"coinWeights":[0.2,0.5,0.8],"subjectId":"AHYTT3T8W9Y9Y","assignmentId":"3I02618YA1SUIUXBD7XST0EPCZKPUS","hitId":"3J94SKDEKIB2MY6CGVTNWB9X0ALD5P","url":"https://gershmanlab.com/experiments/alicia/teaching/experiment/?hitId=3J94SKDEKIB2MY6CGVTNWB9X0ALD5P&workerId=AHYTT3T8W9Y9Y&assignmentId=3I02618YA1SUIUXBD7XST0EPCZKPUS&a=Y60I9&tp_a=Y60I9&b=3I02618YA1SUIUXBD7XST0EPCZKPUS&tp_b=3I02618YA1SUIUXBD7XST0EPCZKPUS&c=365799&tp_c=365799","firstResponseHeads":4,"firstResponseTails":1,"secondResponseHeads":6,"secondResponseTails":1,"totalHeads":10,"totalTails":2,"studentIndex":0,"studentTrueHypers":{"a":4,"b":1},"studentGuess":0.8235294117647058,"delta":0.0235294117647058,"bonus":0.38,"bonusSoFar":0.38,"totalExamples":12},{"rt":null,"stimulus":"Sending examples to student... ","response":null,"trial_type":"html-keyboard-response","trial_index":21,"time_elapsed":682073,"internal_node_id":"0.0-11.0","params":{"nStudents":24,"maxFlips":30,"completionMinutes":45,"basePay":8,"maxBonus":9,"perTrialBonus":0.5,"perTrialBonusThreshold":0.05,"exampleCost":0.01},"classroomParams":{"A":{"a":1,"b":4},"B":{"a":4,"b":1},"C":{"a":2,"b":8},"D":{"a":8,"b":2}},"conditions":["nonSeqFull","nonSeqPartial","seqNoFeedback","seqFeedback"],"classroomPairings":[["A","B"],["C","D"]],"coinWeights":[0.2,0.5,0.8],"subjectId":"AHYTT3T8W9Y9Y","assignmentId":"3I02618YA1SUIUXBD7XST0EPCZKPUS","hitId":"3J94SKDEKIB2MY6CGVTNWB9X0ALD5P","url":"https://gershmanlab.com/experiments/alicia/teaching/experiment/?hitId=3J94SKDEKIB2MY6CGVTNWB9X0ALD5P&workerId=AHYTT3T8W9Y9Y&assignmentId=3I02618YA1SUIUXBD7XST0EPCZKPUS&a=Y60I9&tp_a=Y60I9&b=3I02618YA1SUIUXBD7XST0EPCZKPUS&tp_b=3I02618YA1SUIUXBD7XST0EPCZKPUS&c=365799&tp_c=365799"},{"rt":null,"stimulus":"Examples sent to student! Waiting for student...","response":null,"trial_type":"html-keyboard-response","trial_index":22,"time_elapsed":687075,"internal_node_id":"0.0-12.0","params":{"nStudents":24,"maxFlips":30,"completionMinutes":45,"basePay":8,"maxBonus":9,"perTrialBonus":0.5,"perTrialBonusThreshold":0.05,"exampleCost":0.01},"classroomParams":{"A":{"a":1,"b":4},"B":{"a":4,"b":1},"C":{"a":2,"b":8},"D":{"a":8,"b":2}},"conditions":["nonSeqFull","nonSeqPartial","seqNoFeedback","seqFeedback"],"classroomPairings":[["A","B"],["C","D"]],"coinWeights":[0.2,0.5,0.8],"subjectId":"AHYTT3T8W9Y9Y","assignmentId":"3I02618YA1SUIUXBD7XST0EPCZKPUS","hitId":"3J94SKDEKIB2MY6CGVTNWB9X0ALD5P","url":"https://gershmanlab.com/experiments/alicia/teaching/experiment/?hitId=3J94SKDEKIB2MY6CGVTNWB9X0ALD5P&workerId=AHYTT3T8W9Y9Y&assignmentId=3I02618YA1SUIUXBD7XST0EPCZKPUS&a=Y60I9&tp_a=Y60I9&b=3I02618YA1SUIUXBD7XST0EPCZKPUS&tp_b=3I02618YA1SUIUXBD7XST0EPCZKPUS&c=365799&tp_c=365799"},{"rt":6738,"stimulus":"\n                <p>Student 1's first guess for coin weight: <b style=\"color:Tomato\";>0.80</b></p>\n                <p>Student 1's second guess for coin weight: <b style=\"color:Tomato\";>0.82</b></p>\n                <p>You received a bonus of <b>$0.38</b> based on the student's second guess.</p>\n                <p>Total bonus so far: <b>$0.38</b></p>\n                <p>Press any key to continue.</p>\n                ","response":" ","trial_type":"html-keyboard-response","trial_index":23,"time_elapsed":693814,"internal_node_id":"0.0-13.0","params":{"nStudents":24,"maxFlips":30,"completionMinutes":45,"basePay":8,"maxBonus":9,"perTrialBonus":0.5,"perTrialBonusThreshold":0.05,"exampleCost":0.01},"classroomParams":{"A":{"a":1,"b":4},"B":{"a":4,"b":1},"C":{"a":2,"b":8},"D":{"a":8,"b":2}},"conditions":["nonSeqFull","nonSeqPartial","seqNoFeedback","seqFeedback"],"classroomPairings":[["A","B"],["C","D"]],"coinWeights":[0.2,0.5,0.8],"subjectId":"AHYTT3T8W9Y9Y","assignmentId":"3I02618YA1SUIUXBD7XST0EPCZKPUS","hitId":"3J94SKDEKIB2MY6CGVTNWB9X0ALD5P","url":"https://gershmanlab.com/experiments/alicia/teaching/experiment/?hitId=3J94SKDEKIB2MY6CGVTNWB9X0ALD5P&workerId=AHYTT3T8W9Y9Y&assignmentId=3I02618YA1SUIUXBD7XST0EPCZKPUS&a=Y60I9&tp_a=Y60I9&b=3I02618YA1SUIUXBD7XST0EPCZKPUS&tp_b=3I02618YA1SUIUXBD7XST0EPCZKPUS&c=365799&tp_c=365799"},{"rt":null,"stimulus":"<div style=\"font-size:60px;\">Next student</div>","response":null,"trial_type":"html-keyboard-response","trial_index":24,"time_elapsed":696816,"internal_node_id":"0.0-14.0-0.0","params":{"nStudents":24,"maxFlips":30,"completionMinutes":45,"basePay":8,"maxBonus":9,"perTrialBonus":0.5,"perTrialBonusThreshold":0.05,"exampleCost":0.01},"classroomParams":{"A":{"a":1,"b":4},"B":{"a":4,"b":1},"C":{"a":2,"b":8},"D":{"a":8,"b":2}},"conditions":["nonSeqFull","nonSeqPartial","seqNoFeedback","seqFeedback"],"classroomPairings":[["A","B"],["C","D"]],"coinWeights":[0.2,0.5,0.8],"subjectId":"AHYTT3T8W9Y9Y","assignmentId":"3I02618YA1SUIUXBD7XST0EPCZKPUS","hitId":"3J94SKDEKIB2MY6CGVTNWB9X0ALD5P","url":"https://gershmanlab.com/experiments/alicia/teaching/experiment/?hitId=3J94SKDEKIB2MY6CGVTNWB9X0ALD5P&workerId=AHYTT3T8W9Y9Y&assignmentId=3I02618YA1SUIUXBD7XST0EPCZKPUS&a=Y60I9&tp_a=Y60I9&b=3I02618YA1SUIUXBD7XST0EPCZKPUS&tp_b=3I02618YA1SUIUXBD7XST0EPCZKPUS&c=365799&tp_c=365799"},{"rt":3768,"stimulus":"\n            <h4 style=\"color:Orange;\">Student 2</h4>\n            <h2>The weight of your coin is <b style=\"color:Tomato;\">0.2</b>.</h2>\n            <p>In this block, you will be giving <b>two</b> sets of examples to Student 2.</p>\n                <p>You will receive feedback at the end of the block.</p>\n            <p></p>","response":0,"trial_type":"html-button-response","trial_index":25,"time_elapsed":700585,"internal_node_id":"0.0-15.0","params":{"nStudents":24,"maxFlips":30,"completionMinutes":45,"basePay":8,"maxBonus":9,"perTrialBonus":0.5,"perTrialBonusThreshold":0.05,"exampleCost":0.01},"classroomParams":{"A":{"a":1,"b":4},"B":{"a":4,"b":1},"C":{"a":2,"b":8},"D":{"a":8,"b":2}},"conditions":["nonSeqFull","nonSeqPartial","seqNoFeedback","seqFeedback"],"classroomPairings":[["A","B"],["C","D"]],"coinWeights":[0.2,0.5,0.8],"subjectId":"AHYTT3T8W9Y9Y","assignmentId":"3I02618YA1SUIUXBD7XST0EPCZKPUS","hitId":"3J94SKDEKIB2MY6CGVTNWB9X0ALD5P","url":"https://gershmanlab.com/experiments/alicia/teaching/experiment/?hitId=3J94SKDEKIB2MY6CGVTNWB9X0ALD5P&workerId=AHYTT3T8W9Y9Y&assignmentId=3I02618YA1SUIUXBD7XST0EPCZKPUS&a=Y60I9&tp_a=Y60I9&b=3I02618YA1SUIUXBD7XST0EPCZKPUS&tp_b=3I02618YA1SUIUXBD7XST0EPCZKPUS&c=365799&tp_c=365799"},{"rt":15555,"response":{"heads":"1","tails":"4"},"type":"response","condition":"seqNoFeedback","trueTheta":0.2,"classrooms":["A","B"],"studentTrueClassroom":"A","exampleSet":"first","trial_type":"survey-html-form","trial_index":26,"time_elapsed":716142,"internal_node_id":"0.0-16.0-0.0","params":{"nStudents":24,"maxFlips":30,"completionMinutes":45,"basePay":8,"maxBonus":9,"perTrialBonus":0.5,"perTrialBonusThreshold":0.05,"exampleCost":0.01},"classroomParams":{"A":{"a":1,"b":4},"B":{"a":4,"b":1},"C":{"a":2,"b":8},"D":{"a":8,"b":2}},"conditions":["nonSeqFull","nonSeqPartial","seqNoFeedback","seqFeedback"],"classroomPairings":[["A","B"],["C","D"]],"coinWeights":[0.2,0.5,0.8],"subjectId":"AHYTT3T8W9Y9Y","assignmentId":"3I02618YA1SUIUXBD7XST0EPCZKPUS","hitId":"3J94SKDEKIB2MY6CGVTNWB9X0ALD5P","url":"https://gershmanlab.com/experiments/alicia/teaching/experiment/?hitId=3J94SKDEKIB2MY6CGVTNWB9X0ALD5P&workerId=AHYTT3T8W9Y9Y&assignmentId=3I02618YA1SUIUXBD7XST0EPCZKPUS&a=Y60I9&tp_a=Y60I9&b=3I02618YA1SUIUXBD7XST0EPCZKPUS&tp_b=3I02618YA1SUIUXBD7XST0EPCZKPUS&c=365799&tp_c=365799","heads":1,"tails":4,"studentIndex":1,"studentTrueHypers":{"a":1,"b":4},"studentGuess":0.2,"delta":0,"totalExamples":5,"bonusSoFar":0.38},{"rt":null,"stimulus":"Sending examples to student... ","response":null,"trial_type":"html-keyboard-response","trial_index":27,"time_elapsed":718147,"internal_node_id":"0.0-17.0","params":{"nStudents":24,"maxFlips":30,"completionMinutes":45,"basePay":8,"maxBonus":9,"perTrialBonus":0.5,"perTrialBonusThreshold":0.05,"exampleCost":0.01},"classroomParams":{"A":{"a":1,"b":4},"B":{"a":4,"b":1},"C":{"a":2,"b":8},"D":{"a":8,"b":2}},"conditions":["nonSeqFull","nonSeqPartial","seqNoFeedback","seqFeedback"],"classroomPairings":[["A","B"],["C","D"]],"coinWeights":[0.2,0.5,0.8],"subjectId":"AHYTT3T8W9Y9Y","assignmentId":"3I02618YA1SUIUXBD7XST0EPCZKPUS","hitId":"3J94SKDEKIB2MY6CGVTNWB9X0ALD5P","url":"https://gershmanlab.com/experiments/alicia/teaching/experiment/?hitId=3J94SKDEKIB2MY6CGVTNWB9X0ALD5P&workerId=AHYTT3T8W9Y9Y&assignmentId=3I02618YA1SUIUXBD7XST0EPCZKPUS&a=Y60I9&tp_a=Y60I9&b=3I02618YA1SUIUXBD7XST0EPCZKPUS&tp_b=3I02618YA1SUIUXBD7XST0EPCZKPUS&c=365799&tp_c=365799"},{"rt":null,"stimulus":"Examples sent to student! Waiting for student...","response":null,"trial_type":"html-keyboard-response","trial_index":28,"time_elapsed":722148,"internal_node_id":"0.0-18.0","params":{"nStudents":24,"maxFlips":30,"completionMinutes":45,"basePay":8,"maxBonus":9,"perTrialBonus":0.5,"perTrialBonusThreshold":0.05,"exampleCost":0.01},"classroomParams":{"A":{"a":1,"b":4},"B":{"a":4,"b":1},"C":{"a":2,"b":8},"D":{"a":8,"b":2}},"conditions":["nonSeqFull","nonSeqPartial","seqNoFeedback","seqFeedback"],"classroomPairings":[["A","B"],["C","D"]],"coinWeights":[0.2,0.5,0.8],"subjectId":"AHYTT3T8W9Y9Y","assignmentId":"3I02618YA1SUIUXBD7XST0EPCZKPUS","hitId":"3J94SKDEKIB2MY6CGVTNWB9X0ALD5P","url":"https://gershmanlab.com/experiments/alicia/teaching/experiment/?hitId=3J94SKDEKIB2MY6CGVTNWB9X0ALD5P&workerId=AHYTT3T8W9Y9Y&assignmentId=3I02618YA1SUIUXBD7XST0EPCZKPUS&a=Y60I9&tp_a=Y60I9&b=3I02618YA1SUIUXBD7XST0EPCZKPUS&tp_b=3I02618YA1SUIUXBD7XST0EPCZKPUS&c=365799&tp_c=365799"},{"rt":14722,"response":{"heads":"2","tails":"6"},"type":"response","condition":"seqNoFeedback","trueTheta":0.2,"classrooms":["A","B"],"studentTrueClassroom":"A","exampleSet":"second","trial_type":"survey-html-form","trial_index":29,"time_elapsed":736873,"internal_node_id":"0.0-19.0-0.0","params":{"nStudents":24,"maxFlips":30,"completionMinutes":45,"basePay":8,"maxBonus":9,"perTrialBonus":0.5,"perTrialBonusThreshold":0.05,"exampleCost":0.01},"classroomParams":{"A":{"a":1,"b":4},"B":{"a":4,"b":1},"C":{"a":2,"b":8},"D":{"a":8,"b":2}},"conditions":["nonSeqFull","nonSeqPartial","seqNoFeedback","seqFeedback"],"classroomPairings":[["A","B"],["C","D"]],"coinWeights":[0.2,0.5,0.8],"subjectId":"AHYTT3T8W9Y9Y","assignmentId":"3I02618YA1SUIUXBD7XST0EPCZKPUS","hitId":"3J94SKDEKIB2MY6CGVTNWB9X0ALD5P","url":"https://gershmanlab.com/experiments/alicia/teaching/experiment/?hitId=3J94SKDEKIB2MY6CGVTNWB9X0ALD5P&workerId=AHYTT3T8W9Y9Y&assignmentId=3I02618YA1SUIUXBD7XST0EPCZKPUS&a=Y60I9&tp_a=Y60I9&b=3I02618YA1SUIUXBD7XST0EPCZKPUS&tp_b=3I02618YA1SUIUXBD7XST0EPCZKPUS&c=365799&tp_c=365799","firstResponseHeads":1,"firstResponseTails":4,"secondResponseHeads":2,"secondResponseTails":6,"totalHeads":3,"totalTails":10,"studentIndex":1,"studentTrueHypers":{"a":1,"b":4},"studentGuess":0.2222222222222222,"delta":0.0222222222222222,"bonus":0.37,"bonusSoFar":0.75,"totalExamples":13},{"rt":null,"stimulus":"Sending examples to student... ","response":null,"trial_type":"html-keyboard-response","trial_index":30,"time_elapsed":738124,"internal_node_id":"0.0-20.0","params":{"nStudents":24,"maxFlips":30,"completionMinutes":45,"basePay":8,"maxBonus":9,"perTrialBonus":0.5,"perTrialBonusThreshold":0.05,"exampleCost":0.01},"classroomParams":{"A":{"a":1,"b":4},"B":{"a":4,"b":1},"C":{"a":2,"b":8},"D":{"a":8,"b":2}},"conditions":["nonSeqFull","nonSeqPartial","seqNoFeedback","seqFeedback"],"classroomPairings":[["A","B"],["C","D"]],"coinWeights":[0.2,0.5,0.8],"subjectId":"AHYTT3T8W9Y9Y","assignmentId":"3I02618YA1SUIUXBD7XST0EPCZKPUS","hitId":"3J94SKDEKIB2MY6CGVTNWB9X0ALD5P","url":"https://gershmanlab.com/experiments/alicia/teaching/experiment/?hitId=3J94SKDEKIB2MY6CGVTNWB9X0ALD5P&workerId=AHYTT3T8W9Y9Y&assignmentId=3I02618YA1SUIUXBD7XST0EPCZKPUS&a=Y60I9&tp_a=Y60I9&b=3I02618YA1SUIUXBD7XST0EPCZKPUS&tp_b=3I02618YA1SUIUXBD7XST0EPCZKPUS&c=365799&tp_c=365799"},{"rt":null,"stimulus":"Examples sent to student! Waiting for student...","response":null,"trial_type":"html-keyboard-response","trial_index":31,"time_elapsed":743126,"internal_node_id":"0.0-21.0","params":{"nStudents":24,"maxFlips":30,"completionMinutes":45,"basePay":8,"maxBonus":9,"perTrialBonus":0.5,"perTrialBonusThreshold":0.05,"exampleCost":0.01},"classroomParams":{"A":{"a":1,"b":4},"B":{"a":4,"b":1},"C":{"a":2,"b":8},"D":{"a":8,"b":2}},"conditions":["nonSeqFull","nonSeqPartial","seqNoFeedback","seqFeedback"],"classroomPairings":[["A","B"],["C","D"]],"coinWeights":[0.2,0.5,0.8],"subjectId":"AHYTT3T8W9Y9Y","assignmentId":"3I02618YA1SUIUXBD7XST0EPCZKPUS","hitId":"3J94SKDEKIB2MY6CGVTNWB9X0ALD5P","url":"https://gershmanlab.com/experiments/alicia/teaching/experiment/?hitId=3J94SKDEKIB2MY6CGVTNWB9X0ALD5P&workerId=AHYTT3T8W9Y9Y&assignmentId=3I02618YA1SUIUXBD7XST0EPCZKPUS&a=Y60I9&tp_a=Y60I9&b=3I02618YA1SUIUXBD7XST0EPCZKPUS&tp_b=3I02618YA1SUIUXBD7XST0EPCZKPUS&c=365799&tp_c=365799"},{"rt":3647,"stimulus":"\n                <p>Student 2's first guess for coin weight: <b style=\"color:Tomato\";>0.20</b></p>\n                <p>Student 2's second guess for coin weight: <b style=\"color:Tomato\";>0.22</b></p>\n                <p>You received a bonus of <b>$0.37</b> based on the student's second guess.</p>\n                <p>Total bonus so far: <b>$0.75</b></p>\n                <p>Press any key to continue.</p>\n                ","response":" ","trial_type":"html-keyboard-response","trial_index":32,"time_elapsed":746774,"internal_node_id":"0.0-22.0","params":{"nStudents":24,"maxFlips":30,"completionMinutes":45,"basePay":8,"maxBonus":9,"perTrialBonus":0.5,"perTrialBonusThreshold":0.05,"exampleCost":0.01},"classroomParams":{"A":{"a":1,"b":4},"B":{"a":4,"b":1},"C":{"a":2,"b":8},"D":{"a":8,"b":2}},"conditions":["nonSeqFull","nonSeqPartial","seqNoFeedback","seqFeedback"],"classroomPairings":[["A","B"],["C","D"]],"coinWeights":[0.2,0.5,0.8],"subjectId":"AHYTT3T8W9Y9Y","assignmentId":"3I02618YA1SUIUXBD7XST0EPCZKPUS","hitId":"3J94SKDEKIB2MY6CGVTNWB9X0ALD5P","url":"https://gershmanlab.com/experiments/alicia/teaching/experiment/?hitId=3J94SKDEKIB2MY6CGVTNWB9X0ALD5P&workerId=AHYTT3T8W9Y9Y&assignmentId=3I02618YA1SUIUXBD7XST0EPCZKPUS&a=Y60I9&tp_a=Y60I9&b=3I02618YA1SUIUXBD7XST0EPCZKPUS&tp_b=3I02618YA1SUIUXBD7XST0EPCZKPUS&c=365799&tp_c=365799"},{"rt":null,"stimulus":"<div style=\"font-size:60px;\">Next student</div>","response":null,"trial_type":"html-keyboard-response","trial_index":33,"time_elapsed":749276,"internal_node_id":"0.0-23.0-0.0","params":{"nStudents":24,"maxFlips":30,"completionMinutes":45,"basePay":8,"maxBonus":9,"perTrialBonus":0.5,"perTrialBonusThreshold":0.05,"exampleCost":0.01},"classroomParams":{"A":{"a":1,"b":4},"B":{"a":4,"b":1},"C":{"a":2,"b":8},"D":{"a":8,"b":2}},"conditions":["nonSeqFull","nonSeqPartial","seqNoFeedback","seqFeedback"],"classroomPairings":[["A","B"],["C","D"]],"coinWeights":[0.2,0.5,0.8],"subjectId":"AHYTT3T8W9Y9Y","assignmentId":"3I02618YA1SUIUXBD7XST0EPCZKPUS","hitId":"3J94SKDEKIB2MY6CGVTNWB9X0ALD5P","url":"https://gershmanlab.com/experiments/alicia/teaching/experiment/?hitId=3J94SKDEKIB2MY6CGVTNWB9X0ALD5P&workerId=AHYTT3T8W9Y9Y&assignmentId=3I02618YA1SUIUXBD7XST0EPCZKPUS&a=Y60I9&tp_a=Y60I9&b=3I02618YA1SUIUXBD7XST0EPCZKPUS&tp_b=3I02618YA1SUIUXBD7XST0EPCZKPUS&c=365799&tp_c=365799"},{"rt":6972,"stimulus":"\n            <h4 style=\"color:Orange;\">Student 3</h4>\n            <h2>The weight of your coin is <b style=\"color:Tomato;\">0.2</b>.</h2>\n            <p>In this block, you will be giving <b>two</b> sets of examples to Student 3.</p>\n                <p>You will receive feedback at the end of the block.</p>\n            <p></p>","response":0,"trial_type":"html-button-response","trial_index":34,"time_elapsed":756249,"internal_node_id":"0.0-24.0","params":{"nStudents":24,"maxFlips":30,"completionMinutes":45,"basePay":8,"maxBonus":9,"perTrialBonus":0.5,"perTrialBonusThreshold":0.05,"exampleCost":0.01},"classroomParams":{"A":{"a":1,"b":4},"B":{"a":4,"b":1},"C":{"a":2,"b":8},"D":{"a":8,"b":2}},"conditions":["nonSeqFull","nonSeqPartial","seqNoFeedback","seqFeedback"],"classroomPairings":[["A","B"],["C","D"]],"coinWeights":[0.2,0.5,0.8],"subjectId":"AHYTT3T8W9Y9Y","assignmentId":"3I02618YA1SUIUXBD7XST0EPCZKPUS","hitId":"3J94SKDEKIB2MY6CGVTNWB9X0ALD5P","url":"https://gershmanlab.com/experiments/alicia/teaching/experiment/?hitId=3J94SKDEKIB2MY6CGVTNWB9X0ALD5P&workerId=AHYTT3T8W9Y9Y&assignmentId=3I02618YA1SUIUXBD7XST0EPCZKPUS&a=Y60I9&tp_a=Y60I9&b=3I02618YA1SUIUXBD7XST0EPCZKPUS&tp_b=3I02618YA1SUIUXBD7XST0EPCZKPUS&c=365799&tp_c=365799"},{"rt":16921,"response":{"heads":"2","tails":"8"},"type":"response","condition":"seqNoFeedback","trueTheta":0.2,"classrooms":["C","D"],"studentTrueClassroom":"C","exampleSet":"first","trial_type":"survey-html-form","trial_index":35,"time_elapsed":773173,"internal_node_id":"0.0-25.0-0.0","params":{"nStudents":24,"maxFlips":30,"completionMinutes":45,"basePay":8,"maxBonus":9,"perTrialBonus":0.5,"perTrialBonusThreshold":0.05,"exampleCost":0.01},"classroomParams":{"A":{"a":1,"b":4},"B":{"a":4,"b":1},"C":{"a":2,"b":8},"D":{"a":8,"b":2}},"conditions":["nonSeqFull","nonSeqPartial","seqNoFeedback","seqFeedback"],"classroomPairings":[["A","B"],["C","D"]],"coinWeights":[0.2,0.5,0.8],"subjectId":"AHYTT3T8W9Y9Y","assignmentId":"3I02618YA1SUIUXBD7XST0EPCZKPUS","hitId":"3J94SKDEKIB2MY6CGVTNWB9X0ALD5P","url":"https://gershmanlab.com/experiments/alicia/teaching/experiment/?hitId=3J94SKDEKIB2MY6CGVTNWB9X0ALD5P&workerId=AHYTT3T8W9Y9Y&assignmentId=3I02618YA1SUIUXBD7XST0EPCZKPUS&a=Y60I9&tp_a=Y60I9&b=3I02618YA1SUIUXBD7XST0EPCZKPUS&tp_b=3I02618YA1SUIUXBD7XST0EPCZKPUS&c=365799&tp_c=365799","heads":2,"tails":8,"studentIndex":2,"studentTrueHypers":{"a":2,"b":8},"studentGuess":0.2,"delta":0,"totalExamples":10,"bonusSoFar":0.75},{"rt":null,"stimulus":"Sending examples to student... ","response":null,"trial_type":"html-keyboard-response","trial_index":36,"time_elapsed":774425,"internal_node_id":"0.0-26.0","params":{"nStudents":24,"maxFlips":30,"completionMinutes":45,"basePay":8,"maxBonus":9,"perTrialBonus":0.5,"perTrialBonusThreshold":0.05,"exampleCost":0.01},"classroomParams":{"A":{"a":1,"b":4},"B":{"a":4,"b":1},"C":{"a":2,"b":8},"D":{"a":8,"b":2}},"conditions":["nonSeqFull","nonSeqPartial","seqNoFeedback","seqFeedback"],"classroomPairings":[["A","B"],["C","D"]],"coinWeights":[0.2,0.5,0.8],"subjectId":"AHYTT3T8W9Y9Y","assignmentId":"3I02618YA1SUIUXBD7XST0EPCZKPUS","hitId":"3J94SKDEKIB2MY6CGVTNWB9X0ALD5P","url":"https://gershmanlab.com/experiments/alicia/teaching/experiment/?hitId=3J94SKDEKIB2MY6CGVTNWB9X0ALD5P&workerId=AHYTT3T8W9Y9Y&assignmentId=3I02618YA1SUIUXBD7XST0EPCZKPUS&a=Y60I9&tp_a=Y60I9&b=3I02618YA1SUIUXBD7XST0EPCZKPUS&tp_b=3I02618YA1SUIUXBD7XST0EPCZKPUS&c=365799&tp_c=365799"},{"rt":null,"stimulus":"Examples sent to student! Waiting for student...","response":null,"trial_type":"html-keyboard-response","trial_index":37,"time_elapsed":779427,"internal_node_id":"0.0-27.0","params":{"nStudents":24,"maxFlips":30,"completionMinutes":45,"basePay":8,"maxBonus":9,"perTrialBonus":0.5,"perTrialBonusThreshold":0.05,"exampleCost":0.01},"classroomParams":{"A":{"a":1,"b":4},"B":{"a":4,"b":1},"C":{"a":2,"b":8},"D":{"a":8,"b":2}},"conditions":["nonSeqFull","nonSeqPartial","seqNoFeedback","seqFeedback"],"classroomPairings":[["A","B"],["C","D"]],"coinWeights":[0.2,0.5,0.8],"subjectId":"AHYTT3T8W9Y9Y","assignmentId":"3I02618YA1SUIUXBD7XST0EPCZKPUS","hitId":"3J94SKDEKIB2MY6CGVTNWB9X0ALD5P","url":"https://gershmanlab.com/experiments/alicia/teaching/experiment/?hitId=3J94SKDEKIB2MY6CGVTNWB9X0ALD5P&workerId=AHYTT3T8W9Y9Y&assignmentId=3I02618YA1SUIUXBD7XST0EPCZKPUS&a=Y60I9&tp_a=Y60I9&b=3I02618YA1SUIUXBD7XST0EPCZKPUS&tp_b=3I02618YA1SUIUXBD7XST0EPCZKPUS&c=365799&tp_c=365799"},{"rt":35501,"response":{"heads":"2","tails":"6"},"type":"response","condition":"seqNoFeedback","trueTheta":0.2,"classrooms":["C","D"],"studentTrueClassroom":"C","exampleSet":"second","trial_type":"survey-html-form","trial_index":38,"time_elapsed":814931,"internal_node_id":"0.0-28.0-0.0","params":{"nStudents":24,"maxFlips":30,"completionMinutes":45,"basePay":8,"maxBonus":9,"perTrialBonus":0.5,"perTrialBonusThreshold":0.05,"exampleCost":0.01},"classroomParams":{"A":{"a":1,"b":4},"B":{"a":4,"b":1},"C":{"a":2,"b":8},"D":{"a":8,"b":2}},"conditions":["nonSeqFull","nonSeqPartial","seqNoFeedback","seqFeedback"],"classroomPairings":[["A","B"],["C","D"]],"coinWeights":[0.2,0.5,0.8],"subjectId":"AHYTT3T8W9Y9Y","assignmentId":"3I02618YA1SUIUXBD7XST0EPCZKPUS","hitId":"3J94SKDEKIB2MY6CGVTNWB9X0ALD5P","url":"https://gershmanlab.com/experiments/alicia/teaching/experiment/?hitId=3J94SKDEKIB2MY6CGVTNWB9X0ALD5P&workerId=AHYTT3T8W9Y9Y&assignmentId=3I02618YA1SUIUXBD7XST0EPCZKPUS&a=Y60I9&tp_a=Y60I9&b=3I02618YA1SUIUXBD7XST0EPCZKPUS&tp_b=3I02618YA1SUIUXBD7XST0EPCZKPUS&c=365799&tp_c=365799","firstResponseHeads":2,"firstResponseTails":8,"secondResponseHeads":2,"secondResponseTails":6,"totalHeads":4,"totalTails":14,"studentIndex":2,"studentTrueHypers":{"a":2,"b":8},"studentGuess":0.21428571428571427,"delta":0.014285714285714263,"bonus":0.32,"bonusSoFar":1.07,"totalExamples":18},{"rt":null,"stimulus":"Sending examples to student... ","response":null,"trial_type":"html-keyboard-response","trial_index":39,"time_elapsed":816433,"internal_node_id":"0.0-29.0","params":{"nStudents":24,"maxFlips":30,"completionMinutes":45,"basePay":8,"maxBonus":9,"perTrialBonus":0.5,"perTrialBonusThreshold":0.05,"exampleCost":0.01},"classroomParams":{"A":{"a":1,"b":4},"B":{"a":4,"b":1},"C":{"a":2,"b":8},"D":{"a":8,"b":2}},"conditions":["nonSeqFull","nonSeqPartial","seqNoFeedback","seqFeedback"],"classroomPairings":[["A","B"],["C","D"]],"coinWeights":[0.2,0.5,0.8],"subjectId":"AHYTT3T8W9Y9Y","assignmentId":"3I02618YA1SUIUXBD7XST0EPCZKPUS","hitId":"3J94SKDEKIB2MY6CGVTNWB9X0ALD5P","url":"https://gershmanlab.com/experiments/alicia/teaching/experiment/?hitId=3J94SKDEKIB2MY6CGVTNWB9X0ALD5P&workerId=AHYTT3T8W9Y9Y&assignmentId=3I02618YA1SUIUXBD7XST0EPCZKPUS&a=Y60I9&tp_a=Y60I9&b=3I02618YA1SUIUXBD7XST0EPCZKPUS&tp_b=3I02618YA1SUIUXBD7XST0EPCZKPUS&c=365799&tp_c=365799"},{"rt":null,"stimulus":"Examples sent to student! Waiting for student...","response":null,"trial_type":"html-keyboard-response","trial_index":40,"time_elapsed":821934,"internal_node_id":"0.0-30.0","params":{"nStudents":24,"maxFlips":30,"completionMinutes":45,"basePay":8,"maxBonus":9,"perTrialBonus":0.5,"perTrialBonusThreshold":0.05,"exampleCost":0.01},"classroomParams":{"A":{"a":1,"b":4},"B":{"a":4,"b":1},"C":{"a":2,"b":8},"D":{"a":8,"b":2}},"conditions":["nonSeqFull","nonSeqPartial","seqNoFeedback","seqFeedback"],"classroomPairings":[["A","B"],["C","D"]],"coinWeights":[0.2,0.5,0.8],"subjectId":"AHYTT3T8W9Y9Y","assignmentId":"3I02618YA1SUIUXBD7XST0EPCZKPUS","hitId":"3J94SKDEKIB2MY6CGVTNWB9X0ALD5P","url":"https://gershmanlab.com/experiments/alicia/teaching/experiment/?hitId=3J94SKDEKIB2MY6CGVTNWB9X0ALD5P&workerId=AHYTT3T8W9Y9Y&assignmentId=3I02618YA1SUIUXBD7XST0EPCZKPUS&a=Y60I9&tp_a=Y60I9&b=3I02618YA1SUIUXBD7XST0EPCZKPUS&tp_b=3I02618YA1SUIUXBD7XST0EPCZKPUS&c=365799&tp_c=365799"},{"rt":6646,"stimulus":"\n                <p>Student 3's first guess for coin weight: <b style=\"color:Tomato\";>0.20</b></p>\n                <p>Student 3's second guess for coin weight: <b style=\"color:Tomato\";>0.21</b></p>\n                <p>You received a bonus of <b>$0.32</b> based on the student's second guess.</p>\n                <p>Total bonus so far: <b>$1.07</b></p>\n                <p>Press any key to continue.</p>\n                ","response":" ","trial_type":"html-keyboard-response","trial_index":41,"time_elapsed":828582,"internal_node_id":"0.0-31.0","params":{"nStudents":24,"maxFlips":30,"completionMinutes":45,"basePay":8,"maxBonus":9,"perTrialBonus":0.5,"perTrialBonusThreshold":0.05,"exampleCost":0.01},"classroomParams":{"A":{"a":1,"b":4},"B":{"a":4,"b":1},"C":{"a":2,"b":8},"D":{"a":8,"b":2}},"conditions":["nonSeqFull","nonSeqPartial","seqNoFeedback","seqFeedback"],"classroomPairings":[["A","B"],["C","D"]],"coinWeights":[0.2,0.5,0.8],"subjectId":"AHYTT3T8W9Y9Y","assignmentId":"3I02618YA1SUIUXBD7XST0EPCZKPUS","hitId":"3J94SKDEKIB2MY6CGVTNWB9X0ALD5P","url":"https://gershmanlab.com/experiments/alicia/teaching/experiment/?hitId=3J94SKDEKIB2MY6CGVTNWB9X0ALD5P&workerId=AHYTT3T8W9Y9Y&assignmentId=3I02618YA1SUIUXBD7XST0EPCZKPUS&a=Y60I9&tp_a=Y60I9&b=3I02618YA1SUIUXBD7XST0EPCZKPUS&tp_b=3I02618YA1SUIUXBD7XST0EPCZKPUS&c=365799&tp_c=365799"},{"rt":null,"stimulus":"<div style=\"font-size:60px;\">Next student</div>","response":null,"trial_type":"html-keyboard-response","trial_index":42,"time_elapsed":830584,"internal_node_id":"0.0-32.0-0.0","params":{"nStudents":24,"maxFlips":30,"completionMinutes":45,"basePay":8,"maxBonus":9,"perTrialBonus":0.5,"perTrialBonusThreshold":0.05,"exampleCost":0.01},"classroomParams":{"A":{"a":1,"b":4},"B":{"a":4,"b":1},"C":{"a":2,"b":8},"D":{"a":8,"b":2}},"conditions":["nonSeqFull","nonSeqPartial","seqNoFeedback","seqFeedback"],"classroomPairings":[["A","B"],["C","D"]],"coinWeights":[0.2,0.5,0.8],"subjectId":"AHYTT3T8W9Y9Y","assignmentId":"3I02618YA1SUIUXBD7XST0EPCZKPUS","hitId":"3J94SKDEKIB2MY6CGVTNWB9X0ALD5P","url":"https://gershmanlab.com/experiments/alicia/teaching/experiment/?hitId=3J94SKDEKIB2MY6CGVTNWB9X0ALD5P&workerId=AHYTT3T8W9Y9Y&assignmentId=3I02618YA1SUIUXBD7XST0EPCZKPUS&a=Y60I9&tp_a=Y60I9&b=3I02618YA1SUIUXBD7XST0EPCZKPUS&tp_b=3I02618YA1SUIUXBD7XST0EPCZKPUS&c=365799&tp_c=365799"},{"rt":3233,"stimulus":"\n            <h4 style=\"color:Orange;\">Student 4</h4>\n            <h2>The weight of your coin is <b style=\"color:Tomato;\">0.5</b>.</h2>\n            <p>In this block, you will be giving <b>one</b> set of examples to Student 4.</p>\n                <p>You will receive feedback at the end of the block.</p>\n            <p></p>","response":0,"trial_type":"html-button-response","trial_index":43,"time_elapsed":833820,"internal_node_id":"0.0-33.0","params":{"nStudents":24,"maxFlips":30,"completionMinutes":45,"basePay":8,"maxBonus":9,"perTrialBonus":0.5,"perTrialBonusThreshold":0.05,"exampleCost":0.01},"classroomParams":{"A":{"a":1,"b":4},"B":{"a":4,"b":1},"C":{"a":2,"b":8},"D":{"a":8,"b":2}},"conditions":["nonSeqFull","nonSeqPartial","seqNoFeedback","seqFeedback"],"classroomPairings":[["A","B"],["C","D"]],"coinWeights":[0.2,0.5,0.8],"subjectId":"AHYTT3T8W9Y9Y","assignmentId":"3I02618YA1SUIUXBD7XST0EPCZKPUS","hitId":"3J94SKDEKIB2MY6CGVTNWB9X0ALD5P","url":"https://gershmanlab.com/experiments/alicia/teaching/experiment/?hitId=3J94SKDEKIB2MY6CGVTNWB9X0ALD5P&workerId=AHYTT3T8W9Y9Y&assignmentId=3I02618YA1SUIUXBD7XST0EPCZKPUS&a=Y60I9&tp_a=Y60I9&b=3I02618YA1SUIUXBD7XST0EPCZKPUS&tp_b=3I02618YA1SUIUXBD7XST0EPCZKPUS&c=365799&tp_c=365799"},{"rt":17321,"response":{"heads":"4","tails":"4"},"type":"response","condition":"nonSeqPartial","trueTheta":0.5,"classrooms":["A","B"],"studentTrueClassroom":"B","exampleSet":"first","trial_type":"survey-html-form","trial_index":44,"time_elapsed":851144,"internal_node_id":"0.0-34.0-0.0","params":{"nStudents":24,"maxFlips":30,"completionMinutes":45,"basePay":8,"maxBonus":9,"perTrialBonus":0.5,"perTrialBonusThreshold":0.05,"exampleCost":0.01},"classroomParams":{"A":{"a":1,"b":4},"B":{"a":4,"b":1},"C":{"a":2,"b":8},"D":{"a":8,"b":2}},"conditions":["nonSeqFull","nonSeqPartial","seqNoFeedback","seqFeedback"],"classroomPairings":[["A","B"],["C","D"]],"coinWeights":[0.2,0.5,0.8],"subjectId":"AHYTT3T8W9Y9Y","assignmentId":"3I02618YA1SUIUXBD7XST0EPCZKPUS","hitId":"3J94SKDEKIB2MY6CGVTNWB9X0ALD5P","url":"https://gershmanlab.com/experiments/alicia/teaching/experiment/?hitId=3J94SKDEKIB2MY6CGVTNWB9X0ALD5P&workerId=AHYTT3T8W9Y9Y&assignmentId=3I02618YA1SUIUXBD7XST0EPCZKPUS&a=Y60I9&tp_a=Y60I9&b=3I02618YA1SUIUXBD7XST0EPCZKPUS&tp_b=3I02618YA1SUIUXBD7XST0EPCZKPUS&c=365799&tp_c=365799","heads":4,"tails":4,"studentIndex":3,"studentTrueHypers":{"a":4,"b":1},"studentGuess":0.6153846153846154,"delta":0.11538461538461542,"totalExamples":8,"bonus":0,"bonusSoFar":1.07},{"rt":null,"stimulus":"Sending examples to student... ","response":null,"trial_type":"html-keyboard-response","trial_index":45,"time_elapsed":852646,"internal_node_id":"0.0-35.0","params":{"nStudents":24,"maxFlips":30,"completionMinutes":45,"basePay":8,"maxBonus":9,"perTrialBonus":0.5,"perTrialBonusThreshold":0.05,"exampleCost":0.01},"classroomParams":{"A":{"a":1,"b":4},"B":{"a":4,"b":1},"C":{"a":2,"b":8},"D":{"a":8,"b":2}},"conditions":["nonSeqFull","nonSeqPartial","seqNoFeedback","seqFeedback"],"classroomPairings":[["A","B"],["C","D"]],"coinWeights":[0.2,0.5,0.8],"subjectId":"AHYTT3T8W9Y9Y","assignmentId":"3I02618YA1SUIUXBD7XST0EPCZKPUS","hitId":"3J94SKDEKIB2MY6CGVTNWB9X0ALD5P","url":"https://gershmanlab.com/experiments/alicia/teaching/experiment/?hitId=3J94SKDEKIB2MY6CGVTNWB9X0ALD5P&workerId=AHYTT3T8W9Y9Y&assignmentId=3I02618YA1SUIUXBD7XST0EPCZKPUS&a=Y60I9&tp_a=Y60I9&b=3I02618YA1SUIUXBD7XST0EPCZKPUS&tp_b=3I02618YA1SUIUXBD7XST0EPCZKPUS&c=365799&tp_c=365799"},{"rt":null,"stimulus":"Examples sent to student! Waiting for student...","response":null,"trial_type":"html-keyboard-response","trial_index":46,"time_elapsed":857648,"internal_node_id":"0.0-36.0","params":{"nStudents":24,"maxFlips":30,"completionMinutes":45,"basePay":8,"maxBonus":9,"perTrialBonus":0.5,"perTrialBonusThreshold":0.05,"exampleCost":0.01},"classroomParams":{"A":{"a":1,"b":4},"B":{"a":4,"b":1},"C":{"a":2,"b":8},"D":{"a":8,"b":2}},"conditions":["nonSeqFull","nonSeqPartial","seqNoFeedback","seqFeedback"],"classroomPairings":[["A","B"],["C","D"]],"coinWeights":[0.2,0.5,0.8],"subjectId":"AHYTT3T8W9Y9Y","assignmentId":"3I02618YA1SUIUXBD7XST0EPCZKPUS","hitId":"3J94SKDEKIB2MY6CGVTNWB9X0ALD5P","url":"https://gershmanlab.com/experiments/alicia/teaching/experiment/?hitId=3J94SKDEKIB2MY6CGVTNWB9X0ALD5P&workerId=AHYTT3T8W9Y9Y&assignmentId=3I02618YA1SUIUXBD7XST0EPCZKPUS&a=Y60I9&tp_a=Y60I9&b=3I02618YA1SUIUXBD7XST0EPCZKPUS&tp_b=3I02618YA1SUIUXBD7XST0EPCZKPUS&c=365799&tp_c=365799"},{"rt":4028,"stimulus":"\n                <p>Student's guess for coin weight: <b style=\"color:Tomato;\">0.62</b></p>\n                <p>You received a bonus of <b>$0</b>. Total bonus so far: <b>$1.07</b></b></p>\n                <p></p>\n                <p>Press any key to continue.</p>\n                ","response":" ","trial_type":"html-keyboard-response","trial_index":47,"time_elapsed":861677,"internal_node_id":"0.0-37.0","params":{"nStudents":24,"maxFlips":30,"completionMinutes":45,"basePay":8,"maxBonus":9,"perTrialBonus":0.5,"perTrialBonusThreshold":0.05,"exampleCost":0.01},"classroomParams":{"A":{"a":1,"b":4},"B":{"a":4,"b":1},"C":{"a":2,"b":8},"D":{"a":8,"b":2}},"conditions":["nonSeqFull","nonSeqPartial","seqNoFeedback","seqFeedback"],"classroomPairings":[["A","B"],["C","D"]],"coinWeights":[0.2,0.5,0.8],"subjectId":"AHYTT3T8W9Y9Y","assignmentId":"3I02618YA1SUIUXBD7XST0EPCZKPUS","hitId":"3J94SKDEKIB2MY6CGVTNWB9X0ALD5P","url":"https://gershmanlab.com/experiments/alicia/teaching/experiment/?hitId=3J94SKDEKIB2MY6CGVTNWB9X0ALD5P&workerId=AHYTT3T8W9Y9Y&assignmentId=3I02618YA1SUIUXBD7XST0EPCZKPUS&a=Y60I9&tp_a=Y60I9&b=3I02618YA1SUIUXBD7XST0EPCZKPUS&tp_b=3I02618YA1SUIUXBD7XST0EPCZKPUS&c=365799&tp_c=365799"},{"rt":null,"stimulus":"<div style=\"font-size:60px;\">Next student</div>","response":null,"trial_type":"html-keyboard-response","trial_index":48,"time_elapsed":864678,"internal_node_id":"0.0-38.0-0.0","params":{"nStudents":24,"maxFlips":30,"completionMinutes":45,"basePay":8,"maxBonus":9,"perTrialBonus":0.5,"perTrialBonusThreshold":0.05,"exampleCost":0.01},"classroomParams":{"A":{"a":1,"b":4},"B":{"a":4,"b":1},"C":{"a":2,"b":8},"D":{"a":8,"b":2}},"conditions":["nonSeqFull","nonSeqPartial","seqNoFeedback","seqFeedback"],"classroomPairings":[["A","B"],["C","D"]],"coinWeights":[0.2,0.5,0.8],"subjectId":"AHYTT3T8W9Y9Y","assignmentId":"3I02618YA1SUIUXBD7XST0EPCZKPUS","hitId":"3J94SKDEKIB2MY6CGVTNWB9X0ALD5P","url":"https://gershmanlab.com/experiments/alicia/teaching/experiment/?hitId=3J94SKDEKIB2MY6CGVTNWB9X0ALD5P&workerId=AHYTT3T8W9Y9Y&assignmentId=3I02618YA1SUIUXBD7XST0EPCZKPUS&a=Y60I9&tp_a=Y60I9&b=3I02618YA1SUIUXBD7XST0EPCZKPUS&tp_b=3I02618YA1SUIUXBD7XST0EPCZKPUS&c=365799&tp_c=365799"},{"rt":8904,"stimulus":"\n            <h4 style=\"color:Orange;\">Student 5</h4>\n            <h2>The weight of your coin is <b style=\"color:Tomato;\">0.2</b>.</h2>\n            <p>In this block, you will be giving <b>two</b> sets of examples to Student 5.</p>\n                <p>You will see the student's guess after the first set of examples. You will also receive feedback at the end of the block.</p>\n            <p>To earn the highest bonus, you will have to <b>take into consideration the student's guess</b> when you choose your second set of examples.</p>","response":0,"trial_type":"html-button-response","trial_index":49,"time_elapsed":873583,"internal_node_id":"0.0-39.0","params":{"nStudents":24,"maxFlips":30,"completionMinutes":45,"basePay":8,"maxBonus":9,"perTrialBonus":0.5,"perTrialBonusThreshold":0.05,"exampleCost":0.01},"classroomParams":{"A":{"a":1,"b":4},"B":{"a":4,"b":1},"C":{"a":2,"b":8},"D":{"a":8,"b":2}},"conditions":["nonSeqFull","nonSeqPartial","seqNoFeedback","seqFeedback"],"classroomPairings":[["A","B"],["C","D"]],"coinWeights":[0.2,0.5,0.8],"subjectId":"AHYTT3T8W9Y9Y","assignmentId":"3I02618YA1SUIUXBD7XST0EPCZKPUS","hitId":"3J94SKDEKIB2MY6CGVTNWB9X0ALD5P","url":"https://gershmanlab.com/experiments/alicia/teaching/experiment/?hitId=3J94SKDEKIB2MY6CGVTNWB9X0ALD5P&workerId=AHYTT3T8W9Y9Y&assignmentId=3I02618YA1SUIUXBD7XST0EPCZKPUS&a=Y60I9&tp_a=Y60I9&b=3I02618YA1SUIUXBD7XST0EPCZKPUS&tp_b=3I02618YA1SUIUXBD7XST0EPCZKPUS&c=365799&tp_c=365799"},{"rt":22362,"response":{"heads":"1","tails":"4"},"type":"response","condition":"seqFeedback","trueTheta":0.2,"classrooms":["A","B"],"studentTrueClassroom":"B","exampleSet":"first","trial_type":"survey-html-form","trial_index":50,"time_elapsed":895947,"internal_node_id":"0.0-40.0-0.0","params":{"nStudents":24,"maxFlips":30,"completionMinutes":45,"basePay":8,"maxBonus":9,"perTrialBonus":0.5,"perTrialBonusThreshold":0.05,"exampleCost":0.01},"classroomParams":{"A":{"a":1,"b":4},"B":{"a":4,"b":1},"C":{"a":2,"b":8},"D":{"a":8,"b":2}},"conditions":["nonSeqFull","nonSeqPartial","seqNoFeedback","seqFeedback"],"classroomPairings":[["A","B"],["C","D"]],"coinWeights":[0.2,0.5,0.8],"subjectId":"AHYTT3T8W9Y9Y","assignmentId":"3I02618YA1SUIUXBD7XST0EPCZKPUS","hitId":"3J94SKDEKIB2MY6CGVTNWB9X0ALD5P","url":"https://gershmanlab.com/experiments/alicia/teaching/experiment/?hitId=3J94SKDEKIB2MY6CGVTNWB9X0ALD5P&workerId=AHYTT3T8W9Y9Y&assignmentId=3I02618YA1SUIUXBD7XST0EPCZKPUS&a=Y60I9&tp_a=Y60I9&b=3I02618YA1SUIUXBD7XST0EPCZKPUS&tp_b=3I02618YA1SUIUXBD7XST0EPCZKPUS&c=365799&tp_c=365799","heads":1,"tails":4,"studentIndex":4,"studentTrueHypers":{"a":4,"b":1},"studentGuess":0.5,"delta":0.3,"totalExamples":5,"bonusSoFar":1.07},{"rt":null,"stimulus":"Sending examples to student... ","response":null,"trial_type":"html-keyboard-response","trial_index":51,"time_elapsed":897448,"internal_node_id":"0.0-41.0","params":{"nStudents":24,"maxFlips":30,"completionMinutes":45,"basePay":8,"maxBonus":9,"perTrialBonus":0.5,"perTrialBonusThreshold":0.05,"exampleCost":0.01},"classroomParams":{"A":{"a":1,"b":4},"B":{"a":4,"b":1},"C":{"a":2,"b":8},"D":{"a":8,"b":2}},"conditions":["nonSeqFull","nonSeqPartial","seqNoFeedback","seqFeedback"],"classroomPairings":[["A","B"],["C","D"]],"coinWeights":[0.2,0.5,0.8],"subjectId":"AHYTT3T8W9Y9Y","assignmentId":"3I02618YA1SUIUXBD7XST0EPCZKPUS","hitId":"3J94SKDEKIB2MY6CGVTNWB9X0ALD5P","url":"https://gershmanlab.com/experiments/alicia/teaching/experiment/?hitId=3J94SKDEKIB2MY6CGVTNWB9X0ALD5P&workerId=AHYTT3T8W9Y9Y&assignmentId=3I02618YA1SUIUXBD7XST0EPCZKPUS&a=Y60I9&tp_a=Y60I9&b=3I02618YA1SUIUXBD7XST0EPCZKPUS&tp_b=3I02618YA1SUIUXBD7XST0EPCZKPUS&c=365799&tp_c=365799"},{"rt":null,"stimulus":"Examples sent to student! Waiting for student...","response":null,"trial_type":"html-keyboard-response","trial_index":52,"time_elapsed":901950,"internal_node_id":"0.0-42.0","params":{"nStudents":24,"maxFlips":30,"completionMinutes":45,"basePay":8,"maxBonus":9,"perTrialBonus":0.5,"perTrialBonusThreshold":0.05,"exampleCost":0.01},"classroomParams":{"A":{"a":1,"b":4},"B":{"a":4,"b":1},"C":{"a":2,"b":8},"D":{"a":8,"b":2}},"conditions":["nonSeqFull","nonSeqPartial","seqNoFeedback","seqFeedback"],"classroomPairings":[["A","B"],["C","D"]],"coinWeights":[0.2,0.5,0.8],"subjectId":"AHYTT3T8W9Y9Y","assignmentId":"3I02618YA1SUIUXBD7XST0EPCZKPUS","hitId":"3J94SKDEKIB2MY6CGVTNWB9X0ALD5P","url":"https://gershmanlab.com/experiments/alicia/teaching/experiment/?hitId=3J94SKDEKIB2MY6CGVTNWB9X0ALD5P&workerId=AHYTT3T8W9Y9Y&assignmentId=3I02618YA1SUIUXBD7XST0EPCZKPUS&a=Y60I9&tp_a=Y60I9&b=3I02618YA1SUIUXBD7XST0EPCZKPUS&tp_b=3I02618YA1SUIUXBD7XST0EPCZKPUS&c=365799&tp_c=365799"},{"rt":4606,"stimulus":"\n                <p>Student's guess for coin weight: <b style=\"color:Tomato;\">0.50</b></p>\n                <p></b></p>\n                <p>You will now send another set of examples to your student. <b>Remember to take your student's guess into consideration so that you can earn the highest bonus possible!</b> </p>\n                <p>Press any key to continue.</p>\n                ","response":" ","trial_type":"html-keyboard-response","trial_index":53,"time_elapsed":906557,"internal_node_id":"0.0-43.0","params":{"nStudents":24,"maxFlips":30,"completionMinutes":45,"basePay":8,"maxBonus":9,"perTrialBonus":0.5,"perTrialBonusThreshold":0.05,"exampleCost":0.01},"classroomParams":{"A":{"a":1,"b":4},"B":{"a":4,"b":1},"C":{"a":2,"b":8},"D":{"a":8,"b":2}},"conditions":["nonSeqFull","nonSeqPartial","seqNoFeedback","seqFeedback"],"classroomPairings":[["A","B"],["C","D"]],"coinWeights":[0.2,0.5,0.8],"subjectId":"AHYTT3T8W9Y9Y","assignmentId":"3I02618YA1SUIUXBD7XST0EPCZKPUS","hitId":"3J94SKDEKIB2MY6CGVTNWB9X0ALD5P","url":"https://gershmanlab.com/experiments/alicia/teaching/experiment/?hitId=3J94SKDEKIB2MY6CGVTNWB9X0ALD5P&workerId=AHYTT3T8W9Y9Y&assignmentId=3I02618YA1SUIUXBD7XST0EPCZKPUS&a=Y60I9&tp_a=Y60I9&b=3I02618YA1SUIUXBD7XST0EPCZKPUS&tp_b=3I02618YA1SUIUXBD7XST0EPCZKPUS&c=365799&tp_c=365799"},{"rt":9527,"response":{"heads":"1","tails":"8"},"type":"response","condition":"seqFeedback","trueTheta":0.2,"classrooms":["A","B"],"studentTrueClassroom":"B","exampleSet":"second","trial_type":"survey-html-form","trial_index":54,"time_elapsed":916086,"internal_node_id":"0.0-44.0-0.0","params":{"nStudents":24,"maxFlips":30,"completionMinutes":45,"basePay":8,"maxBonus":9,"perTrialBonus":0.5,"perTrialBonusThreshold":0.05,"exampleCost":0.01},"classroomParams":{"A":{"a":1,"b":4},"B":{"a":4,"b":1},"C":{"a":2,"b":8},"D":{"a":8,"b":2}},"conditions":["nonSeqFull","nonSeqPartial","seqNoFeedback","seqFeedback"],"classroomPairings":[["A","B"],["C","D"]],"coinWeights":[0.2,0.5,0.8],"subjectId":"AHYTT3T8W9Y9Y","assignmentId":"3I02618YA1SUIUXBD7XST0EPCZKPUS","hitId":"3J94SKDEKIB2MY6CGVTNWB9X0ALD5P","url":"https://gershmanlab.com/experiments/alicia/teaching/experiment/?hitId=3J94SKDEKIB2MY6CGVTNWB9X0ALD5P&workerId=AHYTT3T8W9Y9Y&assignmentId=3I02618YA1SUIUXBD7XST0EPCZKPUS&a=Y60I9&tp_a=Y60I9&b=3I02618YA1SUIUXBD7XST0EPCZKPUS&tp_b=3I02618YA1SUIUXBD7XST0EPCZKPUS&c=365799&tp_c=365799","firstResponseHeads":1,"firstResponseTails":4,"secondResponseHeads":1,"secondResponseTails":8,"totalHeads":2,"totalTails":12,"studentIndex":4,"studentTrueHypers":{"a":4,"b":1},"studentGuess":0.3157894736842105,"delta":0.1157894736842105,"bonus":0,"bonusSoFar":1.07,"totalExamples":14},{"rt":null,"stimulus":"Sending examples to student... ","response":null,"trial_type":"html-keyboard-response","trial_index":55,"time_elapsed":917837,"internal_node_id":"0.0-45.0","params":{"nStudents":24,"maxFlips":30,"completionMinutes":45,"basePay":8,"maxBonus":9,"perTrialBonus":0.5,"perTrialBonusThreshold":0.05,"exampleCost":0.01},"classroomParams":{"A":{"a":1,"b":4},"B":{"a":4,"b":1},"C":{"a":2,"b":8},"D":{"a":8,"b":2}},"conditions":["nonSeqFull","nonSeqPartial","seqNoFeedback","seqFeedback"],"classroomPairings":[["A","B"],["C","D"]],"coinWeights":[0.2,0.5,0.8],"subjectId":"AHYTT3T8W9Y9Y","assignmentId":"3I02618YA1SUIUXBD7XST0EPCZKPUS","hitId":"3J94SKDEKIB2MY6CGVTNWB9X0ALD5P","url":"https://gershmanlab.com/experiments/alicia/teaching/experiment/?hitId=3J94SKDEKIB2MY6CGVTNWB9X0ALD5P&workerId=AHYTT3T8W9Y9Y&assignmentId=3I02618YA1SUIUXBD7XST0EPCZKPUS&a=Y60I9&tp_a=Y60I9&b=3I02618YA1SUIUXBD7XST0EPCZKPUS&tp_b=3I02618YA1SUIUXBD7XST0EPCZKPUS&c=365799&tp_c=365799"},{"rt":null,"stimulus":"Examples sent to student! Waiting for student...","response":null,"trial_type":"html-keyboard-response","trial_index":56,"time_elapsed":923340,"internal_node_id":"0.0-46.0","params":{"nStudents":24,"maxFlips":30,"completionMinutes":45,"basePay":8,"maxBonus":9,"perTrialBonus":0.5,"perTrialBonusThreshold":0.05,"exampleCost":0.01},"classroomParams":{"A":{"a":1,"b":4},"B":{"a":4,"b":1},"C":{"a":2,"b":8},"D":{"a":8,"b":2}},"conditions":["nonSeqFull","nonSeqPartial","seqNoFeedback","seqFeedback"],"classroomPairings":[["A","B"],["C","D"]],"coinWeights":[0.2,0.5,0.8],"subjectId":"AHYTT3T8W9Y9Y","assignmentId":"3I02618YA1SUIUXBD7XST0EPCZKPUS","hitId":"3J94SKDEKIB2MY6CGVTNWB9X0ALD5P","url":"https://gershmanlab.com/experiments/alicia/teaching/experiment/?hitId=3J94SKDEKIB2MY6CGVTNWB9X0ALD5P&workerId=AHYTT3T8W9Y9Y&assignmentId=3I02618YA1SUIUXBD7XST0EPCZKPUS&a=Y60I9&tp_a=Y60I9&b=3I02618YA1SUIUXBD7XST0EPCZKPUS&tp_b=3I02618YA1SUIUXBD7XST0EPCZKPUS&c=365799&tp_c=365799"},{"rt":3120,"stimulus":"\n                <p>Student 5's first guess for coin weight: <b style=\"color:Tomato\";>0.50</b></p>\n                <p>Student 5's second guess for coin weight: <b style=\"color:Tomato\";>0.32</b></p>\n                <p>You received a bonus of <b>$0.00</b> based on the student's second guess.</p>\n                <p>Total bonus so far: <b>$1.07</b></p>\n                <p>Press any key to continue.</p>\n                ","response":" ","trial_type":"html-keyboard-response","trial_index":57,"time_elapsed":926461,"internal_node_id":"0.0-47.0","params":{"nStudents":24,"maxFlips":30,"completionMinutes":45,"basePay":8,"maxBonus":9,"perTrialBonus":0.5,"perTrialBonusThreshold":0.05,"exampleCost":0.01},"classroomParams":{"A":{"a":1,"b":4},"B":{"a":4,"b":1},"C":{"a":2,"b":8},"D":{"a":8,"b":2}},"conditions":["nonSeqFull","nonSeqPartial","seqNoFeedback","seqFeedback"],"classroomPairings":[["A","B"],["C","D"]],"coinWeights":[0.2,0.5,0.8],"subjectId":"AHYTT3T8W9Y9Y","assignmentId":"3I02618YA1SUIUXBD7XST0EPCZKPUS","hitId":"3J94SKDEKIB2MY6CGVTNWB9X0ALD5P","url":"https://gershmanlab.com/experiments/alicia/teaching/experiment/?hitId=3J94SKDEKIB2MY6CGVTNWB9X0ALD5P&workerId=AHYTT3T8W9Y9Y&assignmentId=3I02618YA1SUIUXBD7XST0EPCZKPUS&a=Y60I9&tp_a=Y60I9&b=3I02618YA1SUIUXBD7XST0EPCZKPUS&tp_b=3I02618YA1SUIUXBD7XST0EPCZKPUS&c=365799&tp_c=365799"},{"rt":null,"stimulus":"<div style=\"font-size:60px;\">Next student</div>","response":null,"trial_type":"html-keyboard-response","trial_index":58,"time_elapsed":928713,"internal_node_id":"0.0-48.0-0.0","params":{"nStudents":24,"maxFlips":30,"completionMinutes":45,"basePay":8,"maxBonus":9,"perTrialBonus":0.5,"perTrialBonusThreshold":0.05,"exampleCost":0.01},"classroomParams":{"A":{"a":1,"b":4},"B":{"a":4,"b":1},"C":{"a":2,"b":8},"D":{"a":8,"b":2}},"conditions":["nonSeqFull","nonSeqPartial","seqNoFeedback","seqFeedback"],"classroomPairings":[["A","B"],["C","D"]],"coinWeights":[0.2,0.5,0.8],"subjectId":"AHYTT3T8W9Y9Y","assignmentId":"3I02618YA1SUIUXBD7XST0EPCZKPUS","hitId":"3J94SKDEKIB2MY6CGVTNWB9X0ALD5P","url":"https://gershmanlab.com/experiments/alicia/teaching/experiment/?hitId=3J94SKDEKIB2MY6CGVTNWB9X0ALD5P&workerId=AHYTT3T8W9Y9Y&assignmentId=3I02618YA1SUIUXBD7XST0EPCZKPUS&a=Y60I9&tp_a=Y60I9&b=3I02618YA1SUIUXBD7XST0EPCZKPUS&tp_b=3I02618YA1SUIUXBD7XST0EPCZKPUS&c=365799&tp_c=365799"},{"rt":8875,"stimulus":"\n            <h4 style=\"color:Orange;\">Student 6</h4>\n            <h2>The weight of your coin is <b style=\"color:Tomato;\">0.8</b>.</h2>\n            <p>In this block, you will be giving <b>one</b> set of examples to Student 6.</p>\n                <p>You will receive feedback at the end of the block.</p>\n            <p></p>","response":0,"trial_type":"html-button-response","trial_index":59,"time_elapsed":937591,"internal_node_id":"0.0-49.0","params":{"nStudents":24,"maxFlips":30,"completionMinutes":45,"basePay":8,"maxBonus":9,"perTrialBonus":0.5,"perTrialBonusThreshold":0.05,"exampleCost":0.01},"classroomParams":{"A":{"a":1,"b":4},"B":{"a":4,"b":1},"C":{"a":2,"b":8},"D":{"a":8,"b":2}},"conditions":["nonSeqFull","nonSeqPartial","seqNoFeedback","seqFeedback"],"classroomPairings":[["A","B"],["C","D"]],"coinWeights":[0.2,0.5,0.8],"subjectId":"AHYTT3T8W9Y9Y","assignmentId":"3I02618YA1SUIUXBD7XST0EPCZKPUS","hitId":"3J94SKDEKIB2MY6CGVTNWB9X0ALD5P","url":"https://gershmanlab.com/experiments/alicia/teaching/experiment/?hitId=3J94SKDEKIB2MY6CGVTNWB9X0ALD5P&workerId=AHYTT3T8W9Y9Y&assignmentId=3I02618YA1SUIUXBD7XST0EPCZKPUS&a=Y60I9&tp_a=Y60I9&b=3I02618YA1SUIUXBD7XST0EPCZKPUS&tp_b=3I02618YA1SUIUXBD7XST0EPCZKPUS&c=365799&tp_c=365799"},{"rt":9450,"response":{"heads":"4","tails":"1"},"type":"response","condition":"nonSeqPartial","trueTheta":0.8,"classrooms":["A","B"],"studentTrueClassroom":"B","exampleSet":"first","trial_type":"survey-html-form","trial_index":60,"time_elapsed":947043,"internal_node_id":"0.0-50.0-0.0","params":{"nStudents":24,"maxFlips":30,"completionMinutes":45,"basePay":8,"maxBonus":9,"perTrialBonus":0.5,"perTrialBonusThreshold":0.05,"exampleCost":0.01},"classroomParams":{"A":{"a":1,"b":4},"B":{"a":4,"b":1},"C":{"a":2,"b":8},"D":{"a":8,"b":2}},"conditions":["nonSeqFull","nonSeqPartial","seqNoFeedback","seqFeedback"],"classroomPairings":[["A","B"],["C","D"]],"coinWeights":[0.2,0.5,0.8],"subjectId":"AHYTT3T8W9Y9Y","assignmentId":"3I02618YA1SUIUXBD7XST0EPCZKPUS","hitId":"3J94SKDEKIB2MY6CGVTNWB9X0ALD5P","url":"https://gershmanlab.com/experiments/alicia/teaching/experiment/?hitId=3J94SKDEKIB2MY6CGVTNWB9X0ALD5P&workerId=AHYTT3T8W9Y9Y&assignmentId=3I02618YA1SUIUXBD7XST0EPCZKPUS&a=Y60I9&tp_a=Y60I9&b=3I02618YA1SUIUXBD7XST0EPCZKPUS&tp_b=3I02618YA1SUIUXBD7XST0EPCZKPUS&c=365799&tp_c=365799","heads":4,"tails":1,"studentIndex":5,"studentTrueHypers":{"a":4,"b":1},"studentGuess":0.8,"delta":0,"totalExamples":5,"bonus":0.45,"bonusSoFar":1.52},{"rt":null,"stimulus":"Sending examples to student... ","response":null,"trial_type":"html-keyboard-response","trial_index":61,"time_elapsed":949045,"internal_node_id":"0.0-51.0","params":{"nStudents":24,"maxFlips":30,"completionMinutes":45,"basePay":8,"maxBonus":9,"perTrialBonus":0.5,"perTrialBonusThreshold":0.05,"exampleCost":0.01},"classroomParams":{"A":{"a":1,"b":4},"B":{"a":4,"b":1},"C":{"a":2,"b":8},"D":{"a":8,"b":2}},"conditions":["nonSeqFull","nonSeqPartial","seqNoFeedback","seqFeedback"],"classroomPairings":[["A","B"],["C","D"]],"coinWeights":[0.2,0.5,0.8],"subjectId":"AHYTT3T8W9Y9Y","assignmentId":"3I02618YA1SUIUXBD7XST0EPCZKPUS","hitId":"3J94SKDEKIB2MY6CGVTNWB9X0ALD5P","url":"https://gershmanlab.com/experiments/alicia/teaching/experiment/?hitId=3J94SKDEKIB2MY6CGVTNWB9X0ALD5P&workerId=AHYTT3T8W9Y9Y&assignmentId=3I02618YA1SUIUXBD7XST0EPCZKPUS&a=Y60I9&tp_a=Y60I9&b=3I02618YA1SUIUXBD7XST0EPCZKPUS&tp_b=3I02618YA1SUIUXBD7XST0EPCZKPUS&c=365799&tp_c=365799"},{"rt":null,"stimulus":"Examples sent to student! Waiting for student...","response":null,"trial_type":"html-keyboard-response","trial_index":62,"time_elapsed":954546,"internal_node_id":"0.0-52.0","params":{"nStudents":24,"maxFlips":30,"completionMinutes":45,"basePay":8,"maxBonus":9,"perTrialBonus":0.5,"perTrialBonusThreshold":0.05,"exampleCost":0.01},"classroomParams":{"A":{"a":1,"b":4},"B":{"a":4,"b":1},"C":{"a":2,"b":8},"D":{"a":8,"b":2}},"conditions":["nonSeqFull","nonSeqPartial","seqNoFeedback","seqFeedback"],"classroomPairings":[["A","B"],["C","D"]],"coinWeights":[0.2,0.5,0.8],"subjectId":"AHYTT3T8W9Y9Y","assignmentId":"3I02618YA1SUIUXBD7XST0EPCZKPUS","hitId":"3J94SKDEKIB2MY6CGVTNWB9X0ALD5P","url":"https://gershmanlab.com/experiments/alicia/teaching/experiment/?hitId=3J94SKDEKIB2MY6CGVTNWB9X0ALD5P&workerId=AHYTT3T8W9Y9Y&assignmentId=3I02618YA1SUIUXBD7XST0EPCZKPUS&a=Y60I9&tp_a=Y60I9&b=3I02618YA1SUIUXBD7XST0EPCZKPUS&tp_b=3I02618YA1SUIUXBD7XST0EPCZKPUS&c=365799&tp_c=365799"},{"rt":3505,"stimulus":"\n                <p>Student's guess for coin weight: <b style=\"color:Tomato;\">0.80</b></p>\n                <p>You received a bonus of <b>$0.45</b>. Total bonus so far: <b>$1.52</b></b></p>\n                <p></p>\n                <p>Press any key to continue.</p>\n                ","response":" ","trial_type":"html-keyboard-response","trial_index":63,"time_elapsed":958053,"internal_node_id":"0.0-53.0","params":{"nStudents":24,"maxFlips":30,"completionMinutes":45,"basePay":8,"maxBonus":9,"perTrialBonus":0.5,"perTrialBonusThreshold":0.05,"exampleCost":0.01},"classroomParams":{"A":{"a":1,"b":4},"B":{"a":4,"b":1},"C":{"a":2,"b":8},"D":{"a":8,"b":2}},"conditions":["nonSeqFull","nonSeqPartial","seqNoFeedback","seqFeedback"],"classroomPairings":[["A","B"],["C","D"]],"coinWeights":[0.2,0.5,0.8],"subjectId":"AHYTT3T8W9Y9Y","assignmentId":"3I02618YA1SUIUXBD7XST0EPCZKPUS","hitId":"3J94SKDEKIB2MY6CGVTNWB9X0ALD5P","url":"https://gershmanlab.com/experiments/alicia/teaching/experiment/?hitId=3J94SKDEKIB2MY6CGVTNWB9X0ALD5P&workerId=AHYTT3T8W9Y9Y&assignmentId=3I02618YA1SUIUXBD7XST0EPCZKPUS&a=Y60I9&tp_a=Y60I9&b=3I02618YA1SUIUXBD7XST0EPCZKPUS&tp_b=3I02618YA1SUIUXBD7XST0EPCZKPUS&c=365799&tp_c=365799"},{"rt":null,"stimulus":"<div style=\"font-size:60px;\">Next student</div>","response":null,"trial_type":"html-keyboard-response","trial_index":64,"time_elapsed":960054,"internal_node_id":"0.0-54.0-0.0","params":{"nStudents":24,"maxFlips":30,"completionMinutes":45,"basePay":8,"maxBonus":9,"perTrialBonus":0.5,"perTrialBonusThreshold":0.05,"exampleCost":0.01},"classroomParams":{"A":{"a":1,"b":4},"B":{"a":4,"b":1},"C":{"a":2,"b":8},"D":{"a":8,"b":2}},"conditions":["nonSeqFull","nonSeqPartial","seqNoFeedback","seqFeedback"],"classroomPairings":[["A","B"],["C","D"]],"coinWeights":[0.2,0.5,0.8],"subjectId":"AHYTT3T8W9Y9Y","assignmentId":"3I02618YA1SUIUXBD7XST0EPCZKPUS","hitId":"3J94SKDEKIB2MY6CGVTNWB9X0ALD5P","url":"https://gershmanlab.com/experiments/alicia/teaching/experiment/?hitId=3J94SKDEKIB2MY6CGVTNWB9X0ALD5P&workerId=AHYTT3T8W9Y9Y&assignmentId=3I02618YA1SUIUXBD7XST0EPCZKPUS&a=Y60I9&tp_a=Y60I9&b=3I02618YA1SUIUXBD7XST0EPCZKPUS&tp_b=3I02618YA1SUIUXBD7XST0EPCZKPUS&c=365799&tp_c=365799"},{"rt":2252,"stimulus":"\n            <h4 style=\"color:Orange;\">Student 7</h4>\n            <h2>The weight of your coin is <b style=\"color:Tomato;\">0.8</b>.</h2>\n            <p>In this block, you will be giving <b>one</b> set of examples to Student 7.</p>\n                <p>You will receive feedback at the end of the block.</p>\n            <p></p>","response":0,"trial_type":"html-button-response","trial_index":65,"time_elapsed":962307,"internal_node_id":"0.0-55.0","params":{"nStudents":24,"maxFlips":30,"completionMinutes":45,"basePay":8,"maxBonus":9,"perTrialBonus":0.5,"perTrialBonusThreshold":0.05,"exampleCost":0.01},"classroomParams":{"A":{"a":1,"b":4},"B":{"a":4,"b":1},"C":{"a":2,"b":8},"D":{"a":8,"b":2}},"conditions":["nonSeqFull","nonSeqPartial","seqNoFeedback","seqFeedback"],"classroomPairings":[["A","B"],["C","D"]],"coinWeights":[0.2,0.5,0.8],"subjectId":"AHYTT3T8W9Y9Y","assignmentId":"3I02618YA1SUIUXBD7XST0EPCZKPUS","hitId":"3J94SKDEKIB2MY6CGVTNWB9X0ALD5P","url":"https://gershmanlab.com/experiments/alicia/teaching/experiment/?hitId=3J94SKDEKIB2MY6CGVTNWB9X0ALD5P&workerId=AHYTT3T8W9Y9Y&assignmentId=3I02618YA1SUIUXBD7XST0EPCZKPUS&a=Y60I9&tp_a=Y60I9&b=3I02618YA1SUIUXBD7XST0EPCZKPUS&tp_b=3I02618YA1SUIUXBD7XST0EPCZKPUS&c=365799&tp_c=365799"},{"rt":18473,"response":{"heads":"7","tails":"1"},"type":"response","condition":"nonSeqFull","trueTheta":0.8,"classrooms":["A","B"],"studentTrueClassroom":"A","exampleSet":"first","trial_type":"survey-html-form","trial_index":66,"time_elapsed":980782,"internal_node_id":"0.0-56.0-0.0","params":{"nStudents":24,"maxFlips":30,"completionMinutes":45,"basePay":8,"maxBonus":9,"perTrialBonus":0.5,"perTrialBonusThreshold":0.05,"exampleCost":0.01},"classroomParams":{"A":{"a":1,"b":4},"B":{"a":4,"b":1},"C":{"a":2,"b":8},"D":{"a":8,"b":2}},"conditions":["nonSeqFull","nonSeqPartial","seqNoFeedback","seqFeedback"],"classroomPairings":[["A","B"],["C","D"]],"coinWeights":[0.2,0.5,0.8],"subjectId":"AHYTT3T8W9Y9Y","assignmentId":"3I02618YA1SUIUXBD7XST0EPCZKPUS","hitId":"3J94SKDEKIB2MY6CGVTNWB9X0ALD5P","url":"https://gershmanlab.com/experiments/alicia/teaching/experiment/?hitId=3J94SKDEKIB2MY6CGVTNWB9X0ALD5P&workerId=AHYTT3T8W9Y9Y&assignmentId=3I02618YA1SUIUXBD7XST0EPCZKPUS&a=Y60I9&tp_a=Y60I9&b=3I02618YA1SUIUXBD7XST0EPCZKPUS&tp_b=3I02618YA1SUIUXBD7XST0EPCZKPUS&c=365799&tp_c=365799","heads":7,"tails":1,"studentIndex":6,"studentTrueHypers":{"a":1,"b":4},"studentGuess":0.6153846153846154,"delta":0.18461538461538463,"totalExamples":8,"bonus":0,"bonusSoFar":1.52},{"rt":null,"stimulus":"Sending examples to student... ","response":null,"trial_type":"html-keyboard-response","trial_index":67,"time_elapsed":982784,"internal_node_id":"0.0-57.0","params":{"nStudents":24,"maxFlips":30,"completionMinutes":45,"basePay":8,"maxBonus":9,"perTrialBonus":0.5,"perTrialBonusThreshold":0.05,"exampleCost":0.01},"classroomParams":{"A":{"a":1,"b":4},"B":{"a":4,"b":1},"C":{"a":2,"b":8},"D":{"a":8,"b":2}},"conditions":["nonSeqFull","nonSeqPartial","seqNoFeedback","seqFeedback"],"classroomPairings":[["A","B"],["C","D"]],"coinWeights":[0.2,0.5,0.8],"subjectId":"AHYTT3T8W9Y9Y","assignmentId":"3I02618YA1SUIUXBD7XST0EPCZKPUS","hitId":"3J94SKDEKIB2MY6CGVTNWB9X0ALD5P","url":"https://gershmanlab.com/experiments/alicia/teaching/experiment/?hitId=3J94SKDEKIB2MY6CGVTNWB9X0ALD5P&workerId=AHYTT3T8W9Y9Y&assignmentId=3I02618YA1SUIUXBD7XST0EPCZKPUS&a=Y60I9&tp_a=Y60I9&b=3I02618YA1SUIUXBD7XST0EPCZKPUS&tp_b=3I02618YA1SUIUXBD7XST0EPCZKPUS&c=365799&tp_c=365799"},{"rt":null,"stimulus":"Examples sent to student! Waiting for student...","response":null,"trial_type":"html-keyboard-response","trial_index":68,"time_elapsed":988285,"internal_node_id":"0.0-58.0","params":{"nStudents":24,"maxFlips":30,"completionMinutes":45,"basePay":8,"maxBonus":9,"perTrialBonus":0.5,"perTrialBonusThreshold":0.05,"exampleCost":0.01},"classroomParams":{"A":{"a":1,"b":4},"B":{"a":4,"b":1},"C":{"a":2,"b":8},"D":{"a":8,"b":2}},"conditions":["nonSeqFull","nonSeqPartial","seqNoFeedback","seqFeedback"],"classroomPairings":[["A","B"],["C","D"]],"coinWeights":[0.2,0.5,0.8],"subjectId":"AHYTT3T8W9Y9Y","assignmentId":"3I02618YA1SUIUXBD7XST0EPCZKPUS","hitId":"3J94SKDEKIB2MY6CGVTNWB9X0ALD5P","url":"https://gershmanlab.com/experiments/alicia/teaching/experiment/?hitId=3J94SKDEKIB2MY6CGVTNWB9X0ALD5P&workerId=AHYTT3T8W9Y9Y&assignmentId=3I02618YA1SUIUXBD7XST0EPCZKPUS&a=Y60I9&tp_a=Y60I9&b=3I02618YA1SUIUXBD7XST0EPCZKPUS&tp_b=3I02618YA1SUIUXBD7XST0EPCZKPUS&c=365799&tp_c=365799"},{"rt":2142,"stimulus":"\n                <p>Student's guess for coin weight: <b style=\"color:Tomato;\">0.62</b></p>\n                <p>You received a bonus of <b>$0</b>. Total bonus so far: <b>$1.52</b></b></p>\n                <p></p>\n                <p>Press any key to continue.</p>\n                ","response":" ","trial_type":"html-keyboard-response","trial_index":69,"time_elapsed":990428,"internal_node_id":"0.0-59.0","params":{"nStudents":24,"maxFlips":30,"completionMinutes":45,"basePay":8,"maxBonus":9,"perTrialBonus":0.5,"perTrialBonusThreshold":0.05,"exampleCost":0.01},"classroomParams":{"A":{"a":1,"b":4},"B":{"a":4,"b":1},"C":{"a":2,"b":8},"D":{"a":8,"b":2}},"conditions":["nonSeqFull","nonSeqPartial","seqNoFeedback","seqFeedback"],"classroomPairings":[["A","B"],["C","D"]],"coinWeights":[0.2,0.5,0.8],"subjectId":"AHYTT3T8W9Y9Y","assignmentId":"3I02618YA1SUIUXBD7XST0EPCZKPUS","hitId":"3J94SKDEKIB2MY6CGVTNWB9X0ALD5P","url":"https://gershmanlab.com/experiments/alicia/teaching/experiment/?hitId=3J94SKDEKIB2MY6CGVTNWB9X0ALD5P&workerId=AHYTT3T8W9Y9Y&assignmentId=3I02618YA1SUIUXBD7XST0EPCZKPUS&a=Y60I9&tp_a=Y60I9&b=3I02618YA1SUIUXBD7XST0EPCZKPUS&tp_b=3I02618YA1SUIUXBD7XST0EPCZKPUS&c=365799&tp_c=365799"},{"rt":null,"stimulus":"<div style=\"font-size:60px;\">Next student</div>","response":null,"trial_type":"html-keyboard-response","trial_index":70,"time_elapsed":992430,"internal_node_id":"0.0-60.0-0.0","params":{"nStudents":24,"maxFlips":30,"completionMinutes":45,"basePay":8,"maxBonus":9,"perTrialBonus":0.5,"perTrialBonusThreshold":0.05,"exampleCost":0.01},"classroomParams":{"A":{"a":1,"b":4},"B":{"a":4,"b":1},"C":{"a":2,"b":8},"D":{"a":8,"b":2}},"conditions":["nonSeqFull","nonSeqPartial","seqNoFeedback","seqFeedback"],"classroomPairings":[["A","B"],["C","D"]],"coinWeights":[0.2,0.5,0.8],"subjectId":"AHYTT3T8W9Y9Y","assignmentId":"3I02618YA1SUIUXBD7XST0EPCZKPUS","hitId":"3J94SKDEKIB2MY6CGVTNWB9X0ALD5P","url":"https://gershmanlab.com/experiments/alicia/teaching/experiment/?hitId=3J94SKDEKIB2MY6CGVTNWB9X0ALD5P&workerId=AHYTT3T8W9Y9Y&assignmentId=3I02618YA1SUIUXBD7XST0EPCZKPUS&a=Y60I9&tp_a=Y60I9&b=3I02618YA1SUIUXBD7XST0EPCZKPUS&tp_b=3I02618YA1SUIUXBD7XST0EPCZKPUS&c=365799&tp_c=365799"},{"rt":3719,"stimulus":"\n            <h4 style=\"color:Orange;\">Student 8</h4>\n            <h2>The weight of your coin is <b style=\"color:Tomato;\">0.5</b>.</h2>\n            <p>In this block, you will be giving <b>two</b> sets of examples to Student 8.</p>\n                <p>You will see the student's guess after the first set of examples. You will also receive feedback at the end of the block.</p>\n            <p>To earn the highest bonus, you will have to <b>take into consideration the student's guess</b> when you choose your second set of examples.</p>","response":0,"trial_type":"html-button-response","trial_index":71,"time_elapsed":996151,"internal_node_id":"0.0-61.0","params":{"nStudents":24,"maxFlips":30,"completionMinutes":45,"basePay":8,"maxBonus":9,"perTrialBonus":0.5,"perTrialBonusThreshold":0.05,"exampleCost":0.01},"classroomParams":{"A":{"a":1,"b":4},"B":{"a":4,"b":1},"C":{"a":2,"b":8},"D":{"a":8,"b":2}},"conditions":["nonSeqFull","nonSeqPartial","seqNoFeedback","seqFeedback"],"classroomPairings":[["A","B"],["C","D"]],"coinWeights":[0.2,0.5,0.8],"subjectId":"AHYTT3T8W9Y9Y","assignmentId":"3I02618YA1SUIUXBD7XST0EPCZKPUS","hitId":"3J94SKDEKIB2MY6CGVTNWB9X0ALD5P","url":"https://gershmanlab.com/experiments/alicia/teaching/experiment/?hitId=3J94SKDEKIB2MY6CGVTNWB9X0ALD5P&workerId=AHYTT3T8W9Y9Y&assignmentId=3I02618YA1SUIUXBD7XST0EPCZKPUS&a=Y60I9&tp_a=Y60I9&b=3I02618YA1SUIUXBD7XST0EPCZKPUS&tp_b=3I02618YA1SUIUXBD7XST0EPCZKPUS&c=365799&tp_c=365799"},{"rt":11073,"response":{"heads":"5","tails":"5"},"type":"response","condition":"seqFeedback","trueTheta":0.5,"classrooms":["A","B"],"studentTrueClassroom":"A","exampleSet":"first","trial_type":"survey-html-form","trial_index":72,"time_elapsed":1007226,"internal_node_id":"0.0-62.0-0.0","params":{"nStudents":24,"maxFlips":30,"completionMinutes":45,"basePay":8,"maxBonus":9,"perTrialBonus":0.5,"perTrialBonusThreshold":0.05,"exampleCost":0.01},"classroomParams":{"A":{"a":1,"b":4},"B":{"a":4,"b":1},"C":{"a":2,"b":8},"D":{"a":8,"b":2}},"conditions":["nonSeqFull","nonSeqPartial","seqNoFeedback","seqFeedback"],"classroomPairings":[["A","B"],["C","D"]],"coinWeights":[0.2,0.5,0.8],"subjectId":"AHYTT3T8W9Y9Y","assignmentId":"3I02618YA1SUIUXBD7XST0EPCZKPUS","hitId":"3J94SKDEKIB2MY6CGVTNWB9X0ALD5P","url":"https://gershmanlab.com/experiments/alicia/teaching/experiment/?hitId=3J94SKDEKIB2MY6CGVTNWB9X0ALD5P&workerId=AHYTT3T8W9Y9Y&assignmentId=3I02618YA1SUIUXBD7XST0EPCZKPUS&a=Y60I9&tp_a=Y60I9&b=3I02618YA1SUIUXBD7XST0EPCZKPUS&tp_b=3I02618YA1SUIUXBD7XST0EPCZKPUS&c=365799&tp_c=365799","heads":5,"tails":5,"studentIndex":7,"studentTrueHypers":{"a":1,"b":4},"studentGuess":0.4,"delta":0.09999999999999998,"totalExamples":10,"bonusSoFar":1.52},{"rt":null,"stimulus":"Sending examples to student... ","response":null,"trial_type":"html-keyboard-response","trial_index":73,"time_elapsed":1008978,"internal_node_id":"0.0-63.0","params":{"nStudents":24,"maxFlips":30,"completionMinutes":45,"basePay":8,"maxBonus":9,"perTrialBonus":0.5,"perTrialBonusThreshold":0.05,"exampleCost":0.01},"classroomParams":{"A":{"a":1,"b":4},"B":{"a":4,"b":1},"C":{"a":2,"b":8},"D":{"a":8,"b":2}},"conditions":["nonSeqFull","nonSeqPartial","seqNoFeedback","seqFeedback"],"classroomPairings":[["A","B"],["C","D"]],"coinWeights":[0.2,0.5,0.8],"subjectId":"AHYTT3T8W9Y9Y","assignmentId":"3I02618YA1SUIUXBD7XST0EPCZKPUS","hitId":"3J94SKDEKIB2MY6CGVTNWB9X0ALD5P","url":"https://gershmanlab.com/experiments/alicia/teaching/experiment/?hitId=3J94SKDEKIB2MY6CGVTNWB9X0ALD5P&workerId=AHYTT3T8W9Y9Y&assignmentId=3I02618YA1SUIUXBD7XST0EPCZKPUS&a=Y60I9&tp_a=Y60I9&b=3I02618YA1SUIUXBD7XST0EPCZKPUS&tp_b=3I02618YA1SUIUXBD7XST0EPCZKPUS&c=365799&tp_c=365799"},{"rt":null,"stimulus":"Examples sent to student! Waiting for student...","response":null,"trial_type":"html-keyboard-response","trial_index":74,"time_elapsed":1015291,"internal_node_id":"0.0-64.0","params":{"nStudents":24,"maxFlips":30,"completionMinutes":45,"basePay":8,"maxBonus":9,"perTrialBonus":0.5,"perTrialBonusThreshold":0.05,"exampleCost":0.01},"classroomParams":{"A":{"a":1,"b":4},"B":{"a":4,"b":1},"C":{"a":2,"b":8},"D":{"a":8,"b":2}},"conditions":["nonSeqFull","nonSeqPartial","seqNoFeedback","seqFeedback"],"classroomPairings":[["A","B"],["C","D"]],"coinWeights":[0.2,0.5,0.8],"subjectId":"AHYTT3T8W9Y9Y","assignmentId":"3I02618YA1SUIUXBD7XST0EPCZKPUS","hitId":"3J94SKDEKIB2MY6CGVTNWB9X0ALD5P","url":"https://gershmanlab.com/experiments/alicia/teaching/experiment/?hitId=3J94SKDEKIB2MY6CGVTNWB9X0ALD5P&workerId=AHYTT3T8W9Y9Y&assignmentId=3I02618YA1SUIUXBD7XST0EPCZKPUS&a=Y60I9&tp_a=Y60I9&b=3I02618YA1SUIUXBD7XST0EPCZKPUS&tp_b=3I02618YA1SUIUXBD7XST0EPCZKPUS&c=365799&tp_c=365799"},{"rt":9199,"stimulus":"\n                <p>Student's guess for coin weight: <b style=\"color:Tomato;\">0.40</b></p>\n                <p></b></p>\n                <p>You will now send another set of examples to your student. <b>Remember to take your student's guess into consideration so that you can earn the highest bonus possible!</b> </p>\n                <p>Press any key to continue.</p>\n                ","response":" ","trial_type":"html-keyboard-response","trial_index":75,"time_elapsed":1024492,"internal_node_id":"0.0-65.0","params":{"nStudents":24,"maxFlips":30,"completionMinutes":45,"basePay":8,"maxBonus":9,"perTrialBonus":0.5,"perTrialBonusThreshold":0.05,"exampleCost":0.01},"classroomParams":{"A":{"a":1,"b":4},"B":{"a":4,"b":1},"C":{"a":2,"b":8},"D":{"a":8,"b":2}},"conditions":["nonSeqFull","nonSeqPartial","seqNoFeedback","seqFeedback"],"classroomPairings":[["A","B"],["C","D"]],"coinWeights":[0.2,0.5,0.8],"subjectId":"AHYTT3T8W9Y9Y","assignmentId":"3I02618YA1SUIUXBD7XST0EPCZKPUS","hitId":"3J94SKDEKIB2MY6CGVTNWB9X0ALD5P","url":"https://gershmanlab.com/experiments/alicia/teaching/experiment/?hitId=3J94SKDEKIB2MY6CGVTNWB9X0ALD5P&workerId=AHYTT3T8W9Y9Y&assignmentId=3I02618YA1SUIUXBD7XST0EPCZKPUS&a=Y60I9&tp_a=Y60I9&b=3I02618YA1SUIUXBD7XST0EPCZKPUS&tp_b=3I02618YA1SUIUXBD7XST0EPCZKPUS&c=365799&tp_c=365799"},{"rt":11151,"response":{"heads":"8","tails":"8"},"type":"response","condition":"seqFeedback","trueTheta":0.5,"classrooms":["A","B"],"studentTrueClassroom":"A","exampleSet":"second","trial_type":"survey-html-form","trial_index":76,"time_elapsed":1035645,"internal_node_id":"0.0-66.0-0.0","params":{"nStudents":24,"maxFlips":30,"completionMinutes":45,"basePay":8,"maxBonus":9,"perTrialBonus":0.5,"perTrialBonusThreshold":0.05,"exampleCost":0.01},"classroomParams":{"A":{"a":1,"b":4},"B":{"a":4,"b":1},"C":{"a":2,"b":8},"D":{"a":8,"b":2}},"conditions":["nonSeqFull","nonSeqPartial","seqNoFeedback","seqFeedback"],"classroomPairings":[["A","B"],["C","D"]],"coinWeights":[0.2,0.5,0.8],"subjectId":"AHYTT3T8W9Y9Y","assignmentId":"3I02618YA1SUIUXBD7XST0EPCZKPUS","hitId":"3J94SKDEKIB2MY6CGVTNWB9X0ALD5P","url":"https://gershmanlab.com/experiments/alicia/teaching/experiment/?hitId=3J94SKDEKIB2MY6CGVTNWB9X0ALD5P&workerId=AHYTT3T8W9Y9Y&assignmentId=3I02618YA1SUIUXBD7XST0EPCZKPUS&a=Y60I9&tp_a=Y60I9&b=3I02618YA1SUIUXBD7XST0EPCZKPUS&tp_b=3I02618YA1SUIUXBD7XST0EPCZKPUS&c=365799&tp_c=365799","firstResponseHeads":5,"firstResponseTails":5,"secondResponseHeads":8,"secondResponseTails":8,"totalHeads":13,"totalTails":13,"studentIndex":7,"studentTrueHypers":{"a":1,"b":4},"studentGuess":0.45161290322580644,"delta":0.04838709677419356,"bonus":0.24,"bonusSoFar":1.76,"totalExamples":26},{"rt":null,"stimulus":"Sending examples to student... ","response":null,"trial_type":"html-keyboard-response","trial_index":77,"time_elapsed":1037397,"internal_node_id":"0.0-67.0","params":{"nStudents":24,"maxFlips":30,"completionMinutes":45,"basePay":8,"maxBonus":9,"perTrialBonus":0.5,"perTrialBonusThreshold":0.05,"exampleCost":0.01},"classroomParams":{"A":{"a":1,"b":4},"B":{"a":4,"b":1},"C":{"a":2,"b":8},"D":{"a":8,"b":2}},"conditions":["nonSeqFull","nonSeqPartial","seqNoFeedback","seqFeedback"],"classroomPairings":[["A","B"],["C","D"]],"coinWeights":[0.2,0.5,0.8],"subjectId":"AHYTT3T8W9Y9Y","assignmentId":"3I02618YA1SUIUXBD7XST0EPCZKPUS","hitId":"3J94SKDEKIB2MY6CGVTNWB9X0ALD5P","url":"https://gershmanlab.com/experiments/alicia/teaching/experiment/?hitId=3J94SKDEKIB2MY6CGVTNWB9X0ALD5P&workerId=AHYTT3T8W9Y9Y&assignmentId=3I02618YA1SUIUXBD7XST0EPCZKPUS&a=Y60I9&tp_a=Y60I9&b=3I02618YA1SUIUXBD7XST0EPCZKPUS&tp_b=3I02618YA1SUIUXBD7XST0EPCZKPUS&c=365799&tp_c=365799"},{"rt":null,"stimulus":"Examples sent to student! Waiting for student...","response":null,"trial_type":"html-keyboard-response","trial_index":78,"time_elapsed":1042898,"internal_node_id":"0.0-68.0","params":{"nStudents":24,"maxFlips":30,"completionMinutes":45,"basePay":8,"maxBonus":9,"perTrialBonus":0.5,"perTrialBonusThreshold":0.05,"exampleCost":0.01},"classroomParams":{"A":{"a":1,"b":4},"B":{"a":4,"b":1},"C":{"a":2,"b":8},"D":{"a":8,"b":2}},"conditions":["nonSeqFull","nonSeqPartial","seqNoFeedback","seqFeedback"],"classroomPairings":[["A","B"],["C","D"]],"coinWeights":[0.2,0.5,0.8],"subjectId":"AHYTT3T8W9Y9Y","assignmentId":"3I02618YA1SUIUXBD7XST0EPCZKPUS","hitId":"3J94SKDEKIB2MY6CGVTNWB9X0ALD5P","url":"https://gershmanlab.com/experiments/alicia/teaching/experiment/?hitId=3J94SKDEKIB2MY6CGVTNWB9X0ALD5P&workerId=AHYTT3T8W9Y9Y&assignmentId=3I02618YA1SUIUXBD7XST0EPCZKPUS&a=Y60I9&tp_a=Y60I9&b=3I02618YA1SUIUXBD7XST0EPCZKPUS&tp_b=3I02618YA1SUIUXBD7XST0EPCZKPUS&c=365799&tp_c=365799"},{"rt":4816,"stimulus":"\n                <p>Student 8's first guess for coin weight: <b style=\"color:Tomato\";>0.40</b></p>\n                <p>Student 8's second guess for coin weight: <b style=\"color:Tomato\";>0.45</b></p>\n                <p>You received a bonus of <b>$0.24</b> based on the student's second guess.</p>\n                <p>Total bonus so far: <b>$1.76</b></p>\n                <p>Press any key to continue.</p>\n                ","response":" ","trial_type":"html-keyboard-response","trial_index":79,"time_elapsed":1047716,"internal_node_id":"0.0-69.0","params":{"nStudents":24,"maxFlips":30,"completionMinutes":45,"basePay":8,"maxBonus":9,"perTrialBonus":0.5,"perTrialBonusThreshold":0.05,"exampleCost":0.01},"classroomParams":{"A":{"a":1,"b":4},"B":{"a":4,"b":1},"C":{"a":2,"b":8},"D":{"a":8,"b":2}},"conditions":["nonSeqFull","nonSeqPartial","seqNoFeedback","seqFeedback"],"classroomPairings":[["A","B"],["C","D"]],"coinWeights":[0.2,0.5,0.8],"subjectId":"AHYTT3T8W9Y9Y","assignmentId":"3I02618YA1SUIUXBD7XST0EPCZKPUS","hitId":"3J94SKDEKIB2MY6CGVTNWB9X0ALD5P","url":"https://gershmanlab.com/experiments/alicia/teaching/experiment/?hitId=3J94SKDEKIB2MY6CGVTNWB9X0ALD5P&workerId=AHYTT3T8W9Y9Y&assignmentId=3I02618YA1SUIUXBD7XST0EPCZKPUS&a=Y60I9&tp_a=Y60I9&b=3I02618YA1SUIUXBD7XST0EPCZKPUS&tp_b=3I02618YA1SUIUXBD7XST0EPCZKPUS&c=365799&tp_c=365799"},{"rt":null,"stimulus":"<div style=\"font-size:60px;\">Next student</div>","response":null,"trial_type":"html-keyboard-response","trial_index":80,"time_elapsed":1049717,"internal_node_id":"0.0-70.0-0.0","params":{"nStudents":24,"maxFlips":30,"completionMinutes":45,"basePay":8,"maxBonus":9,"perTrialBonus":0.5,"perTrialBonusThreshold":0.05,"exampleCost":0.01},"classroomParams":{"A":{"a":1,"b":4},"B":{"a":4,"b":1},"C":{"a":2,"b":8},"D":{"a":8,"b":2}},"conditions":["nonSeqFull","nonSeqPartial","seqNoFeedback","seqFeedback"],"classroomPairings":[["A","B"],["C","D"]],"coinWeights":[0.2,0.5,0.8],"subjectId":"AHYTT3T8W9Y9Y","assignmentId":"3I02618YA1SUIUXBD7XST0EPCZKPUS","hitId":"3J94SKDEKIB2MY6CGVTNWB9X0ALD5P","url":"https://gershmanlab.com/experiments/alicia/teaching/experiment/?hitId=3J94SKDEKIB2MY6CGVTNWB9X0ALD5P&workerId=AHYTT3T8W9Y9Y&assignmentId=3I02618YA1SUIUXBD7XST0EPCZKPUS&a=Y60I9&tp_a=Y60I9&b=3I02618YA1SUIUXBD7XST0EPCZKPUS&tp_b=3I02618YA1SUIUXBD7XST0EPCZKPUS&c=365799&tp_c=365799"},{"rt":2266,"stimulus":"\n            <h4 style=\"color:Orange;\">Student 9</h4>\n            <h2>The weight of your coin is <b style=\"color:Tomato;\">0.2</b>.</h2>\n            <p>In this block, you will be giving <b>one</b> set of examples to Student 9.</p>\n                <p>You will receive feedback at the end of the block.</p>\n            <p></p>","response":0,"trial_type":"html-button-response","trial_index":81,"time_elapsed":1051985,"internal_node_id":"0.0-71.0","params":{"nStudents":24,"maxFlips":30,"completionMinutes":45,"basePay":8,"maxBonus":9,"perTrialBonus":0.5,"perTrialBonusThreshold":0.05,"exampleCost":0.01},"classroomParams":{"A":{"a":1,"b":4},"B":{"a":4,"b":1},"C":{"a":2,"b":8},"D":{"a":8,"b":2}},"conditions":["nonSeqFull","nonSeqPartial","seqNoFeedback","seqFeedback"],"classroomPairings":[["A","B"],["C","D"]],"coinWeights":[0.2,0.5,0.8],"subjectId":"AHYTT3T8W9Y9Y","assignmentId":"3I02618YA1SUIUXBD7XST0EPCZKPUS","hitId":"3J94SKDEKIB2MY6CGVTNWB9X0ALD5P","url":"https://gershmanlab.com/experiments/alicia/teaching/experiment/?hitId=3J94SKDEKIB2MY6CGVTNWB9X0ALD5P&workerId=AHYTT3T8W9Y9Y&assignmentId=3I02618YA1SUIUXBD7XST0EPCZKPUS&a=Y60I9&tp_a=Y60I9&b=3I02618YA1SUIUXBD7XST0EPCZKPUS&tp_b=3I02618YA1SUIUXBD7XST0EPCZKPUS&c=365799&tp_c=365799"},{"rt":10709,"response":{"heads":"1","tails":"4"},"type":"response","condition":"nonSeqFull","trueTheta":0.2,"classrooms":["A","B"],"studentTrueClassroom":"A","exampleSet":"first","trial_type":"survey-html-form","trial_index":82,"time_elapsed":1062696,"internal_node_id":"0.0-72.0-0.0","params":{"nStudents":24,"maxFlips":30,"completionMinutes":45,"basePay":8,"maxBonus":9,"perTrialBonus":0.5,"perTrialBonusThreshold":0.05,"exampleCost":0.01},"classroomParams":{"A":{"a":1,"b":4},"B":{"a":4,"b":1},"C":{"a":2,"b":8},"D":{"a":8,"b":2}},"conditions":["nonSeqFull","nonSeqPartial","seqNoFeedback","seqFeedback"],"classroomPairings":[["A","B"],["C","D"]],"coinWeights":[0.2,0.5,0.8],"subjectId":"AHYTT3T8W9Y9Y","assignmentId":"3I02618YA1SUIUXBD7XST0EPCZKPUS","hitId":"3J94SKDEKIB2MY6CGVTNWB9X0ALD5P","url":"https://gershmanlab.com/experiments/alicia/teaching/experiment/?hitId=3J94SKDEKIB2MY6CGVTNWB9X0ALD5P&workerId=AHYTT3T8W9Y9Y&assignmentId=3I02618YA1SUIUXBD7XST0EPCZKPUS&a=Y60I9&tp_a=Y60I9&b=3I02618YA1SUIUXBD7XST0EPCZKPUS&tp_b=3I02618YA1SUIUXBD7XST0EPCZKPUS&c=365799&tp_c=365799","heads":1,"tails":4,"studentIndex":8,"studentTrueHypers":{"a":1,"b":4},"studentGuess":0.2,"delta":0,"totalExamples":5,"bonus":0.45,"bonusSoFar":2.21},{"rt":null,"stimulus":"Sending examples to student... ","response":null,"trial_type":"html-keyboard-response","trial_index":83,"time_elapsed":1064198,"internal_node_id":"0.0-73.0","params":{"nStudents":24,"maxFlips":30,"completionMinutes":45,"basePay":8,"maxBonus":9,"perTrialBonus":0.5,"perTrialBonusThreshold":0.05,"exampleCost":0.01},"classroomParams":{"A":{"a":1,"b":4},"B":{"a":4,"b":1},"C":{"a":2,"b":8},"D":{"a":8,"b":2}},"conditions":["nonSeqFull","nonSeqPartial","seqNoFeedback","seqFeedback"],"classroomPairings":[["A","B"],["C","D"]],"coinWeights":[0.2,0.5,0.8],"subjectId":"AHYTT3T8W9Y9Y","assignmentId":"3I02618YA1SUIUXBD7XST0EPCZKPUS","hitId":"3J94SKDEKIB2MY6CGVTNWB9X0ALD5P","url":"https://gershmanlab.com/experiments/alicia/teaching/experiment/?hitId=3J94SKDEKIB2MY6CGVTNWB9X0ALD5P&workerId=AHYTT3T8W9Y9Y&assignmentId=3I02618YA1SUIUXBD7XST0EPCZKPUS&a=Y60I9&tp_a=Y60I9&b=3I02618YA1SUIUXBD7XST0EPCZKPUS&tp_b=3I02618YA1SUIUXBD7XST0EPCZKPUS&c=365799&tp_c=365799"},{"rt":null,"stimulus":"Examples sent to student! Waiting for student...","response":null,"trial_type":"html-keyboard-response","trial_index":84,"time_elapsed":1069199,"internal_node_id":"0.0-74.0","params":{"nStudents":24,"maxFlips":30,"completionMinutes":45,"basePay":8,"maxBonus":9,"perTrialBonus":0.5,"perTrialBonusThreshold":0.05,"exampleCost":0.01},"classroomParams":{"A":{"a":1,"b":4},"B":{"a":4,"b":1},"C":{"a":2,"b":8},"D":{"a":8,"b":2}},"conditions":["nonSeqFull","nonSeqPartial","seqNoFeedback","seqFeedback"],"classroomPairings":[["A","B"],["C",