[{"rt":null,"stimulus":"Welcome to the experiment. Press any key to begin.","response":null,"trial_type":"html-keyboard-response","trial_index":0,"time_elapsed":30029,"internal_node_id":"0.0-0.0","params":{"nStudents":24,"maxFlips":30,"completionMinutes":45,"basePay":8,"maxBonus":9,"perTrialBonus":0.5,"perTrialBonusThreshold":0.05,"exampleCost":0.01},"classroomParams":{"A":{"a":1,"b":4},"B":{"a":4,"b":1},"C":{"a":2,"b":8},"D":{"a":8,"b":2}},"conditions":["nonSeqFull","nonSeqPartial","seqNoFeedback","seqFeedback"],"classroomPairings":[["A","B"],["C","D"]],"coinWeights":[0.2,0.5,0.8],"subjectId":"AKSJ3C5O3V9RB","assignmentId":"3KGTPGBS6Y7YQNW5B9MGXN6W1PSU2A","hitId":"3JGHED38EDDK7DFM0KVY7GXU94LY7W","url":"https://gershmanlab.com/experiments/alicia/teaching/experiment/?hitId=3JGHED38EDDK7DFM0KVY7GXU94LY7W&workerId=AKSJ3C5O3V9RB&assignmentId=3KGTPGBS6Y7YQNW5B9MGXN6W1PSU2A&a=SPGK9&tp_a=SPGK9&b=3KGTPGBS6Y7YQNW5B9MGXN6W1PSU2A&tp_b=3KGTPGBS6Y7YQNW5B9MGXN6W1PSU2A&c=365799&tp_c=365799"},{"rt":69319,"stimulus":"\n        <h3>Please read this consent agreement carefully before deciding whether to participate in this experiment.</h3>\n        <p><b>Purpose of the research:</b> To examine how people teach effectively.</p>\n        <p><b>What you will do in this research:</b> You will teach students the weights of different coins.</p>\n        <p><b>Time required:</b> This experiment will take 45 minutes to complete.</p>\n        <p><b>Risks:</b> There are no anticipated risks associated with participating in this study.             The effects of participating should be comparable to those you would experience from viewing a computer monitor             and using a mouse and keyboard for the duration of the experiment.</p>\n        <p><b>Benefits:</b> The study provides important information about the nature of teaching.</p>\n        <p><b>Compensation:</b> You will receive <b>$8</b> for completing the experiment and a performance bonus of up to <b>$9</b>.</p>\n        <p><b>Confidentiality:</b> Your participation in this study will remain confidential.             No personally identifiable information will be associated with your data.             Your de-identified data may be shared with other researchers and used in future projects.</p>\n        <p><b>Participation and withdrawal:</b> Your participation in this study is completely voluntary and             you may refuse to participate or you may choose to withdraw at any time without penalty or loss of\n            benefits to which you are otherwise entitled.</p>\n        <p><b>How to contact the researcher:</b> If you have questions or concerns about your participation            or payment, or want to request a summary of research findings, please contact\n            Alicia Chen, aliciachen@college.harvard.edu.</p>\n        <p><b>Whom to contact about your rights in this research:</b> For questions, concerns, suggestions,             or complaints that have not been or cannot be addressed by the researcher, or to report             research-related harm, please contact the Committee on the Use of Human Subjects in Research at Harvard University,             1414 Massachusetts Avenue, Second Floor, Cambridge, MA 02138. Phone: 617-496-2847. Email: cuhs@fas.harvard.edu.</p>\n        ","response":0,"trial_type":"html-button-response","trial_index":1,"time_elapsed":99350,"internal_node_id":"0.0-1.0","params":{"nStudents":24,"maxFlips":30,"completionMinutes":45,"basePay":8,"maxBonus":9,"perTrialBonus":0.5,"perTrialBonusThreshold":0.05,"exampleCost":0.01},"classroomParams":{"A":{"a":1,"b":4},"B":{"a":4,"b":1},"C":{"a":2,"b":8},"D":{"a":8,"b":2}},"conditions":["nonSeqFull","nonSeqPartial","seqNoFeedback","seqFeedback"],"classroomPairings":[["A","B"],["C","D"]],"coinWeights":[0.2,0.5,0.8],"subjectId":"AKSJ3C5O3V9RB","assignmentId":"3KGTPGBS6Y7YQNW5B9MGXN6W1PSU2A","hitId":"3JGHED38EDDK7DFM0KVY7GXU94LY7W","url":"https://gershmanlab.com/experiments/alicia/teaching/experiment/?hitId=3JGHED38EDDK7DFM0KVY7GXU94LY7W&workerId=AKSJ3C5O3V9RB&assignmentId=3KGTPGBS6Y7YQNW5B9MGXN6W1PSU2A&a=SPGK9&tp_a=SPGK9&b=3KGTPGBS6Y7YQNW5B9MGXN6W1PSU2A&tp_b=3KGTPGBS6Y7YQNW5B9MGXN6W1PSU2A&c=365799&tp_c=365799"},{"view_history":[{"page_index":0,"viewing_time":3711},{"page_index":1,"viewing_time":2527},{"page_index":2,"viewing_time":332734},{"page_index":3,"viewing_time":2277378},{"page_index":4,"viewing_time":7063},{"page_index":5,"viewing_time":20309},{"page_index":6,"viewing_time":30233}],"rt":2673956,"trial_type":"instructions","trial_index":2,"time_elapsed":2773307,"internal_node_id":"0.0-2.0-0.0","params":{"nStudents":24,"maxFlips":30,"completionMinutes":45,"basePay":8,"maxBonus":9,"perTrialBonus":0.5,"perTrialBonusThreshold":0.05,"exampleCost":0.01},"classroomParams":{"A":{"a":1,"b":4},"B":{"a":4,"b":1},"C":{"a":2,"b":8},"D":{"a":8,"b":2}},"conditions":["nonSeqFull","nonSeqPartial","seqNoFeedback","seqFeedback"],"classroomPairings":[["A","B"],["C","D"]],"coinWeights":[0.2,0.5,0.8],"subjectId":"AKSJ3C5O3V9RB","assignmentId":"3KGTPGBS6Y7YQNW5B9MGXN6W1PSU2A","hitId":"3JGHED38EDDK7DFM0KVY7GXU94LY7W","url":"https://gershmanlab.com/experiments/alicia/teaching/experiment/?hitId=3JGHED38EDDK7DFM0KVY7GXU94LY7W&workerId=AKSJ3C5O3V9RB&assignmentId=3KGTPGBS6Y7YQNW5B9MGXN6W1PSU2A&a=SPGK9&tp_a=SPGK9&b=3KGTPGBS6Y7YQNW5B9MGXN6W1PSU2A&tp_b=3KGTPGBS6Y7YQNW5B9MGXN6W1PSU2A&c=365799&tp_c=365799"},{"rt":140438,"response":{"Q0":"Students in different classrooms will have seen a different number of heads and tails before seeing the examples you select for them.","Q1":"By <b>considering the student's classroom information</b> so that I can teach efficiently and accurately/helpfully at the same time (because each example I give to the student costs money!).","Q2":"The coin lands heads 90% of the time.","Q3":"No, I will teach a <b>new</b> student each time.","Q4":"The students are also on the same alien planet as you, where coins can be unfair.","Q5":"Based on the student's second (and final) guess."},"question_order":[3,0,4,1,2,5],"trial_type":"survey-multi-choice","trial_index":3,"time_elapsed":2913748,"internal_node_id":"0.0-2.0-1.0","params":{"nStudents":24,"maxFlips":30,"completionMinutes":45,"basePay":8,"maxBonus":9,"perTrialBonus":0.5,"perTrialBonusThreshold":0.05,"exampleCost":0.01},"classroomParams":{"A":{"a":1,"b":4},"B":{"a":4,"b":1},"C":{"a":2,"b":8},"D":{"a":8,"b":2}},"conditions":["nonSeqFull","nonSeqPartial","seqNoFeedback","seqFeedback"],"classroomPairings":[["A","B"],["C","D"]],"coinWeights":[0.2,0.5,0.8],"subjectId":"AKSJ3C5O3V9RB","assignmentId":"3KGTPGBS6Y7YQNW5B9MGXN6W1PSU2A","hitId":"3JGHED38EDDK7DFM0KVY7GXU94LY7W","url":"https://gershmanlab.com/experiments/alicia/teaching/experiment/?hitId=3JGHED38EDDK7DFM0KVY7GXU94LY7W&workerId=AKSJ3C5O3V9RB&assignmentId=3KGTPGBS6Y7YQNW5B9MGXN6W1PSU2A&a=SPGK9&tp_a=SPGK9&b=3KGTPGBS6Y7YQNW5B9MGXN6W1PSU2A&tp_b=3KGTPGBS6Y7YQNW5B9MGXN6W1PSU2A&c=365799&tp_c=365799","pass":true},{"rt":null,"stimulus":"<div style=\"font-size:30px;\">Congrats on passing the comprehension quiz! The experiment will begin in a few seconds.</div>","response":null,"trial_type":"html-keyboard-response","trial_index":4,"time_elapsed":2916759,"internal_node_id":"0.0-3.0","params":{"nStudents":24,"maxFlips":30,"completionMinutes":45,"basePay":8,"maxBonus":9,"perTrialBonus":0.5,"perTrialBonusThreshold":0.05,"exampleCost":0.01},"classroomParams":{"A":{"a":1,"b":4},"B":{"a":4,"b":1},"C":{"a":2,"b":8},"D":{"a":8,"b":2}},"conditions":["nonSeqFull","nonSeqPartial","seqNoFeedback","seqFeedback"],"classroomPairings":[["A","B"],["C","D"]],"coinWeights":[0.2,0.5,0.8],"subjectId":"AKSJ3C5O3V9RB","assignmentId":"3KGTPGBS6Y7YQNW5B9MGXN6W1PSU2A","hitId":"3JGHED38EDDK7DFM0KVY7GXU94LY7W","url":"https://gershmanlab.com/experiments/alicia/teaching/experiment/?hitId=3JGHED38EDDK7DFM0KVY7GXU94LY7W&workerId=AKSJ3C5O3V9RB&assignmentId=3KGTPGBS6Y7YQNW5B9MGXN6W1PSU2A&a=SPGK9&tp_a=SPGK9&b=3KGTPGBS6Y7YQNW5B9MGXN6W1PSU2A&tp_b=3KGTPGBS6Y7YQNW5B9MGXN6W1PSU2A&c=365799&tp_c=365799"},{"rt":null,"stimulus":"<div style=\"font-size:50px;\">First student</div>","response":null,"trial_type":"html-keyboard-response","trial_index":5,"time_elapsed":2919763,"internal_node_id":"0.0-4.0","params":{"nStudents":24,"maxFlips":30,"completionMinutes":45,"basePay":8,"maxBonus":9,"perTrialBonus":0.5,"perTrialBonusThreshold":0.05,"exampleCost":0.01},"classroomParams":{"A":{"a":1,"b":4},"B":{"a":4,"b":1},"C":{"a":2,"b":8},"D":{"a":8,"b":2}},"conditions":["nonSeqFull","nonSeqPartial","seqNoFeedback","seqFeedback"],"classroomPairings":[["A","B"],["C","D"]],"coinWeights":[0.2,0.5,0.8],"subjectId":"AKSJ3C5O3V9RB","assignmentId":"3KGTPGBS6Y7YQNW5B9MGXN6W1PSU2A","hitId":"3JGHED38EDDK7DFM0KVY7GXU94LY7W","url":"https://gershmanlab.com/experiments/alicia/teaching/experiment/?hitId=3JGHED38EDDK7DFM0KVY7GXU94LY7W&workerId=AKSJ3C5O3V9RB&assignmentId=3KGTPGBS6Y7YQNW5B9MGXN6W1PSU2A&a=SPGK9&tp_a=SPGK9&b=3KGTPGBS6Y7YQNW5B9MGXN6W1PSU2A&tp_b=3KGTPGBS6Y7YQNW5B9MGXN6W1PSU2A&c=365799&tp_c=365799"},{"rt":4512,"stimulus":"\n            <h4 style=\"color:Orange;\">Student 1</h4>\n            <h2>The weight of your coin is <b style=\"color:Tomato;\">0.5</b>.</h2>\n            <p>In this block, you will be giving <b>two</b> sets of examples to Student 1.</p>\n                <p>You will receive feedback at the end of the block.</p>\n            <p></p>","response":0,"trial_type":"html-button-response","trial_index":6,"time_elapsed":2924277,"internal_node_id":"0.0-5.0","params":{"nStudents":24,"maxFlips":30,"completionMinutes":45,"basePay":8,"maxBonus":9,"perTrialBonus":0.5,"perTrialBonusThreshold":0.05,"exampleCost":0.01},"classroomParams":{"A":{"a":1,"b":4},"B":{"a":4,"b":1},"C":{"a":2,"b":8},"D":{"a":8,"b":2}},"conditions":["nonSeqFull","nonSeqPartial","seqNoFeedback","seqFeedback"],"classroomPairings":[["A","B"],["C","D"]],"coinWeights":[0.2,0.5,0.8],"subjectId":"AKSJ3C5O3V9RB","assignmentId":"3KGTPGBS6Y7YQNW5B9MGXN6W1PSU2A","hitId":"3JGHED38EDDK7DFM0KVY7GXU94LY7W","url":"https://gershmanlab.com/experiments/alicia/teaching/experiment/?hitId=3JGHED38EDDK7DFM0KVY7GXU94LY7W&workerId=AKSJ3C5O3V9RB&assignmentId=3KGTPGBS6Y7YQNW5B9MGXN6W1PSU2A&a=SPGK9&tp_a=SPGK9&b=3KGTPGBS6Y7YQNW5B9MGXN6W1PSU2A&tp_b=3KGTPGBS6Y7YQNW5B9MGXN6W1PSU2A&c=365799&tp_c=365799"},{"rt":38436,"response":{"heads":"2","tails":"2"},"type":"response","condition":"seqNoFeedback","trueTheta":0.5,"classrooms":["C","D"],"studentTrueClassroom":"C","exampleSet":"first","trial_type":"survey-html-form","trial_index":7,"time_elapsed":2962715,"internal_node_id":"0.0-6.0-0.0","params":{"nStudents":24,"maxFlips":30,"completionMinutes":45,"basePay":8,"maxBonus":9,"perTrialBonus":0.5,"perTrialBonusThreshold":0.05,"exampleCost":0.01},"classroomParams":{"A":{"a":1,"b":4},"B":{"a":4,"b":1},"C":{"a":2,"b":8},"D":{"a":8,"b":2}},"conditions":["nonSeqFull","nonSeqPartial","seqNoFeedback","seqFeedback"],"classroomPairings":[["A","B"],["C","D"]],"coinWeights":[0.2,0.5,0.8],"subjectId":"AKSJ3C5O3V9RB","assignmentId":"3KGTPGBS6Y7YQNW5B9MGXN6W1PSU2A","hitId":"3JGHED38EDDK7DFM0KVY7GXU94LY7W","url":"https://gershmanlab.com/experiments/alicia/teaching/experiment/?hitId=3JGHED38EDDK7DFM0KVY7GXU94LY7W&workerId=AKSJ3C5O3V9RB&assignmentId=3KGTPGBS6Y7YQNW5B9MGXN6W1PSU2A&a=SPGK9&tp_a=SPGK9&b=3KGTPGBS6Y7YQNW5B9MGXN6W1PSU2A&tp_b=3KGTPGBS6Y7YQNW5B9MGXN6W1PSU2A&c=365799&tp_c=365799","heads":2,"tails":2,"studentIndex":0,"studentTrueHypers":{"a":2,"b":8},"studentGuess":0.2857142857142857,"delta":0.2142857142857143,"totalExamples":4,"bonusSoFar":0},{"rt":null,"stimulus":"Sending examples to student... ","response":null,"trial_type":"html-keyboard-response","trial_index":8,"time_elapsed":2964475,"internal_node_id":"0.0-7.0","params":{"nStudents":24,"maxFlips":30,"completionMinutes":45,"basePay":8,"maxBonus":9,"perTrialBonus":0.5,"perTrialBonusThreshold":0.05,"exampleCost":0.01},"classroomParams":{"A":{"a":1,"b":4},"B":{"a":4,"b":1},"C":{"a":2,"b":8},"D":{"a":8,"b":2}},"conditions":["nonSeqFull","nonSeqPartial","seqNoFeedback","seqFeedback"],"classroomPairings":[["A","B"],["C","D"]],"coinWeights":[0.2,0.5,0.8],"subjectId":"AKSJ3C5O3V9RB","assignmentId":"3KGTPGBS6Y7YQNW5B9MGXN6W1PSU2A","hitId":"3JGHED38EDDK7DFM0KVY7GXU94LY7W","url":"https://gershmanlab.com/experiments/alicia/teaching/experiment/?hitId=3JGHED38EDDK7DFM0KVY7GXU94LY7W&workerId=AKSJ3C5O3V9RB&assignmentId=3KGTPGBS6Y7YQNW5B9MGXN6W1PSU2A&a=SPGK9&tp_a=SPGK9&b=3KGTPGBS6Y7YQNW5B9MGXN6W1PSU2A&tp_b=3KGTPGBS6Y7YQNW5B9MGXN6W1PSU2A&c=365799&tp_c=365799"},{"rt":null,"stimulus":"Examples sent to student! Waiting for student...","response":null,"trial_type":"html-keyboard-response","trial_index":9,"time_elapsed":2969482,"internal_node_id":"0.0-8.0","params":{"nStudents":24,"maxFlips":30,"completionMinutes":45,"basePay":8,"maxBonus":9,"perTrialBonus":0.5,"perTrialBonusThreshold":0.05,"exampleCost":0.01},"classroomParams":{"A":{"a":1,"b":4},"B":{"a":4,"b":1},"C":{"a":2,"b":8},"D":{"a":8,"b":2}},"conditions":["nonSeqFull","nonSeqPartial","seqNoFeedback","seqFeedback"],"classroomPairings":[["A","B"],["C","D"]],"coinWeights":[0.2,0.5,0.8],"subjectId":"AKSJ3C5O3V9RB","assignmentId":"3KGTPGBS6Y7YQNW5B9MGXN6W1PSU2A","hitId":"3JGHED38EDDK7DFM0KVY7GXU94LY7W","url":"https://gershmanlab.com/experiments/alicia/teaching/experiment/?hitId=3JGHED38EDDK7DFM0KVY7GXU94LY7W&workerId=AKSJ3C5O3V9RB&assignmentId=3KGTPGBS6Y7YQNW5B9MGXN6W1PSU2A&a=SPGK9&tp_a=SPGK9&b=3KGTPGBS6Y7YQNW5B9MGXN6W1PSU2A&tp_b=3KGTPGBS6Y7YQNW5B9MGXN6W1PSU2A&c=365799&tp_c=365799"},{"rt":34619,"response":{"heads":"2","tails":"2"},"type":"response","condition":"seqNoFeedback","trueTheta":0.5,"classrooms":["C","D"],"studentTrueClassroom":"C","exampleSet":"second","trial_type":"survey-html-form","trial_index":10,"time_elapsed":3004103,"internal_node_id":"0.0-9.0-0.0","params":{"nStudents":24,"maxFlips":30,"completionMinutes":45,"basePay":8,"maxBonus":9,"perTrialBonus":0.5,"perTrialBonusThreshold":0.05,"exampleCost":0.01},"classroomParams":{"A":{"a":1,"b":4},"B":{"a":4,"b":1},"C":{"a":2,"b":8},"D":{"a":8,"b":2}},"conditions":["nonSeqFull","nonSeqPartial","seqNoFeedback","seqFeedback"],"classroomPairings":[["A","B"],["C","D"]],"coinWeights":[0.2,0.5,0.8],"subjectId":"AKSJ3C5O3V9RB","assignmentId":"3KGTPGBS6Y7YQNW5B9MGXN6W1PSU2A","hitId":"3JGHED38EDDK7DFM0KVY7GXU94LY7W","url":"https://gershmanlab.com/experiments/alicia/teaching/experiment/?hitId=3JGHED38EDDK7DFM0KVY7GXU94LY7W&workerId=AKSJ3C5O3V9RB&assignmentId=3KGTPGBS6Y7YQNW5B9MGXN6W1PSU2A&a=SPGK9&tp_a=SPGK9&b=3KGTPGBS6Y7YQNW5B9MGXN6W1PSU2A&tp_b=3KGTPGBS6Y7YQNW5B9MGXN6W1PSU2A&c=365799&tp_c=365799","firstResponseHeads":2,"firstResponseTails":2,"secondResponseHeads":2,"secondResponseTails":2,"totalHeads":4,"totalTails":4,"studentIndex":0,"studentTrueHypers":{"a":2,"b":8},"studentGuess":0.3333333333333333,"delta":0.16666666666666669,"bonus":0,"bonusSoFar":0,"totalExamples":8},{"rt":null,"stimulus":"Sending examples to student... ","response":null,"trial_type":"html-keyboard-response","trial_index":11,"time_elapsed":3005607,"internal_node_id":"0.0-10.0","params":{"nStudents":24,"maxFlips":30,"completionMinutes":45,"basePay":8,"maxBonus":9,"perTrialBonus":0.5,"perTrialBonusThreshold":0.05,"exampleCost":0.01},"classroomParams":{"A":{"a":1,"b":4},"B":{"a":4,"b":1},"C":{"a":2,"b":8},"D":{"a":8,"b":2}},"conditions":["nonSeqFull","nonSeqPartial","seqNoFeedback","seqFeedback"],"classroomPairings":[["A","B"],["C","D"]],"coinWeights":[0.2,0.5,0.8],"subjectId":"AKSJ3C5O3V9RB","assignmentId":"3KGTPGBS6Y7YQNW5B9MGXN6W1PSU2A","hitId":"3JGHED38EDDK7DFM0KVY7GXU94LY7W","url":"https://gershmanlab.com/experiments/alicia/teaching/experiment/?hitId=3JGHED38EDDK7DFM0KVY7GXU94LY7W&workerId=AKSJ3C5O3V9RB&assignmentId=3KGTPGBS6Y7YQNW5B9MGXN6W1PSU2A&a=SPGK9&tp_a=SPGK9&b=3KGTPGBS6Y7YQNW5B9MGXN6W1PSU2A&tp_b=3KGTPGBS6Y7YQNW5B9MGXN6W1PSU2A&c=365799&tp_c=365799"},{"rt":null,"stimulus":"Examples sent to student! Waiting for student...","response":null,"trial_type":"html-keyboard-response","trial_index":12,"time_elapsed":3011623,"internal_node_id":"0.0-11.0","params":{"nStudents":24,"maxFlips":30,"completionMinutes":45,"basePay":8,"maxBonus":9,"perTrialBonus":0.5,"perTrialBonusThreshold":0.05,"exampleCost":0.01},"classroomParams":{"A":{"a":1,"b":4},"B":{"a":4,"b":1},"C":{"a":2,"b":8},"D":{"a":8,"b":2}},"conditions":["nonSeqFull","nonSeqPartial","seqNoFeedback","seqFeedback"],"classroomPairings":[["A","B"],["C","D"]],"coinWeights":[0.2,0.5,0.8],"subjectId":"AKSJ3C5O3V9RB","assignmentId":"3KGTPGBS6Y7YQNW5B9MGXN6W1PSU2A","hitId":"3JGHED38EDDK7DFM0KVY7GXU94LY7W","url":"https://gershmanlab.com/experiments/alicia/teaching/experiment/?hitId=3JGHED38EDDK7DFM0KVY7GXU94LY7W&workerId=AKSJ3C5O3V9RB&assignmentId=3KGTPGBS6Y7YQNW5B9MGXN6W1PSU2A&a=SPGK9&tp_a=SPGK9&b=3KGTPGBS6Y7YQNW5B9MGXN6W1PSU2A&tp_b=3KGTPGBS6Y7YQNW5B9MGXN6W1PSU2A&c=365799&tp_c=365799"},{"rt":5400,"stimulus":"\n                <p>Student 1's first guess for coin weight: <b style=\"color:Tomato\";>0.29</b></p>\n                <p>Student 1's second guess for coin weight: <b style=\"color:Tomato\";>0.33</b></p>\n                <p>You received a bonus of <b>$0.00</b> based on the student's second guess.</p>\n                <p>Total bonus so far: <b>$0.00</b></p>\n                <p>Press any key to continue.</p>\n                ","response":" ","trial_type":"html-keyboard-response","trial_index":13,"time_elapsed":3017025,"internal_node_id":"0.0-12.0","params":{"nStudents":24,"maxFlips":30,"completionMinutes":45,"basePay":8,"maxBonus":9,"perTrialBonus":0.5,"perTrialBonusThreshold":0.05,"exampleCost":0.01},"classroomParams":{"A":{"a":1,"b":4},"B":{"a":4,"b":1},"C":{"a":2,"b":8},"D":{"a":8,"b":2}},"conditions":["nonSeqFull","nonSeqPartial","seqNoFeedback","seqFeedback"],"classroomPairings":[["A","B"],["C","D"]],"coinWeights":[0.2,0.5,0.8],"subjectId":"AKSJ3C5O3V9RB","assignmentId":"3KGTPGBS6Y7YQNW5B9MGXN6W1PSU2A","hitId":"3JGHED38EDDK7DFM0KVY7GXU94LY7W","url":"https://gershmanlab.com/experiments/alicia/teaching/experiment/?hitId=3JGHED38EDDK7DFM0KVY7GXU94LY7W&workerId=AKSJ3C5O3V9RB&assignmentId=3KGTPGBS6Y7YQNW5B9MGXN6W1PSU2A&a=SPGK9&tp_a=SPGK9&b=3KGTPGBS6Y7YQNW5B9MGXN6W1PSU2A&tp_b=3KGTPGBS6Y7YQNW5B9MGXN6W1PSU2A&c=365799&tp_c=365799"},{"rt":null,"stimulus":"<div style=\"font-size:60px;\">Next student</div>","response":null,"trial_type":"html-keyboard-response","trial_index":14,"time_elapsed":3019041,"internal_node_id":"0.0-13.0-0.0","params":{"nStudents":24,"maxFlips":30,"completionMinutes":45,"basePay":8,"maxBonus":9,"perTrialBonus":0.5,"perTrialBonusThreshold":0.05,"exampleCost":0.01},"classroomParams":{"A":{"a":1,"b":4},"B":{"a":4,"b":1},"C":{"a":2,"b":8},"D":{"a":8,"b":2}},"conditions":["nonSeqFull","nonSeqPartial","seqNoFeedback","seqFeedback"],"classroomPairings":[["A","B"],["C","D"]],"coinWeights":[0.2,0.5,0.8],"subjectId":"AKSJ3C5O3V9RB","assignmentId":"3KGTPGBS6Y7YQNW5B9MGXN6W1PSU2A","hitId":"3JGHED38EDDK7DFM0KVY7GXU94LY7W","url":"https://gershmanlab.com/experiments/alicia/teaching/experiment/?hitId=3JGHED38EDDK7DFM0KVY7GXU94LY7W&workerId=AKSJ3C5O3V9RB&assignmentId=3KGTPGBS6Y7YQNW5B9MGXN6W1PSU2A&a=SPGK9&tp_a=SPGK9&b=3KGTPGBS6Y7YQNW5B9MGXN6W1PSU2A&tp_b=3KGTPGBS6Y7YQNW5B9MGXN6W1PSU2A&c=365799&tp_c=365799"},{"rt":5039,"stimulus":"\n            <h4 style=\"color:Orange;\">Student 2</h4>\n            <h2>The weight of your coin is <b style=\"color:Tomato;\">0.8</b>.</h2>\n            <p>In this block, you will be giving <b>two</b> sets of examples to Student 2.</p>\n                <p>You will receive feedback at the end of the block.</p>\n            <p></p>","response":0,"trial_type":"html-button-response","trial_index":15,"time_elapsed":3024081,"internal_node_id":"0.0-14.0","params":{"nStudents":24,"maxFlips":30,"completionMinutes":45,"basePay":8,"maxBonus":9,"perTrialBonus":0.5,"perTrialBonusThreshold":0.05,"exampleCost":0.01},"classroomParams":{"A":{"a":1,"b":4},"B":{"a":4,"b":1},"C":{"a":2,"b":8},"D":{"a":8,"b":2}},"conditions":["nonSeqFull","nonSeqPartial","seqNoFeedback","seqFeedback"],"classroomPairings":[["A","B"],["C","D"]],"coinWeights":[0.2,0.5,0.8],"subjectId":"AKSJ3C5O3V9RB","assignmentId":"3KGTPGBS6Y7YQNW5B9MGXN6W1PSU2A","hitId":"3JGHED38EDDK7DFM0KVY7GXU94LY7W","url":"https://gershmanlab.com/experiments/alicia/teaching/experiment/?hitId=3JGHED38EDDK7DFM0KVY7GXU94LY7W&workerId=AKSJ3C5O3V9RB&assignmentId=3KGTPGBS6Y7YQNW5B9MGXN6W1PSU2A&a=SPGK9&tp_a=SPGK9&b=3KGTPGBS6Y7YQNW5B9MGXN6W1PSU2A&tp_b=3KGTPGBS6Y7YQNW5B9MGXN6W1PSU2A&c=365799&tp_c=365799"},{"rt":43282,"response":{"heads":"6","tails":"0"},"type":"response","condition":"seqNoFeedback","trueTheta":0.8,"classrooms":["C","D"],"studentTrueClassroom":"C","exampleSet":"first","trial_type":"survey-html-form","trial_index":16,"time_elapsed":3067365,"internal_node_id":"0.0-15.0-0.0","params":{"nStudents":24,"maxFlips":30,"completionMinutes":45,"basePay":8,"maxBonus":9,"perTrialBonus":0.5,"perTrialBonusThreshold":0.05,"exampleCost":0.01},"classroomParams":{"A":{"a":1,"b":4},"B":{"a":4,"b":1},"C":{"a":2,"b":8},"D":{"a":8,"b":2}},"conditions":["nonSeqFull","nonSeqPartial","seqNoFeedback","seqFeedback"],"classroomPairings":[["A","B"],["C","D"]],"coinWeights":[0.2,0.5,0.8],"subjectId":"AKSJ3C5O3V9RB","assignmentId":"3KGTPGBS6Y7YQNW5B9MGXN6W1PSU2A","hitId":"3JGHED38EDDK7DFM0KVY7GXU94LY7W","url":"https://gershmanlab.com/experiments/alicia/teaching/experiment/?hitId=3JGHED38EDDK7DFM0KVY7GXU94LY7W&workerId=AKSJ3C5O3V9RB&assignmentId=3KGTPGBS6Y7YQNW5B9MGXN6W1PSU2A&a=SPGK9&tp_a=SPGK9&b=3KGTPGBS6Y7YQNW5B9MGXN6W1PSU2A&tp_b=3KGTPGBS6Y7YQNW5B9MGXN6W1PSU2A&c=365799&tp_c=365799","heads":6,"tails":0,"studentIndex":1,"studentTrueHypers":{"a":2,"b":8},"studentGuess":0.5,"delta":0.30000000000000004,"totalExamples":6,"bonusSoFar":0},{"rt":null,"stimulus":"Sending examples to student... ","response":null,"trial_type":"html-keyboard-response","trial_index":17,"time_elapsed":3069366,"internal_node_id":"0.0-16.0","params":{"nStudents":24,"maxFlips":30,"completionMinutes":45,"basePay":8,"maxBonus":9,"perTrialBonus":0.5,"perTrialBonusThreshold":0.05,"exampleCost":0.01},"classroomParams":{"A":{"a":1,"b":4},"B":{"a":4,"b":1},"C":{"a":2,"b":8},"D":{"a":8,"b":2}},"conditions":["nonSeqFull","nonSeqPartial","seqNoFeedback","seqFeedback"],"classroomPairings":[["A","B"],["C","D"]],"coinWeights":[0.2,0.5,0.8],"subjectId":"AKSJ3C5O3V9RB","assignmentId":"3KGTPGBS6Y7YQNW5B9MGXN6W1PSU2A","hitId":"3JGHED38EDDK7DFM0KVY7GXU94LY7W","url":"https://gershmanlab.com/experiments/alicia/teaching/experiment/?hitId=3JGHED38EDDK7DFM0KVY7GXU94LY7W&workerId=AKSJ3C5O3V9RB&assignmentId=3KGTPGBS6Y7YQNW5B9MGXN6W1PSU2A&a=SPGK9&tp_a=SPGK9&b=3KGTPGBS6Y7YQNW5B9MGXN6W1PSU2A&tp_b=3KGTPGBS6Y7YQNW5B9MGXN6W1PSU2A&c=365799&tp_c=365799"},{"rt":null,"stimulus":"Examples sent to student! Waiting for student...","response":null,"trial_type":"html-keyboard-response","trial_index":18,"time_elapsed":3073382,"internal_node_id":"0.0-17.0","params":{"nStudents":24,"maxFlips":30,"completionMinutes":45,"basePay":8,"maxBonus":9,"perTrialBonus":0.5,"perTrialBonusThreshold":0.05,"exampleCost":0.01},"classroomParams":{"A":{"a":1,"b":4},"B":{"a":4,"b":1},"C":{"a":2,"b":8},"D":{"a":8,"b":2}},"conditions":["nonSeqFull","nonSeqPartial","seqNoFeedback","seqFeedback"],"classroomPairings":[["A","B"],["C","D"]],"coinWeights":[0.2,0.5,0.8],"subjectId":"AKSJ3C5O3V9RB","assignmentId":"3KGTPGBS6Y7YQNW5B9MGXN6W1PSU2A","hitId":"3JGHED38EDDK7DFM0KVY7GXU94LY7W","url":"https://gershmanlab.com/experiments/alicia/teaching/experiment/?hitId=3JGHED38EDDK7DFM0KVY7GXU94LY7W&workerId=AKSJ3C5O3V9RB&assignmentId=3KGTPGBS6Y7YQNW5B9MGXN6W1PSU2A&a=SPGK9&tp_a=SPGK9&b=3KGTPGBS6Y7YQNW5B9MGXN6W1PSU2A&tp_b=3KGTPGBS6Y7YQNW5B9MGXN6W1PSU2A&c=365799&tp_c=365799"},{"rt":7663,"response":{"heads":"6","tails":"0"},"type":"response","condition":"seqNoFeedback","trueTheta":0.8,"classrooms":["C","D"],"studentTrueClassroom":"C","exampleSet":"second","trial_type":"survey-html-form","trial_index":19,"time_elapsed":3081046,"internal_node_id":"0.0-18.0-0.0","params":{"nStudents":24,"maxFlips":30,"completionMinutes":45,"basePay":8,"maxBonus":9,"perTrialBonus":0.5,"perTrialBonusThreshold":0.05,"exampleCost":0.01},"classroomParams":{"A":{"a":1,"b":4},"B":{"a":4,"b":1},"C":{"a":2,"b":8},"D":{"a":8,"b":2}},"conditions":["nonSeqFull","nonSeqPartial","seqNoFeedback","seqFeedback"],"classroomPairings":[["A","B"],["C","D"]],"coinWeights":[0.2,0.5,0.8],"subjectId":"AKSJ3C5O3V9RB","assignmentId":"3KGTPGBS6Y7YQNW5B9MGXN6W1PSU2A","hitId":"3JGHED38EDDK7DFM0KVY7GXU94LY7W","url":"https://gershmanlab.com/experiments/alicia/teaching/experiment/?hitId=3JGHED38EDDK7DFM0KVY7GXU94LY7W&workerId=AKSJ3C5O3V9RB&assignmentId=3KGTPGBS6Y7YQNW5B9MGXN6W1PSU2A&a=SPGK9&tp_a=SPGK9&b=3KGTPGBS6Y7YQNW5B9MGXN6W1PSU2A&tp_b=3KGTPGBS6Y7YQNW5B9MGXN6W1PSU2A&c=365799&tp_c=365799","firstResponseHeads":6,"firstResponseTails":0,"secondResponseHeads":6,"secondResponseTails":0,"totalHeads":12,"totalTails":0,"studentIndex":1,"studentTrueHypers":{"a":2,"b":8},"studentGuess":0.6363636363636364,"delta":0.1636363636363637,"bonus":0,"bonusSoFar":0,"totalExamples":12},{"rt":null,"stimulus":"Sending examples to student... ","response":null,"trial_type":"html-keyboard-response","trial_index":20,"time_elapsed":3082311,"internal_node_id":"0.0-19.0","params":{"nStudents":24,"maxFlips":30,"completionMinutes":45,"basePay":8,"maxBonus":9,"perTrialBonus":0.5,"perTrialBonusThreshold":0.05,"exampleCost":0.01},"classroomParams":{"A":{"a":1,"b":4},"B":{"a":4,"b":1},"C":{"a":2,"b":8},"D":{"a":8,"b":2}},"conditions":["nonSeqFull","nonSeqPartial","seqNoFeedback","seqFeedback"],"classroomPairings":[["A","B"],["C","D"]],"coinWeights":[0.2,0.5,0.8],"subjectId":"AKSJ3C5O3V9RB","assignmentId":"3KGTPGBS6Y7YQNW5B9MGXN6W1PSU2A","hitId":"3JGHED38EDDK7DFM0KVY7GXU94LY7W","url":"https://gershmanlab.com/experiments/alicia/teaching/experiment/?hitId=3JGHED38EDDK7DFM0KVY7GXU94LY7W&workerId=AKSJ3C5O3V9RB&assignmentId=3KGTPGBS6Y7YQNW5B9MGXN6W1PSU2A&a=SPGK9&tp_a=SPGK9&b=3KGTPGBS6Y7YQNW5B9MGXN6W1PSU2A&tp_b=3KGTPGBS6Y7YQNW5B9MGXN6W1PSU2A&c=365799&tp_c=365799"},{"rt":null,"stimulus":"Examples sent to student! Waiting for student...","response":null,"trial_type":"html-keyboard-response","trial_index":21,"time_elapsed":3087815,"internal_node_id":"0.0-20.0","params":{"nStudents":24,"maxFlips":30,"completionMinutes":45,"basePay":8,"maxBonus":9,"perTrialBonus":0.5,"perTrialBonusThreshold":0.05,"exampleCost":0.01},"classroomParams":{"A":{"a":1,"b":4},"B":{"a":4,"b":1},"C":{"a":2,"b":8},"D":{"a":8,"b":2}},"conditions":["nonSeqFull","nonSeqPartial","seqNoFeedback","seqFeedback"],"classroomPairings":[["A","B"],["C","D"]],"coinWeights":[0.2,0.5,0.8],"subjectId":"AKSJ3C5O3V9RB","assignmentId":"3KGTPGBS6Y7YQNW5B9MGXN6W1PSU2A","hitId":"3JGHED38EDDK7DFM0KVY7GXU94LY7W","url":"https://gershmanlab.com/experiments/alicia/teaching/experiment/?hitId=3JGHED38EDDK7DFM0KVY7GXU94LY7W&workerId=AKSJ3C5O3V9RB&assignmentId=3KGTPGBS6Y7YQNW5B9MGXN6W1PSU2A&a=SPGK9&tp_a=SPGK9&b=3KGTPGBS6Y7YQNW5B9MGXN6W1PSU2A&tp_b=3KGTPGBS6Y7YQNW5B9MGXN6W1PSU2A&c=365799&tp_c=365799"},{"rt":5070,"stimulus":"\n                <p>Student 2's first guess for coin weight: <b style=\"color:Tomato\";>0.50</b></p>\n                <p>Student 2's second guess for coin weight: <b style=\"color:Tomato\";>0.64</b></p>\n                <p>You received a bonus of <b>$0.00</b> based on the student's second guess.</p>\n                <p>Total bonus so far: <b>$0.00</b></p>\n                <p>Press any key to continue.</p>\n                ","response":"d","trial_type":"html-keyboard-response","trial_index":22,"time_elapsed":3092886,"internal_node_id":"0.0-21.0","params":{"nStudents":24,"maxFlips":30,"completionMinutes":45,"basePay":8,"maxBonus":9,"perTrialBonus":0.5,"perTrialBonusThreshold":0.05,"exampleCost":0.01},"classroomParams":{"A":{"a":1,"b":4},"B":{"a":4,"b":1},"C":{"a":2,"b":8},"D":{"a":8,"b":2}},"conditions":["nonSeqFull","nonSeqPartial","seqNoFeedback","seqFeedback"],"classroomPairings":[["A","B"],["C","D"]],"coinWeights":[0.2,0.5,0.8],"subjectId":"AKSJ3C5O3V9RB","assignmentId":"3KGTPGBS6Y7YQNW5B9MGXN6W1PSU2A","hitId":"3JGHED38EDDK7DFM0KVY7GXU94LY7W","url":"https://gershmanlab.com/experiments/alicia/teaching/experiment/?hitId=3JGHED38EDDK7DFM0KVY7GXU94LY7W&workerId=AKSJ3C5O3V9RB&assignmentId=3KGTPGBS6Y7YQNW5B9MGXN6W1PSU2A&a=SPGK9&tp_a=SPGK9&b=3KGTPGBS6Y7YQNW5B9MGXN6W1PSU2A&tp_b=3KGTPGBS6Y7YQNW5B9MGXN6W1PSU2A&c=365799&tp_c=365799"},{"rt":null,"stimulus":"<div style=\"font-size:60px;\">Next student</div>","response":null,"trial_type":"html-keyboard-response","trial_index":23,"time_elapsed":3095399,"internal_node_id":"0.0-22.0-0.0","params":{"nStudents":24,"maxFlips":30,"completionMinutes":45,"basePay":8,"maxBonus":9,"perTrialBonus":0.5,"perTrialBonusThreshold":0.05,"exampleCost":0.01},"classroomParams":{"A":{"a":1,"b":4},"B":{"a":4,"b":1},"C":{"a":2,"b":8},"D":{"a":8,"b":2}},"conditions":["nonSeqFull","nonSeqPartial","seqNoFeedback","seqFeedback"],"classroomPairings":[["A","B"],["C","D"]],"coinWeights":[0.2,0.5,0.8],"subjectId":"AKSJ3C5O3V9RB","assignmentId":"3KGTPGBS6Y7YQNW5B9MGXN6W1PSU2A","hitId":"3JGHED38EDDK7DFM0KVY7GXU94LY7W","url":"https://gershmanlab.com/experiments/alicia/teaching/experiment/?hitId=3JGHED38EDDK7DFM0KVY7GXU94LY7W&workerId=AKSJ3C5O3V9RB&assignmentId=3KGTPGBS6Y7YQNW5B9MGXN6W1PSU2A&a=SPGK9&tp_a=SPGK9&b=3KGTPGBS6Y7YQNW5B9MGXN6W1PSU2A&tp_b=3KGTPGBS6Y7YQNW5B9MGXN6W1PSU2A&c=365799&tp_c=365799"},{"rt":1396,"stimulus":"\n            <h4 style=\"color:Orange;\">Student 3</h4>\n            <h2>The weight of your coin is <b style=\"color:Tomato;\">0.5</b>.</h2>\n            <p>In this block, you will be giving <b>one</b> set of examples to Student 3.</p>\n                <p>You will receive feedback at the end of the block.</p>\n            <p></p>","response":0,"trial_type":"html-button-response","trial_index":24,"time_elapsed":3096796,"internal_node_id":"0.0-23.0","params":{"nStudents":24,"maxFlips":30,"completionMinutes":45,"basePay":8,"maxBonus":9,"perTrialBonus":0.5,"perTrialBonusThreshold":0.05,"exampleCost":0.01},"classroomParams":{"A":{"a":1,"b":4},"B":{"a":4,"b":1},"C":{"a":2,"b":8},"D":{"a":8,"b":2}},"conditions":["nonSeqFull","nonSeqPartial","seqNoFeedback","seqFeedback"],"classroomPairings":[["A","B"],["C","D"]],"coinWeights":[0.2,0.5,0.8],"subjectId":"AKSJ3C5O3V9RB","assignmentId":"3KGTPGBS6Y7YQNW5B9MGXN6W1PSU2A","hitId":"3JGHED38EDDK7DFM0KVY7GXU94LY7W","url":"https://gershmanlab.com/experiments/alicia/teaching/experiment/?hitId=3JGHED38EDDK7DFM0KVY7GXU94LY7W&workerId=AKSJ3C5O3V9RB&assignmentId=3KGTPGBS6Y7YQNW5B9MGXN6W1PSU2A&a=SPGK9&tp_a=SPGK9&b=3KGTPGBS6Y7YQNW5B9MGXN6W1PSU2A&tp_b=3KGTPGBS6Y7YQNW5B9MGXN6W1PSU2A&c=365799&tp_c=365799"},{"rt":30421,"response":{"heads":"7","tails":"0"},"type":"response","condition":"nonSeqFull","trueTheta":0.5,"classrooms":["C","D"],"studentTrueClassroom":"C","exampleSet":"first","trial_type":"survey-html-form","trial_index":25,"time_elapsed":3127218,"internal_node_id":"0.0-24.0-0.0","params":{"nStudents":24,"maxFlips":30,"completionMinutes":45,"basePay":8,"maxBonus":9,"perTrialBonus":0.5,"perTrialBonusThreshold":0.05,"exampleCost":0.01},"classroomParams":{"A":{"a":1,"b":4},"B":{"a":4,"b":1},"C":{"a":2,"b":8},"D":{"a":8,"b":2}},"conditions":["nonSeqFull","nonSeqPartial","seqNoFeedback","seqFeedback"],"classroomPairings":[["A","B"],["C","D"]],"coinWeights":[0.2,0.5,0.8],"subjectId":"AKSJ3C5O3V9RB","assignmentId":"3KGTPGBS6Y7YQNW5B9MGXN6W1PSU2A","hitId":"3JGHED38EDDK7DFM0KVY7GXU94LY7W","url":"https://gershmanlab.com/experiments/alicia/teaching/experiment/?hitId=3JGHED38EDDK7DFM0KVY7GXU94LY7W&workerId=AKSJ3C5O3V9RB&assignmentId=3KGTPGBS6Y7YQNW5B9MGXN6W1PSU2A&a=SPGK9&tp_a=SPGK9&b=3KGTPGBS6Y7YQNW5B9MGXN6W1PSU2A&tp_b=3KGTPGBS6Y7YQNW5B9MGXN6W1PSU2A&c=365799&tp_c=365799","heads":7,"tails":0,"studentIndex":2,"studentTrueHypers":{"a":2,"b":8},"studentGuess":0.5294117647058824,"delta":0.02941176470588236,"totalExamples":7,"bonus":0.43,"bonusSoFar":0.43},{"rt":null,"stimulus":"Sending examples to student... ","response":null,"trial_type":"html-keyboard-response","trial_index":26,"time_elapsed":3128471,"internal_node_id":"0.0-25.0","params":{"nStudents":24,"maxFlips":30,"completionMinutes":45,"basePay":8,"maxBonus":9,"perTrialBonus":0.5,"perTrialBonusThreshold":0.05,"exampleCost":0.01},"classroomParams":{"A":{"a":1,"b":4},"B":{"a":4,"b":1},"C":{"a":2,"b":8},"D":{"a":8,"b":2}},"conditions":["nonSeqFull","nonSeqPartial","seqNoFeedback","seqFeedback"],"classroomPairings":[["A","B"],["C","D"]],"coinWeights":[0.2,0.5,0.8],"subjectId":"AKSJ3C5O3V9RB","assignmentId":"3KGTPGBS6Y7YQNW5B9MGXN6W1PSU2A","hitId":"3JGHED38EDDK7DFM0KVY7GXU94LY7W","url":"https://gershmanlab.com/experiments/alicia/teaching/experiment/?hitId=3JGHED38EDDK7DFM0KVY7GXU94LY7W&workerId=AKSJ3C5O3V9RB&assignmentId=3KGTPGBS6Y7YQNW5B9MGXN6W1PSU2A&a=SPGK9&tp_a=SPGK9&b=3KGTPGBS6Y7YQNW5B9MGXN6W1PSU2A&tp_b=3KGTPGBS6Y7YQNW5B9MGXN6W1PSU2A&c=365799&tp_c=365799"},{"rt":null,"stimulus":"Examples sent to student! Waiting for student...","response":null,"trial_type":"html-keyboard-response","trial_index":27,"time_elapsed":3133982,"internal_node_id":"0.0-26.0","params":{"nStudents":24,"maxFlips":30,"completionMinutes":45,"basePay":8,"maxBonus":9,"perTrialBonus":0.5,"perTrialBonusThreshold":0.05,"exampleCost":0.01},"classroomParams":{"A":{"a":1,"b":4},"B":{"a":4,"b":1},"C":{"a":2,"b":8},"D":{"a":8,"b":2}},"conditions":["nonSeqFull","nonSeqPartial","seqNoFeedback","seqFeedback"],"classroomPairings":[["A","B"],["C","D"]],"coinWeights":[0.2,0.5,0.8],"subjectId":"AKSJ3C5O3V9RB","assignmentId":"3KGTPGBS6Y7YQNW5B9MGXN6W1PSU2A","hitId":"3JGHED38EDDK7DFM0KVY7GXU94LY7W","url":"https://gershmanlab.com/experiments/alicia/teaching/experiment/?hitId=3JGHED38EDDK7DFM0KVY7GXU94LY7W&workerId=AKSJ3C5O3V9RB&assignmentId=3KGTPGBS6Y7YQNW5B9MGXN6W1PSU2A&a=SPGK9&tp_a=SPGK9&b=3KGTPGBS6Y7YQNW5B9MGXN6W1PSU2A&tp_b=3KGTPGBS6Y7YQNW5B9MGXN6W1PSU2A&c=365799&tp_c=365799"},{"rt":6778,"stimulus":"\n                <p>Student's guess for coin weight: <b style=\"color:Tomato;\">0.53</b></p>\n                <p>You received a bonus of <b>$0.43</b>. Total bonus so far: <b>$0.43</b></b></p>\n                <p></p>\n                <p>Press any key to continue.</p>\n                ","response":"g","trial_type":"html-keyboard-response","trial_index":28,"time_elapsed":3140761,"internal_node_id":"0.0-27.0","params":{"nStudents":24,"maxFlips":30,"completionMinutes":45,"basePay":8,"maxBonus":9,"perTrialBonus":0.5,"perTrialBonusThreshold":0.05,"exampleCost":0.01},"classroomParams":{"A":{"a":1,"b":4},"B":{"a":4,"b":1},"C":{"a":2,"b":8},"D":{"a":8,"b":2}},"conditions":["nonSeqFull","nonSeqPartial","seqNoFeedback","seqFeedback"],"classroomPairings":[["A","B"],["C","D"]],"coinWeights":[0.2,0.5,0.8],"subjectId":"AKSJ3C5O3V9RB","assignmentId":"3KGTPGBS6Y7YQNW5B9MGXN6W1PSU2A","hitId":"3JGHED38EDDK7DFM0KVY7GXU94LY7W","url":"https://gershmanlab.com/experiments/alicia/teaching/experiment/?hitId=3JGHED38EDDK7DFM0KVY7GXU94LY7W&workerId=AKSJ3C5O3V9RB&assignmentId=3KGTPGBS6Y7YQNW5B9MGXN6W1PSU2A&a=SPGK9&tp_a=SPGK9&b=3KGTPGBS6Y7YQNW5B9MGXN6W1PSU2A&tp_b=3KGTPGBS6Y7YQNW5B9MGXN6W1PSU2A&c=365799&tp_c=365799"},{"rt":null,"stimulus":"<div style=\"font-size:60px;\">Next student</div>","response":null,"trial_type":"html-keyboard-response","trial_index":29,"time_elapsed":3143772,"internal_node_id":"0.0-28.0-0.0","params":{"nStudents":24,"maxFlips":30,"completionMinutes":45,"basePay":8,"maxBonus":9,"perTrialBonus":0.5,"perTrialBonusThreshold":0.05,"exampleCost":0.01},"classroomParams":{"A":{"a":1,"b":4},"B":{"a":4,"b":1},"C":{"a":2,"b":8},"D":{"a":8,"b":2}},"conditions":["nonSeqFull","nonSeqPartial","seqNoFeedback","seqFeedback"],"classroomPairings":[["A","B"],["C","D"]],"coinWeights":[0.2,0.5,0.8],"subjectId":"AKSJ3C5O3V9RB","assignmentId":"3KGTPGBS6Y7YQNW5B9MGXN6W1PSU2A","hitId":"3JGHED38EDDK7DFM0KVY7GXU94LY7W","url":"https://gershmanlab.com/experiments/alicia/teaching/experiment/?hitId=3JGHED38EDDK7DFM0KVY7GXU94LY7W&workerId=AKSJ3C5O3V9RB&assignmentId=3KGTPGBS6Y7YQNW5B9MGXN6W1PSU2A&a=SPGK9&tp_a=SPGK9&b=3KGTPGBS6Y7YQNW5B9MGXN6W1PSU2A&tp_b=3KGTPGBS6Y7YQNW5B9MGXN6W1PSU2A&c=365799&tp_c=365799"},{"rt":2507,"stimulus":"\n            <h4 style=\"color:Orange;\">Student 4</h4>\n            <h2>The weight of your coin is <b style=\"color:Tomato;\">0.8</b>.</h2>\n            <p>In this block, you will be giving <b>two</b> sets of examples to Student 4.</p>\n                <p>You will see the student's guess after the first set of examples. You will also receive feedback at the end of the block.</p>\n            <p>To earn the highest bonus, you will have to <b>take into consideration the student's guess</b> when you choose your second set of examples.</p>","response":0,"trial_type":"html-button-response","trial_index":30,"time_elapsed":3146281,"internal_node_id":"0.0-29.0","params":{"nStudents":24,"maxFlips":30,"completionMinutes":45,"basePay":8,"maxBonus":9,"perTrialBonus":0.5,"perTrialBonusThreshold":0.05,"exampleCost":0.01},"classroomParams":{"A":{"a":1,"b":4},"B":{"a":4,"b":1},"C":{"a":2,"b":8},"D":{"a":8,"b":2}},"conditions":["nonSeqFull","nonSeqPartial","seqNoFeedback","seqFeedback"],"classroomPairings":[["A","B"],["C","D"]],"coinWeights":[0.2,0.5,0.8],"subjectId":"AKSJ3C5O3V9RB","assignmentId":"3KGTPGBS6Y7YQNW5B9MGXN6W1PSU2A","hitId":"3JGHED38EDDK7DFM0KVY7GXU94LY7W","url":"https://gershmanlab.com/experiments/alicia/teaching/experiment/?hitId=3JGHED38EDDK7DFM0KVY7GXU94LY7W&workerId=AKSJ3C5O3V9RB&assignmentId=3KGTPGBS6Y7YQNW5B9MGXN6W1PSU2A&a=SPGK9&tp_a=SPGK9&b=3KGTPGBS6Y7YQNW5B9MGXN6W1PSU2A&tp_b=3KGTPGBS6Y7YQNW5B9MGXN6W1PSU2A&c=365799&tp_c=365799"},{"rt":36064,"response":{"heads":"8","tails":"0"},"type":"response","condition":"seqFeedback","trueTheta":0.8,"classrooms":["C","D"],"studentTrueClassroom":"C","exampleSet":"first","trial_type":"survey-html-form","trial_index":31,"time_elapsed":3182346,"internal_node_id":"0.0-30.0-0.0","params":{"nStudents":24,"maxFlips":30,"completionMinutes":45,"basePay":8,"maxBonus":9,"perTrialBonus":0.5,"perTrialBonusThreshold":0.05,"exampleCost":0.01},"classroomParams":{"A":{"a":1,"b":4},"B":{"a":4,"b":1},"C":{"a":2,"b":8},"D":{"a":8,"b":2}},"conditions":["nonSeqFull","nonSeqPartial","seqNoFeedback","seqFeedback"],"classroomPairings":[["A","B"],["C","D"]],"coinWeights":[0.2,0.5,0.8],"subjectId":"AKSJ3C5O3V9RB","assignmentId":"3KGTPGBS6Y7YQNW5B9MGXN6W1PSU2A","hitId":"3JGHED38EDDK7DFM0KVY7GXU94LY7W","url":"https://gershmanlab.com/experiments/alicia/teaching/experiment/?hitId=3JGHED38EDDK7DFM0KVY7GXU94LY7W&workerId=AKSJ3C5O3V9RB&assignmentId=3KGTPGBS6Y7YQNW5B9MGXN6W1PSU2A&a=SPGK9&tp_a=SPGK9&b=3KGTPGBS6Y7YQNW5B9MGXN6W1PSU2A&tp_b=3KGTPGBS6Y7YQNW5B9MGXN6W1PSU2A&c=365799&tp_c=365799","heads":8,"tails":0,"studentIndex":3,"studentTrueHypers":{"a":2,"b":8},"studentGuess":0.5555555555555556,"delta":0.24444444444444446,"totalExamples":8,"bonusSoFar":0.43},{"rt":null,"stimulus":"Sending examples to student... ","response":null,"trial_type":"html-keyboard-response","trial_index":32,"time_elapsed":3183608,"internal_node_id":"0.0-31.0","params":{"nStudents":24,"maxFlips":30,"completionMinutes":45,"basePay":8,"maxBonus":9,"perTrialBonus":0.5,"perTrialBonusThreshold":0.05,"exampleCost":0.01},"classroomParams":{"A":{"a":1,"b":4},"B":{"a":4,"b":1},"C":{"a":2,"b":8},"D":{"a":8,"b":2}},"conditions":["nonSeqFull","nonSeqPartial","seqNoFeedback","seqFeedback"],"classroomPairings":[["A","B"],["C","D"]],"coinWeights":[0.2,0.5,0.8],"subjectId":"AKSJ3C5O3V9RB","assignmentId":"3KGTPGBS6Y7YQNW5B9MGXN6W1PSU2A","hitId":"3JGHED38EDDK7DFM0KVY7GXU94LY7W","url":"https://gershmanlab.com/experiments/alicia/teaching/experiment/?hitId=3JGHED38EDDK7DFM0KVY7GXU94LY7W&workerId=AKSJ3C5O3V9RB&assignmentId=3KGTPGBS6Y7YQNW5B9MGXN6W1PSU2A&a=SPGK9&tp_a=SPGK9&b=3KGTPGBS6Y7YQNW5B9MGXN6W1PSU2A&tp_b=3KGTPGBS6Y7YQNW5B9MGXN6W1PSU2A&c=365799&tp_c=365799"},{"rt":null,"stimulus":"Examples sent to student! Waiting for student...","response":null,"trial_type":"html-keyboard-response","trial_index":33,"time_elapsed":3189121,"internal_node_id":"0.0-32.0","params":{"nStudents":24,"maxFlips":30,"completionMinutes":45,"basePay":8,"maxBonus":9,"perTrialBonus":0.5,"perTrialBonusThreshold":0.05,"exampleCost":0.01},"classroomParams":{"A":{"a":1,"b":4},"B":{"a":4,"b":1},"C":{"a":2,"b":8},"D":{"a":8,"b":2}},"conditions":["nonSeqFull","nonSeqPartial","seqNoFeedback","seqFeedback"],"classroomPairings":[["A","B"],["C","D"]],"coinWeights":[0.2,0.5,0.8],"subjectId":"AKSJ3C5O3V9RB","assignmentId":"3KGTPGBS6Y7YQNW5B9MGXN6W1PSU2A","hitId":"3JGHED38EDDK7DFM0KVY7GXU94LY7W","url":"https://gershmanlab.com/experiments/alicia/teaching/experiment/?hitId=3JGHED38EDDK7DFM0KVY7GXU94LY7W&workerId=AKSJ3C5O3V9RB&assignmentId=3KGTPGBS6Y7YQNW5B9MGXN6W1PSU2A&a=SPGK9&tp_a=SPGK9&b=3KGTPGBS6Y7YQNW5B9MGXN6W1PSU2A&tp_b=3KGTPGBS6Y7YQNW5B9MGXN6W1PSU2A&c=365799&tp_c=365799"},{"rt":7379,"stimulus":"\n                <p>Student's guess for coin weight: <b style=\"color:Tomato;\">0.56</b></p>\n                <p></b></p>\n                <p>You will now send another set of examples to your student. <b>Remember to take your student's guess into consideration so that you can earn the highest bonus possible!</b> </p>\n                <p>Press any key to continue.</p>\n                ","response":"d","trial_type":"html-keyboard-response","trial_index":34,"time_elapsed":3196500,"internal_node_id":"0.0-33.0","params":{"nStudents":24,"maxFlips":30,"completionMinutes":45,"basePay":8,"maxBonus":9,"perTrialBonus":0.5,"perTrialBonusThreshold":0.05,"exampleCost":0.01},"classroomParams":{"A":{"a":1,"b":4},"B":{"a":4,"b":1},"C":{"a":2,"b":8},"D":{"a":8,"b":2}},"conditions":["nonSeqFull","nonSeqPartial","seqNoFeedback","seqFeedback"],"classroomPairings":[["A","B"],["C","D"]],"coinWeights":[0.2,0.5,0.8],"subjectId":"AKSJ3C5O3V9RB","assignmentId":"3KGTPGBS6Y7YQNW5B9MGXN6W1PSU2A","hitId":"3JGHED38EDDK7DFM0KVY7GXU94LY7W","url":"https://gershmanlab.com/experiments/alicia/teaching/experiment/?hitId=3JGHED38EDDK7DFM0KVY7GXU94LY7W&workerId=AKSJ3C5O3V9RB&assignmentId=3KGTPGBS6Y7YQNW5B9MGXN6W1PSU2A&a=SPGK9&tp_a=SPGK9&b=3KGTPGBS6Y7YQNW5B9MGXN6W1PSU2A&tp_b=3KGTPGBS6Y7YQNW5B9MGXN6W1PSU2A&c=365799&tp_c=365799"},{"rt":11184,"response":{"heads":"10","tails":"0"},"type":"response","condition":"seqFeedback","trueTheta":0.8,"classrooms":["C","D"],"studentTrueClassroom":"C","exampleSet":"second","trial_type":"survey-html-form","trial_index":35,"time_elapsed":3207685,"internal_node_id":"0.0-34.0-0.0","params":{"nStudents":24,"maxFlips":30,"completionMinutes":45,"basePay":8,"maxBonus":9,"perTrialBonus":0.5,"perTrialBonusThreshold":0.05,"exampleCost":0.01},"classroomParams":{"A":{"a":1,"b":4},"B":{"a":4,"b":1},"C":{"a":2,"b":8},"D":{"a":8,"b":2}},"conditions":["nonSeqFull","nonSeqPartial","seqNoFeedback","seqFeedback"],"classroomPairings":[["A","B"],["C","D"]],"coinWeights":[0.2,0.5,0.8],"subjectId":"AKSJ3C5O3V9RB","assignmentId":"3KGTPGBS6Y7YQNW5B9MGXN6W1PSU2A","hitId":"3JGHED38EDDK7DFM0KVY7GXU94LY7W","url":"https://gershmanlab.com/experiments/alicia/teaching/experiment/?hitId=3JGHED38EDDK7DFM0KVY7GXU94LY7W&workerId=AKSJ3C5O3V9RB&assignmentId=3KGTPGBS6Y7YQNW5B9MGXN6W1PSU2A&a=SPGK9&tp_a=SPGK9&b=3KGTPGBS6Y7YQNW5B9MGXN6W1PSU2A&tp_b=3KGTPGBS6Y7YQNW5B9MGXN6W1PSU2A&c=365799&tp_c=365799","firstResponseHeads":8,"firstResponseTails":0,"secondResponseHeads":10,"secondResponseTails":0,"totalHeads":18,"totalTails":0,"studentIndex":3,"studentTrueHypers":{"a":2,"b":8},"studentGuess":0.7142857142857143,"delta":0.08571428571428574,"bonus":0,"bonusSoFar":0.43,"totalExamples":18},{"rt":null,"stimulus":"Sending examples to student... ","response":null,"trial_type":"html-keyboard-response","trial_index":36,"time_elapsed":3209688,"internal_node_id":"0.0-35.0","params":{"nStudents":24,"maxFlips":30,"completionMinutes":45,"basePay":8,"maxBonus":9,"perTrialBonus":0.5,"perTrialBonusThreshold":0.05,"exampleCost":0.01},"classroomParams":{"A":{"a":1,"b":4},"B":{"a":4,"b":1},"C":{"a":2,"b":8},"D":{"a":8,"b":2}},"conditions":["nonSeqFull","nonSeqPartial","seqNoFeedback","seqFeedback"],"classroomPairings":[["A","B"],["C","D"]],"coinWeights":[0.2,0.5,0.8],"subjectId":"AKSJ3C5O3V9RB","assignmentId":"3KGTPGBS6Y7YQNW5B9MGXN6W1PSU2A","hitId":"3JGHED38EDDK7DFM0KVY7GXU94LY7W","url":"https://gershmanlab.com/experiments/alicia/teaching/experiment/?hitId=3JGHED38EDDK7DFM0KVY7GXU94LY7W&workerId=AKSJ3C5O3V9RB&assignmentId=3KGTPGBS6Y7YQNW5B9MGXN6W1PSU2A&a=SPGK9&tp_a=SPGK9&b=3KGTPGBS6Y7YQNW5B9MGXN6W1PSU2A&tp_b=3KGTPGBS6Y7YQNW5B9MGXN6W1PSU2A&c=365799&tp_c=365799"},{"rt":null,"stimulus":"Examples sent to student! Waiting for student...","response":null,"trial_type":"html-keyboard-response","trial_index":37,"time_elapsed":3215694,"internal_node_id":"0.0-36.0","params":{"nStudents":24,"maxFlips":30,"completionMinutes":45,"basePay":8,"maxBonus":9,"perTrialBonus":0.5,"perTrialBonusThreshold":0.05,"exampleCost":0.01},"classroomParams":{"A":{"a":1,"b":4},"B":{"a":4,"b":1},"C":{"a":2,"b":8},"D":{"a":8,"b":2}},"conditions":["nonSeqFull","nonSeqPartial","seqNoFeedback","seqFeedback"],"classroomPairings":[["A","B"],["C","D"]],"coinWeights":[0.2,0.5,0.8],"subjectId":"AKSJ3C5O3V9RB","assignmentId":"3KGTPGBS6Y7YQNW5B9MGXN6W1PSU2A","hitId":"3JGHED38EDDK7DFM0KVY7GXU94LY7W","url":"https://gershmanlab.com/experiments/alicia/teaching/experiment/?hitId=3JGHED38EDDK7DFM0KVY7GXU94LY7W&workerId=AKSJ3C5O3V9RB&assignmentId=3KGTPGBS6Y7YQNW5B9MGXN6W1PSU2A&a=SPGK9&tp_a=SPGK9&b=3KGTPGBS6Y7YQNW5B9MGXN6W1PSU2A&tp_b=3KGTPGBS6Y7YQNW5B9MGXN6W1PSU2A&c=365799&tp_c=365799"},{"rt":4382,"stimulus":"\n                <p>Student 4's first guess for coin weight: <b style=\"color:Tomato\";>0.56</b></p>\n                <p>Student 4's second guess for coin weight: <b style=\"color:Tomato\";>0.71</b></p>\n                <p>You received a bonus of <b>$0.00</b> based on the student's second guess.</p>\n                <p>Total bonus so far: <b>$0.43</b></p>\n                <p>Press any key to continue.</p>\n                ","response":"c","trial_type":"html-keyboard-response","trial_index":38,"time_elapsed":3220077,"internal_node_id":"0.0-37.0","params":{"nStudents":24,"maxFlips":30,"completionMinutes":45,"basePay":8,"maxBonus":9,"perTrialBonus":0.5,"perTrialBonusThreshold":0.05,"exampleCost":0.01},"classroomParams":{"A":{"a":1,"b":4},"B":{"a":4,"b":1},"C":{"a":2,"b":8},"D":{"a":8,"b":2}},"conditions":["nonSeqFull","nonSeqPartial","seqNoFeedback","seqFeedback"],"classroomPairings":[["A","B"],["C","D"]],"coinWeights":[0.2,0.5,0.8],"subjectId":"AKSJ3C5O3V9RB","assignmentId":"3KGTPGBS6Y7YQNW5B9MGXN6W1PSU2A","hitId":"3JGHED38EDDK7DFM0KVY7GXU94LY7W","url":"https://gershmanlab.com/experiments/alicia/teaching/experiment/?hitId=3JGHED38EDDK7DFM0KVY7GXU94LY7W&workerId=AKSJ3C5O3V9RB&assignmentId=3KGTPGBS6Y7YQNW5B9MGXN6W1PSU2A&a=SPGK9&tp_a=SPGK9&b=3KGTPGBS6Y7YQNW5B9MGXN6W1PSU2A&tp_b=3KGTPGBS6Y7YQNW5B9MGXN6W1PSU2A&c=365799&tp_c=365799"},{"rt":null,"stimulus":"<div style=\"font-size:60px;\">Next student</div>","response":null,"trial_type":"html-keyboard-response","trial_index":39,"time_elapsed":3222078,"internal_node_id":"0.0-38.0-0.0","params":{"nStudents":24,"maxFlips":30,"completionMinutes":45,"basePay":8,"maxBonus":9,"perTrialBonus":0.5,"perTrialBonusThreshold":0.05,"exampleCost":0.01},"classroomParams":{"A":{"a":1,"b":4},"B":{"a":4,"b":1},"C":{"a":2,"b":8},"D":{"a":8,"b":2}},"conditions":["nonSeqFull","nonSeqPartial","seqNoFeedback","seqFeedback"],"classroomPairings":[["A","B"],["C","D"]],"coinWeights":[0.2,0.5,0.8],"subjectId":"AKSJ3C5O3V9RB","assignmentId":"3KGTPGBS6Y7YQNW5B9MGXN6W1PSU2A","hitId":"3JGHED38EDDK7DFM0KVY7GXU94LY7W","url":"https://gershmanlab.com/experiments/alicia/teaching/experiment/?hitId=3JGHED38EDDK7DFM0KVY7GXU94LY7W&workerId=AKSJ3C5O3V9RB&assignmentId=3KGTPGBS6Y7YQNW5B9MGXN6W1PSU2A&a=SPGK9&tp_a=SPGK9&b=3KGTPGBS6Y7YQNW5B9MGXN6W1PSU2A&tp_b=3KGTPGBS6Y7YQNW5B9MGXN6W1PSU2A&c=365799&tp_c=365799"},{"rt":1412,"stimulus":"\n            <h4 style=\"color:Orange;\">Student 5</h4>\n            <h2>The weight of your coin is <b style=\"color:Tomato;\">0.8</b>.</h2>\n            <p>In this block, you will be giving <b>one</b> set of examples to Student 5.</p>\n                <p>You will receive feedback at the end of the block.</p>\n            <p></p>","response":0,"trial_type":"html-button-response","trial_index":40,"time_elapsed":3223491,"internal_node_id":"0.0-39.0","params":{"nStudents":24,"maxFlips":30,"completionMinutes":45,"basePay":8,"maxBonus":9,"perTrialBonus":0.5,"perTrialBonusThreshold":0.05,"exampleCost":0.01},"classroomParams":{"A":{"a":1,"b":4},"B":{"a":4,"b":1},"C":{"a":2,"b":8},"D":{"a":8,"b":2}},"conditions":["nonSeqFull","nonSeqPartial","seqNoFeedback","seqFeedback"],"classroomPairings":[["A","B"],["C","D"]],"coinWeights":[0.2,0.5,0.8],"subjectId":"AKSJ3C5O3V9RB","assignmentId":"3KGTPGBS6Y7YQNW5B9MGXN6W1PSU2A","hitId":"3JGHED38EDDK7DFM0KVY7GXU94LY7W","url":"https://gershmanlab.com/experiments/alicia/teaching/experiment/?hitId=3JGHED38EDDK7DFM0KVY7GXU94LY7W&workerId=AKSJ3C5O3V9RB&assignmentId=3KGTPGBS6Y7YQNW5B9MGXN6W1PSU2A&a=SPGK9&tp_a=SPGK9&b=3KGTPGBS6Y7YQNW5B9MGXN6W1PSU2A&tp_b=3KGTPGBS6Y7YQNW5B9MGXN6W1PSU2A&c=365799&tp_c=365799"},{"rt":17142,"response":{"heads":"8","tails":"0"},"type":"response","condition":"nonSeqFull","trueTheta":0.8,"classrooms":["A","B"],"studentTrueClassroom":"B","exampleSet":"first","trial_type":"survey-html-form","trial_index":41,"time_elapsed":3240634,"internal_node_id":"0.0-40.0-0.0","params":{"nStudents":24,"maxFlips":30,"completionMinutes":45,"basePay":8,"maxBonus":9,"perTrialBonus":0.5,"perTrialBonusThreshold":0.05,"exampleCost":0.01},"classroomParams":{"A":{"a":1,"b":4},"B":{"a":4,"b":1},"C":{"a":2,"b":8},"D":{"a":8,"b":2}},"conditions":["nonSeqFull","nonSeqPartial","seqNoFeedback","seqFeedback"],"classroomPairings":[["A","B"],["C","D"]],"coinWeights":[0.2,0.5,0.8],"subjectId":"AKSJ3C5O3V9RB","assignmentId":"3KGTPGBS6Y7YQNW5B9MGXN6W1PSU2A","hitId":"3JGHED38EDDK7DFM0KVY7GXU94LY7W","url":"https://gershmanlab.com/experiments/alicia/teaching/experiment/?hitId=3JGHED38EDDK7DFM0KVY7GXU94LY7W&workerId=AKSJ3C5O3V9RB&assignmentId=3KGTPGBS6Y7YQNW5B9MGXN6W1PSU2A&a=SPGK9&tp_a=SPGK9&b=3KGTPGBS6Y7YQNW5B9MGXN6W1PSU2A&tp_b=3KGTPGBS6Y7YQNW5B9MGXN6W1PSU2A&c=365799&tp_c=365799","heads":8,"tails":0,"studentIndex":4,"studentTrueHypers":{"a":4,"b":1},"studentGuess":0.9230769230769231,"delta":0.12307692307692308,"totalExamples":8,"bonus":0,"bonusSoFar":0.43},{"rt":null,"stimulus":"Sending examples to student... ","response":null,"trial_type":"html-keyboard-response","trial_index":42,"time_elapsed":3242647,"internal_node_id":"0.0-41.0","params":{"nStudents":24,"maxFlips":30,"completionMinutes":45,"basePay":8,"maxBonus":9,"perTrialBonus":0.5,"perTrialBonusThreshold":0.05,"exampleCost":0.01},"classroomParams":{"A":{"a":1,"b":4},"B":{"a":4,"b":1},"C":{"a":2,"b":8},"D":{"a":8,"b":2}},"conditions":["nonSeqFull","nonSeqPartial","seqNoFeedback","seqFeedback"],"classroomPairings":[["A","B"],["C","D"]],"coinWeights":[0.2,0.5,0.8],"subjectId":"AKSJ3C5O3V9RB","assignmentId":"3KGTPGBS6Y7YQNW5B9MGXN6W1PSU2A","hitId":"3JGHED38EDDK7DFM0KVY7GXU94LY7W","url":"https://gershmanlab.com/experiments/alicia/teaching/experiment/?hitId=3JGHED38EDDK7DFM0KVY7GXU94LY7W&workerId=AKSJ3C5O3V9RB&assignmentId=3KGTPGBS6Y7YQNW5B9MGXN6W1PSU2A&a=SPGK9&tp_a=SPGK9&b=3KGTPGBS6Y7YQNW5B9MGXN6W1PSU2A&tp_b=3KGTPGBS6Y7YQNW5B9MGXN6W1PSU2A&c=365799&tp_c=365799"},{"rt":null,"stimulus":"Examples sent to student! Waiting for student...","response":null,"trial_type":"html-keyboard-response","trial_index":43,"time_elapsed":3248664,"internal_node_id":"0.0-42.0","params":{"nStudents":24,"maxFlips":30,"completionMinutes":45,"basePay":8,"maxBonus":9,"perTrialBonus":0.5,"perTrialBonusThreshold":0.05,"exampleCost":0.01},"classroomParams":{"A":{"a":1,"b":4},"B":{"a":4,"b":1},"C":{"a":2,"b":8},"D":{"a":8,"b":2}},"conditions":["nonSeqFull","nonSeqPartial","seqNoFeedback","seqFeedback"],"classroomPairings":[["A","B"],["C","D"]],"coinWeights":[0.2,0.5,0.8],"subjectId":"AKSJ3C5O3V9RB","assignmentId":"3KGTPGBS6Y7YQNW5B9MGXN6W1PSU2A","hitId":"3JGHED38EDDK7DFM0KVY7GXU94LY7W","url":"https://gershmanlab.com/experiments/alicia/teaching/experiment/?hitId=3JGHED38EDDK7DFM0KVY7GXU94LY7W&workerId=AKSJ3C5O3V9RB&assignmentId=3KGTPGBS6Y7YQNW5B9MGXN6W1PSU2A&a=SPGK9&tp_a=SPGK9&b=3KGTPGBS6Y7YQNW5B9MGXN6W1PSU2A&tp_b=3KGTPGBS6Y7YQNW5B9MGXN6W1PSU2A&c=365799&tp_c=365799"},{"rt":2926,"stimulus":"\n                <p>Student's guess for coin weight: <b style=\"color:Tomato;\">0.92</b></p>\n                <p>You received a bonus of <b>$0</b>. Total bonus so far: <b>$0.43</b></b></p>\n                <p></p>\n                <p>Press any key to continue.</p>\n                ","response":"d","trial_type":"html-keyboard-response","trial_index":44,"time_elapsed":3251592,"internal_node_id":"0.0-43.0","params":{"nStudents":24,"maxFlips":30,"completionMinutes":45,"basePay":8,"maxBonus":9,"perTrialBonus":0.5,"perTrialBonusThreshold":0.05,"exampleCost":0.01},"classroomParams":{"A":{"a":1,"b":4},"B":{"a":4,"b":1},"C":{"a":2,"b":8},"D":{"a":8,"b":2}},"conditions":["nonSeqFull","nonSeqPartial","seqNoFeedback","seqFeedback"],"classroomPairings":[["A","B"],["C","D"]],"coinWeights":[0.2,0.5,0.8],"subjectId":"AKSJ3C5O3V9RB","assignmentId":"3KGTPGBS6Y7YQNW5B9MGXN6W1PSU2A","hitId":"3JGHED38EDDK7DFM0KVY7GXU94LY7W","url":"https://gershmanlab.com/experiments/alicia/teaching/experiment/?hitId=3JGHED38EDDK7DFM0KVY7GXU94LY7W&workerId=AKSJ3C5O3V9RB&assignmentId=3KGTPGBS6Y7YQNW5B9MGXN6W1PSU2A&a=SPGK9&tp_a=SPGK9&b=3KGTPGBS6Y7YQNW5B9MGXN6W1PSU2A&tp_b=3KGTPGBS6Y7YQNW5B9MGXN6W1PSU2A&c=365799&tp_c=365799"},{"rt":null,"stimulus":"<div style=\"font-size:60px;\">Next student</div>","response":null,"trial_type":"html-keyboard-response","trial_index":45,"time_elapsed":3253844,"internal_node_id":"0.0-44.0-0.0","params":{"nStudents":24,"maxFlips":30,"completionMinutes":45,"basePay":8,"maxBonus":9,"perTrialBonus":0.5,"perTrialBonusThreshold":0.05,"exampleCost":0.01},"classroomParams":{"A":{"a":1,"b":4},"B":{"a":4,"b":1},"C":{"a":2,"b":8},"D":{"a":8,"b":2}},"conditions":["nonSeqFull","nonSeqPartial","seqNoFeedback","seqFeedback"],"classroomPairings":[["A","B"],["C","D"]],"coinWeights":[0.2,0.5,0.8],"subjectId":"AKSJ3C5O3V9RB","assignmentId":"3KGTPGBS6Y7YQNW5B9MGXN6W1PSU2A","hitId":"3JGHED38EDDK7DFM0KVY7GXU94LY7W","url":"https://gershmanlab.com/experiments/alicia/teaching/experiment/?hitId=3JGHED38EDDK7DFM0KVY7GXU94LY7W&workerId=AKSJ3C5O3V9RB&assignmentId=3KGTPGBS6Y7YQNW5B9MGXN6W1PSU2A&a=SPGK9&tp_a=SPGK9&b=3KGTPGBS6Y7YQNW5B9MGXN6W1PSU2A&tp_b=3KGTPGBS6Y7YQNW5B9MGXN6W1PSU2A&c=365799&tp_c=365799"},{"rt":2018,"stimulus":"\n            <h4 style=\"color:Orange;\">Student 6</h4>\n            <h2>The weight of your coin is <b style=\"color:Tomato;\">0.2</b>.</h2>\n            <p>In this block, you will be giving <b>one</b> set of examples to Student 6.</p>\n                <p>You will receive feedback at the end of the block.</p>\n            <p></p>","response":0,"trial_type":"html-button-response","trial_index":46,"time_elapsed":3255864,"internal_node_id":"0.0-45.0","params":{"nStudents":24,"maxFlips":30,"completionMinutes":45,"basePay":8,"maxBonus":9,"perTrialBonus":0.5,"perTrialBonusThreshold":0.05,"exampleCost":0.01},"classroomParams":{"A":{"a":1,"b":4},"B":{"a":4,"b":1},"C":{"a":2,"b":8},"D":{"a":8,"b":2}},"conditions":["nonSeqFull","nonSeqPartial","seqNoFeedback","seqFeedback"],"classroomPairings":[["A","B"],["C","D"]],"coinWeights":[0.2,0.5,0.8],"subjectId":"AKSJ3C5O3V9RB","assignmentId":"3KGTPGBS6Y7YQNW5B9MGXN6W1PSU2A","hitId":"3JGHED38EDDK7DFM0KVY7GXU94LY7W","url":"https://gershmanlab.com/experiments/alicia/teaching/experiment/?hitId=3JGHED38EDDK7DFM0KVY7GXU94LY7W&workerId=AKSJ3C5O3V9RB&assignmentId=3KGTPGBS6Y7YQNW5B9MGXN6W1PSU2A&a=SPGK9&tp_a=SPGK9&b=3KGTPGBS6Y7YQNW5B9MGXN6W1PSU2A&tp_b=3KGTPGBS6Y7YQNW5B9MGXN6W1PSU2A&c=365799&tp_c=365799"},{"rt":15266,"response":{"heads":"0","tails":"11"},"type":"response","condition":"nonSeqFull","trueTheta":0.2,"classrooms":["C","D"],"studentTrueClassroom":"D","exampleSet":"first","trial_type":"survey-html-form","trial_index":47,"time_elapsed":3271130,"internal_node_id":"0.0-46.0-0.0","params":{"nStudents":24,"maxFlips":30,"completionMinutes":45,"basePay":8,"maxBonus":9,"perTrialBonus":0.5,"perTrialBonusThreshold":0.05,"exampleCost":0.01},"classroomParams":{"A":{"a":1,"b":4},"B":{"a":4,"b":1},"C":{"a":2,"b":8},"D":{"a":8,"b":2}},"conditions":["nonSeqFull","nonSeqPartial","seqNoFeedback","seqFeedback"],"classroomPairings":[["A","B"],["C","D"]],"coinWeights":[0.2,0.5,0.8],"subjectId":"AKSJ3C5O3V9RB","assignmentId":"3KGTPGBS6Y7YQNW5B9MGXN6W1PSU2A","hitId":"3JGHED38EDDK7DFM0KVY7GXU94LY7W","url":"https://gershmanlab.com/experiments/alicia/teaching/experiment/?hitId=3JGHED38EDDK7DFM0KVY7GXU94LY7W&workerId=AKSJ3C5O3V9RB&assignmentId=3KGTPGBS6Y7YQNW5B9MGXN6W1PSU2A&a=SPGK9&tp_a=SPGK9&b=3KGTPGBS6Y7YQNW5B9MGXN6W1PSU2A&tp_b=3KGTPGBS6Y7YQNW5B9MGXN6W1PSU2A&c=365799&tp_c=365799","heads":0,"tails":11,"studentIndex":5,"studentTrueHypers":{"a":8,"b":2},"studentGuess":0.38095238095238093,"delta":0.18095238095238092,"totalExamples":11,"bonus":0,"bonusSoFar":0.43},{"rt":null,"stimulus":"Sending examples to student... ","response":null,"trial_type":"html-keyboard-response","trial_index":48,"time_elapsed":3272388,"internal_node_id":"0.0-47.0","params":{"nStudents":24,"maxFlips":30,"completionMinutes":45,"basePay":8,"maxBonus":9,"perTrialBonus":0.5,"perTrialBonusThreshold":0.05,"exampleCost":0.01},"classroomParams":{"A":{"a":1,"b":4},"B":{"a":4,"b":1},"C":{"a":2,"b":8},"D":{"a":8,"b":2}},"conditions":["nonSeqFull","nonSeqPartial","seqNoFeedback","seqFeedback"],"classroomPairings":[["A","B"],["C","D"]],"coinWeights":[0.2,0.5,0.8],"subjectId":"AKSJ3C5O3V9RB","assignmentId":"3KGTPGBS6Y7YQNW5B9MGXN6W1PSU2A","hitId":"3JGHED38EDDK7DFM0KVY7GXU94LY7W","url":"https://gershmanlab.com/experiments/alicia/teaching/experiment/?hitId=3JGHED38EDDK7DFM0KVY7GXU94LY7W&workerId=AKSJ3C5O3V9RB&assignmentId=3KGTPGBS6Y7YQNW5B9MGXN6W1PSU2A&a=SPGK9&tp_a=SPGK9&b=3KGTPGBS6Y7YQNW5B9MGXN6W1PSU2A&tp_b=3KGTPGBS6Y7YQNW5B9MGXN6W1PSU2A&c=365799&tp_c=365799"},{"rt":null,"stimulus":"Examples sent to student! Waiting for student...","response":null,"trial_type":"html-keyboard-response","trial_index":49,"time_elapsed":3277394,"internal_node_id":"0.0-48.0","params":{"nStudents":24,"maxFlips":30,"completionMinutes":45,"basePay":8,"maxBonus":9,"perTrialBonus":0.5,"perTrialBonusThreshold":0.05,"exampleCost":0.01},"classroomParams":{"A":{"a":1,"b":4},"B":{"a":4,"b":1},"C":{"a":2,"b":8},"D":{"a":8,"b":2}},"conditions":["nonSeqFull","nonSeqPartial","seqNoFeedback","seqFeedback"],"classroomPairings":[["A","B"],["C","D"]],"coinWeights":[0.2,0.5,0.8],"subjectId":"AKSJ3C5O3V9RB","assignmentId":"3KGTPGBS6Y7YQNW5B9MGXN6W1PSU2A","hitId":"3JGHED38EDDK7DFM0KVY7GXU94LY7W","url":"https://gershmanlab.com/experiments/alicia/teaching/experiment/?hitId=3JGHED38EDDK7DFM0KVY7GXU94LY7W&workerId=AKSJ3C5O3V9RB&assignmentId=3KGTPGBS6Y7YQNW5B9MGXN6W1PSU2A&a=SPGK9&tp_a=SPGK9&b=3KGTPGBS6Y7YQNW5B9MGXN6W1PSU2A&tp_b=3KGTPGBS6Y7YQNW5B9MGXN6W1PSU2A&c=365799&tp_c=365799"},{"rt":3415,"stimulus":"\n                <p>Student's guess for coin weight: <b style=\"color:Tomato;\">0.38</b></p>\n                <p>You received a bonus of <b>$0</b>. Total bonus so far: <b>$0.43</b></b></p>\n                <p></p>\n                <p>Press any key to continue.</p>\n                ","response":"d","trial_type":"html-keyboard-response","trial_index":50,"time_elapsed":3280809,"internal_node_id":"0.0-49.0","params":{"nStudents":24,"maxFlips":30,"completionMinutes":45,"basePay":8,"maxBonus":9,"perTrialBonus":0.5,"perTrialBonusThreshold":0.05,"exampleCost":0.01},"classroomParams":{"A":{"a":1,"b":4},"B":{"a":4,"b":1},"C":{"a":2,"b":8},"D":{"a":8,"b":2}},"conditions":["nonSeqFull","nonSeqPartial","seqNoFeedback","seqFeedback"],"classroomPairings":[["A","B"],["C","D"]],"coinWeights":[0.2,0.5,0.8],"subjectId":"AKSJ3C5O3V9RB","assignmentId":"3KGTPGBS6Y7YQNW5B9MGXN6W1PSU2A","hitId":"3JGHED38EDDK7DFM0KVY7GXU94LY7W","url":"https://gershmanlab.com/experiments/alicia/teaching/experiment/?hitId=3JGHED38EDDK7DFM0KVY7GXU94LY7W&workerId=AKSJ3C5O3V9RB&assignmentId=3KGTPGBS6Y7YQNW5B9MGXN6W1PSU2A&a=SPGK9&tp_a=SPGK9&b=3KGTPGBS6Y7YQNW5B9MGXN6W1PSU2A&tp_b=3KGTPGBS6Y7YQNW5B9MGXN6W1PSU2A&c=365799&tp_c=365799"},{"rt":null,"stimulus":"<div style=\"font-size:60px;\">Next student</div>","response":null,"trial_type":"html-keyboard-response","trial_index":51,"time_elapsed":3283814,"internal_node_id":"0.0-50.0-0.0","params":{"nStudents":24,"maxFlips":30,"completionMinutes":45,"basePay":8,"maxBonus":9,"perTrialBonus":0.5,"perTrialBonusThreshold":0.05,"exampleCost":0.01},"classroomParams":{"A":{"a":1,"b":4},"B":{"a":4,"b":1},"C":{"a":2,"b":8},"D":{"a":8,"b":2}},"conditions":["nonSeqFull","nonSeqPartial","seqNoFeedback","seqFeedback"],"classroomPairings":[["A","B"],["C","D"]],"coinWeights":[0.2,0.5,0.8],"subjectId":"AKSJ3C5O3V9RB","assignmentId":"3KGTPGBS6Y7YQNW5B9MGXN6W1PSU2A","hitId":"3JGHED38EDDK7DFM0KVY7GXU94LY7W","url":"https://gershmanlab.com/experiments/alicia/teaching/experiment/?hitId=3JGHED38EDDK7DFM0KVY7GXU94LY7W&workerId=AKSJ3C5O3V9RB&assignmentId=3KGTPGBS6Y7YQNW5B9MGXN6W1PSU2A&a=SPGK9&tp_a=SPGK9&b=3KGTPGBS6Y7YQNW5B9MGXN6W1PSU2A&tp_b=3KGTPGBS6Y7YQNW5B9MGXN6W1PSU2A&c=365799&tp_c=365799"},{"rt":1539,"stimulus":"\n            <h4 style=\"color:Orange;\">Student 7</h4>\n            <h2>The weight of your coin is <b style=\"color:Tomato;\">0.5</b>.</h2>\n            <p>In this block, you will be giving <b>two</b> sets of examples to Student 7.</p>\n                <p>You will see the student's guess after the first set of examples. You will also receive feedback at the end of the block.</p>\n            <p>To earn the highest bonus, you will have to <b>take into consideration the student's guess</b> when you choose your second set of examples.</p>","response":0,"trial_type":"html-button-response","trial_index":52,"time_elapsed":3285355,"internal_node_id":"0.0-51.0","params":{"nStudents":24,"maxFlips":30,"completionMinutes":45,"basePay":8,"maxBonus":9,"perTrialBonus":0.5,"perTrialBonusThreshold":0.05,"exampleCost":0.01},"classroomParams":{"A":{"a":1,"b":4},"B":{"a":4,"b":1},"C":{"a":2,"b":8},"D":{"a":8,"b":2}},"conditions":["nonSeqFull","nonSeqPartial","seqNoFeedback","seqFeedback"],"classroomPairings":[["A","B"],["C","D"]],"coinWeights":[0.2,0.5,0.8],"subjectId":"AKSJ3C5O3V9RB","assignmentId":"3KGTPGBS6Y7YQNW5B9MGXN6W1PSU2A","hitId":"3JGHED38EDDK7DFM0KVY7GXU94LY7W","url":"https://gershmanlab.com/experiments/alicia/teaching/experiment/?hitId=3JGHED38EDDK7DFM0KVY7GXU94LY7W&workerId=AKSJ3C5O3V9RB&assignmentId=3KGTPGBS6Y7YQNW5B9MGXN6W1PSU2A&a=SPGK9&tp_a=SPGK9&b=3KGTPGBS6Y7YQNW5B9MGXN6W1PSU2A&tp_b=3KGTPGBS6Y7YQNW5B9MGXN6W1PSU2A&c=365799&tp_c=365799"},{"rt":19303,"response":{"heads":"5","tails":"5"},"type":"response","condition":"seqFeedback","trueTheta":0.5,"classrooms":["A","B"],"studentTrueClassroom":"A","exampleSet":"first","trial_type":"survey-html-form","trial_index":53,"time_elapsed":3304660,"internal_node_id":"0.0-52.0-0.0","params":{"nStudents":24,"maxFlips":30,"completionMinutes":45,"basePay":8,"maxBonus":9,"perTrialBonus":0.5,"perTrialBonusThreshold":0.05,"exampleCost":0.01},"classroomParams":{"A":{"a":1,"b":4},"B":{"a":4,"b":1},"C":{"a":2,"b":8},"D":{"a":8,"b":2}},"conditions":["nonSeqFull","nonSeqPartial","seqNoFeedback","seqFeedback"],"classroomPairings":[["A","B"],["C","D"]],"coinWeights":[0.2,0.5,0.8],"subjectId":"AKSJ3C5O3V9RB","assignmentId":"3KGTPGBS6Y7YQNW5B9MGXN6W1PSU2A","hitId":"3JGHED38EDDK7DFM0KVY7GXU94LY7W","url":"https://gershmanlab.com/experiments/alicia/teaching/experiment/?hitId=3JGHED38EDDK7DFM0KVY7GXU94LY7W&workerId=AKSJ3C5O3V9RB&assignmentId=3KGTPGBS6Y7YQNW5B9MGXN6W1PSU2A&a=SPGK9&tp_a=SPGK9&b=3KGTPGBS6Y7YQNW5B9MGXN6W1PSU2A&tp_b=3KGTPGBS6Y7YQNW5B9MGXN6W1PSU2A&c=365799&tp_c=365799","heads":5,"tails":5,"studentIndex":6,"studentTrueHypers":{"a":1,"b":4},"studentGuess":0.4,"delta":0.09999999999999998,"totalExamples":10,"bonusSoFar":0.43},{"rt":null,"stimulus":"Sending examples to student... ","response":null,"trial_type":"html-keyboard-response","trial_index":54,"time_elapsed":3306424,"internal_node_id":"0.0-53.0","params":{"nStudents":24,"maxFlips":30,"completionMinutes":45,"basePay":8,"maxBonus":9,"perTrialBonus":0.5,"perTrialBonusThreshold":0.05,"exampleCost":0.01},"classroomParams":{"A":{"a":1,"b":4},"B":{"a":4,"b":1},"C":{"a":2,"b":8},"D":{"a":8,"b":2}},"conditions":["nonSeqFull","nonSeqPartial","seqNoFeedback","seqFeedback"],"classroomPairings":[["A","B"],["C","D"]],"coinWeights":[0.2,0.5,0.8],"subjectId":"AKSJ3C5O3V9RB","assignmentId":"3KGTPGBS6Y7YQNW5B9MGXN6W1PSU2A","hitId":"3JGHED38EDDK7DFM0KVY7GXU94LY7W","url":"https://gershmanlab.com/experiments/alicia/teaching/experiment/?hitId=3JGHED38EDDK7DFM0KVY7GXU94LY7W&workerId=AKSJ3C5O3V9RB&assignmentId=3KGTPGBS6Y7YQNW5B9MGXN6W1PSU2A&a=SPGK9&tp_a=SPGK9&b=3KGTPGBS6Y7YQNW5B9MGXN6W1PSU2A&tp_b=3KGTPGBS6Y7YQNW5B9MGXN6W1PSU2A&c=365799&tp_c=365799"},{"rt":null,"stimulus":"Examples sent to student! Waiting for student...","response":null,"trial_type":"html-keyboard-response","trial_index":55,"time_elapsed":3310936,"internal_node_id":"0.0-54.0","params":{"nStudents":24,"maxFlips":30,"completionMinutes":45,"basePay":8,"maxBonus":9,"perTrialBonus":0.5,"perTrialBonusThreshold":0.05,"exampleCost":0.01},"classroomParams":{"A":{"a":1,"b":4},"B":{"a":4,"b":1},"C":{"a":2,"b":8},"D":{"a":8,"b":2}},"conditions":["nonSeqFull","nonSeqPartial","seqNoFeedback","seqFeedback"],"classroomPairings":[["A","B"],["C","D"]],"coinWeights":[0.2,0.5,0.8],"subjectId":"AKSJ3C5O3V9RB","assignmentId":"3KGTPGBS6Y7YQNW5B9MGXN6W1PSU2A","hitId":"3JGHED38EDDK7DFM0KVY7GXU94LY7W","url":"https://gershmanlab.com/experiments/alicia/teaching/experiment/?hitId=3JGHED38EDDK7DFM0KVY7GXU94LY7W&workerId=AKSJ3C5O3V9RB&assignmentId=3KGTPGBS6Y7YQNW5B9MGXN6W1PSU2A&a=SPGK9&tp_a=SPGK9&b=3KGTPGBS6Y7YQNW5B9MGXN6W1PSU2A&tp_b=3KGTPGBS6Y7YQNW5B9MGXN6W1PSU2A&c=365799&tp_c=365799"},{"rt":3105,"stimulus":"\n                <p>Student's guess for coin weight: <b style=\"color:Tomato;\">0.40</b></p>\n                <p></b></p>\n                <p>You will now send another set of examples to your student. <b>Remember to take your student's guess into consideration so that you can earn the highest bonus possible!</b> </p>\n                <p>Press any key to continue.</p>\n                ","response":"c","trial_type":"html-keyboard-response","trial_index":56,"time_elapsed":3314042,"internal_node_id":"0.0-55.0","params":{"nStudents":24,"maxFlips":30,"completionMinutes":45,"basePay":8,"maxBonus":9,"perTrialBonus":0.5,"perTrialBonusThreshold":0.05,"exampleCost":0.01},"classroomParams":{"A":{"a":1,"b":4},"B":{"a":4,"b":1},"C":{"a":2,"b":8},"D":{"a":8,"b":2}},"conditions":["nonSeqFull","nonSeqPartial","seqNoFeedback","seqFeedback"],"classroomPairings":[["A","B"],["C","D"]],"coinWeights":[0.2,0.5,0.8],"subjectId":"AKSJ3C5O3V9RB","assignmentId":"3KGTPGBS6Y7YQNW5B9MGXN6W1PSU2A","hitId":"3JGHED38EDDK7DFM0KVY7GXU94LY7W","url":"https://gershmanlab.com/experiments/alicia/teaching/experiment/?hitId=3JGHED38EDDK7DFM0KVY7GXU94LY7W&workerId=AKSJ3C5O3V9RB&assignmentId=3KGTPGBS6Y7YQNW5B9MGXN6W1PSU2A&a=SPGK9&tp_a=SPGK9&b=3KGTPGBS6Y7YQNW5B9MGXN6W1PSU2A&tp_b=3KGTPGBS6Y7YQNW5B9MGXN6W1PSU2A&c=365799&tp_c=365799"},{"rt":7851,"response":{"heads":"6","tails":"6"},"type":"response","condition":"seqFeedback","trueTheta":0.5,"classrooms":["A","B"],"studentTrueClassroom":"A","exampleSet":"second","trial_type":"survey-html-form","trial_index":57,"time_elapsed":3321894,"internal_node_id":"0.0-56.0-0.0","params":{"nStudents":24,"maxFlips":30,"completionMinutes":45,"basePay":8,"maxBonus":9,"perTrialBonus":0.5,"perTrialBonusThreshold":0.05,"exampleCost":0.01},"classroomParams":{"A":{"a":1,"b":4},"B":{"a":4,"b":1},"C":{"a":2,"b":8},"D":{"a":8,"b":2}},"conditions":["nonSeqFull","nonSeqPartial","seqNoFeedback","seqFeedback"],"classroomPairings":[["A","B"],["C","D"]],"coinWeights":[0.2,0.5,0.8],"subjectId":"AKSJ3C5O3V9RB","assignmentId":"3KGTPGBS6Y7YQNW5B9MGXN6W1PSU2A","hitId":"3JGHED38EDDK7DFM0KVY7GXU94LY7W","url":"https://gershmanlab.com/experiments/alicia/teaching/experiment/?hitId=3JGHED38EDDK7DFM0KVY7GXU94LY7W&workerId=AKSJ3C5O3V9RB&assignmentId=3KGTPGBS6Y7YQNW5B9MGXN6W1PSU2A&a=SPGK9&tp_a=SPGK9&b=3KGTPGBS6Y7YQNW5B9MGXN6W1PSU2A&tp_b=3KGTPGBS6Y7YQNW5B9MGXN6W1PSU2A&c=365799&tp_c=365799","firstResponseHeads":5,"firstResponseTails":5,"secondResponseHeads":6,"secondResponseTails":6,"totalHeads":11,"totalTails":11,"studentIndex":6,"studentTrueHypers":{"a":1,"b":4},"studentGuess":0.4444444444444444,"delta":0.05555555555555558,"bonus":0,"bonusSoFar":0.43,"totalExamples":22},{"rt":null,"stimulus":"Sending examples to student... ","response":null,"trial_type":"html-keyboard-response","trial_index":58,"time_elapsed":3323898,"internal_node_id":"0.0-57.0","params":{"nStudents":24,"maxFlips":30,"completionMinutes":45,"basePay":8,"maxBonus":9,"perTrialBonus":0.5,"perTrialBonusThreshold":0.05,"exampleCost":0.01},"classroomParams":{"A":{"a":1,"b":4},"B":{"a":4,"b":1},"C":{"a":2,"b":8},"D":{"a":8,"b":2}},"conditions":["nonSeqFull","nonSeqPartial","seqNoFeedback","seqFeedback"],"classroomPairings":[["A","B"],["C","D"]],"coinWeights":[0.2,0.5,0.8],"subjectId":"AKSJ3C5O3V9RB","assignmentId":"3KGTPGBS6Y7YQNW5B9MGXN6W1PSU2A","hitId":"3JGHED38EDDK7DFM0KVY7GXU94LY7W","url":"https://gershmanlab.com/experiments/alicia/teaching/experiment/?hitId=3JGHED38EDDK7DFM0KVY7GXU94LY7W&workerId=AKSJ3C5O3V9RB&assignmentId=3KGTPGBS6Y7YQNW5B9MGXN6W1PSU2A&a=SPGK9&tp_a=SPGK9&b=3KGTPGBS6Y7YQNW5B9MGXN6W1PSU2A&tp_b=3KGTPGBS6Y7YQNW5B9MGXN6W1PSU2A&c=365799&tp_c=365799"},{"rt":null,"stimulus":"Examples sent to student! Waiting for student...","response":null,"trial_type":"html-keyboard-response","trial_index":59,"time_elapsed":3328913,"internal_node_id":"0.0-58.0","params":{"nStudents":24,"maxFlips":30,"completionMinutes":45,"basePay":8,"maxBonus":9,"perTrialBonus":0.5,"perTrialBonusThreshold":0.05,"exampleCost":0.01},"classroomParams":{"A":{"a":1,"b":4},"B":{"a":4,"b":1},"C":{"a":2,"b":8},"D":{"a":8,"b":2}},"conditions":["nonSeqFull","nonSeqPartial","seqNoFeedback","seqFeedback"],"classroomPairings":[["A","B"],["C","D"]],"coinWeights":[0.2,0.5,0.8],"subjectId":"AKSJ3C5O3V9RB","assignmentId":"3KGTPGBS6Y7YQNW5B9MGXN6W1PSU2A","hitId":"3JGHED38EDDK7DFM0KVY7GXU94LY7W","url":"https://gershmanlab.com/experiments/alicia/teaching/experiment/?hitId=3JGHED38EDDK7DFM0KVY7GXU94LY7W&workerId=AKSJ3C5O3V9RB&assignmentId=3KGTPGBS6Y7YQNW5B9MGXN6W1PSU2A&a=SPGK9&tp_a=SPGK9&b=3KGTPGBS6Y7YQNW5B9MGXN6W1PSU2A&tp_b=3KGTPGBS6Y7YQNW5B9MGXN6W1PSU2A&c=365799&tp_c=365799"},{"rt":6341,"stimulus":"\n                <p>Student 7's first guess for coin weight: <b style=\"color:Tomato\";>0.40</b></p>\n                <p>Student 7's second guess for coin weight: <b style=\"color:Tomato\";>0.44</b></p>\n                <p>You received a bonus of <b>$0.00</b> based on the student's second guess.</p>\n                <p>Total bonus so far: <b>$0.43</b></p>\n                <p>Press any key to continue.</p>\n                ","response":"x","trial_type":"html-keyboard-response","trial_index":60,"time_elapsed":3335255,"internal_node_id":"0.0-59.0","params":{"nStudents":24,"maxFlips":30,"completionMinutes":45,"basePay":8,"maxBonus":9,"perTrialBonus":0.5,"perTrialBonusThreshold":0.05,"exampleCost":0.01},"classroomParams":{"A":{"a":1,"b":4},"B":{"a":4,"b":1},"C":{"a":2,"b":8},"D":{"a":8,"b":2}},"conditions":["nonSeqFull","nonSeqPartial","seqNoFeedback","seqFeedback"],"classroomPairings":[["A","B"],["C","D"]],"coinWeights":[0.2,0.5,0.8],"subjectId":"AKSJ3C5O3V9RB","assignmentId":"3KGTPGBS6Y7YQNW5B9MGXN6W1PSU2A","hitId":"3JGHED38EDDK7DFM0KVY7GXU94LY7W","url":"https://gershmanlab.com/experiments/alicia/teaching/experiment/?hitId=3JGHED38EDDK7DFM0KVY7GXU94LY7W&workerId=AKSJ3C5O3V9RB&assignmentId=3KGTPGBS6Y7YQNW5B9MGXN6W1PSU2A&a=SPGK9&tp_a=SPGK9&b=3KGTPGBS6Y7YQNW5B9MGXN6W1PSU2A&tp_b=3KGTPGBS6Y7YQNW5B9MGXN6W1PSU2A&c=365799&tp_c=365799"},{"rt":null,"stimulus":"<div style=\"font-size:60px;\">Next student</div>","response":null,"trial_type":"html-keyboard-response","trial_index":61,"time_elapsed":3337756,"internal_node_id":"0.0-60.0-0.0","params":{"nStudents":24,"maxFlips":30,"completionMinutes":45,"basePay":8,"maxBonus":9,"perTrialBonus":0.5,"perTrialBonusThreshold":0.05,"exampleCost":0.01},"classroomParams":{"A":{"a":1,"b":4},"B":{"a":4,"b":1},"C":{"a":2,"b":8},"D":{"a":8,"b":2}},"conditions":["nonSeqFull","nonSeqPartial","seqNoFeedback","seqFeedback"],"classroomPairings":[["A","B"],["C","D"]],"coinWeights":[0.2,0.5,0.8],"subjectId":"AKSJ3C5O3V9RB","assignmentId":"3KGTPGBS6Y7YQNW5B9MGXN6W1PSU2A","hitId":"3JGHED38EDDK7DFM0KVY7GXU94LY7W","url":"https://gershmanlab.com/experiments/alicia/teaching/experiment/?hitId=3JGHED38EDDK7DFM0KVY7GXU94LY7W&workerId=AKSJ3C5O3V9RB&assignmentId=3KGTPGBS6Y7YQNW5B9MGXN6W1PSU2A&a=SPGK9&tp_a=SPGK9&b=3KGTPGBS6Y7YQNW5B9MGXN6W1PSU2A&tp_b=3KGTPGBS6Y7YQNW5B9MGXN6W1PSU2A&c=365799&tp_c=365799"},{"rt":1093,"stimulus":"\n            <h4 style=\"color:Orange;\">Student 8</h4>\n            <h2>The weight of your coin is <b style=\"color:Tomato;\">0.2</b>.</h2>\n            <p>In this block, you will be giving <b>two</b> sets of examples to Student 8.</p>\n                <p>You will receive feedback at the end of the block.</p>\n            <p></p>","response":0,"trial_type":"html-button-response","trial_index":62,"time_elapsed":3338850,"internal_node_id":"0.0-61.0","params":{"nStudents":24,"maxFlips":30,"completionMinutes":45,"basePay":8,"maxBonus":9,"perTrialBonus":0.5,"perTrialBonusThreshold":0.05,"exampleCost":0.01},"classroomParams":{"A":{"a":1,"b":4},"B":{"a":4,"b":1},"C":{"a":2,"b":8},"D":{"a":8,"b":2}},"conditions":["nonSeqFull","nonSeqPartial","seqNoFeedback","seqFeedback"],"classroomPairings":[["A","B"],["C","D"]],"coinWeights":[0.2,0.5,0.8],"subjectId":"AKSJ3C5O3V9RB","assignmentId":"3KGTPGBS6Y7YQNW5B9MGXN6W1PSU2A","hitId":"3JGHED38EDDK7DFM0KVY7GXU94LY7W","url":"https://gershmanlab.com/experiments/alicia/teaching/experiment/?hitId=3JGHED38EDDK7DFM0KVY7GXU94LY7W&workerId=AKSJ3C5O3V9RB&assignmentId=3KGTPGBS6Y7YQNW5B9MGXN6W1PSU2A&a=SPGK9&tp_a=SPGK9&b=3KGTPGBS6Y7YQNW5B9MGXN6W1PSU2A&tp_b=3KGTPGBS6Y7YQNW5B9MGXN6W1PSU2A&c=365799&tp_c=365799"},{"rt":23479,"response":{"heads":"2","tails":"10"},"type":"response","condition":"seqNoFeedback","trueTheta":0.2,"classrooms":["C","D"],"studentTrueClassroom":"D","exampleSet":"first","trial_type":"survey-html-form","trial_index":63,"time_elapsed":3362331,"internal_node_id":"0.0-62.0-0.0","params":{"nStudents":24,"maxFlips":30,"completionMinutes":45,"basePay":8,"maxBonus":9,"perTrialBonus":0.5,"perTrialBonusThreshold":0.05,"exampleCost":0.01},"classroomParams":{"A":{"a":1,"b":4},"B":{"a":4,"b":1},"C":{"a":2,"b":8},"D":{"a":8,"b":2}},"conditions":["nonSeqFull","nonSeqPartial","seqNoFeedback","seqFeedback"],"classroomPairings":[["A","B"],["C","D"]],"coinWeights":[0.2,0.5,0.8],"subjectId":"AKSJ3C5O3V9RB","assignmentId":"3KGTPGBS6Y7YQNW5B9MGXN6W1PSU2A","hitId":"3JGHED38EDDK7DFM0KVY7GXU94LY7W","url":"https://gershmanlab.com/experiments/alicia/teaching/experiment/?hitId=3JGHED38EDDK7DFM0KVY7GXU94LY7W&workerId=AKSJ3C5O3V9RB&assignmentId=3KGTPGBS6Y7YQNW5B9MGXN6W1PSU2A&a=SPGK9&tp_a=SPGK9&b=3KGTPGBS6Y7YQNW5B9MGXN6W1PSU2A&tp_b=3KGTPGBS6Y7YQNW5B9MGXN6W1PSU2A&c=365799&tp_c=365799","heads":2,"tails":10,"studentIndex":7,"studentTrueHypers":{"a":8,"b":2},"studentGuess":0.45454545454545453,"delta":0.2545454545454545,"totalExamples":12,"bonusSoFar":0.43},{"rt":null,"stimulus":"Sending examples to student... ","response":null,"trial_type":"html-keyboard-response","trial_index":64,"time_elapsed":3363589,"internal_node_id":"0.0-63.0","params":{"nStudents":24,"maxFlips":30,"completionMinutes":45,"basePay":8,"maxBonus":9,"perTrialBonus":0.5,"perTrialBonusThreshold":0.05,"exampleCost":0.01},"classroomParams":{"A":{"a":1,"b":4},"B":{"a":4,"b":1},"C":{"a":2,"b":8},"D":{"a":8,"b":2}},"conditions":["nonSeqFull","nonSeqPartial","seqNoFeedback","seqFeedback"],"classroomPairings":[["A","B"],["C","D"]],"coinWeights":[0.2,0.5,0.8],"subjectId":"AKSJ3C5O3V9RB","assignmentId":"3KGTPGBS6Y7YQNW5B9MGXN6W1PSU2A","hitId":"3JGHED38EDDK7DFM0KVY7GXU94LY7W","url":"https://gershmanlab.com/experiments/alicia/teaching/experiment/?hitId=3JGHED38EDDK7DFM0KVY7GXU94LY7W&workerId=AKSJ3C5O3V9RB&assignmentId=3KGTPGBS6Y7YQNW5B9MGXN6W1PSU2A&a=SPGK9&tp_a=SPGK9&b=3KGTPGBS6Y7YQNW5B9MGXN6W1PSU2A&tp_b=3KGTPGBS6Y7YQNW5B9MGXN6W1PSU2A&c=365799&tp_c=365799"},{"rt":null,"stimulus":"Examples sent to student! Waiting for student...","response":null,"trial_type":"html-keyboard-response","trial_index":65,"time_elapsed":3368102,"internal_node_id":"0.0-64.0","params":{"nStudents":24,"maxFlips":30,"completionMinutes":45,"basePay":8,"maxBonus":9,"perTrialBonus":0.5,"perTrialBonusThreshold":0.05,"exampleCost":0.01},"classroomParams":{"A":{"a":1,"b":4},"B":{"a":4,"b":1},"C":{"a":2,"b":8},"D":{"a":8,"b":2}},"conditions":["nonSeqFull","nonSeqPartial","seqNoFeedback","seqFeedback"],"classroomPairings":[["A","B"],["C","D"]],"coinWeights":[0.2,0.5,0.8],"subjectId":"AKSJ3C5O3V9RB","assignmentId":"3KGTPGBS6Y7YQNW5B9MGXN6W1PSU2A","hitId":"3JGHED38EDDK7DFM0KVY7GXU94LY7W","url":"https://gershmanlab.com/experiments/alicia/teaching/experiment/?hitId=3JGHED38EDDK7DFM0KVY7GXU94LY7W&workerId=AKSJ3C5O3V9RB&assignmentId=3KGTPGBS6Y7YQNW5B9MGXN6W1PSU2A&a=SPGK9&tp_a=SPGK9&b=3KGTPGBS6Y7YQNW5B9MGXN6W1PSU2A&tp_b=3KGTPGBS6Y7YQNW5B9MGXN6W1PSU2A&c=365799&tp_c=365799"},{"rt":44722,"response":{"heads":"2","tails":"20"},"type":"response","condition":"seqNoFeedback","trueTheta":0.2,"classrooms":["C","D"],"studentTrueClassroom":"D","exampleSet":"second","trial_type":"survey-html-form","trial_index":66,"time_elapsed":3412825,"internal_node_id":"0.0-65.0-0.0","params":{"nStudents":24,"maxFlips":30,"completionMinutes":45,"basePay":8,"maxBonus":9,"perTrialBonus":0.5,"perTrialBonusThreshold":0.05,"exampleCost":0.01},"classroomParams":{"A":{"a":1,"b":4},"B":{"a":4,"b":1},"C":{"a":2,"b":8},"D":{"a":8,"b":2}},"conditions":["nonSeqFull","nonSeqPartial","seqNoFeedback","seqFeedback"],"classroomPairings":[["A","B"],["C","D"]],"coinWeights":[0.2,0.5,0.8],"subjectId":"AKSJ3C5O3V9RB","assignmentId":"3KGTPGBS6Y7YQNW5B9MGXN6W1PSU2A","hitId":"3JGHED38EDDK7DFM0KVY7GXU94LY7W","url":"https://gershmanlab.com/experiments/alicia/teaching/experiment/?hitId=3JGHED38EDDK7DFM0KVY7GXU94LY7W&workerId=AKSJ3C5O3V9RB&assignmentId=3KGTPGBS6Y7YQNW5B9MGXN6W1PSU2A&a=SPGK9&tp_a=SPGK9&b=3KGTPGBS6Y7YQNW5B9MGXN6W1PSU2A&tp_b=3KGTPGBS6Y7YQNW5B9MGXN6W1PSU2A&c=365799&tp_c=365799","firstResponseHeads":2,"firstResponseTails":10,"secondResponseHeads":2,"secondResponseTails":20,"totalHeads":4,"totalTails":30,"studentIndex":7,"studentTrueHypers":{"a":8,"b":2},"studentGuess":0.2727272727272727,"delta":0.0727272727272727,"bonus":0,"bonusSoFar":0.43,"totalExamples":34},{"rt":null,"stimulus":"Sending examples to student... ","response":null,"trial_type":"html-keyboard-response","trial_index":67,"time_elapsed":3414577,"internal_node_id":"0.0-66.0","params":{"nStudents":24,"maxFlips":30,"completionMinutes":45,"basePay":8,"maxBonus":9,"perTrialBonus":0.5,"perTrialBonusThreshold":0.05,"exampleCost":0.01},"classroomParams":{"A":{"a":1,"b":4},"B":{"a":4,"b":1},"C":{"a":2,"b":8},"D":{"a":8,"b":2}},"conditions":["nonSeqFull","nonSeqPartial","seqNoFeedback","seqFeedback"],"classroomPairings":[["A","B"],["C","D"]],"coinWeights":[0.2,0.5,0.8],"subjectId":"AKSJ3C5O3V9RB","assignmentId":"3KGTPGBS6Y7YQNW5B9MGXN6W1PSU2A","hitId":"3JGHED38EDDK7DFM0KVY7GXU94LY7W","url":"https://gershmanlab.com/experiments/alicia/teaching/experiment/?hitId=3JGHED38EDDK7DFM0KVY7GXU94LY7W&workerId=AKSJ3C5O3V9RB&assignmentId=3KGTPGBS6Y7YQNW5B9MGXN6W1PSU2A&a=SPGK9&tp_a=SPGK9&b=3KGTPGBS6Y7YQNW5B9MGXN6W1PSU2A&tp_b=3KGTPGBS6Y7YQNW5B9MGXN6W1PSU2A&c=365799&tp_c=365799"},{"rt":null,"stimulus":"Examples sent to student! Waiting for student...","response":null,"trial_type":"html-keyboard-response","trial_index":68,"time_elapsed":3419584,"internal_node_id":"0.0-67.0","params":{"nStudents":24,"maxFlips":30,"completionMinutes":45,"basePay":8,"maxBonus":9,"perTrialBonus":0.5,"perTrialBonusThreshold":0.05,"exampleCost":0.01},"classroomParams":{"A":{"a":1,"b":4},"B":{"a":4,"b":1},"C":{"a":2,"b":8},"D":{"a":8,"b":2}},"conditions":["nonSeqFull","nonSeqPartial","seqNoFeedback","seqFeedback"],"classroomPairings":[["A","B"],["C","D"]],"coinWeights":[0.2,0.5,0.8],"subjectId":"AKSJ3C5O3V9RB","assignmentId":"3KGTPGBS6Y7YQNW5B9MGXN6W1PSU2A","hitId":"3JGHED38EDDK7DFM0KVY7GXU94LY7W","url":"https://gershmanlab.com/experiments/alicia/teaching/experiment/?hitId=3JGHED38EDDK7DFM0KVY7GXU94LY7W&workerId=AKSJ3C5O3V9RB&assignmentId=3KGTPGBS6Y7YQNW5B9MGXN6W1PSU2A&a=SPGK9&tp_a=SPGK9&b=3KGTPGBS6Y7YQNW5B9MGXN6W1PSU2A&tp_b=3KGTPGBS6Y7YQNW5B9MGXN6W1PSU2A&c=365799&tp_c=365799"},{"rt":6151,"stimulus":"\n                <p>Student 8's first guess for coin weight: <b style=\"color:Tomato\";>0.45</b></p>\n                <p>Student 8's second guess for coin weight: <b style=\"color:Tomato\";>0.27</b></p>\n                <p>You received a bonus of <b>$0.00</b> based on the student's second guess.</p>\n                <p>Total bonus so far: <b>$0.43</b></p>\n                <p>Press any key to continue.</p>\n                ","response":"x","trial_type":"html-keyboard-response","trial_index":69,"time_elapsed":3425736,"internal_node_id":"0.0-68.0","params":{"nStudents":24,"maxFlips":30,"completionMinutes":45,"basePay":8,"maxBonus":9,"perTrialBonus":0.5,"perTrialBonusThreshold":0.05,"exampleCost":0.01},"classroomParams":{"A":{"a":1,"b":4},"B":{"a":4,"b":1},"C":{"a":2,"b":8},"D":{"a":8,"b":2}},"conditions":["nonSeqFull","nonSeqPartial","seqNoFeedback","seqFeedback"],"classroomPairings":[["A","B"],["C","D"]],"coinWeights":[0.2,0.5,0.8],"subjectId":"AKSJ3C5O3V9RB","assignmentId":"3KGTPGBS6Y7YQNW5B9MGXN6W1PSU2A","hitId":"3JGHED38EDDK7DFM0KVY7GXU94LY7W","url":"https://gershmanlab.com/experiments/alicia/teaching/experiment/?hitId=3JGHED38EDDK7DFM0KVY7GXU94LY7W&workerId=AKSJ3C5O3V9RB&assignmentId=3KGTPGBS6Y7YQNW5B9MGXN6W1PSU2A&a=SPGK9&tp_a=SPGK9&b=3KGTPGBS6Y7YQNW5B9MGXN6W1PSU2A&tp_b=3KGTPGBS6Y7YQNW5B9MGXN6W1PSU2A&c=365799&tp_c=365799"},{"rt":null,"stimulus":"<div style=\"font-size:60px;\">Next student</div>","response":null,"trial_type":"html-keyboard-response","trial_index":70,"time_elapsed":3428750,"internal_node_id":"0.0-69.0-0.0","params":{"nStudents":24,"maxFlips":30,"completionMinutes":45,"basePay":8,"maxBonus":9,"perTrialBonus":0.5,"perTrialBonusThreshold":0.05,"exampleCost":0.01},"classroomParams":{"A":{"a":1,"b":4},"B":{"a":4,"b":1},"C":{"a":2,"b":8},"D":{"a":8,"b":2}},"conditions":["nonSeqFull","nonSeqPartial","seqNoFeedback","seqFeedback"],"classroomPairings":[["A","B"],["C","D"]],"coinWeights":[0.2,0.5,0.8],"subjectId":"AKSJ3C5O3V9RB","assignmentId":"3KGTPGBS6Y7YQNW5B9MGXN6W1PSU2A","hitId":"3JGHED38EDDK7DFM0KVY7GXU94LY7W","url":"https://gershmanlab.com/experiments/alicia/teaching/experiment/?hitId=3JGHED38EDDK7DFM0KVY7GXU94LY7W&workerId=AKSJ3C5O3V9RB&assignmentId=3KGTPGBS6Y7YQNW5B9MGXN6W1PSU2A&a=SPGK9&tp_a=SPGK9&b=3KGTPGBS6Y7YQNW5B9MGXN6W1PSU2A&tp_b=3KGTPGBS6Y7YQNW5B9MGXN6W1PSU2A&c=365799&tp_c=365799"},{"rt":1524,"stimulus":"\n            <h4 style=\"color:Orange;\">Student 9</h4>\n            <h2>The weight of your coin is <b style=\"color:Tomato;\">0.8</b>.</h2>\n            <p>In this block, you will be giving <b>two</b> sets of examples to Student 9.</p>\n                <p>You will receive feedback at the end of the block.</p>\n            <p></p>","response":0,"trial_type":"html-button-response","trial_index":71,"time_elapsed":3430279,"internal_node_id":"0.0-70.0","params":{"nStudents":24,"maxFlips":30,"completionMinutes":45,"basePay":8,"maxBonus":9,"perTrialBonus":0.5,"perTrialBonusThreshold":0.05,"exampleCost":0.01},"classroomParams":{"A":{"a":1,"b":4},"B":{"a":4,"b":1},"C":{"a":2,"b":8},"D":{"a":8,"b":2}},"conditions":["nonSeqFull","nonSeqPartial","seqNoFeedback","seqFeedback"],"classroomPairings":[["A","B"],["C","D"]],"coinWeights":[0.2,0.5,0.8],"subjectId":"AKSJ3C5O3V9RB","assignmentId":"3KGTPGBS6Y7YQNW5B9MGXN6W1PSU2A","hitId":"3JGHED38EDDK7DFM0KVY7GXU94LY7W","url":"https://gershmanlab.com/experiments/alicia/teaching/experiment/?hitId=3JGHED38EDDK7DFM0KVY7GXU94LY7W&workerId=AKSJ3C5O3V9RB&assignmentId=3KGTPGBS6Y7YQNW5B9MGXN6W1PSU2A&a=SPGK9&tp_a=SPGK9&b=3KGTPGBS6Y7YQNW5B9MGXN6W1PSU2A&tp_b=3KGTPGBS6Y7YQNW5B9MGXN6W1PSU2A&c=365799&tp_c=365799"},{"rt":61713,"response":{"heads":"28","tails":"2"},"type":"response","condition":"seqNoFeedback","trueTheta":0.8,"classrooms":["A","B"],"studentTrueClassroom":"B","exampleSet":"first","trial_type":"survey-html-form","trial_index":72,"time_elapsed":3491994,"internal_node_id":"0.0-71.0-0.0","params":{"nStudents":24,"maxFlips":30,"completionMinutes":45,"basePay":8,"maxBonus":9,"perTrialBonus":0.5,"perTrialBonusThreshold":0.05,"exampleCost":0.01},"classroomParams":{"A":{"a":1,"b":4},"B":{"a":4,"b":1},"C":{"a":2,"b":8},"D":{"a":8,"b":2}},"conditions":["nonSeqFull","nonSeqPartial","seqNoFeedback","seqFeedback"],"classroomPairings":[["A","B"],["C","D"]],"coinWeights":[0.2,0.5,0.8],"subjectId":"AKSJ3C5O3V9RB","assignmentId":"3KGTPGBS6Y7YQNW5B9MGXN6W1PSU2A","hitId":"3JGHED38EDDK7DFM0KVY7GXU94LY7W","url":"https://gershmanlab.com/experiments/alicia/teaching/experiment/?hitId=3JGHED38EDDK7DFM0KVY7GXU94LY7W&workerId=AKSJ3C5O3V9RB&assignmentId=3KGTPGBS6Y7YQNW5B9MGXN6W1PSU2A&a=SPGK9&tp_a=SPGK9&b=3KGTPGBS6Y7YQNW5B9MGXN6W1PSU2A&tp_b=3KGTPGBS6Y7YQNW5B9MGXN6W1PSU2A&c=365799&tp_c=365799","heads":28,"tails":2,"studentIndex":8,"studentTrueHypers":{"a":4,"b":1},"studentGuess":0.9142857142857143,"delta":0.11428571428571421,"totalExamples":30,"bonusSoFar":0.43},{"rt":null,"stimulus":"Sending examples to student... ","response":null,"trial_type":"html-keyboard-response","trial_index":73,"time_elapsed":3493506,"internal_node_id":"0.0-72.0","params":{"nStudents":24,"maxFlips":30,"completionMinutes":45,"basePay":8,"maxBonus":9,"perTrialBonus":0.5,"perTrialBonusThreshold":0.05,"exampleCost":0.01},"classroomParams":{"A":{"a":1,"b":4},"B":{"a":4,"b":1},"C":{"a":2,"b":8},"D":{"a":8,"b":2}},"conditions":["nonSeqFull","nonSeqPartial","seqNoFeedback","seqFeedback"],"classroomPairings":[["A","B"],["C","D"]],"coinWeights":[0.2,0.5,0.8],"subjectId":"AKSJ3C5O3V9RB","assignmentId":"3KGTPGBS6Y7YQNW5B9MGXN6W1PSU2A","hitId":"3JGHED38EDDK7DFM0KVY7GXU94LY7W","url":"https://gershmanlab.com/experiments/alicia/teaching/experiment/?hitId=3JGHED38EDDK7DFM0KVY7GXU94LY7W&workerId=AKSJ3C5O3V9RB&assignmentId=3KGTPGBS6Y7YQNW5B9MGXN6W1PSU2A&a=SPGK9&tp_a=SPGK9&b=3KGTPGBS6Y7YQNW5B9MGXN6W1PSU2A&tp_b=3KGTPGBS6Y7YQNW5B9MGXN6W1PSU2A&c=365799&tp_c=365799"},{"rt":null,"stimulus":"Examples sent to student! Waiting for student...","response":null,"trial_type":"html-keyboard-response","trial_index":74,"time_elapsed":3498522,"internal_node_id":"0.0-73.0","params":{"nStudents":24,"maxFlips":30,"completionMinutes":45,"basePay":8,"maxBonus":9,"perTrialBonus":0.5,"perTrialBonusThreshold":0.05,"exampleCost":0.01},"classroomParams":{"A":{"a":1,"b":4},"B":{"a":4,"b":1},"C":{"a":2,"b":8},"D":{"a":8,"b":2}},"conditions":["nonSeqFull","nonSeqPartial","seqNoFeedback","seqFeedback"],"classroomPairings":[["A","B"],["C","D"]],"coinWeights":[0.2,0.5,0.8],"subjectId":"AKSJ3C5O3V9RB","assignmentId":"3KGTPGBS6Y7YQNW5B9MGXN6W1PSU2A","hitId":"3JGHED38EDDK7DFM0KVY7GXU94LY7W","url":"https://gershmanlab.com/experiments/alicia/teaching/experiment/?hitId=3JGHED38EDDK7DFM0KVY7GXU94LY7W&workerId=AKSJ3C5O3V9RB&assignmentId=3KGTPGBS6Y7YQNW5B9MGXN6W1PSU2A&a=SPGK9&tp_a=SPGK9&b=3KGTPGBS6Y7YQNW5B9MGXN6W1PSU2A&tp_b=3KGTPGBS6Y7YQNW5B9MGXN6W1PSU2A&c=365799&tp_c=365799"},{"rt":25789,"response":{"heads":"24","tails":"2"},"type":"response","condition":"seqNoFeedback","trueTheta":0.8,"classrooms":["A","B"],"studentTrueClassroom":"B","exampleSet":"second","trial_type":"survey-html-form","trial_index":75,"time_elapsed":3524313,"internal_node_id":"0.0-74.0-0.0","params":{"nStudents":24,"maxFlips":30,"completionMinutes":45,"basePay":8,"maxBonus":9,"perTrialBonus":0.5,"perTrialBonusThreshold":0.05,"exampleCost":0.01},"classroomParams":{"A":{"a":1,"b":4},"B":{"a":4,"b":1},"C":{"a":2,"b":8},"D":{"a":8,"b":2}},"conditions":["nonSeqFull","nonSeqPartial","seqNoFeedback","seqFeedback"],"classroomPairings":[["A","B"],["C","D"]],"coinWeights":[0.2,0.5,0.8],"subjectId":"AKSJ3C5O3V9RB","assignmentId":"3KGTPGBS6Y7YQNW5B9MGXN6W1PSU2A","hitId":"3JGHED38EDDK7DFM0KVY7GXU94LY7W","url":"https://gershmanlab.com/experiments/alicia/teaching/experiment/?hitId=3JGHED38EDDK7DFM0KVY7GXU94LY7W&workerId=AKSJ3C5O3V9RB&assignmentId=3KGTPGBS6Y7YQNW5B9MGXN6W1PSU2A&a=SPGK9&tp_a=SPGK9&b=3KGTPGBS6Y7YQNW5B9MGXN6W1PSU2A&tp_b=3KGTPGBS6Y7YQNW5B9MGXN6W1PSU2A&c=365799&tp_c=365799","firstResponseHeads":28,"firstResponseTails":2,"secondResponseHeads":24,"secondResponseTails":2,"totalHeads":52,"totalTails":4,"studentIndex":8,"studentTrueHypers":{"a":4,"b":1},"studentGuess":0.9180327868852459,"delta":0.11803278688524588,"bonus":0,"bonusSoFar":0.43,"totalExamples":56},{"rt":null,"stimulus":"Sending examples to student... ","response":null,"trial_type":"html-keyboard-response","trial_index":76,"time_elapsed":3526325,"internal_node_id":"0.0-75.0","params":{"nStudents":24,"maxFlips":30,"completionMinutes":45,"basePay":8,"maxBonus":9,"perTrialBonus":0.5,"perTrialBonusThreshold":0.05,"exampleCost":0.01},"classroomParams":{"A":{"a":1,"b":4},"B":{"a":4,"b":1},"C":{"a":2,"b":8},"D":{"a":8,"b":2}},"conditions":["nonSeqFull","nonSeqPartial","seqNoFeedback","seqFeedback"],"classroomPairings":[["A","B"],["C","D"]],"coinWeights":[0.2,0.5,0.8],"subjectId":"AKSJ3C5O3V9RB","assignmentId":"3KGTPGBS6Y7YQNW5B9MGXN6W1PSU2A","hitId":"3JGHED38EDDK7DFM0KVY7GXU94LY7W","url":"https://gershmanlab.com/experiments/alicia/teaching/experiment/?hitId=3JGHED38EDDK7DFM0KVY7GXU94LY7W&workerId=AKSJ3C5O3V9RB&assignmentId=3KGTPGBS6Y7YQNW5B9MGXN6W1PSU2A&a=SPGK9&tp_a=SPGK9&b=3KGTPGBS6Y7YQNW5B9MGXN6W1PSU2A&tp_b=3KGTPGBS6Y7YQNW5B9MGXN6W1PSU2A&c=365799&tp_c=365799"},{"rt":null,"stimulus":"Examples sent to student! Waiting for student...","response":null,"trial_type":"html-keyboard-response","trial_index":77,"time_elapsed":3531827,"internal_node_id":"0.0-76.0","params":{"nStudents":24,"maxFlips":30,"completionMinutes":45,"basePay":8,"maxBonus":9,"perTrialBonus":0.5,"perTrialBonusThreshold":0.05,"exampleCost":0.01},"classroomParams":{"A":{"a":1,"b":4},"B":{"a":4,"b":1},"C":{"a":2,"b":8},"D":{"a":8,"b":2}},"conditions":["nonSeqFull","nonSeqPartial","seqNoFeedback","seqFeedback"],"classroomPairings":[["A","B"],["C","D"]],"coinWeights":[0.2,0.5,0.8],"subjectId":"AKSJ3C5O3V9RB","assignmentId":"3KGTPGBS6Y7YQNW5B9MGXN6W1PSU2A","hitId":"3JGHED38EDDK7DFM0KVY7GXU94LY7W","url":"https://gershmanlab.com/experiments/alicia/teaching/experiment/?hitId=3JGHED38EDDK7DFM0KVY7GXU94LY7W&workerId=AKSJ3C5O3V9RB&assignmentId=3KGTPGBS6Y7YQNW5B9MGXN6W1PSU2A&a=SPGK9&tp_a=SPGK9&b=3KGTPGBS6Y7YQNW5B9MGXN6W1PSU2A&tp_b=3KGTPGBS6Y7YQNW5B9MGXN6W1PSU2A&c=365799&tp_c=365799"},{"rt":6401,"stimulus":"\n                <p>Student 9's first guess for coin weight: <b style=\"color:Tomato\";>0.91</b></p>\n                <p>Student 9's second guess for coin weight: <b style=\"color:Tomato\";>0.92</b></p>\n                <p>You received a bonus of <b>$0.00</b> based on the student's second guess.</p>\n                <p>Total bonus so far: <b>$0.43</b></p>\n                <p>Press any key to continue.</p>\n                ","response":"t","trial_type":"html-keyboard-response","trial_index":78,"time_elapsed":3538229,"internal_node_id":"0.0-77.0","params":{"nStudents":24,"maxFlips":30,"completionMinutes":45,"basePay":8,"maxBonus":9,"perTrialBonus":0.5,"perTrialBonusThreshold":0.05,"exampleCost":0.01},"classroomParams":{"A":{"a":1,"b":4},"B":{"a":4,"b":1},"C":{"a":2,"b":8},"D":{"a":8,"b":2}},"conditions":["nonSeqFull","nonSeqPartial","seqNoFeedback","seqFeedback"],"classroomPairings":[["A","B"],["C","D"]],"coinWeights":[0.2,0.5,0.8],"subjectId":"AKSJ3C5O3V9RB","assignmentId":"3KGTPGBS6Y7YQNW5B9MGXN6W1PSU2A","hitId":"3JGHED38EDDK7DFM0KVY7GXU94LY7W","url":"https://gershmanlab.com/experiments/alicia/teaching/experiment/?hitId=3JGHED38EDDK7DFM0KVY7GXU94LY7W&workerId=AKSJ3C5O3V9RB&assignmentId=3KGTPGBS6Y7YQNW5B9MGXN6W1PSU2A&a=SPGK9&tp_a=SPGK9&b=3KGTPGBS6Y7YQNW5B9MGXN6W1PSU2A&tp_b=3KGTPGBS6Y7YQNW5B9MGXN6W1PSU2A&c=365799&tp_c=365799"},{"rt":null,"stimulus":"<div style=\"font-size:60px;\">Next student</div>","response":null,"trial_type":"html-keyboard-response","trial_index":79,"time_elapsed":3541232,"internal_node_id":"0.0-78.0-0.0","params":{"nStudents":24,"maxFlips":30,"completionMinutes":45,"basePay":8,"maxBonus":9,"perTrialBonus":0.5,"perTrialBonusThreshold":0.05,"exampleCost":0.01},"classroomParams":{"A":{"a":1,"b":4},"B":{"a":4,"b":1},"C":{"a":2,"b":8},"D":{"a":8,"b":2}},"conditions":["nonSeqFull","nonSeqPartial","seqNoFeedback","seqFeedback"],"classroomPairings":[["A","B"],["C","D"]],"coinWeights":[0.2,0.5,0.8],"subjectId":"AKSJ3C5O3V9RB","assignmentId":"3KGTPGBS6Y7YQNW5B9MGXN6W1PSU2A","hitId":"3JGHED38EDDK7DFM0KVY7GXU94LY7W","url":"https://gershmanlab.com/experiments/alicia/teaching/experiment/?hitId=3JGHED38EDDK7DFM0KVY7GXU94LY7W&workerId=AKSJ3C5O3V9RB&assignmentId=3KGTPGBS6Y7YQNW5B9MGXN6W1PSU2A&a=SPGK9&tp_a=SPGK9&b=3KGTPGBS6Y7YQNW5B9MGXN6W1PSU2A&tp_b=3KGTPGBS6Y7YQNW5B9MGXN6W1PSU2A&c=365799&tp_c=365799"},{"rt":2518,"stimulus":"\n            <h4 style=\"color:Orange;\">Student 10</h4>\n            <h2>The weight of your coin is <b style=\"color:Tomato;\">0.5</b>.</h2>\n            <p>In this block, you will be giving <b>one</b> set of examples to Student 10.</p>\n                <p>You will receive feedback at the end of the block.</p>\n            <p></p>","response":0,"trial_type":"html-button-response","trial_index":80,"time_elapsed":3543750,"internal_node_id":"0.0-79.0","params":{"nStudents":24,"maxFlips":30,"completionMinutes":45,"basePay":8,"maxBonus":9,"perTrialBonus":0.5,"perTrialBonusThreshold":0.05,"exampleCost":0.01},"classroomParams":{"A":{"a":1,"b":4},"B":{"a":4,"b":1},"C":{"a":2,"b":8},"D":{"a":8,"b":2}},"conditions":["nonSeqFull","nonSeqPartial","seqNoFeedback","seqFeedback"],"classroomPairings":[["A","B"],["C","D"]],"coinWeights":[0.2,0.5,0.8],"subjectId":"AKSJ3C5O3V9RB","assignmentId":"3KGTPGBS6Y7YQNW5B9MGXN6W1PSU2A","hitId":"3JGHED38EDDK7DFM0KVY7GXU94LY7W","url":"https://gershmanlab.com/experiments/alicia/teaching/experiment/?hitId=3JGHED38EDDK7DFM0KVY7GXU94LY7W&workerId=AKSJ3C5O3V9RB&assignmentId=3KGTPGBS6Y7YQNW5B9MGXN6W1PSU2A&a=SPGK9&tp_a=SPGK9&b=3KGTPGBS6Y7YQNW5B9MGXN6W1PSU2A&tp_b=3KGTPGBS6Y7YQNW5B9MGXN6W1PSU2A&c=365799&tp_c=365799"},{"rt":24124,"response":{"heads":"15","tails":"15"},"type":"response","condition":"nonSeqPartial","trueTheta":0.5,"classrooms":["A","B"],"studentTrueClassroom":"A","exampleSet":"first","trial_type":"survey-html-form","trial_index":81,"time_elapsed":3567876,"internal_node_id":"0.0-80.0-0.0","params":{"nStudents":24,"maxFlips":30,"completionMinutes":45,"basePay":8,"maxBonus":9,"perTrialBonus":0.5,"perTrialBonusThreshold":0.05,"exampleCost":0.01},"classroomParams":{"A":{"a":1,"b":4},"B":{"a":4,"b":1},"C":{"a":2,"b":8},"D":{"a":8,"b":2}},"conditions":["nonSeqFull","nonSeqPartial","seqNoFeedback","seqFeedback"],"classroomPairings":[["A","B"],["C","D"]],"coinWeights":[0.2,0.5,0.8],"subjectId":"AKSJ3C5O3V9RB","assignmentId":"3KGTPGBS6Y7YQNW5B9MGXN6W1PSU2A","hitId":"3JGHED38EDDK7DFM0KVY7GXU94LY7W","url":"https://gershmanlab.com/experiments/alicia/teaching/experiment/?hitId=3JGHED38EDDK7DFM0KVY7GXU94LY7W&workerId=AKSJ3C5O3V9RB&assignmentId=3KGTPGBS6Y7YQNW5B9MGXN6W1PSU2A&a=SPGK9&tp_a=SPGK9&b=3KGTPGBS6Y7YQNW5B9MGXN6W1PSU2A&tp_b=3KGTPGBS6Y7YQNW5B9MGXN6W1PSU2A&c=365799&tp_c=365799","heads":15,"tails":15,"studentIndex":9,"studentTrueHypers":{"a":1,"b":4},"studentGuess":0.45714285714285713,"delta":0.04285714285714287,"totalExamples":30,"bonus":0.2,"bonusSoFar":0.63},{"rt":null,"stimulus":"Sending examples to student... ","response":null,"trial_type":"html-keyboard-response","trial_index":82,"time_elapsed":3569633,"internal_node_id":"0.0-81.0","params":{"nStudents":24,"maxFlips":30,"completionMinutes":45,"basePay":8,"maxBonus":9,"perTrialBonus":0.5,"perTrialBonusThreshold":0.05,"exampleCost":0.01},"classroomParams":{"A":{"a":1,"b":4},"B":{"a":4,"b":1},"C":{"a":2,"b":8},"D":{"a":8,"b":2}},"conditions":["nonSeqFull","nonSeqPartial","seqNoFeedback","seqFeedback"],"classroomPairings":[["A","B"],["C","D"]],"coinWeights":[0.2,0.5,0.8],"subjectId":"AKSJ3C5O3V9RB","assignmentId":"3KGTPGBS6Y7YQNW5B9MGXN6W1PSU2A","hitId":"3JGHED38EDDK7DFM0KVY7GXU94LY7W","url":"https://gershmanlab.com/experiments/alicia/teaching/experiment/?hitId=3JGHED38EDDK7DFM0KVY7GXU94LY7W&workerId=AKSJ3C5O3V9RB&assignmentId=3KGTPGBS6Y7YQNW5B9MGXN6W1PSU2A&a=SPGK9&tp_a=SPGK9&b=3KGTPGBS6Y7YQNW5B9MGXN6W1PSU2A&tp_b=3KGTPGBS6Y7YQNW5B9MGXN6W1PSU2A&c=365799&tp_c=365799"},{"rt":null,"stimulus":"Examples sent to student! Waiting for student...","response":null,"trial_type":"html-keyboard-response","trial_index":83,"time_elapsed":3574150,"internal_node_id":"0.0-82.0","params":{"nStudents":24,"maxFlips":30,"completionMinutes":45,"basePay":8,"maxBonus":9,"perTrialBonus":0.5,"perTrialBonusThreshold":0.05,"exampleCost":0.01},"classroomParams":{"A":{"a":1,"b":4},"B":{"a":4,"b":1},"C":{"a":2,"b":8},"D":{"a":8,"b":2}},"conditions":["nonSeqFull","nonSeqPartial","seqNoFeedback","seqFeedback"],"classroomPairings":[["A","B"],["C","D"]],"coinWeights":[0.2,0.5,0.8],"subjectId":"AKSJ3C5O3V9RB","assignmentId":"3KGTPGBS6Y7YQNW5B9MGXN6W1PSU2A","hitId":"3JGHED38EDDK7DFM0KVY7GXU94LY7W","url":"https://gershmanlab.com/experiments/alicia/teaching/experiment/?hitId=3JGHED38EDDK7DFM0KVY7GXU94LY7W&workerId=AKSJ3C5O3V9RB&assignmentId=3KGTPGBS6Y7YQNW5B9MGXN6W1PSU2A&a=SPGK9&tp_a=SPGK9&b=3KGTPGBS6Y7YQNW5B9MGXN6W1PSU2A&tp_b=3KGTPGBS6Y7YQNW5B9MGXN6W1PSU2A&c=365799&tp_c=365799"},{"rt":5915,"stimulus":"\n                <p>Student's guess for coin weight: <b style=\"color:Tomato;\">0.46</b></p>\n                <p>You received a bonus of <b>$0.2</b>. Total bonus so far: <b>$0.63</b></b></p>\n                <p></p>\n                <p>Press any key to continue.</p>\n                ","response":"u","trial_type":"html-keyboard-response","trial_index":84,"time_elapsed":3580065,"internal_node_id":"0.0-83.0","params":{"nStudents":24,"maxFlips":30,"completionMinutes":45,"basePay":8,"maxBonus":9,"perTrialBonus":0.5,"perTrialBonusThreshold":0.05,"exampleCost":0.01},"classroomParams":{"A":{"a":1,"b":4},"B":{"a":4,"b":1},"C":{"a":2,"b":8},"D":{"a":8,"b":2}},"conditions":["nonSeqFull","nonSeqPartial","seqNoFeedback","seqFeedback"],"classroomPairings":[["A","B"],["C","D"]],"coinWeights":[0.2,0.5,0.8],"subjectId":"AKSJ3C5O3V9RB","assignmentId":"3KGTPGBS6Y7YQNW5B9MGXN6W1PSU2A","hitId":"3JGHED38EDDK7DFM0KVY7GXU94LY7W","url":"https://gershmanlab.com/experiments/alicia/teaching/experiment/?hitId=3JGHED38EDDK7DFM0KVY7GXU94LY7W&workerId=AKSJ3C5O3V9RB&assignmentId=3KGTPGBS6Y7YQNW5B9MGXN6W1PSU2A&a=SPGK9&tp_a=SPGK9&b=3KGTPGBS6Y7YQNW5B9MGXN6W1PSU2A&tp_b=3KGTPGBS6Y7YQNW5B9MGXN6W1PSU2A&c=365799&tp_c=365799"},{"rt":null,"stimulus":"<div style=\"font-size:60px;\">Next student</div>","response":null,"trial_type":"html-keyboard-response","trial_index":85,"time_elapsed":3582324,"internal_node_id":"0.0-84.0-0.0","params":{"nStudents":24,"maxFlips":30,"completionMinutes":45,"basePay":8,"maxBonus":9,"perTrialBonus":0.5,"perTrialBonusThreshold":0.05,"exampleCost":0.01},"classroomParams":{"A":{"a":1,"b":4},"B":{"a":4,"b":1},"C":{"a":2,"b":8},"D":{"a":8,"b":2}},"conditions":["nonSeqFull","nonSeqPartial","seqNoFeedback","seqFeedback"],"classroomPairings":[["A","B"],["C","D"]],"coinWeights":[0.2,0.5,0.8],"subjectId":"AKSJ3C5O3V9RB","assignmentId":"3KGTPGBS6Y7YQNW5B9MGXN6W1PSU2A","hitId":"3JGHED38EDDK7DFM0KVY7GXU94LY7W","url":"https://gershmanlab.com/experiments/alicia/teaching/experiment/?hitId=3JGHED38EDDK7DFM0KV