[{"rt":15297,"stimulus":"Welcome to the experiment. Press any key to begin.","response":"m","trial_type":"html-keyboard-response","trial_index":0,"time_elapsed":15314,"internal_node_id":"0.0-0.0","params":{"nStudents":24,"maxFlips":30,"completionMinutes":45,"basePay":8,"maxBonus":9,"perTrialBonus":0.5,"perTrialBonusThreshold":0.05,"exampleCost":0.01},"classroomParams":{"A":{"a":1,"b":4},"B":{"a":4,"b":1},"C":{"a":2,"b":8},"D":{"a":8,"b":2}},"conditions":["nonSeqFull","nonSeqPartial","seqNoFeedback","seqFeedback"],"classroomPairings":[["A","B"],["C","D"]],"coinWeights":[0.2,0.5,0.8],"subjectId":"AMLWYWZOMONLB","assignmentId":"3LEP4MGT3HM6XYLF87P2OG5C9WCBDN","hitId":"3SD15I2WD2G0NA4TSPXGB81L5S7630","url":"https://gershmanlab.com/experiments/alicia/teaching/experiment/?hitId=3SD15I2WD2G0NA4TSPXGB81L5S7630&workerId=AMLWYWZOMONLB&assignmentId=3LEP4MGT3HM6XYLF87P2OG5C9WCBDN&a=T4EL9&tp_a=T4EL9&b=3LEP4MGT3HM6XYLF87P2OG5C9WCBDN&tp_b=3LEP4MGT3HM6XYLF87P2OG5C9WCBDN&c=365799&tp_c=365799"},{"rt":9094,"stimulus":"\n        <h3>Please read this consent agreement carefully before deciding whether to participate in this experiment.</h3>\n        <p><b>Purpose of the research:</b> To examine how people teach effectively.</p>\n        <p><b>What you will do in this research:</b> You will teach students the weights of different coins.</p>\n        <p><b>Time required:</b> This experiment will take 45 minutes to complete.</p>\n        <p><b>Risks:</b> There are no anticipated risks associated with participating in this study.             The effects of participating should be comparable to those you would experience from viewing a computer monitor             and using a mouse and keyboard for the duration of the experiment.</p>\n        <p><b>Benefits:</b> The study provides important information about the nature of teaching.</p>\n        <p><b>Compensation:</b> You will receive <b>$8</b> for completing the experiment and a performance bonus of up to <b>$9</b>.</p>\n        <p><b>Confidentiality:</b> Your participation in this study will remain confidential.             No personally identifiable information will be associated with your data.             Your de-identified data may be shared with other researchers and used in future projects.</p>\n        <p><b>Participation and withdrawal:</b> Your participation in this study is completely voluntary and             you may refuse to participate or you may choose to withdraw at any time without penalty or loss of\n            benefits to which you are otherwise entitled.</p>\n        <p><b>How to contact the researcher:</b> If you have questions or concerns about your participation            or payment, or want to request a summary of research findings, please contact\n            Alicia Chen, aliciachen@college.harvard.edu.</p>\n        <p><b>Whom to contact about your rights in this research:</b> For questions, concerns, suggestions,             or complaints that have not been or cannot be addressed by the researcher, or to report             research-related harm, please contact the Committee on the Use of Human Subjects in Research at Harvard University,             1414 Massachusetts Avenue, Second Floor, Cambridge, MA 02138. Phone: 617-496-2847. Email: cuhs@fas.harvard.edu.</p>\n        ","response":0,"trial_type":"html-button-response","trial_index":1,"time_elapsed":24412,"internal_node_id":"0.0-1.0","params":{"nStudents":24,"maxFlips":30,"completionMinutes":45,"basePay":8,"maxBonus":9,"perTrialBonus":0.5,"perTrialBonusThreshold":0.05,"exampleCost":0.01},"classroomParams":{"A":{"a":1,"b":4},"B":{"a":4,"b":1},"C":{"a":2,"b":8},"D":{"a":8,"b":2}},"conditions":["nonSeqFull","nonSeqPartial","seqNoFeedback","seqFeedback"],"classroomPairings":[["A","B"],["C","D"]],"coinWeights":[0.2,0.5,0.8],"subjectId":"AMLWYWZOMONLB","assignmentId":"3LEP4MGT3HM6XYLF87P2OG5C9WCBDN","hitId":"3SD15I2WD2G0NA4TSPXGB81L5S7630","url":"https://gershmanlab.com/experiments/alicia/teaching/experiment/?hitId=3SD15I2WD2G0NA4TSPXGB81L5S7630&workerId=AMLWYWZOMONLB&assignmentId=3LEP4MGT3HM6XYLF87P2OG5C9WCBDN&a=T4EL9&tp_a=T4EL9&b=3LEP4MGT3HM6XYLF87P2OG5C9WCBDN&tp_b=3LEP4MGT3HM6XYLF87P2OG5C9WCBDN&c=365799&tp_c=365799"},{"view_history":[{"page_index":0,"viewing_time":4520},{"page_index":1,"viewing_time":2383},{"page_index":2,"viewing_time":27953},{"page_index":3,"viewing_time":26099},{"page_index":4,"viewing_time":14918},{"page_index":5,"viewing_time":38275},{"page_index":6,"viewing_time":78100}],"rt":192248,"trial_type":"instructions","trial_index":2,"time_elapsed":216661,"internal_node_id":"0.0-2.0-0.0","params":{"nStudents":24,"maxFlips":30,"completionMinutes":45,"basePay":8,"maxBonus":9,"perTrialBonus":0.5,"perTrialBonusThreshold":0.05,"exampleCost":0.01},"classroomParams":{"A":{"a":1,"b":4},"B":{"a":4,"b":1},"C":{"a":2,"b":8},"D":{"a":8,"b":2}},"conditions":["nonSeqFull","nonSeqPartial","seqNoFeedback","seqFeedback"],"classroomPairings":[["A","B"],["C","D"]],"coinWeights":[0.2,0.5,0.8],"subjectId":"AMLWYWZOMONLB","assignmentId":"3LEP4MGT3HM6XYLF87P2OG5C9WCBDN","hitId":"3SD15I2WD2G0NA4TSPXGB81L5S7630","url":"https://gershmanlab.com/experiments/alicia/teaching/experiment/?hitId=3SD15I2WD2G0NA4TSPXGB81L5S7630&workerId=AMLWYWZOMONLB&assignmentId=3LEP4MGT3HM6XYLF87P2OG5C9WCBDN&a=T4EL9&tp_a=T4EL9&b=3LEP4MGT3HM6XYLF87P2OG5C9WCBDN&tp_b=3LEP4MGT3HM6XYLF87P2OG5C9WCBDN&c=365799&tp_c=365799"},{"rt":74527,"response":{"Q0":"Students in different classrooms will have seen a different number of heads and tails before seeing the examples you select for them.","Q1":"By <b>considering the student's classroom information</b> so that I can teach efficiently and accurately/helpfully at the same time (because each example I give to the student costs money!).","Q2":"The coin lands heads 90% of the time.","Q3":"No, I will teach a <b>new</b> student each time.","Q4":"The students are also on the same alien planet as you, where coins can be unfair.","Q5":"Based on both guesses."},"question_order":[1,4,0,2,3,5],"trial_type":"survey-multi-choice","trial_index":3,"time_elapsed":291191,"internal_node_id":"0.0-2.0-1.0","params":{"nStudents":24,"maxFlips":30,"completionMinutes":45,"basePay":8,"maxBonus":9,"perTrialBonus":0.5,"perTrialBonusThreshold":0.05,"exampleCost":0.01},"classroomParams":{"A":{"a":1,"b":4},"B":{"a":4,"b":1},"C":{"a":2,"b":8},"D":{"a":8,"b":2}},"conditions":["nonSeqFull","nonSeqPartial","seqNoFeedback","seqFeedback"],"classroomPairings":[["A","B"],["C","D"]],"coinWeights":[0.2,0.5,0.8],"subjectId":"AMLWYWZOMONLB","assignmentId":"3LEP4MGT3HM6XYLF87P2OG5C9WCBDN","hitId":"3SD15I2WD2G0NA4TSPXGB81L5S7630","url":"https://gershmanlab.com/experiments/alicia/teaching/experiment/?hitId=3SD15I2WD2G0NA4TSPXGB81L5S7630&workerId=AMLWYWZOMONLB&assignmentId=3LEP4MGT3HM6XYLF87P2OG5C9WCBDN&a=T4EL9&tp_a=T4EL9&b=3LEP4MGT3HM6XYLF87P2OG5C9WCBDN&tp_b=3LEP4MGT3HM6XYLF87P2OG5C9WCBDN&c=365799&tp_c=365799","pass":false},{"rt":1874,"stimulus":"Oops, you have missed question(s) on the comprehension check! We'll show you the instructions again.","response":0,"trial_type":"html-button-response","trial_index":4,"time_elapsed":293071,"internal_node_id":"0.0-2.0-2.0-0.0","params":{"nStudents":24,"maxFlips":30,"completionMinutes":45,"basePay":8,"maxBonus":9,"perTrialBonus":0.5,"perTrialBonusThreshold":0.05,"exampleCost":0.01},"classroomParams":{"A":{"a":1,"b":4},"B":{"a":4,"b":1},"C":{"a":2,"b":8},"D":{"a":8,"b":2}},"conditions":["nonSeqFull","nonSeqPartial","seqNoFeedback","seqFeedback"],"classroomPairings":[["A","B"],["C","D"]],"coinWeights":[0.2,0.5,0.8],"subjectId":"AMLWYWZOMONLB","assignmentId":"3LEP4MGT3HM6XYLF87P2OG5C9WCBDN","hitId":"3SD15I2WD2G0NA4TSPXGB81L5S7630","url":"https://gershmanlab.com/experiments/alicia/teaching/experiment/?hitId=3SD15I2WD2G0NA4TSPXGB81L5S7630&workerId=AMLWYWZOMONLB&assignmentId=3LEP4MGT3HM6XYLF87P2OG5C9WCBDN&a=T4EL9&tp_a=T4EL9&b=3LEP4MGT3HM6XYLF87P2OG5C9WCBDN&tp_b=3LEP4MGT3HM6XYLF87P2OG5C9WCBDN&c=365799&tp_c=365799"},{"view_history":[{"page_index":0,"viewing_time":1787},{"page_index":1,"viewing_time":368},{"page_index":2,"viewing_time":1046},{"page_index":3,"viewing_time":596},{"page_index":4,"viewing_time":1280},{"page_index":5,"viewing_time":7151},{"page_index":6,"viewing_time":1313}],"rt":13542,"trial_type":"instructions","trial_index":5,"time_elapsed":306613,"internal_node_id":"0.0-2.1-0.1","params":{"nStudents":24,"maxFlips":30,"completionMinutes":45,"basePay":8,"maxBonus":9,"perTrialBonus":0.5,"perTrialBonusThreshold":0.05,"exampleCost":0.01},"classroomParams":{"A":{"a":1,"b":4},"B":{"a":4,"b":1},"C":{"a":2,"b":8},"D":{"a":8,"b":2}},"conditions":["nonSeqFull","nonSeqPartial","seqNoFeedback","seqFeedback"],"classroomPairings":[["A","B"],["C","D"]],"coinWeights":[0.2,0.5,0.8],"subjectId":"AMLWYWZOMONLB","assignmentId":"3LEP4MGT3HM6XYLF87P2OG5C9WCBDN","hitId":"3SD15I2WD2G0NA4TSPXGB81L5S7630","url":"https://gershmanlab.com/experiments/alicia/teaching/experiment/?hitId=3SD15I2WD2G0NA4TSPXGB81L5S7630&workerId=AMLWYWZOMONLB&assignmentId=3LEP4MGT3HM6XYLF87P2OG5C9WCBDN&a=T4EL9&tp_a=T4EL9&b=3LEP4MGT3HM6XYLF87P2OG5C9WCBDN&tp_b=3LEP4MGT3HM6XYLF87P2OG5C9WCBDN&c=365799&tp_c=365799"},{"rt":81319,"response":{"Q0":"Students in different classrooms will have seen a different number of heads and tails before seeing the examples you select for them.","Q1":"By <b>considering the student's classroom information</b> so that I can teach efficiently and accurately/helpfully at the same time (because each example I give to the student costs money!).","Q2":"The coin lands heads 90% of the time.","Q3":"No, I will teach a <b>new</b> student each time.","Q4":"The students are also on the same alien planet as you, where coins can be unfair.","Q5":"Based on the student's second (and final) guess."},"question_order":[3,4,1,2,5,0],"trial_type":"survey-multi-choice","trial_index":6,"time_elapsed":387934,"internal_node_id":"0.0-2.1-1.1","params":{"nStudents":24,"maxFlips":30,"completionMinutes":45,"basePay":8,"maxBonus":9,"perTrialBonus":0.5,"perTrialBonusThreshold":0.05,"exampleCost":0.01},"classroomParams":{"A":{"a":1,"b":4},"B":{"a":4,"b":1},"C":{"a":2,"b":8},"D":{"a":8,"b":2}},"conditions":["nonSeqFull","nonSeqPartial","seqNoFeedback","seqFeedback"],"classroomPairings":[["A","B"],["C","D"]],"coinWeights":[0.2,0.5,0.8],"subjectId":"AMLWYWZOMONLB","assignmentId":"3LEP4MGT3HM6XYLF87P2OG5C9WCBDN","hitId":"3SD15I2WD2G0NA4TSPXGB81L5S7630","url":"https://gershmanlab.com/experiments/alicia/teaching/experiment/?hitId=3SD15I2WD2G0NA4TSPXGB81L5S7630&workerId=AMLWYWZOMONLB&assignmentId=3LEP4MGT3HM6XYLF87P2OG5C9WCBDN&a=T4EL9&tp_a=T4EL9&b=3LEP4MGT3HM6XYLF87P2OG5C9WCBDN&tp_b=3LEP4MGT3HM6XYLF87P2OG5C9WCBDN&c=365799&tp_c=365799","pass":true},{"rt":null,"stimulus":"<div style=\"font-size:30px;\">Congrats on passing the comprehension quiz! The experiment will begin in a few seconds.</div>","response":null,"trial_type":"html-keyboard-response","trial_index":7,"time_elapsed":390943,"internal_node_id":"0.0-3.0","params":{"nStudents":24,"maxFlips":30,"completionMinutes":45,"basePay":8,"maxBonus":9,"perTrialBonus":0.5,"perTrialBonusThreshold":0.05,"exampleCost":0.01},"classroomParams":{"A":{"a":1,"b":4},"B":{"a":4,"b":1},"C":{"a":2,"b":8},"D":{"a":8,"b":2}},"conditions":["nonSeqFull","nonSeqPartial","seqNoFeedback","seqFeedback"],"classroomPairings":[["A","B"],["C","D"]],"coinWeights":[0.2,0.5,0.8],"subjectId":"AMLWYWZOMONLB","assignmentId":"3LEP4MGT3HM6XYLF87P2OG5C9WCBDN","hitId":"3SD15I2WD2G0NA4TSPXGB81L5S7630","url":"https://gershmanlab.com/experiments/alicia/teaching/experiment/?hitId=3SD15I2WD2G0NA4TSPXGB81L5S7630&workerId=AMLWYWZOMONLB&assignmentId=3LEP4MGT3HM6XYLF87P2OG5C9WCBDN&a=T4EL9&tp_a=T4EL9&b=3LEP4MGT3HM6XYLF87P2OG5C9WCBDN&tp_b=3LEP4MGT3HM6XYLF87P2OG5C9WCBDN&c=365799&tp_c=365799"},{"rt":null,"stimulus":"<div style=\"font-size:50px;\">First student</div>","response":null,"trial_type":"html-keyboard-response","trial_index":8,"time_elapsed":393946,"internal_node_id":"0.0-4.0","params":{"nStudents":24,"maxFlips":30,"completionMinutes":45,"basePay":8,"maxBonus":9,"perTrialBonus":0.5,"perTrialBonusThreshold":0.05,"exampleCost":0.01},"classroomParams":{"A":{"a":1,"b":4},"B":{"a":4,"b":1},"C":{"a":2,"b":8},"D":{"a":8,"b":2}},"conditions":["nonSeqFull","nonSeqPartial","seqNoFeedback","seqFeedback"],"classroomPairings":[["A","B"],["C","D"]],"coinWeights":[0.2,0.5,0.8],"subjectId":"AMLWYWZOMONLB","assignmentId":"3LEP4MGT3HM6XYLF87P2OG5C9WCBDN","hitId":"3SD15I2WD2G0NA4TSPXGB81L5S7630","url":"https://gershmanlab.com/experiments/alicia/teaching/experiment/?hitId=3SD15I2WD2G0NA4TSPXGB81L5S7630&workerId=AMLWYWZOMONLB&assignmentId=3LEP4MGT3HM6XYLF87P2OG5C9WCBDN&a=T4EL9&tp_a=T4EL9&b=3LEP4MGT3HM6XYLF87P2OG5C9WCBDN&tp_b=3LEP4MGT3HM6XYLF87P2OG5C9WCBDN&c=365799&tp_c=365799"},{"rt":10284,"stimulus":"\n            <h4 style=\"color:Orange;\">Student 1</h4>\n            <h2>The weight of your coin is <b style=\"color:Tomato;\">0.2</b>.</h2>\n            <p>In this block, you will be giving <b>one</b> set of examples to Student 1.</p>\n                <p>You will receive feedback at the end of the block.</p>\n            <p></p>","response":0,"trial_type":"html-button-response","trial_index":9,"time_elapsed":404231,"internal_node_id":"0.0-5.0","params":{"nStudents":24,"maxFlips":30,"completionMinutes":45,"basePay":8,"maxBonus":9,"perTrialBonus":0.5,"perTrialBonusThreshold":0.05,"exampleCost":0.01},"classroomParams":{"A":{"a":1,"b":4},"B":{"a":4,"b":1},"C":{"a":2,"b":8},"D":{"a":8,"b":2}},"conditions":["nonSeqFull","nonSeqPartial","seqNoFeedback","seqFeedback"],"classroomPairings":[["A","B"],["C","D"]],"coinWeights":[0.2,0.5,0.8],"subjectId":"AMLWYWZOMONLB","assignmentId":"3LEP4MGT3HM6XYLF87P2OG5C9WCBDN","hitId":"3SD15I2WD2G0NA4TSPXGB81L5S7630","url":"https://gershmanlab.com/experiments/alicia/teaching/experiment/?hitId=3SD15I2WD2G0NA4TSPXGB81L5S7630&workerId=AMLWYWZOMONLB&assignmentId=3LEP4MGT3HM6XYLF87P2OG5C9WCBDN&a=T4EL9&tp_a=T4EL9&b=3LEP4MGT3HM6XYLF87P2OG5C9WCBDN&tp_b=3LEP4MGT3HM6XYLF87P2OG5C9WCBDN&c=365799&tp_c=365799"},{"rt":116941,"response":{"heads":"2","tails":"11"},"type":"response","condition":"nonSeqPartial","trueTheta":0.2,"classrooms":["A","B"],"studentTrueClassroom":"A","exampleSet":"first","trial_type":"survey-html-form","trial_index":10,"time_elapsed":521174,"internal_node_id":"0.0-6.0-0.0","params":{"nStudents":24,"maxFlips":30,"completionMinutes":45,"basePay":8,"maxBonus":9,"perTrialBonus":0.5,"perTrialBonusThreshold":0.05,"exampleCost":0.01},"classroomParams":{"A":{"a":1,"b":4},"B":{"a":4,"b":1},"C":{"a":2,"b":8},"D":{"a":8,"b":2}},"conditions":["nonSeqFull","nonSeqPartial","seqNoFeedback","seqFeedback"],"classroomPairings":[["A","B"],["C","D"]],"coinWeights":[0.2,0.5,0.8],"subjectId":"AMLWYWZOMONLB","assignmentId":"3LEP4MGT3HM6XYLF87P2OG5C9WCBDN","hitId":"3SD15I2WD2G0NA4TSPXGB81L5S7630","url":"https://gershmanlab.com/experiments/alicia/teaching/experiment/?hitId=3SD15I2WD2G0NA4TSPXGB81L5S7630&workerId=AMLWYWZOMONLB&assignmentId=3LEP4MGT3HM6XYLF87P2OG5C9WCBDN&a=T4EL9&tp_a=T4EL9&b=3LEP4MGT3HM6XYLF87P2OG5C9WCBDN&tp_b=3LEP4MGT3HM6XYLF87P2OG5C9WCBDN&c=365799&tp_c=365799","heads":2,"tails":11,"studentIndex":0,"studentTrueHypers":{"a":1,"b":4},"studentGuess":0.16666666666666666,"delta":0.033333333333333354,"totalExamples":13,"bonus":0.37,"bonusSoFar":0.37},{"rt":null,"stimulus":"Sending examples to student... ","response":null,"trial_type":"html-keyboard-response","trial_index":11,"time_elapsed":523177,"internal_node_id":"0.0-7.0","params":{"nStudents":24,"maxFlips":30,"completionMinutes":45,"basePay":8,"maxBonus":9,"perTrialBonus":0.5,"perTrialBonusThreshold":0.05,"exampleCost":0.01},"classroomParams":{"A":{"a":1,"b":4},"B":{"a":4,"b":1},"C":{"a":2,"b":8},"D":{"a":8,"b":2}},"conditions":["nonSeqFull","nonSeqPartial","seqNoFeedback","seqFeedback"],"classroomPairings":[["A","B"],["C","D"]],"coinWeights":[0.2,0.5,0.8],"subjectId":"AMLWYWZOMONLB","assignmentId":"3LEP4MGT3HM6XYLF87P2OG5C9WCBDN","hitId":"3SD15I2WD2G0NA4TSPXGB81L5S7630","url":"https://gershmanlab.com/experiments/alicia/teaching/experiment/?hitId=3SD15I2WD2G0NA4TSPXGB81L5S7630&workerId=AMLWYWZOMONLB&assignmentId=3LEP4MGT3HM6XYLF87P2OG5C9WCBDN&a=T4EL9&tp_a=T4EL9&b=3LEP4MGT3HM6XYLF87P2OG5C9WCBDN&tp_b=3LEP4MGT3HM6XYLF87P2OG5C9WCBDN&c=365799&tp_c=365799"},{"rt":null,"stimulus":"Examples sent to student! Waiting for student...","response":null,"trial_type":"html-keyboard-response","trial_index":12,"time_elapsed":528178,"internal_node_id":"0.0-8.0","params":{"nStudents":24,"maxFlips":30,"completionMinutes":45,"basePay":8,"maxBonus":9,"perTrialBonus":0.5,"perTrialBonusThreshold":0.05,"exampleCost":0.01},"classroomParams":{"A":{"a":1,"b":4},"B":{"a":4,"b":1},"C":{"a":2,"b":8},"D":{"a":8,"b":2}},"conditions":["nonSeqFull","nonSeqPartial","seqNoFeedback","seqFeedback"],"classroomPairings":[["A","B"],["C","D"]],"coinWeights":[0.2,0.5,0.8],"subjectId":"AMLWYWZOMONLB","assignmentId":"3LEP4MGT3HM6XYLF87P2OG5C9WCBDN","hitId":"3SD15I2WD2G0NA4TSPXGB81L5S7630","url":"https://gershmanlab.com/experiments/alicia/teaching/experiment/?hitId=3SD15I2WD2G0NA4TSPXGB81L5S7630&workerId=AMLWYWZOMONLB&assignmentId=3LEP4MGT3HM6XYLF87P2OG5C9WCBDN&a=T4EL9&tp_a=T4EL9&b=3LEP4MGT3HM6XYLF87P2OG5C9WCBDN&tp_b=3LEP4MGT3HM6XYLF87P2OG5C9WCBDN&c=365799&tp_c=365799"},{"rt":9368,"stimulus":"\n                <p>Student's guess for coin weight: <b style=\"color:Tomato;\">0.17</b></p>\n                <p>You received a bonus of <b>$0.37</b>. Total bonus so far: <b>$0.37</b></b></p>\n                <p></p>\n                <p>Press any key to continue.</p>\n                ","response":"enter","trial_type":"html-keyboard-response","trial_index":13,"time_elapsed":537547,"internal_node_id":"0.0-9.0","params":{"nStudents":24,"maxFlips":30,"completionMinutes":45,"basePay":8,"maxBonus":9,"perTrialBonus":0.5,"perTrialBonusThreshold":0.05,"exampleCost":0.01},"classroomParams":{"A":{"a":1,"b":4},"B":{"a":4,"b":1},"C":{"a":2,"b":8},"D":{"a":8,"b":2}},"conditions":["nonSeqFull","nonSeqPartial","seqNoFeedback","seqFeedback"],"classroomPairings":[["A","B"],["C","D"]],"coinWeights":[0.2,0.5,0.8],"subjectId":"AMLWYWZOMONLB","assignmentId":"3LEP4MGT3HM6XYLF87P2OG5C9WCBDN","hitId":"3SD15I2WD2G0NA4TSPXGB81L5S7630","url":"https://gershmanlab.com/experiments/alicia/teaching/experiment/?hitId=3SD15I2WD2G0NA4TSPXGB81L5S7630&workerId=AMLWYWZOMONLB&assignmentId=3LEP4MGT3HM6XYLF87P2OG5C9WCBDN&a=T4EL9&tp_a=T4EL9&b=3LEP4MGT3HM6XYLF87P2OG5C9WCBDN&tp_b=3LEP4MGT3HM6XYLF87P2OG5C9WCBDN&c=365799&tp_c=365799"},{"rt":null,"stimulus":"<div style=\"font-size:60px;\">Next student</div>","response":null,"trial_type":"html-keyboard-response","trial_index":14,"time_elapsed":539549,"internal_node_id":"0.0-10.0-0.0","params":{"nStudents":24,"maxFlips":30,"completionMinutes":45,"basePay":8,"maxBonus":9,"perTrialBonus":0.5,"perTrialBonusThreshold":0.05,"exampleCost":0.01},"classroomParams":{"A":{"a":1,"b":4},"B":{"a":4,"b":1},"C":{"a":2,"b":8},"D":{"a":8,"b":2}},"conditions":["nonSeqFull","nonSeqPartial","seqNoFeedback","seqFeedback"],"classroomPairings":[["A","B"],["C","D"]],"coinWeights":[0.2,0.5,0.8],"subjectId":"AMLWYWZOMONLB","assignmentId":"3LEP4MGT3HM6XYLF87P2OG5C9WCBDN","hitId":"3SD15I2WD2G0NA4TSPXGB81L5S7630","url":"https://gershmanlab.com/experiments/alicia/teaching/experiment/?hitId=3SD15I2WD2G0NA4TSPXGB81L5S7630&workerId=AMLWYWZOMONLB&assignmentId=3LEP4MGT3HM6XYLF87P2OG5C9WCBDN&a=T4EL9&tp_a=T4EL9&b=3LEP4MGT3HM6XYLF87P2OG5C9WCBDN&tp_b=3LEP4MGT3HM6XYLF87P2OG5C9WCBDN&c=365799&tp_c=365799"},{"rt":7224,"stimulus":"\n            <h4 style=\"color:Orange;\">Student 2</h4>\n            <h2>The weight of your coin is <b style=\"color:Tomato;\">0.5</b>.</h2>\n            <p>In this block, you will be giving <b>two</b> sets of examples to Student 2.</p>\n                <p>You will receive feedback at the end of the block.</p>\n            <p></p>","response":0,"trial_type":"html-button-response","trial_index":15,"time_elapsed":546774,"internal_node_id":"0.0-11.0","params":{"nStudents":24,"maxFlips":30,"completionMinutes":45,"basePay":8,"maxBonus":9,"perTrialBonus":0.5,"perTrialBonusThreshold":0.05,"exampleCost":0.01},"classroomParams":{"A":{"a":1,"b":4},"B":{"a":4,"b":1},"C":{"a":2,"b":8},"D":{"a":8,"b":2}},"conditions":["nonSeqFull","nonSeqPartial","seqNoFeedback","seqFeedback"],"classroomPairings":[["A","B"],["C","D"]],"coinWeights":[0.2,0.5,0.8],"subjectId":"AMLWYWZOMONLB","assignmentId":"3LEP4MGT3HM6XYLF87P2OG5C9WCBDN","hitId":"3SD15I2WD2G0NA4TSPXGB81L5S7630","url":"https://gershmanlab.com/experiments/alicia/teaching/experiment/?hitId=3SD15I2WD2G0NA4TSPXGB81L5S7630&workerId=AMLWYWZOMONLB&assignmentId=3LEP4MGT3HM6XYLF87P2OG5C9WCBDN&a=T4EL9&tp_a=T4EL9&b=3LEP4MGT3HM6XYLF87P2OG5C9WCBDN&tp_b=3LEP4MGT3HM6XYLF87P2OG5C9WCBDN&c=365799&tp_c=365799"},{"rt":81111,"response":{"heads":"0","tails":"7"},"type":"response","condition":"seqNoFeedback","trueTheta":0.5,"classrooms":["A","B"],"studentTrueClassroom":"A","exampleSet":"first","trial_type":"survey-html-form","trial_index":16,"time_elapsed":627887,"internal_node_id":"0.0-12.0-0.0","params":{"nStudents":24,"maxFlips":30,"completionMinutes":45,"basePay":8,"maxBonus":9,"perTrialBonus":0.5,"perTrialBonusThreshold":0.05,"exampleCost":0.01},"classroomParams":{"A":{"a":1,"b":4},"B":{"a":4,"b":1},"C":{"a":2,"b":8},"D":{"a":8,"b":2}},"conditions":["nonSeqFull","nonSeqPartial","seqNoFeedback","seqFeedback"],"classroomPairings":[["A","B"],["C","D"]],"coinWeights":[0.2,0.5,0.8],"subjectId":"AMLWYWZOMONLB","assignmentId":"3LEP4MGT3HM6XYLF87P2OG5C9WCBDN","hitId":"3SD15I2WD2G0NA4TSPXGB81L5S7630","url":"https://gershmanlab.com/experiments/alicia/teaching/experiment/?hitId=3SD15I2WD2G0NA4TSPXGB81L5S7630&workerId=AMLWYWZOMONLB&assignmentId=3LEP4MGT3HM6XYLF87P2OG5C9WCBDN&a=T4EL9&tp_a=T4EL9&b=3LEP4MGT3HM6XYLF87P2OG5C9WCBDN&tp_b=3LEP4MGT3HM6XYLF87P2OG5C9WCBDN&c=365799&tp_c=365799","heads":0,"tails":7,"studentIndex":1,"studentTrueHypers":{"a":1,"b":4},"studentGuess":0.08333333333333333,"delta":0.4166666666666667,"totalExamples":7,"bonusSoFar":0.37},{"rt":null,"stimulus":"Sending examples to student... ","response":null,"trial_type":"html-keyboard-response","trial_index":17,"time_elapsed":629890,"internal_node_id":"0.0-13.0","params":{"nStudents":24,"maxFlips":30,"completionMinutes":45,"basePay":8,"maxBonus":9,"perTrialBonus":0.5,"perTrialBonusThreshold":0.05,"exampleCost":0.01},"classroomParams":{"A":{"a":1,"b":4},"B":{"a":4,"b":1},"C":{"a":2,"b":8},"D":{"a":8,"b":2}},"conditions":["nonSeqFull","nonSeqPartial","seqNoFeedback","seqFeedback"],"classroomPairings":[["A","B"],["C","D"]],"coinWeights":[0.2,0.5,0.8],"subjectId":"AMLWYWZOMONLB","assignmentId":"3LEP4MGT3HM6XYLF87P2OG5C9WCBDN","hitId":"3SD15I2WD2G0NA4TSPXGB81L5S7630","url":"https://gershmanlab.com/experiments/alicia/teaching/experiment/?hitId=3SD15I2WD2G0NA4TSPXGB81L5S7630&workerId=AMLWYWZOMONLB&assignmentId=3LEP4MGT3HM6XYLF87P2OG5C9WCBDN&a=T4EL9&tp_a=T4EL9&b=3LEP4MGT3HM6XYLF87P2OG5C9WCBDN&tp_b=3LEP4MGT3HM6XYLF87P2OG5C9WCBDN&c=365799&tp_c=365799"},{"rt":null,"stimulus":"Examples sent to student! Waiting for student...","response":null,"trial_type":"html-keyboard-response","trial_index":18,"time_elapsed":634893,"internal_node_id":"0.0-14.0","params":{"nStudents":24,"maxFlips":30,"completionMinutes":45,"basePay":8,"maxBonus":9,"perTrialBonus":0.5,"perTrialBonusThreshold":0.05,"exampleCost":0.01},"classroomParams":{"A":{"a":1,"b":4},"B":{"a":4,"b":1},"C":{"a":2,"b":8},"D":{"a":8,"b":2}},"conditions":["nonSeqFull","nonSeqPartial","seqNoFeedback","seqFeedback"],"classroomPairings":[["A","B"],["C","D"]],"coinWeights":[0.2,0.5,0.8],"subjectId":"AMLWYWZOMONLB","assignmentId":"3LEP4MGT3HM6XYLF87P2OG5C9WCBDN","hitId":"3SD15I2WD2G0NA4TSPXGB81L5S7630","url":"https://gershmanlab.com/experiments/alicia/teaching/experiment/?hitId=3SD15I2WD2G0NA4TSPXGB81L5S7630&workerId=AMLWYWZOMONLB&assignmentId=3LEP4MGT3HM6XYLF87P2OG5C9WCBDN&a=T4EL9&tp_a=T4EL9&b=3LEP4MGT3HM6XYLF87P2OG5C9WCBDN&tp_b=3LEP4MGT3HM6XYLF87P2OG5C9WCBDN&c=365799&tp_c=365799"},{"rt":44889,"response":{"heads":"4","tails":"0"},"type":"response","condition":"seqNoFeedback","trueTheta":0.5,"classrooms":["A","B"],"studentTrueClassroom":"A","exampleSet":"second","trial_type":"survey-html-form","trial_index":19,"time_elapsed":679784,"internal_node_id":"0.0-15.0-0.0","params":{"nStudents":24,"maxFlips":30,"completionMinutes":45,"basePay":8,"maxBonus":9,"perTrialBonus":0.5,"perTrialBonusThreshold":0.05,"exampleCost":0.01},"classroomParams":{"A":{"a":1,"b":4},"B":{"a":4,"b":1},"C":{"a":2,"b":8},"D":{"a":8,"b":2}},"conditions":["nonSeqFull","nonSeqPartial","seqNoFeedback","seqFeedback"],"classroomPairings":[["A","B"],["C","D"]],"coinWeights":[0.2,0.5,0.8],"subjectId":"AMLWYWZOMONLB","assignmentId":"3LEP4MGT3HM6XYLF87P2OG5C9WCBDN","hitId":"3SD15I2WD2G0NA4TSPXGB81L5S7630","url":"https://gershmanlab.com/experiments/alicia/teaching/experiment/?hitId=3SD15I2WD2G0NA4TSPXGB81L5S7630&workerId=AMLWYWZOMONLB&assignmentId=3LEP4MGT3HM6XYLF87P2OG5C9WCBDN&a=T4EL9&tp_a=T4EL9&b=3LEP4MGT3HM6XYLF87P2OG5C9WCBDN&tp_b=3LEP4MGT3HM6XYLF87P2OG5C9WCBDN&c=365799&tp_c=365799","firstResponseHeads":0,"firstResponseTails":7,"secondResponseHeads":4,"secondResponseTails":0,"totalHeads":4,"totalTails":7,"studentIndex":1,"studentTrueHypers":{"a":1,"b":4},"studentGuess":0.3125,"delta":0.1875,"bonus":0,"bonusSoFar":0.37,"totalExamples":11},{"rt":null,"stimulus":"Sending examples to student... ","response":null,"trial_type":"html-keyboard-response","trial_index":20,"time_elapsed":681286,"internal_node_id":"0.0-16.0","params":{"nStudents":24,"maxFlips":30,"completionMinutes":45,"basePay":8,"maxBonus":9,"perTrialBonus":0.5,"perTrialBonusThreshold":0.05,"exampleCost":0.01},"classroomParams":{"A":{"a":1,"b":4},"B":{"a":4,"b":1},"C":{"a":2,"b":8},"D":{"a":8,"b":2}},"conditions":["nonSeqFull","nonSeqPartial","seqNoFeedback","seqFeedback"],"classroomPairings":[["A","B"],["C","D"]],"coinWeights":[0.2,0.5,0.8],"subjectId":"AMLWYWZOMONLB","assignmentId":"3LEP4MGT3HM6XYLF87P2OG5C9WCBDN","hitId":"3SD15I2WD2G0NA4TSPXGB81L5S7630","url":"https://gershmanlab.com/experiments/alicia/teaching/experiment/?hitId=3SD15I2WD2G0NA4TSPXGB81L5S7630&workerId=AMLWYWZOMONLB&assignmentId=3LEP4MGT3HM6XYLF87P2OG5C9WCBDN&a=T4EL9&tp_a=T4EL9&b=3LEP4MGT3HM6XYLF87P2OG5C9WCBDN&tp_b=3LEP4MGT3HM6XYLF87P2OG5C9WCBDN&c=365799&tp_c=365799"},{"rt":null,"stimulus":"Examples sent to student! Waiting for student...","response":null,"trial_type":"html-keyboard-response","trial_index":21,"time_elapsed":686287,"internal_node_id":"0.0-17.0","params":{"nStudents":24,"maxFlips":30,"completionMinutes":45,"basePay":8,"maxBonus":9,"perTrialBonus":0.5,"perTrialBonusThreshold":0.05,"exampleCost":0.01},"classroomParams":{"A":{"a":1,"b":4},"B":{"a":4,"b":1},"C":{"a":2,"b":8},"D":{"a":8,"b":2}},"conditions":["nonSeqFull","nonSeqPartial","seqNoFeedback","seqFeedback"],"classroomPairings":[["A","B"],["C","D"]],"coinWeights":[0.2,0.5,0.8],"subjectId":"AMLWYWZOMONLB","assignmentId":"3LEP4MGT3HM6XYLF87P2OG5C9WCBDN","hitId":"3SD15I2WD2G0NA4TSPXGB81L5S7630","url":"https://gershmanlab.com/experiments/alicia/teaching/experiment/?hitId=3SD15I2WD2G0NA4TSPXGB81L5S7630&workerId=AMLWYWZOMONLB&assignmentId=3LEP4MGT3HM6XYLF87P2OG5C9WCBDN&a=T4EL9&tp_a=T4EL9&b=3LEP4MGT3HM6XYLF87P2OG5C9WCBDN&tp_b=3LEP4MGT3HM6XYLF87P2OG5C9WCBDN&c=365799&tp_c=365799"},{"rt":4538,"stimulus":"\n                <p>Student 2's first guess for coin weight: <b style=\"color:Tomato\";>0.08</b></p>\n                <p>Student 2's second guess for coin weight: <b style=\"color:Tomato\";>0.31</b></p>\n                <p>You received a bonus of <b>$0.00</b> based on the student's second guess.</p>\n                <p>Total bonus so far: <b>$0.37</b></p>\n                <p>Press any key to continue.</p>\n                ","response":"enter","trial_type":"html-keyboard-response","trial_index":22,"time_elapsed":690828,"internal_node_id":"0.0-18.0","params":{"nStudents":24,"maxFlips":30,"completionMinutes":45,"basePay":8,"maxBonus":9,"perTrialBonus":0.5,"perTrialBonusThreshold":0.05,"exampleCost":0.01},"classroomParams":{"A":{"a":1,"b":4},"B":{"a":4,"b":1},"C":{"a":2,"b":8},"D":{"a":8,"b":2}},"conditions":["nonSeqFull","nonSeqPartial","seqNoFeedback","seqFeedback"],"classroomPairings":[["A","B"],["C","D"]],"coinWeights":[0.2,0.5,0.8],"subjectId":"AMLWYWZOMONLB","assignmentId":"3LEP4MGT3HM6XYLF87P2OG5C9WCBDN","hitId":"3SD15I2WD2G0NA4TSPXGB81L5S7630","url":"https://gershmanlab.com/experiments/alicia/teaching/experiment/?hitId=3SD15I2WD2G0NA4TSPXGB81L5S7630&workerId=AMLWYWZOMONLB&assignmentId=3LEP4MGT3HM6XYLF87P2OG5C9WCBDN&a=T4EL9&tp_a=T4EL9&b=3LEP4MGT3HM6XYLF87P2OG5C9WCBDN&tp_b=3LEP4MGT3HM6XYLF87P2OG5C9WCBDN&c=365799&tp_c=365799"},{"rt":null,"stimulus":"<div style=\"font-size:60px;\">Next student</div>","response":null,"trial_type":"html-keyboard-response","trial_index":23,"time_elapsed":693090,"internal_node_id":"0.0-19.0-0.0","params":{"nStudents":24,"maxFlips":30,"completionMinutes":45,"basePay":8,"maxBonus":9,"perTrialBonus":0.5,"perTrialBonusThreshold":0.05,"exampleCost":0.01},"classroomParams":{"A":{"a":1,"b":4},"B":{"a":4,"b":1},"C":{"a":2,"b":8},"D":{"a":8,"b":2}},"conditions":["nonSeqFull","nonSeqPartial","seqNoFeedback","seqFeedback"],"classroomPairings":[["A","B"],["C","D"]],"coinWeights":[0.2,0.5,0.8],"subjectId":"AMLWYWZOMONLB","assignmentId":"3LEP4MGT3HM6XYLF87P2OG5C9WCBDN","hitId":"3SD15I2WD2G0NA4TSPXGB81L5S7630","url":"https://gershmanlab.com/experiments/alicia/teaching/experiment/?hitId=3SD15I2WD2G0NA4TSPXGB81L5S7630&workerId=AMLWYWZOMONLB&assignmentId=3LEP4MGT3HM6XYLF87P2OG5C9WCBDN&a=T4EL9&tp_a=T4EL9&b=3LEP4MGT3HM6XYLF87P2OG5C9WCBDN&tp_b=3LEP4MGT3HM6XYLF87P2OG5C9WCBDN&c=365799&tp_c=365799"},{"rt":9843,"stimulus":"\n            <h4 style=\"color:Orange;\">Student 3</h4>\n            <h2>The weight of your coin is <b style=\"color:Tomato;\">0.2</b>.</h2>\n            <p>In this block, you will be giving <b>two</b> sets of examples to Student 3.</p>\n                <p>You will see the student's guess after the first set of examples. You will also receive feedback at the end of the block.</p>\n            <p>To earn the highest bonus, you will have to <b>take into consideration the student's guess</b> when you choose your second set of examples.</p>","response":0,"trial_type":"html-button-response","trial_index":24,"time_elapsed":702934,"internal_node_id":"0.0-20.0","params":{"nStudents":24,"maxFlips":30,"completionMinutes":45,"basePay":8,"maxBonus":9,"perTrialBonus":0.5,"perTrialBonusThreshold":0.05,"exampleCost":0.01},"classroomParams":{"A":{"a":1,"b":4},"B":{"a":4,"b":1},"C":{"a":2,"b":8},"D":{"a":8,"b":2}},"conditions":["nonSeqFull","nonSeqPartial","seqNoFeedback","seqFeedback"],"classroomPairings":[["A","B"],["C","D"]],"coinWeights":[0.2,0.5,0.8],"subjectId":"AMLWYWZOMONLB","assignmentId":"3LEP4MGT3HM6XYLF87P2OG5C9WCBDN","hitId":"3SD15I2WD2G0NA4TSPXGB81L5S7630","url":"https://gershmanlab.com/experiments/alicia/teaching/experiment/?hitId=3SD15I2WD2G0NA4TSPXGB81L5S7630&workerId=AMLWYWZOMONLB&assignmentId=3LEP4MGT3HM6XYLF87P2OG5C9WCBDN&a=T4EL9&tp_a=T4EL9&b=3LEP4MGT3HM6XYLF87P2OG5C9WCBDN&tp_b=3LEP4MGT3HM6XYLF87P2OG5C9WCBDN&c=365799&tp_c=365799"},{"rt":53560,"response":{"heads":"0","tails":"0"},"type":"response","condition":"seqFeedback","trueTheta":0.2,"classrooms":["C","D"],"studentTrueClassroom":"C","exampleSet":"first","trial_type":"survey-html-form","trial_index":25,"time_elapsed":756495,"internal_node_id":"0.0-21.0-0.0","params":{"nStudents":24,"maxFlips":30,"completionMinutes":45,"basePay":8,"maxBonus":9,"perTrialBonus":0.5,"perTrialBonusThreshold":0.05,"exampleCost":0.01},"classroomParams":{"A":{"a":1,"b":4},"B":{"a":4,"b":1},"C":{"a":2,"b":8},"D":{"a":8,"b":2}},"conditions":["nonSeqFull","nonSeqPartial","seqNoFeedback","seqFeedback"],"classroomPairings":[["A","B"],["C","D"]],"coinWeights":[0.2,0.5,0.8],"subjectId":"AMLWYWZOMONLB","assignmentId":"3LEP4MGT3HM6XYLF87P2OG5C9WCBDN","hitId":"3SD15I2WD2G0NA4TSPXGB81L5S7630","url":"https://gershmanlab.com/experiments/alicia/teaching/experiment/?hitId=3SD15I2WD2G0NA4TSPXGB81L5S7630&workerId=AMLWYWZOMONLB&assignmentId=3LEP4MGT3HM6XYLF87P2OG5C9WCBDN&a=T4EL9&tp_a=T4EL9&b=3LEP4MGT3HM6XYLF87P2OG5C9WCBDN&tp_b=3LEP4MGT3HM6XYLF87P2OG5C9WCBDN&c=365799&tp_c=365799","heads":0,"tails":0,"studentIndex":2,"studentTrueHypers":{"a":2,"b":8},"studentGuess":0.2,"delta":0,"totalExamples":0,"bonusSoFar":0.37},{"rt":10742,"response":{"heads":"0","tails":"0"},"type":"response","condition":"seqFeedback","trueTheta":0.2,"classrooms":["C","D"],"studentTrueClassroom":"C","exampleSet":"first","trial_type":"survey-html-form","trial_index":26,"time_elapsed":767238,"internal_node_id":"0.0-21.1-0.1","params":{"nStudents":24,"maxFlips":30,"completionMinutes":45,"basePay":8,"maxBonus":9,"perTrialBonus":0.5,"perTrialBonusThreshold":0.05,"exampleCost":0.01},"classroomParams":{"A":{"a":1,"b":4},"B":{"a":4,"b":1},"C":{"a":2,"b":8},"D":{"a":8,"b":2}},"conditions":["nonSeqFull","nonSeqPartial","seqNoFeedback","seqFeedback"],"classroomPairings":[["A","B"],["C","D"]],"coinWeights":[0.2,0.5,0.8],"subjectId":"AMLWYWZOMONLB","assignmentId":"3LEP4MGT3HM6XYLF87P2OG5C9WCBDN","hitId":"3SD15I2WD2G0NA4TSPXGB81L5S7630","url":"https://gershmanlab.com/experiments/alicia/teaching/experiment/?hitId=3SD15I2WD2G0NA4TSPXGB81L5S7630&workerId=AMLWYWZOMONLB&assignmentId=3LEP4MGT3HM6XYLF87P2OG5C9WCBDN&a=T4EL9&tp_a=T4EL9&b=3LEP4MGT3HM6XYLF87P2OG5C9WCBDN&tp_b=3LEP4MGT3HM6XYLF87P2OG5C9WCBDN&c=365799&tp_c=365799","heads":0,"tails":0,"studentIndex":2,"studentTrueHypers":{"a":2,"b":8},"studentGuess":0.2,"delta":0,"totalExamples":0,"bonusSoFar":0.37},{"rt":12861,"response":{"heads":"1","tails":"4"},"type":"response","condition":"seqFeedback","trueTheta":0.2,"classrooms":["C","D"],"studentTrueClassroom":"C","exampleSet":"first","trial_type":"survey-html-form","trial_index":27,"time_elapsed":780101,"internal_node_id":"0.0-21.2-0.2","params":{"nStudents":24,"maxFlips":30,"completionMinutes":45,"basePay":8,"maxBonus":9,"perTrialBonus":0.5,"perTrialBonusThreshold":0.05,"exampleCost":0.01},"classroomParams":{"A":{"a":1,"b":4},"B":{"a":4,"b":1},"C":{"a":2,"b":8},"D":{"a":8,"b":2}},"conditions":["nonSeqFull","nonSeqPartial","seqNoFeedback","seqFeedback"],"classroomPairings":[["A","B"],["C","D"]],"coinWeights":[0.2,0.5,0.8],"subjectId":"AMLWYWZOMONLB","assignmentId":"3LEP4MGT3HM6XYLF87P2OG5C9WCBDN","hitId":"3SD15I2WD2G0NA4TSPXGB81L5S7630","url":"https://gershmanlab.com/experiments/alicia/teaching/experiment/?hitId=3SD15I2WD2G0NA4TSPXGB81L5S7630&workerId=AMLWYWZOMONLB&assignmentId=3LEP4MGT3HM6XYLF87P2OG5C9WCBDN&a=T4EL9&tp_a=T4EL9&b=3LEP4MGT3HM6XYLF87P2OG5C9WCBDN&tp_b=3LEP4MGT3HM6XYLF87P2OG5C9WCBDN&c=365799&tp_c=365799","heads":1,"tails":4,"studentIndex":2,"studentTrueHypers":{"a":2,"b":8},"studentGuess":0.2,"delta":0,"totalExamples":5,"bonusSoFar":0.37},{"rt":null,"stimulus":"Sending examples to student... ","response":null,"trial_type":"html-keyboard-response","trial_index":28,"time_elapsed":782112,"internal_node_id":"0.0-22.0","params":{"nStudents":24,"maxFlips":30,"completionMinutes":45,"basePay":8,"maxBonus":9,"perTrialBonus":0.5,"perTrialBonusThreshold":0.05,"exampleCost":0.01},"classroomParams":{"A":{"a":1,"b":4},"B":{"a":4,"b":1},"C":{"a":2,"b":8},"D":{"a":8,"b":2}},"conditions":["nonSeqFull","nonSeqPartial","seqNoFeedback","seqFeedback"],"classroomPairings":[["A","B"],["C","D"]],"coinWeights":[0.2,0.5,0.8],"subjectId":"AMLWYWZOMONLB","assignmentId":"3LEP4MGT3HM6XYLF87P2OG5C9WCBDN","hitId":"3SD15I2WD2G0NA4TSPXGB81L5S7630","url":"https://gershmanlab.com/experiments/alicia/teaching/experiment/?hitId=3SD15I2WD2G0NA4TSPXGB81L5S7630&workerId=AMLWYWZOMONLB&assignmentId=3LEP4MGT3HM6XYLF87P2OG5C9WCBDN&a=T4EL9&tp_a=T4EL9&b=3LEP4MGT3HM6XYLF87P2OG5C9WCBDN&tp_b=3LEP4MGT3HM6XYLF87P2OG5C9WCBDN&c=365799&tp_c=365799"},{"rt":null,"stimulus":"Examples sent to student! Waiting for student...","response":null,"trial_type":"html-keyboard-response","trial_index":29,"time_elapsed":788114,"internal_node_id":"0.0-23.0","params":{"nStudents":24,"maxFlips":30,"completionMinutes":45,"basePay":8,"maxBonus":9,"perTrialBonus":0.5,"perTrialBonusThreshold":0.05,"exampleCost":0.01},"classroomParams":{"A":{"a":1,"b":4},"B":{"a":4,"b":1},"C":{"a":2,"b":8},"D":{"a":8,"b":2}},"conditions":["nonSeqFull","nonSeqPartial","seqNoFeedback","seqFeedback"],"classroomPairings":[["A","B"],["C","D"]],"coinWeights":[0.2,0.5,0.8],"subjectId":"AMLWYWZOMONLB","assignmentId":"3LEP4MGT3HM6XYLF87P2OG5C9WCBDN","hitId":"3SD15I2WD2G0NA4TSPXGB81L5S7630","url":"https://gershmanlab.com/experiments/alicia/teaching/experiment/?hitId=3SD15I2WD2G0NA4TSPXGB81L5S7630&workerId=AMLWYWZOMONLB&assignmentId=3LEP4MGT3HM6XYLF87P2OG5C9WCBDN&a=T4EL9&tp_a=T4EL9&b=3LEP4MGT3HM6XYLF87P2OG5C9WCBDN&tp_b=3LEP4MGT3HM6XYLF87P2OG5C9WCBDN&c=365799&tp_c=365799"},{"rt":8764,"stimulus":"\n                <p>Student's guess for coin weight: <b style=\"color:Tomato;\">0.20</b></p>\n                <p></b></p>\n                <p>You will now send another set of examples to your student. <b>Remember to take your student's guess into consideration so that you can earn the highest bonus possible!</b> </p>\n                <p>Press any key to continue.</p>\n                ","response":" ","trial_type":"html-keyboard-response","trial_index":30,"time_elapsed":796879,"internal_node_id":"0.0-24.0","params":{"nStudents":24,"maxFlips":30,"completionMinutes":45,"basePay":8,"maxBonus":9,"perTrialBonus":0.5,"perTrialBonusThreshold":0.05,"exampleCost":0.01},"classroomParams":{"A":{"a":1,"b":4},"B":{"a":4,"b":1},"C":{"a":2,"b":8},"D":{"a":8,"b":2}},"conditions":["nonSeqFull","nonSeqPartial","seqNoFeedback","seqFeedback"],"classroomPairings":[["A","B"],["C","D"]],"coinWeights":[0.2,0.5,0.8],"subjectId":"AMLWYWZOMONLB","assignmentId":"3LEP4MGT3HM6XYLF87P2OG5C9WCBDN","hitId":"3SD15I2WD2G0NA4TSPXGB81L5S7630","url":"https://gershmanlab.com/experiments/alicia/teaching/experiment/?hitId=3SD15I2WD2G0NA4TSPXGB81L5S7630&workerId=AMLWYWZOMONLB&assignmentId=3LEP4MGT3HM6XYLF87P2OG5C9WCBDN&a=T4EL9&tp_a=T4EL9&b=3LEP4MGT3HM6XYLF87P2OG5C9WCBDN&tp_b=3LEP4MGT3HM6XYLF87P2OG5C9WCBDN&c=365799&tp_c=365799"},{"rt":7213,"response":{"heads":"1","tails":"4"},"type":"response","condition":"seqFeedback","trueTheta":0.2,"classrooms":["C","D"],"studentTrueClassroom":"C","exampleSet":"second","trial_type":"survey-html-form","trial_index":31,"time_elapsed":804093,"internal_node_id":"0.0-25.0-0.0","params":{"nStudents":24,"maxFlips":30,"completionMinutes":45,"basePay":8,"maxBonus":9,"perTrialBonus":0.5,"perTrialBonusThreshold":0.05,"exampleCost":0.01},"classroomParams":{"A":{"a":1,"b":4},"B":{"a":4,"b":1},"C":{"a":2,"b":8},"D":{"a":8,"b":2}},"conditions":["nonSeqFull","nonSeqPartial","seqNoFeedback","seqFeedback"],"classroomPairings":[["A","B"],["C","D"]],"coinWeights":[0.2,0.5,0.8],"subjectId":"AMLWYWZOMONLB","assignmentId":"3LEP4MGT3HM6XYLF87P2OG5C9WCBDN","hitId":"3SD15I2WD2G0NA4TSPXGB81L5S7630","url":"https://gershmanlab.com/experiments/alicia/teaching/experiment/?hitId=3SD15I2WD2G0NA4TSPXGB81L5S7630&workerId=AMLWYWZOMONLB&assignmentId=3LEP4MGT3HM6XYLF87P2OG5C9WCBDN&a=T4EL9&tp_a=T4EL9&b=3LEP4MGT3HM6XYLF87P2OG5C9WCBDN&tp_b=3LEP4MGT3HM6XYLF87P2OG5C9WCBDN&c=365799&tp_c=365799","firstResponseHeads":0,"firstResponseTails":0,"secondResponseHeads":1,"secondResponseTails":4,"totalHeads":1,"totalTails":4,"studentIndex":2,"studentTrueHypers":{"a":2,"b":8},"studentGuess":0.2,"delta":0,"bonus":0.45,"bonusSoFar":0.82,"totalExamples":5},{"rt":null,"stimulus":"Sending examples to student... ","response":null,"trial_type":"html-keyboard-response","trial_index":32,"time_elapsed":805345,"internal_node_id":"0.0-26.0","params":{"nStudents":24,"maxFlips":30,"completionMinutes":45,"basePay":8,"maxBonus":9,"perTrialBonus":0.5,"perTrialBonusThreshold":0.05,"exampleCost":0.01},"classroomParams":{"A":{"a":1,"b":4},"B":{"a":4,"b":1},"C":{"a":2,"b":8},"D":{"a":8,"b":2}},"conditions":["nonSeqFull","nonSeqPartial","seqNoFeedback","seqFeedback"],"classroomPairings":[["A","B"],["C","D"]],"coinWeights":[0.2,0.5,0.8],"subjectId":"AMLWYWZOMONLB","assignmentId":"3LEP4MGT3HM6XYLF87P2OG5C9WCBDN","hitId":"3SD15I2WD2G0NA4TSPXGB81L5S7630","url":"https://gershmanlab.com/experiments/alicia/teaching/experiment/?hitId=3SD15I2WD2G0NA4TSPXGB81L5S7630&workerId=AMLWYWZOMONLB&assignmentId=3LEP4MGT3HM6XYLF87P2OG5C9WCBDN&a=T4EL9&tp_a=T4EL9&b=3LEP4MGT3HM6XYLF87P2OG5C9WCBDN&tp_b=3LEP4MGT3HM6XYLF87P2OG5C9WCBDN&c=365799&tp_c=365799"},{"rt":null,"stimulus":"Examples sent to student! Waiting for student...","response":null,"trial_type":"html-keyboard-response","trial_index":33,"time_elapsed":809847,"internal_node_id":"0.0-27.0","params":{"nStudents":24,"maxFlips":30,"completionMinutes":45,"basePay":8,"maxBonus":9,"perTrialBonus":0.5,"perTrialBonusThreshold":0.05,"exampleCost":0.01},"classroomParams":{"A":{"a":1,"b":4},"B":{"a":4,"b":1},"C":{"a":2,"b":8},"D":{"a":8,"b":2}},"conditions":["nonSeqFull","nonSeqPartial","seqNoFeedback","seqFeedback"],"classroomPairings":[["A","B"],["C","D"]],"coinWeights":[0.2,0.5,0.8],"subjectId":"AMLWYWZOMONLB","assignmentId":"3LEP4MGT3HM6XYLF87P2OG5C9WCBDN","hitId":"3SD15I2WD2G0NA4TSPXGB81L5S7630","url":"https://gershmanlab.com/experiments/alicia/teaching/experiment/?hitId=3SD15I2WD2G0NA4TSPXGB81L5S7630&workerId=AMLWYWZOMONLB&assignmentId=3LEP4MGT3HM6XYLF87P2OG5C9WCBDN&a=T4EL9&tp_a=T4EL9&b=3LEP4MGT3HM6XYLF87P2OG5C9WCBDN&tp_b=3LEP4MGT3HM6XYLF87P2OG5C9WCBDN&c=365799&tp_c=365799"},{"rt":3814,"stimulus":"\n                <p>Student 3's first guess for coin weight: <b style=\"color:Tomato\";>0.20</b></p>\n                <p>Student 3's second guess for coin weight: <b style=\"color:Tomato\";>0.20</b></p>\n                <p>You received a bonus of <b>$0.45</b> based on the student's second guess.</p>\n                <p>Total bonus so far: <b>$0.82</b></p>\n                <p>Press any key to continue.</p>\n                ","response":" ","trial_type":"html-keyboard-response","trial_index":34,"time_elapsed":813662,"internal_node_id":"0.0-28.0","params":{"nStudents":24,"maxFlips":30,"completionMinutes":45,"basePay":8,"maxBonus":9,"perTrialBonus":0.5,"perTrialBonusThreshold":0.05,"exampleCost":0.01},"classroomParams":{"A":{"a":1,"b":4},"B":{"a":4,"b":1},"C":{"a":2,"b":8},"D":{"a":8,"b":2}},"conditions":["nonSeqFull","nonSeqPartial","seqNoFeedback","seqFeedback"],"classroomPairings":[["A","B"],["C","D"]],"coinWeights":[0.2,0.5,0.8],"subjectId":"AMLWYWZOMONLB","assignmentId":"3LEP4MGT3HM6XYLF87P2OG5C9WCBDN","hitId":"3SD15I2WD2G0NA4TSPXGB81L5S7630","url":"https://gershmanlab.com/experiments/alicia/teaching/experiment/?hitId=3SD15I2WD2G0NA4TSPXGB81L5S7630&workerId=AMLWYWZOMONLB&assignmentId=3LEP4MGT3HM6XYLF87P2OG5C9WCBDN&a=T4EL9&tp_a=T4EL9&b=3LEP4MGT3HM6XYLF87P2OG5C9WCBDN&tp_b=3LEP4MGT3HM6XYLF87P2OG5C9WCBDN&c=365799&tp_c=365799"},{"rt":null,"stimulus":"<div style=\"font-size:60px;\">Next student</div>","response":null,"trial_type":"html-keyboard-response","trial_index":35,"time_elapsed":816664,"internal_node_id":"0.0-29.0-0.0","params":{"nStudents":24,"maxFlips":30,"completionMinutes":45,"basePay":8,"maxBonus":9,"perTrialBonus":0.5,"perTrialBonusThreshold":0.05,"exampleCost":0.01},"classroomParams":{"A":{"a":1,"b":4},"B":{"a":4,"b":1},"C":{"a":2,"b":8},"D":{"a":8,"b":2}},"conditions":["nonSeqFull","nonSeqPartial","seqNoFeedback","seqFeedback"],"classroomPairings":[["A","B"],["C","D"]],"coinWeights":[0.2,0.5,0.8],"subjectId":"AMLWYWZOMONLB","assignmentId":"3LEP4MGT3HM6XYLF87P2OG5C9WCBDN","hitId":"3SD15I2WD2G0NA4TSPXGB81L5S7630","url":"https://gershmanlab.com/experiments/alicia/teaching/experiment/?hitId=3SD15I2WD2G0NA4TSPXGB81L5S7630&workerId=AMLWYWZOMONLB&assignmentId=3LEP4MGT3HM6XYLF87P2OG5C9WCBDN&a=T4EL9&tp_a=T4EL9&b=3LEP4MGT3HM6XYLF87P2OG5C9WCBDN&tp_b=3LEP4MGT3HM6XYLF87P2OG5C9WCBDN&c=365799&tp_c=365799"},{"rt":4138,"stimulus":"\n            <h4 style=\"color:Orange;\">Student 4</h4>\n            <h2>The weight of your coin is <b style=\"color:Tomato;\">0.8</b>.</h2>\n            <p>In this block, you will be giving <b>one</b> set of examples to Student 4.</p>\n                <p>You will receive feedback at the end of the block.</p>\n            <p></p>","response":0,"trial_type":"html-button-response","trial_index":36,"time_elapsed":820805,"internal_node_id":"0.0-30.0","params":{"nStudents":24,"maxFlips":30,"completionMinutes":45,"basePay":8,"maxBonus":9,"perTrialBonus":0.5,"perTrialBonusThreshold":0.05,"exampleCost":0.01},"classroomParams":{"A":{"a":1,"b":4},"B":{"a":4,"b":1},"C":{"a":2,"b":8},"D":{"a":8,"b":2}},"conditions":["nonSeqFull","nonSeqPartial","seqNoFeedback","seqFeedback"],"classroomPairings":[["A","B"],["C","D"]],"coinWeights":[0.2,0.5,0.8],"subjectId":"AMLWYWZOMONLB","assignmentId":"3LEP4MGT3HM6XYLF87P2OG5C9WCBDN","hitId":"3SD15I2WD2G0NA4TSPXGB81L5S7630","url":"https://gershmanlab.com/experiments/alicia/teaching/experiment/?hitId=3SD15I2WD2G0NA4TSPXGB81L5S7630&workerId=AMLWYWZOMONLB&assignmentId=3LEP4MGT3HM6XYLF87P2OG5C9WCBDN&a=T4EL9&tp_a=T4EL9&b=3LEP4MGT3HM6XYLF87P2OG5C9WCBDN&tp_b=3LEP4MGT3HM6XYLF87P2OG5C9WCBDN&c=365799&tp_c=365799"},{"rt":35077,"response":{"heads":"15","tails":"0"},"type":"response","condition":"nonSeqFull","trueTheta":0.8,"classrooms":["A","B"],"studentTrueClassroom":"A","exampleSet":"first","trial_type":"survey-html-form","trial_index":37,"time_elapsed":855883,"internal_node_id":"0.0-31.0-0.0","params":{"nStudents":24,"maxFlips":30,"completionMinutes":45,"basePay":8,"maxBonus":9,"perTrialBonus":0.5,"perTrialBonusThreshold":0.05,"exampleCost":0.01},"classroomParams":{"A":{"a":1,"b":4},"B":{"a":4,"b":1},"C":{"a":2,"b":8},"D":{"a":8,"b":2}},"conditions":["nonSeqFull","nonSeqPartial","seqNoFeedback","seqFeedback"],"classroomPairings":[["A","B"],["C","D"]],"coinWeights":[0.2,0.5,0.8],"subjectId":"AMLWYWZOMONLB","assignmentId":"3LEP4MGT3HM6XYLF87P2OG5C9WCBDN","hitId":"3SD15I2WD2G0NA4TSPXGB81L5S7630","url":"https://gershmanlab.com/experiments/alicia/teaching/experiment/?hitId=3SD15I2WD2G0NA4TSPXGB81L5S7630&workerId=AMLWYWZOMONLB&assignmentId=3LEP4MGT3HM6XYLF87P2OG5C9WCBDN&a=T4EL9&tp_a=T4EL9&b=3LEP4MGT3HM6XYLF87P2OG5C9WCBDN&tp_b=3LEP4MGT3HM6XYLF87P2OG5C9WCBDN&c=365799&tp_c=365799","heads":15,"tails":0,"studentIndex":3,"studentTrueHypers":{"a":1,"b":4},"studentGuess":0.8,"delta":0,"totalExamples":15,"bonus":0.35,"bonusSoFar":1.17},{"rt":null,"stimulus":"Sending examples to student... ","response":null,"trial_type":"html-keyboard-response","trial_index":38,"time_elapsed":857135,"internal_node_id":"0.0-32.0","params":{"nStudents":24,"maxFlips":30,"completionMinutes":45,"basePay":8,"maxBonus":9,"perTrialBonus":0.5,"perTrialBonusThreshold":0.05,"exampleCost":0.01},"classroomParams":{"A":{"a":1,"b":4},"B":{"a":4,"b":1},"C":{"a":2,"b":8},"D":{"a":8,"b":2}},"conditions":["nonSeqFull","nonSeqPartial","seqNoFeedback","seqFeedback"],"classroomPairings":[["A","B"],["C","D"]],"coinWeights":[0.2,0.5,0.8],"subjectId":"AMLWYWZOMONLB","assignmentId":"3LEP4MGT3HM6XYLF87P2OG5C9WCBDN","hitId":"3SD15I2WD2G0NA4TSPXGB81L5S7630","url":"https://gershmanlab.com/experiments/alicia/teaching/experiment/?hitId=3SD15I2WD2G0NA4TSPXGB81L5S7630&workerId=AMLWYWZOMONLB&assignmentId=3LEP4MGT3HM6XYLF87P2OG5C9WCBDN&a=T4EL9&tp_a=T4EL9&b=3LEP4MGT3HM6XYLF87P2OG5C9WCBDN&tp_b=3LEP4MGT3HM6XYLF87P2OG5C9WCBDN&c=365799&tp_c=365799"},{"rt":null,"stimulus":"Examples sent to student! Waiting for student...","response":null,"trial_type":"html-keyboard-response","trial_index":39,"time_elapsed":863137,"internal_node_id":"0.0-33.0","params":{"nStudents":24,"maxFlips":30,"completionMinutes":45,"basePay":8,"maxBonus":9,"perTrialBonus":0.5,"perTrialBonusThreshold":0.05,"exampleCost":0.01},"classroomParams":{"A":{"a":1,"b":4},"B":{"a":4,"b":1},"C":{"a":2,"b":8},"D":{"a":8,"b":2}},"conditions":["nonSeqFull","nonSeqPartial","seqNoFeedback","seqFeedback"],"classroomPairings":[["A","B"],["C","D"]],"coinWeights":[0.2,0.5,0.8],"subjectId":"AMLWYWZOMONLB","assignmentId":"3LEP4MGT3HM6XYLF87P2OG5C9WCBDN","hitId":"3SD15I2WD2G0NA4TSPXGB81L5S7630","url":"https://gershmanlab.com/experiments/alicia/teaching/experiment/?hitId=3SD15I2WD2G0NA4TSPXGB81L5S7630&workerId=AMLWYWZOMONLB&assignmentId=3LEP4MGT3HM6XYLF87P2OG5C9WCBDN&a=T4EL9&tp_a=T4EL9&b=3LEP4MGT3HM6XYLF87P2OG5C9WCBDN&tp_b=3LEP4MGT3HM6XYLF87P2OG5C9WCBDN&c=365799&tp_c=365799"},{"rt":3668,"stimulus":"\n                <p>Student's guess for coin weight: <b style=\"color:Tomato;\">0.80</b></p>\n                <p>You received a bonus of <b>$0.35</b>. Total bonus so far: <b>$1.17</b></b></p>\n                <p></p>\n                <p>Press any key to continue.</p>\n                ","response":" ","trial_type":"html-keyboard-response","trial_index":40,"time_elapsed":866807,"internal_node_id":"0.0-34.0","params":{"nStudents":24,"maxFlips":30,"completionMinutes":45,"basePay":8,"maxBonus":9,"perTrialBonus":0.5,"perTrialBonusThreshold":0.05,"exampleCost":0.01},"classroomParams":{"A":{"a":1,"b":4},"B":{"a":4,"b":1},"C":{"a":2,"b":8},"D":{"a":8,"b":2}},"conditions":["nonSeqFull","nonSeqPartial","seqNoFeedback","seqFeedback"],"classroomPairings":[["A","B"],["C","D"]],"coinWeights":[0.2,0.5,0.8],"subjectId":"AMLWYWZOMONLB","assignmentId":"3LEP4MGT3HM6XYLF87P2OG5C9WCBDN","hitId":"3SD15I2WD2G0NA4TSPXGB81L5S7630","url":"https://gershmanlab.com/experiments/alicia/teaching/experiment/?hitId=3SD15I2WD2G0NA4TSPXGB81L5S7630&workerId=AMLWYWZOMONLB&assignmentId=3LEP4MGT3HM6XYLF87P2OG5C9WCBDN&a=T4EL9&tp_a=T4EL9&b=3LEP4MGT3HM6XYLF87P2OG5C9WCBDN&tp_b=3LEP4MGT3HM6XYLF87P2OG5C9WCBDN&c=365799&tp_c=365799"},{"rt":null,"stimulus":"<div style=\"font-size:60px;\">Next student</div>","response":null,"trial_type":"html-keyboard-response","trial_index":41,"time_elapsed":869309,"internal_node_id":"0.0-35.0-0.0","params":{"nStudents":24,"maxFlips":30,"completionMinutes":45,"basePay":8,"maxBonus":9,"perTrialBonus":0.5,"perTrialBonusThreshold":0.05,"exampleCost":0.01},"classroomParams":{"A":{"a":1,"b":4},"B":{"a":4,"b":1},"C":{"a":2,"b":8},"D":{"a":8,"b":2}},"conditions":["nonSeqFull","nonSeqPartial","seqNoFeedback","seqFeedback"],"classroomPairings":[["A","B"],["C","D"]],"coinWeights":[0.2,0.5,0.8],"subjectId":"AMLWYWZOMONLB","assignmentId":"3LEP4MGT3HM6XYLF87P2OG5C9WCBDN","hitId":"3SD15I2WD2G0NA4TSPXGB81L5S7630","url":"https://gershmanlab.com/experiments/alicia/teaching/experiment/?hitId=3SD15I2WD2G0NA4TSPXGB81L5S7630&workerId=AMLWYWZOMONLB&assignmentId=3LEP4MGT3HM6XYLF87P2OG5C9WCBDN&a=T4EL9&tp_a=T4EL9&b=3LEP4MGT3HM6XYLF87P2OG5C9WCBDN&tp_b=3LEP4MGT3HM6XYLF87P2OG5C9WCBDN&c=365799&tp_c=365799"},{"rt":4985,"stimulus":"\n            <h4 style=\"color:Orange;\">Student 5</h4>\n            <h2>The weight of your coin is <b style=\"color:Tomato;\">0.2</b>.</h2>\n            <p>In this block, you will be giving <b>one</b> set of examples to Student 5.</p>\n                <p>You will receive feedback at the end of the block.</p>\n            <p></p>","response":0,"trial_type":"html-button-response","trial_index":42,"time_elapsed":874295,"internal_node_id":"0.0-36.0","params":{"nStudents":24,"maxFlips":30,"completionMinutes":45,"basePay":8,"maxBonus":9,"perTrialBonus":0.5,"perTrialBonusThreshold":0.05,"exampleCost":0.01},"classroomParams":{"A":{"a":1,"b":4},"B":{"a":4,"b":1},"C":{"a":2,"b":8},"D":{"a":8,"b":2}},"conditions":["nonSeqFull","nonSeqPartial","seqNoFeedback","seqFeedback"],"classroomPairings":[["A","B"],["C","D"]],"coinWeights":[0.2,0.5,0.8],"subjectId":"AMLWYWZOMONLB","assignmentId":"3LEP4MGT3HM6XYLF87P2OG5C9WCBDN","hitId":"3SD15I2WD2G0NA4TSPXGB81L5S7630","url":"https://gershmanlab.com/experiments/alicia/teaching/experiment/?hitId=3SD15I2WD2G0NA4TSPXGB81L5S7630&workerId=AMLWYWZOMONLB&assignmentId=3LEP4MGT3HM6XYLF87P2OG5C9WCBDN&a=T4EL9&tp_a=T4EL9&b=3LEP4MGT3HM6XYLF87P2OG5C9WCBDN&tp_b=3LEP4MGT3HM6XYLF87P2OG5C9WCBDN&c=365799&tp_c=365799"},{"rt":19340,"response":{"heads":"0","tails":"15"},"type":"response","condition":"nonSeqFull","trueTheta":0.2,"classrooms":["A","B"],"studentTrueClassroom":"B","exampleSet":"first","trial_type":"survey-html-form","trial_index":43,"time_elapsed":893636,"internal_node_id":"0.0-37.0-0.0","params":{"nStudents":24,"maxFlips":30,"completionMinutes":45,"basePay":8,"maxBonus":9,"perTrialBonus":0.5,"perTrialBonusThreshold":0.05,"exampleCost":0.01},"classroomParams":{"A":{"a":1,"b":4},"B":{"a":4,"b":1},"C":{"a":2,"b":8},"D":{"a":8,"b":2}},"conditions":["nonSeqFull","nonSeqPartial","seqNoFeedback","seqFeedback"],"classroomPairings":[["A","B"],["C","D"]],"coinWeights":[0.2,0.5,0.8],"subjectId":"AMLWYWZOMONLB","assignmentId":"3LEP4MGT3HM6XYLF87P2OG5C9WCBDN","hitId":"3SD15I2WD2G0NA4TSPXGB81L5S7630","url":"https://gershmanlab.com/experiments/alicia/teaching/experiment/?hitId=3SD15I2WD2G0NA4TSPXGB81L5S7630&workerId=AMLWYWZOMONLB&assignmentId=3LEP4MGT3HM6XYLF87P2OG5C9WCBDN&a=T4EL9&tp_a=T4EL9&b=3LEP4MGT3HM6XYLF87P2OG5C9WCBDN&tp_b=3LEP4MGT3HM6XYLF87P2OG5C9WCBDN&c=365799&tp_c=365799","heads":0,"tails":15,"studentIndex":4,"studentTrueHypers":{"a":4,"b":1},"studentGuess":0.2,"delta":0,"totalExamples":15,"bonus":0.35,"bonusSoFar":1.52},{"rt":null,"stimulus":"Sending examples to student... ","response":null,"trial_type":"html-keyboard-response","trial_index":44,"time_elapsed":895638,"internal_node_id":"0.0-38.0","params":{"nStudents":24,"maxFlips":30,"completionMinutes":45,"basePay":8,"maxBonus":9,"perTrialBonus":0.5,"perTrialBonusThreshold":0.05,"exampleCost":0.01},"classroomParams":{"A":{"a":1,"b":4},"B":{"a":4,"b":1},"C":{"a":2,"b":8},"D":{"a":8,"b":2}},"conditions":["nonSeqFull","nonSeqPartial","seqNoFeedback","seqFeedback"],"classroomPairings":[["A","B"],["C","D"]],"coinWeights":[0.2,0.5,0.8],"subjectId":"AMLWYWZOMONLB","assignmentId":"3LEP4MGT3HM6XYLF87P2OG5C9WCBDN","hitId":"3SD15I2WD2G0NA4TSPXGB81L5S7630","url":"https://gershmanlab.com/experiments/alicia/teaching/experiment/?hitId=3SD15I2WD2G0NA4TSPXGB81L5S7630&workerId=AMLWYWZOMONLB&assignmentId=3LEP4MGT3HM6XYLF87P2OG5C9WCBDN&a=T4EL9&tp_a=T4EL9&b=3LEP4MGT3HM6XYLF87P2OG5C9WCBDN&tp_b=3LEP4MGT3HM6XYLF87P2OG5C9WCBDN&c=365799&tp_c=365799"},{"rt":null,"stimulus":"Examples sent to student! Waiting for student...","response":null,"trial_type":"html-keyboard-response","trial_index":45,"time_elapsed":900641,"internal_node_id":"0.0-39.0","params":{"nStudents":24,"maxFlips":30,"completionMinutes":45,"basePay":8,"maxBonus":9,"perTrialBonus":0.5,"perTrialBonusThreshold":0.05,"exampleCost":0.01},"classroomParams":{"A":{"a":1,"b":4},"B":{"a":4,"b":1},"C":{"a":2,"b":8},"D":{"a":8,"b":2}},"conditions":["nonSeqFull","nonSeqPartial","seqNoFeedback","seqFeedback"],"classroomPairings":[["A","B"],["C","D"]],"coinWeights":[0.2,0.5,0.8],"subjectId":"AMLWYWZOMONLB","assignmentId":"3LEP4MGT3HM6XYLF87P2OG5C9WCBDN","hitId":"3SD15I2WD2G0NA4TSPXGB81L5S7630","url":"https://gershmanlab.com/experiments/alicia/teaching/experiment/?hitId=3SD15I2WD2G0NA4TSPXGB81L5S7630&workerId=AMLWYWZOMONLB&assignmentId=3LEP4MGT3HM6XYLF87P2OG5C9WCBDN&a=T4EL9&tp_a=T4EL9&b=3LEP4MGT3HM6XYLF87P2OG5C9WCBDN&tp_b=3LEP4MGT3HM6XYLF87P2OG5C9WCBDN&c=365799&tp_c=365799"},{"rt":3366,"stimulus":"\n                <p>Student's guess for coin weight: <b style=\"color:Tomato;\">0.20</b></p>\n                <p>You received a bonus of <b>$0.35</b>. Total bonus so far: <b>$1.52</b></b></p>\n                <p></p>\n                <p>Press any key to continue.</p>\n                ","response":"enter","trial_type":"html-keyboard-response","trial_index":46,"time_elapsed":904012,"internal_node_id":"0.0-40.0","params":{"nStudents":24,"maxFlips":30,"completionMinutes":45,"basePay":8,"maxBonus":9,"perTrialBonus":0.5,"perTrialBonusThreshold":0.05,"exampleCost":0.01},"classroomParams":{"A":{"a":1,"b":4},"B":{"a":4,"b":1},"C":{"a":2,"b":8},"D":{"a":8,"b":2}},"conditions":["nonSeqFull","nonSeqPartial","seqNoFeedback","seqFeedback"],"classroomPairings":[["A","B"],["C","D"]],"coinWeights":[0.2,0.5,0.8],"subjectId":"AMLWYWZOMONLB","assignmentId":"3LEP4MGT3HM6XYLF87P2OG5C9WCBDN","hitId":"3SD15I2WD2G0NA4TSPXGB81L5S7630","url":"https://gershmanlab.com/experiments/alicia/teaching/experiment/?hitId=3SD15I2WD2G0NA4TSPXGB81L5S7630&workerId=AMLWYWZOMONLB&assignmentId=3LEP4MGT3HM6XYLF87P2OG5C9WCBDN&a=T4EL9&tp_a=T4EL9&b=3LEP4MGT3HM6XYLF87P2OG5C9WCBDN&tp_b=3LEP4MGT3HM6XYLF87P2OG5C9WCBDN&c=365799&tp_c=365799"},{"rt":null,"stimulus":"<div style=\"font-size:60px;\">Next student</div>","response":null,"trial_type":"html-keyboard-response","trial_index":47,"time_elapsed":907014,"internal_node_id":"0.0-41.0-0.0","params":{"nStudents":24,"maxFlips":30,"completionMinutes":45,"basePay":8,"maxBonus":9,"perTrialBonus":0.5,"perTrialBonusThreshold":0.05,"exampleCost":0.01},"classroomParams":{"A":{"a":1,"b":4},"B":{"a":4,"b":1},"C":{"a":2,"b":8},"D":{"a":8,"b":2}},"conditions":["nonSeqFull","nonSeqPartial","seqNoFeedback","seqFeedback"],"classroomPairings":[["A","B"],["C","D"]],"coinWeights":[0.2,0.5,0.8],"subjectId":"AMLWYWZOMONLB","assignmentId":"3LEP4MGT3HM6XYLF87P2OG5C9WCBDN","hitId":"3SD15I2WD2G0NA4TSPXGB81L5S7630","url":"https://gershmanlab.com/experiments/alicia/teaching/experiment/?hitId=3SD15I2WD2G0NA4TSPXGB81L5S7630&workerId=AMLWYWZOMONLB&assignmentId=3LEP4MGT3HM6XYLF87P2OG5C9WCBDN&a=T4EL9&tp_a=T4EL9&b=3LEP4MGT3HM6XYLF87P2OG5C9WCBDN&tp_b=3LEP4MGT3HM6XYLF87P2OG5C9WCBDN&c=365799&tp_c=365799"},{"rt":7446,"stimulus":"\n            <h4 style=\"color:Orange;\">Student 6</h4>\n            <h2>The weight of your coin is <b style=\"color:Tomato;\">0.5</b>.</h2>\n            <p>In this block, you will be giving <b>one</b> set of examples to Student 6.</p>\n                <p>You will receive feedback at the end of the block.</p>\n            <p></p>","response":0,"trial_type":"html-button-response","trial_index":48,"time_elapsed":914462,"internal_node_id":"0.0-42.0","params":{"nStudents":24,"maxFlips":30,"completionMinutes":45,"basePay":8,"maxBonus":9,"perTrialBonus":0.5,"perTrialBonusThreshold":0.05,"exampleCost":0.01},"classroomParams":{"A":{"a":1,"b":4},"B":{"a":4,"b":1},"C":{"a":2,"b":8},"D":{"a":8,"b":2}},"conditions":["nonSeqFull","nonSeqPartial","seqNoFeedback","seqFeedback"],"classroomPairings":[["A","B"],["C","D"]],"coinWeights":[0.2,0.5,0.8],"subjectId":"AMLWYWZOMONLB","assignmentId":"3LEP4MGT3HM6XYLF87P2OG5C9WCBDN","hitId":"3SD15I2WD2G0NA4TSPXGB81L5S7630","url":"https://gershmanlab.com/experiments/alicia/teaching/experiment/?hitId=3SD15I2WD2G0NA4TSPXGB81L5S7630&workerId=AMLWYWZOMONLB&assignmentId=3LEP4MGT3HM6XYLF87P2OG5C9WCBDN&a=T4EL9&tp_a=T4EL9&b=3LEP4MGT3HM6XYLF87P2OG5C9WCBDN&tp_b=3LEP4MGT3HM6XYLF87P2OG5C9WCBDN&c=365799&tp_c=365799"},{"rt":17075,"response":{"heads":"0","tails":"6"},"type":"response","condition":"nonSeqFull","trueTheta":0.5,"classrooms":["C","D"],"studentTrueClassroom":"D","exampleSet":"first","trial_type":"survey-html-form","trial_index":49,"time_elapsed":931537,"internal_node_id":"0.0-43.0-0.0","params":{"nStudents":24,"maxFlips":30,"completionMinutes":45,"basePay":8,"maxBonus":9,"perTrialBonus":0.5,"perTrialBonusThreshold":0.05,"exampleCost":0.01},"classroomParams":{"A":{"a":1,"b":4},"B":{"a":4,"b":1},"C":{"a":2,"b":8},"D":{"a":8,"b":2}},"conditions":["nonSeqFull","nonSeqPartial","seqNoFeedback","seqFeedback"],"classroomPairings":[["A","B"],["C","D"]],"coinWeights":[0.2,0.5,0.8],"subjectId":"AMLWYWZOMONLB","assignmentId":"3LEP4MGT3HM6XYLF87P2OG5C9WCBDN","hitId":"3SD15I2WD2G0NA4TSPXGB81L5S7630","url":"https://gershmanlab.com/experiments/alicia/teaching/experiment/?hitId=3SD15I2WD2G0NA4TSPXGB81L5S7630&workerId=AMLWYWZOMONLB&assignmentId=3LEP4MGT3HM6XYLF87P2OG5C9WCBDN&a=T4EL9&tp_a=T4EL9&b=3LEP4MGT3HM6XYLF87P2OG5C9WCBDN&tp_b=3LEP4MGT3HM6XYLF87P2OG5C9WCBDN&c=365799&tp_c=365799","heads":0,"tails":6,"studentIndex":5,"studentTrueHypers":{"a":8,"b":2},"studentGuess":0.5,"delta":0,"totalExamples":6,"bonus":0.44,"bonusSoFar":1.96},{"rt":null,"stimulus":"Sending examples to student... ","response":null,"trial_type":"html-keyboard-response","trial_index":50,"time_elapsed":933040,"internal_node_id":"0.0-44.0","params":{"nStudents":24,"maxFlips":30,"completionMinutes":45,"basePay":8,"maxBonus":9,"perTrialBonus":0.5,"perTrialBonusThreshold":0.05,"exampleCost":0.01},"classroomParams":{"A":{"a":1,"b":4},"B":{"a":4,"b":1},"C":{"a":2,"b":8},"D":{"a":8,"b":2}},"conditions":["nonSeqFull","nonSeqPartial","seqNoFeedback","seqFeedback"],"classroomPairings":[["A","B"],["C","D"]],"coinWeights":[0.2,0.5,0.8],"subjectId":"AMLWYWZOMONLB","assignmentId":"3LEP4MGT3HM6XYLF87P2OG5C9WCBDN","hitId":"3SD15I2WD2G0NA4TSPXGB81L5S7630","url":"https://gershmanlab.com/experiments/alicia/teaching/experiment/?hitId=3SD15I2WD2G0NA4TSPXGB81L5S7630&workerId=AMLWYWZOMONLB&assignmentId=3LEP4MGT3HM6XYLF87P2OG5C9WCBDN&a=T4EL9&tp_a=T4EL9&b=3LEP4MGT3HM6XYLF87P2OG5C9WCBDN&tp_b=3LEP4MGT3HM6XYLF87P2OG5C9WCBDN&c=365799&tp_c=365799"},{"rt":null,"stimulus":"Examples sent to student! Waiting for student...","response":null,"trial_type":"html-keyboard-response","trial_index":51,"time_elapsed":938542,"internal_node_id":"0.0-45.0","params":{"nStudents":24,"maxFlips":30,"completionMinutes":45,"basePay":8,"maxBonus":9,"perTrialBonus":0.5,"perTrialBonusThreshold":0.05,"exampleCost":0.01},"classroomParams":{"A":{"a":1,"b":4},"B":{"a":4,"b":1},"C":{"a":2,"b":8},"D":{"a":8,"b":2}},"conditions":["nonSeqFull","nonSeqPartial","seqNoFeedback","seqFeedback"],"classroomPairings":[["A","B"],["C","D"]],"coinWeights":[0.2,0.5,0.8],"subjectId":"AMLWYWZOMONLB","assignmentId":"3LEP4MGT3HM6XYLF87P2OG5C9WCBDN","hitId":"3SD15I2WD2G0NA4TSPXGB81L5S7630","url":"https://gershmanlab.com/experiments/alicia/teaching/experiment/?hitId=3SD15I2WD2G0NA4TSPXGB81L5S7630&workerId=AMLWYWZOMONLB&assignmentId=3LEP4MGT3HM6XYLF87P2OG5C9WCBDN&a=T4EL9&tp_a=T4EL9&b=3LEP4MGT3HM6XYLF87P2OG5C9WCBDN&tp_b=3LEP4MGT3HM6XYLF87P2OG5C9WCBDN&c=365799&tp_c=365799"},{"rt":3240,"stimulus":"\n                <p>Student's guess for coin weight: <b style=\"color:Tomato;\">0.50</b></p>\n                <p>You received a bonus of <b>$0.44</b>. Total bonus so far: <b>$1.96</b></b></p>\n                <p></p>\n                <p>Press any key to continue.</p>\n                ","response":" ","trial_type":"html-keyboard-response","trial_index":52,"time_elapsed":941783,"internal_node_id":"0.0-46.0","params":{"nStudents":24,"maxFlips":30,"completionMinutes":45,"basePay":8,"maxBonus":9,"perTrialBonus":0.5,"perTrialBonusThreshold":0.05,"exampleCost":0.01},"classroomParams":{"A":{"a":1,"b":4},"B":{"a":4,"b":1},"C":{"a":2,"b":8},"D":{"a":8,"b":2}},"conditions":["nonSeqFull","nonSeqPartial","seqNoFeedback","seqFeedback"],"classroomPairings":[["A","B"],["C","D"]],"coinWeights":[0.2,0.5,0.8],"subjectId":"AMLWYWZOMONLB","assignmentId":"3LEP4MGT3HM6XYLF87P2OG5C9WCBDN","hitId":"3SD15I2WD2G0NA4TSPXGB81L5S7630","url":"https://gershmanlab.com/experiments/alicia/teaching/experiment/?hitId=3SD15I2WD2G0NA4TSPXGB81L5S7630&workerId=AMLWYWZOMONLB&assignmentId=3LEP4MGT3HM6XYLF87P2OG5C9WCBDN&a=T4EL9&tp_a=T4EL9&b=3LEP4MGT3HM6XYLF87P2OG5C9WCBDN&tp_b=3LEP4MGT3HM6XYLF87P2OG5C9WCBDN&c=365799&tp_c=365799"},{"rt":null,"stimulus":"<div style=\"font-size:60px;\">Next student</div>","response":null,"trial_type":"html-keyboard-response","trial_index":53,"time_elapsed":944785,"internal_node_id":"0.0-47.0-0.0","params":{"nStudents":24,"maxFlips":30,"completionMinutes":45,"basePay":8,"maxBonus":9,"perTrialBonus":0.5,"perTrialBonusThreshold":0.05,"exampleCost":0.01},"classroomParams":{"A":{"a":1,"b":4},"B":{"a":4,"b":1},"C":{"a":2,"b":8},"D":{"a":8,"b":2}},"conditions":["nonSeqFull","nonSeqPartial","seqNoFeedback","seqFeedback"],"classroomPairings":[["A","B"],["C","D"]],"coinWeights":[0.2,0.5,0.8],"subjectId":"AMLWYWZOMONLB","assignmentId":"3LEP4MGT3HM6XYLF87P2OG5C9WCBDN","hitId":"3SD15I2WD2G0NA4TSPXGB81L5S7630","url":"https://gershmanlab.com/experiments/alicia/teaching/experiment/?hitId=3SD15I2WD2G0NA4TSPXGB81L5S7630&workerId=AMLWYWZOMONLB&assignmentId=3LEP4MGT3HM6XYLF87P2OG5C9WCBDN&a=T4EL9&tp_a=T4EL9&b=3LEP4MGT3HM6XYLF87P2OG5C9WCBDN&tp_b=3LEP4MGT3HM6XYLF87P2OG5C9WCBDN&c=365799&tp_c=365799"},{"rt":4859,"stimulus":"\n            <h4 style=\"color:Orange;\">Student 7</h4>\n            <h2>The weight of your coin is <b style=\"color:Tomato;\">0.8</b>.</h2>\n            <p>In this block, you will be giving <b>one</b> set of examples to Student 7.</p>\n                <p>You will receive feedback at the end of the block.</p>\n            <p></p>","response":0,"trial_type":"html-button-response","trial_index":54,"time_elapsed":949644,"internal_node_id":"0.0-48.0","params":{"nStudents":24,"maxFlips":30,"completionMinutes":45,"basePay":8,"maxBonus":9,"perTrialBonus":0.5,"perTrialBonusThreshold":0.05,"exampleCost":0.01},"classroomParams":{"A":{"a":1,"b":4},"B":{"a":4,"b":1},"C":{"a":2,"b":8},"D":{"a":8,"b":2}},"conditions":["nonSeqFull","nonSeqPartial","seqNoFeedback","seqFeedback"],"classroomPairings":[["A","B"],["C","D"]],"coinWeights":[0.2,0.5,0.8],"subjectId":"AMLWYWZOMONLB","assignmentId":"3LEP4MGT3HM6XYLF87P2OG5C9WCBDN","hitId":"3SD15I2WD2G0NA4TSPXGB81L5S7630","url":"https://gershmanlab.com/experiments/alicia/teaching/experiment/?hitId=3SD15I2WD2G0NA4TSPXGB81L5S7630&workerId=AMLWYWZOMONLB&assignmentId=3LEP4MGT3HM6XYLF87P2OG5C9WCBDN&a=T4EL9&tp_a=T4EL9&b=3LEP4MGT3HM6XYLF87P2OG5C9WCBDN&tp_b=3LEP4MGT3HM6XYLF87P2OG5C9WCBDN&c=365799&tp_c=365799"},{"rt":39911,"response":{"heads":"4","tails":"1"},"type":"response","condition":"nonSeqPartial","trueTheta":0.8,"classrooms":["A","B"],"studentTrueClassroom":"B","exampleSet":"first","trial_type":"survey-html-form","trial_index":55,"time_elapsed":989556,"internal_node_id":"0.0-49.0-0.0","params":{"nStudents":24,"maxFlips":30,"completionMinutes":45,"basePay":8,"maxBonus":9,"perTrialBonus":0.5,"perTrialBonusThreshold":0.05,"exampleCost":0.01},"classroomParams":{"A":{"a":1,"b":4},"B":{"a":4,"b":1},"C":{"a":2,"b":8},"D":{"a":8,"b":2}},"conditions":["nonSeqFull","nonSeqPartial","seqNoFeedback","seqFeedback"],"classroomPairings":[["A","B"],["C","D"]],"coinWeights":[0.2,0.5,0.8],"subjectId":"AMLWYWZOMONLB","assignmentId":"3LEP4MGT3HM6XYLF87P2OG5C9WCBDN","hitId":"3SD15I2WD2G0NA4TSPXGB81L5S7630","url":"https://gershmanlab.com/experiments/alicia/teaching/experiment/?hitId=3SD15I2WD2G0NA4TSPXGB81L5S7630&workerId=AMLWYWZOMONLB&assignmentId=3LEP4MGT3HM6XYLF87P2OG5C9WCBDN&a=T4EL9&tp_a=T4EL9&b=3LEP4MGT3HM6XYLF87P2OG5C9WCBDN&tp_b=3LEP4MGT3HM6XYLF87P2OG5C9WCBDN&c=365799&tp_c=365799","heads":4,"tails":1,"studentIndex":6,"studentTrueHypers":{"a":4,"b":1},"studentGuess":0.8,"delta":0,"totalExamples":5,"bonus":0.45,"bonusSoFar":2.41},{"rt":null,"stimulus":"Sending examples to student... ","response":null,"trial_type":"html-keyboard-response","trial_index":56,"time_elapsed":991557,"internal_node_id":"0.0-50.0","params":{"nStudents":24,"maxFlips":30,"completionMinutes":45,"basePay":8,"maxBonus":9,"perTrialBonus":0.5,"perTrialBonusThreshold":0.05,"exampleCost":0.01},"classroomParams":{"A":{"a":1,"b":4},"B":{"a":4,"b":1},"C":{"a":2,"b":8},"D":{"a":8,"b":2}},"conditions":["nonSeqFull","nonSeqPartial","seqNoFeedback","seqFeedback"],"classroomPairings":[["A","B"],["C","D"]],"coinWeights":[0.2,0.5,0.8],"subjectId":"AMLWYWZOMONLB","assignmentId":"3LEP4MGT3HM6XYLF87P2OG5C9WCBDN","hitId":"3SD15I2WD2G0NA4TSPXGB81L5S7630","url":"https://gershmanlab.com/experiments/alicia/teaching/experiment/?hitId=3SD15I2WD2G0NA4TSPXGB81L5S7630&workerId=AMLWYWZOMONLB&assignmentId=3LEP4MGT3HM6XYLF87P2OG5C9WCBDN&a=T4EL9&tp_a=T4EL9&b=3LEP4MGT3HM6XYLF87P2OG5C9WCBDN&tp_b=3LEP4MGT3HM6XYLF87P2OG5C9WCBDN&c=365799&tp_c=365799"},{"rt":null,"stimulus":"Examples sent to student! Waiting for student...","response":null,"trial_type":"html-keyboard-response","trial_index":57,"time_elapsed":997060,"internal_node_id":"0.0-51.0","params":{"nStudents":24,"maxFlips":30,"completionMinutes":45,"basePay":8,"maxBonus":9,"perTrialBonus":0.5,"perTrialBonusThreshold":0.05,"exampleCost":0.01},"classroomParams":{"A":{"a":1,"b":4},"B":{"a":4,"b":1},"C":{"a":2,"b":8},"D":{"a":8,"b":2}},"conditions":["nonSeqFull","nonSeqPartial","seqNoFeedback","seqFeedback"],"classroomPairings":[["A","B"],["C","D"]],"coinWeights":[0.2,0.5,0.8],"subjectId":"AMLWYWZOMONLB","assignmentId":"3LEP4MGT3HM6XYLF87P2OG5C9WCBDN","hitId":"3SD15I2WD2G0NA4TSPXGB81L5S7630","url":"https://gershmanlab.com/experiments/alicia/teaching/experiment/?hitId=3SD15I2WD2G0NA4TSPXGB81L5S7630&workerId=AMLWYWZOMONLB&assignmentId=3LEP4MGT3HM6XYLF87P2OG5C9WCBDN&a=T4EL9&tp_a=T4EL9&b=3LEP4MGT3HM6XYLF87P2OG5C9WCBDN&tp_b=3LEP4MGT3HM6XYLF87P2OG5C9WCBDN&c=365799&tp_c=365799"},{"rt":3021,"stimulus":"\n                <p>Student's guess for coin weight: <b style=\"color:Tomato;\">0.80</b></p>\n                <p>You received a bonus of <b>$0.45</b>. Total bonus so far: <b>$2.41</b></b></p>\n                <p></p>\n                <p>Press any key to continue.</p>\n                ","response":" ","trial_type":"html-keyboard-response","trial_index":58,"time_elapsed":1000081,"internal_node_id":"0.0-52.0","params":{"nStudents":24,"maxFlips":30,"completionMinutes":45,"basePay":8,"maxBonus":9,"perTrialBonus":0.5,"perTrialBonusThreshold":0.05,"exampleCost":0.01},"classroomParams":{"A":{"a":1,"b":4},"B":{"a":4,"b":1},"C":{"a":2,"b":8},"D":{"a":8,"b":2}},"conditions":["nonSeqFull","nonSeqPartial","seqNoFeedback","seqFeedback"],"classroomPairings":[["A","B"],["C","D"]],"coinWeights":[0.2,0.5,0.8],"subjectId":"AMLWYWZOMONLB","assignmentId":"3LEP4MGT3HM6XYLF87P2OG5C9WCBDN","hitId":"3SD15I2WD2G0NA4TSPXGB81L5S7630","url":"https://gershmanlab.com/experiments/alicia/teaching/experiment/?hitId=3SD15I2WD2G0NA4TSPXGB81L5S7630&workerId=AMLWYWZOMONLB&assignmentId=3LEP4MGT3HM6XYLF87P2OG5C9WCBDN&a=T4EL9&tp_a=T4EL9&b=3LEP4MGT3HM6XYLF87P2OG5C9WCBDN&tp_b=3LEP4MGT3HM6XYLF87P2OG5C9WCBDN&c=365799&tp_c=365799"},{"rt":null,"stimulus":"<div style=\"font-size:60px;\">Next student</div>","response":null,"trial_type":"html-keyboard-response","trial_index":59,"time_elapsed":1003083,"internal_node_id":"0.0-53.0-0.0","params":{"nStudents":24,"maxFlips":30,"completionMinutes":45,"basePay":8,"maxBonus":9,"perTrialBonus":0.5,"perTrialBonusThreshold":0.05,"exampleCost":0.01},"classroomParams":{"A":{"a":1,"b":4},"B":{"a":4,"b":1},"C":{"a":2,"b":8},"D":{"a":8,"b":2}},"conditions":["nonSeqFull","nonSeqPartial","seqNoFeedback","seqFeedback"],"classroomPairings":[["A","B"],["C","D"]],"coinWeights":[0.2,0.5,0.8],"subjectId":"AMLWYWZOMONLB","assignmentId":"3LEP4MGT3HM6XYLF87P2OG5C9WCBDN","hitId":"3SD15I2WD2G0NA4TSPXGB81L5S7630","url":"https://gershmanlab.com/experiments/alicia/teaching/experiment/?hitId=3SD15I2WD2G0NA4TSPXGB81L5S7630&workerId=AMLWYWZOMONLB&assignmentId=3LEP4MGT3HM6XYLF87P2OG5C9WCBDN&a=T4EL9&tp_a=T4EL9&b=3LEP4MGT3HM6XYLF87P2OG5C9WCBDN&tp_b=3LEP4MGT3HM6XYLF87P2OG5C9WCBDN&c=365799&tp_c=365799"},{"rt":3726,"stimulus":"\n            <h4 style=\"color:Orange;\">Student 8</h4>\n            <h2>The weight of your coin is <b style=\"color:Tomato;\">0.2</b>.</h2>\n            <p>In this block, you will be giving <b>one</b> set of examples to Student 8.</p>\n                <p>You will receive feedback at the end of the block.</p>\n            <p></p>","response":0,"trial_type":"html-button-response","trial_index":60,"time_elapsed":1006810,"internal_node_id":"0.0-54.0","params":{"nStudents":24,"maxFlips":30,"completionMinutes":45,"basePay":8,"maxBonus":9,"perTrialBonus":0.5,"perTrialBonusThreshold":0.05,"exampleCost":0.01},"classroomParams":{"A":{"a":1,"b":4},"B":{"a":4,"b":1},"C":{"a":2,"b":8},"D":{"a":8,"b":2}},"conditions":["nonSeqFull","nonSeqPartial","seqNoFeedback","seqFeedback"],"classroomPairings":[["A","B"],["C","D"]],"coinWeights":[0.2,0.5,0.8],"subjectId":"AMLWYWZOMONLB","assignmentId":"3LEP4MGT3HM6XYLF87P2OG5C9WCBDN","hitId":"3SD15I2WD2G0NA4TSPXGB81L5S7630","url":"https://gershmanlab.com/experiments/alicia/teaching/experiment/?hitId=3SD15I2WD2G0NA4TSPXGB81L5S7630&workerId=AMLWYWZOMONLB&assignmentId=3LEP4MGT3HM6XYLF87P2OG5C9WCBDN&a=T4EL9&tp_a=T4EL9&b=3LEP4MGT3HM6XYLF87P2OG5C9WCBDN&tp_b=3LEP4MGT3HM6XYLF87P2OG5C9WCBDN&c=365799&tp_c=365799"},{"rt":40314,"response":{"heads":"1","tails":"4"},"type":"response","condition":"nonSeqPartial","trueTheta":0.2,"classrooms":["C","D"],"studentTrueClassroom":"C","exampleSet":"first","trial_type":"survey-html-form","trial_index":61,"time_elapsed":1047126,"internal_node_id":"0.0-55.0-0.0","params":{"nStudents":24,"maxFlips":30,"completionMinutes":45,"basePay":8,"maxBonus":9,"perTrialBonus":0.5,"perTrialBonusThreshold":0.05,"exampleCost":0.01},"classroomParams":{"A":{"a":1,"b":4},"B":{"a":4,"b":1},"C":{"a":2,"b":8},"D":{"a":8,"b":2}},"conditions":["nonSeqFull","nonSeqPartial","seqNoFeedback","seqFeedback"],"classroomPairings":[["A","B"],["C","D"]],"coinWeights":[0.2,0.5,0.8],"subjectId":"AMLWYWZOMONLB","assignmentId":"3LEP4MGT3HM6XYLF87P2OG5C9WCBDN","hitId":"3SD15I2WD2G0NA4TSPXGB81L5S7630","url":"https://gershmanlab.com/experiments/alicia/teaching/experiment/?hitId=3SD15I2WD2G0NA4TSPXGB81L5S7630&workerId=AMLWYWZOMONLB&assignmentId=3LEP4MGT3HM6XYLF87P2OG5C9WCBDN&a=T4EL9&tp_a=T4EL9&b=3LEP4MGT3HM6XYLF87P2OG5C9WCBDN&tp_b=3LEP4MGT3HM6XYLF87P2OG5C9WCBDN&c=365799&tp_c=365799","heads":1,"tails":4,"studentIndex":7,"studentTrueHypers":{"a":2,"b":8},"studentGuess":0.2,"delta":0,"totalExamples":5,"bonus":0.45,"bonusSoFar":2.86},{"rt":null,"stimulus":"Sending examples to student... ","response":null,"trial_type":"html-keyboard-response","trial_index":62,"time_elapsed":1049130,"internal_node_id":"0.0-56.0","params":{"nStudents":24,"maxFlips":30,"completionMinutes":45,"basePay":8,"maxBonus":9,"perTrialBonus":0.5,"perTrialBonusThreshold":0.05,"exampleCost":0.01},"classroomParams":{"A":{"a":1,"b":4},"B":{"a":4,"b":1},"C":{"a":2,"b":8},"D":{"a":8,"b":2}},"conditions":["nonSeqFull","nonSeqPartial","seqNoFeedback","seqFeedback"],"classroomPairings":[["A","B"],["C","D"]],"coinWeights":[0.2,0.5,0.8],"subjectId":"AMLWYWZOMONLB","assignmentId":"3LEP4MGT3HM6XYLF87P2OG5C9WCBDN","hitId":"3SD15I2WD2G0NA4TSPXGB81L5S7630","url":"https://gershmanlab.com/experiments/alicia/teaching/experiment/?hitId=3SD15I2WD2G0NA4TSPXGB81L5S7630&workerId=AMLWYWZOMONLB&assignmentId=3LEP4MGT3HM6XYLF87P2OG5C9WCBDN&a=T4EL9&tp_a=T4EL9&b=3LEP4MGT3HM6XYLF87P2OG5C9WCBDN&tp_b=3LEP4MGT3HM6XYLF87P2OG5C9WCBDN&c=365799&tp_c=365799"},{"rt":null,"stimulus":"Examples sent to student! Waiting for student...","response":null,"trial_type":"html-keyboard-response","trial_index":63,"time_elapsed":1054131,"internal_node_id":"0.0-57.0","params":{"nStudents":24,"maxFlips":30,"completionMinutes":45,"basePay":8,"maxBonus":9,"perTrialBonus":0.5,"perTrialBonusThreshold":0.05,"exampleCost":0.01},"classroomParams":{"A":{"a":1,"b":4},"B":{"a":4,"b":1},"C":{"a":2,"b":8},"D":{"a":8,"b":2}},"conditions":["nonSeqFull","nonSeqPartial","seqNoFeedback","seqFeedback"],"classroomPairings":[["A","B"],["C","D"]],"coinWeights":[0.2,0.5,0.8],"subjectId":"AMLWYWZOMONLB","assignmentId":"3LEP4MGT3HM6XYLF87P2OG5C9WCBDN","hitId":"3SD15I2WD2G0NA4TSPXGB81L5S7630","url":"https://gershmanlab.com/experiments/alicia/teaching/experiment/?hitId=3SD15I2WD2G0NA4TSPXGB81L5S7630&workerId=AMLWYWZOMONLB&assignmentId=3LEP4MGT3HM6XYLF87P2OG5C9WCBDN&a=T4EL9&tp_a=T4EL9&b=3LEP4MGT3HM6XYLF87P2OG5C9WCBDN&tp_b=3LEP4MGT3HM6XYLF87P2OG5C9WCBDN&c=365799&tp_c=365799"},{"rt":4194,"stimulus":"\n                <p>Student's guess for coin weight: <b style=\"color:Tomato;\">0.20</b></p>\n                <p>You received a bonus of <b>$0.45</b>. Total bonus so far: <b>$2.86</b></b></p>\n                <p></p>\n                <p>Press any key to continue.</p>\n                ","response":" ","trial_type":"html-keyboard-response","trial_index":64,"time_elapsed":1058326,"internal_node_id":"0.0-58.0","params":{"nStudents":24,"maxFlips":30,"completionMinutes":45,"basePay":8,"maxBonus":9,"perTrialBonus":0.5,"perTrialBonusThreshold":0.05,"exampleCost":0.01},"classroomParams":{"A":{"a":1,"b":4},"B":{"a":4,"b":1},"C":{"a":2,"b":8},"D":{"a":8,"b":2}},"conditions":["nonSeqFull","nonSeqPartial","seqNoFeedback","seqFeedback"],"classroomPairings":[["A","B"],["C","D"]],"coinWeights":[0.2,0.5,0.8],"subjectId":"AMLWYWZOMONLB","assignmentId":"3LEP4MGT3HM6XYLF87P2OG5C9WCBDN","hitId":"3SD15I2WD2G0NA4TSPXGB81L5S7630","url":"https://gershmanlab.com/experiments/alicia/teaching/experiment/?hitId=3SD15I2WD2G0NA4TSPXGB81L5S7630&workerId=AMLWYWZOMONLB&assignmentId=3LEP4MGT3HM6XYLF87P2OG5C9WCBDN&a=T4EL9&tp_a=T4EL9&b=3LEP4MGT3HM6XYLF87P2OG5C9WCBDN&tp_b=3LEP4MGT3HM6XYLF87P2OG5C9WCBDN&c=365799&tp_c=365799"},{"rt":null,"stimulus":"<div style=\"font-size:60px;\">Next student</div>","response":null,"trial_type":"html-keyboard-response","trial_index":65,"time_elapsed":1060830,"internal_node_id":"0.0-59.0-0.0","params":{"nStudents":24,"maxFlips":30,"completionMinutes":45,"basePay":8,"maxBonus":9,"perTrialBonus":0.5,"perTrialBonusThreshold":0.05,"exampleCost":0.01},"classroomParams":{"A":{"a":1,"b":4},"B":{"a":4,"b":1},"C":{"a":2,"b":8},"D":{"a":8,"b":2}},"conditions":["nonSeqFull","nonSeqPartial","seqNoFeedback","seqFeedback"],"classroomPairings":[["A","B"],["C","D"]],"coinWeights":[0.2,0.5,0.8],"subjectId":"AMLWYWZOMONLB","assignmentId":"3LEP4MGT3HM6XYLF87P2OG5C9WCBDN","hitId":"3SD15I2WD2G0NA4TSPXGB81L5S7630","url":"https://gershmanlab.com/experiments/alicia/teaching/experiment/?hitId=3SD15I2WD2G0NA4TSPXGB81L5S7630&workerId=AMLWYWZOMONLB&assignmentId=3LEP4MGT3HM6XYLF87P2OG5C9WCBDN&a=T4EL9&tp_a=T4EL9&b=3LEP4MGT3HM6XYLF87P2OG5C9WCBDN&tp_b=3LEP4MGT3HM6XYLF87P2OG5C9WCBDN&c=365799&tp_c=365799"},{"rt":3513,"stimulus":"\n            <h4 style=\"color:Orange;\">Student 9</h4>\n            <h2>The weight of your coin is <b style=\"color:Tomato;\">0.5</b>.</h2>\n            <p>In this block, you will be giving <b>one</b> set of examples to Student 9.</p>\n                <p>You will receive feedback at the end of the block.</p>\n            <p></p>","response":0,"trial_type":"html-button-response","trial_index":66,"time_elapsed":1064343,"internal_node_id":"0.0-60.0","params":{"nStudents":24,"maxFlips":30,"completionMinutes":45,"basePay":8,"maxBonus":9,"perTrialBonus":0.5,"perTrialBonusThreshold":0.05,"exampleCost":0.01},"classroomParams":{"A":{"a":1,"b":4},"B":{"a":4,"b":1},"C":{"a":2,"b":8},"D":{"a":8,"b":2}},"conditions":["nonSeqFull","nonSeqPartial","seqNoFeedback","seqFeedback"],"classroomPairings":[["A","B"],["C","D"]],"coinWeights":[0.2,0.5,0.8],"subjectId":"AMLWYWZOMONLB","assignmentId":"3LEP4MGT3HM6XYLF87P2OG5C9WCBDN","hitId":"3SD15I2WD2G0NA4TSPXGB81L5S7630","url":"https://gershmanlab.com/experiments/alicia/teaching/experiment/?hitId=3SD15I2WD2G0NA4TSPXGB81L5S7630&workerId=AMLWYWZOMONLB&assignmentId=3LEP4MGT3HM6XYLF87P2OG5C9WCBDN&a=T4EL9&tp_a=T4EL9&b=3LEP4MGT3HM6XYLF87P2OG5C9WCBDN&tp_b=3LEP4MGT3HM6XYLF87P2OG5C9WCBDN&c=365799&tp_c=365799"},{"rt":9141,"response":{"heads":"3","tails":"0"},"type":"response","condition":"nonSeqFull","trueTheta":0.5,"classrooms":["A","B"],"studentTrueClassroom":"A","exampleSet":"first","trial_type":"survey-html-form","trial_index":67,"time_elapsed":1073486,"internal_node_id":"0.0-61.0-0.0","params":{"nStudents":24,"maxFlips":30,"completionMinutes":45,"basePay":8,"maxBonus":9,"perTrialBonus":0.5,"perTrialBonusThreshold":0.05,"exampleCost":0.01},"classroomParams":{"A":{"a":1,"b":4},"B":{"a":4,"b":1},"C":{"a":2,"b":8},"D":{"a":8,"b":2}},"conditions":["nonSeqFull","nonSeqPartial","seqNoFeedback","seqFeedback"],"classroomPairings":[["A","B"],["C","D"]],"coinWeights":[0.2,0.5,0.8],"subjectId":"AMLWYWZOMONLB","assignmentId":"3LEP4MGT3HM6XYLF87P2OG5C9WCBDN","hitId":"3SD15I2WD2G0NA4TSPXGB81L5S7630","url":"https://gershmanlab.com/experiments/alicia/teaching/experiment/?hitId=3SD15I2WD2G0NA4TSPXGB81L5S7630&workerId=AMLWYWZOMONLB&assignmentId=3LEP4MGT3HM6XYLF87P2OG5C9WCBDN&a=T4EL9&tp_a=T4EL9&b=3LEP4MGT3HM6XYLF87P2OG5C9WCBDN&tp_b=3LEP4MGT3HM6XYLF87P2OG5C9WCBDN&c=365799&tp_c=365799","heads":3,"tails":0,"studentIndex":8,"studentTrueHypers":{"a":1,"b":4},"studentGuess":0.5,"delta":0,"totalExamples":3,"bonus":0.47,"bonusSoFar":3.33},{"rt":null,"stimulus":"Sending examples to student... ","response":null,"trial_type":"html-keyboard-response","trial_index":68,"time_elapsed":1075488,"internal_node_id":"0.0-62.0","params":{"nStudents":24,"maxFlips":30,"completionMinutes":45,"basePay":8,"maxBonus":9,"perTrialBonus":0.5,"perTrialBonusThreshold":0.05,"exampleCost":0.01},"classroomParams":{"A":{"a":1,"b":4},"B":{"a":4,"b":1},"C":{"a":2,"b":8},"D":{"a":8,"b":2}},"conditions":["nonSeqFull","nonSeqPartial","seqNoFeedback","seqFeedback"],"classroomPairings":[["A","B"],["C","D"]],"coinWeights":[0.2,0.5,0.8],"subjectId":"AMLWYWZOMONLB","assignmentId":"3LEP4MGT3HM6XYLF87P2OG5C9WCBDN","hitId":"3SD15I2WD2G0NA4TSPXGB81L5S7630","url":"https://gershmanlab.com/experiments/alicia/teaching/experiment/?hitId=3SD15I2WD2G0NA4TSPXGB81L5S7630&workerId=AMLWYWZOMONLB&assignmentId=3LEP4MGT3HM6XYLF87P2OG5C9WCBDN&a=T4EL9&tp_a=T4EL9&b=3LEP4MGT3HM6XYLF87P2OG5C9WCBDN&tp_b=3LEP4MGT3HM6XYLF87P2OG5C9WCBDN&c=365799&tp_c=365799"},{"rt":null,"stimulus":"Examples sent to student! Waiting for student...","response":null,"trial_type":"html-keyboard-response","trial_index":69,"time_elapsed":1079490,"internal_node_id":"0.0-63.0","params":{"nStudents":24,"maxFlips":30,"completionMinutes":45,"basePay":8,"maxBonus":9,"perTrialBonus":0.5,"perTrialBonusThreshold":0.05,"exampleCost":0.01},"classroomParams":{"A":{"a":1,"b":4},"B":{"a":4,"b":1},"C":{"a":2,"b":8},"D":{"a":8,"b":2}},"conditions":["nonSeqFull","nonSeqPartial","seqNoFeedback","seqFeedback"],"classroomPairings":[["A","B"],["C","D"]],"coinWeights":[0.2,0.5,0.8],"subjectId":"AMLWYWZOMONLB","assignmentId":"3LEP4MGT3HM6XYLF87P2OG5C9WCBDN","hitId":"3SD15I2WD2G0NA4TSPXGB81L5S7630","url":"https://gershmanlab.com/experiments/alicia/teaching/experiment/?hitId=3SD15I2WD2G0NA4TSPXGB81L5S7630&workerId=AMLWYWZOMONLB&assignmentId=3LEP4MGT3HM6XYLF87P2OG5C9WCBDN&a=T4EL9&tp_a=T4EL9&b=3LEP4MGT3HM6XYLF87P2OG5C9WCBDN&tp_b=3LEP4MGT3HM6XYLF87P2OG5C9WCBDN&c=365799&tp_c=365799"},{"rt":2650,"stimulus":"\n                <p>Student's guess for coin weight: <b style=\"color:Tomato;\">0.50</b></p>\n                <p>You received a bonus of <b>$0.47</b>. Total bonus so far: <b>$3.33</b></b></p>\n                <p></p>\n                <p>Press any key to continue.</p>\n                ","response":" ","trial_type":"html-keyboard-response","trial_index":70,"time_elapsed":1082141,"internal_node_id":"0.0-64.0","params":{"nStudents":24,"maxFlips":30,"completionMinutes":45,"basePay":8,"maxBonus":9,"perTrialBonus":0.5,"perTrialBonusThreshold":0.05,"exampleCost":0.01},"classroomParams":{"A":{"a":1,"b":4},"B":{"a":4,"b":1},"C":{"a":2,"b":8},"D":{"a":8,"b":2}},"conditions":["nonSeqFull","nonSeqPartial","seqNoFeedback","seqFeedback"],"classroomPairings":[["A","B"],["C","D"]],"coinWeights":[0.2,0.5,0.8],"subjectId":"AMLWYWZOMONLB","assignmentId":"3LEP4MGT3HM6XYLF87P2OG5C9WCBDN","hitId":"3SD15I2WD2G0NA4TSPXGB81L5S7630","url":"https://gershmanlab.com/experiments/alicia/teaching/experiment/?hitId=3SD15I2WD2G0NA4TSPXGB81L5S7630&workerId=AMLWYWZOMONLB&assignmentId=3LEP4MGT3HM6XYLF87P2OG5C9WCBDN&a=T4EL9&tp_a=T4EL9&b=3LEP4MGT3HM6XYLF87P2OG5C9WCBDN&tp_b=3LEP4MGT3HM6XYLF87P2OG5C9WCBDN&c=365799&tp_c=365799"},{"rt":null,"stimulus":"<div style=\"font-size:60px;\">Next student</div>","response":null,"trial_type":"html-keyboard-response","trial_index":71,"time_elapsed":1084146,"internal_node_id":"0.0-65.0-0.0","params":{"nStudents":24,"maxFlips":30,"completionMinutes":45,"basePay":8,"maxBonus":9,"perTrialBonus":0.5,"perTrialBonusThreshold":0.05,"exampleCost":0.01},"classroomParams":{"A":{"a":1,"b":4},"B":{"a":4,"b":1},"C":{"a":2,"b":8},"D":{"a":8,"b":2}},"conditions":["nonSeqFull","nonSeqPartial","seqNoFeedback","seqFeedback"],"classroomPairings":[["A","B"],["C","D"]],"coinWeights":[0.2,0.5,0.8],"subjectId":"AMLWYWZOMONLB","assignmentId":"3LEP4MGT3HM6XYLF87P2OG5C9WCBDN","hitId":"3SD15I2WD2G0NA4TSPXGB81L5S7630","url":"https://gershmanlab.com/experiments/alicia/teaching/experiment/?hitId=3SD15I2WD2G0NA4TSPXGB81L5S7630&workerId=AMLWYWZOMONLB&assignmentId=3LEP4MGT3HM6XYLF87P2OG5C9WCBDN&a=T4EL9&tp_a=T4EL9&b=3LEP4MGT3HM6XYLF87P2OG5C9WCBDN&tp_b=3LEP4MGT3HM6XYLF87P2OG5C9WCBDN&c=365799&tp_c=365799"},{"rt":5109,"stimulus":"\n            <h4 style=\"color:Orange;\">Student 10</h4>\n            <h2>The weight of your coin is <b style=\"color:Tomato;\">0.5</b>.</h2>\n            <p>In this block, you will be giving <b>two</b> sets of examples to Student 10.</p>\n                <p>You will see the student's guess after the first set of examples. You will also receive feedback at the end of the block.</p>\n            <p>To earn the highest bonus, you will have to <b>take into consideration the student's guess</b> when you choose your second set of examples.</p>","response":0,"trial_type":"html-button-response","trial_index":72,"time_elapsed":1089256,"internal_node_id":"0.0-66.0","params":{"nStudents":24,"maxFlips":30,"completionMinutes":45,"basePay":8,"maxBonus":9,"perTrialBonus":0.5,"perTrialBonusThreshold":0.05,"exampleCost":0.01},"classroomParams":{"A":{"a":1,"b":4},"B":{"a":4,"b":1},"C":{"a":2,"b":8},"D":{"a":8,"b":2}},"conditions":["nonSeqFull","nonSeqPartial","seqNoFeedback","seqFeedback"],"classroomPairings":[["A","B"],["C","D"]],"coinWeights":[0.2,0.5,0.8],"subjectId":"AMLWYWZOMONLB","assignmentId":"3LEP4MGT3HM6XYLF87P2OG5C9WCBDN","hitId":"3SD15I2WD2G0NA4TSPXGB81L5S7630","url":"https://gershmanlab.com/experiments/alicia/teaching/experiment/?hitId=3SD15I2WD2G0NA4TSPXGB81L5S7630&workerId=AMLWYWZOMONLB&assignmentId=3LEP4MGT3HM6XYLF87P2OG5C9WCBDN&a=T4EL9&tp_a=T4EL9&b=3LEP4MGT3HM6XYLF87P2OG5C9WCBDN&tp_b=3LEP4MGT3HM6XYLF87P2OG5C9WCBDN&c=365799&tp_c=365799"},{"rt":22665,"response":{"heads":"1","tails":"1"},"type":"response","condition":"seqFeedback","trueTheta":0.5,"classrooms":["C","D"],"studentTrueClassroom":"C","exampleSet":"first","trial_type":"survey-html-form","trial_index":73,"time_elapsed":1111922,"internal_node_id":"0.0-67.0-0.0","params":{"nStudents":24,"maxFlips":30,"completionMinutes":45,"basePay":8,"maxBonus":9,"perTrialBonus":0.5,"perTrialBonusThreshold":0.05,"exampleCost":0.01},"classroomParams":{"A":{"a":1,"b":4},"B":{"a":4,"b":1},"C":{"a":2,"b":8},"D":{"a":8,"b":2}},"conditions":["nonSeqFull","nonSeqPartial","seqNoFeedback","seqFeedback"],"classroomPairings":[["A","B"],["C","D"]],"coinWeights":[0.2,0.5,0.8],"subjectId":"AMLWYWZOMONLB","assignmentId":"3LEP4MGT3HM6XYLF87P2OG5C9WCBDN","hitId":"3SD15I2WD2G0NA4TSPXGB81L5S7630","url":"https://gershmanlab.com/experiments/alicia/teaching/experiment/?hitId=3SD15I2WD2G0NA4TSPXGB81L5S7630&workerId=AMLWYWZOMONLB&assignmentId=3LEP4MGT3HM6XYLF87P2OG5C9WCBDN&a=T4EL9&tp_a=T4EL9&b=3LEP4MGT3HM6XYLF87P2OG5C9WCBDN&tp_b=3LEP4MGT3HM6XYLF87P2OG5C9WCBDN&c=365799&tp_c=365799","heads":1,"tails":1,"studentIndex":9,"studentTrueHypers":{"a":2,"b":8},"studentGuess":0.25,"delta":0.25,"totalExamples":2,"bonusSoFar":3.33},{"rt":null,"stimulus":"Sending examples to student... ","response":null,"trial_type":"html-keyboard-response","trial_index":74,"time_elapsed":1113673,"internal_node_id":"0.0-68.0","params":{"nStudents":24,"maxFlips":30,"completionMinutes":45,"basePay":8,"maxBonus":9,"perTrialBonus":0.5,"perTrialBonusThreshold":0.05,"exampleCost":0.01},"classroomParams":{"A":{"a":1,"b":4},"B":{"a":4,"b":1},"C":{"a":2,"b":8},"D":{"a":8,"b":2}},"conditions":["nonSeqFull","nonSeqPartial","seqNoFeedback","seqFeedback"],"classroomPairings":[["A","B"],["C","D"]],"coinWeights":[0.2,0.5,0.8],"subjectId":"AMLWYWZOMONLB","assignmentId":"3LEP4MGT3HM6XYLF87P2OG5C9WCBDN","hitId":"3SD15I2WD2G0NA4TSPXGB81L5S7630","url":"https://gershmanlab.com/experiments/alicia/teaching/experiment/?hitId=3SD15I2WD2G0NA4TSPXGB81L5S7630&workerId=AMLWYWZOMONLB&assignmentId=3LEP4MGT3HM6XYLF87P2OG5C9WCBDN&a=T4EL9&tp_a=T4EL9&b=3LEP4MGT3HM6XYLF87P2OG5C9WCBDN&tp_b=3LEP4MGT3HM6XYLF87P2OG5C9WCBDN&c=365799&tp_c=365799"},{"rt":null,"stimulus":"Examples sent to student! Waiting for student...","response":null,"trial_type":"html-keyboard-response","trial_index":75,"time_elapsed":1118677,"internal_node_id":"0.0-69.0","params":{"nStudents":24,"maxFlips":30,"completionMinutes":45,"basePay":8,"maxBonus":9,"perTrialBonus":0.5,"perTrialBonusThreshold":0.05,"exampleCost":0.01},"classroomParams":{"A":{"a":1,"b":4},"B":{"a":4,"b":1},"C":{"a":2,"b":8},"D":{"a":8,"b":2}},"conditions":["nonSeqFull","nonSeqPartial","seqNoFeedback","seqFeedback"],"classroomPairings":[["A","B"],["C","D"]],"coinWeights":[0.2,0.5,0.8],"subjectId":"AMLWYWZOMONLB","assignmentId":"3LEP4MGT3HM6XYLF87P2OG5C9WCBDN","hitId":"3SD15I2WD2G0NA4TSPXGB81L5S7630","url":"https://gershmanlab.com/experiments/alicia/teaching/experiment/?hitId=3SD15I2WD2G0NA4TSPXGB81L5S7630&workerId=AMLWYWZOMONLB&assignmentId=3LEP4MGT3HM6XYLF87P2OG5C9WCBDN&a=T4EL9&tp_a=T4EL9&b=3LEP4MGT3HM6XYLF87P2OG5C9WCBDN&tp_b=3LEP4MGT3HM6XYLF87P2OG5C9WCBDN&c=365799&tp_c=365799"},{"rt":11485,"stimulus":"\n                <p>Student's guess for coin weight: <b style=\"color:Tomato;\">0.25</b></p>\n                <p></b></p>\n                <p>You will now send another set of examples to your student. <b>Remember to take your student's guess into consideration so that you can earn the highest bonus possible!</b> </p>\n                <p>Press any key to continue.</p>\n                ","response":" ","trial_type":"html-keyboard-response","trial_index":76,"time_elapsed":1130164,"internal_node_id":"0.0-70.0","params":{"nStudents":24,"maxFlips":30,"completionMinutes":45,"basePay":8,"maxBonus":9,"perTrialBonus":0.5,"perTrialBonusThreshold":0.05,"exampleCost":0.01},"classroomParams":{"A":{"a":1,"b":4},"B":{"a":4,"b":1},"C":{"a":2,"b":8},"D":{"a":8,"b":2}},"conditions":["nonSeqFull","nonSeqPartial","seqNoFeedback","seqFeedback"],"classroomPairings":[["A","B"],["C","D"]],"coinWeights":[0.2,0.5,0.8],"subjectId":"AMLWYWZOMONLB","assignmentId":"3LEP4MGT3HM6XYLF87P2OG5C9WCBDN","hitId":"3SD15I2WD2G0NA4TSPXGB81L5S7630","url":"https://gershmanlab.com/experiments/alicia/teaching/experiment/?hitId=3SD15I2WD2G0NA4TSPXGB81L5S7630&workerId=AMLWYWZOMONLB&assignmentId=3LEP4MGT3HM6XYLF87P2OG5C9WCBDN&a=T4EL9&tp_a=T4EL9&b=3LEP4MGT3HM6XYLF87P2OG5C9WCBDN&tp_b=3LEP4MGT3HM6XYLF87P2OG5C9WCBDN&c=365799&tp_c=365799"},{"rt":15938,"response":{"heads":"6","tails":"0"},"type":"response","condition":"seqFeedback","trueTheta":0.5,"classrooms":["C","D"],"studentTrueClassroom":"C","exampleSet":"second","trial_type":"survey-html-form","trial_index":77,"time_elapsed":1146103,"internal_node_id":"0.0-71.0-0.0","params":{"nStudents":24,"maxFlips":30,"completionMinutes":45,"basePay":8,"maxBonus":9,"perTrialBonus":0.5,"perTrialBonusThreshold":0.05,"exampleCost":0.01},"classroomParams":{"A":{"a":1,"b":4},"B":{"a":4,"b":1},"C":{"a":2,"b":8},"D":{"a":8,"b":2}},"conditions":["nonSeqFull","nonSeqPartial","seqNoFeedback","seqFeedback"],"classroomPairings":[["A","B"],["C","D"]],"coinWeights":[0.2,0.5,0.8],"subjectId":"AMLWYWZOMONLB","assignmentId":"3LEP4MGT3HM6XYLF87P2OG5C9WCBDN","hitId":"3SD15I2WD2G0NA4TSPXGB81L5S7630","url":"https://gershmanlab.com/experiments/alicia/teaching/experiment/?hitId=3SD15I2WD2G0NA4TSPXGB81L5S7630&workerId=AMLWYWZOMONLB&assignmentId=3LEP4MGT3HM6XYLF87P2OG5C9WCBDN&a=T4EL9&tp_a=T4EL9&b=3LEP4MGT3HM6XYLF87P2OG5C9WCBDN&tp_b=3LEP4MGT3HM6XYLF87P2OG5C9WCBDN&c=365799&tp_c=365799","firstResponseHeads":1,"firstResponseTails":1,"secondResponseHeads":6,"secondResponseTails":0,"totalHeads":7,"totalTails":1,"studentIndex":9,"studentTrueHypers":{"a":2,"b":8},"studentGuess":0.5,"delta":0,"bonus":0.42,"bonusSoFar":3.75,"totalExamples":8},{"rt":null,"stimulus":"Sending examples to student... ","response":null,"trial_type":"html-keyboard-response","trial_index":78,"time_elapsed":1147606,"internal_node_id":"0.0-72.0","params":{"nStudents":24,"maxFlips":30,"completionMinutes":45,"basePay":8,"maxBonus":9,"perTrialBonus":0.5,"perTrialBonusThreshold":0.05,"exampleCost":0.01},"classroomParams":{"A":{"a":1,"b":4},"B":{"a":4,"b":1},"C":{"a":2,"b":8},"D":{"a":8,"b":2}},"conditions":["nonSeqFull","nonSeqPartial","seqNoFeedback","seqFeedback"],"classroomPairings":[["A","B"],["C","D"]],"coinWeights":[0.2,0.5,0.8],"subjectId":"AMLWYWZOMONLB","assignmentId":"3LEP4MGT3HM6XYLF87P2OG5C9WCBDN","hitId":"3SD15I2WD2G0NA4TSPXGB81L5S7630","url":"https://gershmanlab.com/experiments/alicia/teaching/experiment/?hitId=3SD15I2WD2G0NA4TSPXGB81L5S7630&workerId=AMLWYWZOMONLB&assignmentId=3LEP4MGT3HM6XYLF87P2OG5C9WCBDN&a=T4EL9&tp_a=T4EL9&b=3LEP4MGT3HM6XYLF87P2OG5C9WCBDN&tp_b=3LEP4MGT3HM6XYLF87P2OG5C9WCBDN&c=365799&tp_c=365799"},{"rt":null,"stimulus":"Examples sent to student! Waiting for student...","response":null,"trial_type":"html-keyboard-response","trial_index":79,"time_elapsed":1153110,"internal_node_id":"0.0-73.0","params":{"nStudents":24,"maxFlips":30,"completionMinutes":45,"basePay":8,"maxBonus":9,"perTrialBonus":0.5,"perTrialBonusThreshold":0.05,"exampleCost":0.01},"classroomParams":{"A":{"a":1,"b":4},"B":{"a":4,"b":1},"C":{"a":2,"b":8},"D":{"a":8,"b":2}},"conditions":["nonSeqFull","nonSeqPartial","seqNoFeedback","seqFeedback"],"classroomPairings":[["A","B"],["C","D"]],"coinWeights":[0.2,0.5,0.8],"subjectId":"AMLWYWZOMONLB","assignmentId":"3LEP4MGT3HM6XYLF87P2OG5C9WCBDN","hitId":"3SD15I2WD2G0NA4TSPXGB81L5S7630","url":"https://gershmanlab.com/experiments/alicia/teaching/experiment/?hitId=3SD15I2WD2G0NA4TSPXGB81L5S7630&workerId=AMLWYWZOMONLB&assignmentId=3LEP4MGT3HM6XYLF87P2OG5C9WCBDN&a=T4EL9&tp_a=T4EL9&b=3LEP4MGT3HM6XYLF87P2OG5C9WCBDN&tp_b=3LEP4MGT3HM6XYLF87P2OG5C9WCBDN&c=365799&tp_c=365799"},{"rt":3153,"stimulus":"\n                <p>Student 10's first guess for coin weight: <b style=\"color:Tomato\";>0.25</b></p>\n                <p>Student 10's second guess for coin weight: <b style=\"color:Tomato\";>0.50</b></p>\n                <p>You received a bonus of <b>$0.42</b> based on the student's second guess.</p>\n                <p>Total bonus so far: <b>$3.75</b></p>\n                <p>Press any key to continue.</p>\n                ","response":" ","trial_type":"html-keyboard-response","trial_index":80,"time_elapsed":1156265,"internal_node_id":"0.0-74.0","params":{"nStudents":24,"maxFlips":30,"completionMinutes":45,"basePay":8,"maxBonus":9,"perTrialBonus":0.5,"perTrialBonusThreshold":0.05,"exampleCost":0.01},"classroomParams":{"A":{"a":1,"b":4},"B":{"a":4,"b":1},"C":{"a":2,"b":8},"D":{"a":8,"b":2}},"conditions":["nonSeqFull","nonSeqPartial","seqNoFeedback","seqFeedback"],"classroomPairings":[["A","B"],["C","D"]],"coinWeights":[0.2,0.5,0.8],"subjectId":"AMLWYWZOMONLB","assignmentId":"3LEP4MGT3HM6XYLF87P2OG5C9WCBDN","hitId":"3SD15I2WD2G0NA4TSPXGB81L5S7630","url":"https://gershmanlab.com/experiments/alicia/teaching/experiment/?hitId=3SD15I2WD2G0NA4TSPXGB81L5S7630&workerId=AMLWYWZOMONLB&assignmentId=3LEP4MGT3HM6XYLF87P2OG5C9WCBDN&a=T4EL9&tp_a=T4EL9&b=3LEP4MGT3HM6XYLF87P2OG5C9WCBDN&tp_b=3LEP4MGT3HM6XYLF87P2OG5C9WCBDN&c=365799&tp_c=365799"},{"rt":null,"stimulus":"<div style=\"font-size:60px;\">Next student</div>","response":null,"trial_type":"html-keyboard-response","trial_index":81,"time_elapsed":1158767,"internal_node_id":"0.0-75.0-0.0","params":{"nStudents":24,"maxFlips":30,"completionMinutes":45,"basePay":8,"maxBonus":9,"perTrialBonus":0.5,"perTrialBonusThreshold":0.05,"exampleCost":0.01},"classroomParams":{"A":{"a":1,"b":4},"B":{"a":4,"b":1},"C":{"a":2,"b":8},"D":{"a":8,"b":2}},"conditions":["nonSeqFull","nonSeqPartial","seqNoFeedback","seqFeedback"],"classroomPairings":[["A","B"],["C","D"]],"coinWeights":[0.2,0.5,0.8],"subjectId":"AMLWYWZOMONLB","assignmentId":"3LEP4MGT3HM6XYLF87P2OG5C9WCBDN","hitId":"3SD15I2WD2G0NA4TSPXGB81L5S7630","url":"https://gershmanlab.com/experiments/alicia/teaching/experiment/?hitId=3SD15I2WD2G0NA4TSPXGB81L5S7630&workerId=AMLWYWZOMONLB&assignmentId=3LEP4MGT3HM6XYLF87P2OG5C9WCBDN&a=T4EL9&tp_a=T4EL9&b=3LEP4MGT3HM6XYLF87P2OG5C9WCBDN&tp_b=3LEP4MGT3HM6XYLF87P2OG5C9WCBDN&c=365799&tp_c=365799"},{"rt":4748,"stimulus":"\n            <h4 style=\"color:Orange;\">Student 11</h4>\n            <h2>The weight of your coin is <b style=\"color:Tomato;\">0.2</b>.</h2>\n            <p>In this block, you will be giving <b>one</b> set of examples to Student 11.</p>\n                <p>You will receive feedback at the end of the block.</p>\n            <p></p>","response":0,"trial_type":"html-button-response","trial_index":82,"time_elapsed":1163517,"internal_node_id":"0.0-76.0","params":{"nStudents":24,"maxFlips":30,"completionMinutes":45,"basePay":8,"maxBonus":9,"perTrialBonus":0.5,"perTrialBonusThreshold":0.05,"exampleCost":0.01},"classroomParams":{"A":{"a":1,"b":4},"B":{"a":4,"b":1},"C":{"a":2,"b":8},"D":{"a":8,"b":2}},"conditions":["nonSeqFull","nonSeqPartial","seqNoFeedback","seqFeedback"],"classroomPairings":[["A","B"],["C","D"]],"coinWeights":[0.2,0.5,0.8],"subjectId":"AMLWYWZOMONLB","assignmentId":"3LEP4MGT3HM6XYLF87P2OG5C9WCBDN","hitId":"3SD15I2WD2G0NA4TSPXGB81L5S7630","url":"https://gershmanlab.com/experiments/alicia/teaching/experiment/?hitId=3SD15I2WD2G0NA4TSPXGB81L5S7630&workerId=AMLWYWZOMONLB&assignmentId=3LEP4MGT3HM6XYLF87P2OG5C9WCBDN&a=T4EL9&tp_a=T4EL9&b=3LEP4MGT3HM6XYLF87P2OG5C9WCBDN&tp_b=3LEP4MGT3HM6XYLF87P2OG5C9WCBDN&c=365799&tp_c=365799"},{"rt":20100,"response":{"heads":"1","tails":"4"},"type":"response","condition":"nonSeqFull","trueTheta":0.2,"classrooms":["C","D"],"studentTrueClassroom":"C","exampleSet":"first","trial_type":"survey-html-form","trial_index":83,"time_elapsed":1183618,"internal_node_id":"0.0-77.0-0.0","params":{"nStudents":24,"maxFlips":30,"completionMinutes":45,"basePay":8,"maxBonus":9,"perTrialBonus":0.5,"perTrialBonusThreshold":0.05,"exampleCost":0.01},"classroomParams":{"A":{"a":1,"b":4},"B":{"a":4,"b":1},"C":{"a":2,"b":8},"D":{"a":8,"b":2}},"conditions":["nonSeqFull","nonSeqPartial","seqNoFeedback","seqFeedback"],"classroomPairings":[["A","B"],["C","D"]],"coinWeights":[0.2,0.5,0.8],"subjectId":"AMLWYWZOMONLB","assignmentId":"3LEP4MGT3HM6XYLF87P2OG5C9WCBDN","hitId":"3SD15I2WD2G0NA4TSPXGB81L5S7630","url":"https://gershmanlab.com/experiments/alicia/teaching/experiment/?hitId=3SD15I2WD2G0NA4TSPXGB81L5S7630&workerId=AMLWYWZOMONLB&assignmentId=3LEP4MGT3HM6XYLF87P2OG5C9WCBDN&a=T4EL9&tp_a=T4EL9&b=3LEP4MGT3HM6XYLF87P2OG5C9WCBDN&tp_b=3LEP4MGT3HM6XYLF87P2OG5C9WCBDN&c=365799&tp_c=365799","heads":1,"tails":4,"studentIndex":10,"studentTrueHypers":{"a":2,"b":8},"studentGuess":0.2,"delta":0,"totalExamples":5,"bonus":0.45,"bonusSoFar":4.2},{"rt":null,"stimulus":"Sending examples to student... ","response":null,"trial_type":"html-keyboard-response","trial_index":84,"time_elapsed":1184870,"internal_node_id":"0.0-78.0","params":{"nStudents":24,"maxFlips":30,"completionMinutes":45,"basePay":8,"maxBonus":9,"perTrialBonus":0.5,"perTrialBonusThreshold":0.05,"exampleCost":0.01},"classroomParams":{"A":{"a":1,"b":4},"B":{"a":4,"b":1},"C":{"a":2,"b":8},"D":{"a":8,"b":2}},"conditions":["nonSeqFull","nonSeqPartial","seqNoFeedback","seqFeedback"],"classroomPairings":[["A","B"],["C","D"]],"coinWeights":[0.2,0.5,0.8],"subjectId":"AMLWYWZOMONLB","assignmentId":"3LEP4MGT3HM6XYLF87P2OG5C9WCBDN","hitId":"3SD15I2WD2G0NA4TSPXGB81L5S7630","url":"https://gershmanlab.com/experiments/alicia/teaching/experiment/?hitId=3SD15I2WD2G0NA4TSPXGB81L5S7630&workerId=AMLWYWZOMONLB&assignmentId=3LEP4MGT3HM6XYLF87P2OG5C9WCBDN&a=T4EL9&tp_a=T4EL9&b=3LEP4MGT3HM6XYLF87P2OG5C9WCBDN&tp_b=3LEP4MGT3HM6XYLF87P2OG5C9WCBDN&c=365799&tp_c=365799"},{"rt":null,"stimulus":"Examples sent to student! Waiting for student...","response":null,"trial_type":"html-keyboard-response","trial_index":85,"time_elapsed":1188872,"internal_node_id":"0.0-79.0","params":{"nStudents":24,"maxFlips":30,"completionMinutes":45,"basePay":8,"maxBonus":9,"perTrialBonus":0.5,"perTrialBonusThreshold":0.05,"exampleCost":0.01},"classroomParams":{"A":{"a":1,"b":4},"B":{"a":4,"b":1},"C":{"a":2,"b":8},"D":{"a":8,"b":2}},"conditions":["nonSeqFull","nonSeqPartial","seqNoFeedback","seqFeedback"],"classroomPairings":[["A","B"],["C","D"]],"coinWeights":[0.2,0.5,0.8],"subjectId":"AMLWYWZOMONLB","assignmentId":"3LEP4MGT3HM6XYLF87P2OG5C9WCBDN","hitId":"3SD15I2WD2G0NA4TSPXGB81L5S7630","url":"https://gershmanlab.com/experiments/alicia/teaching/experiment/?hitId=3SD15I2WD2G0NA4TSPXGB81L5S7630&workerId=AMLWYWZOMONLB&assignmentId=3LEP4MGT3HM6XYLF87P2OG5C9WCBDN&a=T4E