[{"rt":null,"stimulus":"Welcome to the experiment. Press any key to begin.","response":null,"trial_type":"html-keyboard-response","trial_index":0,"time_elapsed":30349,"internal_node_id":"0.0-0.0","params":{"nStudents":24,"maxFlips":30,"completionMinutes":45,"basePay":8,"maxBonus":9,"perTrialBonus":0.5,"perTrialBonusThreshold":0.05,"exampleCost":0.01},"classroomParams":{"A":{"a":1,"b":4},"B":{"a":4,"b":1},"C":{"a":2,"b":8},"D":{"a":8,"b":2}},"conditions":["nonSeqFull","nonSeqPartial","seqNoFeedback","seqFeedback"],"classroomPairings":[["A","B"],["C","D"]],"coinWeights":[0.2,0.5,0.8],"subjectId":"ANK8K5WTHJ61C","assignmentId":"30MVJZJNHNZ0CR6AKJXH085ZQG8J91","hitId":"3JGHED38EDDK7DFM0KVY7GXU94LY7W","url":"https://gershmanlab.com/experiments/alicia/teaching/experiment/?hitId=3JGHED38EDDK7DFM0KVY7GXU94LY7W&workerId=ANK8K5WTHJ61C&assignmentId=30MVJZJNHNZ0CR6AKJXH085ZQG8J91&a=NJM09&tp_a=NJM09&b=30MVJZJNHNZ0CR6AKJXH085ZQG8J91&tp_b=30MVJZJNHNZ0CR6AKJXH085ZQG8J91&c=365799&tp_c=365799"},{"rt":37013,"stimulus":"\n        <h3>Please read this consent agreement carefully before deciding whether to participate in this experiment.</h3>\n        <p><b>Purpose of the research:</b> To examine how people teach effectively.</p>\n        <p><b>What you will do in this research:</b> You will teach students the weights of different coins.</p>\n        <p><b>Time required:</b> This experiment will take 45 minutes to complete.</p>\n        <p><b>Risks:</b> There are no anticipated risks associated with participating in this study.             The effects of participating should be comparable to those you would experience from viewing a computer monitor             and using a mouse and keyboard for the duration of the experiment.</p>\n        <p><b>Benefits:</b> The study provides important information about the nature of teaching.</p>\n        <p><b>Compensation:</b> You will receive <b>$8</b> for completing the experiment and a performance bonus of up to <b>$9</b>.</p>\n        <p><b>Confidentiality:</b> Your participation in this study will remain confidential.             No personally identifiable information will be associated with your data.             Your de-identified data may be shared with other researchers and used in future projects.</p>\n        <p><b>Participation and withdrawal:</b> Your participation in this study is completely voluntary and             you may refuse to participate or you may choose to withdraw at any time without penalty or loss of\n            benefits to which you are otherwise entitled.</p>\n        <p><b>How to contact the researcher:</b> If you have questions or concerns about your participation            or payment, or want to request a summary of research findings, please contact\n            Alicia Chen, aliciachen@college.harvard.edu.</p>\n        <p><b>Whom to contact about your rights in this research:</b> For questions, concerns, suggestions,             or complaints that have not been or cannot be addressed by the researcher, or to report             research-related harm, please contact the Committee on the Use of Human Subjects in Research at Harvard University,             1414 Massachusetts Avenue, Second Floor, Cambridge, MA 02138. Phone: 617-496-2847. Email: cuhs@fas.harvard.edu.</p>\n        ","response":0,"trial_type":"html-button-response","trial_index":1,"time_elapsed":67363,"internal_node_id":"0.0-1.0","params":{"nStudents":24,"maxFlips":30,"completionMinutes":45,"basePay":8,"maxBonus":9,"perTrialBonus":0.5,"perTrialBonusThreshold":0.05,"exampleCost":0.01},"classroomParams":{"A":{"a":1,"b":4},"B":{"a":4,"b":1},"C":{"a":2,"b":8},"D":{"a":8,"b":2}},"conditions":["nonSeqFull","nonSeqPartial","seqNoFeedback","seqFeedback"],"classroomPairings":[["A","B"],["C","D"]],"coinWeights":[0.2,0.5,0.8],"subjectId":"ANK8K5WTHJ61C","assignmentId":"30MVJZJNHNZ0CR6AKJXH085ZQG8J91","hitId":"3JGHED38EDDK7DFM0KVY7GXU94LY7W","url":"https://gershmanlab.com/experiments/alicia/teaching/experiment/?hitId=3JGHED38EDDK7DFM0KVY7GXU94LY7W&workerId=ANK8K5WTHJ61C&assignmentId=30MVJZJNHNZ0CR6AKJXH085ZQG8J91&a=NJM09&tp_a=NJM09&b=30MVJZJNHNZ0CR6AKJXH085ZQG8J91&tp_b=30MVJZJNHNZ0CR6AKJXH085ZQG8J91&c=365799&tp_c=365799"},{"view_history":[{"page_index":0,"viewing_time":5782},{"page_index":1,"viewing_time":2983},{"page_index":2,"viewing_time":1528286},{"page_index":3,"viewing_time":386027},{"page_index":4,"viewing_time":20634},{"page_index":5,"viewing_time":22384},{"page_index":6,"viewing_time":58885}],"rt":2024981,"trial_type":"instructions","trial_index":2,"time_elapsed":2092320,"internal_node_id":"0.0-2.0-0.0","params":{"nStudents":24,"maxFlips":30,"completionMinutes":45,"basePay":8,"maxBonus":9,"perTrialBonus":0.5,"perTrialBonusThreshold":0.05,"exampleCost":0.01},"classroomParams":{"A":{"a":1,"b":4},"B":{"a":4,"b":1},"C":{"a":2,"b":8},"D":{"a":8,"b":2}},"conditions":["nonSeqFull","nonSeqPartial","seqNoFeedback","seqFeedback"],"classroomPairings":[["A","B"],["C","D"]],"coinWeights":[0.2,0.5,0.8],"subjectId":"ANK8K5WTHJ61C","assignmentId":"30MVJZJNHNZ0CR6AKJXH085ZQG8J91","hitId":"3JGHED38EDDK7DFM0KVY7GXU94LY7W","url":"https://gershmanlab.com/experiments/alicia/teaching/experiment/?hitId=3JGHED38EDDK7DFM0KVY7GXU94LY7W&workerId=ANK8K5WTHJ61C&assignmentId=30MVJZJNHNZ0CR6AKJXH085ZQG8J91&a=NJM09&tp_a=NJM09&b=30MVJZJNHNZ0CR6AKJXH085ZQG8J91&tp_b=30MVJZJNHNZ0CR6AKJXH085ZQG8J91&c=365799&tp_c=365799"},{"rt":201300,"response":{"Q0":"Students in different classrooms will have seen a different number of heads and tails before seeing the examples you select for them.","Q1":"By <b>considering the student's classroom information</b> so that I can teach efficiently and accurately/helpfully at the same time (because each example I give to the student costs money!).","Q2":"The coin lands heads 90% of the time.","Q3":"Yes, I might encounter the same student twice.","Q4":"The students are also on the same alien planet as you, where coins can be unfair.","Q5":"Based on the student's second (and final) guess."},"question_order":[2,0,4,5,3,1],"trial_type":"survey-multi-choice","trial_index":3,"time_elapsed":2293621,"internal_node_id":"0.0-2.0-1.0","params":{"nStudents":24,"maxFlips":30,"completionMinutes":45,"basePay":8,"maxBonus":9,"perTrialBonus":0.5,"perTrialBonusThreshold":0.05,"exampleCost":0.01},"classroomParams":{"A":{"a":1,"b":4},"B":{"a":4,"b":1},"C":{"a":2,"b":8},"D":{"a":8,"b":2}},"conditions":["nonSeqFull","nonSeqPartial","seqNoFeedback","seqFeedback"],"classroomPairings":[["A","B"],["C","D"]],"coinWeights":[0.2,0.5,0.8],"subjectId":"ANK8K5WTHJ61C","assignmentId":"30MVJZJNHNZ0CR6AKJXH085ZQG8J91","hitId":"3JGHED38EDDK7DFM0KVY7GXU94LY7W","url":"https://gershmanlab.com/experiments/alicia/teaching/experiment/?hitId=3JGHED38EDDK7DFM0KVY7GXU94LY7W&workerId=ANK8K5WTHJ61C&assignmentId=30MVJZJNHNZ0CR6AKJXH085ZQG8J91&a=NJM09&tp_a=NJM09&b=30MVJZJNHNZ0CR6AKJXH085ZQG8J91&tp_b=30MVJZJNHNZ0CR6AKJXH085ZQG8J91&c=365799&tp_c=365799","pass":false},{"rt":1996,"stimulus":"Oops, you have missed question(s) on the comprehension check! We'll show you the instructions again.","response":0,"trial_type":"html-button-response","trial_index":4,"time_elapsed":2295622,"internal_node_id":"0.0-2.0-2.0-0.0","params":{"nStudents":24,"maxFlips":30,"completionMinutes":45,"basePay":8,"maxBonus":9,"perTrialBonus":0.5,"perTrialBonusThreshold":0.05,"exampleCost":0.01},"classroomParams":{"A":{"a":1,"b":4},"B":{"a":4,"b":1},"C":{"a":2,"b":8},"D":{"a":8,"b":2}},"conditions":["nonSeqFull","nonSeqPartial","seqNoFeedback","seqFeedback"],"classroomPairings":[["A","B"],["C","D"]],"coinWeights":[0.2,0.5,0.8],"subjectId":"ANK8K5WTHJ61C","assignmentId":"30MVJZJNHNZ0CR6AKJXH085ZQG8J91","hitId":"3JGHED38EDDK7DFM0KVY7GXU94LY7W","url":"https://gershmanlab.com/experiments/alicia/teaching/experiment/?hitId=3JGHED38EDDK7DFM0KVY7GXU94LY7W&workerId=ANK8K5WTHJ61C&assignmentId=30MVJZJNHNZ0CR6AKJXH085ZQG8J91&a=NJM09&tp_a=NJM09&b=30MVJZJNHNZ0CR6AKJXH085ZQG8J91&tp_b=30MVJZJNHNZ0CR6AKJXH085ZQG8J91&c=365799&tp_c=365799"},{"view_history":[{"page_index":0,"viewing_time":1547},{"page_index":1,"viewing_time":533},{"page_index":2,"viewing_time":4734},{"page_index":3,"viewing_time":1417},{"page_index":4,"viewing_time":1184},{"page_index":3,"viewing_time":7883},{"page_index":4,"viewing_time":1483},{"page_index":5,"viewing_time":4733},{"page_index":6,"viewing_time":3834}],"rt":27348,"trial_type":"instructions","trial_index":5,"time_elapsed":2322972,"internal_node_id":"0.0-2.1-0.1","params":{"nStudents":24,"maxFlips":30,"completionMinutes":45,"basePay":8,"maxBonus":9,"perTrialBonus":0.5,"perTrialBonusThreshold":0.05,"exampleCost":0.01},"classroomParams":{"A":{"a":1,"b":4},"B":{"a":4,"b":1},"C":{"a":2,"b":8},"D":{"a":8,"b":2}},"conditions":["nonSeqFull","nonSeqPartial","seqNoFeedback","seqFeedback"],"classroomPairings":[["A","B"],["C","D"]],"coinWeights":[0.2,0.5,0.8],"subjectId":"ANK8K5WTHJ61C","assignmentId":"30MVJZJNHNZ0CR6AKJXH085ZQG8J91","hitId":"3JGHED38EDDK7DFM0KVY7GXU94LY7W","url":"https://gershmanlab.com/experiments/alicia/teaching/experiment/?hitId=3JGHED38EDDK7DFM0KVY7GXU94LY7W&workerId=ANK8K5WTHJ61C&assignmentId=30MVJZJNHNZ0CR6AKJXH085ZQG8J91&a=NJM09&tp_a=NJM09&b=30MVJZJNHNZ0CR6AKJXH085ZQG8J91&tp_b=30MVJZJNHNZ0CR6AKJXH085ZQG8J91&c=365799&tp_c=365799"},{"rt":32715,"response":{"Q0":"Students in different classrooms have seen a different proportion of fair and unfair coins before seeing the examples you select for them.","Q1":"By <b>considering the student's classroom information</b> so that I can teach efficiently and accurately/helpfully at the same time (because each example I give to the student costs money!).","Q2":"The coin lands heads 90% of the time.","Q3":"Yes, I might encounter the same student twice.","Q4":"The students are also on the same alien planet as you, where coins can be unfair.","Q5":"Based on the student's second (and final) guess."},"question_order":[4,2,5,3,0,1],"trial_type":"survey-multi-choice","trial_index":6,"time_elapsed":2355690,"internal_node_id":"0.0-2.1-1.1","params":{"nStudents":24,"maxFlips":30,"completionMinutes":45,"basePay":8,"maxBonus":9,"perTrialBonus":0.5,"perTrialBonusThreshold":0.05,"exampleCost":0.01},"classroomParams":{"A":{"a":1,"b":4},"B":{"a":4,"b":1},"C":{"a":2,"b":8},"D":{"a":8,"b":2}},"conditions":["nonSeqFull","nonSeqPartial","seqNoFeedback","seqFeedback"],"classroomPairings":[["A","B"],["C","D"]],"coinWeights":[0.2,0.5,0.8],"subjectId":"ANK8K5WTHJ61C","assignmentId":"30MVJZJNHNZ0CR6AKJXH085ZQG8J91","hitId":"3JGHED38EDDK7DFM0KVY7GXU94LY7W","url":"https://gershmanlab.com/experiments/alicia/teaching/experiment/?hitId=3JGHED38EDDK7DFM0KVY7GXU94LY7W&workerId=ANK8K5WTHJ61C&assignmentId=30MVJZJNHNZ0CR6AKJXH085ZQG8J91&a=NJM09&tp_a=NJM09&b=30MVJZJNHNZ0CR6AKJXH085ZQG8J91&tp_b=30MVJZJNHNZ0CR6AKJXH085ZQG8J91&c=365799&tp_c=365799","pass":false},{"rt":1725,"stimulus":"Oops, you have missed question(s) on the comprehension check! We'll show you the instructions again.","response":0,"trial_type":"html-button-response","trial_index":7,"time_elapsed":2357422,"internal_node_id":"0.0-2.1-2.1-0.1","params":{"nStudents":24,"maxFlips":30,"completionMinutes":45,"basePay":8,"maxBonus":9,"perTrialBonus":0.5,"perTrialBonusThreshold":0.05,"exampleCost":0.01},"classroomParams":{"A":{"a":1,"b":4},"B":{"a":4,"b":1},"C":{"a":2,"b":8},"D":{"a":8,"b":2}},"conditions":["nonSeqFull","nonSeqPartial","seqNoFeedback","seqFeedback"],"classroomPairings":[["A","B"],["C","D"]],"coinWeights":[0.2,0.5,0.8],"subjectId":"ANK8K5WTHJ61C","assignmentId":"30MVJZJNHNZ0CR6AKJXH085ZQG8J91","hitId":"3JGHED38EDDK7DFM0KVY7GXU94LY7W","url":"https://gershmanlab.com/experiments/alicia/teaching/experiment/?hitId=3JGHED38EDDK7DFM0KVY7GXU94LY7W&workerId=ANK8K5WTHJ61C&assignmentId=30MVJZJNHNZ0CR6AKJXH085ZQG8J91&a=NJM09&tp_a=NJM09&b=30MVJZJNHNZ0CR6AKJXH085ZQG8J91&tp_b=30MVJZJNHNZ0CR6AKJXH085ZQG8J91&c=365799&tp_c=365799"},{"view_history":[{"page_index":0,"viewing_time":2331},{"page_index":1,"viewing_time":2551},{"page_index":2,"viewing_time":17567},{"page_index":3,"viewing_time":9383},{"page_index":4,"viewing_time":14434},{"page_index":5,"viewing_time":1715},{"page_index":6,"viewing_time":1484}],"rt":49465,"trial_type":"instructions","trial_index":8,"time_elapsed":2406888,"internal_node_id":"0.0-2.2-0.2","params":{"nStudents":24,"maxFlips":30,"completionMinutes":45,"basePay":8,"maxBonus":9,"perTrialBonus":0.5,"perTrialBonusThreshold":0.05,"exampleCost":0.01},"classroomParams":{"A":{"a":1,"b":4},"B":{"a":4,"b":1},"C":{"a":2,"b":8},"D":{"a":8,"b":2}},"conditions":["nonSeqFull","nonSeqPartial","seqNoFeedback","seqFeedback"],"classroomPairings":[["A","B"],["C","D"]],"coinWeights":[0.2,0.5,0.8],"subjectId":"ANK8K5WTHJ61C","assignmentId":"30MVJZJNHNZ0CR6AKJXH085ZQG8J91","hitId":"3JGHED38EDDK7DFM0KVY7GXU94LY7W","url":"https://gershmanlab.com/experiments/alicia/teaching/experiment/?hitId=3JGHED38EDDK7DFM0KVY7GXU94LY7W&workerId=ANK8K5WTHJ61C&assignmentId=30MVJZJNHNZ0CR6AKJXH085ZQG8J91&a=NJM09&tp_a=NJM09&b=30MVJZJNHNZ0CR6AKJXH085ZQG8J91&tp_b=30MVJZJNHNZ0CR6AKJXH085ZQG8J91&c=365799&tp_c=365799"},{"rt":49285,"response":{"Q0":"Students in different classrooms have seen a different proportion of fair and unfair coins before seeing the examples you select for them.","Q1":"By <b>considering the student's classroom information</b> so that I can teach efficiently and accurately/helpfully at the same time (because each example I give to the student costs money!).","Q2":"The coin lands heads 90% of the time.","Q3":"No, I will teach a <b>new</b> student each time.","Q4":"The students are also on the same alien planet as you, where coins can be unfair.","Q5":"Based on the student's second (and final) guess."},"question_order":[3,5,4,2,0,1],"trial_type":"survey-multi-choice","trial_index":9,"time_elapsed":2456175,"internal_node_id":"0.0-2.2-1.2","params":{"nStudents":24,"maxFlips":30,"completionMinutes":45,"basePay":8,"maxBonus":9,"perTrialBonus":0.5,"perTrialBonusThreshold":0.05,"exampleCost":0.01},"classroomParams":{"A":{"a":1,"b":4},"B":{"a":4,"b":1},"C":{"a":2,"b":8},"D":{"a":8,"b":2}},"conditions":["nonSeqFull","nonSeqPartial","seqNoFeedback","seqFeedback"],"classroomPairings":[["A","B"],["C","D"]],"coinWeights":[0.2,0.5,0.8],"subjectId":"ANK8K5WTHJ61C","assignmentId":"30MVJZJNHNZ0CR6AKJXH085ZQG8J91","hitId":"3JGHED38EDDK7DFM0KVY7GXU94LY7W","url":"https://gershmanlab.com/experiments/alicia/teaching/experiment/?hitId=3JGHED38EDDK7DFM0KVY7GXU94LY7W&workerId=ANK8K5WTHJ61C&assignmentId=30MVJZJNHNZ0CR6AKJXH085ZQG8J91&a=NJM09&tp_a=NJM09&b=30MVJZJNHNZ0CR6AKJXH085ZQG8J91&tp_b=30MVJZJNHNZ0CR6AKJXH085ZQG8J91&c=365799&tp_c=365799","pass":false},{"rt":1774,"stimulus":"Oops, you have missed question(s) on the comprehension check! We'll show you the instructions again.","response":0,"trial_type":"html-button-response","trial_index":10,"time_elapsed":2457955,"internal_node_id":"0.0-2.2-2.2-0.2","params":{"nStudents":24,"maxFlips":30,"completionMinutes":45,"basePay":8,"maxBonus":9,"perTrialBonus":0.5,"perTrialBonusThreshold":0.05,"exampleCost":0.01},"classroomParams":{"A":{"a":1,"b":4},"B":{"a":4,"b":1},"C":{"a":2,"b":8},"D":{"a":8,"b":2}},"conditions":["nonSeqFull","nonSeqPartial","seqNoFeedback","seqFeedback"],"classroomPairings":[["A","B"],["C","D"]],"coinWeights":[0.2,0.5,0.8],"subjectId":"ANK8K5WTHJ61C","assignmentId":"30MVJZJNHNZ0CR6AKJXH085ZQG8J91","hitId":"3JGHED38EDDK7DFM0KVY7GXU94LY7W","url":"https://gershmanlab.com/experiments/alicia/teaching/experiment/?hitId=3JGHED38EDDK7DFM0KVY7GXU94LY7W&workerId=ANK8K5WTHJ61C&assignmentId=30MVJZJNHNZ0CR6AKJXH085ZQG8J91&a=NJM09&tp_a=NJM09&b=30MVJZJNHNZ0CR6AKJXH085ZQG8J91&tp_b=30MVJZJNHNZ0CR6AKJXH085ZQG8J91&c=365799&tp_c=365799"},{"view_history":[{"page_index":0,"viewing_time":3484},{"page_index":1,"viewing_time":1217},{"page_index":2,"viewing_time":18567},{"page_index":3,"viewing_time":15883},{"page_index":4,"viewing_time":27518},{"page_index":5,"viewing_time":9750},{"page_index":6,"viewing_time":4767}],"rt":81187,"trial_type":"instructions","trial_index":11,"time_elapsed":2539141,"internal_node_id":"0.0-2.3-0.3","params":{"nStudents":24,"maxFlips":30,"completionMinutes":45,"basePay":8,"maxBonus":9,"perTrialBonus":0.5,"perTrialBonusThreshold":0.05,"exampleCost":0.01},"classroomParams":{"A":{"a":1,"b":4},"B":{"a":4,"b":1},"C":{"a":2,"b":8},"D":{"a":8,"b":2}},"conditions":["nonSeqFull","nonSeqPartial","seqNoFeedback","seqFeedback"],"classroomPairings":[["A","B"],["C","D"]],"coinWeights":[0.2,0.5,0.8],"subjectId":"ANK8K5WTHJ61C","assignmentId":"30MVJZJNHNZ0CR6AKJXH085ZQG8J91","hitId":"3JGHED38EDDK7DFM0KVY7GXU94LY7W","url":"https://gershmanlab.com/experiments/alicia/teaching/experiment/?hitId=3JGHED38EDDK7DFM0KVY7GXU94LY7W&workerId=ANK8K5WTHJ61C&assignmentId=30MVJZJNHNZ0CR6AKJXH085ZQG8J91&a=NJM09&tp_a=NJM09&b=30MVJZJNHNZ0CR6AKJXH085ZQG8J91&tp_b=30MVJZJNHNZ0CR6AKJXH085ZQG8J91&c=365799&tp_c=365799"},{"rt":101467,"response":{"Q0":"Students in different classrooms will have seen a different number of heads and tails before seeing the examples you select for them.","Q1":"By <b>considering the student's classroom information</b> so that I can teach efficiently and accurately/helpfully at the same time (because each example I give to the student costs money!).","Q2":"The coin lands heads 90% of the time.","Q3":"No, I will teach a <b>new</b> student each time.","Q4":"The students are also on the same alien planet as you, where coins can be unfair.","Q5":"Based on the student's second (and final) guess."},"question_order":[5,3,1,4,2,0],"trial_type":"survey-multi-choice","trial_index":12,"time_elapsed":2640609,"internal_node_id":"0.0-2.3-1.3","params":{"nStudents":24,"maxFlips":30,"completionMinutes":45,"basePay":8,"maxBonus":9,"perTrialBonus":0.5,"perTrialBonusThreshold":0.05,"exampleCost":0.01},"classroomParams":{"A":{"a":1,"b":4},"B":{"a":4,"b":1},"C":{"a":2,"b":8},"D":{"a":8,"b":2}},"conditions":["nonSeqFull","nonSeqPartial","seqNoFeedback","seqFeedback"],"classroomPairings":[["A","B"],["C","D"]],"coinWeights":[0.2,0.5,0.8],"subjectId":"ANK8K5WTHJ61C","assignmentId":"30MVJZJNHNZ0CR6AKJXH085ZQG8J91","hitId":"3JGHED38EDDK7DFM0KVY7GXU94LY7W","url":"https://gershmanlab.com/experiments/alicia/teaching/experiment/?hitId=3JGHED38EDDK7DFM0KVY7GXU94LY7W&workerId=ANK8K5WTHJ61C&assignmentId=30MVJZJNHNZ0CR6AKJXH085ZQG8J91&a=NJM09&tp_a=NJM09&b=30MVJZJNHNZ0CR6AKJXH085ZQG8J91&tp_b=30MVJZJNHNZ0CR6AKJXH085ZQG8J91&c=365799&tp_c=365799","pass":true},{"rt":null,"stimulus":"<div style=\"font-size:30px;\">Congrats on passing the comprehension quiz! The experiment will begin in a few seconds.</div>","response":null,"trial_type":"html-keyboard-response","trial_index":13,"time_elapsed":2643619,"internal_node_id":"0.0-3.0","params":{"nStudents":24,"maxFlips":30,"completionMinutes":45,"basePay":8,"maxBonus":9,"perTrialBonus":0.5,"perTrialBonusThreshold":0.05,"exampleCost":0.01},"classroomParams":{"A":{"a":1,"b":4},"B":{"a":4,"b":1},"C":{"a":2,"b":8},"D":{"a":8,"b":2}},"conditions":["nonSeqFull","nonSeqPartial","seqNoFeedback","seqFeedback"],"classroomPairings":[["A","B"],["C","D"]],"coinWeights":[0.2,0.5,0.8],"subjectId":"ANK8K5WTHJ61C","assignmentId":"30MVJZJNHNZ0CR6AKJXH085ZQG8J91","hitId":"3JGHED38EDDK7DFM0KVY7GXU94LY7W","url":"https://gershmanlab.com/experiments/alicia/teaching/experiment/?hitId=3JGHED38EDDK7DFM0KVY7GXU94LY7W&workerId=ANK8K5WTHJ61C&assignmentId=30MVJZJNHNZ0CR6AKJXH085ZQG8J91&a=NJM09&tp_a=NJM09&b=30MVJZJNHNZ0CR6AKJXH085ZQG8J91&tp_b=30MVJZJNHNZ0CR6AKJXH085ZQG8J91&c=365799&tp_c=365799"},{"rt":null,"stimulus":"<div style=\"font-size:50px;\">First student</div>","response":null,"trial_type":"html-keyboard-response","trial_index":14,"time_elapsed":2646626,"internal_node_id":"0.0-4.0","params":{"nStudents":24,"maxFlips":30,"completionMinutes":45,"basePay":8,"maxBonus":9,"perTrialBonus":0.5,"perTrialBonusThreshold":0.05,"exampleCost":0.01},"classroomParams":{"A":{"a":1,"b":4},"B":{"a":4,"b":1},"C":{"a":2,"b":8},"D":{"a":8,"b":2}},"conditions":["nonSeqFull","nonSeqPartial","seqNoFeedback","seqFeedback"],"classroomPairings":[["A","B"],["C","D"]],"coinWeights":[0.2,0.5,0.8],"subjectId":"ANK8K5WTHJ61C","assignmentId":"30MVJZJNHNZ0CR6AKJXH085ZQG8J91","hitId":"3JGHED38EDDK7DFM0KVY7GXU94LY7W","url":"https://gershmanlab.com/experiments/alicia/teaching/experiment/?hitId=3JGHED38EDDK7DFM0KVY7GXU94LY7W&workerId=ANK8K5WTHJ61C&assignmentId=30MVJZJNHNZ0CR6AKJXH085ZQG8J91&a=NJM09&tp_a=NJM09&b=30MVJZJNHNZ0CR6AKJXH085ZQG8J91&tp_b=30MVJZJNHNZ0CR6AKJXH085ZQG8J91&c=365799&tp_c=365799"},{"rt":8330,"stimulus":"\n            <h4 style=\"color:Orange;\">Student 1</h4>\n            <h2>The weight of your coin is <b style=\"color:Tomato;\">0.8</b>.</h2>\n            <p>In this block, you will be giving <b>one</b> set of examples to Student 1.</p>\n                <p>You will receive feedback at the end of the block.</p>\n            <p></p>","response":0,"trial_type":"html-button-response","trial_index":15,"time_elapsed":2654958,"internal_node_id":"0.0-5.0","params":{"nStudents":24,"maxFlips":30,"completionMinutes":45,"basePay":8,"maxBonus":9,"perTrialBonus":0.5,"perTrialBonusThreshold":0.05,"exampleCost":0.01},"classroomParams":{"A":{"a":1,"b":4},"B":{"a":4,"b":1},"C":{"a":2,"b":8},"D":{"a":8,"b":2}},"conditions":["nonSeqFull","nonSeqPartial","seqNoFeedback","seqFeedback"],"classroomPairings":[["A","B"],["C","D"]],"coinWeights":[0.2,0.5,0.8],"subjectId":"ANK8K5WTHJ61C","assignmentId":"30MVJZJNHNZ0CR6AKJXH085ZQG8J91","hitId":"3JGHED38EDDK7DFM0KVY7GXU94LY7W","url":"https://gershmanlab.com/experiments/alicia/teaching/experiment/?hitId=3JGHED38EDDK7DFM0KVY7GXU94LY7W&workerId=ANK8K5WTHJ61C&assignmentId=30MVJZJNHNZ0CR6AKJXH085ZQG8J91&a=NJM09&tp_a=NJM09&b=30MVJZJNHNZ0CR6AKJXH085ZQG8J91&tp_b=30MVJZJNHNZ0CR6AKJXH085ZQG8J91&c=365799&tp_c=365799"},{"rt":46050,"response":{"heads":"8","tails":"2"},"type":"response","condition":"nonSeqPartial","trueTheta":0.8,"classrooms":["C","D"],"studentTrueClassroom":"D","exampleSet":"first","trial_type":"survey-html-form","trial_index":16,"time_elapsed":2700989,"internal_node_id":"0.0-6.0-0.0","params":{"nStudents":24,"maxFlips":30,"completionMinutes":45,"basePay":8,"maxBonus":9,"perTrialBonus":0.5,"perTrialBonusThreshold":0.05,"exampleCost":0.01},"classroomParams":{"A":{"a":1,"b":4},"B":{"a":4,"b":1},"C":{"a":2,"b":8},"D":{"a":8,"b":2}},"conditions":["nonSeqFull","nonSeqPartial","seqNoFeedback","seqFeedback"],"classroomPairings":[["A","B"],["C","D"]],"coinWeights":[0.2,0.5,0.8],"subjectId":"ANK8K5WTHJ61C","assignmentId":"30MVJZJNHNZ0CR6AKJXH085ZQG8J91","hitId":"3JGHED38EDDK7DFM0KVY7GXU94LY7W","url":"https://gershmanlab.com/experiments/alicia/teaching/experiment/?hitId=3JGHED38EDDK7DFM0KVY7GXU94LY7W&workerId=ANK8K5WTHJ61C&assignmentId=30MVJZJNHNZ0CR6AKJXH085ZQG8J91&a=NJM09&tp_a=NJM09&b=30MVJZJNHNZ0CR6AKJXH085ZQG8J91&tp_b=30MVJZJNHNZ0CR6AKJXH085ZQG8J91&c=365799&tp_c=365799","heads":8,"tails":2,"studentIndex":0,"studentTrueHypers":{"a":8,"b":2},"studentGuess":0.8,"delta":0,"totalExamples":10,"bonus":0.4,"bonusSoFar":0.4},{"rt":null,"stimulus":"Sending examples to student... ","response":null,"trial_type":"html-keyboard-response","trial_index":17,"time_elapsed":2702995,"internal_node_id":"0.0-7.0","params":{"nStudents":24,"maxFlips":30,"completionMinutes":45,"basePay":8,"maxBonus":9,"perTrialBonus":0.5,"perTrialBonusThreshold":0.05,"exampleCost":0.01},"classroomParams":{"A":{"a":1,"b":4},"B":{"a":4,"b":1},"C":{"a":2,"b":8},"D":{"a":8,"b":2}},"conditions":["nonSeqFull","nonSeqPartial","seqNoFeedback","seqFeedback"],"classroomPairings":[["A","B"],["C","D"]],"coinWeights":[0.2,0.5,0.8],"subjectId":"ANK8K5WTHJ61C","assignmentId":"30MVJZJNHNZ0CR6AKJXH085ZQG8J91","hitId":"3JGHED38EDDK7DFM0KVY7GXU94LY7W","url":"https://gershmanlab.com/experiments/alicia/teaching/experiment/?hitId=3JGHED38EDDK7DFM0KVY7GXU94LY7W&workerId=ANK8K5WTHJ61C&assignmentId=30MVJZJNHNZ0CR6AKJXH085ZQG8J91&a=NJM09&tp_a=NJM09&b=30MVJZJNHNZ0CR6AKJXH085ZQG8J91&tp_b=30MVJZJNHNZ0CR6AKJXH085ZQG8J91&c=365799&tp_c=365799"},{"rt":null,"stimulus":"Examples sent to student! Waiting for student...","response":null,"trial_type":"html-keyboard-response","trial_index":18,"time_elapsed":2708500,"internal_node_id":"0.0-8.0","params":{"nStudents":24,"maxFlips":30,"completionMinutes":45,"basePay":8,"maxBonus":9,"perTrialBonus":0.5,"perTrialBonusThreshold":0.05,"exampleCost":0.01},"classroomParams":{"A":{"a":1,"b":4},"B":{"a":4,"b":1},"C":{"a":2,"b":8},"D":{"a":8,"b":2}},"conditions":["nonSeqFull","nonSeqPartial","seqNoFeedback","seqFeedback"],"classroomPairings":[["A","B"],["C","D"]],"coinWeights":[0.2,0.5,0.8],"subjectId":"ANK8K5WTHJ61C","assignmentId":"30MVJZJNHNZ0CR6AKJXH085ZQG8J91","hitId":"3JGHED38EDDK7DFM0KVY7GXU94LY7W","url":"https://gershmanlab.com/experiments/alicia/teaching/experiment/?hitId=3JGHED38EDDK7DFM0KVY7GXU94LY7W&workerId=ANK8K5WTHJ61C&assignmentId=30MVJZJNHNZ0CR6AKJXH085ZQG8J91&a=NJM09&tp_a=NJM09&b=30MVJZJNHNZ0CR6AKJXH085ZQG8J91&tp_b=30MVJZJNHNZ0CR6AKJXH085ZQG8J91&c=365799&tp_c=365799"},{"rt":4833,"stimulus":"\n                <p>Student's guess for coin weight: <b style=\"color:Tomato;\">0.80</b></p>\n                <p>You received a bonus of <b>$0.4</b>. Total bonus so far: <b>$0.40</b></b></p>\n                <p></p>\n                <p>Press any key to continue.</p>\n                ","response":" ","trial_type":"html-keyboard-response","trial_index":19,"time_elapsed":2713334,"internal_node_id":"0.0-9.0","params":{"nStudents":24,"maxFlips":30,"completionMinutes":45,"basePay":8,"maxBonus":9,"perTrialBonus":0.5,"perTrialBonusThreshold":0.05,"exampleCost":0.01},"classroomParams":{"A":{"a":1,"b":4},"B":{"a":4,"b":1},"C":{"a":2,"b":8},"D":{"a":8,"b":2}},"conditions":["nonSeqFull","nonSeqPartial","seqNoFeedback","seqFeedback"],"classroomPairings":[["A","B"],["C","D"]],"coinWeights":[0.2,0.5,0.8],"subjectId":"ANK8K5WTHJ61C","assignmentId":"30MVJZJNHNZ0CR6AKJXH085ZQG8J91","hitId":"3JGHED38EDDK7DFM0KVY7GXU94LY7W","url":"https://gershmanlab.com/experiments/alicia/teaching/experiment/?hitId=3JGHED38EDDK7DFM0KVY7GXU94LY7W&workerId=ANK8K5WTHJ61C&assignmentId=30MVJZJNHNZ0CR6AKJXH085ZQG8J91&a=NJM09&tp_a=NJM09&b=30MVJZJNHNZ0CR6AKJXH085ZQG8J91&tp_b=30MVJZJNHNZ0CR6AKJXH085ZQG8J91&c=365799&tp_c=365799"},{"rt":null,"stimulus":"<div style=\"font-size:60px;\">Next student</div>","response":null,"trial_type":"html-keyboard-response","trial_index":20,"time_elapsed":2715837,"internal_node_id":"0.0-10.0-0.0","params":{"nStudents":24,"maxFlips":30,"completionMinutes":45,"basePay":8,"maxBonus":9,"perTrialBonus":0.5,"perTrialBonusThreshold":0.05,"exampleCost":0.01},"classroomParams":{"A":{"a":1,"b":4},"B":{"a":4,"b":1},"C":{"a":2,"b":8},"D":{"a":8,"b":2}},"conditions":["nonSeqFull","nonSeqPartial","seqNoFeedback","seqFeedback"],"classroomPairings":[["A","B"],["C","D"]],"coinWeights":[0.2,0.5,0.8],"subjectId":"ANK8K5WTHJ61C","assignmentId":"30MVJZJNHNZ0CR6AKJXH085ZQG8J91","hitId":"3JGHED38EDDK7DFM0KVY7GXU94LY7W","url":"https://gershmanlab.com/experiments/alicia/teaching/experiment/?hitId=3JGHED38EDDK7DFM0KVY7GXU94LY7W&workerId=ANK8K5WTHJ61C&assignmentId=30MVJZJNHNZ0CR6AKJXH085ZQG8J91&a=NJM09&tp_a=NJM09&b=30MVJZJNHNZ0CR6AKJXH085ZQG8J91&tp_b=30MVJZJNHNZ0CR6AKJXH085ZQG8J91&c=365799&tp_c=365799"},{"rt":12413,"stimulus":"\n            <h4 style=\"color:Orange;\">Student 2</h4>\n            <h2>The weight of your coin is <b style=\"color:Tomato;\">0.5</b>.</h2>\n            <p>In this block, you will be giving <b>one</b> set of examples to Student 2.</p>\n                <p>You will receive feedback at the end of the block.</p>\n            <p></p>","response":0,"trial_type":"html-button-response","trial_index":21,"time_elapsed":2728250,"internal_node_id":"0.0-11.0","params":{"nStudents":24,"maxFlips":30,"completionMinutes":45,"basePay":8,"maxBonus":9,"perTrialBonus":0.5,"perTrialBonusThreshold":0.05,"exampleCost":0.01},"classroomParams":{"A":{"a":1,"b":4},"B":{"a":4,"b":1},"C":{"a":2,"b":8},"D":{"a":8,"b":2}},"conditions":["nonSeqFull","nonSeqPartial","seqNoFeedback","seqFeedback"],"classroomPairings":[["A","B"],["C","D"]],"coinWeights":[0.2,0.5,0.8],"subjectId":"ANK8K5WTHJ61C","assignmentId":"30MVJZJNHNZ0CR6AKJXH085ZQG8J91","hitId":"3JGHED38EDDK7DFM0KVY7GXU94LY7W","url":"https://gershmanlab.com/experiments/alicia/teaching/experiment/?hitId=3JGHED38EDDK7DFM0KVY7GXU94LY7W&workerId=ANK8K5WTHJ61C&assignmentId=30MVJZJNHNZ0CR6AKJXH085ZQG8J91&a=NJM09&tp_a=NJM09&b=30MVJZJNHNZ0CR6AKJXH085ZQG8J91&tp_b=30MVJZJNHNZ0CR6AKJXH085ZQG8J91&c=365799&tp_c=365799"},{"rt":23702,"response":{"heads":"5","tails":"0"},"type":"response","condition":"nonSeqFull","trueTheta":0.5,"classrooms":["C","D"],"studentTrueClassroom":"C","exampleSet":"first","trial_type":"survey-html-form","trial_index":22,"time_elapsed":2751951,"internal_node_id":"0.0-12.0-0.0","params":{"nStudents":24,"maxFlips":30,"completionMinutes":45,"basePay":8,"maxBonus":9,"perTrialBonus":0.5,"perTrialBonusThreshold":0.05,"exampleCost":0.01},"classroomParams":{"A":{"a":1,"b":4},"B":{"a":4,"b":1},"C":{"a":2,"b":8},"D":{"a":8,"b":2}},"conditions":["nonSeqFull","nonSeqPartial","seqNoFeedback","seqFeedback"],"classroomPairings":[["A","B"],["C","D"]],"coinWeights":[0.2,0.5,0.8],"subjectId":"ANK8K5WTHJ61C","assignmentId":"30MVJZJNHNZ0CR6AKJXH085ZQG8J91","hitId":"3JGHED38EDDK7DFM0KVY7GXU94LY7W","url":"https://gershmanlab.com/experiments/alicia/teaching/experiment/?hitId=3JGHED38EDDK7DFM0KVY7GXU94LY7W&workerId=ANK8K5WTHJ61C&assignmentId=30MVJZJNHNZ0CR6AKJXH085ZQG8J91&a=NJM09&tp_a=NJM09&b=30MVJZJNHNZ0CR6AKJXH085ZQG8J91&tp_b=30MVJZJNHNZ0CR6AKJXH085ZQG8J91&c=365799&tp_c=365799","heads":5,"tails":0,"studentIndex":1,"studentTrueHypers":{"a":2,"b":8},"studentGuess":0.4666666666666667,"delta":0.033333333333333326,"totalExamples":5,"bonus":0.45,"bonusSoFar":0.85},{"rt":null,"stimulus":"Sending examples to student... ","response":null,"trial_type":"html-keyboard-response","trial_index":23,"time_elapsed":2753208,"internal_node_id":"0.0-13.0","params":{"nStudents":24,"maxFlips":30,"completionMinutes":45,"basePay":8,"maxBonus":9,"perTrialBonus":0.5,"perTrialBonusThreshold":0.05,"exampleCost":0.01},"classroomParams":{"A":{"a":1,"b":4},"B":{"a":4,"b":1},"C":{"a":2,"b":8},"D":{"a":8,"b":2}},"conditions":["nonSeqFull","nonSeqPartial","seqNoFeedback","seqFeedback"],"classroomPairings":[["A","B"],["C","D"]],"coinWeights":[0.2,0.5,0.8],"subjectId":"ANK8K5WTHJ61C","assignmentId":"30MVJZJNHNZ0CR6AKJXH085ZQG8J91","hitId":"3JGHED38EDDK7DFM0KVY7GXU94LY7W","url":"https://gershmanlab.com/experiments/alicia/teaching/experiment/?hitId=3JGHED38EDDK7DFM0KVY7GXU94LY7W&workerId=ANK8K5WTHJ61C&assignmentId=30MVJZJNHNZ0CR6AKJXH085ZQG8J91&a=NJM09&tp_a=NJM09&b=30MVJZJNHNZ0CR6AKJXH085ZQG8J91&tp_b=30MVJZJNHNZ0CR6AKJXH085ZQG8J91&c=365799&tp_c=365799"},{"rt":null,"stimulus":"Examples sent to student! Waiting for student...","response":null,"trial_type":"html-keyboard-response","trial_index":24,"time_elapsed":2758215,"internal_node_id":"0.0-14.0","params":{"nStudents":24,"maxFlips":30,"completionMinutes":45,"basePay":8,"maxBonus":9,"perTrialBonus":0.5,"perTrialBonusThreshold":0.05,"exampleCost":0.01},"classroomParams":{"A":{"a":1,"b":4},"B":{"a":4,"b":1},"C":{"a":2,"b":8},"D":{"a":8,"b":2}},"conditions":["nonSeqFull","nonSeqPartial","seqNoFeedback","seqFeedback"],"classroomPairings":[["A","B"],["C","D"]],"coinWeights":[0.2,0.5,0.8],"subjectId":"ANK8K5WTHJ61C","assignmentId":"30MVJZJNHNZ0CR6AKJXH085ZQG8J91","hitId":"3JGHED38EDDK7DFM0KVY7GXU94LY7W","url":"https://gershmanlab.com/experiments/alicia/teaching/experiment/?hitId=3JGHED38EDDK7DFM0KVY7GXU94LY7W&workerId=ANK8K5WTHJ61C&assignmentId=30MVJZJNHNZ0CR6AKJXH085ZQG8J91&a=NJM09&tp_a=NJM09&b=30MVJZJNHNZ0CR6AKJXH085ZQG8J91&tp_b=30MVJZJNHNZ0CR6AKJXH085ZQG8J91&c=365799&tp_c=365799"},{"rt":5896,"stimulus":"\n                <p>Student's guess for coin weight: <b style=\"color:Tomato;\">0.47</b></p>\n                <p>You received a bonus of <b>$0.45</b>. Total bonus so far: <b>$0.85</b></b></p>\n                <p></p>\n                <p>Press any key to continue.</p>\n                ","response":" ","trial_type":"html-keyboard-response","trial_index":25,"time_elapsed":2764112,"internal_node_id":"0.0-15.0","params":{"nStudents":24,"maxFlips":30,"completionMinutes":45,"basePay":8,"maxBonus":9,"perTrialBonus":0.5,"perTrialBonusThreshold":0.05,"exampleCost":0.01},"classroomParams":{"A":{"a":1,"b":4},"B":{"a":4,"b":1},"C":{"a":2,"b":8},"D":{"a":8,"b":2}},"conditions":["nonSeqFull","nonSeqPartial","seqNoFeedback","seqFeedback"],"classroomPairings":[["A","B"],["C","D"]],"coinWeights":[0.2,0.5,0.8],"subjectId":"ANK8K5WTHJ61C","assignmentId":"30MVJZJNHNZ0CR6AKJXH085ZQG8J91","hitId":"3JGHED38EDDK7DFM0KVY7GXU94LY7W","url":"https://gershmanlab.com/experiments/alicia/teaching/experiment/?hitId=3JGHED38EDDK7DFM0KVY7GXU94LY7W&workerId=ANK8K5WTHJ61C&assignmentId=30MVJZJNHNZ0CR6AKJXH085ZQG8J91&a=NJM09&tp_a=NJM09&b=30MVJZJNHNZ0CR6AKJXH085ZQG8J91&tp_b=30MVJZJNHNZ0CR6AKJXH085ZQG8J91&c=365799&tp_c=365799"},{"rt":null,"stimulus":"<div style=\"font-size:60px;\">Next student</div>","response":null,"trial_type":"html-keyboard-response","trial_index":26,"time_elapsed":2766369,"internal_node_id":"0.0-16.0-0.0","params":{"nStudents":24,"maxFlips":30,"completionMinutes":45,"basePay":8,"maxBonus":9,"perTrialBonus":0.5,"perTrialBonusThreshold":0.05,"exampleCost":0.01},"classroomParams":{"A":{"a":1,"b":4},"B":{"a":4,"b":1},"C":{"a":2,"b":8},"D":{"a":8,"b":2}},"conditions":["nonSeqFull","nonSeqPartial","seqNoFeedback","seqFeedback"],"classroomPairings":[["A","B"],["C","D"]],"coinWeights":[0.2,0.5,0.8],"subjectId":"ANK8K5WTHJ61C","assignmentId":"30MVJZJNHNZ0CR6AKJXH085ZQG8J91","hitId":"3JGHED38EDDK7DFM0KVY7GXU94LY7W","url":"https://gershmanlab.com/experiments/alicia/teaching/experiment/?hitId=3JGHED38EDDK7DFM0KVY7GXU94LY7W&workerId=ANK8K5WTHJ61C&assignmentId=30MVJZJNHNZ0CR6AKJXH085ZQG8J91&a=NJM09&tp_a=NJM09&b=30MVJZJNHNZ0CR6AKJXH085ZQG8J91&tp_b=30MVJZJNHNZ0CR6AKJXH085ZQG8J91&c=365799&tp_c=365799"},{"rt":3112,"stimulus":"\n            <h4 style=\"color:Orange;\">Student 3</h4>\n            <h2>The weight of your coin is <b style=\"color:Tomato;\">0.8</b>.</h2>\n            <p>In this block, you will be giving <b>one</b> set of examples to Student 3.</p>\n                <p>You will receive feedback at the end of the block.</p>\n            <p></p>","response":0,"trial_type":"html-button-response","trial_index":27,"time_elapsed":2769483,"internal_node_id":"0.0-17.0","params":{"nStudents":24,"maxFlips":30,"completionMinutes":45,"basePay":8,"maxBonus":9,"perTrialBonus":0.5,"perTrialBonusThreshold":0.05,"exampleCost":0.01},"classroomParams":{"A":{"a":1,"b":4},"B":{"a":4,"b":1},"C":{"a":2,"b":8},"D":{"a":8,"b":2}},"conditions":["nonSeqFull","nonSeqPartial","seqNoFeedback","seqFeedback"],"classroomPairings":[["A","B"],["C","D"]],"coinWeights":[0.2,0.5,0.8],"subjectId":"ANK8K5WTHJ61C","assignmentId":"30MVJZJNHNZ0CR6AKJXH085ZQG8J91","hitId":"3JGHED38EDDK7DFM0KVY7GXU94LY7W","url":"https://gershmanlab.com/experiments/alicia/teaching/experiment/?hitId=3JGHED38EDDK7DFM0KVY7GXU94LY7W&workerId=ANK8K5WTHJ61C&assignmentId=30MVJZJNHNZ0CR6AKJXH085ZQG8J91&a=NJM09&tp_a=NJM09&b=30MVJZJNHNZ0CR6AKJXH085ZQG8J91&tp_b=30MVJZJNHNZ0CR6AKJXH085ZQG8J91&c=365799&tp_c=365799"},{"rt":8550,"response":{"heads":"8","tails":"2"},"type":"response","condition":"nonSeqFull","trueTheta":0.8,"classrooms":["C","D"],"studentTrueClassroom":"C","exampleSet":"first","trial_type":"survey-html-form","trial_index":28,"time_elapsed":2778034,"internal_node_id":"0.0-18.0-0.0","params":{"nStudents":24,"maxFlips":30,"completionMinutes":45,"basePay":8,"maxBonus":9,"perTrialBonus":0.5,"perTrialBonusThreshold":0.05,"exampleCost":0.01},"classroomParams":{"A":{"a":1,"b":4},"B":{"a":4,"b":1},"C":{"a":2,"b":8},"D":{"a":8,"b":2}},"conditions":["nonSeqFull","nonSeqPartial","seqNoFeedback","seqFeedback"],"classroomPairings":[["A","B"],["C","D"]],"coinWeights":[0.2,0.5,0.8],"subjectId":"ANK8K5WTHJ61C","assignmentId":"30MVJZJNHNZ0CR6AKJXH085ZQG8J91","hitId":"3JGHED38EDDK7DFM0KVY7GXU94LY7W","url":"https://gershmanlab.com/experiments/alicia/teaching/experiment/?hitId=3JGHED38EDDK7DFM0KVY7GXU94LY7W&workerId=ANK8K5WTHJ61C&assignmentId=30MVJZJNHNZ0CR6AKJXH085ZQG8J91&a=NJM09&tp_a=NJM09&b=30MVJZJNHNZ0CR6AKJXH085ZQG8J91&tp_b=30MVJZJNHNZ0CR6AKJXH085ZQG8J91&c=365799&tp_c=365799","heads":8,"tails":2,"studentIndex":2,"studentTrueHypers":{"a":2,"b":8},"studentGuess":0.5,"delta":0.30000000000000004,"totalExamples":10,"bonus":0,"bonusSoFar":0.85},{"rt":null,"stimulus":"Sending examples to student... ","response":null,"trial_type":"html-keyboard-response","trial_index":29,"time_elapsed":2779537,"internal_node_id":"0.0-19.0","params":{"nStudents":24,"maxFlips":30,"completionMinutes":45,"basePay":8,"maxBonus":9,"perTrialBonus":0.5,"perTrialBonusThreshold":0.05,"exampleCost":0.01},"classroomParams":{"A":{"a":1,"b":4},"B":{"a":4,"b":1},"C":{"a":2,"b":8},"D":{"a":8,"b":2}},"conditions":["nonSeqFull","nonSeqPartial","seqNoFeedback","seqFeedback"],"classroomPairings":[["A","B"],["C","D"]],"coinWeights":[0.2,0.5,0.8],"subjectId":"ANK8K5WTHJ61C","assignmentId":"30MVJZJNHNZ0CR6AKJXH085ZQG8J91","hitId":"3JGHED38EDDK7DFM0KVY7GXU94LY7W","url":"https://gershmanlab.com/experiments/alicia/teaching/experiment/?hitId=3JGHED38EDDK7DFM0KVY7GXU94LY7W&workerId=ANK8K5WTHJ61C&assignmentId=30MVJZJNHNZ0CR6AKJXH085ZQG8J91&a=NJM09&tp_a=NJM09&b=30MVJZJNHNZ0CR6AKJXH085ZQG8J91&tp_b=30MVJZJNHNZ0CR6AKJXH085ZQG8J91&c=365799&tp_c=365799"},{"rt":null,"stimulus":"Examples sent to student! Waiting for student...","response":null,"trial_type":"html-keyboard-response","trial_index":30,"time_elapsed":2783543,"internal_node_id":"0.0-20.0","params":{"nStudents":24,"maxFlips":30,"completionMinutes":45,"basePay":8,"maxBonus":9,"perTrialBonus":0.5,"perTrialBonusThreshold":0.05,"exampleCost":0.01},"classroomParams":{"A":{"a":1,"b":4},"B":{"a":4,"b":1},"C":{"a":2,"b":8},"D":{"a":8,"b":2}},"conditions":["nonSeqFull","nonSeqPartial","seqNoFeedback","seqFeedback"],"classroomPairings":[["A","B"],["C","D"]],"coinWeights":[0.2,0.5,0.8],"subjectId":"ANK8K5WTHJ61C","assignmentId":"30MVJZJNHNZ0CR6AKJXH085ZQG8J91","hitId":"3JGHED38EDDK7DFM0KVY7GXU94LY7W","url":"https://gershmanlab.com/experiments/alicia/teaching/experiment/?hitId=3JGHED38EDDK7DFM0KVY7GXU94LY7W&workerId=ANK8K5WTHJ61C&assignmentId=30MVJZJNHNZ0CR6AKJXH085ZQG8J91&a=NJM09&tp_a=NJM09&b=30MVJZJNHNZ0CR6AKJXH085ZQG8J91&tp_b=30MVJZJNHNZ0CR6AKJXH085ZQG8J91&c=365799&tp_c=365799"},{"rt":6084,"stimulus":"\n                <p>Student's guess for coin weight: <b style=\"color:Tomato;\">0.50</b></p>\n                <p>You received a bonus of <b>$0</b>. Total bonus so far: <b>$0.85</b></b></p>\n                <p></p>\n                <p>Press any key to continue.</p>\n                ","response":" ","trial_type":"html-keyboard-response","trial_index":31,"time_elapsed":2789629,"internal_node_id":"0.0-21.0","params":{"nStudents":24,"maxFlips":30,"completionMinutes":45,"basePay":8,"maxBonus":9,"perTrialBonus":0.5,"perTrialBonusThreshold":0.05,"exampleCost":0.01},"classroomParams":{"A":{"a":1,"b":4},"B":{"a":4,"b":1},"C":{"a":2,"b":8},"D":{"a":8,"b":2}},"conditions":["nonSeqFull","nonSeqPartial","seqNoFeedback","seqFeedback"],"classroomPairings":[["A","B"],["C","D"]],"coinWeights":[0.2,0.5,0.8],"subjectId":"ANK8K5WTHJ61C","assignmentId":"30MVJZJNHNZ0CR6AKJXH085ZQG8J91","hitId":"3JGHED38EDDK7DFM0KVY7GXU94LY7W","url":"https://gershmanlab.com/experiments/alicia/teaching/experiment/?hitId=3JGHED38EDDK7DFM0KVY7GXU94LY7W&workerId=ANK8K5WTHJ61C&assignmentId=30MVJZJNHNZ0CR6AKJXH085ZQG8J91&a=NJM09&tp_a=NJM09&b=30MVJZJNHNZ0CR6AKJXH085ZQG8J91&tp_b=30MVJZJNHNZ0CR6AKJXH085ZQG8J91&c=365799&tp_c=365799"},{"rt":null,"stimulus":"<div style=\"font-size:60px;\">Next student</div>","response":null,"trial_type":"html-keyboard-response","trial_index":32,"time_elapsed":2791881,"internal_node_id":"0.0-22.0-0.0","params":{"nStudents":24,"maxFlips":30,"completionMinutes":45,"basePay":8,"maxBonus":9,"perTrialBonus":0.5,"perTrialBonusThreshold":0.05,"exampleCost":0.01},"classroomParams":{"A":{"a":1,"b":4},"B":{"a":4,"b":1},"C":{"a":2,"b":8},"D":{"a":8,"b":2}},"conditions":["nonSeqFull","nonSeqPartial","seqNoFeedback","seqFeedback"],"classroomPairings":[["A","B"],["C","D"]],"coinWeights":[0.2,0.5,0.8],"subjectId":"ANK8K5WTHJ61C","assignmentId":"30MVJZJNHNZ0CR6AKJXH085ZQG8J91","hitId":"3JGHED38EDDK7DFM0KVY7GXU94LY7W","url":"https://gershmanlab.com/experiments/alicia/teaching/experiment/?hitId=3JGHED38EDDK7DFM0KVY7GXU94LY7W&workerId=ANK8K5WTHJ61C&assignmentId=30MVJZJNHNZ0CR6AKJXH085ZQG8J91&a=NJM09&tp_a=NJM09&b=30MVJZJNHNZ0CR6AKJXH085ZQG8J91&tp_b=30MVJZJNHNZ0CR6AKJXH085ZQG8J91&c=365799&tp_c=365799"},{"rt":5134,"stimulus":"\n            <h4 style=\"color:Orange;\">Student 4</h4>\n            <h2>The weight of your coin is <b style=\"color:Tomato;\">0.2</b>.</h2>\n            <p>In this block, you will be giving <b>one</b> set of examples to Student 4.</p>\n                <p>You will receive feedback at the end of the block.</p>\n            <p></p>","response":0,"trial_type":"html-button-response","trial_index":33,"time_elapsed":2797017,"internal_node_id":"0.0-23.0","params":{"nStudents":24,"maxFlips":30,"completionMinutes":45,"basePay":8,"maxBonus":9,"perTrialBonus":0.5,"perTrialBonusThreshold":0.05,"exampleCost":0.01},"classroomParams":{"A":{"a":1,"b":4},"B":{"a":4,"b":1},"C":{"a":2,"b":8},"D":{"a":8,"b":2}},"conditions":["nonSeqFull","nonSeqPartial","seqNoFeedback","seqFeedback"],"classroomPairings":[["A","B"],["C","D"]],"coinWeights":[0.2,0.5,0.8],"subjectId":"ANK8K5WTHJ61C","assignmentId":"30MVJZJNHNZ0CR6AKJXH085ZQG8J91","hitId":"3JGHED38EDDK7DFM0KVY7GXU94LY7W","url":"https://gershmanlab.com/experiments/alicia/teaching/experiment/?hitId=3JGHED38EDDK7DFM0KVY7GXU94LY7W&workerId=ANK8K5WTHJ61C&assignmentId=30MVJZJNHNZ0CR6AKJXH085ZQG8J91&a=NJM09&tp_a=NJM09&b=30MVJZJNHNZ0CR6AKJXH085ZQG8J91&tp_b=30MVJZJNHNZ0CR6AKJXH085ZQG8J91&c=365799&tp_c=365799"},{"rt":21217,"response":{"heads":"4","tails":"1"},"type":"response","condition":"nonSeqPartial","trueTheta":0.2,"classrooms":["A","B"],"studentTrueClassroom":"A","exampleSet":"first","trial_type":"survey-html-form","trial_index":34,"time_elapsed":2818235,"internal_node_id":"0.0-24.0-0.0","params":{"nStudents":24,"maxFlips":30,"completionMinutes":45,"basePay":8,"maxBonus":9,"perTrialBonus":0.5,"perTrialBonusThreshold":0.05,"exampleCost":0.01},"classroomParams":{"A":{"a":1,"b":4},"B":{"a":4,"b":1},"C":{"a":2,"b":8},"D":{"a":8,"b":2}},"conditions":["nonSeqFull","nonSeqPartial","seqNoFeedback","seqFeedback"],"classroomPairings":[["A","B"],["C","D"]],"coinWeights":[0.2,0.5,0.8],"subjectId":"ANK8K5WTHJ61C","assignmentId":"30MVJZJNHNZ0CR6AKJXH085ZQG8J91","hitId":"3JGHED38EDDK7DFM0KVY7GXU94LY7W","url":"https://gershmanlab.com/experiments/alicia/teaching/experiment/?hitId=3JGHED38EDDK7DFM0KVY7GXU94LY7W&workerId=ANK8K5WTHJ61C&assignmentId=30MVJZJNHNZ0CR6AKJXH085ZQG8J91&a=NJM09&tp_a=NJM09&b=30MVJZJNHNZ0CR6AKJXH085ZQG8J91&tp_b=30MVJZJNHNZ0CR6AKJXH085ZQG8J91&c=365799&tp_c=365799","heads":4,"tails":1,"studentIndex":3,"studentTrueHypers":{"a":1,"b":4},"studentGuess":0.5,"delta":0.3,"totalExamples":5,"bonus":0,"bonusSoFar":0.85},{"rt":null,"stimulus":"Sending examples to student... ","response":null,"trial_type":"html-keyboard-response","trial_index":35,"time_elapsed":2819737,"internal_node_id":"0.0-25.0","params":{"nStudents":24,"maxFlips":30,"completionMinutes":45,"basePay":8,"maxBonus":9,"perTrialBonus":0.5,"perTrialBonusThreshold":0.05,"exampleCost":0.01},"classroomParams":{"A":{"a":1,"b":4},"B":{"a":4,"b":1},"C":{"a":2,"b":8},"D":{"a":8,"b":2}},"conditions":["nonSeqFull","nonSeqPartial","seqNoFeedback","seqFeedback"],"classroomPairings":[["A","B"],["C","D"]],"coinWeights":[0.2,0.5,0.8],"subjectId":"ANK8K5WTHJ61C","assignmentId":"30MVJZJNHNZ0CR6AKJXH085ZQG8J91","hitId":"3JGHED38EDDK7DFM0KVY7GXU94LY7W","url":"https://gershmanlab.com/experiments/alicia/teaching/experiment/?hitId=3JGHED38EDDK7DFM0KVY7GXU94LY7W&workerId=ANK8K5WTHJ61C&assignmentId=30MVJZJNHNZ0CR6AKJXH085ZQG8J91&a=NJM09&tp_a=NJM09&b=30MVJZJNHNZ0CR6AKJXH085ZQG8J91&tp_b=30MVJZJNHNZ0CR6AKJXH085ZQG8J91&c=365799&tp_c=365799"},{"rt":null,"stimulus":"Examples sent to student! Waiting for student...","response":null,"trial_type":"html-keyboard-response","trial_index":36,"time_elapsed":2825738,"internal_node_id":"0.0-26.0","params":{"nStudents":24,"maxFlips":30,"completionMinutes":45,"basePay":8,"maxBonus":9,"perTrialBonus":0.5,"perTrialBonusThreshold":0.05,"exampleCost":0.01},"classroomParams":{"A":{"a":1,"b":4},"B":{"a":4,"b":1},"C":{"a":2,"b":8},"D":{"a":8,"b":2}},"conditions":["nonSeqFull","nonSeqPartial","seqNoFeedback","seqFeedback"],"classroomPairings":[["A","B"],["C","D"]],"coinWeights":[0.2,0.5,0.8],"subjectId":"ANK8K5WTHJ61C","assignmentId":"30MVJZJNHNZ0CR6AKJXH085ZQG8J91","hitId":"3JGHED38EDDK7DFM0KVY7GXU94LY7W","url":"https://gershmanlab.com/experiments/alicia/teaching/experiment/?hitId=3JGHED38EDDK7DFM0KVY7GXU94LY7W&workerId=ANK8K5WTHJ61C&assignmentId=30MVJZJNHNZ0CR6AKJXH085ZQG8J91&a=NJM09&tp_a=NJM09&b=30MVJZJNHNZ0CR6AKJXH085ZQG8J91&tp_b=30MVJZJNHNZ0CR6AKJXH085ZQG8J91&c=365799&tp_c=365799"},{"rt":4094,"stimulus":"\n                <p>Student's guess for coin weight: <b style=\"color:Tomato;\">0.50</b></p>\n                <p>You received a bonus of <b>$0</b>. Total bonus so far: <b>$0.85</b></b></p>\n                <p></p>\n                <p>Press any key to continue.</p>\n                ","response":" ","trial_type":"html-keyboard-response","trial_index":37,"time_elapsed":2829833,"internal_node_id":"0.0-27.0","params":{"nStudents":24,"maxFlips":30,"completionMinutes":45,"basePay":8,"maxBonus":9,"perTrialBonus":0.5,"perTrialBonusThreshold":0.05,"exampleCost":0.01},"classroomParams":{"A":{"a":1,"b":4},"B":{"a":4,"b":1},"C":{"a":2,"b":8},"D":{"a":8,"b":2}},"conditions":["nonSeqFull","nonSeqPartial","seqNoFeedback","seqFeedback"],"classroomPairings":[["A","B"],["C","D"]],"coinWeights":[0.2,0.5,0.8],"subjectId":"ANK8K5WTHJ61C","assignmentId":"30MVJZJNHNZ0CR6AKJXH085ZQG8J91","hitId":"3JGHED38EDDK7DFM0KVY7GXU94LY7W","url":"https://gershmanlab.com/experiments/alicia/teaching/experiment/?hitId=3JGHED38EDDK7DFM0KVY7GXU94LY7W&workerId=ANK8K5WTHJ61C&assignmentId=30MVJZJNHNZ0CR6AKJXH085ZQG8J91&a=NJM09&tp_a=NJM09&b=30MVJZJNHNZ0CR6AKJXH085ZQG8J91&tp_b=30MVJZJNHNZ0CR6AKJXH085ZQG8J91&c=365799&tp_c=365799"},{"rt":null,"stimulus":"<div style=\"font-size:60px;\">Next student</div>","response":null,"trial_type":"html-keyboard-response","trial_index":38,"time_elapsed":2832085,"internal_node_id":"0.0-28.0-0.0","params":{"nStudents":24,"maxFlips":30,"completionMinutes":45,"basePay":8,"maxBonus":9,"perTrialBonus":0.5,"perTrialBonusThreshold":0.05,"exampleCost":0.01},"classroomParams":{"A":{"a":1,"b":4},"B":{"a":4,"b":1},"C":{"a":2,"b":8},"D":{"a":8,"b":2}},"conditions":["nonSeqFull","nonSeqPartial","seqNoFeedback","seqFeedback"],"classroomPairings":[["A","B"],["C","D"]],"coinWeights":[0.2,0.5,0.8],"subjectId":"ANK8K5WTHJ61C","assignmentId":"30MVJZJNHNZ0CR6AKJXH085ZQG8J91","hitId":"3JGHED38EDDK7DFM0KVY7GXU94LY7W","url":"https://gershmanlab.com/experiments/alicia/teaching/experiment/?hitId=3JGHED38EDDK7DFM0KVY7GXU94LY7W&workerId=ANK8K5WTHJ61C&assignmentId=30MVJZJNHNZ0CR6AKJXH085ZQG8J91&a=NJM09&tp_a=NJM09&b=30MVJZJNHNZ0CR6AKJXH085ZQG8J91&tp_b=30MVJZJNHNZ0CR6AKJXH085ZQG8J91&c=365799&tp_c=365799"},{"rt":5249,"stimulus":"\n            <h4 style=\"color:Orange;\">Student 5</h4>\n            <h2>The weight of your coin is <b style=\"color:Tomato;\">0.8</b>.</h2>\n            <p>In this block, you will be giving <b>two</b> sets of examples to Student 5.</p>\n                <p>You will see the student's guess after the first set of examples. You will also receive feedback at the end of the block.</p>\n            <p>To earn the highest bonus, you will have to <b>take into consideration the student's guess</b> when you choose your second set of examples.</p>","response":0,"trial_type":"html-button-response","trial_index":39,"time_elapsed":2837335,"internal_node_id":"0.0-29.0","params":{"nStudents":24,"maxFlips":30,"completionMinutes":45,"basePay":8,"maxBonus":9,"perTrialBonus":0.5,"perTrialBonusThreshold":0.05,"exampleCost":0.01},"classroomParams":{"A":{"a":1,"b":4},"B":{"a":4,"b":1},"C":{"a":2,"b":8},"D":{"a":8,"b":2}},"conditions":["nonSeqFull","nonSeqPartial","seqNoFeedback","seqFeedback"],"classroomPairings":[["A","B"],["C","D"]],"coinWeights":[0.2,0.5,0.8],"subjectId":"ANK8K5WTHJ61C","assignmentId":"30MVJZJNHNZ0CR6AKJXH085ZQG8J91","hitId":"3JGHED38EDDK7DFM0KVY7GXU94LY7W","url":"https://gershmanlab.com/experiments/alicia/teaching/experiment/?hitId=3JGHED38EDDK7DFM0KVY7GXU94LY7W&workerId=ANK8K5WTHJ61C&assignmentId=30MVJZJNHNZ0CR6AKJXH085ZQG8J91&a=NJM09&tp_a=NJM09&b=30MVJZJNHNZ0CR6AKJXH085ZQG8J91&tp_b=30MVJZJNHNZ0CR6AKJXH085ZQG8J91&c=365799&tp_c=365799"},{"rt":20081,"response":{"heads":"8","tails":"1"},"type":"response","condition":"seqFeedback","trueTheta":0.8,"classrooms":["A","B"],"studentTrueClassroom":"A","exampleSet":"first","trial_type":"survey-html-form","trial_index":40,"time_elapsed":2857418,"internal_node_id":"0.0-30.0-0.0","params":{"nStudents":24,"maxFlips":30,"completionMinutes":45,"basePay":8,"maxBonus":9,"perTrialBonus":0.5,"perTrialBonusThreshold":0.05,"exampleCost":0.01},"classroomParams":{"A":{"a":1,"b":4},"B":{"a":4,"b":1},"C":{"a":2,"b":8},"D":{"a":8,"b":2}},"conditions":["nonSeqFull","nonSeqPartial","seqNoFeedback","seqFeedback"],"classroomPairings":[["A","B"],["C","D"]],"coinWeights":[0.2,0.5,0.8],"subjectId":"ANK8K5WTHJ61C","assignmentId":"30MVJZJNHNZ0CR6AKJXH085ZQG8J91","hitId":"3JGHED38EDDK7DFM0KVY7GXU94LY7W","url":"https://gershmanlab.com/experiments/alicia/teaching/experiment/?hitId=3JGHED38EDDK7DFM0KVY7GXU94LY7W&workerId=ANK8K5WTHJ61C&assignmentId=30MVJZJNHNZ0CR6AKJXH085ZQG8J91&a=NJM09&tp_a=NJM09&b=30MVJZJNHNZ0CR6AKJXH085ZQG8J91&tp_b=30MVJZJNHNZ0CR6AKJXH085ZQG8J91&c=365799&tp_c=365799","heads":8,"tails":1,"studentIndex":4,"studentTrueHypers":{"a":1,"b":4},"studentGuess":0.6428571428571429,"delta":0.15714285714285714,"totalExamples":9,"bonusSoFar":0.85},{"rt":null,"stimulus":"Sending examples to student... ","response":null,"trial_type":"html-keyboard-response","trial_index":41,"time_elapsed":2858675,"internal_node_id":"0.0-31.0","params":{"nStudents":24,"maxFlips":30,"completionMinutes":45,"basePay":8,"maxBonus":9,"perTrialBonus":0.5,"perTrialBonusThreshold":0.05,"exampleCost":0.01},"classroomParams":{"A":{"a":1,"b":4},"B":{"a":4,"b":1},"C":{"a":2,"b":8},"D":{"a":8,"b":2}},"conditions":["nonSeqFull","nonSeqPartial","seqNoFeedback","seqFeedback"],"classroomPairings":[["A","B"],["C","D"]],"coinWeights":[0.2,0.5,0.8],"subjectId":"ANK8K5WTHJ61C","assignmentId":"30MVJZJNHNZ0CR6AKJXH085ZQG8J91","hitId":"3JGHED38EDDK7DFM0KVY7GXU94LY7W","url":"https://gershmanlab.com/experiments/alicia/teaching/experiment/?hitId=3JGHED38EDDK7DFM0KVY7GXU94LY7W&workerId=ANK8K5WTHJ61C&assignmentId=30MVJZJNHNZ0CR6AKJXH085ZQG8J91&a=NJM09&tp_a=NJM09&b=30MVJZJNHNZ0CR6AKJXH085ZQG8J91&tp_b=30MVJZJNHNZ0CR6AKJXH085ZQG8J91&c=365799&tp_c=365799"},{"rt":null,"stimulus":"Examples sent to student! Waiting for student...","response":null,"trial_type":"html-keyboard-response","trial_index":42,"time_elapsed":2863681,"internal_node_id":"0.0-32.0","params":{"nStudents":24,"maxFlips":30,"completionMinutes":45,"basePay":8,"maxBonus":9,"perTrialBonus":0.5,"perTrialBonusThreshold":0.05,"exampleCost":0.01},"classroomParams":{"A":{"a":1,"b":4},"B":{"a":4,"b":1},"C":{"a":2,"b":8},"D":{"a":8,"b":2}},"conditions":["nonSeqFull","nonSeqPartial","seqNoFeedback","seqFeedback"],"classroomPairings":[["A","B"],["C","D"]],"coinWeights":[0.2,0.5,0.8],"subjectId":"ANK8K5WTHJ61C","assignmentId":"30MVJZJNHNZ0CR6AKJXH085ZQG8J91","hitId":"3JGHED38EDDK7DFM0KVY7GXU94LY7W","url":"https://gershmanlab.com/experiments/alicia/teaching/experiment/?hitId=3JGHED38EDDK7DFM0KVY7GXU94LY7W&workerId=ANK8K5WTHJ61C&assignmentId=30MVJZJNHNZ0CR6AKJXH085ZQG8J91&a=NJM09&tp_a=NJM09&b=30MVJZJNHNZ0CR6AKJXH085ZQG8J91&tp_b=30MVJZJNHNZ0CR6AKJXH085ZQG8J91&c=365799&tp_c=365799"},{"rt":4334,"stimulus":"\n                <p>Student's guess for coin weight: <b style=\"color:Tomato;\">0.64</b></p>\n                <p></b></p>\n                <p>You will now send another set of examples to your student. <b>Remember to take your student's guess into consideration so that you can earn the highest bonus possible!</b> </p>\n                <p>Press any key to continue.</p>\n                ","response":" ","trial_type":"html-keyboard-response","trial_index":43,"time_elapsed":2868016,"internal_node_id":"0.0-33.0","params":{"nStudents":24,"maxFlips":30,"completionMinutes":45,"basePay":8,"maxBonus":9,"perTrialBonus":0.5,"perTrialBonusThreshold":0.05,"exampleCost":0.01},"classroomParams":{"A":{"a":1,"b":4},"B":{"a":4,"b":1},"C":{"a":2,"b":8},"D":{"a":8,"b":2}},"conditions":["nonSeqFull","nonSeqPartial","seqNoFeedback","seqFeedback"],"classroomPairings":[["A","B"],["C","D"]],"coinWeights":[0.2,0.5,0.8],"subjectId":"ANK8K5WTHJ61C","assignmentId":"30MVJZJNHNZ0CR6AKJXH085ZQG8J91","hitId":"3JGHED38EDDK7DFM0KVY7GXU94LY7W","url":"https://gershmanlab.com/experiments/alicia/teaching/experiment/?hitId=3JGHED38EDDK7DFM0KVY7GXU94LY7W&workerId=ANK8K5WTHJ61C&assignmentId=30MVJZJNHNZ0CR6AKJXH085ZQG8J91&a=NJM09&tp_a=NJM09&b=30MVJZJNHNZ0CR6AKJXH085ZQG8J91&tp_b=30MVJZJNHNZ0CR6AKJXH085ZQG8J91&c=365799&tp_c=365799"},{"rt":39618,"response":{"heads":"10","tails":"2"},"type":"response","condition":"seqFeedback","trueTheta":0.8,"classrooms":["A","B"],"studentTrueClassroom":"A","exampleSet":"second","trial_type":"survey-html-form","trial_index":44,"time_elapsed":2907635,"internal_node_id":"0.0-34.0-0.0","params":{"nStudents":24,"maxFlips":30,"completionMinutes":45,"basePay":8,"maxBonus":9,"perTrialBonus":0.5,"perTrialBonusThreshold":0.05,"exampleCost":0.01},"classroomParams":{"A":{"a":1,"b":4},"B":{"a":4,"b":1},"C":{"a":2,"b":8},"D":{"a":8,"b":2}},"conditions":["nonSeqFull","nonSeqPartial","seqNoFeedback","seqFeedback"],"classroomPairings":[["A","B"],["C","D"]],"coinWeights":[0.2,0.5,0.8],"subjectId":"ANK8K5WTHJ61C","assignmentId":"30MVJZJNHNZ0CR6AKJXH085ZQG8J91","hitId":"3JGHED38EDDK7DFM0KVY7GXU94LY7W","url":"https://gershmanlab.com/experiments/alicia/teaching/experiment/?hitId=3JGHED38EDDK7DFM0KVY7GXU94LY7W&workerId=ANK8K5WTHJ61C&assignmentId=30MVJZJNHNZ0CR6AKJXH085ZQG8J91&a=NJM09&tp_a=NJM09&b=30MVJZJNHNZ0CR6AKJXH085ZQG8J91&tp_b=30MVJZJNHNZ0CR6AKJXH085ZQG8J91&c=365799&tp_c=365799","firstResponseHeads":8,"firstResponseTails":1,"secondResponseHeads":10,"secondResponseTails":2,"totalHeads":18,"totalTails":3,"studentIndex":4,"studentTrueHypers":{"a":1,"b":4},"studentGuess":0.7307692307692307,"delta":0.06923076923076932,"bonus":0,"bonusSoFar":0.85,"totalExamples":21},{"rt":null,"stimulus":"Sending examples to student... ","response":null,"trial_type":"html-keyboard-response","trial_index":45,"time_elapsed":2908892,"internal_node_id":"0.0-35.0","params":{"nStudents":24,"maxFlips":30,"completionMinutes":45,"basePay":8,"maxBonus":9,"perTrialBonus":0.5,"perTrialBonusThreshold":0.05,"exampleCost":0.01},"classroomParams":{"A":{"a":1,"b":4},"B":{"a":4,"b":1},"C":{"a":2,"b":8},"D":{"a":8,"b":2}},"conditions":["nonSeqFull","nonSeqPartial","seqNoFeedback","seqFeedback"],"classroomPairings":[["A","B"],["C","D"]],"coinWeights":[0.2,0.5,0.8],"subjectId":"ANK8K5WTHJ61C","assignmentId":"30MVJZJNHNZ0CR6AKJXH085ZQG8J91","hitId":"3JGHED38EDDK7DFM0KVY7GXU94LY7W","url":"https://gershmanlab.com/experiments/alicia/teaching/experiment/?hitId=3JGHED38EDDK7DFM0KVY7GXU94LY7W&workerId=ANK8K5WTHJ61C&assignmentId=30MVJZJNHNZ0CR6AKJXH085ZQG8J91&a=NJM09&tp_a=NJM09&b=30MVJZJNHNZ0CR6AKJXH085ZQG8J91&tp_b=30MVJZJNHNZ0CR6AKJXH085ZQG8J91&c=365799&tp_c=365799"},{"rt":null,"stimulus":"Examples sent to student! Waiting for student...","response":null,"trial_type":"html-keyboard-response","trial_index":46,"time_elapsed":2913395,"internal_node_id":"0.0-36.0","params":{"nStudents":24,"maxFlips":30,"completionMinutes":45,"basePay":8,"maxBonus":9,"perTrialBonus":0.5,"perTrialBonusThreshold":0.05,"exampleCost":0.01},"classroomParams":{"A":{"a":1,"b":4},"B":{"a":4,"b":1},"C":{"a":2,"b":8},"D":{"a":8,"b":2}},"conditions":["nonSeqFull","nonSeqPartial","seqNoFeedback","seqFeedback"],"classroomPairings":[["A","B"],["C","D"]],"coinWeights":[0.2,0.5,0.8],"subjectId":"ANK8K5WTHJ61C","assignmentId":"30MVJZJNHNZ0CR6AKJXH085ZQG8J91","hitId":"3JGHED38EDDK7DFM0KVY7GXU94LY7W","url":"https://gershmanlab.com/experiments/alicia/teaching/experiment/?hitId=3JGHED38EDDK7DFM0KVY7GXU94LY7W&workerId=ANK8K5WTHJ61C&assignmentId=30MVJZJNHNZ0CR6AKJXH085ZQG8J91&a=NJM09&tp_a=NJM09&b=30MVJZJNHNZ0CR6AKJXH085ZQG8J91&tp_b=30MVJZJNHNZ0CR6AKJXH085ZQG8J91&c=365799&tp_c=365799"},{"rt":3579,"stimulus":"\n                <p>Student 5's first guess for coin weight: <b style=\"color:Tomato\";>0.64</b></p>\n                <p>Student 5's second guess for coin weight: <b style=\"color:Tomato\";>0.73</b></p>\n                <p>You received a bonus of <b>$0.00</b> based on the student's second guess.</p>\n                <p>Total bonus so far: <b>$0.85</b></p>\n                <p>Press any key to continue.</p>\n                ","response":" ","trial_type":"html-keyboard-response","trial_index":47,"time_elapsed":2916976,"internal_node_id":"0.0-37.0","params":{"nStudents":24,"maxFlips":30,"completionMinutes":45,"basePay":8,"maxBonus":9,"perTrialBonus":0.5,"perTrialBonusThreshold":0.05,"exampleCost":0.01},"classroomParams":{"A":{"a":1,"b":4},"B":{"a":4,"b":1},"C":{"a":2,"b":8},"D":{"a":8,"b":2}},"conditions":["nonSeqFull","nonSeqPartial","seqNoFeedback","seqFeedback"],"classroomPairings":[["A","B"],["C","D"]],"coinWeights":[0.2,0.5,0.8],"subjectId":"ANK8K5WTHJ61C","assignmentId":"30MVJZJNHNZ0CR6AKJXH085ZQG8J91","hitId":"3JGHED38EDDK7DFM0KVY7GXU94LY7W","url":"https://gershmanlab.com/experiments/alicia/teaching/experiment/?hitId=3JGHED38EDDK7DFM0KVY7GXU94LY7W&workerId=ANK8K5WTHJ61C&assignmentId=30MVJZJNHNZ0CR6AKJXH085ZQG8J91&a=NJM09&tp_a=NJM09&b=30MVJZJNHNZ0CR6AKJXH085ZQG8J91&tp_b=30MVJZJNHNZ0CR6AKJXH085ZQG8J91&c=365799&tp_c=365799"},{"rt":null,"stimulus":"<div style=\"font-size:60px;\">Next student</div>","response":null,"trial_type":"html-keyboard-response","trial_index":48,"time_elapsed":2919232,"internal_node_id":"0.0-38.0-0.0","params":{"nStudents":24,"maxFlips":30,"completionMinutes":45,"basePay":8,"maxBonus":9,"perTrialBonus":0.5,"perTrialBonusThreshold":0.05,"exampleCost":0.01},"classroomParams":{"A":{"a":1,"b":4},"B":{"a":4,"b":1},"C":{"a":2,"b":8},"D":{"a":8,"b":2}},"conditions":["nonSeqFull","nonSeqPartial","seqNoFeedback","seqFeedback"],"classroomPairings":[["A","B"],["C","D"]],"coinWeights":[0.2,0.5,0.8],"subjectId":"ANK8K5WTHJ61C","assignmentId":"30MVJZJNHNZ0CR6AKJXH085ZQG8J91","hitId":"3JGHED38EDDK7DFM0KVY7GXU94LY7W","url":"https://gershmanlab.com/experiments/alicia/teaching/experiment/?hitId=3JGHED38EDDK7DFM0KVY7GXU94LY7W&workerId=ANK8K5WTHJ61C&assignmentId=30MVJZJNHNZ0CR6AKJXH085ZQG8J91&a=NJM09&tp_a=NJM09&b=30MVJZJNHNZ0CR6AKJXH085ZQG8J91&tp_b=30MVJZJNHNZ0CR6AKJXH085ZQG8J91&c=365799&tp_c=365799"},{"rt":3234,"stimulus":"\n            <h4 style=\"color:Orange;\">Student 6</h4>\n            <h2>The weight of your coin is <b style=\"color:Tomato;\">0.2</b>.</h2>\n            <p>In this block, you will be giving <b>two</b> sets of examples to Student 6.</p>\n                <p>You will receive feedback at the end of the block.</p>\n            <p></p>","response":0,"trial_type":"html-button-response","trial_index":49,"time_elapsed":2922469,"internal_node_id":"0.0-39.0","params":{"nStudents":24,"maxFlips":30,"completionMinutes":45,"basePay":8,"maxBonus":9,"perTrialBonus":0.5,"perTrialBonusThreshold":0.05,"exampleCost":0.01},"classroomParams":{"A":{"a":1,"b":4},"B":{"a":4,"b":1},"C":{"a":2,"b":8},"D":{"a":8,"b":2}},"conditions":["nonSeqFull","nonSeqPartial","seqNoFeedback","seqFeedback"],"classroomPairings":[["A","B"],["C","D"]],"coinWeights":[0.2,0.5,0.8],"subjectId":"ANK8K5WTHJ61C","assignmentId":"30MVJZJNHNZ0CR6AKJXH085ZQG8J91","hitId":"3JGHED38EDDK7DFM0KVY7GXU94LY7W","url":"https://gershmanlab.com/experiments/alicia/teaching/experiment/?hitId=3JGHED38EDDK7DFM0KVY7GXU94LY7W&workerId=ANK8K5WTHJ61C&assignmentId=30MVJZJNHNZ0CR6AKJXH085ZQG8J91&a=NJM09&tp_a=NJM09&b=30MVJZJNHNZ0CR6AKJXH085ZQG8J91&tp_b=30MVJZJNHNZ0CR6AKJXH085ZQG8J91&c=365799&tp_c=365799"},{"rt":23832,"response":{"heads":"3","tails":"1"},"type":"response","condition":"seqNoFeedback","trueTheta":0.2,"classrooms":["A","B"],"studentTrueClassroom":"A","exampleSet":"first","trial_type":"survey-html-form","trial_index":50,"time_elapsed":2946303,"internal_node_id":"0.0-40.0-0.0","params":{"nStudents":24,"maxFlips":30,"completionMinutes":45,"basePay":8,"maxBonus":9,"perTrialBonus":0.5,"perTrialBonusThreshold":0.05,"exampleCost":0.01},"classroomParams":{"A":{"a":1,"b":4},"B":{"a":4,"b":1},"C":{"a":2,"b":8},"D":{"a":8,"b":2}},"conditions":["nonSeqFull","nonSeqPartial","seqNoFeedback","seqFeedback"],"classroomPairings":[["A","B"],["C","D"]],"coinWeights":[0.2,0.5,0.8],"subjectId":"ANK8K5WTHJ61C","assignmentId":"30MVJZJNHNZ0CR6AKJXH085ZQG8J91","hitId":"3JGHED38EDDK7DFM0KVY7GXU94LY7W","url":"https://gershmanlab.com/experiments/alicia/teaching/experiment/?hitId=3JGHED38EDDK7DFM0KVY7GXU94LY7W&workerId=ANK8K5WTHJ61C&assignmentId=30MVJZJNHNZ0CR6AKJXH085ZQG8J91&a=NJM09&tp_a=NJM09&b=30MVJZJNHNZ0CR6AKJXH085ZQG8J91&tp_b=30MVJZJNHNZ0CR6AKJXH085ZQG8J91&c=365799&tp_c=365799","heads":3,"tails":1,"studentIndex":5,"studentTrueHypers":{"a":1,"b":4},"studentGuess":0.4444444444444444,"delta":0.2444444444444444,"totalExamples":4,"bonusSoFar":0.85},{"rt":null,"stimulus":"Sending examples to student... ","response":null,"trial_type":"html-keyboard-response","trial_index":51,"time_elapsed":2947809,"internal_node_id":"0.0-41.0","params":{"nStudents":24,"maxFlips":30,"completionMinutes":45,"basePay":8,"maxBonus":9,"perTrialBonus":0.5,"perTrialBonusThreshold":0.05,"exampleCost":0.01},"classroomParams":{"A":{"a":1,"b":4},"B":{"a":4,"b":1},"C":{"a":2,"b":8},"D":{"a":8,"b":2}},"conditions":["nonSeqFull","nonSeqPartial","seqNoFeedback","seqFeedback"],"classroomPairings":[["A","B"],["C","D"]],"coinWeights":[0.2,0.5,0.8],"subjectId":"ANK8K5WTHJ61C","assignmentId":"30MVJZJNHNZ0CR6AKJXH085ZQG8J91","hitId":"3JGHED38EDDK7DFM0KVY7GXU94LY7W","url":"https://gershmanlab.com/experiments/alicia/teaching/experiment/?hitId=3JGHED38EDDK7DFM0KVY7GXU94LY7W&workerId=ANK8K5WTHJ61C&assignmentId=30MVJZJNHNZ0CR6AKJXH085ZQG8J91&a=NJM09&tp_a=NJM09&b=30MVJZJNHNZ0CR6AKJXH085ZQG8J91&tp_b=30MVJZJNHNZ0CR6AKJXH085ZQG8J91&c=365799&tp_c=365799"},{"rt":null,"stimulus":"Examples sent to student! Waiting for student...","response":null,"trial_type":"html-keyboard-response","trial_index":52,"time_elapsed":2951812,"internal_node_id":"0.0-42.0","params":{"nStudents":24,"maxFlips":30,"completionMinutes":45,"basePay":8,"maxBonus":9,"perTrialBonus":0.5,"perTrialBonusThreshold":0.05,"exampleCost":0.01},"classroomParams":{"A":{"a":1,"b":4},"B":{"a":4,"b":1},"C":{"a":2,"b":8},"D":{"a":8,"b":2}},"conditions":["nonSeqFull","nonSeqPartial","seqNoFeedback","seqFeedback"],"classroomPairings":[["A","B"],["C","D"]],"coinWeights":[0.2,0.5,0.8],"subjectId":"ANK8K5WTHJ61C","assignmentId":"30MVJZJNHNZ0CR6AKJXH085ZQG8J91","hitId":"3JGHED38EDDK7DFM0KVY7GXU94LY7W","url":"https://gershmanlab.com/experiments/alicia/teaching/experiment/?hitId=3JGHED38EDDK7DFM0KVY7GXU94LY7W&workerId=ANK8K5WTHJ61C&assignmentId=30MVJZJNHNZ0CR6AKJXH085ZQG8J91&a=NJM09&tp_a=NJM09&b=30MVJZJNHNZ0CR6AKJXH085ZQG8J91&tp_b=30MVJZJNHNZ0CR6AKJXH085ZQG8J91&c=365799&tp_c=365799"},{"rt":15021,"response":{"heads":"2","tails":"0"},"type":"response","condition":"seqNoFeedback","trueTheta":0.2,"classrooms":["A","B"],"studentTrueClassroom":"A","exampleSet":"second","trial_type":"survey-html-form","trial_index":53,"time_elapsed":2966834,"internal_node_id":"0.0-43.0-0.0","params":{"nStudents":24,"maxFlips":30,"completionMinutes":45,"basePay":8,"maxBonus":9,"perTrialBonus":0.5,"perTrialBonusThreshold":0.05,"exampleCost":0.01},"classroomParams":{"A":{"a":1,"b":4},"B":{"a":4,"b":1},"C":{"a":2,"b":8},"D":{"a":8,"b":2}},"conditions":["nonSeqFull","nonSeqPartial","seqNoFeedback","seqFeedback"],"classroomPairings":[["A","B"],["C","D"]],"coinWeights":[0.2,0.5,0.8],"subjectId":"ANK8K5WTHJ61C","assignmentId":"30MVJZJNHNZ0CR6AKJXH085ZQG8J91","hitId":"3JGHED38EDDK7DFM0KVY7GXU94LY7W","url":"https://gershmanlab.com/experiments/alicia/teaching/experiment/?hitId=3JGHED38EDDK7DFM0KVY7GXU94LY7W&workerId=ANK8K5WTHJ61C&assignmentId=30MVJZJNHNZ0CR6AKJXH085ZQG8J91&a=NJM09&tp_a=NJM09&b=30MVJZJNHNZ0CR6AKJXH085ZQG8J91&tp_b=30MVJZJNHNZ0CR6AKJXH085ZQG8J91&c=365799&tp_c=365799","firstResponseHeads":3,"firstResponseTails":1,"secondResponseHeads":2,"secondResponseTails":0,"totalHeads":5,"totalTails":1,"studentIndex":5,"studentTrueHypers":{"a":1,"b":4},"studentGuess":0.5454545454545454,"delta":0.3454545454545454,"bonus":0,"bonusSoFar":0.85,"totalExamples":6},{"rt":null,"stimulus":"Sending examples to student... ","response":null,"trial_type":"html-keyboard-response","trial_index":54,"time_elapsed":2968337,"internal_node_id":"0.0-44.0","params":{"nStudents":24,"maxFlips":30,"completionMinutes":45,"basePay":8,"maxBonus":9,"perTrialBonus":0.5,"perTrialBonusThreshold":0.05,"exampleCost":0.01},"classroomParams":{"A":{"a":1,"b":4},"B":{"a":4,"b":1},"C":{"a":2,"b":8},"D":{"a":8,"b":2}},"conditions":["nonSeqFull","nonSeqPartial","seqNoFeedback","seqFeedback"],"classroomPairings":[["A","B"],["C","D"]],"coinWeights":[0.2,0.5,0.8],"subjectId":"ANK8K5WTHJ61C","assignmentId":"30MVJZJNHNZ0CR6AKJXH085ZQG8J91","hitId":"3JGHED38EDDK7DFM0KVY7GXU94LY7W","url":"https://gershmanlab.com/experiments/alicia/teaching/experiment/?hitId=3JGHED38EDDK7DFM0KVY7GXU94LY7W&workerId=ANK8K5WTHJ61C&assignmentId=30MVJZJNHNZ0CR6AKJXH085ZQG8J91&a=NJM09&tp_a=NJM09&b=30MVJZJNHNZ0CR6AKJXH085ZQG8J91&tp_b=30MVJZJNHNZ0CR6AKJXH085ZQG8J91&c=365799&tp_c=365799"},{"rt":null,"stimulus":"Examples sent to student! Waiting for student...","response":null,"trial_type":"html-keyboard-response","trial_index":55,"time_elapsed":2972343,"internal_node_id":"0.0-45.0","params":{"nStudents":24,"maxFlips":30,"completionMinutes":45,"basePay":8,"maxBonus":9,"perTrialBonus":0.5,"perTrialBonusThreshold":0.05,"exampleCost":0.01},"classroomParams":{"A":{"a":1,"b":4},"B":{"a":4,"b":1},"C":{"a":2,"b":8},"D":{"a":8,"b":2}},"conditions":["nonSeqFull","nonSeqPartial","seqNoFeedback","seqFeedback"],"classroomPairings":[["A","B"],["C","D"]],"coinWeights":[0.2,0.5,0.8],"subjectId":"ANK8K5WTHJ61C","assignmentId":"30MVJZJNHNZ0CR6AKJXH085ZQG8J91","hitId":"3JGHED38EDDK7DFM0KVY7GXU94LY7W","url":"https://gershmanlab.com/experiments/alicia/teaching/experiment/?hitId=3JGHED38EDDK7DFM0KVY7GXU94LY7W&workerId=ANK8K5WTHJ61C&assignmentId=30MVJZJNHNZ0CR6AKJXH085ZQG8J91&a=NJM09&tp_a=NJM09&b=30MVJZJNHNZ0CR6AKJXH085ZQG8J91&tp_b=30MVJZJNHNZ0CR6AKJXH085ZQG8J91&c=365799&tp_c=365799"},{"rt":5133,"stimulus":"\n                <p>Student 6's first guess for coin weight: <b style=\"color:Tomato\";>0.44</b></p>\n                <p>Student 6's second guess for coin weight: <b style=\"color:Tomato\";>0.55</b></p>\n                <p>You received a bonus of <b>$0.00</b> based on the student's second guess.</p>\n                <p>Total bonus so far: <b>$0.85</b></p>\n                <p>Press any key to continue.</p>\n                ","response":" ","trial_type":"html-keyboard-response","trial_index":56,"time_elapsed":2977476,"internal_node_id":"0.0-46.0","params":{"nStudents":24,"maxFlips":30,"completionMinutes":45,"basePay":8,"maxBonus":9,"perTrialBonus":0.5,"perTrialBonusThreshold":0.05,"exampleCost":0.01},"classroomParams":{"A":{"a":1,"b":4},"B":{"a":4,"b":1},"C":{"a":2,"b":8},"D":{"a":8,"b":2}},"conditions":["nonSeqFull","nonSeqPartial","seqNoFeedback","seqFeedback"],"classroomPairings":[["A","B"],["C","D"]],"coinWeights":[0.2,0.5,0.8],"subjectId":"ANK8K5WTHJ61C","assignmentId":"30MVJZJNHNZ0CR6AKJXH085ZQG8J91","hitId":"3JGHED38EDDK7DFM0KVY7GXU94LY7W","url":"https://gershmanlab.com/experiments/alicia/teaching/experiment/?hitId=3JGHED38EDDK7DFM0KVY7GXU94LY7W&workerId=ANK8K5WTHJ61C&assignmentId=30MVJZJNHNZ0CR6AKJXH085ZQG8J91&a=NJM09&tp_a=NJM09&b=30MVJZJNHNZ0CR6AKJXH085ZQG8J91&tp_b=30MVJZJNHNZ0CR6AKJXH085ZQG8J91&c=365799&tp_c=365799"},{"rt":null,"stimulus":"<div style=\"font-size:60px;\">Next student</div>","response":null,"trial_type":"html-keyboard-response","trial_index":57,"time_elapsed":2979478,"internal_node_id":"0.0-47.0-0.0","params":{"nStudents":24,"maxFlips":30,"completionMinutes":45,"basePay":8,"maxBonus":9,"perTrialBonus":0.5,"perTrialBonusThreshold":0.05,"exampleCost":0.01},"classroomParams":{"A":{"a":1,"b":4},"B":{"a":4,"b":1},"C":{"a":2,"b":8},"D":{"a":8,"b":2}},"conditions":["nonSeqFull","nonSeqPartial","seqNoFeedback","seqFeedback"],"classroomPairings":[["A","B"],["C","D"]],"coinWeights":[0.2,0.5,0.8],"subjectId":"ANK8K5WTHJ61C","assignmentId":"30MVJZJNHNZ0CR6AKJXH085ZQG8J91","hitId":"3JGHED38EDDK7DFM0KVY7GXU94LY7W","url":"https://gershmanlab.com/experiments/alicia/teaching/experiment/?hitId=3JGHED38EDDK7DFM0KVY7GXU94LY7W&workerId=ANK8K5WTHJ61C&assignmentId=30MVJZJNHNZ0CR6AKJXH085ZQG8J91&a=NJM09&tp_a=NJM09&b=30MVJZJNHNZ0CR6AKJXH085ZQG8J91&tp_b=30MVJZJNHNZ0CR6AKJXH085ZQG8J91&c=365799&tp_c=365799"},{"rt":2139,"stimulus":"\n            <h4 style=\"color:Orange;\">Student 7</h4>\n            <h2>The weight of your coin is <b style=\"color:Tomato;\">0.8</b>.</h2>\n            <p>In this block, you will be giving <b>two</b> sets of examples to Student 7.</p>\n                <p>You will receive feedback at the end of the block.</p>\n            <p></p>","response":0,"trial_type":"html-button-response","trial_index":58,"time_elapsed":2981618,"internal_node_id":"0.0-48.0","params":{"nStudents":24,"maxFlips":30,"completionMinutes":45,"basePay":8,"maxBonus":9,"perTrialBonus":0.5,"perTrialBonusThreshold":0.05,"exampleCost":0.01},"classroomParams":{"A":{"a":1,"b":4},"B":{"a":4,"b":1},"C":{"a":2,"b":8},"D":{"a":8,"b":2}},"conditions":["nonSeqFull","nonSeqPartial","seqNoFeedback","seqFeedback"],"classroomPairings":[["A","B"],["C","D"]],"coinWeights":[0.2,0.5,0.8],"subjectId":"ANK8K5WTHJ61C","assignmentId":"30MVJZJNHNZ0CR6AKJXH085ZQG8J91","hitId":"3JGHED38EDDK7DFM0KVY7GXU94LY7W","url":"https://gershmanlab.com/experiments/alicia/teaching/experiment/?hitId=3JGHED38EDDK7DFM0KVY7GXU94LY7W&workerId=ANK8K5WTHJ61C&assignmentId=30MVJZJNHNZ0CR6AKJXH085ZQG8J91&a=NJM09&tp_a=NJM09&b=30MVJZJNHNZ0CR6AKJXH085ZQG8J91&tp_b=30MVJZJNHNZ0CR6AKJXH085ZQG8J91&c=365799&tp_c=365799"},{"rt":29865,"response":{"heads":"6","tails":"2"},"type":"response","condition":"seqNoFeedback","trueTheta":0.8,"classrooms":["A","B"],"studentTrueClassroom":"A","exampleSet":"first","trial_type":"survey-html-form","trial_index":59,"time_elapsed":3011485,"internal_node_id":"0.0-49.0-0.0","params":{"nStudents":24,"maxFlips":30,"completionMinutes":45,"basePay":8,"maxBonus":9,"perTrialBonus":0.5,"perTrialBonusThreshold":0.05,"exampleCost":0.01},"classroomParams":{"A":{"a":1,"b":4},"B":{"a":4,"b":1},"C":{"a":2,"b":8},"D":{"a":8,"b":2}},"conditions":["nonSeqFull","nonSeqPartial","seqNoFeedback","seqFeedback"],"classroomPairings":[["A","B"],["C","D"]],"coinWeights":[0.2,0.5,0.8],"subjectId":"ANK8K5WTHJ61C","assignmentId":"30MVJZJNHNZ0CR6AKJXH085ZQG8J91","hitId":"3JGHED38EDDK7DFM0KVY7GXU94LY7W","url":"https://gershmanlab.com/experiments/alicia/teaching/experiment/?hitId=3JGHED38EDDK7DFM0KVY7GXU94LY7W&workerId=ANK8K5WTHJ61C&assignmentId=30MVJZJNHNZ0CR6AKJXH085ZQG8J91&a=NJM09&tp_a=NJM09&b=30MVJZJNHNZ0CR6AKJXH085ZQG8J91&tp_b=30MVJZJNHNZ0CR6AKJXH085ZQG8J91&c=365799&tp_c=365799","heads":6,"tails":2,"studentIndex":6,"studentTrueHypers":{"a":1,"b":4},"studentGuess":0.5384615384615384,"delta":0.2615384615384616,"totalExamples":8,"bonusSoFar":0.85},{"rt":null,"stimulus":"Sending examples to student... ","response":null,"trial_type":"html-keyboard-response","trial_index":60,"time_elapsed":3012987,"internal_node_id":"0.0-50.0","params":{"nStudents":24,"maxFlips":30,"completionMinutes":45,"basePay":8,"maxBonus":9,"perTrialBonus":0.5,"perTrialBonusThreshold":0.05,"exampleCost":0.01},"classroomParams":{"A":{"a":1,"b":4},"B":{"a":4,"b":1},"C":{"a":2,"b":8},"D":{"a":8,"b":2}},"conditions":["nonSeqFull","nonSeqPartial","seqNoFeedback","seqFeedback"],"classroomPairings":[["A","B"],["C","D"]],"coinWeights":[0.2,0.5,0.8],"subjectId":"ANK8K5WTHJ61C","assignmentId":"30MVJZJNHNZ0CR6AKJXH085ZQG8J91","hitId":"3JGHED38EDDK7DFM0KVY7GXU94LY7W","url":"https://gershmanlab.com/experiments/alicia/teaching/experiment/?hitId=3JGHED38EDDK7DFM0KVY7GXU94LY7W&workerId=ANK8K5WTHJ61C&assignmentId=30MVJZJNHNZ0CR6AKJXH085ZQG8J91&a=NJM09&tp_a=NJM09&b=30MVJZJNHNZ0CR6AKJXH085ZQG8J91&tp_b=30MVJZJNHNZ0CR6AKJXH085ZQG8J91&c=365799&tp_c=365799"},{"rt":null,"stimulus":"Examples sent to student! Waiting for student...","response":null,"trial_type":"html-keyboard-response","trial_index":61,"time_elapsed":3017989,"internal_node_id":"0.0-51.0","params":{"nStudents":24,"maxFlips":30,"completionMinutes":45,"basePay":8,"maxBonus":9,"perTrialBonus":0.5,"perTrialBonusThreshold":0.05,"exampleCost":0.01},"classroomParams":{"A":{"a":1,"b":4},"B":{"a":4,"b":1},"C":{"a":2,"b":8},"D":{"a":8,"b":2}},"conditions":["nonSeqFull","nonSeqPartial","seqNoFeedback","seqFeedback"],"classroomPairings":[["A","B"],["C","D"]],"coinWeights":[0.2,0.5,0.8],"subjectId":"ANK8K5WTHJ61C","assignmentId":"30MVJZJNHNZ0CR6AKJXH085ZQG8J91","hitId":"3JGHED38EDDK7DFM0KVY7GXU94LY7W","url":"https://gershmanlab.com/experiments/alicia/teaching/experiment/?hitId=3JGHED38EDDK7DFM0KVY7GXU94LY7W&workerId=ANK8K5WTHJ61C&assignmentId=30MVJZJNHNZ0CR6AKJXH085ZQG8J91&a=NJM09&tp_a=NJM09&b=30MVJZJNHNZ0CR6AKJXH085ZQG8J91&tp_b=30MVJZJNHNZ0CR6AKJXH085ZQG8J91&c=365799&tp_c=365799"},{"rt":9662,"response":{"heads":"7","tails":"1"},"type":"response","condition":"seqNoFeedback","trueTheta":0.8,"classrooms":["A","B"],"studentTrueClassroom":"A","exampleSet":"second","trial_type":"survey-html-form","trial_index":62,"time_elapsed":3027653,"internal_node_id":"0.0-52.0-0.0","params":{"nStudents":24,"maxFlips":30,"completionMinutes":45,"basePay":8,"maxBonus":9,"perTrialBonus":0.5,"perTrialBonusThreshold":0.05,"exampleCost":0.01},"classroomParams":{"A":{"a":1,"b":4},"B":{"a":4,"b":1},"C":{"a":2,"b":8},"D":{"a":8,"b":2}},"conditions":["nonSeqFull","nonSeqPartial","seqNoFeedback","seqFeedback"],"classroomPairings":[["A","B"],["C","D"]],"coinWeights":[0.2,0.5,0.8],"subjectId":"ANK8K5WTHJ61C","assignmentId":"30MVJZJNHNZ0CR6AKJXH085ZQG8J91","hitId":"3JGHED38EDDK7DFM0KVY7GXU94LY7W","url":"https://gershmanlab.com/experiments/alicia/teaching/experiment/?hitId=3JGHED38EDDK7DFM0KVY7GXU94LY7W&workerId=ANK8K5WTHJ61C&assignmentId=30MVJZJNHNZ0CR6AKJXH085ZQG8J91&a=NJM09&tp_a=NJM09&b=30MVJZJNHNZ0CR6AKJXH085ZQG8J91&tp_b=30MVJZJNHNZ0CR6AKJXH085ZQG8J91&c=365799&tp_c=365799","firstResponseHeads":6,"firstResponseTails":2,"secondResponseHeads":7,"secondResponseTails":1,"totalHeads":13,"totalTails":3,"studentIndex":6,"studentTrueHypers":{"a":1,"b":4},"studentGuess":0.6666666666666666,"delta":0.13333333333333341,"bonus":0,"bonusSoFar":0.85,"totalExamples":16},{"rt":null,"stimulus":"Sending examples to student... ","response":null,"trial_type":"html-keyboard-response","trial_index":63,"time_elapsed":3028906,"internal_node_id":"0.0-53.0","params":{"nStudents":24,"maxFlips":30,"completionMinutes":45,"basePay":8,"maxBonus":9,"perTrialBonus":0.5,"perTrialBonusThreshold":0.05,"exampleCost":0.01},"classroomParams":{"A":{"a":1,"b":4},"B":{"a":4,"b":1},"C":{"a":2,"b":8},"D":{"a":8,"b":2}},"conditions":["nonSeqFull","nonSeqPartial","seqNoFeedback","seqFeedback"],"classroomPairings":[["A","B"],["C","D"]],"coinWeights":[0.2,0.5,0.8],"subjectId":"ANK8K5WTHJ61C","assignmentId":"30MVJZJNHNZ0CR6AKJXH085ZQG8J91","hitId":"3JGHED38EDDK7DFM0KVY7GXU94LY7W","url":"https://gershmanlab.com/experiments/alicia/teaching/experiment/?hitId=3JGHED38EDDK7DFM0KVY7GXU94LY7W&workerId=ANK8K5WTHJ61C&assignmentId=30MVJZJNHNZ0CR6AKJXH085ZQG8J91&a=NJM09&tp_a=NJM09&b=30MVJZJNHNZ0CR6AKJXH085ZQG8J91&tp_b=30MVJZJNHNZ0CR6AKJXH085ZQG8J91&c=365799&tp_c=365799"},{"rt":null,"stimulus":"Examples sent to student! Waiting for student...","response":null,"trial_type":"html-keyboard-response","trial_index":64,"time_elapsed":3034912,"internal_node_id":"0.0-54.0","params":{"nStudents":24,"maxFlips":30,"completionMinutes":45,"basePay":8,"maxBonus":9,"perTrialBonus":0.5,"perTrialBonusThreshold":0.05,"exampleCost":0.01},"classroomParams":{"A":{"a":1,"b":4},"B":{"a":4,"b":1},"C":{"a":2,"b":8},"D":{"a":8,"b":2}},"conditions":["nonSeqFull","nonSeqPartial","seqNoFeedback","seqFeedback"],"classroomPairings":[["A","B"],["C","D"]],"coinWeights":[0.2,0.5,0.8],"subjectId":"ANK8K5WTHJ61C","assignmentId":"30MVJZJNHNZ0CR6AKJXH085ZQG8J91","hitId":"3JGHED38EDDK7DFM0KVY7GXU94LY7W","url":"https://gershmanlab.com/experiments/alicia/teaching/experiment/?hitId=3JGHED38EDDK7DFM0KVY7GXU94LY7W&workerId=ANK8K5WTHJ61C&assignmentId=30MVJZJNHNZ0CR6AKJXH085ZQG8J91&a=NJM09&tp_a=NJM09&b=30MVJZJNHNZ0CR6AKJXH085ZQG8J91&tp_b=30MVJZJNHNZ0CR6AKJXH085ZQG8J91&c=365799&tp_c=365799"},{"rt":6849,"stimulus":"\n                <p>Student 7's first guess for coin weight: <b style=\"color:Tomato\";>0.54</b></p>\n                <p>Student 7's second guess for coin weight: <b style=\"color:Tomato\";>0.67</b></p>\n                <p>You received a bonus of <b>$0.00</b> based on the student's second guess.</p>\n                <p>Total bonus so far: <b>$0.85</b></p>\n                <p>Press any key to continue.</p>\n                ","response":" ","trial_type":"html-keyboard-response","trial_index":65,"time_elapsed":3041761,"internal_node_id":"0.0-55.0","params":{"nStudents":24,"maxFlips":30,"completionMinutes":45,"basePay":8,"maxBonus":9,"perTrialBonus":0.5,"perTrialBonusThreshold":0.05,"exampleCost":0.01},"classroomParams":{"A":{"a":1,"b":4},"B":{"a":4,"b":1},"C":{"a":2,"b":8},"D":{"a":8,"b":2}},"conditions":["nonSeqFull","nonSeqPartial","seqNoFeedback","seqFeedback"],"classroomPairings":[["A","B"],["C","D"]],"coinWeights":[0.2,0.5,0.8],"subjectId":"ANK8K5WTHJ61C","assignmentId":"30MVJZJNHNZ0CR6AKJXH085ZQG8J91","hitId":"3JGHED38EDDK7DFM0KVY7GXU94LY7W","url":"https://gershmanlab.com/experiments/alicia/teaching/experiment/?hitId=3JGHED38EDDK7DFM0KVY7GXU94LY7W&workerId=ANK8K5WTHJ61C&assignmentId=30MVJZJNHNZ0CR6AKJXH085ZQG8J91&a=NJM09&tp_a=NJM09&b=30MVJZJNHNZ0CR6AKJXH085ZQG8J91&tp_b=30MVJZJNHNZ0CR6AKJXH085ZQG8J91&c=365799&tp_c=365799"},{"rt":null,"stimulus":"<div style=\"font-size:60px;\">Next student</div>","response":null,"trial_type":"html-keyboard-response","trial_index":66,"time_elapsed":3044267,"internal_node_id":"0.0-56.0-0.0","params":{"nStudents":24,"maxFlips":30,"completionMinutes":45,"basePay":8,"maxBonus":9,"perTrialBonus":0.5,"perTrialBonusThreshold":0.05,"exampleCost":0.01},"classroomParams":{"A":{"a":1,"b":4},"B":{"a":4,"b":1},"C":{"a":2,"b":8},"D":{"a":8,"b":2}},"conditions":["nonSeqFull","nonSeqPartial","seqNoFeedback","seqFeedback"],"classroomPairings":[["A","B"],["C","D"]],"coinWeights":[0.2,0.5,0.8],"subjectId":"ANK8K5WTHJ61C","assignmentId":"30MVJZJNHNZ0CR6AKJXH085ZQG8J91","hitId":"3JGHED38EDDK7DFM0KVY7GXU94LY7W","url":"https://gershmanlab.com/experiments/alicia/teaching/experiment/?hitId=3JGHED38EDDK7DFM0KVY7GXU94LY7W&workerId=ANK8K5WTHJ61C&assignmentId=30MVJZJNHNZ0CR6AKJXH085ZQG8J91&a=NJM09&tp_a=NJM09&b=30MVJZJNHNZ0CR6AKJXH085ZQG8J91&tp_b=30MVJZJNHNZ0CR6AKJXH085ZQG8J91&c=365799&tp_c=365799"},{"rt":3916,"stimulus":"\n            <h4 style=\"color:Orange;\">Student 8</h4>\n            <h2>The weight of your coin is <b style=\"color:Tomato;\">0.5</b>.</h2>\n            <p>In this block, you will be giving <b>one</b> set of examples to Student 8.</p>\n                <p>You will receive feedback at the end of the block.</p>\n            <p></p>","response":0,"trial_type":"html-button-response","trial_index":67,"time_elapsed":3048185,"internal_node_id":"0.0-57.0","params":{"nStudents":24,"maxFlips":30,"completionMinutes":45,"basePay":8,"maxBonus":9,"perTrialBonus":0.5,"perTrialBonusThreshold":0.05,"exampleCost":0.01},"classroomParams":{"A":{"a":1,"b":4},"B":{"a":4,"b":1},"C":{"a":2,"b":8},"D":{"a":8,"b":2}},"conditions":["nonSeqFull","nonSeqPartial","seqNoFeedback","seqFeedback"],"classroomPairings":[["A","B"],["C","D"]],"coinWeights":[0.2,0.5,0.8],"subjectId":"ANK8K5WTHJ61C","assignmentId":"30MVJZJNHNZ0CR6AKJXH085ZQG8J91","hitId":"3JGHED38EDDK7DFM0KVY7GXU94LY7W","url":"https://gershmanlab.com/experiments/alicia/teaching/experiment/?hitId=3JGHED38EDDK7DFM0KVY7GXU94LY7W&workerId=ANK8K5WTHJ61C&assignmentId=30MVJZJNHNZ0CR6AKJXH085ZQG8J91&a=NJM09&tp_a=NJM09&b=30MVJZJNHNZ0CR6AKJXH085ZQG8J91&tp_b=30MVJZJNHNZ0CR6AKJXH085ZQG8J91&c=365799&tp_c=365799"},{"rt":8334,"response":{"heads":"4","tails":"1"},"type":"response","condition":"nonSeqFull","trueTheta":0.5,"classrooms":["A","B"],"studentTrueClassroom":"B","exampleSet":"first","trial_type":"survey-html-form","trial_index":68,"time_elapsed":3056520,"internal_node_id":"0.0-58.0-0.0","params":{"nStudents":24,"maxFlips":30,"completionMinutes":45,"basePay":8,"maxBonus":9,"perTrialBonus":0.5,"perTrialBonusThreshold":0.05,"exampleCost":0.01},"classroomParams":{"A":{"a":1,"b":4},"B":{"a":4,"b":1},"C":{"a":2,"b":8},"D":{"a":8,"b":2}},"conditions":["nonSeqFull","nonSeqPartial","seqNoFeedback","seqFeedback"],"classroomPairings":[["A","B"],["C","D"]],"coinWeights":[0.2,0.5,0.8],"subjectId":"ANK8K5WTHJ61C","assignmentId":"30MVJZJNHNZ0CR6AKJXH085ZQG8J91","hitId":"3JGHED38EDDK7DFM0KVY7GXU94LY7W","url":"https://gershmanlab.com/experiments/alicia/teaching/experiment/?hitId=3JGHED38EDDK7DFM0KVY7GXU94LY7W&workerId=ANK8K5WTHJ61C&assignmentId=30MVJZJNHNZ0CR6AKJXH085ZQG8J91&a=NJM09&tp_a=NJM09&b=30MVJZJNHNZ0CR6AKJXH085ZQG8J91&tp_b=30MVJZJNHNZ0CR6AKJXH085ZQG8J91&c=365799&tp_c=365799","heads":4,"tails":1,"studentIndex":7,"studentTrueHypers":{"a":4,"b":1},"studentGuess":0.8,"delta":0.30000000000000004,"totalExamples":5,"bonus":0,"bonusSoFar":0.85},{"rt":null,"stimulus":"Sending examples to student... ","response":null,"trial_type":"html-keyboard-response","trial_index":69,"time_elapsed":3058022,"internal_node_id":"0.0-59.0","params":{"nStudents":24,"maxFlips":30,"completionMinutes":45,"basePay":8,"maxBonus":9,"perTrialBonus":0.5,"perTrialBonusThreshold":0.05,"exampleCost":0.01},"classroomParams":{"A":{"a":1,"b":4},"B":{"a":4,"b":1},"C":{"a":2,"b":8},"D":{"a":8,"b":2}},"conditions":["nonSeqFull","nonSeqPartial","seqNoFeedback","seqFeedback"],"classroomPairings":[["A","B"],["C","D"]],"coinWeights":[0.2,0.5,0.8],"subjectId":"ANK8K5WTHJ61C","assignmentId":"30MVJZJNHNZ0CR6AKJXH085ZQG8J91","hitId":"3JGHED38EDDK7DFM0KVY7GXU94LY7W","url":"https://gershmanlab.com/experiments/alicia/teaching/experiment/?hitId=3JGHED38EDDK7DFM0KVY7GXU94LY7W&workerId=ANK8K5WTHJ61C&assignmentId=30MVJZJNHNZ0CR6AKJXH085ZQG8J91&a=NJM09&tp_a=NJM09&b=30MVJZJNHNZ0CR6AKJXH085ZQG8J91&tp_b=30MVJZJNHNZ0CR6AKJXH085ZQG8J91&c=365799&tp_c=365799"},{"rt":null,"stimulus":"Examples sent to student! Waiting for student...","response":null,"trial_type":"html-keyboard-response","trial_index":70,"time_elapsed":3062029,"internal_node_id":"0.0-60.0","params":{"nStudents":24,"maxFlips":30,"completionMinutes":45,"basePay":8,"maxBonus":9,"perTrialBonus":0.5,"perTrialBonusThreshold":0.05,"exampleCost":0.01},"classroomParams":{"A":{"a":1,"b":4},"B":{"a":4,"b":1},"C":{"a":2,"b":8},"D":{"a":8,"b":2}},"conditions":["nonSeqFull","nonSeqPartial","seqNoFeedback","seqFeedback"],"classroomPairings":[["A","B"],["C","D"]],"coinWeights":[0.2,0.5,0.8],"subjectId":"ANK8K5WTHJ61C","assignmentId":"30MVJZJNHNZ0CR6AKJXH085ZQG8J91","hitId":"3JGHED38EDDK7DFM0KVY7GXU94LY7W","url":"https://gershmanlab.com/experiments/alicia/teaching/experiment/?hitId=3JGHED38EDDK7DFM0KVY7GXU94LY7W&workerId=ANK8K5WTHJ61C&assignmentId=30MVJZJNHNZ0CR6AKJXH085ZQG8J91&a=NJM09&tp_a=NJM09&b=30MVJZJNHNZ0CR6AKJXH085ZQG8J91&tp_b=30MVJZJNHNZ0CR6AKJXH085ZQG8J91&c=365799&tp_c=365799"},{"rt":3806,"stimulus":"\n                <p>Student's guess for coin weight: <b style=\"color:Tomato;\">0.80</b></p>\n                <p>You received a bonus of <b>$0</b>. Total bonus so far: <b>$0.85</b></b></p>\n                <p></p>\n                <p>Press any key to continue.</p>\n                ","response":" ","trial_type":"html-keyboard-response","trial_index":71,"time_elapsed":3065837,"internal_node_id":"0.0-61.0","params":{"nStudents":24,"maxFlips":30,"completionMinutes":45,"basePay":8,"maxBonus":9,"perTrialBonus":0.5,"perTrialBonusThreshold":0.05,"exampleCost":0.01},"classroomParams":{"A":{"a":1,"b":4},"B":{"a":4,"b":1},"C":{"a":2,"b":8},"D":{"a":8,"b":2}},"conditions":["nonSeqFull","nonSeqPartial","seqNoFeedback","seqFeedback"],"classroomPairings":[["A","B"],["C","D"]],"coinWeights":[0.2,0.5,0.8],"subjectId":"ANK8K5WTHJ61C","assignmentId":"30MVJZJNHNZ0CR6AKJXH085ZQG8J91","hitId":"3JGHED38EDDK7DFM0KVY7GXU94LY7W","url":"https://gershmanlab.com/experiments/alicia/teaching/experiment/?hitId=3JGHED38EDDK7DFM0KVY7GXU94LY7W&workerId=ANK8K5WTHJ61C&assignmentId=30MVJZJNHNZ0CR6AKJXH085ZQG8J91&a=NJM09&tp_a=NJM09&b=30MVJZJNHNZ0CR6AKJXH085ZQG8J91&tp_b=30MVJZJNHNZ0CR6AKJXH085ZQG8J91&c=365799&tp_c=365799"},{"rt":null,"stimulus":"<div style=\"font-size:60px;\">Next student</div>","response":null,"trial_type":"html-keyboard-response","trial_index":72,"time_elapsed":3068090,"internal_node_id":"0.0-62.0-0.0","params":{"nStudents":24,"maxFlips":30,"completionMinutes":45,"basePay":8,"maxBonus":9,"perTrialBonus":0.5,"perTrialBonusThreshold":0.05,"exampleCost":0.01},"classroomParams":{"A":{"a":1,"b":4},"B":{"a":4,"b":1},"C":{"a":2,"b":8},"D":{"a":8,"b":2}},"conditions":["nonSeqFull","nonSeqPartial","seqNoFeedback","seqFeedback"],"classroomPairings":[["A","B"],["C","D"]],"coinWeights":[0.2,0.5,0.8],"subjectId":"ANK8K5WTHJ61C","assignmentId":"30MVJZJNHNZ0CR6AKJXH085ZQG8J91","hitId":"3JGHED38EDDK7DFM0KVY7GXU94LY7W","url":"https://gershmanlab.com/experiments/alicia/teaching/experiment/?hitId=3JGHED38EDDK7DFM0KVY7GXU94LY7W&workerId=ANK8K5WTHJ61C&assignmentId=30MVJZJNHNZ0CR6AKJXH085ZQG8J91&a=NJM09&tp_a=NJM09&b=30MVJZJNHNZ0CR6AKJXH085ZQG8J91&tp_b=30MVJZJNHNZ0CR6AKJXH085ZQG8J91&c=365799&tp_c=365799"},{"rt":2927,"stimulus":"\n            <h4 style=\"color:Orange;\">Student 9</h4>\n            <h2>The weight of your coin is <b style=\"color:Tomato;\">0.8</b>.</h2>\n            <p>In this block, you will be giving <b>one</b> set of examples to Student 9.</p>\n                <p>You will receive feedback at the end of the block.</p>\n            <p></p>","response":0,"trial_type":"html-button-response","trial_index":73,"time_elapsed":3071019,"internal_node_id":"0.0-63.0","params":{"nStudents":24,"maxFlips":30,"completionMinutes":45,"basePay":8,"maxBonus":9,"perTrialBonus":0.5,"perTrialBonusThreshold":0.05,"exampleCost":0.01},"classroomParams":{"A":{"a":1,"b":4},"B":{"a":4,"b":1},"C":{"a":2,"b":8},"D":{"a":8,"b":2}},"conditions":["nonSeqFull","nonSeqPartial","seqNoFeedback","seqFeedback"],"classroomPairings":[["A","B"],["C","D"]],"coinWeights":[0.2,0.5,0.8],"subjectId":"ANK8K5WTHJ61C","assignmentId":"30MVJZJNHNZ0CR6AKJXH085ZQG8J91","hitId":"3JGHED38EDDK7DFM0KVY7GXU94LY7W","url":"https://gershmanlab.com/experiments/alicia/teaching/experiment/?hitId=3JGHED38EDDK7DFM0KVY7GXU94LY7W&workerId=ANK8K5WTHJ61C&assignmentId=30MVJZJNHNZ0CR6AKJXH085ZQG8J91&a=NJM09&tp_a=NJM09&b=30MVJZJNHNZ0CR6AKJXH085ZQG8J91&tp_b=30MVJZJNHNZ0CR6AKJXH085ZQG8J91&c=365799&tp_c=365799"},{"rt":7515,"response":{"heads":"4","tails":"1"},"type":"response","condition":"nonSeqFull","trueTheta":0.8,"classrooms":["A","B"],"studentTrueClassroom":"B","exampleSet":"first","trial_type":"survey-html-form","trial_index":74,"time_elapsed":3078536,"internal_node_id":"0.0-64.0-0.0","params":{"nStudents":24,"maxFlips":30,"completionMinutes":45,"basePay":8,"maxBonus":9,"perTrialBonus":0.5,"perTrialBonusThreshold":0.05,"exampleCost":0.01},"classroomParams":{"A":{"a":1,"b":4},"B":{"a":4,"b":1},"C":{"a":2,"b":8},"D":{"a":8,"b":2}},"conditions":["nonSeqFull","nonSeqPartial","seqNoFeedback","seqFeedback"],"classroomPairings":[["A","B"],["C","D"]],"coinWeights":[0.2,0.5,0.8],"subjectId":"ANK8K5WTHJ61C","assignmentId":"30MVJZJNHNZ0CR6AKJXH085ZQG8J91","hitId":"3JGHED38EDDK7DFM0KVY7GXU94LY7W","url":"https://gershmanlab.com/experiments/alicia/teaching/experiment/?hitId=3JGHED38EDDK7DFM0KVY7GXU94LY7W&workerId=ANK8K5WTHJ61C&assignmentId=30MVJZJNHNZ0CR6AKJXH085ZQG8J91&a=NJM09&tp_a=NJM09&b=30MVJZJNHNZ0CR6AKJXH085ZQG8J91&tp_b=30MVJZJNHNZ0CR6AKJXH085ZQG8J91&c=365799&tp_c=365799","heads":4,"tails":1,"studentIndex":8,"studentTrueHypers":{"a":4,"b":1},"studentGuess":0.8,"delta":0,"totalExamples":5,"bonus":0.45,"bonusSoFar":1.3},{"rt":null,"stimulus":"Sending examples to student... ","response":null,"trial_type":"html-keyboard-response","trial_index":75,"time_elapsed":3080293,"internal_node_id":"0.0-65.0","params":{"nStudents":24,"maxFlips":30,"completionMinutes":45,"basePay":8,"maxBonus":9,"perTrialBonus":0.5,"perTrialBonusThreshold":0.05,"exampleCost":0.01},"classroomParams":{"A":{"a":1,"b":4},"B":{"a":4,"b":1},"C":{"a":2,"b":8},"D":{"a":8,"b":2}},"conditions":["nonSeqFull","nonSeqPartial","seqNoFeedback","seqFeedback"],"classroomPairings":[["A","B"],["C","D"]],"coinWeights":[0.2,0.5,0.8],"subjectId":"ANK8K5WTHJ61C","assignmentId":"30MVJZJNHNZ0CR6AKJXH085ZQG8J91","hitId":"3JGHED38EDDK7DFM0KVY7GXU94LY7W","url":"https://gershmanlab.com/experiments/alicia/teaching/experiment/?hitId=3JGHED38EDDK7DFM0KVY7GXU94LY7W&workerId=ANK8K5WTHJ61C&assignmentId=30MVJZJNHNZ0CR6AKJXH085ZQG8J91&a=NJM09&tp_a=NJM09&b=30MVJZJNHNZ0CR6AKJXH085ZQG8J91&tp_b=30MVJZJNHNZ0CR6AKJXH085ZQG8J91&c=365799&tp_c=365799"},{"rt":null,"stimulus":"Examples sent to student! Waiting for student...","response":null,"trial_type":"html-keyboard-response","trial_index":76,"time_elapsed":3086300,"internal_node_id":"0.0-66.0","params":{"nStudents":24,"maxFlips":30,"completionMinutes":45,"basePay":8,"maxBonus":9,"perTrialBonus":0.5,"perTrialBonusThreshold":0.05,"exampleCost":0.01},"classroomParams":{"A":{"a":1,"b":4},"B":{"a":4,"b":1},"C":{"a":2,"b":8},"D":{"a":8,"b":2}},"conditions":["nonSeqFull","nonSeqPartial","seqNoFeedback","seqFeedback"],"classroomPairings":[["A","B"],["C","D"]],"coinWeights":[0.2,0.5,0.8],"subjectId":"ANK8K5WTHJ61C","assignmentId":"30MVJZJNHNZ0CR6AKJXH085ZQG8J91","hitId":"3JGHED38EDDK7DFM0KVY7GXU94LY7W","url":"https://gershmanlab.com/experiments/alicia/teaching/experiment/?hitId=3JGHED38EDDK7DFM0KVY7GXU94LY7W&workerId=ANK8K5WTHJ61C&assignmentId=30MVJZJNHNZ0CR6AKJXH085ZQG8J91&a=NJM09&tp_a=NJM09&b=30MVJZJNHNZ0CR6AKJXH085ZQG8J91&tp_b=30MVJZJNHNZ0CR6AKJXH085ZQG8J91&c=365799&tp_c=365799"},{"rt":3881,"stimulus":"\n                <p>Student's guess for coin weight: <b style=\"color:Tomato;\">0.80</b></p>\n                <p>You received a bonus of <b>$0.45</b>. Total bonus so far: <b>$1.30</b></b></p>\n                <p></p>\n                <p>Press any key to continue.</p>\n                ","response":" ","trial_type":"html-keyboard-response","trial_index":77,"time_elapsed":3090183,"internal_node_id":"0.0-67.0","params":{"nStudents":24,"maxFlips":30,"completionMinutes":45,"basePay":8,"maxBonus":9,"perTrialBonus":0.5,"perTrialBonusThreshold":0.05,"exampleCost":0.01},"classroomParams":{"A":{"a":1,"b":4},"B":{"a":4,"b":1},"C":{"a":2,"b":8},"D":{"a":8,"b":2}},"conditions":["nonSeqFull","nonSeqPartial","seqNoFeedback","seqFeedback"],"classroomPairings":[["A","B"],["C","D"]],"coinWeights":[0.2,0.5,0.8],"subjectId":"ANK8K5WTHJ61C","assignmentId":"30MVJZJNHNZ0CR6AKJXH085ZQG8J91","hitId":"3JGHED38EDDK7DFM0KVY7GXU94LY7W","url":"https://gershmanlab.com/experiments/alicia/teaching/experiment/?hitId=3JGHED38EDDK7DFM0KVY7GXU94LY7W&workerId=ANK8K5WTHJ61C&assignmentId=30MVJZJNHNZ0CR6AKJXH085ZQG8J91&a=NJM09&tp_a=NJM09&b=30MVJZJNHNZ0CR6AKJXH085ZQG8J91&tp_b=30MVJZJNHNZ0CR6AKJXH085ZQG8J91&c=365799&tp_c=365799"},{"rt":null,"stimulus":"<div style=\"font-size:60px;\">Next student</div>","response":null,"trial_type":"html-keyboard-response","trial_index":78,"time_elapsed":3092685,"internal_node_id":"0.0-68.0-0.0","params":{"nStudents":24,"maxFlips":30,"completionMinutes":45,"basePay":8,"maxBonus":9,"perTrialBonus":0.5,"perTrialBonusThreshold":0.05,"exampleCost":0.01},"classroomParams":{"A":{"a":1,"b":4},"B":{"a":4,"b":1},"C":{"a":2,"b":8},"D":{"a":8,"b":2}},"conditions":["nonSeqFull","nonSeqPartial","seqNoFeedback","seqFeedback"],"classroomPairings":[["A","B"],["C","D"]],"coinWeights":[0.2,0.5,0.8],"subjectId":"ANK8K5WTHJ61C","assignmentId":"30MVJZJNHNZ0CR6AKJXH085ZQG8J91","hitId":"3JGHED38EDDK7DFM0KVY7GXU94LY7W","url":"https://gershmanlab.com/experiments/alicia/teaching/experiment/?hitId=3JGHED38EDDK7DFM0KVY7GXU94LY7W&workerId=ANK8K5WTHJ61C&assignmentId=30MVJZJNHNZ0CR6AKJXH085ZQG8J91&a=NJM09&tp_a=NJM09&b=30MVJZJNHNZ0CR6AKJXH085ZQG8J91&tp_b=30MVJZJNHNZ0CR6AKJXH085ZQG8J91&c=365799&tp_c=365799"},{"rt":4099,"stimulus":"\n            <h4 style=\"color:Orange;\">Student 10</h4>\n            <h2>The weight of your coin is <b style=\"color:Tomato;\">0.2</b>.</h2>\n            <p>In this block, you will be giving <b>two</b> sets of examples to Student 10.</p>\n                <p>You will see the student's guess after the first set of examples. You will also receive feedback at the end of the block.</p>\n            <p>To earn the highest bonus, you will have to <b>take into consideration the student's guess</b> when you choose your second set of examples.</p>","response":0,"trial_type":"html-button-response","trial_index":79,"time_elapsed":3096784,"internal_node_id":"0.0-69.0","params":{"nStudents":24,"maxFlips":30,"completionMinutes":45,"basePay":8,"maxBonus":9,"perTrialBonus":0.5,"perTrialBonusThreshold":0.05,"exampleCost":0.01},"classroomParams":{"A":{"a":1,"b":4},"B":{"a":4,"b":1},"C":{"a":2,"b":8},"D":{"a":8,"b":2}},"conditions":["nonSeqFull","nonSeqPartial","seqNoFeedback","seqFeedback"],"classroomPairings":[["A","B"],["C","D"]],"coinWeights":[0.2,0.5,0.8],"subjectId":"ANK8K5WTHJ61C","assignmentId":"30MVJZJNHNZ0CR6AKJXH085ZQG8J91","hitId":"3JGHED38EDDK7DFM0KVY7GXU94LY7W","url":"https://gershmanlab.com/experiments/alicia/teaching/experiment/?hitId=3JGHED38EDDK7DFM0KVY7GXU94LY7W&workerId=ANK8K5WTHJ61C&assignmentId=30MVJZJNHNZ0CR6AKJXH085ZQG8J91&a=NJM09&tp_a=NJM09&b=30MVJZJNHNZ0CR6AKJXH085ZQG8J91&tp_b=30MVJZJNHNZ0CR6AKJXH085ZQG8J91&c=365799&tp_c=365799"},{"rt":17034,"response":{"heads":"3","tails":"2"},"type":"response","condition":"seqFeedback","trueTheta":0.2,"classrooms":["A","B"],"studentTrueClassroom":"B","exampleSet":"first","trial_type":"survey-html-form","trial_index":80,"time_elapsed":3113820,"internal_node_id":"0.0-70.0-0.0","params":{"nStudents":24,"maxFlips":30,"completionMinutes":45,"basePay":8,"maxBonus":9,"perTrialBonus":0.5,"perTrialBonusThreshold":0.05,"exampleCost":0.01},"classroomParams":{"A":{"a":1,"b":4},"B":{"a":4,"b":1},"C":{"a":2,"b":8},"D":{"a":8,"b":2}},"conditions":["nonSeqFull","nonSeqPartial","seqNoFeedback","seqFeedback"],"classroomPairings":[["A","B"],["C","D"]],"coinWeights":[0.2,0.5,0.8],"subjectId":"ANK8K5WTHJ61C","assignmentId":"30MVJZJNHNZ0CR6AKJXH085ZQG8J91","hitId":"3JGHED38EDDK7DFM0KVY7GXU94LY7W","url":"https://gershmanlab.com/experiments/alicia/teaching/experiment/?hitId=3JGHED38EDDK7DFM0KVY7GXU94LY7W&workerId=ANK8K5WTHJ61C&assignmentId=30MVJZJNHNZ0CR6AKJXH085ZQG8J91&a=NJM09&tp_a=NJM09&b=30MVJZJNHNZ0CR6AKJXH085ZQG8J91&tp_b=30MVJZJNHNZ0CR6AKJXH085ZQG8J91&c=365799&tp_c=365799","heads":3,"tails":2,"studentIndex":9,"studentTrueHypers":{"a":4,"b":1},"studentGuess":0.7,"delta":0.49999999999999994,"totalExamples":5,"bonusSoFar":1.3},{"rt":null,"stimulus":"Sending examples to student... ","response":null,"trial_type":"html-keyboard-response","trial_index":81,"time_elapsed":3115577,"internal_node_id":"0.0-71.0","params":{"nStudents":24,"maxFlips":30,"completionMinutes":45,"basePay":8,"maxBonus":9,"perTrialBonus":0.5,"perTrialBonusThreshold":0.05,"exampleCost":0.01},"classroomParams":{"A":{"a":1,"b":4},"B":{"a":4,"b":1},"C":{"a":2,"b":8},"D":{"a":8,"b":2}},"conditions":["nonSeqFull","nonSeqPartial","seqNoFeedback","seqFeedback"],"classroomPairings":[["A","B"],["C","D"]],"coinWeights":[0.2,0.5,0.8],"subjectId":"ANK8K5WTHJ61C","assignmentId":"30MVJZJNHNZ0CR6AKJXH085ZQG8J91","hitId":"3JGHED38EDDK7DFM0KVY7GXU94LY7W","url":"https://gershmanlab.com/experiments/alicia/teaching/experiment/?hitId=3JGHED38EDDK7DFM0KVY7GXU94LY7W&workerId=ANK8K5WTHJ61C&assignmentId=30MVJZJNHNZ0CR6AKJXH085ZQG8J91&a=NJM09&tp_a=NJM09&b=30MVJZJNHNZ0CR6AKJXH085ZQG8J91&tp_b=30MVJZJNHNZ0CR6AKJXH085ZQG8J91&c=365799&tp_c=365799"},{"rt":null,"stimulus":"Examples sent to student! Waiting for student...","response":null,"trial_type":"html-keyboard-response","trial_index":82,"time_elapsed":3119583,"internal_node_id":"0.0-72.0","params":{"nStudents":24,"maxFlips":30,"completionMinutes":45,"basePay":8,"maxBonus":9,"perTrialBonus":0.5,"perTrialBonusThreshold":0.05,"exampleCost":0.01},"classroomParams":{"A":{"a":1,"b":4},"B":{"a":4,"b":1},"C":{"a":2,"b":8},"D":{"a":8,"b":2}},"conditions":["nonSeqFull","nonSeqPartial","seqNoFeedback","seqFeedback"],"classroomPairings":[["A","B"],["C","D"]],"coinWeights":[0.2,0.5,0.8],"subjectId":"ANK8K5WTHJ61C","assignmentId":"30MVJZJNHNZ0CR6AKJXH085ZQG8J91","hitId":"3JGHED38EDDK7DFM0KVY7GXU94LY7W","url":"https://gershmanlab.com/experiments/alicia/teaching/experiment/?hitId=3JGHED38EDDK7DFM0KVY7GXU94LY7W&workerId=ANK8K5WTHJ61C&assignmentId=30MVJZJNHNZ0CR6AKJXH085ZQG8J91&a=NJM09&tp_a=NJM09&b=30MVJZJNHNZ0CR6AKJXH085ZQG8J91&tp_b=30MVJZJNHNZ0CR6AKJXH085ZQG8J91&c=365799&tp_c=365799"},{"rt":7292,"stimulus":"\n                <p>Student's guess for coin weight: <b style=\"color:Tomato;\">0.70</b></p>\n                <p></b></p>\n                <p>You will now send another set of examples to your student. <b>Remember to take your student's guess into consideration so that you can earn the highest bonus possible!</b> </p>\n                <p>Press any key to continue.</p>\n                ","response":" ","trial_type":"html-keyboard-response","trial_index":83,"time_elapsed":3126876,"internal_node_id":"0.0-73.0","params":{"nStudents":24,"maxFlips":30,"completionMinutes":45,"basePay":8,"maxBonus":9,"perTrialBonus":0.5,"perTrialBonusThreshold":0.05,"exampleCost":0.01},"classroomParams":{"A":{"a":1,"b":4},"B":{"a":4,"b":1},"C":{"a":2,"b":8},"D":{"a":8,"b":2}},"conditions":["nonSeqFull","nonSeqPartial","seqNoFeedback","seqFeedback"],"classroomPairings":[["A","B"],["C","D"]],"coinWeights":[0.2,0.5,0.8],"subjectId":"ANK8K5WTHJ61C","assignmentId":"30MVJZJNHNZ0CR6AKJXH085ZQG8J91","hitId":"3JGHED38EDDK7DFM0KVY7GXU94LY7W","url":"https://gershmanlab.com/experiments/alicia/teaching/experiment/?hitId=3JGHED38EDDK7DFM0KVY7GXU94LY7W&workerId=ANK8K5WTHJ61C&assignmentId=30MVJZJNHNZ0CR6AKJXH085ZQG8J91&a=NJM09&tp_a=NJM09&b=30MVJZJNHNZ0CR6AKJXH085ZQG8J91&tp_b=30MVJZJNHNZ0CR6AKJXH085ZQG8J91&c=365799&tp_c=365799"},{"rt":12124,"response":{"heads":"9","tails":"1"},"type":"response","condition":"seqFeedback","trueTheta":0.2,"classrooms":["A","B"],"studentTrueClassroom":"B","exampleSet":"second","trial_type":"survey-html-form","trial_index":84,"time_elapsed":3139001,"internal_node_id":"0.0-74.0-0.0","params":{"nStudents":24,"maxFlips":30,"completionMinutes":45,"basePay":8,"maxBonus":9,"perTrialBonus":0.5,"perTrialBonusThreshold":0.05,"exampleCost":0.01},"classroomParams":{"A":{"a":1,"b":4},"B":{"a":4,"b":1},"C":{"a":2,"b":8},"D":{"a":8,"b":2}},"conditions":["nonSeqFull","nonSeqPartial","seqNoFeedback","seqFeedback"],"classroomPairings":[["A","B"],["C","D"]],"coinWeights":[0.2,0.5,0.8],"subjectId":"ANK8K5WTHJ61C","assignmentId":"30MVJZJNHNZ0CR6AKJXH085ZQG8J91","hitId":"3JGHED38EDDK7DFM0KVY7GXU94LY7W","url":"https://gershmanlab.com/experiments/alicia/teaching/experiment/?hitId=3JGHED38EDDK7DFM0KVY7GXU94LY7W&workerId=ANK8K5WTHJ61C&assignmentId=30MVJZJNHNZ0CR6AKJXH085ZQG8J91&a=NJM09&tp_a=NJM09&b=30MVJZJNHNZ0CR6AKJXH085ZQG8J91&tp_b=30MVJZJNHNZ0CR6AKJXH085ZQG8J91&c=365799&tp_c=365799","firstResponseHeads":3,"firstResponseTails":2,"s